onset	duration	sample	value	key	prompt_text
33.397	0.1045	66794	keystroke	m	n/a
33.4715	0.14	66943	keystroke	i	n/a
33.5915	0.0755	67183	keystroke	n	n/a
33.6815	0.0625	67363	keystroke	g	n/a
33.862	0.0595	67724	keystroke	r	n/a
33.922	0.09	67844	keystroke	u	n/a
33.967	0.075	67934	keystroke	i	n/a
38.902	0.2405	77804	keystroke	Key.ctrl	n/a
38.9325	0.185	77865	keystroke	Key.shift	n/a
39.022	0.1045	78044	keystroke	Key.tab	n/a
43.9275	0.18	87855	keystroke	Key.cmd	n/a
44.0025	0.0895	88005	keystroke	c	n/a
44.347	0.195	88694	keystroke	Key.ctrl	n/a
44.377	0.15	88754	keystroke	Key.tab	n/a
44.977	0.18	89954	keystroke	Key.cmd	n/a
45.037	0.09	90074	keystroke	v	n/a
51.4505	7.418	102901	prompt	n/a	the quick brown fox jumps over a lazy dog\n
53.152	0.0455	106304	keystroke	t	n/a
53.1975	0.06	106395	keystroke	h	n/a
53.275	0.102	106550	keystroke	e	n/a
53.3465	0.093	106693	keystroke	Key.space	n/a
53.4825	0.09	106965	keystroke	q	n/a
53.617	0.105	107234	keystroke	u	n/a
53.647	0.105	107294	keystroke	i	n/a
53.7665	0.0905	107533	keystroke	c	n/a
53.872	0.0905	107744	keystroke	k	n/a
54.0225	0.09	108045	keystroke	Key.space	n/a
54.397	0.0455	108794	keystroke	b	n/a
54.577	0.0605	109154	keystroke	r	n/a
54.6525	0.105	109305	keystroke	o	n/a
54.7725	0.062	109545	keystroke	w	n/a
54.877	0.0605	109754	keystroke	n	n/a
55.0125	0.1045	110025	keystroke	Key.space	n/a
55.477	0.0905	110954	keystroke	f	n/a
55.6575	0.0595	111315	keystroke	o	n/a
55.732	0.105	111464	keystroke	x	n/a
55.852	0.1055	111704	keystroke	Key.space	n/a
56.002	0.06	112004	keystroke	j	n/a
56.167	0.075	112334	keystroke	u	n/a
56.347	0.105	112694	keystroke	m	n/a
56.4525	0.1195	112905	keystroke	p	n/a
56.5575	0.0895	113115	keystroke	s	n/a
56.617	0.12	113234	keystroke	Key.space	n/a
56.812	0.077	113624	keystroke	o	n/a
56.902	0.09	113804	keystroke	v	n/a
57.022	0.1355	114044	keystroke	e	n/a
57.097	0.12	114194	keystroke	r	n/a
57.172	0.0905	114344	keystroke	Key.space	n/a
57.3075	0.1345	114615	keystroke	a	n/a
57.427	0.075	114854	keystroke	Key.space	n/a
57.685	0.042	115370	keystroke	l	n/a
57.757	0.075	115514	keystroke	a	n/a
57.952	0.0905	115904	keystroke	z	n/a
58.102	0.075	116204	keystroke	y	n/a
58.2225	0.09	116445	keystroke	Key.space	n/a
58.327	0.0925	116654	keystroke	d	n/a
58.462	0.075	116924	keystroke	o	n/a
58.567	0.075	117134	keystroke	g	n/a
58.7915	0.0755	117583	keystroke	Key.enter	n/a
58.8715	4.7965	117743	prompt	n/a	arranged waters handy maple\n
59.6765	0.1055	119353	keystroke	a	n/a
59.874	0.0725	119748	keystroke	r	n/a
60.04	0.0875	120080	keystroke	r	n/a
60.052	0.15	120104	keystroke	a	n/a
60.292	0.075	120584	keystroke	n	n/a
60.397	0.075	120794	keystroke	g	n/a
60.457	0.135	120914	keystroke	e	n/a
60.697	0.12	121394	keystroke	d	n/a
60.8025	0.1655	121605	keystroke	Key.space	n/a
61.0575	0.1345	122115	keystroke	w	n/a
61.177	0.1225	122354	keystroke	a	n/a
61.3275	0.09	122655	keystroke	t	n/a
61.433	0.119	122866	keystroke	e	n/a
61.522	0.12	123044	keystroke	r	n/a
61.717	0.135	123434	keystroke	s	n/a
61.8215	0.1505	123643	keystroke	Key.space	n/a
62.167	0.075	124334	keystroke	h	n/a
62.2335	0.0835	124467	keystroke	a	n/a
62.3765	0.0905	124753	keystroke	n	n/a
62.4525	0.0785	124905	keystroke	d	n/a
62.6175	0.1045	125235	keystroke	y	n/a
62.697	0.072	125394	keystroke	Key.space	n/a
62.917	0.09	125834	keystroke	m	n/a
62.992	0.075	125984	keystroke	a	n/a
63.1265	0.1055	126253	keystroke	p	n/a
63.323	0.104	126646	keystroke	l	n/a
63.397	0.06	126794	keystroke	e	n/a
63.577	0.0895	127154	keystroke	Key.enter	n/a
63.6705	7.0325	127341	prompt	n/a	circular grid pharmacies horizon\n
64.4765	0.0905	128953	keystroke	c	n/a
64.5535	0.0585	129107	keystroke	i	n/a
64.672	0.0815	129344	keystroke	r	n/a
64.837	0.09	129674	keystroke	c	n/a
64.972	0.06	129944	keystroke	u	n/a
65.137	0.08	130274	keystroke	l	n/a
65.302	0.1195	130604	keystroke	a	n/a
65.3915	0.1205	130783	keystroke	r	n/a
65.5265	0.091	131053	keystroke	Key.space	n/a
65.782	0.045	131564	keystroke	g	n/a
65.872	0.0745	131744	keystroke	i	n/a
65.9915	0.09	131983	keystroke	r	n/a
66.7125	0.0145	133425	keystroke	Key.backspace	n/a
66.832	0.0755	133664	keystroke	Key.backspace	n/a
66.9395	0.103	133879	keystroke	r	n/a
67.072	0.075	134144	keystroke	i	n/a
67.177	0.1055	134354	keystroke	d	n/a
67.283	0.089	134566	keystroke	Key.space	n/a
67.569	0.103	135138	keystroke	p	n/a
67.6275	0.0895	135255	keystroke	h	n/a
67.7465	0.1535	135493	keystroke	a	n/a
67.942	0.1045	135884	keystroke	r	n/a
68.1725	0.0845	136345	keystroke	m	n/a
68.287	0.12	136574	keystroke	a	n/a
68.3915	0.12	136783	keystroke	r	n/a
68.6335	0.073	137267	keystroke	c	n/a
68.752	0.105	137504	keystroke	i	n/a
68.902	0.096	137804	keystroke	e	n/a
69.052	0.165	138104	keystroke	s	n/a
69.2015	0.0915	138403	keystroke	Key.space	n/a
69.472	0.135	138944	keystroke	h	n/a
69.592	0.1205	139184	keystroke	o	n/a
69.7425	0.0895	139485	keystroke	r	n/a
69.892	0.09	139784	keystroke	i	n/a
70.012	0.105	140024	keystroke	z	n/a
70.267	0.1215	140534	keystroke	o	n/a
70.342	0.12	140684	keystroke	n	n/a
70.6425	0.0595	141285	keystroke	Key.enter	n/a
70.707	6.0115	141414	prompt	n/a	specifies dead sugar choosing\n
71.7065	0.076	143413	keystroke	s	n/a
71.872	0.0895	143744	keystroke	p	n/a
71.932	0.075	143864	keystroke	e	n/a
72.1445	0.0575	144289	keystroke	c	n/a
72.247	0.0895	144494	keystroke	i	n/a
72.367	0.09	144734	keystroke	f	n/a
72.502	0.0895	145004	keystroke	i	n/a
72.652	0.075	145304	keystroke	e	n/a
72.8765	0.075	145753	keystroke	s	n/a
73.0735	0.103	146147	keystroke	Key.space	n/a
73.327	0.078	146654	keystroke	d	n/a
73.4765	0.0755	146953	keystroke	e	n/a
73.567	0.1795	147134	keystroke	a	n/a
73.762	0.09	147524	keystroke	d	n/a
73.972	0.1045	147944	keystroke	Key.space	n/a
74.272	0.0745	148544	keystroke	s	n/a
74.392	0.09	148784	keystroke	u	n/a
74.692	0.045	149384	keystroke	g	n/a
74.902	0.105	149804	keystroke	a	n/a
74.992	0.12	149984	keystroke	r	n/a
75.142	0.075	150284	keystroke	Key.space	n/a
75.4115	0.0605	150823	keystroke	c	n/a
75.487	0.1195	150974	keystroke	h	n/a
75.5765	0.0905	151153	keystroke	o	n/a
75.7875	0.089	151575	keystroke	o	n/a
75.922	0.09	151844	keystroke	s	n/a
76.029	0.1175	152058	keystroke	i	n/a
76.087	0.141	152174	keystroke	n	n/a
76.327	0.09	152654	keystroke	g	n/a
76.642	0.075	153284	keystroke	Key.enter	n/a
76.7225	6.281	153445	prompt	n/a	valid realtors speaking starts\n
77.767	0.06	155534	keystroke	v	n/a
77.842	0.107	155684	keystroke	a	n/a
77.9615	0.1355	155923	keystroke	l	n/a
78.022	0.12	156044	keystroke	i	n/a
78.0965	0.1055	156193	keystroke	d	n/a
78.1865	0.1205	156373	keystroke	Key.space	n/a
78.4725	0.106	156945	keystroke	r	n/a
78.547	0.1355	157094	keystroke	e	n/a
78.6975	0.12	157395	keystroke	a	n/a
78.892	0.1205	157784	keystroke	l	n/a
79.2975	0.09	158595	keystroke	t	n/a
79.4175	0.09	158835	keystroke	o	n/a
79.5525	0.06	159105	keystroke	r	n/a
79.747	0.1205	159494	keystroke	s	n/a
79.8825	0.1045	159765	keystroke	Key.space	n/a
80.092	0.1655	160184	keystroke	s	n/a
80.2125	0.105	160425	keystroke	e	n/a
80.303	0.0895	160606	keystroke	p	n/a
80.6025	0.0595	161205	keystroke	Key.backspace	n/a
80.7525	0.075	161505	keystroke	Key.backspace	n/a
80.977	0.09	161954	keystroke	p	n/a
81.0225	0.12	162045	keystroke	e	n/a
81.1275	0.1195	162255	keystroke	a	n/a
81.292	0.077	162584	keystroke	k	n/a
81.4875	0.1045	162975	keystroke	i	n/a
81.577	0.1055	163154	keystroke	n	n/a
81.7295	0.1175	163459	keystroke	g	n/a
81.8625	0.0895	163725	keystroke	Key.space	n/a
81.9825	0.12	163965	keystroke	s	n/a
82.1175	0.09	164235	keystroke	t	n/a
82.2225	0.12	164445	keystroke	a	n/a
82.297	0.0905	164594	keystroke	r	n/a
82.5375	0.0915	165075	keystroke	t	n/a
82.6425	0.1195	165285	keystroke	s	n/a
82.9125	0.09	165825	keystroke	Key.enter	n/a
83.006	8.187	166012	prompt	n/a	catering margaret broker enhancing\n
83.977	0.0905	167954	keystroke	c	n/a
84.1875	0.1045	168375	keystroke	a	n/a
84.382	0.12	168764	keystroke	t	n/a
84.472	0.1355	168944	keystroke	e	n/a
84.6225	0.075	169245	keystroke	r	n/a
84.7425	0.09	169485	keystroke	i	n/a
84.817	0.1205	169634	keystroke	n	n/a
84.9675	0.135	169935	keystroke	g	n/a
85.0725	0.0895	170145	keystroke	Key.space	n/a
85.2825	0.09	170565	keystroke	m	n/a
85.372	0.12	170744	keystroke	a	n/a
85.477	0.1205	170954	keystroke	r	n/a
85.7325	0.0895	171465	keystroke	g	n/a
86.0025	0.0745	172005	keystroke	e	n/a
86.377	0.0755	172754	keystroke	Key.backspace	n/a
86.4975	0.107	172995	keystroke	a	n/a
86.7375	0.105	173475	keystroke	r	n/a
86.7975	0.1055	173595	keystroke	e	n/a
87.0975	0.1495	174195	keystroke	t	n/a
87.262	0.1205	174524	keystroke	Key.space	n/a
88.0425	0.075	176085	keystroke	b	n/a
88.466	0.0865	176932	keystroke	r	n/a
88.5825	0.1495	177165	keystroke	o	n/a
88.867	0.0965	177734	keystroke	k	n/a
88.972	0.1045	177944	keystroke	e	n/a
89.017	0.1205	178034	keystroke	r	n/a
89.1825	0.105	178365	keystroke	Key.space	n/a
89.647	0.09	179294	keystroke	e	n/a
89.797	0.0945	179594	keystroke	n	n/a
90.024	0.0735	180048	keystroke	h	n/a
90.0975	0.0925	180195	keystroke	a	n/a
90.3225	0.1045	180645	keystroke	n	n/a
90.489	0.073	180978	keystroke	c	n/a
90.697	0.1055	181394	keystroke	i	n/a
90.772	0.105	181544	keystroke	n	n/a
90.892	0.0755	181784	keystroke	g	n/a
91.1195	0.072	182239	keystroke	Key.enter	n/a
91.2	4.2685	182400	prompt	n/a	wish trusts once rely\n
92.062	0.0755	184124	keystroke	w	n/a
92.152	0.0915	184304	keystroke	i	n/a
92.2725	0.12	184545	keystroke	s	n/a
92.392	0.0755	184784	keystroke	h	n/a
92.5125	0.105	185025	keystroke	Key.space	n/a
92.7675	0.09	185535	keystroke	t	n/a
92.9325	0.09	185865	keystroke	r	n/a
93.1425	0.09	186285	keystroke	u	n/a
93.2175	0.1525	186435	keystroke	s	n/a
93.3525	0.089	186705	keystroke	t	n/a
93.547	0.165	187094	keystroke	s	n/a
93.697	0.105	187394	keystroke	Key.space	n/a
94.057	0.105	188114	keystroke	o	n/a
94.102	0.12	188204	keystroke	n	n/a
94.207	0.092	188414	keystroke	c	n/a
94.4015	0.1055	188803	keystroke	e	n/a
94.4925	0.1055	188985	keystroke	Key.space	n/a
94.7315	0.1205	189463	keystroke	r	n/a
94.8075	0.105	189615	keystroke	e	n/a
94.987	0.135	189974	keystroke	l	n/a
95.094	0.1335	190188	keystroke	y	n/a
95.3955	0.072	190791	keystroke	Key.enter	n/a
95.4715	6.882	190943	prompt	n/a	visibility ones reflects bomb\n
96.292	0.0695	192584	keystroke	v	n/a
96.3675	0.0745	192735	keystroke	i	n/a
96.4575	0.1045	192915	keystroke	s	n/a
96.577	0.0765	193154	keystroke	i	n/a
96.7275	0.0595	193455	keystroke	b	n/a
97.387	0.1055	194774	keystroke	i	n/a
97.615	0.147	195230	keystroke	l	n/a
97.7025	0.12	195405	keystroke	i	n/a
97.927	0.0605	195854	keystroke	t	n/a
98.0325	0.105	196065	keystroke	y	n/a
98.1525	0.093	196305	keystroke	Key.space	n/a
98.348	0.1195	196696	keystroke	o	n/a
98.512	0.0905	197024	keystroke	n	n/a
98.647	0.1055	197294	keystroke	e	n/a
98.8875	0.1045	197775	keystroke	s	n/a
99.0075	0.105	198015	keystroke	Key.space	n/a
99.277	0.0905	198554	keystroke	r	n/a
99.3225	0.12	198645	keystroke	e	n/a
99.7275	0.045	199455	keystroke	l	n/a
100.147	0.0755	200294	keystroke	Key.backspace	n/a
100.2825	0.0745	200565	keystroke	f	n/a
100.462	0.0595	200924	keystroke	l	n/a
100.567	0.12	201134	keystroke	e	n/a
100.822	0.12	201644	keystroke	c	n/a
100.957	0.12	201914	keystroke	t	n/a
101.107	0.1505	202214	keystroke	s	n/a
101.2725	0.0615	202545	keystroke	Key.space	n/a
101.4995	0.058	202999	keystroke	b	n/a
101.5725	0.1345	203145	keystroke	o	n/a
101.7825	0.1495	203565	keystroke	m	n/a
102.0375	0.1045	204075	keystroke	b	n/a
102.262	0.0905	204524	keystroke	Key.enter	n/a
102.357	7.272	204714	prompt	n/a	within calculation victorian reveal\n
103.253	0.0145	206506	keystroke	w	n/a
103.282	0.1505	206564	keystroke	i	n/a
103.5975	0.06	207195	keystroke	t	n/a
103.7025	0.135	207405	keystroke	h	n/a
103.8225	0.12	207645	keystroke	i	n/a
104.0325	0.12	208065	keystroke	n	n/a
104.2425	0.108	208485	keystroke	Key.space	n/a
104.8575	0.1045	209715	keystroke	c	n/a
104.9325	0.1195	209865	keystroke	a	n/a
105.0825	0.1045	210165	keystroke	l	n/a
105.3145	0.0525	210629	keystroke	c	n/a
105.382	0.105	210764	keystroke	u	n/a
105.612	0.1005	211224	keystroke	l	n/a
105.6975	0.105	211395	keystroke	a	n/a
105.911	0.0565	211822	keystroke	t	n/a
105.9525	0.165	211905	keystroke	i	n/a
105.9975	0.135	211995	keystroke	o	n/a
106.0875	0.12	212175	keystroke	n	n/a
106.2225	0.0895	212445	keystroke	Key.space	n/a
106.762	0.061	213524	keystroke	v	n/a
106.8225	0.09	213645	keystroke	i	n/a
106.988	0.089	213976	keystroke	c	n/a
107.2285	0.1055	214457	keystroke	t	n/a
107.3925	0.1065	214785	keystroke	o	n/a
107.527	0.106	215054	keystroke	r	n/a
107.677	0.1055	215354	keystroke	i	n/a
107.8315	0.101	215663	keystroke	a	n/a
107.947	0.0755	215894	keystroke	n	n/a
108.0975	0.0595	216195	keystroke	Key.space	n/a
108.4425	0.1195	216885	keystroke	r	n/a
108.4875	0.12	216975	keystroke	e	n/a
108.7425	0.0595	217485	keystroke	v	n/a
108.862	0.1655	217724	keystroke	e	n/a
109.0125	0.1045	218025	keystroke	a	n/a
109.253	0.1195	218506	keystroke	l	n/a
109.537	0.0905	219074	keystroke	Key.enter	n/a
109.632	5.921	219264	prompt	n/a	inches essentially strap condo\n
110.377	0.108	220754	keystroke	i	n/a
110.4375	0.09	220875	keystroke	n	n/a
110.5725	0.1045	221145	keystroke	c	n/a
110.7975	0.0895	221595	keystroke	h	n/a
110.917	0.1505	221834	keystroke	e	n/a
111.157	0.122	222314	keystroke	s	n/a
111.292	0.105	222584	keystroke	Key.space	n/a
111.562	0.0755	223124	keystroke	e	n/a
111.7435	0.0735	223487	keystroke	s	n/a
111.952	0.105	223904	keystroke	s	n/a
112.012	0.196	224024	keystroke	e	n/a
112.567	0.09	225134	keystroke	n	n/a
112.762	0.06	225524	keystroke	t	n/a
112.8825	0.1045	225765	keystroke	i	n/a
113.017	0.075	226034	keystroke	a	n/a
113.122	0.075	226244	keystroke	l	n/a
113.3175	0.0745	226635	keystroke	l	n/a
113.5425	0.1345	227085	keystroke	y	n/a
113.662	0.105	227324	keystroke	Key.space	n/a
113.917	0.105	227834	keystroke	s	n/a
114.0825	0.075	228165	keystroke	t	n/a
114.247	0.1055	228494	keystroke	r	n/a
114.3375	0.105	228675	keystroke	a	n/a
114.5025	0.0895	229005	keystroke	p	n/a
114.622	0.0905	229244	keystroke	Key.space	n/a
114.8175	0.077	229635	keystroke	c	n/a
114.877	0.1355	229754	keystroke	o	n/a
114.9525	0.108	229905	keystroke	n	n/a
115.042	0.0905	230084	keystroke	d	n/a
115.237	0.0755	230474	keystroke	o	n/a
115.477	0.075	230954	keystroke	Key.enter	n/a
115.556	8.712	231112	prompt	n/a	faculty translator interventions halloween\n
116.4375	0.0895	232875	keystroke	f	n/a
116.497	0.126	232994	keystroke	a	n/a
116.647	0.075	233294	keystroke	l	n/a
116.977	0.06	233954	keystroke	Key.backspace	n/a
117.157	0.105	234314	keystroke	c	n/a
117.2765	0.0755	234553	keystroke	u	n/a
117.487	0.09	234974	keystroke	l	n/a
117.757	0.0755	235514	keystroke	t	n/a
117.892	0.153	235784	keystroke	y	n/a
118.057	0.105	236114	keystroke	Key.space	n/a
118.3445	0.0725	236689	keystroke	t	n/a
118.537	0.12	237074	keystroke	r	n/a
118.6125	0.1345	237225	keystroke	a	n/a
118.8085	0.0885	237617	keystroke	n	n/a
119.0175	0.1045	238035	keystroke	s	n/a
119.347	0.0915	238694	keystroke	l	n/a
119.4825	0.1245	238965	keystroke	a	n/a
119.707	0.12	239414	keystroke	t	n/a
119.917	0.09	239834	keystroke	o	n/a
120.022	0.12	240044	keystroke	r	n/a
120.1725	0.0895	240345	keystroke	Key.space	n/a
120.371	0.1015	240742	keystroke	i	n/a
120.4285	0.1185	240857	keystroke	n	n/a
120.6525	0.075	241305	keystroke	t	n/a
120.7125	0.1345	241425	keystroke	e	n/a
120.869	0.038	241738	keystroke	r	n/a
121.1635	0.0735	242327	keystroke	v	n/a
121.3125	0.0895	242625	keystroke	e	n/a
121.447	0.1055	242894	keystroke	n	n/a
121.7925	0.0895	243585	keystroke	t	n/a
121.9275	0.197	243855	keystroke	i	n/a
121.9875	0.1495	243975	keystroke	o	n/a
122.077	0.12	244154	keystroke	n	n/a
122.2125	0.1195	244425	keystroke	s	n/a
122.3465	0.1205	244693	keystroke	Key.space	n/a
122.692	0.09	245384	keystroke	h	n/a
122.767	0.09	245534	keystroke	a	n/a
122.902	0.06	245804	keystroke	l	n/a
123.0675	0.0745	246135	keystroke	l	n/a
123.247	0.075	246494	keystroke	o	n/a
123.3075	0.105	246615	keystroke	w	n/a
123.652	0.075	247304	keystroke	e	n/a
123.817	0.075	247634	keystroke	e	n/a
123.937	0.1055	247874	keystroke	n	n/a
124.207	0.06	248414	keystroke	Key.enter	n/a
124.271	5.187	248542	prompt	n/a	bank yellow ranked screw\n
125.182	0.105	250364	keystroke	b	n/a
125.3015	0.1055	250603	keystroke	a	n/a
125.647	0.105	251294	keystroke	n	n/a
125.872	0.09	251744	keystroke	k	n/a
126.0375	0.1045	252075	keystroke	Key.space	n/a
126.412	0.105	252824	keystroke	y	n/a
126.4575	0.089	252915	keystroke	e	n/a
126.637	0.0605	253274	keystroke	l	n/a
126.802	0.0595	253604	keystroke	l	n/a
126.982	0.075	253964	keystroke	o	n/a
127.027	0.135	254054	keystroke	w	n/a
127.1765	0.0755	254353	keystroke	Key.space	n/a
127.357	0.135	254714	keystroke	r	n/a
127.4765	0.121	254953	keystroke	a	n/a
127.582	0.075	255164	keystroke	n	n/a
127.778	0.074	255556	keystroke	k	n/a
127.8975	0.089	255795	keystroke	e	n/a
128.0945	0.0875	256189	keystroke	d	n/a
128.212	0.09	256424	keystroke	Key.space	n/a
128.407	0.09	256814	keystroke	s	n/a
128.602	0.075	257204	keystroke	c	n/a
128.767	0.1225	257534	keystroke	r	n/a
128.8575	0.089	257715	keystroke	e	n/a
129.142	0.12	258284	keystroke	w	n/a
129.382	0.075	258764	keystroke	Key.enter	n/a
129.461	7.9325	258922	prompt	n/a	wound provided nerve requirement\n
130.192	0.105	260384	keystroke	w	n/a
130.3115	0.1205	260623	keystroke	o	n/a
130.4025	0.1195	260805	keystroke	u	n/a
130.732	0.09	261464	keystroke	n	n/a
130.837	0.12	261674	keystroke	d	n/a
130.9725	0.089	261945	keystroke	Key.space	n/a
131.257	0.0905	262514	keystroke	p	n/a
131.332	0.09	262664	keystroke	r	n/a
131.452	0.105	262904	keystroke	o	n/a
131.602	0.015	263204	keystroke	v	n/a
131.6915	0.0905	263383	keystroke	i	n/a
131.767	0.078	263534	keystroke	d	n/a
131.9465	0.0645	263893	keystroke	e	n/a
132.128	0.059	264256	keystroke	d	n/a
132.2465	0.0925	264493	keystroke	Key.space	n/a
132.4715	0.1355	264943	keystroke	n	n/a
132.547	0.09	265094	keystroke	e	n/a
132.712	0.06	265424	keystroke	v	n/a
132.8025	0.0295	265605	keystroke	v	n/a
133.117	0.09	266234	keystroke	Key.backspace	n/a
133.237	0.105	266474	keystroke	r	n/a
133.657	0.0605	267314	keystroke	Key.backspace	n/a
133.8065	0.0755	267613	keystroke	Key.backspace	n/a
133.942	0.165	267884	keystroke	r	n/a
134.092	0.03	268184	keystroke	e	n/a
134.137	0.015	268274	keystroke	r	n/a
134.5275	0.0745	269055	keystroke	Key.backspace	n/a
134.707	0.075	269414	keystroke	Key.backspace	n/a
135.187	0.0745	270374	keystroke	v	n/a
135.294	0.1175	270588	keystroke	e	n/a
135.46	0.0865	270920	keystroke	Key.space	n/a
136.072	0.135	272144	keystroke	r	n/a
136.147	0.075	272294	keystroke	e	n/a
136.342	0.09	272684	keystroke	q	n/a
136.462	0.135	272924	keystroke	u	n/a
136.522	0.12	273044	keystroke	i	n/a
136.6125	0.119	273225	keystroke	r	n/a
136.672	0.1195	273344	keystroke	e	n/a
136.852	0.0905	273704	keystroke	m	n/a
136.9565	0.0605	273913	keystroke	e	n/a
137.077	0.06	274154	keystroke	n	n/a
137.152	0.0625	274304	keystroke	t	n/a
137.317	0.075	274634	keystroke	Key.enter	n/a
137.3965	6.822	274793	prompt	n/a	vocational decrease tropical disagree\n
138.2765	0.0605	276553	keystroke	v	n/a
138.382	0.075	276764	keystroke	o	n/a
138.502	0.09	277004	keystroke	c	n/a
138.667	0.09	277334	keystroke	a	n/a
138.817	0.0745	277634	keystroke	t	n/a
138.9065	0.15	277813	keystroke	i	n/a
138.9385	0.1655	277877	keystroke	o	n/a
139.0125	0.134	278025	keystroke	n	n/a
139.1765	0.0755	278353	keystroke	a	n/a
139.2815	0.0905	278563	keystroke	l	n/a
139.403	0.0885	278806	keystroke	Key.space	n/a
139.7765	0.06	279553	keystroke	d	n/a
139.912	0.075	279824	keystroke	e	n/a
140.122	0.0445	280244	keystroke	c	n/a
140.302	0.0895	280604	keystroke	r	n/a
140.3465	0.1055	280693	keystroke	e	n/a
140.4975	0.104	280995	keystroke	a	n/a
140.587	0.165	281174	keystroke	s	n/a
140.6465	0.184	281293	keystroke	e	n/a
140.812	0.12	281624	keystroke	Key.space	n/a
141.052	0.0755	282104	keystroke	t	n/a
141.2015	0.093	282403	keystroke	r	n/a
141.307	0.1345	282614	keystroke	o	n/a
141.427	0.12	282854	keystroke	p	n/a
141.532	0.135	283064	keystroke	i	n/a
141.652	0.105	283304	keystroke	c	n/a
141.787	0.1045	283574	keystroke	a	n/a
141.907	0.09	283814	keystroke	l	n/a
142.042	0.0745	284084	keystroke	Key.space	n/a
142.1765	0.0905	284353	keystroke	d	n/a
142.3425	0.0745	284685	keystroke	e	n/a
142.6725	0.0745	285345	keystroke	Key.backspace	n/a
142.8675	0.0895	285735	keystroke	i	n/a
142.9725	0.1195	285945	keystroke	s	n/a
143.212	0.12	286424	keystroke	a	n/a
143.515	0.072	287030	keystroke	g	n/a
143.6915	0.1055	287383	keystroke	r	n/a
143.767	0.105	287534	keystroke	e	n/a
143.9465	0.091	287893	keystroke	e	n/a
144.1275	0.0895	288255	keystroke	Key.enter	n/a
144.2215	6.824	288443	prompt	n/a	format backup caution christian\n
144.9975	0.0765	289995	keystroke	f	n/a
145.1025	0.105	290205	keystroke	o	n/a
145.192	0.075	290384	keystroke	r	n/a
145.3565	0.0905	290713	keystroke	m	n/a
145.462	0.0775	290924	keystroke	a	n/a
145.597	0.12	291194	keystroke	t	n/a
145.7765	0.093	291553	keystroke	Key.space	n/a
145.987	0.06	291974	keystroke	b	n/a
146.0915	0.1205	292183	keystroke	a	n/a
146.257	0.0895	292514	keystroke	c	n/a
146.392	0.09	292784	keystroke	k	n/a
146.512	0.0915	293024	keystroke	Key.space	n/a
146.9345	0.057	293869	keystroke	Key.backspace	n/a
147.142	0.15	294284	keystroke	u	n/a
147.2625	0.0895	294525	keystroke	p	n/a
147.4125	0.0895	294825	keystroke	Key.space	n/a
147.727	0.0605	295454	keystroke	c	n/a
147.8615	0.0755	295723	keystroke	a	n/a
147.997	0.105	295994	keystroke	u	n/a
148.2245	0.057	296449	keystroke	t	n/a
148.312	0.1945	296624	keystroke	i	n/a
148.402	0.1345	296804	keystroke	o	n/a
148.523	0.104	297046	keystroke	n	n/a
148.657	0.105	297314	keystroke	Key.space	n/a
148.912	0.09	297824	keystroke	c	n/a
149.047	0.0745	298094	keystroke	h	n/a
149.153	0.089	298306	keystroke	r	n/a
149.4215	0.091	298843	keystroke	i	n/a
149.602	0.0895	299204	keystroke	s	n/a
149.857	0.096	299714	keystroke	t	n/a
149.9915	0.127	299983	keystroke	i	n/a
150.187	0.075	300374	keystroke	a	n/a
150.4265	0.0755	300853	keystroke	n	n/a
150.967	0.0765	301934	keystroke	Key.enter	n/a
151.049	9.489	302098	prompt	n/a	enormous required community holocaust\n
151.852	0.105	303704	keystroke	e	n/a
152.032	0.165	304064	keystroke	n	n/a
152.1525	0.135	304305	keystroke	o	n/a
152.437	0.12	304874	keystroke	r	n/a
152.8715	0.18	305743	keystroke	m	n/a
152.977	0.1355	305954	keystroke	o	n/a
153.1575	0.0895	306315	keystroke	r	n/a
153.532	0.0745	307064	keystroke	Key.backspace	n/a
153.7305	0.0865	307461	keystroke	u	n/a
153.9065	0.0605	307813	keystroke	r	n/a
154.2365	0.0755	308473	keystroke	Key.backspace	n/a
154.357	0.15	308714	keystroke	s	n/a
154.537	0.105	309074	keystroke	Key.space	n/a
154.762	0.1345	309524	keystroke	r	n/a
154.852	0.12	309704	keystroke	e	n/a
155.0915	0.0905	310183	keystroke	q	n/a
155.197	0.12	310394	keystroke	u	n/a
155.2575	0.119	310515	keystroke	i	n/a
155.347	0.1345	310694	keystroke	r	n/a
155.407	0.1195	310814	keystroke	e	n/a
155.6475	0.106	311295	keystroke	d	n/a
155.767	0.09	311534	keystroke	Key.space	n/a
156.1715	0.0905	312343	keystroke	c	n/a
156.277	0.0755	312554	keystroke	o	n/a
156.457	0.075	312914	keystroke	m	n/a
156.6215	0.0755	313243	keystroke	m	n/a
156.832	0.0595	313664	keystroke	u	n/a
157.0275	0.1195	314055	keystroke	n	n/a
157.132	0.075	314264	keystroke	i	n/a
157.252	0.0925	314504	keystroke	t	n/a
157.3575	0.0895	314715	keystroke	y	n/a
157.522	0.106	315044	keystroke	Key.space	n/a
157.778	0.074	315556	keystroke	h	n/a
158.0765	0.0905	316153	keystroke	o	n/a
158.3025	0.0595	316605	keystroke	l	n/a
158.482	0.075	316964	keystroke	o	n/a
158.9035	0.103	317807	keystroke	c	n/a
159.0215	0.0905	318043	keystroke	a	n/a
159.142	0.105	318284	keystroke	u	n/a
159.3225	0.2245	318645	keystroke	s	n/a
159.428	0.106	318856	keystroke	e	n/a
159.562	0.1505	319124	keystroke	t	n/a
160.027	0.075	320054	keystroke	Key.backspace	n/a
160.1765	0.0905	320353	keystroke	Key.backspace	n/a
160.357	0.06	320714	keystroke	t	n/a
160.4625	0.0745	320925	keystroke	Key.enter	n/a
160.541	9.1325	321082	prompt	n/a	mixture continually quiet signature\n
161.347	0.12	322694	keystroke	m	n/a
161.4005	0.1115	322801	keystroke	i	n/a
161.528	0.1485	323056	keystroke	s	n/a
161.947	0.15	323894	keystroke	x	n/a
162.3215	0.0455	324643	keystroke	Key.backspace	n/a
162.487	0.075	324974	keystroke	Key.backspace	n/a
162.547	0.1195	325094	keystroke	x	n/a
162.7125	0.1195	325425	keystroke	t	n/a
162.907	0.077	325814	keystroke	u	n/a
163.012	0.165	326024	keystroke	r	n/a
163.117	0.12	326234	keystroke	e	n/a
163.342	0.0905	326684	keystroke	Key.space	n/a
163.582	0.075	327164	keystroke	c	n/a
163.613	0.134	327226	keystroke	o	n/a
163.702	0.1345	327404	keystroke	n	n/a
163.867	0.105	327734	keystroke	t	n/a
163.987	0.0755	327974	keystroke	i	n/a
164.1825	0.075	328365	keystroke	n	n/a
164.392	0.075	328784	keystroke	u	n/a
164.6325	0.0895	329265	keystroke	a	n/a
164.7975	0.08	329595	keystroke	l	n/a
164.977	0.075	329954	keystroke	l	n/a
165.082	0.15	330164	keystroke	y	n/a
165.262	0.09	330524	keystroke	Key.space	n/a
165.428	0.1045	330856	keystroke	q	n/a
165.517	0.135	331034	keystroke	u	n/a
165.5625	0.1345	331125	keystroke	i	n/a
165.757	0.135	331514	keystroke	t	n/a
165.877	0.0295	331754	keystroke	e	n/a
165.9715	0.0705	331943	keystroke	e	n/a
166.267	0.061	332534	keystroke	Key.backspace	n/a
166.432	0.0745	332864	keystroke	Key.backspace	n/a
166.5985	0.0735	333197	keystroke	Key.backspace	n/a
166.7335	0.134	333467	keystroke	e	n/a
166.852	0.1205	333704	keystroke	t	n/a
167.0475	0.1045	334095	keystroke	Key.space	n/a
167.6925	0.0745	335385	keystroke	s	n/a
167.782	0.1055	335564	keystroke	i	n/a
167.9025	0.0895	335805	keystroke	g	n/a
168.0825	0.135	336165	keystroke	n	n/a
168.202	0.0305	336404	keystroke	i	n/a
168.622	0.0605	337244	keystroke	Key.backspace	n/a
168.7425	0.1045	337485	keystroke	a	n/a
169.0125	0.0905	338025	keystroke	t	n/a
169.192	0.075	338384	keystroke	u	n/a
169.284	0.1335	338568	keystroke	r	n/a
169.3725	0.1045	338745	keystroke	e	n/a
169.597	0.075	339194	keystroke	Key.enter	n/a
169.676	7.527	339352	prompt	n/a	amber horizontal movies deferred\n
170.5875	0.1195	341175	keystroke	a	n/a
170.7225	0.09	341445	keystroke	m	n/a
170.872	0.075	341744	keystroke	b	n/a
171.0675	0.12	342135	keystroke	e	n/a
171.128	0.1485	342256	keystroke	r	n/a
171.292	0.0905	342584	keystroke	Key.space	n/a
171.64	0.1175	343280	keystroke	h	n/a
171.712	0.1055	343424	keystroke	o	n/a
171.8475	0.105	343695	keystroke	r	n/a
171.9825	0.105	343965	keystroke	i	n/a
172.162	0.09	344324	keystroke	z	n/a
172.328	0.1345	344656	keystroke	o	n/a
172.417	0.1055	344834	keystroke	n	n/a
172.6575	0.105	345315	keystroke	t	n/a
172.747	0.1205	345494	keystroke	a	n/a
172.8995	0.1025	345799	keystroke	l	n/a
173.107	0.061	346214	keystroke	Key.space	n/a
173.2575	0.1645	346515	keystroke	m	n/a
173.332	0.105	346664	keystroke	o	n/a
173.498	0.0745	346996	keystroke	v	n/a
173.6175	0.1045	347235	keystroke	i	n/a
173.707	0.225	347414	keystroke	e	n/a
173.902	0.1355	347804	keystroke	w	n/a
174.3375	0.0905	348675	keystroke	Key.backspace	n/a
174.4725	0.152	348945	keystroke	s	n/a
174.592	0.12	349184	keystroke	Key.space	n/a
174.9375	0.06	349875	keystroke	d	n/a
175.1025	0.0745	350205	keystroke	e	n/a
175.255	0.087	350510	keystroke	f	n/a
175.507	0.1055	351014	keystroke	e	n/a
175.7475	0.0745	351495	keystroke	r	n/a
175.987	0.0755	351974	keystroke	e	n/a
176.4675	0.0605	352935	keystroke	Key.backspace	n/a
176.5885	0.1035	353177	keystroke	r	n/a
176.6625	0.105	353325	keystroke	e	n/a
176.9025	0.0895	353805	keystroke	d	n/a
177.1275	0.075	354255	keystroke	Key.enter	n/a
177.208	6.955	354416	prompt	n/a	indicates conscious clicks verizon\n
177.908	0.134	355816	keystroke	i	n/a
177.982	0.0755	355964	keystroke	n	n/a
178.102	0.0905	356204	keystroke	d	n/a
178.207	0.0755	356414	keystroke	i	n/a
178.2975	0.0595	356595	keystroke	c	n/a
178.405	0.117	356810	keystroke	a	n/a
178.5375	0.105	357075	keystroke	t	n/a
178.7625	0.09	357525	keystroke	e	n/a
178.9875	0.1195	357975	keystroke	s	n/a
179.077	0.135	358154	keystroke	Key.space	n/a
179.3625	0.09	358725	keystroke	c	n/a
179.4675	0.1495	358935	keystroke	o	n/a
179.528	0.1405	359056	keystroke	n	n/a
179.7525	0.0895	359505	keystroke	s	n/a
179.977	0.091	359954	keystroke	c	n/a
180.277	0.1805	360554	keystroke	i	n/a
180.607	0.1235	361214	keystroke	o	n/a
180.6975	0.12	361395	keystroke	u	n/a
180.907	0.1515	361814	keystroke	s	n/a
181.1025	0.0895	362205	keystroke	Key.space	n/a
181.4175	0.0745	362835	keystroke	c	n/a
181.5375	0.165	363075	keystroke	l	n/a
181.6125	0.1345	363225	keystroke	i	n/a
181.792	0.0905	363584	keystroke	c	n/a
181.913	0.1065	363826	keystroke	k	n/a
182.0475	0.105	364095	keystroke	e	n/a
182.407	0.105	364814	keystroke	Key.backspace	n/a
182.528	0.1215	365056	keystroke	s	n/a
182.6625	0.0595	365325	keystroke	Key.space	n/a
182.8725	0.076	365745	keystroke	v	n/a
182.977	0.151	365954	keystroke	e	n/a
183.0825	0.12	366165	keystroke	r	n/a
183.292	0.1055	366584	keystroke	i	n/a
183.5785	0.1035	367157	keystroke	z	n/a
183.697	0.1355	367394	keystroke	o	n/a
183.7575	0.1195	367515	keystroke	n	n/a
184.0875	0.0745	368175	keystroke	Key.enter	n/a
184.1655	6.658	368331	prompt	n/a	twiki transcripts sacred peru\n
185.0625	0.09	370125	keystroke	t	n/a
185.1705	0.117	370341	keystroke	w	n/a
185.362	0.1065	370724	keystroke	i	n/a
185.602	0.0605	371204	keystroke	k	n/a
185.7675	0.075	371535	keystroke	i	n/a
185.8575	0.105	371715	keystroke	Key.space	n/a
186.0825	0.075	372165	keystroke	t	n/a
186.2645	0.088	372529	keystroke	r	n/a
186.4425	0.105	372885	keystroke	a	n/a
186.607	0.1055	373214	keystroke	n	n/a
186.8325	0.0895	373665	keystroke	s	n/a
187.0425	0.06	374085	keystroke	c	n/a
187.207	0.0905	374414	keystroke	r	n/a
187.3605	0.1645	374721	keystroke	i	n/a
187.4325	0.1045	374865	keystroke	p	n/a
187.5975	0.09	375195	keystroke	t	n/a
187.7025	0.121	375405	keystroke	s	n/a
187.8975	0.105	375795	keystroke	Key.space	n/a
188.167	0.1055	376334	keystroke	s	n/a
188.377	0.0905	376754	keystroke	a	n/a
188.6025	0.0895	377205	keystroke	c	n/a
188.828	0.1045	377656	keystroke	r	n/a
188.9025	0.1045	377805	keystroke	e	n/a
189.1425	0.1075	378285	keystroke	d	n/a
189.2625	0.075	378525	keystroke	Key.space	n/a
189.548	0.1045	379096	keystroke	p	n/a
189.622	0.092	379244	keystroke	e	n/a
189.7875	0.1195	379575	keystroke	r	n/a
189.9375	0.076	379875	keystroke	i	n/a
190.357	0.0605	380714	keystroke	Key.backspace	n/a
190.522	0.0905	381044	keystroke	u	n/a
190.7625	0.06	381525	keystroke	Key.enter	n/a
190.826	6.177	381652	prompt	n/a	touched crimes chevrolet signed\n
191.722	0.0905	383444	keystroke	t	n/a
191.7975	0.165	383595	keystroke	o	n/a
191.9175	0.122	383835	keystroke	u	n/a
192.0825	0.09	384165	keystroke	c	n/a
192.1575	0.082	384315	keystroke	h	n/a
192.292	0.0755	384584	keystroke	e	n/a
192.4875	0.075	384975	keystroke	d	n/a
192.577	0.09	385154	keystroke	Key.space	n/a
192.7575	0.1085	385515	keystroke	c	n/a
192.9675	0.105	385935	keystroke	r	n/a
193.1025	0.1045	386205	keystroke	i	n/a
193.267	0.1205	386534	keystroke	m	n/a
193.4025	0.045	386805	keystroke	e	n/a
193.5975	0.105	387195	keystroke	s	n/a
193.7625	0.09	387525	keystroke	Key.space	n/a
194.0475	0.077	388095	keystroke	c	n/a
194.1375	0.0905	388275	keystroke	h	n/a
194.2725	0.09	388545	keystroke	e	n/a
194.5275	0.0665	389055	keystroke	v	n/a
194.8585	0.0885	389717	keystroke	r	n/a
194.992	0.1205	389984	keystroke	o	n/a
195.292	0.097	390584	keystroke	l	n/a
195.428	0.1045	390856	keystroke	e	n/a
195.592	0.1505	391184	keystroke	t	n/a
195.8025	0.0895	391605	keystroke	Key.space	n/a
195.9835	0.089	391967	keystroke	s	n/a
196.1025	0.15	392205	keystroke	i	n/a
196.2675	0.061	392535	keystroke	g	n/a
196.4025	0.077	392805	keystroke	n	n/a
196.492	0.0905	392984	keystroke	e	n/a
196.7025	0.06	393405	keystroke	d	n/a
196.945	0.0575	393890	keystroke	Key.enter	n/a
197.006	7.2425	394012	prompt	n/a	buys utilization libraries devices\n
197.767	0.061	395534	keystroke	b	n/a
197.8425	0.09	395685	keystroke	u	n/a
198.0385	0.0895	396077	keystroke	y	n/a
198.1425	0.12	396285	keystroke	s	n/a
198.3525	0.1195	396705	keystroke	Key.space	n/a
198.577	0.0755	397154	keystroke	u	n/a
198.7125	0.075	397425	keystroke	t	n/a
198.8025	0.1195	397605	keystroke	i	n/a
199.057	0.165	398114	keystroke	l	n/a
199.1475	0.12	398295	keystroke	i	n/a
199.5825	0.0485	399165	keystroke	z	n/a
199.735	0.087	399470	keystroke	a	n/a
199.9325	0.07	399865	keystroke	t	n/a
200.033	0.1495	400066	keystroke	i	n/a
200.077	0.1355	400154	keystroke	o	n/a
200.1675	0.12	400335	keystroke	n	n/a
200.3025	0.1045	400605	keystroke	Key.space	n/a
200.737	0.1355	401474	keystroke	l	n/a
200.7825	0.135	401565	keystroke	i	n/a
200.9325	0.0745	401865	keystroke	b	n/a
201.158	0.0895	402316	keystroke	r	n/a
201.292	0.1055	402584	keystroke	a	n/a
201.5025	0.1045	403005	keystroke	r	n/a
201.654	0.1035	403308	keystroke	i	n/a
201.7725	0.1045	403545	keystroke	e	n/a
201.892	0.1205	403784	keystroke	s	n/a
202.027	0.1055	404054	keystroke	Key.space	n/a
202.492	0.0905	404984	keystroke	e	n/a
203.0025	0.0895	406005	keystroke	Key.backspace	n/a
203.107	0.0755	406214	keystroke	d	n/a
203.2575	0.075	406515	keystroke	e	n/a
203.4525	0.0595	406905	keystroke	v	n/a
203.5575	0.09	407115	keystroke	i	n/a
203.632	0.09	407264	keystroke	c	n/a
203.8125	0.0745	407625	keystroke	e	n/a
203.9325	0.12	407865	keystroke	s	n/a
204.179	0.0685	408358	keystroke	Key.enter	n/a
204.2515	7.5865	408503	prompt	n/a	dominant transcription spiritual seniors\n
205.177	0.0755	410354	keystroke	d	n/a
205.2735	0.084	410547	keystroke	o	n/a
205.507	0.1355	411014	keystroke	m	n/a
205.5825	0.105	411165	keystroke	i	n/a
205.7705	0.097	411541	keystroke	n	n/a
205.8825	0.09	411765	keystroke	a	n/a
205.9875	0.0895	411975	keystroke	n	n/a
206.2125	0.075	412425	keystroke	t	n/a
206.363	0.0895	412726	keystroke	Key.space	n/a
206.5575	0.075	413115	keystroke	t	n/a
206.707	0.1055	413414	keystroke	r	n/a
206.7975	0.12	413595	keystroke	a	n/a
206.9325	0.0745	413865	keystroke	n	n/a
207.0525	0.09	414105	keystroke	s	n/a
207.247	0.0905	414494	keystroke	c	n/a
207.3975	0.093	414795	keystroke	r	n/a
207.5025	0.15	415005	keystroke	i	n/a
207.592	0.0905	415184	keystroke	p	n/a
207.728	0.0615	415456	keystroke	t	n/a
207.8025	0.1795	415605	keystroke	i	n/a
207.877	0.135	415754	keystroke	o	n/a
207.9675	0.105	415935	keystroke	n	n/a
208.091	0.071	416182	keystroke	Key.space	n/a
208.2825	0.09	416565	keystroke	s	n/a
208.507	0.1055	417014	keystroke	p	n/a
208.822	0.0905	417644	keystroke	i	n/a
209.092	0.1055	418184	keystroke	t	n/a
209.4375	0.0755	418875	keystroke	Key.backspace	n/a
209.5575	0.105	419115	keystroke	r	n/a
209.647	0.0905	419294	keystroke	i	n/a
209.8445	0.058	419689	keystroke	t	n/a
209.992	0.0755	419984	keystroke	u	n/a
210.1725	0.075	420345	keystroke	a	n/a
210.337	0.091	420674	keystroke	l	n/a
210.475	0.072	420950	keystroke	Key.space	n/a
210.6525	0.195	421305	keystroke	s	n/a
210.8025	0.0895	421605	keystroke	e	n/a
210.908	0.1045	421816	keystroke	n	n/a
211.1325	0.15	422265	keystroke	i	n/a
211.239	0.1335	422478	keystroke	o	n/a
211.373	0.104	422746	keystroke	r	n/a
211.522	0.1205	423044	keystroke	s	n/a
211.777	0.06	423554	keystroke	Key.enter	n/a
211.841	10.4815	423682	prompt	n/a	trailers stupid juice corrected\n
212.7525	0.09	425505	keystroke	t	n/a
212.8725	0.092	425745	keystroke	a	n/a
213.2965	0.0705	426593	keystroke	Key.backspace	n/a
213.4125	0.1345	426825	keystroke	r	n/a
213.5175	0.12	427035	keystroke	a	n/a
213.727	0.0755	427454	keystroke	i	n/a
214.882	0.0905	429764	keystroke	l	n/a
215.077	0.135	430154	keystroke	e	n/a
215.152	0.1055	430304	keystroke	r	n/a
215.422	0.1205	430844	keystroke	s	n/a
215.543	0.11	431086	keystroke	Key.space	n/a
215.785	0.1025	431570	keystroke	s	n/a
215.9325	0.0745	431865	keystroke	t	n/a
216.0375	0.12	432075	keystroke	u	n/a
216.622	0.1355	433244	keystroke	p	n/a
216.7135	0.134	433427	keystroke	u	n/a
217.2675	0.06	434535	keystroke	Key.backspace	n/a
217.4475	0.105	434895	keystroke	i	n/a
217.54	0.1025	435080	keystroke	d	n/a
217.778	0.105	435556	keystroke	Key.space	n/a
218.078	0.119	436156	keystroke	j	n/a
218.2875	0.0905	436575	keystroke	u	n/a
218.587	0.091	437174	keystroke	i	n/a
218.7525	0.09	437505	keystroke	c	n/a
218.992	0.0755	437984	keystroke	e	n/a
219.0975	0.12	438195	keystroke	Key.space	n/a
219.352	0.061	438704	keystroke	d	n/a
219.802	0.091	439604	keystroke	o	n/a
220.2375	0.0445	440475	keystroke	Key.backspace	n/a
220.3875	0.06	440775	keystroke	Key.backspace	n/a
220.477	0.0905	440954	keystroke	c	n/a
220.5975	0.0595	441195	keystroke	o	n/a
220.7625	0.0625	441525	keystroke	r	n/a
220.9425	0.1345	441885	keystroke	r	n/a
221.0625	0.0595	442125	keystroke	e	n/a
221.619	0.088	443238	keystroke	c	n/a
221.7675	0.1345	443535	keystroke	t	n/a
221.887	0.075	443774	keystroke	e	n/a
222.067	0.0605	444134	keystroke	d	n/a
222.2325	0.0895	444465	keystroke	Key.enter	n/a
222.3255	5.2185	444651	prompt	n/a	translation papers least jason\n
223.0445	0.0725	446089	keystroke	t	n/a
223.222	0.121	446444	keystroke	r	n/a
223.3285	0.089	446657	keystroke	a	n/a
223.7175	0.0895	447435	keystroke	n	n/a
223.8225	0.1055	447645	keystroke	s	n/a
224.077	0.105	448154	keystroke	l	n/a
224.1975	0.12	448395	keystroke	a	n/a
224.392	0.0905	448784	keystroke	t	n/a
224.5425	0.1645	449085	keystroke	i	n/a
224.6035	0.1335	449207	keystroke	o	n/a
224.692	0.105	449384	keystroke	n	n/a
224.8125	0.0595	449625	keystroke	Key.space	n/a
224.977	0.0755	449954	keystroke	p	n/a
225.037	0.09	450074	keystroke	a	n/a
225.1725	0.1045	450345	keystroke	p	n/a
225.2335	0.1335	450467	keystroke	e	n/a
225.322	0.0775	450644	keystroke	r	n/a
225.442	0.1235	450884	keystroke	s	n/a
225.5655	0.102	451131	keystroke	Key.space	n/a
225.7725	0.092	451545	keystroke	l	n/a
225.8475	0.1045	451695	keystroke	e	n/a
225.922	0.1655	451844	keystroke	a	n/a
226.0425	0.157	452085	keystroke	s	n/a
226.177	0.1355	452354	keystroke	t	n/a
226.2995	0.088	452599	keystroke	Key.space	n/a
226.477	0.09	452954	keystroke	j	n/a
226.5825	0.0835	453165	keystroke	a	n/a
226.642	0.135	453284	keystroke	s	n/a
226.8375	0.1245	453675	keystroke	o	n/a
226.8825	0.15	453765	keystroke	n	n/a
227.4565	0.086	454913	keystroke	Key.enter	n/a
227.547	7.0015	455094	prompt	n/a	button cheque swimming truly\n
228.307	0.0775	456614	keystroke	b	n/a
228.3675	0.0905	456735	keystroke	u	n/a
228.5625	0.075	457125	keystroke	t	n/a
228.6975	0.075	457395	keystroke	t	n/a
228.8025	0.1345	457605	keystroke	o	n/a
228.849	0.1185	457698	keystroke	n	n/a
228.9525	0.105	457905	keystroke	Key.space	n/a
229.117	0.09	458234	keystroke	c	n/a
229.222	0.0755	458444	keystroke	h	n/a
229.3275	0.105	458655	keystroke	e	n/a
229.552	0.063	459104	keystroke	c	n/a
229.7175	0.1045	459435	keystroke	q	n/a
230.0025	0.045	460005	keystroke	Key.backspace	n/a
230.152	0.0615	460304	keystroke	Key.backspace	n/a
230.2575	0.09	460515	keystroke	q	n/a
230.3625	0.0595	460725	keystroke	u	n/a
230.4825	0.094	460965	keystroke	e	n/a
230.828	0.104	461656	keystroke	Key.space	n/a
231.5025	0.06	463005	keystroke	Key.backspace	n/a
232.1175	0.0895	464235	keystroke	Key.space	n/a
232.3275	0.0595	464655	keystroke	s	n/a
232.5225	0.09	465045	keystroke	w	n/a
232.6575	0.09	465315	keystroke	i	n/a
232.8675	0.06	465735	keystroke	m	n/a
233.0475	0.075	466095	keystroke	m	n/a
233.1375	0.1215	466275	keystroke	i	n/a
233.2425	0.075	466485	keystroke	n	n/a
233.302	0.1225	466604	keystroke	g	n/a
233.407	0.0755	466814	keystroke	Key.space	n/a
233.587	0.091	467174	keystroke	t	n/a
233.7825	0.0895	467565	keystroke	r	n/a
233.902	0.09	467804	keystroke	u	n/a
234.0555	0.1325	468111	keystroke	l	n/a
234.2025	0.1045	468405	keystroke	y	n/a
234.4725	0.075	468945	keystroke	Key.enter	n/a
234.5525	6.206	469105	prompt	n/a	processing italia promising elections\n
235.2975	0.0895	470595	keystroke	p	n/a
235.432	0.105	470864	keystroke	r	n/a
235.5845	0.073	471169	keystroke	o	n/a
235.75	0.0875	471500	keystroke	c	n/a
235.9275	0.075	471855	keystroke	e	n/a
236.0325	0.0895	472065	keystroke	s	n/a
236.1975	0.09	472395	keystroke	s	n/a
236.3175	0.135	472635	keystroke	i	n/a
236.378	0.1195	472756	keystroke	n	n/a
236.4675	0.12	472935	keystroke	g	n/a
236.5765	0.086	473153	keystroke	Key.space	n/a
236.7375	0.0595	473475	keystroke	i	n/a
236.828	0.0895	473656	keystroke	t	n/a
237.0425	0.0845	474085	keystroke	a	n/a
237.2625	0.165	474525	keystroke	l	n/a
237.338	0.134	474676	keystroke	i	n/a
237.5055	0.1015	475011	keystroke	a	n/a
237.6525	0.0895	475305	keystroke	Key.space	n/a
237.907	0.0905	475814	keystroke	p	n/a
237.998	0.089	475996	keystroke	r	n/a
238.1025	0.1045	476205	keystroke	o	n/a
238.2525	0.15	476505	keystroke	m	n/a
238.567	0.0905	477134	keystroke	i	n/a
238.747	0.0905	477494	keystroke	s	n/a
238.8675	0.12	477735	keystroke	i	n/a
238.9575	0.09	477915	keystroke	n	n/a
239.0775	0.12	478155	keystroke	g	n/a
239.1825	0.12	478365	keystroke	Key.space	n/a
239.678	0.0745	479356	keystroke	e	n/a
239.7675	0.075	479535	keystroke	l	n/a
239.86	0.0725	479720	keystroke	e	n/a
240.052	0.0455	480104	keystroke	c	n/a
240.1425	0.0745	480285	keystroke	t	n/a
240.1915	0.161	480383	keystroke	i	n/a
240.2475	0.12	480495	keystroke	o	n/a
240.3235	0.089	480647	keystroke	n	n/a
240.3825	0.09	480765	keystroke	s	n/a
240.6825	0.075	481365	keystroke	Key.enter	n/a
240.7615	8.637	481523	prompt	n/a	milton somalia munich costumes\n
242.215	0.1475	484430	keystroke	m	n/a
242.2875	0.15	484575	keystroke	i	n/a
242.422	0.106	484844	keystroke	l	n/a
242.9475	0.09	485895	keystroke	t	n/a
243.0975	0.1195	486195	keystroke	o	n/a
243.175	0.117	486350	keystroke	n	n/a
243.3525	0.15	486705	keystroke	Key.space	n/a
244.492	0.1205	488984	keystroke	s	n/a
244.628	0.1345	489256	keystroke	o	n/a
244.734	0.1335	489468	keystroke	m	n/a
244.9875	0.1045	489975	keystroke	a	n/a
245.167	0.1805	490334	keystroke	l	n/a
245.2575	0.1345	490515	keystroke	i	n/a
245.422	0.1655	490844	keystroke	a	n/a
245.5725	0.1195	491145	keystroke	Key.space	n/a
245.9475	0.09	491895	keystroke	m	n/a
246.1605	0.087	492321	keystroke	u	n/a
246.3675	0.135	492735	keystroke	n	n/a
246.4595	0.103	492919	keystroke	i	n/a
246.5785	0.089	493157	keystroke	c	n/a
246.6825	0.06	493365	keystroke	h	n/a
246.7945	0.083	493589	keystroke	Key.space	n/a
247.1025	0.0635	494205	keystroke	c	n/a
247.1775	0.1505	494355	keystroke	o	n/a
247.5245	0.1035	495049	keystroke	s	n/a
248.0175	0.09	496035	keystroke	t	n/a
248.228	0.089	496456	keystroke	r	n/a
248.528	0.059	497056	keystroke	Key.backspace	n/a
248.7225	0.075	497445	keystroke	u	n/a
248.9325	0.0895	497865	keystroke	m	n/a
249.007	0.1065	498014	keystroke	e	n/a
249.1725	0.1055	498345	keystroke	s	n/a
249.307	0.0905	498614	keystroke	Key.enter	n/a
249.4025	4.918	498805	prompt	n/a	levels postal literary neck\n
250.0575	0.09	500115	keystroke	l	n/a
250.1325	0.1105	500265	keystroke	e	n/a
250.2975	0.09	500595	keystroke	v	n/a
250.3575	0.105	500715	keystroke	e	n/a
250.492	0.0755	500984	keystroke	l	n/a
250.674	0.118	501348	keystroke	s	n/a
250.7625	0.1195	501525	keystroke	Key.space	n/a
251.048	0.1345	502096	keystroke	p	n/a
251.1225	0.15	502245	keystroke	o	n/a
251.228	0.106	502456	keystroke	s	n/a
251.3475	0.09	502695	keystroke	t	n/a
251.5875	0.1195	503175	keystroke	a	n/a
251.7375	0.0905	503475	keystroke	l	n/a
251.858	0.0895	503716	keystroke	Key.space	n/a
251.978	0.1645	503956	keystroke	l	n/a
252.0675	0.1195	504135	keystroke	i	n/a
252.2325	0.12	504465	keystroke	t	n/a
252.3675	0.15	504735	keystroke	e	n/a
252.4875	0.1345	504975	keystroke	r	n/a
252.6675	0.15	505335	keystroke	a	n/a
253.1475	0.12	506295	keystroke	r	n/a
253.313	0.134	506626	keystroke	y	n/a
253.4025	0.122	506805	keystroke	Key.space	n/a
253.6575	0.105	507315	keystroke	n	n/a
253.703	0.089	507406	keystroke	e	n/a
253.942	0.051	507884	keystroke	c	n/a
254.021	0.071	508042	keystroke	h	n/a
254.242	0.0775	508484	keystroke	Key.enter	n/a
254.324	9.82	508648	prompt	n/a	difficulty cincinnati manchester proceeds\n
255.128	0.0595	510256	keystroke	d	n/a
255.1875	0.09	510375	keystroke	i	n/a
255.713	0.0745	511426	keystroke	f	n/a
255.8625	0.105	511725	keystroke	f	n/a
255.997	0.0905	511994	keystroke	i	n/a
256.1175	0.0745	512235	keystroke	c	n/a
256.3875	0.075	512775	keystroke	u	n/a
256.597	0.1055	513194	keystroke	l	n/a
256.822	0.0755	513644	keystroke	t	n/a
256.9285	0.1035	513857	keystroke	y	n/a
257.0625	0.09	514125	keystroke	Key.space	n/a
257.392	0.1055	514784	keystroke	c	n/a
257.4825	0.075	514965	keystroke	i	n/a
257.6175	0.1645	515235	keystroke	n	n/a
257.7375	0.075	515475	keystroke	i	n/a
258.863	0.0895	517726	keystroke	Key.backspace	n/a
259.0425	0.105	518085	keystroke	c	n/a
259.1625	0.12	518325	keystroke	i	n/a
259.237	0.123	518474	keystroke	n	n/a
259.99	0.0875	519980	keystroke	n	n/a
260.107	0.121	520214	keystroke	a	n/a
260.467	0.0755	520934	keystroke	t	n/a
260.572	0.0905	521144	keystroke	i	n/a
260.707	0.0905	521414	keystroke	Key.space	n/a
261.0375	0.075	522075	keystroke	m	n/a
261.112	0.1085	522224	keystroke	a	n/a
261.307	0.0905	522614	keystroke	n	n/a
261.4875	0.09	522975	keystroke	c	n/a
261.607	0.0775	523214	keystroke	h	n/a
261.7275	0.075	523455	keystroke	e	n/a
261.9525	0.075	523905	keystroke	s	n/a
262.0875	0.1045	524175	keystroke	t	n/a
262.182	0.1155	524364	keystroke	e	n/a
262.282	0.12	524564	keystroke	r	n/a
262.4325	0.105	524865	keystroke	Key.space	n/a
262.6275	0.09	525255	keystroke	p	n/a
262.747	0.075	525494	keystroke	r	n/a
262.8525	0.076	525705	keystroke	o	n/a
263.1075	0.09	526215	keystroke	c	n/a
263.273	0.0895	526546	keystroke	c	n/a
263.4975	0.076	526995	keystroke	e	n/a
263.707	0.105	527414	keystroke	d	n/a
263.8425	0.1495	527685	keystroke	s	n/a
264.0525	0.09	528105	keystroke	Key.enter	n/a
264.148	4.36	528296	prompt	n/a	typing mutual rico courses\n
265.0725	0.0965	530145	keystroke	t	n/a
265.178	0.1045	530356	keystroke	y	n/a
265.2675	0.1495	530535	keystroke	p	n/a
265.357	0.1425	530714	keystroke	i	n/a
265.4475	0.09	530895	keystroke	n	n/a
265.507	0.126	531014	keystroke	g	n/a
265.5675	0.12	531135	keystroke	Key.space	n/a
265.7025	0.0615	531405	keystroke	m	n/a
265.8825	0.06	531765	keystroke	u	n/a
266.0325	0.0895	532065	keystroke	t	n/a
266.242	0.0755	532484	keystroke	u	n/a
266.3325	0.12	532665	keystroke	a	n/a
266.4675	0.09	532935	keystroke	l	n/a
266.591	0.101	533182	keystroke	Key.space	n/a
266.842	0.0755	533684	keystroke	r	n/a
266.902	0.09	533804	keystroke	i	n/a
267.054	0.074	534108	keystroke	c	n/a
267.1725	0.09	534345	keystroke	o	n/a
267.2775	0.09	534555	keystroke	Key.space	n/a
267.5625	0.122	535125	keystroke	c	n/a
267.637	0.1205	535274	keystroke	o	n/a
267.728	0.123	535456	keystroke	u	n/a
267.8175	0.0895	535635	keystroke	r	n/a
267.983	0.166	535966	keystroke	s	n/a
268.058	0.12	536116	keystroke	e	n/a
268.2525	0.105	536505	keystroke	s	n/a
268.4175	0.0895	536835	keystroke	Key.enter	n/a
268.5135	7.09	537027	prompt	n/a	editors single contrast produced\n
269.4085	0.089	538817	keystroke	e	n/a
269.6175	0.06	539235	keystroke	d	n/a
269.7675	0.0895	539535	keystroke	i	n/a
270.007	0.06	540014	keystroke	t	n/a
270.1725	0.09	540345	keystroke	o	n/a
270.2775	0.06	540555	keystroke	r	n/a
270.4875	0.1195	540975	keystroke	s	n/a
270.5775	0.105	541155	keystroke	Key.space	n/a
270.7575	0.0785	541515	keystroke	s	n/a
270.922	0.1355	541844	keystroke	i	n/a
271.0275	0.075	542055	keystroke	g	n/a
271.2225	0.1195	542445	keystroke	n	n/a
272.0955	0.042	544191	keystroke	Key.backspace	n/a
272.228	0.0745	544456	keystroke	Key.backspace	n/a
272.422	0.0605	544844	keystroke	n	n/a
272.4975	0.063	544995	keystroke	g	n/a
272.647	0.078	545294	keystroke	l	n/a
272.7375	0.09	545475	keystroke	e	n/a
272.8875	0.09	545775	keystroke	Key.space	n/a
273.0975	0.06	546195	keystroke	c	n/a
273.1725	0.075	546345	keystroke	o	n/a
273.2025	0.0895	546405	keystroke	n	n/a
273.307	0.09	546614	keystroke	t	n/a
273.488	0.0895	546976	keystroke	r	n/a
273.592	0.136	547184	keystroke	a	n/a
273.6975	0.15	547395	keystroke	s	n/a
273.8195	0.1475	547639	keystroke	t	n/a
273.9225	0.105	547845	keystroke	Key.space	n/a
274.118	0.1345	548236	keystroke	p	n/a
274.2375	0.06	548475	keystroke	r	n/a
274.328	0.0895	548656	keystroke	o	n/a
274.5225	0.0925	549045	keystroke	d	n/a
274.6875	0.09	549375	keystroke	u	n/a
274.822	0.075	549644	keystroke	c	n/a
274.9875	0.075	549975	keystroke	e	n/a
275.1675	0.079	550335	keystroke	d	n/a
275.5275	0.075	551055	keystroke	Key.enter	n/a
275.606	6.4625	551212	prompt	n/a	quickly morris geographical fixes\n
276.622	0.0755	553244	keystroke	q	n/a
276.6825	0.135	553365	keystroke	u	n/a
276.775	0.1025	553550	keystroke	i	n/a
276.9525	0.0895	553905	keystroke	c	n/a
277.0575	0.1495	554115	keystroke	k	n/a
277.3425	0.135	554685	keystroke	l	n/a
277.4345	0.1345	554869	keystroke	y	n/a
277.5825	0.105	555165	keystroke	Key.space	n/a
277.792	0.1355	555584	keystroke	m	n/a
277.8675	0.105	555735	keystroke	o	n/a
277.988	0.09	555976	keystroke	r	n/a
278.1525	0.0905	556305	keystroke	r	n/a
278.2425	0.09	556485	keystroke	i	n/a
278.3475	0.135	556695	keystroke	s	n/a
278.437	0.1205	556874	keystroke	Key.space	n/a
278.8425	0.09	557685	keystroke	g	n/a
278.9025	0.18	557805	keystroke	e	n/a
279.0975	0.105	558195	keystroke	o	n/a
279.472	0.0605	558944	keystroke	g	n/a
279.6375	0.075	559275	keystroke	r	n/a
279.7275	0.1195	559455	keystroke	a	n/a
279.893	0.0895	559786	keystroke	p	n/a
279.9375	0.1345	559875	keystroke	h	n/a
280.0925	0.085	560185	keystroke	i	n/a
280.117	0.107	560234	keystroke	c	n/a
280.4025	0.1205	560805	keystroke	a	n/a
280.6575	0.09	561315	keystroke	l	n/a
280.792	0.1505	561584	keystroke	Key.space	n/a
281.228	0.075	562456	keystroke	f	n/a
281.2875	0.105	562575	keystroke	i	n/a
281.4375	0.0455	562875	keystroke	x	n/a
281.68	0.058	563360	keystroke	e	n/a
281.783	0.1195	563566	keystroke	s	n/a
281.9785	0.089	563957	keystroke	Key.enter	n/a
282.0715	11.262	564143	prompt	n/a	delivering survivor learners cheap\n
282.8175	0.0745	565635	keystroke	d	n/a
282.9975	0.045	565995	keystroke	e	n/a
283.1025	0.15	566205	keystroke	l	n/a
283.192	0.1355	566384	keystroke	i	n/a
283.358	0.0895	566716	keystroke	v	n/a
283.4625	0.15	566925	keystroke	e	n/a
283.5825	0.105	567165	keystroke	r	n/a
283.9425	0.12	567885	keystroke	i	n/a
284.0475	0.0895	568095	keystroke	n	n/a
284.122	0.1205	568244	keystroke	g	n/a
284.243	0.149	568486	keystroke	Key.space	n/a
284.5575	0.075	569115	keystroke	s	n/a
284.648	0.105	569296	keystroke	u	n/a
284.768	0.105	569536	keystroke	r	n/a
285.053	0.06	570106	keystroke	v	n/a
285.158	0.075	570316	keystroke	i	n/a
285.3675	0.075	570735	keystroke	s	n/a
285.503	0.1045	571006	keystroke	o	n/a
285.7275	0.1505	571455	keystroke	r	n/a
285.8925	0.09	571785	keystroke	Key.space	n/a
286.2675	0.1655	572535	keystroke	l	n/a
286.4775	0.165	572955	keystroke	e	n/a
286.5675	0.1205	573135	keystroke	a	n/a
286.6575	0.1055	573315	keystroke	r	n/a
286.822	0.0905	573644	keystroke	n	n/a
287.0025	0.1045	574005	keystroke	e	n/a
287.0475	0.12	574095	keystroke	r	n/a
287.2425	0.135	574485	keystroke	s	n/a
287.3475	0.136	574695	keystroke	Key.space	n/a
287.9925	0.045	575985	keystroke	Key.backspace	n/a
288.1425	0.06	576285	keystroke	Key.backspace	n/a
288.292	0.0755	576584	keystroke	Key.backspace	n/a
288.4575	0.06	576915	keystroke	Key.backspace	n/a
288.6225	0.0605	577245	keystroke	Key.backspace	n/a
288.7875	0.075	577575	keystroke	Key.backspace	n/a
288.968	0.075	577936	keystroke	Key.backspace	n/a
289.1325	0.0755	578265	keystroke	Key.backspace	n/a
289.3125	0.075	578625	keystroke	Key.backspace	n/a
289.507	0.0905	579014	keystroke	Key.backspace	n/a
289.706	0.086	579412	keystroke	Key.backspace	n/a
289.9275	0.09	579855	keystroke	Key.backspace	n/a
290.3175	0.0895	580635	keystroke	Key.backspace	n/a
290.528	0.09	581056	keystroke	v	n/a
290.6475	0.0905	581295	keystroke	o	n/a
290.801	0.1015	581602	keystroke	r	n/a
290.9475	0.09	581895	keystroke	Key.space	n/a
291.102	0.1005	582204	keystroke	l	n/a
291.1875	0.15	582375	keystroke	e	n/a
291.2775	0.105	582555	keystroke	a	n/a
291.307	0.1055	582614	keystroke	r	n/a
291.4575	0.1095	582915	keystroke	n	n/a
291.6225	0.1105	583245	keystroke	e	n/a
291.6825	0.1195	583365	keystroke	r	n/a
291.8475	0.151	583695	keystroke	s	n/a
291.9675	0.105	583935	keystroke	Key.space	n/a
292.3125	0.075	584625	keystroke	c	n/a
292.388	0.075	584776	keystroke	h	n/a
292.5825	0.12	585165	keystroke	e	n/a
292.69	0.133	585380	keystroke	a	n/a
293.0175	0.09	586035	keystroke	p	n/a
293.2575	0.075	586515	keystroke	Key.enter	n/a
293.336	5.4275	586672	prompt	n/a	tobacco reid blend account\n
294.203	0.0895	588406	keystroke	t	n/a
294.3225	0.075	588645	keystroke	o	n/a
294.473	0.045	588946	keystroke	a	n/a
294.5485	0.104	589097	keystroke	b	n/a
294.884	0.054	589768	keystroke	Key.backspace	n/a
295.0165	0.1015	590033	keystroke	Key.backspace	n/a
295.103	0.0895	590206	keystroke	b	n/a
295.2225	0.1245	590445	keystroke	a	n/a
295.4475	0.075	590895	keystroke	c	n/a
295.5975	0.1045	591195	keystroke	c	n/a
295.7175	0.1045	591435	keystroke	o	n/a
295.8675	0.12	591735	keystroke	Key.space	n/a
296.107	0.1355	592214	keystroke	r	n/a
296.168	0.1195	592336	keystroke	e	n/a
296.468	0.09	592936	keystroke	i	n/a
296.604	0.1185	593208	keystroke	d	n/a
296.738	0.1045	593476	keystroke	Key.space	n/a
296.9475	0.075	593895	keystroke	b	n/a
297.113	0.0895	594226	keystroke	l	n/a
297.218	0.0895	594436	keystroke	e	n/a
297.3675	0.075	594735	keystroke	n	n/a
297.488	0.0775	594976	keystroke	d	n/a
297.6375	0.0755	595275	keystroke	Key.space	n/a
297.818	0.089	595636	keystroke	a	n/a
297.9825	0.0755	595965	keystroke	c	n/a
298.133	0.0745	596266	keystroke	c	n/a
298.1775	0.105	596355	keystroke	o	n/a
298.2525	0.0905	596505	keystroke	u	n/a
298.448	0.0895	596896	keystroke	n	n/a
298.538	0.0595	597076	keystroke	t	n/a
298.688	0.0745	597376	keystroke	Key.enter	n/a
298.766	6.988	597532	prompt	n/a	decided richmond conviction puzzles\n
299.483	0.075	598966	keystroke	d	n/a
299.6475	0.06	599295	keystroke	e	n/a
299.858	0.1195	599716	keystroke	c	n/a
300.0825	0.1045	600165	keystroke	i	n/a
300.2925	0.075	600585	keystroke	d	n/a
300.488	0.045	600976	keystroke	e	n/a
300.6525	0.076	601305	keystroke	d	n/a
300.773	0.0895	601546	keystroke	Key.space	n/a
300.998	0.105	601996	keystroke	r	n/a
301.088	0.0895	602176	keystroke	i	n/a
301.2225	0.1055	602445	keystroke	c	n/a
301.3285	0.0895	602657	keystroke	h	n/a
301.553	0.1045	603106	keystroke	m	n/a
301.6135	0.12	603227	keystroke	o	n/a
301.778	0.0745	603556	keystroke	n	n/a
301.8675	0.1205	603735	keystroke	d	n/a
302.0025	0.09	604005	keystroke	Key.space	n/a
302.2125	0.1055	604425	keystroke	c	n/a
302.303	0.1195	604606	keystroke	o	n/a
302.3775	0.1055	604755	keystroke	n	n/a
302.5425	0.075	605085	keystroke	v	n/a
302.663	0.1045	605326	keystroke	i	n/a
302.858	0.0895	605716	keystroke	c	n/a
303.1425	0.075	606285	keystroke	t	n/a
303.2775	0.165	606555	keystroke	i	n/a
303.383	0.12	606766	keystroke	o	n/a
303.428	0.135	606856	keystroke	n	n/a
303.6225	0.1055	607245	keystroke	Key.space	n/a
303.9675	0.1205	607935	keystroke	p	n/a
304.0425	0.135	608085	keystroke	u	n/a
304.583	0.12	609166	keystroke	z	n/a
304.8075	0.09	609615	keystroke	z	n/a
304.973	0.1045	609946	keystroke	l	n/a
305.0935	0.0735	610187	keystroke	e	n/a
305.4375	0.1205	610875	keystroke	s	n/a
305.663	0.09	611326	keystroke	Key.enter	n/a
305.7575	7.5305	611515	prompt	n/a	report modification conviction simulations\n
306.6565	0.1165	613313	keystroke	r	n/a
306.713	0.09	613426	keystroke	e	n/a
306.8475	0.1505	613695	keystroke	p	n/a
306.923	0.15	613846	keystroke	o	n/a
307.013	0.09	614026	keystroke	r	n/a
307.2075	0.1085	614415	keystroke	t	n/a
307.343	0.1055	614686	keystroke	Key.space	n/a
307.538	0.12	615076	keystroke	m	n/a
307.5835	0.1195	615167	keystroke	o	n/a
307.733	0.0745	615466	keystroke	d	n/a
307.8375	0.0905	615675	keystroke	i	n/a
307.9575	0.0905	615915	keystroke	f	n/a
308.079	0.089	616158	keystroke	i	n/a
308.168	0.105	616336	keystroke	c	n/a
308.303	0.0755	616606	keystroke	a	n/a
308.4105	0.057	616821	keystroke	t	n/a
308.513	0.1645	617026	keystroke	i	n/a
308.5435	0.149	617087	keystroke	o	n/a
308.663	0.09	617326	keystroke	n	n/a
308.768	0.09	617536	keystroke	Key.space	n/a
308.9925	0.0905	617985	keystroke	c	n/a
309.0675	0.1205	618135	keystroke	o	n/a
309.1275	0.1355	618255	keystroke	n	n/a
309.2775	0.0755	618555	keystroke	v	n/a
309.4425	0.0755	618885	keystroke	i	n/a
309.728	0.09	619456	keystroke	c	n/a
309.8925	0.0605	619785	keystroke	t	n/a
309.974	0.1325	619948	keystroke	i	n/a
310.028	0.1115	620056	keystroke	o	n/a
310.107	0.1005	620214	keystroke	n	n/a
310.2715	0.0865	620543	keystroke	Key.space	n/a
310.463	0.0745	620926	keystroke	s	n/a
310.523	0.105	621046	keystroke	i	n/a
310.7775	0.0755	621555	keystroke	m	n/a
311.078	0.105	622156	keystroke	u	n/a
311.438	0.045	622876	keystroke	t	n/a
311.543	0.03	623086	keystroke	i	n/a
311.813	0.075	623626	keystroke	Key.backspace	n/a
311.9775	0.0905	623955	keystroke	Key.backspace	n/a
312.203	0.0895	624406	keystroke	l	n/a
312.353	0.12	624706	keystroke	a	n/a
312.6075	0.0755	625215	keystroke	t	n/a
312.698	0.165	625396	keystroke	i	n/a
312.773	0.1045	625546	keystroke	o	n/a
312.848	0.1195	625696	keystroke	n	n/a
312.9555	0.1175	625911	keystroke	s	n/a
313.1925	0.0945	626385	keystroke	Key.enter	n/a
313.2905	11.141	626581	prompt	n/a	conventional characteristic statistical arch\n
314.063	0.09	628126	keystroke	c	n/a
314.1075	0.0905	628215	keystroke	o	n/a
314.168	0.105	628336	keystroke	n	n/a
314.363	0.0745	628726	keystroke	v	n/a
314.4675	0.135	628935	keystroke	e	n/a
314.6505	0.072	629301	keystroke	n	n/a
314.848	0.055	629696	keystroke	t	n/a
314.9175	0.1505	629835	keystroke	i	n/a
314.982	0.101	629964	keystroke	o	n/a
315.053	0.105	630106	keystroke	n	n/a
315.158	0.09	630316	keystroke	a	n/a
315.2815	0.0715	630563	keystroke	l	n/a
315.398	0.105	630796	keystroke	Key.space	n/a
315.6225	0.0905	631245	keystroke	c	n/a
315.713	0.075	631426	keystroke	h	n/a
315.848	0.105	631696	keystroke	a	n/a
315.939	0.119	631878	keystroke	r	n/a
316.073	0.1045	632146	keystroke	a	n/a
316.2375	0.1205	632475	keystroke	c	n/a
316.373	0.1495	632746	keystroke	t	n/a
316.5075	0.1355	633015	keystroke	e	n/a
316.613	0.123	633226	keystroke	r	n/a
316.913	0.09	633826	keystroke	i	n/a
316.988	0.1195	633976	keystroke	s	n/a
317.213	0.09	634426	keystroke	t	n/a
317.348	0.0745	634696	keystroke	i	n/a
317.438	0.06	634876	keystroke	c	n/a
317.603	0.0895	635206	keystroke	Key.space	n/a
318.0675	0.1355	636135	keystroke	s	n/a
318.1875	0.1075	636375	keystroke	t	n/a
318.3075	0.105	636615	keystroke	a	n/a
318.443	0.09	636886	keystroke	t	n/a
318.6075	0.105	637215	keystroke	i	n/a
318.7275	0.1055	637455	keystroke	c	n/a
318.8775	0.1805	637755	keystroke	s	n/a
319.073	0.09	638146	keystroke	t	n/a
319.283	0.0895	638566	keystroke	i	n/a
319.433	0.12	638866	keystroke	c	n/a
319.8075	0.0905	639615	keystroke	a	n/a
319.928	0.0745	639856	keystroke	l	n/a
320.063	0.1495	640126	keystroke	Key.space	n/a
320.858	0.061	641716	keystroke	Key.backspace	n/a
321.0075	0.0755	642015	keystroke	Key.backspace	n/a
321.158	0.075	642316	keystroke	Key.backspace	n/a
321.3225	0.0755	642645	keystroke	Key.backspace	n/a
321.488	0.075	642976	keystroke	Key.backspace	n/a
321.668	0.09	643336	keystroke	Key.backspace	n/a
321.863	0.0745	643726	keystroke	Key.backspace	n/a
322.118	0.0445	644236	keystroke	Key.backspace	n/a
322.583	0.105	645166	keystroke	s	n/a
322.853	0.075	645706	keystroke	t	n/a
322.988	0.075	645976	keystroke	i	n/a
323.0775	0.0755	646155	keystroke	c	n/a
323.228	0.1195	646456	keystroke	a	n/a
323.3625	0.06	646725	keystroke	l	n/a
323.4525	0.1055	646905	keystroke	Key.space	n/a
323.663	0.12	647326	keystroke	a	n/a
323.768	0.105	647536	keystroke	r	n/a
324.053	0.045	648106	keystroke	c	n/a
324.143	0.075	648286	keystroke	h	n/a
324.353	0.076	648706	keystroke	Key.enter	n/a
324.4345	6.9845	648869	prompt	n/a	story castle predict sponsorship\n
325.238	0.092	650476	keystroke	s	n/a
325.343	0.0895	650686	keystroke	t	n/a
325.4775	0.0755	650955	keystroke	o	n/a
325.598	0.092	651196	keystroke	r	n/a
325.733	0.123	651466	keystroke	y	n/a
325.838	0.105	651676	keystroke	Key.space	n/a
326.0925	0.1055	652185	keystroke	c	n/a
326.183	0.12	652366	keystroke	a	n/a
326.3925	0.1205	652785	keystroke	s	n/a
326.558	0.1495	653116	keystroke	t	n/a
326.7835	0.1045	653567	keystroke	l	n/a
326.918	0.0745	653836	keystroke	e	n/a
327.068	0.12	654136	keystroke	Key.space	n/a
327.3855	0.0725	654771	keystroke	p	n/a
327.458	0.1495	654916	keystroke	r	n/a
327.533	0.12	655066	keystroke	e	n/a
327.788	0.06	655576	keystroke	d	n/a
327.8925	0.0755	655785	keystroke	i	n/a
327.983	0.045	655966	keystroke	c	n/a
328.118	0.12	656236	keystroke	t	n/a
328.253	0.1225	656506	keystroke	Key.space	n/a
328.4925	0.1055	656985	keystroke	s	n/a
328.658	0.1645	657316	keystroke	p	n/a
328.8075	0.15	657615	keystroke	o	n/a
328.913	0.135	657826	keystroke	n	n/a
329.213	0.12	658426	keystroke	s	n/a
329.4225	0.1055	658845	keystroke	o	n/a
329.648	0.105	659296	keystroke	r	n/a
329.918	0.105	659836	keystroke	s	n/a
330.0075	0.121	660015	keystroke	h	n/a
330.1435	0.149	660287	keystroke	i	n/a
330.353	0.15	660706	keystroke	p	n/a
331.298	0.12	662596	keystroke	Key.enter	n/a
331.4215	6.2675	662843	prompt	n/a	shipping incident tokyo checked\n
332.4675	0.0755	664935	keystroke	s	n/a
332.513	0.165	665026	keystroke	h	n/a
332.588	0.15	665176	keystroke	i	n/a
332.754	0.074	665508	keystroke	p	n/a
332.9485	0.1045	665897	keystroke	p	n/a
333.0075	0.1655	666015	keystroke	i	n/a
333.143	0.09	666286	keystroke	n	n/a
333.251	0.133	666502	keystroke	g	n/a
333.3225	0.105	666645	keystroke	Key.space	n/a
333.503	0.1045	667006	keystroke	i	n/a
333.563	0.12	667126	keystroke	n	n/a
333.6685	0.1045	667337	keystroke	c	n/a
333.803	0.0895	667606	keystroke	i	n/a
333.9225	0.0755	667845	keystroke	d	n/a
334.1025	0.077	668205	keystroke	e	n/a
334.2225	0.0755	668445	keystroke	n	n/a
334.358	0.1205	668716	keystroke	t	n/a
334.463	0.09	668926	keystroke	Key.space	n/a
334.763	0.075	669526	keystroke	t	n/a
334.823	0.105	669646	keystroke	o	n/a
335.003	0.0895	670006	keystroke	c	n/a
335.0785	0.0745	670157	keystroke	k	n/a
335.483	0.0615	670966	keystroke	Key.backspace	n/a
335.6475	0.075	671295	keystroke	Key.backspace	n/a
335.843	0.165	671686	keystroke	k	n/a
335.9925	0.1055	671985	keystroke	y	n/a
336.158	0.1195	672316	keystroke	o	n/a
336.383	0.1215	672766	keystroke	Key.space	n/a
336.7035	0.1	673407	keystroke	c	n/a
336.758	0.09	673516	keystroke	h	n/a
336.8775	0.0755	673755	keystroke	e	n/a
337.073	0.06	674146	keystroke	c	n/a
337.1645	0.0735	674329	keystroke	k	n/a
337.2825	0.06	674565	keystroke	e	n/a
337.4635	0.059	674927	keystroke	d	n/a
337.613	0.075	675226	keystroke	Key.enter	n/a
337.6915	6.7475	675383	prompt	n/a	purposes tires toner revisions\n
338.543	0.105	677086	keystroke	p	n/a
338.603	0.135	677206	keystroke	u	n/a
338.7235	0.0895	677447	keystroke	r	n/a
338.933	0.105	677866	keystroke	p	n/a
338.978	0.165	677956	keystroke	o	n/a
339.113	0.15	678226	keystroke	s	n/a
339.158	0.1495	678316	keystroke	e	n/a
339.443	0.09	678886	keystroke	s	n/a
339.653	0.135	679306	keystroke	Key.space	n/a
339.938	0.06	679876	keystroke	r	n/a
340.523	0.075	681046	keystroke	Key.backspace	n/a
340.673	0.09	681346	keystroke	t	n/a
340.78	0.058	681560	keystroke	i	n/a
340.946	0.1335	681892	keystroke	r	n/a
341.033	0.1045	682066	keystroke	e	n/a
341.258	0.1195	682516	keystroke	s	n/a
341.41	0.148	682820	keystroke	Key.space	n/a
341.648	0.1195	683296	keystroke	r	n/a
342.173	0.075	684346	keystroke	Key.backspace	n/a
342.3075	0.0755	684615	keystroke	t	n/a
342.3975	0.1355	684795	keystroke	o	n/a
342.488	0.1195	684976	keystroke	n	n/a
342.6225	0.0905	685245	keystroke	e	n/a
342.9675	0.1685	685935	keystroke	r	n/a
343.118	0.12	686236	keystroke	Key.space	n/a
343.343	0.124	686686	keystroke	r	n/a
343.403	0.1195	686806	keystroke	e	n/a
343.628	0.0595	687256	keystroke	v	n/a
343.718	0.0745	687436	keystroke	i	n/a
343.8225	0.1075	687645	keystroke	s	n/a
343.913	0.183	687826	keystroke	i	n/a
343.988	0.135	687976	keystroke	o	n/a
344.078	0.105	688156	keystroke	n	n/a
344.198	0.09	688396	keystroke	s	n/a
344.348	0.09	688696	keystroke	Key.enter	n/a
344.4415	6.8545	688883	prompt	n/a	noon swingers something's context\n
345.203	0.09	690406	keystroke	n	n/a
345.2775	0.105	690555	keystroke	o	n/a
345.503	0.0895	691006	keystroke	o	n/a
345.668	0.105	691336	keystroke	n	n/a
345.8205	0.1175	691641	keystroke	Key.space	n/a
345.9975	0.0605	691995	keystroke	s	n/a
346.1925	0.0755	692385	keystroke	w	n/a
346.313	0.12	692626	keystroke	i	n/a
346.4215	0.1015	692843	keystroke	n	n/a
346.643	0.0765	693286	keystroke	g	n/a
346.733	0.1345	693466	keystroke	e	n/a
346.838	0.105	693676	keystroke	r	n/a
347.003	0.1345	694006	keystroke	s	n/a
347.1225	0.1055	694245	keystroke	Key.space	n/a
347.303	0.1045	694606	keystroke	s	n/a
347.4685	0.1195	694937	keystroke	o	n/a
347.558	0.12	695116	keystroke	m	n/a
347.663	0.075	695326	keystroke	e	n/a
347.873	0.06	695746	keystroke	t	n/a
347.963	0.105	695926	keystroke	h	n/a
348.0385	0.119	696077	keystroke	i	n/a
348.1755	0.0735	696351	keystroke	n	n/a
348.2625	0.1055	696525	keystroke	g	n/a
348.698	0.075	697396	keystroke	Key.backspace	n/a
348.953	0.105	697906	keystroke	'	n/a
349.418	0.0745	698836	keystroke	Key.backspace	n/a
349.553	0.06	699106	keystroke	g	n/a
349.688	0.0895	699376	keystroke	'	n/a
349.838	0.12	699676	keystroke	s	n/a
350.0045	0.073	700009	keystroke	Key.space	n/a
350.3775	0.0905	700755	keystroke	c	n/a
350.438	0.096	700876	keystroke	o	n/a
350.483	0.105	700966	keystroke	n	n/a
350.7075	0.0925	701415	keystroke	t	n/a
350.7525	0.0805	701505	keystroke	e	n/a
350.948	0.105	701896	keystroke	x	n/a
351.038	0.0755	702076	keystroke	t	n/a
351.2175	0.0765	702435	keystroke	Key.enter	n/a
351.2985	5.71	702597	prompt	n/a	virtue dealers floors confirmed\n
352.2075	0.0535	704415	keystroke	v	n/a
352.268	0.045	704536	keystroke	i	n/a
352.343	0.09	704686	keystroke	r	n/a
352.5685	0.074	705137	keystroke	t	n/a
352.718	0.0745	705436	keystroke	u	n/a
352.8225	0.0905	705645	keystroke	e	n/a
353.033	0.1045	706066	keystroke	Key.space	n/a
353.2725	0.0455	706545	keystroke	d	n/a
353.408	0.09	706816	keystroke	e	n/a
353.573	0.108	707146	keystroke	a	n/a
353.7225	0.1245	707445	keystroke	l	n/a
353.873	0.1195	707746	keystroke	e	n/a
353.963	0.075	707926	keystroke	r	n/a
354.1135	0.1345	708227	keystroke	s	n/a
354.218	0.135	708436	keystroke	Key.space	n/a
354.4285	0.0745	708857	keystroke	f	n/a
354.578	0.09	709156	keystroke	l	n/a
354.788	0.09	709576	keystroke	o	n/a
354.9835	0.06	709967	keystroke	o	n/a
355.0745	0.089	710149	keystroke	r	n/a
355.298	0.107	710596	keystroke	s	n/a
355.418	0.0745	710836	keystroke	Key.space	n/a
355.643	0.075	711286	keystroke	c	n/a
355.733	0.109	711466	keystroke	o	n/a
355.7925	0.091	711585	keystroke	n	n/a
355.8835	0.0745	711767	keystroke	f	n/a
356.018	0.0895	712036	keystroke	i	n/a
356.153	0.105	712306	keystroke	r	n/a
356.3775	0.0605	712755	keystroke	m	n/a
356.5585	0.0595	713117	keystroke	e	n/a
356.753	0.06	713506	keystroke	d	n/a
356.964	0.0435	713928	keystroke	Key.enter	n/a
357.012	7.497	714024	prompt	n/a	lightbox writing reduce ceramic\n
357.8025	0.1355	715605	keystroke	l	n/a
357.878	0.105	715756	keystroke	i	n/a
357.998	0.093	715996	keystroke	g	n/a
358.118	0.0745	716236	keystroke	h	n/a
358.224	0.074	716448	keystroke	t	n/a
358.523	0.06	717046	keystroke	b	n/a
358.628	0.09	717256	keystroke	o	n/a
359.243	0.12	718486	keystroke	x	n/a
359.3925	0.1205	718785	keystroke	Key.space	n/a
359.7675	0.1355	719535	keystroke	w	n/a
359.8875	0.12	719775	keystroke	r	n/a
359.9925	0.1235	719985	keystroke	i	n/a
360.173	0.076	720346	keystroke	t	n/a
360.2925	0.1215	720585	keystroke	i	n/a
360.368	0.135	720736	keystroke	n	n/a
360.458	0.1345	720916	keystroke	g	n/a
360.5795	0.1335	721159	keystroke	Key.space	n/a
362.228	0.135	724456	keystroke	r	n/a
362.288	0.0895	724576	keystroke	e	n/a
362.498	0.06	724996	keystroke	d	n/a
362.603	0.1045	725206	keystroke	u	n/a
362.7225	0.0605	725445	keystroke	c	n/a
362.8725	0.12	725745	keystroke	e	n/a
362.9775	0.1355	725955	keystroke	Key.space	n/a
363.2925	0.1075	726585	keystroke	c	n/a
363.488	0.1195	726976	keystroke	e	n/a
363.6225	0.107	727245	keystroke	r	n/a
363.7885	0.107	727577	keystroke	a	n/a
364.013	0.1645	728026	keystroke	m	n/a
364.088	0.1345	728176	keystroke	i	n/a
364.253	0.1075	728506	keystroke	c	n/a
364.433	0.075	728866	keystroke	Key.enter	n/a
364.513	8.291	729026	prompt	n/a	hairy authentic respiratory malpractice\n
365.438	0.09	730876	keystroke	h	n/a
365.543	0.1055	731086	keystroke	a	n/a
365.8445	0.0885	731689	keystroke	i	n/a
365.9925	0.1055	731985	keystroke	r	n/a
366.3685	0.1195	732737	keystroke	y	n/a
366.518	0.12	733036	keystroke	Key.space	n/a
366.7735	0.0895	733547	keystroke	a	n/a
366.893	0.0755	733786	keystroke	u	n/a
367.088	0.06	734176	keystroke	t	n/a
367.163	0.075	734326	keystroke	h	n/a
367.2985	0.0745	734597	keystroke	e	n/a
367.4335	0.0595	734867	keystroke	n	n/a
367.5985	0.045	735197	keystroke	t	n/a
367.6765	0.0715	735353	keystroke	i	n/a
367.8235	0.0745	735647	keystroke	c	n/a
368.0485	0.0915	736097	keystroke	Key.space	n/a
368.274	0.1335	736548	keystroke	r	n/a
368.363	0.09	736726	keystroke	e	n/a
368.7705	0.0725	737541	keystroke	s	n/a
368.978	0.15	737956	keystroke	p	n/a
369.278	0.1045	738556	keystroke	i	n/a
369.488	0.0895	738976	keystroke	r	n/a
369.623	0.09	739246	keystroke	a	n/a
369.848	0.017	739696	keystroke	c	n/a
370.208	0.063	740416	keystroke	Key.backspace	n/a
370.298	0.075	740596	keystroke	t	n/a
370.418	0.0775	740836	keystroke	o	n/a
370.538	0.0905	741076	keystroke	r	n/a
370.643	0.135	741286	keystroke	y	n/a
370.763	0.105	741526	keystroke	Key.space	n/a
370.973	0.09	741946	keystroke	m	n/a
371.049	0.119	742098	keystroke	a	n/a
371.1975	0.095	742395	keystroke	l	n/a
371.498	0.0915	742996	keystroke	p	n/a
371.6175	0.105	743235	keystroke	r	n/a
371.738	0.1045	743476	keystroke	a	n/a
371.948	0.0595	743896	keystroke	c	n/a
372.053	0.12	744106	keystroke	t	n/a
372.263	0.09	744526	keystroke	i	n/a
372.368	0.075	744736	keystroke	c	n/a
372.563	0.0595	745126	keystroke	e	n/a
372.728	0.075	745456	keystroke	Key.enter	n/a
372.807	6.1465	745614	prompt	n/a	morris touring connector predictions\n
373.614	0.1335	747228	keystroke	m	n/a
373.6455	0.117	747291	keystroke	o	n/a
373.8225	0.0455	747645	keystroke	r	n/a
373.973	0.0605	747946	keystroke	r	n/a
374.033	0.0895	748066	keystroke	i	n/a
374.168	0.15	748336	keystroke	s	n/a
374.258	0.1345	748516	keystroke	Key.space	n/a
374.603	0.075	749206	keystroke	t	n/a
374.723	0.12	749446	keystroke	o	n/a
374.828	0.12	749656	keystroke	u	n/a
375.0075	0.1055	750015	keystroke	r	n/a
375.1725	0.135	750345	keystroke	i	n/a
375.263	0.1195	750526	keystroke	n	n/a
375.3975	0.1055	750795	keystroke	g	n/a
375.473	0.1345	750946	keystroke	Key.space	n/a
375.669	0.089	751338	keystroke	c	n/a
375.7275	0.1205	751455	keystroke	o	n/a
375.788	0.1045	751576	keystroke	n	n/a
376.013	0.0905	752026	keystroke	n	n/a
376.1365	0.086	752273	keystroke	e	n/a
376.358	0.045	752716	keystroke	c	n/a
376.4685	0.024	752937	keystroke	t	n/a
376.5075	0.0755	753015	keystroke	t	n/a
376.6	0.088	753200	keystroke	o	n/a
376.718	0.12	753436	keystroke	r	n/a
376.868	0.12	753736	keystroke	Key.space	n/a
377.153	0.107	754306	keystroke	p	n/a
377.243	0.12	754486	keystroke	r	n/a
377.318	0.105	754636	keystroke	e	n/a
377.543	0.0595	755086	keystroke	d	n/a
377.663	0.105	755326	keystroke	i	n/a
377.903	0.135	755806	keystroke	c	n/a
378.053	0.105	756106	keystroke	t	n/a
378.218	0.18	756436	keystroke	i	n/a
378.2925	0.1655	756585	keystroke	o	n/a
378.368	0.135	756736	keystroke	n	n/a
378.521	0.0715	757042	keystroke	s	n/a
378.863	0.0895	757726	keystroke	Key.enter	n/a
378.958	5.8615	757916	prompt	n/a	amended contracts lance offline\n
379.718	0.0895	759436	keystroke	a	n/a
379.853	0.09	759706	keystroke	m	n/a
379.973	0.1105	759946	keystroke	e	n/a
380.1225	0.127	760245	keystroke	n	n/a
381.188	0.03	762376	keystroke	d	n/a
381.3985	0.014	762797	keystroke	e	n/a
381.5775	0.015	763155	keystroke	d	n/a
381.6225	0.0905	763245	keystroke	Key.space	n/a
381.923	0.09	763846	keystroke	c	n/a
381.998	0.12	763996	keystroke	o	n/a
382.058	0.1055	764116	keystroke	n	n/a
382.1925	0.076	764385	keystroke	t	n/a
382.358	0.0905	764716	keystroke	r	n/a
382.448	0.09	764896	keystroke	a	n/a
382.583	0.12	765166	keystroke	c	n/a
382.7035	0.0895	765407	keystroke	t	n/a
382.7925	0.1395	765585	keystroke	i	n/a
382.8375	0.1055	765675	keystroke	o	n/a
382.913	0.105	765826	keystroke	n	n/a
382.988	0.1045	765976	keystroke	s	n/a
383.138	0.045	766276	keystroke	Key.space	n/a
383.231	0.087	766462	keystroke	l	n/a
383.304	0.0885	766608	keystroke	a	n/a
383.483	0.047	766966	keystroke	n	n/a
383.573	0.075	767146	keystroke	c	n/a
383.768	0.075	767536	keystroke	e	n/a
383.888	0.03	767776	keystroke	Key.space	n/a
383.9775	0.091	767955	keystroke	o	n/a
384.098	0.0465	768196	keystroke	f	n/a
384.2485	0.0445	768497	keystroke	f	n/a
384.3255	0.1475	768651	keystroke	l	n/a
384.413	0.1205	768826	keystroke	i	n/a
384.4905	0.1025	768981	keystroke	n	n/a
384.5335	0.0905	769067	keystroke	e	n/a
384.744	0.0745	769488	keystroke	Key.enter	n/a
384.8235	6.085	769647	prompt	n/a	operated suggests cheese controller\n
385.568	0.12	771136	keystroke	o	n/a
385.673	0.135	771346	keystroke	p	n/a
385.793	0.091	771586	keystroke	e	n/a
385.838	0.12	771676	keystroke	r	n/a
386.0505	0.1025	772101	keystroke	a	n/a
386.228	0.1045	772456	keystroke	t	n/a
386.4225	0.1205	772845	keystroke	e	n/a
386.663	0.0745	773326	keystroke	d	n/a
386.813	0.105	773626	keystroke	Key.space	n/a
387.0385	0.0895	774077	keystroke	s	n/a
387.1435	0.059	774287	keystroke	u	n/a
387.2775	0.045	774555	keystroke	g	n/a
387.413	0.075	774826	keystroke	g	n/a
387.503	0.165	775006	keystroke	e	n/a
387.5925	0.1055	775185	keystroke	s	n/a
387.683	0.075	775366	keystroke	t	n/a
387.833	0.195	775666	keystroke	i	n/a
387.94	0.133	775880	keystroke	o	n/a
388.0125	0.1055	776025	keystroke	n	n/a
388.1185	0.1535	776237	keystroke	s	n/a
388.2225	0.0905	776445	keystroke	Key.space	n/a
388.418	0.0745	776836	keystroke	c	n/a
388.5075	0.075	777015	keystroke	h	n/a
388.628	0.06	777256	keystroke	e	n/a
388.8075	0.062	777615	keystroke	e	n/a
388.973	0.1945	777946	keystroke	s	n/a
389.123	0.12	778246	keystroke	e	n/a
389.244	0.1215	778488	keystroke	Key.space	n/a
389.4985	0.0895	778997	keystroke	c	n/a
389.558	0.1495	779116	keystroke	o	n/a
389.648	0.12	779296	keystroke	n	n/a
389.813	0.0895	779626	keystroke	t	n/a
390.0075	0.0755	780015	keystroke	r	n/a
390.143	0.09	780286	keystroke	o	n/a
390.353	0.06	780706	keystroke	l	n/a
390.518	0.0895	781036	keystroke	l	n/a
390.626	0.087	781252	keystroke	e	n/a
390.668	0.1055	781336	keystroke	r	n/a
390.833	0.0745	781666	keystroke	Key.enter	n/a
390.9115	6.6145	781823	prompt	n/a	classics garcia promising david\n
391.658	0.105	783316	keystroke	c	n/a
391.808	0.09	783616	keystroke	l	n/a
391.928	0.0945	783856	keystroke	a	n/a
392.1225	0.0755	784245	keystroke	s	n/a
392.288	0.0625	784576	keystroke	s	n/a
392.378	0.1055	784756	keystroke	i	n/a
392.516	0.0725	785032	keystroke	c	n/a
392.723	0.18	785446	keystroke	s	n/a
392.918	0.105	785836	keystroke	Key.space	n/a
393.114	0.0145	786228	keystroke	c	n/a
393.5335	0.0595	787067	keystroke	Key.backspace	n/a
393.6835	0.0745	787367	keystroke	g	n/a
393.9095	0.1345	787819	keystroke	a	n/a
394.028	0.1355	788056	keystroke	r	n/a
394.408	0.07	788816	keystroke	c	n/a
394.4925	0.091	788985	keystroke	i	n/a
394.598	0.1205	789196	keystroke	a	n/a
394.709	0.1325	789418	keystroke	Key.space	n/a
394.944	0.104	789888	keystroke	p	n/a
395.0635	0.0595	790127	keystroke	r	n/a
395.14	0.073	790280	keystroke	o	n/a
395.393	0.12	790786	keystroke	m	n/a
395.483	0.09	790966	keystroke	i	n/a
395.5735	0.075	791147	keystroke	s	n/a
395.723	0.09	791446	keystroke	i	n/a
395.7835	0.0895	791567	keystroke	n	n/a
395.888	0.12	791776	keystroke	g	n/a
395.993	0.09	791986	keystroke	Key.space	n/a
396.218	0.09	792436	keystroke	d	n/a
396.293	0.09	792586	keystroke	a	n/a
396.473	0.0755	792946	keystroke	v	n/a
396.563	0.0755	793126	keystroke	i	n/a
396.848	0.03	793696	keystroke	d	n/a
397.448	0.077	794896	keystroke	Key.enter	n/a
397.5295	8.9795	795059	prompt	n/a	revealed monitors organisations reasoning\n
398.3035	0.15	796607	keystroke	r	n/a
398.3635	0.1045	796727	keystroke	e	n/a
398.708	0.0775	797416	keystroke	v	n/a
398.7985	0.0895	797597	keystroke	e	n/a
398.9505	0.0725	797901	keystroke	a	n/a
399.038	0.0905	798076	keystroke	l	n/a
399.188	0.0755	798376	keystroke	e	n/a
399.383	0.0755	798766	keystroke	d	n/a
399.5035	0.089	799007	keystroke	Key.space	n/a
399.683	0.1965	799366	keystroke	m	n/a
399.8635	0.12	799727	keystroke	o	n/a
400.1485	0.15	800297	keystroke	n	n/a
400.211	0.134	800422	keystroke	i	n/a
400.493	0.0755	800986	keystroke	t	n/a
400.5985	0.0775	801197	keystroke	o	n/a
400.7185	0.0745	801437	keystroke	r	n/a
400.8685	0.138	801737	keystroke	s	n/a
400.9735	0.1495	801947	keystroke	Key.space	n/a
401.573	0.105	803146	keystroke	o	n/a
401.6635	0.09	803327	keystroke	r	n/a
401.873	0.0755	803746	keystroke	g	n/a
401.963	0.1205	803926	keystroke	a	n/a
402.158	0.12	804316	keystroke	n	n/a
402.2345	0.1185	804469	keystroke	i	n/a
402.4005	0.0725	804801	keystroke	s	n/a
402.548	0.12	805096	keystroke	a	n/a
402.818	0.0475	805636	keystroke	t	n/a
402.848	0.182	805696	keystroke	i	n/a
402.923	0.1205	805846	keystroke	o	n/a
403.013	0.135	806026	keystroke	n	n/a
403.1335	0.1345	806267	keystroke	s	n/a
403.223	0.138	806446	keystroke	Key.space	n/a
403.703	0.09	807406	keystroke	r	n/a
403.748	0.105	807496	keystroke	e	n/a
403.868	0.105	807736	keystroke	a	n/a
403.9585	0.1195	807917	keystroke	s	n/a
404.108	0.136	808216	keystroke	o	n/a
404.2135	0.15	808427	keystroke	n	n/a
404.4245	0.074	808849	keystroke	g	n/a
404.5285	0.1195	809057	keystroke	i	n/a
404.603	0.12	809206	keystroke	n	n/a
404.993	0.045	809986	keystroke	Key.backspace	n/a
405.128	0.06	810256	keystroke	Key.backspace	n/a
405.278	0.075	810556	keystroke	Key.backspace	n/a
405.4735	0.077	810947	keystroke	i	n/a
405.5185	0.09	811037	keystroke	n	n/a
405.608	0.1075	811216	keystroke	g	n/a
405.744	0.074	811488	keystroke	s	n/a
406.184	0.1005	812368	keystroke	Key.backspace	n/a
406.4185	0.0895	812837	keystroke	Key.enter	n/a
406.5135	6.176	813027	prompt	n/a	most frontpage timeline crossing\n
407.423	0.0755	814846	keystroke	m	n/a
407.4405	0.103	814881	keystroke	o	n/a
407.528	0.165	815056	keystroke	s	n/a
407.7075	0.121	815415	keystroke	t	n/a
407.7985	0.1065	815597	keystroke	Key.space	n/a
408.008	0.1055	816016	keystroke	r	n/a
408.308	0.062	816616	keystroke	Key.backspace	n/a
408.4135	0.06	816827	keystroke	f	n/a
408.593	0.0605	817186	keystroke	r	n/a
408.6685	0.12	817337	keystroke	o	n/a
408.7135	0.135	817427	keystroke	m	n/a
409.103	0.064	818206	keystroke	Key.backspace	n/a
409.2835	0.0605	818567	keystroke	n	n/a
409.388	0.09	818776	keystroke	t	n/a
409.6735	0.0925	819347	keystroke	p	n/a
409.778	0.0755	819556	keystroke	a	n/a
409.8835	0.1195	819767	keystroke	g	n/a
409.9885	0.1345	819977	keystroke	e	n/a
410.108	0.0755	820216	keystroke	Key.space	n/a
410.3485	0.0805	820697	keystroke	t	n/a
410.4385	0.0905	820877	keystroke	i	n/a
410.573	0.1215	821146	keystroke	m	n/a
410.729	0.0845	821458	keystroke	e	n/a
410.873	0.195	821746	keystroke	l	n/a
411.0565	0.102	822113	keystroke	i	n/a
411.2035	0.1045	822407	keystroke	n	n/a
411.293	0.1355	822586	keystroke	e	n/a
411.3985	0.1215	822797	keystroke	Key.space	n/a
411.6535	0.075	823307	keystroke	c	n/a
411.8035	0.1045	823607	keystroke	r	n/a
411.9535	0.0905	823907	keystroke	o	n/a
412.0885	0.063	824177	keystroke	s	n/a
412.2535	0.045	824507	keystroke	s	n/a
412.3285	0.105	824657	keystroke	i	n/a
412.388	0.105	824776	keystroke	n	n/a
412.483	0.04	824966	keystroke	g	n/a
412.6285	0.06	825257	keystroke	Key.enter	n/a
412.692	6.5245	825384	prompt	n/a	cartoons totals inherited username\n
413.4385	0.0895	826877	keystroke	c	n/a
413.544	0.1045	827088	keystroke	a	n/a
413.6335	0.0895	827267	keystroke	r	n/a
413.9035	0.0745	827807	keystroke	t	n/a
414.008	0.0605	828016	keystroke	o	n/a
414.174	0.0895	828348	keystroke	o	n/a
414.293	0.0905	828586	keystroke	n	n/a
414.444	0.134	828888	keystroke	s	n/a
414.5335	0.138	829067	keystroke	Key.space	n/a
414.8185	0.076	829637	keystroke	t	n/a
414.8935	0.06	829787	keystroke	o	n/a
415.0585	0.06	830117	keystroke	t	n/a
415.1935	0.075	830387	keystroke	a	n/a
415.2835	0.0595	830567	keystroke	l	n/a
415.434	0.059	830868	keystroke	l	n/a
415.793	0.0605	831586	keystroke	Key.backspace	n/a
415.8985	0.135	831797	keystroke	s	n/a
416.003	0.1355	832006	keystroke	Key.space	n/a
416.4685	0.105	832937	keystroke	i	n/a
416.5435	0.0895	833087	keystroke	n	n/a
416.7685	0.0755	833537	keystroke	h	n/a
416.86	0.1035	833720	keystroke	e	n/a
416.9185	0.12	833837	keystroke	r	n/a
417.308	0.0605	834616	keystroke	i	n/a
417.5035	0.0895	835007	keystroke	t	n/a
417.5635	0.105	835127	keystroke	e	n/a
417.822	0.116	835644	keystroke	d	n/a
417.923	0.1055	835846	keystroke	Key.space	n/a
418.208	0.078	836416	keystroke	u	n/a
418.3135	0.15	836627	keystroke	s	n/a
418.3735	0.1345	836747	keystroke	e	n/a
418.4515	0.1015	836903	keystroke	r	n/a
418.6885	0.0625	837377	keystroke	n	n/a
418.7635	0.105	837527	keystroke	a	n/a
418.898	0.0605	837796	keystroke	m	n/a
418.9885	0.0935	837977	keystroke	e	n/a
419.1385	0.0765	838277	keystroke	Key.enter	n/a
419.2195	10.06	838439	prompt	n/a	displays flag lions cleaners\n
419.9485	0.075	839897	keystroke	d	n/a
420.0535	0.075	840107	keystroke	i	n/a
420.144	0.1045	840288	keystroke	s	n/a
420.309	0.0745	840618	keystroke	p	n/a
420.474	0.0895	840948	keystroke	l	n/a
420.593	0.1205	841186	keystroke	a	n/a
420.699	0.0895	841398	keystroke	y	n/a
420.8635	0.12	841727	keystroke	s	n/a
421.1085	0.0995	842217	keystroke	Key.space	n/a
421.4075	0.0855	842815	keystroke	f	n/a
421.5535	0.0905	843107	keystroke	l	n/a
421.6885	0.1195	843377	keystroke	a	n/a
421.904	0.1145	843808	keystroke	g	n/a
422.07	0.0835	844140	keystroke	Key.space	n/a
422.3035	0.1495	844607	keystroke	l	n/a
422.393	0.1375	844786	keystroke	i	n/a
422.603	0.105	845206	keystroke	o	n/a
422.7535	0.15	845507	keystroke	s	n/a
423.023	0.106	846046	keystroke	Key.space	n/a
423.7285	0.075	847457	keystroke	c	n/a
423.849	0.0745	847698	keystroke	l	n/a
423.9385	0.195	847877	keystroke	e	n/a
424.134	0.1495	848268	keystroke	r	n/a
424.478	0.0605	848956	keystroke	Key.backspace	n/a
424.6135	0.0765	849227	keystroke	Key.backspace	n/a
424.7785	0.06	849557	keystroke	Key.backspace	n/a
424.958	0.0635	849916	keystroke	Key.backspace	n/a
425.1235	0.064	850247	keystroke	Key.backspace	n/a
425.3535	0.085	850707	keystroke	n	n/a
425.5185	0.0695	851037	keystroke	s	n/a
425.785	0.0435	851570	keystroke	Key.backspace	n/a
425.9335	0.0595	851867	keystroke	Key.backspace	n/a
426.0985	0.06	852197	keystroke	Key.backspace	n/a
426.353	0.0605	852706	keystroke	n	n/a
426.444	0.1345	852888	keystroke	s	n/a
426.5635	0.105	853127	keystroke	Key.space	n/a
426.8485	0.0745	853697	keystroke	l	n/a
427.178	0.0635	854356	keystroke	Key.backspace	n/a
427.3285	0.077	854657	keystroke	c	n/a
427.434	0.074	854868	keystroke	l	n/a
427.568	0.136	855136	keystroke	e	n/a
427.6735	0.136	855347	keystroke	a	n/a
427.7485	0.105	855497	keystroke	r	n/a
428.408	0.0455	856816	keystroke	Key.backspace	n/a
428.6185	0.0595	857237	keystroke	n	n/a
428.7235	0.1215	857447	keystroke	e	n/a
428.7995	0.1195	857599	keystroke	r	n/a
428.965	0.1185	857930	keystroke	s	n/a
429.2035	0.075	858407	keystroke	Key.enter	n/a
429.282	6.8375	858564	prompt	n/a	humidity warcraft slovakia abroad\n
430.1785	0.0605	860357	keystroke	h	n/a
430.344	0.0895	860688	keystroke	u	n/a
430.556	0.1475	861112	keystroke	m	n/a
430.644	0.1045	861288	keystroke	i	n/a
430.839	0.0895	861678	keystroke	d	n/a
430.9745	0.1035	861949	keystroke	i	n/a
431.2135	0.06	862427	keystroke	t	n/a
431.288	0.105	862576	keystroke	y	n/a
431.4085	0.09	862817	keystroke	Key.space	n/a
431.6035	0.15	863207	keystroke	w	n/a
431.693	0.1355	863386	keystroke	a	n/a
431.7985	0.12	863597	keystroke	r	n/a
432.053	0.0755	864106	keystroke	c	n/a
432.2335	0.0895	864467	keystroke	r	n/a
432.3685	0.0755	864737	keystroke	a	n/a
432.623	0.0755	865246	keystroke	f	n/a
432.8635	0.09	865727	keystroke	t	n/a
433.0585	0.105	866117	keystroke	Key.space	n/a
433.254	0.091	866508	keystroke	s	n/a
433.3585	0.09	866717	keystroke	l	n/a
433.5685	0.0755	867137	keystroke	o	n/a
433.7635	0.0765	867527	keystroke	v	n/a
433.8835	0.15	867767	keystroke	a	n/a
434.1535	0.075	868307	keystroke	k	n/a
434.3485	0.075	868697	keystroke	i	n/a
434.47	0.1185	868940	keystroke	a	n/a
434.6485	0.125	869297	keystroke	Key.space	n/a
434.994	0.1195	869988	keystroke	a	n/a
435.1885	0.081	870377	keystroke	b	n/a
435.4355	0.068	870871	keystroke	r	n/a
435.568	0.1005	871136	keystroke	o	n/a
435.6985	0.105	871397	keystroke	a	n/a
435.896	0.0725	871792	keystroke	d	n/a
436.074	0.0445	872148	keystroke	Key.enter	n/a
436.1225	5.7565	872245	prompt	n/a	illustration language heart alive\n
436.9905	0.074	873981	keystroke	i	n/a
437.168	0.076	874336	keystroke	l	n/a
437.349	0.0745	874698	keystroke	l	n/a
437.4555	0.103	874911	keystroke	u	n/a
437.6035	0.1195	875207	keystroke	s	n/a
437.739	0.075	875478	keystroke	t	n/a
437.904	0.104	875808	keystroke	r	n/a
437.9945	0.119	875989	keystroke	a	n/a
438.1585	0.075	876317	keystroke	t	n/a
438.2635	0.1805	876527	keystroke	i	n/a
438.3385	0.12	876677	keystroke	o	n/a
438.398	0.1055	876796	keystroke	n	n/a
438.504	0.09	877008	keystroke	Key.space	n/a
438.623	0.0755	877246	keystroke	l	n/a
438.744	0.0895	877488	keystroke	a	n/a
439.2085	0.075	878417	keystroke	n	n/a
439.3145	0.0745	878629	keystroke	g	n/a
439.569	0.076	879138	keystroke	u	n/a
439.6585	0.09	879317	keystroke	a	n/a
439.749	0.1195	879498	keystroke	g	n/a
439.8535	0.1255	879707	keystroke	e	n/a
439.9585	0.105	879917	keystroke	Key.space	n/a
440.2585	0.0895	880517	keystroke	h	n/a
440.378	0.2555	880756	keystroke	e	n/a
440.5135	0.135	881027	keystroke	a	n/a
440.5885	0.1045	881177	keystroke	r	n/a
440.8285	0.09	881657	keystroke	t	n/a
441.008	0.0905	882016	keystroke	Key.space	n/a
441.2185	0.0595	882437	keystroke	a	n/a
441.308	0.1805	882616	keystroke	l	n/a
441.4285	0.12	882857	keystroke	i	n/a
441.534	0.0895	883068	keystroke	v	n/a
441.608	0.106	883216	keystroke	e	n/a
441.7735	0.1045	883547	keystroke	Key.enter	n/a
441.8815	6.4635	883763	prompt	n/a	athletic shine nested samoa\n
442.5985	0.12	885197	keystroke	a	n/a
442.8235	0.0595	885647	keystroke	t	n/a
442.944	0.0895	885888	keystroke	h	n/a
443.0185	0.0895	886037	keystroke	e	n/a
443.2285	0.09	886457	keystroke	l	n/a
443.3785	0.135	886757	keystroke	e	n/a
443.499	0.1645	886998	keystroke	t	n/a
443.708	0.1205	887416	keystroke	i	n/a
443.844	0.09	887688	keystroke	c	n/a
443.9945	0.1045	887989	keystroke	Key.space	n/a
444.2205	0.103	888441	keystroke	s	n/a
444.339	0.135	888678	keystroke	h	n/a
444.3865	0.117	888773	keystroke	i	n/a
444.6235	0.0905	889247	keystroke	n	n/a
444.729	0.126	889458	keystroke	e	n/a
444.8225	0.1165	889645	keystroke	Key.space	n/a
445.074	0.08	890148	keystroke	n	n/a
445.1535	0.0695	890307	keystroke	e	n/a
445.719	0.1645	891438	keystroke	s	n/a
445.869	0.105	891738	keystroke	t	n/a
446.0335	0.09	892067	keystroke	e	n/a
446.2765	0.087	892553	keystroke	d	n/a
446.364	0.0895	892728	keystroke	Key.space	n/a
446.5755	0.148	893151	keystroke	s	n/a
446.7685	0.076	893537	keystroke	a	n/a
447.2335	0.09	894467	keystroke	n	n/a
447.6085	0.063	895217	keystroke	Key.backspace	n/a
447.8185	0.12	895637	keystroke	m	n/a
447.8485	0.135	895697	keystroke	o	n/a
448.0735	0.0935	896147	keystroke	a	n/a
448.2685	0.0755	896537	keystroke	Key.enter	n/a
448.348	5.3815	896696	prompt	n/a	unless wagner flight bonds\n
449.589	0.0745	899178	keystroke	u	n/a
449.799	0.0605	899598	keystroke	n	n/a
449.964	0.0895	899928	keystroke	l	n/a
450.0255	0.0885	900051	keystroke	e	n/a
450.219	0.0755	900438	keystroke	s	n/a
450.369	0.105	900738	keystroke	s	n/a
450.459	0.1195	900918	keystroke	Key.space	n/a
450.655	0.1665	901310	keystroke	w	n/a
450.759	0.1195	901518	keystroke	a	n/a
451.3585	0.075	902717	keystroke	g	n/a
451.616	0.0725	903232	keystroke	n	n/a
451.7035	0.1195	903407	keystroke	e	n/a
451.7785	0.105	903557	keystroke	r	n/a
451.9735	0.107	903947	keystroke	Key.space	n/a
452.199	0.0595	904398	keystroke	f	n/a
452.3185	0.12	904637	keystroke	l	n/a
452.381	0.1175	904762	keystroke	i	n/a
452.483	0.0755	904966	keystroke	g	n/a
452.6035	0.075	905207	keystroke	h	n/a
452.693	0.0905	905386	keystroke	t	n/a
452.7985	0.09	905597	keystroke	Key.space	n/a
453.1285	0.075	906257	keystroke	b	n/a
453.1885	0.1205	906377	keystroke	o	n/a
453.278	0.091	906556	keystroke	n	n/a
453.3835	0.15	906767	keystroke	d	n/a
453.4735	0.1345	906947	keystroke	s	n/a
453.6535	0.075	907307	keystroke	Key.enter	n/a
453.7325	7.272	907465	prompt	n/a	barriers happening accessory honor\n
454.508	0.0755	909016	keystroke	b	n/a
454.6885	0.1055	909377	keystroke	a	n/a
454.8385	0.09	909677	keystroke	r	n/a
455.0185	0.0895	910037	keystroke	r	n/a
455.138	0.1205	910276	keystroke	i	n/a
455.2135	0.121	910427	keystroke	e	n/a
455.2885	0.1195	910577	keystroke	r	n/a
455.5435	0.1225	911087	keystroke	s	n/a
455.6485	0.105	911297	keystroke	Key.space	n/a
455.8885	0.0895	911777	keystroke	h	n/a
455.9645	0.059	911929	keystroke	a	n/a
456.114	0.0505	912228	keystroke	p	n/a
456.264	0.0625	912528	keystroke	p	n/a
456.2945	0.0745	912589	keystroke	e	n/a
456.414	0.105	912828	keystroke	n	n/a
456.5945	0.1045	913189	keystroke	i	n/a
456.6585	0.1005	913317	keystroke	n	n/a
456.7905	0.178	913581	keystroke	g	n/a
456.9835	0.12	913967	keystroke	Key.space	n/a
457.4215	0.0715	914843	keystroke	a	n/a
457.629	0.0895	915258	keystroke	c	n/a
457.794	0.0915	915588	keystroke	c	n/a
457.9885	0.075	915977	keystroke	e	n/a
458.139	0.0895	916278	keystroke	s	n/a
458.3185	0.09	916637	keystroke	s	n/a
458.4535	0.0905	916907	keystroke	o	n/a
458.5475	0.086	917095	keystroke	r	n/a
458.754	0.1045	917508	keystroke	y	n/a
458.904	0.1045	917808	keystroke	Key.space	n/a
459.144	0.1195	918288	keystroke	h	n/a
459.2185	0.1205	918437	keystroke	o	n/a
459.4295	0.1195	918859	keystroke	r	n/a
459.6415	0.1175	919283	keystroke	n	n/a
460.1785	0.0605	920357	keystroke	Key.backspace	n/a
460.314	0.0905	920628	keystroke	Key.backspace	n/a
460.554	0.1195	921108	keystroke	n	n/a
460.629	0.107	921258	keystroke	o	n/a
460.7035	0.105	921407	keystroke	r	n/a
460.944	0.0595	921888	keystroke	Key.enter	n/a
461.0075	6.1675	922015	prompt	n/a	strictly subsidiary license wild\n
461.694	0.1055	923388	keystroke	s	n/a
461.844	0.0895	923688	keystroke	t	n/a
462.0385	0.075	924077	keystroke	r	n/a
462.1315	0.102	924263	keystroke	i	n/a
462.2645	0.104	924529	keystroke	c	n/a
462.414	0.105	924828	keystroke	t	n/a
462.519	0.1195	925038	keystroke	l	n/a
462.6085	0.1355	925217	keystroke	y	n/a
462.76	0.089	925520	keystroke	Key.space	n/a
462.984	0.107	925968	keystroke	s	n/a
463.1035	0.12	926207	keystroke	u	n/a
463.2085	0.06	926417	keystroke	b	n/a
463.4185	0.12	926837	keystroke	s	n/a
463.749	0.0895	927498	keystroke	i	n/a
463.9585	0.0745	927917	keystroke	d	n/a
464.0785	0.108	928157	keystroke	i	n/a
464.214	0.0745	928428	keystroke	a	n/a
464.5885	0.09	929177	keystroke	r	n/a
464.7385	0.12	929477	keystroke	y	n/a
464.8445	0.104	929689	keystroke	Key.space	n/a
465.0835	0.1505	930167	keystroke	l	n/a
465.144	0.1505	930288	keystroke	i	n/a
465.489	0.0445	930978	keystroke	c	n/a
465.6385	0.0605	931277	keystroke	e	n/a
465.7135	0.0605	931427	keystroke	n	n/a
465.9685	0.195	931937	keystroke	s	n/a
466.08	0.1135	932160	keystroke	e	n/a
466.2985	0.09	932597	keystroke	Key.space	n/a
466.4635	0.105	932927	keystroke	w	n/a
466.5835	0.0945	933167	keystroke	i	n/a
466.794	0.083	933588	keystroke	l	n/a
466.9135	0.0955	933827	keystroke	d	n/a
467.094	0.08	934188	keystroke	Key.enter	n/a
467.1775	6.472	934355	prompt	n/a	markets expenditure however openings\n
467.9185	0.09	935837	keystroke	m	n/a
467.9725	0.1275	935945	keystroke	a	n/a
468.084	0.105	936168	keystroke	r	n/a
468.384	0.075	936768	keystroke	k	n/a
468.4735	0.0755	936947	keystroke	e	n/a
468.5965	0.087	937193	keystroke	t	n/a
468.759	0.12	937518	keystroke	s	n/a
468.864	0.135	937728	keystroke	Key.space	n/a
469.1335	0.1055	938267	keystroke	e	n/a
469.344	0.09	938688	keystroke	x	n/a
469.4785	0.0905	938957	keystroke	p	n/a
469.584	0.0895	939168	keystroke	e	n/a
469.7485	0.09	939497	keystroke	n	n/a
469.995	0.054	939990	keystroke	d	n/a
470.0785	0.1055	940157	keystroke	i	n/a
470.292	0.057	940584	keystroke	t	n/a
470.499	0.075	940998	keystroke	u	n/a
470.604	0.187	941208	keystroke	r	n/a
470.7085	0.0905	941417	keystroke	e	n/a
470.859	0.075	941718	keystroke	Key.space	n/a
471.0235	0.1055	942047	keystroke	h	n/a
471.099	0.09	942198	keystroke	o	n/a
471.234	0.165	942468	keystroke	w	n/a
471.339	0.1195	942678	keystroke	e	n/a
471.519	0.1045	943038	keystroke	v	n/a
471.639	0.15	943278	keystroke	e	n/a
471.759	0.1495	943518	keystroke	r	n/a
471.9085	0.137	943817	keystroke	Key.space	n/a
472.134	0.15	944268	keystroke	o	n/a
472.2535	0.1505	944507	keystroke	p	n/a
472.419	0.092	944838	keystroke	e	n/a
472.614	0.1045	945228	keystroke	n	n/a
472.7335	0.1355	945467	keystroke	i	n/a
472.8535	0.0905	945707	keystroke	n	n/a
472.9735	0.15	945947	keystroke	g	n/a
473.349	0.0895	946698	keystroke	s	n/a
473.559	0.09	947118	keystroke	Key.enter	n/a
473.6525	5.6235	947305	prompt	n/a	browser tips excitement code\n
474.429	0.075	948858	keystroke	b	n/a
474.6235	0.1085	949247	keystroke	r	n/a
474.759	0.1055	949518	keystroke	o	n/a
474.894	0.1045	949788	keystroke	w	n/a
475.149	0.09	950298	keystroke	s	n/a
475.2985	0.12	950597	keystroke	e	n/a
475.3735	0.15	950747	keystroke	r	n/a
475.5235	0.1205	951047	keystroke	Key.space	n/a
475.9135	0.079	951827	keystroke	t	n/a
475.9735	0.165	951947	keystroke	i	n/a
476.0635	0.1345	952127	keystroke	p	n/a
476.183	0.1205	952366	keystroke	s	n/a
476.244	0.15	952488	keystroke	Key.space	n/a
476.5285	0.09	953057	keystroke	e	n/a
476.7385	0.075	953477	keystroke	x	n/a
476.904	0.0745	953808	keystroke	c	n/a
477.0385	0.1055	954077	keystroke	i	n/a
477.1585	0.062	954317	keystroke	t	n/a
477.4285	0.075	954857	keystroke	e	n/a
477.6235	0.075	955247	keystroke	m	n/a
477.7735	0.0595	955547	keystroke	e	n/a
477.8495	0.074	955699	keystroke	n	n/a
477.9685	0.1195	955937	keystroke	t	n/a
478.104	0.09	956208	keystroke	Key.space	n/a
478.2985	0.09	956597	keystroke	c	n/a
478.3885	0.0755	956777	keystroke	o	n/a
478.493	0.0455	956986	keystroke	e	n/a
478.8535	0.0605	957707	keystroke	d	n/a
479.0185	0.0595	958037	keystroke	e	n/a
479.199	0.076	958398	keystroke	Key.enter	n/a
479.281	5.813	958562	prompt	n/a	gotta appears am opposed\n
480.3835	0.09	960767	keystroke	g	n/a
480.489	0.047	960978	keystroke	o	n/a
480.638	0.0755	961276	keystroke	t	n/a
480.7885	0.075	961577	keystroke	t	n/a
480.894	0.1645	961788	keystroke	a	n/a
481.044	0.0925	962088	keystroke	Key.space	n/a
481.2385	0.1055	962477	keystroke	a	n/a
481.4035	0.075	962807	keystroke	p	n/a
481.494	0.09	962988	keystroke	e	n/a
481.719	0.1045	963438	keystroke	p	n/a
482.0335	0.0445	964067	keystroke	Key.backspace	n/a
482.184	0.0595	964368	keystroke	Key.backspace	n/a
482.394	0.0895	964788	keystroke	p	n/a
482.439	0.195	964878	keystroke	e	n/a
482.5285	0.135	965057	keystroke	a	n/a
482.604	0.12	965208	keystroke	r	n/a
482.8135	0.1505	965627	keystroke	s	n/a
482.9645	0.119	965929	keystroke	Key.space	n/a
483.294	0.1195	966588	keystroke	a	n/a
483.3985	0.105	966797	keystroke	m	n/a
483.549	0.0595	967098	keystroke	Key.space	n/a
483.729	0.0905	967458	keystroke	o	n/a
483.894	0.1195	967788	keystroke	p	n/a
484.0285	0.225	968057	keystroke	p	n/a
484.1785	0.2555	968357	keystroke	o	n/a
484.404	0.1945	968808	keystroke	s	n/a
484.4785	0.195	968957	keystroke	e	n/a
484.786	0.1425	969572	keystroke	d	n/a
485.0035	0.0895	970007	keystroke	Key.enter	n/a
485.097	10.423	970194	prompt	n/a	estimate most columbia parliamentary\n
485.9185	0.0655	971837	keystroke	e	n/a
486.0535	0.1655	972107	keystroke	s	n/a
486.129	0.1195	972258	keystroke	e	n/a
486.549	0.059	973098	keystroke	Key.backspace	n/a
486.6835	0.0755	973367	keystroke	t	n/a
486.8185	0.09	973637	keystroke	i	n/a
486.894	0.195	973788	keystroke	m	n/a
487.8085	0.1235	975617	keystroke	a	n/a
487.959	0.1345	975918	keystroke	t	n/a
488.049	0.0895	976098	keystroke	e	n/a
488.2735	0.105	976547	keystroke	Key.space	n/a
488.454	0.135	976908	keystroke	m	n/a
488.529	0.105	977058	keystroke	o	n/a
488.619	0.1045	977238	keystroke	s	n/a
488.739	0.105	977478	keystroke	t	n/a
488.829	0.105	977658	keystroke	Key.space	n/a
489.0685	0.0755	978137	keystroke	c	n/a
489.129	0.105	978258	keystroke	o	n/a
489.339	0.105	978678	keystroke	l	n/a
489.444	0.12	978888	keystroke	u	n/a
489.684	0.09	979368	keystroke	m	n/a
489.9545	0.0745	979909	keystroke	b	n/a
490.044	0.076	980088	keystroke	i	n/a
490.2385	0.1205	980477	keystroke	a	n/a
490.374	0.12	980748	keystroke	Key.space	n/a
490.659	0.1195	981318	keystroke	p	n/a
490.8685	0.105	981737	keystroke	a	n/a
491.3485	0.1205	982697	keystroke	r	n/a
493.8235	0.1505	987647	keystroke	l	n/a
493.884	0.1505	987768	keystroke	i	n/a
494.049	0.1045	988098	keystroke	a	n/a
494.244	0.075	988488	keystroke	m	n/a
494.334	0.06	988668	keystroke	e	n/a
494.454	0.09	988908	keystroke	n	n/a
494.559	0.1055	989118	keystroke	t	n/a
494.859	0.105	989718	keystroke	a	n/a
495.0085	0.1055	990017	keystroke	r	n/a
495.174	0.09	990348	keystroke	y	n/a
495.4285	0.0905	990857	keystroke	Key.enter	n/a
495.523	6.372	991046	prompt	n/a	indonesia compiler exact timeline\n
496.425	0.114	992850	keystroke	i	n/a
496.497	0.087	992994	keystroke	n	n/a
496.599	0.0915	993198	keystroke	d	n/a
496.734	0.0745	993468	keystroke	o	n/a
496.974	0.1045	993948	keystroke	n	n/a
497.155	0.074	994310	keystroke	e	n/a
497.454	0.09	994908	keystroke	s	n/a
497.529	0.09	995058	keystroke	i	n/a
497.6335	0.1205	995267	keystroke	a	n/a
497.784	0.1495	995568	keystroke	Key.space	n/a
498.099	0.075	996198	keystroke	c	n/a
498.1885	0.092	996377	keystroke	o	n/a
498.249	0.1795	996498	keystroke	m	n/a
498.384	0.135	996768	keystroke	p	n/a
498.5785	0.1055	997157	keystroke	i	n/a
498.759	0.09	997518	keystroke	e	n/a
499.0755	0.0585	998151	keystroke	Key.backspace	n/a
499.2985	0.0605	998597	keystroke	l	n/a
499.389	0.1045	998778	keystroke	e	n/a
499.449	0.135	998898	keystroke	r	n/a
499.614	0.0975	999228	keystroke	Key.space	n/a
499.8085	0.0755	999617	keystroke	e	n/a
500.007	0.147	1000014	keystroke	x	n/a
500.173	0.101	1000346	keystroke	a	n/a
500.3065	0.1475	1000613	keystroke	c	n/a
500.4835	0.1655	1000967	keystroke	t	n/a
500.604	0.12	1001208	keystroke	Key.space	n/a
500.859	0.1495	1001718	keystroke	t	n/a
500.934	0.105	1001868	keystroke	i	n/a
501.069	0.1345	1002138	keystroke	m	n/a
501.1445	0.0895	1002289	keystroke	e	n/a
501.294	0.165	1002588	keystroke	l	n/a
501.444	0.1345	1002888	keystroke	i	n/a
501.549	0.105	1003098	keystroke	n	n/a
501.6235	0.0905	1003247	keystroke	e	n/a
501.819	0.075	1003638	keystroke	Key.enter	n/a
501.898	4.5575	1003796	prompt	n/a	mailed firm fairly frog\n
502.734	0.0905	1005468	keystroke	m	n/a
502.8385	0.0905	1005677	keystroke	a	n/a
502.974	0.1345	1005948	keystroke	i	n/a
503.0785	0.1355	1006157	keystroke	l	n/a
503.2745	0.0895	1006549	keystroke	e	n/a
503.454	0.105	1006908	keystroke	d	n/a
503.5445	0.119	1007089	keystroke	Key.space	n/a
503.7085	0.0905	1007417	keystroke	f	n/a
503.7995	0.0895	1007599	keystroke	i	n/a
503.904	0.09	1007808	keystroke	r	n/a
504.039	0.09	1008078	keystroke	m	n/a
504.1445	0.1045	1008289	keystroke	Key.space	n/a
504.3535	0.0945	1008707	keystroke	f	n/a
504.519	0.12	1009038	keystroke	a	n/a
504.729	0.105	1009458	keystroke	i	n/a
504.9235	0.1055	1009847	keystroke	r	n/a
505.211	0.103	1010422	keystroke	l	n/a
505.4185	0.165	1010837	keystroke	y	n/a
505.569	0.075	1011138	keystroke	Key.space	n/a
505.704	0.105	1011408	keystroke	f	n/a
505.899	0.09	1011798	keystroke	r	n/a
506.019	0.153	1012038	keystroke	o	n/a
506.214	0.075	1012428	keystroke	g	n/a
506.3645	0.0895	1012729	keystroke	Key.enter	n/a
506.459	8.486	1012918	prompt	n/a	peas rwanda definitely studios\n
507.4	0.0735	1014800	keystroke	p	n/a
507.444	0.1795	1014888	keystroke	e	n/a
507.5655	0.1485	1015131	keystroke	a	n/a
507.732	0.117	1015464	keystroke	r	n/a
507.939	0.165	1015878	keystroke	s	n/a
508.089	0.1345	1016178	keystroke	Key.space	n/a
508.584	0.0605	1017168	keystroke	Key.backspace	n/a
508.749	0.0765	1017498	keystroke	Key.backspace	n/a
508.929	0.075	1017858	keystroke	Key.backspace	n/a
509.094	0.075	1018188	keystroke	Key.backspace	n/a
509.2745	0.0445	1018549	keystroke	Key.backspace	n/a
509.4385	0.06	1018877	keystroke	Key.backspace	n/a
509.604	0.0745	1019208	keystroke	Key.backspace	n/a
509.904	0.1045	1019808	keystroke	p	n/a
509.994	0.135	1019988	keystroke	e	n/a
510.0855	0.1335	1020171	keystroke	a	n/a
510.264	0.1205	1020528	keystroke	s	n/a
510.369	0.15	1020738	keystroke	Key.space	n/a
510.639	0.135	1021278	keystroke	r	n/a
510.7155	0.1035	1021431	keystroke	e	n/a
511.119	0.065	1022238	keystroke	Key.backspace	n/a
511.254	0.15	1022508	keystroke	w	n/a
511.4935	0.1055	1022987	keystroke	a	n/a
511.615	0.089	1023230	keystroke	n	n/a
511.7495	0.1195	1023499	keystroke	d	n/a
511.929	0.12	1023858	keystroke	a	n/a
512.0795	0.1195	1024159	keystroke	Key.space	n/a
512.3075	0.071	1024615	keystroke	d	n/a
512.469	0.06	1024938	keystroke	e	n/a
512.6485	0.06	1025297	keystroke	f	n/a
512.754	0.09	1025508	keystroke	i	n/a
512.934	0.12	1025868	keystroke	n	n/a
513.0085	0.1055	1026017	keystroke	i	n/a
513.189	0.1045	1026378	keystroke	t	n/a
513.2785	0.0915	1026557	keystroke	e	n/a
513.414	0.15	1026828	keystroke	l	n/a
513.5785	0.122	1027157	keystroke	y	n/a
513.7445	0.0295	1027489	keystroke	Key.space	n/a
513.834	0.1045	1027668	keystroke	s	n/a
514.014	0.075	1028028	keystroke	t	n/a
514.165	0.104	1028330	keystroke	u	n/a
514.359	0.075	1028718	keystroke	d	n/a
514.449	0.1195	1028898	keystroke	i	n/a
514.5235	0.1205	1029047	keystroke	o	n/a
514.6735	0.105	1029347	keystroke	s	n/a
514.869	0.075	1029738	keystroke	Key.enter	n/a
514.9475	6.492	1029895	prompt	n/a	cafe handbook howard herself\n
515.739	0.063	1031478	keystroke	c	n/a
515.7835	0.1205	1031567	keystroke	a	n/a
