onset	duration	sample	value	key	prompt_text
1.7705	16.684	3541	prompt	n/a	the quick brown fox jumps over a lazy dog\n
5.4315	0.073	10863	keystroke_t	t	n/a
5.5195	0.135	11039	keystroke_h	h	n/a
5.6105	0.134	11221	keystroke_e	e	n/a
5.9835	0.135	11967	keystroke_Key.space	Key.space	n/a
6.1785	0.1505	12357	keystroke_q	q	n/a
6.344	0.135	12688	keystroke_u	u	n/a
6.629	0.181	13258	keystroke_i	i	n/a
6.825	0.1195	13650	keystroke_c	c	n/a
7.0055	0.179	14011	keystroke_k	k	n/a
7.305	0.105	14610	keystroke_Key.space	Key.space	n/a
9.2855	0.15	18571	keystroke_b	b	n/a
9.5105	0.135	19021	keystroke_o	o	n/a
9.6605	0.12	19321	keystroke_r	r	n/a
9.8855	0.075	19771	keystroke_w	w	n/a
10.2155	0.09	20431	keystroke_Key.backspace	Key.backspace	n/a
10.3655	0.105	20731	keystroke_Key.backspace	Key.backspace	n/a
10.5005	0.075	21001	keystroke_Key.backspace	Key.backspace	n/a
10.906	0.12	21812	keystroke_r	r	n/a
11.116	0.18	22232	keystroke_o	o	n/a
11.236	0.135	22472	keystroke_w	w	n/a
11.416	0.135	22832	keystroke_n	n	n/a
11.626	0.1195	23252	keystroke_Key.space	Key.space	n/a
11.895	0.1055	23790	keystroke_f	f	n/a
12.0305	0.12	24061	keystroke_o	o	n/a
12.3005	0.165	24601	keystroke_x	x	n/a
12.6455	0.12	25291	keystroke_Key.space	Key.space	n/a
13.021	0.12	26042	keystroke_j	j	n/a
13.231	0.1195	26462	keystroke_u	u	n/a
13.531	0.1345	27062	keystroke_m	m	n/a
13.801	0.119	27602	keystroke_p	p	n/a
14.01	0.091	28020	keystroke_s	s	n/a
14.161	0.1045	28322	keystroke_Key.space	Key.space	n/a
14.4155	0.12	28831	keystroke_o	o	n/a
14.5205	0.12	29041	keystroke_v	v	n/a
14.7305	0.105	29461	keystroke_e	e	n/a
14.866	0.0895	29732	keystroke_r	r	n/a
14.986	0.0895	29972	keystroke_Key.space	Key.space	n/a
15.2405	0.1055	30481	keystroke_a	a	n/a
15.361	0.09	30722	keystroke_Key.space	Key.space	n/a
15.5705	0.1355	31141	keystroke_l	l	n/a
15.6605	0.1355	31321	keystroke_a	a	n/a
16.066	0.135	32132	keystroke_z	z	n/a
17.146	0.12	34292	keystroke_y	y	n/a
17.401	0.105	34802	keystroke_Key.space	Key.space	n/a
17.626	0.105	35252	keystroke_d	d	n/a
17.821	0.09	35642	keystroke_o	o	n/a
17.941	0.105	35882	keystroke_g	g	n/a
18.3165	0.135	36633	keystroke_Key.enter	Key.enter	n/a
18.4595	10.1635	36919	prompt	n/a	chuck normal motivated variance\n
19.156	0.06	38312	keystroke_c	c	n/a
19.351	0.0755	38702	keystroke_h	h	n/a
19.591	0.12	39182	keystroke_u	u	n/a
19.741	0.12	39482	keystroke_c	c	n/a
19.9965	0.18	39993	keystroke_k	k	n/a
20.2365	0.12	40473	keystroke_Key.space	Key.space	n/a
20.6865	0.12	41373	keystroke_n	n	n/a
20.8815	0.12	41763	keystroke_o	o	n/a
21.3165	0.105	42633	keystroke_r	r	n/a
21.5115	0.165	43023	keystroke_m	m	n/a
21.6765	0.135	43353	keystroke_a	a	n/a
22.6805	0.136	45361	keystroke_l	l	n/a
22.9205	0.09	45841	keystroke_Key.space	Key.space	n/a
23.2055	0.09	46411	keystroke_m	m	n/a
23.3715	0.119	46743	keystroke_o	o	n/a
23.5955	0.106	47191	keystroke_t	t	n/a
23.7455	0.106	47491	keystroke_i	i	n/a
23.9715	0.104	47943	keystroke_v	v	n/a
24.1805	0.135	48361	keystroke_a	a	n/a
24.4055	0.106	48811	keystroke_t	t	n/a
24.5705	0.136	49141	keystroke_e	e	n/a
24.826	0.105	49652	keystroke_d	d	n/a
25.201	0.165	50402	keystroke_Key.space	Key.space	n/a
25.426	0.1345	50852	keystroke_v	v	n/a
26.866	0.135	53732	keystroke_a	a	n/a
27.1665	0.09	54333	keystroke_r	r	n/a
27.4665	0.105	54933	keystroke_a	a	n/a
27.8265	0.075	55653	keystroke_n	n	n/a
28.0515	0.075	56103	keystroke_c	c	n/a
28.2765	0.06	56553	keystroke_e	e	n/a
28.5165	0.104	57033	keystroke_Key.enter	Key.enter	n/a
28.6275	11.6805	57255	prompt	n/a	midlands buddy formed american\n
29.6865	0.105	59373	keystroke_m	m	n/a
29.9115	0.12	59823	keystroke_i	i	n/a
30.1815	0.105	60363	keystroke_d	d	n/a
30.7965	0.12	61593	keystroke_l	l	n/a
30.9615	0.105	61923	keystroke_a	a	n/a
31.2165	0.09	62433	keystroke_n	n	n/a
31.4265	0.0895	62853	keystroke_d	d	n/a
32.0415	0.075	64083	keystroke_s	s	n/a
32.2215	0.0895	64443	keystroke_Key.space	Key.space	n/a
32.476	0.105	64952	keystroke_b	b	n/a
32.671	0.105	65342	keystroke_u	u	n/a
32.791	0.075	65582	keystroke_d	d	n/a
32.956	0.075	65912	keystroke_d	d	n/a
33.181	0.15	66362	keystroke_y	y	n/a
33.331	0.135	66662	keystroke_Key.space	Key.space	n/a
33.526	0.135	67052	keystroke_f	f	n/a
33.646	0.15	67292	keystroke_o	o	n/a
33.841	0.09	67682	keystroke_r	r	n/a
33.976	0.12	67952	keystroke_m	m	n/a
34.111	0.0905	68222	keystroke_e	e	n/a
34.3505	0.105	68701	keystroke_d	d	n/a
34.4705	0.105	68941	keystroke_Key.space	Key.space	n/a
34.6665	0.074	69333	keystroke_a	a	n/a
34.7565	0.134	69513	keystroke_m	m	n/a
34.9365	0.104	69873	keystroke_e	e	n/a
35.1315	0.075	70263	keystroke_r	r	n/a
35.4455	0.075	70891	keystroke_c	c	n/a
35.5505	0.076	71101	keystroke_i	i	n/a
35.8665	0.104	71733	keystroke_a	a	n/a
36.0165	0.1045	72033	keystroke_n	n	n/a
36.9465	0.045	73893	keystroke_Key.backspace	Key.backspace	n/a
37.0815	0.06	74163	keystroke_Key.backspace	Key.backspace	n/a
38.0865	0.0595	76173	keystroke_Key.backspace	Key.backspace	n/a
38.641	0.075	77282	keystroke_Key.backspace	Key.backspace	n/a
39.1965	0.06	78393	keystroke_i	i	n/a
39.4215	0.075	78843	keystroke_c	c	n/a
39.5715	0.12	79143	keystroke_a	a	n/a
39.7365	0.12	79473	keystroke_n	n	n/a
40.1865	0.12	80373	keystroke_Key.enter	Key.enter	n/a
40.312	20.8465	80624	prompt	n/a	shuttle fitted oval widely\n
40.951	0.135	81902	keystroke_s	s	n/a
41.161	0.12	82322	keystroke_h	h	n/a
41.401	0.105	82802	keystroke_u	u	n/a
41.8965	0.06	83793	keystroke_t	t	n/a
42.0765	0.075	84153	keystroke_t	t	n/a
42.1815	0.135	84363	keystroke_l	l	n/a
42.3015	0.105	84603	keystroke_e	e	n/a
42.4815	0.12	84963	keystroke_Key.space	Key.space	n/a
43.0365	0.15	86073	keystroke_f	f	n/a
43.2465	0.105	86493	keystroke_i	i	n/a
43.5165	0.045	87033	keystroke_t	t	n/a
43.6665	0.075	87333	keystroke_t	t	n/a
45.3165	0.075	90633	keystroke_e	e	n/a
45.5565	0.105	91113	keystroke_d	d	n/a
45.8115	0.1195	91623	keystroke_Key.space	Key.space	n/a
46.021	0.135	92042	keystroke_o	o	n/a
46.171	0.015	92342	keystroke_c	c	n/a
46.351	0.09	92702	keystroke_a	a	n/a
46.471	0.15	92942	keystroke_l	l	n/a
46.696	0.105	93392	keystroke_Key.space	Key.space	n/a
47.0865	0.12	94173	keystroke_w	w	n/a
47.7315	0.09	95463	keystroke_Key.backspace	Key.backspace	n/a
47.9115	0.045	95823	keystroke_Key.backspace	Key.backspace	n/a
48.0465	0.03	96093	keystroke_Key.backspace	Key.backspace	n/a
53.044	0.042	106088	keystroke_v	v	n/a
54.032	0.06	108064	keystroke_Key.backspace	Key.backspace	n/a
55.292	0.105	110584	keystroke_v	v	n/a
55.517	0.12	111034	keystroke_Key.space	Key.space	n/a
56.1615	0.135	112323	keystroke_w	w	n/a
56.5815	0.12	113163	keystroke_Key.backspace	Key.backspace	n/a
56.8365	0.15	113673	keystroke_Key.backspace	Key.backspace	n/a
57.3765	0.12	114753	keystroke_Key.backspace	Key.backspace	n/a
57.5715	0.075	115143	keystroke_Key.backspace	Key.backspace	n/a
57.7215	0.06	115443	keystroke_Key.backspace	Key.backspace	n/a
58.4865	0.09	116973	keystroke_v	v	n/a
58.6515	0.135	117303	keystroke_a	a	n/a
58.8015	0.135	117603	keystroke_l	l	n/a
59.0265	0.105	118053	keystroke_Key.space	Key.space	n/a
59.312	0.119	118624	keystroke_w	w	n/a
59.447	0.105	118894	keystroke_i	i	n/a
59.642	0.104	119284	keystroke_d	d	n/a
59.972	0.104	119944	keystroke_e	e	n/a
60.077	0.149	120154	keystroke_l	l	n/a
60.376	0.166	120752	keystroke_y	y	n/a
60.526	0.1655	121052	keystroke_Key.space	Key.space	n/a
61.037	0.119	122074	keystroke_Key.enter	Key.enter	n/a
61.163	9.6555	122326	prompt	n/a	breath mint cultural earthquake\n
61.8915	0.12	123783	keystroke_b	b	n/a
62.206	0.18	124412	keystroke_r	r	n/a
62.417	0.135	124834	keystroke_e	e	n/a
62.672	0.12	125344	keystroke_a	a	n/a
63.4365	0.06	126873	keystroke_t	t	n/a
63.6015	0.15	127203	keystroke_h	h	n/a
63.7365	0.135	127473	keystroke_Key.space	Key.space	n/a
64.0815	0.15	128163	keystroke_m	m	n/a
64.306	0.166	128612	keystroke_i	i	n/a
64.516	0.15	129032	keystroke_n	n	n/a
64.711	0.12	129422	keystroke_t	t	n/a
64.876	0.09	129752	keystroke_Key.space	Key.space	n/a
65.131	0.15	130262	keystroke_c	c	n/a
65.356	0.136	130712	keystroke_u	u	n/a
65.8365	0.12	131673	keystroke_l	l	n/a
66.0765	0.12	132153	keystroke_t	t	n/a
66.3015	0.105	132603	keystroke_u	u	n/a
66.3765	0.12	132753	keystroke_r	r	n/a
66.7215	0.12	133443	keystroke_a	a	n/a
66.871	0.1505	133742	keystroke_l	l	n/a
67.096	0.0755	134192	keystroke_Key.space	Key.space	n/a
67.276	0.12	134552	keystroke_e	e	n/a
67.486	0.135	134972	keystroke_a	a	n/a
67.7115	0.075	135423	keystroke_r	r	n/a
68.747	0.089	137494	keystroke_t	t	n/a
68.882	0.135	137764	keystroke_h	h	n/a
69.3765	0.135	138753	keystroke_q	q	n/a
69.6015	0.12	139203	keystroke_u	u	n/a
69.9015	0.135	139803	keystroke_a	a	n/a
70.0365	0.165	140073	keystroke_k	k	n/a
70.2315	0.12	140463	keystroke_e	e	n/a
70.6515	0.1645	141303	keystroke_Key.enter	Key.enter	n/a
70.823	13.2705	141646	prompt	n/a	browsers newfoundland grande they're\n
71.5215	0.105	143043	keystroke_b	b	n/a
71.776	0.1505	143552	keystroke_r	r	n/a
71.9565	0.2105	143913	keystroke_o	o	n/a
72.122	0.135	144244	keystroke_w	w	n/a
72.527	0.12	145054	keystroke_s	s	n/a
72.752	0.195	145504	keystroke_e	e	n/a
72.947	0.09	145894	keystroke_r	r	n/a
73.202	0.12	146404	keystroke_s	s	n/a
73.307	0.12	146614	keystroke_Key.space	Key.space	n/a
73.517	0.165	147034	keystroke_n	n	n/a
73.637	0.12	147274	keystroke_e	e	n/a
73.877	0.12	147754	keystroke_w	w	n/a
74.237	0.1195	148474	keystroke_f	f	n/a
74.4015	0.1505	148803	keystroke_o	o	n/a
74.612	0.105	149224	keystroke_u	u	n/a
74.852	0.12	149704	keystroke_n	n	n/a
74.972	0.135	149944	keystroke_d	d	n/a
75.5115	0.105	151023	keystroke_l	l	n/a
75.6615	0.135	151323	keystroke_a	a	n/a
75.8415	0.1195	151683	keystroke_n	n	n/a
75.976	0.12	151952	keystroke_d	d	n/a
76.201	0.06	152402	keystroke_Key.space	Key.space	n/a
76.6815	0.12	153363	keystroke_g	g	n/a
76.9365	0.09	153873	keystroke_r	r	n/a
77.1765	0.12	154353	keystroke_a	a	n/a
77.2665	0.135	154533	keystroke_n	n	n/a
77.4465	0.09	154893	keystroke_d	d	n/a
78.0765	0.075	156153	keystroke_e	e	n/a
78.2265	0.075	156453	keystroke_Key.space	Key.space	n/a
78.571	0.0905	157142	keystroke_t	t	n/a
78.6765	0.135	157353	keystroke_h	h	n/a
78.7815	0.1195	157563	keystroke_e	e	n/a
79.141	0.12	158282	keystroke_y	y	n/a
80.536	0.135	161072	keystroke_'	'	n/a
80.881	0.12	161762	keystroke_r	r	n/a
81.061	0.09	162122	keystroke_e	e	n/a
84.0635	0.028	168127	keystroke_Key.enter	Key.enter	n/a
84.098	15.1155	168196	prompt	n/a	scroll naturals colored deeply\n
84.887	0.105	169774	keystroke_s	s	n/a
85.112	0.135	170224	keystroke_c	c	n/a
85.412	0.0895	170824	keystroke_r	r	n/a
85.5915	0.06	171183	keystroke_o	o	n/a
85.8465	0.045	171693	keystroke_l	l	n/a
85.9665	0.075	171933	keystroke_l	l	n/a
86.686	0.09	173372	keystroke_Key.space	Key.space	n/a
86.9415	0.12	173883	keystroke_n	n	n/a
87.2565	0.12	174513	keystroke_t	t	n/a
87.5865	0.12	175173	keystroke_a	a	n/a
87.8565	0.135	175713	keystroke_r	r	n/a
88.831	0.016	177662	keystroke_Key.backspace	Key.backspace	n/a
88.861	0.046	177722	keystroke_Key.backspace	Key.backspace	n/a
88.967	0.09	177934	keystroke_Key.backspace	Key.backspace	n/a
89.252	0.1795	178504	keystroke_a	a	n/a
89.5665	0.12	179133	keystroke_u	u	n/a
89.7465	0.12	179493	keystroke_t	t	n/a
90.7215	0.075	181443	keystroke_Key.backspace	Key.backspace	n/a
90.8865	0.0745	181773	keystroke_Key.backspace	Key.backspace	n/a
91.442	0.135	182884	keystroke_t	t	n/a
91.682	0.164	183364	keystroke_u	u	n/a
92.611	0.075	185222	keystroke_r	r	n/a
92.8365	0.12	185673	keystroke_a	a	n/a
92.9715	0.15	185943	keystroke_l	l	n/a
93.5715	0.15	187143	keystroke_s	s	n/a
93.7815	0.09	187563	keystroke_Key.space	Key.space	n/a
94.0965	0.12	188193	keystroke_c	c	n/a
94.1565	0.12	188313	keystroke_o	o	n/a
94.4115	0.15	188823	keystroke_l	l	n/a
94.6215	0.195	189243	keystroke_e	e	n/a
95.626	0.135	191252	keystroke_Key.backspace	Key.backspace	n/a
95.971	0.165	191942	keystroke_o	o	n/a
96.121	0.1355	192242	keystroke_r	r	n/a
96.361	0.106	192722	keystroke_e	e	n/a
96.617	0.1195	193234	keystroke_d	d	n/a
96.797	0.1045	193594	keystroke_Key.space	Key.space	n/a
97.367	0.1045	194734	keystroke_d	d	n/a
97.6365	0.0755	195273	keystroke_e	e	n/a
97.787	0.12	195574	keystroke_e	e	n/a
97.997	0.165	195994	keystroke_p	p	n/a
98.327	0.15	196654	keystroke_l	l	n/a
98.702	0.15	197404	keystroke_y	y	n/a
99.092	0.12	198184	keystroke_Key.enter	Key.enter	n/a
99.219	18.729	198438	prompt	n/a	science expense striking glance\n
99.887	0.165	199774	keystroke_s	s	n/a
100.292	0.09	200584	keystroke_c	c	n/a
100.367	0.1045	200734	keystroke_i	i	n/a
100.6065	0.105	201213	keystroke_e	e	n/a
100.8315	0.12	201663	keystroke_n	n	n/a
100.9965	0.105	201993	keystroke_c	c	n/a
101.2515	0.09	202503	keystroke_e	e	n/a
101.7315	0.135	203463	keystroke_e	e	n/a
102.1365	0.135	204273	keystroke_x	x	n/a
102.3165	0.18	204633	keystroke_p	p	n/a
102.5265	0.135	205053	keystroke_e	e	n/a
102.7215	0.1495	205443	keystroke_n	n	n/a
102.901	0.135	205802	keystroke_s	s	n/a
103.5315	0.075	207063	keystroke_Key.backspace	Key.backspace	n/a
103.6965	0.06	207393	keystroke_Key.backspace	Key.backspace	n/a
103.8615	0.045	207723	keystroke_Key.backspace	Key.backspace	n/a
104.0115	0.06	208023	keystroke_Key.backspace	Key.backspace	n/a
104.3715	0.105	208743	keystroke_Key.backspace	Key.backspace	n/a
104.5965	0.12	209193	keystroke_Key.backspace	Key.backspace	n/a
105.001	0.091	210002	keystroke_v	v	n/a
105.556	0.076	211112	keystroke_Key.backspace	Key.backspace	n/a
106.336	0.105	212672	keystroke_Key.space	Key.space	n/a
111.649	0.028	223298	keystroke_e	e	n/a
111.902	0.165	223804	keystroke_x	x	n/a
112.082	0.15	224164	keystroke_p	p	n/a
112.262	0.12	224524	keystroke_e	e	n/a
112.412	0.15	224824	keystroke_n	n	n/a
112.547	0.135	225094	keystroke_s	s	n/a
112.772	0.12	225544	keystroke_e	e	n/a
112.922	0.105	225844	keystroke_Key.space	Key.space	n/a
113.101	0.136	226202	keystroke_s	s	n/a
113.357	0.12	226714	keystroke_t	t	n/a
113.567	0.119	227134	keystroke_r	r	n/a
113.702	0.15	227404	keystroke_i	i	n/a
114.062	0.1795	228124	keystroke_k	k	n/a
114.3765	0.15	228753	keystroke_i	i	n/a
114.5115	0.195	229023	keystroke_n	n	n/a
114.6915	0.1345	229383	keystroke_g	g	n/a
114.826	0.1055	229652	keystroke_Key.space	Key.space	n/a
115.1415	0.135	230283	keystroke_g	g	n/a
115.3665	0.165	230733	keystroke_l	l	n/a
115.772	0.1045	231544	keystroke_n	n	n/a
116.4765	0.075	232953	keystroke_Key.backspace	Key.backspace	n/a
116.8065	0.1955	233613	keystroke_a	a	n/a
117.062	0.12	234124	keystroke_n	n	n/a
117.256	0.106	234512	keystroke_c	c	n/a
117.557	0.09	235114	keystroke_e	e	n/a
117.811	0.136	235622	keystroke_Key.enter	Key.enter	n/a
117.9515	6.657	235903	prompt	n/a	history away assuming nails\n
118.592	0.105	237184	keystroke_h	h	n/a
118.757	0.15	237514	keystroke_i	i	n/a
118.862	0.135	237724	keystroke_s	s	n/a
119.117	0.12	238234	keystroke_t	t	n/a
119.237	0.18	238474	keystroke_o	o	n/a
119.3715	0.18	238743	keystroke_r	r	n/a
119.6115	0.12	239223	keystroke_y	y	n/a
119.8065	0.09	239613	keystroke_Key.space	Key.space	n/a
119.9265	0.12	239853	keystroke_a	a	n/a
120.2415	0.12	240483	keystroke_w	w	n/a
120.4665	0.165	240933	keystroke_a	a	n/a
120.6765	0.15	241353	keystroke_y	y	n/a
120.8415	0.15	241683	keystroke_Key.space	Key.space	n/a
121.0065	0.105	242013	keystroke_a	a	n/a
121.2465	0.075	242493	keystroke_s	s	n/a
121.4115	0.105	242823	keystroke_s	s	n/a
121.5615	0.135	243123	keystroke_u	u	n/a
121.8465	0.21	243693	keystroke_m	m	n/a
122.1165	0.2105	244233	keystroke_i	i	n/a
122.386	0.166	244772	keystroke_n	n	n/a
122.566	0.135	245132	keystroke_g	g	n/a
122.821	0.1055	245642	keystroke_Key.space	Key.space	n/a
123.1815	0.18	246363	keystroke_n	n	n/a
123.3165	0.195	246633	keystroke_a	a	n/a
123.4815	0.15	246963	keystroke_i	i	n/a
123.7365	0.18	247473	keystroke_l	l	n/a
123.9015	0.135	247803	keystroke_s	s	n/a
124.0815	0.12	248163	keystroke_Key.space	Key.space	n/a
124.4565	0.15	248913	keystroke_Key.enter	Key.enter	n/a
124.611	8.8775	249222	prompt	n/a	beatles concerned suggest wire\n
125.7015	0.135	251403	keystroke_b	b	n/a
126.0015	0.135	252003	keystroke_e	e	n/a
126.2865	0.135	252573	keystroke_a	a	n/a
126.5565	0.105	253113	keystroke_t	t	n/a
126.7065	0.135	253413	keystroke_l	l	n/a
126.9165	0.165	253833	keystroke_e	e	n/a
127.2165	0.12	254433	keystroke_s	s	n/a
127.3815	0.12	254763	keystroke_Key.space	Key.space	n/a
127.5765	0.135	255153	keystroke_c	c	n/a
127.6815	0.135	255363	keystroke_o	o	n/a
127.7865	0.165	255573	keystroke_n	n	n/a
128.2815	0.135	256563	keystroke_e	e	n/a
128.5665	0.105	257133	keystroke_r	r	n/a
129.107	0.03	258214	keystroke_Key.backspace	Key.backspace	n/a
129.242	0.075	258484	keystroke_Key.backspace	Key.backspace	n/a
129.6015	0.1055	259203	keystroke_c	c	n/a
129.887	0.15	259774	keystroke_e	e	n/a
130.067	0.105	260134	keystroke_r	r	n/a
130.307	0.09	260614	keystroke_n	n	n/a
130.412	0.09	260824	keystroke_e	e	n/a
130.652	0.105	261304	keystroke_d	d	n/a
130.771	0.121	261542	keystroke_Key.space	Key.space	n/a
130.982	0.105	261964	keystroke_s	s	n/a
131.117	0.135	262234	keystroke_u	u	n/a
131.282	0.135	262564	keystroke_g	g	n/a
131.507	0.09	263014	keystroke_g	g	n/a
131.746	0.1205	263492	keystroke_e	e	n/a
132.0615	0.09	264123	keystroke_s	s	n/a
132.2865	0.09	264573	keystroke_t	t	n/a
132.4365	0.1345	264873	keystroke_Key.space	Key.space	n/a
132.586	0.121	265172	keystroke_w	w	n/a
132.721	0.1655	265442	keystroke_i	i	n/a
132.8565	0.1345	265713	keystroke_r	r	n/a
133.051	0.136	266102	keystroke_e	e	n/a
133.337	0.15	266674	keystroke_Key.enter	Key.enter	n/a
133.4915	18.867	266983	prompt	n/a	christianity males needs government\n
134.657	0.09	269314	keystroke_c	c	n/a
135.0465	0.09	270093	keystroke_r	r	n/a
135.5865	0.105	271173	keystroke_Key.backspace	Key.backspace	n/a
135.8865	0.1345	271773	keystroke_h	h	n/a
136.067	0.12	272134	keystroke_r	r	n/a
136.187	0.1345	272374	keystroke_i	i	n/a
136.4115	0.15	272823	keystroke_s	s	n/a
136.7265	0.075	273453	keystroke_t	t	n/a
137.101	0.106	274202	keystroke_a	a	n/a
137.836	0.12	275672	keystroke_Key.backspace	Key.backspace	n/a
138.152	0.119	276304	keystroke_i	i	n/a
138.406	0.09	276812	keystroke_n	n	n/a
138.8865	0.12	277773	keystroke_Key.backspace	Key.backspace	n/a
139.0365	0.135	278073	keystroke_a	a	n/a
139.2015	0.15	278403	keystroke_n	n	n/a
139.487	0.12	278974	keystroke_i	i	n/a
139.652	0.12	279304	keystroke_t	t	n/a
139.847	0.165	279694	keystroke_y	y	n/a
141.0915	0.105	282183	keystroke_Key.space	Key.space	n/a
146.539	0.058	293078	keystroke_m	m	n/a
146.642	0.12	293284	keystroke_a	a	n/a
146.837	0.03	293674	keystroke_k	k	n/a
146.852	0.3	293704	keystroke_l	l	n/a
147.482	0.06	294964	keystroke_Key.backspace	Key.backspace	n/a
147.602	0.06	295204	keystroke_Key.backspace	Key.backspace	n/a
147.902	0.165	295804	keystroke_l	l	n/a
148.082	0.105	296164	keystroke_e	e	n/a
148.3365	0.135	296673	keystroke_s	s	n/a
148.4415	0.12	296883	keystroke_Key.space	Key.space	n/a
148.6965	0.1205	297393	keystroke_n	n	n/a
148.8015	0.1205	297603	keystroke_e	e	n/a
149.012	0.09	298024	keystroke_e	e	n/a
149.357	0.15	298714	keystroke_d	d	n/a
149.687	0.09	299374	keystroke_s	s	n/a
149.837	0.12	299674	keystroke_Key.space	Key.space	n/a
150.182	0.105	300364	keystroke_g	g	n/a
150.392	0.15	300784	keystroke_o	o	n/a
150.467	0.12	300934	keystroke_v	v	n/a
150.662	0.18	301324	keystroke_e	e	n/a
150.857	0.12	301714	keystroke_r	r	n/a
150.992	0.15	301984	keystroke_n	n	n/a
151.472	0.135	302944	keystroke_m	m	n/a
151.622	0.1495	303244	keystroke_e	e	n/a
151.757	0.1495	303514	keystroke_n	n	n/a
151.921	0.106	303842	keystroke_t	t	n/a
152.2215	0.135	304443	keystroke_Key.enter	Key.enter	n/a
152.362	16.6315	304724	prompt	n/a	symphony mesa cabinets materials\n
153.151	0.166	306302	keystroke_s	s	n/a
153.422	0.135	306844	keystroke_y	y	n/a
153.857	0.195	307714	keystroke_p	p	n/a
154.097	0.135	308194	keystroke_h	h	n/a
154.262	0.225	308524	keystroke_o	o	n/a
154.427	0.15	308854	keystroke_n	n	n/a
154.817	0.12	309634	keystroke_y	y	n/a
154.9965	0.135	309993	keystroke_Key.space	Key.space	n/a
155.2815	0.15	310563	keystroke_m	m	n/a
155.4465	0.09	310893	keystroke_e	e	n/a
155.6565	0.105	311313	keystroke_s	s	n/a
157.0365	0.09	314073	keystroke_Key.backspace	Key.backspace	n/a
157.2315	0.0905	314463	keystroke_Key.backspace	Key.backspace	n/a
157.367	0.255	314734	keystroke_Key.backspace	Key.backspace	n/a
157.712	0.045	315424	keystroke_Key.backspace	Key.backspace	n/a
158.102	0.15	316204	keystroke_Key.backspace	Key.backspace	n/a
159.166	0.105	318332	keystroke_Key.backspace	Key.backspace	n/a
159.4065	0.18	318813	keystroke_Key.backspace	Key.backspace	n/a
160.5165	0.135	321033	keystroke_Key.backspace	Key.backspace	n/a
160.802	0.12	321604	keystroke_Key.backspace	Key.backspace	n/a
161.462	0.1645	322924	keystroke_m	m	n/a
162.1215	0.225	324243	keystroke_p	p	n/a
162.3165	0.15	324633	keystroke_h	h	n/a
162.4965	0.195	324993	keystroke_o	o	n/a
162.6165	0.165	325233	keystroke_n	n	n/a
163.0365	0.18	326073	keystroke_y	y	n/a
163.2315	0.135	326463	keystroke_Key.space	Key.space	n/a
163.457	0.195	326914	keystroke_m	m	n/a
163.667	0.12	327334	keystroke_e	e	n/a
163.937	0.105	327874	keystroke_s	s	n/a
164.1465	0.165	328293	keystroke_a	a	n/a
164.3265	0.12	328653	keystroke_Key.space	Key.space	n/a
164.8665	0.12	329733	keystroke_c	c	n/a
165.1215	0.09	330243	keystroke_a	a	n/a
165.4515	0.12	330903	keystroke_b	b	n/a
165.6165	0.135	331233	keystroke_i	i	n/a
165.7665	0.165	331533	keystroke_n	n	n/a
165.9465	0.15	331893	keystroke_e	e	n/a
166.1865	0.105	332373	keystroke_t	t	n/a
166.4865	0.15	332973	keystroke_s	s	n/a
166.6515	0.12	333303	keystroke_Key.space	Key.space	n/a
166.8915	0.135	333783	keystroke_m	m	n/a
167.0115	0.135	334023	keystroke_a	a	n/a
167.281	0.135	334562	keystroke_t	t	n/a
167.476	0.165	334952	keystroke_e	e	n/a
167.656	0.12	335312	keystroke_r	r	n/a
167.897	0.135	335794	keystroke_i	i	n/a
168.107	0.135	336214	keystroke_a	a	n/a
168.212	0.164	336424	keystroke_l	l	n/a
168.451	0.12	336902	keystroke_s	s	n/a
168.872	0.12	337744	keystroke_Key.enter	Key.enter	n/a
168.997	9.026	337994	prompt	n/a	trading allowing joseph removing\n
169.7265	0.105	339453	keystroke_t	t	n/a
169.9065	0.1195	339813	keystroke_r	r	n/a
170.207	0.119	340414	keystroke_a	a	n/a
170.401	0.135	340802	keystroke_d	d	n/a
170.537	0.18	341074	keystroke_i	i	n/a
170.702	0.1645	341404	keystroke_n	n	n/a
170.8515	0.105	341703	keystroke_g	g	n/a
170.9415	0.105	341883	keystroke_Key.space	Key.space	n/a
171.1515	0.165	342303	keystroke_a	a	n/a
171.3015	0.075	342603	keystroke_l	l	n/a
171.4515	0.09	342903	keystroke_l	l	n/a
171.6915	0.075	343383	keystroke_i	i	n/a
171.7965	0.225	343593	keystroke_o	o	n/a
172.3365	0.12	344673	keystroke_Key.backspace	Key.backspace	n/a
172.5315	0.09	345063	keystroke_Key.backspace	Key.backspace	n/a
172.8765	0.195	345753	keystroke_o	o	n/a
173.0415	0.1645	346083	keystroke_w	w	n/a
173.161	0.165	346322	keystroke_i	i	n/a
173.341	0.18	346682	keystroke_n	n	n/a
173.491	0.165	346982	keystroke_g	g	n/a
173.611	0.15	347222	keystroke_Key.space	Key.space	n/a
173.881	0.15	347762	keystroke_j	j	n/a
174.376	0.1655	348752	keystroke_o	o	n/a
174.526	0.1355	349052	keystroke_s	s	n/a
174.7815	0.135	349563	keystroke_e	e	n/a
175.0965	0.21	350193	keystroke_p	p	n/a
175.3365	0.15	350673	keystroke_h	h	n/a
175.5765	0.15	351153	keystroke_Key.space	Key.space	n/a
175.7865	0.15	351573	keystroke_r	r	n/a
176.252	0.18	352504	keystroke_e	e	n/a
176.417	0.18	352834	keystroke_m	m	n/a
176.627	0.15	353254	keystroke_o	o	n/a
176.762	0.1345	353524	keystroke_v	v	n/a
176.9115	0.12	353823	keystroke_i	i	n/a
177.0615	0.18	354123	keystroke_n	n	n/a
177.2115	0.12	354423	keystroke_g	g	n/a
177.3765	0.135	354753	keystroke_Key.space	Key.space	n/a
177.8865	0.135	355773	keystroke_Key.enter	Key.enter	n/a
178.0265	9.0415	356053	prompt	n/a	humanity samuel influences raise\n
178.651	0.121	357302	keystroke_h	h	n/a
178.877	0.105	357754	keystroke_u	u	n/a
179.132	0.135	358264	keystroke_m	m	n/a
179.281	0.12	358562	keystroke_a	a	n/a
179.417	0.12	358834	keystroke_n	n	n/a
180.5265	0.135	361053	keystroke_i	i	n/a
180.6625	0.149	361325	keystroke_t	t	n/a
180.8415	0.12	361683	keystroke_y	y	n/a
180.9915	0.18	361983	keystroke_Key.space	Key.space	n/a
181.3365	0.105	362673	keystroke_s	s	n/a
181.5465	0.165	363093	keystroke_a	a	n/a
181.6965	0.1505	363393	keystroke_m	m	n/a
181.937	0.165	363874	keystroke_u	u	n/a
182.132	0.135	364264	keystroke_e	e	n/a
182.297	0.18	364594	keystroke_l	l	n/a
182.522	0.12	365044	keystroke_Key.space	Key.space	n/a
182.717	0.18	365434	keystroke_i	i	n/a
182.882	0.15	365764	keystroke_n	n	n/a
183.047	0.135	366094	keystroke_f	f	n/a
183.977	0.165	367954	keystroke_l	l	n/a
184.277	0.105	368554	keystroke_u	u	n/a
184.607	0.12	369214	keystroke_e	e	n/a
184.9065	0.12	369813	keystroke_c	c	n/a
185.1765	0.105	370353	keystroke_e	e	n/a
185.4765	0.06	370953	keystroke_s	s	n/a
185.6265	0.12	371253	keystroke_Key.space	Key.space	n/a
185.852	0.09	371704	keystroke_r	r	n/a
186.077	0.135	372154	keystroke_a	a	n/a
186.3465	0.09	372693	keystroke_i	i	n/a
186.4215	0.1205	372843	keystroke_s	s	n/a
186.6615	0.09	373323	keystroke_e	e	n/a
186.946	0.12	373892	keystroke_Key.enter	Key.enter	n/a
187.071	9.5375	374142	prompt	n/a	prizes shake plumbing affect\n
187.8765	0.21	375753	keystroke_p	p	n/a
188.0415	0.12	376083	keystroke_r	r	n/a
188.2065	0.135	376413	keystroke_i	i	n/a
188.5515	0.135	377103	keystroke_z	z	n/a
188.8815	0.09	377763	keystroke_e	e	n/a
189.1815	0.1205	378363	keystroke_s	s	n/a
190.007	0.165	380014	keystroke_Key.space	Key.space	n/a
190.277	0.135	380554	keystroke_s	s	n/a
190.4265	0.135	380853	keystroke_h	h	n/a
190.5765	0.1355	381153	keystroke_a	a	n/a
190.7415	0.1795	381483	keystroke_k	k	n/a
190.907	0.105	381814	keystroke_e	e	n/a
191.072	0.089	382144	keystroke_Key.space	Key.space	n/a
191.372	0.1945	382744	keystroke_p	p	n/a
193.3365	0.15	386673	keystroke_l	l	n/a
193.6665	0.105	387333	keystroke_u	u	n/a
193.9365	0.18	387873	keystroke_m	m	n/a
194.2815	0.165	388563	keystroke_b	b	n/a
194.4015	0.165	388803	keystroke_i	i	n/a
194.5815	0.1805	389163	keystroke_n	n	n/a
194.777	0.1045	389554	keystroke_g	g	n/a
194.8665	0.12	389733	keystroke_Key.space	Key.space	n/a
195.092	0.12	390184	keystroke_a	a	n/a
195.3165	0.0605	390633	keystroke_f	f	n/a
195.482	0.1045	390964	keystroke_f	f	n/a
195.707	0.1045	391414	keystroke_e	e	n/a
195.977	0.165	391954	keystroke_c	c	n/a
196.262	0.09	392524	keystroke_t	t	n/a
196.457	0.15	392914	keystroke_Key.enter	Key.enter	n/a
196.614	9.609	393228	prompt	n/a	dollar police peru seasonal\n
197.2215	0.12	394443	keystroke_d	d	n/a
197.4315	0.09	394863	keystroke_o	o	n/a
197.6565	0.12	395313	keystroke_l	l	n/a
197.8365	0.075	395673	keystroke_l	l	n/a
199.742	0.135	399484	keystroke_a	a	n/a
200.072	0.105	400144	keystroke_r	r	n/a
201.122	0.12	402244	keystroke_Key.space	Key.space	n/a
201.4365	0.15	402873	keystroke_p	p	n/a
201.7665	0.105	403533	keystroke_o	o	n/a
202.0665	0.135	404133	keystroke_l	l	n/a
202.2615	0.12	404523	keystroke_i	i	n/a
202.3515	0.135	404703	keystroke_c	c	n/a
202.6215	0.1055	405243	keystroke_e	e	n/a
202.697	0.1495	405394	keystroke_Key.space	Key.space	n/a
202.9965	0.21	405993	keystroke_p	p	n/a
203.1465	0.165	406293	keystroke_e	e	n/a
203.3415	0.135	406683	keystroke_r	r	n/a
203.5815	0.12	407163	keystroke_u	u	n/a
203.7615	0.15	407523	keystroke_Key.space	Key.space	n/a
203.9415	0.12	407883	keystroke_s	s	n/a
204.2115	0.09	408423	keystroke_e	e	n/a
204.4365	0.12	408873	keystroke_a	a	n/a
204.6615	0.135	409323	keystroke_s	s	n/a
204.8115	0.165	409623	keystroke_o	o	n/a
204.946	0.135	409892	keystroke_n	n	n/a
205.126	0.15	410252	keystroke_a	a	n/a
205.381	0.09	410762	keystroke_l	l	n/a
206.116	0.105	412232	keystroke_Key.enter	Key.enter	n/a
206.226	8.5625	412452	prompt	n/a	counter lexington tony tune\n
206.912	0.12	413824	keystroke_o	o	n/a
207.392	0.135	414784	keystroke_Key.backspace	Key.backspace	n/a
207.572	0.195	415144	keystroke_c	c	n/a
207.782	0.12	415564	keystroke_o	o	n/a
207.992	0.105	415984	keystroke_u	u	n/a
208.2465	0.15	416493	keystroke_n	n	n/a
208.3665	0.12	416733	keystroke_t	t	n/a
208.5315	0.18	417063	keystroke_e	e	n/a
208.7265	0.0905	417453	keystroke_r	r	n/a
208.861	0.105	417722	keystroke_Key.space	Key.space	n/a
209.0865	0.135	418173	keystroke_l	l	n/a
209.1915	0.12	418383	keystroke_e	e	n/a
209.6265	0.15	419253	keystroke_x	x	n/a
209.9265	0.15	419853	keystroke_i	i	n/a
210.107	0.18	420214	keystroke_n	n	n/a
210.257	0.104	420514	keystroke_g	g	n/a
210.527	0.15	421054	keystroke_t	t	n/a
210.766	0.21	421532	keystroke_o	o	n/a
211.006	0.1205	422012	keystroke_n	n	n/a
212.566	0.135	425132	keystroke_Key.space	Key.space	n/a
212.926	0.075	425852	keystroke_t	t	n/a
212.971	0.1805	425942	keystroke_o	o	n/a
213.136	0.1355	426272	keystroke_n	n	n/a
213.466	0.135	426932	keystroke_y	y	n/a
213.631	0.151	427262	keystroke_Key.space	Key.space	n/a
213.872	0.135	427744	keystroke_t	t	n/a
213.992	0.0895	427984	keystroke_u	u	n/a
214.2465	0.105	428493	keystroke_n	n	n/a
214.3065	0.135	428613	keystroke_e	e	n/a
214.6515	0.135	429303	keystroke_Key.enter	Key.enter	n/a
214.7935	15.4595	429587	prompt	n/a	least truth escorts how's\n
215.432	0.135	430864	keystroke_l	l	n/a
215.582	0.105	431164	keystroke_e	e	n/a
215.822	0.105	431644	keystroke_a	a	n/a
216.091	0.211	432182	keystroke_s	s	n/a
216.391	0.091	432782	keystroke_s	s	n/a
217.051	0.15	434102	keystroke_Key.backspace	Key.backspace	n/a
217.5315	0.075	435063	keystroke_t	t	n/a
217.831	0.15	435662	keystroke_Key.space	Key.space	n/a
218.236	0.076	436472	keystroke_t	t	n/a
218.416	0.12	436832	keystroke_r	r	n/a
218.566	0.15	437132	keystroke_u	u	n/a
218.956	0.1205	437912	keystroke_t	t	n/a
219.1215	0.135	438243	keystroke_h	h	n/a
219.527	0.1345	439054	keystroke_Key.space	Key.space	n/a
220.0215	0.09	440043	keystroke_e	e	n/a
220.5315	0.075	441063	keystroke_s	s	n/a
220.8015	0.1355	441603	keystroke_c	c	n/a
220.967	0.135	441934	keystroke_o	o	n/a
221.192	0.105	442384	keystroke_r	r	n/a
221.582	0.135	443164	keystroke_s	s	n/a
222.107	0.0895	444214	keystroke_t	t	n/a
222.3315	0.15	444663	keystroke_Key.space	Key.space	n/a
222.5415	0.135	445083	keystroke_h	h	n/a
222.7065	0.165	445413	keystroke_o	o	n/a
222.8865	0.1355	445773	keystroke_w	w	n/a
224.057	0.105	448114	keystroke_Key.backspace	Key.backspace	n/a
224.267	0.075	448534	keystroke_Key.backspace	Key.backspace	n/a
224.432	0.06	448864	keystroke_Key.backspace	Key.backspace	n/a
224.567	0.09	449134	keystroke_Key.backspace	Key.backspace	n/a
224.732	0.06	449464	keystroke_Key.backspace	Key.backspace	n/a
225.017	0.15	450034	keystroke_Key.backspace	Key.backspace	n/a
226.0515	0.09	452103	keystroke_t	t	n/a
226.4115	0.075	452823	keystroke_s	s	n/a
227.086	0.09	454172	keystroke_Key.space	Key.space	n/a
227.402	0.135	454804	keystroke_h	h	n/a
227.551	0.166	455102	keystroke_o	o	n/a
227.746	0.136	455492	keystroke_w	w	n/a
228.601	0.136	457202	keystroke_'	'	n/a
229.126	0.105	458252	keystroke_s	s	n/a
230.162	0.0895	460324	keystroke_Key.enter	Key.enter	n/a
230.2595	15.3235	460519	prompt	n/a	lamps cole curious under\n
232.172	0.105	464344	keystroke_l	l	n/a
232.307	0.165	464614	keystroke_a	a	n/a
232.5765	0.12	465153	keystroke_m	m	n/a
232.9365	0.1655	465873	keystroke_p	p	n/a
233.507	0.12	467014	keystroke_s	s	n/a
234.6615	0.09	469323	keystroke_Key.space	Key.space	n/a
234.9315	0.15	469863	keystroke_c	c	n/a
235.0515	0.105	470103	keystroke_o	o	n/a
235.3215	0.18	470643	keystroke_l	l	n/a
235.4865	0.135	470973	keystroke_e	e	n/a
235.6965	0.105	471393	keystroke_Key.space	Key.space	n/a
235.9665	0.135	471933	keystroke_c	c	n/a
236.1015	0.15	472203	keystroke_u	u	n/a
236.2965	0.1195	472593	keystroke_r	r	n/a
236.536	0.105	473072	keystroke_i	i	n/a
236.656	0.12	473312	keystroke_e	e	n/a
237.2415	0.15	474483	keystroke_o	o	n/a
237.5265	0.12	475053	keystroke_s	s	n/a
238.2615	0.12	476523	keystroke_Key.backspace	Key.backspace	n/a
238.4565	0.09	476913	keystroke_Key.backspace	Key.backspace	n/a
238.6365	0.045	477273	keystroke_Key.backspace	Key.backspace	n/a
239.927	0.15	479854	keystroke_o	o	n/a
240.242	0.135	480484	keystroke_u	u	n/a
242.1915	0.105	484383	keystroke_e	e	n/a
242.5215	0.105	485043	keystroke_Key.space	Key.space	n/a
243.3015	0.27	486603	keystroke_Key.backspace	Key.backspace	n/a
243.8415	0.135	487683	keystroke_Key.backspace	Key.backspace	n/a
244.0215	0.1195	488043	keystroke_s	s	n/a
244.201	0.105	488402	keystroke_Key.space	Key.space	n/a
244.486	0.105	488972	keystroke_u	u	n/a
244.742	0.134	489484	keystroke_n	n	n/a
244.846	0.12	489692	keystroke_d	d	n/a
245.086	0.12	490172	keystroke_e	e	n/a
245.251	0.075	490502	keystroke_r	r	n/a
245.446	0.135	490892	keystroke_Key.enter	Key.enter	n/a
245.5865	14.2765	491173	prompt	n/a	hearts what'll should obviously\n
246.3165	0.15	492633	keystroke_h	h	n/a
246.4215	0.12	492843	keystroke_e	e	n/a
246.6315	0.135	493263	keystroke_a	a	n/a
246.8715	0.09	493743	keystroke_r	r	n/a
247.0815	0.09	494163	keystroke_t	t	n/a
247.3515	0.105	494703	keystroke_s	s	n/a
247.4865	0.12	494973	keystroke_Key.space	Key.space	n/a
247.6665	0.1345	495333	keystroke_w	w	n/a
247.876	0.135	495752	keystroke_h	h	n/a
247.981	0.165	495962	keystroke_a	a	n/a
248.326	0.075	496652	keystroke_t	t	n/a
249.361	0.105	498722	keystroke_'	'	n/a
249.6915	0.12	499383	keystroke_l	l	n/a
249.8865	0.12	499773	keystroke_l	l	n/a
250.2165	0.15	500433	keystroke_Key.space	Key.space	n/a
250.6365	0.15	501273	keystroke_s	s	n/a
250.7715	0.165	501543	keystroke_h	h	n/a
250.9515	0.135	501903	keystroke_o	o	n/a
251.1015	0.105	502203	keystroke_u	u	n/a
251.3415	0.135	502683	keystroke_l	l	n/a
251.4615	0.135	502923	keystroke_d	d	n/a
251.6265	0.09	503253	keystroke_Key.space	Key.space	n/a
251.9415	0.15	503883	keystroke_o	o	n/a
252.1065	0.165	504213	keystroke_v	v	n/a
252.3615	0.135	504723	keystroke_i	i	n/a
253.201	0.075	506402	keystroke_Key.backspace	Key.backspace	n/a
253.322	0.104	506644	keystroke_Key.backspace	Key.backspace	n/a
253.546	0.121	507092	keystroke_b	b	n/a
253.997	0.165	507994	keystroke_v	v	n/a
254.176	0.09	508352	keystroke_i	i	n/a
255.3615	0.165	510723	keystroke_o	o	n/a
255.5715	0.1945	511143	keystroke_s	s	n/a
256.3515	0.12	512703	keystroke_Key.backspace	Key.backspace	n/a
257.3715	0.1655	514743	keystroke_u	u	n/a
257.807	0.165	515614	keystroke_l	l	n/a
258.587	0.105	517174	keystroke_Key.backspace	Key.backspace	n/a
258.737	0.15	517474	keystroke_s	s	n/a
258.962	0.18	517924	keystroke_l	l	n/a
259.307	0.135	518614	keystroke_y	y	n/a
259.742	0.12	519484	keystroke_Key.enter	Key.enter	n/a
259.866	5.7875	519732	prompt	n/a	unable lined seen web\n
260.552	0.09	521104	keystroke_u	u	n/a
260.807	0.1645	521614	keystroke_n	n	n/a
260.9865	0.15	521973	keystroke_a	a	n/a
261.2865	0.1345	522573	keystroke_b	b	n/a
261.481	0.195	522962	keystroke_l	l	n/a
261.661	0.12	523322	keystroke_e	e	n/a
261.826	0.105	523652	keystroke_Key.space	Key.space	n/a
262.156	0.151	524312	keystroke_l	l	n/a
262.412	0.134	524824	keystroke_i	i	n/a
262.621	0.18	525242	keystroke_n	n	n/a
262.832	0.119	525664	keystroke_e	e	n/a
263.132	0.119	526264	keystroke_d	d	n/a
263.311	0.12	526622	keystroke_Key.space	Key.space	n/a
263.581	0.105	527162	keystroke_s	s	n/a
263.806	0.105	527612	keystroke_e	e	n/a
263.971	0.105	527942	keystroke_e	e	n/a
264.196	0.15	528392	keystroke_n	n	n/a
264.3765	0.1045	528753	keystroke_Key.space	Key.space	n/a
264.541	0.1205	529082	keystroke_w	w	n/a
264.7065	0.1805	529413	keystroke_e	e	n/a
265.097	0.1045	530194	keystroke_b	b	n/a
265.5015	0.15	531003	keystroke_Key.enter	Key.enter	n/a
265.6565	10.6015	531313	prompt	n/a	quiet kevin zone pierce\n
266.4765	0.12	532953	keystroke_q	q	n/a
266.6565	0.15	533313	keystroke_u	u	n/a
266.912	0.21	533824	keystroke_i	i	n/a
267.107	0.09	534214	keystroke_t	t	n/a
267.2715	0.12	534543	keystroke_e	e	n/a
268.922	0.0895	537844	keystroke_Key.backspace	Key.backspace	n/a
269.1165	0.135	538233	keystroke_Key.backspace	Key.backspace	n/a
269.4615	0.1355	538923	keystroke_e	e	n/a
269.762	0.105	539524	keystroke_t	t	n/a
270.016	0.06	540032	keystroke_Key.space	Key.space	n/a
271.0215	0.165	542043	keystroke_k	k	n/a
271.2015	0.135	542403	keystroke_e	e	n/a
271.5165	0.195	543033	keystroke_v	v	n/a
271.6665	0.135	543333	keystroke_i	i	n/a
271.8615	0.135	543723	keystroke_n	n	n/a
272.0265	0.105	544053	keystroke_Key.space	Key.space	n/a
272.4015	0.1795	544803	keystroke_z	z	n/a
272.5365	0.2255	545073	keystroke_o	o	n/a
272.732	0.21	545464	keystroke_n	n	n/a
272.972	0.12	545944	keystroke_e	e	n/a
273.271	0.091	546542	keystroke_Key.space	Key.space	n/a
274.0815	0.18	548163	keystroke_p	p	n/a
274.6065	0.15	549213	keystroke_i	i	n/a
274.7865	0.1805	549573	keystroke_e	e	n/a
274.996	0.105	549992	keystroke_r	r	n/a
275.3265	0.09	550653	keystroke_c	c	n/a
275.8365	0.09	551673	keystroke_e	e	n/a
276.1215	0.135	552243	keystroke_Key.enter	Key.enter	n/a
276.2615	8.4715	552523	prompt	n/a	vary trainers practical wheat\n
277.0665	0.135	554133	keystroke_v	v	n/a
277.3065	0.12	554613	keystroke_a	a	n/a
277.5315	0.1195	555063	keystroke_r	r	n/a
277.817	0.105	555634	keystroke_y	y	n/a
278.012	0.1345	556024	keystroke_Key.space	Key.space	n/a
278.1915	0.12	556383	keystroke_t	t	n/a
278.4165	0.105	556833	keystroke_r	r	n/a
278.7315	0.1345	557463	keystroke_a	a	n/a
278.912	0.165	557824	keystroke_i	i	n/a
279.107	0.134	558214	keystroke_n	n	n/a
279.257	0.18	558514	keystroke_e	e	n/a
279.451	0.12	558902	keystroke_r	r	n/a
279.842	0.06	559684	keystroke_s	s	n/a
280.036	0.12	560072	keystroke_Key.space	Key.space	n/a
280.427	0.224	560854	keystroke_p	p	n/a
280.592	0.12	561184	keystroke_r	r	n/a
281.1015	0.12	562203	keystroke_a	a	n/a
281.4015	0.12	562803	keystroke_c	c	n/a
281.7165	0.06	563433	keystroke_t	t	n/a
281.7615	0.1205	563523	keystroke_i	i	n/a
282.001	0.075	564002	keystroke_c	c	n/a
282.152	0.12	564304	keystroke_a	a	n/a
282.332	0.149	564664	keystroke_l	l	n/a
282.616	0.105	565232	keystroke_Key.space	Key.space	n/a
282.932	0.09	565864	keystroke_w	w	n/a
283.6665	0.12	567333	keystroke_h	h	n/a
283.8165	0.105	567633	keystroke_e	e	n/a
284.1465	0.105	568293	keystroke_a	a	n/a
284.3865	0.075	568773	keystroke_t	t	n/a
284.627	0.105	569254	keystroke_Key.enter	Key.enter	n/a
284.7365	7.6015	569473	prompt	n/a	dialog leasing flying can't\n
285.347	0.1345	570694	keystroke_d	d	n/a
285.5265	0.105	571053	keystroke_i	i	n/a
285.6915	0.1655	571383	keystroke_a	a	n/a
285.872	0.135	571744	keystroke_l	l	n/a
286.142	0.1045	572284	keystroke_o	o	n/a
286.2765	0.1045	572553	keystroke_g	g	n/a
286.441	0.105	572882	keystroke_Key.space	Key.space	n/a
286.666	0.15	573332	keystroke_l	l	n/a
286.832	0.089	573664	keystroke_e	e	n/a
287.087	0.12	574174	keystroke_a	a	n/a
287.327	0.105	574654	keystroke_s	s	n/a
287.522	0.1195	575044	keystroke_i	i	n/a
287.672	0.1495	575344	keystroke_n	n	n/a
287.8815	0.045	575763	keystroke_g	g	n/a
287.9415	0.075	575883	keystroke_Key.space	Key.space	n/a
288.3015	0.105	576603	keystroke_f	f	n/a
288.5565	0.135	577113	keystroke_l	l	n/a
288.9015	0.165	577803	keystroke_y	y	n/a
289.2615	0.15	578523	keystroke_i	i	n/a
289.4265	0.18	578853	keystroke_n	n	n/a
289.6215	0.105	579243	keystroke_g	g	n/a
289.8915	0.1355	579783	keystroke_Key.space	Key.space	n/a
290.3715	0.105	580743	keystroke_c	c	n/a
290.6565	0.105	581313	keystroke_a	a	n/a
290.7915	0.1355	581583	keystroke_n	n	n/a
291.572	0.135	583144	keystroke_'	'	n/a
291.857	0.09	583714	keystroke_t	t	n/a
292.231	0.105	584462	keystroke_Key.enter	Key.enter	n/a
292.3415	6.7615	584683	prompt	n/a	fast granted clouds foto\n
292.996	0.1055	585992	keystroke_f	f	n/a
293.206	0.15	586412	keystroke_a	a	n/a
293.417	0.104	586834	keystroke_s	s	n/a
293.656	0.0755	587312	keystroke_t	t	n/a
293.7765	0.1195	587553	keystroke_Key.space	Key.space	n/a
294.001	0.0905	588002	keystroke_g	g	n/a
294.2715	0.09	588543	keystroke_r	r	n/a
294.5865	0.105	589173	keystroke_a	a	n/a
294.7365	0.105	589473	keystroke_n	n	n/a
294.9465	0.105	589893	keystroke_t	t	n/a
295.1415	0.105	590283	keystroke_e	e	n/a
295.382	0.1045	590764	keystroke_d	d	n/a
295.5165	0.105	591033	keystroke_Key.space	Key.space	n/a
295.7115	0.165	591423	keystroke_c	c	n/a
295.8775	0.104	591755	keystroke_l	l	n/a
296.1015	0.105	592203	keystroke_o	o	n/a
296.9865	0.135	593973	keystroke_u	u	n/a
297.1665	0.135	594333	keystroke_d	d	n/a
297.4215	0.165	594843	keystroke_s	s	n/a
297.6315	0.135	595263	keystroke_Key.space	Key.space	n/a
297.9465	0.105	595893	keystroke_f	f	n/a
298.0965	0.0745	596193	keystroke_o	o	n/a
298.396	0.136	596792	keystroke_t	t	n/a
298.576	0.105	597152	keystroke_o	o	n/a
298.9965	0.105	597993	keystroke_Key.enter	Key.enter	n/a
299.106	10.182	598212	prompt	n/a	stan itunes stephanie shorter\n
299.7465	0.12	599493	keystroke_s	s	n/a
300.0015	0.075	600003	keystroke_t	t	n/a
300.2265	0.135	600453	keystroke_a	a	n/a
300.3765	0.135	600753	keystroke_n	n	n/a
300.5715	0.09	601143	keystroke_Key.space	Key.space	n/a
300.9465	0.12	601893	keystroke_i	i	n/a
301.1565	0.105	602313	keystroke_t	t	n/a
301.7715	0.12	603543	keystroke_u	u	n/a
303.647	0.09	607294	keystroke_n	n	n/a
303.722	0.105	607444	keystroke_e	e	n/a
304.037	0.105	608074	keystroke_s	s	n/a
304.142	0.105	608284	keystroke_Key.space	Key.space	n/a
304.367	0.12	608734	keystroke_s	s	n/a
304.666	0.09	609332	keystroke_t	t	n/a
304.891	0.1205	609782	keystroke_e	e	n/a
305.1465	0.12	610293	keystroke_p	p	n/a
305.7465	0.105	611493	keystroke_h	h	n/a
306.1515	0.18	612303	keystroke_a	a	n/a
306.2865	0.1355	612573	keystroke_n	n	n/a
306.466	0.195	612932	keystroke_i	i	n/a
307.0365	0.12	614073	keystroke_e	e	n/a
307.2015	0.12	614403	keystroke_Key.space	Key.space	n/a
307.441	0.12	614882	keystroke_s	s	n/a
307.621	0.1505	615242	keystroke_h	h	n/a
307.8015	0.135	615603	keystroke_o	o	n/a
308.0265	0.12	616053	keystroke_r	r	n/a
308.3565	0.105	616713	keystroke_t	t	n/a
308.6715	0.15	617343	keystroke_e	e	n/a
308.912	0.1045	617824	keystroke_r	r	n/a
309.1515	0.135	618303	keystroke_Key.enter	Key.enter	n/a
309.2915	9.6115	618583	prompt	n/a	madrid renewal assignment randy\n
309.962	0.105	619924	keystroke_m	m	n/a
310.157	0.105	620314	keystroke_a	a	n/a
310.457	0.18	620914	keystroke_d	d	n/a
310.742	0.1495	621484	keystroke_r	r	n/a
310.9065	0.135	621813	keystroke_i	i	n/a
311.0865	0.12	622173	keystroke_d	d	n/a
311.2065	0.135	622413	keystroke_Key.space	Key.space	n/a
311.5065	0.09	623013	keystroke_r	r	n/a
311.6715	0.135	623343	keystroke_e	e	n/a
312.0465	0.12	624093	keystroke_n	n	n/a
312.2265	0.15	624453	keystroke_e	e	n/a
312.4965	0.105	624993	keystroke_w	w	n/a
312.7815	0.1655	625563	keystroke_a	a	n/a
312.917	0.165	625834	keystroke_l	l	n/a
313.1265	0.09	626253	keystroke_Key.space	Key.space	n/a
313.3065	0.1205	626613	keystroke_a	a	n/a
313.562	0.075	627124	keystroke_s	s	n/a
313.757	0.09	627514	keystroke_s	s	n/a
313.982	0.135	627964	keystroke_i	i	n/a
314.177	0.12	628354	keystroke_g	g	n/a
314.417	0.135	628834	keystroke_n	n	n/a
314.9565	0.105	629913	keystroke_m	m	n/a
315.2115	0.135	630423	keystroke_n	n	n/a
315.3315	0.135	630663	keystroke_e	e	n/a
315.5865	0.105	631173	keystroke_t	t	n/a
316.0515	0.075	632103	keystroke_Key.backspace	Key.backspace	n/a
316.2315	0.075	632463	keystroke_Key.backspace	Key.backspace	n/a
316.5915	0.075	633183	keystroke_Key.backspace	Key.backspace	n/a
316.8015	0.1805	633603	keystroke_e	e	n/a
316.952	0.135	633904	keystroke_n	n	n/a
317.117	0.12	634234	keystroke_t	t	n/a
317.342	0.105	634684	keystroke_Key.space	Key.space	n/a
317.597	0.09	635194	keystroke_r	r	n/a
317.882	0.09	635764	keystroke_a	a	n/a
317.987	0.12	635974	keystroke_n	n	n/a
318.167	0.195	636334	keystroke_d	d	n/a
318.392	0.105	636784	keystroke_y	y	n/a
318.767	0.134	637534	keystroke_Key.enter	Key.enter	n/a
318.9065	7.797	637813	prompt	n/a	foot mixture maui explorer\n
319.682	0.105	639364	keystroke_f	f	n/a
319.712	0.21	639424	keystroke_o	o	n/a
320.597	0.12	641194	keystroke_o	o	n/a
320.762	0.1345	641524	keystroke_t	t	n/a
320.9565	0.135	641913	keystroke_Key.space	Key.space	n/a
321.2265	0.195	642453	keystroke_m	m	n/a
321.4365	0.12	642873	keystroke_i	i	n/a
321.6615	0.15	643323	keystroke_x	x	n/a
322.0215	0.09	644043	keystroke_t	t	n/a
322.1565	0.18	644313	keystroke_u	u	n/a
322.2765	0.12	644553	keystroke_r	r	n/a
322.4565	0.135	644913	keystroke_e	e	n/a
322.6065	0.1205	645213	keystroke_Key.space	Key.space	n/a
323.042	0.195	646084	keystroke_m	m	n/a
323.252	0.1495	646504	keystroke_a	a	n/a
323.4915	0.135	646983	keystroke_u	u	n/a
323.776	0.1355	647552	keystroke_i	i	n/a
323.9565	0.12	647913	keystroke_Key.space	Key.space	n/a
324.2115	0.12	648423	keystroke_e	e	n/a
324.6315	0.15	649263	keystroke_x	x	n/a
324.902	0.165	649804	keystroke_p	p	n/a
325.292	0.0895	650584	keystroke_l	l	n/a
325.5165	0.09	651033	keystroke_o	o	n/a
325.6965	0.135	651393	keystroke_r	r	n/a
325.8915	0.135	651783	keystroke_e	e	n/a
326.1015	0.15	652203	keystroke_r	r	n/a
326.552	0.15	653104	keystroke_Key.enter	Key.enter	n/a
326.708	18.535	653416	prompt	n/a	methodology remembered bleeding involving\n
327.752	0.15	655504	keystroke_m	m	n/a
327.947	0.135	655894	keystroke_e	e	n/a
328.1865	0.105	656373	keystroke_t	t	n/a
328.3215	0.15	656643	keystroke_h	h	n/a
328.5315	0.105	657063	keystroke_o	o	n/a
329.806	0.135	659612	keystroke_d	d	n/a
330.437	0.06	660874	keystroke_o	o	n/a
330.662	0.15	661324	keystroke_l	l	n/a
331.1115	0.09	662223	keystroke_o	o	n/a
331.3665	0.09	662733	keystroke_g	g	n/a
331.5615	0.135	663123	keystroke_y	y	n/a
331.7265	0.1345	663453	keystroke_Key.space	Key.space	n/a
332.071	0.135	664142	keystroke_r	r	n/a
332.252	0.149	664504	keystroke_e	e	n/a
332.431	0.12	664862	keystroke_m	m	n/a
332.731	0.12	665462	keystroke_e	e	n/a
332.972	0.149	665944	keystroke_m	m	n/a
333.421	0.06	666842	keystroke_Key.space	Key.space	n/a
333.436	0.06	666872	keystroke_b	b	n/a
333.661	0.165	667322	keystroke_e	e	n/a
333.871	0.135	667742	keystroke_r	r	n/a
334.501	0.15	669002	keystroke_e	e	n/a
334.801	0.121	669602	keystroke_d	d	n/a
335.4465	0.06	670893	keystroke_Key.backspace	Key.backspace	n/a
335.717	0.0595	671434	keystroke_Key.backspace	Key.backspace	n/a
335.927	0.075	671854	keystroke_Key.backspace	Key.backspace	n/a
336.1365	0.06	672273	keystroke_Key.backspace	Key.backspace	n/a
336.3765	0.015	672753	keystroke_Key.backspace	Key.backspace	n/a
336.4515	0.1805	672903	keystroke_Key.backspace	Key.backspace	n/a
337.0065	0.135	674013	keystroke_b	b	n/a
337.2765	0.15	674553	keystroke_e	e	n/a
337.4865	0.135	674973	keystroke_r	r	n/a
337.682	0.15	675364	keystroke_e	e	n/a
338.012	0.105	676024	keystroke_d	d	n/a
338.567	0.105	677134	keystroke_Key.space	Key.space	n/a
338.8515	0.12	677703	keystroke_b	b	n/a
339.2415	0.165	678483	keystroke_l	l	n/a
339.4215	0.09	678843	keystroke_e	e	n/a
339.5865	0.105	679173	keystroke_e	e	n/a
339.8415	0.18	679683	keystroke_d	d	n/a
340.0065	0.15	680013	keystroke_i	i	n/a
340.2015	0.15	680403	keystroke_n	n	n/a
340.3365	0.1505	680673	keystroke_g	g	n/a
340.471	0.105	680942	keystroke_Key.space	Key.space	n/a
340.802	0.134	681604	keystroke_i	i	n/a
340.951	0.151	681902	keystroke_n	n	n/a
341.131	0.151	682262	keystroke_v	v	n/a
341.297	0.059	682594	keystroke_o	o	n/a
341.522	0.15	683044	keystroke_i	i	n/a
341.8665	0.165	683733	keystroke_v	v	n/a
342.0765	0.135	684153	keystroke_l	l	n/a
342.7965	0.075	685593	keystroke_Key.backspace	Key.backspace	n/a
343.0065	0.06	686013	keystroke_Key.backspace	Key.backspace	n/a
343.381	0.105	686762	keystroke_Key.backspace	Key.backspace	n/a
343.727	0.119	687454	keystroke_l	l	n/a
344.1615	0.135	688323	keystroke_v	v	n/a
344.4015	0.1955	688803	keystroke_i	i	n/a
344.612	0.1645	689224	keystroke_n	n	n/a
344.7915	0.1055	689583	keystroke_g	g	n/a
345.1065	0.135	690213	keystroke_Key.enter	Key.enter	n/a
345.2465	7.722	690493	prompt	n/a	pepper specialist mistakes steps\n
346.037	0.15	692074	keystroke_p	p	n/a
346.217	0.135	692434	keystroke_e	e	n/a
346.847	0.12	693694	keystroke_p	p	n/a
347.072	0.09	694144	keystroke_p	p	n/a
347.222	0.18	694444	keystroke_e	e	n/a
347.447	0.135	694894	keystroke_r	r	n/a
347.702	0.1195	695404	keystroke_Key.space	Key.space	n/a
347.9715	0.15	695943	keystroke_s	s	n/a
348.1225	0.194	696245	keystroke_p	p	n/a
348.3165	0.12	696633	keystroke_e	e	n/a
348.6165	0.135	697233	keystroke_c	c	n/a
348.7515	0.12	697503	keystroke_i	i	n/a
348.9165	0.135	697833	keystroke_a	a	n/a
349.0665	0.12	698133	keystroke_l	l	n/a
349.2765	0.135	698553	keystroke_i	i	n/a
349.3965	0.105	698793	keystroke_s	s	n/a
349.6515	0.075	699303	keystroke_t	t	n/a
349.7565	0.12	699513	keystroke_Key.space	Key.space	n/a
349.9815	0.18	699963	keystroke_m	m	n/a
350.2065	0.135	700413	keystroke_i	i	n/a
350.3565	0.105	700713	keystroke_s	s	n/a
350.5815	0.075	701163	keystroke_t	t	n/a
350.8365	0.135	701673	keystroke_a	a	n/a
350.9865	0.195	701973	keystroke_k	k	n/a
351.2265	0.0595	702453	keystroke_e	e	n/a
351.436	0.12	702872	keystroke_s	s	n/a
351.557	0.104	703114	keystroke_Key.space	Key.space	n/a
351.781	0.12	703562	keystroke_s	s	n/a
351.991	0.12	703982	keystroke_t	t	n/a
352.1715	0.135	704343	keystroke_e	e	n/a
352.3365	0.165	704673	keystroke_p	p	n/a
352.5465	0.1195	705093	keystroke_s	s	n/a
352.861	0.105	705722	keystroke_Key.enter	Key.enter	n/a
352.9725	13.0755	705945	prompt	n/a	alternatives starsmerchant thereafter attend\n
354.662	0.15	709324	keystroke_a	a	n/a
354.8265	0.1345	709653	keystroke_l	l	n/a
355.051	0.1205	710102	keystroke_t	t	n/a
355.231	0.1355	710462	keystroke_e	e	n/a
355.396	0.105	710792	keystroke_r	r	n/a
355.561	0.12	711122	keystroke_n	n	n/a
355.726	0.1355	711452	keystroke_a	a	n/a
355.9665	0.105	711933	keystroke_t	t	n/a
356.1015	0.135	712203	keystroke_i	i	n/a
356.2515	0.105	712503	keystroke_v	v	n/a
356.4615	0.105	712923	keystroke_e	e	n/a
356.7615	0.15	713523	keystroke_s	s	n/a
356.9265	0.06	713853	keystroke_Key.space	Key.space	n/a
357.4065	0.15	714813	keystroke_s	s	n/a
357.6915	0.09	715383	keystroke_t	t	n/a
357.9615	0.1195	715923	keystroke_a	a	n/a
358.2315	0.0755	716463	keystroke_r	r	n/a
358.592	0.105	717184	keystroke_s	s	n/a
359.0565	0.15	718113	keystroke_m	m	n/a
359.2215	0.135	718443	keystroke_e	e	n/a
359.4165	0.1805	718833	keystroke_n	n	n/a
359.852	0.135	719704	keystroke_Key.backspace	Key.backspace	n/a
359.972	0.105	719944	keystroke_r	r	n/a
360.272	0.15	720544	keystroke_c	c	n/a
360.392	0.135	720784	keystroke_h	h	n/a
360.632	0.12	721264	keystroke_a	a	n/a
360.707	0.18	721414	keystroke_n	n	n/a
360.947	0.075	721894	keystroke_t	t	n/a
361.082	0.165	722164	keystroke_Key.space	Key.space	n/a
362.2665	0.105	724533	keystroke_t	t	n/a
362.4015	0.135	724803	keystroke_h	h	n/a
362.5965	0.12	725193	keystroke_e	e	n/a
362.8065	0.1205	725613	keystroke_r	r	n/a
362.927	0.135	725854	keystroke_e	e	n/a
363.2265	0.12	726453	keystroke_a	a	n/a
363.3915	0.12	726783	keystroke_f	f	n/a
363.6465	0.105	727293	keystroke_t	t	n/a
363.812	0.1345	727624	keystroke_e	e	n/a
363.9615	0.105	727923	keystroke_r	r	n/a
364.142	0.12	728284	keystroke_Key.space	Key.space	n/a
364.2915	0.1205	728583	keystroke_a	a	n/a
364.5465	0.0455	729093	keystroke_t	t	n/a
364.6815	0.06	729363	keystroke_t	t	n/a
364.892	0.1045	729784	keystroke_e	e	n/a
365.5065	0.09	731013	keystroke_n	n	n/a
365.657	0.09	731314	keystroke_d	d	n/a
365.942	0.105	731884	keystroke_Key.enter	Key.enter	n/a
366.0515	7.3465	732103	prompt	n/a	clock lesson congress specially\n
366.9165	0.105	733833	keystroke_c	c	n/a
367.0665	0.105	734133	keystroke_l	l	n/a
367.2915	0.09	734583	keystroke_o	o	n/a
367.8015	0.09	735603	keystroke_c	c	n/a
368.0115	0.135	736023	keystroke_k	k	n/a
368.3415	0.015	736683	keystroke_Key.space	Key.space	n/a
368.4465	0.12	736893	keystroke_l	l	n/a
368.6865	0.09	737373	keystroke_e	e	n/a
368.9415	0.045	737883	keystroke_s	s	n/a
369.091	0.106	738182	keystroke_s	s	n/a
369.242	0.15	738484	keystroke_o	o	n/a
369.377	0.135	738754	keystroke_n	n	n/a
369.556	0.076	739112	keystroke_Key.space	Key.space	n/a
369.752	0.12	739504	keystroke_c	c	n/a
369.887	0.135	739774	keystroke_o	o	n/a
370.052	0.12	740104	keystroke_n	n	n/a
370.217	0.105	740434	keystroke_g	g	n/a
370.4415	0.09	740883	keystroke_r	r	n/a
370.6215	0.105	741243	keystroke_e	e	n/a
370.906	0.046	741812	keystroke_s	s	n/a
371.042	0.075	742084	keystroke_s	s	n/a
371.206	0.135	742412	keystroke_Key.space	Key.space	n/a
371.447	0.0895	742894	keystroke_s	s	n/a
371.5965	0.135	743193	keystroke_p	p	n/a
371.7465	0.075	743493	keystroke_e	e	n/a
372.0315	0.15	744063	keystroke_c	c	n/a
372.1965	0.12	744393	keystroke_i	i	n/a
372.3915	0.105	744783	keystroke_a	a	n/a
372.4815	0.09	744963	keystroke_l	l	n/a
372.6315	0.105	745263	keystroke_l	l	n/a
372.902	0.12	745804	keystroke_y	y	n/a
373.276	0.12	746552	keystroke_Key.enter	Key.enter	n/a
373.4025	15.3855	746805	prompt	n/a	inclusion stainless dominican excitement\n
374.147	0.12	748294	keystroke_i	i	n/a
374.342	0.15	748684	keystroke_c	c	n/a
374.642	0.149	749284	keystroke_l	l	n/a
374.9115	0.09	749823	keystroke_u	u	n/a
375.2115	0.075	750423	keystroke_Key.backspace	Key.backspace	n/a
375.3915	0.075	750783	keystroke_Key.backspace	Key.backspace	n/a
375.5865	0.075	751173	keystroke_Key.backspace	Key.backspace	n/a
375.901	0.105	751802	keystroke_n	n	n/a
376.1115	0.12	752223	keystroke_c	c	n/a
376.2615	0.135	752523	keystroke_l	l	n/a
376.5015	0.105	753003	keystroke_u	u	n/a
376.6365	0.12	753273	keystroke_s	s	n/a
376.8765	0.06	753753	keystroke_i	i	n/a
377.327	0.285	754654	keystroke_o	o	n/a
378.047	0.12	756094	keystroke_n	n	n/a
378.362	0.12	756724	keystroke_Key.space	Key.space	n/a
378.767	0.1045	757534	keystroke_s	s	n/a
379.0215	0.06	758043	keystroke_t	t	n/a
379.2315	0.1355	758463	keystroke_a	a	n/a
379.397	0.12	758794	keystroke_i	i	n/a
379.577	0.12	759154	keystroke_n	n	n/a
379.817	0.1345	759634	keystroke_l	l	n/a
380.0265	0.075	760053	keystroke_e	e	n/a
380.3115	0.075	760623	keystroke_s	s	n/a
380.4915	0.06	760983	keystroke_s	s	n/a
380.6415	0.135	761283	keystroke_Key.space	Key.space	n/a
381.047	0.135	762094	keystroke_d	d	n/a
381.227	0.0745	762454	keystroke_o	o	n/a
381.4515	0.105	762903	keystroke_m	m	n/a
381.8715	0.135	763743	keystroke_i	i	n/a
382.0815	0.09	764163	keystroke_n	n	n/a
382.2915	0.135	764583	keystroke_i	i	n/a
382.5015	0.1195	765003	keystroke_c	c	n/a
382.756	0.106	765512	keystroke_a	a	n/a
382.847	0.135	765694	keystroke_n	n	n/a
383.477	0.1045	766954	keystroke_Key.space	Key.space	n/a
383.807	0.105	767614	keystroke_e	e	n/a
384.137	0.135	768274	keystroke_x	x	n/a
386.072	0.12	772144	keystroke_Key.backspace	Key.backspace	n/a
386.717	0.1345	773434	keystroke_x	x	n/a
387.3015	0.135	774603	keystroke_c	c	n/a
387.4515	0.09	774903	keystroke_i	i	n/a
387.6465	0.075	775293	keystroke_t	t	n/a
387.7965	0.09	775593	keystroke_e	e	n/a
387.9015	0.135	775803	keystroke_m	m	n/a
388.0215	0.105	776043	keystroke_e	e	n/a
388.1415	0.15	776283	keystroke_n	n	n/a
388.3065	0.06	776613	keystroke_t	t	n/a
388.6665	0.12	777333	keystroke_Key.enter	Key.enter	n/a
388.791	8.187	777582	prompt	n/a	express compound temperature drive\n
389.4465	0.09	778893	keystroke_e	e	n/a
389.7315	0.135	779463	keystroke_x	x	n/a
389.9265	0.165	779853	keystroke_p	p	n/a
390.1215	0.09	780243	keystroke_r	r	n/a
390.3315	0.06	780663	keystroke_e	e	n/a
390.6165	0.045	781233	keystroke_s	s	n/a
390.7515	0.0745	781503	keystroke_s	s	n/a
390.916	0.121	781832	keystroke_Key.space	Key.space	n/a
391.156	0.166	782312	keystroke_c	c	n/a
391.276	0.226	782552	keystroke_o	o	n/a
391.382	0.195	782764	keystroke_m	m	n/a
391.6365	0.135	783273	keystroke_p	p	n/a
392.192	0.135	784384	keystroke_o	o	n/a
392.401	0.105	784802	keystroke_u	u	n/a
392.657	0.15	785314	keystroke_n	n	n/a
392.821	0.121	785642	keystroke_d	d	n/a
392.956	0.1055	785912	keystroke_Key.space	Key.space	n/a
393.3765	0.105	786753	keystroke_t	t	n/a
393.587	0.119	787174	keystroke_e	e	n/a
393.856	0.21	787712	keystroke_m	m	n/a
394.096	0.135	788192	keystroke_p	p	n/a
394.186	0.1205	788372	keystroke_e	e	n/a
394.3815	0.09	788763	keystroke_r	r	n/a
394.6215	0.1195	789243	keystroke_a	a	n/a
394.876	0.0905	789752	keystroke_t	t	n/a
395.012	0.1345	790024	keystroke_u	u	n/a
395.1915	0.135	790383	keystroke_r	r	n/a
395.3865	0.105	790773	keystroke_e	e	n/a
395.6265	0.135	791253	keystroke_Key.space	Key.space	n/a
395.8365	0.135	791673	keystroke_d	d	n/a
396.0615	0.105	792123	keystroke_r	r	n/a
396.2115	0.135	792423	keystroke_i	i	n/a
396.3915	0.015	792783	keystroke_v	v	n/a
396.4965	0.075	792993	keystroke_e	e	n/a
396.857	0.119	793714	keystroke_Key.enter	Key.enter	n/a
396.982	11.066	793964	prompt	n/a	membrane jack mails five\n
397.6815	0.105	795363	keystroke_m	m	n/a
397.8165	0.12	795633	keystroke_e	e	n/a
398.1165	0.09	796233	keystroke_m	m	n/a
398.2815	0.105	796563	keystroke_b	b	n/a
398.5515	0.12	797103	keystroke_r	r	n/a
398.822	0.18	797644	keystroke_a	a	n/a
398.972	0.12	797944	keystroke_n	n	n/a
399.167	0.075	798334	keystroke_d	d	n/a
399.392	0.075	798784	keystroke_e	e	n/a
399.497	0.12	798994	keystroke_Key.space	Key.space	n/a
399.737	0.12	799474	keystroke_j	j	n/a
399.872	0.105	799744	keystroke_a	a	n/a
400.157	0.12	800314	keystroke_c	c	n/a
400.396	0.105	800792	keystroke_k	k	n/a
401.071	0.061	802142	keystroke_Key.backspace	Key.backspace	n/a
401.341	0.03	802682	keystroke_Key.backspace	Key.backspace	n/a
401.611	0.046	803222	keystroke_Key.backspace	Key.backspace	n/a
401.911	0.06	803822	keystroke_Key.backspace	Key.backspace	n/a
402.196	0.045	804392	keystroke_Key.backspace	Key.backspace	n/a
402.481	0.12	804962	keystroke_Key.backspace	Key.backspace	n/a
403.591	0.09	807182	keystroke_Key.backspace	Key.backspace	n/a
404.012	0.105	808024	keystroke_e	e	n/a
404.926	0.075	809852	keystroke_Key.space	Key.space	n/a
405.136	0.135	810272	keystroke_j	j	n/a
405.242	0.104	810484	keystroke_a	a	n/a
405.511	0.15	811022	keystroke_c	c	n/a
405.706	0.135	811412	keystroke_k	k	n/a
405.9015	0.105	811803	keystroke_Key.space	Key.space	n/a
406.0965	0.135	812193	keystroke_m	m	n/a
406.2465	0.12	812493	keystroke_a	a	n/a
406.4115	0.075	812823	keystroke_i	i	n/a
406.6065	0.135	813213	keystroke_l	l	n/a
406.7715	0.105	813543	keystroke_s	s	n/a
406.8915	0.075	813783	keystroke_Key.space	Key.space	n/a
407.0865	0.09	814173	keystroke_f	f	n/a
407.221	0.105	814442	keystroke_i	i	n/a
407.581	0.12	815162	keystroke_e	e	n/a
407.956	0.09	815912	keystroke_Key.enter	Key.enter	n/a
408.052	18.8065	816104	prompt	n/a	execute performing prepare defendant\n
409.232	0.1045	818464	keystroke_e	e	n/a
409.5465	0.1205	819093	keystroke_x	x	n/a
409.8015	0.1195	819603	keystroke_c	c	n/a
409.951	0.1205	819902	keystroke_u	u	n/a
410.1765	0.0745	820353	keystroke_t	t	n/a
410.3265	0.1045	820653	keystroke_e	e	n/a
410.491	0.135	820982	keystroke_Key.space	Key.space	n/a
410.9715	0.165	821943	keystroke_p	p	n/a
411.0765	0.15	822153	keystroke_e	e	n/a
411.2865	0.09	822573	keystroke_r	r	n/a
411.4965	0.12	822993	keystroke_f	f	n/a
411.6465	0.12	823293	keystroke_o	o	n/a
411.8265	0.12	823653	keystroke_r	r	n/a
411.9615	0.135	823923	keystroke_m	m	n/a
414.844	0.001	829688	keystroke_Key.left	Key.left	n/a
415.006	0.045	830012	keystroke_Key.left	Key.left	n/a
415.201	0.075	830402	keystroke_Key.left	Key.left	n/a
415.411	0.09	830822	keystroke_Key.left	Key.left	n/a
415.666	0.075	831332	keystroke_Key.left	Key.left	n/a
415.861	0.09	831722	keystroke_Key.left	Key.left	n/a
416.056	0.105	832112	keystroke_Key.left	Key.left	n/a
416.266	0.075	832532	keystroke_Key.left	Key.left	n/a
416.446	0.12	832892	keystroke_Key.left	Key.left	n/a
416.671	0.12	833342	keystroke_Key.left	Key.left	n/a
417.0765	0.09	834153	keystroke_Key.left	Key.left	n/a
417.436	0.1205	834872	keystroke_Key.left	Key.left	n/a
417.751	0.105	835502	keystroke_e	e	n/a
418.606	0.06	837212	keystroke_Key.right	Key.right	n/a
418.801	0.0905	837602	keystroke_Key.right	Key.right	n/a
418.9965	0.09	837993	keystroke_Key.right	Key.right	n/a
419.1765	0.09	838353	keystroke_Key.right	Key.right	n/a
419.3565	0.0905	838713	keystroke_Key.right	Key.right	n/a
419.582	0.09	839164	keystroke_Key.right	Key.right	n/a
419.777	0.075	839554	keystroke_Key.right	Key.right	n/a
419.972	0.075	839944	keystroke_Key.right	Key.right	n/a
420.167	0.09	840334	keystroke_Key.right	Key.right	n/a
420.377	0.15	840754	keystroke_Key.right	Key.right	n/a
420.632	0.165	841264	keystroke_Key.right	Key.right	n/a
421.007	0.135	842014	keystroke_Key.right	Key.right	n/a
422.207	0.105	844414	keystroke_i	i	n/a
422.387	0.135	844774	keystroke_n	n	n/a
422.537	0.105	845074	keystroke_g	g	n/a
422.702	0.165	845404	keystroke_Key.space	Key.space	n/a
423.152	0.15	846304	keystroke_p	p	n/a
423.377	0.12	846754	keystroke_r	r	n/a
423.677	0.12	847354	keystroke_e	e	n/a
423.887	0.195	847774	keystroke_p	p	n/a
424.067	0.105	848134	keystroke_a	a	n/a
424.277	0.105	848554	keystroke_r	r	n/a
424.502	0.105	849004	keystroke_e	e	n/a
424.682	0.09	849364	keystroke_Key.space	Key.space	n/a
424.9065	0.1045	849813	keystroke_d	d	n/a
425.1315	0.1045	850263	keystroke_e	e	n/a
425.3265	0.1195	850653	keystroke_f	f	n/a
425.506	0.1055	851012	keystroke_e	e	n/a
425.6565	0.12	851313	keystroke_n	n	n/a
425.821	0.06	851642	keystroke_d	d	n/a
426.061	0.121	852122	keystroke_a	a	n/a
426.166	0.106	852332	keystroke_n	n	n/a
426.377	0.06	852754	keystroke_t	t	n/a
426.7515	0.105	853503	keystroke_Key.enter	Key.enter	n/a
426.862	9.4465	853724	prompt	n/a	camcorder caused revealed researcher\n
427.5765	0.12	855153	keystroke_c	c	n/a
427.7865	0.135	855573	keystroke_a	a	n/a
427.9665	0.135	855933	keystroke_m	m	n/a
428.5515	0.06	857103	keystroke_c	c	n/a
428.6565	0.105	857313	keystroke_o	o	n/a
428.837	0.075	857674	keystroke_r	r	n/a
429.0615	0.09	858123	keystroke_d	d	n/a
429.2565	0.12	858513	keystroke_e	e	n/a
429.4515	0.09	858903	keystroke_r	r	n/a
429.6015	0.105	859203	keystroke_Key.space	Key.space	n/a
429.7815	0.105	859563	keystroke_c	c	n/a
430.0665	0.15	860133	keystroke_a	a	n/a
430.2915	0.06	860583	keystroke_u	u	n/a
430.5315	0.09	861063	keystroke_s	s	n/a
430.7415	0.105	861483	keystroke_e	e	n/a
430.9515	0.15	861903	keystroke_d	d	n/a
431.1765	0.075	862353	keystroke_Key.space	Key.space	n/a
431.5215	0.105	863043	keystroke_r	r	n/a
431.702	0.09	863404	keystroke_e	e	n/a
431.927	0.06	863854	keystroke_v	v	n/a
432.077	0.12	864154	keystroke_e	e	n/a
432.332	0.15	864664	keystroke_a	a	n/a
432.527	0.135	865054	keystroke_l	l	n/a
432.677	0.1045	865354	keystroke_e	e	n/a
432.901	0.121	865802	keystroke_d	d	n/a
433.051	0.135	866102	keystroke_Key.space	Key.space	n/a
433.442	0.119	866884	keystroke_r	r	n/a
433.636	0.12	867272	keystroke_e	e	n/a
433.936	0.106	867872	keystroke_s	s	n/a
434.177	0.135	868354	keystroke_e	e	n/a
434.492	0.09	868984	keystroke_a	a	n/a
434.852	0.105	869704	keystroke_r	r	n/a
435.197	0.12	870394	keystroke_c	c	n/a
435.392	0.15	870784	keystroke_h	h	n/a
435.557	0.135	871114	keystroke_e	e	n/a
435.767	0.1045	871534	keystroke_r	r	n/a
436.1865	0.12	872373	keystroke_Key.enter	Key.enter	n/a
436.3115	10.632	872623	prompt	n/a	washer competitions certified pathology\n
436.9515	0.105	873903	keystroke_w	w	n/a
437.192	0.105	874384	keystroke_a	a	n/a
437.372	0.135	874744	keystroke_s	s	n/a
437.597	0.105	875194	keystroke_h	h	n/a
437.822	0.135	875644	keystroke_e	e	n/a
438.047	0.105	876094	keystroke_r	r	n/a
438.302	0.105	876604	keystroke_Key.space	Key.space	n/a
438.767	0.15	877534	keystroke_c	c	n/a
438.962	0.225	877924	keystroke_o	o	n/a
439.142	0.165	878284	keystroke_m	m	n/a
439.352	0.12	878704	keystroke_p	p	n/a
439.772	0.1495	879544	keystroke_e	e	n/a
440.042	0.104	880084	keystroke_t	t	n/a
440.207	0.15	880414	keystroke_i	i	n/a
440.401	0.12	880802	keystroke_t	t	n/a
440.582	0.134	881164	keystroke_i	i	n/a
440.747	0.2095	881494	keystroke_o	o	n/a
440.942	0.165	881884	keystroke_n	n	n/a
441.122	0.15	882244	keystroke_s	s	n/a
441.3165	0.0905	882633	keystroke_Key.space	Key.space	n/a
441.6465	0.105	883293	keystroke_c	c	n/a
441.902	0.12	883804	keystroke_e	e	n/a
442.157	0.075	884314	keystroke_r	r	n/a
442.427	0.045	884854	keystroke_t	t	n/a
442.562	0.1205	885124	keystroke_i	i	n/a
442.7565	0.105	885513	keystroke_f	f	n/a
442.9065	0.105	885813	keystroke_i	i	n/a
443.1015	0.075	886203	keystroke_e	e	n/a
443.3265	0.12	886653	keystroke_d	d	n/a
443.5215	0.105	887043	keystroke_Key.space	Key.space	n/a
443.7765	0.15	887553	keystroke_p	p	n/a
444.347	0.135	888694	keystroke_a	a	n/a
444.677	0.09	889354	keystroke_t	t	n/a
444.842	0.12	889684	keystroke_h	h	n/a
445.112	0.075	890224	keystroke_o	o	n/a
445.5015	0.09	891003	keystroke_l	l	n/a
445.7415	0.105	891483	keystroke_o	o	n/a
445.8915	0.105	891783	keystroke_g	g	n/a
446.072	0.135	892144	keystroke_y	y	n/a
446.852	0.09	893704	keystroke_Key.enter	Key.enter	n/a
446.95	8.633	893900	prompt	n/a	out learners costume prep\n
447.7065	0.105	895413	keystroke_o	o	n/a
447.9315	0.12	895863	keystroke_u	u	n/a
448.1565	0.105	896313	keystroke_t	t	n/a
448.2915	0.135	896583	keystroke_Key.space	Key.space	n/a
448.6215	0.24	897243	keystroke_l	l	n/a
448.7865	0.12	897573	keystroke_e	e	n/a
449.0115	0.135	898023	keystroke_a	a	n/a
449.2215	0.12	898443	keystroke_r	r	n/a
449.4315	0.135	898863	keystroke_n	n	n/a
449.5215	0.15	899043	keystroke_e	e	n/a
449.7315	0.135	899463	keystroke_r	r	n/a
450.0615	0.12	900123	keystroke_s	s	n/a
450.2415	0.105	900483	keystroke_Key.space	Key.space	n/a
450.5115	0.135	901023	keystroke_c	c	n/a
450.6315	0.165	901263	keystroke_o	o	n/a
451.382	0.1195	902764	keystroke_s	s	n/a
451.7265	0.12	903453	keystroke_t	t	n/a
451.8915	0.12	903783	keystroke_u	u	n/a
452.1615	0.18	904323	keystroke_m	m	n/a
452.2665	0.135	904533	keystroke_e	e	n/a
453.3615	0.09	906723	keystroke_Key.space	Key.space	n/a
453.6325	0.194	907265	keystroke_p	p	n/a
453.7965	0.12	907593	keystroke_r	r	n/a
454.0515	0.135	908103	keystroke_e	e	n/a
454.2315	0.15	908463	keystroke_p	p	n/a
454.3215	0.12	908643	keystroke_e	e	n/a
454.967	0.09	909934	keystroke_Key.backspace	Key.backspace	n/a
455.447	0.135	910894	keystroke_Key.enter	Key.enter	n/a
455.586	5.412	911172	prompt	n/a	grain fails server dell\n
456.3615	0.09	912723	keystroke_g	g	n/a
456.5715	0.09	913143	keystroke_r	r	n/a
456.7965	0.165	913593	keystroke_a	a	n/a
456.9165	0.165	913833	keystroke_i	i	n/a
457.0965	0.15	914193	keystroke_n	n	n/a
457.2615	0.09	914523	keystroke_Key.space	Key.space	n/a
457.4115	0.105	914823	keystroke_f	f	n/a
457.5765	0.1805	915153	keystroke_a	a	n/a
457.772	0.105	915544	keystroke_i	i	n/a
457.997	0.15	915994	keystroke_l	l	n/a
458.162	0.12	916324	keystroke_s	s	n/a
458.267	0.09	916534	keystroke_Key.space	Key.space	n/a
458.492	0.09	916984	keystroke_s	s	n/a
458.687	0.135	917374	keystroke_e	e	n/a
458.912	0.12	917824	keystroke_r	r	n/a
459.257	0.045	918514	keystroke_v	v	n/a
459.437	0.15	918874	keystroke_e	e	n/a
459.632	0.105	919264	keystroke_r	r	n/a
459.797	0.12	919594	keystroke_Key.space	Key.space	n/a
460.022	0.06	920044	keystroke_d	d	n/a
460.217	0.09	920434	keystroke_e	e	n/a
460.412	0.075	920824	keystroke_l	l	n/a
460.637	0.045	921274	keystroke_l	l	n/a
460.877	0.12	921754	keystroke_Key.enter	Key.enter	n/a
461.0015	12.147	922003	prompt	n/a	stevens foster allied receptor\n
461.687	0.1195	923374	keystroke_s	s	n/a
461.9115	0.105	923823	keystroke_t	t	n/a
462.0465	0.135	924093	keystroke_e	e	n/a
462.3015	0.06	924603	keystroke_v	v	n/a
462.4515	0.135	924903	keystroke_e	e	n/a
462.6615	0.15	925323	keystroke_n	n	n/a
462.902	0.06	925804	keystroke_s	s	n/a
462.992	0.0745	925984	keystroke_Key.space	Key.space	n/a
463.2765	0.09	926553	keystroke_f	f	n/a
463.3515	0.105	926703	keystroke_o	o	n/a
464.2215	0.135	928443	keystroke_s	s	n/a
464.4765	0.09	928953	keystroke_t	t	n/a
464.6565	0.15	929313	keystroke_e	e	n/a
464.837	0.105	929674	keystroke_r	r	n/a
465.032	0.105	930064	keystroke_Key.space	Key.space	n/a
465.242	0.1345	930484	keystroke_a	a	n/a
465.4065	0.075	930813	keystroke_l	l	n/a
465.5715	0.12	931143	keystroke_l	l	n/a
465.7665	0.12	931533	keystroke_e	e	n/a
466.0215	0.075	932043	keystroke_e	e	n/a
466.727	0.105	933454	keystroke_Key.backspace	Key.backspace	n/a
466.892	0.12	933784	keystroke_d	d	n/a
469.7285	0.013	939457	keystroke_Key.backspace	Key.backspace	n/a
469.981	0.165	939962	keystroke_Key.backspace	Key.backspace	n/a
470.566	0.18	941132	keystroke_i	i	n/a
470.762	0.1045	941524	keystroke_e	e	n/a
470.987	0.1345	941974	keystroke_d	d	n/a
471.1065	0.12	942213	keystroke_Key.space	Key.space	n/a
471.4065	0.105	942813	keystroke_r	r	n/a
471.6165	0.09	943233	keystroke_e	e	n/a
471.8865	0.105	943773	keystroke_c	c	n/a
472.0965	0.105	944193	keystroke_e	e	n/a
472.2165	0.135	944433	keystroke_p	p	n/a
472.3525	0.104	944705	keystroke_t	t	n/a
472.5315	0.075	945063	keystroke_o	o	n/a
472.5915	0.12	945183	keystroke_r	r	n/a
473.0265	0.12	946053	keystroke_Key.enter	Key.enter	n/a
473.152	18.0415	946304	prompt	n/a	barnes satisfied particularly night\n
474.0315	0.105	948063	keystroke_b	b	n/a
474.2415	0.165	948483	keystroke_a	a	n/a
474.4515	0.135	948903	keystroke_r	r	n/a
474.6915	0.1655	949383	keystroke_n	n	n/a
474.842	0.105	949684	keystroke_e	e	n/a
475.127	0.09	950254	keystroke_s	s	n/a
475.277	0.104	950554	keystroke_Key.space	Key.space	n/a
475.502	0.09	951004	keystroke_s	s	n/a
475.786	0.0755	951572	keystroke_a	a	n/a
476.0715	0.09	952143	keystroke_t	t	n/a
476.3715	0.105	952743	keystroke_i	i	n/a
476.6115	0.135	953223	keystroke_s	s	n/a
476.9415	0.075	953883	keystroke_f	f	n/a
477.032	0.12	954064	keystroke_i	i	n/a
477.197	0.12	954394	keystroke_e	e	n/a
477.437	0.105	954874	keystroke_d	d	n/a
477.572	0.1345	955144	keystroke_Key.space	Key.space	n/a
477.9015	0.1655	955803	keystroke_p	p	n/a
478.022	0.15	956044	keystroke_a	a	n/a
478.307	0.09	956614	keystroke_r	r	n/a
478.532	0.075	957064	keystroke_t	t	n/a
478.8465	0.135	957693	keystroke_c	c	n/a
479.642	0.075	959284	keystroke_Key.backspace	Key.backspace	n/a
479.927	0.075	959854	keystroke_i	i	n/a
480.017	0.135	960034	keystroke_c	c	n/a
480.272	0.165	960544	keystroke_l	l	n/a
480.8265	0.09	961653	keystroke_Key.backspace	Key.backspace	n/a
481.157	0.075	962314	keystroke_u	u	n/a
481.442	0.15	962884	keystroke_l	l	n/a
482.642	0.12	965284	keystroke_a	a	n/a
482.926	0.121	965852	keystroke_r	r	n/a
483.181	0.121	966362	keystroke_y	y	n/a
485.8835	0.043	971767	keystroke_Key.backspace	Key.backspace	n/a
486.797	0.254	973594	keystroke_Key.backspace	Key.backspace	n/a
488.777	0.135	977554	keystroke_r	r	n/a
488.972	0.195	977944	keystroke_l	l	n/a
489.347	0.12	978694	keystroke_y	y	n/a
489.482	0.135	978964	keystroke_Key.space	Key.space	n/a
489.752	0.12	979504	keystroke_n	n	n/a
489.977	0.1495	979954	keystroke_i	i	n/a
490.1415	0.15	980283	keystroke_g	g	n/a
490.2915	0.15	980583	keystroke_h	h	n/a
490.5915	0.135	981183	keystroke_t	t	n/a
491.0715	0.12	982143	keystroke_Key.enter	Key.enter	n/a
491.197	7.9015	982394	prompt	n/a	fishing mainland mpeg responding\n
491.9865	0.15	983973	keystroke_f	f	n/a
492.1515	0.15	984303	keystroke_i	i	n/a
492.2865	0.195	984573	keystroke_s	s	n/a
492.4365	0.135	984873	keystroke_h	h	n/a
492.6315	0.165	985263	keystroke_i	i	n/a
492.7665	0.2245	985533	keystroke_n	n	n/a
492.962	0.195	985924	keystroke_g	g	n/a
493.112	0.06	986224	keystroke_Key.space	Key.space	n/a
493.367	0.15	986734	keystroke_m	m	n/a
493.562	0.18	987124	keystroke_a	a	n/a
493.697	0.15	987394	keystroke_i	i	n/a
493.892	0.135	987784	keystroke_n	n	n/a
494.192	0.18	988384	keystroke_l	l	n/a
494.387	0.135	988774	keystroke_a	a	n/a
494.582	0.105	989164	keystroke_n	n	n/a
494.732	0.1345	989464	keystroke_d	d	n/a
494.9115	0.06	989823	keystroke_Key.space	Key.space	n/a
495.1665	0.15	990333	keystroke_m	m	n/a
495.542	0.1795	991084	keystroke_p	p	n/a
495.6615	0.1655	991323	keystroke_e	e	n/a
495.932	0.12	991864	keystroke_g	g	n/a
496.127	0.0895	992254	keystroke_Key.space	Key.space	n/a
496.3965	0.135	992793	keystroke_r	r	n/a
496.5915	0.12	993183	keystroke_e	e	n/a
496.8465	0.165	993693	keystroke_s	s	n/a
496.9965	0.135	993993	keystroke_p	p	n/a
497.5215	0.165	995043	keystroke_o	o	n/a
497.7165	0.165	995433	keystroke_n	n	n/a
497.8665	0.165	995733	keystroke_d	d	n/a
498.1665	0.135	996333	keystroke_i	i	n/a
498.3165	0.21	996633	keystroke_n	n	n/a
498.5115	0.12	997023	keystroke_g	g	n/a
498.931	0.165	997862	keystroke_Key.enter	Key.enter	n/a
499.1015	10.9165	998203	prompt	n/a	proceed sensor inquiries automation\n
499.9065	0.15	999813	keystroke_p	p	n/a
500.0265	0.105	1000053	keystroke_r	r	n/a
500.1765	0.12	1000353	keystroke_o	o	n/a
500.3265	0.105	1000653	keystroke_c	c	n/a
500.5665	0.09	1001133	keystroke_e	e	n/a
500.7915	0.09	1001583	keystroke_e	e	n/a
501.0165	0.12	1002033	keystroke_d	d	n/a
501.1515	0.12	1002303	keystroke_Key.space	Key.space	n/a
501.3465	0.09	1002693	keystroke_s	s	n/a
501.4965	0.135	1002993	keystroke_e	e	n/a
501.6615	0.135	1003323	keystroke_n	n	n/a
501.8265	0.15	1003653	keystroke_s	s	n/a
502.0515	0.1355	1004103	keystroke_o	o	n/a
502.202	0.105	1004404	keystroke_r	r	n/a
503.6415	0.135	1007283	keystroke_Key.space	Key.space	n/a
503.8965	0.12	1007793	keystroke_i	i	n/a
504.0315	0.165	1008063	keystroke_n	n	n/a
504.5265	0.18	1009053	keystroke_q	q	n/a
504.7215	0.15	1009443	keystroke_u	u	n/a
505.0515	0.18	1010103	keystroke_i	i	n/a
505.1715	0.165	1010343	keystroke_r	r	n/a
505.3665	0.165	1010733	keystroke_e	e	n/a
506.0265	0.15	1012053	keystroke_e	e	n/a
506.791	0.1205	1013582	keystroke_Key.backspace	Key.backspace	n/a
506.8965	0.12	1013793	keystroke_s	s	n/a
507.2415	0.12	1014483	keystroke_Key.space	Key.space	n/a
507.812	0.165	1015624	keystroke_a	a	n/a
507.992	0.1495	1015984	keystroke_u	u	n/a
508.1565	0.105	1016313	keystroke_t	t	n/a
508.3215	0.21	1016643	keystroke_o	o	n/a
508.8165	0.045	1017633	keystroke_m	m	n/a
508.9665	0.015	1017933	keystroke_a	a	n/a
509.0865	0.105	1018173	keystroke_t	t	n/a
509.1925	0.179	1018385	keystroke_i	i	n/a
509.3565	0.21	1018713	keystroke_o	o	n/a
509.5215	0.15	1019043	keystroke_n	n	n/a
509.8815	0.135	1019763	keystroke_Key.enter	Key.enter	n/a
510.022	12.881	1020044	prompt	n/a	usage sphere responded postposted\n
511.007	0.135	1022014	keystroke_u	u	n/a
511.157	0.15	1022314	keystroke_s	s	n/a
511.487	0.12	1022974	keystroke_a	a	n/a
511.667	0.1195	1023334	keystroke_g	g	n/a
511.8465	0.135	1023693	keystroke_e	e	n/a
512.0265	0.09	1024053	keystroke_Key.space	Key.space	n/a
512.222	0.1345	1024444	keystroke_s	s	n/a
512.3415	0.1645	1024683	keystroke_p	p	n/a
512.521	0.18	1025042	keystroke_e	e	n/a
513.226	0.105	1026452	keystroke_Key.backspace	Key.backspace	n/a
513.512	0.134	1027024	keystroke_h	h	n/a
513.601	0.165	1027202	keystroke_e	e	n/a
513.826	0.105	1027652	keystroke_r	r	n/a
513.946	0.15	1027892	keystroke_e	e	n/a
514.186	0.09	1028372	keystroke_Key.space	Key.space	n/a
514.561	0.106	1029122	keystroke_r	r	n/a
514.697	0.12	1029394	keystroke_e	e	n/a
514.9815	0.12	1029963	keystroke_s	s	n/a
515.1915	0.18	1030383	keystroke_p	p	n/a
515.5515	0.105	1031103	keystroke_o	o	n/a
515.8365	0.12	1031673	keystroke_n	n	n/a
516.1215	0.105	1032243	keystroke_d	d	n/a
516.3915	0.06	1032783	keystroke_e	e	n/a
516.6015	0.135	1033203	keystroke_d	d	n/a
516.7515	0.1045	1033503	keystroke_Key.space	Key.space	n/a
517.037	0.135	1034074	keystroke_p	p	n/a
517.352	0.105	1034704	keystroke_o	o	n/a
517.561	0.135	1035122	keystroke_s	s	n/a
517.981	0.151	1035962	keystroke_t	t	n/a
518.8665	0.1505	1037733	keystroke_p	p	n/a
519.152	0.12	1038304	keystroke_o	o	n/a
521.5985	0.0875	1043197	keystroke_s	s	n/a
521.852	0.105	1043704	keystroke_t	t	n/a
522.076	0.121	1044152	keystroke_e	e	n/a
522.331	0.12	1044662	keystroke_d	d	n/a
522.781	0.1205	1045562	keystroke_Key.enter	Key.enter	n/a
522.9065	8.637	1045813	prompt	n/a	dies heart send measures\n
523.5165	0.105	1047033	keystroke_d	d	n/a
523.6515	0.105	1047303	keystroke_i	i	n/a
523.7715	0.09	1047543	keystroke_e	e	n/a
524.0115	0.15	1048023	keystroke_s	s	n/a
524.2065	0.09	1048413	keystroke_Key.space	Key.space	n/a
524.477	0.18	1048954	keystroke_h	h	n/a
524.702	0.2095	1049404	keystroke_a	a	n/a
525.227	0.12	1050454	keystroke_e	e	n/a
525.527	0.105	1051054	keystroke_a	a	n/a
525.782	0.12	1051564	keystroke_r	r	n/a
526.111	0.076	1052222	keystroke_Key.backspace	Key.backspace	n/a
526.322	0.059	1052644	keystroke_Key.backspace	Key.backspace	n/a
526.517	0.06	1053034	keystroke_Key.backspace	Key.backspace	n/a
526.697	0.075	1053394	keystroke_Key.backspace	Key.backspace	n/a
527.0865	0.1055	1054173	keystroke_e	e	n/a
527.297	0.12	1054594	keystroke_a	a	n/a
527.522	0.105	1055044	keystroke_r	r	n/a
527.747	0.09	1055494	keystroke_t	t	n/a
527.927	0.075	1055854	keystroke_Key.space	Key.space	n/a
528.152	0.12	1056304	keystroke_s	s	n/a
528.362	0.105	1056724	keystroke_e	e	n/a
528.482	0.15	1056964	keystroke_n	n	n/a
528.662	0.135	1057324	keystroke_d	d	n/a
529.141	0.106	1058282	keystroke_Key.space	Key.space	n/a
529.427	0.149	1058854	keystroke_m	m	n/a
529.577	0.12	1059154	keystroke_e	e	n/a
529.9815	0.12	1059963	keystroke_a	a	n/a
530.2515	0.15	1060503	keystroke_s	s	n/a
530.4915	0.165	1060983	keystroke_u	u	n/a
530.6715	0.12	1061343	keystroke_r	r	n/a
530.8665	0.09	1061733	keystroke_e	e	n/a
531.1365	0.0745	1062273	keystroke_s	s	n/a
531.436	0.105	1062872	keystroke_Key.enter	Key.enter	n/a
531.547	8.801	1063094	prompt	n/a	upgrades third excitement decades\n
532.306	0.121	1064612	keystroke_u	u	n/a
532.561	0.181	1065122	keystroke_p	p	n/a
532.786	0.091	1065572	keystroke_g	g	n/a
532.996	0.105	1065992	keystroke_r	r	n/a
533.252	0.15	1066504	keystroke_a	a	n/a
533.506	0.106	1067012	keystroke_d	d	n/a
533.731	0.09	1067462	keystroke_e	e	n/a
533.972	0.164	1067944	keystroke_s	s	n/a
534.106	0.1055	1068212	keystroke_Key.space	Key.space	n/a
534.3165	0.105	1068633	keystroke_t	t	n/a
534.4665	0.12	1068933	keystroke_h	h	n/a
534.6615	0.15	1069323	keystroke_i	i	n/a
534.7665	0.105	1069533	keystroke_r	r	n/a
535.0665	0.12	1070133	keystroke_d	d	n/a
535.2015	0.135	1070403	keystroke_Key.space	Key.space	n/a
535.4415	0.09	1070883	keystroke_e	e	n/a
535.7565	0.15	1071513	keystroke_x	x	n/a
536.6265	0.0445	1073253	keystroke_c	c	n/a
537.0765	0.09	1074153	keystroke_i	i	n/a
537.3615	0.165	1074723	keystroke_t	t	n/a
537.6465	0.105	1075293	keystroke_e	e	n/a
537.7665	0.15	1075533	keystroke_m	m	n/a
537.9015	0.15	1075803	keystroke_e	e	n/a
538.0665	0.15	1076133	keystroke_n	n	n/a
538.2315	0.09	1076463	keystroke_t	t	n/a
538.4265	0.105	1076853	keystroke_Key.space	Key.space	n/a
538.5765	0.09	1077153	keystroke_d	d	n/a
538.7865	0.075	1077573	keystroke_e	e	n/a
539.0865	0.075	1078173	keystroke_c	c	n/a
539.2515	0.135	1078503	keystroke_a	a	n/a
539.4465	0.12	1078893	keystroke_d	d	n/a
539.6865	0.09	1079373	keystroke_e	e	n/a
539.9415	0.075	1079883	keystroke_s	s	n/a
540.2415	0.105	1080483	keystroke_Key.enter	Key.enter	n/a
540.351	39.331	1080702	prompt	n/a	hard transformation shopping permission\n
541.3065	0.165	1082613	keystroke_h	h	n/a
541.4565	0.12	1082913	keystroke_a	a	n/a
541.7265	0.1055	1083453	keystroke_r	r	n/a
541.967	0.135	1083934	keystroke_d	d	n/a
542.132	0.105	1084264	keystroke_Key.space	Key.space	n/a
542.342	0.09	1084684	keystroke_t	t	n/a
542.5665	0.075	1085133	keystroke_r	r	n/a
542.8215	0.1955	1085643	keystroke_a	a	n/a
543.721	0.106	1087442	keystroke_n	n	n/a
543.871	0.12	1087742	keystroke_s	s	n/a
544.081	0.12	1088162	keystroke_f	f	n/a
544.186	0.135	1088372	keystroke_o	o	n/a
544.351	0.12	1088702	keystroke_r	r	n/a
544.501	0.151	1089002	keystroke_m	m	n/a
544.741	0.1805	1089482	keystroke_a	a	n/a
545.462	0.1045	1090924	keystroke_t	t	n/a
545.6115	0.1205	1091223	keystroke_i	i	n/a
545.732	0.2245	1091464	keystroke_o	o	n/a
545.9415	0.195	1091883	keystroke_n	n	n/a
546.1215	0.12	1092243	keystroke_Key.space	Key.space	n/a
546.2715	0.12	1092543	keystroke_s	s	n/a
546.4215	0.15	1092843	keystroke_h	h	n/a
546.7515	0.1345	1093503	keystroke_o	o	n/a
546.976	0.09	1093952	keystroke_p	p	n/a
547.127	0.12	1094254	keystroke_p	p	n/a
547.382	0.135	1094764	keystroke_i	i	n/a
547.532	0.195	1095064	keystroke_n	n	n/a
547.712	0.1195	1095424	keystroke_g	g	n/a
547.8165	0.105	1095633	keystroke_Key.space	Key.space	n/a
548.3565	0.195	1096713	keystroke_p	p	n/a
548.4615	0.165	1096923	keystroke_e	e	n/a
548.6715	0.09	1097343	keystroke_r	r	n/a
549.023	0.143	1098046	keystroke_m	m	n/a
549.271	0.09	1098542	keystroke_i	i	n/a
549.436	0.09	1098872	keystroke_s	s	n/a
549.6015	0.12	1099203	keystroke_s	s	n/a
549.7365	0.135	1099473	keystroke_i	i	n/a
549.9015	0.225	1099803	keystroke_o	o	n/a
550.0815	0.135	1100163	keystroke_n	n	n/a
579.638	0.043	1159276	keystroke_Key.enter	Key.enter	n/a
579.6875	8.531	1159375	prompt	n/a	shoppers tackle rays something\n
580.6555	0.15	1161311	keystroke_s	s	n/a
580.7905	0.18	1161581	keystroke_h	h	n/a
580.9855	0.15	1161971	keystroke_o	o	n/a
581.256	0.105	1162512	keystroke_p	p	n/a
581.6015	0.015	1163203	keystroke_p	p	n/a
581.6315	0.1945	1163263	keystroke_e	e	n/a
581.796	0.135	1163592	keystroke_r	r	n/a
582.051	0.1645	1164102	keystroke_s	s	n/a
582.2305	0.105	1164461	keystroke_Key.space	Key.space	n/a
582.4405	0.1055	1164881	keystroke_t	t	n/a
582.7555	0.1355	1165511	keystroke_a	a	n/a
583.071	0.1795	1166142	keystroke_c	c	n/a
583.2355	0.15	1166471	keystroke_k	k	n/a
584.661	0.135	1169322	keystroke_l	l	n/a
584.781	0.135	1169562	keystroke_e	e	n/a
584.961	0.0905	1169922	keystroke_Key.space	Key.space	n/a
585.1865	0.12	1170373	keystroke_r	r	n/a
585.4415	0.135	1170883	keystroke_a	a	n/a
585.7565	0.135	1171513	keystroke_y	y	n/a
585.8615	0.135	1171723	keystroke_s	s	n/a
585.9515	0.15	1171903	keystroke_Key.space	Key.space	n/a
586.1765	0.105	1172353	keystroke_s	s	n/a
586.2815	0.135	1172563	keystroke_o	o	n/a
586.476	0.135	1172952	keystroke_m	m	n/a
586.626	0.135	1173252	keystroke_e	e	n/a
586.941	0.09	1173882	keystroke_t	t	n/a
587.076	0.135	1174152	keystroke_h	h	n/a
587.256	0.165	1174512	keystroke_i	i	n/a
587.406	0.21	1174812	keystroke_n	n	n/a
587.617	0.119	1175234	keystroke_g	g	n/a
588.186	0.03	1176372	keystroke_Key.enter	Key.enter	n/a
588.221	6.928	1176442	prompt	n/a	exact sail bishop thereof\n
588.892	0.09	1177784	keystroke_e	e	n/a
589.2215	0.1505	1178443	keystroke_x	x	n/a
589.567	0.105	1179134	keystroke_a	a	n/a
589.867	0.075	1179734	keystroke_c	c	n/a
590.152	0.06	1180304	keystroke_t	t	n/a
590.362	0.06	1180724	keystroke_Key.space	Key.space	n/a
590.512	0.105	1181024	keystroke_s	s	n/a
590.752	0.165	1181504	keystroke_a	a	n/a
590.902	0.0745	1181804	keystroke_i	i	n/a
591.0965	0.135	1182193	keystroke_l	l	n/a
591.9065	0.1055	1183813	keystroke_Key.space	Key.space	n/a
592.2665	0.076	1184533	keystroke_b	b	n/a
592.3575	0.12	1184715	keystroke_i	i	n/a
592.5075	0.1345	1185015	keystroke_s	s	n/a
592.642	0.1195	1185284	keystroke_h	h	n/a
592.8065	0.1505	1185613	keystroke_o	o	n/a
593.092	0.1505	1186184	keystroke_p	p	n/a
593.3625	0.09	1186725	keystroke_Key.space	Key.space	n/a
593.4975	0.15	1186995	keystroke_t	t	n/a
593.6475	0.1345	1187295	keystroke_h	h	n/a
593.767	0.18	1187534	keystroke_e	e	n/a
593.977	0.135	1187954	keystroke_r	r	n/a
594.157	0.15	1188314	keystroke_e	e	n/a
594.517	0.12	1189034	keystroke_o	o	n/a
594.638	0.119	1189276	keystroke_f	f	n/a
595.027	0.121	1190054	keystroke_Key.enter	Key.enter	n/a
595.152	7.152	1190304	prompt	n/a	habitat usual coral how's\n
595.778	0.1345	1191556	keystroke_h	h	n/a
595.958	0.195	1191916	keystroke_a	a	n/a
596.468	0.165	1192936	keystroke_b	b	n/a
596.768	0.09	1193536	keystroke_i	i	n/a
596.918	0.105	1193836	keystroke_t	t	n/a
597.2025	0.165	1194405	keystroke_a	a	n/a
597.4875	0.12	1194975	keystroke_t	t	n/a
597.6525	0.09	1195305	keystroke_Key.space	Key.space	n/a
597.893	0.105	1195786	keystroke_u	u	n/a
598.043	0.075	1196086	keystroke_s	s	n/a
598.298	0.075	1196596	keystroke_u	u	n/a
598.613	0.165	1197226	keystroke_a	a	n/a
598.748	0.15	1197496	keystroke_l	l	n/a
598.943	0.104	1197886	keystroke_Key.space	Key.space	n/a
599.198	0.134	1198396	keystroke_c	c	n/a
599.318	0.09	1198636	keystroke_o	o	n/a
599.543	0.1195	1199086	keystroke_r	r	n/a
599.8125	0.165	1199625	keystroke_a	a	n/a
599.9475	0.15	1199895	keystroke_l	l	n/a
600.1125	0.12	1200225	keystroke_Key.space	Key.space	n/a
600.3975	0.12	1200795	keystroke_h	h	n/a
600.5475	0.165	1201095	keystroke_o	o	n/a
600.7575	0.105	1201515	keystroke_w	w	n/a
601.5075	0.12	1203015	keystroke_'	'	n/a
601.7395	0.128	1203479	keystroke_s	s	n/a
602.2275	0.075	1204455	keystroke_Key.enter	Key.enter	n/a
602.307	8.2025	1204614	prompt	n/a	earned thank amended lines\n
602.963	0.105	1205926	keystroke_e	e	n/a
603.188	0.134	1206376	keystroke_a	a	n/a
603.398	0.105	1206796	keystroke_r	r	n/a
603.562	0.09	1207124	keystroke_n	n	n/a
603.668	0.104	1207336	keystroke_e	e	n/a
603.907	0.136	1207814	keystroke_d	d	n/a
604.043	0.119	1208086	keystroke_Key.space	Key.space	n/a
604.252	0.09	1208504	keystroke_t	t	n/a
604.357	0.106	1208714	keystroke_h	h	n/a
604.567	0.2115	1209134	keystroke_a	a	n/a
604.7625	0.121	1209525	keystroke_n	n	n/a
604.972	0.165	1209944	keystroke_k	k	n/a
605.2725	0.075	1210545	keystroke_Key.space	Key.space	n/a
605.977	0.1505	1211954	keystroke_a	a	n/a
606.1885	0.135	1212377	keystroke_m	m	n/a
606.517	0.121	1213034	keystroke_e	e	n/a
607.5075	0.1355	1215015	keystroke_n	n	n/a
607.868	0.1345	1215736	keystroke_d	d	n/a
608.258	0.135	1216516	keystroke_e	e	n/a
608.6175	0.1505	1217235	keystroke_d	d	n/a
608.813	0.12	1217626	keystroke_Key.space	Key.space	n/a
609.218	0.15	1218436	keystroke_l	l	n/a
609.443	0.15	1218886	keystroke_i	i	n/a
609.608	0.195	1219216	keystroke_n	n	n/a
609.788	0.12	1219576	keystroke_e	e	n/a
610.073	0.12	1220146	keystroke_s	s	n/a
610.433	0.075	1220866	keystroke_Key.enter	Key.enter	n/a
610.5145	12.9405	1221029	prompt	n/a	warrant plumbing horrible aged\n
611.288	0.0905	1222576	keystroke_w	w	n/a
611.483	0.135	1222966	keystroke_a	a	n/a
611.693	0.075	1223386	keystroke_r	r	n/a
611.858	0.075	1223716	keystroke_r	r	n/a
612.0685	0.1795	1224137	keystroke_a	a	n/a
612.203	0.135	1224406	keystroke_n	n	n/a
612.398	0.1355	1224796	keystroke_t	t	n/a
612.5485	0.1495	1225097	keystroke_Key.space	Key.space	n/a
612.923	0.15	1225846	keystroke_p	p	n/a
613.2835	0.18	1226567	keystroke_l	l	n/a
613.6285	0.105	1227257	keystroke_u	u	n/a
613.8985	0.135	1227797	keystroke_m	m	n/a
617.561	0.1165	1235122	keystroke_b	b	n/a
617.8725	0.1355	1235745	keystroke_i	i	n/a
618.083	0.1345	1236166	keystroke_n	n	n/a
618.1885	0.1345	1236377	keystroke_g	g	n/a
618.383	0.135	1236766	keystroke_Key.space	Key.space	n/a
619.014	0.1185	1238028	keystroke_h	h	n/a
619.1475	0.1805	1238295	keystroke_o	o	n/a
619.343	0.121	1238686	keystroke_r	r	n/a
619.6435	0.1195	1239287	keystroke_r	r	n/a
620.0035	0.12	1240007	keystroke_i	i	n/a
620.2435	0.12	1240487	keystroke_v	v	n/a
620.3935	0.165	1240787	keystroke_l	l	n/a
621.0535	0.03	1242107	keystroke_Key.backspace	Key.backspace	n/a
621.1885	0.0745	1242377	keystroke_Key.backspace	Key.backspace	n/a
621.398	0.165	1242796	keystroke_b	b	n/a
621.578	0.151	1243156	keystroke_l	l	n/a
621.758	0.135	1243516	keystroke_e	e	n/a
622.0735	0.12	1244147	keystroke_Key.space	Key.space	n/a
622.418	0.12	1244836	keystroke_a	a	n/a
622.568	0.135	1245136	keystroke_g	g	n/a
622.763	0.105	1245526	keystroke_e	e	n/a
622.973	0.165	1245946	keystroke_d	d	n/a
623.3185	0.135	1246637	keystroke_Key.enter	Key.enter	n/a
623.4585	7.3465	1246917	prompt	n/a	wild eyed authentic models\n
624.1285	0.15	1248257	keystroke_w	w	n/a
624.2635	0.105	1248527	keystroke_i	i	n/a
624.4735	0.165	1248947	keystroke_l	l	n/a
624.6235	0.15	1249247	keystroke_d	d	n/a
624.8035	0.135	1249607	keystroke_Key.space	Key.space	n/a
625.0435	0.105	1250087	keystroke_e	e	n/a
625.449	0.12	1250898	keystroke_y	y	n/a
625.734	0.105	1251468	keystroke_e	e	n/a
625.989	0.15	1251978	keystroke_d	d	n/a
626.184	0.135	1252368	keystroke_Key.space	Key.space	n/a
626.9785	0.1655	1253957	keystroke_a	a	n/a
627.129	0.135	1254258	keystroke_u	u	n/a
627.294	0.105	1254588	keystroke_t	t	n/a
627.474	0.105	1254948	keystroke_h	h	n/a
627.549	0.12	1255098	keystroke_e	e	n/a
627.834	0.21	1255668	keystroke_n	n	n/a
628.134	0.12	1256268	keystroke_t	t	n/a
628.314	0.135	1256628	keystroke_i	i	n/a
628.644	0.15	1257288	keystroke_c	c	n/a
628.944	0.15	1257888	keystroke_Key.space	Key.space	n/a
629.483	0.166	1258966	keystroke_m	m	n/a
629.693	0.12	1259386	keystroke_o	o	n/a
629.814	0.119	1259628	keystroke_d	d	n/a
630.038	0.121	1260076	keystroke_e	e	n/a
630.173	0.136	1260346	keystroke_l	l	n/a
630.338	0.105	1260676	keystroke_s	s	n/a
630.6985	0.105	1261397	keystroke_Key.enter	Key.enter	n/a
630.809	21.8815	1261618	prompt	n/a	agreement fighters leave boundary\n
631.419	0.15	1262838	keystroke_a	a	n/a
631.6145	0.12	1263229	keystroke_g	g	n/a
631.914	0.075	1263828	keystroke_r	r	n/a
632.409	0.09	1264818	keystroke_e	e	n/a
632.574	0.105	1265148	keystroke_e	e	n/a
632.754	0.165	1265508	keystroke_e	e	n/a
632.979	0.135	1265958	keystroke_m	m	n/a
633.099	0.1945	1266198	keystroke_e	e	n/a
633.2785	0.135	1266557	keystroke_n	n	n/a
633.3985	0.12	1266797	keystroke_t	t	n/a
633.5335	0.105	1267067	keystroke_Key.space	Key.space	n/a
633.7585	0.12	1267517	keystroke_f	f	n/a
633.8935	0.105	1267787	keystroke_i	i	n/a
634.0435	0.135	1268087	keystroke_g	g	n/a
634.2235	0.36	1268447	keystroke_h	h	n/a
636.9715	0	1273943	keystroke_Key.left	Key.left	n/a
637.2685	0.0605	1274537	keystroke_Key.left	Key.left	n/a
637.569	0.06	1275138	keystroke_Key.left	Key.left	n/a
637.899	0.045	1275798	keystroke_Key.left	Key.left	n/a
638.214	0.075	1276428	keystroke_Key.left	Key.left	n/a
638.514	0.105	1277028	keystroke_Key.left	Key.left	n/a
638.799	0.135	1277598	keystroke_Key.left	Key.left	n/a
639.114	0.12	1278228	keystroke_Key.left	Key.left	n/a
639.429	0.12	1278858	keystroke_Key.left	Key.left	n/a
640.569	0.135	1281138	keystroke_Key.backspace	Key.backspace	n/a
642.369	0.06	1284738	keystroke_Key.right	Key.right	n/a
642.6085	0.075	1285217	keystroke_Key.right	Key.right	n/a
642.8485	0.045	1285697	keystroke_Key.right	Key.right	n/a
643.0885	0.045	1286177	keystroke_Key.right	Key.right	n/a
643.314	0.0745	1286628	keystroke_Key.right	Key.right	n/a
643.5985	0.045	1287197	keystroke_Key.right	Key.right	n/a
644.0185	0.045	1288037	keystroke_Key.right	Key.right	n/a
644.259	0.09	1288518	keystroke_Key.right	Key.right	n/a
644.484	0.09	1288968	keystroke_Key.right	Key.right	n/a
645.684	0.12	1291368	keystroke_t	t	n/a
645.864	0.135	1291728	keystroke_e	e	n/a
646.014	0.105	1292028	keystroke_r	r	n/a
646.464	0.09	1292928	keystroke_s	s	n/a
646.659	0.105	1293318	keystroke_Key.space	Key.space	n/a
646.869	0.18	1293738	keystroke_l	l	n/a
646.989	0.135	1293978	keystroke_e	e	n/a
647.2145	0.12	1294429	keystroke_a	a	n/a
647.6045	0.12	1295209	keystroke_e	e	n/a
647.7845	0.09	1295569	keystroke_Key.space	Key.space	n/a
648.2045	0.15	1296409	keystroke_b	b	n/a
648.3695	0.165	1296739	keystroke_o	o	n/a
648.9095	0.075	1297819	keystroke_Key.backspace	Key.backspace	n/a
649.1345	0.09	1298269	keystroke_Key.backspace	Key.backspace	n/a
649.3285	0.105	1298657	keystroke_Key.backspace	Key.backspace	n/a
649.809	0.12	1299618	keystroke_Key.backspace	Key.backspace	n/a
649.989	0.12	1299978	keystroke_v	v	n/a
650.199	0.135	1300398	keystroke_e	e	n/a
650.394	0.12	1300788	keystroke_Key.space	Key.space	n/a
650.829	0.1205	1301658	keystroke_b	b	n/a
650.934	0.1055	1301868	keystroke_o	o	n/a
651.159	0.09	1302318	keystroke_u	u	n/a
651.399	0.12	1302798	keystroke_n	n	n/a
651.504	0.105	1303008	keystroke_d	d	n/a
651.699	0.1355	1303398	keystroke_a	a	n/a
651.9545	0.135	1303909	keystroke_r	r	n/a
652.1345	0.135	1304269	keystroke_y	y	n/a
652.5545	0.135	1305109	keystroke_Key.enter	Key.enter	n/a
652.694	9.822	1305388	prompt	n/a	agrees cindy hours kinase\n
653.754	0.166	1307508	keystroke_a	a	n/a
653.964	0.105	1307928	keystroke_g	g	n/a
654.205	0.104	1308410	keystroke_r	r	n/a
654.415	0.12	1308830	keystroke_r	r	n/a
654.744	0.135	1309488	keystroke_e	e	n/a
655.5385	0.061	1311077	keystroke_Key.backspace	Key.backspace	n/a
655.795	0.135	1311590	keystroke_Key.backspace	Key.backspace	n/a
656.199	0.12	1312398	keystroke_e	e	n/a
656.4395	0.105	1312879	keystroke_e	e	n/a
656.6945	0.12	1313389	keystroke_s	s	n/a
656.8745	0.12	1313749	keystroke_Key.space	Key.space	n/a
657.0545	0.165	1314109	keystroke_c	c	n/a
657.1745	0.165	1314349	keystroke_i	i	n/a
657.3245	0.1195	1314649	keystroke_n	n	n/a
657.445	0.15	1314890	keystroke_d	d	n/a
657.745	0.1345	1315490	keystroke_y	y	n/a
657.8945	0.21	1315789	keystroke_Key.space	Key.space	n/a
658.1795	0.195	1316359	keystroke_h	h	n/a
658.4345	0.18	1316869	keystroke_o	o	n/a
658.7345	0.135	1317469	keystroke_u	u	n/a
659.0495	0.105	1318099	keystroke_r	r	n/a
659.3795	0.12	1318759	keystroke_s	s	n/a
660.1145	0.105	1320229	keystroke_Key.space	Key.space	n/a
660.6695	0.135	1321339	keystroke_k	k	n/a
660.9395	0.15	1321879	keystroke_i	i	n/a
661.4045	0.12	1322809	keystroke_n	n	n/a
661.5845	0.135	1323169	keystroke_a	a	n/a
661.8245	0.1355	1323649	keystroke_s	s	n/a
662.05	0.1345	1324100	keystroke_e	e	n/a
662.3945	0.12	1324789	keystroke_Key.enter	Key.enter	n/a
662.52	13.347	1325040	prompt	n/a	venice modification reliability scotland\n
663.5195	0.12	1327039	keystroke_v	v	n/a
663.759	0.12	1327518	keystroke_e	e	n/a
663.924	0.135	1327848	keystroke_n	n	n/a
664.134	0.15	1328268	keystroke_i	i	n/a
664.285	0.134	1328570	keystroke_c	c	n/a
664.614	0.09	1329228	keystroke_e	e	n/a
664.734	0.1205	1329468	keystroke_Key.space	Key.space	n/a
665.049	0.151	1330098	keystroke_m	m	n/a
665.26	0.1645	1330520	keystroke_o	o	n/a
665.515	0.105	1331030	keystroke_d	d	n/a
666.19	0.1345	1332380	keystroke_i	i	n/a
666.3845	0.1655	1332769	keystroke_f	f	n/a
666.595	0.12	1333190	keystroke_i	i	n/a
667.135	0.12	1334270	keystroke_c	c	n/a
667.36	0.105	1334720	keystroke_a	a	n/a
667.615	0.134	1335230	keystroke_t	t	n/a
667.78	0.105	1335560	keystroke_i	i	n/a
667.87	0.285	1335740	keystroke_o	o	n/a
668.065	0.15	1336130	keystroke_n	n	n/a
668.199	0.18	1336398	keystroke_Key.space	Key.space	n/a
668.47	0.135	1336940	keystroke_r	r	n/a
669.085	0.165	1338170	keystroke_e	e	n/a
669.37	0.165	1338740	keystroke_l	l	n/a
669.73	0.1645	1339460	keystroke_a	a	n/a
670.5245	0.135	1341049	keystroke_Key.backspace	Key.backspace	n/a
670.8845	0.18	1341769	keystroke_i	i	n/a
671.0495	0.165	1342099	keystroke_a	a	n/a
671.4095	0.12	1342819	keystroke_b	b	n/a
671.6345	0.105	1343269	keystroke_i	i	n/a
671.8445	0.165	1343689	keystroke_l	l	n/a
672.0845	0.15	1344169	keystroke_t	t	n/a
672.2195	0.165	1344439	keystroke_i	i	n/a
672.6395	0.15	1345279	keystroke_y	y	n/a
672.7745	0.18	1345549	keystroke_Key.space	Key.space	n/a
672.9695	0.12	1345939	keystroke_s	s	n/a
673.1945	0.15	1346389	keystroke_c	c	n/a
673.9895	0.12	1347979	keystroke_o	o	n/a
674.3195	0.15	1348639	keystroke_t	t	n/a
674.8145	0.15	1349629	keystroke_l	l	n/a
675.0095	0.1805	1350019	keystroke_a	a	n/a
675.204	0.18	1350408	keystroke_n	n	n/a
675.34	0.12	1350680	keystroke_d	d	n/a
675.7295	0.135	1351459	keystroke_Key.enter	Key.enter	n/a
675.871	10.9155	1351742	prompt	n/a	conversation bears packed comparative\n
676.584	0.1355	1353168	keystroke_c	c	n/a
676.7645	0.18	1353529	keystroke_o	o	n/a
676.8995	0.135	1353799	keystroke_n	n	n/a
676.9895	0.105	1353979	keystroke_v	v	n/a
677.245	0.21	1354490	keystroke_e	e	n/a
677.41	0.135	1354820	keystroke_r	r	n/a
677.8745	0.09	1355749	keystroke_s	s	n/a
678.1295	0.135	1356259	keystroke_a	a	n/a
678.4595	0.12	1356919	keystroke_t	t	n/a
678.6245	0.135	1357249	keystroke_i	i	n/a
678.7295	0.225	1357459	keystroke_o	o	n/a
678.8945	0.225	1357789	keystroke_n	n	n/a
679.0745	0.1495	1358149	keystroke_Key.space	Key.space	n/a
679.405	0.105	1358810	keystroke_b	b	n/a
679.704	0.135	1359408	keystroke_e	e	n/a
680.169	0.136	1360338	keystroke_a	a	n/a
681.13	0.1045	1362260	keystroke_r	r	n/a
681.5045	0.15	1363009	keystroke_s	s	n/a
681.9245	0.135	1363849	keystroke_Key.space	Key.space	n/a
682.3295	0.195	1364659	keystroke_p	p	n/a
682.4495	0.105	1364899	keystroke_a	a	n/a
682.7945	0.15	1365589	keystroke_c	c	n/a
682.9595	0.135	1365919	keystroke_k	k	n/a
683.1545	0.1055	1366309	keystroke_e	e	n/a
683.38	0.12	1366760	keystroke_d	d	n/a
683.53	0.105	1367060	keystroke_Key.space	Key.space	n/a
683.8	0.135	1367600	keystroke_c	c	n/a
683.98	0.225	1367960	keystroke_o	o	n/a
684.325	0.24	1368650	keystroke_m	m	n/a
684.835	0.195	1369670	keystroke_p	p	n/a
685.015	0.12	1370030	keystroke_a	a	n/a
685.285	0.09	1370570	keystroke_r	r	n/a
685.5545	0.12	1371109	keystroke_a	a	n/a
685.8395	0.1055	1371679	keystroke_t	t	n/a
686.02	0.1045	1372040	keystroke_i	i	n/a
686.244	0.0905	1372488	keystroke_v	v	n/a
686.4395	0.12	1372879	keystroke_e	e	n/a
686.6495	0.135	1373299	keystroke_Key.enter	Key.enter	n/a
686.792	7.45	1373584	prompt	n/a	dude caring newer collins\n
687.4145	0.165	1374829	keystroke_d	d	n/a
687.6395	0.1355	1375279	keystroke_u	u	n/a
687.7445	0.1055	1375489	keystroke_d	d	n/a
687.985	0.12	1375970	keystroke_e	e	n/a
688.15	0.12	1376300	keystroke_Key.space	Key.space	n/a
688.345	0.12	1376690	keystroke_c	c	n/a
688.525	0.135	1377050	keystroke_a	a	n/a
688.765	0.09	1377530	keystroke_r	r	n/a
688.915	0.165	1377830	keystroke_i	i	n/a
689.08	0.225	1378160	keystroke_n	n	n/a
689.26	0.12	1378520	keystroke_g	g	n/a
689.875	0.12	1379750	keystroke_Key.space	Key.space	n/a
690.115	0.135	1380230	keystroke_n	n	n/a
690.205	0.135	1380410	keystroke_e	e	n/a
690.445	0.09	1380890	keystroke_w	w	n/a
691.7045	0.135	1383409	keystroke_e	e	n/a
691.9145	0.075	1383829	keystroke_r	r	n/a
692.2445	0.12	1384489	keystroke_Key.space	Key.space	n/a
692.6345	0.18	1385269	keystroke_c	c	n/a
692.7845	0.09	1385569	keystroke_o	o	n/a
693.3695	0.165	1386739	keystroke_i	i	n/a
693.6095	0.15	1387219	keystroke_n	n	n/a
693.8345	0.045	1387669	keystroke_s	s	n/a
694.1195	0.12	1388239	keystroke_Key.enter	Key.enter	n/a
694.245	21.387	1388490	prompt	n/a	harmful jewish testament intersection\n
695.35	0.1045	1390700	keystroke_h	h	n/a
695.4695	0.135	1390939	keystroke_a	a	n/a
695.68	0.135	1391360	keystroke_r	r	n/a
695.8	0.165	1391600	keystroke_m	m	n/a
696.0095	0.1355	1392019	keystroke_f	f	n/a
696.235	0.135	1392470	keystroke_u	u	n/a
696.5345	0.135	1393069	keystroke_l	l	n/a
696.82	0.09	1393640	keystroke_Key.space	Key.space	n/a
697.21	0.18	1394420	keystroke_j	j	n/a
701.6825	0.283	1403365	keystroke_Key.down	Key.down	n/a
702.7895	0.075	1405579	keystroke_Key.backspace	Key.backspace	n/a
704.5905	0.029	1409181	keystroke_e	e	n/a
704.7405	0.09	1409481	keystroke_w	w	n/a
705.175	0.06	1410350	keystroke_Key.backspace	Key.backspace	n/a
705.31	0.075	1410620	keystroke_Key.backspace	Key.backspace	n/a
705.43	0.045	1410860	keystroke_Key.backspace	Key.backspace	n/a
706.555	0.09	1413110	keystroke_Key.space	Key.space	n/a
706.765	0.135	1413530	keystroke_j	j	n/a
707.095	0.12	1414190	keystroke_w	w	n/a
707.32	0.0755	1414640	keystroke_e	e	n/a
707.7705	0.045	1415541	keystroke_Key.backspace	Key.backspace	n/a
707.8755	0.075	1415751	keystroke_Key.backspace	Key.backspace	n/a
708.0105	0.105	1416021	keystroke_e	e	n/a
708.2205	0.104	1416441	keystroke_w	w	n/a
708.9105	0.09	1417821	keystroke_i	i	n/a
709.0155	0.104	1418031	keystroke_s	s	n/a
709.1645	0.136	1418329	keystroke_h	h	n/a
709.3145	0.105	1418629	keystroke_Key.space	Key.space	n/a
709.7195	0.09	1419439	keystroke_t	t	n/a
709.9005	0.18	1419801	keystroke_e	e	n/a
710.4405	0.105	1420881	keystroke_s	s	n/a
710.68	0.075	1421360	keystroke_t	t	n/a
710.8605	0.12	1421721	keystroke_a	a	n/a
711.0405	0.135	1422081	keystroke_m	m	n/a
711.1605	0.12	1422321	keystroke_e	e	n/a
711.3105	0.15	1422621	keystroke_n	n	n/a
711.4455	0.09	1422891	keystroke_t	t	n/a
711.6405	0.105	1423281	keystroke_Key.space	Key.space	n/a
712.0005	0.12	1424001	keystroke_i	i	n/a
712.1355	0.15	1424271	keystroke_n	n	n/a
712.2705	0.0895	1424541	keystroke_t	t	n/a
712.42	0.15	1424840	keystroke_e	e	n/a
712.6	0.09	1425200	keystroke_r	r	n/a
712.915	0.105	1425830	keystroke_s	s	n/a
713.245	0.075	1426490	keystroke_c	c	n/a
713.71	0.075	1427420	keystroke_Key.backspace	Key.backspace	n/a
713.98	0.0905	1427960	keystroke_e	e	n/a
714.325	0.03	1428650	keystroke_c	c	n/a
714.865	0.0755	1429730	keystroke_t	t	n/a
714.9555	0.1345	1429911	keystroke_i	i	n/a
715.075	0.21	1430150	keystroke_o	o	n/a
715.21	0.12	1430420	keystroke_n	n	n/a
715.51	0.12	1431020	keystroke_Key.enter	Key.enter	n/a
715.6355	17.4415	1431271	prompt	n/a	administered subscribers boston makers\n
716.455	0.105	1432910	keystroke_a	a	n/a
716.605	0.135	1433210	keystroke_d	d	n/a
717.175	0.105	1434350	keystroke_m	m	n/a
717.4	0.105	1434800	keystroke_i	i	n/a
717.685	0.09	1435370	keystroke_n	n	n/a
717.94	0.075	1435880	keystroke_i	i	n/a
718.06	0.105	1436120	keystroke_s	s	n/a
718.27	0.09	1436540	keystroke_t	t	n/a
718.48	0.165	1436960	keystroke_e	e	n/a
718.705	0.075	1437410	keystroke_r	r	n/a
718.93	0.105	1437860	keystroke_d	d	n/a
719.11	0.09	1438220	keystroke_Key.space	Key.space	n/a
719.4555	0.135	1438911	keystroke_s	s	n/a
719.6955	0.15	1439391	keystroke_u	u	n/a
719.9505	0.015	1439901	keystroke_b	b	n/a
721.7055	0.09	1443411	keystroke_Key.backspace	Key.backspace	n/a
721.945	0.06	1443890	keystroke_Key.backspace	Key.backspace	n/a
722.215	0.045	1444430	keystroke_Key.backspace	Key.backspace	n/a
722.47	0.075	1444940	keystroke_Key.backspace	Key.backspace	n/a
722.755	0.06	1445510	keystroke_Key.backspace	Key.backspace	n/a
723.34	0.09	1446680	keystroke_e	e	n/a
723.595	0.075	1447190	keystroke_d	d	n/a
723.76	0.12	1447520	keystroke_Key.space	Key.space	n/a
723.895	0.15	1447790	keystroke_s	s	n/a
724.09	0.135	1448180	keystroke_u	u	n/a
724.255	0.09	1448510	keystroke_b	b	n/a
724.57	0.09	1449140	keystroke_s	s	n/a
724.81	0.105	1449620	keystroke_c	c	n/a
725.065	0.09	1450130	keystroke_r	r	n/a
725.185	0.075	1450370	keystroke_i	i	n/a
725.38	0.0905	1450760	keystroke_b	b	n/a
725.5905	0.105	1451181	keystroke_l	l	n/a
725.7405	0.12	1451481	keystroke_e	e	n/a
726.595	0.045	1453190	keystroke_Key.backspace	Key.backspace	n/a
726.73	0.075	1453460	keystroke_Key.backspace	Key.backspace	n/a
727.151	0.1195	1454302	keystroke_e	e	n/a
727.3455	0.075	1454691	keystroke_r	r	n/a
727.5855	0.105	1455171	keystroke_s	s	n/a
727.7805	0.1045	1455561	keystroke_Key.space	Key.space	n/a
728.155	0.105	1456310	keystroke_b	b	n/a
728.275	0.09	1456550	keystroke_o	o	n/a
728.425	0.1055	1456850	keystroke_s	s	n/a
728.651	0.105	1457302	keystroke_t	t	n/a
728.771	0.195	1457542	keystroke_o	o	n/a
728.966	0.15	1457932	keystroke_n	n	n/a
729.1755	0.075	1458351	keystroke_Key.space	Key.space	n/a
729.4155	0.12	1458831	keystroke_m	m	n/a
729.5505	0.105	1459101	keystroke_a	a	n/a
729.7005	0.165	1459401	keystroke_k	k	n/a
729.9405	0.09	1459881	keystroke_e	e	n/a
