onset	duration	sample	value	key	prompt_text
1.4635	8.0965	2927	prompt	n/a	the quick brown fox jumps over a lazy dog\n
3.154	0.0025	6308	keystroke_t	t	n/a
3.1565	0.07	6313	keystroke_h	h	n/a
3.2565	0.105	6513	keystroke_e	e	n/a
3.3475	0.104	6695	keystroke_Key.space	Key.space	n/a
3.5425	0.135	7085	keystroke_q	q	n/a
3.6475	0.075	7295	keystroke_u	u	n/a
3.7665	0.105	7533	keystroke_i	i	n/a
3.9175	0.1205	7835	keystroke_c	c	n/a
4.052	0.1805	8104	keystroke_k	k	n/a
4.1725	0.12	8345	keystroke_Key.space	Key.space	n/a
4.4875	0.075	8975	keystroke_b	b	n/a
4.6675	0.075	9335	keystroke_r	r	n/a
4.7275	0.09	9455	keystroke_o	o	n/a
4.8625	0.105	9725	keystroke_w	w	n/a
4.9525	0.12	9905	keystroke_n	n	n/a
5.0575	0.12	10115	keystroke_Key.space	Key.space	n/a
5.1625	0.105	10325	keystroke_f	f	n/a
5.2525	0.09	10505	keystroke_o	o	n/a
5.4025	0.15	10805	keystroke_x	x	n/a
5.5825	0.09	11165	keystroke_Key.space	Key.space	n/a
5.7175	0.105	11435	keystroke_j	j	n/a
5.9125	0.045	11825	keystroke_u	u	n/a
6.0595	0.0885	12119	keystroke_m	m	n/a
6.193	0.09	12386	keystroke_p	p	n/a
6.343	0.15	12686	keystroke_s	s	n/a
6.448	0.075	12896	keystroke_Key.space	Key.space	n/a
6.494	0.1065	12988	keystroke_o	o	n/a
6.6155	0.105	13231	keystroke_v	v	n/a
6.7505	0.195	13501	keystroke_e	e	n/a
6.8705	0.121	13741	keystroke_r	r	n/a
6.9605	0.0755	13921	keystroke_Key.space	Key.space	n/a
7.0965	0.135	14193	keystroke_a	a	n/a
7.1715	0.135	14343	keystroke_Key.space	Key.space	n/a
7.2615	0.09	14523	keystroke_l	l	n/a
7.4115	0.09	14823	keystroke_a	a	n/a
7.6665	0.03	15333	keystroke_x	x	n/a
8.1605	0.09	16321	keystroke_Key.backspace	Key.backspace	n/a
8.2955	0.165	16591	keystroke_z	z	n/a
8.4755	0.151	16951	keystroke_y	y	n/a
8.5805	0.12	17161	keystroke_Key.space	Key.space	n/a
8.8065	0.135	17613	keystroke_d	d	n/a
8.8815	0.075	17763	keystroke_o	o	n/a
9.0615	0.135	18123	keystroke_g	g	n/a
9.2415	0.0445	18483	keystroke_Key.space	Key.space	n/a
9.466	0.09	18932	keystroke_Key.enter	Key.enter	n/a
9.5675	5.827	19135	prompt	n/a	burning plot reporters recreational\n
10.337	0.074	20674	keystroke_b	b	n/a
10.441	0.075	20882	keystroke_u	u	n/a
10.531	0.075	21062	keystroke_r	r	n/a
10.6515	0.09	21303	keystroke_n	n	n/a
10.7715	0.12	21543	keystroke_i	i	n/a
10.9065	0.105	21813	keystroke_n	n	n/a
10.9965	0.09	21993	keystroke_g	g	n/a
11.1005	0.091	22201	keystroke_Key.space	Key.space	n/a
11.2515	0.09	22503	keystroke_p	p	n/a
11.4315	0.105	22863	keystroke_l	l	n/a
11.6265	0.06	23253	keystroke_o	o	n/a
11.7455	0.121	23491	keystroke_t	t	n/a
11.8515	0.075	23703	keystroke_Key.space	Key.space	n/a
12.0165	0.1345	24033	keystroke_r	r	n/a
12.121	0.165	24242	keystroke_e	e	n/a
12.256	0.06	24512	keystroke_p	p	n/a
12.391	0.09	24782	keystroke_o	o	n/a
12.511	0.09	25022	keystroke_r	r	n/a
12.736	0.075	25472	keystroke_t	t	n/a
12.841	0.195	25682	keystroke_e	e	n/a
12.961	0.105	25922	keystroke_r	r	n/a
13.171	0.075	26342	keystroke_s	s	n/a
13.261	0.075	26522	keystroke_Key.space	Key.space	n/a
13.4115	0.15	26823	keystroke_r	r	n/a
13.5165	0.12	27033	keystroke_e	e	n/a
13.7415	0.105	27483	keystroke_c	c	n/a
13.8915	0.135	27783	keystroke_r	r	n/a
14.0265	0.12	28053	keystroke_e	e	n/a
14.2665	0.105	28533	keystroke_a	a	n/a
14.4615	0.075	28923	keystroke_t	t	n/a
14.5215	0.27	29043	keystroke_i	i	n/a
14.6415	0.165	29283	keystroke_o	o	n/a
14.7165	0.12	29433	keystroke_n	n	n/a
14.9115	0.105	29823	keystroke_a	a	n/a
15.0015	0.15	30003	keystroke_l	l	n/a
15.1215	0.09	30243	keystroke_Key.space	Key.space	n/a
15.3165	0.075	30633	keystroke_Key.enter	Key.enter	n/a
15.4005	5.813	30801	prompt	n/a	lounge device residential proper\n
16.0065	0.06	32013	keystroke_l	l	n/a
16.1865	0.15	32373	keystroke_o	o	n/a
16.2915	0.06	32583	keystroke_u	u	n/a
16.4715	0.075	32943	keystroke_n	n	n/a
16.6665	0.09	33333	keystroke_g	g	n/a
16.7715	0.135	33543	keystroke_e	e	n/a
16.9215	0.09	33843	keystroke_Key.space	Key.space	n/a
17.3115	0.06	34623	keystroke_d	d	n/a
17.4465	0.105	34893	keystroke_e	e	n/a
17.6565	0.075	35313	keystroke_v	v	n/a
17.7465	0.075	35493	keystroke_i	i	n/a
17.8965	0.09	35793	keystroke_c	c	n/a
18.0765	0.09	36153	keystroke_e	e	n/a
18.3465	0.104	36693	keystroke_Key.space	Key.space	n/a
18.766	0.12	37532	keystroke_r	r	n/a
18.856	0.12	37712	keystroke_e	e	n/a
19.036	0.105	38072	keystroke_s	s	n/a
19.142	0.0895	38284	keystroke_i	i	n/a
19.2765	0.075	38553	keystroke_d	d	n/a
19.4115	0.15	38823	keystroke_e	e	n/a
19.5465	0.075	39093	keystroke_n	n	n/a
19.7265	0.06	39453	keystroke_t	t	n/a
19.8015	0.06	39603	keystroke_i	i	n/a
19.9515	0.105	39903	keystroke_a	a	n/a
20.0265	0.165	40053	keystroke_l	l	n/a
20.1465	0.12	40293	keystroke_Key.space	Key.space	n/a
20.3115	0.075	40623	keystroke_p	p	n/a
20.4165	0.075	40833	keystroke_r	r	n/a
20.5065	0.105	41013	keystroke_o	o	n/a
20.6415	0.105	41283	keystroke_p	p	n/a
20.7615	0.195	41523	keystroke_e	e	n/a
20.8815	0.12	41763	keystroke_r	r	n/a
21.0165	0.09	42033	keystroke_Key.space	Key.space	n/a
21.1365	0.075	42273	keystroke_Key.enter	Key.enter	n/a
21.2195	6.969	42439	prompt	n/a	association overall customers unit\n
21.8265	0.09	43653	keystroke_a	a	n/a
22.0065	0.075	44013	keystroke_s	s	n/a
22.1715	0.09	44343	keystroke_s	s	n/a
22.2465	0.075	44493	keystroke_o	o	n/a
22.3815	0.135	44763	keystroke_c	c	n/a
22.4715	0.06	44943	keystroke_i	i	n/a
22.5615	0.165	45123	keystroke_a	a	n/a
22.7715	0.105	45543	keystroke_t	t	n/a
22.8615	0.105	45723	keystroke_e	e	n/a
23.4915	0.075	46983	keystroke_Key.backspace	Key.backspace	n/a
23.8665	0.135	47733	keystroke_i	i	n/a
24.3315	0.06	48663	keystroke_o	o	n/a
24.5115	0.09	49023	keystroke_n	n	n/a
24.6615	0.09	49323	keystroke_Key.space	Key.space	n/a
24.7965	0.09	49593	keystroke_o	o	n/a
24.9465	0.12	49893	keystroke_v	v	n/a
25.0815	0.225	50163	keystroke_e	e	n/a
25.2315	0.12	50463	keystroke_r	r	n/a
25.4265	0.12	50853	keystroke_a	a	n/a
25.5315	0.075	51063	keystroke_l	l	n/a
25.6965	0.105	51393	keystroke_l	l	n/a
25.7565	0.12	51513	keystroke_Key.space	Key.space	n/a
25.9665	0.135	51933	keystroke_c	c	n/a
26.0565	0.09	52113	keystroke_u	u	n/a
26.1765	0.135	52353	keystroke_s	s	n/a
26.4165	0.075	52833	keystroke_t	t	n/a
26.5065	0.105	53013	keystroke_o	o	n/a
26.5815	0.135	53163	keystroke_m	m	n/a
26.6715	0.15	53343	keystroke_e	e	n/a
26.7915	0.06	53583	keystroke_r	r	n/a
26.9565	0.135	53913	keystroke_s	s	n/a
27.0465	0.09	54093	keystroke_Key.space	Key.space	n/a
27.2565	0.06	54513	keystroke_u	u	n/a
27.4665	0.075	54933	keystroke_n	n	n/a
27.6465	0.06	55293	keystroke_i	i	n/a
27.8265	0.09	55653	keystroke_t	t	n/a
27.9465	0.105	55893	keystroke_Key.space	Key.space	n/a
28.0965	0.09	56193	keystroke_Key.enter	Key.enter	n/a
28.193	5.816	56386	prompt	n/a	nursing sent buffer watch\n
28.8615	0.045	57723	keystroke_n	n	n/a
29.4465	0.075	58893	keystroke_u	u	n/a
29.6265	0.09	59253	keystroke_r	r	n/a
30.2715	0.12	60543	keystroke_s	s	n/a
30.3465	0.06	60693	keystroke_i	i	n/a
30.4965	0.06	60993	keystroke_n	n	n/a
30.5715	0.105	61143	keystroke_g	g	n/a
30.7065	0.075	61413	keystroke_Key.space	Key.space	n/a
30.9315	0.075	61863	keystroke_s	s	n/a
31.0815	0.12	62163	keystroke_e	e	n/a
31.1865	0.075	62373	keystroke_n	n	n/a
31.3365	0.105	62673	keystroke_t	t	n/a
31.4565	0.075	62913	keystroke_Key.space	Key.space	n/a
31.6965	0.09	63393	keystroke_b	b	n/a
31.7875	0.089	63575	keystroke_u	u	n/a
32.0265	0.09	64053	keystroke_f	f	n/a
32.1765	0.12	64353	keystroke_f	f	n/a
32.3115	0.195	64623	keystroke_e	e	n/a
32.4165	0.15	64833	keystroke_r	r	n/a
32.5515	0.105	65103	keystroke_Key.space	Key.space	n/a
32.7315	0.12	65463	keystroke_w	w	n/a
32.9865	0.135	65973	keystroke_a	a	n/a
33.2115	0.09	66423	keystroke_t	t	n/a
33.4665	0.12	66933	keystroke_c	c	n/a
33.6165	0.135	67233	keystroke_h	h	n/a
33.7065	0.12	67413	keystroke_Key.space	Key.space	n/a
33.9315	0.075	67863	keystroke_Key.enter	Key.enter	n/a
34.014	8.5915	68028	prompt	n/a	whenever intersection troy office\n
34.9065	0.075	69813	keystroke_w	w	n/a
34.9965	0.075	69993	keystroke_h	h	n/a
35.1165	0.105	70233	keystroke_e	e	n/a
35.2365	0.075	70473	keystroke_n	n	n/a
35.3265	0.12	70653	keystroke_e	e	n/a
35.5215	0.135	71043	keystroke_v	v	n/a
35.6865	0.2245	71373	keystroke_e	e	n/a
35.821	0.135	71642	keystroke_r	r	n/a
35.926	0.105	71852	keystroke_Key.space	Key.space	n/a
36.091	0.045	72182	keystroke_i	i	n/a
36.256	0.045	72512	keystroke_n	n	n/a
36.346	0.135	72692	keystroke_s	s	n/a
37.381	0.105	74762	keystroke_Key.backspace	Key.backspace	n/a
37.756	0.105	75512	keystroke_t	t	n/a
37.982	0.134	75964	keystroke_r	r	n/a
38.656	0.09	77312	keystroke_Key.backspace	Key.backspace	n/a
38.971	0.241	77942	keystroke_e	e	n/a
39.121	0.135	78242	keystroke_r	r	n/a
39.376	0.12	78752	keystroke_s	s	n/a
39.526	0.075	79052	keystroke_e	e	n/a
39.721	0.105	79442	keystroke_c	c	n/a
39.931	0.09	79862	keystroke_t	t	n/a
40.036	0.33	80072	keystroke_i	i	n/a
40.126	0.255	80252	keystroke_o	o	n/a
40.231	0.2105	80462	keystroke_n	n	n/a
40.411	0.1205	80822	keystroke_Key.space	Key.space	n/a
40.8455	0.076	81691	keystroke_t	t	n/a
41.0265	0.09	82053	keystroke_r	r	n/a
41.1315	0.12	82263	keystroke_o	o	n/a
41.3265	0.135	82653	keystroke_y	y	n/a
41.4465	0.09	82893	keystroke_Key.space	Key.space	n/a
41.5515	0.105	83103	keystroke_o	o	n/a
41.6865	0.075	83373	keystroke_f	f	n/a
41.8215	0.12	83643	keystroke_f	f	n/a
41.9425	0.074	83885	keystroke_i	i	n/a
42.0615	0.105	84123	keystroke_c	c	n/a
42.2565	0.12	84513	keystroke_e	e	n/a
42.3765	0.105	84753	keystroke_Key.space	Key.space	n/a
42.5115	0.09	85023	keystroke_Key.enter	Key.enter	n/a
42.612	7.2515	85224	prompt	n/a	moisture quick aaron truly\n
43.2165	0.121	86433	keystroke_m	m	n/a
43.3375	0.104	86675	keystroke_o	o	n/a
43.5015	0.075	87003	keystroke_i	i	n/a
43.7415	0.15	87483	keystroke_s	s	n/a
44.0565	0.135	88113	keystroke_t	t	n/a
44.1765	0.075	88353	keystroke_u	u	n/a
44.3415	0.135	88683	keystroke_r	r	n/a
44.4775	0.149	88955	keystroke_e	e	n/a
44.5965	0.075	89193	keystroke_Key.space	Key.space	n/a
44.8665	0.12	89733	keystroke_q	q	n/a
44.9415	0.075	89883	keystroke_u	u	n/a
45.0765	0.105	90153	keystroke_i	i	n/a
45.2565	0.12	90513	keystroke_c	c	n/a
45.3915	0.21	90783	keystroke_k	k	n/a
45.5415	0.105	91083	keystroke_Key.space	Key.space	n/a
45.6915	0.12	91383	keystroke_a	a	n/a
45.8715	0.15	91743	keystroke_a	a	n/a
46.1715	0.09	92343	keystroke_r	r	n/a
46.3215	0.21	92643	keystroke_o	o	n/a
46.4565	0.18	92913	keystroke_n	n	n/a
46.5765	0.12	93153	keystroke_Key.space	Key.space	n/a
46.8615	0.075	93723	keystroke_t	t	n/a
47.0265	0.105	94053	keystroke_r	r	n/a
47.2215	0.06	94443	keystroke_y	y	n/a
47.4015	0.105	94803	keystroke_l	l	n/a
47.7015	0.135	95403	keystroke_y	y	n/a
47.8065	0.105	95613	keystroke_Key.space	Key.space	n/a
48.2715	0.075	96543	keystroke_Key.backspace	Key.backspace	n/a
48.4065	0.075	96813	keystroke_Key.backspace	Key.backspace	n/a
48.5715	0.045	97143	keystroke_Key.backspace	Key.backspace	n/a
48.677	0.0895	97354	keystroke_Key.backspace	Key.backspace	n/a
48.9765	0.09	97953	keystroke_u	u	n/a
49.1715	0.105	98343	keystroke_l	l	n/a
49.4265	0.1045	98853	keystroke_y	y	n/a
49.5915	0.1045	99183	keystroke_Key.space	Key.space	n/a
49.8015	0.06	99603	keystroke_Key.enter	Key.enter	n/a
49.87	8.859	99740	prompt	n/a	hourly hebrew spreading specializing\n
50.8215	0.1045	101643	keystroke_h	h	n/a
50.941	0.165	101882	keystroke_o	o	n/a
51.061	0.105	102122	keystroke_u	u	n/a
51.2115	0.105	102423	keystroke_r	r	n/a
51.4515	0.105	102903	keystroke_l	l	n/a
51.7215	0.135	103443	keystroke_y	y	n/a
51.8115	0.12	103623	keystroke_Key.space	Key.space	n/a
52.3665	0.0745	104733	keystroke_h	h	n/a
52.531	0.09	105062	keystroke_e	e	n/a
52.876	0.105	105752	keystroke_b	b	n/a
53.161	0.165	106322	keystroke_r	r	n/a
53.461	0.075	106922	keystroke_w	w	n/a
54.256	0.045	108512	keystroke_Key.backspace	Key.backspace	n/a
54.362	0.134	108724	keystroke_e	e	n/a
54.571	0.15	109142	keystroke_w	w	n/a
54.751	0.09	109502	keystroke_Key.space	Key.space	n/a
55.156	0.12	110312	keystroke_s	s	n/a
55.277	0.089	110554	keystroke_p	p	n/a
55.531	0.135	111062	keystroke_r	r	n/a
55.651	0.225	111302	keystroke_e	e	n/a
55.861	0.12	111722	keystroke_a	a	n/a
56.056	0.15	112112	keystroke_d	d	n/a
56.161	0.075	112322	keystroke_i	i	n/a
56.341	0.045	112682	keystroke_n	n	n/a
56.401	0.09	112802	keystroke_g	g	n/a
56.536	0.075	113072	keystroke_Key.space	Key.space	n/a
56.716	0.135	113432	keystroke_s	s	n/a
56.866	0.03	113732	keystroke_p	p	n/a
56.941	0.09	113882	keystroke_e	e	n/a
57.151	0.12	114302	keystroke_c	c	n/a
57.256	0.075	114512	keystroke_i	i	n/a
57.406	0.12	114812	keystroke_a	a	n/a
57.511	0.105	115022	keystroke_l	l	n/a
57.662	0.074	115324	keystroke_i	i	n/a
58.006	0.136	116012	keystroke_z	z	n/a
58.096	0.075	116192	keystroke_i	i	n/a
58.262	0.044	116524	keystroke_n	n	n/a
58.3965	0.06	116793	keystroke_g	g	n/a
58.5015	0.075	117003	keystroke_Key.space	Key.space	n/a
58.6515	0.075	117303	keystroke_Key.enter	Key.enter	n/a
58.735	6.6085	117470	prompt	n/a	inspector classical advocacy known\n
59.476	0.075	118952	keystroke_i	i	n/a
59.641	0.091	119282	keystroke_n	n	n/a
59.776	0.135	119552	keystroke_s	s	n/a
59.896	0.061	119792	keystroke_p	p	n/a
60.001	0.105	120002	keystroke_e	e	n/a
60.196	0.12	120392	keystroke_c	c	n/a
60.466	0.091	120932	keystroke_t	t	n/a
60.571	0.075	121142	keystroke_o	o	n/a
60.691	0.105	121382	keystroke_r	r	n/a
60.856	0.09	121712	keystroke_Key.space	Key.space	n/a
61.426	0.091	122852	keystroke_c	c	n/a
61.501	0.105	123002	keystroke_l	l	n/a
61.621	0.105	123242	keystroke_a	a	n/a
61.817	0.074	123634	keystroke_s	s	n/a
61.936	0.121	123872	keystroke_s	s	n/a
62.071	0.061	124142	keystroke_i	i	n/a
62.191	0.15	124382	keystroke_c	c	n/a
62.356	0.15	124712	keystroke_a	a	n/a
62.476	0.18	124952	keystroke_l	l	n/a
62.596	0.12	125192	keystroke_Key.space	Key.space	n/a
62.776	0.106	125552	keystroke_a	a	n/a
62.941	0.09	125882	keystroke_d	d	n/a
63.241	0.09	126482	keystroke_v	v	n/a
63.346	0.061	126692	keystroke_o	o	n/a
63.512	0.164	127024	keystroke_c	c	n/a
63.662	0.134	127324	keystroke_a	a	n/a
63.991	0.091	127982	keystroke_c	c	n/a
64.276	0.12	128552	keystroke_y	y	n/a
64.366	0.12	128732	keystroke_Key.space	Key.space	n/a
64.591	0.091	129182	keystroke_k	k	n/a
64.741	0.091	129482	keystroke_n	n	n/a
64.801	0.09	129602	keystroke_o	o	n/a
64.936	0.121	129872	keystroke_w	w	n/a
65.101	0.105	130202	keystroke_Key.space	Key.space	n/a
65.266	0.0755	130532	keystroke_Key.enter	Key.enter	n/a
65.349	5.8145	130698	prompt	n/a	oasis regression our pointer\n
66.046	0.075	132092	keystroke_o	o	n/a
66.196	0.09	132392	keystroke_a	a	n/a
66.512	0.045	133024	keystroke_d	d	n/a
66.961	0.075	133922	keystroke_Key.backspace	Key.backspace	n/a
67.127	0.089	134254	keystroke_s	s	n/a
67.232	0.06	134464	keystroke_i	i	n/a
67.337	0.089	134674	keystroke_s	s	n/a
67.471	0.075	134942	keystroke_Key.space	Key.space	n/a
67.817	0.089	135634	keystroke_r	r	n/a
67.877	0.134	135754	keystroke_e	e	n/a
68.146	0.076	136292	keystroke_g	g	n/a
68.311	0.121	136622	keystroke_r	r	n/a
68.401	0.136	136802	keystroke_e	e	n/a
68.641	0.061	137282	keystroke_s	s	n/a
68.776	0.09	137552	keystroke_s	s	n/a
68.882	0.344	137764	keystroke_i	i	n/a
69.002	0.239	138004	keystroke_o	o	n/a
69.1215	0.1795	138243	keystroke_n	n	n/a
69.256	0.135	138512	keystroke_Key.space	Key.space	n/a
69.421	0.195	138842	keystroke_o	o	n/a
69.571	0.12	139142	keystroke_u	u	n/a
69.721	0.091	139442	keystroke_r	r	n/a
69.826	0.135	139652	keystroke_Key.space	Key.space	n/a
69.932	0.134	139864	keystroke_p	p	n/a
70.096	0.225	140192	keystroke_o	o	n/a
70.216	0.226	140432	keystroke_i	i	n/a
70.366	0.18	140732	keystroke_n	n	n/a
70.577	0.074	141154	keystroke_t	t	n/a
70.711	0.18	141422	keystroke_e	e	n/a
70.831	0.121	141662	keystroke_r	r	n/a
70.936	0.09	141872	keystroke_Key.space	Key.space	n/a
71.056	0.105	142112	keystroke_Key.enter	Key.enter	n/a
71.168	6.0555	142336	prompt	n/a	barely test otherwise sometimes\n
71.821	0.09	143642	keystroke_b	b	n/a
71.926	0.226	143852	keystroke_a	a	n/a
72.121	0.136	144242	keystroke_r	r	n/a
72.241	0.105	144482	keystroke_e	e	n/a
72.377	0.119	144754	keystroke_l	l	n/a
72.646	0.136	145292	keystroke_y	y	n/a
72.721	0.165	145442	keystroke_Key.space	Key.space	n/a
72.977	0.06	145954	keystroke_t	t	n/a
73.0515	0.165	146103	keystroke_e	e	n/a
73.2015	0.2245	146403	keystroke_s	s	n/a
73.441	0.091	146882	keystroke_t	t	n/a
73.532	0.134	147064	keystroke_Key.space	Key.space	n/a
73.636	0.09	147272	keystroke_o	o	n/a
74.086	0.076	148172	keystroke_e	e	n/a
74.431	0.0905	148862	keystroke_Key.backspace	Key.backspace	n/a
74.686	0.105	149372	keystroke_t	t	n/a
74.761	0.075	149522	keystroke_h	h	n/a
74.851	0.195	149702	keystroke_e	e	n/a
74.971	0.105	149942	keystroke_r	r	n/a
75.226	0.105	150452	keystroke_w	w	n/a
75.316	0.0605	150632	keystroke_i	i	n/a
75.4665	0.21	150933	keystroke_s	s	n/a
75.6775	0.089	151355	keystroke_e	e	n/a
75.8115	0.075	151623	keystroke_Key.space	Key.space	n/a
75.9765	0.12	151953	keystroke_s	s	n/a
76.0365	0.15	152073	keystroke_o	o	n/a
76.1565	0.12	152313	keystroke_m	m	n/a
76.2915	0.12	152583	keystroke_e	e	n/a
76.5165	0.09	153033	keystroke_t	t	n/a
76.5765	0.165	153153	keystroke_i	i	n/a
76.6815	0.12	153363	keystroke_m	m	n/a
76.8315	0.105	153663	keystroke_s	s	n/a
76.9965	0.09	153993	keystroke_Key.space	Key.space	n/a
77.1465	0.075	154293	keystroke_Key.enter	Key.enter	n/a
77.2285	7.2545	154457	prompt	n/a	ordering markets aggressive sunshine\n
78.3165	0.09	156633	keystroke_o	o	n/a
78.4515	0.075	156903	keystroke_r	r	n/a
78.6315	0.105	157263	keystroke_d	d	n/a
78.8115	0.18	157623	keystroke_e	e	n/a
78.9165	0.135	157833	keystroke_r	r	n/a
78.9765	0.18	157953	keystroke_i	i	n/a
79.0965	0.15	158193	keystroke_n	n	n/a
79.2165	0.09	158433	keystroke_g	g	n/a
79.2765	0.15	158553	keystroke_Key.space	Key.space	n/a
79.3965	0.0895	158793	keystroke_m	m	n/a
79.471	0.195	158942	keystroke_a	a	n/a
79.651	0.105	159302	keystroke_r	r	n/a
79.786	0.09	159572	keystroke_k	k	n/a
80.176	0.21	160352	keystroke_e	e	n/a
80.461	0.09	160922	keystroke_t	t	n/a
80.656	0.075	161312	keystroke_s	s	n/a
80.716	0.09	161432	keystroke_Key.space	Key.space	n/a
80.867	0.119	161734	keystroke_a	a	n/a
81.046	0.075	162092	keystroke_g	g	n/a
81.181	0.09	162362	keystroke_g	g	n/a
81.421	0.12	162842	keystroke_r	r	n/a
81.586	0.105	163172	keystroke_e	e	n/a
81.826	0.105	163652	keystroke_s	s	n/a
82.006	0.105	164012	keystroke_s	s	n/a
82.171	0.075	164342	keystroke_i	i	n/a
82.381	0.15	164762	keystroke_v	v	n/a
82.516	0.135	165032	keystroke_e	e	n/a
82.681	0.075	165362	keystroke_Key.space	Key.space	n/a
83.281	0.135	166562	keystroke_s	s	n/a
83.431	0.045	166862	keystroke_u	u	n/a
83.581	0.09	167162	keystroke_n	n	n/a
83.716	0.151	167432	keystroke_s	s	n/a
83.806	0.09	167612	keystroke_h	h	n/a
83.911	0.165	167822	keystroke_i	i	n/a
84.031	0.135	168062	keystroke_n	n	n/a
84.151	0.105	168302	keystroke_e	e	n/a
84.271	0.0905	168542	keystroke_Key.space	Key.space	n/a
84.4065	0.075	168813	keystroke_Key.enter	Key.enter	n/a
84.488	6.88	168976	prompt	n/a	fraction he've denmark policy\n
85.1565	0.105	170313	keystroke_s	s	n/a
85.5915	0.135	171183	keystroke_Key.backspace	Key.backspace	n/a
85.9215	0.12	171843	keystroke_f	f	n/a
86.1165	0.12	172233	keystroke_r	r	n/a
86.2815	0.135	172563	keystroke_a	a	n/a
86.4915	0.135	172983	keystroke_c	c	n/a
86.7615	0.09	173523	keystroke_t	t	n/a
86.8515	0.345	173703	keystroke_i	i	n/a
86.9715	0.21	173943	keystroke_o	o	n/a
87.0765	0.18	174153	keystroke_n	n	n/a
87.2115	0.12	174423	keystroke_Key.space	Key.space	n/a
87.3765	0.09	174753	keystroke_h	h	n/a
87.4965	0.075	174993	keystroke_e	e	n/a
87.6915	0.15	175383	keystroke_'	'	n/a
88.0065	0.135	176013	keystroke_v	v	n/a
88.1115	0.15	176223	keystroke_e	e	n/a
88.2315	0.09	176463	keystroke_Key.space	Key.space	n/a
88.6515	0.075	177303	keystroke_d	d	n/a
88.8015	0.135	177603	keystroke_e	e	n/a
88.9215	0.075	177843	keystroke_n	n	n/a
89.1615	0.09	178323	keystroke_m	m	n/a
89.2665	0.15	178533	keystroke_a	a	n/a
89.4615	0.135	178923	keystroke_r	r	n/a
89.5815	0.225	179163	keystroke_k	k	n/a
89.7465	0.09	179493	keystroke_Key.space	Key.space	n/a
90.0465	0.075	180093	keystroke_p	p	n/a
90.1965	0.0895	180393	keystroke_o	o	n/a
90.4215	0.09	180843	keystroke_l	l	n/a
90.6015	0.075	181203	keystroke_i	i	n/a
90.8115	0.135	181623	keystroke_c	c	n/a
90.9615	0.135	181923	keystroke_y	y	n/a
91.0665	0.104	182133	keystroke_Key.space	Key.space	n/a
91.336	0.03	182672	keystroke_Key.enter	Key.enter	n/a
91.373	7.1355	182746	prompt	n/a	killing surely because notification\n
91.951	0.0755	183902	keystroke_k	k	n/a
92.101	0.06	184202	keystroke_i	i	n/a
92.281	0.06	184562	keystroke_l	l	n/a
92.416	0.0605	184832	keystroke_l	l	n/a
92.5515	0.0745	185103	keystroke_i	i	n/a
92.6865	0.0895	185373	keystroke_n	n	n/a
92.761	0.105	185522	keystroke_g	g	n/a
92.881	0.09	185762	keystroke_Key.space	Key.space	n/a
93.016	0.1055	186032	keystroke_s	s	n/a
93.181	0.09	186362	keystroke_u	u	n/a
93.3765	0.1045	186753	keystroke_r	r	n/a
93.556	0.105	187112	keystroke_l	l	n/a
93.781	0.105	187562	keystroke_y	y	n/a
93.931	0.105	187862	keystroke_Key.space	Key.space	n/a
94.351	0.105	188702	keystroke_b	b	n/a
94.486	0.06	188972	keystroke_e	e	n/a
94.666	0.12	189332	keystroke_c	c	n/a
94.756	0.165	189512	keystroke_a	a	n/a
94.907	0.074	189814	keystroke_u	u	n/a
94.996	0.18	189992	keystroke_s	s	n/a
95.131	0.135	190262	keystroke_e	e	n/a
95.191	0.165	190382	keystroke_Key.space	Key.space	n/a
95.311	0.135	190622	keystroke_n	n	n/a
95.416	0.075	190832	keystroke_o	o	n/a
95.506	0.09	191012	keystroke_t	t	n/a
95.626	0.075	191252	keystroke_i	i	n/a
95.716	0.045	191432	keystroke_t	t	n/a
96.496	0.06	192992	keystroke_Key.backspace	Key.backspace	n/a
97.261	0.12	194522	keystroke_f	f	n/a
97.367	0.074	194734	keystroke_i	i	n/a
97.5015	0.135	195003	keystroke_c	c	n/a
97.6215	0.225	195243	keystroke_a	a	n/a
97.8015	0.15	195603	keystroke_t	t	n/a
97.9365	0.27	195873	keystroke_i	i	n/a
97.9965	0.195	195993	keystroke_o	o	n/a
98.1015	0.15	196203	keystroke_n	n	n/a
98.2215	0.104	196443	keystroke_Key.space	Key.space	n/a
98.4465	0.06	196893	keystroke_Key.enter	Key.enter	n/a
98.513	6.4155	197026	prompt	n/a	eagles lemon governing presented\n
99.1815	0.12	198363	keystroke_e	e	n/a
99.3165	0.135	198633	keystroke_a	a	n/a
99.5565	0.06	199113	keystroke_c	c	n/a
99.9465	0.075	199893	keystroke_Key.backspace	Key.backspace	n/a
100.1265	0.12	200253	keystroke_g	g	n/a
100.3065	0.075	200613	keystroke_l	l	n/a
100.5155	0.106	201031	keystroke_e	e	n/a
100.6955	0.12	201391	keystroke_s	s	n/a
100.8455	0.075	201691	keystroke_Key.space	Key.space	n/a
101.0265	0.089	202053	keystroke_l	l	n/a
101.1915	0.09	202383	keystroke_e	e	n/a
101.3265	0.1205	202653	keystroke_m	m	n/a
101.432	0.15	202864	keystroke_o	o	n/a
101.567	0.135	203134	keystroke_n	n	n/a
101.671	0.105	203342	keystroke_Key.space	Key.space	n/a
101.912	0.074	203824	keystroke_g	g	n/a
102.002	0.06	204004	keystroke_o	o	n/a
102.211	0.1205	204422	keystroke_v	v	n/a
102.3615	0.2105	204723	keystroke_e	e	n/a
102.4665	0.1345	204933	keystroke_r	r	n/a
102.587	0.075	205174	keystroke_n	n	n/a
102.722	0.119	205444	keystroke_i	i	n/a
102.812	0.135	205624	keystroke_n	n	n/a
102.9615	0.105	205923	keystroke_g	g	n/a
103.0665	0.089	206133	keystroke_Key.space	Key.space	n/a
103.1855	0.09	206371	keystroke_p	p	n/a
103.2905	0.151	206581	keystroke_r	r	n/a
103.396	0.1505	206792	keystroke_e	e	n/a
103.6065	0.18	207213	keystroke_s	s	n/a
103.8155	0.1055	207631	keystroke_e	e	n/a
103.922	0.0895	207844	keystroke_n	n	n/a
104.2515	0.09	208503	keystroke_t	t	n/a
104.3705	0.136	208741	keystroke_e	e	n/a
104.6115	0.075	209223	keystroke_d	d	n/a
104.7015	0.09	209403	keystroke_Key.space	Key.space	n/a
104.8515	0.075	209703	keystroke_Key.enter	Key.enter	n/a
104.9335	10.225	209867	prompt	n/a	remedy visitors therapist damaged\n
105.6015	0.12	211203	keystroke_r	r	n/a
105.6765	0.15	211353	keystroke_e	e	n/a
105.9015	0.105	211803	keystroke_m	m	n/a
106.0215	0.09	212043	keystroke_e	e	n/a
106.2615	0.12	212523	keystroke_d	d	n/a
106.4715	0.105	212943	keystroke_y	y	n/a
106.5315	0.135	213063	keystroke_Key.space	Key.space	n/a
107.4765	0.09	214953	keystroke_v	v	n/a
107.5815	0.075	215163	keystroke_i	i	n/a
107.8665	0.09	215733	keystroke_s	s	n/a
108.1665	0.105	216333	keystroke_i	i	n/a
108.8265	0.225	217653	keystroke_s	s	n/a
109.3515	0.06	218703	keystroke_Key.backspace	Key.backspace	n/a
109.5615	0.09	219123	keystroke_t	t	n/a
109.6365	0.09	219273	keystroke_o	o	n/a
109.7415	0.12	219483	keystroke_r	r	n/a
109.9515	0.09	219903	keystroke_s	s	n/a
110.0715	0.075	220143	keystroke_Key.space	Key.space	n/a
110.3565	0.09	220713	keystroke_t	t	n/a
110.4315	0.09	220863	keystroke_h	h	n/a
110.5065	0.12	221013	keystroke_e	e	n/a
110.6265	0.135	221253	keystroke_r	r	n/a
110.7165	0.12	221433	keystroke_e	e	n/a
111.4365	0.09	222873	keystroke_Key.backspace	Key.backspace	n/a
111.5865	0.135	223173	keystroke_a	a	n/a
112.3665	0.06	224733	keystroke_p	p	n/a
112.4865	0.09	224973	keystroke_i	i	n/a
112.6215	0.18	225243	keystroke_s	s	n/a
112.9065	0.09	225813	keystroke_t	t	n/a
113.0415	0.09	226083	keystroke_Key.space	Key.space	n/a
113.4915	0.105	226983	keystroke_d	d	n/a
113.9115	0.06	227823	keystroke_a	a	n/a
114.0165	0.09	228033	keystroke_m	m	n/a
114.1365	0.15	228273	keystroke_a	a	n/a
114.2565	0.045	228513	keystroke_n	n	n/a
114.4955	0.136	228991	keystroke_g	g	n/a
114.6015	0.12	229203	keystroke_e	e	n/a
114.8265	0.09	229653	keystroke_d	d	n/a
114.9315	0.09	229863	keystroke_Key.space	Key.space	n/a
115.0815	0.075	230163	keystroke_Key.enter	Key.enter	n/a
115.1625	11.9215	230325	prompt	n/a	tony constitutes palestine advert\n
115.8455	0.091	231691	keystroke_t	t	n/a
115.9215	0.06	231843	keystroke_o	o	n/a
116.0565	0.09	232113	keystroke_n	n	n/a
116.2965	0.119	232593	keystroke_y	y	n/a
116.3855	0.105	232771	keystroke_Key.space	Key.space	n/a
116.5205	0.136	233041	keystroke_c	c	n/a
116.6115	0.135	233223	keystroke_o	o	n/a
116.7015	0.105	233403	keystroke_n	n	n/a
116.8515	0.149	233703	keystroke_s	s	n/a
117.1515	0.089	234303	keystroke_t	t	n/a
117.2865	0.09	234573	keystroke_i	i	n/a
117.7965	0.075	235593	keystroke_t	t	n/a
117.8865	0.075	235773	keystroke_u	u	n/a
118.0365	0.105	236073	keystroke_e	e	n/a
118.2165	0.12	236433	keystroke_s	s	n/a
118.3655	0.091	236731	keystroke_Key.space	Key.space	n/a
118.5765	0.09	237153	keystroke_p	p	n/a
119.0115	0.12	238023	keystroke_a	a	n/a
119.1165	0.09	238233	keystroke_l	l	n/a
119.2655	0.091	238531	keystroke_e	e	n/a
119.5365	0.075	239073	keystroke_s	s	n/a
119.8065	0.075	239613	keystroke_t	t	n/a
119.8965	0.044	239793	keystroke_i	i	n/a
120.0465	0.045	240093	keystroke_n	n	n/a
120.2705	0.075	240541	keystroke_Key.backspace	Key.backspace	n/a
120.4505	0.045	240901	keystroke_Key.backspace	Key.backspace	n/a
120.5705	0.075	241141	keystroke_Key.backspace	Key.backspace	n/a
120.7205	0.076	241441	keystroke_Key.backspace	Key.backspace	n/a
120.8705	0.061	241741	keystroke_Key.backspace	Key.backspace	n/a
121.0215	0.045	242043	keystroke_Key.backspace	Key.backspace	n/a
121.171	0.045	242342	keystroke_Key.backspace	Key.backspace	n/a
121.291	0.06	242582	keystroke_Key.backspace	Key.backspace	n/a
121.456	0.045	242912	keystroke_Key.backspace	Key.backspace	n/a
121.606	0.06	243212	keystroke_Key.backspace	Key.backspace	n/a
121.936	0.12	243872	keystroke_t	t	n/a
122.191	0.06	244382	keystroke_e	e	n/a
122.461	0.06	244922	keystroke_Key.backspace	Key.backspace	n/a
122.611	0.075	245222	keystroke_Key.backspace	Key.backspace	n/a
122.761	0.09	245522	keystroke_Key.backspace	Key.backspace	n/a
122.986	0.135	245972	keystroke_t	t	n/a
123.196	0.09	246392	keystroke_e	e	n/a
123.3465	0.1045	246693	keystroke_s	s	n/a
123.511	0.0455	247022	keystroke_Key.space	Key.space	n/a
124.006	0.09	248012	keystroke_p	p	n/a
124.141	0.1055	248282	keystroke_a	a	n/a
124.2615	0.1045	248523	keystroke_l	l	n/a
124.396	0.075	248792	keystroke_e	e	n/a
124.546	0.135	249092	keystroke_s	s	n/a
125.071	0.06	250142	keystroke_t	t	n/a
125.162	0.074	250324	keystroke_i	i	n/a
125.311	0.09	250622	keystroke_n	n	n/a
125.386	0.1055	250772	keystroke_e	e	n/a
125.521	0.075	251042	keystroke_Key.space	Key.space	n/a
125.671	0.12	251342	keystroke_a	a	n/a
125.836	0.075	251672	keystroke_d	d	n/a
126.046	0.09	252092	keystroke_v	v	n/a
126.181	0.18	252362	keystroke_e	e	n/a
126.301	0.1205	252602	keystroke_r	r	n/a
126.527	0.105	253054	keystroke_t	t	n/a
126.781	0.106	253562	keystroke_Key.space	Key.space	n/a
126.991	0.091	253982	keystroke_Key.enter	Key.enter	n/a
127.089	5.7845	254178	prompt	n/a	blink ferrari flow church\n
127.817	0.075	255634	keystroke_b	b	n/a
127.907	0.089	255814	keystroke_l	l	n/a
128.057	0.059	256114	keystroke_i	i	n/a
128.222	0.089	256444	keystroke_n	n	n/a
128.372	0.149	256744	keystroke_k	k	n/a
128.507	0.105	257014	keystroke_Key.space	Key.space	n/a
128.896	0.09	257792	keystroke_f	f	n/a
129.032	0.15	258064	keystroke_e	e	n/a
129.271	0.061	258542	keystroke_r	r	n/a
129.377	0.119	258754	keystroke_r	r	n/a
129.616	0.105	259232	keystroke_a	a	n/a
129.797	0.1195	259594	keystroke_r	r	n/a
129.9315	0.075	259863	keystroke_i	i	n/a
130.0215	0.12	260043	keystroke_Key.space	Key.space	n/a
130.2315	0.075	260463	keystroke_f	f	n/a
130.3365	0.09	260673	keystroke_l	l	n/a
131.1615	0.09	262323	keystroke_o	o	n/a
131.2815	0.105	262563	keystroke_w	w	n/a
131.4015	0.105	262803	keystroke_Key.space	Key.space	n/a
131.6865	0.135	263373	keystroke_c	c	n/a
131.7615	0.075	263523	keystroke_h	h	n/a
131.9565	0.06	263913	keystroke_u	u	n/a
132.0765	0.12	264153	keystroke_r	r	n/a
132.3615	0.135	264723	keystroke_c	c	n/a
132.4665	0.165	264933	keystroke_h	h	n/a
132.6015	0.105	265203	keystroke_Key.space	Key.space	n/a
132.8115	0.06	265623	keystroke_Key.enter	Key.enter	n/a
132.882	8.571	265764	prompt	n/a	consequences major snow correlation\n
133.6065	0.105	267213	keystroke_c	c	n/a
133.6965	0.075	267393	keystroke_o	o	n/a
133.8015	0.09	267603	keystroke_n	n	n/a
134.2815	0.15	268563	keystroke_s	s	n/a
134.5665	0.075	269133	keystroke_w	w	n/a
135.046	0.09	270092	keystroke_Key.backspace	Key.backspace	n/a
135.647	0.149	271294	keystroke_e	e	n/a
135.961	0.105	271922	keystroke_q	q	n/a
136.082	0.075	272164	keystroke_u	u	n/a
136.217	0.105	272434	keystroke_e	e	n/a
136.352	0.075	272704	keystroke_n	n	n/a
136.502	0.105	273004	keystroke_c	c	n/a
136.697	0.06	273394	keystroke_e	e	n/a
136.847	0.135	273694	keystroke_s	s	n/a
136.952	0.134	273904	keystroke_Key.space	Key.space	n/a
137.072	0.105	274144	keystroke_m	m	n/a
137.221	0.12	274442	keystroke_a	a	n/a
137.357	0.075	274714	keystroke_j	j	n/a
137.462	0.09	274924	keystroke_o	o	n/a
137.597	0.105	275194	keystroke_r	r	n/a
137.746	0.075	275492	keystroke_Key.space	Key.space	n/a
137.986	0.15	275972	keystroke_s	s	n/a
138.121	0.075	276242	keystroke_n	n	n/a
138.212	0.09	276424	keystroke_o	o	n/a
138.347	0.105	276694	keystroke_w	w	n/a
138.526	0.09	277052	keystroke_Key.space	Key.space	n/a
139.517	0.119	279034	keystroke_c	c	n/a
139.607	0.09	279214	keystroke_o	o	n/a
139.847	0.075	279694	keystroke_r	r	n/a
140.011	0.076	280022	keystroke_r	r	n/a
140.147	0.075	280294	keystroke_e	e	n/a
140.387	0.09	280774	keystroke_l	l	n/a
140.552	0.135	281104	keystroke_a	a	n/a
140.792	0.105	281584	keystroke_t	t	n/a
140.882	0.269	281764	keystroke_i	i	n/a
140.957	0.179	281914	keystroke_o	o	n/a
141.046	0.165	282092	keystroke_n	n	n/a
141.181	0.075	282362	keystroke_Key.space	Key.space	n/a
141.377	0.074	282754	keystroke_Key.enter	Key.enter	n/a
141.4585	7.9755	282917	prompt	n/a	units agreed setting rated\n
142.247	0.074	284494	keystroke_u	u	n/a
142.427	0.105	284854	keystroke_n	n	n/a
142.561	0.091	285122	keystroke_i	i	n/a
142.682	0.104	285364	keystroke_t	t	n/a
142.877	0.12	285754	keystroke_s	s	n/a
142.981	0.06	285962	keystroke_Key.space	Key.space	n/a
143.102	0.135	286204	keystroke_a	a	n/a
143.282	0.059	286564	keystroke_g	g	n/a
143.417	0.074	286834	keystroke_r	r	n/a
143.596	0.06	287192	keystroke_e	e	n/a
143.732	0.075	287464	keystroke_e	e	n/a
143.896	0.09	287792	keystroke_d	d	n/a
144.002	0.059	288004	keystroke_Key.space	Key.space	n/a
144.107	0.075	288214	keystroke_s	s	n/a
144.271	0.091	288542	keystroke_e	e	n/a
144.482	0.045	288964	keystroke_r	r	n/a
144.497	0.044	288994	keystroke_t	t	n/a
144.601	0.106	289202	keystroke_t	t	n/a
144.691	0.15	289382	keystroke_i	i	n/a
144.782	0.15	289564	keystroke_n	n	n/a
144.886	0.091	289772	keystroke_g	g	n/a
144.962	0.075	289924	keystroke_Key.space	Key.space	n/a
145.097	0.09	290194	keystroke_r	r	n/a
145.172	0.12	290344	keystroke_e	e	n/a
145.322	0.15	290644	keystroke_a	a	n/a
145.636	0.046	291272	keystroke_Key.backspace	Key.backspace	n/a
145.7865	0.06	291573	keystroke_Key.backspace	Key.backspace	n/a
145.921	0.06	291842	keystroke_Key.backspace	Key.backspace	n/a
146.057	0.059	292114	keystroke_Key.backspace	Key.backspace	n/a
146.191	0.045	292382	keystroke_Key.backspace	Key.backspace	n/a
146.326	0.06	292652	keystroke_Key.backspace	Key.backspace	n/a
146.446	0.061	292892	keystroke_Key.backspace	Key.backspace	n/a
146.536	0.105	293072	keystroke_Key.backspace	Key.backspace	n/a
146.806	0.075	293612	keystroke_Key.backspace	Key.backspace	n/a
147.436	0.075	294872	keystroke_Key.backspace	Key.backspace	n/a
147.752	0.06	295504	keystroke_t	t	n/a
147.871	0.09	295742	keystroke_t	t	n/a
148.006	0.076	296012	keystroke_i	i	n/a
148.127	0.075	296254	keystroke_n	n	n/a
148.247	0.075	296494	keystroke_g	g	n/a
148.336	0.061	296672	keystroke_Key.space	Key.space	n/a
148.427	0.12	296854	keystroke_r	r	n/a
148.591	0.196	297182	keystroke_a	a	n/a
148.802	0.09	297604	keystroke_t	t	n/a
148.907	0.089	297814	keystroke_e	e	n/a
149.102	0.075	298204	keystroke_d	d	n/a
149.191	0.091	298382	keystroke_Key.space	Key.space	n/a
149.342	0.089	298684	keystroke_Key.enter	Key.enter	n/a
149.4405	10.778	298881	prompt	n/a	millennium deposit chuck examination\n
150.2115	0.105	300423	keystroke_m	m	n/a
150.5565	0.09	301113	keystroke_i	i	n/a
150.7515	0.06	301503	keystroke_l	l	n/a
150.9015	0.0745	301803	keystroke_l	l	n/a
151.036	0.09	302072	keystroke_e	e	n/a
151.142	0.074	302284	keystroke_n	n	n/a
151.396	0.045	302792	keystroke_n	n	n/a
151.591	0.09	303182	keystroke_i	i	n/a
151.892	0.074	303784	keystroke_u	u	n/a
152.102	0.164	304204	keystroke_m	m	n/a
152.206	0.12	304412	keystroke_Key.space	Key.space	n/a
152.371	0.106	304742	keystroke_d	d	n/a
152.5515	0.135	305103	keystroke_e	e	n/a
152.6565	0.075	305313	keystroke_p	p	n/a
152.8065	0.09	305613	keystroke_o	o	n/a
152.9865	0.105	305973	keystroke_s	s	n/a
153.0465	0.09	306093	keystroke_i	i	n/a
153.2865	0.105	306573	keystroke_t	t	n/a
153.4065	0.075	306813	keystroke_Key.space	Key.space	n/a
153.5565	0.105	307113	keystroke_c	c	n/a
153.6465	0.09	307293	keystroke_h	h	n/a
153.8265	0.06	307653	keystroke_u	u	n/a
153.9165	0.135	307833	keystroke_c	c	n/a
154.0365	0.135	308073	keystroke_h	h	n/a
154.1415	0.105	308283	keystroke_Key.space	Key.space	n/a
154.2615	0.075	308523	keystroke_e	e	n/a
154.4565	0.105	308913	keystroke_x	x	n/a
154.6665	0.12	309333	keystroke_a	a	n/a
154.7715	0.075	309543	keystroke_m	m	n/a
154.9065	0.06	309813	keystroke_i	i	n/a
155.0715	0.075	310143	keystroke_n	n	n/a
155.2965	0.0605	310593	keystroke_g	g	n/a
155.866	0.075	311732	keystroke_Key.backspace	Key.backspace	n/a
156.002	0.075	312004	keystroke_Key.backspace	Key.backspace	n/a
156.136	0.075	312272	keystroke_Key.backspace	Key.backspace	n/a
156.271	0.061	312542	keystroke_Key.backspace	Key.backspace	n/a
156.407	0.074	312814	keystroke_Key.backspace	Key.backspace	n/a
156.541	0.061	313082	keystroke_Key.backspace	Key.backspace	n/a
156.691	0.075	313382	keystroke_Key.backspace	Key.backspace	n/a
156.841	0.061	313682	keystroke_Key.backspace	Key.backspace	n/a
157.006	0.046	314012	keystroke_Key.backspace	Key.backspace	n/a
157.652	0.18	315304	keystroke_k	k	n/a
158.011	0.075	316022	keystroke_Key.space	Key.space	n/a
158.207	0.075	316414	keystroke_e	e	n/a
158.522	0.134	317044	keystroke_x	x	n/a
158.732	0.135	317464	keystroke_a	a	n/a
158.882	0.059	317764	keystroke_m	m	n/a
159.031	0.046	318062	keystroke_i	i	n/a
159.152	0.075	318304	keystroke_n	n	n/a
159.272	0.195	318544	keystroke_a	a	n/a
159.527	0.104	319054	keystroke_t	t	n/a
159.602	0.3	319204	keystroke_i	i	n/a
159.692	0.195	319384	keystroke_o	o	n/a
159.752	0.209	319504	keystroke_n	n	n/a
159.902	0.104	319804	keystroke_Key.space	Key.space	n/a
160.141	0.075	320282	keystroke_Key.enter	Key.enter	n/a
160.2235	7.48	320447	prompt	n/a	editor december classical desktops\n
160.967	0.074	321934	keystroke_e	e	n/a
161.132	0.12	322264	keystroke_d	d	n/a
161.282	0.0745	322564	keystroke_i	i	n/a
161.582	0.059	323164	keystroke_t	t	n/a
161.656	0.06	323312	keystroke_o	o	n/a
161.761	0.075	323522	keystroke_r	r	n/a
161.866	0.075	323732	keystroke_Key.space	Key.space	n/a
162.001	0.09	324002	keystroke_d	d	n/a
162.166	0.06	324332	keystroke_e	e	n/a
162.331	0.075	324662	keystroke_c	c	n/a
162.511	0.075	325022	keystroke_e	e	n/a
162.601	0.09	325202	keystroke_m	m	n/a
162.826	0.075	325652	keystroke_b	b	n/a
162.931	0.2255	325862	keystroke_e	e	n/a
163.066	0.135	326132	keystroke_r	r	n/a
163.1865	0.0745	326373	keystroke_Key.space	Key.space	n/a
163.381	0.1055	326762	keystroke_c	c	n/a
163.4715	0.06	326943	keystroke_l	l	n/a
163.5915	0.105	327183	keystroke_a	a	n/a
163.7715	0.075	327543	keystroke_s	s	n/a
163.9215	0.06	327843	keystroke_s	s	n/a
163.9965	0.075	327993	keystroke_i	i	n/a
164.1465	0.135	328293	keystroke_c	c	n/a
164.2965	0.135	328593	keystroke_a	a	n/a
164.4015	0.165	328803	keystroke_l	l	n/a
164.5065	0.105	329013	keystroke_Key.space	Key.space	n/a
164.6415	0.091	329283	keystroke_d	d	n/a
164.8065	0.075	329613	keystroke_e	e	n/a
164.9565	0.135	329913	keystroke_s	s	n/a
165.121	0.031	330242	keystroke_p	p	n/a
165.601	0.075	331202	keystroke_Key.backspace	Key.backspace	n/a
165.841	0.105	331682	keystroke_k	k	n/a
166.966	0.09	333932	keystroke_t	t	n/a
167.026	0.18	334052	keystroke_o	o	n/a
167.177	0.119	334354	keystroke_p	p	n/a
167.327	0.104	334654	keystroke_s	s	n/a
167.446	0.075	334892	keystroke_Key.space	Key.space	n/a
167.626	0.075	335252	keystroke_Key.enter	Key.enter	n/a
167.708	8.0965	335416	prompt	n/a	savage league creating prayers\n
168.302	0.104	336604	keystroke_s	s	n/a
168.496	0.135	336992	keystroke_a	a	n/a
168.736	0.105	337472	keystroke_v	v	n/a
168.842	0.209	337684	keystroke_a	a	n/a
169.037	0.119	338074	keystroke_g	g	n/a
169.111	0.15	338222	keystroke_e	e	n/a
169.276	0.075	338552	keystroke_Key.space	Key.space	n/a
169.441	0.091	338882	keystroke_l	l	n/a
169.846	0.106	339692	keystroke_a	a	n/a
170.477	0.059	340954	keystroke_u	u	n/a
170.851	0.075	341702	keystroke_Key.backspace	Key.backspace	n/a
171.481	0.09	342962	keystroke_Key.backspace	Key.backspace	n/a
171.646	0.075	343292	keystroke_e	e	n/a
171.781	0.151	343562	keystroke_a	a	n/a
172.141	0.09	344282	keystroke_g	g	n/a
172.216	0.09	344432	keystroke_u	u	n/a
172.366	0.12	344732	keystroke_e	e	n/a
172.501	0.09	345002	keystroke_Key.space	Key.space	n/a
172.816	0.0905	345632	keystroke_c	c	n/a
173.0265	0.12	346053	keystroke_r	r	n/a
173.1315	0.18	346263	keystroke_e	e	n/a
173.2515	0.15	346503	keystroke_a	a	n/a
173.4465	0.075	346893	keystroke_t	t	n/a
173.5365	0.12	347073	keystroke_i	i	n/a
173.6415	0.12	347283	keystroke_n	n	n/a
173.8065	0.09	347613	keystroke_g	g	n/a
173.8815	0.075	347763	keystroke_Key.space	Key.space	n/a
174.0465	0.0745	348093	keystroke_p	p	n/a
174.181	0.1205	348362	keystroke_r	r	n/a
174.3765	0.135	348753	keystroke_a	a	n/a
174.9915	0.09	349983	keystroke_y	y	n/a
175.1415	0.195	350283	keystroke_e	e	n/a
175.2765	0.09	350553	keystroke_r	r	n/a
175.457	0.12	350914	keystroke_s	s	n/a
175.546	0.09	351092	keystroke_Key.space	Key.space	n/a
175.711	0.09	351422	keystroke_Key.enter	Key.enter	n/a
175.811	5.4225	351622	prompt	n/a	missouri banks ruby surfaces\n
176.416	0.075	352832	keystroke_m	m	n/a
176.597	0.059	353194	keystroke_i	i	n/a
176.762	0.059	353524	keystroke_s	s	n/a
176.911	0.121	353822	keystroke_s	s	n/a
177.017	0.21	354034	keystroke_o	o	n/a
177.166	0.105	354332	keystroke_u	u	n/a
177.421	0.076	354842	keystroke_r	r	n/a
177.512	0.135	355024	keystroke_i	i	n/a
177.631	0.105	355262	keystroke_Key.space	Key.space	n/a
177.841	0.091	355682	keystroke_b	b	n/a
177.977	0.15	355954	keystroke_a	a	n/a
178.097	0.075	356194	keystroke_n	n	n/a
178.232	0.0895	356464	keystroke_k	k	n/a
178.3665	0.135	356733	keystroke_s	s	n/a
178.4865	0.09	356973	keystroke_Key.space	Key.space	n/a
178.7865	0.09	357573	keystroke_r	r	n/a
178.8915	0.09	357783	keystroke_u	u	n/a
179.1165	0.09	358233	keystroke_b	b	n/a
179.2215	0.135	358443	keystroke_y	y	n/a
179.3265	0.105	358653	keystroke_Key.space	Key.space	n/a
179.4615	0.12	358923	keystroke_s	s	n/a
179.5515	0.09	359103	keystroke_u	u	n/a
179.6865	0.105	359373	keystroke_r	r	n/a
180.0465	0.0895	360093	keystroke_f	f	n/a
180.2865	0.12	360573	keystroke_a	a	n/a
180.5715	0.075	361143	keystroke_c	c	n/a
180.7515	0.075	361503	keystroke_e	e	n/a
180.8865	0.18	361773	keystroke_s	s	n/a
181.0065	0.105	362013	keystroke_Key.space	Key.space	n/a
181.1415	0.09	362283	keystroke_Key.enter	Key.enter	n/a
181.2395	7.809	362479	prompt	n/a	replied my slightly ncaa\n
181.9515	0.105	363903	keystroke_r	r	n/a
182.0415	0.15	364083	keystroke_e	e	n/a
182.3565	0.06	364713	keystroke_p	p	n/a
182.5365	0.105	365073	keystroke_l	l	n/a
182.6715	0.075	365343	keystroke_i	i	n/a
182.7765	0.105	365553	keystroke_e	e	n/a
182.9715	0.105	365943	keystroke_d	d	n/a
183.0915	0.075	366183	keystroke_Key.space	Key.space	n/a
183.4365	0.135	366873	keystroke_m	m	n/a
183.7665	0.135	367533	keystroke_y	y	n/a
183.8565	0.12	367713	keystroke_Key.space	Key.space	n/a
184.0515	0.12	368103	keystroke_s	s	n/a
184.5015	0.09	369003	keystroke_l	l	n/a
184.6365	0.06	369273	keystroke_i	i	n/a
184.7415	0.09	369483	keystroke_g	g	n/a
184.8615	0.09	369723	keystroke_h	h	n/a
185.3265	0.15	370653	keystroke_l	l	n/a
185.7165	0.06	371433	keystroke_y	y	n/a
186.2715	0.105	372543	keystroke_Key.backspace	Key.backspace	n/a
186.8115	0.075	373623	keystroke_Key.backspace	Key.backspace	n/a
187.0365	0.075	374073	keystroke_t	t	n/a
187.2165	0.135	374433	keystroke_l	l	n/a
187.5765	0.09	375153	keystroke_y	y	n/a
187.7565	0.105	375513	keystroke_Key.space	Key.space	n/a
187.9665	0.09	375933	keystroke_n	n	n/a
188.2815	0.09	376563	keystroke_c	c	n/a
188.5215	0.075	377043	keystroke_a	a	n/a
188.7015	0.12	377403	keystroke_a	a	n/a
188.956	0.09	377912	keystroke_Key.enter	Key.enter	n/a
189.0525	6.731	378105	prompt	n/a	intense route willing destiny\n
189.7365	0.06	379473	keystroke_i	i	n/a
189.8865	0.105	379773	keystroke_n	n	n/a
190.111	0.075	380222	keystroke_t	t	n/a
190.246	0.12	380492	keystroke_e	e	n/a
190.351	0.075	380702	keystroke_n	n	n/a
190.486	0.105	380972	keystroke_s	s	n/a
190.636	0.105	381272	keystroke_e	e	n/a
190.786	0.075	381572	keystroke_Key.space	Key.space	n/a
190.951	0.105	381902	keystroke_r	r	n/a
191.011	0.15	382022	keystroke_o	o	n/a
191.116	0.105	382232	keystroke_u	u	n/a
191.356	0.12	382712	keystroke_t	t	n/a
191.477	0.149	382954	keystroke_e	e	n/a
191.611	0.105	383222	keystroke_Key.space	Key.space	n/a
191.776	0.105	383552	keystroke_w	w	n/a
191.866	0.075	383732	keystroke_i	i	n/a
192.181	0.075	384362	keystroke_l	l	n/a
192.436	0.06	384872	keystroke_i	i	n/a
192.616	0.06	385232	keystroke_n	n	n/a
193.066	0.06	386132	keystroke_Key.backspace	Key.backspace	n/a
193.216	0.075	386432	keystroke_Key.backspace	Key.backspace	n/a
193.486	0.135	386972	keystroke_l	l	n/a
193.741	0.061	387482	keystroke_i	i	n/a
193.906	0.075	387812	keystroke_n	n	n/a
194.041	0.106	388082	keystroke_g	g	n/a
194.147	0.059	388294	keystroke_Key.space	Key.space	n/a
194.281	0.0605	388562	keystroke_d	d	n/a
194.4465	0.075	388893	keystroke_e	e	n/a
194.5665	0.15	389133	keystroke_s	s	n/a
194.8665	0.09	389733	keystroke_t	t	n/a
194.9265	0.06	389853	keystroke_i	i	n/a
195.1065	0.06	390213	keystroke_n	n	n/a
195.3465	0.15	390693	keystroke_y	y	n/a
195.4515	0.12	390903	keystroke_Key.space	Key.space	n/a
195.7065	0.075	391413	keystroke_Key.enter	Key.enter	n/a
195.789	5.874	391578	prompt	n/a	treated went africa admissions\n
196.4565	0.09	392913	keystroke_t	t	n/a
196.6215	0.135	393243	keystroke_r	r	n/a
196.8015	0.165	393603	keystroke_e	e	n/a
196.9365	0.18	393873	keystroke_a	a	n/a
197.0715	0.105	394143	keystroke_t	t	n/a
197.2215	0.075	394443	keystroke_e	e	n/a
197.3715	0.105	394743	keystroke_d	d	n/a
197.4915	0.075	394983	keystroke_Key.space	Key.space	n/a
197.6265	0.12	395253	keystroke_w	w	n/a
197.8515	0.135	395703	keystroke_e	e	n/a
198.0315	0.165	396063	keystroke_n	n	n/a
198.3165	0.09	396633	keystroke_t	t	n/a
198.4215	0.075	396843	keystroke_Key.space	Key.space	n/a
198.646	0.1055	397292	keystroke_a	a	n/a
198.8105	0.076	397621	keystroke_f	f	n/a
198.9315	0.12	397863	keystroke_r	r	n/a
199.0665	0.074	398133	keystroke_i	i	n/a
199.2015	0.135	398403	keystroke_c	c	n/a
199.3215	0.134	398643	keystroke_a	a	n/a
199.4705	0.076	398941	keystroke_Key.space	Key.space	n/a
199.6215	0.135	399243	keystroke_a	a	n/a
199.8165	0.09	399633	keystroke_d	d	n/a
199.8915	0.105	399783	keystroke_m	m	n/a
200.0715	0.075	400143	keystroke_i	i	n/a
200.1915	0.089	400383	keystroke_s	s	n/a
200.3555	0.106	400711	keystroke_s	s	n/a
200.6855	0.241	401371	keystroke_o	o	n/a
200.8965	0.164	401793	keystroke_n	n	n/a
201.1965	0.105	402393	keystroke_s	s	n/a
201.4205	0.0905	402841	keystroke_Key.space	Key.space	n/a
201.5555	0.105	403111	keystroke_Key.enter	Key.enter	n/a
201.668	7.315	403336	prompt	n/a	image omaha consistency invention\n
202.277	0.075	404554	keystroke_i	i	n/a
202.456	0.075	404912	keystroke_m	m	n/a
202.577	0.179	405154	keystroke_a	a	n/a
202.771	0.12	405542	keystroke_g	g	n/a
202.861	0.15	405722	keystroke_e	e	n/a
202.996	0.06	405992	keystroke_Key.space	Key.space	n/a
203.221	0.06	406442	keystroke_o	o	n/a
203.386	0.075	406772	keystroke_m	m	n/a
203.536	0.12	407072	keystroke_a	a	n/a
203.686	0.09	407372	keystroke_h	h	n/a
203.836	0.135	407672	keystroke_a	a	n/a
203.972	0.074	407944	keystroke_Key.space	Key.space	n/a
204.302	0.104	408604	keystroke_c	c	n/a
204.421	0.09	408842	keystroke_o	o	n/a
204.572	0.059	409144	keystroke_n	n	n/a
204.721	0.12	409442	keystroke_s	s	n/a
204.856	0.075	409712	keystroke_i	i	n/a
206.1915	0.1505	412383	keystroke_s	s	n/a
206.4905	0.1205	412981	keystroke_t	t	n/a
206.627	0.134	413254	keystroke_e	e	n/a
206.747	0.09	413494	keystroke_n	n	n/a
207.0465	0.1045	414093	keystroke_c	c	n/a
207.331	0.0905	414662	keystroke_y	y	n/a
207.4065	0.09	414813	keystroke_Key.space	Key.space	n/a
207.5565	0.075	415113	keystroke_i	i	n/a
207.7965	0.015	415593	keystroke_n	n	n/a
207.8865	0.1055	415773	keystroke_v	v	n/a
208.006	0.135	416012	keystroke_e	e	n/a
208.156	0.046	416312	keystroke_n	n	n/a
208.291	0.12	416582	keystroke_t	t	n/a
208.397	0.284	416794	keystroke_i	i	n/a
208.501	0.195	417002	keystroke_o	o	n/a
208.577	0.179	417154	keystroke_n	n	n/a
208.711	0.12	417422	keystroke_Key.space	Key.space	n/a
208.891	0.09	417782	keystroke_Key.enter	Key.enter	n/a
208.993	7.82	417986	prompt	n/a	but brilliant documentation geography\n
209.791	0.09	419582	keystroke_b	b	n/a
209.897	0.089	419794	keystroke_u	u	n/a
210.046	0.09	420092	keystroke_t	t	n/a
210.151	0.09	420302	keystroke_Key.space	Key.space	n/a
210.331	0.075	420662	keystroke_b	b	n/a
210.511	0.076	421022	keystroke_r	r	n/a
210.602	0.059	421204	keystroke_i	i	n/a
210.766	0.075	421532	keystroke_l	l	n/a
210.902	0.059	421804	keystroke_l	l	n/a
211.021	0.09	422042	keystroke_i	i	n/a
211.216	0.12	422432	keystroke_a	a	n/a
211.307	0.074	422614	keystroke_n	n	n/a
211.561	0.075	423122	keystroke_t	t	n/a
211.696	0.09	423392	keystroke_Key.space	Key.space	n/a
211.922	0.12	423844	keystroke_d	d	n/a
212.011	0.09	424022	keystroke_o	o	n/a
212.236	0.105	424472	keystroke_c	c	n/a
212.356	0.046	424712	keystroke_u	u	n/a
212.552	0.045	425104	keystroke_m	m	n/a
212.641	0.15	425282	keystroke_e	e	n/a
212.747	0.075	425494	keystroke_n	n	n/a
212.927	0.089	425854	keystroke_t	t	n/a
213.586	0.166	427172	keystroke_a	a	n/a
213.857	0.074	427714	keystroke_t	t	n/a
213.946	0.241	427892	keystroke_i	i	n/a
214.022	0.209	428044	keystroke_o	o	n/a
214.097	0.164	428194	keystroke_n	n	n/a
214.201	0.15	428402	keystroke_Key.space	Key.space	n/a
214.336	0.12	428672	keystroke_g	g	n/a
214.486	0.12	428972	keystroke_e	e	n/a
214.622	0.119	429244	keystroke_o	o	n/a
215.297	0.089	430594	keystroke_g	g	n/a
215.552	0.09	431104	keystroke_r	r	n/a
215.761	0.136	431522	keystroke_a	a	n/a
215.986	0.091	431972	keystroke_p	p	n/a
216.136	0.091	432272	keystroke_h	h	n/a
216.361	0.136	432722	keystroke_y	y	n/a
216.451	0.135	432902	keystroke_Key.space	Key.space	n/a
216.736	0.075	433472	keystroke_Key.enter	Key.enter	n/a
216.8175	7.6465	433635	prompt	n/a	charity dean postings nasdaq\n
217.531	0.105	435062	keystroke_c	c	n/a
217.847	0.074	435694	keystroke_h	h	n/a
217.952	0.135	435904	keystroke_a	a	n/a
218.146	0.09	436292	keystroke_r	r	n/a
218.252	0.059	436504	keystroke_i	i	n/a
218.461	0.016	436922	keystroke_t	t	n/a
218.522	0.134	437044	keystroke_y	y	n/a
218.626	0.135	437252	keystroke_Key.space	Key.space	n/a
218.822	0.164	437644	keystroke_c	c	n/a
218.941	0.075	437882	keystroke_l	l	n/a
219.286	0.075	438572	keystroke_Key.backspace	Key.backspace	n/a
219.451	0.09	438902	keystroke_Key.backspace	Key.backspace	n/a
219.752	0.12	439504	keystroke_d	d	n/a
219.977	0.105	439954	keystroke_e	e	n/a
220.187	0.119	440374	keystroke_a	a	n/a
220.367	0.1045	440734	keystroke_n	n	n/a
220.5615	0.075	441123	keystroke_Key.space	Key.space	n/a
220.7415	0.06	441483	keystroke_p	p	n/a
220.8765	0.075	441753	keystroke_o	o	n/a
220.9815	0.105	441963	keystroke_s	s	n/a
221.1915	0.06	442383	keystroke_t	t	n/a
221.2365	0.09	442473	keystroke_i	i	n/a
221.3565	0.105	442713	keystroke_n	n	n/a
221.4915	0.09	442983	keystroke_g	g	n/a
221.6265	0.06	443253	keystroke_Key.space	Key.space	n/a
221.7615	0.075	443523	keystroke_n	n	n/a
221.8815	0.105	443763	keystroke_a	a	n/a
222.0465	0.105	444093	keystroke_s	s	n/a
222.6025	0.074	445205	keystroke_k	k	n/a
222.9615	0.06	445923	keystroke_Key.backspace	Key.backspace	n/a
223.0815	0.105	446163	keystroke_d	d	n/a
223.2465	0.135	446493	keystroke_a	a	n/a
223.6065	0.09	447213	keystroke_q	q	n/a
223.7565	0.1045	447513	keystroke_Key.space	Key.space	n/a
224.3715	0.09	448743	keystroke_Key.enter	Key.enter	n/a
224.472	6.3965	448944	prompt	n/a	upper enormous sets journalist\n
225.1365	0.075	450273	keystroke_u	u	n/a
225.316	0.06	450632	keystroke_p	p	n/a
225.466	0.075	450932	keystroke_p	p	n/a
225.586	0.165	451172	keystroke_e	e	n/a
225.706	0.105	451412	keystroke_r	r	n/a
225.841	0.075	451682	keystroke_Key.space	Key.space	n/a
226.036	0.09	452072	keystroke_e	e	n/a
226.111	0.09	452222	keystroke_n	n	n/a
226.216	0.135	452432	keystroke_o	o	n/a
226.366	0.09	452732	keystroke_r	r	n/a
226.576	0.105	453152	keystroke_m	m	n/a
226.696	0.18	453392	keystroke_o	o	n/a
226.831	0.12	453662	keystroke_u	u	n/a
227.041	0.105	454082	keystroke_s	s	n/a
227.147	0.089	454294	keystroke_Key.space	Key.space	n/a
227.416	0.165	454832	keystroke_e	e	n/a
227.881	0.09	455762	keystroke_Key.backspace	Key.backspace	n/a
228.016	0.12	456032	keystroke_s	s	n/a
228.181	0.195	456362	keystroke_e	e	n/a
228.406	0.105	456812	keystroke_t	t	n/a
228.631	0.105	457262	keystroke_s	s	n/a
228.7965	0.105	457593	keystroke_Key.space	Key.space	n/a
229.0515	0.09	458103	keystroke_j	j	n/a
229.1565	0.165	458313	keystroke_o	o	n/a
229.2765	0.09	458553	keystroke_u	u	n/a
229.4115	0.075	458823	keystroke_r	r	n/a
229.5465	0.075	459093	keystroke_n	n	n/a
229.6815	0.149	459363	keystroke_a	a	n/a
229.8465	0.075	459693	keystroke_l	l	n/a
229.9505	0.091	459901	keystroke_i	i	n/a
230.0865	0.18	460173	keystroke_s	s	n/a
230.3715	0.09	460743	keystroke_t	t	n/a
230.7915	0.075	461583	keystroke_Key.enter	Key.enter	n/a
230.875	6.308	461750	prompt	n/a	mature economic blocking hearings\n
231.661	0.105	463322	keystroke_m	m	n/a
231.811	0.09	463622	keystroke_a	a	n/a
232.156	0.075	464312	keystroke_t	t	n/a
232.246	0.075	464492	keystroke_u	u	n/a
232.336	0.105	464672	keystroke_r	r	n/a
232.411	0.15	464822	keystroke_e	e	n/a
232.591	0.075	465182	keystroke_Key.space	Key.space	n/a
232.9065	0.075	465813	keystroke_e	e	n/a
233.1315	0.09	466263	keystroke_c	c	n/a
233.2365	0.06	466473	keystroke_o	o	n/a
233.536	0.105	467072	keystroke_n	n	n/a
233.776	0.075	467552	keystroke_o	o	n/a
233.956	0.075	467912	keystroke_m	m	n/a
234.106	0.06	468212	keystroke_i	i	n/a
234.1965	0.135	468393	keystroke_c	c	n/a
234.3915	0.06	468783	keystroke_Key.space	Key.space	n/a
234.6765	0.09	469353	keystroke_b	b	n/a
234.7815	0.03	469563	keystroke_l	l	n/a
234.9165	0.06	469833	keystroke_o	o	n/a
235.0965	0.09	470193	keystroke_c	c	n/a
235.1715	0.075	470343	keystroke_k	k	n/a
235.3365	0.075	470673	keystroke_i	i	n/a
235.4565	0.09	470913	keystroke_n	n	n/a
235.5165	0.105	471033	keystroke_g	g	n/a
235.6515	0.09	471303	keystroke_Key.space	Key.space	n/a
235.8315	0.0595	471663	keystroke_h	h	n/a
235.9215	0.15	471843	keystroke_e	e	n/a
236.0115	0.18	472023	keystroke_a	a	n/a
236.2065	0.12	472413	keystroke_r	r	n/a
236.3115	0.165	472623	keystroke_i	i	n/a
236.4165	0.12	472833	keystroke_n	n	n/a
236.5965	0.09	473193	keystroke_g	g	n/a
236.8215	0.0895	473643	keystroke_s	s	n/a
236.9415	0.0745	473883	keystroke_Key.space	Key.space	n/a
237.106	0.075	474212	keystroke_Key.enter	Key.enter	n/a
237.188	5.245	474376	prompt	n/a	says captured ferry admissions\n
237.7805	0.075	475561	keystroke_s	s	n/a
237.9605	0.105	475921	keystroke_a	a	n/a
238.097	0.074	476194	keystroke_y	y	n/a
238.216	0.105	476432	keystroke_s	s	n/a
238.306	0.09	476612	keystroke_Key.space	Key.space	n/a
238.486	0.1195	476972	keystroke_c	c	n/a
238.636	0.135	477272	keystroke_a	a	n/a
238.831	0.135	477662	keystroke_p	p	n/a
239.101	0.0745	478202	keystroke_t	t	n/a
239.191	0.0595	478382	keystroke_u	u	n/a
239.2955	0.09	478591	keystroke_r	r	n/a
239.372	0.134	478744	keystroke_e	e	n/a
239.596	0.12	479192	keystroke_d	d	n/a
239.746	0.075	479492	keystroke_Key.space	Key.space	n/a
239.941	0.1045	479882	keystroke_f	f	n/a
240.0605	0.12	480121	keystroke_e	e	n/a
240.3155	0.06	480631	keystroke_r	r	n/a
240.4365	0.104	480873	keystroke_r	r	n/a
240.5715	0.104	481143	keystroke_y	y	n/a
240.6605	0.12	481321	keystroke_Key.space	Key.space	n/a
240.9905	0.12	481981	keystroke_a	a	n/a
241.1405	0.105	482281	keystroke_d	d	n/a
241.3055	0.091	482611	keystroke_m	m	n/a
241.4255	0.09	482851	keystroke_i	i	n/a
241.5605	0.06	483121	keystroke_s	s	n/a
241.6955	0.09	483391	keystroke_s	s	n/a
241.8005	0.21	483601	keystroke_i	i	n/a
241.8765	0.149	483753	keystroke_o	o	n/a
241.9505	0.135	483901	keystroke_n	n	n/a
242.1305	0.105	484261	keystroke_s	s	n/a
242.2205	0.12	484441	keystroke_Key.space	Key.space	n/a
242.3255	0.105	484651	keystroke_Key.enter	Key.enter	n/a
242.439	4.8385	484878	prompt	n/a	colleges gods venture well\n
243.1215	0.104	486243	keystroke_c	c	n/a
243.2265	0.074	486453	keystroke_o	o	n/a
243.4055	0.06	486811	keystroke_l	l	n/a
243.5255	0.09	487051	keystroke_l	l	n/a
243.6465	0.119	487293	keystroke_e	e	n/a
243.9755	0.105	487951	keystroke_g	g	n/a
244.0965	0.104	488193	keystroke_e	e	n/a
244.2455	0.135	488491	keystroke_s	s	n/a
244.3955	0.045	488791	keystroke_Key.space	Key.space	n/a
244.6055	0.091	489211	keystroke_g	g	n/a
244.6805	0.06	489361	keystroke_o	o	n/a
244.8155	0.09	489631	keystroke_d	d	n/a
244.9805	0.105	489961	keystroke_s	s	n/a
245.1455	0.075	490291	keystroke_Key.space	Key.space	n/a
245.4455	0.075	490891	keystroke_v	v	n/a
245.6855	0.09	491371	keystroke_e	e	n/a
245.7915	0.089	491583	keystroke_n	n	n/a
245.9855	0.075	491971	keystroke_t	t	n/a
246.0755	0.075	492151	keystroke_u	u	n/a
246.1965	0.059	492393	keystroke_r	r	n/a
246.2255	0.15	492451	keystroke_e	e	n/a
246.4055	0.075	492811	keystroke_Key.space	Key.space	n/a
246.4965	0.12	492993	keystroke_w	w	n/a
246.6605	0.075	493321	keystroke_e	e	n/a
246.7505	0.076	493501	keystroke_l	l	n/a
246.9015	0.149	493803	keystroke_l	l	n/a
247.0205	0.105	494041	keystroke_Key.space	Key.space	n/a
247.2005	0.075	494401	keystroke_Key.enter	Key.enter	n/a
247.2815	6.8965	494563	prompt	n/a	options laboratory sessions scales\n
248.0855	0.105	496171	keystroke_o	o	n/a
248.2055	0.105	496411	keystroke_p	p	n/a
248.5505	0.121	497101	keystroke_t	t	n/a
248.5965	0.3	497193	keystroke_i	i	n/a
248.7005	0.165	497401	keystroke_o	o	n/a
248.7765	0.134	497553	keystroke_n	n	n/a
248.9255	0.09	497851	keystroke_s	s	n/a
249.0165	0.104	498033	keystroke_Key.space	Key.space	n/a
249.5405	0.105	499081	keystroke_l	l	n/a
249.7055	0.09	499411	keystroke_a	a	n/a
249.9605	0.09	499921	keystroke_b	b	n/a
250.1705	0.1515	500341	keystroke_a	a	n/a
250.651	0.09	501302	keystroke_t	t	n/a
250.756	0.075	501512	keystroke_o	o	n/a
250.861	0.0895	501722	keystroke_r	r	n/a
251.0255	0.135	502051	keystroke_y	y	n/a
251.1305	0.1205	502261	keystroke_Key.space	Key.space	n/a
251.2655	0.09	502531	keystroke_s	s	n/a
251.4305	0.075	502861	keystroke_e	e	n/a
251.5955	0.06	503191	keystroke_s	s	n/a
251.7305	0.075	503461	keystroke_s	s	n/a
251.8065	0.179	503613	keystroke_i	i	n/a
251.9405	0.15	503881	keystroke_o	o	n/a
252.0305	0.135	504061	keystroke_n	n	n/a
252.1805	0.09	504361	keystroke_s	s	n/a
252.2855	0.06	504571	keystroke_Key.space	Key.space	n/a
252.4055	0.15	504811	keystroke_s	s	n/a
252.6905	0.135	505381	keystroke_c	c	n/a
252.8705	0.105	505741	keystroke_a	a	n/a
252.9465	0.09	505893	keystroke_l	l	n/a
253.0965	0.075	506193	keystroke_e	e	n/a
253.6665	0.089	507333	keystroke_s	s	n/a
253.8905	0.075	507781	keystroke_Key.space	Key.space	n/a
254.1165	0.059	508233	keystroke_Key.enter	Key.enter	n/a
254.1835	12.13	508367	prompt	n/a	ghana pressure reprint responding\n
256.49	0	512980	keystroke_;	;	n/a
256.606	0.075	513212	keystroke_g	g	n/a
256.741	0.09	513482	keystroke_h	h	n/a
257.281	0.045	514562	keystroke_Key.backspace	Key.backspace	n/a
257.416	0.06	514832	keystroke_Key.backspace	Key.backspace	n/a
257.551	0.09	515102	keystroke_Key.backspace	Key.backspace	n/a
258.016	0.075	516032	keystroke_g	g	n/a
258.136	0.105	516272	keystroke_h	h	n/a
258.361	0.09	516722	keystroke_a	a	n/a
258.466	0.09	516932	keystroke_n	n	n/a
258.631	0.105	517262	keystroke_a	a	n/a
258.766	0.09	517532	keystroke_Key.space	Key.space	n/a
258.991	0.075	517982	keystroke_p	p	n/a
259.111	0.12	518222	keystroke_r	r	n/a
259.201	0.12	518402	keystroke_e	e	n/a
259.396	0.075	518792	keystroke_s	s	n/a
259.546	0.135	519092	keystroke_s	s	n/a
259.741	0.09	519482	keystroke_u	u	n/a
259.981	0.1795	519962	keystroke_r	r	n/a
260.1305	0.136	520261	keystroke_e	e	n/a
260.2805	0.06	520561	keystroke_Key.space	Key.space	n/a
260.5055	0.015	521011	keystroke_r	r	n/a
261.0765	0.104	522153	keystroke_e	e	n/a
261.6005	0.075	523201	keystroke_p	p	n/a
261.8105	0.09	523621	keystroke_r	r	n/a
261.8715	0.075	523743	keystroke_i	i	n/a
262.0365	0.074	524073	keystroke_n	n	n/a
262.1565	0.09	524313	keystroke_t	t	n/a
262.2605	0.09	524521	keystroke_Key.space	Key.space	n/a
262.3965	0.12	524793	keystroke_r	r	n/a
262.4865	0.135	524973	keystroke_e	e	n/a
262.6655	0.151	525331	keystroke_s	s	n/a
262.8605	0.27	525721	keystroke_o	o	n/a
263.0405	0.135	526081	keystroke_n	n	n/a
263.5355	0.075	527071	keystroke_Key.backspace	Key.backspace	n/a
263.6855	0.105	527371	keystroke_Key.backspace	Key.backspace	n/a
264.1065	0.074	528213	keystroke_p	p	n/a
264.2855	0.075	528571	keystroke_i	i	n/a
264.4655	0.045	528931	keystroke_n	n	n/a
264.8255	0.06	529651	keystroke_Key.backspace	Key.backspace	n/a
264.9605	0.075	529921	keystroke_Key.backspace	Key.backspace	n/a
265.2015	0.059	530403	keystroke_o	o	n/a
265.3505	0.06	530701	keystroke_n	n	n/a
265.5605	0.15	531121	keystroke_d	d	n/a
265.6505	0.075	531301	keystroke_i	i	n/a
265.8005	0.06	531601	keystroke_n	n	n/a
265.9055	0.091	531811	keystroke_g	g	n/a
266.0255	0.09	532051	keystroke_Key.space	Key.space	n/a
266.2365	0.074	532473	keystroke_Key.enter	Key.enter	n/a
266.3185	5.9795	532637	prompt	n/a	jewish transmit oscar event\n
266.9865	0.074	533973	keystroke_j	j	n/a
267.0905	0.106	534181	keystroke_e	e	n/a
267.3155	0.12	534631	keystroke_w	w	n/a
267.4515	0.045	534903	keystroke_i	i	n/a
267.5555	0.12	535111	keystroke_s	s	n/a
267.7055	0.166	535411	keystroke_h	h	n/a
267.8255	0.135	535651	keystroke_Key.space	Key.space	n/a
268.0215	0.059	536043	keystroke_t	t	n/a
268.1865	0.074	536373	keystroke_r	r	n/a
268.3205	0.121	536641	keystroke_a	a	n/a
268.4555	0.091	536911	keystroke_m	m	n/a
268.6215	0.09	537243	keystroke_s	s	n/a
268.9055	0.091	537811	keystroke_m	m	n/a
269.0265	0.09	538053	keystroke_i	i	n/a
269.2965	0.075	538593	keystroke_t	t	n/a
269.4005	0.0605	538801	keystroke_Key.space	Key.space	n/a
269.686	0.045	539372	keystroke_o	o	n/a
269.911	0.09	539822	keystroke_s	s	n/a
270.166	0.15	540332	keystroke_c	c	n/a
270.331	0.195	540662	keystroke_a	a	n/a
270.496	0.12	540992	keystroke_r	r	n/a
270.631	0.075	541262	keystroke_Key.space	Key.space	n/a
270.766	0.105	541532	keystroke_e	e	n/a
270.961	0.12	541922	keystroke_v	v	n/a
271.051	0.135	542102	keystroke_e	e	n/a
271.156	0.18	542312	keystroke_n	n	n/a
271.291	0.105	542582	keystroke_Key.space	Key.space	n/a
271.786	0.09	543572	keystroke_Key.backspace	Key.backspace	n/a
271.981	0.12	543962	keystroke_t	t	n/a
272.206	0.09	544412	keystroke_Key.enter	Key.enter	n/a
272.3035	8.9495	544607	prompt	n/a	tripadvisor government like mention\n
273.8555	0.061	547711	keystroke_t	t	n/a
274.0055	0.091	548011	keystroke_r	r	n/a
274.1255	0.091	548251	keystroke_i	i	n/a
274.3355	0.075	548671	keystroke_p	p	n/a
274.5165	0.119	549033	keystroke_a	a	n/a
274.6955	0.105	549391	keystroke_d	d	n/a
275.5965	0.089	551193	keystroke_v	v	n/a
276.2255	0.075	552451	keystroke_i	i	n/a
276.4215	0.119	552843	keystroke_s	s	n/a
276.5105	0.076	553021	keystroke_o	o	n/a
276.6915	0.089	553383	keystroke_r	r	n/a
276.7965	0.089	553593	keystroke_Key.space	Key.space	n/a
276.9915	0.059	553983	keystroke_g	g	n/a
277.0665	0.075	554133	keystroke_o	o	n/a
277.2165	0.225	554433	keystroke_v	v	n/a
277.4255	0.2405	554851	keystroke_e	e	n/a
277.591	0.12	555182	keystroke_r	r	n/a
277.681	0.0755	555362	keystroke_n	n	n/a
277.9065	0.075	555813	keystroke_m	m	n/a
278.0265	0.18	556053	keystroke_e	e	n/a
278.1465	0.075	556293	keystroke_n	n	n/a
278.296	0.06	556592	keystroke_t	t	n/a
278.416	0.045	556832	keystroke_Key.space	Key.space	n/a
278.566	0.03	557132	keystroke_k	k	n/a
279.271	0.0605	558542	keystroke_Key.backspace	Key.backspace	n/a
279.4815	0.105	558963	keystroke_l	l	n/a
279.6465	0.075	559293	keystroke_i	i	n/a
279.8115	0.075	559623	keystroke_k	k	n/a
279.9165	0.105	559833	keystroke_e	e	n/a
280.0065	0.09	560013	keystroke_Key.space	Key.space	n/a
280.1115	0.09	560223	keystroke_m	m	n/a
280.2315	0.165	560463	keystroke_e	e	n/a
280.3365	0.0745	560673	keystroke_n	n	n/a
280.501	0.105	561002	keystroke_t	t	n/a
280.591	0.33	561182	keystroke_i	i	n/a
280.711	0.225	561422	keystroke_o	o	n/a
280.801	0.18	561602	keystroke_n	n	n/a
280.951	0.09	561902	keystroke_Key.space	Key.space	n/a
281.176	0.0755	562352	keystroke_Key.enter	Key.enter	n/a
281.258	5.0055	562516	prompt	n/a	southern only therapy dame\n
281.926	0.091	563852	keystroke_s	s	n/a
282.031	0.18	564062	keystroke_o	o	n/a
282.167	0.075	564334	keystroke_u	u	n/a
282.331	0.091	564662	keystroke_t	t	n/a
282.377	0.074	564754	keystroke_h	h	n/a
282.467	0.179	564934	keystroke_e	e	n/a
282.586	0.106	565172	keystroke_r	r	n/a
282.752	0.105	565504	keystroke_n	n	n/a
283.382	0.089	566764	keystroke_Key.space	Key.space	n/a
283.531	0.06	567062	keystroke_o	o	n/a
283.696	0.076	567392	keystroke_n	n	n/a
283.831	0.105	567662	keystroke_l	l	n/a
284.011	0.09	568022	keystroke_y	y	n/a
284.086	0.105	568172	keystroke_Key.space	Key.space	n/a
284.311	0.09	568622	keystroke_t	t	n/a
284.356	0.061	568712	keystroke_h	h	n/a
284.492	0.194	568984	keystroke_e	e	n/a
284.656	0.12	569312	keystroke_r	r	n/a
284.896	0.106	569792	keystroke_a	a	n/a
285.076	0.121	570152	keystroke_p	p	n/a
285.301	0.12	570602	keystroke_y	y	n/a
285.376	0.135	570752	keystroke_Key.space	Key.space	n/a
285.526	0.15	571052	keystroke_d	d	n/a
285.661	0.135	571322	keystroke_a	a	n/a
285.811	0.076	571622	keystroke_m	m	n/a
285.931	0.0905	571862	keystroke_e	e	n/a
286.0215	0.089	572043	keystroke_Key.space	Key.space	n/a
286.1715	0.09	572343	keystroke_Key.enter	Key.enter	n/a
286.2685	10.991	572537	prompt	n/a	blake moved berkeley detective\n
287.1015	0.075	574203	keystroke_b	b	n/a
287.2065	0.075	574413	keystroke_l	l	n/a
287.356	0.105	574712	keystroke_a	a	n/a
287.491	0.09	574982	keystroke_k	k	n/a
287.641	0.105	575282	keystroke_e	e	n/a
287.761	0.075	575522	keystroke_Key.space	Key.space	n/a
288.046	0.045	576092	keystroke_m	m	n/a
288.076	0.045	576152	keystroke_o	o	n/a
288.211	0.06	576422	keystroke_v	v	n/a
288.256	0.09	576512	keystroke_e	e	n/a
288.451	0.15	576902	keystroke_d	d	n/a
288.586	0.06	577172	keystroke_Key.space	Key.space	n/a
288.976	0.27	577952	keystroke_e	e	n/a
289.156	0.135	578312	keystroke_r	r	n/a
289.411	0.15	578822	keystroke_k	k	n/a
289.636	0.09	579272	keystroke_e	e	n/a
289.771	0.105	579542	keystroke_l	l	n/a
290.041	0.105	580082	keystroke_y	y	n/a
290.641	0.075	581282	keystroke_Key.backspace	Key.backspace	n/a
290.8205	0.06	581641	keystroke_Key.backspace	Key.backspace	n/a
290.9555	0.0755	581911	keystroke_Key.backspace	Key.backspace	n/a
291.091	0.075	582182	keystroke_Key.backspace	Key.backspace	n/a
291.2555	0.0615	582511	keystroke_Key.backspace	Key.backspace	n/a
291.4055	0.09	582811	keystroke_Key.backspace	Key.backspace	n/a
291.6455	0.105	583291	keystroke_b	b	n/a
291.9915	0.1345	583983	keystroke_e	e	n/a
292.2315	0.09	584463	keystroke_r	r	n/a
292.4265	0.105	584853	keystroke_k	k	n/a
292.6215	0.075	585243	keystroke_e	e	n/a
292.7415	0.105	585483	keystroke_l	l	n/a
293.6415	0.09	587283	keystroke_e	e	n/a
293.9255	0.15	587851	keystroke_y	y	n/a
294.1655	0.12	588331	keystroke_Key.space	Key.space	n/a
294.5715	0.09	589143	keystroke_d	d	n/a
294.9915	0.105	589983	keystroke_e	e	n/a
295.2615	0.075	590523	keystroke_t	t	n/a
295.3805	0.12	590761	keystroke_e	e	n/a
295.9965	0.029	591993	keystroke_c	c	n/a
296.2515	0.074	592503	keystroke_t	t	n/a
296.4165	0.059	592833	keystroke_i	i	n/a
296.5215	0.165	593043	keystroke_v	v	n/a
296.6255	0.136	593251	keystroke_e	e	n/a
297.1365	0.12	594273	keystroke_Key.enter	Key.enter	n/a
297.2675	6.4405	594535	prompt	n/a	indians specialties domain oasis\n
297.871	0.075	595742	keystroke_i	i	n/a
298.036	0.06	596072	keystroke_n	n	n/a
298.156	0.135	596312	keystroke_d	d	n/a
298.246	0.06	596492	keystroke_i	i	n/a
298.366	0.105	596732	keystroke_a	a	n/a
298.486	0.0455	596972	keystroke_n	n	n/a
298.606	0.09	597212	keystroke_s	s	n/a
298.711	0.09	597422	keystroke_Key.space	Key.space	n/a
299.026	0.135	598052	keystroke_s	s	n/a
299.146	0.075	598292	keystroke_p	p	n/a
299.281	0.09	598562	keystroke_e	e	n/a
299.506	0.135	599012	keystroke_c	c	n/a
299.626	0.06	599252	keystroke_i	i	n/a
299.701	0.105	599402	keystroke_a	a	n/a
299.821	0.105	599642	keystroke_l	l	n/a
300.211	0.075	600422	keystroke_t	t	n/a
300.287	0.059	600574	keystroke_i	i	n/a
300.406	0.09	600812	keystroke_e	e	n/a
300.571	0.105	601142	keystroke_s	s	n/a
300.706	0.075	601412	keystroke_Key.space	Key.space	n/a
301.111	0.105	602222	keystroke_d	d	n/a
301.276	0.075	602552	keystroke_o	o	n/a
301.471	0.075	602942	keystroke_m	m	n/a
301.621	0.105	603242	keystroke_a	a	n/a
301.741	0.195	603482	keystroke_i	i	n/a
301.876	0.195	603752	keystroke_n	n	n/a
302.026	0.12	604052	keystroke_Key.space	Key.space	n/a
302.761	0.045	605522	keystroke_o	o	n/a
302.866	0.105	605732	keystroke_a	a	n/a
303.061	0.091	606122	keystroke_s	s	n/a
303.256	0.061	606512	keystroke_i	i	n/a
303.346	0.105	606692	keystroke_s	s	n/a
303.466	0.075	606932	keystroke_Key.space	Key.space	n/a
303.631	0.075	607262	keystroke_Key.enter	Key.enter	n/a
303.7115	6.8215	607423	prompt	n/a	design youth quarterly assigned\n
305.206	0.075	610412	keystroke_d	d	n/a
305.386	0.06	610772	keystroke_e	e	n/a
305.566	0.105	611132	keystroke_s	s	n/a
305.701	0.075	611402	keystroke_i	i	n/a
305.881	0.09	611762	keystroke_g	g	n/a
305.972	0.089	611944	keystroke_n	n	n/a
306.166	0.09	612332	keystroke_Key.space	Key.space	n/a
306.571	0.15	613142	keystroke_y	y	n/a
306.722	0.179	613444	keystroke_o	o	n/a
306.811	0.12	613622	keystroke_u	u	n/a
307.066	0.0745	614132	keystroke_t	t	n/a
307.1105	0.165	614221	keystroke_h	h	n/a
307.2305	0.12	614461	keystroke_Key.space	Key.space	n/a
307.4705	0.09	614941	keystroke_q	q	n/a
307.5755	0.0905	615151	keystroke_u	u	n/a
307.741	0.1645	615482	keystroke_a	a	n/a
307.9655	0.075	615931	keystroke_r	r	n/a
308.3105	0.09	616621	keystroke_t	t	n/a
308.431	0.2095	616862	keystroke_e	e	n/a
308.596	0.0745	617192	keystroke_r	r	n/a
308.6555	0.1365	617311	keystroke_l	l	n/a
308.9115	0.089	617823	keystroke_y	y	n/a
308.9865	0.119	617973	keystroke_Key.space	Key.space	n/a
309.1515	0.0895	618303	keystroke_a	a	n/a
309.346	0.045	618692	keystroke_s	s	n/a
309.481	0.09	618962	keystroke_s	s	n/a
309.541	0.076	619082	keystroke_i	i	n/a
309.736	0.09	619472	keystroke_g	g	n/a
309.841	0.09	619682	keystroke_n	n	n/a
309.946	0.09	619892	keystroke_e	e	n/a
310.111	0.105	620222	keystroke_d	d	n/a
310.261	0.105	620522	keystroke_Key.space	Key.space	n/a
310.456	0.075	620912	keystroke_Key.enter	Key.enter	n/a
310.537	7.736	621074	prompt	n/a	drugs sections indigenous disclaimer\n
311.161	0.135	622322	keystroke_d	d	n/a
311.371	0.09	622742	keystroke_r	r	n/a
311.506	0.075	623012	keystroke_u	u	n/a
311.671	0.075	623342	keystroke_g	g	n/a
311.851	0.09	623702	keystroke_s	s	n/a
311.971	0.075	623942	keystroke_Key.space	Key.space	n/a
312.121	0.105	624242	keystroke_s	s	n/a
312.286	0.06	624572	keystroke_e	e	n/a
312.466	0.105	624932	keystroke_c	c	n/a
312.691	0.09	625382	keystroke_t	t	n/a
312.796	0.255	625592	keystroke_i	i	n/a
312.856	0.211	625712	keystroke_o	o	n/a
312.976	0.15	625952	keystroke_n	n	n/a
313.111	0.105	626222	keystroke_s	s	n/a
313.231	0.1045	626462	keystroke_Key.space	Key.space	n/a
313.3055	0.136	626611	keystroke_i	i	n/a
313.4425	0.103	626885	keystroke_n	n	n/a
313.7405	0.09	627481	keystroke_d	d	n/a
313.9355	0.075	627871	keystroke_e	e	n/a
314.4755	0.075	628951	keystroke_Key.backspace	Key.backspace	n/a
314.7165	0.0595	629433	keystroke_i	i	n/a
315.0305	0.091	630061	keystroke_g	g	n/a
315.4515	0.09	630903	keystroke_e	e	n/a
315.5715	0.12	631143	keystroke_n	n	n/a
315.7665	0.1795	631533	keystroke_o	o	n/a
315.916	0.059	631832	keystroke_u	u	n/a
316.006	0.135	632012	keystroke_s	s	n/a
316.142	0.073	632284	keystroke_Key.space	Key.space	n/a
316.306	0.075	632612	keystroke_d	d	n/a
316.681	0.074	633362	keystroke_i	i	n/a
316.861	0.12	633722	keystroke_s	s	n/a
317.116	0.135	634232	keystroke_c	c	n/a
317.236	0.09	634472	keystroke_l	l	n/a
317.4005	0.105	634801	keystroke_a	a	n/a
317.5355	0.045	635071	keystroke_i	i	n/a
317.6855	0.075	635371	keystroke_m	m	n/a
317.8055	0.195	635611	keystroke_e	e	n/a
317.9405	0.135	635881	keystroke_r	r	n/a
318.0455	0.075	636091	keystroke_Key.space	Key.space	n/a
318.181	0.0895	636362	keystroke_Key.enter	Key.enter	n/a
318.2785	13.1055	636557	prompt	n/a	librarian strategy entire instrumentation\n
318.946	0.06	637892	keystroke_s	s	n/a
318.991	0.09	637982	keystroke_l	l	n/a
319.171	0.075	638342	keystroke_i	i	n/a
319.426	0.075	638852	keystroke_Key.backspace	Key.backspace	n/a
319.5905	0.045	639181	keystroke_Key.backspace	Key.backspace	n/a
319.7255	0.045	639451	keystroke_Key.backspace	Key.backspace	n/a
319.9355	0.09	639871	keystroke_l	l	n/a
320.101	0.0745	640202	keystroke_i	i	n/a
320.2955	0.09	640591	keystroke_b	b	n/a
320.5055	0.09	641011	keystroke_r	r	n/a
320.656	0.1345	641312	keystroke_a	a	n/a
321.4505	0.105	642901	keystroke_r	r	n/a
321.5405	0.075	643081	keystroke_i	i	n/a
321.6755	0.135	643351	keystroke_a	a	n/a
321.8255	0.195	643651	keystroke_n	n	n/a
321.9755	0.12	643951	keystroke_Key.space	Key.space	n/a
322.1705	0.135	644341	keystroke_s	s	n/a
322.3805	0.075	644761	keystroke_t	t	n/a
322.5305	0.135	645061	keystroke_r	r	n/a
322.7705	0.06	645541	keystroke_Key.caps_lock	Key.caps_lock	n/a
323.4605	0.15	646921	keystroke_a	a	n/a
324.0755	0.105	648151	keystroke_Key.backspace	Key.backspace	n/a
324.2405	0.09	648481	keystroke_Key.caps_lock	Key.caps_lock	n/a
324.5705	0.12	649141	keystroke_a	a	n/a
324.8555	0.1195	649711	keystroke_t	t	n/a
325.035	0.1505	650070	keystroke_e	e	n/a
325.3955	0.091	650791	keystroke_g	g	n/a
325.5755	0.15	651151	keystroke_y	y	n/a
325.6655	0.135	651331	keystroke_Key.space	Key.space	n/a
325.905	0.12	651810	keystroke_e	e	n/a
326.011	0.059	652022	keystroke_n	n	n/a
326.22	0.09	652440	keystroke_t	t	n/a
326.28	0.075	652560	keystroke_i	i	n/a
326.415	0.0605	652830	keystroke_r	r	n/a
326.4455	0.165	652891	keystroke_e	e	n/a
326.6255	0.09	653251	keystroke_Key.space	Key.space	n/a
326.7005	0.12	653401	keystroke_i	i	n/a
326.955	0.0765	653910	keystroke_n	n	n/a
327.015	0.165	654030	keystroke_s	s	n/a
327.285	0.075	654570	keystroke_t	t	n/a
328.1115	0.089	656223	keystroke_r	r	n/a
328.2165	0.059	656433	keystroke_u	u	n/a
328.4115	0.075	656823	keystroke_m	m	n/a
328.5455	0.166	657091	keystroke_e	e	n/a
328.6355	0.09	657271	keystroke_n	n	n/a
328.8615	0.119	657723	keystroke_t	t	n/a
329.9855	0.105	659971	keystroke_a	a	n/a
330.6615	0.089	661323	keystroke_t	t	n/a
330.7655	0.3155	661531	keystroke_i	i	n/a
330.886	0.195	661772	keystroke_o	o	n/a
330.976	0.18	661952	keystroke_n	n	n/a
331.126	0.135	662252	keystroke_Key.space	Key.space	n/a
331.291	0.09	662582	keystroke_Key.enter	Key.enter	n/a
331.39	10.012	662780	prompt	n/a	tracked stayed businesses accessory\n
332.296	0.0605	664592	keystroke_t	t	n/a
332.4305	0.09	664861	keystroke_r	r	n/a
332.5955	0.105	665191	keystroke_a	a	n/a
332.7915	0.104	665583	keystroke_c	c	n/a
332.9115	0.075	665823	keystroke_k	k	n/a
333.0005	0.076	666001	keystroke_e	e	n/a
333.1505	0.136	666301	keystroke_d	d	n/a
333.3005	0.06	666601	keystroke_Key.space	Key.space	n/a
333.3915	0.1195	666783	keystroke_s	s	n/a
333.646	0.09	667292	keystroke_t	t	n/a
333.811	0.135	667622	keystroke_a	a	n/a
333.976	0.06	667952	keystroke_y	y	n/a
334.126	0.06	668252	keystroke_e	e	n/a
334.276	0.105	668552	keystroke_d	d	n/a
334.396	0.09	668792	keystroke_Key.space	Key.space	n/a
334.606	0.075	669212	keystroke_b	b	n/a
334.7105	0.075	669421	keystroke_u	u	n/a
334.8755	0.12	669751	keystroke_s	s	n/a
334.9965	0.074	669993	keystroke_n	n	n/a
335.1905	0.09	670381	keystroke_e	e	n/a
335.4615	0.089	670923	keystroke_s	s	n/a
335.6415	0.075	671283	keystroke_s	s	n/a
335.8355	0.06	671671	keystroke_Key.backspace	Key.backspace	n/a
336.3745	0.075	672749	keystroke_Key.backspace	Key.backspace	n/a
336.57	0.03	673140	keystroke_Key.backspace	Key.backspace	n/a
336.705	0.045	673410	keystroke_Key.backspace	Key.backspace	n/a
336.84	0.09	673680	keystroke_Key.backspace	Key.backspace	n/a
337.875	0.075	675750	keystroke_s	s	n/a
337.981	0.074	675962	keystroke_i	i	n/a
338.1755	0.06	676351	keystroke_n	n	n/a
338.2665	0.089	676533	keystroke_e	e	n/a
338.4455	0.06	676891	keystroke_s	s	n/a
338.5815	0.0735	677163	keystroke_s	s	n/a
338.7315	0.06	677463	keystroke_e	e	n/a
338.8805	0.12	677761	keystroke_s	s	n/a
339.0305	0.0755	678061	keystroke_Key.space	Key.space	n/a
339.211	0.104	678422	keystroke_a	a	n/a
339.496	0.09	678992	keystroke_c	c	n/a
339.661	0.089	679322	keystroke_c	c	n/a
340.111	0.09	680222	keystroke_e	e	n/a
340.351	0.06	680702	keystroke_s	s	n/a
340.501	0.09	681002	keystroke_s	s	n/a
340.621	0.075	681242	keystroke_o	o	n/a
340.8155	0.105	681631	keystroke_r	r	n/a
340.951	0.15	681902	keystroke_y	y	n/a
341.0705	0.0905	682141	keystroke_Key.space	Key.space	n/a
341.3405	0.06	682681	keystroke_Key.enter	Key.enter	n/a
341.4085	5.8595	682817	prompt	n/a	triangle donor citizens rage\n
342.196	0.045	684392	keystroke_t	t	n/a
342.3305	0.0905	684661	keystroke_r	r	n/a
342.4355	0.0605	684871	keystroke_i	i	n/a
342.646	0.105	685292	keystroke_a	a	n/a
343.0055	0.09	686011	keystroke_n	n	n/a
343.2905	0.075	686581	keystroke_g	g	n/a
343.3805	0.075	686761	keystroke_l	l	n/a
343.5155	0.09	687031	keystroke_e	e	n/a
343.6205	0.075	687241	keystroke_Key.space	Key.space	n/a
343.8155	0.12	687631	keystroke_d	d	n/a
343.9055	0.075	687811	keystroke_o	o	n/a
344.1755	0.09	688351	keystroke_n	n	n/a
344.3255	0.075	688651	keystroke_o	o	n/a
344.5205	0.075	689041	keystroke_r	r	n/a
344.6405	0.03	689281	keystroke_Key.space	Key.space	n/a
344.7905	0.12	689581	keystroke_c	c	n/a
344.8805	0.06	689761	keystroke_i	i	n/a
345.1055	0.075	690211	keystroke_t	t	n/a
345.1805	0.06	690361	keystroke_i	i	n/a
345.4055	0.09	690811	keystroke_z	z	n/a
345.6005	0.075	691201	keystroke_e	e	n/a
345.7805	0.09	691561	keystroke_n	n	n/a
345.9905	0.105	691981	keystroke_s	s	n/a
346.1105	0.06	692221	keystroke_Key.space	Key.space	n/a
346.3205	0.09	692641	keystroke_r	r	n/a
346.5155	0.21	693031	keystroke_a	a	n/a
346.8155	0.105	693631	keystroke_g	g	n/a
346.9355	0.135	693871	keystroke_e	e	n/a
347.0405	0.105	694081	keystroke_Key.space	Key.space	n/a
347.1755	0.09	694351	keystroke_Key.enter	Key.enter	n/a
347.273	12.5325	694546	prompt	n/a	gossip mediterranean compromise manhattan\n
348.1655	0.075	696331	keystroke_g	g	n/a
348.2555	0.06	696511	keystroke_o	o	n/a
348.4355	0.06	696871	keystroke_s	s	n/a
348.5855	0.105	697171	keystroke_s	s	n/a
348.9455	0.12	697891	keystroke_i	i	n/a
349.2005	0.075	698401	keystroke_p	p	n/a
349.4105	0.06	698821	keystroke_Key.space	Key.space	n/a
349.5905	0.075	699181	keystroke_m	m	n/a
349.6955	0.075	699391	keystroke_e	e	n/a
349.9055	0.12	699811	keystroke_d	d	n/a
350.0405	0.045	700081	keystroke_i	i	n/a
350.3115	0.119	700623	keystroke_t	t	n/a
350.4605	0.18	700921	keystroke_e	e	n/a
350.5955	0.06	701191	keystroke_r	r	n/a
351.3005	0.09	702601	keystroke_r	r	n/a
351.4505	0.105	702901	keystroke_r	r	n/a
351.6905	0.12	703381	keystroke_a	a	n/a
352.0805	0.105	704161	keystroke_n	n	n/a
352.2905	0.135	704581	keystroke_e	e	n/a
352.4555	0.12	704911	keystroke_a	a	n/a
352.6355	0.165	705271	keystroke_n	n	n/a
352.7555	0.12	705511	keystroke_Key.space	Key.space	n/a
352.9505	0.106	705901	keystroke_c	c	n/a
353.0255	0.15	706051	keystroke_o	o	n/a
353.1005	0.18	706201	keystroke_m	m	n/a
353.2205	0.105	706441	keystroke_p	p	n/a
353.4005	0.075	706801	keystroke_r	r	n/a
353.4905	0.06	706981	keystroke_o	o	n/a
353.6405	0.12	707281	keystroke_m	m	n/a
353.79	0.15	707580	keystroke_o	o	n/a
354.1805	0.09	708361	keystroke_m	m	n/a
354.8705	0.09	709741	keystroke_i	i	n/a
355.4405	0.06	710881	keystroke_Key.backspace	Key.backspace	n/a
355.6205	0.075	711241	keystroke_Key.backspace	Key.backspace	n/a
355.8005	0.075	711601	keystroke_Key.backspace	Key.backspace	n/a
355.9655	0.09	711931	keystroke_Key.backspace	Key.backspace	n/a
357.2585	0.0445	714517	keystroke_m	m	n/a
357.3435	0.045	714687	keystroke_i	i	n/a
357.4635	0.09	714927	keystroke_s	s	n/a
357.6285	0.0895	715257	keystroke_e	e	n/a
357.808	0.06	715616	keystroke_Key.space	Key.space	n/a
357.9885	0.09	715977	keystroke_m	m	n/a
358.1535	0.135	716307	keystroke_a	a	n/a
358.2745	0.075	716549	keystroke_n	n	n/a
358.5135	0.09	717027	keystroke_h	h	n/a
358.6935	0.09	717387	keystroke_a	a	n/a
358.9495	0.075	717899	keystroke_t	t	n/a
359.0685	0.106	718137	keystroke_t	t	n/a
359.2485	0.15	718497	keystroke_a	a	n/a
359.3835	0.18	718767	keystroke_n	n	n/a
359.5335	0.12	719067	keystroke_Key.space	Key.space	n/a
359.7285	0.075	719457	keystroke_Key.enter	Key.enter	n/a
359.812	6.173	719624	prompt	n/a	soul welcome fixtures mechanics\n
360.4945	0.164	720989	keystroke_s	s	n/a
360.6285	0.165	721257	keystroke_o	o	n/a
360.7635	0.045	721527	keystroke_u	u	n/a
360.9285	0.15	721857	keystroke_l	l	n/a
361.0485	0.09	722097	keystroke_Key.space	Key.space	n/a
361.5435	0.06	723087	keystroke_w	w	n/a
361.6785	0.121	723357	keystroke_e	e	n/a
361.7685	0.09	723537	keystroke_l	l	n/a
361.9635	0.105	723927	keystroke_c	c	n/a
362.0385	0.15	724077	keystroke_o	o	n/a
362.1285	0.12	724257	keystroke_m	m	n/a
362.2495	0.089	724499	keystroke_e	e	n/a
362.3535	0.105	724707	keystroke_Key.space	Key.space	n/a
362.4435	0.09	724887	keystroke_i	i	n/a
362.8935	0.06	725787	keystroke_Key.backspace	Key.backspace	n/a
363.0285	0.12	726057	keystroke_f	f	n/a
363.1335	0.06	726267	keystroke_i	i	n/a
363.3435	0.135	726687	keystroke_x	x	n/a
363.6285	0.075	727257	keystroke_t	t	n/a
363.7185	0.075	727437	keystroke_u	u	n/a
363.8235	0.105	727647	keystroke_r	r	n/a
363.9135	0.15	727827	keystroke_e	e	n/a
364.1245	0.104	728249	keystroke_s	s	n/a
364.2435	0.12	728487	keystroke_Key.space	Key.space	n/a
364.3785	0.09	728757	keystroke_m	m	n/a
364.4835	0.091	728967	keystroke_e	e	n/a
364.7085	0.136	729417	keystroke_c	c	n/a
364.8285	0.06	729657	keystroke_h	h	n/a
365.0245	0.119	730049	keystroke_a	a	n/a
365.1135	0.061	730227	keystroke_n	n	n/a
365.2495	0.059	730499	keystroke_i	i	n/a
365.3995	0.089	730799	keystroke_c	c	n/a
365.5635	0.105	731127	keystroke_s	s	n/a
365.7135	0.075	731427	keystroke_Key.space	Key.space	n/a
365.9685	0.015	731937	keystroke_Key.enter	Key.enter	n/a
365.992	6.0985	731984	prompt	n/a	nashville legally featuring package\n
366.5995	0.075	733199	keystroke_n	n	n/a
366.7185	0.075	733437	keystroke_a	a	n/a
367.303	0.0605	734606	keystroke_s	s	n/a
367.3495	0.074	734699	keystroke_h	h	n/a
367.6185	0.075	735237	keystroke_v	v	n/a
367.7085	0.06	735417	keystroke_i	i	n/a
367.8885	0.03	735777	keystroke_l	l	n/a
367.9785	0.09	735957	keystroke_l	l	n/a
368.0835	0.105	736167	keystroke_e	e	n/a
368.1735	0.075	736347	keystroke_Key.space	Key.space	n/a
368.3085	0.09	736617	keystroke_l	l	n/a
368.443	0.135	736886	keystroke_e	e	n/a
368.698	0.0755	737396	keystroke_g	g	n/a
368.8775	0.1355	737755	keystroke_a	a	n/a
368.998	0.06	737996	keystroke_l	l	n/a
369.148	0.0755	738296	keystroke_l	l	n/a
369.3285	0.1195	738657	keystroke_y	y	n/a
369.433	0.105	738866	keystroke_Key.space	Key.space	n/a
369.628	0.1205	739256	keystroke_f	f	n/a
369.7635	0.1345	739527	keystroke_e	e	n/a
369.943	0.135	739886	keystroke_a	a	n/a
370.213	0.075	740426	keystroke_t	t	n/a
370.348	0.045	740696	keystroke_u	u	n/a
370.468	0.106	740936	keystroke_r	r	n/a
370.558	0.105	741116	keystroke_e	e	n/a
370.738	0.135	741476	keystroke_d	d	n/a
370.843	0.135	741686	keystroke_Key.space	Key.space	n/a
370.9635	0.0745	741927	keystroke_p	p	n/a
371.098	0.09	742196	keystroke_a	a	n/a
371.249	0.119	742498	keystroke_c	c	n/a
371.323	0.09	742646	keystroke_k	k	n/a
371.489	0.194	742978	keystroke_a	a	n/a
371.668	0.12	743336	keystroke_g	g	n/a
371.773	0.12	743546	keystroke_e	e	n/a
371.878	0.075	743756	keystroke_Key.space	Key.space	n/a
371.998	0.09	743996	keystroke_Key.enter	Key.enter	n/a
372.0945	6.026	744189	prompt	n/a	chrysler david sort marcus\n
372.868	0.075	745736	keystroke_c	c	n/a
372.988	0.075	745976	keystroke_h	h	n/a
373.183	0.075	746366	keystroke_r	r	n/a
373.303	0.06	746606	keystroke_y	y	n/a
373.423	0.165	746846	keystroke_s	s	n/a
373.723	0.075	747446	keystroke_l	l	n/a
373.858	0.165	747716	keystroke_e	e	n/a
373.963	0.135	747926	keystroke_r	r	n/a
374.113	0.045	748226	keystroke_Key.space	Key.space	n/a
374.218	0.15	748436	keystroke_d	d	n/a
374.353	0.105	748706	keystroke_a	a	n/a
374.533	0.12	749066	keystroke_v	v	n/a
374.668	0.03	749336	keystroke_i	i	n/a
374.908	0.06	749816	keystroke_Key.space	Key.space	n/a
375.073	0.105	750146	keystroke_s	s	n/a
375.538	0.06	751076	keystroke_Key.backspace	Key.backspace	n/a
375.673	0.075	751346	keystroke_Key.backspace	Key.backspace	n/a
375.793	0.15	751586	keystroke_d	d	n/a
375.928	0.06	751856	keystroke_Key.space	Key.space	n/a
376.048	0.135	752096	keystroke_s	s	n/a
376.153	0.06	752306	keystroke_o	o	n/a
376.318	0.105	752636	keystroke_r	r	n/a
376.513	0.105	753026	keystroke_t	t	n/a
376.678	0.09	753356	keystroke_Key.space	Key.space	n/a
376.948	0.09	753896	keystroke_m	m	n/a
377.128	0.12	754256	keystroke_a	a	n/a
377.323	0.075	754646	keystroke_r	r	n/a
377.5495	0.089	755099	keystroke_c	c	n/a
377.668	0.0755	755336	keystroke_u	u	n/a
377.7885	0.135	755577	keystroke_s	s	n/a
377.8785	0.09	755757	keystroke_Key.space	Key.space	n/a
378.028	0.09	756056	keystroke_Key.enter	Key.enter	n/a
378.1255	10.72	756251	prompt	n/a	advancement accommodations packaging significantly\n
378.988	0.075	757976	keystroke_a	a	n/a
379.168	0.075	758336	keystroke_d	d	n/a
379.453	0.09	758906	keystroke_v	v	n/a
379.603	0.105	759206	keystroke_a	a	n/a
379.738	0.075	759476	keystroke_n	n	n/a
379.873	0.09	759746	keystroke_c	c	n/a
380.053	0.075	760106	keystroke_e	e	n/a
380.143	0.09	760286	keystroke_m	m	n/a
380.3085	0.1195	760617	keystroke_e	e	n/a
380.383	0.075	760766	keystroke_n	n	n/a
380.533	0.09	761066	keystroke_t	t	n/a
380.653	0.075	761306	keystroke_Key.space	Key.space	n/a
380.803	0.091	761606	keystroke_a	a	n/a
380.983	0.075	761966	keystroke_c	c	n/a
381.1335	0.09	762267	keystroke_c	c	n/a
381.2085	0.09	762417	keystroke_o	o	n/a
381.3585	0.09	762717	keystroke_m	m	n/a
381.613	0.1055	763226	keystroke_a	a	n/a
381.8835	0.12	763767	keystroke_d	d	n/a
382.1235	0.165	764247	keystroke_a	a	n/a
382.3935	0.075	764787	keystroke_t	t	n/a
382.4835	0.241	764967	keystroke_i	i	n/a
382.5585	0.166	765117	keystroke_o	o	n/a
382.6335	0.135	765267	keystroke_n	n	n/a
382.8135	0.105	765627	keystroke_s	s	n/a
382.9035	0.06	765807	keystroke_Key.space	Key.space	n/a
383.0985	0.075	766197	keystroke_p	p	n/a
383.2185	0.09	766437	keystroke_a	a	n/a
383.3835	0.105	766767	keystroke_c	c	n/a
383.4435	0.09	766887	keystroke_k	k	n/a
383.6235	0.135	767247	keystroke_a	a	n/a
383.9235	0.075	767847	keystroke_g	g	n/a
384.0135	0.15	768027	keystroke_i	i	n/a
384.1335	0.091	768267	keystroke_n	n	n/a
384.2835	0.091	768567	keystroke_g	g	n/a
384.4035	0.03	768807	keystroke_Key.space	Key.space	n/a
384.5695	0.105	769139	keystroke_s	s	n/a
384.7035	0.075	769407	keystroke_i	i	n/a
384.9885	0.075	769977	keystroke_g	g	n/a
385.1695	0.075	770339	keystroke_n	n	n/a
385.3935	0.045	770787	keystroke_i	i	n/a
386.0085	0.091	772017	keystroke_f	f	n/a
386.1445	0.074	772289	keystroke_i	i	n/a
386.3245	0.164	772649	keystroke_c	c	n/a
386.5035	0.121	773007	keystroke_a	a	n/a
386.788	0.12	773576	keystroke_n	n	n/a
387.028	0.09	774056	keystroke_l	l	n/a
387.793	0.06	775586	keystroke_Key.backspace	Key.backspace	n/a
387.9745	0.089	775949	keystroke_t	t	n/a
388.1695	0.1185	776339	keystroke_l	l	n/a
388.438	0.15	776876	keystroke_y	y	n/a
388.543	0.105	777086	keystroke_Key.space	Key.space	n/a
388.768	0.075	777536	keystroke_Key.enter	Key.enter	n/a
388.851	6.566	777702	prompt	n/a	known horror university assess\n
389.713	0.09	779426	keystroke_k	k	n/a
389.878	0.1355	779756	keystroke_n	n	n/a
389.9995	0.059	779999	keystroke_o	o	n/a
390.1035	0.091	780207	keystroke_w	w	n/a
390.3135	0.1355	780627	keystroke_n	n	n/a
390.5835	0.06	781167	keystroke_Key.space	Key.space	n/a
390.7345	0.165	781469	keystroke_h	h	n/a
390.8685	0.09	781737	keystroke_o	o	n/a
391.3945	0.074	782789	keystroke_r	r	n/a
391.5285	0.105	783057	keystroke_r	r	n/a
391.6195	0.059	783239	keystroke_o	o	n/a
391.7835	0.105	783567	keystroke_r	r	n/a
391.9035	0.06	783807	keystroke_Key.space	Key.space	n/a
392.0395	0.059	784079	keystroke_u	u	n/a
392.2335	0.075	784467	keystroke_n	n	n/a
392.3835	0.075	784767	keystroke_i	i	n/a
392.5495	0.12	785099	keystroke_v	v	n/a
392.6985	0.18	785397	keystroke_e	e	n/a
392.8185	0.12	785637	keystroke_r	r	n/a
393.0285	0.12	786057	keystroke_s	s	n/a
393.0885	0.075	786177	keystroke_i	i	n/a
393.2535	0.105	786507	keystroke_t	t	n/a
393.3435	0.12	786687	keystroke_y	y	n/a
393.4495	0.119	786899	keystroke_Key.space	Key.space	n/a
393.5695	0.105	787139	keystroke_a	a	n/a
393.7635	0.09	787527	keystroke_c	c	n/a
393.9135	0.09	787827	keystroke_c	c	n/a
394.2285	0.06	788457	keystroke_Key.backspace	Key.backspace	n/a
394.3635	0.09	788727	keystroke_Key.backspace	Key.backspace	n/a
394.5585	0.061	789117	keystroke_s	s	n/a
394.6795	0.09	789359	keystroke_s	s	n/a
394.8445	0.089	789689	keystroke_e	e	n/a
395.0085	0.091	790017	keystroke_s	s	n/a
395.1585	0.12	790317	keystroke_s	s	n/a
395.3245	0.089	790649	keystroke_Key.enter	Key.enter	n/a
395.429	10.247	790858	prompt	n/a	songs separation pmid uncertainty\n
396.1495	0.134	792299	keystroke_s	s	n/a
396.2535	0.075	792507	keystroke_o	o	n/a
396.4035	0.091	792807	keystroke_n	n	n/a
396.5695	0.104	793139	keystroke_g	g	n/a
396.7035	0.12	793407	keystroke_s	s	n/a
396.8385	0.06	793677	keystroke_Key.space	Key.space	n/a
396.9735	0.105	793947	keystroke_s	s	n/a
397.1385	0.09	794277	keystroke_e	e	n/a
397.2885	0.075	794577	keystroke_p	p	n/a
397.4385	0.165	794877	keystroke_a	a	n/a
397.5885	0.106	795177	keystroke_r	r	n/a
397.7995	0.15	795599	keystroke_a	a	n/a
398.0085	0.091	796017	keystroke_t	t	n/a
398.1135	0.27	796227	keystroke_i	i	n/a
398.2035	0.21	796407	keystroke_o	o	n/a
398.2945	0.194	796589	keystroke_n	n	n/a
399.1785	0.09	798357	keystroke_Key.space	Key.space	n/a
399.3285	0.06	798657	keystroke_p	p	n/a
399.5535	0.075	799107	keystroke_m	m	n/a
399.7035	0.091	799407	keystroke_i	i	n/a
399.8695	0.104	799739	keystroke_d	d	n/a
400.0195	0.059	800039	keystroke_Key.space	Key.space	n/a
400.2585	0.061	800517	keystroke_u	u	n/a
400.4535	0.075	800907	keystroke_n	n	n/a
400.6785	0.075	801357	keystroke_c	c	n/a
400.8585	0.091	801717	keystroke_e	e	n/a
400.9635	0.09	801927	keystroke_n	n	n/a
401.4735	0.24	802947	keystroke_e	e	n/a
401.6385	0.165	803277	keystroke_r	r	n/a
402.0745	0.074	804149	keystroke_Key.backspace	Key.backspace	n/a
402.2835	0.016	804567	keystroke_Key.backspace	Key.backspace	n/a
402.3435	0.075	804687	keystroke_Key.backspace	Key.backspace	n/a
402.959	0.12	805918	keystroke_r	r	n/a
403.469	0.105	806938	keystroke_t	t	n/a
403.724	0.12	807448	keystroke_a	a	n/a
403.845	0.059	807690	keystroke_i	i	n/a
403.979	0.075	807958	keystroke_n	n	n/a
404.204	0.075	808408	keystroke_l	l	n/a
404.864	0.075	809728	keystroke_Key.backspace	Key.backspace	n/a
405.089	0.09	810178	keystroke_t	t	n/a
405.224	0.15	810448	keystroke_y	y	n/a
405.344	0.105	810688	keystroke_Key.space	Key.space	n/a
405.614	0.06	811228	keystroke_Key.enter	Key.enter	n/a
405.684	4.8975	811368	prompt	n/a	tasks glance collar yang\n
406.439	0.075	812878	keystroke_t	t	n/a
406.589	0.15	813178	keystroke_a	a	n/a
406.814	0.075	813628	keystroke_s	s	n/a
406.874	0.075	813748	keystroke_k	k	n/a
407.084	0.12	814168	keystroke_s	s	n/a
407.189	0.09	814378	keystroke_Key.space	Key.space	n/a
407.444	0.076	814888	keystroke_g	g	n/a
407.534	0.075	815068	keystroke_l	l	n/a
407.654	0.12	815308	keystroke_a	a	n/a
407.789	0.06	815578	keystroke_n	n	n/a
407.909	0.09	815818	keystroke_c	c	n/a
408.104	0.09	816208	keystroke_e	e	n/a
408.239	0.045	816478	keystroke_Key.space	Key.space	n/a
408.404	0.12	816808	keystroke_c	c	n/a
408.509	0.09	817018	keystroke_o	o	n/a
408.734	0.09	817468	keystroke_l	l	n/a
408.884	0.09	817768	keystroke_l	l	n/a
409.109	0.135	818218	keystroke_a	a	n/a
409.319	0.105	818638	keystroke_r	r	n/a
409.469	0.09	818938	keystroke_Key.space	Key.space	n/a
409.724	0.09	819448	keystroke_y	y	n/a
409.874	0.12	819748	keystroke_a	a	n/a
410.054	0.09	820108	keystroke_n	n	n/a
410.234	0.09	820468	keystroke_g	g	n/a
410.369	0.06	820738	keystroke_Key.space	Key.space	n/a
410.489	0.09	820978	keystroke_Key.enter	Key.enter	n/a
410.588	15.6835	821176	prompt	n/a	governor debt combine closure\n
411.314	0.06	822628	keystroke_g	g	n/a
411.389	0.075	822778	keystroke_o	o	n/a
411.5845	0.105	823169	keystroke_v	v	n/a
411.7795	0.15	823559	keystroke_e	e	n/a
411.9895	0.09	823979	keystroke_n	n	n/a
412.2295	0.06	824459	keystroke_o	o	n/a
412.3795	0.0895	824759	keystroke_r	r	n/a
412.499	0.105	824998	keystroke_Key.space	Key.space	n/a
412.695	0.105	825390	keystroke_d	d	n/a
412.874	0.1205	825748	keystroke_e	e	n/a
413.339	0.075	826678	keystroke_b	b	n/a
413.564	0.076	827128	keystroke_t	t	n/a
413.729	0.03	827458	keystroke_Key.space	Key.space	n/a
413.909	0.091	827818	keystroke_c	c	n/a
413.984	0.121	827968	keystroke_o	o	n/a
414.27	0.075	828540	keystroke_m	m	n/a
414.554	0.091	829108	keystroke_b	b	n/a
414.69	0.015	829380	keystroke_i	i	n/a
414.81	0.074	829620	keystroke_n	n	n/a
414.974	0.105	829948	keystroke_e	e	n/a
416.7135	0.075	833427	keystroke_Key.backspace	Key.backspace	n/a
416.8785	0.0605	833757	keystroke_Key.backspace	Key.backspace	n/a
416.9995	0.075	833999	keystroke_Key.backspace	Key.backspace	n/a
417.1345	0.074	834269	keystroke_Key.backspace	Key.backspace	n/a
417.2535	0.0605	834507	keystroke_Key.backspace	Key.backspace	n/a
417.3885	0.06	834777	keystroke_Key.backspace	Key.backspace	n/a
417.5085	0.06	835017	keystroke_Key.backspace	Key.backspace	n/a
417.6295	0.075	835259	keystroke_Key.backspace	Key.backspace	n/a
417.764	0.0595	835528	keystroke_Key.backspace	Key.backspace	n/a
417.9135	0.045	835827	keystroke_Key.backspace	Key.backspace	n/a
418.0335	0.061	836067	keystroke_Key.backspace	Key.backspace	n/a
418.1695	0.059	836339	keystroke_Key.backspace	Key.backspace	n/a
418.3335	0.045	836667	keystroke_Key.backspace	Key.backspace	n/a
418.4835	0.03	836967	keystroke_Key.backspace	Key.backspace	n/a
418.6345	0.044	837269	keystroke_Key.backspace	Key.backspace	n/a
418.7695	0.044	837539	keystroke_Key.backspace	Key.backspace	n/a
419.07	0.0595	838140	keystroke_r	r	n/a
419.399	0.09	838798	keystroke_n	n	n/a
419.504	0.091	839008	keystroke_o	o	n/a
419.669	0.105	839338	keystroke_r	r	n/a
419.759	0.09	839518	keystroke_Key.space	Key.space	n/a
419.969	0.06	839938	keystroke_f	f	n/a
420.539	0.06	841078	keystroke_Key.backspace	Key.backspace	n/a
420.659	0.09	841318	keystroke_d	d	n/a
420.884	0.06	841768	keystroke_e	e	n/a
421.124	0.075	842248	keystroke_b	b	n/a
421.334	0.105	842668	keystroke_t	t	n/a
421.469	0.075	842938	keystroke_Key.space	Key.space	n/a
421.679	0.09	843358	keystroke_c	c	n/a
421.754	0.09	843508	keystroke_o	o	n/a
421.919	0.075	843838	keystroke_m	m	n/a
422.144	0.076	844288	keystroke_b	b	n/a
422.204	0.06	844408	keystroke_i	i	n/a
422.354	0.06	844708	keystroke_n	n	n/a
422.429	0.105	844858	keystroke_e	e	n/a
422.609	0.03	845218	keystroke_Key.space	Key.space	n/a
422.714	0.12	845428	keystroke_c	c	n/a
422.804	0.06	845608	keystroke_o	o	n/a
422.954	0.09	845908	keystroke_l	l	n/a
423.1495	0.15	846299	keystroke_s	s	n/a
423.2095	0.06	846419	keystroke_u	u	n/a
423.4345	0.15	846869	keystroke_r	r	n/a
423.6145	0.075	847229	keystroke_e	e	n/a
423.6745	0.06	847349	keystroke_Key.space	Key.space	n/a
423.9745	0.06	847949	keystroke_Key.backspace	Key.backspace	n/a
424.1245	0.0595	848249	keystroke_Key.backspace	Key.backspace	n/a
424.2745	0.06	848549	keystroke_Key.backspace	Key.backspace	n/a
424.409	0.0605	848818	keystroke_Key.backspace	Key.backspace	n/a
424.5445	0.06	849089	keystroke_Key.backspace	Key.backspace	n/a
424.769	0.045	849538	keystroke_Key.backspace	Key.backspace	n/a
424.889	0.09	849778	keystroke_Key.backspace	Key.backspace	n/a
425.189	0.09	850378	keystroke_l	l	n/a
425.399	0.045	850798	keystroke_o	o	n/a
425.564	0.1505	851128	keystroke_s	s	n/a
425.669	0.0755	851338	keystroke_u	u	n/a
425.8495	0.105	851699	keystroke_r	r	n/a
425.9095	0.165	851819	keystroke_e	e	n/a
426.0445	0.075	852089	keystroke_Key.space	Key.space	n/a
426.2095	0.06	852419	keystroke_Key.enter	Key.enter	n/a
426.277	8.649	852554	prompt	n/a	reject mixing neon recommendations\n
427.1095	0.15	854219	keystroke_r	r	n/a
427.2445	0.075	854489	keystroke_e	e	n/a
427.4095	0.075	854819	keystroke_j	j	n/a
427.4995	0.075	854999	keystroke_e	e	n/a
427.6795	0.12	855359	keystroke_c	c	n/a
427.8745	0.105	855749	keystroke_t	t	n/a
427.9945	0.135	855989	keystroke_Key.space	Key.space	n/a
428.0845	0.12	856169	keystroke_m	m	n/a
428.1895	0.075	856379	keystroke_i	i	n/a
428.3845	0.18	856769	keystroke_x	x	n/a
428.5495	0.09	857099	keystroke_i	i	n/a
428.7145	0.0895	857429	keystroke_n	n	n/a
428.834	0.0905	857668	keystroke_g	g	n/a
428.9395	0.075	857879	keystroke_Key.space	Key.space	n/a
430.0495	0.075	860099	keystroke_n	n	n/a
430.1395	0.105	860279	keystroke_e	e	n/a
430.3495	0.075	860699	keystroke_o	o	n/a
430.6045	0.105	861209	keystroke_Key.space	Key.space	n/a
430.8595	0.12	861719	keystroke_c	c	n/a
431.2945	0.09	862589	keystroke_Key.backspace	Key.backspace	n/a
431.4895	0.075	862979	keystroke_Key.backspace	Key.backspace	n/a
431.8045	0.105	863609	keystroke_n	n	n/a
431.9245	0.09	863849	keystroke_Key.space	Key.space	n/a
432.0745	0.105	864149	keystroke_r	r	n/a
432.1495	0.105	864299	keystroke_e	e	n/a
432.3895	0.09	864779	keystroke_c	c	n/a
432.4645	0.105	864929	keystroke_o	o	n/a
432.7045	0.075	865409	keystroke_m	m	n/a
432.8395	0.075	865679	keystroke_m	m	n/a
432.9745	0.15	865949	keystroke_e	e	n/a
433.0645	0.075	866129	keystroke_n	n	n/a
433.2445	0.045	866489	keystroke_t	t	n/a
433.6495	0.075	867299	keystroke_Key.backspace	Key.backspace	n/a
433.8295	0.12	867659	keystroke_d	d	n/a
434.0245	0.165	868049	keystroke_a	a	n/a
434.2045	0.105	868409	keystroke_t	t	n/a
434.3245	0.195	868649	keystroke_i	i	n/a
434.3845	0.15	868769	keystroke_o	o	n/a
434.4595	0.12	868919	keystroke_n	n	n/a
434.6245	0.105	869249	keystroke_s	s	n/a
434.7145	0.09	869429	keystroke_Key.space	Key.space	n/a
434.8345	0.09	869669	keystroke_Key.enter	Key.enter	n/a
434.9325	7.7035	869865	prompt	n/a	lightweight acquisitions amount nathan\n
435.5845	0.06	871169	keystroke_l	l	n/a
435.7045	0.09	871409	keystroke_i	i	n/a
435.8545	0.09	871709	keystroke_g	g	n/a
435.9745	0.06	871949	keystroke_h	h	n/a
436.0945	0.06	872189	keystroke_t	t	n/a
436.3645	0.195	872729	keystroke_w	w	n/a
436.7095	0.09	873419	keystroke_e	e	n/a
436.8145	0.06	873629	keystroke_i	i	n/a
437.144	0.0755	874288	keystroke_g	g	n/a
437.204	0.0755	874408	keystroke_h	h	n/a
437.4145	0.075	874829	keystroke_t	t	n/a
437.5195	0.09	875039	keystroke_Key.space	Key.space	n/a
437.8345	0.09	875669	keystroke_q	q	n/a
438.3445	0.09	876689	keystroke_Key.backspace	Key.backspace	n/a
438.5545	0.09	877109	keystroke_a	a	n/a
438.9445	0.105	877889	keystroke_q	q	n/a
439.1995	0.06	878399	keystroke_u	u	n/a
439.3195	0.075	878639	keystroke_i	i	n/a
439.5295	0.12	879059	keystroke_s	s	n/a
439.6345	0.045	879269	keystroke_i	i	n/a
439.8295	0.105	879659	keystroke_t	t	n/a
439.9345	0.24	879869	keystroke_i	i	n/a
440.0245	0.165	880049	keystroke_o	o	n/a
440.0995	0.12	880199	keystroke_n	n	n/a
440.2495	0.105	880499	keystroke_s	s	n/a
440.3395	0.075	880679	keystroke_Key.space	Key.space	n/a
440.5045	0.12	881009	keystroke_m	m	n/a
440.6695	0.15	881339	keystroke_o	o	n/a
440.7745	0.06	881549	keystroke_u	u	n/a
440.9545	0.075	881909	keystroke_n	n	n/a
441.1495	0.09	882299	keystroke_t	t	n/a
441.2995	0.09	882599	keystroke_Key.space	Key.space	n/a
441.5095	0.09	883019	keystroke_n	n	n/a
441.6595	0.12	883319	keystroke_a	a	n/a
441.8545	0.09	883709	keystroke_t	t	n/a
441.9595	0.075	883919	keystroke_h	h	n/a
442.1095	0.12	884219	keystroke_a	a	n/a
442.1995	0.18	884399	keystroke_n	n	n/a
442.3645	0.09	884729	keystroke_Key.space	Key.space	n/a
442.559	0.075	885118	keystroke_Key.enter	Key.enter	n/a
442.6415	11.5945	885283	prompt	n/a	grows trauma architects colon\n
443.295	0.075	886590	keystroke_g	g	n/a
443.459	0.075	886918	keystroke_r	r	n/a
443.564	0.06	887128	keystroke_o	o	n/a
444.54	0.105	889080	keystroke_s	s	n/a
444.959	0.075	889918	keystroke_Key.backspace	Key.backspace	n/a
445.125	0.075	890250	keystroke_w	w	n/a
445.32	0.089	890640	keystroke_s	s	n/a
445.44	0.105	890880	keystroke_n	n	n/a
445.664	0.075	891328	keystroke_Key.space	Key.space	n/a
445.814	0.106	891628	keystroke_t	t	n/a
446.054	0.075	892108	keystroke_r	r	n/a
446.22	0.119	892440	keystroke_a	a	n/a
446.37	0.075	892740	keystroke_u	u	n/a
446.579	0.091	893158	keystroke_m	m	n/a
446.745	0.134	893490	keystroke_a	a	n/a
446.864	0.045	893728	keystroke_Key.space	Key.space	n/a
447.4945	0.075	894989	keystroke_Key.backspace	Key.backspace	n/a
447.6595	0.075	895319	keystroke_Key.backspace	Key.backspace	n/a
447.7945	0.075	895589	keystroke_Key.backspace	Key.backspace	n/a
447.9295	0.06	895859	keystroke_Key.backspace	Key.backspace	n/a
448.0795	0.06	896159	keystroke_Key.backspace	Key.backspace	n/a
448.1995	0.06	896399	keystroke_Key.backspace	Key.backspace	n/a
448.3345	0.06	896669	keystroke_Key.backspace	Key.backspace	n/a
448.4695	0.075	896939	keystroke_Key.backspace	Key.backspace	n/a
448.6045	0.06	897209	keystroke_Key.backspace	Key.backspace	n/a
448.7395	0.075	897479	keystroke_Key.backspace	Key.backspace	n/a
449.1145	0.09	898229	keystroke_n	n	n/a
449.3235	0.076	898647	keystroke_Key.space	Key.space	n/a
449.5945	0.075	899189	keystroke_t	t	n/a
449.7745	0.09	899549	keystroke_r	r	n/a
449.9695	0.105	899939	keystroke_a	a	n/a
450.2095	0.075	900419	keystroke_u	u	n/a
450.4345	0.075	900869	keystroke_m	m	n/a
450.5695	0.12	901139	keystroke_a	a	n/a
450.7335	0.046	901467	keystroke_Key.space	Key.space	n/a
451.0795	0.165	902159	keystroke_a	a	n/a
451.3045	0.09	902609	keystroke_r	r	n/a
451.5445	0.075	903089	keystroke_c	c	n/a
451.6195	0.075	903239	keystroke_h	h	n/a
451.7395	0.075	903479	keystroke_i	i	n/a
452.0395	0.15	904079	keystroke_t	t	n/a
452.2345	0.12	904469	keystroke_e	e	n/a
452.5045	0.12	905009	keystroke_c	c	n/a
452.7745	0.09	905549	keystroke_t	t	n/a
452.9695	0.12	905939	keystroke_s	s	n/a
453.1045	0.075	906209	keystroke_Key.space	Key.space	n/a
453.2995	0.105	906599	keystroke_c	c	n/a
453.3745	0.075	906749	keystroke_o	o	n/a
453.5545	0.06	907109	keystroke_l	l	n/a
453.7045	0.09	907409	keystroke_o	o	n/a
453.8395	0.15	907679	keystroke_n	n	n/a
453.9445	0.135	907889	keystroke_Key.space	Key.space	n/a
454.1545	0.075	908309	keystroke_Key.enter	Key.enter	n/a
454.2435	8.6735	908487	prompt	n/a	tapes are countries relative\n
456.0745	0.12	912149	keystroke_t	t	n/a
456.2695	0.12	912539	keystroke_a	a	n/a
456.4195	0.09	912839	keystroke_p	p	n/a
456.5845	0.06	913169	keystroke_e	e	n/a
456.7195	0.135	913439	keystroke_s	s	n/a
456.8095	0.09	913619	keystroke_Key.space	Key.space	n/a
456.9145	0.195	913829	keystroke_a	a	n/a
457.0645	0.09	914129	keystroke_r	r	n/a
457.1105	0.119	914221	keystroke_e	e	n/a
457.2145	0.06	914429	keystroke_Key.space	Key.space	n/a
457.3945	0.12	914789	keystroke_c	c	n/a
457.4845	0.12	914969	keystroke_o	o	n/a
457.6945	0.06	915389	keystroke_u	u	n/a
457.8745	0.09	915749	keystroke_n	n	n/a
457.9945	0.075	915989	keystroke_t	t	n/a
458.1445	0.105	916289	keystroke_r	r	n/a
458.2345	0.075	916469	keystroke_i	i	n/a
458.4595	0.075	916919	keystroke_s	s	n/a
459.0595	0.09	918119	keystroke_Key.backspace	Key.backspace	n/a
459.5545	0.06	919109	keystroke_i	i	n/a
460.3345	0.105	920669	keystroke_e	e	n/a
