onset	duration	sample	value	key	prompt_text
4.2965	12.5175	8593	prompt	n/a	the quick brown fox jumps over a lazy dog\n
5.748	0.0995	11496	keystroke_t	t	n/a
5.834	0.085	11668	keystroke_h	h	n/a
6.0835	0.12	12167	keystroke_Key.space	Key.space	n/a
6.5055	0.105	13011	keystroke_Key.backspace	Key.backspace	n/a
7.1505	0.135	14301	keystroke_e	e	n/a
7.2555	0.135	14511	keystroke_Key.space	Key.space	n/a
7.5405	0.1055	15081	keystroke_q	q	n/a
7.661	0.1055	15322	keystroke_u	u	n/a
7.8855	0.0755	15771	keystroke_i	i	n/a
7.991	0.12	15982	keystroke_c	c	n/a
8.126	0.089	16252	keystroke_k	k	n/a
8.23	0.091	16460	keystroke_Key.space	Key.space	n/a
8.381	0.0895	16762	keystroke_b	b	n/a
8.591	0.105	17182	keystroke_r	r	n/a
8.681	0.1055	17362	keystroke_o	o	n/a
8.861	0.135	17722	keystroke_w	w	n/a
9.011	0.0755	18022	keystroke_n	n	n/a
9.041	0.105	18082	keystroke_Key.space	Key.space	n/a
9.371	0.1055	18742	keystroke_f	f	n/a
9.7155	0.06	19431	keystroke_x	x	n/a
9.791	0.0895	19582	keystroke_o	o	n/a
10.286	0.074	20572	keystroke_Key.backspace	Key.backspace	n/a
10.4655	0.0755	20931	keystroke_Key.backspace	Key.backspace	n/a
10.7505	0.0905	21501	keystroke_o	o	n/a
10.856	0.105	21712	keystroke_x	x	n/a
11.0655	0.1055	22131	keystroke_Key.space	Key.space	n/a
11.291	0.089	22582	keystroke_h	h	n/a
11.4705	0.1055	22941	keystroke_u	u	n/a
11.9955	0.0605	23991	keystroke_Key.backspace	Key.backspace	n/a
12.1155	0.0605	24231	keystroke_Key.backspace	Key.backspace	n/a
12.3555	0.1055	24711	keystroke_j	j	n/a
12.506	0.1045	25012	keystroke_u	u	n/a
12.746	0.0595	25492	keystroke_m	m	n/a
13.106	0.1345	26212	keystroke_s	s	n/a
13.421	0.1045	26842	keystroke_Key.space	Key.space	n/a
13.7055	0.0755	27411	keystroke_Key.backspace	Key.backspace	n/a
13.856	0.06	27712	keystroke_Key.backspace	Key.backspace	n/a
14.0515	0.1045	28103	keystroke_p	p	n/a
14.1705	0.121	28341	keystroke_s	s	n/a
14.246	0.1195	28492	keystroke_Key.space	Key.space	n/a
14.456	0.1045	28912	keystroke_o	o	n/a
14.592	0.119	29184	keystroke_v	v	n/a
14.876	0.1205	29752	keystroke_e	e	n/a
14.9515	0.134	29903	keystroke_r	r	n/a
15.041	0.135	30082	keystroke_Key.space	Key.space	n/a
15.191	0.12	30382	keystroke_a	a	n/a
15.2955	0.1205	30591	keystroke_Key.space	Key.space	n/a
15.4905	0.1055	30981	keystroke_l	l	n/a
15.582	0.104	31164	keystroke_a	a	n/a
15.8215	0.1045	31643	keystroke_z	z	n/a
15.971	0.09	31942	keystroke_y	y	n/a
16.076	0.1795	32152	keystroke_Key.space	Key.space	n/a
16.2255	0.1505	32451	keystroke_d	d	n/a
16.3905	0.09	32781	keystroke_o	o	n/a
16.5105	0.1205	33021	keystroke_g	g	n/a
16.7055	0.1055	33411	keystroke_Key.enter	Key.enter	n/a
16.82	7.614	33640	prompt	n/a	dealing file limiting loan\n
17.7255	0.105	35451	keystroke_d	d	n/a
17.936	0.1055	35872	keystroke_e	e	n/a
18.0555	0.135	36111	keystroke_a	a	n/a
18.446	0.0595	36892	keystroke_l	l	n/a
20.051	0.105	40102	keystroke_i	i	n/a
20.126	0.12	40252	keystroke_n	n	n/a
20.2315	0.0895	40463	keystroke_g	g	n/a
20.2905	0.1205	40581	keystroke_Key.space	Key.space	n/a
20.5165	0.1195	41033	keystroke_f	f	n/a
20.621	0.09	41242	keystroke_i	i	n/a
20.816	0.1195	41632	keystroke_l	l	n/a
20.9205	0.106	41841	keystroke_e	e	n/a
20.996	0.1045	41992	keystroke_Key.space	Key.space	n/a
21.2055	0.046	42411	keystroke_i	i	n/a
21.8955	0.0155	43791	keystroke_Key.backspace	Key.backspace	n/a
21.986	0.0905	43972	keystroke_l	l	n/a
22.331	0.1045	44662	keystroke_i	i	n/a
22.451	0.1205	44902	keystroke_m	m	n/a
22.616	0.09	45232	keystroke_i	i	n/a
23.126	0.0905	46252	keystroke_t	t	n/a
23.321	0.119	46642	keystroke_i	i	n/a
23.411	0.09	46822	keystroke_n	n	n/a
23.471	0.15	46942	keystroke_g	g	n/a
23.561	0.1195	47122	keystroke_Key.space	Key.space	n/a
23.7105	0.0755	47421	keystroke_l	l	n/a
23.905	0.0755	47810	keystroke_o	o	n/a
24.026	0.12	48052	keystroke_a	a	n/a
24.131	0.09	48262	keystroke_n	n	n/a
24.356	0.0745	48712	keystroke_Key.enter	Key.enter	n/a
24.4445	6.6485	48889	prompt	n/a	thread combined family mercy\n
25.076	0.0895	50152	keystroke_t	t	n/a
25.1805	0.075	50361	keystroke_h	h	n/a
25.376	0.135	50752	keystroke_r	r	n/a
25.796	0.1355	51592	keystroke_e	e	n/a
25.976	0.135	51952	keystroke_a	a	n/a
26.141	0.105	52282	keystroke_d	d	n/a
26.2165	0.1195	52433	keystroke_Key.space	Key.space	n/a
26.4865	0.1045	52973	keystroke_c	c	n/a
26.591	0.12	53182	keystroke_o	o	n/a
26.681	0.0905	53362	keystroke_m	m	n/a
27.2805	0.076	54561	keystroke_b	b	n/a
27.476	0.1495	54952	keystroke_i	i	n/a
27.596	0.105	55192	keystroke_n	n	n/a
27.761	0.0745	55522	keystroke_e	e	n/a
27.9555	0.09	55911	keystroke_d	d	n/a
28.0305	0.1055	56061	keystroke_Key.space	Key.space	n/a
28.2405	0.091	56481	keystroke_f	f	n/a
28.3905	0.12	56781	keystroke_a	a	n/a
28.766	0.09	57532	keystroke_m	m	n/a
29.006	0.09	58012	keystroke_i	i	n/a
29.216	0.09	58432	keystroke_l	l	n/a
29.5005	0.0755	59001	keystroke_y	y	n/a
29.6655	0.12	59331	keystroke_Key.space	Key.space	n/a
29.8465	0.105	59693	keystroke_m	m	n/a
29.9655	0.1505	59931	keystroke_e	e	n/a
30.102	0.0735	60204	keystroke_r	r	n/a
30.6405	0.12	61281	keystroke_c	c	n/a
30.746	0.0895	61492	keystroke_y	y	n/a
31.0005	0.09	62001	keystroke_Key.enter	Key.enter	n/a
31.098	5.5145	62196	prompt	n/a	gray sufficiently hair things\n
31.7365	0.075	63473	keystroke_g	g	n/a
32.171	0.1345	64342	keystroke_r	r	n/a
32.3515	0.134	64703	keystroke_a	a	n/a
32.5305	0.075	65061	keystroke_y	y	n/a
32.621	0.1195	65242	keystroke_Key.space	Key.space	n/a
32.8315	0.104	65663	keystroke_s	s	n/a
32.9515	0.09	65903	keystroke_u	u	n/a
33.131	0.075	66262	keystroke_f	f	n/a
33.266	0.105	66532	keystroke_f	f	n/a
33.4165	0.09	66833	keystroke_i	i	n/a
33.9715	0.1045	67943	keystroke_c	c	n/a
34.151	0.075	68302	keystroke_i	i	n/a
34.286	0.12	68572	keystroke_e	e	n/a
34.4365	0.0745	68873	keystroke_n	n	n/a
34.586	0.075	69172	keystroke_t	t	n/a
34.751	0.09	69502	keystroke_l	l	n/a
34.9015	0.1045	69803	keystroke_y	y	n/a
34.976	0.105	69952	keystroke_Key.space	Key.space	n/a
35.246	0.06	70492	keystroke_h	h	n/a
35.351	0.1055	70702	keystroke_a	a	n/a
35.516	0.0755	71032	keystroke_i	i	n/a
35.606	0.12	71212	keystroke_r	r	n/a
35.711	0.12	71422	keystroke_Key.space	Key.space	n/a
35.846	0.105	71692	keystroke_t	t	n/a
35.936	0.075	71872	keystroke_h	h	n/a
36.1455	0.1055	72291	keystroke_i	i	n/a
36.2215	0.12	72443	keystroke_n	n	n/a
36.281	0.12	72562	keystroke_g	g	n/a
36.386	0.1495	72772	keystroke_s	s	n/a
36.506	0.1045	73012	keystroke_Key.enter	Key.enter	n/a
36.616	5.892	73232	prompt	n/a	senate guam communication wheel\n
37.391	0.075	74782	keystroke_s	s	n/a
37.556	0.0905	75112	keystroke_e	e	n/a
37.661	0.105	75322	keystroke_n	n	n/a
37.796	0.12	75592	keystroke_a	a	n/a
38.021	0.12	76042	keystroke_t	t	n/a
38.096	0.105	76192	keystroke_e	e	n/a
38.156	0.135	76312	keystroke_Key.space	Key.space	n/a
38.561	0.06	77122	keystroke_g	g	n/a
38.756	0.1045	77512	keystroke_u	u	n/a
38.9215	0.134	77843	keystroke_a	a	n/a
39.161	0.0905	78322	keystroke_m	m	n/a
39.311	0.09	78622	keystroke_Key.space	Key.space	n/a
39.5955	0.105	79191	keystroke_c	c	n/a
39.7015	0.089	79403	keystroke_o	o	n/a
39.9115	0.044	79823	keystroke_m	m	n/a
40.0165	0.089	80033	keystroke_m	m	n/a
40.346	0.12	80692	keystroke_u	u	n/a
40.421	0.12	80842	keystroke_n	n	n/a
40.646	0.09	81292	keystroke_i	i	n/a
40.7515	0.12	81503	keystroke_c	c	n/a
40.872	0.104	81744	keystroke_a	a	n/a
41.111	0.075	82222	keystroke_t	t	n/a
41.171	0.075	82342	keystroke_i	i	n/a
41.351	0.1055	82702	keystroke_o	o	n/a
41.441	0.09	82882	keystroke_n	n	n/a
41.516	0.12	83032	keystroke_Key.space	Key.space	n/a
41.681	0.0905	83362	keystroke_w	w	n/a
41.786	0.06	83572	keystroke_h	h	n/a
41.891	0.045	83782	keystroke_e	e	n/a
42.011	0.0905	84022	keystroke_e	e	n/a
42.176	0.105	84352	keystroke_l	l	n/a
42.401	0.105	84802	keystroke_Key.enter	Key.enter	n/a
42.512	4.8705	85024	prompt	n/a	stated core bear helmet\n
43.1515	0.0895	86303	keystroke_s	s	n/a
43.3905	0.091	86781	keystroke_t	t	n/a
43.5405	0.09	87081	keystroke_a	a	n/a
43.6315	0.149	87263	keystroke_t	t	n/a
44.111	0.0745	88222	keystroke_e	e	n/a
44.336	0.1355	88672	keystroke_d	d	n/a
44.4565	0.0895	88913	keystroke_Key.space	Key.space	n/a
44.6365	0.09	89273	keystroke_c	c	n/a
44.771	0.0905	89542	keystroke_o	o	n/a
44.921	0.1345	89842	keystroke_r	r	n/a
45.041	0.12	90082	keystroke_e	e	n/a
45.1005	0.1195	90201	keystroke_Key.space	Key.space	n/a
45.296	0.09	90592	keystroke_b	b	n/a
45.371	0.135	90742	keystroke_e	e	n/a
45.4915	0.135	90983	keystroke_a	a	n/a
45.6405	0.105	91281	keystroke_r	r	n/a
45.7155	0.105	91431	keystroke_Key.space	Key.space	n/a
46.1815	0.09	92363	keystroke_h	h	n/a
46.376	0.0595	92752	keystroke_e	e	n/a
46.4655	0.105	92931	keystroke_l	l	n/a
46.7205	0.0755	93441	keystroke_m	m	n/a
46.946	0.09	93892	keystroke_e	e	n/a
47.1705	0.0755	94341	keystroke_t	t	n/a
47.2905	0.09	94581	keystroke_Key.enter	Key.enter	n/a
47.388	11.535	94776	prompt	n/a	oakland continued determination factory\n
48.1915	0.089	96383	keystroke_o	o	n/a
48.2955	0.1205	96591	keystroke_a	a	n/a
48.476	0.09	96952	keystroke_k	k	n/a
48.806	0.09	97612	keystroke_l	l	n/a
49.031	0.0905	98062	keystroke_a	a	n/a
49.1505	0.09	98301	keystroke_n	n	n/a
49.256	0.1045	98512	keystroke_d	d	n/a
49.346	0.0895	98692	keystroke_Key.space	Key.space	n/a
49.6005	0.0905	99201	keystroke_c	c	n/a
49.871	0.1805	99742	keystroke_o	o	n/a
50.021	0.1045	100042	keystroke_m	m	n/a
51.311	0.09	102622	keystroke_t	t	n/a
51.641	0.045	103282	keystroke_=	=	n/a
51.926	0.075	103852	keystroke_Key.backspace	Key.backspace	n/a
52.061	0.09	104122	keystroke_Key.backspace	Key.backspace	n/a
52.361	0.075	104722	keystroke_Key.backspace	Key.backspace	n/a
52.691	0.0755	105382	keystroke_n	n	n/a
53.0215	0.09	106043	keystroke_t	t	n/a
53.1705	0.181	106341	keystroke_i	i	n/a
53.2915	0.105	106583	keystroke_n	n	n/a
53.6065	0.09	107213	keystroke_u	u	n/a
53.9055	0.061	107811	keystroke_e	e	n/a
54.1765	0.1035	108353	keystroke_d	d	n/a
54.266	0.09	108532	keystroke_Key.space	Key.space	n/a
54.821	0.0895	109642	keystroke_d	d	n/a
55.0465	0.089	110093	keystroke_e	e	n/a
55.2255	0.1055	110451	keystroke_t	t	n/a
55.3605	0.18	110721	keystroke_e	e	n/a
55.5255	0.105	111051	keystroke_r	r	n/a
55.766	0.09	111532	keystroke_m	m	n/a
56.021	0.105	112042	keystroke_i	i	n/a
56.111	0.09	112222	keystroke_n	n	n/a
56.2165	0.104	112433	keystroke_a	a	n/a
56.4115	0.0895	112823	keystroke_t	t	n/a
56.516	0.09	113032	keystroke_i	i	n/a
56.741	0.105	113482	keystroke_o	o	n/a
56.816	0.105	113632	keystroke_n	n	n/a
56.936	0.105	113872	keystroke_Key.space	Key.space	n/a
57.416	0.12	114832	keystroke_f	f	n/a
57.581	0.1205	115162	keystroke_a	a	n/a
57.821	0.09	115642	keystroke_c	c	n/a
58.06	0.0915	116120	keystroke_t	t	n/a
58.181	0.1045	116362	keystroke_o	o	n/a
58.316	0.075	116632	keystroke_r	r	n/a
58.495	0.076	116990	keystroke_y	y	n/a
58.826	0.0895	117652	keystroke_Key.enter	Key.enter	n/a
58.93	10.4335	117860	prompt	n/a	proceedings lightning kill stations\n
59.651	0.105	119302	keystroke_p	p	n/a
59.801	0.12	119602	keystroke_r	r	n/a
59.891	0.135	119782	keystroke_e	e	n/a
60.056	0.09	120112	keystroke_o	o	n/a
60.191	0.104	120382	keystroke_c	c	n/a
60.6405	0.0455	121281	keystroke_Key.backspace	Key.backspace	n/a
60.7305	0.0905	121461	keystroke_Key.backspace	Key.backspace	n/a
61.5555	0.0905	123111	keystroke_Key.backspace	Key.backspace	n/a
61.841	0.1045	123682	keystroke_o	o	n/a
61.9755	0.0905	123951	keystroke_c	c	n/a
62.4105	0.09	124821	keystroke_e	e	n/a
62.561	0.0895	125122	keystroke_e	e	n/a
62.755	0.09	125510	keystroke_d	d	n/a
62.9655	0.1355	125931	keystroke_i	i	n/a
63.071	0.09	126142	keystroke_n	n	n/a
63.175	0.151	126350	keystroke_g	g	n/a
63.3405	0.1195	126681	keystroke_s	s	n/a
63.491	0.12	126982	keystroke_Key.space	Key.space	n/a
64.136	0.09	128272	keystroke_l	l	n/a
64.3465	0.074	128693	keystroke_i	i	n/a
64.436	0.075	128872	keystroke_g	g	n/a
64.5855	0.045	129171	keystroke_h	h	n/a
64.646	0.0755	129292	keystroke_t	t	n/a
65.0805	0.1355	130161	keystroke_e	e	n/a
65.261	0.09	130522	keystroke_n	n	n/a
65.98	0.031	131960	keystroke_Key.backspace	Key.backspace	n/a
66.101	0.059	132202	keystroke_Key.backspace	Key.backspace	n/a
66.371	0.075	132742	keystroke_n	n	n/a
66.551	0.166	133102	keystroke_i	i	n/a
66.701	0.105	133402	keystroke_n	n	n/a
66.821	0.105	133642	keystroke_g	g	n/a
66.91	0.105	133820	keystroke_Key.space	Key.space	n/a
67.076	0.1045	134152	keystroke_k	k	n/a
67.3155	0.0745	134631	keystroke_i	i	n/a
67.541	0.06	135082	keystroke_l	l	n/a
67.661	0.075	135322	keystroke_l	l	n/a
67.721	0.15	135442	keystroke_Key.space	Key.space	n/a
67.856	0.12	135712	keystroke_s	s	n/a
68.066	0.105	136132	keystroke_t	t	n/a
68.186	0.135	136372	keystroke_a	a	n/a
68.306	0.12	136612	keystroke_t	t	n/a
68.531	0.075	137062	keystroke_i	i	n/a
68.741	0.15	137482	keystroke_o	o	n/a
68.906	0.09	137812	keystroke_n	n	n/a
68.966	0.135	137932	keystroke_s	s	n/a
69.2355	0.12	138471	keystroke_Key.enter	Key.enter	n/a
69.368	8.4505	138736	prompt	n/a	leslie chambers commentary apnic\n
69.971	0.0895	139942	keystroke_l	l	n/a
70.18	0.1515	140360	keystroke_e	e	n/a
70.391	0.12	140782	keystroke_s	s	n/a
70.7955	0.1205	141591	keystroke_l	l	n/a
71.051	0.105	142102	keystroke_i	i	n/a
71.171	0.105	142342	keystroke_e	e	n/a
71.261	0.105	142522	keystroke_Key.space	Key.space	n/a
71.6055	0.1205	143211	keystroke_c	c	n/a
71.7265	0.0745	143453	keystroke_h	h	n/a
72.5955	0.1355	145191	keystroke_a	a	n/a
72.7155	0.106	145431	keystroke_m	m	n/a
73.211	0.06	146422	keystroke_b	b	n/a
73.286	0.195	146572	keystroke_e	e	n/a
73.466	0.105	146932	keystroke_r	r	n/a
73.706	0.1645	147412	keystroke_s	s	n/a
73.856	0.1195	147712	keystroke_Key.space	Key.space	n/a
74.201	0.12	148402	keystroke_c	c	n/a
74.35	0.1065	148700	keystroke_o	o	n/a
74.606	0.03	149212	keystroke_m	m	n/a
74.726	0.075	149452	keystroke_m	m	n/a
75.1455	0.045	150291	keystroke_e	e	n/a
75.2655	0.0905	150531	keystroke_n	n	n/a
75.5655	0.075	151131	keystroke_t	t	n/a
75.7005	0.1495	151401	keystroke_a	a	n/a
75.88	0.09	151760	keystroke_r	r	n/a
76.0455	0.0755	152091	keystroke_y	y	n/a
76.151	0.09	152302	keystroke_Key.space	Key.space	n/a
76.5855	0.12	153171	keystroke_a	a	n/a
76.8855	0.0905	153771	keystroke_p	p	n/a
77.216	0.075	154432	keystroke_n	n	n/a
77.411	0.075	154822	keystroke_i	i	n/a
77.561	0.105	155122	keystroke_c	c	n/a
77.711	0.104	155422	keystroke_Key.enter	Key.enter	n/a
77.83	7.083	155660	prompt	n/a	assuming adware exams scores\n
78.4905	0.09	156981	keystroke_a	a	n/a
78.7305	0.06	157461	keystroke_s	s	n/a
78.8805	0.0905	157761	keystroke_s	s	n/a
79.001	0.075	158002	keystroke_u	u	n/a
79.2255	0.105	158451	keystroke_m	m	n/a
79.4655	0.1505	158931	keystroke_i	i	n/a
79.6015	0.1045	159203	keystroke_n	n	n/a
79.661	0.15	159322	keystroke_g	g	n/a
79.766	0.149	159532	keystroke_Key.space	Key.space	n/a
79.9905	0.12	159981	keystroke_a	a	n/a
80.1565	0.1045	160313	keystroke_d	d	n/a
80.7105	0.0755	161421	keystroke_w	w	n/a
80.7555	0.1205	161511	keystroke_a	a	n/a
80.906	0.1805	161812	keystroke_r	r	n/a
81.1005	0.12	162201	keystroke_Key.space	Key.space	n/a
81.5655	0.075	163131	keystroke_Key.backspace	Key.backspace	n/a
81.701	0.15	163402	keystroke_e	e	n/a
81.716	0.0445	163432	keystroke_Key.backspace	Key.backspace	n/a
81.8655	0.09	163731	keystroke_Key.space	Key.space	n/a
82.406	0.105	164812	keystroke_Key.backspace	Key.backspace	n/a
82.541	0.15	165082	keystroke_e	e	n/a
82.661	0.12	165322	keystroke_Key.space	Key.space	n/a
82.8715	0.09	165743	keystroke_e	e	n/a
83.1415	0.119	166283	keystroke_x	x	n/a
83.441	0.09	166882	keystroke_a	a	n/a
83.531	0.075	167062	keystroke_m	m	n/a
83.666	0.105	167332	keystroke_s	s	n/a
83.801	0.119	167602	keystroke_Key.space	Key.space	n/a
83.9815	0.0895	167963	keystroke_s	s	n/a
84.161	0.09	168322	keystroke_c	c	n/a
84.326	0.09	168652	keystroke_o	o	n/a
84.446	0.149	168892	keystroke_r	r	n/a
84.596	0.12	169192	keystroke_e	e	n/a
84.701	0.135	169402	keystroke_s	s	n/a
84.8055	0.1055	169611	keystroke_Key.enter	Key.enter	n/a
84.918	6.8645	169836	prompt	n/a	fireplace nationally supporters oven\n
85.6755	0.105	171351	keystroke_f	f	n/a
85.81	0.076	171620	keystroke_i	i	n/a
85.901	0.104	171802	keystroke_r	r	n/a
86.021	0.105	172042	keystroke_e	e	n/a
86.201	0.149	172402	keystroke_p	p	n/a
86.306	0.1055	172612	keystroke_l	l	n/a
86.441	0.105	172882	keystroke_a	a	n/a
86.621	0.1195	173242	keystroke_c	c	n/a
86.861	0.12	173722	keystroke_e	e	n/a
86.936	0.135	173872	keystroke_Key.space	Key.space	n/a
87.1755	0.0605	174351	keystroke_n	n	n/a
87.2955	0.105	174591	keystroke_a	a	n/a
87.5955	0.075	175191	keystroke_t	t	n/a
87.686	0.0745	175372	keystroke_i	i	n/a
87.881	0.1045	175762	keystroke_o	o	n/a
87.971	0.09	175942	keystroke_n	n	n/a
88.046	0.105	176092	keystroke_a	a	n/a
88.1965	0.0745	176393	keystroke_l	l	n/a
88.33	0.0615	176660	keystroke_l	l	n/a
88.6	0.091	177200	keystroke_y	y	n/a
88.705	0.15	177410	keystroke_Key.space	Key.space	n/a
88.87	0.1205	177740	keystroke_s	s	n/a
88.9905	0.075	177981	keystroke_u	u	n/a
89.2605	0.045	178521	keystroke_p	p	n/a
89.4705	0.015	178941	keystroke_p	p	n/a
89.591	0.075	179182	keystroke_o	o	n/a
89.696	0.105	179392	keystroke_r	r	n/a
90.1155	0.105	180231	keystroke_t	t	n/a
90.3415	0.164	180683	keystroke_e	e	n/a
90.4615	0.149	180923	keystroke_r	r	n/a
90.7015	0.135	181403	keystroke_s	s	n/a
90.8205	0.106	181641	keystroke_Key.space	Key.space	n/a
91.0305	0.09	182061	keystroke_o	o	n/a
91.1355	0.091	182271	keystroke_v	v	n/a
91.346	0.0895	182692	keystroke_e	e	n/a
91.481	0.09	182962	keystroke_n	n	n/a
91.6755	0.105	183351	keystroke_Key.enter	Key.enter	n/a
91.7875	7.7955	183575	prompt	n/a	additions material participated warren\n
92.3815	0.0895	184763	keystroke_a	a	n/a
92.5155	0.09	185031	keystroke_d	d	n/a
92.6805	0.09	185361	keystroke_d	d	n/a
92.8005	0.076	185601	keystroke_i	i	n/a
92.9515	0.104	185903	keystroke_t	t	n/a
93.0575	0.088	186115	keystroke_i	i	n/a
93.2505	0.1355	186501	keystroke_o	o	n/a
93.356	0.12	186712	keystroke_n	n	n/a
93.837	0.119	187674	keystroke_s	s	n/a
93.971	0.09	187942	keystroke_Key.space	Key.space	n/a
94.196	0.09	188392	keystroke_m	m	n/a
94.271	0.105	188542	keystroke_a	a	n/a
94.526	0.075	189052	keystroke_t	t	n/a
94.6905	0.135	189381	keystroke_e	e	n/a
94.8105	0.1055	189621	keystroke_r	r	n/a
95.006	0.105	190012	keystroke_i	i	n/a
95.201	0.0905	190402	keystroke_a	a	n/a
95.321	0.0895	190642	keystroke_l	l	n/a
95.4405	0.12	190881	keystroke_Key.space	Key.space	n/a
95.7105	0.09	191421	keystroke_p	p	n/a
95.8155	0.0905	191631	keystroke_a	a	n/a
95.966	0.075	191932	keystroke_r	r	n/a
96.1315	0.0895	192263	keystroke_t	t	n/a
96.251	0.075	192502	keystroke_i	i	n/a
96.641	0.1055	193282	keystroke_c	c	n/a
96.7615	0.0895	193523	keystroke_i	i	n/a
97.2855	0.12	194571	keystroke_p	p	n/a
97.601	0.1045	195202	keystroke_a	a	n/a
97.8405	0.075	195681	keystroke_t	t	n/a
98.021	0.075	196042	keystroke_e	e	n/a
98.2305	0.136	196461	keystroke_d	d	n/a
98.3505	0.0905	196701	keystroke_Key.space	Key.space	n/a
98.5765	0.1345	197153	keystroke_w	w	n/a
98.7115	0.119	197423	keystroke_a	a	n/a
98.8755	0.0755	197751	keystroke_r	r	n/a
99.0105	0.1355	198021	keystroke_r	r	n/a
99.1605	0.09	198321	keystroke_e	e	n/a
99.2655	0.09	198531	keystroke_n	n	n/a
99.4755	0.105	198951	keystroke_Key.enter	Key.enter	n/a
99.5875	9.595	199175	prompt	n/a	readings however receive securities\n
100.2255	0.1355	200451	keystroke_r	r	n/a
100.331	0.12	200662	keystroke_e	e	n/a
100.436	0.135	200872	keystroke_a	a	n/a
100.901	0.045	201802	keystroke_d	d	n/a
101.111	0.12	202222	keystroke_i	i	n/a
101.186	0.1055	202372	keystroke_n	n	n/a
101.2765	0.1345	202553	keystroke_g	g	n/a
101.381	0.165	202762	keystroke_s	s	n/a
101.531	0.105	203062	keystroke_Key.space	Key.space	n/a
102.1905	0.075	204381	keystroke_h	h	n/a
102.3705	0.0905	204741	keystroke_o	o	n/a
102.4755	0.075	204951	keystroke_w	w	n/a
102.761	0.1345	205522	keystroke_e	e	n/a
103.091	0.09	206182	keystroke_v	v	n/a
103.3315	0.1195	206663	keystroke_e	e	n/a
103.4215	0.1335	206843	keystroke_r	r	n/a
103.526	0.135	207052	keystroke_Key.space	Key.space	n/a
103.75	0.091	207500	keystroke_r	r	n/a
103.826	0.1355	207652	keystroke_e	e	n/a
104.246	0.0755	208492	keystroke_c	c	n/a
104.77	0.105	209540	keystroke_i	i	n/a
104.9215	0.09	209843	keystroke_v	v	n/a
105.311	0.075	210622	keystroke_Key.backspace	Key.backspace	n/a
105.431	0.06	210862	keystroke_Key.backspace	Key.backspace	n/a
105.521	0.12	211042	keystroke_e	e	n/a
105.761	0.075	211522	keystroke_i	i	n/a
106.211	0.105	212422	keystroke_v	v	n/a
106.5265	0.104	213053	keystroke_e	e	n/a
106.6005	0.135	213201	keystroke_Key.space	Key.space	n/a
106.9305	0.1055	213861	keystroke_s	s	n/a
107.141	0.09	214282	keystroke_e	e	n/a
107.366	0.105	214732	keystroke_c	c	n/a
107.606	0.09	215212	keystroke_u	u	n/a
107.771	0.09	215542	keystroke_r	r	n/a
107.906	0.0905	215812	keystroke_i	i	n/a
108.086	0.09	216172	keystroke_t	t	n/a
108.236	0.12	216472	keystroke_i	i	n/a
108.371	0.105	216742	keystroke_e	e	n/a
108.4915	0.1345	216983	keystroke_s	s	n/a
108.5805	0.135	217161	keystroke_Key.space	Key.space	n/a
108.8805	0.0755	217761	keystroke_Key.backspace	Key.backspace	n/a
109.0905	0.0905	218181	keystroke_Key.enter	Key.enter	n/a
109.187	11.2455	218374	prompt	n/a	netherlands frog thursday queries\n
109.856	0.09	219712	keystroke_n	n	n/a
110.036	0.1345	220072	keystroke_e	e	n/a
110.2615	0.074	220523	keystroke_t	t	n/a
110.3665	0.074	220733	keystroke_h	h	n/a
110.456	0.12	220912	keystroke_e	e	n/a
110.5465	0.0895	221093	keystroke_r	r	n/a
110.7555	0.09	221511	keystroke_l	l	n/a
110.9055	0.075	221811	keystroke_a	a	n/a
111.0105	0.091	222021	keystroke_n	n	n/a
111.0855	0.151	222171	keystroke_d	d	n/a
111.1905	0.1955	222381	keystroke_Key.space	Key.space	n/a
111.776	0.09	223552	keystroke_Key.backspace	Key.backspace	n/a
111.881	0.1195	223762	keystroke_s	s	n/a
111.986	0.1195	223972	keystroke_Key.space	Key.space	n/a
112.406	0.09	224812	keystroke_f	f	n/a
112.6155	0.12	225231	keystroke_r	r	n/a
112.766	0.1045	225532	keystroke_o	o	n/a
112.9455	0.105	225891	keystroke_g	g	n/a
113.0955	0.12	226191	keystroke_Key.space	Key.space	n/a
114.9405	0.0905	229881	keystroke_t	t	n/a
115.0455	0.0755	230091	keystroke_h	h	n/a
115.2405	0.09	230481	keystroke_u	u	n/a
115.361	0.1195	230722	keystroke_r	r	n/a
115.556	0.135	231112	keystroke_s	s	n/a
116.366	0.105	232732	keystroke_d	d	n/a
116.441	0.135	232882	keystroke_a	a	n/a
116.5605	0.0905	233121	keystroke_y	y	n/a
116.726	0.105	233452	keystroke_Key.space	Key.space	n/a
117.536	0.105	235072	keystroke_q	q	n/a
117.701	0.12	235402	keystroke_u	u	n/a
117.971	0.105	235942	keystroke_e	e	n/a
118.466	0.1345	236932	keystroke_r	r	n/a
118.9605	0.1205	237921	keystroke_i	i	n/a
119.1415	0.119	238283	keystroke_e	e	n/a
119.6805	0.15	239361	keystroke_s	s	n/a
119.8155	0.15	239631	keystroke_Key.space	Key.space	n/a
120.1305	0.0905	240261	keystroke_Key.backspace	Key.backspace	n/a
120.3405	0.09	240681	keystroke_Key.enter	Key.enter	n/a
120.447	8.01	240894	prompt	n/a	wants trackback warranties viewpicture\n
121.421	0.135	242842	keystroke_w	w	n/a
121.571	0.134	243142	keystroke_a	a	n/a
121.6315	0.1045	243263	keystroke_n	n	n/a
121.856	0.119	243712	keystroke_t	t	n/a
121.976	0.15	243952	keystroke_s	s	n/a
122.08	0.1205	244160	keystroke_Key.space	Key.space	n/a
122.3805	0.1355	244761	keystroke_t	t	n/a
122.5005	0.1655	245001	keystroke_r	r	n/a
122.6815	0.1645	245363	keystroke_a	a	n/a
122.966	0.09	245932	keystroke_c	c	n/a
123.0715	0.0895	246143	keystroke_k	k	n/a
123.326	0.075	246652	keystroke_b	b	n/a
123.416	0.09	246832	keystroke_a	a	n/a
123.5805	0.1205	247161	keystroke_c	c	n/a
123.686	0.105	247372	keystroke_k	k	n/a
123.805	0.1205	247610	keystroke_Key.space	Key.space	n/a
123.986	0.149	247972	keystroke_w	w	n/a
124.151	0.074	248302	keystroke_a	a	n/a
124.33	0.061	248660	keystroke_r	r	n/a
124.45	0.106	248900	keystroke_r	r	n/a
124.57	0.12	249140	keystroke_a	a	n/a
124.691	0.089	249382	keystroke_n	n	n/a
124.886	0.089	249772	keystroke_t	t	n/a
125.051	0.09	250102	keystroke_i	i	n/a
125.1865	0.1345	250373	keystroke_e	e	n/a
125.306	0.165	250612	keystroke_s	s	n/a
125.515	0.136	251030	keystroke_Key.space	Key.space	n/a
126.1605	0.091	252321	keystroke_v	v	n/a
126.3705	0.0455	252741	keystroke_i	i	n/a
126.4755	0.15	252951	keystroke_e	e	n/a
126.6105	0.105	253221	keystroke_w	w	n/a
126.8055	0.076	253611	keystroke_p	p	n/a
127.076	0.075	254152	keystroke_i	i	n/a
127.376	0.09	254752	keystroke_c	c	n/a
127.78	0.076	255560	keystroke_t	t	n/a
127.9755	0.06	255951	keystroke_u	u	n/a
128.065	0.12	256130	keystroke_r	r	n/a
128.186	0.12	256372	keystroke_e	e	n/a
128.381	0.074	256762	keystroke_Key.enter	Key.enter	n/a
128.4615	5.7265	256923	prompt	n/a	enjoying sprint tennis born\n
129.085	0.09	258170	keystroke_e	e	n/a
129.191	0.045	258382	keystroke_n	n	n/a
129.386	0.074	258772	keystroke_j	j	n/a
129.58	0.075	259160	keystroke_o	o	n/a
129.8815	0.0435	259763	keystroke_y	y	n/a
130.21	0.151	260420	keystroke_i	i	n/a
130.316	0.1045	260632	keystroke_n	n	n/a
130.4215	0.1045	260843	keystroke_g	g	n/a
130.5105	0.135	261021	keystroke_Key.space	Key.space	n/a
130.6605	0.105	261321	keystroke_s	s	n/a
130.781	0.0905	261562	keystroke_p	p	n/a
131.576	0.0895	263152	keystroke_r	r	n/a
131.6805	0.0905	263361	keystroke_i	i	n/a
131.7405	0.105	263481	keystroke_n	n	n/a
131.8305	0.1495	263661	keystroke_t	t	n/a
131.9355	0.1345	263871	keystroke_Key.space	Key.space	n/a
132.4755	0.09	264951	keystroke_t	t	n/a
132.5805	0.1205	265161	keystroke_e	e	n/a
132.7015	0.0595	265403	keystroke_n	n	n/a
132.82	0.076	265640	keystroke_n	n	n/a
133.0005	0.0755	266001	keystroke_i	i	n/a
133.1055	0.0755	266211	keystroke_s	s	n/a
133.1505	0.1355	266301	keystroke_Key.space	Key.space	n/a
133.391	0.075	266782	keystroke_b	b	n/a
133.586	0.075	267172	keystroke_o	o	n/a
133.691	0.1055	267382	keystroke_r	r	n/a
133.871	0.09	267742	keystroke_n	n	n/a
134.081	0.105	268162	keystroke_Key.enter	Key.enter	n/a
134.193	6.0245	268386	prompt	n/a	besides show byte driven\n
134.8465	0.089	269693	keystroke_b	b	n/a
134.9655	0.15	269931	keystroke_e	e	n/a
135.131	0.1045	270262	keystroke_s	s	n/a
135.296	0.0895	270592	keystroke_i	i	n/a
135.4455	0.12	270891	keystroke_d	d	n/a
135.7155	0.21	271431	keystroke_e	e	n/a
135.9105	0.1655	271821	keystroke_s	s	n/a
136.0605	0.12	272121	keystroke_Key.space	Key.space	n/a
136.436	0.15	272872	keystroke_s	s	n/a
136.5705	0.105	273141	keystroke_h	h	n/a
136.706	0.1195	273412	keystroke_o	o	n/a
136.8105	0.12	273621	keystroke_w	w	n/a
136.886	0.1345	273772	keystroke_Key.space	Key.space	n/a
137.096	0.089	274192	keystroke_b	b	n/a
137.3505	0.075	274701	keystroke_y	y	n/a
137.7705	0.1205	275541	keystroke_t	t	n/a
137.9055	0.135	275811	keystroke_e	e	n/a
138.0415	0.119	276083	keystroke_Key.space	Key.space	n/a
138.491	0.105	276982	keystroke_d	d	n/a
138.761	0.134	277522	keystroke_r	r	n/a
138.91	0.061	277820	keystroke_e	e	n/a
139.3005	0.06	278601	keystroke_Key.backspace	Key.backspace	n/a
139.5405	0.0755	279081	keystroke_i	i	n/a
139.6305	0.0905	279261	keystroke_v	v	n/a
139.8555	0.09	279711	keystroke_e	e	n/a
139.9605	0.075	279921	keystroke_n	n	n/a
140.1105	0.105	280221	keystroke_Key.enter	Key.enter	n/a
140.221	8.1265	280442	prompt	n/a	gamma though induction naked\n
140.936	0.1045	281872	keystroke_g	g	n/a
141.0555	0.1055	282111	keystroke_a	a	n/a
141.1455	0.0605	282291	keystroke_m	m	n/a
141.265	0.0905	282530	keystroke_m	m	n/a
141.415	0.105	282830	keystroke_e	e	n/a
141.49	0.1355	282980	keystroke_Key.space	Key.space	n/a
141.911	0.09	283822	keystroke_h	h	n/a
142.5405	0.1205	285081	keystroke_Key.backspace	Key.backspace	n/a
142.9155	0.06	285831	keystroke_Key.backspace	Key.backspace	n/a
143.0655	0.075	286131	keystroke_Key.backspace	Key.backspace	n/a
143.126	0.135	286252	keystroke_a	a	n/a
143.2755	0.12	286551	keystroke_Key.space	Key.space	n/a
143.455	0.1055	286910	keystroke_t	t	n/a
143.575	0.105	287150	keystroke_h	h	n/a
143.726	0.12	287452	keystroke_o	o	n/a
144.04	0.076	288080	keystroke_u	u	n/a
144.1755	0.1055	288351	keystroke_g	g	n/a
144.325	0.0755	288650	keystroke_h	h	n/a
144.415	0.106	288830	keystroke_Key.space	Key.space	n/a
144.731	0.12	289462	keystroke_i	i	n/a
144.8355	0.0905	289671	keystroke_n	n	n/a
144.9705	0.0895	289941	keystroke_d	d	n/a
145.165	0.061	290330	keystroke_u	u	n/a
145.211	0.1045	290422	keystroke_c	c	n/a
145.5405	0.075	291081	keystroke_t	t	n/a
146.185	0.1055	292370	keystroke_i	i	n/a
146.531	0.15	293062	keystroke_o	o	n/a
146.636	0.105	293272	keystroke_n	n	n/a
146.786	0.12	293572	keystroke_Key.space	Key.space	n/a
147.581	0.09	295162	keystroke_n	n	n/a
147.671	0.105	295342	keystroke_a	a	n/a
147.836	0.1195	295672	keystroke_k	k	n/a
147.9405	0.0755	295881	keystroke_e	e	n/a
148.12	0.12	296240	keystroke_d	d	n/a
148.255	0.09	296510	keystroke_Key.enter	Key.enter	n/a
148.355	11.1695	296710	prompt	n/a	clan portrait practices distributions\n
149.171	0.075	298342	keystroke_c	c	n/a
149.2755	0.09	298551	keystroke_l	l	n/a
149.3805	0.09	298761	keystroke_a	a	n/a
149.531	0.06	299062	keystroke_n	n	n/a
149.6355	0.105	299271	keystroke_Key.space	Key.space	n/a
150.0555	0.09	300111	keystroke_f	f	n/a
150.881	0.075	301762	keystroke_Key.backspace	Key.backspace	n/a
151.1215	0.0745	302243	keystroke_p	p	n/a
151.331	0.0895	302662	keystroke_o	o	n/a
151.451	0.105	302902	keystroke_r	r	n/a
151.691	0.1045	303382	keystroke_t	t	n/a
151.9305	0.12	303861	keystroke_r	r	n/a
152.291	0.165	304582	keystroke_a	a	n/a
152.8455	0.105	305691	keystroke_i	i	n/a
153.0705	0.135	306141	keystroke_t	t	n/a
153.1905	0.135	306381	keystroke_Key.space	Key.space	n/a
153.791	0.105	307582	keystroke_p	p	n/a
154.001	0.105	308002	keystroke_r	r	n/a
154.12	0.12	308240	keystroke_a	a	n/a
154.33	0.09	308660	keystroke_c	c	n/a
154.585	0.06	309170	keystroke_t	t	n/a
154.69	0.091	309380	keystroke_i	i	n/a
154.811	0.105	309622	keystroke_v	v	n/a
155.275	0.0905	310550	keystroke_Key.backspace	Key.backspace	n/a
155.35	0.121	310700	keystroke_c	c	n/a
155.6355	0.1505	311271	keystroke_e	e	n/a
155.801	0.1495	311602	keystroke_s	s	n/a
155.9355	0.135	311871	keystroke_Key.space	Key.space	n/a
156.311	0.135	312622	keystroke_d	d	n/a
156.5055	0.0755	313011	keystroke_i	i	n/a
156.5955	0.106	313191	keystroke_s	s	n/a
156.8505	0.1505	313701	keystroke_t	t	n/a
156.9855	0.151	313971	keystroke_r	r	n/a
157.3605	0.045	314721	keystroke_i	i	n/a
157.571	0.075	315142	keystroke_b	b	n/a
158.156	0.105	316312	keystroke_u	u	n/a
158.7105	0.1055	317421	keystroke_t	t	n/a
158.8455	0.09	317691	keystroke_i	i	n/a
159.071	0.135	318142	keystroke_o	o	n/a
159.175	0.105	318350	keystroke_n	n	n/a
159.2955	0.1195	318591	keystroke_s	s	n/a
159.43	0.09	318860	keystroke_Key.enter	Key.enter	n/a
159.529	7.8085	319058	prompt	n/a	declared fully agricultural lies\n
160.226	0.0895	320452	keystroke_d	d	n/a
160.3905	0.09	320781	keystroke_e	e	n/a
160.6305	0.105	321261	keystroke_c	c	n/a
160.7505	0.09	321501	keystroke_l	l	n/a
161.0055	0.06	322011	keystroke_a	a	n/a
161.1855	0.1195	322371	keystroke_r	r	n/a
161.2905	0.0905	322581	keystroke_e	e	n/a
161.546	0.09	323092	keystroke_d	d	n/a
161.621	0.119	323242	keystroke_Key.space	Key.space	n/a
161.83	0.1055	323660	keystroke_f	f	n/a
161.966	0.074	323932	keystroke_u	u	n/a
162.175	0.076	324350	keystroke_l	l	n/a
162.325	0.09	324650	keystroke_l	l	n/a
162.416	0.105	324832	keystroke_y	y	n/a
162.491	0.119	324982	keystroke_Key.space	Key.space	n/a
162.731	0.12	325462	keystroke_a	a	n/a
163.2105	0.09	326421	keystroke_g	g	n/a
163.5405	0.1055	327081	keystroke_r	r	n/a
163.7655	0.0755	327531	keystroke_i	i	n/a
163.976	0.1045	327952	keystroke_c	c	n/a
164.1555	0.105	328311	keystroke_u	u	n/a
164.861	0.105	329722	keystroke_l	l	n/a
165.206	0.0895	330412	keystroke_t	t	n/a
165.37	0.09	330740	keystroke_u	u	n/a
166.121	0.075	332242	keystroke_r	r	n/a
166.211	0.12	332422	keystroke_a	a	n/a
166.3155	0.12	332631	keystroke_l	l	n/a
166.4505	0.105	332901	keystroke_Key.space	Key.space	n/a
166.706	0.0595	333412	keystroke_l	l	n/a
166.931	0.09	333862	keystroke_i	i	n/a
167.0055	0.12	334011	keystroke_e	e	n/a
167.1265	0.1335	334253	keystroke_s	s	n/a
167.245	0.0905	334490	keystroke_Key.enter	Key.enter	n/a
167.342	7.93	334684	prompt	n/a	nickel each cinema elementary\n
168.026	0.0595	336052	keystroke_n	n	n/a
168.1905	0.06	336381	keystroke_i	i	n/a
168.3105	0.091	336621	keystroke_c	c	n/a
168.4605	0.0905	336921	keystroke_k	k	n/a
168.671	0.06	337342	keystroke_e	e	n/a
168.791	0.105	337582	keystroke_l	l	n/a
168.956	0.1195	337912	keystroke_Key.space	Key.space	n/a
169.2705	0.1345	338541	keystroke_e	e	n/a
169.42	0.1055	338840	keystroke_a	a	n/a
169.601	0.104	339202	keystroke_c	c	n/a
169.7355	0.075	339471	keystroke_h	h	n/a
169.7955	0.105	339591	keystroke_Key.space	Key.space	n/a
170.4105	0.09	340821	keystroke_c	c	n/a
170.561	0.1505	341122	keystroke_i	i	n/a
170.6805	0.105	341361	keystroke_n	n	n/a
170.891	0.1045	341782	keystroke_e	e	n/a
171.086	0.0895	342172	keystroke_a	a	n/a
171.295	0.0305	342590	keystroke_m	m	n/a
171.5655	0.06	343131	keystroke_Key.backspace	Key.backspace	n/a
171.7005	0.06	343401	keystroke_Key.backspace	Key.backspace	n/a
171.911	0.09	343822	keystroke_m	m	n/a
171.986	0.105	343972	keystroke_a	a	n/a
172.076	0.12	344152	keystroke_Key.space	Key.space	n/a
172.451	0.0605	344902	keystroke_e	e	n/a
172.526	0.105	345052	keystroke_l	l	n/a
172.616	0.075	345232	keystroke_e	e	n/a
172.8255	0.09	345651	keystroke_c	c	n/a
173.2	0.0755	346400	keystroke_m	m	n/a
173.6655	0.0605	347331	keystroke_Key.backspace	Key.backspace	n/a
173.816	0.044	347632	keystroke_Key.backspace	Key.backspace	n/a
174.026	0.075	348052	keystroke_m	m	n/a
174.116	0.12	348232	keystroke_e	e	n/a
174.251	0.075	348502	keystroke_n	n	n/a
174.506	0.06	349012	keystroke_t	t	n/a
174.641	0.105	349282	keystroke_a	a	n/a
174.791	0.105	349582	keystroke_r	r	n/a
174.941	0.075	349882	keystroke_y	y	n/a
175.1955	0.075	350391	keystroke_Key.enter	Key.enter	n/a
175.2765	7.991	350553	prompt	n/a	changing invisible dirt ending\n
175.856	0.1055	351712	keystroke_c	c	n/a
175.9765	0.075	351953	keystroke_h	h	n/a
176.1255	0.1055	352251	keystroke_a	a	n/a
176.2455	0.0905	352491	keystroke_n	n	n/a
176.7705	0.09	353541	keystroke_g	g	n/a
176.9655	0.12	353931	keystroke_i	i	n/a
177.056	0.1045	354112	keystroke_n	n	n/a
177.1755	0.105	354351	keystroke_g	g	n/a
177.251	0.1195	354502	keystroke_Key.space	Key.space	n/a
177.6855	0.0605	355371	keystroke_i	i	n/a
177.7305	0.105	355461	keystroke_n	n	n/a
177.9405	0.1345	355881	keystroke_v	v	n/a
178.346	0.0745	356692	keystroke_u	u	n/a
178.8555	0.06	357711	keystroke_Key.backspace	Key.backspace	n/a
179.0955	0.0755	358191	keystroke_i	i	n/a
179.1555	0.0905	358311	keystroke_s	s	n/a
179.531	0.075	359062	keystroke_i	i	n/a
180.0565	0.0895	360113	keystroke_b	b	n/a
180.251	0.1055	360502	keystroke_l	l	n/a
180.371	0.12	360742	keystroke_e	e	n/a
180.476	0.09	360952	keystroke_Key.space	Key.space	n/a
180.776	0.1045	361552	keystroke_d	d	n/a
181.076	0.06	362152	keystroke_i	i	n/a
181.226	0.105	362452	keystroke_r	r	n/a
181.451	0.12	362902	keystroke_t	t	n/a
181.555	0.136	363110	keystroke_Key.space	Key.space	n/a
181.75	0.091	363500	keystroke_e	e	n/a
181.856	0.089	363712	keystroke_n	n	n/a
182.4855	0.12	364971	keystroke_d	d	n/a
182.7105	0.135	365421	keystroke_i	i	n/a
182.801	0.0895	365602	keystroke_n	n	n/a
182.951	0.1045	365902	keystroke_g	g	n/a
183.1755	0.09	366351	keystroke_Key.enter	Key.enter	n/a
183.272	11.74	366544	prompt	n/a	maintaining seal amateur specialty\n
183.941	0.074	367882	keystroke_m	m	n/a
184.06	0.075	368120	keystroke_a	a	n/a
184.181	0.09	368362	keystroke_i	i	n/a
184.255	0.09	368510	keystroke_n	n	n/a
184.4055	0.09	368811	keystroke_t	t	n/a
184.525	0.105	369050	keystroke_a	a	n/a
184.615	0.076	369230	keystroke_i	i	n/a
184.675	0.106	369350	keystroke_n	n	n/a
184.931	0.1345	369862	keystroke_n	n	n/a
185.455	0.0605	370910	keystroke_Key.backspace	Key.backspace	n/a
185.7555	0.0905	371511	keystroke_i	i	n/a
185.8305	0.09	371661	keystroke_n	n	n/a
185.891	0.1195	371782	keystroke_g	g	n/a
185.9805	0.12	371961	keystroke_Key.space	Key.space	n/a
186.356	0.045	372712	keystroke_s	s	n/a
186.461	0.165	372922	keystroke_e	e	n/a
186.656	0.15	373312	keystroke_a	a	n/a
186.731	0.135	373462	keystroke_l	l	n/a
186.986	0.1345	373972	keystroke_Key.space	Key.space	n/a
187.465	0.106	374930	keystroke_a	a	n/a
187.5715	0.09	375143	keystroke_m	m	n/a
187.856	0.135	375712	keystroke_a	a	n/a
188.1555	0.09	376311	keystroke_t	t	n/a
188.5155	0.15	377031	keystroke_e	e	n/a
188.651	0.1495	377302	keystroke_a	a	n/a
188.8155	0.1205	377631	keystroke_r	r	n/a
188.996	0.12	377992	keystroke_Key.space	Key.space	n/a
189.8505	0.0445	379701	keystroke_Key.backspace	Key.backspace	n/a
189.971	0.0895	379942	keystroke_Key.backspace	Key.backspace	n/a
190.1205	0.075	380241	keystroke_Key.backspace	Key.backspace	n/a
190.2555	0.09	380511	keystroke_Key.backspace	Key.backspace	n/a
191.186	0.1495	382372	keystroke_e	e	n/a
191.651	0.105	383302	keystroke_u	u	n/a
191.815	0.1355	383630	keystroke_r	r	n/a
191.936	0.135	383872	keystroke_Key.space	Key.space	n/a
192.4905	0.105	384981	keystroke_s	s	n/a
192.6555	0.0905	385311	keystroke_p	p	n/a
192.7765	0.0735	385553	keystroke_e	e	n/a
193.001	0.105	386002	keystroke_c	c	n/a
193.1505	0.0755	386301	keystroke_i	i	n/a
193.451	0.075	386902	keystroke_l	l	n/a
193.586	0.06	387172	keystroke_a	a	n/a
193.781	0.06	387562	keystroke_Key.backspace	Key.backspace	n/a
193.93	0.06	387860	keystroke_Key.backspace	Key.backspace	n/a
194.051	0.105	388102	keystroke_a	a	n/a
194.201	0.105	388402	keystroke_l	l	n/a
194.366	0.074	388732	keystroke_t	t	n/a
194.5755	0.106	389151	keystroke_y	y	n/a
194.9055	0.1055	389811	keystroke_Key.enter	Key.enter	n/a
195.016	7.062	390032	prompt	n/a	vacation measurements brilliant moss\n
195.896	0.0895	391792	keystroke_v	v	n/a
196.031	0.06	392062	keystroke_a	a	n/a
196.226	0.09	392452	keystroke_c	c	n/a
196.481	0.105	392962	keystroke_a	a	n/a
196.766	0.09	393532	keystroke_t	t	n/a
196.886	0.06	393772	keystroke_i	i	n/a
197.066	0.12	394132	keystroke_o	o	n/a
197.1405	0.1355	394281	keystroke_n	n	n/a
197.261	0.1045	394522	keystroke_Key.space	Key.space	n/a
197.4255	0.09	394851	keystroke_m	m	n/a
197.501	0.15	395002	keystroke_e	e	n/a
197.636	0.12	395272	keystroke_a	a	n/a
197.906	0.1045	395812	keystroke_s	s	n/a
198.0705	0.091	396141	keystroke_u	u	n/a
198.1465	0.119	396293	keystroke_r	r	n/a
198.2505	0.12	396501	keystroke_e	e	n/a
198.4155	0.09	396831	keystroke_m	m	n/a
198.5355	0.105	397071	keystroke_e	e	n/a
198.6255	0.075	397251	keystroke_n	n	n/a
199.0005	0.105	398001	keystroke_t	t	n/a
199.2255	0.135	398451	keystroke_s	s	n/a
199.3755	0.105	398751	keystroke_Key.space	Key.space	n/a
199.7065	0.0895	399413	keystroke_b	b	n/a
199.871	0.12	399742	keystroke_r	r	n/a
200.111	0.045	400222	keystroke_i	i	n/a
200.2915	0.059	400583	keystroke_l	l	n/a
200.4255	0.075	400851	keystroke_l	l	n/a
200.7265	0.074	401453	keystroke_i	i	n/a
200.906	0.105	401812	keystroke_a	a	n/a
201.0555	0.0905	402111	keystroke_n	n	n/a
201.2205	0.1055	402441	keystroke_t	t	n/a
201.281	0.12	402562	keystroke_Key.space	Key.space	n/a
201.4605	0.0605	402921	keystroke_m	m	n/a
201.596	0.09	403192	keystroke_o	o	n/a
201.671	0.1045	403342	keystroke_s	s	n/a
201.851	0.09	403702	keystroke_s	s	n/a
201.971	0.1045	403942	keystroke_Key.enter	Key.enter	n/a
202.082	6.956	404164	prompt	n/a	organized mode johnston customers\n
202.871	0.09	405742	keystroke_o	o	n/a
203.0205	0.0905	406041	keystroke_r	r	n/a
203.2755	0.1055	406551	keystroke_g	g	n/a
203.3955	0.12	406791	keystroke_a	a	n/a
203.4855	0.0605	406971	keystroke_n	n	n/a
203.6655	0.076	407331	keystroke_i	i	n/a
203.7705	0.105	407541	keystroke_z	z	n/a
204.0405	0.091	408081	keystroke_e	e	n/a
204.236	0.1345	408472	keystroke_d	d	n/a
204.3405	0.12	408681	keystroke_Key.space	Key.space	n/a
204.4905	0.0605	408981	keystroke_m	m	n/a
204.656	0.09	409312	keystroke_o	o	n/a
204.731	0.09	409462	keystroke_d	d	n/a
204.971	0.105	409942	keystroke_e	e	n/a
205.061	0.1195	410122	keystroke_Key.space	Key.space	n/a
205.2855	0.075	410571	keystroke_j	j	n/a
205.4505	0.09	410901	keystroke_o	o	n/a
205.706	0.045	411412	keystroke_h	h	n/a
205.8855	0.0755	411771	keystroke_n	n	n/a
206.321	0.12	412642	keystroke_s	s	n/a
206.7105	0.075	413421	keystroke_t	t	n/a
206.8605	0.121	413721	keystroke_o	o	n/a
206.9505	0.105	413901	keystroke_n	n	n/a
207.0405	0.09	414081	keystroke_Key.space	Key.space	n/a
207.3255	0.105	414651	keystroke_c	c	n/a
207.5055	0.06	415011	keystroke_u	u	n/a
207.596	0.09	415192	keystroke_s	s	n/a
207.8505	0.075	415701	keystroke_t	t	n/a
208.1065	0.164	416213	keystroke_o	o	n/a
208.2555	0.0905	416511	keystroke_m	m	n/a
208.4505	0.105	416901	keystroke_e	e	n/a
208.571	0.15	417142	keystroke_r	r	n/a
208.7365	0.1495	417473	keystroke_s	s	n/a
208.9155	0.1205	417831	keystroke_Key.enter	Key.enter	n/a
209.043	12.594	418086	prompt	n/a	representations glory skin potential\n
209.6205	0.135	419241	keystroke_r	r	n/a
209.7405	0.136	419481	keystroke_e	e	n/a
209.9055	0.135	419811	keystroke_s	s	n/a
210.4305	0.06	420861	keystroke_Key.backspace	Key.backspace	n/a
210.5505	0.0745	421101	keystroke_Key.backspace	Key.backspace	n/a
211.226	0.09	422452	keystroke_e	e	n/a
211.376	0.075	422752	keystroke_p	p	n/a
211.616	0.15	423232	keystroke_r	r	n/a
211.721	0.135	423442	keystroke_e	e	n/a
211.871	0.1055	423742	keystroke_s	s	n/a
212.036	0.105	424072	keystroke_e	e	n/a
212.186	0.075	424372	keystroke_n	n	n/a
212.306	0.09	424612	keystroke_t	t	n/a
212.426	0.135	424852	keystroke_a	a	n/a
212.546	0.105	425092	keystroke_t	t	n/a
212.666	0.09	425332	keystroke_i	i	n/a
212.906	0.1195	425812	keystroke_o	o	n/a
213.04	0.0755	426080	keystroke_n	n	n/a
213.131	0.104	426262	keystroke_s	s	n/a
213.191	0.134	426382	keystroke_Key.space	Key.space	n/a
213.431	0.12	426862	keystroke_f	f	n/a
213.626	0.075	427252	keystroke_l	l	n/a
213.835	0.076	427670	keystroke_o	o	n/a
213.971	0.105	427942	keystroke_r	r	n/a
214.421	0.0295	428842	keystroke_=	=	n/a
214.571	0.03	429142	keystroke_Key.backspace	Key.backspace	n/a
214.6755	0.0755	429351	keystroke_Key.backspace	Key.backspace	n/a
214.811	0.06	429622	keystroke_Key.backspace	Key.backspace	n/a
214.931	0.09	429862	keystroke_Key.backspace	Key.backspace	n/a
215.081	0.12	430162	keystroke_g	g	n/a
215.441	0.075	430882	keystroke_Key.backspace	Key.backspace	n/a
215.606	0.045	431212	keystroke_Key.backspace	Key.backspace	n/a
215.696	0.105	431392	keystroke_g	g	n/a
216.0255	0.0755	432051	keystroke_o	o	n/a
216.4155	0.075	432831	keystroke_Key.backspace	Key.backspace	n/a
216.6555	0.076	433311	keystroke_l	l	n/a
216.8055	0.105	433611	keystroke_o	o	n/a
216.9555	0.1205	433911	keystroke_r	r	n/a
217.1505	0.09	434301	keystroke_y	y	n/a
217.2855	0.135	434571	keystroke_Key.space	Key.space	n/a
217.5715	0.1045	435143	keystroke_s	s	n/a
217.691	0.1045	435382	keystroke_k	k	n/a
217.946	0.1345	435892	keystroke_i	i	n/a
218.0515	0.104	436103	keystroke_n	n	n/a
218.1405	0.12	436281	keystroke_Key.space	Key.space	n/a
218.4855	0.075	436971	keystroke_p	p	n/a
218.6955	0.0755	437391	keystroke_o	o	n/a
218.786	0.1195	437572	keystroke_r	r	n/a
219.0255	0.075	438051	keystroke_t	t	n/a
219.2065	0.0735	438413	keystroke_e	e	n/a
219.521	0.06	439042	keystroke_Key.backspace	Key.backspace	n/a
219.6555	0.0895	439311	keystroke_Key.backspace	Key.backspace	n/a
219.806	0.12	439612	keystroke_t	t	n/a
220.06	0.105	440120	keystroke_Key.backspace	Key.backspace	n/a
220.21	0.076	440420	keystroke_Key.backspace	Key.backspace	n/a
220.3	0.136	440600	keystroke_t	t	n/a
220.421	0.12	440842	keystroke_e	e	n/a
220.6	0.091	441200	keystroke_n	n	n/a
220.841	0.075	441682	keystroke_t	t	n/a
220.9905	0.075	441981	keystroke_i	i	n/a
221.2015	0.1195	442403	keystroke_a	a	n/a
221.3065	0.105	442613	keystroke_l	l	n/a
221.5455	0.09	443091	keystroke_Key.enter	Key.enter	n/a
221.641	7.8415	443282	prompt	n/a	spread economy rights encounter\n
222.3255	0.1055	444651	keystroke_s	s	n/a
222.4155	0.09	444831	keystroke_p	p	n/a
222.6555	0.1355	445311	keystroke_r	r	n/a
222.7605	0.1205	445521	keystroke_e	e	n/a
222.896	0.1195	445792	keystroke_a	a	n/a
223.061	0.15	446122	keystroke_d	d	n/a
223.1955	0.1055	446391	keystroke_Key.space	Key.space	n/a
223.645	0.076	447290	keystroke_e	e	n/a
224.17	0.1355	448340	keystroke_x	x	n/a
224.366	0.1205	448732	keystroke_o	o	n/a
224.785	0.045	449570	keystroke_Key.backspace	Key.backspace	n/a
224.92	0.061	449840	keystroke_Key.backspace	Key.backspace	n/a
225.026	0.09	450052	keystroke_c	c	n/a
225.2055	0.0895	450411	keystroke_o	o	n/a
225.401	0.09	450802	keystroke_n	n	n/a
225.536	0.105	451072	keystroke_o	o	n/a
225.7615	0.075	451523	keystroke_m	m	n/a
226.0155	0.075	452031	keystroke_y	y	n/a
226.1205	0.12	452241	keystroke_Key.space	Key.space	n/a
226.3005	0.105	452601	keystroke_r	r	n/a
226.421	0.0745	452842	keystroke_i	i	n/a
226.541	0.0445	453082	keystroke_g	g	n/a
226.6605	0.0755	453321	keystroke_h	h	n/a
226.811	0.135	453622	keystroke_t	t	n/a
227.0505	0.1505	454101	keystroke_s	s	n/a
227.1855	0.105	454371	keystroke_Key.space	Key.space	n/a
227.6655	0.091	455331	keystroke_e	e	n/a
227.8305	0.075	455661	keystroke_n	n	n/a
228.236	0.1345	456472	keystroke_c	c	n/a
228.3855	0.09	456771	keystroke_o	o	n/a
228.6405	0.12	457281	keystroke_u	u	n/a
228.7155	0.105	457431	keystroke_n	n	n/a
228.8805	0.09	457761	keystroke_t	t	n/a
229.016	0.21	458032	keystroke_e	e	n/a
229.1665	0.1345	458333	keystroke_r	r	n/a
229.376	0.105	458752	keystroke_Key.enter	Key.enter	n/a
229.487	23.3655	458974	prompt	n/a	who's cholesterol false secure\n
229.976	0.105	459952	keystroke_s	s	n/a
230.3655	0.075	460731	keystroke_Key.backspace	Key.backspace	n/a
230.4855	0.12	460971	keystroke_w	w	n/a
230.6505	0.106	461301	keystroke_h	h	n/a
230.786	0.1195	461572	keystroke_o	o	n/a
231.0705	0.12	462141	keystroke_'	'	n/a
231.2215	0.134	462443	keystroke_s	s	n/a
231.3255	0.1205	462651	keystroke_Key.space	Key.space	n/a
231.686	0.1205	463372	keystroke_c	c	n/a
231.821	0.0755	463642	keystroke_h	h	n/a
232.496	0.12	464992	keystroke_o	o	n/a
232.976	0.0895	465952	keystroke_l	l	n/a
233.1255	0.105	466251	keystroke_e	e	n/a
233.3805	0.075	466761	keystroke_s	s	n/a
233.6055	0.06	467211	keystroke_t	t	n/a
233.7105	0.15	467421	keystroke_e	e	n/a
233.8155	0.12	467631	keystroke_r	r	n/a
234.041	0.134	468082	keystroke_a	a	n/a
234.16	0.105	468320	keystroke_l	l	n/a
234.295	0.106	468590	keystroke_Key.space	Key.space	n/a
234.6115	0.1035	469223	keystroke_f	f	n/a
235.42	0.061	470840	keystroke_Key.backspace	Key.backspace	n/a
235.585	0.0605	471170	keystroke_Key.backspace	Key.backspace	n/a
235.75	0.045	471500	keystroke_Key.backspace	Key.backspace	n/a
236.0505	0.0895	472101	keystroke_Key.backspace	Key.backspace	n/a
236.95	0.075	473900	keystroke_Key.backspace	Key.backspace	n/a
237.1155	0.0745	474231	keystroke_Key.backspace	Key.backspace	n/a
237.266	0.074	474532	keystroke_Key.backspace	Key.backspace	n/a
237.4305	0.09	474861	keystroke_Key.backspace	Key.backspace	n/a
238.736	0.12	477472	keystroke_s	s	n/a
239.456	0.09	478912	keystroke_t	t	n/a
239.606	0.12	479212	keystroke_e	e	n/a
239.696	0.1355	479392	keystroke_r	r	n/a
239.9065	0.1345	479813	keystroke_a	a	n/a
240.0265	0.0895	480053	keystroke_l	l	n/a
240.176	0.105	480352	keystroke_Key.space	Key.space	n/a
240.461	0.105	480922	keystroke_f	f	n/a
245.3525	0.028	490705	keystroke_Key.backspace	Key.backspace	n/a
245.456	0.075	490912	keystroke_Key.backspace	Key.backspace	n/a
245.606	0.075	491212	keystroke_Key.backspace	Key.backspace	n/a
245.7705	0.061	491541	keystroke_Key.backspace	Key.backspace	n/a
245.9955	0.0755	491991	keystroke_Key.backspace	Key.backspace	n/a
246.356	0.105	492712	keystroke_o	o	n/a
246.6565	0.09	493313	keystroke_l	l	n/a
247.091	0.0595	494182	keystroke_Key.backspace	Key.backspace	n/a
247.226	0.0895	494452	keystroke_Key.backspace	Key.backspace	n/a
248.2005	0.12	496401	keystroke_r	r	n/a
248.3805	0.09	496761	keystroke_o	o	n/a
248.5605	0.1205	497121	keystroke_l	l	n/a
248.7105	0.1205	497421	keystroke_Key.space	Key.space	n/a
249.3715	0.089	498743	keystroke_g	g	n/a
249.5665	0.119	499133	keystroke_a	a	n/a
249.6565	0.0895	499313	keystroke_l	l	n/a
249.9705	0.0605	499941	keystroke_Key.backspace	Key.backspace	n/a
250.1055	0.06	500211	keystroke_Key.backspace	Key.backspace	n/a
250.226	0.075	500452	keystroke_Key.backspace	Key.backspace	n/a
250.3615	0.15	500723	keystroke_f	f	n/a
250.526	0.09	501052	keystroke_a	a	n/a
250.5865	0.105	501173	keystroke_l	l	n/a
250.811	0.12	501622	keystroke_s	s	n/a
251.0365	0.1195	502073	keystroke_e	e	n/a
251.126	0.1045	502252	keystroke_Key.space	Key.space	n/a
251.5305	0.1055	503061	keystroke_s	s	n/a
251.681	0.1355	503362	keystroke_e	e	n/a
252.206	0.105	504412	keystroke_c	c	n/a
252.402	0.074	504804	keystroke_u	u	n/a
252.491	0.15	504982	keystroke_r	r	n/a
252.626	0.135	505252	keystroke_e	e	n/a
252.7755	0.0755	505551	keystroke_Key.enter	Key.enter	n/a
252.8585	10.134	505717	prompt	n/a	displays acknowledged whatever world\n
253.6605	0.135	507321	keystroke_d	d	n/a
253.916	0.105	507832	keystroke_i	i	n/a
254.066	0.135	508132	keystroke_s	s	n/a
254.276	0.1495	508552	keystroke_p	p	n/a
254.3655	0.106	508731	keystroke_l	l	n/a
254.501	0.1055	509002	keystroke_a	a	n/a
254.756	0.0745	509512	keystroke_y	y	n/a
254.8765	0.074	509753	keystroke_s	s	n/a
254.9355	0.1055	509871	keystroke_Key.space	Key.space	n/a
255.161	0.105	510322	keystroke_s	s	n/a
255.8205	0.1955	511641	keystroke_Key.backspace	Key.backspace	n/a
256.0005	0.0305	512001	keystroke_a	a	n/a
256.121	0.1045	512242	keystroke_c	c	n/a
256.2415	0.074	512483	keystroke_k	k	n/a
256.6605	0.075	513321	keystroke_n	n	n/a
256.9315	0.074	513863	keystroke_o	o	n/a
257.8915	0.09	515783	keystroke_w	w	n/a
258.461	0.1045	516922	keystroke_l	l	n/a
258.5955	0.09	517191	keystroke_e	e	n/a
258.8215	0.1045	517643	keystroke_d	d	n/a
259.0615	0.1645	518123	keystroke_g	g	n/a
259.256	0.105	518512	keystroke_e	e	n/a
259.346	0.1495	518692	keystroke_s	s	n/a
259.781	0.075	519562	keystroke_Key.backspace	Key.backspace	n/a
259.871	0.165	519742	keystroke_d	d	n/a
260.0505	0.1205	520101	keystroke_Key.space	Key.space	n/a
260.621	0.105	521242	keystroke_w	w	n/a
260.771	0.0905	521542	keystroke_h	h	n/a
260.891	0.075	521782	keystroke_a	a	n/a
261.116	0.089	522232	keystroke_t	t	n/a
261.221	0.1205	522442	keystroke_e	e	n/a
261.401	0.0905	522802	keystroke_v	v	n/a
261.476	0.135	522952	keystroke_e	e	n/a
261.581	0.1355	523162	keystroke_r	r	n/a
261.701	0.119	523402	keystroke_Key.space	Key.space	n/a
261.956	0.135	523912	keystroke_w	w	n/a
262.1805	0.075	524361	keystroke_o	o	n/a
262.3165	0.105	524633	keystroke_r	r	n/a
262.5415	0.0895	525083	keystroke_l	l	n/a
262.646	0.0905	525292	keystroke_d	d	n/a
262.886	0.105	525772	keystroke_Key.enter	Key.enter	n/a
262.998	8.5295	525996	prompt	n/a	checked invitations buzz trustees\n
263.6815	0.105	527363	keystroke_c	c	n/a
263.8155	0.0605	527631	keystroke_h	h	n/a
263.9055	0.09	527811	keystroke_e	e	n/a
264.1015	0.105	528203	keystroke_c	c	n/a
264.1905	0.075	528381	keystroke_k	k	n/a
264.3405	0.0755	528681	keystroke_e	e	n/a
264.5655	0.105	529131	keystroke_d	d	n/a
264.6555	0.12	529311	keystroke_Key.space	Key.space	n/a
264.9255	0.15	529851	keystroke_i	i	n/a
265.0465	0.1045	530093	keystroke_n	n	n/a
265.256	0.12	530512	keystroke_v	v	n/a
265.556	0.075	531112	keystroke_d	d	n/a
266.0815	0.0445	532163	keystroke_Key.backspace	Key.backspace	n/a
266.2915	0.074	532583	keystroke_i	i	n/a
266.3355	0.121	532671	keystroke_d	d	n/a
266.9505	0.075	533901	keystroke_Key.backspace	Key.backspace	n/a
267.2655	0.105	534531	keystroke_t	t	n/a
267.4005	0.165	534801	keystroke_a	a	n/a
267.581	0.0895	535162	keystroke_t	t	n/a
267.7455	0.075	535491	keystroke_i	i	n/a
267.9855	0.12	535971	keystroke_o	o	n/a
268.091	0.09	536182	keystroke_n	n	n/a
268.1955	0.1205	536391	keystroke_s	s	n/a
268.2855	0.1205	536571	keystroke_Key.space	Key.space	n/a
268.646	0.0745	537292	keystroke_b	b	n/a
268.811	0.09	537622	keystroke_u	u	n/a
269.0065	0.105	538013	keystroke_z	z	n/a
269.2155	0.0605	538431	keystroke_z	z	n/a
269.411	0.135	538822	keystroke_Key.space	Key.space	n/a
269.8	0.1215	539600	keystroke_t	t	n/a
269.9065	0.1185	539813	keystroke_r	r	n/a
270.115	0.091	540230	keystroke_u	u	n/a
270.251	0.105	540502	keystroke_s	s	n/a
270.7015	0.06	541403	keystroke_t	t	n/a
270.941	0.045	541882	keystroke_e	e	n/a
271.076	0.105	542152	keystroke_e	e	n/a
271.271	0.15	542542	keystroke_s	s	n/a
271.436	0.09	542872	keystroke_Key.enter	Key.enter	n/a
271.532	6.5205	543064	prompt	n/a	tube wikipedia more bargain\n
272.1255	0.105	544251	keystroke_t	t	n/a
272.4705	0.0605	544941	keystroke_u	u	n/a
272.666	0.09	545332	keystroke_b	b	n/a
272.786	0.1345	545572	keystroke_e	e	n/a
272.9055	0.1355	545811	keystroke_Key.space	Key.space	n/a
273.3115	0.105	546623	keystroke_w	w	n/a
273.4305	0.075	546861	keystroke_i	i	n/a
273.6105	0.105	547221	keystroke_k	k	n/a
273.8055	0.06	547611	keystroke_i	i	n/a
274.031	0.0905	548062	keystroke_p	p	n/a
274.2105	0.075	548421	keystroke_e	e	n/a
274.4205	0.135	548841	keystroke_d	d	n/a
274.5705	0.091	549141	keystroke_i	i	n/a
274.9455	0.0305	549891	keystroke_Key.space	Key.space	n/a
275.261	0.09	550522	keystroke_Key.backspace	Key.backspace	n/a
275.381	0.15	550762	keystroke_a	a	n/a
275.5	0.121	551000	keystroke_Key.space	Key.space	n/a
275.741	0.06	551482	keystroke_m	m	n/a
275.8765	0.0895	551753	keystroke_o	o	n/a
275.981	0.12	551962	keystroke_r	r	n/a
276.086	0.1055	552172	keystroke_e	e	n/a
276.1755	0.12	552351	keystroke_Key.space	Key.space	n/a
276.461	0.0745	552922	keystroke_b	b	n/a
276.6555	0.12	553311	keystroke_a	a	n/a
277.0915	0.1045	554183	keystroke_r	r	n/a
277.391	0.1055	554782	keystroke_g	g	n/a
277.5265	0.119	555053	keystroke_a	a	n/a
277.6605	0.12	555321	keystroke_i	i	n/a
277.7665	0.089	555533	keystroke_n	n	n/a
277.9605	0.0905	555921	keystroke_Key.enter	Key.enter	n/a
278.057	8.8905	556114	prompt	n/a	explore retain simpson lance\n
278.6655	0.075	557331	keystroke_e	e	n/a
278.9065	0.105	557813	keystroke_x	x	n/a
279.04	0.121	558080	keystroke_p	p	n/a
279.13	0.0755	558260	keystroke_l	l	n/a
279.34	0.061	558680	keystroke_o	o	n/a
279.415	0.105	558830	keystroke_r	r	n/a
279.505	0.1365	559010	keystroke_e	e	n/a
279.61	0.09	559220	keystroke_Key.space	Key.space	n/a
280.076	0.09	560152	keystroke_t	t	n/a
280.166	0.135	560332	keystroke_r	r	n/a
280.7805	0.045	561561	keystroke_Key.backspace	Key.backspace	n/a
280.9005	0.0905	561801	keystroke_Key.backspace	Key.backspace	n/a
281.0055	0.1355	562011	keystroke_r	r	n/a
281.1255	0.106	562251	keystroke_e	e	n/a
281.351	0.075	562702	keystroke_t	t	n/a
281.56	0.1665	563120	keystroke_a	a	n/a
281.8615	0.1495	563723	keystroke_i	i	n/a
281.981	0.1055	563962	keystroke_n	n	n/a
282.146	0.12	564292	keystroke_Key.space	Key.space	n/a
282.7155	0.1055	565431	keystroke_s	s	n/a
282.866	0.1355	565732	keystroke_i	i	n/a
282.971	0.105	565942	keystroke_m	m	n/a
283.226	0.0745	566452	keystroke_p	p	n/a
283.451	0.0745	566902	keystroke_o	o	n/a
283.6305	0.09	567261	keystroke_n	n	n/a
283.7955	0.105	567591	keystroke_Key.space	Key.space	n/a
284.5155	0.09	569031	keystroke_Key.backspace	Key.backspace	n/a
284.636	0.06	569272	keystroke_Key.backspace	Key.backspace	n/a
284.771	0.075	569542	keystroke_Key.backspace	Key.backspace	n/a
284.996	0.0755	569992	keystroke_s	s	n/a
285.2065	0.15	570413	keystroke_o	o	n/a
285.3255	0.105	570651	keystroke_n	n	n/a
285.4455	0.105	570891	keystroke_Key.space	Key.space	n/a
285.656	0.0745	571312	keystroke_l	l	n/a
285.746	0.1045	571492	keystroke_a	a	n/a
285.941	0.0605	571882	keystroke_n	n	n/a
286.0905	0.12	572181	keystroke_c	c	n/a
286.346	0.0895	572692	keystroke_e	e	n/a
286.886	0.06	573772	keystroke_Key.enter	Key.enter	n/a
286.952	13.8715	573904	prompt	n/a	notifications so're metallica words\n
287.6815	0.044	575363	keystroke_n	n	n/a
287.8455	0.075	575691	keystroke_o	o	n/a
287.966	0.0745	575932	keystroke_t	t	n/a
288.1005	0.0755	576201	keystroke_i	i	n/a
288.7305	0.09	577461	keystroke_v	v	n/a
289.166	0.075	578332	keystroke_Key.backspace	Key.backspace	n/a
289.286	0.105	578572	keystroke_f	f	n/a
289.4665	0.0445	578933	keystroke_o	o	n/a
289.8855	0.045	579771	keystroke_Key.backspace	Key.backspace	n/a
290.1115	0.09	580223	keystroke_i	i	n/a
290.3515	0.089	580703	keystroke_c	c	n/a
290.6505	0.12	581301	keystroke_a	a	n/a
290.9365	0.09	581873	keystroke_t	t	n/a
291.0565	0.0595	582113	keystroke_i	i	n/a
291.2365	0.1345	582473	keystroke_o	o	n/a
291.356	0.0745	582712	keystroke_n	n	n/a
291.4465	0.119	582893	keystroke_s	s	n/a
291.5505	0.105	583101	keystroke_Key.space	Key.space	n/a
292.0755	0.135	584151	keystroke_s	s	n/a
292.2265	0.105	584453	keystroke_o	o	n/a
292.721	0.075	585442	keystroke_r	r	n/a
293.1555	0.09	586311	keystroke_Key.backspace	Key.backspace	n/a
293.4405	0.09	586881	keystroke_;	;	n/a
293.5905	0.1355	587181	keystroke_r	r	n/a
294.041	0.059	588082	keystroke_Key.backspace	Key.backspace	n/a
294.1755	0.076	588351	keystroke_Key.backspace	Key.backspace	n/a
294.4755	0.1055	588951	keystroke_'	'	n/a
294.761	0.15	589522	keystroke_r	r	n/a
294.9255	0.165	589851	keystroke_e	e	n/a
295.0915	0.1335	590183	keystroke_Key.space	Key.space	n/a
296.246	0.09	592492	keystroke_m	m	n/a
296.351	0.0905	592702	keystroke_e	e	n/a
296.531	0.0745	593062	keystroke_t	t	n/a
296.7555	0.12	593511	keystroke_a	a	n/a
296.8905	0.061	593781	keystroke_l	l	n/a
297.6565	0.0895	595313	keystroke_l	l	n/a
297.8805	0.091	595761	keystroke_i	i	n/a
298.196	0.135	596392	keystroke_x	x	n/a
298.526	0.1045	597052	keystroke_a	a	n/a
298.8105	0.075	597621	keystroke_Key.backspace	Key.backspace	n/a
298.931	0.105	597862	keystroke_Key.backspace	Key.backspace	n/a
299.0515	0.119	598103	keystroke_c	c	n/a
299.201	0.15	598402	keystroke_a	a	n/a
299.3655	0.1055	598731	keystroke_Key.space	Key.space	n/a
299.726	0.135	599452	keystroke_w	w	n/a
299.876	0.1045	599752	keystroke_o	o	n/a
300.0255	0.0755	600051	keystroke_r	r	n/a
300.3105	0.21	600621	keystroke_d	d	n/a
300.4905	0.12	600981	keystroke_s	s	n/a
300.6855	0.135	601371	keystroke_Key.enter	Key.enter	n/a
300.8325	8.1795	601665	prompt	n/a	exceptions euro narrow consequently\n
301.601	0.0895	603202	keystroke_e	e	n/a
301.8415	0.1035	603683	keystroke_x	x	n/a
302.0965	0.075	604193	keystroke_c	c	n/a
302.3205	0.09	604641	keystroke_e	e	n/a
302.4705	0.1055	604941	keystroke_p	p	n/a
302.741	0.0895	605482	keystroke_t	t	n/a
302.8755	0.061	605751	keystroke_i	i	n/a
303.086	0.105	606172	keystroke_o	o	n/a
303.2055	0.09	606411	keystroke_n	n	n/a
303.311	0.135	606622	keystroke_s	s	n/a
303.401	0.12	606802	keystroke_Key.space	Key.space	n/a
303.896	0.105	607792	keystroke_e	e	n/a
304.031	0.09	608062	keystroke_u	u	n/a
304.316	0.1045	608632	keystroke_r	r	n/a
304.4805	0.0905	608961	keystroke_o	o	n/a
304.646	0.1045	609292	keystroke_Key.space	Key.space	n/a
305.2615	0.074	610523	keystroke_n	n	n/a
305.3655	0.0755	610731	keystroke_a	a	n/a
305.5455	0.06	611091	keystroke_r	r	n/a
305.6505	0.105	611301	keystroke_r	r	n/a
305.846	0.0745	611692	keystroke_o	o	n/a
305.936	0.1045	611872	keystroke_w	w	n/a
306.0255	0.1055	612051	keystroke_Key.space	Key.space	n/a
306.326	0.105	612652	keystroke_c	c	n/a
306.461	0.105	612922	keystroke_o	o	n/a
306.551	0.09	613102	keystroke_n	n	n/a
306.686	0.105	613372	keystroke_s	s	n/a
306.956	0.09	613912	keystroke_e	e	n/a
307.541	0.105	615082	keystroke_q	q	n/a
307.8565	0.1045	615713	keystroke_u	u	n/a
308.0815	0.1045	616163	keystroke_e	e	n/a
308.201	0.075	616402	keystroke_n	n	n/a
308.381	0.045	616762	keystroke_t	t	n/a
308.531	0.09	617062	keystroke_l	l	n/a
308.696	0.075	617392	keystroke_y	y	n/a
308.891	0.12	617782	keystroke_Key.enter	Key.enter	n/a
309.016	6.4915	618032	prompt	n/a	semi sterling usps motivation\n
309.7765	0.1045	619553	keystroke_s	s	n/a
309.971	0.1045	619942	keystroke_e	e	n/a
310.0315	0.089	620063	keystroke_m	m	n/a
310.226	0.06	620452	keystroke_i	i	n/a
310.301	0.12	620602	keystroke_Key.space	Key.space	n/a
310.511	0.06	621022	keystroke_s	s	n/a
310.691	0.075	621382	keystroke_t	t	n/a
310.811	0.15	621622	keystroke_e	e	n/a
310.916	0.105	621832	keystroke_r	r	n/a
311.0515	0.0895	622103	keystroke_l	l	n/a
311.336	0.09	622672	keystroke_i	i	n/a
311.411	0.09	622822	keystroke_n	n	n/a
311.486	0.1205	622972	keystroke_g	g	n/a
311.576	0.134	623152	keystroke_Key.space	Key.space	n/a
312.2805	0.0905	624561	keystroke_u	u	n/a
312.536	0.1055	625072	keystroke_s	s	n/a
312.7615	0.09	625523	keystroke_p	p	n/a
313.1355	0.0155	626271	keystroke_s	s	n/a
313.195	0.12	626390	keystroke_Key.space	Key.space	n/a
313.616	0.0755	627232	keystroke_m	m	n/a
313.8105	0.0905	627621	keystroke_o	o	n/a
313.9305	0.075	627861	keystroke_t	t	n/a
314.081	0.075	628162	keystroke_i	i	n/a
314.3805	0.1055	628761	keystroke_v	v	n/a
314.516	0.12	629032	keystroke_a	a	n/a
314.7855	0.076	629571	keystroke_t	t	n/a
314.8755	0.06	629751	keystroke_i	i	n/a
315.071	0.135	630142	keystroke_o	o	n/a
315.191	0.0895	630382	keystroke_n	n	n/a
315.4005	0.1055	630801	keystroke_Key.enter	Key.enter	n/a
315.512	17.0355	631024	prompt	n/a	submission slideshow liechtenstein terror\n
316.3765	0.045	632753	keystroke_u	u	n/a
316.766	0.075	633532	keystroke_Key.backspace	Key.backspace	n/a
316.9	0.105	633800	keystroke_s	s	n/a
317.0665	0.1045	634133	keystroke_u	u	n/a
317.666	0.12	635332	keystroke_b	b	n/a
317.9055	0.091	635811	keystroke_m	m	n/a
318.191	0.06	636382	keystroke_s	s	n/a
318.536	0.0895	637072	keystroke_Key.backspace	Key.backspace	n/a
318.7755	0.09	637551	keystroke_i	i	n/a
318.8805	0.0605	637761	keystroke_s	s	n/a
319.0315	0.075	638063	keystroke_s	s	n/a
319.1065	0.0745	638213	keystroke_i	i	n/a
319.3005	0.1355	638601	keystroke_o	o	n/a
319.421	0.06	638842	keystroke_n	n	n/a
319.511	0.135	639022	keystroke_Key.space	Key.space	n/a
319.751	0.12	639502	keystroke_s	s	n/a
319.8565	0.0745	639713	keystroke_l	l	n/a
320.0515	0.0745	640103	keystroke_i	i	n/a
320.141	0.12	640282	keystroke_d	d	n/a
320.3965	0.0895	640793	keystroke_e	e	n/a
320.666	0.105	641332	keystroke_s	s	n/a
320.801	0.09	641602	keystroke_h	h	n/a
320.9515	0.105	641903	keystroke_o	o	n/a
321.0705	0.1205	642141	keystroke_e	e	n/a
321.7605	0.09	643521	keystroke_Key.backspace	Key.backspace	n/a
321.881	0.1045	643762	keystroke_w	w	n/a
322.0905	0.0905	644181	keystroke_Key.space	Key.space	n/a
322.511	0.0595	645022	keystroke_s	s	n/a
322.8405	0.06	645681	keystroke_Key.backspace	Key.backspace	n/a
323.1115	0.0895	646223	keystroke_l	l	n/a
323.5455	0.0755	647091	keystroke_i	i	n/a
323.6665	0.104	647333	keystroke_e	e	n/a
324.0705	0.1045	648141	keystroke_c	c	n/a
324.236	0.1045	648472	keystroke_h	h	n/a
325.075	0.121	650150	keystroke_t	t	n/a
325.286	0.105	650572	keystroke_e	e	n/a
325.436	0.105	650872	keystroke_n	n	n/a
325.721	0.105	651442	keystroke_s	s	n/a
325.991	0.1045	651982	keystroke_t	t	n/a
326.2315	0.0895	652463	keystroke_r	r	n/a
326.396	0.1345	652792	keystroke_a	a	n/a
326.5765	0.1345	653153	keystroke_i	i	n/a
326.6815	0.1045	653363	keystroke_n	n	n/a
326.801	0.104	653602	keystroke_Key.space	Key.space	n/a
327.551	0.0595	655102	keystroke_Key.backspace	Key.backspace	n/a
327.7005	0.06	655401	keystroke_Key.backspace	Key.backspace	n/a
327.8355	0.06	655671	keystroke_Key.backspace	Key.backspace	n/a
327.956	0.0745	655912	keystroke_Key.backspace	Key.backspace	n/a
328.1355	0.045	656271	keystroke_Key.backspace	Key.backspace	n/a
328.7355	0.1055	657471	keystroke_e	e	n/a
328.8705	0.1355	657741	keystroke_i	i	n/a
328.9765	0.089	657953	keystroke_n	n	n/a
329.126	0.105	658252	keystroke_Key.space	Key.space	n/a
329.4405	0.09	658881	keystroke_t	t	n/a
329.6515	0.074	659303	keystroke_r	r	n/a
330.1305	0.0755	660261	keystroke_Key.backspace	Key.backspace	n/a
330.2355	0.075	660471	keystroke_e	e	n/a
330.4005	0.15	660801	keystroke_e	e	n/a
330.566	0.0895	661132	keystroke_r	r	n/a
330.7305	0.0905	661461	keystroke_r	r	n/a
331.046	0.0745	662092	keystroke_Key.backspace	Key.backspace	n/a
331.196	0.0595	662392	keystroke_Key.backspace	Key.backspace	n/a
331.3005	0.075	662601	keystroke_Key.backspace	Key.backspace	n/a
331.421	0.09	662842	keystroke_r	r	n/a
331.5855	0.09	663171	keystroke_r	r	n/a
332.141	0.0895	664282	keystroke_o	o	n/a
332.26	0.105	664520	keystroke_r	r	n/a
332.441	0.105	664882	keystroke_Key.enter	Key.enter	n/a
332.552	26.7855	665104	prompt	n/a	screens simultaneously supplemental somewhat\n
333.356	0.0895	666712	keystroke_s	s	n/a
333.5365	0.12	667073	keystroke_c	c	n/a
333.7305	0.0755	667461	keystroke_n	n	n/a
333.9105	0.0905	667821	keystroke_r	r	n/a
334.346	0.03	668692	keystroke_Key.backspace	Key.backspace	n/a
334.4505	0.0755	668901	keystroke_Key.backspace	Key.backspace	n/a
334.5265	0.1045	669053	keystroke_r	r	n/a
334.7215	0.029	669443	keystroke_e	e	n/a
334.841	0.0745	669682	keystroke_e	e	n/a
335.0055	0.0755	670011	keystroke_n	n	n/a
335.1255	0.135	670251	keystroke_s	s	n/a
335.2615	0.119	670523	keystroke_Key.space	Key.space	n/a
335.6665	0.119	671333	keystroke_s	s	n/a
335.9215	0.074	671843	keystroke_i	i	n/a
336.146	0.0905	672292	keystroke_l	l	n/a
337.061	0.075	674122	keystroke_Key.backspace	Key.backspace	n/a
337.316	0.075	674632	keystroke_m	m	n/a
337.526	0.0755	675052	keystroke_i	i	n/a
337.69	0.106	675380	keystroke_l	l	n/a
337.9305	0.0905	675861	keystroke_t	t	n/a
338.051	0.135	676102	keystroke_a	a	n/a
338.156	0.0895	676312	keystroke_n	n	n/a
338.336	0.105	676672	keystroke_e	e	n/a
338.6055	0.0605	677211	keystroke_i	i	n/a
338.816	0.0595	677632	keystroke_o	o	n/a
339.0405	0.03	678081	keystroke_u	u	n/a
339.116	0.09	678232	keystroke_s	s	n/a
339.2505	0.09	678501	keystroke_l	l	n/a
339.6405	0.075	679281	keystroke_Key.space	Key.space	n/a
339.986	0.1045	679972	keystroke_Key.backspace	Key.backspace	n/a
340.1365	0.1195	680273	keystroke_y	y	n/a
340.226	0.119	680452	keystroke_Key.space	Key.space	n/a
340.391	0.135	680782	keystroke_s	s	n/a
340.5115	0.0745	681023	keystroke_u	u	n/a
340.976	0.0595	681952	keystroke_Key.backspace	Key.backspace	n/a
341.2155	0.045	682431	keystroke_Key.backspace	Key.backspace	n/a
341.3655	0.0605	682731	keystroke_Key.backspace	Key.backspace	n/a
341.531	0.0445	683062	keystroke_Key.backspace	Key.backspace	n/a
341.666	0.075	683332	keystroke_Key.backspace	Key.backspace	n/a
341.891	0.0745	683782	keystroke_Key.backspace	Key.backspace	n/a
342.0705	0.0755	684141	keystroke_Key.backspace	Key.backspace	n/a
342.2355	0.075	684471	keystroke_Key.backspace	Key.backspace	n/a
342.3855	0.075	684771	keystroke_Key.backspace	Key.backspace	n/a
342.7305	0.09	685461	keystroke_l	l	n/a
343.1655	0.0755	686331	keystroke_Key.backspace	Key.backspace	n/a
345.176	0.075	690352	keystroke_o	o	n/a
345.401	0.075	690802	keystroke_u	u	n/a
345.5055	0.1195	691011	keystroke_s	s	n/a
345.686	0.0745	691372	keystroke_l	l	n/a
345.9255	0.09	691851	keystroke_y	y	n/a
346.0605	0.105	692121	keystroke_Key.space	Key.space	n/a
347.9205	0.0605	695841	keystroke_Key.backspace	Key.backspace	n/a
348.101	0.015	696202	keystroke_Key.backspace	Key.backspace	n/a
348.205	0.06	696410	keystroke_Key.backspace	Key.backspace	n/a
348.356	0.0445	696712	keystroke_Key.backspace	Key.backspace	n/a
348.4905	0.06	696981	keystroke_Key.backspace	Key.backspace	n/a
348.881	0.075	697762	keystroke_Key.backspace	Key.backspace	n/a
349.27	0.09	698540	keystroke_Key.backspace	Key.backspace	n/a
350.5605	0.105	701121	keystroke_u	u	n/a
350.816	0.105	701632	keystroke_l	l	n/a
351.191	0.075	702382	keystroke_t	t	n/a
351.341	0.15	702682	keystroke_a	a	n/a
351.476	0.075	702952	keystroke_n	n	n/a
351.686	0.1045	703372	keystroke_e	e	n/a
351.926	0.075	703852	keystroke_i	i	n/a
352.226	0.075	704452	keystroke_o	o	n/a
352.5555	0.06	705111	keystroke_Key.backspace	Key.backspace	n/a
352.6755	0.0605	705351	keystroke_Key.backspace	Key.backspace	n/a
352.886	0.09	705772	keystroke_o	o	n/a
353.0955	0.06	706191	keystroke_u	u	n/a
353.2455	0.0905	706491	keystroke_s	s	n/a
353.3805	0.1055	706761	keystroke_l	l	n/a
353.6215	0.1195	707243	keystroke_y	y	n/a
353.755	0.106	707510	keystroke_Key.space	Key.space	n/a
354.6415	0.1195	709283	keystroke_s	s	n/a
354.776	0.075	709552	keystroke_u	u	n/a
355.061	0.0605	710122	keystroke_p	p	n/a
355.211	0.0595	710422	keystroke_p	p	n/a
355.3915	0.0895	710783	keystroke_l	l	n/a
355.541	0.075	711082	keystroke_e	e	n/a
355.6615	0.0745	711323	keystroke_m	m	n/a
355.781	0.075	711562	keystroke_e	e	n/a
355.901	0.06	711802	keystroke_n	n	n/a
356.231	0.105	712462	keystroke_a	a	n/a
356.6505	0.015	713301	keystroke_Key.backspace	Key.backspace	n/a
356.681	0.105	713362	keystroke_t	t	n/a
357.0865	0.134	714173	keystroke_a	a	n/a
357.25	0.091	714500	keystroke_l	l	n/a
357.415	0.106	714830	keystroke_Key.space	Key.space	n/a
358.0005	0.105	716001	keystroke_s	s	n/a
358.3005	0.09	716601	keystroke_o	o	n/a
358.3755	0.0905	716751	keystroke_m	m	n/a
358.4815	0.089	716963	keystroke_e	e	n/a
358.6755	0.105	717351	keystroke_w	w	n/a
358.826	0.0595	717652	keystroke_h	h	n/a
358.901	0.105	717802	keystroke_a	a	n/a
359.1105	0.09	718221	keystroke_t	t	n/a
359.2305	0.1055	718461	keystroke_Key.enter	Key.enter	n/a
359.3405	16.092	718681	prompt	n/a	population celebration intersection urban\n
360.0715	0.074	720143	keystroke_p	p	n/a
360.2505	0.0605	720501	keystroke_o	o	n/a
360.431	0.06	720862	keystroke_p	p	n/a
360.655	0.076	721310	keystroke_u	u	n/a
360.881	0.1205	721762	keystroke_l	l	n/a
361.016	0.06	722032	keystroke_a	a	n/a
361.225	0.076	722450	keystroke_t	t	n/a
361.331	0.075	722662	keystroke_i	i	n/a
361.556	0.135	723112	keystroke_o	o	n/a
361.6465	0.1045	723293	keystroke_n	n	n/a
361.766	0.09	723532	keystroke_Key.space	Key.space	n/a
361.991	0.09	723982	keystroke_c	c	n/a
362.186	0.06	724372	keystroke_e	e	n/a
362.276	0.09	724552	keystroke_l	l	n/a
362.351	0.1055	724702	keystroke_e	e	n/a
362.636	0.06	725272	keystroke_b	b	n/a
362.711	0.135	725422	keystroke_r	r	n/a
362.831	0.12	725662	keystroke_a	a	n/a
363.0415	0.0895	726083	keystroke_t	t	n/a
363.386	0.09	726772	keystroke_i	i	n/a
363.6115	0.1195	727223	keystroke_o	o	n/a
363.686	0.12	727372	keystroke_n	n	n/a
363.821	0.105	727642	keystroke_Key.space	Key.space	n/a
364.061	0.119	728122	keystroke_i	i	n/a
364.136	0.1045	728272	keystroke_n	n	n/a
364.735	0.1655	729470	keystroke_e	e	n/a
364.8855	0.1355	729771	keystroke_r	r	n/a
365.5765	0.105	731153	keystroke_s	s	n/a
365.756	0.09	731512	keystroke_e	e	n/a
366.311	0.1045	732622	keystroke_c	c	n/a
366.686	0.1045	733372	keystroke_t	t	n/a
366.8055	0.0755	733611	keystroke_i	i	n/a
367.001	0.1045	734002	keystroke_o	o	n/a
367.0905	0.0755	734181	keystroke_n	n	n/a
367.1805	0.105	734361	keystroke_Key.space	Key.space	n/a
367.4215	0.0745	734843	keystroke_u	u	n/a
367.5555	0.12	735111	keystroke_r	r	n/a
367.736	0.0745	735472	keystroke_b	b	n/a
367.8705	0.1205	735741	keystroke_a	a	n/a
368.006	0.075	736012	keystroke_n	n	n/a
368.531	0.06	737062	keystroke_Key.backspace	Key.backspace	n/a
368.696	0.075	737392	keystroke_Key.backspace	Key.backspace	n/a
368.861	0.045	737722	keystroke_Key.backspace	Key.backspace	n/a
368.996	0.045	737992	keystroke_Key.backspace	Key.backspace	n/a
369.131	0.06	738262	keystroke_Key.backspace	Key.backspace	n/a
369.266	0.06	738532	keystroke_Key.backspace	Key.backspace	n/a
369.416	0.06	738832	keystroke_Key.backspace	Key.backspace	n/a
369.566	0.045	739132	keystroke_Key.backspace	Key.backspace	n/a
369.896	0.045	739792	keystroke_Key.backspace	Key.backspace	n/a
370.046	0.06	740092	keystroke_Key.backspace	Key.backspace	n/a
370.2255	0.045	740451	keystroke_Key.backspace	Key.backspace	n/a
370.3755	0.075	740751	keystroke_Key.backspace	Key.backspace	n/a
370.526	0.075	741052	keystroke_Key.backspace	Key.backspace	n/a
370.7055	0.06	741411	keystroke_Key.backspace	Key.backspace	n/a
371.0355	0.06	742071	keystroke_Key.backspace	Key.backspace	n/a
371.3805	0.076	742761	keystroke_t	t	n/a
371.531	0.135	743062	keystroke_e	e	n/a
371.6365	0.1195	743273	keystroke_r	r	n/a
371.951	0.09	743902	keystroke_s	s	n/a
372.116	0.105	744232	keystroke_e	e	n/a
372.3705	0.0905	744741	keystroke_c	c	n/a
372.6405	0.075	745281	keystroke_t	t	n/a
372.746	0.0595	745492	keystroke_i	i	n/a
373.0155	0.09	746031	keystroke_n	n	n/a
373.391	0.075	746782	keystroke_Key.backspace	Key.backspace	n/a
373.661	0.15	747322	keystroke_o	o	n/a
373.766	0.09	747532	keystroke_n	n	n/a
373.886	0.12	747772	keystroke_Key.space	Key.space	n/a
374.111	0.06	748222	keystroke_u	u	n/a
374.32	0.12	748640	keystroke_r	r	n/a
374.7115	0.0885	749423	keystroke_b	b	n/a
374.936	0.12	749872	keystroke_a	a	n/a
375.071	0.09	750142	keystroke_n	n	n/a
375.3555	0.075	750711	keystroke_Key.enter	Key.enter	n/a
375.4355	7.1675	750871	prompt	n/a	invitations tribe take yukon\n
376.166	0.135	752332	keystroke_n	n	n/a
376.93	0.076	753860	keystroke_Key.backspace	Key.backspace	n/a
377.2155	0.1355	754431	keystroke_i	i	n/a
377.3055	0.1055	754611	keystroke_n	n	n/a
377.4555	0.1045	754911	keystroke_v	v	n/a
377.605	0.091	755210	keystroke_i	i	n/a
378.116	0.015	756232	keystroke_t	t	n/a
378.1455	0.1205	756291	keystroke_a	a	n/a
378.251	0.105	756502	keystroke_t	t	n/a
378.3715	0.044	756743	keystroke_i	i	n/a
378.5205	0.121	757041	keystroke_o	o	n/a
378.6105	0.106	757221	keystroke_n	n	n/a
378.7015	0.12	757403	keystroke_s	s	n/a
378.8055	0.12	757611	keystroke_Key.space	Key.space	n/a
379.016	0.1205	758032	keystroke_t	t	n/a
379.3315	0.1645	758663	keystroke_r	r	n/a
379.571	0.09	759142	keystroke_i	i	n/a
379.766	0.0905	759532	keystroke_b	b	n/a
379.9015	0.1195	759803	keystroke_e	e	n/a
379.99	0.136	759980	keystroke_Key.space	Key.space	n/a
380.171	0.105	760342	keystroke_t	t	n/a
380.291	0.119	760582	keystroke_a	a	n/a
380.395	0.076	760790	keystroke_k	k	n/a
380.486	0.12	760972	keystroke_e	e	n/a
380.575	0.12	761150	keystroke_Key.space	Key.space	n/a
380.891	0.06	761782	keystroke_y	y	n/a
381.071	0.075	762142	keystroke_u	u	n/a
381.5365	0.0895	763073	keystroke_k	k	n/a
381.776	0.09	763552	keystroke_o	o	n/a
381.986	0.075	763972	keystroke_n	n	n/a
382.5105	0.09	765021	keystroke_Key.enter	Key.enter	n/a
382.609	9.9235	765218	prompt	n/a	lopez puppy alpha dictionary\n
383.261	0.105	766522	keystroke_l	l	n/a
383.501	0.045	767002	keystroke_i	i	n/a
383.9215	0.0595	767843	keystroke_Key.backspace	Key.backspace	n/a
384.2505	0.075	768501	keystroke_o	o	n/a
384.5055	0.09	769011	keystroke_p	p	n/a
384.671	0.09	769342	keystroke_e	e	n/a
384.9255	0.105	769851	keystroke_x	x	n/a
385.346	0.105	770692	keystroke_Key.backspace	Key.backspace	n/a
385.466	0.075	770932	keystroke_z	z	n/a
385.646	0.12	771292	keystroke_Key.space	Key.space	n/a
385.826	0.09	771652	keystroke_p	p	n/a
386.066	0.0755	772132	keystroke_u	u	n/a
386.426	0.1045	772852	keystroke_p	p	n/a
386.5905	0.0905	773181	keystroke_p	p	n/a
386.9355	0.075	773871	keystroke_y	y	n/a
387.0405	0.1205	774081	keystroke_Key.space	Key.space	n/a
387.356	0.165	774712	keystroke_a	a	n/a
387.476	0.0745	774952	keystroke_l	l	n/a
387.6855	0.09	775371	keystroke_p	p	n/a
388.1965	0.0585	776393	keystroke_h	h	n/a
388.345	0.136	776690	keystroke_a	a	n/a
388.45	0.12	776900	keystroke_Key.space	Key.space	n/a
388.75	0.15	777500	keystroke_d	d	n/a
388.916	0.089	777832	keystroke_i	i	n/a
389.3205	0.1055	778641	keystroke_c	c	n/a
389.606	0.075	779212	keystroke_t	t	n/a
389.7855	0.076	779571	keystroke_u	u	n/a
390.0715	0.1045	780143	keystroke_o	o	n/a
390.191	0.1195	780382	keystroke_n	n	n/a
390.6405	0.0755	781281	keystroke_Key.backspace	Key.backspace	n/a
390.806	0.06	781612	keystroke_Key.backspace	Key.backspace	n/a
390.925	0.076	781850	keystroke_Key.backspace	Key.backspace	n/a
391.302	0.089	782604	keystroke_i	i	n/a
391.511	0.165	783022	keystroke_o	o	n/a
391.661	0.12	783322	keystroke_n	n	n/a
391.811	0.12	783622	keystroke_a	a	n/a
392.006	0.1045	784012	keystroke_r	r	n/a
392.1555	0.076	784311	keystroke_y	y	n/a
392.4555	0.075	784911	keystroke_Key.enter	Key.enter	n/a
392.537	13.4505	785074	prompt	n/a	purchase gasoline controversy controlled\n
393.8505	0.09	787701	keystroke_p	p	n/a
394.106	0.0755	788212	keystroke_u	u	n/a
394.286	0.0905	788572	keystroke_r	r	n/a
394.5255	0.1055	789051	keystroke_a	a	n/a
394.9455	0.075	789891	keystroke_Key.backspace	Key.backspace	n/a
395.0655	0.12	790131	keystroke_c	c	n/a
395.26	0.0755	790520	keystroke_h	h	n/a
395.3805	0.0905	790761	keystroke_a	a	n/a
395.6205	0.135	791241	keystroke_s	s	n/a
395.7705	0.1205	791541	keystroke_e	e	n/a
395.8455	0.12	791691	keystroke_Key.space	Key.space	n/a
396.1915	0.1195	792383	keystroke_g	g	n/a
396.2955	0.1205	792591	keystroke_a	a	n/a
396.5215	0.1195	793043	keystroke_s	s	n/a
396.8355	0.0755	793671	keystroke_o	o	n/a
397.061	0.0895	794122	keystroke_l	l	n/a
397.331	0.135	794662	keystroke_i	i	n/a
397.436	0.0895	794872	keystroke_n	n	n/a
397.5405	0.1055	795081	keystroke_e	e	n/a
397.6	0.106	795200	keystroke_Key.space	Key.space	n/a
397.8405	0.09	795681	keystroke_c	c	n/a
397.975	0.1505	795950	keystroke_o	o	n/a
398.1405	0.0905	796281	keystroke_n	n	n/a
398.291	0.1195	796582	keystroke_t	t	n/a
398.4255	0.1355	796851	keystroke_r	r	n/a
398.591	0.074	797182	keystroke_o	o	n/a
398.756	0.09	797512	keystroke_v	v	n/a
398.9805	0.1195	797961	keystroke_e	e	n/a
399.071	0.12	798142	keystroke_r	r	n/a
399.7165	0.0735	799433	keystroke_y	y	n/a
399.865	0.1055	799730	keystroke_Key.space	Key.space	n/a
400.2105	0.0755	800421	keystroke_c	c	n/a
400.3905	0.075	800781	keystroke_n	n	n/a
400.6155	0.12	801231	keystroke_t	t	n/a
401.021	0.06	802042	keystroke_Key.backspace	Key.backspace	n/a
401.17	0.0605	802340	keystroke_Key.backspace	Key.backspace	n/a
401.3205	0.06	802641	keystroke_Key.backspace	Key.backspace	n/a
401.486	0.0445	802972	keystroke_Key.backspace	Key.backspace	n/a
401.636	0.0445	803272	keystroke_Key.backspace	Key.backspace	n/a
401.771	0.0745	803542	keystroke_Key.backspace	Key.backspace	n/a
402.22	0.06	804440	keystroke_Key.backspace	Key.backspace	n/a
403.765	0.1205	807530	keystroke_e	e	n/a
403.855	0.105	807710	keystroke_r	r	n/a
404.17	0.0155	808340	keystroke_s	s	n/a
404.245	0.0755	808490	keystroke_y	y	n/a
404.3805	0.0895	808761	keystroke_Key.space	Key.space	n/a
404.636	0.105	809272	keystroke_c	c	n/a
404.741	0.12	809482	keystroke_o	o	n/a
404.8155	0.105	809631	keystroke_n	n	n/a
404.98	0.105	809960	keystroke_t	t	n/a
405.101	0.104	810202	keystroke_r	r	n/a
405.221	0.03	810442	keystroke_o	o	n/a
405.37	0.061	810740	keystroke_l	l	n/a
405.4915	0.089	810983	keystroke_l	l	n/a
405.596	0.044	811192	keystroke_e	e	n/a
405.761	0.089	811522	keystroke_d	d	n/a
405.896	0.09	811792	keystroke_Key.enter	Key.enter	n/a
405.992	12.085	811984	prompt	n/a	rising kansas either different\n
406.676	0.119	813352	keystroke_r	r	n/a
406.916	0.09	813832	keystroke_i	i	n/a
407.126	0.09	814252	keystroke_s	s	n/a
407.3515	0.1645	814703	keystroke_i	i	n/a
407.5005	0.1045	815001	keystroke_n	n	n/a
407.681	0.135	815362	keystroke_g	g	n/a
407.801	0.12	815602	keystroke_Key.space	Key.space	n/a
408.116	0.1045	816232	keystroke_k	k	n/a
408.2505	0.1055	816501	keystroke_a	a	n/a
408.4155	0.09	816831	keystroke_n	n	n/a
408.5355	0.09	817071	keystroke_a	a	n/a
408.776	0.0895	817552	keystroke_s	s	n/a
409.0155	0.075	818031	keystroke_a	a	n/a
409.256	0.1045	818512	keystroke_s	s	n/a
409.375	0.12	818750	keystroke_Key.space	Key.space	n/a
410.5005	0.075	821001	keystroke_s	s	n/a
410.816	0.09	821632	keystroke_Key.backspace	Key.backspace	n/a
410.9355	0.105	821871	keystroke_e	e	n/a
411.1005	0.0755	822201	keystroke_i	i	n/a
411.2065	0.0895	822413	keystroke_t	t	n/a
411.356	0.0745	822712	keystroke_h	h	n/a
411.4455	0.18	822891	keystroke_e	e	n/a
411.9405	0.0755	823881	keystroke_Key.backspace	Key.backspace	n/a
412.1055	0.06	824211	keystroke_Key.backspace	Key.backspace	n/a
412.2705	0.0305	824541	keystroke_Key.backspace	Key.backspace	n/a
412.4205	0.045	824841	keystroke_Key.backspace	Key.backspace	n/a
412.5555	0.0605	825111	keystroke_Key.backspace	Key.backspace	n/a
412.7055	0.0605	825411	keystroke_Key.backspace	Key.backspace	n/a
412.856	0.0445	825712	keystroke_Key.backspace	Key.backspace	n/a
412.9755	0.0755	825951	keystroke_Key.backspace	Key.backspace	n/a
413.1255	0.06	826251	keystroke_Key.backspace	Key.backspace	n/a
413.276	0.075	826552	keystroke_Key.backspace	Key.backspace	n/a
413.4705	0.105	826941	keystroke_s	s	n/a
413.696	0.09	827392	keystroke_a	a	n/a
413.996	0.105	827992	keystroke_s	s	n/a
414.1905	0.105	828381	keystroke_Key.space	Key.space	n/a
415.136	0.134	830272	keystroke_e	e	n/a
415.255	0.076	830510	keystroke_i	i	n/a
415.42	0.091	830840	keystroke_t	t	n/a
415.615	0.0765	831230	keystroke_h	h	n/a
415.946	0.164	831892	keystroke_e	e	n/a
416.126	0.12	832252	keystroke_r	r	n/a
416.23	0.0905	832460	keystroke_Key.space	Key.space	n/a
416.861	0.0895	833722	keystroke_d	d	n/a
416.981	0.0745	833962	keystroke_i	i	n/a
417.0405	0.075	834081	keystroke_f	f	n/a
417.1765	0.074	834353	keystroke_f	f	n/a
417.3705	0.075	834741	keystroke_e	e	n/a
417.431	0.1345	834862	keystroke_r	r	n/a
417.581	0.1045	835162	keystroke_e	e	n/a
417.7005	0.0605	835401	keystroke_n	n	n/a
417.821	0.0745	835642	keystroke_t	t	n/a
417.985	0.09	835970	keystroke_Key.enter	Key.enter	n/a
418.0805	7.318	836161	prompt	n/a	raises write authentic ivory\n
418.691	0.1195	837382	keystroke_r	r	n/a
418.8555	0.135	837711	keystroke_a	a	n/a
419.0215	0.089	838043	keystroke_i	i	n/a
419.156	0.12	838312	keystroke_s	s	n/a
419.336	0.149	838672	keystroke_e	e	n/a
419.486	0.1195	838972	keystroke_s	s	n/a
419.575	0.12	839150	keystroke_Key.space	Key.space	n/a
419.771	0.104	839542	keystroke_w	w	n/a
420.221	0.089	840442	keystroke_r	r	n/a
420.445	0.046	840890	keystroke_t	t	n/a
420.55	0.076	841100	keystroke_i	i	n/a
420.9255	0.0605	841851	keystroke_Key.backspace	Key.backspace	n/a
421.0455	0.075	842091	keystroke_Key.backspace	Key.backspace	n/a
421.3165	0.0745	842633	keystroke_i	i	n/a
421.361	0.1495	842722	keystroke_t	t	n/a
421.5115	0.1495	843023	keystroke_e	e	n/a
421.8105	0.135	843621	keystroke_Key.space	Key.space	n/a
422.1705	0.075	844341	keystroke_a	a	n/a
422.3655	0.09	844731	keystroke_u	u	n/a
422.5905	0.075	845181	keystroke_t	t	n/a
422.7105	0.075	845421	keystroke_h	h	n/a
423.1455	0.105	846291	keystroke_e	e	n/a
423.3405	0.09	846681	keystroke_n	n	n/a
423.7005	0.0905	847401	keystroke_t	t	n/a
423.8505	0.0905	847701	keystroke_i	i	n/a
424.0455	0.12	848091	keystroke_c	c	n/a
424.2105	0.105	848421	keystroke_Key.space	Key.space	n/a
424.4355	0.0605	848871	keystroke_i	i	n/a
424.586	0.1195	849172	keystroke_v	v	n/a
424.7655	0.09	849531	keystroke_o	o	n/a
424.9305	0.105	849861	keystroke_r	r	n/a
425.0805	0.075	850161	keystroke_y	y	n/a
425.2905	0.105	850581	keystroke_Key.enter	Key.enter	n/a
425.4035	7.944	850807	prompt	n/a	arrow hamilton scenario workstation\n
426.056	0.09	852112	keystroke_a	a	n/a
426.221	0.06	852442	keystroke_r	r	n/a
426.341	0.0905	852682	keystroke_r	r	n/a
426.506	0.09	853012	keystroke_o	o	n/a
426.611	0.12	853222	keystroke_w	w	n/a
426.701	0.105	853402	keystroke_Key.space	Key.space	n/a
427.016	0.09	854032	keystroke_h	h	n/a
427.181	0.09	854362	keystroke_a	a	n/a
427.316	0.09	854632	keystroke_m	m	n/a
427.676	0.09	855352	keystroke_i	i	n/a
427.8855	0.09	855771	keystroke_l	l	n/a
428.111	0.09	856222	keystroke_t	t	n/a
428.2605	0.1205	856521	keystroke_o	o	n/a
428.3505	0.09	856701	keystroke_n	n	n/a
428.4555	0.1055	856911	keystroke_Key.space	Key.space	n/a
428.696	0.09	857392	keystroke_s	s	n/a
428.9205	0.09	857841	keystroke_c	c	n/a
429.1315	0.1045	858263	keystroke_e	e	n/a
429.266	0.075	858532	keystroke_n	n	n/a
429.521	0.09	859042	keystroke_a	a	n/a
429.731	0.0745	859462	keystroke_r	r	n/a
429.8955	0.06	859791	keystroke_i	i	n/a
430.0905	0.0755	860181	keystroke_o	o	n/a
430.18	0.105	860360	keystroke_Key.space	Key.space	n/a
430.541	0.045	861082	keystroke_o	o	n/a
430.87	0.075	861740	keystroke_Key.backspace	Key.backspace	n/a
430.991	0.104	861982	keystroke_w	w	n/a
431.125	0.076	862250	keystroke_o	o	n/a
431.276	0.119	862552	keystroke_r	r	n/a
431.411	0.074	862822	keystroke_k	k	n/a
431.92	0.046	863840	keystroke_s	s	n/a
432.295	0.075	864590	keystroke_t	t	n/a
432.401	0.15	864802	keystroke_a	a	n/a
432.565	0.091	865130	keystroke_t	t	n/a
432.716	0.0895	865432	keystroke_i	i	n/a
432.941	0.135	865882	keystroke_o	o	n/a
433.046	0.09	866092	keystroke_n	n	n/a
433.256	0.0895	866512	keystroke_Key.enter	Key.enter	n/a
433.352	8.1555	866704	prompt	n/a	lightning intranet increased beat\n
433.9455	0.105	867891	keystroke_l	l	n/a
434.1855	0.0755	868371	keystroke_i	i	n/a
434.291	0.0745	868582	keystroke_g	g	n/a
434.441	0.059	868882	keystroke_h	h	n/a
434.53	0.09	869060	keystroke_t	t	n/a
434.6955	0.075	869391	keystroke_n	n	n/a
434.8755	0.105	869751	keystroke_i	i	n/a
435.056	0.0895	870112	keystroke_n	n	n/a
435.1905	0.1205	870381	keystroke_g	g	n/a
435.2655	0.135	870531	keystroke_Key.space	Key.space	n/a
435.536	0.1045	871072	keystroke_i	i	n/a
435.626	0.104	871252	keystroke_n	n	n/a
436.0605	0.0905	872121	keystroke_t	t	n/a
436.301	0.165	872602	keystroke_r	r	n/a
436.436	0.1495	872872	keystroke_e	e	n/a
437.2	0.06	874400	keystroke_Key.backspace	Key.backspace	n/a
437.306	0.119	874612	keystroke_a	a	n/a
437.486	0.075	874972	keystroke_n	n	n/a
437.6355	0.105	875271	keystroke_t	t	n/a
438.0405	0.09	876081	keystroke_Key.backspace	Key.backspace	n/a
438.16	0.1055	876320	keystroke_e	e	n/a
438.2955	0.1355	876591	keystroke_t	t	n/a
438.4155	0.1195	876831	keystroke_Key.space	Key.space	n/a
439.226	0.075	878452	keystroke_i	i	n/a
439.2855	0.105	878571	keystroke_n	n	n/a
439.4205	0.1055	878841	keystroke_c	c	n/a
439.6905	0.1205	879381	keystroke_r	r	n/a
439.7955	0.135	879591	keystroke_e	e	n/a
439.9165	0.0895	879833	keystroke_a	a	n/a
440.171	0.09	880342	keystroke_s	s	n/a
440.336	0.0895	880672	keystroke_e	e	n/a
440.546	0.1355	881092	keystroke_d	d	n/a
440.6815	0.1185	881363	keystroke_Key.space	Key.space	n/a
440.8315	0.089	881663	keystroke_b	b	n/a
440.9355	0.12	881871	keystroke_e	e	n/a
441.0705	0.1655	882141	keystroke_a	a	n/a
441.2505	0.09	882501	keystroke_t	t	n/a
441.4155	0.09	882831	keystroke_Key.enter	Key.enter	n/a
441.5125	7.015	883025	prompt	n/a	finals victor save wrestling\n
442.1055	0.12	884211	keystroke_f	f	n/a
442.2555	0.105	884511	keystroke_i	i	n/a
442.346	0.06	884692	keystroke_n	n	n/a
442.3905	0.09	884781	keystroke_a	a	n/a
442.5255	0.1055	885051	keystroke_l	l	n/a
442.6455	0.0755	885291	keystroke_s	s	n/a
442.7055	0.105	885411	keystroke_Key.space	Key.space	n/a
442.9305	0.1055	885861	keystroke_v	v	n/a
443.1255	0.09	886251	keystroke_i	i	n/a
443.32	0.09	886640	keystroke_c	c	n/a
443.666	0.075	887332	keystroke_t	t	n/a
443.785	0.091	887570	keystroke_o	o	n/a
443.921	0.105	887842	keystroke_r	r	n/a
444.04	0.105	888080	keystroke_Key.space	Key.space	n/a
444.281	0.09	888562	keystroke_s	s	n/a
444.476	0.09	888952	keystroke_a	a	n/a
444.896	0.12	889792	keystroke_e	e	n/a
445.031	0.09	890062	keystroke_Key.space	Key.space	n/a
445.346	0.06	890692	keystroke_Key.backspace	Key.backspace	n/a
445.481	0.09	890962	keystroke_Key.backspace	Key.backspace	n/a
445.5555	0.105	891111	keystroke_v	v	n/a
445.7805	0.1205	891561	keystroke_e	e	n/a
445.8555	0.15	891711	keystroke_Key.space	Key.space	n/a
446.1105	0.105	892221	keystroke_w	w	n/a
446.246	0.1195	892492	keystroke_r	r	n/a
447.086	0.12	894172	keystroke_e	e	n/a
447.221	0.135	894442	keystroke_s	s	n/a
447.461	0.06	894922	keystroke_t	t	n/a
447.746	0.0895	895492	keystroke_l	l	n/a
448.031	0.09	896062	keystroke_i	i	n/a
448.106	0.074	896212	keystroke_n	n	n/a
448.196	0.09	896392	keystroke_g	g	n/a
448.436	0.089	896872	keystroke_Key.enter	Key.enter	n/a
448.5325	6.925	897065	prompt	n/a	insertion interval chat formatting\n
449.171	0.105	898342	keystroke_i	i	n/a
449.246	0.105	898492	keystroke_n	n	n/a
449.396	0.06	898792	keystroke_t	t	n/a
449.906	0.075	899812	keystroke_Key.backspace	Key.backspace	n/a
450.011	0.075	900022	keystroke_s	s	n/a
450.161	0.15	900322	keystroke_e	e	n/a
450.296	0.119	900592	keystroke_r	r	n/a
450.851	0.06	901702	keystroke_t	t	n/a
450.986	0.075	901972	keystroke_i	i	n/a
451.226	0.075	902452	keystroke_o	o	n/a
451.286	0.105	902572	keystroke_n	n	n/a
451.421	0.09	902842	keystroke_Key.space	Key.space	n/a
451.571	0.12	903142	keystroke_i	i	n/a
451.6765	0.0745	903353	keystroke_n	n	n/a
451.991	0.06	903982	keystroke_t	t	n/a
452.096	0.134	904192	keystroke_e	e	n/a
452.201	0.119	904402	keystroke_r	r	n/a
452.636	0.105	905272	keystroke_v	v	n/a
452.785	0.1215	905570	keystroke_a	a	n/a
452.891	0.105	905782	keystroke_l	l	n/a
453.025	0.105	906050	keystroke_Key.space	Key.space	n/a
453.356	0.089	906712	keystroke_c	c	n/a
453.52	0.0605	907040	keystroke_h	h	n/a
453.61	0.1215	907220	keystroke_a	a	n/a
453.821	0.09	907642	keystroke_t	t	n/a
453.8805	0.105	907761	keystroke_Key.space	Key.space	n/a
454.0605	0.105	908121	keystroke_f	f	n/a
454.2105	0.0755	908421	keystroke_o	o	n/a
454.301	0.105	908602	keystroke_r	r	n/a
454.4355	0.09	908871	keystroke_m	m	n/a
454.556	0.1055	909112	keystroke_a	a	n/a
454.751	0.059	909502	keystroke_t	t	n/a
454.871	0.09	909742	keystroke_t	t	n/a
455.005	0.105	910010	keystroke_i	i	n/a
455.0805	0.09	910161	keystroke_n	n	n/a
455.185	0.09	910370	keystroke_g	g	n/a
455.351	0.1045	910702	keystroke_Key.enter	Key.enter	n/a
455.4625	9.6105	910925	prompt	n/a	biology indigenous conference hats\n
456.1905	0.0295	912381	keystroke_n	n	n/a
456.4615	0.0745	912923	keystroke_b	b	n/a
456.746	0.0745	913492	keystroke_Key.backspace	Key.backspace	n/a
456.88	0.0755	913760	keystroke_Key.backspace	Key.backspace	n/a
457	0.09	914000	keystroke_b	b	n/a
457.15	0.076	914300	keystroke_i	i	n/a
457.316	0.074	914632	keystroke_o	o	n/a
457.541	0.09	915082	keystroke_l	l	n/a
457.751	0.059	915502	keystroke_o	o	n/a
458.486	0.075	916972	keystroke_g	g	n/a
458.6355	0.0905	917271	keystroke_y	y	n/a
458.861	0.105	917722	keystroke_Key.space	Key.space	n/a
459.221	0.15	918442	keystroke_i	i	n/a
459.341	0.09	918682	keystroke_n	n	n/a
459.521	0.09	919042	keystroke_d	d	n/a
459.791	0.09	919582	keystroke_e	e	n/a
460.046	0.075	920092	keystroke_i	i	n/a
460.391	0.075	920782	keystroke_Key.backspace	Key.backspace	n/a
460.525	0.061	921050	keystroke_Key.backspace	Key.backspace	n/a
460.781	0.0755	921562	keystroke_i	i	n/a
460.946	0.075	921892	keystroke_g	g	n/a
461.2315	0.1495	922463	keystroke_e	e	n/a
461.441	0.104	922882	keystroke_n	n	n/a
461.696	0.075	923392	keystroke_o	o	n/a
461.92	0.0755	923840	keystroke_u	u	n/a
462.026	0.12	924052	keystroke_s	s	n/a
462.131	0.119	924262	keystroke_Key.space	Key.space	n/a
462.446	0.089	924892	keystroke_c	c	n/a
462.6555	0.1045	925311	keystroke_o	o	n/a
462.746	0.104	925492	keystroke_n	n	n/a
463.1955	0.1055	926391	keystroke_f	f	n/a
463.481	0.03	926962	keystroke_e	e	n/a
463.4955	0.09	926991	keystroke_r	r	n/a
463.6315	0.09	927263	keystroke_e	e	n/a
463.751	0.0905	927502	keystroke_n	n	n/a
463.916	0.1045	927832	keystroke_c	c	n/a
464.111	0.1345	928222	keystroke_e	e	n/a
464.2155	0.1205	928431	keystroke_Key.space	Key.space	n/a
464.4555	0.0605	928911	keystroke_h	h	n/a
464.5455	0.09	929091	keystroke_a	a	n/a
464.711	0.1345	929422	keystroke_t	t	n/a
464.8305	0.165	929661	keystroke_s	s	n/a
464.981	0.09	929962	keystroke_Key.enter	Key.enter	n/a
465.0775	6.6695	930155	prompt	n/a	study reaction shadow francis\n
465.701	0.09	931402	keystroke_s	s	n/a
465.881	0.09	931762	keystroke_t	t	n/a
466.001	0.075	932002	keystroke_u	u	n/a
466.136	0.12	932272	keystroke_d	d	n/a
466.271	0.06	932542	keystroke_y	y	n/a
466.346	0.09	932692	keystroke_Key.space	Key.space	n/a
466.751	0.18	933502	keystroke_r	r	n/a
466.886	0.12	933772	keystroke_e	e	n/a
466.975	0.1365	933950	keystroke_a	a	n/a
467.231	0.045	934462	keystroke_c	c	n/a
467.516	0.0755	935032	keystroke_t	t	n/a
467.6355	0.075	935271	keystroke_i	i	n/a
467.815	0.12	935630	keystroke_o	o	n/a
467.905	0.105	935810	keystroke_n	n	n/a
467.995	0.12	935990	keystroke_Key.space	Key.space	n/a
468.146	0.104	936292	keystroke_s	s	n/a
468.265	0.0905	936530	keystroke_h	h	n/a
468.3855	0.1055	936771	keystroke_a	a	n/a
469.046	0.105	938092	keystroke_d	d	n/a
469.196	0.075	938392	keystroke_o	o	n/a
469.316	0.135	938632	keystroke_w	w	n/a
469.4355	0.1045	938871	keystroke_Key.space	Key.space	n/a
469.781	0.0745	939562	keystroke_r	r	n/a
470.1105	0.0755	940221	keystroke_Key.backspace	Key.backspace	n/a
470.216	0.09	940432	keystroke_f	f	n/a
470.441	0.12	940882	keystroke_r	r	n/a
470.576	0.1345	941152	keystroke_a	a	n/a
470.756	0.075	941512	keystroke_n	n	n/a
471.026	0.09	942052	keystroke_c	c	n/a
471.2655	0.0755	942531	keystroke_i	i	n/a
471.4755	0.1055	942951	keystroke_s	s	n/a
471.641	0.104	943282	keystroke_Key.enter	Key.enter	n/a
471.762	7.0805	943524	prompt	n/a	tile confident bedding iran\n
472.541	0.0905	945082	keystroke_t	t	n/a
472.646	0.0745	945292	keystroke_i	i	n/a
472.8705	0.03	945741	keystroke_l	l	n/a
472.886	0.105	945772	keystroke_e	e	n/a
472.9455	0.1205	945891	keystroke_Key.space	Key.space	n/a
473.2305	0.0755	946461	keystroke_c	c	n/a
473.3205	0.105	946641	keystroke_o	o	n/a
473.4105	0.075	946821	keystroke_n	n	n/a
473.546	0.1045	947092	keystroke_f	f	n/a
473.7405	0.0755	947481	keystroke_i	i	n/a
474.82	0.09	949640	keystroke_d	d	n/a
475.076	0.0905	950152	keystroke_e	e	n/a
475.211	0.075	950422	keystroke_n	n	n/a
475.391	0.104	950782	keystroke_t	t	n/a
475.48	0.121	950960	keystroke_Key.space	Key.space	n/a
475.945	0.091	951890	keystroke_b	b	n/a
476.051	0.06	952102	keystroke_e	e	n/a
476.261	0.06	952522	keystroke_d	d	n/a
476.546	0.105	953092	keystroke_i	i	n/a
476.951	0.0445	953902	keystroke_Key.backspace	Key.backspace	n/a
477.0405	0.1355	954081	keystroke_d	d	n/a
477.236	0.105	954472	keystroke_i	i	n/a
477.311	0.09	954622	keystroke_n	n	n/a
477.416	0.135	954832	keystroke_g	g	n/a
477.521	0.135	955042	keystroke_Key.space	Key.space	n/a
477.941	0.09	955882	keystroke_i	i	n/a
478.076	0.105	956152	keystroke_r	r	n/a
478.361	0.119	956722	keystroke_a	a	n/a
478.496	0.105	956992	keystroke_n	n	n/a
478.7355	0.1045	957471	keystroke_Key.enter	Key.enter	n/a
478.8465	9.086	957693	prompt	n/a	replacement refuse significant flashing\n
479.5	0.12	959000	keystroke_r	r	n/a
479.636	0.12	959272	keystroke_e	e	n/a
479.875	0.135	959750	keystroke_p	p	n/a
479.9505	0.1195	959901	keystroke_l	l	n/a
480.085	0.105	960170	keystroke_a	a	n/a
480.25	0.09	960500	keystroke_c	c	n/a
480.461	0.06	960922	keystroke_e	e	n/a
480.551	0.075	961102	keystroke_m	m	n/a
480.656	0.075	961312	keystroke_e	e	n/a
480.7765	0.0445	961553	keystroke_n	n	n/a
480.986	0.105	961972	keystroke_t	t	n/a
481.076	0.135	962152	keystroke_Key.space	Key.space	n/a
481.691	0.12	963382	keystroke_r	r	n/a
481.796	0.12	963592	keystroke_e	e	n/a
482.081	0.15	964162	keystroke_f	f	n/a
482.366	0.09	964732	keystroke_u	u	n/a
482.6055	0.0755	965211	keystroke_c	c	n/a
483.085	0.09	966170	keystroke_Key.backspace	Key.backspace	n/a
483.191	0.0895	966382	keystroke_s	s	n/a
483.3855	0.15	966771	keystroke_e	e	n/a
483.4905	0.12	966981	keystroke_Key.space	Key.space	n/a
483.776	0.1045	967552	keystroke_s	s	n/a
483.8955	0.075	967791	keystroke_i	i	n/a
484.0755	0.09	968151	keystroke_g	g	n/a
484.1805	0.075	968361	keystroke_n	n	n/a
484.376	0.0745	968752	keystroke_i	i	n/a
485.0505	0.0905	970101	keystroke_f	f	n/a
485.1705	0.0905	970341	keystroke_i	i	n/a
485.486	0.0745	970972	keystroke_c	c	n/a
485.606	0.1055	971212	keystroke_a	a	n/a
485.786	0.075	971572	keystroke_n	n	n/a
485.921	0.075	971842	keystroke_t	t	n/a
485.9655	0.1205	971931	keystroke_Key.space	Key.space	n/a
486.1905	0.1055	972381	keystroke_f	f	n/a
486.296	0.0895	972592	keystroke_l	l	n/a
486.5955	0.09	973191	keystroke_u	u	n/a
486.926	0.074	973852	keystroke_Key.backspace	Key.backspace	n/a
487.045	0.046	974090	keystroke_a	a	n/a
487.226	0.09	974452	keystroke_s	s	n/a
487.3005	0.0595	974601	keystroke_h	h	n/a
487.511	0.105	975022	keystroke_i	i	n/a
487.586	0.105	975172	keystroke_n	n	n/a
487.676	0.09	975352	keystroke_g	g	n/a
487.841	0.09	975682	keystroke_Key.enter	Key.enter	n/a
487.9365	6.146	975873	prompt	n/a	drunk laura sink income\n
488.696	0.09	977392	keystroke_d	d	n/a
488.906	0.09	977812	keystroke_r	r	n/a
489.025	0.136	978050	keystroke_u	u	n/a
489.266	0.0605	978532	keystroke_n	n	n/a
489.626	0.105	979252	keystroke_k	k	n/a
489.82	0.106	979640	keystroke_Key.space	Key.space	n/a
490.061	0.075	980122	keystroke_l	l	n/a
490.15	0.121	980300	keystroke_a	a	n/a
490.3305	0.105	980661	keystroke_u	u	n/a
490.541	0.135	981082	keystroke_r	r	n/a
490.7205	0.135	981441	keystroke_a	a	n/a
490.9605	0.1055	981921	keystroke_Key.space	Key.space	n/a
492.505	0.09	985010	keystroke_s	s	n/a
492.611	0.105	985222	keystroke_i	i	n/a
492.685	0.1355	985370	keystroke_n	n	n/a
492.881	0.1045	985762	keystroke_k	k	n/a
493.001	0.09	986002	keystroke_Key.space	Key.space	n/a
493.2105	0.105	986421	keystroke_i	i	n/a
493.2855	0.091	986571	keystroke_n	n	n/a
493.541	0.104	987082	keystroke_c	c	n/a
493.661	0.105	987322	keystroke_o	o	n/a
493.751	0.075	987502	keystroke_m	m	n/a
493.8405	0.106	987681	keystroke_e	e	n/a
493.9905	0.09	987981	keystroke_Key.enter	Key.enter	n/a
494.087	7.27	988174	prompt	n/a	briefly genre you've marble\n
495.071	0.0745	990142	keystroke_b	b	n/a
495.266	0.105	990532	keystroke_r	r	n/a
495.415	0.0905	990830	keystroke_i	i	n/a
495.6705	0.09	991341	keystroke_e	e	n/a
496.0905	0.1355	992181	keystroke_f	f	n/a
496.301	0.105	992602	keystroke_l	l	n/a
496.556	0.075	993112	keystroke_y	y	n/a
496.615	0.12	993230	keystroke_Key.space	Key.space	n/a
497.111	0.1195	994222	keystroke_g	g	n/a
497.2455	0.105	994491	keystroke_e	e	n/a
497.3205	0.105	994641	keystroke_n	n	n/a
497.651	0.1645	995302	keystroke_r	r	n/a
497.7855	0.12	995571	keystroke_e	e	n/a
497.876	0.119	995752	keystroke_Key.space	Key.space	n/a
498.326	0.105	996652	keystroke_y	y	n/a
498.506	0.1045	997012	keystroke_o	o	n/a
498.581	0.12	997162	keystroke_u	u	n/a
498.9855	0.135	997971	keystroke_'	'	n/a
499.2555	0.1805	998511	keystroke_r	r	n/a
499.391	0.15	998782	keystroke_e	e	n/a
499.5105	0.135	999021	keystroke_Key.space	Key.space	n/a
500.036	0.1045	1000072	keystroke_m	m	n/a
500.1555	0.1055	1000311	keystroke_a	a	n/a
500.321	0.12	1000642	keystroke_r	r	n/a
500.606	0.06	1001212	keystroke_b	b	n/a
500.726	0.1345	1001452	keystroke_l	l	n/a
501.116	0.1195	1002232	keystroke_e	e	n/a
501.2655	0.09	1002531	keystroke_Key.enter	Key.enter	n/a
501.361	5.336	1002722	prompt	n/a	affected holes sides lambda\n
502.0305	0.1205	1004061	keystroke_a	a	n/a
502.196	0.075	1004392	keystroke_f	f	n/a
502.3305	0.1055	1004661	keystroke_f	f	n/a
502.511	0.104	1005022	keystroke_e	e	n/a
502.75	0.0915	1005500	keystroke_c	c	n/a
503.006	0.1055	1006012	keystroke_t	t	n/a
503.141	0.089	1006282	keystroke_e	e	n/a
503.3205	0.1505	1006641	keystroke_d	d	n/a
503.455	0.121	1006910	keystroke_Key.space	Key.space	n/a
503.636	0.075	1007272	keystroke_h	h	n/a
503.8455	0.0905	1007691	keystroke_o	o	n/a
503.9955	0.09	1007991	keystroke_l	l	n/a
504.0555	0.15	1008111	keystroke_e	e	n/a
504.1905	0.12	1008381	keystroke_s	s	n/a
504.2655	0.21	1008531	keystroke_Key.space	Key.space	n/a
504.4605	0.09	1008921	keystroke_s	s	n/a
504.686	0.105	1009372	keystroke_i	i	n/a
504.8355	0.1355	1009671	keystroke_d	d	n/a
505.1955	0.1505	1010391	keystroke_e	e	n/a
505.3305	0.135	1010661	keystroke_s	s	n/a
505.3905	0.135	1010781	keystroke_Key.space	Key.space	n/a
505.5555	0.1055	1011111	keystroke_l	l	n/a
505.676	0.12	1011352	keystroke_a	a	n/a
505.916	0.075	1011832	keystroke_m	m	n/a
506.1255	0.0755	1012251	keystroke_b	b	n/a
506.2755	0.1655	1012551	keystroke_d	d	n/a
506.426	0.1195	1012852	keystroke_a	a	n/a
506.591	0.104	1013182	keystroke_Key.enter	Key.enter	n/a
506.7	8.3675	1013400	prompt	n/a	brandon meaningful processors completely\n
507.401	0.0895	1014802	keystroke_b	b	n/a
507.5955	0.1055	1015191	keystroke_r	r	n/a
507.7305	0.105	1015461	keystroke_a	a	n/a
507.8205	0.0755	1015641	keystroke_n	n	n/a
508.0605	0.1055	1016121	keystroke_d	d	n/a
508.271	0.12	1016542	keystroke_o	o	n/a
508.361	0.1045	1016722	keystroke_n	n	n/a
508.5105	0.12	1017021	keystroke_Key.space	Key.space	n/a
508.7055	0.09	1017411	keystroke_m	m	n/a
508.8105	0.1345	1017621	keystroke_e	e	n/a
508.961	0.134	1017922	keystroke_a	a	n/a
509.08	0.1055	1018160	keystroke_n	n	n/a
509.425	0.121	1018850	keystroke_i	i	n/a
509.531	0.1045	1019062	keystroke_n	n	n/a
509.98	0.09	1019960	keystroke_g	g	n/a
510.416	0.1045	1020832	keystroke_f	f	n/a
510.551	0.1045	1021102	keystroke_u	u	n/a
510.8205	0.1055	1021641	keystroke_l	l	n/a
510.9555	0.105	1021911	keystroke_Key.space	Key.space	n/a
511.3605	0.0455	1022721	keystroke_p	p	n/a
511.541	0.0745	1023082	keystroke_r	r	n/a
511.6605	0.09	1023321	keystroke_o	o	n/a
511.796	0.105	1023592	keystroke_c	c	n/a
512.02	0.091	1024040	keystroke_e	e	n/a
512.2305	0.075	1024461	keystroke_s	s	n/a
512.3805	0.105	1024761	keystroke_s	s	n/a
512.5305	0.09	1025061	keystroke_o	o	n/a
512.666	0.135	1025332	keystroke_r	r	n/a
512.801	0.15	1025602	keystroke_s	s	n/a
513.04	0.105	1026080	keystroke_Key.space	Key.space	n/a
513.3705	0.1055	1026741	keystroke_c	c	n/a
513.4905	0.135	1026981	keystroke_o	o	n/a
513.5955	0.075	1027191	keystroke_m	m	n/a
513.8355	0.1355	1027671	keystroke_p	p	n/a
513.926	0.12	1027852	keystroke_l	l	n/a
514.031	0.12	1028062	keystroke_e	e	n/a
514.331	0.09	1028662	keystroke_t	t	n/a
514.436	0.12	1028872	keystroke_e	e	n/a
514.616	0.105	1029232	keystroke_l	l	n/a
514.7965	0.0895	1029593	keystroke_y	y	n/a
514.991	0.074	1029982	keystroke_Key.enter	Key.enter	n/a
515.0715	7.3165	1030143	prompt	n/a	drivers tunes situated fence\n
515.981	0.1495	1031962	keystroke_d	d	n/a
516.296	0.09	1032592	keystroke_r	r	n/a
516.4155	0.09	1032831	keystroke_i	i	n/a
516.551	0.09	1033102	keystroke_v	v	n/a
516.7905	0.09	1033581	keystroke_e	e	n/a
516.8655	0.1505	1033731	keystroke_r	r	n/a
517.031	0.1495	1034062	keystroke_s	s	n/a
517.2405	0.105	1034481	keystroke_Key.space	Key.space	n/a
517.7055	0.0905	1035411	keystroke_t	t	n/a
517.8255	0.1505	1035651	keystroke_u	u	n/a
517.931	0.12	1035862	keystroke_n	n	n/a
518.0205	0.165	1036041	keystroke_e	e	n/a
518.1705	0.166	1036341	keystroke_s	s	n/a
518.35	0.0905	1036700	keystroke_Key.space	Key.space	n/a
518.8455	0.1055	1037691	keystroke_s	s	n/a
518.966	0.1045	1037932	keystroke_i	i	n/a
519.1455	0.09	1038291	keystroke_t	t	n/a
519.281	0.075	1038562	keystroke_u	u	n/a
519.431	0.1205	1038862	keystroke_a	a	n/a
519.656	0.09	1039312	keystroke_t	t	n/a
519.851	0.09	1039702	keystroke_e	e	n/a
520.061	0.1505	1040122	keystroke_d	d	n/a
520.196	0.1045	1040392	keystroke_Key.space	Key.space	n/a
520.466	0.0445	1040932	keystroke_f	f	n/a
