onset	duration	sample	value	key	prompt_text
9.456	8.4275	18912	prompt	n/a	the quick brown fox jumps over a lazy dog\n
10.548	0.012	21096	keystroke	t	n/a
10.548	0.102	21096	keystroke	h	n/a
10.68	0.105	21360	keystroke	e	n/a
11.085	0.105	22170	keystroke	n	n/a
11.58	0.105	23160	keystroke	Key.backspace	n/a
11.82	0.105	23640	keystroke	Key.space	n/a
11.955	0.105	23910	keystroke	q	n/a
12.09	0.075	24180	keystroke	u	n/a
12.255	0.1045	24510	keystroke	i	n/a
12.3905	0.1045	24781	keystroke	c	n/a
12.4655	0.104	24931	keystroke	k	n/a
12.5855	0.104	25171	keystroke	Key.space	n/a
12.795	0.09	25590	keystroke	b	n/a
12.93	0.09	25860	keystroke	r	n/a
13.021	0.104	26042	keystroke	o	n/a
13.155	0.09	26310	keystroke	w	n/a
13.26	0.09	26520	keystroke	n	n/a
13.38	0.12	26760	keystroke	Key.space	n/a
13.62	0.075	27240	keystroke	f	n/a
13.71	0.09	27420	keystroke	o	n/a
13.83	0.09	27660	keystroke	x	n/a
13.935	0.09	27870	keystroke	Key.space	n/a
14.175	0.09	28350	keystroke	j	n/a
14.355	0.075	28710	keystroke	u	n/a
14.565	0.075	29130	keystroke	m	n/a
14.73	0.1195	29460	keystroke	p	n/a
15.165	0.09	30330	keystroke	s	n/a
15.27	0.075	30540	keystroke	Key.space	n/a
15.4355	0.089	30871	keystroke	o	n/a
15.5255	0.059	31051	keystroke	v	n/a
15.6295	0.1055	31259	keystroke	e	n/a
15.6895	0.075	31379	keystroke	r	n/a
15.795	0.075	31590	keystroke	Key.space	n/a
15.945	0.06	31890	keystroke	a	n/a
16.395	0.105	32790	keystroke	Key.space	n/a
16.515	0.105	33030	keystroke	l	n/a
16.635	0.075	33270	keystroke	a	n/a
16.815	0.09	33630	keystroke	z	n/a
16.92	0.075	33840	keystroke	y	n/a
17.01	0.09	34020	keystroke	Key.space	n/a
17.205	0.075	34410	keystroke	d	n/a
17.325	0.075	34650	keystroke	o	n/a
17.445	0.09	34890	keystroke	g	n/a
17.79	0.09	35580	keystroke	Key.enter	n/a
17.89	7.6425	35780	prompt	n/a	attributes pose satisfaction trainers\n
18.435	0.075	36870	keystroke	a	n/a
18.6	0.06	37200	keystroke	t	n/a
18.75	0.06	37500	keystroke	t	n/a
19.065	0.06	38130	keystroke	r	n/a
19.185	0.105	38370	keystroke	i	n/a
19.575	0.09	39150	keystroke	b	n/a
19.71	0.09	39420	keystroke	u	n/a
19.83	0.105	39660	keystroke	t	n/a
19.95	0.075	39900	keystroke	e	n/a
20.145	0.09	40290	keystroke	s	n/a
20.25	0.09	40500	keystroke	Key.space	n/a
20.61	0.12	41220	keystroke	p	n/a
20.67	0.12	41340	keystroke	o	n/a
20.745	0.06	41490	keystroke	s	n/a
20.895	0.075	41790	keystroke	e	n/a
21.03	0.09	42060	keystroke	Key.space	n/a
21.51	0.105	43020	keystroke	s	n/a
21.705	0.0745	43410	keystroke	a	n/a
21.8545	0.075	43709	keystroke	t	n/a
21.9595	0.09	43919	keystroke	i	n/a
22.1395	0.06	44279	keystroke	s	n/a
22.6795	0.076	45359	keystroke	f	n/a
22.7995	0.075	45599	keystroke	a	n/a
22.9195	0.121	45839	keystroke	c	n/a
23.2345	0.0755	46469	keystroke	t	n/a
23.325	0.09	46650	keystroke	i	n/a
23.43	0.12	46860	keystroke	o	n/a
23.505	0.09	47010	keystroke	n	n/a
23.7	0.09	47400	keystroke	Key.space	n/a
24.03	0.075	48060	keystroke	t	n/a
24.195	0.09	48390	keystroke	r	n/a
24.315	0.09	48630	keystroke	a	n/a
24.45	0.105	48900	keystroke	i	n/a
24.63	0.09	49260	keystroke	n	n/a
25.005	0.09	50010	keystroke	e	n/a
25.065	0.09	50130	keystroke	r	n/a
25.215	0.09	50430	keystroke	s	n/a
25.44	0.09	50880	keystroke	Key.enter	n/a
25.5375	7.9155	51075	prompt	n/a	exercises succeed courier website\n
26.085	0.075	52170	keystroke	e	n/a
26.31	0.09	52620	keystroke	x	n/a
26.7	0.075	53400	keystroke	e	n/a
26.745	0.09	53490	keystroke	r	n/a
27.21	0.09	54420	keystroke	c	n/a
27.315	0.135	54630	keystroke	i	n/a
27.435	0.075	54870	keystroke	s	n/a
27.585	0.075	55170	keystroke	e	n/a
27.75	0.12	55500	keystroke	s	n/a
27.855	0.09	55710	keystroke	Key.space	n/a
28.245	0.09	56490	keystroke	s	n/a
28.32	0.105	56640	keystroke	u	n/a
28.44	0.06	56880	keystroke	c	n/a
28.545	0.105	57090	keystroke	c	n/a
28.755	0.075	57510	keystroke	e	n/a
29.94	0.09	59880	keystroke	e	n/a
30	0.09	60000	keystroke	d	n/a
30.27	0.105	60540	keystroke	Key.space	n/a
30.72	0.105	61440	keystroke	c	n/a
30.81	0.12	61620	keystroke	o	n/a
30.87	0.09	61740	keystroke	u	n/a
31.005	0.09	62010	keystroke	r	n/a
31.155	0.105	62310	keystroke	i	n/a
31.44	0.06	62880	keystroke	e	n/a
31.455	0.09	62910	keystroke	r	n/a
31.59	0.09	63180	keystroke	Key.space	n/a
31.815	0.075	63630	keystroke	w	n/a
31.92	0.105	63840	keystroke	e	n/a
32.04	0.075	64080	keystroke	b	n/a
32.175	0.09	64350	keystroke	s	n/a
32.385	0.09	64770	keystroke	i	n/a
32.565	0.06	65130	keystroke	t	n/a
32.715	0.12	65430	keystroke	e	n/a
33.375	0.075	66750	keystroke	Key.enter	n/a
33.458	6.1145	66916	prompt	n/a	buying weather june furnished\n
34.275	0.075	68550	keystroke	b	n/a
34.395	0.075	68790	keystroke	u	n/a
34.515	0.075	69030	keystroke	y	n/a
34.62	0.105	69240	keystroke	i	n/a
34.695	0.06	69390	keystroke	n	n/a
34.785	0.075	69570	keystroke	g	n/a
34.875	0.09	69750	keystroke	Key.space	n/a
35.1	0.105	70200	keystroke	w	n/a
35.175	0.135	70350	keystroke	e	n/a
35.415	0.12	70830	keystroke	a	n/a
35.55	0.06	71100	keystroke	t	n/a
35.625	0.09	71250	keystroke	h	n/a
35.7	0.075	71400	keystroke	e	n/a
35.745	0.075	71490	keystroke	r	n/a
35.91	0.075	71820	keystroke	Key.space	n/a
36.21	0.12	72420	keystroke	j	n/a
36.39	0.15	72780	keystroke	u	n/a
36.465	0.15	72930	keystroke	n	n/a
36.645	0.0755	73290	keystroke	e	n/a
36.765	0.075	73530	keystroke	Key.space	n/a
38.04	0.075	76080	keystroke	f	n/a
38.115	0.075	76230	keystroke	u	n/a
38.205	0.09	76410	keystroke	r	n/a
38.34	0.09	76680	keystroke	n	n/a
38.5195	0.09	77039	keystroke	i	n/a
38.6545	0.09	77309	keystroke	s	n/a
38.7145	0.1055	77429	keystroke	h	n/a
38.8945	0.106	77789	keystroke	e	n/a
38.9695	0.09	77939	keystroke	d	n/a
39.4645	0.1055	78929	keystroke	Key.enter	n/a
39.578	8.5755	79156	prompt	n/a	screenshots politicians seeking televisions\n
40.1705	0.059	80341	keystroke	s	n/a
40.3945	0.015	80789	keystroke	e	n/a
40.605	0.0745	81210	keystroke	Key.backspace	n/a
40.6655	0.105	81331	keystroke	c	n/a
40.8745	0.091	81749	keystroke	r	n/a
40.95	0.0605	81900	keystroke	e	n/a
41.0695	0.091	82139	keystroke	e	n/a
41.2195	0.09	82439	keystroke	n	n/a
41.4155	0.09	82831	keystroke	s	n/a
41.5055	0.09	83011	keystroke	h	n/a
41.6405	0.075	83281	keystroke	o	n/a
41.7305	0.075	83461	keystroke	t	n/a
41.8505	0.105	83701	keystroke	s	n/a
41.9705	0.089	83941	keystroke	Key.space	n/a
42.2255	0.105	84451	keystroke	p	n/a
42.2405	0.12	84481	keystroke	o	n/a
42.7805	0.105	85561	keystroke	l	n/a
42.9755	0.105	85951	keystroke	i	n/a
43.0955	0.075	86191	keystroke	t	n/a
43.2755	0.075	86551	keystroke	i	n/a
43.3805	0.09	86761	keystroke	c	n/a
43.7705	0.075	87541	keystroke	a	n/a
44.0555	0.075	88111	keystroke	Key.backspace	n/a
44.1455	0.09	88291	keystroke	i	n/a
44.2205	0.075	88441	keystroke	a	n/a
44.3555	0.09	88711	keystroke	n	n/a
44.4455	0.09	88891	keystroke	s	n/a
44.6105	0.075	89221	keystroke	Key.space	n/a
45.0305	0.045	90061	keystroke	s	n/a
45.1655	0.06	90331	keystroke	e	n/a
45.3005	0.075	90601	keystroke	e	n/a
45.4205	0.06	90841	keystroke	k	n/a
45.5555	0.09	91111	keystroke	i	n/a
45.6005	0.075	91201	keystroke	n	n/a
45.7055	0.045	91411	keystroke	g	n/a
45.9755	0.075	91951	keystroke	Key.space	n/a
46.3205	0.06	92641	keystroke	t	n/a
46.4255	0.06	92851	keystroke	e	n/a
46.5155	0.075	93031	keystroke	l	n/a
46.5905	0.09	93181	keystroke	e	n/a
47.1155	0.075	94231	keystroke	v	n/a
47.1905	0.105	94381	keystroke	i	n/a
47.3555	0.09	94711	keystroke	s	n/a
47.4755	0.075	94951	keystroke	i	n/a
47.5655	0.105	95131	keystroke	o	n/a
47.6405	0.075	95281	keystroke	n	n/a
47.7305	0.06	95461	keystroke	s	n/a
48.0755	0.075	96151	keystroke	Key.enter	n/a
48.158	6.4	96316	prompt	n/a	tunisia casey that attempted\n
48.9605	0.075	97921	keystroke	t	n/a
49.1105	0.075	98221	keystroke	u	n/a
49.3505	0.075	98701	keystroke	n	n/a
49.4705	0.12	98941	keystroke	i	n/a
49.9805	0.075	99961	keystroke	s	n/a
50.0705	0.075	100141	keystroke	i	n/a
50.1755	0.075	100351	keystroke	a	n/a
50.2805	0.09	100561	keystroke	Key.space	n/a
50.5655	0.09	101131	keystroke	c	n/a
50.8805	0.12	101761	keystroke	a	n/a
50.9705	0.105	101941	keystroke	s	n/a
51.2255	0.105	102451	keystroke	e	n/a
51.8105	0.075	103621	keystroke	y	n/a
51.9605	0.075	103921	keystroke	Key.space	n/a
52.1555	0.06	104311	keystroke	t	n/a
52.2305	0.09	104461	keystroke	h	n/a
52.3355	0.075	104671	keystroke	a	n/a
52.4555	0.06	104911	keystroke	t	n/a
52.5605	0.06	105121	keystroke	Key.space	n/a
53.2205	0.075	106441	keystroke	a	n/a
53.3555	0.06	106711	keystroke	t	n/a
53.5055	0.075	107011	keystroke	t	n/a
53.6105	0.09	107221	keystroke	e	n/a
53.7305	0.105	107461	keystroke	m	n/a
53.8805	0.06	107761	keystroke	p	n/a
53.9555	0.075	107911	keystroke	t	n/a
54.1355	0.105	108271	keystroke	e	n/a
54.1955	0.105	108391	keystroke	d	n/a
54.4805	0.075	108961	keystroke	Key.enter	n/a
54.5685	8.629	109137	prompt	n/a	antonio festivals drawn definitions\n
55.1105	0.075	110221	keystroke	a	n/a
55.2755	0.06	110551	keystroke	n	n/a
55.3955	0.075	110791	keystroke	t	n/a
55.4855	0.119	110971	keystroke	i	n/a
55.9195	0.045	111839	keystroke	Key.backspace	n/a
56.1455	0.135	112291	keystroke	o	n/a
56.1905	0.135	112381	keystroke	n	n/a
56.4755	0.105	112951	keystroke	i	n/a
56.7155	0.075	113431	keystroke	o	n/a
56.8955	0.089	113791	keystroke	Key.space	n/a
57.2705	0.09	114541	keystroke	f	n/a
57.3745	0.061	114749	keystroke	e	n/a
57.5405	0.104	115081	keystroke	s	n/a
57.6605	0.075	115321	keystroke	t	n/a
57.8405	0.105	115681	keystroke	i	n/a
58.0505	0.075	116101	keystroke	v	n/a
58.2455	0.0895	116491	keystroke	a	n/a
58.365	0.12	116730	keystroke	l	n/a
58.635	0.09	117270	keystroke	s	n/a
58.86	0.09	117720	keystroke	Key.space	n/a
59.19	0.09	118380	keystroke	d	n/a
59.37	0.075	118740	keystroke	r	n/a
59.49	0.105	118980	keystroke	a	n/a
59.685	0.075	119370	keystroke	w	n/a
59.79	0.09	119580	keystroke	n	n/a
60.18	0.105	120360	keystroke	Key.space	n/a
60.5405	0.09	121081	keystroke	Key.backspace	n/a
60.9755	0.105	121951	keystroke	Key.space	n/a
61.4255	0.105	122851	keystroke	d	n/a
61.5155	0.075	123031	keystroke	e	n/a
61.6055	0.075	123211	keystroke	f	n/a
61.6955	0.09	123391	keystroke	i	n/a
61.7405	0.09	123481	keystroke	n	n/a
61.8905	0.075	123781	keystroke	i	n/a
62.0255	0.075	124051	keystroke	t	n/a
62.2355	0.09	124471	keystroke	i	n/a
62.3705	0.12	124741	keystroke	o	n/a
62.4295	0.106	124859	keystroke	n	n/a
62.6705	0.075	125341	keystroke	s	n/a
63.1205	0.074	126241	keystroke	Key.enter	n/a
63.2025	7.5845	126405	prompt	n/a	congressional decor thereafter miller\n
63.8405	0.09	127681	keystroke	c	n/a
63.9755	0.105	127951	keystroke	o	n/a
64.0205	0.105	128041	keystroke	n	n/a
64.1555	0.075	128311	keystroke	g	n/a
64.3505	0.1195	128701	keystroke	r	n/a
64.455	0.09	128910	keystroke	e	n/a
65.43	0.09	130860	keystroke	s	n/a
65.565	0.075	131130	keystroke	s	n/a
65.67	0.105	131340	keystroke	i	n/a
66.045	0.105	132090	keystroke	o	n/a
66.09	0.12	132180	keystroke	n	n/a
66.315	0.09	132630	keystroke	a	n/a
66.42	0.075	132840	keystroke	l	n/a
66.57	0.105	133140	keystroke	Key.space	n/a
66.78	0.09	133560	keystroke	d	n/a
66.9	0.105	133800	keystroke	e	n/a
66.99	0.09	133980	keystroke	c	n/a
67.095	0.09	134190	keystroke	o	n/a
67.2	0.075	134400	keystroke	r	n/a
67.41	0.075	134820	keystroke	Key.space	n/a
67.815	0.045	135630	keystroke	t	n/a
67.905	0.09	135810	keystroke	h	n/a
68.16	0.075	136320	keystroke	e	n/a
68.22	0.09	136440	keystroke	r	n/a
68.325	0.0895	136650	keystroke	e	n/a
68.7005	0.119	137401	keystroke	a	n/a
68.9105	0.075	137821	keystroke	f	n/a
69.0755	0.059	138151	keystroke	t	n/a
69.1655	0.074	138331	keystroke	e	n/a
69.2255	0.09	138451	keystroke	r	n/a
69.5545	0.09	139109	keystroke	Key.space	n/a
69.7505	0.09	139501	keystroke	m	n/a
69.9445	0.091	139889	keystroke	i	n/a
70.0195	0.076	140039	keystroke	l	n/a
70.1555	0.089	140311	keystroke	l	n/a
70.2905	0.075	140581	keystroke	e	n/a
70.3355	0.074	140671	keystroke	r	n/a
70.6945	0.09	141389	keystroke	Key.enter	n/a
70.792	5.3945	141584	prompt	n/a	accessory yacht fresh out\n
71.4005	0.059	142801	keystroke	a	n/a
71.5355	0.104	143071	keystroke	c	n/a
71.7005	0.075	143401	keystroke	c	n/a
71.7895	0.09	143579	keystroke	e	n/a
71.9855	0.12	143971	keystroke	s	n/a
72.1655	0.105	144331	keystroke	s	n/a
72.3755	0.075	144751	keystroke	o	n/a
72.4805	0.09	144961	keystroke	r	n/a
72.6005	0.09	145201	keystroke	y	n/a
72.7495	0.105	145499	keystroke	Key.space	n/a
73.0355	0.105	146071	keystroke	y	n/a
73.1555	0.104	146311	keystroke	a	n/a
73.3955	0.09	146791	keystroke	c	n/a
73.5155	0.104	147031	keystroke	h	n/a
73.9055	0.06	147811	keystroke	t	n/a
74.0695	0.075	148139	keystroke	Key.space	n/a
74.4455	0.09	148891	keystroke	f	n/a
74.6105	0.105	149221	keystroke	r	n/a
74.7305	0.06	149461	keystroke	e	n/a
75.0305	0.029	150061	keystroke	s	n/a
75.2855	0.075	150571	keystroke	h	n/a
75.4495	0.106	150899	keystroke	Key.space	n/a
75.6005	0.105	151201	keystroke	o	n/a
75.6455	0.09	151291	keystroke	u	n/a
75.7505	0.06	151501	keystroke	t	n/a
76.1405	0.044	152281	keystroke	Key.enter	n/a
76.191	4.9615	152382	prompt	n/a	insertion urgent owners able\n
76.7705	0.12	153541	keystroke	i	n/a
76.9955	0.09	153991	keystroke	n	n/a
77.1155	0.09	154231	keystroke	s	n/a
77.2955	0.074	154591	keystroke	e	n/a
77.3555	0.09	154711	keystroke	r	n/a
77.5205	0.06	155041	keystroke	t	n/a
77.5955	0.09	155191	keystroke	i	n/a
77.7005	0.119	155401	keystroke	o	n/a
77.7905	0.15	155581	keystroke	n	n/a
78.1055	0.105	156211	keystroke	Key.space	n/a
78.3005	0.09	156601	keystroke	u	n/a
78.4205	0.075	156841	keystroke	r	n/a
78.6005	0.06	157201	keystroke	g	n/a
78.7055	0.089	157411	keystroke	e	n/a
78.8695	0.091	157739	keystroke	n	n/a
79.1105	0.06	158221	keystroke	t	n/a
79.2455	0.09	158491	keystroke	Key.space	n/a
79.6055	0.09	159211	keystroke	o	n/a
79.7405	0.075	159481	keystroke	w	n/a
79.8305	0.09	159661	keystroke	n	n/a
79.9505	0.075	159901	keystroke	e	n/a
80.0105	0.09	160021	keystroke	r	n/a
80.1155	0.09	160231	keystroke	s	n/a
80.2495	0.091	160499	keystroke	Key.space	n/a
80.5055	0.09	161011	keystroke	a	n/a
80.6095	0.061	161219	keystroke	b	n/a
80.7605	0.075	161521	keystroke	l	n/a
80.8655	0.075	161731	keystroke	e	n/a
81.1055	0.045	162211	keystroke	Key.enter	n/a
81.1565	7.766	162313	prompt	n/a	lemon seniors ruby developmental\n
81.8405	0.12	163681	keystroke	l	n/a
81.9755	0.075	163951	keystroke	e	n/a
82.0955	0.09	164191	keystroke	m	n/a
82.2455	0.09	164491	keystroke	o	n/a
82.2905	0.105	164581	keystroke	n	n/a
82.4105	0.105	164821	keystroke	Key.space	n/a
82.6055	0.09	165211	keystroke	s	n/a
82.9055	0.045	165811	keystroke	e	n/a
82.9805	0.075	165961	keystroke	n	n/a
83.1755	0.12	166351	keystroke	i	n/a
83.3105	0.12	166621	keystroke	o	n/a
83.5355	0.09	167071	keystroke	r	n/a
83.6555	0.105	167311	keystroke	s	n/a
83.7905	0.09	167581	keystroke	Key.space	n/a
84.0905	0.09	168181	keystroke	r	n/a
84.2705	0.09	168541	keystroke	u	n/a
84.3305	0.105	168661	keystroke	b	n/a
84.5105	0.075	169021	keystroke	y	n/a
84.6755	0.105	169351	keystroke	Key.space	n/a
85.0055	0.075	170011	keystroke	d	n/a
85.0655	0.075	170131	keystroke	e	n/a
85.3055	0.09	170611	keystroke	v	n/a
85.4405	0.105	170881	keystroke	e	n/a
86.7755	0.03	173551	keystroke	k	n/a
87.0455	0.09	174091	keystroke	Key.backspace	n/a
87.2405	0.075	174481	keystroke	l	n/a
87.4505	0.12	174901	keystroke	o	n/a
87.5555	0.09	175111	keystroke	p	n/a
88.0055	0.09	176011	keystroke	m	n/a
88.1405	0.105	176281	keystroke	e	n/a
88.2305	0.09	176461	keystroke	n	n/a
88.3355	0.06	176671	keystroke	t	n/a
88.4855	0.075	176971	keystroke	a	n/a
88.5305	0.105	177061	keystroke	l	n/a
88.8605	0.06	177721	keystroke	Key.enter	n/a
88.928	8.8295	177856	prompt	n/a	amsterdam journalists oxygen doctors\n
89.4755	0.06	178951	keystroke	a	n/a
89.7305	0.105	179461	keystroke	m	n/a
90.0605	0.09	180121	keystroke	s	n/a
90.2705	0.09	180541	keystroke	t	n/a
90.4505	0.045	180901	keystroke	e	n/a
90.4655	0.06	180931	keystroke	r	n/a
91.1855	0.015	182371	keystroke	d	n/a
91.2305	0.135	182461	keystroke	a	n/a
91.3205	0.12	182641	keystroke	m	n/a
91.5295	0.121	183059	keystroke	Key.space	n/a
91.8295	0.106	183659	keystroke	j	n/a
92.0105	0.134	184021	keystroke	o	n/a
92.0705	0.105	184141	keystroke	u	n/a
92.46	0.09	184920	keystroke	r	n/a
92.595	0.105	185190	keystroke	n	n/a
92.715	0.12	185430	keystroke	a	n/a
93.06	0.105	186120	keystroke	l	n/a
93.0905	0.1195	186181	keystroke	i	n/a
93.255	0.09	186510	keystroke	s	n/a
93.405	0.045	186810	keystroke	t	n/a
93.87	0.075	187740	keystroke	Key.space	n/a
94.17	0.075	188340	keystroke	Key.backspace	n/a
94.26	0.1205	188520	keystroke	s	n/a
94.4555	0.12	188911	keystroke	Key.space	n/a
95.01	0.075	190020	keystroke	o	n/a
95.1	0.105	190200	keystroke	x	n/a
95.31	0.06	190620	keystroke	y	n/a
95.6405	0.0745	191281	keystroke	g	n/a
95.82	0.06	191640	keystroke	e	n/a
95.911	0.075	191822	keystroke	n	n/a
96.045	0.12	192090	keystroke	Key.space	n/a
96.466	0.09	192932	keystroke	d	n/a
96.57	0.075	193140	keystroke	o	n/a
96.66	0.075	193320	keystroke	c	n/a
96.84	0.09	193680	keystroke	t	n/a
96.975	0.09	193950	keystroke	o	n/a
97.14	0.06	194280	keystroke	r	n/a
97.29	0.09	194580	keystroke	s	n/a
97.665	0.09	195330	keystroke	Key.enter	n/a
97.763	8.5295	195526	prompt	n/a	investigate autos syndication except\n
98.7005	0.105	197401	keystroke	i	n/a
98.7455	0.105	197491	keystroke	n	n/a
98.9405	0.06	197881	keystroke	v	n/a
99.0455	0.09	198091	keystroke	e	n/a
99.2405	0.075	198481	keystroke	s	n/a
99.3305	0.06	198661	keystroke	t	n/a
99.4505	0.105	198901	keystroke	i	n/a
99.7205	0.09	199441	keystroke	g	n/a
99.9155	0.09	199831	keystroke	a	n/a
100.0655	0.09	200131	keystroke	t	n/a
100.1255	0.075	200251	keystroke	e	n/a
100.3205	0.075	200641	keystroke	Key.space	n/a
100.7555	0.075	201511	keystroke	a	n/a
100.8905	0.045	201781	keystroke	u	n/a
101.0105	0.06	202021	keystroke	t	n/a
101.1755	0.105	202351	keystroke	i	n/a
101.2355	0.09	202471	keystroke	o	n/a
101.5505	0.09	203101	keystroke	Key.backspace	n/a
101.715	0.075	203430	keystroke	Key.backspace	n/a
101.88	0.105	203760	keystroke	o	n/a
102	0.0755	204000	keystroke	s	n/a
102.3755	0.1045	204751	keystroke	Key.space	n/a
102.72	0.09	205440	keystroke	s	n/a
102.8405	0.0895	205681	keystroke	y	n/a
103.0505	0.0745	206101	keystroke	n	n/a
103.8155	0.0895	207631	keystroke	d	n/a
103.92	0.09	207840	keystroke	i	n/a
104.055	0.09	208110	keystroke	c	n/a
104.22	0.075	208440	keystroke	a	n/a
104.355	0.06	208710	keystroke	t	n/a
104.445	0.06	208890	keystroke	i	n/a
104.49	0.1355	208980	keystroke	o	n/a
104.595	0.12	209190	keystroke	n	n/a
104.85	0.105	209700	keystroke	Key.space	n/a
105.105	0.015	210210	keystroke	e	n/a
105.301	0.089	210602	keystroke	x	n/a
105.435	0.105	210870	keystroke	c	n/a
105.75	0.075	211500	keystroke	e	n/a
105.885	0.09	211770	keystroke	p	n/a
105.9765	0.0735	211953	keystroke	t	n/a
106.2	0.09	212400	keystroke	Key.enter	n/a
106.2975	6.88	212595	prompt	n/a	temperature mardi folder referral\n
106.86	0.075	213720	keystroke	t	n/a
106.936	0.089	213872	keystroke	e	n/a
107.115	0.09	214230	keystroke	m	n/a
107.28	0.09	214560	keystroke	p	n/a
107.43	0.09	214860	keystroke	e	n/a
107.505	0.075	215010	keystroke	r	n/a
107.775	0.075	215550	keystroke	a	n/a
107.925	0.045	215850	keystroke	t	n/a
108	0.09	216000	keystroke	u	n/a
108.12	0.09	216240	keystroke	r	n/a
108.225	0.105	216450	keystroke	e	n/a
108.42	0.09	216840	keystroke	Key.space	n/a
108.78	0.09	217560	keystroke	m	n/a
108.975	0.09	217950	keystroke	a	n/a
109.05	0.075	218100	keystroke	r	n/a
109.215	0.12	218430	keystroke	d	n/a
109.35	0.045	218700	keystroke	i	n/a
109.44	0.09	218880	keystroke	Key.space	n/a
109.71	0.09	219420	keystroke	f	n/a
109.83	0.075	219660	keystroke	o	n/a
110.01	0.09	220020	keystroke	l	n/a
110.13	0.075	220260	keystroke	d	n/a
110.25	0.09	220500	keystroke	e	n/a
110.31	0.06	220620	keystroke	r	n/a
110.475	0.09	220950	keystroke	Key.space	n/a
110.79	0.09	221580	keystroke	m	n/a
111.045	0.075	222090	keystroke	Key.backspace	n/a
111.181	0.059	222362	keystroke	r	n/a
111.225	0.06	222450	keystroke	e	n/a
111.375	0.105	222750	keystroke	f	n/a
111.615	0.075	223230	keystroke	f	n/a
111.75	0.075	223500	keystroke	e	n/a
111.81	0.075	223620	keystroke	r	n/a
112.005	0.09	224010	keystroke	a	n/a
112.8755	0.075	225751	keystroke	l	n/a
113.1005	0.075	226201	keystroke	Key.enter	n/a
113.1825	6.6995	226365	prompt	n/a	suspension financial patents location\n
113.7455	0.12	227491	keystroke	s	n/a
113.9705	0.105	227941	keystroke	u	n/a
114.1205	0.105	228241	keystroke	s	n/a
114.3005	0.09	228601	keystroke	p	n/a
114.4505	0.09	228901	keystroke	e	n/a
114.5255	0.075	229051	keystroke	n	n/a
114.6305	0.09	229261	keystroke	s	n/a
114.7205	0.09	229441	keystroke	i	n/a
114.8405	0.12	229681	keystroke	o	n/a
114.9005	0.12	229801	keystroke	n	n/a
115.0355	0.105	230071	keystroke	Key.space	n/a
115.6655	0.075	231331	keystroke	f	n/a
115.7855	0.135	231571	keystroke	i	n/a
115.8455	0.09	231691	keystroke	n	n/a
116.2355	0.09	232471	keystroke	a	n/a
116.3555	0.075	232711	keystroke	n	n/a
116.4905	0.09	232981	keystroke	c	n/a
116.5955	0.105	233191	keystroke	i	n/a
116.8055	0.09	233611	keystroke	a	n/a
116.9705	0.105	233941	keystroke	l	n/a
117.1655	0.105	234331	keystroke	Key.space	n/a
117.6455	0.15	235291	keystroke	p	n/a
117.7355	0.09	235471	keystroke	a	n/a
117.9005	0.075	235801	keystroke	t	n/a
117.9905	0.075	235981	keystroke	e	n/a
118.1105	0.075	236221	keystroke	n	n/a
118.3505	0.075	236701	keystroke	t	n/a
118.5605	0.06	237121	keystroke	s	n/a
118.6355	0.09	237271	keystroke	Key.space	n/a
118.8605	0.075	237721	keystroke	l	n/a
119.0255	0.09	238051	keystroke	o	n/a
119.0855	0.09	238171	keystroke	c	n/a
119.2055	0.09	238411	keystroke	a	n/a
119.3555	0.075	238711	keystroke	t	n/a
119.4155	0.075	238831	keystroke	i	n/a
119.5205	0.105	239041	keystroke	o	n/a
119.5805	0.09	239161	keystroke	n	n/a
119.8055	0.075	239611	keystroke	Key.enter	n/a
119.887	8.8455	239774	prompt	n/a	currency pursue held municipality\n
120.3905	0.105	240781	keystroke	c	n/a
120.4655	0.105	240931	keystroke	u	n/a
120.6005	0.06	241201	keystroke	r	n/a
120.7205	0.075	241441	keystroke	r	n/a
120.8405	0.09	241681	keystroke	e	n/a
120.9755	0.09	241951	keystroke	n	n/a
121.1405	0.105	242281	keystroke	c	n/a
121.2305	0.09	242461	keystroke	y	n/a
121.3805	0.09	242761	keystroke	Key.space	n/a
121.7105	0.03	243421	keystroke	p	n/a
121.7705	0.105	243541	keystroke	p	n/a
122.2655	0.105	244531	keystroke	Key.backspace	n/a
122.3855	0.105	244771	keystroke	u	n/a
122.476	0.0745	244952	keystroke	r	n/a
122.7605	0.09	245521	keystroke	s	n/a
122.8355	0.075	245671	keystroke	u	n/a
122.9705	0.06	245941	keystroke	e	n/a
123.1955	0.105	246391	keystroke	Key.space	n/a
123.4505	0.09	246901	keystroke	h	n/a
123.5555	0.075	247111	keystroke	e	n/a
123.6605	0.091	247321	keystroke	l	n/a
123.7955	0.09	247591	keystroke	d	n/a
123.9455	0.105	247891	keystroke	Key.space	n/a
124.425	0.105	248850	keystroke	m	n/a
124.755	0.105	249510	keystroke	n	n/a
125.145	0.09	250290	keystroke	Key.backspace	n/a
125.28	0.105	250560	keystroke	u	n/a
125.475	0.09	250950	keystroke	n	n/a
126.12	0.09	252240	keystroke	i	n/a
127.2	0.105	254400	keystroke	c	n/a
127.335	0.12	254670	keystroke	i	n/a
127.5	0.0905	255000	keystroke	p	n/a
127.9805	0.09	255961	keystroke	a	n/a
128.0255	0.18	256051	keystroke	l	n/a
128.1455	0.12	256291	keystroke	i	n/a
128.2805	0.075	256561	keystroke	t	n/a
128.3855	0.075	256771	keystroke	y	n/a
128.6555	0.075	257311	keystroke	Key.enter	n/a
128.7375	4.7355	257475	prompt	n/a	charge obvious witness wave\n
129.3155	0.105	258631	keystroke	c	n/a
129.4055	0.075	258811	keystroke	h	n/a
129.4955	0.06	258991	keystroke	a	n/a
129.5705	0.06	259141	keystroke	r	n/a
129.7505	0.09	259501	keystroke	g	n/a
129.8105	0.105	259621	keystroke	e	n/a
129.9305	0.06	259861	keystroke	Key.space	n/a
130.0805	0.09	260161	keystroke	o	n/a
130.2905	0.075	260581	keystroke	b	n/a
130.5905	0.075	261181	keystroke	v	n/a
130.7855	0.091	261571	keystroke	i	n/a
130.9055	0.121	261811	keystroke	o	n/a
130.9805	0.09	261961	keystroke	u	n/a
131.0555	0.09	262111	keystroke	s	n/a
131.1905	0.09	262381	keystroke	Key.space	n/a
131.4155	0.06	262831	keystroke	w	n/a
131.6555	0.09	263311	keystroke	i	n/a
131.7605	0.075	263521	keystroke	t	n/a
131.9255	0.075	263851	keystroke	n	n/a
132.0155	0.075	264031	keystroke	e	n/a
132.1955	0.06	264391	keystroke	s	n/a
132.3005	0.045	264601	keystroke	s	n/a
132.4955	0.105	264991	keystroke	Key.space	n/a
132.6605	0.06	265321	keystroke	w	n/a
132.8405	0.06	265681	keystroke	a	n/a
133.0205	0.09	266041	keystroke	v	n/a
133.0805	0.075	266161	keystroke	e	n/a
133.3955	0.075	266791	keystroke	Key.enter	n/a
133.48	8.0325	266960	prompt	n/a	concerning however angola traditions\n
134.6255	0.075	269251	keystroke	c	n/a
134.7155	0.105	269431	keystroke	o	n/a
134.7605	0.09	269521	keystroke	n	n/a
134.8955	0.06	269791	keystroke	v	n/a
135.2105	0.09	270421	keystroke	Key.backspace	n/a
135.3305	0.12	270661	keystroke	c	n/a
135.7655	0.09	271531	keystroke	e	n/a
135.8255	0.09	271651	keystroke	r	n/a
135.9165	0.104	271833	keystroke	n	n/a
136.1255	0.12	272251	keystroke	i	n/a
136.2155	0.105	272431	keystroke	n	n/a
136.3055	0.06	272611	keystroke	g	n/a
136.4255	0.105	272851	keystroke	Key.space	n/a
136.7855	0.105	273571	keystroke	h	n/a
136.8605	0.09	273721	keystroke	o	n/a
136.9655	0.09	273931	keystroke	w	n/a
137.3705	0.06	274741	keystroke	e	n/a
137.5515	0.074	275103	keystroke	v	n/a
137.6555	0.12	275311	keystroke	e	n/a
137.7455	0.075	275491	keystroke	r	n/a
137.8355	0.09	275671	keystroke	Key.space	n/a
138.2555	0.075	276511	keystroke	a	n/a
138.4655	0.061	276931	keystroke	g	n/a
138.72	0.075	277440	keystroke	Key.backspace	n/a
138.8715	0.089	277743	keystroke	n	n/a
138.9765	0.0735	277953	keystroke	g	n/a
139.0955	0.045	278191	keystroke	o	n/a
139.215	0.106	278430	keystroke	l	n/a
139.455	0.0905	278910	keystroke	a	n/a
139.575	0.09	279150	keystroke	Key.space	n/a
139.8155	0.075	279631	keystroke	t	n/a
140.0105	0.091	280021	keystroke	r	n/a
140.1905	0.0755	280381	keystroke	a	n/a
140.445	0.0755	280890	keystroke	d	n/a
140.6265	0.0895	281253	keystroke	i	n/a
140.835	0.0915	281670	keystroke	t	n/a
140.94	0.0755	281880	keystroke	i	n/a
141.045	0.1055	282090	keystroke	o	n/a
141.106	0.1045	282212	keystroke	n	n/a
141.255	0.105	282510	keystroke	s	n/a
141.4355	0.0745	282871	keystroke	Key.enter	n/a
141.5175	10.4945	283035	prompt	n/a	compatible defensive individually herself\n
141.99	0.09	283980	keystroke	c	n/a
142.065	0.106	284130	keystroke	o	n/a
142.096	0.1195	284192	keystroke	m	n/a
142.26	0.106	284520	keystroke	p	n/a
142.621	0.089	285242	keystroke	a	n/a
142.801	0.074	285602	keystroke	t	n/a
142.92	0.105	285840	keystroke	i	n/a
143.325	0.075	286650	keystroke	b	n/a
143.46	0.09	286920	keystroke	l	n/a
143.565	0.09	287130	keystroke	e	n/a
143.685	0.105	287370	keystroke	Key.space	n/a
144.045	0.075	288090	keystroke	d	n/a
144.135	0.075	288270	keystroke	e	n/a
144.24	0.076	288480	keystroke	f	n/a
144.676	0.089	289352	keystroke	e	n/a
144.781	0.089	289562	keystroke	n	n/a
144.856	0.089	289712	keystroke	i	n/a
144.93	0.09	289860	keystroke	s	n/a
145.245	0.075	290490	keystroke	Key.backspace	n/a
145.365	0.075	290730	keystroke	Key.backspace	n/a
145.441	0.06	290882	keystroke	s	n/a
145.576	0.104	291152	keystroke	i	n/a
145.696	0.059	291392	keystroke	v	n/a
145.741	0.09	291482	keystroke	e	n/a
145.89	0.06	291780	keystroke	Key.space	n/a
146.341	0.104	292682	keystroke	i	n/a
146.415	0.076	292830	keystroke	n	n/a
146.46	0.106	292920	keystroke	d	n/a
146.655	0.075	293310	keystroke	i	n/a
146.97	0.09	293940	keystroke	d	n/a
147.48	0.09	294960	keystroke	Key.backspace	n/a
147.601	0.09	295202	keystroke	v	n/a
147.75	0.091	295500	keystroke	i	n/a
147.871	0.09	295742	keystroke	d	n/a
148.051	0.075	296102	keystroke	u	n/a
148.246	0.1195	296492	keystroke	a	n/a
148.381	0.0745	296762	keystroke	l	n/a
148.5155	0.06	297031	keystroke	l	n/a
148.6055	0.06	297211	keystroke	y	n/a
148.8155	0.06	297631	keystroke	Key.space	n/a
149.2955	0.075	298591	keystroke	h	n/a
149.3555	0.105	298711	keystroke	e	n/a
149.4755	0.09	298951	keystroke	r	n/a
149.7005	0.015	299401	keystroke	s	n/a
149.7455	0.075	299491	keystroke	s	n/a
149.9255	0.015	299851	keystroke	e	n/a
150.57	0.06	301140	keystroke	Key.backspace	n/a
150.75	0.06	301500	keystroke	Key.backspace	n/a
151.036	0.06	302072	keystroke	e	n/a
151.201	0.09	302402	keystroke	l	n/a
151.666	0.089	303332	keystroke	f	n/a
151.935	0.075	303870	keystroke	Key.enter	n/a
152.0165	4.766	304033	prompt	n/a	central calls screening earning\n
152.5205	0.075	305041	keystroke	c	n/a
152.5965	0.074	305193	keystroke	e	n/a
152.6855	0.09	305371	keystroke	n	n/a
152.7905	0.06	305581	keystroke	t	n/a
152.9555	0.075	305911	keystroke	r	n/a
153.0905	0.09	306181	keystroke	a	n/a
153.1955	0.075	306391	keystroke	l	n/a
153.3155	0.105	306631	keystroke	Key.space	n/a
153.4655	0.075	306931	keystroke	c	n/a
153.6005	0.09	307201	keystroke	a	n/a
153.7055	0.045	307411	keystroke	l	n/a
153.8255	0.09	307651	keystroke	l	n/a
153.9005	0.09	307801	keystroke	s	n/a
154.0805	0.12	308161	keystroke	Key.space	n/a
154.546	0.105	309092	keystroke	s	n/a
154.696	0.09	309392	keystroke	c	n/a
154.876	0.09	309752	keystroke	r	n/a
154.921	0.075	309842	keystroke	e	n/a
155.071	0.09	310142	keystroke	e	n/a
155.236	0.09	310472	keystroke	n	n/a
155.461	0.105	310922	keystroke	i	n/a
155.521	0.09	311042	keystroke	n	n/a
155.641	0.075	311282	keystroke	g	n/a
155.731	0.09	311462	keystroke	Key.space	n/a
155.971	0.075	311942	keystroke	e	n/a
156.151	0.06	312302	keystroke	a	n/a
156.212	0.089	312424	keystroke	r	n/a
156.286	0.074	312572	keystroke	n	n/a
156.39	0.106	312780	keystroke	i	n/a
156.465	0.0755	312930	keystroke	n	n/a
156.51	0.06	313020	keystroke	g	n/a
156.69	0.09	313380	keystroke	Key.enter	n/a
156.7865	5.591	313573	prompt	n/a	slide crest syntax property\n
157.291	0.075	314582	keystroke	s	n/a
157.351	0.119	314702	keystroke	l	n/a
157.396	0.119	314792	keystroke	i	n/a
157.485	0.106	314970	keystroke	d	n/a
157.56	0.075	315120	keystroke	e	n/a
157.68	0.075	315360	keystroke	Key.space	n/a
157.83	0.075	315660	keystroke	c	n/a
157.995	0.075	315990	keystroke	r	n/a
158.041	0.075	316082	keystroke	e	n/a
158.22	0.076	316440	keystroke	a	n/a
158.596	0.075	317192	keystroke	Key.backspace	n/a
158.641	0.09	317282	keystroke	s	n/a
158.716	0.075	317432	keystroke	t	n/a
158.866	0.105	317732	keystroke	Key.space	n/a
159.301	0.075	318602	keystroke	s	n/a
159.571	0.06	319142	keystroke	y	n/a
159.721	0.075	319442	keystroke	n	n/a
159.886	0.075	319772	keystroke	t	n/a
160.066	0.075	320132	keystroke	a	n/a
160.276	0.075	320552	keystroke	x	n/a
160.411	0.06	320822	keystroke	Key.space	n/a
160.636	0.09	321272	keystroke	p	n/a
160.756	0.075	321512	keystroke	r	n/a
160.816	0.12	321632	keystroke	o	n/a
160.906	0.09	321812	keystroke	p	n/a
161.101	0.075	322202	keystroke	e	n/a
161.146	0.09	322292	keystroke	r	n/a
161.386	0.06	322772	keystroke	y	n/a
161.896	0.075	323792	keystroke	Key.backspace	n/a
162.001	0.06	324002	keystroke	t	n/a
162.151	0.045	324302	keystroke	y	n/a
162.286	0.09	324572	keystroke	Key.enter	n/a
162.3825	6.73	324765	prompt	n/a	service anti clinic computing\n
162.8855	0.0755	325771	keystroke	s	n/a
163.366	0.075	326732	keystroke	e	n/a
163.411	0.0745	326822	keystroke	r	n/a
163.621	0.06	327242	keystroke	v	n/a
163.786	0.105	327572	keystroke	i	n/a
163.996	0.09	327992	keystroke	c	n/a
164.087	0.089	328174	keystroke	e	n/a
164.236	0.075	328472	keystroke	Key.space	n/a
164.566	0.105	329132	keystroke	a	n/a
164.686	0.075	329372	keystroke	n	n/a
164.791	0.075	329582	keystroke	t	n/a
164.896	0.09	329792	keystroke	i	n/a
165.016	0.09	330032	keystroke	Key.space	n/a
165.256	0.105	330512	keystroke	c	n/a
165.346	0.15	330692	keystroke	l	n/a
165.451	0.12	330902	keystroke	i	n/a
165.676	0.09	331352	keystroke	n	n/a
165.886	0.075	331772	keystroke	i	n/a
166.051	0.09	332102	keystroke	c	n/a
166.471	0.06	332942	keystroke	Key.space	n/a
166.606	0.09	333212	keystroke	c	n/a
166.681	0.12	333362	keystroke	i	n/a
166.786	0.03	333572	keystroke	m	n/a
166.951	0.135	333902	keystroke	p	n/a
167.281	0.09	334562	keystroke	Key.backspace	n/a
167.446	0.075	334892	keystroke	Key.backspace	n/a
167.581	0.075	335162	keystroke	Key.backspace	n/a
167.836	0.135	335672	keystroke	o	n/a
167.926	0.135	335852	keystroke	m	n/a
168.166	0.12	336332	keystroke	p	n/a
168.271	0.075	336542	keystroke	u	n/a
168.361	0.06	336722	keystroke	t	n/a
168.676	0.105	337352	keystroke	i	n/a
168.736	0.09	337472	keystroke	n	n/a
168.811	0.075	337622	keystroke	g	n/a
169.066	0.045	338132	keystroke	Key.enter	n/a
169.117	7.676	338234	prompt	n/a	tattoo company clarke point\n
169.681	0.06	339362	keystroke	t	n/a
169.936	0.12	339872	keystroke	a	n/a
170.206	0.045	340412	keystroke	t	n/a
170.311	0.09	340622	keystroke	t	n/a
170.596	0.09	341192	keystroke	o	n/a
170.746	0.105	341492	keystroke	o	n/a
171.151	0.105	342302	keystroke	Key.space	n/a
171.511	0.105	343022	keystroke	c	n/a
171.886	0.12	343772	keystroke	o	n/a
171.946	0.12	343892	keystroke	m	n/a
172.186	0.075	344372	keystroke	p	n/a
172.741	0.09	345482	keystroke	a	n/a
173.086	0.105	346172	keystroke	n	n/a
173.221	0.06	346442	keystroke	y	n/a
173.641	0.075	347282	keystroke	Key.space	n/a
174.241	0.09	348482	keystroke	c	n/a
174.361	0.09	348722	keystroke	l	n/a
174.436	0.075	348872	keystroke	e	n/a
174.886	0.12	349772	keystroke	Key.backspace	n/a
174.991	0.09	349982	keystroke	a	n/a
175.126	0.09	350252	keystroke	r	n/a
175.276	0.09	350552	keystroke	k	n/a
175.531	0.075	351062	keystroke	e	n/a
175.711	0.09	351422	keystroke	Key.space	n/a
175.936	0.15	351872	keystroke	p	n/a
176.011	0.15	352022	keystroke	o	n/a
176.236	0.12	352472	keystroke	i	n/a
176.296	0.09	352592	keystroke	n	n/a
176.401	0.09	352802	keystroke	t	n/a
176.731	0.06	353462	keystroke	Key.enter	n/a
176.7985	9.354	353597	prompt	n/a	thorough chase park specifically\n
177.316	0.09	354632	keystroke	t	n/a
177.391	0.105	354782	keystroke	h	n/a
177.571	0.18	355142	keystroke	o	n/a
177.691	0.105	355382	keystroke	u	n/a
178.066	0.075	356132	keystroke	Key.backspace	n/a
178.156	0.075	356312	keystroke	r	n/a
178.336	0.12	356672	keystroke	o	n/a
178.381	0.09	356762	keystroke	u	n/a
178.546	0.075	357092	keystroke	g	n/a
178.591	0.09	357182	keystroke	h	n/a
178.786	0.09	357572	keystroke	Key.space	n/a
179.266	0.09	358532	keystroke	c	n/a
179.416	0.075	358832	keystroke	h	n/a
179.506	0.105	359012	keystroke	a	n/a
179.581	0.09	359162	keystroke	s	n/a
179.746	0.075	359492	keystroke	e	n/a
179.866	0.09	359732	keystroke	Key.space	n/a
180.151	0.105	360302	keystroke	p	n/a
180.271	0.0755	360542	keystroke	a	n/a
180.3615	0.09	360723	keystroke	r	n/a
180.6765	0.09	361353	keystroke	k	n/a
180.9465	0.074	361893	keystroke	Key.space	n/a
181.5615	0.06	363123	keystroke	s	n/a
182.0855	0.106	364171	keystroke	p	n/a
182.2815	0.104	364563	keystroke	e	n/a
182.5365	0.089	365073	keystroke	c	n/a
182.7305	0.06	365461	keystroke	f	n/a
183.6155	0.105	367231	keystroke	Key.backspace	n/a
183.7665	0.089	367533	keystroke	i	n/a
184.5015	0.075	369003	keystroke	f	n/a
184.6065	0.075	369213	keystroke	i	n/a
184.6965	0.12	369393	keystroke	c	n/a
184.8615	0.09	369723	keystroke	a	n/a
184.9365	0.03	369873	keystroke	l	n/a
185.0565	0.075	370113	keystroke	l	n/a
185.1465	0.06	370293	keystroke	y	n/a
185.3105	0.06	370621	keystroke	Key.space	n/a
185.8515	0.089	371703	keystroke	Key.backspace	n/a
186.0915	0.06	372183	keystroke	Key.enter	n/a
186.1575	5.9655	372315	prompt	n/a	shapes trails indian emails\n
186.7365	0.074	373473	keystroke	s	n/a
186.8265	0.089	373653	keystroke	h	n/a
186.9305	0.09	373861	keystroke	a	n/a
187.0355	0.061	374071	keystroke	p	n/a
187.1705	0.091	374341	keystroke	e	n/a
187.3665	0.075	374733	keystroke	s	n/a
187.4555	0.075	374911	keystroke	Key.space	n/a
187.7105	0.045	375421	keystroke	t	n/a
187.8305	0.121	375661	keystroke	r	n/a
187.9965	0.089	375993	keystroke	a	n/a
188.0865	0.119	376173	keystroke	i	n/a
188.1615	0.105	376323	keystroke	l	n/a
188.2965	0.0895	376593	keystroke	s	n/a
188.431	0.09	376862	keystroke	Key.space	n/a
188.821	0.135	377642	keystroke	i	n/a
188.911	0.105	377822	keystroke	n	n/a
189.001	0.105	378002	keystroke	d	n/a
189.181	0.105	378362	keystroke	i	n/a
189.406	0.03	378812	keystroke	o	n/a
189.736	0.075	379472	keystroke	Key.backspace	n/a
189.916	0.075	379832	keystroke	a	n/a
189.976	0.12	379952	keystroke	n	n/a
190.246	0.105	380492	keystroke	Key.space	n/a
190.456	0.075	380912	keystroke	e	n/a
190.516	0.075	381032	keystroke	m	n/a
190.696	0.09	381392	keystroke	a	n/a
190.771	0.12	381542	keystroke	i	n/a
190.861	0.105	381722	keystroke	l	n/a
191.071	0.075	382142	keystroke	s	n/a
192.031	0.09	384062	keystroke	Key.enter	n/a
192.1345	5.073	384269	prompt	n/a	laugh first graphics cutting\n
192.736	0.09	385472	keystroke	l	n/a
192.811	0.105	385622	keystroke	a	n/a
192.931	0.075	385862	keystroke	u	n/a
193.051	0.075	386102	keystroke	g	n/a
193.081	0.105	386162	keystroke	h	n/a
193.396	0.12	386792	keystroke	Key.space	n/a
193.831	0.075	387662	keystroke	f	n/a
193.936	0.075	387872	keystroke	i	n/a
193.996	0.09	387992	keystroke	r	n/a
194.101	0.075	388202	keystroke	s	n/a
194.191	0.06	388382	keystroke	t	n/a
194.311	0.06	388622	keystroke	Key.space	n/a
194.911	0.06	389822	keystroke	g	n/a
195.061	0.075	390122	keystroke	r	n/a
195.166	0.09	390332	keystroke	a	n/a
195.257	0.089	390514	keystroke	p	n/a
195.421	0.12	390842	keystroke	h	n/a
195.496	0.09	390992	keystroke	i	n/a
195.571	0.105	391142	keystroke	c	n/a
195.661	0.09	391322	keystroke	s	n/a
195.826	0.09	391652	keystroke	Key.space	n/a
196.366	0.09	392732	keystroke	c	n/a
196.426	0.09	392852	keystroke	u	n/a
196.577	0.059	393154	keystroke	t	n/a
196.696	0.075	393392	keystroke	t	n/a
196.801	0.105	393602	keystroke	i	n/a
196.846	0.09	393692	keystroke	n	n/a
196.921	0.06	393842	keystroke	g	n/a
197.146	0.06	394292	keystroke	Key.enter	n/a
197.212	8.8315	394424	prompt	n/a	assumes mediterranean grave robot\n
197.776	0.075	395552	keystroke	a	n/a
197.941	0.06	395882	keystroke	s	n/a
198.061	0.075	396122	keystroke	s	n/a
198.166	0.045	396332	keystroke	u	n/a
198.331	0.09	396662	keystroke	m	n/a
198.436	0.045	396872	keystroke	e	n/a
198.586	0.075	397172	keystroke	s	n/a
198.691	0.075	397382	keystroke	Key.space	n/a
199.321	0.105	398642	keystroke	m	n/a
199.771	0.12	399542	keystroke	e	n/a
199.861	0.12	399722	keystroke	d	n/a
200.341	0.105	400682	keystroke	i	n/a
200.476	0.06	400952	keystroke	t	n/a
201.106	0.09	402212	keystroke	e	n/a
201.181	0.165	402362	keystroke	r	n/a
202.081	0.075	404162	keystroke	r	n/a
202.396	0.12	404792	keystroke	a	n/a
202.501	0.09	405002	keystroke	n	n/a
202.666	0.09	405332	keystroke	e	n/a
202.921	0.09	405842	keystroke	a	n/a
202.996	0.09	405992	keystroke	n	n/a
203.791	0.015	407582	keystroke	Key.space	n/a
203.941	0.06	407882	keystroke	g	n/a
204.091	0.09	408182	keystroke	r	n/a
204.256	0.075	408512	keystroke	a	n/a
204.451	0.06	408902	keystroke	v	n/a
204.481	0.12	408962	keystroke	e	n/a
204.991	0.075	409982	keystroke	Key.space	n/a
205.201	0.09	410402	keystroke	r	n/a
205.276	0.105	410552	keystroke	o	n/a
205.501	0.09	411002	keystroke	b	n/a
205.666	0.075	411332	keystroke	o	n/a
205.786	0.075	411572	keystroke	t	n/a
205.936	0.105	411872	keystroke	Key.enter	n/a
206.05	7.748	412100	prompt	n/a	entity demonstrate and detailed\n
206.596	0.075	413192	keystroke	e	n/a
206.656	0.105	413312	keystroke	n	n/a
206.806	0.09	413612	keystroke	t	n/a
206.956	0.105	413912	keystroke	i	n/a
207.091	0.075	414182	keystroke	t	n/a
207.196	0.075	414392	keystroke	y	n/a
207.541	0.12	415082	keystroke	Key.space	n/a
207.916	0.09	415832	keystroke	d	n/a
207.991	0.09	415982	keystroke	e	n/a
208.096	0.03	416192	keystroke	n	n/a
208.171	0.105	416342	keystroke	o	n/a
208.261	0.0305	416522	keystroke	b	n/a
208.816	0.06	417632	keystroke	Key.backspace	n/a
208.966	0.045	417932	keystroke	Key.backspace	n/a
209.296	0.06	418592	keystroke	Key.backspace	n/a
209.686	0.105	419372	keystroke	m	n/a
209.851	0.12	419702	keystroke	o	n/a
209.911	0.105	419822	keystroke	n	n/a
210.181	0.075	420362	keystroke	s	n/a
210.271	0.0605	420542	keystroke	t	n/a
210.4215	0.105	420843	keystroke	r	n/a
210.5715	0.075	421143	keystroke	a	n/a
210.7215	0.09	421443	keystroke	t	n/a
210.7965	0.09	421593	keystroke	e	n/a
210.9465	0.089	421893	keystroke	Key.space	n/a
211.3815	0.09	422763	keystroke	a	n/a
211.4565	0.075	422913	keystroke	n	n/a
211.9215	0.09	423843	keystroke	d	n/a
211.9955	0.091	423991	keystroke	Key.space	n/a
212.4005	0.09	424801	keystroke	d	n/a
212.5205	0.105	425041	keystroke	e	n/a
212.8365	0.059	425673	keystroke	t	n/a
213.0015	0.09	426003	keystroke	a	n/a
213.0605	0.106	426121	keystroke	i	n/a
213.1215	0.089	426243	keystroke	l	n/a
213.2255	0.135	426451	keystroke	e	n/a
213.3015	0.089	426603	keystroke	d	n/a
213.7355	0.06	427471	keystroke	Key.enter	n/a
213.803	9.3105	427606	prompt	n/a	accommodations canyon modify baptist\n
214.366	0.1055	428732	keystroke	a	n/a
214.5765	0.059	429153	keystroke	c	n/a
214.6805	0.105	429361	keystroke	c	n/a
214.8155	0.135	429631	keystroke	o	n/a
214.9665	0.075	429933	keystroke	m	n/a
215.6105	0.091	431221	keystroke	m	n/a
215.7455	0.076	431491	keystroke	o	n/a
216.1505	0.09	432301	keystroke	d	n/a
216.3005	0.0905	432601	keystroke	a	n/a
216.436	0.06	432872	keystroke	t	n/a
216.541	0.12	433082	keystroke	i	n/a
216.751	0.09	433502	keystroke	o	n/a
216.811	0.105	433622	keystroke	n	n/a
216.931	0.075	433862	keystroke	s	n/a
217.111	0.075	434222	keystroke	Key.space	n/a
217.456	0.075	434912	keystroke	c	n/a
217.606	0.09	435212	keystroke	a	n/a
217.682	0.089	435364	keystroke	n	n/a
217.891	0.09	435782	keystroke	y	n/a
218.266	0.12	436532	keystroke	o	n/a
218.326	0.1055	436652	keystroke	n	n/a
218.5065	0.135	437013	keystroke	Key.space	n/a
218.7615	0.105	437523	keystroke	m	n/a
218.8815	0.09	437763	keystroke	o	n/a
218.9865	0.09	437973	keystroke	d	n/a
219.3765	0.12	438753	keystroke	i	n/a
219.6165	0.09	439233	keystroke	f	n/a
220.1715	0.075	440343	keystroke	y	n/a
220.3065	0.06	440613	keystroke	Key.space	n/a
220.786	0.075	441572	keystroke	b	n/a
221.041	0.09	442082	keystroke	a	n/a
221.176	0.105	442352	keystroke	p	n/a
221.656	0.045	443312	keystroke	t	n/a
221.731	0.075	443462	keystroke	i	n/a
221.836	0.075	443672	keystroke	s	n/a
221.926	0.015	443852	keystroke	s	n/a
222.211	0.045	444422	keystroke	t	n/a
222.586	0.06	445172	keystroke	Key.backspace	n/a
222.721	0.06	445442	keystroke	Key.backspace	n/a
222.841	0.075	445682	keystroke	t	n/a
223.036	0.075	446072	keystroke	Key.enter	n/a
223.1185	7.645	446237	prompt	n/a	birmingham minimal stud rugs\n
223.697	0.119	447394	keystroke	b	n/a
223.906	0.105	447812	keystroke	i	n/a
224.056	0.075	448112	keystroke	r	n/a
224.611	0.105	449222	keystroke	m	n/a
224.776	0.105	449552	keystroke	i	n/a
224.866	0.09	449732	keystroke	n	n/a
225.571	0.06	451142	keystroke	g	n/a
225.751	0.09	451502	keystroke	h	n/a
225.931	0.09	451862	keystroke	a	n/a
225.991	0.09	451982	keystroke	m	n/a
226.156	0.105	452312	keystroke	Key.space	n/a
226.816	0.12	453632	keystroke	m	n/a
227.011	0.105	454022	keystroke	i	n/a
227.071	0.106	454142	keystroke	n	n/a
227.191	0.09	454382	keystroke	i	n/a
227.626	0.09	455252	keystroke	m	n/a
227.746	0.105	455492	keystroke	a	n/a
227.852	0.059	455704	keystroke	l	n/a
228.046	0.075	456092	keystroke	Key.space	n/a
228.241	0.045	456482	keystroke	s	n/a
228.287	0.09	456574	keystroke	t	n/a
228.406	0.091	456812	keystroke	u	n/a
228.511	0.09	457022	keystroke	d	n/a
229.036	0.105	458072	keystroke	Key.space	n/a
229.142	0.119	458284	keystroke	r	n/a
229.291	0.09	458582	keystroke	a	n/a
229.456	0.06	458912	keystroke	g	n/a
229.951	0.075	459902	keystroke	Key.backspace	n/a
230.116	0.06	460232	keystroke	Key.backspace	n/a
230.237	0.119	460474	keystroke	u	n/a
230.341	0.09	460682	keystroke	g	n/a
230.461	0.105	460922	keystroke	s	n/a
230.686	0.075	461372	keystroke	Key.enter	n/a
230.768	5.035	461536	prompt	n/a	boxing he cuba june\n
231.797	0.074	463594	keystroke	b	n/a
231.887	0.104	463774	keystroke	o	n/a
232.006	0.061	464012	keystroke	x	n/a
232.096	0.09	464192	keystroke	i	n/a
232.156	0.075	464312	keystroke	n	n/a
232.217	0.074	464434	keystroke	g	n/a
232.336	0.06	464672	keystroke	Key.space	n/a
232.471	0.075	464942	keystroke	h	n/a
232.517	0.09	465034	keystroke	e	n/a
232.666	0.076	465332	keystroke	Key.space	n/a
232.996	0.105	465992	keystroke	c	n/a
233.086	0.09	466172	keystroke	u	n/a
233.131	0.09	466262	keystroke	b	n/a
233.491	0.06	466982	keystroke	e	n/a
233.776	0.075	467552	keystroke	Key.backspace	n/a
233.822	0.09	467644	keystroke	a	n/a
234.031	0.075	468062	keystroke	Key.space	n/a
234.617	0.09	469234	keystroke	j	n/a
234.811	0.105	469622	keystroke	n	n/a
235.156	0.09	470312	keystroke	Key.backspace	n/a
235.276	0.091	470552	keystroke	u	n/a
235.457	0.089	470914	keystroke	n	n/a
235.561	0.075	471122	keystroke	e	n/a
235.741	0.06	471482	keystroke	Key.enter	n/a
235.807	4.121	471614	prompt	n/a	pete number fellow face\n
236.461	0.091	472922	keystroke	p	n/a
236.536	0.076	473072	keystroke	e	n/a
236.642	0.105	473284	keystroke	t	n/a
236.761	0.075	473522	keystroke	e	n/a
236.926	0.09	473852	keystroke	Key.space	n/a
237.181	0.091	474362	keystroke	n	n/a
237.302	0.09	474604	keystroke	u	n/a
237.406	0.121	474812	keystroke	m	n/a
237.617	0.074	475234	keystroke	b	n/a
237.707	0.104	475414	keystroke	e	n/a
237.767	0.074	475534	keystroke	r	n/a
237.856	0.075	475712	keystroke	Key.space	n/a
238.187	0.075	476374	keystroke	f	n/a
238.276	0.0455	476552	keystroke	e	n/a
238.306	0.06	476612	keystroke	l	n/a
238.606	0.076	477212	keystroke	l	n/a
238.801	0.076	477602	keystroke	o	n/a
238.922	0.06	477844	keystroke	w	n/a
239.042	0.089	478084	keystroke	Key.space	n/a
239.297	0.09	478594	keystroke	f	n/a
239.447	0.075	478894	keystroke	a	n/a
239.581	0.12	479162	keystroke	c	n/a
239.657	0.074	479314	keystroke	e	n/a
239.851	0.075	479702	keystroke	Key.enter	n/a
239.932	5.9065	479864	prompt	n/a	learn bulgaria distance hugh\n
240.496	0.075	480992	keystroke	t	n/a
240.796	0.09	481592	keystroke	Key.backspace	n/a
241.006	0.045	482012	keystroke	l	n/a
241.066	0.06	482132	keystroke	e	n/a
241.516	0.075	483032	keystroke	a	n/a
241.711	0.06	483422	keystroke	r	n/a
241.786	0.09	483572	keystroke	n	n/a
241.906	0.105	483812	keystroke	Key.space	n/a
242.281	0.0755	484562	keystroke	b	n/a
242.4615	0.12	484923	keystroke	u	n/a
242.5665	0.105	485133	keystroke	l	n/a
242.9265	0.06	485853	keystroke	g	n/a
243.0465	0.09	486093	keystroke	a	n/a
243.1215	0.06	486243	keystroke	r	n/a
243.2265	0.09	486453	keystroke	i	n/a
243.3465	0.09	486693	keystroke	a	n/a
243.4515	0.09	486903	keystroke	Key.space	n/a
243.9615	0.105	487923	keystroke	d	n/a
244.0965	0.075	488193	keystroke	i	n/a
244.1715	0.09	488343	keystroke	s	n/a
244.3065	0.0305	488613	keystroke	t	n/a
244.411	0.09	488822	keystroke	a	n/a
244.517	0.089	489034	keystroke	n	n/a
244.607	0.074	489214	keystroke	c	n/a
244.651	0.091	489302	keystroke	e	n/a
244.742	0.089	489484	keystroke	Key.space	n/a
244.997	0.104	489994	keystroke	h	n/a
245.146	0.046	490292	keystroke	u	n/a
245.206	0.06	490412	keystroke	g	n/a
245.326	0.016	490652	keystroke	h	n/a
245.746	0.09	491492	keystroke	Key.enter	n/a
245.8435	8.1545	491687	prompt	n/a	correspondence undefined spine starts\n
246.376	0.075	492752	keystroke	c	n/a
246.526	0.045	493052	keystroke	i	n/a
246.646	0.015	493292	keystroke	r	n/a
246.871	0.075	493742	keystroke	Key.backspace	n/a
247.021	0.09	494042	keystroke	Key.backspace	n/a
247.112	0.089	494224	keystroke	o	n/a
247.216	0.06	494432	keystroke	r	n/a
247.351	0.075	494702	keystroke	r	n/a
247.621	0.075	495242	keystroke	e	n/a
247.891	0.105	495782	keystroke	s	n/a
248.4165	0.075	496833	keystroke	p	n/a
248.4465	0.09	496893	keystroke	o	n/a
248.6415	0.075	497283	keystroke	n	n/a
248.7915	0.06	497583	keystroke	d	n/a
249.0165	0.09	498033	keystroke	a	n/a
249.1215	0.06	498243	keystroke	n	n/a
249.2265	0.0595	498453	keystroke	c	n/a
249.2565	0.0895	498513	keystroke	e	n/a
249.361	0.09	498722	keystroke	Key.space	n/a
249.872	0.074	499744	keystroke	u	n/a
250.051	0.09	500102	keystroke	n	n/a
251.027	0.09	502054	keystroke	d	n/a
251.131	0.09	502262	keystroke	e	n/a
251.236	0.0605	502472	keystroke	f	n/a
251.3115	0.09	502623	keystroke	i	n/a
251.3565	0.075	502713	keystroke	n	n/a
251.4615	0.09	502923	keystroke	e	n/a
251.6715	0.09	503343	keystroke	d	n/a
251.7915	0.075	503583	keystroke	Key.space	n/a
252.1815	0.06	504363	keystroke	s	n/a
252.2265	0.075	504453	keystroke	p	n/a
252.4365	0.09	504873	keystroke	i	n/a
252.4815	0.075	504963	keystroke	n	n/a
252.5715	0.075	505143	keystroke	e	n/a
252.6915	0.075	505383	keystroke	Key.space	n/a
253.0065	0.09	506013	keystroke	s	n/a
253.1115	0.06	506223	keystroke	t	n/a
253.2315	0.075	506463	keystroke	a	n/a
253.3215	0.045	506643	keystroke	r	n/a
253.5315	0.045	507063	keystroke	t	n/a
253.7415	0.06	507483	keystroke	s	n/a
253.9065	0.09	507813	keystroke	Key.enter	n/a
254.0025	5.651	508005	prompt	n/a	thou admissions adaptor truck\n
254.5665	0.075	509133	keystroke	t	n/a
254.6565	0.105	509313	keystroke	h	n/a
254.7915	0.165	509583	keystroke	o	n/a
254.8515	0.12	509703	keystroke	u	n/a
255.3165	0.09	510633	keystroke	Key.space	n/a
255.6015	0.075	511203	keystroke	a	n/a
255.7815	0.075	511563	keystroke	d	n/a
255.8565	0.12	511713	keystroke	m	n/a
255.9615	0.09	511923	keystroke	i	n/a
256.0215	0.075	512043	keystroke	s	n/a
256.1565	0.075	512313	keystroke	s	n/a
256.2165	0.12	512433	keystroke	i	n/a
256.3515	0.105	512703	keystroke	o	n/a
256.4265	0.09	512853	keystroke	n	n/a
256.5315	0.075	513063	keystroke	s	n/a
256.6665	0.09	513333	keystroke	Key.space	n/a
256.8915	0.075	513783	keystroke	a	n/a
257.0565	0.09	514113	keystroke	d	n/a
257.1765	0.09	514353	keystroke	a	n/a
257.2965	0.09	514593	keystroke	p	n/a
258.0915	0.075	516183	keystroke	t	n/a
258.2115	0.09	516423	keystroke	o	n/a
258.3025	0.074	516605	keystroke	r	n/a
258.4815	0.09	516963	keystroke	Key.space	n/a
258.8715	0.045	517743	keystroke	t	n/a
258.9915	0.09	517983	keystroke	r	n/a
259.0965	0.075	518193	keystroke	u	n/a
259.2165	0.075	518433	keystroke	c	n/a
259.2925	0.119	518585	keystroke	k	n/a
259.5915	0.06	519183	keystroke	Key.enter	n/a
259.6585	9.445	519317	prompt	n/a	massage imposed reviewed knock\n
260.2515	0.09	520503	keystroke	m	n/a
260.3265	0.075	520653	keystroke	a	n/a
260.5515	0.045	521103	keystroke	s	n/a
261.0015	0.09	522003	keystroke	s	n/a
261.1965	0.075	522393	keystroke	a	n/a
261.3315	0.03	522663	keystroke	f	n/a
261.3765	0.03	522753	keystroke	g	n/a
261.4215	0.075	522843	keystroke	e	n/a
262.0365	0.045	524073	keystroke	Key.backspace	n/a
262.1265	0.12	524253	keystroke	Key.backspace	n/a
262.5615	0.045	525123	keystroke	Key.backspace	n/a
262.7715	0.105	525543	keystroke	g	n/a
262.8615	0.075	525723	keystroke	e	n/a
263.2365	0.075	526473	keystroke	Key.space	n/a
263.4315	0.105	526863	keystroke	i	n/a
263.4915	0.105	526983	keystroke	m	n/a
263.6565	0.105	527313	keystroke	p	n/a
263.9265	0.075	527853	keystroke	s	n/a
264.1065	0.105	528213	keystroke	e	n/a
264.1815	0.091	528363	keystroke	d	n/a
264.5565	0.06	529113	keystroke	Key.backspace	n/a
264.7665	0.075	529533	keystroke	Key.backspace	n/a
264.9615	0.075	529923	keystroke	Key.backspace	n/a
265.1265	0.105	530253	keystroke	o	n/a
265.2465	0.075	530493	keystroke	s	n/a
265.4565	0.03	530913	keystroke	e	n/a
265.4715	0.075	530943	keystroke	d	n/a
265.5615	0.09	531123	keystroke	Key.space	n/a
266.0565	0.105	532113	keystroke	r	n/a
266.1165	0.09	532233	keystroke	e	n/a
266.3265	0.06	532653	keystroke	v	n/a
266.4015	0.06	532803	keystroke	i	n/a
266.4625	0.074	532925	keystroke	e	n/a
266.6265	0.075	533253	keystroke	w	n/a
266.8365	0.105	533673	keystroke	e	n/a
266.9115	0.105	533823	keystroke	d	n/a
267.0615	0.075	534123	keystroke	Key.space	n/a
267.5115	0.105	535023	keystroke	k	n/a
267.7065	0.09	535413	keystroke	n	n/a
267.8265	0.09	535653	keystroke	c	n/a
267.9015	0.06	535803	keystroke	o	n/a
268.3665	0.045	536733	keystroke	Key.backspace	n/a
268.5015	0.075	537003	keystroke	Key.backspace	n/a
268.6215	0.105	537243	keystroke	o	n/a
268.7565	0.105	537513	keystroke	c	n/a
268.8465	0.09	537693	keystroke	k	n/a
269.0415	0.06	538083	keystroke	Key.enter	n/a
269.1085	9.0995	538217	prompt	n/a	respect unlock fighters fantastic\n
270.2415	0.1205	540483	keystroke	r	n/a
270.3015	0.1205	540603	keystroke	e	n/a
270.542	0.09	541084	keystroke	s	n/a
270.692	0.075	541384	keystroke	p	n/a
270.842	0.105	541684	keystroke	e	n/a
270.932	0.105	541864	keystroke	c	n/a
271.172	0.06	542344	keystroke	t	n/a
271.262	0.09	542524	keystroke	Key.space	n/a
271.967	0.09	543934	keystroke	u	n/a
272.027	0.09	544054	keystroke	n	n/a
272.207	0.09	544414	keystroke	l	n/a
272.3865	0.09	544773	keystroke	o	n/a
272.4915	0.105	544983	keystroke	c	n/a
272.5815	0.105	545163	keystroke	k	n/a
272.7615	0.105	545523	keystroke	Key.space	n/a
273.0165	0.09	546033	keystroke	f	n/a
273.1515	0.09	546303	keystroke	i	n/a
273.2565	0.075	546513	keystroke	g	n/a
273.3465	0.09	546693	keystroke	h	n/a
273.4215	0.075	546843	keystroke	t	n/a
273.5415	0.09	547083	keystroke	e	n/a
273.5865	0.09	547173	keystroke	r	n/a
273.8865	0.075	547773	keystroke	Key.space	n/a
274.2615	0.075	548523	keystroke	Key.backspace	n/a
274.367	0.105	548734	keystroke	s	n/a
274.532	0.105	549064	keystroke	Key.space	n/a
275.267	0.06	550534	keystroke	f	n/a
275.402	0.09	550804	keystroke	a	n/a
275.507	0.09	551014	keystroke	n	n/a
276.257	0.06	552514	keystroke	t	n/a
276.467	0.075	552934	keystroke	a	n/a
276.632	0.089	553264	keystroke	s	n/a
276.767	0.059	553534	keystroke	t	n/a
276.857	0.105	553714	keystroke	i	n/a
277.022	0.105	554044	keystroke	c	n/a
277.171	0.105	554342	keystroke	Key.space	n/a
277.697	0.12	555394	keystroke	Key.backspace	n/a
278.117	0.09	556234	keystroke	Key.enter	n/a
278.213	11.306	556426	prompt	n/a	routing linux stationery diamond\n
279.3915	0.06	558783	keystroke	r	n/a
279.7215	0.12	559443	keystroke	o	n/a
279.7815	0.09	559563	keystroke	u	n/a
279.9465	0.03	559893	keystroke	t	n/a
280.8915	0.135	561783	keystroke	i	n/a
280.9665	0.105	561933	keystroke	n	n/a
281.1015	0.09	562203	keystroke	g	n/a
281.3415	0.09	562683	keystroke	Key.space	n/a
281.9715	0.105	563943	keystroke	l	n/a
282.2265	0.15	564453	keystroke	i	n/a
282.3015	0.12	564603	keystroke	n	n/a
282.6765	0.061	565353	keystroke	u	n/a
283.0665	0.06	566133	keystroke	x	n/a
283.2165	0.105	566433	keystroke	Key.space	n/a
284.7475	0.119	569495	keystroke	s	n/a
284.8965	0.075	569793	keystroke	t	n/a
285.0765	0.09	570153	keystroke	a	n/a
285.2115	0.09	570423	keystroke	t	n/a
285.3165	0.105	570633	keystroke	i	n/a
285.4365	0.12	570873	keystroke	o	n/a
285.5415	0.12	571083	keystroke	n	n/a
285.9165	0.105	571833	keystroke	a	n/a
286.0065	0.09	572013	keystroke	r	n/a
286.1415	0.09	572283	keystroke	y	n/a
286.5015	0.105	573003	keystroke	Key.space	n/a
287.2815	0.091	574563	keystroke	d	n/a
287.3865	0.09	574773	keystroke	i	n/a
287.5215	0.105	575043	keystroke	a	n/a
287.6425	0.12	575285	keystroke	m	n/a
287.8375	0.104	575675	keystroke	o	n/a
287.8825	0.089	575765	keystroke	n	n/a
287.9725	0.104	575945	keystroke	d	n/a
289.4115	0.105	578823	keystroke	Key.enter	n/a
289.5255	8.3045	579051	prompt	n/a	gloves reflections informed reset\n
290.3565	0.075	580713	keystroke	g	n/a
290.4165	0.06	580833	keystroke	l	n/a
290.5815	0.09	581163	keystroke	o	n/a
290.5965	0.105	581193	keystroke	v	n/a
290.7325	0.104	581465	keystroke	e	n/a
290.9565	0.09	581913	keystroke	s	n/a
291.1065	0.105	582213	keystroke	Key.space	n/a
291.7815	0.105	583563	keystroke	r	n/a
291.8565	0.12	583713	keystroke	e	n/a
292.1265	0.075	584253	keystroke	l	n/a
292.5015	0.075	585003	keystroke	Key.backspace	n/a
292.6065	0.091	585213	keystroke	f	n/a
292.7565	0.09	585513	keystroke	l	n/a
292.8625	0.104	585725	keystroke	e	n/a
292.9365	0.106	585873	keystroke	c	n/a
293.1325	0.074	586265	keystroke	t	n/a
293.2215	0.061	586443	keystroke	i	n/a
293.3715	0.105	586743	keystroke	o	n/a
293.4025	0.119	586805	keystroke	n	n/a
293.6565	0.075	587313	keystroke	s	n/a
293.8215	0.09	587643	keystroke	Key.space	n/a
294.737	0.12	589474	keystroke	i	n/a
294.812	0.105	589624	keystroke	n	n/a
294.887	0.09	589774	keystroke	f	n/a
295.022	0.09	590044	keystroke	o	n/a
295.187	0.075	590374	keystroke	r	n/a
295.682	0.12	591364	keystroke	m	n/a
296.192	0.105	592384	keystroke	e	n/a
296.252	0.09	592504	keystroke	d	n/a
296.372	0.06	592744	keystroke	Key.space	n/a
296.912	0.09	593824	keystroke	r	n/a
296.972	0.075	593944	keystroke	e	n/a
297.137	0.09	594274	keystroke	s	n/a
297.302	0.09	594604	keystroke	e	n/a
297.377	0.075	594754	keystroke	t	n/a
297.707	0.12	595414	keystroke	Key.enter	n/a
297.835	8.7235	595670	prompt	n/a	attend it's qualifications announcement\n
298.427	0.075	596854	keystroke	a	n/a
298.592	0.06	597184	keystroke	t	n/a
298.727	0.105	597454	keystroke	t	n/a
298.847	0.12	597694	keystroke	e	n/a
298.982	0.09	597964	keystroke	n	n/a
299.222	0.09	598444	keystroke	d	n/a
299.387	0.075	598774	keystroke	Key.space	n/a
299.582	0.09	599164	keystroke	i	n/a
299.702	0.09	599404	keystroke	t	n/a
299.912	0.105	599824	keystroke	;	n/a
300.347	0.09	600694	keystroke	Key.backspace	n/a
300.872	0.075	601744	keystroke	'	n/a
300.962	0.105	601924	keystroke	s	n/a
301.112	0.105	602224	keystroke	Key.space	n/a
301.637	0.12	603274	keystroke	q	n/a
301.712	0.09	603424	keystroke	u	n/a
301.847	0.105	603694	keystroke	a	n/a
301.967	0.105	603934	keystroke	l	n/a
302.207	0.075	604414	keystroke	i	n/a
302.297	0.1055	604594	keystroke	f	n/a
302.4175	0.089	604835	keystroke	i	n/a
302.6725	0.104	605345	keystroke	c	n/a
302.9875	0.09	605975	keystroke	a	n/a
303.1825	0.075	606365	keystroke	t	n/a
303.2425	0.06	606485	keystroke	i	n/a
303.3325	0.12	606665	keystroke	o	n/a
303.4075	0.09	606815	keystroke	n	n/a
303.5125	0.09	607025	keystroke	s	n/a
303.6325	0.09	607265	keystroke	Key.space	n/a
303.9315	0.076	607863	keystroke	a	n/a
304.0215	0.106	608043	keystroke	n	n/a
304.1725	0.06	608345	keystroke	n	n/a
304.2915	0.12	608583	keystroke	o	n/a
304.3515	0.076	608703	keystroke	u	n/a
304.5465	0.03	609093	keystroke	j	n/a
304.5915	0.105	609183	keystroke	c	n/a
304.8765	0.075	609753	keystroke	Key.backspace	n/a
305.0115	0.09	610023	keystroke	Key.backspace	n/a
305.2215	0.09	610443	keystroke	n	n/a
305.3125	0.104	610625	keystroke	c	n/a
305.8215	0.075	611643	keystroke	e	n/a
305.9115	0.105	611823	keystroke	m	n/a
306.0765	0.09	612153	keystroke	e	n/a
306.1825	0.074	612365	keystroke	n	n/a
306.2575	0.074	612515	keystroke	t	n/a
306.4815	0.075	612963	keystroke	Key.enter	n/a
306.563	9.881	613126	prompt	n/a	produce evil shouldn't've scratch\n
307.2465	0.0155	614493	keystroke	p	n/a
307.2765	0.09	614553	keystroke	r	n/a
307.7565	0.105	615513	keystroke	o	n/a
307.8915	0.09	615783	keystroke	d	n/a
307.9965	0.09	615993	keystroke	u	n/a
308.1015	0.105	616203	keystroke	c	n/a
308.1915	0.09	616383	keystroke	e	n/a
308.3265	0.105	616653	keystroke	Key.space	n/a
308.522	0.104	617044	keystroke	e	n/a
308.732	0.089	617464	keystroke	v	n/a
308.837	0.105	617674	keystroke	i	n/a
308.882	0.09	617764	keystroke	l	n/a
308.972	0.074	617944	keystroke	Key.space	n/a
309.617	0.105	619234	keystroke	s	n/a
309.676	0.106	619352	keystroke	h	n/a
309.796	0.105	619592	keystroke	o	n/a
309.872	0.105	619744	keystroke	u	n/a
310.007	0.075	620014	keystroke	l	n/a
310.097	0.105	620194	keystroke	d	n/a
310.246	0.076	620492	keystroke	n	n/a
310.757	0.06	621514	keystroke	t	n/a
311.941	0.09	623882	keystroke	Key.backspace	n/a
312.167	0.105	624334	keystroke	'	n/a
312.377	0.059	624754	keystroke	t	n/a
313.142	0.105	626284	keystroke	'	n/a
313.637	0.09	627274	keystroke	v	n/a
313.757	0.12	627514	keystroke	e	n/a
314.162	0.104	628324	keystroke	Key.space	n/a
314.537	0.09	629074	keystroke	s	n/a
314.882	0.105	629764	keystroke	c	n/a
315.077	0.09	630154	keystroke	r	n/a
315.212	0.105	630424	keystroke	a	n/a
315.362	0.075	630724	keystroke	t	n/a
315.467	0.105	630934	keystroke	h	n/a
315.781	0.091	631562	keystroke	Key.backspace	n/a
315.827	0.105	631654	keystroke	c	n/a
315.977	0.105	631954	keystroke	h	n/a
316.322	0.12	632644	keystroke	Key.enter	n/a
316.448	6.101	632896	prompt	n/a	cruz seafood dealing winds\n
317.267	0.15	634534	keystroke	c	n/a
317.552	0.09	635104	keystroke	r	n/a
317.657	0.09	635314	keystroke	u	n/a
317.822	0.105	635644	keystroke	z	n/a
318.032	0.09	636064	keystroke	Key.space	n/a
318.392	0.09	636784	keystroke	s	n/a
318.572	0.06	637144	keystroke	e	n/a
318.752	0.09	637504	keystroke	a	n/a
319.112	0.09	638224	keystroke	f	n/a
319.262	0.06	638524	keystroke	o	n/a
319.367	0.075	638734	keystroke	o	n/a
319.457	0.075	638914	keystroke	d	n/a
319.622	0.09	639244	keystroke	Key.space	n/a
319.967	0.105	639934	keystroke	d	n/a
320.207	0.12	640414	keystroke	a	n/a
320.297	0.09	640594	keystroke	l	n/a
320.672	0.06	641344	keystroke	Key.backspace	n/a
320.822	0.075	641644	keystroke	Key.backspace	n/a
320.882	0.06	641764	keystroke	e	n/a
321.047	0.075	642094	keystroke	a	n/a
321.062	0.12	642124	keystroke	l	n/a
321.512	0.12	643024	keystroke	i	n/a
321.572	0.09	643144	keystroke	n	n/a
321.647	0.075	643294	keystroke	g	n/a
321.782	0.075	643564	keystroke	Key.space	n/a
321.962	0.075	643924	keystroke	w	n/a
322.022	0.12	644044	keystroke	i	n/a
322.097	0.105	644194	keystroke	n	n/a
322.172	0.09	644344	keystroke	d	n/a
322.322	0.105	644644	keystroke	s	n/a
322.442	0.105	644884	keystroke	Key.enter	n/a
322.553	6.026	645106	prompt	n/a	highlighted algebra courts fresh\n
323.237	0.135	646474	keystroke	h	n/a
323.327	0.09	646654	keystroke	i	n/a
323.462	0.06	646924	keystroke	g	n/a
323.507	0.105	647014	keystroke	h	n/a
323.852	0.135	647704	keystroke	l	n/a
323.927	0.105	647854	keystroke	i	n/a
324.047	0.09	648094	keystroke	g	n/a
324.152	0.09	648304	keystroke	h	n/a
324.227	0.075	648454	keystroke	t	n/a
324.437	0.105	648874	keystroke	e	n/a
324.482	0.12	648964	keystroke	d	n/a
324.632	0.09	649264	keystroke	Key.space	n/a
325.067	0.09	650134	keystroke	a	n/a
325.127	0.09	650254	keystroke	l	n/a
325.502	0.075	651004	keystroke	g	n/a
325.562	0.075	651124	keystroke	e	n/a
325.667	0.105	651334	keystroke	b	n/a
325.922	0.075	651844	keystroke	r	n/a
326.042	0.09	652084	keystroke	a	n/a
326.687	0.105	653374	keystroke	Key.space	n/a
326.9115	0.105	653823	keystroke	c	n/a
326.9865	0.121	653973	keystroke	o	n/a
327.0315	0.105	654063	keystroke	u	n/a
327.1515	0.09	654303	keystroke	r	n/a
327.3315	0.06	654663	keystroke	t	n/a
327.4225	0.104	654845	keystroke	s	n/a
327.5715	0.09	655143	keystroke	Key.space	n/a
327.7965	0.09	655593	keystroke	f	n/a
327.9615	0.09	655923	keystroke	r	n/a
328.0215	0.075	656043	keystroke	e	n/a
328.1865	0.075	656373	keystroke	s	n/a
328.277	0.0895	656554	keystroke	h	n/a
328.4865	0.09	656973	keystroke	Key.enter	n/a
328.5835	6.505	657167	prompt	n/a	delight endorsed basis atmospheric\n
329.1175	0.074	658235	keystroke	d	n/a
329.2065	0.091	658413	keystroke	e	n/a
329.3125	0.149	658625	keystroke	l	n/a
329.4025	0.089	658805	keystroke	i	n/a
329.5365	0.076	659073	keystroke	g	n/a
329.6125	0.09	659225	keystroke	h	n/a
329.7175	0.06	659435	keystroke	t	n/a
329.8065	0.09	659613	keystroke	Key.space	n/a
330.1975	0.074	660395	keystroke	e	n/a
330.2875	0.0745	660575	keystroke	n	n/a
330.422	0.09	660844	keystroke	d	n/a
330.557	0.09	661114	keystroke	o	n/a
330.662	0.09	661324	keystroke	r	n/a
330.767	0.09	661534	keystroke	e	n/a
331.142	0.09	662284	keystroke	Key.backspace	n/a
331.172	0.09	662344	keystroke	s	n/a
331.352	0.09	662704	keystroke	e	n/a
331.427	0.09	662854	keystroke	d	n/a
331.562	0.09	663124	keystroke	Key.space	n/a
332.072	0.075	664144	keystroke	b	n/a
332.102	0.105	664204	keystroke	a	n/a
332.177	0.105	664354	keystroke	s	n/a
332.312	0.105	664624	keystroke	i	n/a
332.447	0.09	664894	keystroke	s	n/a
332.612	0.074	665224	keystroke	Key.space	n/a
332.987	0.09	665974	keystroke	a	n/a
333.1825	0.0445	666365	keystroke	t	n/a
333.467	0.1355	666934	keystroke	m	n/a
333.617	0.09	667234	keystroke	o	n/a
333.8575	0.0745	667715	keystroke	s	n/a
333.946	0.091	667892	keystroke	p	n/a
334.217	0.105	668434	keystroke	h	n/a
334.4265	0.075	668853	keystroke	e	n/a
334.5165	0.075	669033	keystroke	r	n/a
334.6365	0.075	669273	keystroke	i	n/a
334.7415	0.09	669483	keystroke	c	n/a
334.9665	0.12	669933	keystroke	Key.enter	n/a
335.093	10.106	670186	prompt	n/a	initially examination promotes tracking\n
335.6115	0.105	671223	keystroke	i	n/a
335.8215	0.09	671643	keystroke	n	n/a
336.2115	0.09	672423	keystroke	i	n/a
336.332	0.06	672664	keystroke	t	n/a
336.557	0.075	673114	keystroke	a	n/a
336.632	0.09	673264	keystroke	l	n/a
336.782	0.09	673564	keystroke	l	n/a
337.217	0.06	674434	keystroke	Key.backspace	n/a
337.367	0.09	674734	keystroke	Key.backspace	n/a
337.502	0.12	675004	keystroke	i	n/a
337.817	0.015	675634	keystroke	Key.backspace	n/a
337.937	0.06	675874	keystroke	Key.backspace	n/a
338.087	0.075	676174	keystroke	i	n/a
338.207	0.105	676414	keystroke	a	n/a
338.297	0.0445	676594	keystroke	l	n/a
338.4165	0.075	676833	keystroke	l	n/a
338.5065	0.06	677013	keystroke	y	n/a
338.6715	0.075	677343	keystroke	Key.space	n/a
339.1965	0.075	678393	keystroke	e	n/a
339.3615	0.091	678723	keystroke	x	n/a
339.6765	0.075	679353	keystroke	a	n/a
339.7675	0.074	679535	keystroke	m	n/a
339.8865	0.121	679773	keystroke	i	n/a
339.9765	0.105	679953	keystroke	n	n/a
340.2315	0.105	680463	keystroke	a	n/a
340.3965	0.045	680793	keystroke	t	n/a
340.4565	0.06	680913	keystroke	i	n/a
340.5315	0.135	681063	keystroke	o	n/a
340.6215	0.12	681243	keystroke	n	n/a
340.7715	0.135	681543	keystroke	Key.space	n/a
341.4765	0.135	682953	keystroke	p	n/a
341.6715	0.12	683343	keystroke	r	n/a
341.8065	0.105	683613	keystroke	o	n/a
342.0775	0.104	684155	keystroke	m	n/a
342.5265	0.09	685053	keystroke	t	n/a
342.6015	0.075	685203	keystroke	o	n/a
342.8415	0.06	685683	keystroke	Key.backspace	n/a
342.9915	0.06	685983	keystroke	Key.backspace	n/a
343.1865	0.09	686373	keystroke	o	n/a
343.2615	0.091	686523	keystroke	t	n/a
343.3215	0.091	686643	keystroke	e	n/a
343.6215	0.061	687243	keystroke	s	n/a
343.8315	0.075	687663	keystroke	Key.space	n/a
344.1465	0.091	688293	keystroke	t	n/a
344.2975	0.09	688595	keystroke	r	n/a
344.4315	0.076	688863	keystroke	a	n/a
344.5665	0.091	689133	keystroke	c	n/a
344.6415	0.105	689283	keystroke	k	n/a
344.8075	0.12	689615	keystroke	i	n/a
344.8675	0.09	689735	keystroke	n	n/a
344.9115	0.076	689823	keystroke	g	n/a
345.1065	0.09	690213	keystroke	Key.enter	n/a
345.2035	5.8155	690407	prompt	n/a	rows carry competitions gains\n
345.7225	0.09	691445	keystroke	r	n/a
345.8865	0.09	691773	keystroke	o	n/a
346.0215	0.09	692043	keystroke	w	n/a
346.3075	0.09	692615	keystroke	s	n/a
346.4115	0.09	692823	keystroke	Key.space	n/a
346.6825	0.074	693365	keystroke	c	n/a
346.8015	0.091	693603	keystroke	a	n/a
346.9075	0.06	693815	keystroke	r	n/a
347.0265	0.075	694053	keystroke	r	n/a
347.1165	0.106	694233	keystroke	y	n/a
347.2515	0.09	694503	keystroke	Key.space	n/a
347.7475	0.09	695495	keystroke	c	n/a
347.8075	0.089	695615	keystroke	o	n/a
347.8675	0.075	695735	keystroke	m	n/a
348.0025	0.089	696005	keystroke	p	n/a
348.0775	0.089	696155	keystroke	e	n/a
348.2115	0.075	696423	keystroke	t	n/a
348.8875	0.075	697775	keystroke	i	n/a
349.0065	0.09	698013	keystroke	t	n/a
349.0825	0.075	698165	keystroke	i	n/a
349.1875	0.134	698375	keystroke	o	n/a
349.2625	0.105	698525	keystroke	n	n/a
349.3965	0.075	698793	keystroke	s	n/a
349.5315	0.091	699063	keystroke	Key.space	n/a
349.8625	0.06	699725	keystroke	g	n/a
350.0125	0.09	700025	keystroke	a	n/a
350.0865	0.121	700173	keystroke	i	n/a
350.1465	0.091	700293	keystroke	n	n/a
350.7325	0.075	701465	keystroke	s	n/a
350.9275	0.089	701855	keystroke	Key.enter	n/a
351.0225	8.322	702045	prompt	n/a	saturday deferred cave mardi\n
351.4825	0.089	702965	keystroke	s	n/a
351.6325	0.075	703265	keystroke	t	n/a
352.0065	0.075	704013	keystroke	Key.backspace	n/a
352.0675	0.09	704135	keystroke	a	n/a
352.1715	0.076	704343	keystroke	t	n/a
352.2775	0.089	704555	keystroke	u	n/a
352.5025	0.075	705005	keystroke	r	n/a
352.8325	0.075	705665	keystroke	d	n/a
352.9825	0.105	705965	keystroke	a	n/a
353.0575	0.105	706115	keystroke	y	n/a
353.2365	0.09	706473	keystroke	Key.space	n/a
354.3915	0.106	708783	keystroke	d	n/a
354.5425	0.135	709085	keystroke	e	n/a
354.7815	0.106	709563	keystroke	f	n/a
354.947	0.0905	709894	keystroke	f	n/a
355.0825	0.09	710165	keystroke	e	n/a
355.1575	0.06	710315	keystroke	r	n/a
355.7275	0.075	711455	keystroke	Key.backspace	n/a
356.0425	0.06	712085	keystroke	Key.backspace	n/a
356.2675	0.06	712535	keystroke	Key.backspace	n/a
356.7775	0.09	713555	keystroke	e	n/a
356.8525	0.06	713705	keystroke	r	n/a
356.9725	0.06	713945	keystroke	r	n/a
357.1225	0.12	714245	keystroke	e	n/a
357.1825	0.09	714365	keystroke	d	n/a
357.3325	0.105	714665	keystroke	Key.space	n/a
357.6475	0.06	715295	keystroke	c	n/a
357.7525	0.075	715505	keystroke	a	n/a
357.9475	0.015	715895	keystroke	v	n/a
357.9775	0.075	715955	keystroke	e	n/a
358.1275	0.075	716255	keystroke	Key.space	n/a
358.592	0.06	717184	keystroke	m	n/a
358.653	0.074	717306	keystroke	a	n/a
358.742	0.075	717484	keystroke	r	n/a
358.907	0.09	717814	keystroke	d	n/a
359.027	0.075	718054	keystroke	i	n/a
359.252	0.09	718504	keystroke	Key.enter	n/a
359.35	6.3995	718700	prompt	n/a	sale bleeding constructed greatest\n
359.882	0.09	719764	keystroke	s	n/a
360.032	0.09	720064	keystroke	a	n/a
360.092	0.09	720184	keystroke	l	n/a
360.212	0.09	720424	keystroke	e	n/a
360.332	0.09	720664	keystroke	Key.space	n/a
360.677	0.06	721354	keystroke	b	n/a
360.812	0.075	721624	keystroke	l	n/a
360.857	0.075	721714	keystroke	e	n/a
360.992	0.15	721984	keystroke	e	n/a
361.127	0.12	722254	keystroke	d	n/a
361.397	0.15	722794	keystroke	i	n/a
361.472	0.09	722944	keystroke	n	n/a
361.577	0.0605	723154	keystroke	g	n/a
361.697	0.0905	723394	keystroke	Key.space	n/a
361.877	0.075	723754	keystroke	c	n/a
361.937	0.105	723874	keystroke	o	n/a
361.982	0.09	723964	keystroke	n	n/a
362.237	0.0605	724474	keystroke	s	n/a
362.3275	0.045	724655	keystroke	t	n/a
362.4775	0.075	724955	keystroke	r	n/a
362.5825	0.075	725165	keystroke	u	n/a
362.6725	0.075	725345	keystroke	c	n/a
362.8675	0.06	725735	keystroke	t	n/a
363.4825	0.105	726965	keystroke	e	n/a
363.5275	0.12	727055	keystroke	d	n/a
363.6615	0.091	727323	keystroke	Key.space	n/a
364.0675	0.075	728135	keystroke	d	n/a
364.3065	0.0755	728613	keystroke	Key.backspace	n/a
364.367	0.075	728734	keystroke	g	n/a
364.502	0.12	729004	keystroke	r	n/a
364.607	0.06	729214	keystroke	e	n/a
364.772	0.075	729544	keystroke	a	n/a
364.937	0.075	729874	keystroke	t	n/a
365.072	0.105	730144	keystroke	e	n/a
365.2675	0.0895	730535	keystroke	s	n/a
365.402	0.03	730804	keystroke	t	n/a
365.657	0.09	731314	keystroke	Key.enter	n/a
365.7575	4.746	731515	prompt	n/a	completed web thrown saying\n
366.257	0.0905	732514	keystroke	c	n/a
366.3625	0.105	732725	keystroke	o	n/a
366.4375	0.09	732875	keystroke	m	n/a
366.6025	0.12	733205	keystroke	p	n/a
366.6625	0.105	733325	keystroke	l	n/a
366.7525	0.06	733505	keystroke	e	n/a
366.7975	0.09	733595	keystroke	t	n/a
366.9025	0.105	733805	keystroke	e	n/a
367.1275	0.06	734255	keystroke	d	n/a
367.3075	0.075	734615	keystroke	Key.space	n/a
367.6075	0.075	735215	keystroke	w	n/a
367.6525	0.09	735305	keystroke	e	n/a
367.7575	0.09	735515	keystroke	b	n/a
367.9975	0.09	735995	keystroke	Key.space	n/a
368.2825	0.0745	736565	keystroke	t	n/a
368.3425	0.0895	736685	keystroke	h	n/a
368.448	0.075	736896	keystroke	r	n/a
368.552	0.075	737104	keystroke	o	n/a
368.642	0.09	737284	keystroke	w	n/a
368.777	0.09	737554	keystroke	n	n/a
368.927	0.105	737854	keystroke	Key.space	n/a
369.392	0.061	738784	keystroke	s	n/a
369.542	0.09	739084	keystroke	a	n/a
369.932	0.076	739864	keystroke	y	n/a
370.037	0.105	740074	keystroke	i	n/a
370.082	0.105	740164	keystroke	n	n/a
370.158	0.074	740316	keystroke	g	n/a
370.442	0.06	740884	keystroke	Key.enter	n/a
370.5065	5.773	741013	prompt	n/a	washer part zimbabwe attend\n
371.373	0.045	742746	keystroke	w	n/a
371.568	0.09	743136	keystroke	a	n/a
371.762	0.091	743524	keystroke	s	n/a
371.898	0.075	743796	keystroke	h	n/a
371.987	0.09	743974	keystroke	e	n/a
372.062	0.075	744124	keystroke	r	n/a
372.183	0.089	744366	keystroke	Key.space	n/a
372.392	0.106	744784	keystroke	p	n/a
372.483	0.09	744966	keystroke	a	n/a
372.587	0.12	745174	keystroke	r	n/a
372.813	0.06	745626	keystroke	t	n/a
372.947	0.075	745894	keystroke	Key.space	n/a
373.247	0.06	746494	keystroke	z	n/a
373.368	0.074	746736	keystroke	i	n/a
373.398	0.12	746796	keystroke	m	n/a
373.682	0.076	747364	keystroke	b	n/a
373.908	0.09	747816	keystroke	a	n/a
374.028	0.075	748056	keystroke	b	n/a
374.297	0.061	748594	keystroke	w	n/a
374.628	0.09	749256	keystroke	e	n/a
374.792	0.09	749584	keystroke	Key.space	n/a
374.958	0.074	749916	keystroke	s	n/a
375.362	0.06	750724	keystroke	Key.backspace	n/a
375.423	0.09	750846	keystroke	a	n/a
375.572	0.076	751144	keystroke	t	n/a
375.707	0.061	751414	keystroke	t	n/a
375.828	0.075	751656	keystroke	e	n/a
375.947	0.09	751894	keystroke	n	n/a
376.068	0.074	752136	keystroke	d	n/a
376.188	0.089	752376	keystroke	Key.enter	n/a
376.284	6.5655	752568	prompt	n/a	delay theory housewives measurements\n
376.938	0.075	753876	keystroke	d	n/a
377.163	0.09	754326	keystroke	e	n/a
377.268	0.075	754536	keystroke	l	n/a
377.388	0.09	754776	keystroke	a	n/a
377.492	0.091	754984	keystroke	y	n/a
377.673	0.089	755346	keystroke	Key.space	n/a
377.883	0.075	755766	keystroke	t	n/a
377.958	0.09	755916	keystroke	h	n/a
378.063	0.09	756126	keystroke	e	n/a
378.243	0.09	756486	keystroke	o	n/a
378.378	0.059	756756	keystroke	r	n/a
378.558	0.075	757116	keystroke	y	n/a
378.828	0.075	757656	keystroke	Key.space	n/a
379.203	0.075	758406	keystroke	h	n/a
379.308	0.165	758616	keystroke	o	n/a
379.398	0.09	758796	keystroke	u	n/a
379.457	0.076	758914	keystroke	s	n/a
379.608	0.075	759216	keystroke	e	n/a
380.223	0.075	760446	keystroke	w	n/a
380.313	0.09	760626	keystroke	i	n/a
380.462	0.076	760924	keystroke	v	n/a
380.553	0.075	761106	keystroke	e	n/a
380.732	0.076	761464	keystroke	s	n/a
380.852	0.09	761704	keystroke	Key.space	n/a
381.317	0.106	762634	keystroke	m	n/a
381.378	0.075	762756	keystroke	e	n/a
381.557	0.091	763114	keystroke	a	n/a
381.603	0.105	763206	keystroke	s	n/a
381.768	0.105	763536	keystroke	u	n/a
381.918	0.074	763836	keystroke	r	n/a
381.978	0.075	763956	keystroke	e	n/a
382.173	0.09	764346	keystroke	m	n/a
382.293	0.075	764586	keystroke	e	n/a
382.398	0.09	764796	keystroke	n	n/a
382.488	0.06	764976	keystroke	t	n/a
382.593	0.06	765186	keystroke	s	n/a
382.788	0.059	765576	keystroke	Key.enter	n/a
382.854	5.2605	765708	prompt	n/a	recreation anime gear ballot\n
383.358	0.105	766716	keystroke	r	n/a
383.433	0.09	766866	keystroke	e	n/a
383.673	0.089	767346	keystroke	c	n/a
384.273	0.09	768546	keystroke	r	n/a
384.618	0.09	769236	keystroke	e	n/a
384.813	0.06	769626	keystroke	a	n/a
384.903	0.075	769806	keystroke	t	n/a
384.993	0.075	769986	keystroke	i	n/a
385.113	0.12	770226	keystroke	o	n/a
385.188	0.105	770376	keystroke	n	n/a
385.487	0.09	770974	keystroke	Key.space	n/a
385.758	0.09	771516	keystroke	a	n/a
385.833	0.09	771666	keystroke	n	n/a
385.938	0.135	771876	keystroke	i	n/a
386.028	0.105	772056	keystroke	m	n/a
386.328	0.075	772656	keystroke	e	n/a
386.433	0.074	772866	keystroke	Key.space	n/a
386.628	0.105	773256	keystroke	g	n/a
386.763	0.09	773526	keystroke	e	n/a
386.943	0.06	773886	keystroke	a	n/a
387.018	0.075	774036	keystroke	r	n/a
387.108	0.06	774216	keystroke	Key.space	n/a
387.288	0.074	774576	keystroke	b	n/a
387.393	0.09	774786	keystroke	a	n/a
387.498	0.045	774996	keystroke	l	n/a
387.588	0.075	775176	keystroke	l	n/a
387.768	0.075	775536	keystroke	o	n/a
387.888	0.06	775776	keystroke	t	n/a
388.023	0.09	776046	keystroke	Key.enter	n/a
388.1195	6.55	776239	prompt	n/a	mother evaluation byte devil\n
388.8475	0.105	777695	keystroke	m	n/a
388.9675	0.09	777935	keystroke	o	n/a
389.0725	0.06	778145	keystroke	t	n/a
389.1775	0.09	778355	keystroke	h	n/a
389.2525	0.075	778505	keystroke	e	n/a
389.2975	0.075	778595	keystroke	r	n/a
389.4175	0.09	778835	keystroke	Key.space	n/a
389.8525	0.09	779705	keystroke	e	n/a
390.0625	0.06	780125	keystroke	v	n/a
390.3025	0.09	780605	keystroke	a	n/a
390.4525	0.09	780905	keystroke	l	n/a
390.8725	0.075	781745	keystroke	u	n/a
391.4125	0.105	782825	keystroke	a	n/a
391.5625	0.09	783125	keystroke	t	n/a
391.6375	0.075	783275	keystroke	i	n/a
391.7275	0.12	783455	keystroke	o	n/a
391.8025	0.105	783605	keystroke	n	n/a
391.9975	0.075	783995	keystroke	Key.space	n/a
392.2975	0.09	784595	keystroke	b	n/a
392.4775	0.075	784955	keystroke	y	n/a
392.8975	0.105	785795	keystroke	t	n/a
393.0325	0.09	786065	keystroke	e	n/a
393.1675	0.075	786335	keystroke	Key.space	n/a
393.4975	0.12	786995	keystroke	d	n/a
393.6025	0.09	787205	keystroke	e	n/a
393.7375	0.075	787475	keystroke	v	n/a
393.8275	0.135	787655	keystroke	i	n/a
393.8875	0.09	787775	keystroke	l	n/a
394.5925	0.075	789185	keystroke	Key.enter	n/a
394.674	7.0455	789348	prompt	n/a	cape graphics frequencies finds\n
395.2375	0.09	790475	keystroke	c	n/a
395.3875	0.075	790775	keystroke	a	n/a
395.4925	0.09	790985	keystroke	p	n/a
395.6125	0.075	791225	keystroke	e	n/a
395.7775	0.105	791555	keystroke	Key.space	n/a
396.2425	0.06	792485	keystroke	g	n/a
396.378	0.09	792756	keystroke	r	n/a
396.513	0.105	793026	keystroke	a	n/a
396.573	0.09	793146	keystroke	p	n/a
396.738	0.12	793476	keystroke	h	n/a
396.828	0.105	793656	keystroke	i	n/a
396.918	0.105	793836	keystroke	c	n/a
397.233	0.09	794466	keystroke	s	n/a
397.383	0.074	794766	keystroke	Key.space	n/a
397.683	0.075	795366	keystroke	f	n/a
397.863	0.12	795726	keystroke	r	n/a
397.968	0.135	795936	keystroke	e	n/a
398.238	0.09	796476	keystroke	q	n/a
398.3725	0.09	796745	keystroke	u	n/a
398.5825	0.06	797165	keystroke	e	n/a
398.7325	0.09	797465	keystroke	n	n/a
398.8525	0.09	797705	keystroke	c	n/a
398.9125	0.075	797825	keystroke	e	n/a
399.4375	0.06	798875	keystroke	Key.backspace	n/a
399.6025	0.105	799205	keystroke	i	n/a
399.6925	0.075	799385	keystroke	e	n/a
399.8425	0.09	799685	keystroke	s	n/a
399.9625	0.09	799925	keystroke	Key.space	n/a
400.2625	0.12	800525	keystroke	i	n/a
400.5925	0.075	801185	keystroke	Key.backspace	n/a
400.6975	0.075	801395	keystroke	f	n/a
400.8175	0.09	801635	keystroke	i	n/a
400.8775	0.075	801755	keystroke	n	n/a
400.9375	0.09	801875	keystroke	d	n/a
401.4625	0.075	802925	keystroke	s	n/a
401.6125	0.105	803225	keystroke	Key.enter	n/a
401.725	6.2045	803450	prompt	n/a	washington terror assure seeking\n
402.3325	0.075	804665	keystroke	w	n/a
402.4825	0.12	804965	keystroke	a	n/a
402.5575	0.09	805115	keystroke	s	n/a
402.6325	0.09	805265	keystroke	h	n/a
402.7825	0.135	805565	keystroke	i	n/a
402.8725	0.105	805745	keystroke	n	n/a
403.0375	0.06	806075	keystroke	g	n/a
403.413	0.075	806826	keystroke	t	n/a
403.533	0.09	807066	keystroke	o	n/a
403.563	0.104	807126	keystroke	n	n/a
403.967	0.121	807934	keystroke	Key.space	n/a
404.253	0.075	808506	keystroke	t	n/a
404.373	0.075	808746	keystroke	e	n/a
404.433	0.074	808866	keystroke	r	n/a
404.567	0.09	809134	keystroke	r	n/a
404.702	0.076	809404	keystroke	o	n/a
404.793	0.075	809586	keystroke	r	n/a
404.912	0.12	809824	keystroke	Key.space	n/a
405.317	0.091	810634	keystroke	a	n/a
405.363	0.224	810726	keystroke	s	n/a
405.738	0.105	811476	keystroke	s	n/a
405.903	0.09	811806	keystroke	u	n/a
406.023	0.1045	812046	keystroke	r	n/a
406.1125	0.075	812225	keystroke	e	n/a
406.2775	0.075	812555	keystroke	Key.space	n/a
406.6375	0.075	813275	keystroke	s	n/a
406.8025	0.06	813605	keystroke	e	n/a
406.9075	0.06	813815	keystroke	e	n/a
407.0425	0.09	814085	keystroke	k	n/a
407.1925	0.09	814385	keystroke	i	n/a
407.2375	0.09	814475	keystroke	n	n/a
407.5975	0.075	815195	keystroke	g	n/a
407.8375	0.09	815675	keystroke	Key.enter	n/a
407.9345	4.2105	815869	prompt	n/a	be cattle lots downloading\n
408.4675	0.075	816935	keystroke	b	n/a
408.5275	0.075	817055	keystroke	e	n/a
408.6625	0.09	817325	keystroke	Key.space	n/a
408.8125	0.09	817625	keystroke	c	n/a
408.9625	0.06	817925	keystroke	a	n/a
409.1425	0.015	818285	keystroke	t	n/a
409.2175	0.06	818435	keystroke	t	n/a
409.3375	0.09	818675	keystroke	l	n/a
409.4425	0.06	818885	keystroke	e	n/a
409.5475	0.075	819095	keystroke	Key.space	n/a
409.7575	0.075	819515	keystroke	l	n/a
409.9225	0.075	819845	keystroke	o	n/a
410.1475	0.075	820295	keystroke	t	n/a
410.2375	0.09	820475	keystroke	s	n/a
410.4025	0.09	820805	keystroke	Key.space	n/a
410.7325	0.105	821465	keystroke	d	n/a
410.8225	0.06	821645	keystroke	o	n/a
410.9125	0.075	821825	keystroke	w	n/a
410.9725	0.09	821945	keystroke	n	n/a
411.1225	0.06	822245	keystroke	l	n/a
411.2725	0.09	822545	keystroke	o	n/a
411.3475	0.09	822695	keystroke	a	n/a
411.5425	0.09	823085	keystroke	d	n/a
411.7675	0.09	823535	keystroke	i	n/a
411.8125	0.09	823625	keystroke	n	n/a
411.8875	0.06	823775	keystroke	g	n/a
412.0525	0.09	824105	keystroke	Key.enter	n/a
412.1495	7.18	824299	prompt	n/a	appropriations seems nickel third\n
412.6225	0.09	825245	keystroke	a	n/a
412.7575	0.045	825515	keystroke	p	n/a
412.8925	0.075	825785	keystroke	p	n/a
413.0275	0.09	826055	keystroke	r	n/a
413.3725	0.12	826745	keystroke	o	n/a
413.4625	0.105	826925	keystroke	p	n/a
413.8825	0.06	827765	keystroke	r	n/a
414.273	0.09	828546	keystroke	i	n/a
414.543	0.105	829086	keystroke	a	n/a
414.723	0.059	829446	keystroke	t	n/a
414.798	0.135	829596	keystroke	i	n/a
415.008	0.09	830016	keystroke	o	n/a
415.068	0.105	830136	keystroke	n	n/a
415.188	0.075	830376	keystroke	s	n/a
415.278	0.089	830556	keystroke	Key.space	n/a
415.667	0.061	831334	keystroke	s	n/a
415.818	0.06	831636	keystroke	e	n/a
416.132	0.076	832264	keystroke	e	n/a
416.283	0.09	832566	keystroke	m	n/a
416.403	0.105	832806	keystroke	s	n/a
416.523	0.119	833046	keystroke	Key.space	n/a
416.868	0.105	833736	keystroke	n	n/a
416.958	0.075	833916	keystroke	i	n/a
417.063	0.09	834126	keystroke	c	n/a
417.168	0.06	834336	keystroke	k	n/a
417.423	0.104	834846	keystroke	l	n/a
417.543	0.089	835086	keystroke	e	n/a
417.812	0.076	835624	keystroke	Key.backspace	n/a
417.948	0.075	835896	keystroke	Key.backspace	n/a
418.083	0.045	836166	keystroke	e	n/a
418.218	0.075	836436	keystroke	l	n/a
418.383	0.09	836766	keystroke	Key.space	n/a
418.683	0.06	837366	keystroke	t	n/a
418.758	0.09	837516	keystroke	h	n/a
418.833	0.105	837666	keystroke	i	n/a
418.923	0.075	837846	keystroke	r	n/a
419.103	0.09	838206	keystroke	d	n/a
419.238	0.09	838476	keystroke	Key.enter	n/a
419.334	6.3255	838668	prompt	n/a	change reach deeper polar\n
420.033	0.09	840066	keystroke	c	n/a
420.183	0.09	840366	keystroke	h	n/a
420.333	0.105	840666	keystroke	a	n/a
420.453	0.104	840906	keystroke	n	n/a
420.588	0.09	841176	keystroke	g	n/a
420.663	0.12	841326	keystroke	e	n/a
420.977	0.12	841954	keystroke	Key.space	n/a
421.278	0.12	842556	keystroke	t	n/a
421.443	0.09	842886	keystroke	e	n/a
421.817	0.09	843634	keystroke	Key.backspace	n/a
421.997	0.06	843994	keystroke	Key.backspace	n/a
422.133	0.119	844266	keystroke	r	n/a
422.237	0.0755	844474	keystroke	e	n/a
422.4475	0.105	844895	keystroke	a	n/a
422.7775	0.105	845555	keystroke	c	n/a
422.9275	0.091	845855	keystroke	h	n/a
423.1225	0.06	846245	keystroke	Key.space	n/a
423.6475	0.105	847295	keystroke	d	n/a
423.7825	0.105	847565	keystroke	e	n/a
423.9475	0.075	847895	keystroke	e	n/a
424.0975	0.121	848195	keystroke	p	n/a
424.2775	0.0605	848555	keystroke	e	n/a
424.3525	0.075	848705	keystroke	r	n/a
424.5475	0.105	849095	keystroke	Key.space	n/a
424.8625	0.135	849725	keystroke	p	n/a
424.9825	0.105	849965	keystroke	o	n/a
425.1475	0.105	850295	keystroke	l	n/a
425.2975	0.09	850595	keystroke	a	n/a
425.4175	0.075	850835	keystroke	r	n/a
425.5675	0.09	851135	keystroke	Key.enter	n/a
425.664	5.681	851328	prompt	n/a	ethical asking none approximate\n
426.2735	0.104	852547	keystroke	e	n/a
426.4675	0.075	852935	keystroke	t	n/a
426.5575	0.105	853115	keystroke	h	n/a
426.6175	0.09	853235	keystroke	i	n/a
426.7375	0.09	853475	keystroke	c	n/a
426.9025	0.09	853805	keystroke	a	n/a
426.9775	0.075	853955	keystroke	l	n/a
427.1575	0.09	854315	keystroke	Key.space	n/a
427.5025	0.06	855005	keystroke	a	n/a
427.6675	0.09	855335	keystroke	s	n/a
427.7725	0.075	855545	keystroke	k	n/a
427.9075	0.105	855815	keystroke	i	n/a
427.9675	0.09	855935	keystroke	n	n/a
428.0425	0.075	856085	keystroke	g	n/a
428.1625	0.105	856325	keystroke	Key.space	n/a
428.4625	0.09	856925	keystroke	n	n/a
428.5675	0.12	857135	keystroke	o	n/a
428.6275	0.0895	857255	keystroke	n	n/a
428.7025	0.075	857405	keystroke	e	n/a
428.8225	0.0895	857645	keystroke	Key.space	n/a
429.3325	0.09	858665	keystroke	a	n/a
429.4375	0.06	858875	keystroke	p	n/a
429.5585	0.104	859117	keystroke	p	n/a
429.7075	0.105	859415	keystroke	r	n/a
429.8725	0.105	859745	keystroke	o	n/a
430.2775	0.075	860555	keystroke	x	n/a
430.4275	0.105	860855	keystroke	i	n/a
430.487	0.1205	860974	keystroke	m	n/a
430.862	0.0905	861724	keystroke	a	n/a
430.9975	0.135	861995	keystroke	t	n/a
431.0875	0.06	862175	keystroke	e	n/a
431.252	0.09	862504	keystroke	Key.enter	n/a
431.3485	6.956	862697	prompt	n/a	replica certainly supreme december\n
431.973	0.074	863946	keystroke	r	n/a
432.0185	0.0885	864037	keystroke	e	n/a
432.123	0.119	864246	keystroke	p	n/a
432.183	0.0895	864366	keystroke	l	n/a
432.3775	0.1045	864755	keystroke	i	n/a
432.4685	0.1035	864937	keystroke	c	n/a
432.5585	0.0435	865117	keystroke	e	n/a
432.872	0.06	865744	keystroke	Key.backspace	n/a
432.918	0.105	865836	keystroke	a	n/a
433.142	0.105	866284	keystroke	Key.space	n/a
433.548	0.089	867096	keystroke	c	n/a
433.848	0.059	867696	keystroke	e	n/a
433.892	0.075	867784	keystroke	r	n/a
434.073	0.075	868146	keystroke	t	n/a
434.282	0.091	868564	keystroke	a	n/a
434.357	0.076	868714	keystroke	i	n/a
434.402	0.09	868804	keystroke	n	n/a
434.568	0.104	869136	keystroke	l	n/a
434.688	0.045	869376	keystroke	y	n/a
434.837	0.075	869674	keystroke	Key.space	n/a
435.288	0.09	870576	keystroke	s	n/a
435.708	0.059	871416	keystroke	u	n/a
435.798	0.105	871596	keystroke	p	n/a
435.978	0.075	871956	keystroke	r	n/a
436.158	0.075	872316	keystroke	e	n/a
436.248	0.104	872496	keystroke	m	n/a
436.338	0.074	872676	keystroke	e	n/a
436.487	0.09	872974	keystroke	Key.space	n/a
437.103	0.104	874206	keystroke	d	n/a
437.193	0.089	874386	keystroke	e	n/a
437.4325	0.12	874865	keystroke	c	n/a
437.5375	0.105	875075	keystroke	e	n/a
437.6875	0.06	875375	keystroke	m	n/a
437.8825	0.075	875765	keystroke	b	n/a
437.9275	0.09	875855	keystroke	e	n/a
437.9875	0.09	875975	keystroke	r	n/a
438.2275	0.075	876455	keystroke	Key.enter	n/a
438.3115	7.3885	876623	prompt	n/a	afghanistan in previews initially\n
438.9025	0.075	877805	keystroke	a	n/a
439.2025	0.09	878405	keystroke	f	n/a
439.7125	0.06	879425	keystroke	g	n/a
439.8025	0.06	879605	keystroke	h	n/a
439.8925	0.09	879785	keystroke	a	n/a
439.9975	0.09	879995	keystroke	n	n/a
440.1175	0.105	880235	keystroke	i	n/a
440.4325	0.075	880865	keystroke	s	n/a
440.5225	0.045	881045	keystroke	t	n/a
440.6725	0.075	881345	keystroke	a	n/a
440.7775	0.075	881555	keystroke	n	n/a
440.9575	0.075	881915	keystroke	Key.space	n/a
441.183	0.0895	882366	keystroke	i	n/a
441.228	0.0895	882456	keystroke	n	n/a
441.3325	0.0905	882665	keystroke	Key.space	n/a
441.468	0.1045	882936	keystroke	p	n/a
441.873	0.105	883746	keystroke	r	n/a
441.963	0.09	883926	keystroke	e	n/a
442.3825	0.09	884765	keystroke	v	n/a
442.5175	0.09	885035	keystroke	i	n/a
442.6525	0.0755	885305	keystroke	e	n/a
443.043	0.075	886086	keystroke	w	n/a
443.2075	0.105	886415	keystroke	s	n/a
443.2975	0.075	886595	keystroke	Key.space	n/a
443.5075	0.0905	887015	keystroke	i	n/a
443.553	0.09	887106	keystroke	n	n/a
443.7025	0.075	887405	keystroke	t	n/a
443.718	0.0895	887436	keystroke	i	n/a
444.168	0.06	888336	keystroke	Key.backspace	n/a
444.303	0.09	888606	keystroke	Key.backspace	n/a
444.423	0.075	888846	keystroke	i	n/a
444.483	0.09	888966	keystroke	t	n/a
444.843	0.075	889686	keystroke	i	n/a
444.948	0.075	889896	keystroke	a	n/a
445.008	0.075	890016	keystroke	l	n/a
445.143	0.09	890286	keystroke	l	n/a
445.368	0.06	890736	keystroke	y	n/a
445.623	0.075	891246	keystroke	Key.enter	n/a
445.7045	8.8155	891409	prompt	n/a	shouldn't've affiliates station boat\n
446.238	0.075	892476	keystroke	s	n/a
446.358	0.105	892716	keystroke	h	n/a
446.778	0.12	893556	keystroke	o	n/a
446.853	0.12	893706	keystroke	u	n/a
447.003	0.09	894006	keystroke	l	n/a
447.1675	0.0905	894335	keystroke	d	n/a
447.7975	0.09	895595	keystroke	n	n/a
448.593	0.09	897186	keystroke	'	n/a
448.758	0.075	897516	keystroke	t	n/a
449.043	0.09	898086	keystroke	'	n/a
449.178	0.09	898356	keystroke	v	n/a
449.418	0.09	898836	keystroke	e	n/a
449.643	0.075	899286	keystroke	Key.space	n/a
449.9425	0.075	899885	keystroke	a	n/a
450.1225	0.045	900245	keystroke	f	n/a
450.2575	0.0605	900515	keystroke	f	n/a
450.378	0.105	900756	keystroke	l	n/a
450.438	0.09	900876	keystroke	i	n/a
451.368	0.09	902736	keystroke	a	n/a
451.623	0.09	903246	keystroke	t	n/a
451.698	0.09	903396	keystroke	e	n/a
451.923	0.075	903846	keystroke	s	n/a
452.118	0.075	904236	keystroke	Key.space	n/a
452.778	0.09	905556	keystroke	s	n/a
452.898	0.06	905796	keystroke	t	n/a
453.003	0.075	906006	keystroke	a	n/a
453.093	0.075	906186	keystroke	t	n/a
453.138	0.105	906276	keystroke	i	n/a
453.258	0.105	906516	keystroke	o	n/a
453.318	0.105	906636	keystroke	n	n/a
453.618	0.105	907236	keystroke	Key.space	n/a
453.933	0.09	907866	keystroke	b	n/a
454.068	0.09	908136	keystroke	o	n/a
454.143	0.075	908286	keystroke	a	n/a
454.278	0.075	908556	keystroke	t	n/a
454.4585	0.059	908917	keystroke	Key.enter	n/a
454.5245	4.7505	909049	prompt	n/a	punk right null cases\n
455.5535	0.135	911107	keystroke	p	n/a
455.6435	0.06	911287	keystroke	u	n/a
455.8085	0.12	911617	keystroke	n	n/a
455.8835	0.105	911767	keystroke	k	n/a
456.0475	0.135	912095	keystroke	Key.space	n/a
456.5575	0.091	913115	keystroke	r	n/a
456.6175	0.075	913235	keystroke	i	n/a
456.7525	0.06	913505	keystroke	g	n/a
456.7985	0.075	913597	keystroke	h	n/a
456.8875	0.061	913775	keystroke	t	n/a
456.9925	0.09	913985	keystroke	Key.space	n/a
457.2185	0.105	914437	keystroke	n	n/a
457.3375	0.09	914675	keystroke	u	n/a
457.5785	0.09	915157	keystroke	l	n/a
457.7275	0.105	915455	keystroke	l	n/a
457.8925	0.105	915785	keystroke	Key.space	n/a
458.1475	0.075	916295	keystroke	c	n/a
458.2825	0.09	916565	keystroke	a	n/a
458.3435	0.1045	916687	keystroke	s	n/a
458.538	0.075	917076	keystroke	e	n/a
458.718	0.075	917436	keystroke	s	n/a
459.183	0.09	918366	keystroke	Key.enter	n/a
459.28	5.05	918560	prompt	n/a	has babe breeds narrow\n
460.083	0.105	920166	keystroke	h	n/a
460.203	0.09	920406	keystroke	a	n/a
460.248	0.105	920496	keystroke	s	n/a
460.428	0.12	920856	keystroke	Key.space	n/a
460.908	0.075	921816	keystroke	b	n/a
461.028	0.075	922056	keystroke	a	n/a
461.133	0.09	922266	keystroke	b	n/a
461.268	0.075	922536	keystroke	e	n/a
461.553	0.09	923106	keystroke	Key.space	n/a
461.958	0.075	923916	keystroke	b	n/a
462.048	0.105	924096	keystroke	r	n/a
462.123	0.105	924246	keystroke	e	n/a
462.663	0.06	925326	keystroke	e	n/a
462.813	0.09	925626	keystroke	d	n/a
462.948	0.09	925896	keystroke	s	n/a
463.068	0.075	926136	keystroke	Key.space	n/a
463.263	0.09	926526	keystroke	n	n/a
463.398	0.075	926796	keystroke	a	n/a
463.548	0.09	927096	keystroke	r	n/a
463.683	0.075	927366	keystroke	r	n/a
463.788	0.12	927576	keystroke	o	n/a
463.878	0.075	927756	keystroke	w	n/a
464.223	0.105	928446	keystroke	Key.enter	n/a
464.3345	8.8605	928669	prompt	n/a	false commons handbook worldwide\n
464.973	0.06	929946	keystroke	f	n/a
465.123	0.09	930246	keystroke	a	n/a
465.228	0.105	930456	keystroke	l	n/a
465.318	0.075	930636	keystroke	s	n/a
465.483	0.075	930966	keystroke	e	n/a
465.648	0.075	931296	keystroke	Key.space	n/a
465.918	0.075	931836	keystroke	c	n/a
466.203	0.09	932406	keystroke	o	n/a
466.323	0.09	932646	keystroke	m	n/a
466.458	0.105	932916	keystroke	m	n/a
466.668	0.105	933336	keystroke	o	n/a
466.713	0.12	933426	keystroke	n	n/a
466.998	0.105	933996	keystroke	s	n/a
467.133	0.09	934266	keystroke	Key.space	n/a
467.448	0.105	934896	keystroke	h	n/a
467.703	0.075	935406	keystroke	a	n/a
467.793	0.075	935586	keystroke	n	n/a
468.198	0.09	936396	keystroke	d	n/a
468.348	0.075	936696	keystroke	b	n/a
468.648	0.075	937296	keystroke	o	n/a
468.798	0.135	937596	keystroke	o	n/a
468.903	0.09	937806	keystroke	k	n/a
469.068	0.12	938136	keystroke	Key.space	n/a
469.383	0.09	938766	keystroke	w	n/a
469.548	0.075	939096	keystroke	o	n/a
469.638	0.075	939276	keystroke	r	n/a
469.848	0.075	939696	keystroke	d	n/a
469.953	0.09	939906	keystroke	l	n/a
470.373	0.195	940746	keystroke	Key.backspace	n/a
470.838	0.06	941676	keystroke	Key.backspace	n/a
471.063	0.105	942126	keystroke	l	n/a
471.228	0.09	942456	keystroke	d	n/a
471.528	0.06	943056	keystroke	w	n/a
471.603	0.105	943206	keystroke	i	n/a
471.903	0.075	943806	keystroke	f	n/a
472.233	0.09	944466	keystroke	Key.backspace	n/a
472.338	0.06	944676	keystroke	d	n/a
472.593	0.09	945186	keystroke	e	n/a
473.118	0.075	946236	keystroke	Key.enter	n/a
473.1995	5.1105	946399	prompt	n/a	distinct dome helen kits\n
473.838	0.09	947676	keystroke	d	n/a
473.973	0.105	947946	keystroke	i	n/a
474.108	0.09	948216	keystroke	s	n/a
474.213	0.075	948426	keystroke	t	n/a
474.333	0.12	948666	keystroke	i	n/a
474.423	0.105	948846	keystroke	n	n/a
474.558	0.105	949116	keystroke	c	n/a
474.768	0.06	949536	keystroke	t	n/a
474.858	0.075	949716	keystroke	Key.space	n/a
475.263	0.075	950526	keystroke	d	n/a
475.443	0.105	950886	keystroke	o	n/a
475.488	0.105	950976	keystroke	m	n/a
475.563	0.075	951126	keystroke	e	n/a
475.743	0.075	951486	keystroke	Key.space	n/a
476.463	0.075	952926	keystroke	h	n/a
476.523	0.075	953046	keystroke	e	n/a
476.628	0.075	953256	keystroke	l	n/a
476.718	0.075	953436	keystroke	e	n/a
476.853	0.09	953706	keystroke	n	n/a
477.183	0.09	954366	keystroke	Key.space	n/a
477.363	0.09	954726	keystroke	k	n/a
477.513	0.09	955026	keystroke	i	n/a
477.618	0.045	955236	keystroke	t	n/a
477.693	0.09	955386	keystroke	s	n/a
478.248	0.0595	956496	keystroke	Key.enter	n/a
478.314	8.7855	956628	prompt	n/a	idle photographers lighting elder\n
478.9985	0.105	957997	keystroke	i	n/a
479.1185	0.074	958237	keystroke	d	n/a
479.2235	0.09	958447	keystroke	l	n/a
479.4185	0.045	958837	keystroke	e	n/a
479.5675	0.076	959135	keystroke	Key.space	n/a
479.8685	0.105	959737	keystroke	p	n/a
480.0935	0.06	960187	keystroke	h	n/a
480.2285	0.089	960457	keystroke	o	n/a
480.3025	0.075	960605	keystroke	t	n/a
480.4525	0.091	960905	keystroke	o	n/a
480.8285	0.06	961657	keystroke	g	n/a
481.0825	0.09	962165	keystroke	a	n/a
481.3685	0.089	962737	keystroke	Key.backspace	n/a
481.4435	0.075	962887	keystroke	r	n/a
481.5485	0.105	963097	keystroke	a	n/a
481.5935	0.105	963187	keystroke	p	n/a
481.8185	0.104	963637	keystroke	h	n/a
481.9375	0.075	963875	keystroke	i	n/a
481.9975	0.091	963995	keystroke	c	n/a
482.0885	0.105	964177	keystroke	s	n/a
482.2525	0.09	964505	keystroke	Key.space	n/a
482.8825	0.075	965765	keystroke	Key.backspace	n/a
483.0475	0.06	966095	keystroke	Key.backspace	n/a
483.3785	0.044	966757	keystroke	Key.backspace	n/a
483.8125	0.076	967625	keystroke	Key.backspace	n/a
483.9185	0.09	967837	keystroke	e	n/a
483.9935	0.06	967987	keystroke	r	n/a
484.1285	0.09	968257	keystroke	s	n/a
484.2775	0.09	968555	keystroke	Key.space	n/a
485.1025	0.105	970205	keystroke	l	n/a
485.1325	0.105	970265	keystroke	i	n/a
485.2225	0.09	970445	keystroke	g	n/a
485.3575	0.075	970715	keystroke	h	n/a
485.4025	0.121	970805	keystroke	t	n/a
485.8085	0.104	971617	keystroke	i	n/a
485.8685	0.104	971737	keystroke	n	n/a
485.9585	0.044	971917	keystroke	g	n/a
486.0325	0.09	972065	keystroke	Key.space	n/a
486.363	0.09	972726	keystroke	e	n/a
486.468	0.105	972936	keystroke	l	n/a
486.574	0.074	973148	keystroke	d	n/a
486.678	0.105	973356	keystroke	e	n/a
486.753	0.06	973506	keystroke	r	n/a
487.008	0.09	974016	keystroke	Key.enter	n/a
487.1045	7.316	974209	prompt	n/a	crawford carol contributions ascii\n
487.623	0.09	975246	keystroke	c	n/a
487.818	0.075	975636	keystroke	r	n/a
488.013	0.06	976026	keystroke	w	n/a
488.3725	0.075	976745	keystroke	Key.backspace	n/a
488.4925	0.075	976985	keystroke	a	n/a
488.6435	0.089	977287	keystroke	w	n/a
489.3785	0.074	978757	keystroke	f	n/a
489.4675	0.09	978935	keystroke	o	n/a
489.5735	0.06	979147	keystroke	r	n/a
489.7375	0.09	979475	keystroke	d	n/a
489.8575	0.09	979715	keystroke	Key.space	n/a
490.1585	0.075	980317	keystroke	c	n/a
490.2935	0.089	980587	keystroke	a	n/a
490.3975	0.076	980795	keystroke	r	n/a
490.4885	0.074	980977	keystroke	o	n/a
490.6525	0.09	981305	keystroke	l	n/a
490.7875	0.105	981575	keystroke	Key.space	n/a
491.0275	0.075	982055	keystroke	c	n/a
491.1935	0.104	982387	keystroke	o	n/a
491.2525	0.091	982505	keystroke	n	n/a
491.3885	0.059	982777	keystroke	t	n/a
491.5235	0.09	983047	keystroke	r	n/a
491.5975	0.121	983195	keystroke	i	n/a
491.7335	0.135	983467	keystroke	b	n/a
492.0635	0.09	984127	keystroke	u	n/a
492.1835	0.074	984367	keystroke	t	n/a
492.2735	0.089	984547	keystroke	i	n/a
492.3785	0.135	984757	keystroke	o	n/a
492.4685	0.09	984937	keystroke	n	n/a
492.5435	0.075	985087	keystroke	s	n/a
492.6625	0.105	985325	keystroke	Key.space	n/a
493.2635	0.12	986527	keystroke	a	n/a
493.3385	0.105	986677	keystroke	s	n/a
493.6535	0.105	987307	keystroke	c	n/a
493.8035	0.06	987607	keystroke	i	n/a
493.9385	0.09	987877	keystroke	i	n/a
494.3425	0.075	988685	keystroke	Key.enter	n/a
494.425	9.4445	988850	prompt	n/a	narrative legislature howto recommends\n
495.2425	0.091	990485	keystroke	n	n/a
495.3175	0.091	990635	keystroke	a	n/a
495.4525	0.045	990905	keystroke	r	n/a
495.5735	0.074	991147	keystroke	r	n/a
495.9775	0.105	991955	keystroke	a	n/a
496.1885	0.059	992377	keystroke	t	n/a
496.2935	0.075	992587	keystroke	i	n/a
496.3835	0.09	992767	keystroke	v	n/a
496.4885	0.075	992977	keystroke	e	n/a
496.6075	0.09	993215	keystroke	Key.space	n/a
497.1775	0.09	994355	keystroke	l	n/a
497.2825	0.076	994565	keystroke	e	n/a
497.4335	0.075	994867	keystroke	g	n/a
497.4475	0.105	994895	keystroke	i	n/a
498.6185	0.105	997237	keystroke	s	n/a
499.0375	0.076	998075	keystroke	l	n/a
499.1735	0.09	998347	keystroke	a	n/a
499.3225	0.091	998645	keystroke	t	n/a
499.4435	0.09	998887	keystroke	u	n/a
499.6075	0.121	999215	keystroke	r	n/a
499.6835	0.09	999367	keystroke	e	n/a
499.8025	0.105	999605	keystroke	Key.space	n/a
500.2085	0.075	1000417	keystroke	h	n/a
500.2985	0.09	1000597	keystroke	o	n/a
500.4185	0.075	1000837	keystroke	w	n/a
500.6735	0.06	1001347	keystroke	t	n/a
500.7785	0.09	1001557	keystroke	o	n/a
500.8825	0.12	1001765	keystroke	Key.space	n/a
501.1685	0.06	1002337	keystroke	r	n/a
501.4385	0.089	1002877	keystroke	e	n/a
502.5935	0.075	1005187	keystroke	c	n/a
502.7585	0.044	1005517	keystroke	o	n/a
502.7885	0.075	1005577	keystroke	m	n/a
502.9385	0.075	1005877	keystroke	m	n/a
503.0885	0.09	1006177	keystroke	e	n/a
503.1935	0.09	1006387	keystroke	n	n/a
503.3135	0.104	1006627	keystroke	d	n/a
503.4485	0.09	1006897	keystroke	s	n/a
503.7785	0.089	1007557	keystroke	Key.enter	n/a
503.873	5.072	1007746	prompt	n/a	coding mandate fiction eggs\n
504.4385	0.09	1008877	keystroke	c	n/a
504.4985	0.09	1008997	keystroke	o	n/a
504.6025	0.106	1009205	keystroke	d	n/a
504.7385	0.09	1009477	keystroke	i	n/a
504.7835	0.075	1009567	keystroke	n	n/a
504.8735	0.074	1009747	keystroke	g	n/a
504.9775	0.09	1009955	keystroke	Key.space	n/a
505.2635	0.089	1010527	keystroke	m	n/a
505.3825	0.091	1010765	keystroke	a	n/a
505.4885	0.09	1010977	keystroke	n	n/a
505.8635	0.09	1011727	keystroke	d	n/a
506.0285	0.075	1012057	keystroke	a	n/a
506.1785	0.09	1012357	keystroke	t	n/a
506.3285	0.09	1012657	keystroke	e	n/a
506.4785	0.09	1012957	keystroke	Key.space	n/a
507.0635	0.075	1014127	keystroke	f	n/a
507.1085	0.09	1014217	keystroke	i	n/a
507.2435	0.075	1014487	keystroke	c	n/a
507.4385	0.075	1014877	keystroke	t	n/a
507.4685	0.06	1014937	keystroke	i	n/a
507.5735	0.12	1015147	keystroke	o	n/a
507.6335	0.12	1015267	keystroke	n	n/a
507.7835	0.105	1015567	keystroke	Key.space	n/a
507.9635	0.06	1015927	keystroke	e	n/a
508.3685	0.075	1016737	keystroke	g	n/a
508.5485	0.06	1017097	keystroke	g	n/a
508.6985	0.105	1017397	keystroke	s	n/a
508.8635	0.075	1017727	keystroke	Key.enter	n/a
508.945	5.051	1017890	prompt	n/a	effective white tight hero\n
509.5385	0.105	1019077	keystroke	e	n/a
509.6735	0.045	1019347	keystroke	f	n/a
509.7935	0.075	1019587	keystroke	f	n/a
509.9435	0.1345	1019887	keystroke	e	n/a
510.048	0.1205	1020096	keystroke	c	n/a
510.393	0.0905	1020786	keystroke	i	n/a
510.4685	0.09	1020937	keystroke	v	n/a
510.888	0.045	1021776	keystroke	Key.backspace	n/a
511.0235	0.09	1022047	keystroke	Key.backspace	n/a
511.098	0.075	1022196	keystroke	t	n/a
511.248	0.0905	1022496	keystroke	i	n/a
511.293	0.1205	1022586	keystroke	v	n/a
511.414	0.104	1022828	keystroke	e	n/a
511.533	0.09	1023066	keystroke	Key.space	n/a
512.013	0.105	1024026	keystroke	w	n/a
512.133	0.09	1024266	keystroke	h	n/a
512.208	0.0755	1024416	keystroke	i	n/a
512.268	0.09	1024536	keystroke	t	n/a
512.343	0.12	1024686	keystroke	e	n/a
512.478	0.075	1024956	keystroke	Key.space	n/a
512.763	0.075	1025526	keystroke	t	n/a
512.793	0.09	1025586	keystroke	i	n/a
512.928	0.09	1025856	keystroke	g	n/a
512.9735	0.0895	1025947	keystroke	h	n/a
513.123	0.06	1026246	keystroke	t	n/a
513.228	0.075	1026456	keystroke	Key.space	n/a
513.468	0.105	1026936	keystroke	h	n/a
513.5885	0.0595	1027177	keystroke	e	n/a
513.633	0.09	1027266	keystroke	r	n/a
513.708	0.075	1027416	keystroke	o	n/a
513.918	0.075	1027836	keystroke	Key.enter	n/a
514.0035	6.6075	1028007	prompt	n/a	centres create creativity ignored\n
514.533	0.09	1029066	keystroke	c	n/a
514.788	0.06	1029576	keystroke	e	n/a
514.908	0.075	1029816	keystroke	n	n/a
515.028	0.06	1030056	keystroke	t	n/a
515.193	0.105	1030386	keystroke	r	n/a
515.283	0.105	1030566	keystroke	e	n/a
515.508	0.105	1031016	keystroke	s	n/a
515.718	0.075	1031436	keystroke	Key.space	n/a
516.453	0.09	1032906	keystroke	c	n/a
516.663	0.075	1033326	keystroke	r	n/a
516.708	0.09	1033416	keystroke	e	n/a
516.903	0.075	1033806	keystroke	a	n/a
517.053	0.075	1034106	keystroke	t	n/a
517.338	0.09	1034676	keystroke	e	n/a
517.458	0.075	1034916	keystroke	Key.space	n/a
517.818	0.09	1035636	keystroke	c	n/a
518.043	0.105	1036086	keystroke	r	n/a
