onset	duration	sample	value	key	prompt_text
3.2565	10.924	6513	prompt	n/a	the quick brown fox jumps over a lazy dog\n
4.5375	0.043	9075	keystroke_t	t	n/a
4.6105	0.12	9221	keystroke_h	h	n/a
4.8505	0.135	9701	keystroke_e	e	n/a
5.0005	0.135	10001	keystroke_Key.space	Key.space	n/a
5.746	0.135	11492	keystroke_q	q	n/a
5.866	0.1975	11732	keystroke_u	u	n/a
6.001	0.1525	12002	keystroke_i	i	n/a
6.1685	0.105	12337	keystroke_c	c	n/a
6.2885	0.18	12577	keystroke_k	k	n/a
6.4535	0.165	12907	keystroke_Key.space	Key.space	n/a
6.6485	0.135	13297	keystroke_b	b	n/a
6.7535	0.1055	13507	keystroke_r	r	n/a
6.919	0.1345	13838	keystroke_o	o	n/a
7.0685	0.165	14137	keystroke_w	w	n/a
7.2185	0.18	14437	keystroke_n	n	n/a
7.3685	0.135	14737	keystroke_Key.space	Key.space	n/a
8.028	0.075	16056	keystroke_f	f	n/a
8.148	0.12	16296	keystroke_o	o	n/a
8.283	0.12	16566	keystroke_x	x	n/a
8.433	0.1945	16866	keystroke_Key.space	Key.space	n/a
8.6125	0.15	17225	keystroke_j	j	n/a
8.7325	0.105	17465	keystroke_u	u	n/a
8.9735	0.164	17947	keystroke_m	m	n/a
9.1075	0.1505	18215	keystroke_p	p	n/a
9.1975	0.1055	18395	keystroke_s	s	n/a
9.468	0.075	18936	keystroke_t	t	n/a
9.588	0.18	19176	keystroke_Key.space	Key.space	n/a
9.738	0.15	19476	keystroke_o	o	n/a
10.158	0.09	20316	keystroke_Key.backspace	Key.backspace	n/a
10.323	0.075	20646	keystroke_Key.backspace	Key.backspace	n/a
10.458	0.09	20916	keystroke_Key.backspace	Key.backspace	n/a
10.8325	0.12	21665	keystroke_Key.space	Key.space	n/a
11.1775	0.016	22355	keystroke_o	o	n/a
11.2075	0.045	22415	keystroke_v	v	n/a
11.4325	0.091	22865	keystroke_e	e	n/a
11.6125	0.0905	23225	keystroke_r	r	n/a
11.763	0.1195	23526	keystroke_Key.space	Key.space	n/a
11.958	0.105	23916	keystroke_a	a	n/a
12.048	0.135	24096	keystroke_Key.space	Key.space	n/a
12.213	0.165	24426	keystroke_l	l	n/a
12.228	0.03	24456	keystroke_Key.space	Key.space	n/a
12.348	0.135	24696	keystroke_a	a	n/a
13.2185	0.0745	26437	keystroke_z	z	n/a
13.338	0.18	26676	keystroke_y	y	n/a
13.4725	0.1205	26945	keystroke_Key.space	Key.space	n/a
13.608	0.09	27216	keystroke_d	d	n/a
13.728	0.1195	27456	keystroke_o	o	n/a
13.8625	0.0905	27725	keystroke_g	g	n/a
14.058	0.12	28116	keystroke_Key.enter	Key.enter	n/a
14.185	6.2945	28370	prompt	n/a	checks salon implementing shore\n
15.468	0.09	30936	keystroke_c	c	n/a
15.5725	0.12	31145	keystroke_h	h	n/a
15.7075	0.06	31415	keystroke_e	e	n/a
15.9175	0.045	31835	keystroke_c	c	n/a
16.0375	0.165	32075	keystroke_k	k	n/a
16.1575	0.12	32315	keystroke_s	s	n/a
16.2625	0.135	32525	keystroke_Key.space	Key.space	n/a
16.4425	0.09	32885	keystroke_s	s	n/a
16.6825	0.105	33365	keystroke_a	a	n/a
16.8325	0.1055	33665	keystroke_l	l	n/a
17.238	0.15	34476	keystroke_o	o	n/a
17.373	0.1955	34746	keystroke_n	n	n/a
17.5385	0.225	35077	keystroke_Key.space	Key.space	n/a
17.7635	0.1795	35527	keystroke_i	i	n/a
17.898	0.285	35796	keystroke_m	m	n/a
18.108	0.255	36216	keystroke_p	p	n/a
18.288	0.1805	36576	keystroke_l	l	n/a
18.4535	0.1345	36907	keystroke_e	e	n/a
18.573	0.105	37146	keystroke_m	m	n/a
18.663	0.1345	37326	keystroke_e	e	n/a
18.7825	0.121	37565	keystroke_n	n	n/a
18.918	0.105	37836	keystroke_t	t	n/a
19.038	0.1945	38076	keystroke_i	i	n/a
19.1575	0.12	38315	keystroke_n	n	n/a
19.2625	0.135	38525	keystroke_g	g	n/a
19.4125	0.1355	38825	keystroke_Key.space	Key.space	n/a
19.638	0.105	39276	keystroke_s	s	n/a
19.728	0.15	39456	keystroke_h	h	n/a
19.833	0.135	39666	keystroke_o	o	n/a
19.938	0.105	39876	keystroke_r	r	n/a
20.133	0.15	40266	keystroke_e	e	n/a
20.373	0.105	40746	keystroke_Key.enter	Key.enter	n/a
20.4825	5.9825	40965	prompt	n/a	cycle threats without sing\n
21.1385	0.12	42277	keystroke_c	c	n/a
21.5435	0.1195	43087	keystroke_y	y	n/a
21.783	0.0745	43566	keystroke_c	c	n/a
21.9625	0.135	43925	keystroke_l	l	n/a
22.2475	0.12	44495	keystroke_e	e	n/a
22.3525	0.135	44705	keystroke_Key.space	Key.space	n/a
22.9235	0.06	45847	keystroke_t	t	n/a
23.0135	0.105	46027	keystroke_h	h	n/a
23.1035	0.075	46207	keystroke_r	r	n/a
23.2985	0.075	46597	keystroke_e	e	n/a
23.6585	0.105	47317	keystroke_t	t	n/a
24.0935	0.105	48187	keystroke_Key.backspace	Key.backspace	n/a
24.2135	0.134	48427	keystroke_a	a	n/a
24.3935	0.12	48787	keystroke_t	t	n/a
24.5285	0.105	49057	keystroke_s	s	n/a
24.6475	0.076	49295	keystroke_Key.space	Key.space	n/a
24.7685	0.1045	49537	keystroke_w	w	n/a
24.888	0.09	49776	keystroke_i	i	n/a
25.038	0.12	50076	keystroke_t	t	n/a
25.128	0.195	50256	keystroke_h	h	n/a
25.248	0.135	50496	keystroke_o	o	n/a
25.308	0.24	50616	keystroke_u	u	n/a
25.413	0.15	50826	keystroke_t	t	n/a
25.533	0.135	51066	keystroke_Key.space	Key.space	n/a
25.833	0.12	51666	keystroke_s	s	n/a
25.923	0.165	51846	keystroke_i	i	n/a
26.013	0.135	52026	keystroke_n	n	n/a
26.133	0.105	52266	keystroke_g	g	n/a
26.343	0.12	52686	keystroke_Key.enter	Key.enter	n/a
26.4675	6.0275	52935	prompt	n/a	constantly march privilege broad\n
27.3925	0.045	54785	keystroke_c	c	n/a
27.4525	0.165	54905	keystroke_o	o	n/a
27.5725	0.135	55145	keystroke_n	n	n/a
27.6625	0.135	55325	keystroke_s	s	n/a
27.9185	0.074	55837	keystroke_t	t	n/a
28.158	0.1055	56316	keystroke_a	a	n/a
28.2485	0.105	56497	keystroke_n	n	n/a
28.3985	0.09	56797	keystroke_t	t	n/a
28.5185	0.135	57037	keystroke_l	l	n/a
28.6225	0.091	57245	keystroke_y	y	n/a
28.7275	0.195	57455	keystroke_Key.space	Key.space	n/a
28.9075	0.135	57815	keystroke_m	m	n/a
29.058	0.09	58116	keystroke_a	a	n/a
29.2685	0.075	58537	keystroke_r	r	n/a
29.5085	0.15	59017	keystroke_c	c	n/a
29.5835	0.195	59167	keystroke_h	h	n/a
29.7335	0.075	59467	keystroke_Key.space	Key.space	n/a
30.063	0.135	60126	keystroke_p	p	n/a
30.213	0.09	60426	keystroke_r	r	n/a
30.393	0.12	60786	keystroke_i	i	n/a
30.543	0.075	61086	keystroke_v	v	n/a
30.633	0.135	61266	keystroke_i	i	n/a
30.753	0.165	61506	keystroke_l	l	n/a
30.903	0.12	61806	keystroke_e	e	n/a
31.083	0.12	62166	keystroke_g	g	n/a
31.188	0.105	62376	keystroke_e	e	n/a
31.308	0.09	62616	keystroke_Key.space	Key.space	n/a
31.503	0.135	63006	keystroke_b	b	n/a
31.608	0.105	63216	keystroke_r	r	n/a
31.758	0.12	63516	keystroke_o	o	n/a
31.893	0.105	63786	keystroke_a	a	n/a
32.148	0.06	64296	keystroke_d	d	n/a
32.418	0.075	64836	keystroke_Key.enter	Key.enter	n/a
32.498	7.6015	64996	prompt	n/a	houses touring groundwater heads\n
33.1975	0.195	66395	keystroke_h	h	n/a
33.2875	0.15	66575	keystroke_o	o	n/a
33.3625	0.15	66725	keystroke_u	u	n/a
33.4825	0.105	66965	keystroke_s	s	n/a
33.6475	0.09	67295	keystroke_e	e	n/a
33.8725	0.121	67745	keystroke_s	s	n/a
34.0525	0.135	68105	keystroke_Key.space	Key.space	n/a
34.2625	0.09	68525	keystroke_r	r	n/a
34.2785	0.059	68557	keystroke_t	t	n/a
34.6225	0.09	69245	keystroke_Key.backspace	Key.backspace	n/a
34.7875	0.0905	69575	keystroke_Key.backspace	Key.backspace	n/a
35.043	0.12	70086	keystroke_t	t	n/a
35.178	0.1345	70356	keystroke_o	o	n/a
35.2825	0.105	70565	keystroke_u	u	n/a
35.4625	0.12	70925	keystroke_r	r	n/a
35.5675	0.1805	71135	keystroke_i	i	n/a
35.703	0.105	71406	keystroke_n	n	n/a
35.778	0.135	71556	keystroke_g	g	n/a
35.898	0.12	71796	keystroke_Key.space	Key.space	n/a
36.4535	0.06	72907	keystroke_g	g	n/a
36.6035	0.12	73207	keystroke_r	r	n/a
36.6785	0.225	73357	keystroke_o	o	n/a
36.7985	0.225	73597	keystroke_u	u	n/a
36.9185	0.165	73837	keystroke_n	n	n/a
37.0085	0.06	74017	keystroke_d	d	n/a
37.2785	0.12	74557	keystroke_w	w	n/a
37.5185	0.12	75037	keystroke_a	a	n/a
38.2985	0.09	76597	keystroke_t	t	n/a
38.3885	0.075	76777	keystroke_e	e	n/a
38.5385	0.12	77077	keystroke_r	r	n/a
38.6735	0.09	77347	keystroke_Key.space	Key.space	n/a
39.063	0.105	78126	keystroke_h	h	n/a
39.123	0.075	78246	keystroke_e	e	n/a
39.318	0.105	78636	keystroke_a	a	n/a
39.543	0.06	79086	keystroke_d	d	n/a
39.723	0.12	79446	keystroke_s	s	n/a
39.948	0.15	79896	keystroke_Key.enter	Key.enter	n/a
40.1025	8.2775	80205	prompt	n/a	elimination adapter laboratories sorry\n
40.9225	0.105	81845	keystroke_e	e	n/a
40.9975	0.18	81995	keystroke_l	l	n/a
41.1625	0.195	82325	keystroke_i	i	n/a
41.3425	0.1655	82685	keystroke_m	m	n/a
41.493	0.15	82986	keystroke_i	i	n/a
41.598	0.195	83196	keystroke_n	n	n/a
42.0175	0.121	84035	keystroke_a	a	n/a
42.2735	0.074	84547	keystroke_t	t	n/a
42.3325	0.181	84665	keystroke_i	i	n/a
42.4525	0.225	84905	keystroke_o	o	n/a
42.6035	0.195	85207	keystroke_n	n	n/a
42.7675	0.181	85535	keystroke_Key.space	Key.space	n/a
43.0985	0.105	86197	keystroke_a	a	n/a
43.4735	0.045	86947	keystroke_d	d	n/a
43.6535	0.105	87307	keystroke_a	a	n/a
43.7735	0.12	87547	keystroke_p	p	n/a
43.9685	0.075	87937	keystroke_t	t	n/a
44.1635	0.09	88327	keystroke_e	e	n/a
44.3435	0.075	88687	keystroke_r	r	n/a
44.4625	0.151	88925	keystroke_Key.space	Key.space	n/a
44.6735	0.135	89347	keystroke_l	l	n/a
45.1835	0.09	90367	keystroke_a	a	n/a
45.3335	0.179	90667	keystroke_b	b	n/a
45.4535	0.164	90907	keystroke_o	o	n/a
45.8125	0.075	91625	keystroke_r	r	n/a
46.008	0.105	92016	keystroke_a	a	n/a
46.263	0.06	92526	keystroke_t	t	n/a
46.503	0.12	93006	keystroke_o	o	n/a
46.668	0.075	93336	keystroke_r	r	n/a
46.788	0.09	93576	keystroke_i	i	n/a
46.923	0.105	93846	keystroke_e	e	n/a
47.148	0.105	94296	keystroke_s	s	n/a
47.238	0.12	94476	keystroke_Key.space	Key.space	n/a
47.418	0.105	94836	keystroke_s	s	n/a
47.538	0.105	95076	keystroke_o	o	n/a
47.718	0.06	95436	keystroke_r	r	n/a
47.838	0.135	95676	keystroke_r	r	n/a
47.958	0.12	95916	keystroke_y	y	n/a
48.288	0.09	96576	keystroke_Key.enter	Key.enter	n/a
48.3835	7.3165	96767	prompt	n/a	shortcuts manage amazing achieve\n
49.2035	0.0745	98407	keystroke_s	s	n/a
49.293	0.12	98586	keystroke_h	h	n/a
49.353	0.135	98706	keystroke_o	o	n/a
49.458	0.045	98916	keystroke_r	r	n/a
49.5935	0.06	99187	keystroke_t	t	n/a
49.8175	0.03	99635	keystroke_c	c	n/a
49.908	0.0755	99816	keystroke_u	u	n/a
50.0285	0.045	100057	keystroke_t	t	n/a
50.1925	0.1205	100385	keystroke_e	e	n/a
50.328	0.195	100656	keystroke_Key.space	Key.space	n/a
50.508	0.12	101016	keystroke_m	m	n/a
50.853	0.075	101706	keystroke_Key.backspace	Key.backspace	n/a
51.003	0.06	102006	keystroke_Key.backspace	Key.backspace	n/a
51.123	0.12	102246	keystroke_Key.backspace	Key.backspace	n/a
51.258	0.1655	102516	keystroke_s	s	n/a
51.378	0.1495	102756	keystroke_Key.space	Key.space	n/a
51.783	0.135	103566	keystroke_m	m	n/a
51.948	0.135	103896	keystroke_a	a	n/a
52.023	0.1345	104046	keystroke_n	n	n/a
52.1585	0.1045	104317	keystroke_a	a	n/a
52.3825	0.135	104765	keystroke_g	g	n/a
52.5025	0.105	105005	keystroke_e	e	n/a
52.6225	0.1205	105245	keystroke_Key.space	Key.space	n/a
52.848	0.1045	105696	keystroke_a	a	n/a
52.9375	0.1055	105875	keystroke_m	m	n/a
53.0275	0.1055	106055	keystroke_a	a	n/a
53.793	0.1345	107586	keystroke_z	z	n/a
53.943	0.1645	107886	keystroke_i	i	n/a
53.9875	0.1955	107975	keystroke_n	n	n/a
54.123	0.0755	108246	keystroke_g	g	n/a
54.243	0.1495	108486	keystroke_Key.space	Key.space	n/a
54.4075	0.09	108815	keystroke_a	a	n/a
54.6475	0.0605	109295	keystroke_c	c	n/a
54.7225	0.1655	109445	keystroke_h	h	n/a
54.8275	0.1355	109655	keystroke_i	i	n/a
54.903	0.0895	109806	keystroke_e	e	n/a
55.1575	0.12	110315	keystroke_v	v	n/a
55.2925	0.105	110585	keystroke_e	e	n/a
55.5775	0.1205	111155	keystroke_Key.enter	Key.enter	n/a
55.7055	9.189	111411	prompt	n/a	jeffrey tracy truly dating\n
56.583	0.135	113166	keystroke_j	j	n/a
56.658	0.075	113316	keystroke_e	e	n/a
57.0185	0.06	114037	keystroke_f	f	n/a
57.1385	0.075	114277	keystroke_f	f	n/a
57.3185	0.075	114637	keystroke_r	r	n/a
57.513	0.0755	115026	keystroke_e	e	n/a
57.6635	0.12	115327	keystroke_e	e	n/a
58.0835	0.135	116167	keystroke_Key.backspace	Key.backspace	n/a
58.413	0.135	116826	keystroke_y	y	n/a
58.623	0.135	117246	keystroke_Key.space	Key.space	n/a
59.463	0.105	118926	keystroke_t	t	n/a
59.628	0.09	119256	keystroke_r	r	n/a
59.913	0.105	119826	keystroke_a	a	n/a
60.663	0.1205	121326	keystroke_c	c	n/a
60.753	0.165	121506	keystroke_y	y	n/a
60.888	0.1205	121776	keystroke_Key.space	Key.space	n/a
61.6985	0.075	123397	keystroke_t	t	n/a
61.8485	0.12	123697	keystroke_r	r	n/a
61.9535	0.075	123907	keystroke_u	u	n/a
62.0885	0.225	124177	keystroke_l	l	n/a
62.2235	0.09	124447	keystroke_y	y	n/a
62.3285	0.135	124657	keystroke_Key.space	Key.space	n/a
62.898	0.075	125796	keystroke_f	f	n/a
63.2585	0.135	126517	keystroke_Key.backspace	Key.backspace	n/a
63.3485	0.105	126697	keystroke_d	d	n/a
63.5585	0.105	127117	keystroke_a	a	n/a
63.8135	0.06	127627	keystroke_t	t	n/a
63.8885	0.195	127777	keystroke_i	i	n/a
63.9785	0.1495	127957	keystroke_n	n	n/a
64.0685	0.0895	128137	keystroke_g	g	n/a
64.743	0.15	129486	keystroke_Key.enter	Key.enter	n/a
64.898	8.877	129796	prompt	n/a	informational adam script spotlight\n
65.7035	0.2095	131407	keystroke_i	i	n/a
65.7935	0.1495	131587	keystroke_n	n	n/a
65.928	0.09	131856	keystroke_f	f	n/a
66.033	0.12	132066	keystroke_o	o	n/a
66.138	0.075	132276	keystroke_r	r	n/a
66.243	0.15	132486	keystroke_m	m	n/a
66.378	0.0605	132756	keystroke_t	t	n/a
66.918	0.15	133836	keystroke_Key.backspace	Key.backspace	n/a
67.053	0.03	134106	keystroke_a	a	n/a
67.203	0.075	134406	keystroke_t	t	n/a
67.263	0.24	134526	keystroke_i	i	n/a
67.353	0.165	134706	keystroke_o	o	n/a
67.443	0.135	134886	keystroke_n	n	n/a
67.563	0.12	135126	keystroke_a	a	n/a
67.668	0.135	135336	keystroke_l	l	n/a
67.758	0.135	135516	keystroke_Key.space	Key.space	n/a
68.268	0.105	136536	keystroke_a	a	n/a
68.478	0.06	136956	keystroke_d	d	n/a
68.688	0.135	137376	keystroke_a	a	n/a
68.838	0.18	137676	keystroke_m	m	n/a
68.973	0.12	137946	keystroke_Key.space	Key.space	n/a
69.1535	0.09	138307	keystroke_s	s	n/a
69.3635	0.06	138727	keystroke_c	c	n/a
69.5585	0.09	139117	keystroke_r	r	n/a
69.6635	0.1645	139327	keystroke_i	i	n/a
69.783	0.165	139566	keystroke_p	p	n/a
69.873	0.105	139746	keystroke_t	t	n/a
70.008	0.135	140016	keystroke_Key.space	Key.space	n/a
70.443	0.1205	140886	keystroke_s	s	n/a
70.5785	0.1645	141157	keystroke_p	p	n/a
70.698	0.18	141396	keystroke_o	o	n/a
70.848	0.105	141696	keystroke_t	t	n/a
71.763	0.12	143526	keystroke_l	l	n/a
71.958	0.09	143916	keystroke_o	o	n/a
72.063	0.09	144126	keystroke_i	i	n/a
72.438	0.075	144876	keystroke_Key.backspace	Key.backspace	n/a
72.573	0.105	145146	keystroke_Key.backspace	Key.backspace	n/a
72.889	0.104	145778	keystroke_i	i	n/a
72.963	0.09	145926	keystroke_g	g	n/a
73.098	0.1055	146196	keystroke_h	h	n/a
73.143	0.1205	146286	keystroke_t	t	n/a
73.638	0.1355	147276	keystroke_Key.enter	Key.enter	n/a
73.7785	9.3865	147557	prompt	n/a	jerusalem residents lived classifieds\n
75.138	0.15	150276	keystroke_j	j	n/a
75.213	0.12	150426	keystroke_e	e	n/a
75.423	0.1205	150846	keystroke_r	r	n/a
75.5885	0.12	151177	keystroke_u	u	n/a
76.023	0.075	152046	keystroke_s	s	n/a
76.233	0.12	152466	keystroke_a	a	n/a
76.338	0.12	152676	keystroke_l	l	n/a
76.5925	0.136	153185	keystroke_e	e	n/a
76.6825	0.196	153365	keystroke_m	m	n/a
76.8635	0.149	153727	keystroke_Key.space	Key.space	n/a
77.2385	0.075	154477	keystroke_r	r	n/a
77.4025	0.0905	154805	keystroke_e	e	n/a
77.6435	0.09	155287	keystroke_s	s	n/a
77.7185	0.135	155437	keystroke_i	i	n/a
77.8385	0.045	155677	keystroke_d	d	n/a
77.9735	0.09	155947	keystroke_e	e	n/a
78.0335	0.105	156067	keystroke_n	n	n/a
78.1835	0.075	156367	keystroke_t	t	n/a
78.4385	0.12	156877	keystroke_s	s	n/a
78.5435	0.1195	157087	keystroke_Key.space	Key.space	n/a
79.2485	0.195	158497	keystroke_l	l	n/a
79.3985	0.1795	158797	keystroke_i	i	n/a
79.548	0.015	159096	keystroke_v	v	n/a
79.878	0.075	159756	keystroke_e	e	n/a
80.0735	0.075	160147	keystroke_d	d	n/a
80.223	0.105	160446	keystroke_Key.space	Key.space	n/a
80.688	0.06	161376	keystroke_c	c	n/a
80.763	0.135	161526	keystroke_l	l	n/a
80.943	0.06	161886	keystroke_a	a	n/a
81.138	0.045	162276	keystroke_s	s	n/a
81.243	0.09	162486	keystroke_s	s	n/a
81.4385	0.1195	162877	keystroke_i	i	n/a
81.5135	0.1345	163027	keystroke_f	f	n/a
81.663	0.15	163326	keystroke_i	i	n/a
82.233	0.015	164466	keystroke_e	e	n/a
82.6985	0.045	165397	keystroke_d	d	n/a
83.058	0.105	166116	keystroke_Key.enter	Key.enter	n/a
83.169	8.2455	166338	prompt	n/a	arabia mapping interventions subscribers\n
84.048	0.075	168096	keystroke_a	a	n/a
84.258	0.045	168516	keystroke_r	r	n/a
84.468	0.0455	168936	keystroke_a	a	n/a
84.6635	0.135	169327	keystroke_b	b	n/a
84.8135	0.15	169627	keystroke_i	i	n/a
84.9185	0.15	169837	keystroke_a	a	n/a
85.0535	0.075	170107	keystroke_Key.space	Key.space	n/a
85.6385	0.105	171277	keystroke_m	m	n/a
85.908	0.12	171816	keystroke_a	a	n/a
86.043	0.06	172086	keystroke_p	p	n/a
86.178	0.105	172356	keystroke_p	p	n/a
86.313	0.195	172626	keystroke_i	i	n/a
86.433	0.15	172866	keystroke_n	n	n/a
86.493	0.12	172986	keystroke_g	g	n/a
86.658	0.135	173316	keystroke_Key.space	Key.space	n/a
86.808	0.15	173616	keystroke_i	i	n/a
86.868	0.15	173736	keystroke_n	n	n/a
86.943	0.105	173886	keystroke_t	t	n/a
87.138	0.12	174276	keystroke_e	e	n/a
87.318	0.09	174636	keystroke_r	r	n/a
87.6335	0.09	175267	keystroke_v	v	n/a
87.7985	0.06	175597	keystroke_e	e	n/a
87.8735	0.09	175747	keystroke_n	n	n/a
88.0525	0.076	176105	keystroke_t	t	n/a
88.1585	0.1645	176317	keystroke_i	i	n/a
88.263	0.18	176526	keystroke_o	o	n/a
88.368	0.18	176736	keystroke_n	n	n/a
88.533	0.105	177066	keystroke_s	s	n/a
88.6835	0.0895	177367	keystroke_Key.space	Key.space	n/a
89.388	0.151	178776	keystroke_s	s	n/a
89.568	0.1945	179136	keystroke_u	u	n/a
89.688	0.165	179376	keystroke_b	b	n/a
89.8975	0.09	179795	keystroke_s	s	n/a
90.1085	0.044	180217	keystroke_c	c	n/a
90.2875	0.0605	180575	keystroke_r	r	n/a
90.363	0.18	180726	keystroke_i	i	n/a
90.483	0.1505	180966	keystroke_b	b	n/a
90.603	0.09	181206	keystroke_e	e	n/a
90.753	0.12	181506	keystroke_r	r	n/a
91.008	0.135	182016	keystroke_s	s	n/a
91.323	0.0905	182646	keystroke_Key.enter	Key.enter	n/a
91.418	8.1565	182836	prompt	n/a	tutorials popularity failing andale\n
92.448	0.06	184896	keystroke_t	t	n/a
92.523	0.106	185046	keystroke_u	u	n/a
92.598	0.105	185196	keystroke_t	t	n/a
92.748	0.1355	185496	keystroke_o	o	n/a
92.8835	0.135	185767	keystroke_r	r	n/a
93.0335	0.15	186067	keystroke_i	i	n/a
93.4835	0.12	186967	keystroke_a	a	n/a
93.5885	0.15	187177	keystroke_l	l	n/a
93.7235	0.15	187447	keystroke_s	s	n/a
93.8285	0.15	187657	keystroke_Key.space	Key.space	n/a
94.0085	0.18	188017	keystroke_p	p	n/a
94.1585	0.18	188317	keystroke_o	o	n/a
94.2935	0.135	188587	keystroke_p	p	n/a
94.5185	0.165	189037	keystroke_u	u	n/a
94.6685	0.1945	189337	keystroke_l	l	n/a
94.8185	0.0745	189637	keystroke_a	a	n/a
95.763	0.09	191526	keystroke_r	r	n/a
95.868	0.09	191736	keystroke_i	i	n/a
95.988	0.09	191976	keystroke_t	t	n/a
96.213	0.06	192426	keystroke_y	y	n/a
96.333	0.1045	192666	keystroke_Key.space	Key.space	n/a
97.203	0.075	194406	keystroke_f	f	n/a
97.413	0.135	194826	keystroke_a	a	n/a
97.533	0.12	195066	keystroke_i	i	n/a
97.623	0.18	195246	keystroke_l	l	n/a
97.773	0.255	195546	keystroke_i	i	n/a
97.908	0.15	195816	keystroke_n	n	n/a
97.998	0.105	195996	keystroke_g	g	n/a
98.148	0.12	196296	keystroke_Key.space	Key.space	n/a
98.433	0.105	196866	keystroke_a	a	n/a
98.539	0.134	197078	keystroke_n	n	n/a
98.688	0.06	197376	keystroke_d	d	n/a
98.883	0.075	197766	keystroke_a	a	n/a
98.973	0.09	197946	keystroke_l	l	n/a
99.168	0.105	198336	keystroke_e	e	n/a
99.483	0.09	198966	keystroke_Key.enter	Key.enter	n/a
99.5775	7.8275	199155	prompt	n/a	clients wallace installation capitol\n
100.533	0.09	201066	keystroke_c	c	n/a
100.638	0.15	201276	keystroke_l	l	n/a
100.728	0.165	201456	keystroke_i	i	n/a
100.878	0.105	201756	keystroke_e	e	n/a
101.028	0.135	202056	keystroke_n	n	n/a
101.133	0.075	202266	keystroke_t	t	n/a
101.373	0.12	202746	keystroke_s	s	n/a
101.478	0.09	202956	keystroke_Key.space	Key.space	n/a
101.868	0.06	203736	keystroke_w	w	n/a
102.048	0.0905	204096	keystroke_a	a	n/a
102.1985	0.105	204397	keystroke_l	l	n/a
102.363	0.12	204726	keystroke_l	l	n/a
102.438	0.105	204876	keystroke_a	a	n/a
102.7085	0.06	205417	keystroke_c	c	n/a
102.9185	0.12	205837	keystroke_e	e	n/a
103.0235	0.135	206047	keystroke_Key.space	Key.space	n/a
103.2035	0.195	206407	keystroke_i	i	n/a
103.3235	0.18	206647	keystroke_n	n	n/a
103.3835	0.075	206767	keystroke_s	s	n/a
103.6235	0.06	207247	keystroke_t	t	n/a
103.8635	0.105	207727	keystroke_a	a	n/a
103.9385	0.09	207877	keystroke_l	l	n/a
104.088	0.135	208176	keystroke_l	l	n/a
104.298	0.105	208596	keystroke_a	a	n/a
104.8985	0.075	209797	keystroke_t	t	n/a
104.9585	0.135	209917	keystroke_i	i	n/a
105.0485	0.195	210097	keystroke_o	o	n/a
105.1685	0.195	210337	keystroke_n	n	n/a
105.3485	0.1795	210697	keystroke_Key.space	Key.space	n/a
105.753	0.06	211506	keystroke_c	c	n/a
106.0085	0.06	212017	keystroke_a	a	n/a
106.0985	0.09	212197	keystroke_p	p	n/a
106.3535	0.135	212707	keystroke_i	i	n/a
106.5035	0.0895	213007	keystroke_t	t	n/a
106.773	0.1205	213546	keystroke_o	o	n/a
106.9985	0.12	213997	keystroke_l	l	n/a
107.3285	0.075	214657	keystroke_Key.enter	Key.enter	n/a
107.408	7.572	214816	prompt	n/a	alignment monster motivation sensor\n
108.1385	0.075	216277	keystroke_a	a	n/a
108.2285	0.105	216457	keystroke_l	l	n/a
108.4085	0.105	216817	keystroke_i	i	n/a
108.5435	0.105	217087	keystroke_g	g	n/a
108.6185	0.0895	217237	keystroke_n	n	n/a
108.813	0.105	217626	keystroke_m	m	n/a
108.933	0.1055	217866	keystroke_e	e	n/a
109.0235	0.12	218047	keystroke_n	n	n/a
109.1585	0.075	218317	keystroke_t	t	n/a
109.2635	0.195	218527	keystroke_Key.space	Key.space	n/a
109.4435	0.135	218887	keystroke_m	m	n/a
109.5335	0.165	219067	keystroke_o	o	n/a
109.6685	0.15	219337	keystroke_n	n	n/a
109.7735	0.105	219547	keystroke_s	s	n/a
109.9985	0.06	219997	keystroke_t	t	n/a
110.2385	0.06	220477	keystroke_e	e	n/a
110.3885	0.075	220777	keystroke_r	r	n/a
110.5235	0.12	221047	keystroke_Key.space	Key.space	n/a
110.6885	0.1495	221377	keystroke_m	m	n/a
110.8085	0.1195	221617	keystroke_o	o	n/a
110.913	0.075	221826	keystroke_t	t	n/a
111.003	0.135	222006	keystroke_i	i	n/a
111.183	0.105	222366	keystroke_v	v	n/a
111.408	0.0755	222816	keystroke_a	a	n/a
111.6485	0.045	223297	keystroke_t	t	n/a
111.7085	0.12	223417	keystroke_i	i	n/a
111.7835	0.21	223567	keystroke_o	o	n/a
111.9185	0.15	223837	keystroke_n	n	n/a
112.0385	0.12	224077	keystroke_Key.space	Key.space	n/a
112.4135	0.06	224827	keystroke_s	s	n/a
112.5635	0.075	225127	keystroke_e	e	n/a
112.8785	0.15	225757	keystroke_n	n	n/a
113.1935	0.12	226387	keystroke_s	s	n/a
113.3285	0.105	226657	keystroke_o	o	n/a
113.5535	0.105	227107	keystroke_e	e	n/a
113.9885	0.09	227977	keystroke_r	r	n/a
114.1235	0.09	228247	keystroke_Key.backspace	Key.backspace	n/a
114.2885	0.09	228577	keystroke_Key.backspace	Key.backspace	n/a
114.4085	0.105	228817	keystroke_r	r	n/a
114.8885	0.09	229777	keystroke_Key.enter	Key.enter	n/a
114.983	9.162	229966	prompt	n/a	belarus glasgow twisted exhaust\n
115.7885	0.105	231577	keystroke_b	b	n/a
115.8785	0.075	231757	keystroke_e	e	n/a
116.0285	0.15	232057	keystroke_l	l	n/a
116.1635	0.075	232327	keystroke_a	a	n/a
116.3885	0.03	232777	keystroke_r	r	n/a
116.4485	0.1055	232897	keystroke_u	u	n/a
116.613	0.12	233226	keystroke_s	s	n/a
116.748	0.09	233496	keystroke_Key.space	Key.space	n/a
117.2435	0.06	234487	keystroke_g	g	n/a
117.3485	0.15	234697	keystroke_l	l	n/a
117.5285	0.12	235057	keystroke_a	a	n/a
117.7535	0.09	235507	keystroke_s	s	n/a
118.1585	0.06	236317	keystroke_g	g	n/a
118.2635	0.105	236527	keystroke_o	o	n/a
118.4435	0.105	236887	keystroke_w	w	n/a
118.923	0.15	237846	keystroke_Key.space	Key.space	n/a
119.328	0.075	238656	keystroke_t	t	n/a
119.5685	0.09	239137	keystroke_w	w	n/a
119.7035	0.135	239407	keystroke_i	i	n/a
120.0185	0.09	240037	keystroke_s	s	n/a
120.2585	0.06	240517	keystroke_t	t	n/a
120.5135	0.06	241027	keystroke_e	e	n/a
120.8735	0.0595	241747	keystroke_d	d	n/a
120.963	0.15	241926	keystroke_Key.space	Key.space	n/a
121.713	0.075	243426	keystroke_e	e	n/a
122.193	0.015	244386	keystroke_x	x	n/a
122.359	0.12	244718	keystroke_a	a	n/a
122.839	0.075	245678	keystroke_Key.backspace	Key.backspace	n/a
123.063	0.106	246126	keystroke_h	h	n/a
123.124	0.105	246248	keystroke_a	a	n/a
123.259	0.105	246518	keystroke_u	u	n/a
123.364	0.105	246728	keystroke_s	s	n/a
123.694	0.09	247388	keystroke_t	t	n/a
124.054	0.09	248108	keystroke_Key.enter	Key.enter	n/a
124.148	6.732	248296	prompt	n/a	charts hair revision evaluating\n
124.804	0.06	249608	keystroke_c	c	n/a
124.909	0.0895	249818	keystroke_h	h	n/a
125.028	0.075	250056	keystroke_a	a	n/a
125.253	0.045	250506	keystroke_r	r	n/a
125.418	0.045	250836	keystroke_t	t	n/a
125.628	0.091	251256	keystroke_s	s	n/a
125.763	0.0905	251526	keystroke_Key.space	Key.space	n/a
125.9135	0.135	251827	keystroke_h	h	n/a
126.0035	0.09	252007	keystroke_a	a	n/a
126.1835	0.105	252367	keystroke_i	i	n/a
126.2735	0.105	252547	keystroke_r	r	n/a
126.3935	0.12	252787	keystroke_Key.space	Key.space	n/a
126.6785	0.09	253357	keystroke_r	r	n/a
126.9035	0.09	253807	keystroke_e	e	n/a
127.6235	0.045	255247	keystroke_v	v	n/a
127.7435	0.135	255487	keystroke_i	i	n/a
127.8935	0.135	255787	keystroke_s	s	n/a
127.9985	0.15	255997	keystroke_i	i	n/a
128.1035	0.21	256207	keystroke_o	o	n/a
128.2235	0.18	256447	keystroke_n	n	n/a
128.3735	0.15	256747	keystroke_Key.space	Key.space	n/a
128.5535	0.09	257107	keystroke_e	e	n/a
128.8385	0.045	257677	keystroke_c	c	n/a
129.1085	0.105	258217	keystroke_Key.backspace	Key.backspace	n/a
129.1835	0.06	258367	keystroke_v	v	n/a
129.3935	0.12	258787	keystroke_a	a	n/a
129.5285	0.18	259057	keystroke_l	l	n/a
129.6935	0.165	259387	keystroke_u	u	n/a
129.8435	0.09	259687	keystroke_a	a	n/a
130.1135	0.06	260227	keystroke_t	t	n/a
130.2035	0.225	260407	keystroke_i	i	n/a
130.3685	0.165	260737	keystroke_n	n	n/a
130.4585	0.165	260917	keystroke_g	g	n/a
130.7735	0.105	261547	keystroke_Key.enter	Key.enter	n/a
130.8825	6.7625	261765	prompt	n/a	lions sexuality helen means\n
131.5985	0.12	263197	keystroke_l	l	n/a
131.7635	0.165	263527	keystroke_i	i	n/a
131.8835	0.24	263767	keystroke_o	o	n/a
132.0485	0.195	264097	keystroke_n	n	n/a
132.1685	0.15	264337	keystroke_s	s	n/a
132.2735	0.135	264547	keystroke_Key.space	Key.space	n/a
132.7235	0.12	265447	keystroke_s	s	n/a
132.934	0.0745	265868	keystroke_e	e	n/a
133.4885	0.105	266977	keystroke_x	x	n/a
133.6085	0.105	267217	keystroke_u	u	n/a
133.7435	0.12	267487	keystroke_a	a	n/a
133.8485	0.165	267697	keystroke_l	l	n/a
133.9835	0.15	267967	keystroke_i	i	n/a
134.0885	0.075	268177	keystroke_t	t	n/a
134.2685	0.075	268537	keystroke_y	y	n/a
134.3885	0.12	268777	keystroke_Key.space	Key.space	n/a
134.5835	0.105	269167	keystroke_h	h	n/a
134.6735	0.12	269347	keystroke_e	e	n/a
134.838	0.136	269676	keystroke_l	l	n/a
134.958	0.1355	269916	keystroke_e	e	n/a
135.1085	0.2255	270217	keystroke_n	n	n/a
135.304	0.15	270608	keystroke_Key.space	Key.space	n/a
135.5735	0.165	271147	keystroke_m	m	n/a
135.6935	0.06	271387	keystroke_a	a	n/a
136.0385	0.12	272077	keystroke_Key.backspace	Key.backspace	n/a
136.1435	0.105	272287	keystroke_e	e	n/a
136.4585	0.135	272917	keystroke_n	n	n/a
136.908	0.09	273816	keystroke_Key.backspace	Key.backspace	n/a
137.013	0.09	274026	keystroke_a	a	n/a
137.178	0.1205	274356	keystroke_n	n	n/a
137.3135	0.09	274627	keystroke_s	s	n/a
137.554	0.09	275108	keystroke_Key.enter	Key.enter	n/a
137.648	9.252	275296	prompt	n/a	shoe speaking husband psychiatry\n
138.319	0.135	276638	keystroke_s	s	n/a
138.454	0.1045	276908	keystroke_h	h	n/a
138.5285	0.15	277057	keystroke_o	o	n/a
138.6185	0.105	277237	keystroke_w	w	n/a
138.7085	0.12	277417	keystroke_Key.space	Key.space	n/a
139.5335	0.075	279067	keystroke_Key.backspace	Key.backspace	n/a
139.6385	0.135	279277	keystroke_Key.backspace	Key.backspace	n/a
139.7135	0.1495	279427	keystroke_e	e	n/a
139.9085	0.1195	279817	keystroke_Key.space	Key.space	n/a
140.599	0.09	281198	keystroke_s	s	n/a
140.674	0.135	281348	keystroke_p	p	n/a
140.794	0.075	281588	keystroke_e	e	n/a
140.9885	0.09	281977	keystroke_a	a	n/a
141.0935	0.09	282187	keystroke_k	k	n/a
141.2885	0.2095	282577	keystroke_i	i	n/a
141.438	0.1355	282876	keystroke_n	n	n/a
141.469	0.1195	282938	keystroke_g	g	n/a
141.6785	0.105	283357	keystroke_Key.space	Key.space	n/a
142.098	0.135	284196	keystroke_u	u	n/a
142.458	0.09	284916	keystroke_Key.backspace	Key.backspace	n/a
142.699	0.1645	285398	keystroke_h	h	n/a
142.803	0.1355	285606	keystroke_u	u	n/a
142.9085	0.135	285817	keystroke_s	s	n/a
143.2235	0.12	286447	keystroke_b	b	n/a
143.3735	0.0895	286747	keystroke_a	a	n/a
143.479	0.104	286958	keystroke_n	n	n/a
143.613	0.061	287226	keystroke_d	d	n/a
143.733	0.12	287466	keystroke_Key.space	Key.space	n/a
144.394	0.1195	288788	keystroke_p	p	n/a
144.6935	0.1345	289387	keystroke_s	s	n/a
144.7985	0.0895	289597	keystroke_y	y	n/a
145.233	0.1205	290466	keystroke_c	c	n/a
145.3685	0.165	290737	keystroke_h	h	n/a
145.4885	0.135	290977	keystroke_i	i	n/a
145.654	0.0895	291308	keystroke_a	a	n/a
145.969	0.1045	291938	keystroke_t	t	n/a
146.3585	0.0905	292717	keystroke_r	r	n/a
146.4785	0.12	292957	keystroke_u	u	n/a
146.8085	0.09	293617	keystroke_Key.enter	Key.enter	n/a
146.9035	7.7815	293807	prompt	n/a	convention rolled gotten vienna\n
147.8885	0.09	295777	keystroke_c	c	n/a
147.9635	0.15	295927	keystroke_o	o	n/a
148.0535	0.135	296107	keystroke_n	n	n/a
148.1435	0.06	296287	keystroke_v	v	n/a
148.3385	0.1055	296677	keystroke_e	e	n/a
148.444	0.105	296888	keystroke_n	n	n/a
148.579	0.075	297158	keystroke_t	t	n/a
148.669	0.15	297338	keystroke_i	i	n/a
148.744	0.2095	297488	keystroke_o	o	n/a
148.8785	0.165	297757	keystroke_n	n	n/a
149.0135	0.135	298027	keystroke_Key.space	Key.space	n/a
149.1335	0.105	298267	keystroke_r	r	n/a
149.2235	0.09	298447	keystroke_o	o	n/a
149.4335	0.045	298867	keystroke_l	l	n/a
149.5535	0.12	299107	keystroke_l	l	n/a
149.7185	0.09	299437	keystroke_e	e	n/a
149.9135	0.12	299827	keystroke_d	d	n/a
150.0185	0.135	300037	keystroke_Key.space	Key.space	n/a
150.7835	0.075	301567	keystroke_g	g	n/a
150.8735	0.105	301747	keystroke_o	o	n/a
151.0085	0.03	302017	keystroke_t	t	n/a
151.0985	0.075	302197	keystroke_t	t	n/a
151.2935	0.15	302587	keystroke_e	e	n/a
151.3985	0.1505	302797	keystroke_n	n	n/a
151.533	0.136	303066	keystroke_Key.space	Key.space	n/a
151.939	0.029	303878	keystroke_v	v	n/a
152.029	0.15	304058	keystroke_i	i	n/a
152.209	0.134	304418	keystroke_a	a	n/a
152.328	0.06	304656	keystroke_n	n	n/a
152.448	0.105	304896	keystroke_n	n	n/a
152.554	0.119	305108	keystroke_a	a	n/a
152.973	0.075	305946	keystroke_Key.backspace	Key.backspace	n/a
153.123	0.075	306246	keystroke_Key.backspace	Key.backspace	n/a
153.243	0.045	306486	keystroke_Key.backspace	Key.backspace	n/a
153.453	0.015	306906	keystroke_Key.backspace	Key.backspace	n/a
153.798	0.135	307596	keystroke_e	e	n/a
153.993	0.09	307986	keystroke_n	n	n/a
154.173	0.105	308346	keystroke_n	n	n/a
154.293	0.105	308586	keystroke_a	a	n/a
154.593	0.09	309186	keystroke_Key.enter	Key.enter	n/a
154.69	7.615	309380	prompt	n/a	incident theories consecutive suspect\n
155.613	0.196	311226	keystroke_i	i	n/a
155.733	0.135	311466	keystroke_n	n	n/a
155.853	0.105	311706	keystroke_c	c	n/a
155.973	0.105	311946	keystroke_i	i	n/a
156.108	0.09	312216	keystroke_d	d	n/a
156.333	0.105	312666	keystroke_e	e	n/a
156.4535	0.105	312907	keystroke_n	n	n/a
156.5885	0.09	313177	keystroke_t	t	n/a
156.7085	0.12	313417	keystroke_Key.space	Key.space	n/a
156.8135	0.12	313627	keystroke_t	t	n/a
156.9185	0.105	313837	keystroke_h	h	n/a
157.0535	0.105	314107	keystroke_e	e	n/a
157.1435	0.12	314287	keystroke_o	o	n/a
157.2785	0.09	314557	keystroke_r	r	n/a
157.3985	0.105	314797	keystroke_i	i	n/a
157.5635	0.09	315127	keystroke_e	e	n/a
157.8335	0.09	315667	keystroke_s	s	n/a
157.9685	0.135	315937	keystroke_Key.space	Key.space	n/a
158.6135	0.09	317227	keystroke_c	c	n/a
158.7185	0.15	317437	keystroke_o	o	n/a
158.8085	0.135	317617	keystroke_n	n	n/a
159.0635	0.105	318127	keystroke_s	s	n/a
159.273	0.09	318546	keystroke_e	e	n/a
159.573	0.045	319146	keystroke_c	c	n/a
159.769	0.09	319538	keystroke_u	u	n/a
159.873	0.075	319746	keystroke_t	t	n/a
160.024	0.089	320048	keystroke_i	i	n/a
160.203	0.09	320406	keystroke_v	v	n/a
160.4435	0.0895	320887	keystroke_e	e	n/a
160.563	0.09	321126	keystroke_Key.space	Key.space	n/a
160.743	0.075	321486	keystroke_s	s	n/a
160.819	0.105	321638	keystroke_u	u	n/a
160.9385	0.1055	321877	keystroke_s	s	n/a
161.164	0.135	322328	keystroke_p	p	n/a
161.2835	0.1055	322567	keystroke_e	e	n/a
161.7185	0.0605	323437	keystroke_c	c	n/a
161.9735	0.075	323947	keystroke_t	t	n/a
162.2135	0.0905	324427	keystroke_Key.enter	Key.enter	n/a
162.308	13.962	324616	prompt	n/a	athletics dans chargers lightbox\n
163.248	0.06	326496	keystroke_t	t	n/a
163.518	0.106	327036	keystroke_Key.backspace	Key.backspace	n/a
163.639	0.09	327278	keystroke_a	a	n/a
163.834	0.03	327668	keystroke_r	r	n/a
163.849	0.06	327698	keystroke_t	t	n/a
163.939	0.075	327878	keystroke_h	h	n/a
164.1485	0.135	328297	keystroke_l	l	n/a
164.2685	0.075	328537	keystroke_e	e	n/a
164.4785	0.06	328957	keystroke_t	t	n/a
164.6285	0.075	329257	keystroke_i	i	n/a
165.169	0.09	330338	keystroke_Key.backspace	Key.backspace	n/a
165.349	0.075	330698	keystroke_Key.backspace	Key.backspace	n/a
165.543	0.075	331086	keystroke_Key.backspace	Key.backspace	n/a
165.723	0.06	331446	keystroke_Key.backspace	Key.backspace	n/a
165.903	0.0455	331806	keystroke_Key.backspace	Key.backspace	n/a
166.0685	0.075	332137	keystroke_Key.backspace	Key.backspace	n/a
166.3535	0.1045	332707	keystroke_Key.backspace	Key.backspace	n/a
166.818	0.075	333636	keystroke_t	t	n/a
166.923	0.105	333846	keystroke_h	h	n/a
167.043	0.09	334086	keystroke_e	e	n/a
167.358	0.075	334716	keystroke_Key.backspace	Key.backspace	n/a
167.629	0.105	335258	keystroke_l	l	n/a
167.764	0.105	335528	keystroke_e	e	n/a
168.1835	0.045	336367	keystroke_t	t	n/a
168.2435	0.075	336487	keystroke_i	i	n/a
168.3485	0.09	336697	keystroke_c	c	n/a
168.5885	0.0905	337177	keystroke_s	s	n/a
168.694	0.09	337388	keystroke_Key.space	Key.space	n/a
169.0985	0.075	338197	keystroke_c	c	n/a
169.3535	0.045	338707	keystroke_a	a	n/a
169.848	0.0755	339696	keystroke_Key.backspace	Key.backspace	n/a
169.999	0.075	339998	keystroke_Key.backspace	Key.backspace	n/a
170.479	0.09	340958	keystroke_d	d	n/a
170.704	0.075	341408	keystroke_a	a	n/a
170.794	0.0895	341588	keystroke_n	n	n/a
170.9285	0.075	341857	keystroke_s	s	n/a
171.0485	0.135	342097	keystroke_Key.space	Key.space	n/a
171.5735	0.06	343147	keystroke_c	c	n/a
171.6935	0.09	343387	keystroke_h	h	n/a
171.8585	0.045	343717	keystroke_a	a	n/a
172.2035	0.045	344407	keystroke_r	r	n/a
172.9235	0.12	345847	keystroke_g	g	n/a
173.2835	0.09	346567	keystroke_e	e	n/a
173.4335	0.105	346867	keystroke_r	r	n/a
173.6885	0.105	347377	keystroke_s	s	n/a
173.7785	0.12	347557	keystroke_Key.space	Key.space	n/a
174.1235	0.165	348247	keystroke_l	l	n/a
174.2285	0.15	348457	keystroke_i	i	n/a
174.3485	0.09	348697	keystroke_g	g	n/a
174.4985	0.1055	348997	keystroke_h	h	n/a
174.589	0.09	349178	keystroke_t	t	n/a
174.754	0.1045	349508	keystroke_b	b	n/a
174.9035	0.135	349807	keystroke_o	o	n/a
175.144	0.06	350288	keystroke_c	c	n/a
175.623	0.105	351246	keystroke_Key.backspace	Key.backspace	n/a
175.744	0.089	351488	keystroke_x	x	n/a
176.208	0.06	352416	keystroke_Key.enter	Key.enter	n/a
176.2735	5.8165	352547	prompt	n/a	celtic clothing hockey apart\n
177.2435	0.045	354487	keystroke_c	c	n/a
177.3635	0.12	354727	keystroke_e	e	n/a
177.4685	0.12	354937	keystroke_l	l	n/a
177.6035	0.06	355207	keystroke_t	t	n/a
177.7385	0.09	355477	keystroke_i	i	n/a
177.8735	0.105	355747	keystroke_c	c	n/a
178.0235	0.105	356047	keystroke_Key.space	Key.space	n/a
178.398	0.09	356796	keystroke_c	c	n/a
178.518	0.105	357036	keystroke_l	l	n/a
178.729	0.089	357458	keystroke_o	o	n/a
178.9085	0.075	357817	keystroke_t	t	n/a
179.0735	0.15	358147	keystroke_h	h	n/a
179.1785	0.24	358357	keystroke_i	i	n/a
179.3135	0.15	358627	keystroke_n	n	n/a
179.4335	0.1045	358867	keystroke_g	g	n/a
179.598	0.121	359196	keystroke_Key.space	Key.space	n/a
179.779	0.1345	359558	keystroke_h	h	n/a
179.869	0.18	359738	keystroke_o	o	n/a
180.004	0.1045	360008	keystroke_c	c	n/a
180.1535	0.15	360307	keystroke_k	k	n/a
180.2885	0.1355	360577	keystroke_e	e	n/a
180.634	0.1495	361268	keystroke_y	y	n/a
180.754	0.1495	361508	keystroke_Key.space	Key.space	n/a
181.0535	0.09	362107	keystroke_a	a	n/a
181.1885	0.135	362377	keystroke_p	p	n/a
181.2785	0.105	362557	keystroke_a	a	n/a
181.5485	0.09	363097	keystroke_r	r	n/a
181.7435	0.09	363487	keystroke_t	t	n/a
181.9985	0.09	363997	keystroke_Key.enter	Key.enter	n/a
182.093	6.2525	364186	prompt	n/a	alternate actors these eminem\n
182.749	0.15	365498	keystroke_a	a	n/a
182.914	0.135	365828	keystroke_l	l	n/a
183.064	0.075	366128	keystroke_t	t	n/a
183.2735	0.075	366547	keystroke_e	e	n/a
183.4235	0.06	366847	keystroke_r	r	n/a
183.5285	0.12	367057	keystroke_n	n	n/a
183.6785	0.075	367357	keystroke_a	a	n/a
183.9185	0.06	367837	keystroke_t	t	n/a
184.1135	0.075	368227	keystroke_e	e	n/a
184.2485	0.1055	368497	keystroke_Key.space	Key.space	n/a
184.429	0.075	368858	keystroke_a	a	n/a
184.639	0.06	369278	keystroke_c	c	n/a
184.849	0.075	369698	keystroke_t	t	n/a
184.9835	0.105	369967	keystroke_o	o	n/a
185.074	0.0895	370148	keystroke_r	r	n/a
185.3585	0.105	370717	keystroke_s	s	n/a
185.4935	0.12	370987	keystroke_Key.space	Key.space	n/a
185.659	0.06	371318	keystroke_t	t	n/a
185.764	0.1045	371528	keystroke_h	h	n/a
185.8835	0.0905	371767	keystroke_e	e	n/a
186.1085	0.0755	372217	keystroke_s	s	n/a
186.2885	0.12	372577	keystroke_e	e	n/a
186.3935	0.1345	372787	keystroke_Key.space	Key.space	n/a
186.619	0.15	373238	keystroke_e	e	n/a
186.724	0.1645	373448	keystroke_m	m	n/a
186.8585	0.15	373717	keystroke_i	i	n/a
186.9785	0.195	373957	keystroke_n	n	n/a
187.1285	0.06	374257	keystroke_i	i	n/a
187.608	0.03	375216	keystroke_Key.backspace	Key.backspace	n/a
187.668	0.105	375336	keystroke_e	e	n/a
187.878	0.12	375756	keystroke_m	m	n/a
188.253	0.09	376506	keystroke_Key.enter	Key.enter	n/a
188.3495	7.166	376699	prompt	n/a	returned clean pros revolution\n
189.244	0.0595	378488	keystroke_r	r	n/a
189.3935	0.1055	378787	keystroke_e	e	n/a
189.6035	0.075	379207	keystroke_t	t	n/a
189.6785	0.105	379357	keystroke_u	u	n/a
189.7985	0.09	379597	keystroke_r	r	n/a
189.9035	0.12	379807	keystroke_n	n	n/a
190.0385	0.105	380077	keystroke_e	e	n/a
190.4135	0.105	380827	keystroke_d	d	n/a
190.5335	0.15	381067	keystroke_Key.space	Key.space	n/a
190.849	0.06	381698	keystroke_c	c	n/a
190.939	0.15	381878	keystroke_l	l	n/a
191.104	0.06	382208	keystroke_e	e	n/a
191.344	0.1345	382688	keystroke_a	a	n/a
191.4935	0.165	382987	keystroke_n	n	n/a
191.6435	0.105	383287	keystroke_Key.space	Key.space	n/a
191.8385	0.135	383677	keystroke_p	p	n/a
192.0185	0.09	384037	keystroke_r	r	n/a
192.1235	0.105	384247	keystroke_o	o	n/a
193.084	0.1045	386168	keystroke_s	s	n/a
193.2035	0.105	386407	keystroke_Key.space	Key.space	n/a
193.8485	0.075	387697	keystroke_r	r	n/a
193.983	0.106	387966	keystroke_e	e	n/a
194.224	0.06	388448	keystroke_v	v	n/a
194.329	0.09	388658	keystroke_o	o	n/a
194.494	0.12	388988	keystroke_l	l	n/a
194.704	0.075	389408	keystroke_u	u	n/a
194.779	0.15	389558	keystroke_t	t	n/a
194.914	0.15	389828	keystroke_i	i	n/a
195.019	0.195	390038	keystroke_o	o	n/a
195.124	0.165	390248	keystroke_n	n	n/a
195.424	0.09	390848	keystroke_Key.enter	Key.enter	n/a
195.5185	9.102	391037	prompt	n/a	commentary conclusions nodes anymore\n
196.4135	0.06	392827	keystroke_c	c	n/a
196.5185	0.1055	393037	keystroke_o	o	n/a
196.713	0.076	393426	keystroke_m	m	n/a
196.863	0.105	393726	keystroke_m	m	n/a
197.073	0.12	394146	keystroke_e	e	n/a
197.208	0.0755	394416	keystroke_n	n	n/a
197.3435	0.06	394687	keystroke_t	t	n/a
197.5985	0.075	395197	keystroke_a	a	n/a
197.7935	0.09	395587	keystroke_r	r	n/a
197.8985	0.18	395797	keystroke_y	y	n/a
198.0335	0.12	396067	keystroke_Key.space	Key.space	n/a
198.2135	0.09	396427	keystroke_c	c	n/a
198.2585	0.165	396517	keystroke_o	o	n/a
198.3935	0.15	396787	keystroke_n	n	n/a
198.9785	0.015	397957	keystroke_c	c	n/a
199.1585	0.135	398317	keystroke_l	l	n/a
199.4585	0.06	398917	keystroke_u	u	n/a
199.7885	0.06	399577	keystroke_Key.backspace	Key.backspace	n/a
200.3735	0.06	400747	keystroke_u	u	n/a
200.4635	0.12	400927	keystroke_s	s	n/a
200.6435	0.105	401287	keystroke_i	i	n/a
200.7035	0.21	401407	keystroke_o	o	n/a
200.8685	0.15	401737	keystroke_n	n	n/a
201.0195	0.119	402039	keystroke_s	s	n/a
201.1685	0.135	402337	keystroke_Key.space	Key.space	n/a
201.483	0.076	402966	keystroke_r	r	n/a
201.6035	0.09	403207	keystroke_o	o	n/a
201.9485	0.06	403897	keystroke_Key.backspace	Key.backspace	n/a
202.0685	0.09	404137	keystroke_Key.backspace	Key.backspace	n/a
202.3235	0.165	404647	keystroke_n	n	n/a
202.4435	0.1505	404887	keystroke_o	o	n/a
202.729	0.075	405458	keystroke_d	d	n/a
202.9085	0.06	405817	keystroke_e	e	n/a
203.1335	0.09	406267	keystroke_s	s	n/a
203.2385	0.09	406477	keystroke_Key.space	Key.space	n/a
203.4485	0.105	406897	keystroke_a	a	n/a
203.5235	0.165	407047	keystroke_n	n	n/a
203.6735	0.12	407347	keystroke_y	y	n/a
203.8985	0.18	407797	keystroke_m	m	n/a
204.0335	0.165	408067	keystroke_o	o	n/a
204.1385	0.105	408277	keystroke_r	r	n/a
204.3185	0.15	408637	keystroke_e	e	n/a
204.5285	0.09	409057	keystroke_Key.enter	Key.enter	n/a
204.623	8.5775	409246	prompt	n/a	hourly kurt brown retirement\n
205.324	0.1945	410648	keystroke_h	h	n/a
205.4435	0.2545	410887	keystroke_o	o	n/a
205.6085	0.1355	411217	keystroke_u	u	n/a
205.714	0.105	411428	keystroke_r	r	n/a
205.834	0.135	411668	keystroke_l	l	n/a
205.969	0.06	411938	keystroke_y	y	n/a
206.133	0.105	412266	keystroke_Key.space	Key.space	n/a
206.493	0.0905	412986	keystroke_k	k	n/a
206.7335	0.105	413467	keystroke_u	u	n/a
206.8235	0.075	413647	keystroke_r	r	n/a
206.9585	0.15	413917	keystroke_t	t	n/a
207.1685	0.12	414337	keystroke_Key.space	Key.space	n/a
207.8735	0.12	415747	keystroke_b	b	n/a
207.9635	0.165	415927	keystroke_w	w	n/a
208.0835	0.1355	416167	keystroke_o	o	n/a
208.309	0.15	416618	keystroke_r	r	n/a
208.414	0.135	416828	keystroke_n	n	n/a
208.8335	0.0605	417667	keystroke_Key.backspace	Key.backspace	n/a
208.9835	0.06	417967	keystroke_Key.backspace	Key.backspace	n/a
209.1035	0.075	418207	keystroke_Key.backspace	Key.backspace	n/a
209.2535	0.09	418507	keystroke_Key.backspace	Key.backspace	n/a
209.3885	0.105	418777	keystroke_r	r	n/a
209.614	0.1195	419228	keystroke_o	o	n/a
209.7485	0.135	419497	keystroke_w	w	n/a
209.8685	0.15	419737	keystroke_n	n	n/a
210.0035	0.12	420007	keystroke_Key.space	Key.space	n/a
210.4235	0.06	420847	keystroke_r	r	n/a
210.5735	0.09	421147	keystroke_e	e	n/a
210.784	0.06	421568	keystroke_t	t	n/a
210.859	0.105	421718	keystroke_i	i	n/a
210.979	0.09	421958	keystroke_r	r	n/a
211.354	0.135	422708	keystroke_m	m	n/a
211.774	0.09	423548	keystroke_Key.backspace	Key.backspace	n/a
211.879	0.135	423758	keystroke_e	e	n/a
212.044	0.1045	424088	keystroke_m	m	n/a
212.1335	0.12	424267	keystroke_e	e	n/a
212.299	0.059	424598	keystroke_n	n	n/a
212.344	0.0895	424688	keystroke_t	t	n/a
213.0935	0.105	426187	keystroke_Key.enter	Key.enter	n/a
213.2035	5.937	426407	prompt	n/a	wells john just personals\n
213.859	0.09	427718	keystroke_w	w	n/a
214.129	0.075	428258	keystroke_e	e	n/a
214.264	0.06	428528	keystroke_l	l	n/a
214.399	0.12	428798	keystroke_l	l	n/a
214.504	0.18	429008	keystroke_s	s	n/a
214.639	0.12	429278	keystroke_Key.space	Key.space	n/a
215.104	0.15	430208	keystroke_j	j	n/a
215.179	0.165	430358	keystroke_o	o	n/a
215.359	0.105	430718	keystroke_h	h	n/a
215.614	0.135	431228	keystroke_n	n	n/a
215.719	0.135	431438	keystroke_Key.space	Key.space	n/a
216.139	0.1495	432278	keystroke_j	j	n/a
216.2585	0.15	432517	keystroke_u	u	n/a
216.3485	0.105	432697	keystroke_s	s	n/a
216.5885	0.09	433177	keystroke_t	t	n/a
216.6935	0.135	433387	keystroke_Key.space	Key.space	n/a
217.5185	0.09	435037	keystroke_p	p	n/a
217.5935	0.045	435187	keystroke_e	e	n/a
217.7285	0.075	435457	keystroke_r	r	n/a
217.9385	0.105	435877	keystroke_s	s	n/a
217.9985	0.15	435997	keystroke_o	o	n/a
218.1185	0.135	436237	keystroke_n	n	n/a
218.2685	0.09	436537	keystroke_a	a	n/a
218.3735	0.12	436747	keystroke_l	l	n/a
218.5535	0.075	437107	keystroke_s	s	n/a
219.0485	0.0905	438097	keystroke_Key.enter	Key.enter	n/a
219.143	6.1325	438286	prompt	n/a	date subaru wagon gang\n
220.039	0.09	440078	keystroke_d	d	n/a
220.249	0.12	440498	keystroke_a	a	n/a
220.399	0.12	440798	keystroke_t	t	n/a
220.534	0.075	441068	keystroke_e	e	n/a
220.639	0.105	441278	keystroke_Key.space	Key.space	n/a
220.804	0.15	441608	keystroke_s	s	n/a
220.924	0.09	441848	keystroke_u	u	n/a
221.179	0.12	442358	keystroke_b	b	n/a
221.269	0.105	442538	keystroke_a	a	n/a
221.4785	0.2105	442957	keystroke_r	r	n/a
221.644	0.06	443288	keystroke_o	o	n/a
221.869	0.06	443738	keystroke_u	u	n/a
222.199	0.06	444398	keystroke_Key.backspace	Key.backspace	n/a
222.334	0.09	444668	keystroke_Key.backspace	Key.backspace	n/a
222.6035	0.18	445207	keystroke_u	u	n/a
222.7535	0.1205	445507	keystroke_Key.space	Key.space	n/a
223.009	0.135	446018	keystroke_w	w	n/a
223.2785	0.09	446557	keystroke_a	a	n/a
223.6985	0.105	447397	keystroke_g	g	n/a
223.8785	0.225	447757	keystroke_o	o	n/a
224.0585	0.18	448117	keystroke_n	n	n/a
224.1935	0.15	448387	keystroke_Key.space	Key.space	n/a
224.4485	0.1205	448897	keystroke_g	g	n/a
224.554	0.12	449108	keystroke_a	a	n/a
224.779	0.0745	449558	keystroke_n	n	n/a
224.9135	0.09	449827	keystroke_g	g	n/a
225.1685	0.105	450337	keystroke_Key.enter	Key.enter	n/a
225.2785	10.632	450557	prompt	n/a	tutorial sheer proprietary churches\n
226.1735	0.105	452347	keystroke_t	t	n/a
226.2635	0.105	452527	keystroke_u	u	n/a
226.3535	0.12	452707	keystroke_t	t	n/a
226.5035	0.12	453007	keystroke_o	o	n/a
226.7285	0.09	453457	keystroke_r	r	n/a
226.8935	0.105	453787	keystroke_i	i	n/a
227.4185	0.075	454837	keystroke_a	a	n/a
227.4485	0.1805	454897	keystroke_l	l	n/a
227.614	0.135	455228	keystroke_Key.space	Key.space	n/a
227.8385	0.09	455677	keystroke_s	s	n/a
227.9435	0.09	455887	keystroke_h	h	n/a
228.0635	0.06	456127	keystroke_e	e	n/a
228.1985	0.105	456397	keystroke_e	e	n/a
228.4385	0.075	456877	keystroke_t	t	n/a
228.618	0.135	457236	keystroke_Key.space	Key.space	n/a
228.9485	0.06	457897	keystroke_Key.backspace	Key.backspace	n/a
229.0685	0.135	458137	keystroke_Key.backspace	Key.backspace	n/a
229.1435	0.105	458287	keystroke_r	r	n/a
229.2635	0.135	458527	keystroke_Key.space	Key.space	n/a
229.9985	0.135	459997	keystroke_p	p	n/a
230.1185	0.075	460237	keystroke_r	r	n/a
230.2235	0.135	460447	keystroke_o	o	n/a
231.109	0.135	462218	keystroke_p	p	n/a
231.484	0.1045	462968	keystroke_r	r	n/a
231.949	0.09	463898	keystroke_i	i	n/a
232.444	0.135	464888	keystroke_e	e	n/a
233.029	0.09	466058	keystroke_t	t	n/a
233.284	0.12	466568	keystroke_a	a	n/a
233.539	0.105	467078	keystroke_r	r	n/a
233.629	0.135	467258	keystroke_y	y	n/a
233.719	0.12	467438	keystroke_Key.space	Key.space	n/a
234.3935	0.105	468787	keystroke_c	c	n/a
234.5435	0.165	469087	keystroke_h	h	n/a
234.6335	0.165	469267	keystroke_u	u	n/a
234.7235	0.06	469447	keystroke_r	r	n/a
234.9335	0.06	469867	keystroke_c	c	n/a
235.0085	0.15	470017	keystroke_h	h	n/a
235.1885	0.135	470377	keystroke_e	e	n/a
235.4885	0.105	470977	keystroke_s	s	n/a
235.8185	0.09	471637	keystroke_Key.enter	Key.enter	n/a
235.915	12.37	471830	prompt	n/a	latino equilibrium fairfield dancing\n
236.5985	0.1355	473197	keystroke_l	l	n/a
236.674	0.105	473348	keystroke_a	a	n/a
236.929	0.075	473858	keystroke_t	t	n/a
237.004	0.12	474008	keystroke_i	i	n/a
237.304	0.15	474608	keystroke_n	n	n/a
237.424	0.18	474848	keystroke_o	o	n/a
237.619	0.105	475238	keystroke_Key.space	Key.space	n/a
238.684	0.06	477368	keystroke_e	e	n/a
238.879	0.1055	477758	keystroke_q	q	n/a
238.999	0.165	477998	keystroke_u	u	n/a
239.119	0.105	478238	keystroke_i	i	n/a
239.344	0.09	478688	keystroke_l	l	n/a
239.524	0.12	479048	keystroke_i	i	n/a
240.154	0.105	480308	keystroke_b	b	n/a
240.904	0.105	481808	keystroke_r	r	n/a
241.024	0.165	482048	keystroke_i	i	n/a
241.579	0.0895	483158	keystroke_u	u	n/a
241.8485	0.165	483697	keystroke_m	m	n/a
241.9835	0.1055	483967	keystroke_Key.space	Key.space	n/a
242.8385	0.075	485677	keystroke_f	f	n/a
243.0785	0.105	486157	keystroke_a	a	n/a
243.3035	0.12	486607	keystroke_i	i	n/a
243.4085	0.105	486817	keystroke_r	r	n/a
243.6935	0.075	487387	keystroke_f	f	n/a
243.8735	0.09	487747	keystroke_i	i	n/a
243.9785	0.06	487957	keystroke_r	r	n/a
244.2035	0.135	488407	keystroke_l	l	n/a
244.3535	0.015	488707	keystroke_e	e	n/a
244.7135	0.015	489427	keystroke_Key.backspace	Key.backspace	n/a
244.7435	0.105	489487	keystroke_Key.backspace	Key.backspace	n/a
245.0435	0.105	490087	keystroke_Key.backspace	Key.backspace	n/a
245.1635	0.15	490327	keystroke_e	e	n/a
245.3435	0.15	490687	keystroke_l	l	n/a
246.5435	0.1055	493087	keystroke_d	d	n/a
246.6185	0.1505	493237	keystroke_Key.space	Key.space	n/a
246.784	0.1045	493568	keystroke_d	d	n/a
247.0535	0.105	494107	keystroke_a	a	n/a
247.1435	0.12	494287	keystroke_n	n	n/a
247.3685	0.045	494737	keystroke_c	c	n/a
247.4585	0.15	494917	keystroke_i	i	n/a
247.5185	0.135	495037	keystroke_n	n	n/a
247.6385	0.0755	495277	keystroke_g	g	n/a
248.209	0.075	496418	keystroke_Key.enter	Key.enter	n/a
248.288	10.0325	496576	prompt	n/a	laser instruction surely multiple\n
249.0035	0.135	498007	keystroke_l	l	n/a
249.0935	0.135	498187	keystroke_a	a	n/a
249.349	0.105	498698	keystroke_s	s	n/a
249.589	0.06	499178	keystroke_e	e	n/a
249.739	0.105	499478	keystroke_r	r	n/a
249.859	0.12	499718	keystroke_Key.space	Key.space	n/a
250.129	0.2095	500258	keystroke_i	i	n/a
250.2335	0.165	500467	keystroke_n	n	n/a
250.4435	0.06	500887	keystroke_s	s	n/a
250.6685	0.03	501337	keystroke_t	t	n/a
250.7885	0.0605	501577	keystroke_r	r	n/a
250.894	0.09	501788	keystroke_u	u	n/a
251.059	0.045	502118	keystroke_c	c	n/a
251.269	0.075	502538	keystroke_t	t	n/a
251.359	0.12	502718	keystroke_i	i	n/a
251.449	0.2245	502898	keystroke_o	o	n/a
251.599	0.165	503198	keystroke_n	n	n/a
251.7335	0.1195	503467	keystroke_Key.space	Key.space	n/a
251.944	0.119	503888	keystroke_s	s	n/a
252.0785	0.15	504157	keystroke_u	u	n/a
252.213	0.076	504426	keystroke_r	r	n/a
252.394	0.104	504788	keystroke_e	e	n/a
252.5585	0.1505	505117	keystroke_l	l	n/a
252.724	0.06	505448	keystroke_y	y	n/a
252.814	0.105	505628	keystroke_Key.space	Key.space	n/a
253.129	0.1195	506258	keystroke_m	m	n/a
253.1735	0.105	506347	keystroke_u	u	n/a
253.4295	0.1045	506859	keystroke_k	k	n/a
253.9085	0.075	507817	keystroke_Key.backspace	Key.backspace	n/a
254.2535	0.12	508507	keystroke_t	t	n/a
254.599	0.075	509198	keystroke_Key.backspace	Key.backspace	n/a
255.349	0.1045	510698	keystroke_k	k	n/a
255.739	0.075	511478	keystroke_=	=	n/a
256.4885	0.06	512977	keystroke_Key.backspace	Key.backspace	n/a
256.6235	0.1055	513247	keystroke_Key.backspace	Key.backspace	n/a
256.9235	0.06	513847	keystroke_l	l	n/a
257.0735	0.0905	514147	keystroke_t	t	n/a
257.2385	0.1655	514477	keystroke_i	i	n/a
257.373	0.1355	514746	keystroke_p	p	n/a
257.7335	0.12	515467	keystroke_l	l	n/a
257.8685	0.09	515737	keystroke_e	e	n/a
258.2585	0.06	516517	keystroke_Key.enter	Key.enter	n/a
258.323	8.7725	516646	prompt	n/a	ratio criteria butterfly enquiries\n
259.0235	0.06	518047	keystroke_r	r	n/a
259.2335	0.09	518467	keystroke_a	a	n/a
259.4885	0.0605	518977	keystroke_t	t	n/a
259.594	0.105	519188	keystroke_i	i	n/a
259.669	0.225	519338	keystroke_o	o	n/a
259.878	0.12	519756	keystroke_Key.space	Key.space	n/a
260.059	0.09	520118	keystroke_c	c	n/a
260.313	0.06	520626	keystroke_r	r	n/a
260.404	0.12	520808	keystroke_i	i	n/a
261.019	0.075	522038	keystroke_t	t	n/a
261.229	0.075	522458	keystroke_e	e	n/a
261.409	0.06	522818	keystroke_r	r	n/a
261.514	0.1195	523028	keystroke_i	i	n/a
261.6935	0.12	523387	keystroke_a	a	n/a
261.8285	0.105	523657	keystroke_Key.space	Key.space	n/a
262.0235	0.165	524047	keystroke_b	b	n/a
262.1735	0.165	524347	keystroke_u	u	n/a
262.3535	0.045	524707	keystroke_r	r	n/a
262.819	0.1045	525638	keystroke_Key.backspace	Key.backspace	n/a
262.9535	0.06	525907	keystroke_f	f	n/a
263.5985	0.1205	527197	keystroke_Key.backspace	Key.backspace	n/a
263.869	0.075	527738	keystroke_t	t	n/a
263.989	0.105	527978	keystroke_t	t	n/a
264.199	0.09	528398	keystroke_e	e	n/a
264.364	0.075	528728	keystroke_r	r	n/a
264.544	0.075	529088	keystroke_f	f	n/a
264.664	0.135	529328	keystroke_l	l	n/a
264.799	0.06	529598	keystroke_y	y	n/a
265.024	0.135	530048	keystroke_Key.space	Key.space	n/a
265.5035	0.075	531007	keystroke_e	e	n/a
265.6235	0.105	531247	keystroke_n	n	n/a
265.7735	0.105	531547	keystroke_q	q	n/a
265.9085	0.135	531817	keystroke_u	u	n/a
265.9685	0.18	531937	keystroke_i	i	n/a
266.1935	0.06	532387	keystroke_r	r	n/a
266.2985	0.135	532597	keystroke_i	i	n/a
266.4485	0.105	532897	keystroke_e	e	n/a
266.7035	0.06	533407	keystroke_s	s	n/a
267.019	0.075	534038	keystroke_Key.enter	Key.enter	n/a
267.0985	9.372	534197	prompt	n/a	coordinated yards collectables classics\n
267.874	0.075	535748	keystroke_c	c	n/a
268.024	0.06	536048	keystroke_o	o	n/a
268.144	0.135	536288	keystroke_o	o	n/a
268.294	0.045	536588	keystroke_r	r	n/a
268.459	0.06	536918	keystroke_d	d	n/a
268.579	0.18	537158	keystroke_i	i	n/a
268.714	0.15	537428	keystroke_n	n	n/a
268.849	0.045	537698	keystroke_f	f	n/a
269.134	0.105	538268	keystroke_Key.backspace	Key.backspace	n/a
269.239	0.09	538478	keystroke_a	a	n/a
269.479	0.0595	538958	keystroke_t	t	n/a
269.7185	0.045	539437	keystroke_e	e	n/a
270.0035	0.075	540007	keystroke_d	d	n/a
270.1835	0.105	540367	keystroke_Key.space	Key.space	n/a
270.6935	0.105	541387	keystroke_y	y	n/a
270.7835	0.1055	541567	keystroke_a	a	n/a
271.024	0.06	542048	keystroke_r	r	n/a
271.204	0.075	542408	keystroke_d	d	n/a
271.384	0.18	542768	keystroke_s	s	n/a
271.504	0.12	543008	keystroke_Key.space	Key.space	n/a
272.2685	0.046	544537	keystroke_c	c	n/a
272.3285	0.03	544657	keystroke_o	o	n/a
272.5085	0.045	545017	keystroke_l	l	n/a
272.6135	0.135	545227	keystroke_l	l	n/a
272.7345	0.075	545469	keystroke_e	e	n/a
273.109	0.03	546218	keystroke_c	c	n/a
273.289	0.06	546578	keystroke_t	t	n/a
273.529	0.0895	547058	keystroke_a	a	n/a
273.6335	0.165	547267	keystroke_b	b	n/a
273.7385	0.18	547477	keystroke_l	l	n/a
273.9045	0.089	547809	keystroke_e	e	n/a
274.1435	0.105	548287	keystroke_s	s	n/a
274.2935	0.09	548587	keystroke_Key.space	Key.space	n/a
275.0745	0.06	550149	keystroke_c	c	n/a
275.2095	0.134	550419	keystroke_l	l	n/a
275.3585	0.061	550717	keystroke_a	a	n/a
275.5845	0.03	551169	keystroke_s	s	n/a
275.7195	0.074	551439	keystroke_s	s	n/a
275.8545	0.12	551709	keystroke_i	i	n/a
275.989	0.0455	551978	keystroke_c	c	n/a
276.1995	0.0885	552399	keystroke_s	s	n/a
276.379	0.09	552758	keystroke_Key.enter	Key.enter	n/a
276.4735	6.567	552947	prompt	n/a	composed sleeping achieve leather\n
277.0835	0.075	554167	keystroke_c	c	n/a
277.2035	0.075	554407	keystroke_o	o	n/a
277.2935	0.18	554587	keystroke_m	m	n/a
277.4585	0.2405	554917	keystroke_p	p	n/a
277.6235	0.1505	555247	keystroke_o	o	n/a
277.789	0.06	555578	keystroke_r	r	n/a
278.0885	0.09	556177	keystroke_Key.backspace	Key.backspace	n/a
278.1935	0.075	556387	keystroke_s	s	n/a
278.3735	0.045	556747	keystroke_e	e	n/a
278.5695	0.044	557139	keystroke_d	d	n/a
278.6735	0.075	557347	keystroke_Key.space	Key.space	n/a
278.9585	0.075	557917	keystroke_s	s	n/a
279.049	0.105	558098	keystroke_l	l	n/a
279.199	0.06	558398	keystroke_e	e	n/a
279.334	0.09	558668	keystroke_e	e	n/a
279.454	0.075	558908	keystroke_p	p	n/a
279.664	0.195	559328	keystroke_i	i	n/a
279.784	0.135	559568	keystroke_n	n	n/a
279.844	0.105	559688	keystroke_g	g	n/a
279.979	0.15	559958	keystroke_Key.space	Key.space	n/a
280.144	0.105	560288	keystroke_a	a	n/a
280.399	0.06	560798	keystroke_c	c	n/a
280.504	0.1345	561008	keystroke_h	h	n/a
280.5935	0.1505	561187	keystroke_i	i	n/a
280.699	0.0595	561398	keystroke_e	e	n/a
280.924	0.06	561848	keystroke_v	v	n/a
281.134	0.09	562268	keystroke_e	e	n/a
281.254	0.105	562508	keystroke_Key.space	Key.space	n/a
281.344	0.18	562688	keystroke_l	l	n/a
281.689	0.03	563378	keystroke_e	e	n/a
282.1985	0.045	564397	keystroke_a	a	n/a
282.4085	0.045	564817	keystroke_t	t	n/a
282.4985	0.09	564997	keystroke_h	h	n/a
282.6335	0.045	565267	keystroke_e	e	n/a
282.7835	0.0605	565567	keystroke_r	r	n/a
282.979	0.06	565958	keystroke_Key.enter	Key.enter	n/a
283.0435	6.1915	566087	prompt	n/a	passwords charlie instance with\n
283.6685	0.135	567337	keystroke_p	p	n/a
283.7585	0.09	567517	keystroke_a	a	n/a
283.9985	0.0605	567997	keystroke_s	s	n/a
284.134	0.09	568268	keystroke_s	s	n/a
284.359	0.105	568718	keystroke_w	w	n/a
284.479	0.1345	568958	keystroke_o	o	n/a
284.5985	0.06	569197	keystroke_r	r	n/a
284.8085	0.0605	569617	keystroke_d	d	n/a
285.019	0.135	570038	keystroke_s	s	n/a
285.184	0.12	570368	keystroke_Key.space	Key.space	n/a
285.364	0.045	570728	keystroke_c	c	n/a
285.484	0.135	570968	keystroke_h	h	n/a
285.604	0.105	571208	keystroke_a	a	n/a
285.874	0.09	571748	keystroke_r	r	n/a
286.144	0.15	572288	keystroke_l	l	n/a
286.279	0.15	572558	keystroke_i	i	n/a
286.489	0.15	572978	keystroke_e	e	n/a
286.624	0.1345	573248	keystroke_Key.space	Key.space	n/a
286.9385	0.195	573877	keystroke_i	i	n/a
287.0585	0.15	574117	keystroke_n	n	n/a
287.1935	0.075	574387	keystroke_s	s	n/a
287.4335	0.0605	574867	keystroke_t	t	n/a
287.6435	0.12	575287	keystroke_a	a	n/a
287.8085	0.12	575617	keystroke_n	n	n/a
287.9435	0.06	575887	keystroke_c	c	n/a
288.1685	0.06	576337	keystroke_e	e	n/a
288.2735	0.105	576547	keystroke_Key.space	Key.space	n/a
288.4535	0.09	576907	keystroke_w	w	n/a
288.589	0.105	577178	keystroke_i	i	n/a
288.784	0.0895	577568	keystroke_t	t	n/a
288.9185	0.09	577837	keystroke_h	h	n/a
289.1885	0.045	578377	keystroke_Key.enter	Key.enter	n/a
289.238	6.1475	578476	prompt	n/a	management deeply emails watches\n
289.834	0.135	579668	keystroke_m	m	n/a
289.954	0.135	579908	keystroke_a	a	n/a
290.1035	0.12	580207	keystroke_n	n	n/a
290.1935	0.135	580387	keystroke_a	a	n/a
290.3435	0.105	580687	keystroke_g	g	n/a
290.4935	0.105	580987	keystroke_e	e	n/a
290.6435	0.12	581287	keystroke_m	m	n/a
290.7185	0.151	581437	keystroke_e	e	n/a
290.8545	0.135	581709	keystroke_n	n	n/a
291.0195	0.135	582039	keystroke_t	t	n/a
291.1685	0.135	582337	keystroke_Key.space	Key.space	n/a
291.829	0.075	583658	keystroke_d	d	n/a
291.994	0.045	583988	keystroke_e	e	n/a
292.099	0.135	584198	keystroke_e	e	n/a
292.249	0.18	584498	keystroke_p	p	n/a
292.384	0.195	584768	keystroke_l	l	n/a
292.519	0.105	585038	keystroke_y	y	n/a
292.639	0.1495	585278	keystroke_Key.space	Key.space	n/a
292.8635	0.09	585727	keystroke_e	e	n/a
292.9685	0.12	585937	keystroke_m	m	n/a
293.1495	0.119	586299	keystroke_a	a	n/a
293.2835	0.15	586567	keystroke_i	i	n/a
293.3885	0.1955	586777	keystroke_l	l	n/a
293.554	0.15	587108	keystroke_s	s	n/a
293.674	0.12	587348	keystroke_Key.space	Key.space	n/a
293.959	0.09	587918	keystroke_w	w	n/a
294.139	0.09	588278	keystroke_a	a	n/a
294.409	0.045	588818	keystroke_t	t	n/a
294.604	0.045	589208	keystroke_c	c	n/a
294.709	0.09	589418	keystroke_h	h	n/a
294.8435	0.06	589687	keystroke_e	e	n/a
295.0535	0.135	590107	keystroke_s	s	n/a
295.3235	0.06	590647	keystroke_Key.enter	Key.enter	n/a
295.3885	9.177	590777	prompt	n/a	creature slow opinion trackback\n
296.1485	0.03	592297	keystroke_c	c	n/a
296.3135	0.06	592627	keystroke_r	r	n/a
296.4935	0.06	592987	keystroke_e	e	n/a
297.3785	0.12	594757	keystroke_a	a	n/a
297.8135	0.09	595627	keystroke_t	t	n/a
297.9485	0.12	595897	keystroke_u	u	n/a
298.1735	0.09	596347	keystroke_r	r	n/a
298.3685	0.12	596737	keystroke_e	e	n/a
298.4735	0.135	596947	keystroke_Key.space	Key.space	n/a
298.6835	0.105	597367	keystroke_s	s	n/a
298.7585	0.1205	597517	keystroke_l	l	n/a
298.969	0.135	597938	keystroke_o	o	n/a
299.074	0.165	598148	keystroke_w	w	n/a
299.209	0.12	598418	keystroke_Key.space	Key.space	n/a
299.434	0.15	598868	keystroke_o	o	n/a
299.539	0.15	599078	keystroke_p	p	n/a
299.749	0.18	599498	keystroke_i	i	n/a
299.899	0.18	599798	keystroke_n	n	n/a
300.034	0.135	600068	keystroke_i	i	n/a
300.109	0.195	600218	keystroke_o	o	n/a
300.259	0.165	600518	keystroke_n	n	n/a
300.409	0.15	600818	keystroke_Key.space	Key.space	n/a
300.8585	0.061	601717	keystroke_t	t	n/a
301.0085	0.075	602017	keystroke_r	r	n/a
301.2635	0.105	602527	keystroke_a	a	n/a
301.9695	0.1345	603939	keystroke_c	c	n/a
302.089	0.165	604178	keystroke_k	k	n/a
302.419	0.135	604838	keystroke_n	n	n/a
302.509	0.12	605018	keystroke_a	a	n/a
302.794	0.045	605588	keystroke_c	c	n/a
303.094	0.06	606188	keystroke_Key.backspace	Key.backspace	n/a
303.244	0.06	606488	keystroke_Key.backspace	Key.backspace	n/a
303.364	0.12	606728	keystroke_Key.backspace	Key.backspace	n/a
303.6785	0.136	607357	keystroke_b	b	n/a
303.8435	0.12	607687	keystroke_a	a	n/a
304.1445	0.059	608289	keystroke_c	c	n/a
304.2645	0.089	608529	keystroke_k	k	n/a
304.5045	0.06	609009	keystroke_Key.enter	Key.enter	n/a
304.5685	9.492	609137	prompt	n/a	closure german carefully substitute\n
305.4045	0.06	610809	keystroke_c	c	n/a
305.4945	0.104	610989	keystroke_l	l	n/a
305.7195	0.09	611439	keystroke_o	o	n/a
305.8245	0.09	611649	keystroke_s	s	n/a
306.0045	0.06	612009	keystroke_u	u	n/a
306.1535	0.03	612307	keystroke_d	d	n/a
306.6795	0.075	613359	keystroke_Key.backspace	Key.backspace	n/a
307.129	0.075	614258	keystroke_r	r	n/a
307.309	0.135	614618	keystroke_e	e	n/a
307.459	0.105	614918	keystroke_Key.space	Key.space	n/a
308.029	0.045	616058	keystroke_g	g	n/a
308.089	0.075	616178	keystroke_e	e	n/a
308.254	0.09	616508	keystroke_r	r	n/a
308.374	0.12	616748	keystroke_m	m	n/a
308.539	0.18	617078	keystroke_a	a	n/a
308.659	0.195	617318	keystroke_n	n	n/a
308.824	0.135	617648	keystroke_Key.space	Key.space	n/a
309.319	0.09	618638	keystroke_c	c	n/a
309.544	0.075	619088	keystroke_a	a	n/a
309.799	0.06	619598	keystroke_r	r	n/a
309.979	0.06	619958	keystroke_e	e	n/a
310.189	0.06	620378	keystroke_f	f	n/a
310.294	0.09	620588	keystroke_u	u	n/a
310.5035	0.075	621007	keystroke_l	l	n/a
310.6835	0.105	621367	keystroke_l	l	n/a
310.7745	0.119	621549	keystroke_y	y	n/a
310.9235	0.135	621847	keystroke_Key.space	Key.space	n/a
311.2385	0.195	622477	keystroke_s	s	n/a
311.3895	0.119	622779	keystroke_u	u	n/a
311.6145	0.1645	623229	keystroke_b	b	n/a
311.794	0.165	623588	keystroke_s	s	n/a
312.574	0.12	625148	keystroke_t	t	n/a
312.709	0.1345	625418	keystroke_i	i	n/a
312.8885	0.1505	625777	keystroke_t	t	n/a
313.009	0.1195	626018	keystroke_u	u	n/a
313.3985	0.075	626797	keystroke_t	t	n/a
313.579	0.12	627158	keystroke_e	e	n/a
313.969	0.09	627938	keystroke_Key.enter	Key.enter	n/a
314.064	7.392	628128	prompt	n/a	dennis qualification meaning latin\n
314.944	0.075	629888	keystroke_d	d	n/a
315.109	0.12	630218	keystroke_e	e	n/a
315.23	0.089	630460	keystroke_n	n	n/a
315.394	0.1495	630788	keystroke_n	n	n/a
315.484	0.21	630968	keystroke_i	i	n/a
315.664	0.24	631328	keystroke_s	s	n/a
315.874	0.12	631748	keystroke_Key.space	Key.space	n/a
316.729	0.1055	633458	keystroke_q	q	n/a
316.8495	0.105	633699	keystroke_u	u	n/a
316.9695	0.135	633939	keystroke_a	a	n/a
317.1645	0.1795	634329	keystroke_l	l	n/a
317.299	0.165	634598	keystroke_i	i	n/a
317.509	0.105	635018	keystroke_f	f	n/a
317.629	0.12	635258	keystroke_i	i	n/a
317.974	0.045	635948	keystroke_c	c	n/a
318.229	0.06	636458	keystroke_a	a	n/a
318.514	0.045	637028	keystroke_t	t	n/a
318.604	0.18	637208	keystroke_i	i	n/a
318.754	0.18	637508	keystroke_o	o	n/a
318.904	0.15	637808	keystroke_n	n	n/a
319.039	0.12	638078	keystroke_Key.space	Key.space	n/a
319.204	0.12	638408	keystroke_m	m	n/a
319.354	0.12	638708	keystroke_e	e	n/a
319.6095	0.134	639219	keystroke_a	a	n/a
319.7135	0.151	639427	keystroke_n	n	n/a
319.8485	0.18	639697	keystroke_i	i	n/a
319.9835	0.15	639967	keystroke_n	n	n/a
320.0885	0.15	640177	keystroke_g	g	n/a
320.2235	0.195	640447	keystroke_Key.space	Key.space	n/a
320.3735	0.195	640747	keystroke_l	l	n/a
320.5235	0.105	641047	keystroke_a	a	n/a
320.7785	0.0905	641557	keystroke_t	t	n/a
320.989	0.195	641978	keystroke_i	i	n/a
321.109	0.12	642218	keystroke_n	n	n/a
321.3935	0.06	642787	keystroke_Key.enter	Key.enter	n/a
321.46	8.0505	642920	prompt	n/a	vanilla blocked john verse\n
322.2045	0.075	644409	keystroke_v	v	n/a
322.4445	0.075	644889	keystroke_a	a	n/a
322.5645	0.1495	645129	keystroke_n	n	n/a
322.699	0.1795	645398	keystroke_i	i	n/a
322.8485	0.105	645697	keystroke_l	l	n/a
323.0435	0.12	646087	keystroke_l	l	n/a
323.1485	0.15	646297	keystroke_a	a	n/a
323.3135	0.135	646627	keystroke_Key.space	Key.space	n/a
323.7935	0.03	647587	keystroke_v	v	n/a
324.2145	0.12	648429	keystroke_Key.backspace	Key.backspace	n/a
324.3195	0.09	648639	keystroke_b	b	n/a
324.5295	0.105	649059	keystroke_l	l	n/a
324.7545	0.0895	649509	keystroke_o	o	n/a
324.889	0.06	649778	keystroke_c	c	n/a
325.024	0.12	650048	keystroke_k	k	n/a
325.234	0.105	650468	keystroke_e	e	n/a
325.4745	0.09	650949	keystroke_d	d	n/a
325.6235	0.135	651247	keystroke_Key.space	Key.space	n/a
326.4635	0.165	652927	keystroke_j	j	n/a
326.5685	0.181	653137	keystroke_o	o	n/a
327.4385	0.046	654877	keystroke_h	h	n/a
327.6485	0.195	655297	keystroke_n	n	n/a
327.7985	0.12	655597	keystroke_Key.space	Key.space	n/a
328.354	0.165	656708	keystroke_v	v	n/a
328.504	0.09	657008	keystroke_e	e	n/a
328.669	0.075	657338	keystroke_r	r	n/a
328.9085	0.09	657817	keystroke_s	s	n/a
329.1035	0.12	658207	keystroke_e	e	n/a
329.4335	0.0755	658867	keystroke_Key.enter	Key.enter	n/a
329.5135	9.057	659027	prompt	n/a	recorders holland downloaded separation\n
330.334	0.06	660668	keystroke_r	r	n/a
330.514	0.105	661028	keystroke_e	e	n/a
330.814	0.06	661628	keystroke_c	c	n/a
330.964	0.12	661928	keystroke_o	o	n/a
331.099	0.06	662198	keystroke_r	r	n/a
331.279	0.075	662558	keystroke_d	d	n/a
331.459	0.105	662918	keystroke_e	e	n/a
331.654	0.06	663308	keystroke_r	r	n/a
331.879	0.105	663758	keystroke_s	s	n/a
332.014	0.09	664028	keystroke_Key.space	Key.space	n/a
332.194	0.15	664388	keystroke_h	h	n/a
332.314	0.105	664628	keystroke_o	o	n/a
332.539	0.075	665078	keystroke_l	l	n/a
332.674	0.12	665348	keystroke_l	l	n/a
332.809	0.1045	665618	keystroke_a	a	n/a
332.9435	0.105	665887	keystroke_n	n	n/a
333.0785	0.151	666157	keystroke_d	d	n/a
333.3035	0.135	666607	keystroke_Key.space	Key.space	n/a
334.2335	0.075	668467	keystroke_d	d	n/a
334.3095	0.149	668619	keystroke_o	o	n/a
334.4735	0.12	668947	keystroke_w	w	n/a
334.5785	0.12	669157	keystroke_n	n	n/a
334.6835	0.135	669367	keystroke_l	l	n/a
334.9385	0.09	669877	keystroke_o	o	n/a
335.0735	0.075	670147	keystroke_a	a	n/a
335.2985	0.09	670597	keystroke_d	d	n/a
335.5835	0.06	671167	keystroke_e	e	n/a
335.7635	0.18	671527	keystroke_d	d	n/a
336.1085	0.135	672217	keystroke_Key.space	Key.space	n/a
336.3935	0.09	672787	keystroke_s	s	n/a
336.5735	0.076	673147	keystroke_e	e	n/a
336.7095	0.1345	673419	keystroke_p	p	n/a
336.859	0.06	673718	keystroke_a	a	n/a
337.084	0.075	674168	keystroke_r	r	n/a
337.324	0.06	674648	keystroke_a	a	n/a
337.564	0.075	675128	keystroke_t	t	n/a
337.654	0.1955	675308	keystroke_i	i	n/a
337.789	0.225	675578	keystroke_o	o	n/a
337.939	0.15	675878	keystroke_n	n	n/a
338.5095	0.06	677019	keystroke_Key.enter	Key.enter	n/a
338.5735	9.8375	677147	prompt	n/a	mask hunting stanley travesti\n
339.2145	0.15	678429	keystroke_m	m	n/a
339.3345	0.06	678669	keystroke_q	q	n/a
339.8745	0.09	679749	keystroke_a	a	n/a
340.1745	0.06	680349	keystroke_Key.backspace	Key.backspace	n/a
340.3095	0.1045	680619	keystroke_Key.backspace	Key.backspace	n/a
340.429	0.105	680858	keystroke_a	a	n/a
340.669	0.075	681338	keystroke_s	s	n/a
340.804	0.1955	681608	keystroke_k	k	n/a
340.9845	0.09	681969	keystroke_Key.space	Key.space	n/a
341.3595	0.149	682719	keystroke_h	h	n/a
341.4935	0.2105	682987	keystroke_u	u	n/a
341.6435	0.166	683287	keystroke_n	n	n/a
341.7645	0.12	683529	keystroke_t	t	n/a
341.8995	0.15	683799	keystroke_i	i	n/a
341.9745	0.165	683949	keystroke_n	n	n/a
342.0795	0.09	684159	keystroke_g	g	n/a
342.1995	0.135	684399	keystroke_Key.space	Key.space	n/a
342.5595	0.12	685119	keystroke_s	s	n/a
343.054	0.075	686108	keystroke_t	t	n/a
343.414	0.075	686828	keystroke_a	a	n/a
343.504	0.12	687008	keystroke_n	n	n/a
343.744	0.135	687488	keystroke_l	l	n/a
343.894	0.15	687788	keystroke_e	e	n/a
344.119	0.18	688238	keystroke_y	y	n/a
344.2395	0.1345	688479	keystroke_Key.space	Key.space	n/a
345.169	0.075	690338	keystroke_t	t	n/a
345.349	0.105	690698	keystroke_r	r	n/a
345.649	0.105	691298	keystroke_a	a	n/a
346.8195	0.0595	693639	keystroke_v	v	n/a
347.119	0.045	694238	keystroke_s	s	n/a
347.4345	0.1045	694869	keystroke_Key.backspace	Key.backspace	n/a
347.524	0.06	695048	keystroke_e	e	n/a
347.704	0.075	695408	keystroke_s	s	n/a
347.929	0.09	695858	keystroke_t	t	n/a
348.049	0.12	696098	keystroke_i	i	n/a
348.334	0.075	696668	keystroke_Key.enter	Key.enter	n/a
348.415	5.036	696830	prompt	n/a	lots surprised even are\n
349.234	0.09	698468	keystroke_l	l	n/a
349.429	0.1355	698858	keystroke_o	o	n/a
349.5495	0.09	699099	keystroke_t	t	n/a
349.8195	0.1345	699639	keystroke_s	s	n/a
349.969	0.09	699938	keystroke_Key.space	Key.space	n/a
350.479	0.1655	700958	keystroke_s	s	n/a
350.5995	0.09	701199	keystroke_u	u	n/a
350.7645	0.12	701529	keystroke_r	r	n/a
350.9445	0.15	701889	keystroke_p	p	n/a
351.0795	0.105	702159	keystroke_r	r	n/a
351.1545	0.135	702309	keystroke_i	i	n/a
351.514	0.0605	703028	keystroke_s	s	n/a
351.6645	0.06	703329	keystroke_e	e	n/a
351.8595	0.06	703719	keystroke_d	d	n/a
351.9495	0.12	703899	keystroke_Key.space	Key.space	n/a
352.189	0.09	704378	keystroke_e	e	n/a
352.264	0.09	704528	keystroke_v	v	n/a
352.3845	0.149	704769	keystroke_e	e	n/a
352.5495	0.1795	705099	keystroke_n	n	n/a
352.6535	0.1205	705307	keystroke_Key.space	Key.space	n/a
352.789	0.105	705578	keystroke_a	a	n/a
353.044	0.06	706088	keystroke_r	r	n/a
353.209	0.15	706418	keystroke_e	e	n/a
353.374	0.075	706748	keystroke_Key.enter	Key.enter	n/a
353.4535	5.187	706907	prompt	n/a	framing prices diving bath\n
354.1545	0.06	708309	keystroke_f	f	n/a
354.3045	0.089	708609	keystroke_r	r	n/a
354.5295	0.09	709059	keystroke_a	a	n/a
354.6495	0.15	709299	keystroke_m	m	n/a
354.7845	0.165	709569	keystroke_i	i	n/a
354.9195	0.15	709839	keystroke_n	n	n/a
355.0095	0.135	710019	keystroke_g	g	n/a
355.1295	0.119	710259	keystroke_Key.space	Key.space	n/a
355.3695	0.12	710739	keystroke_p	p	n/a
355.5345	0.075	711069	keystroke_r	r	n/a
355.6545	0.12	711309	keystroke_i	i	n/a
355.8045	0.06	711609	keystroke_c	c	n/a
356.0145	0.06	712029	keystroke_e	e	n/a
356.2395	0.135	712479	keystroke_s	s	n/a
356.4045	0.12	712809	keystroke_Key.space	Key.space	n/a
357.034	0.09	714068	keystroke_d	d	n/a
357.109	0.12	714218	keystroke_i	i	n/a
357.259	0.075	714518	keystroke_v	v	n/a
357.349	0.195	714698	keystroke_i	i	n/a
357.469	0.165	714938	keystroke_n	n	n/a
357.589	0.0905	715178	keystroke_g	g	n/a
357.7235	0.105	715447	keystroke_Key.space	Key.space	n/a
357.8735	0.135	715747	keystroke_b	b	n/a
357.9635	0.09	715927	keystroke_a	a	n/a
358.2335	0.0755	716467	keystroke_t	t	n/a
358.3385	0.105	716677	keystroke_h	h	n/a
358.5635	0.075	717127	keystroke_Key.enter	Key.enter	n/a
358.6445	6.6265	717289	prompt	n/a	recovery hearts heads shipped\n
359.359	0.075	718718	keystroke_r	r	n/a
359.509	0.09	719018	keystroke_e	e	n/a
360.064	0.06	720128	keystroke_c	c	n/a
360.199	0.15	720398	keystroke_o	o	n/a
360.334	0.03	720668	keystroke_v	v	n/a
360.514	0.06	721028	keystroke_e	e	n/a
360.679	0.105	721358	keystroke_r	r	n/a
361.039	0.195	722078	keystroke_y	y	n/a
361.219	0.12	722438	keystroke_Key.space	Key.space	n/a
361.369	0.165	722738	keystroke_h	h	n/a
361.579	0.09	723158	keystroke_e	e	n/a
361.789	0.1195	723578	keystroke_a	a	n/a
362.0435	0.045	724087	keystroke_r	r	n/a
362.1635	0.0755	724327	keystroke_t	t	n/a
362.419	0.135	724838	keystroke_s	s	n/a
362.539	0.1345	725078	keystroke_Key.space	Key.space	n/a
362.7485	0.15	725497	keystroke_h	h	n/a
362.8685	0.106	725737	keystroke_e	e	n/a
363.0935	0.105	726187	keystroke_a	a	n/a
363.3645	0.059	726729	keystroke_d	d	n/a
363.5745	0.149	727149	keystroke_s	s	n/a
363.7385	0.105	727477	keystroke_Key.space	Key.space	n/a
363.9785	0.12	727957	keystroke_s	s	n/a
364.0685	0.1505	728137	keystroke_h	h	n/a
364.204	0.105	728408	keystroke_i	i	n/a
364.384	0.105	728768	keystroke_p	p	n/a
364.564	0.09	729128	keystroke_p	p	n/a
364.639	0.09	729278	keystroke_e	e	n/a
364.864	0.09	729728	keystroke_d	d	n/a
365.164	0.105	730328	keystroke_Key.enter	Key.enter	n/a
365.2735	7.5875	730547	prompt	n/a	ugly wives flexible acknowledge\n
366.064	0.09	732128	keystroke_u	u	n/a
366.244	0.0605	732488	keystroke_g	g	n/a
366.3345	0.135	732669	keystroke_l	l	n/a
366.4545	0.105	732909	keystroke_y	y	n/a
366.6045	0.12	733209	keystroke_Key.space	Key.space	n/a
366.7695	0.15	733539	keystroke_w	w	n/a
366.9345	0.06	733869	keystroke_i	i	n/a
367.774	0.06	735548	keystroke_v	v	n/a
367.999	0.09	735998	keystroke_e	e	n/a
368.194	0.15	736388	keystroke_s	s	n/a
368.314	0.135	736628	keystroke_Key.space	Key.space	n/a
368.764	0.0745	737528	keystroke_f	f	n/a
368.9295	0.165	737859	keystroke_l	l	n/a
369.0635	0.06	738127	keystroke_e	e	n/a
369.904	0.12	739808	keystroke_x	x	n/a
369.979	0.18	739958	keystroke_i	i	n/a
370.114	0.15	740228	keystroke_b	b	n/a
370.4885	0.12	740977	keystroke_l	l	n/a
370.6535	0.0755	741307	keystroke_e	e	n/a
370.7585	0.1055	741517	keystroke_Key.space	Key.space	n/a
370.9685	0.06	741937	keystroke_a	a	n/a
371.2235	0.06	742447	keystroke_c	c	n/a
371.3145	0.0745	742629	keystroke_k	k	n/a
371.5245	0.15	743049	keystroke_n	n	n/a
371.6295	0.15	743259	keystroke_o	o	n/a
371.7645	0.105	743529	keystroke_w	w	n/a
371.8995	0.1195	743799	keystroke_l	l	n/a
372.034	0.06	744068	keystroke_e	e	n/a
372.244	0.06	744488	keystroke_d	d	n/a
372.349	0.06	744698	keystroke_g	g	n/a
372.454	0.12	744908	keystroke_e	e	n/a
372.769	0.0905	745538	keystroke_Key.enter	Key.enter	n/a
372.864	9.5365	745728	prompt	n/a	sought advertisers historical acceptable\n
373.579	0.105	747158	keystroke_s	s	n/a
373.654	0.165	747308	keystroke_o	o	n/a
373.759	0.18	747518	keystroke_u	u	n/a
373.924	0.075	747848	keystroke_g	g	n/a
374.539	0.075	749078	keystroke_h	h	n/a
374.599	0.09	749198	keystroke_t	t	n/a
374.734	0.105	749468	keystroke_Key.space	Key.space	n/a
375.064	0.09	750128	keystroke_a	a	n/a
375.349	0.06	750698	keystroke_d	d	n/a
375.5295	0.105	751059	keystroke_v	v	n/a
375.6495	0.06	751299	keystroke_e	e	n/a
375.7995	0.0895	751599	keystroke_r	r	n/a
375.979	0.075	751958	keystroke_t	t	n/a
376.1585	0.12	752317	keystroke_i	i	n/a
376.3685	0.046	752737	keystroke_s	s	n/a
376.669	0.0755	753338	keystroke_e	e	n/a
376.8345	0.09	753669	keystroke_r	r	n/a
377.0745	0.1495	754149	keystroke_s	s	n/a
377.194	0.135	754388	keystroke_Key.space	Key.space	n/a
377.434	0.15	754868	keystroke_h	h	n/a
377.539	0.195	755078	keystroke_i	i	n/a
377.779	0.12	755558	keystroke_s	s	n/a
378.229	0.12	756458	keystroke_t	t	n/a
378.304	0.18	756608	keystroke_o	o	n/a
378.499	0.105	756998	keystroke_r	r	n/a
378.619	0.135	757238	keystroke_i	i	n/a
378.799	0.0455	757598	keystroke_c	c	n/a
379.0695	0.15	758139	keystroke_a	a	n/a
379.2045	0.18	758409	keystroke_l	l	n/a
379.3235	0.12	758647	keystroke_Key.space	Key.space	n/a
379.5045	0.09	759009	keystroke_a	a	n/a
379.7895	0.03	759579	keystroke_c	c	n/a
379.9245	0.03	759849	keystroke_c	c	n/a
380.1645	0.03	760329	keystroke_3	3	n/a
380.2995	0.12	760599	keystroke_p	p	n/a
380.7045	0.075	761409	keystroke_Key.backspace	Key.backspace	n/a
380.8385	0.106	761677	keystroke_Key.backspace	Key.backspace	n/a
380.9595	0.105	761919	keystroke_e	e	n/a
381.124	0.135	762248	keystroke_p	p	n/a
381.424	0.075	762848	keystroke_t	t	n/a
381.6795	0.1045	763359	keystroke_a	a	n/a
381.7985	0.09	763597	keystroke_b	b	n/a
381.9185	0.166	763837	keystroke_l	l	n/a
382.0545	0.075	764109	keystroke_e	e	n/a
382.3245	0.075	764649	keystroke_Key.enter	Key.enter	n/a
382.404	7.3765	764808	prompt	n/a	condos quilt jewel gibson\n
383.779	0.075	767558	keystroke_c	c	n/a
383.869	0.18	767738	keystroke_o	o	n/a
383.989	0.165	767978	keystroke_n	n	n/a
384.109	0.12	768218	keystroke_d	d	n/a
384.199	0.165	768398	keystroke_o	o	n/a
384.454	0.15	768908	keystroke_s	s	n/a
384.619	0.12	769238	keystroke_Key.space	Key.space	n/a
385.0985	0.03	770197	keystroke_q	q	n/a
386.1045	0.105	772209	keystroke_u	u	n/a
386.1645	0.134	772329	keystroke_i	i	n/a
386.4195	0.12	772839	keystroke_l	l	n/a
386.5835	0.12	773167	keystroke_t	t	n/a
386.7335	0.1205	773467	keystroke_Key.space	Key.space	n/a
387.364	0.0895	774728	keystroke_j	j	n/a
387.529	0.09	775058	keystroke_e	e	n/a
387.7235	0.0905	775447	keystroke_w	w	n/a
387.889	0.135	775778	keystroke_e	e	n/a
387.9935	0.2255	775987	keystroke_l	l	n/a
388.159	0.15	776318	keystroke_Key.space	Key.space	n/a
388.669	0.045	777338	keystroke_g	g	n/a
388.744	0.105	777488	keystroke_i	i	n/a
388.909	0.135	777818	keystroke_b	b	n/a
389.119	0.135	778238	keystroke_s	s	n/a
389.209	0.195	778418	keystroke_o	o	n/a
389.359	0.1355	778718	keystroke_n	n	n/a
389.6895	0.09	779379	keystroke_Key.enter	Key.enter	n/a
389.7835	6.672	779567	prompt	n/a	apparent florence avatar singing\n
390.439	0.09	780878	keystroke_a	a	n/a
390.574	0.0605	781148	keystroke_p	p	n/a
390.7095	0.135	781419	keystroke_p	p	n/a
390.7995	0.105	781599	keystroke_a	a	n/a
391.0395	0.0745	782079	keystroke_r	r	n/a
391.234	0.09	782468	keystroke_e	e	n/a
391.354	0.075	782708	keystroke_n	n	n/a
391.474	0.045	782948	keystroke_t	t	n/a
391.594	0.09	783188	keystroke_Key.space	Key.space	n/a
392.2395	0.105	784479	keystroke_f	f	n/a
392.3595	0.03	784719	keystroke_l	l	n/a
392.4645	0.135	784929	keystroke_o	o	n/a
392.5695	0.105	785139	keystroke_r	r	n/a
392.974	0.06	785948	keystroke_e	e	n/a
393.214	0.09	786428	keystroke_n	n	n/a
393.394	0.03	786788	keystroke_c	c	n/a
393.6195	0.06	787239	keystroke_e	e	n/a
393.7095	0.105	787419	keystroke_Key.space	Key.space	n/a
394.084	0.09	788168	keystroke_a	a	n/a
394.264	0.105	788528	keystroke_v	v	n/a
394.309	0.12	788618	keystroke_a	a	n/a
394.639	0.0755	789278	keystroke_t	t	n/a
394.909	0.075	789818	keystroke_a	a	n/a
395.119	0.09	790238	keystroke_r	r	n/a
395.224	0.135	790448	keystroke_Key.space	Key.space	n/a
395.419	0.09	790838	keystroke_s	s	n/a
395.479	0.2095	790958	keystroke_i	i	n/a
395.6295	0.149	791259	keystroke_n	n	n/a
395.8095	0.0895	791619	keystroke_g	g	n/a
395.8845	0.1495	791769	keystroke_i	i	n/a
395.974	0.15	791948	keystroke_n	n	n/a
396.109	0.12	792218	keystroke_g	g	n/a
396.349	0.105	792698	keystroke_Key.enter	Key.enter	n/a
396.46	9.086	792920	prompt	n/a	entrepreneur accepted diagnostic signing\n
397.279	0.09	794558	keystroke_e	e	n/a
397.354	0.135	794708	keystroke_n	n	n/a
397.519	0.075	795038	keystroke_t	t	n/a
397.699	0.075	795398	keystroke_r	r	n/a
397.954	0.09	795908	keystroke_e	e	n/a
398.104	0.135	796208	keystroke_p	p	n/a
398.254	0.045	796508	keystroke_r	r	n/a
398.419	0.12	796838	keystroke_e	e	n/a
398.704	0.12	797408	keystroke_n	n	n/a
398.8695	0.12	797739	keystroke_e	e	n/a
399.064	0.09	798128	keystroke_u	u	n/a
399.2145	0.0895	798429	keystroke_r	r	n/a
399.364	0.12	798728	keystroke_Key.space	Key.space	n/a
400.1145	0.06	800229	keystroke_a	a	n/a
400.3695	0.045	800739	keystroke_c	c	n/a
400.4745	0.09	800949	keystroke_c	c	n/a
400.7145	0.105	801429	keystroke_e	e	n/a
400.8195	0.12	801639	keystroke_p	p	n/a
400.9845	0.075	801969	keystroke_t	t	n/a
401.2395	0.075	802479	keystroke_e	e	n/a
401.4495	0.09	802899	keystroke_d	d	n/a
401.5245	0.105	803049	keystroke_Key.space	Key.space	n/a
402.1245	0.075	804249	keystroke_d	d	n/a
402.2145	0.105	804429	keystroke_i	i	n/a
402.3795	0.105	804759	keystroke_a	a	n/a
402.4695	0.09	804939	keystroke_g	g	n/a
402.6945	0.15	805389	keystroke_n	n	n/a
402.7695	0.15	805539	keystroke_o	o	n/a
402.8745	0.09	805749	keystroke_s	s	n/a
403.3845	0.09	806769	keystroke_t	t	n/a
403.624	0.105	807248	keystroke_i	i	n/a
403.789	0.12	807578	keystroke_c	c	n/a
403.969	0.105	807938	keystroke_Key.space	Key.space	n/a
404.464	0.12	808928	keystroke_s	s	n/a
404.614	0.12	809228	keystroke_i	i	n/a
404.794	0.075	809588	keystroke_g	g	n/a
404.884	0.15	809768	keystroke_n	n	n/a
405.019	0.15	810038	keystroke_i	i	n/a
405.109	0.136	810218	keystroke_n	n	n/a
405.214	0.12	810428	keystroke_g	g	n/a
405.454	0.0895	810908	keystroke_Key.enter	Key.enter	n/a
405.5485	5.922	811097	prompt	n/a	republic dutch unix worm\n
406.3245	0.045	812649	keystroke_r	r	n/a
406.4745	0.105	812949	keystroke_e	e	n/a
406.6095	0.1195	813219	keystroke_p	p	n/a
406.8495	0.105	813699	keystroke_u	u	n/a
406.9845	0.12	813969	keystroke_b	b	n/a
407.1345	0.1645	814269	keystroke_l	l	n/a
407.239	0.1805	814478	keystroke_i	i	n/a
407.3745	0.105	814749	keystroke_c	c	n/a
407.5095	0.135	815019	keystroke_Key.space	Key.space	n/a
408.1845	0.09	816369	keystroke_d	d	n/a
408.2895	0.135	816579	keystroke_u	u	n/a
408.4995	0.0595	816999	keystroke_t	t	n/a
408.709	0.135	817418	keystroke_c	c	n/a
408.829	0.165	817658	keystroke_h	h	n/a
408.964	0.1205	817928	keystroke_Key.space	Key.space	n/a
409.2345	0.075	818469	keystroke_i	i	n/a
409.579	0.09	819158	keystroke_Key.backspace	Key.backspace	n/a
410.044	0.135	820088	keystroke_u	u	n/a
410.134	0.225	820268	keystroke_n	n	n/a
410.284	0.165	820568	keystroke_i	i	n/a
410.434	0.12	820868	keystroke_x	x	n/a
410.584	0.105	821168	keystroke_Key.space	Key.space	n/a
410.779	0.09	821558	keystroke_w	w	n/a
410.854	0.135	821708	keystroke_o	o	n/a
411.019	0.12	822038	keystroke_r	r	n/a
411.109	0.135	822218	keystroke_m	m	n/a
411.3795	0.09	822759	keystroke_Key.enter	Key.enter	n/a
411.4745	6.3715	822949	prompt	n/a	weak farms obtain fetish\n
412.1895	0.12	824379	keystroke_w	w	n/a
412.3995	0.09	824799	keystroke_e	e	n/a
412.6395	0.12	825279	keystroke_a	a	n/a
412.7745	0.195	825549	keystroke_k	k	n/a
412.9245	0.135	825849	keystroke_Key.space	Key.space	n/a
413.284	0.075	826568	keystroke_t	t	n/a
413.674	0.09	827348	keystroke_Key.backspace	Key.backspace	n/a
413.704	0.076	827408	keystroke_f	f	n/a
413.885	0.06	827770	keystroke_r	r	n/a
414.154	0.09	828308	keystroke_Key.backspace	Key.backspace	n/a
414.259	0.075	828518	keystroke_a	a	n/a
414.4545	0.0745	828909	keystroke_r	r	n/a
414.56	0.12	829120	keystroke_m	m	n/a
414.71	0.1645	829420	keystroke_s	s	n/a
414.8595	0.105	829719	keystroke_Key.space	Key.space	n/a
415.1445	0.165	830289	keystroke_o	o	n/a
415.2645	0.1655	830529	keystroke_b	b	n/a
415.385	0.089	830770	keystroke_t	t	n/a
415.669	0.135	831338	keystroke_a	a	n/a
415.759	0.225	831518	keystroke_i	i	n/a
415.894	0.15	831788	keystroke_n	n	n/a
416.014	0.12	832028	keystroke_Key.space	Key.space	n/a
416.4495	0.0605	832899	keystroke_f	f	n/a
416.765	0.089	833530	keystroke_e	e	n/a
416.96	0.06	833920	keystroke_t	t	n/a
417.035	0.119	834070	keystroke_i	i	n/a
417.35	0.09	834700	keystroke_s	s	n/a
417.485	0.12	834970	keystroke_h	h	n/a
417.77	0.075	835540	keystroke_Key.enter	Key.enter	n/a
417.849	9.672	835698	prompt	n/a	bestsellers generations traditions mediawiki\n
418.6995	0.135	837399	keystroke_b	b	n/a
418.8195	0.09	837639	keystroke_e	e	n/a
419.0445	0.105	838089	keystroke_s	s	n/a
419.2845	0.045	838569	keystroke_t	t	n/a
419.5845	0.045	839169	keystroke_s	s	n/a
419.7795	0.09	839559	keystroke_e	e	n/a
419.8995	0.105	839799	keystroke_l	l	n/a
420.0495	0.135	840099	keystroke_l	l	n/a
420.1395	0.12	840279	keystroke_e	e	n/a
420.3645	0.075	840729	keystroke_r	r	n/a
420.5745	0.15	841149	keystroke_s	s	n/a
420.7095	0.12	841419	keystroke_Key.space	Key.space	n/a
421.2045	0.12	842409	keystroke_g	g	n/a
421.3095	0.105	842619	keystroke_e	e	n/a
421.4445	0.165	842889	keystroke_n	n	n/a
421.5345	0.09	843069	keystroke_e	e	n/a
421.6995	0.09	843399	keystroke_r	r	n/a
421.9245	0.09	843849	keystroke_a	a	n/a
422.179	0.06	844358	keystroke_t	t	n/a
422.269	0.1505	844538	keystroke_i	i	n/a
422.3895	0.21	844779	keystroke_o	o	n/a
422.5245	0.1795	845049	keystroke_n	n	n/a
422.659	0.135	845318	keystroke_s	s	n/a
422.779	0.1355	845558	keystroke_Key.space	Key.space	n/a
423.0795	0.075	846159	keystroke_t	t	n/a
423.2445	0.09	846489	keystroke_r	r	n/a
423.454	0.09	846908	keystroke_a	a	n/a
423.664	0.06	847328	keystroke_d	d	n/a
423.769	0.105	847538	keystroke_i	i	n/a
423.889	0.075	847778	keystroke_t	t	n/a
423.979	0.12	847958	keystroke_i	i	n/a
424.084	0.1955	848168	keystroke_o	o	n/a
424.2345	0.18	848469	keystroke_n	n	n/a
424.3995	0.15	848799	keystroke_s	s	n/a
424.504	0.1205	849008	keystroke_Key.space	Key.space	n/a
424.8045	0.12	849609	keystroke_m	m	n/a
425.059	0.1205	850118	keystroke_i	i	n/a
425.719	0.105	851438	keystroke_Key.backspace	Key.backspace	n/a
425.869	0.03	851738	keystroke_e	e	n/a
426.019	0.075	852038	keystroke_d	d	n/a
426.109	0.09	852218	keystroke_i	i	n/a
426.3045	0.12	852609	keystroke_a	a	n/a
426.6045	0.135	853209	keystroke_w	w	n/a
426.7095	0.0905	853419	keystroke_i	i	n/a
426.8745	0.12	853749	keystroke_k	k	n/a
427.0695	0.105	854139	keystroke_i	i	n/a
427.429	0.091	854858	keystroke_Key.enter	Key.enter	n/a
427.524	9.327	855048	prompt	n/a	ethics penalties photography silk\n
428.3895	0.075	856779	keystroke_e	e	n/a
428.5995	0.075	857199	keystroke_t	t	n/a
428.7195	0.165	857439	keystroke_h	h	n/a
428.8395	0.165	857679	keystroke_i	i	n/a
428.9595	0.1805	857919	keystroke_s	s	n/a
429.169	0.075	858338	keystroke_Key.space	Key.space	n/a
429.394	0.121	858788	keystroke_p	p	n/a
429.529	0.121	859058	keystroke_e	e	n/a
429.665	0.134	859330	keystroke_n	n	n/a
430.189	0.06	860378	keystroke_a	a	n/a
430.295	0.089	860590	keystroke_l	l	n/a
430.474	0.06	860948	keystroke_t	t	n/a
430.579	0.105	861158	keystroke_i	i	n/a
430.714	0.075	861428	keystroke_e	e	n/a
430.9395	0.075	861879	keystroke_s	s	n/a
431.0595	0.12	862119	keystroke_Key.space	Key.space	n/a
431.569	0.15	863138	keystroke_p	p	n/a
431.674	0.195	863348	keystroke_h	h	n/a
431.944	0.105	863888	keystroke_t	t	n/a
432.079	0.15	864158	keystroke_o	o	n/a
432.244	0.12	864488	keystroke_t	t	n/a
432.559	0.06	865118	keystroke_Key.backspace	Key.backspace	n/a
432.6795	0.09	865359	keystroke_Key.backspace	Key.backspace	n/a
432.8595	0.0745	865719	keystroke_Key.backspace	Key.backspace	n/a
433.325	0.12	866650	keystroke_o	o	n/a
433.49	0.135	866980	keystroke_t	t	n/a
433.76	0.12	867520	keystroke_o	o	n/a
434.315	0.06	868630	keystroke_g	g	n/a
434.4945	0.06	868989	keystroke_r	r	n/a
434.7495	0.1355	869499	keystroke_a	a	n/a
434.854	0.135	869708	keystroke_p	p	n/a
435.019	0.4505	870038	keystroke_h	h	n/a
435.4245	0.1795	870849	keystroke_y	y	n/a
435.559	0.135	871118	keystroke_Key.space	Key.space	n/a
435.89	0.1645	871780	keystroke_s	s	n/a
436.04	0.1195	872080	keystroke_i	i	n/a
436.3245	0.165	872649	keystroke_l	l	n/a
436.4745	0.135	872949	keystroke_k	k	n/a
436.7745	0.0755	873549	keystroke_Key.enter	Key.enter	n/a
436.8535	6.8675	873707	prompt	n/a	similar restoration fiscal chicks\n
437.4195	0.1655	874839	keystroke_s	s	n/a
437.555	0.18	875110	keystroke_i	i	n/a
437.72	0.18	875440	keystroke_m	m	n/a
437.825	0.195	875650	keystroke_i	i	n/a
437.99	0.21	875980	keystroke_l	l	n/a
438.11	0.135	876220	keystroke_a	a	n/a
438.35	0.12	876700	keystroke_r	r	n/a
438.455	0.1195	876910	keystroke_Key.space	Key.space	n/a
438.7245	0.075	877449	keystroke_r	r	n/a
438.89	0.105	877780	keystroke_e	e	n/a
439.145	0.09	878290	keystroke_s	s	n/a
439.385	0.075	878770	keystroke_t	t	n/a
439.49	0.1345	878980	keystroke_o	o	n/a
439.5945	0.075	879189	keystroke_r	r	n/a
440.1495	0.0745	880299	keystroke_a	a	n/a
440.404	0.075	880808	keystroke_t	t	n/a
440.539	0.135	881078	keystroke_i	i	n/a
440.659	0.226	881318	keystroke_o	o	n/a
440.84	0.1945	881680	keystroke_n	n	n/a
440.9895	0.135	881979	keystroke_Key.space	Key.space	n/a
441.5145	0.075	883029	keystroke_f	f	n/a
441.6045	0.12	883209	keystroke_i	i	n/a
441.7395	0.06	883479	keystroke_s	s	n/a
441.9195	0.045	883839	keystroke_c	c	n/a
442.145	0.12	884290	keystroke_a	a	n/a
442.28	0.21	884560	keystroke_l	l	n/a
442.445	0.15	884890	keystroke_Key.space	Key.space	n/a
442.715	0.075	885430	keystroke_c	c	n/a
442.8645	0.15	885729	keystroke_h	h	n/a
442.9695	0.12	885939	keystroke_i	i	n/a
443.0595	0.075	886119	keystroke_c	c	n/a
443.2395	0.12	886479	keystroke_k	k	n/a
443.3895	0.135	886779	keystroke_s	s	n/a
443.6295	0.09	887259	keystroke_Key.enter	Key.enter	n/a
443.724	5.877	887448	prompt	n/a	pretty debt syria capital\n
444.32	0.119	888640	keystroke_p	p	n/a
444.469	0.076	888938	keystroke_r	r	n/a
444.649	0.075	889298	keystroke_e	e	n/a
444.874	0.045	889748	keystroke_t	t	n/a
444.98	0.135	889960	keystroke_t	t	n/a
445.13	0.194	890260	keystroke_y	y	n/a
445.264	0.135	890528	keystroke_Key.space	Key.space	n/a
445.654	0.045	891308	keystroke_d	d	n/a
445.774	0.135	891548	keystroke_e	e	n/a
445.924	0.1355	891848	keystroke_b	b	n/a
446.0745	0.075	892149	keystroke_t	t	n/a
446.2695	0.12	892539	keystroke_Key.space	Key.space	n/a
446.6145	0.1205	893229	keystroke_s	s	n/a
447.215	0.075	894430	keystroke_y	y	n/a
447.35	0.0895	894700	keystroke_r	r	n/a
447.4995	0.135	894999	keystroke_i	i	n/a
447.7095	0.1205	895419	keystroke_a	a	n/a
447.8595	0.1205	895719	keystroke_Key.space	Key.space	n/a
448.28	0.06	896560	keystroke_c	c	n/a
448.52	0.075	897040	keystroke_a	a	n/a
448.61	0.105	897220	keystroke_p	p	n/a
448.775	0.1195	897550	keystroke_i	i	n/a
448.8645	0.075	897729	keystroke_t	t	n/a
449.1345	0.09	898269	keystroke_a	a	n/a
449.2395	0.105	898479	keystroke_l	l	n/a
449.5245	0.075	899049	keystroke_Key.enter	Key.enter	n/a
449.6135	8.1925	899227	prompt	n/a	savings acceptable ukraine student\n
450.4995	0.06	900999	keystroke_s	s	n/a
450.6795	0.09	901359	keystroke_a	a	n/a
450.7995	0.09	901599	keystroke_v	v	n/a
450.9945	0.225	901989	keystroke_i	i	n/a
451.1295	0.165	902259	keystroke_n	n	n/a
451.2345	0.09	902469	keystroke_g	g	n/a
451.5195	0.075	903039	keystroke_s	s	n/a
451.6095	0.15	903219	keystroke_Key.space	Key.space	n/a
452.0595	0.075	904119	keystroke_a	a	n/a
452.33	0.0595	904660	keystroke_c	c	n/a
452.4795	0.045	904959	keystroke_c	c	n/a
452.6745	0.12	905349	keystroke_e	e	n/a
452.7795	0.135	905559	keystroke_p	p	n/a
452.9295	0.06	905859	keystroke_t	t	n/a
453.1845	0.06	906369	keystroke_a	a	n/a
453.4545	0.03	906909	keystroke_b	b	n/a
453.4695	0.18	906939	keystroke_l	l	n/a
453.5895	0.135	907179	keystroke_e	e	n/a
453.7395	0.12	907479	keystroke_Key.space	Key.space	n/a
454.5195	0.09	909039	keystroke_u	u	n/a
454.7745	0.135	909549	keystroke_k	k	n/a
455.1495	0.045	910299	keystroke_r	r	n/a
455.3595	0.06	910719	keystroke_a	a	n/a
455.4795	0.18	910959	keystroke_i	i	n/a
455.5995	0.105	911199	keystroke_n	n	n/a
455.6895	0.06	911379	keystroke_e	e	n/a
455.8695	0.09	911739	keystroke_Key.space	Key.space	n/a
456.1695	0.06	912339	keystroke_s	s	n/a
456.41	0.044	912820	keystroke_t	t	n/a
456.5	0.12	913000	keystroke_u	u	n/a
456.8445	0.075	913689	keystroke_d	d	n/a
457.0395	0.075	914079	keystroke_e	e	n/a
457.37	0.104	914740	keystroke_n	n	n/a
457.489	0.075	914978	keystroke_t	t	n/a
457.729	0.075	915458	keystroke_Key.enter	Key.enter	n/a
457.8095	9.6115	915619	prompt	n/a	mortality plates easily slowly\n
458.569	0.135	917138	keystroke_m	m	n/a
458.674	0.165	917348	keystroke_o	o	n/a
458.779	0.075	917558	keystroke_r	r	n/a
458.929	0.105	917858	keystroke_t	t	n/a
459.199	0.12	918398	keystroke_a	a	n/a
459.334	0.15	918668	keystroke_l	l	n/a
459.439	0.135	918878	keystroke_i	i	n/a
459.544	0.075	919088	keystroke_r	r	n/a
459.724	0.09	919448	keystroke_t	t	n/a
459.829	0.12	919658	keystroke_Key.space	Key.space	n/a
460.279	0.03	920558	keystroke_=	=	n/a
460.4145	0.075	920829	keystroke_Key.backspace	Key.backspace	n/a
460.5645	0.06	921129	keystroke_Key.backspace	Key.backspace	n/a
460.6995	0.06	921399	keystroke_Key.backspace	Key.backspace	n/a
460.834	0.09	921668	keystroke_Key.backspace	Key.backspace	n/a
461.479	0.046	922958	keystroke_t	t	n/a
461.644	0.045	923288	keystroke_y	y	n/a
461.719	0.18	923438	keystroke_Key.space	Key.space	n/a
461.884	0.15	923768	keystroke_p	p	n/a
461.974	0.15	923948	keystroke_o	o	n/a
462.484	0.045	924968	keystroke_Key.backspace	Key.backspace	n/a
462.724	0.1355	925448	keystroke_l	l	n/a
462.9045	0.135	925809	keystroke_a	a	n/a
463.565	0.09	927130	keystroke_t	t	n/a
463.745	0.075	927490	keystroke_e	e	n/a
463.955	0.105	927910	keystroke_s	s	n/a
464.045	0.12	928090	keystroke_Key.space	Key.space	n/a
464.375	0.075	928750	keystroke_e	e	n/a
465.185	0.09	930370	keystroke_a	a	n/a
465.41	0.074	930820	keystroke_s	s	n/a
465.545	0.165	931090	keystroke_i	i	n/a
465.65	0.209	931300	keystroke_l	l	n/a
465.815	0.059	931630	keystroke_y	y	n/a
465.95	0.134	931900	keystroke_Key.space	Key.space	n/a
466.339	0.121	932678	keystroke_s	s	n/a
466.444	0.1055	932888	keystroke_l	l	n/a
466.6245	0.12	933249	keystroke_o	o	n/a
466.6995	0.1345	933399	keystroke_w	w	n/a
466.909	0.135	933818	keystroke_l	l	n/a
467.059	0.075	934118	keystroke_y	y	n/a
467.314	0.105	934628	keystroke_Key.enter	Key.enter	n/a
467.424	4.482	934848	prompt	n/a	bases here flows units\n
468.1695	0.12	936339	keystroke_b	b	n/a
468.2895	0.1045	936579	keystroke_a	a	n/a
468.5295	0.06	937059	keystroke_s	s	n/a
468.7245	0.06	937449	keystroke_e	e	n/a
468.919	0.09	937838	keystroke_s	s	n/a
469.024	0.135	938048	keystroke_Key.space	Key.space	n/a
469.174	0.12	938348	keystroke_h	h	n/a
469.249	0.075	938498	keystroke_e	e	n/a
469.399	0.09	938798	keystroke_r	r	n/a
469.624	0.105	939248	keystroke_e	e	n/a
469.714	0.12	939428	keystroke_Key.space	Key.space	n/a
469.9545	0.075	939909	keystroke_f	f	n/a
470.0745	0.075	940149	keystroke_l	l	n/a
470.2695	0.12	940539	keystroke_o	o	n/a
470.3745	0.09	940749	keystroke_w	w	n/a
470.6145	0.135	941229	keystroke_s	s	n/a
470.7645	0.1045	941529	keystroke_Key.space	Key.space	n/a
471.034	0.135	942068	keystroke_u	u	n/a
471.124	0.195	942248	keystroke_n	n	n/a
471.274	0.165	942548	keystroke_i	i	n/a
471.379	0.105	942758	keystroke_t	t	n/a
471.664	0.09	943328	keystroke_s	s	n/a
471.8145	0.09	943629	keystroke_Key.enter	Key.enter	n/a
471.9105	11.5455	943821	prompt	n/a	extraordinary excited correspondence themes\n
472.79	0.0895	945580	keystroke_e	e	n/a
473.3145	0.075	946629	keystroke_x	x	n/a
473.5245	0.045	947049	keystroke_t	t	n/a
473.6595	0.075	947319	keystroke_r	r	n/a
473.8845	0.0895	947769	keystroke_a	a	n/a
474.094	0.12	948188	keystroke_o	o	n/a
474.364	0.06	948728	keystroke_r	r	n/a
474.604	0.075	949208	keystroke_d	d	n/a
474.694	0.21	949388	keystroke_i	i	n/a
474.799	0.166	949598	keystroke_n	n	n/a
474.98	0.075	949960	keystroke_a	a	n/a
475.235	0.1045	950470	keystroke_r	r	n/a
475.3545	0.195	950709	keystroke_y	y	n/a
475.5195	0.135	951039	keystroke_Key.space	Key.space	n/a
475.8945	0.06	951789	keystroke_e	e	n/a
476.1645	0.105	952329	keystroke_x	x	n/a
476.5245	0.075	953049	keystroke_c	c	n/a
476.6445	0.135	953289	keystroke_i	i	n/a
476.885	0.075	953770	keystroke_e	e	n/a
477.244	0.105	954488	keystroke_Key.backspace	Key.backspace	n/a
477.305	0.06	954610	keystroke_t	t	n/a
477.5	0.074	955000	keystroke_e	e	n/a
477.665	0.12	955330	keystroke_d	d	n/a
477.799	0.105	955598	keystroke_Key.space	Key.space	n/a
478.19	0.044	956380	keystroke_s	s	n/a
478.519	0.09	957038	keystroke_Key.backspace	Key.backspace	n/a
478.639	0.06	957278	keystroke_c	c	n/a
479.029	0.105	958058	keystroke_o	o	n/a
479.194	0.075	958388	keystroke_r	r	n/a
479.329	0.09	958658	keystroke_r	r	n/a
479.524	0.105	959048	keystroke_e	e	n/a
479.764	0.12	959528	keystroke_s	s	n/a
479.854	0.106	959708	keystroke_p	p	n/a
480.049	0.135	960098	keystroke_o	o	n/a
480.229	0.135	960458	keystroke_n	n	n/a
480.379	0.061	960758	keystroke_d	d	n/a
480.559	0.105	961118	keystroke_e	e	n/a
480.679	0.09	961358	keystroke_n	n	n/a
480.949	0.03	961898	keystroke_c	c	n/a
481.189	0.075	962378	keystroke_e	e	n/a
481.279	0.12	962558	keystroke_Key.space	Key.space	n/a
481.654	0.045	963308	keystroke_t	t	n/a
481.744	0.09	963488	keystroke_h	h	n/a
481.894	0.105	963788	keystroke_e	e	n/a
482.074	0.12	964148	keystroke_m	m	n/a
482.299	0.075	964598	keystroke_s	s	n/a
482.854	0.165	965708	keystroke_Key.backspace	Key.backspace	n/a
483.004	0.03	966008	keystroke_e	e	n/a
483.109	0.0905	966218	keystroke_s	s	n/a
483.365	0.0895	966730	keystroke_Key.enter	Key.enter	n/a
483.4595	8.7415	966919	prompt	n/a	analyze lexus specifics secretary\n
484.1595	0.1345	968319	keystroke_a	a	n/a
484.279	0.105	968558	keystroke_n	n	n/a
484.369	0.18	968738	keystroke_a	a	n/a
484.519	0.105	969038	keystroke_l	l	n/a
484.759	0.105	969518	keystroke_y	y	n/a
484.924	0.105	969848	keystroke_z	z	n/a
485.194	0.12	970388	keystroke_e	e	n/a
485.344	0.09	970688	keystroke_Key.space	Key.space	n/a
485.794	0.135	971588	keystroke_l	l	n/a
485.944	0.06	971888	keystroke_e	e	n/a
486.319	0.09	972638	keystroke_x	x	n/a
486.424	0.12	972848	keystroke_u	u	n/a
486.619	0.181	973238	keystroke_s	s	n/a
486.769	0.1205	973538	keystroke_Key.space	Key.space	n/a
487.3395	0.12	974679	keystroke_s	s	n/a
487.5195	0.1345	975039	keystroke_p	p	n/a
487.714	0.061	975428	keystroke_e	e	n/a
487.9545	0.075	975909	keystroke_c	c	n/a
488.0595	0.135	976119	keystroke_i	i	n/a
488.1795	0.06	976359	keystroke_f	f	n/a
488.3145	0.135	976629	keystroke_i	i	n/a
488.404	0.0755	976808	keystroke_c	c	n/a
488.6295	0.15	977259	keystroke_s	s	n/a
488.7495	0.1195	977499	keystroke_Key.space	Key.space	n/a
489.845	0.12	979690	keystroke_e	e	n/a
490.1895	0.12	980379	keystroke_Key.backspace	Key.backspace	n/a
490.2945	0.0595	980589	keystroke_s	s	n/a
490.4445	0.075	980889	keystroke_e	e	n/a
490.669	0.03	981338	keystroke_c	c	n/a
490.835	0.045	981670	keystroke_r	r	n/a
491.075	0.135	982150	keystroke_e	e	n/a
491.3	0.06	982600	keystroke_t	t	n/a
491.554	0.045	983108	keystroke_a	a	n/a
491.7495	0.09	983499	keystroke_r	r	n/a
491.8545	0.09	983709	keystroke_y	y	n/a
492.1395	0.06	984279	keystroke_Key.enter	Key.enter	n/a
492.204	8.622	984408	prompt	n/a	checked areas bradley genetic\n
493.235	0.06	986470	keystroke_c	c	n/a
493.325	0.105	986650	keystroke_h	h	n/a
493.895	0.06	987790	keystroke_e	e	n/a
494.135	0.045	988270	keystroke_c	c	n/a
494.21	0.105	988420	keystroke_k	k	n/a
494.345	0.075	988690	keystroke_e	e	n/a
494.66	0.06	989320	keystroke_s	s	n/a
494.78	0.12	989560	keystroke_Key.space	Key.space	n/a
495.095	0.045	990190	keystroke_Key.backspace	Key.backspace	n/a
495.23	0.09	990460	keystroke_Key.backspace	Key.backspace	n/a
495.305	0.09	990610	keystroke_d	d	n/a
495.41	0.134	990820	keystroke_Key.space	Key.space	n/a
495.754	0.06	991508	keystroke_a	a	n/a
495.979	0.045	991958	keystroke_r	r	n/a
496.114	0.09	992228	keystroke_e	e	n/a
496.354	0.09	992708	keystroke_a	a	n/a
496.564	0.09	993128	keystroke_s	s	n/a
496.669	0.12	993338	keystroke_Key.space	Key.space	n/a
496.9695	0.135	993939	keystroke_b	b	n/a
497.1195	0.03	994239	keystroke_r	r	n/a
497.315	0.045	994630	keystroke_a	a	n/a
497.51	0.0445	995020	keystroke_d	d	n/a
497.5995	0.1195	995199	keystroke_l	l	n/a
497.764	0.1205	995528	keystroke_e	e	n/a
497.9295	0.18	995859	keystroke_y	y	n/a
498.0645	0.12	996129	keystroke_Key.space	Key.space	n/a
498.814	0.1205	997628	keystroke_g	g	n/a
498.9495	0.15	997899	keystroke_e	e	n/a
499.0845	0.12	998169	keystroke_n	n	n/a
499.1445	0.135	998289	keystroke_e	e	n/a
499.4145	0.09	998829	keystroke_t	t	n/a
499.5345	0.135	999069	keystroke_i	i	n/a
499.6845	0.06	999369	keystroke_f	f	n/a
500.1495	0.12	1000299	keystroke_Key.backspace	Key.backspace	n/a
500.2545	0.09	1000509	keystroke_c	c	n/a
500.7645	0.06	1001529	keystroke_Key.enter	Key.enter	n/a
500.8295	7.3915	1001659	prompt	n/a	customized drops neighbors wells\n
501.635	0.045	1003270	keystroke_s	s	n/a
501.905	0.12	1003810	keystroke_Key.backspace	Key.backspace	n/a
502.04	0.06	1004080	keystroke_c	c	n/a
502.22	0.09	1004440	keystroke_u	u	n/a
502.325	0.0745	1004650	keystroke_s	s	n/a
502.5345	0.075	1005069	keystroke_t	t	n/a
502.5945	0.18	1005189	keystroke_o	o	n/a
502.7595	0.1655	1005519	keystroke_m	m	n/a
502.865	0.165	1005730	keystroke_i	i	n/a
503.075	0.105	1006150	keystroke_z	z	n/a
503.3295	0.0595	1006659	keystroke_e	e	n/a
503.569	0.075	1007138	keystroke_d	d	n/a
503.674	0.135	1007348	keystroke_Key.space	Key.space	n/a
504.1995	0.06	1008399	keystroke_d	d	n/a
504.3795	0.06	1008759	keystroke_r	r	n/a
504.4695	0.18	1008939	keystroke_o	o	n/a
504.6195	0.195	1009239	keystroke_p	p	n/a
504.7395	0.18	1009479	keystroke_s	s	n/a
504.8895	0.105	1009779	keystroke_Key.space	Key.space	n/a
505.189	0.135	1010378	keystroke_n	n	n/a
505.264	0.135	1010528	keystroke_e	e	n/a
505.504	0.12	1011008	keystroke_i	i	n/a
505.639	0.105	1011278	keystroke_g	g	n/a
505.745	0.104	1011490	keystroke_h	h	n/a
505.954	0.135	1011908	keystroke_b	b	n/a
506.074	0.15	1012148	keystroke_o	o	n/a
506.1945	0.1045	1012389	keystroke_r	r	n/a
506.525	0.105	1013050	keystroke_s	s	n/a
506.675	0.105	1013350	keystroke_Key.space	Key.space	n/a
507.0495	0.045	1014099	keystroke_w	w	n/a
507.4845	0.075	1014969	keystroke_e	e	n/a
507.6045	0.105	1015209	keystroke_l	l	n/a
507.7695	0.165	1015539	keystroke_l	l	n/a
507.8895	0.09	1015779	keystroke_s	s	n/a
508.1295	0.09	1016259	keystroke_Key.enter	Key.enter	n/a
508.2245	10.1365	1016449	prompt	n/a	explicit adipex chronicles disorders\n
508.9545	0.105	1017909	keystroke_e	e	n/a
509.2245	0.09	1018449	keystroke_x	x	n/a
509.3295	0.12	1018659	keystroke_p	p	n/a
509.5545	0.12	1019109	keystroke_l	l	n/a
509.8095	0.09	1019619	keystroke_i	i	n/a
509.9595	0.075	1019919	keystroke_c	c	n/a
510.0945	0.15	1020189	keystroke_i	i	n/a
510.2595	0.06	1020519	keystroke_t	t	n/a
510.6495	0.12	1021299	keystroke_Key.space	Key.space	n/a
511.46	0.09	1022920	keystroke_a	a	n/a
511.73	0.09	1023460	keystroke_d	d	n/a
511.835	0.134	1023670	keystroke_i	i	n/a
511.94	0.15	1023880	keystroke_p	p	n/a
512.074	0.076	1024148	keystroke_e	e	n/a
512.6445	0.165	1025289	keystroke_x	x	n/a
512.8245	0.135	1025649	keystroke_Key.space	Key.space	n/a
513.3645	0.045	1026729	keystroke_c	c	n/a
513.559	0.15	1027118	keystroke_h	h	n/a
514.399	0.06	1028798	keystroke_r	r	n/a
514.444	0.165	1028888	keystroke_o	o	n/a
514.579	0.165	1029158	keystroke_n	n	n/a
514.699	0.1655	1029398	keystroke_i	i	n/a
514.819	0.0755	1029638	keystroke_c	c	n/a
514.9545	0.135	1029909	keystroke_l	l	n/a
515.1345	0.03	1030269	keystroke_e	e	n/a
515.3595	0.075	1030719	keystroke_s	s	n/a
