onset	duration	sample	value	key	prompt_text
5.4775	24.0655	10955	prompt	n/a	the quick brown fox jumps over a lazy dog\n
8.9005	0.045	17801	keystroke	e	n/a
9.005	0.105	18010	keystroke	Key.space	n/a
9.2745	0.105	18549	keystroke	q	n/a
9.3945	0.165	18789	keystroke	u	n/a
9.4845	0.105	18969	keystroke	i	n/a
9.7545	0.075	19509	keystroke	c	n/a
9.8745	0.075	19749	keystroke	k	n/a
10.1295	0.075	20259	keystroke	Key.space	n/a
10.9395	0.045	21879	keystroke	Key.backspace	n/a
11.8095	0.0605	23619	keystroke	Key.backspace	n/a
11.9745	0.06	23949	keystroke	Key.backspace	n/a
12.155	0.0445	24310	keystroke	Key.backspace	n/a
12.83	0.165	25660	keystroke	t	n/a
13.01	0.015	26020	keystroke	h	n/a
13.055	0.09	26110	keystroke	e	n/a
13.16	0.075	26320	keystroke	Key.space	n/a
13.6545	0.06	27309	keystroke	u	n/a
13.6995	0.03	27399	keystroke	i	n/a
13.985	0.075	27970	keystroke	Key.backspace	n/a
14.21	0.0755	28420	keystroke	Key.backspace	n/a
15.0805	0.105	30161	keystroke	q	n/a
15.3655	0.089	30731	keystroke	u	n/a
15.4095	0.091	30819	keystroke	i	n/a
15.7405	0.089	31481	keystroke	c	n/a
15.8745	0.045	31749	keystroke	k	n/a
16.0695	0.06	32139	keystroke	Key.space	n/a
16.2205	0.0595	32441	keystroke	l	n/a
16.295	0.105	32590	keystroke	a	n/a
16.6395	0.0905	33279	keystroke	z	n/a
16.82	0.06	33640	keystroke	t	n/a
17.78	0.09	35560	keystroke	Key.backspace	n/a
18.125	0.06	36250	keystroke	y	n/a
18.35	0.09	36700	keystroke	Key.space	n/a
18.575	0.09	37150	keystroke	d	n/a
18.77	0.0755	37540	keystroke	o	n/a
19.0855	0.0895	38171	keystroke	g	n/a
20.375	0.045	40750	keystroke	Key.backspace	n/a
20.7195	0.045	41439	keystroke	Key.backspace	n/a
20.885	0.06	41770	keystroke	Key.backspace	n/a
21.035	0.045	42070	keystroke	Key.backspace	n/a
21.185	0.045	42370	keystroke	Key.backspace	n/a
21.335	0.045	42670	keystroke	Key.backspace	n/a
21.515	0.075	43030	keystroke	Key.backspace	n/a
21.74	0.03	43480	keystroke	Key.backspace	n/a
22.505	0.06	45010	keystroke	b	n/a
22.64	0.075	45280	keystroke	r	n/a
22.9405	0.06	45881	keystroke	o	n/a
23.0605	0.075	46121	keystroke	w	n/a
23.2405	0.045	46481	keystroke	n	n/a
23.6305	0.075	47261	keystroke	Key.space	n/a
24.0505	0.06	48101	keystroke	f	n/a
24.3795	0.076	48759	keystroke	o	n/a
24.6195	0.105	49239	keystroke	x	n/a
24.7695	0.06	49539	keystroke	Key.space	n/a
25.0095	0.075	50019	keystroke	j	n/a
25.1595	0.091	50319	keystroke	u	n/a
25.4145	0.046	50829	keystroke	m	n/a
25.5645	0.076	51129	keystroke	p	n/a
25.7905	0.104	51581	keystroke	s	n/a
25.9395	0.045	51879	keystroke	Key.space	n/a
26.3455	0.06	52691	keystroke	o	n/a
26.4795	0.121	52959	keystroke	v	n/a
26.6155	0.135	53231	keystroke	e	n/a
26.7055	0.105	53411	keystroke	r	n/a
26.8545	0.076	53709	keystroke	Key.space	n/a
27.0045	0.09	54009	keystroke	a	n/a
27.1095	0.076	54219	keystroke	Key.space	n/a
27.3205	0.089	54641	keystroke	l	n/a
27.4395	0.091	54879	keystroke	a	n/a
27.7855	0.0895	55571	keystroke	z	n/a
27.965	0.06	55930	keystroke	y	n/a
28.25	0.075	56500	keystroke	Key.space	n/a
28.475	0.09	56950	keystroke	d	n/a
28.685	0.09	57370	keystroke	o	n/a
28.91	0.06	57820	keystroke	g	n/a
29.45	0.09	58900	keystroke	Key.enter	n/a
29.5475	9.2795	59095	prompt	n/a	reflections handed considering ability\n
30.5	0.09	61000	keystroke	r	n/a
30.56	0.09	61120	keystroke	e	n/a
30.935	0.105	61870	keystroke	f	n/a
31.085	0.09	62170	keystroke	l	n/a
31.16	0.12	62320	keystroke	e	n/a
31.355	0.09	62710	keystroke	c	n/a
31.565	0.09	63130	keystroke	t	n/a
31.61	0.1345	63220	keystroke	i	n/a
31.7	0.0895	63400	keystroke	o	n/a
31.9695	0.015	63939	keystroke	n	n/a
32.0445	0.09	64089	keystroke	s	n/a
32.8395	0.105	65679	keystroke	Key.space	n/a
33.2	0.075	66400	keystroke	h	n/a
33.29	0.12	66580	keystroke	a	n/a
33.411	0.074	66822	keystroke	n	n/a
33.5	0.12	67000	keystroke	d	n/a
33.71	0.075	67420	keystroke	e	n/a
33.965	0.06	67930	keystroke	d	n/a
34.34	0.06	68680	keystroke	Key.space	n/a
34.8355	0.105	69671	keystroke	c	n/a
35.0005	0.15	70001	keystroke	o	n/a
35.0905	0.09	70181	keystroke	n	n/a
35.2255	0.134	70451	keystroke	s	n/a
35.3005	0.09	70601	keystroke	i	n/a
35.4955	0.104	70991	keystroke	d	n/a
35.5705	0.104	71141	keystroke	e	n/a
35.7505	0.0745	71501	keystroke	r	n/a
35.87	0.15	71740	keystroke	i	n/a
35.945	0.09	71890	keystroke	n	n/a
36.11	0.075	72220	keystroke	g	n/a
36.92	0.06	73840	keystroke	Key.space	n/a
37.175	0.075	74350	keystroke	a	n/a
37.535	0.09	75070	keystroke	b	n/a
37.67	0.075	75340	keystroke	i	n/a
37.865	0.09	75730	keystroke	l	n/a
38.015	0.09	76030	keystroke	i	n/a
38.225	0.03	76450	keystroke	t	n/a
38.3155	0.075	76631	keystroke	y	n/a
38.7205	0.105	77441	keystroke	Key.enter	n/a
38.83	10.032	77660	prompt	n/a	island latino postcards market\n
39.7705	0.075	79541	keystroke	i	n/a
39.8605	0.0745	79721	keystroke	s	n/a
39.98	0.06	79960	keystroke	l	n/a
40.085	0.12	80170	keystroke	a	n/a
40.235	0.06	80470	keystroke	n	n/a
40.4	0.075	80800	keystroke	d	n/a
40.7305	0.075	81461	keystroke	Key.space	n/a
41.0305	0.075	82061	keystroke	l	n/a
41.1355	0.075	82271	keystroke	a	n/a
41.3605	0.09	82721	keystroke	t	n/a
41.4655	0.045	82931	keystroke	i	n/a
41.6905	0.075	83381	keystroke	n	n/a
41.8705	0.075	83741	keystroke	o	n/a
42.4845	0.016	84969	keystroke	n	n/a
43.1	0.06	86200	keystroke	Key.space	n/a
44.1055	0.09	88211	keystroke	Key.backspace	n/a
44.2405	0.09	88481	keystroke	Key.backspace	n/a
44.4505	0.03	88901	keystroke	Key.backspace	n/a
45.575	0.06	91150	keystroke	o	n/a
45.8	0.075	91600	keystroke	Key.space	n/a
46.07	0.12	92140	keystroke	p	n/a
46.145	0.105	92290	keystroke	o	n/a
46.22	0.135	92440	keystroke	s	n/a
46.325	0.09	92650	keystroke	t	n/a
46.61	0.12	93220	keystroke	c	n/a
46.7	0.195	93400	keystroke	a	n/a
46.85	0.105	93700	keystroke	r	n/a
47.075	0.135	94150	keystroke	d	n/a
47.165	0.105	94330	keystroke	s	n/a
47.705	0.075	95410	keystroke	Key.space	n/a
48.05	0.06	96100	keystroke	m	n/a
48.155	0.12	96310	keystroke	a	n/a
48.23	0.09	96460	keystroke	r	n/a
48.35	0.075	96700	keystroke	k	n/a
48.4845	0.135	96969	keystroke	e	n/a
48.5745	0.105	97149	keystroke	t	n/a
48.7845	0.076	97569	keystroke	Key.enter	n/a
48.865	12.432	97730	prompt	n/a	joel rings accessible invention\n
49.88	0.045	99760	keystroke	j	n/a
50.03	0.045	100060	keystroke	o	n/a
50.225	0.0755	100450	keystroke	e	n/a
50.4355	0.0595	100871	keystroke	l	n/a
50.93	0.09	101860	keystroke	Key.space	n/a
51.35	0.06	102700	keystroke	r	n/a
51.515	0.12	103030	keystroke	i	n/a
51.62	0.09	103240	keystroke	n	n/a
51.755	0.075	103510	keystroke	g	n/a
52.01	0.075	104020	keystroke	s	n/a
52.4605	0.0305	104921	keystroke	n	n/a
52.625	0.12	105250	keystroke	a	n/a
52.91	0.06	105820	keystroke	c	n/a
53.075	0.105	106150	keystroke	c	n/a
53.135	0.1045	106270	keystroke	e	n/a
53.3755	0.0595	106751	keystroke	s	n/a
53.495	0.09	106990	keystroke	s	n/a
53.705	0.06	107410	keystroke	i	n/a
54.4555	0.075	108911	keystroke	b	n/a
54.6805	0.06	109361	keystroke	l	n/a
54.9205	0.06	109841	keystroke	e	n/a
55.4905	0.045	110981	keystroke	Key.space	n/a
55.97	0.09	111940	keystroke	i	n/a
56.03	0.09	112060	keystroke	n	n/a
56.255	0.075	112510	keystroke	Key.space	n/a
56.51	0.135	113020	keystroke	v	n/a
56.615	0.09	113230	keystroke	e	n/a
56.705	0.03	113410	keystroke	n	n/a
57.11	0.06	114220	keystroke	Key.backspace	n/a
57.275	0.075	114550	keystroke	Key.backspace	n/a
57.6495	0.076	115299	keystroke	Key.backspace	n/a
57.7995	0.09	115599	keystroke	Key.backspace	n/a
58.3105	0.12	116621	keystroke	v	n/a
58.4005	0.0905	116801	keystroke	e	n/a
58.595	0.075	117190	keystroke	n	n/a
58.79	0.075	117580	keystroke	t	n/a
58.835	0.135	117670	keystroke	i	n/a
58.91	0.0755	117820	keystroke	o	n/a
59.0755	0.105	118151	keystroke	n	n/a
61.2825	0.013	122565	keystroke	Key.enter	n/a
61.2995	10.6775	122599	prompt	n/a	told brochure beaches announcements\n
62.4655	0.09	124931	keystroke	t	n/a
62.5855	0.06	125171	keystroke	o	n/a
62.7505	0.075	125501	keystroke	l	n/a
62.9005	0.06	125801	keystroke	d	n/a
64.145	0.105	128290	keystroke	Key.space	n/a
64.88	0.075	129760	keystroke	b	n/a
65.015	0.075	130030	keystroke	r	n/a
65.135	0.075	130270	keystroke	o	n/a
65.33	0.09	130660	keystroke	c	n/a
65.405	0.045	130810	keystroke	h	n/a
65.63	0.09	131260	keystroke	u	n/a
65.84	0.18	131680	keystroke	r	n/a
65.975	0.12	131950	keystroke	e	n/a
66.725	0.0755	133450	keystroke	Key.space	n/a
67.445	0.075	134890	keystroke	b	n/a
67.535	0.1355	135070	keystroke	e	n/a
67.61	0.15	135220	keystroke	a	n/a
67.79	0.15	135580	keystroke	c	n/a
67.94	0.075	135880	keystroke	h	n/a
68.045	0.105	136090	keystroke	e	n/a
68.255	0.105	136510	keystroke	s	n/a
68.72	0.105	137440	keystroke	Key.space	n/a
69.095	0.105	138190	keystroke	a	n/a
69.26	0.06	138520	keystroke	n	n/a
69.425	0.106	138850	keystroke	n	n/a
69.575	0.15	139150	keystroke	o	n/a
69.651	0.104	139302	keystroke	u	n/a
69.875	0.0905	139750	keystroke	n	n/a
69.9955	0.135	139991	keystroke	c	n/a
70.1005	0.09	140201	keystroke	e	n/a
70.2055	0.105	140411	keystroke	m	n/a
70.4155	0.105	140831	keystroke	e	n/a
70.5355	0.105	141071	keystroke	n	n/a
70.7155	0.135	141431	keystroke	t	n/a
71.6605	0.075	143321	keystroke	s	n/a
71.8705	0.105	143741	keystroke	Key.enter	n/a
71.98	11.892	143960	prompt	n/a	sticky luke vessel suits\n
72.98	0.135	145960	keystroke	s	n/a
73.085	0.09	146170	keystroke	t	n/a
73.295	0.075	146590	keystroke	i	n/a
73.475	0.075	146950	keystroke	c	n/a
73.535	0.06	147070	keystroke	k	n/a
73.775	0.06	147550	keystroke	y	n/a
74.375	0.06	148750	keystroke	n	n/a
75.9505	0.105	151901	keystroke	Key.backspace	n/a
76.4455	0.0895	152891	keystroke	Key.space	n/a
77.1955	0.09	154391	keystroke	l	n/a
77.4505	0.075	154901	keystroke	u	n/a
77.6905	0.06	155381	keystroke	k	n/a
77.8255	0.075	155651	keystroke	e	n/a
78.5005	0.075	157001	keystroke	Key.space	n/a
79.7155	0.0895	159431	keystroke	Key.space	n/a
80.48	0.165	160960	keystroke	v	n/a
80.6	0.12	161200	keystroke	e	n/a
80.84	0.075	161680	keystroke	s	n/a
81.0055	0.135	162011	keystroke	s	n/a
81.1255	0.12	162251	keystroke	e	n/a
81.3355	0.06	162671	keystroke	k	n/a
82.6555	0.045	165311	keystroke	Key.backspace	n/a
83.1955	0.06	166391	keystroke	l	n/a
83.7655	0.105	167531	keystroke	Key.enter	n/a
83.8765	15.895	167753	prompt	n/a	shepherd excluding zinc tutorials\n
85.4155	0.18	170831	keystroke	s	n/a
85.5055	0.105	171011	keystroke	h	n/a
85.94	0.135	171880	keystroke	e	n/a
86.18	0.09	172360	keystroke	p	n/a
86.39	0.1505	172780	keystroke	e	n/a
86.4805	0.12	172961	keystroke	r	n/a
86.7355	0.09	173471	keystroke	d	n/a
87.4855	0.09	174971	keystroke	Key.space	n/a
87.981	0.075	175962	keystroke	e	n/a
88.176	0.12	176352	keystroke	x	n/a
88.431	0.09	176862	keystroke	c	n/a
88.536	0.15	177072	keystroke	l	n/a
88.671	0.0895	177342	keystroke	u	n/a
88.8205	0.105	177641	keystroke	d	n/a
88.97	0.075	177940	keystroke	i	n/a
89.0005	0.0895	178001	keystroke	n	n/a
89.2105	0.06	178421	keystroke	g	n/a
91.568	0.027	183136	keystroke	Key.space	n/a
93.698	0.012	187396	keystroke	z	n/a
93.8	0.105	187600	keystroke	i	n/a
94.07	0.0905	188140	keystroke	n	n/a
94.4155	0.09	188831	keystroke	c	n/a
97.432	0.013	194864	keystroke	t	n/a
97.475	0.09	194950	keystroke	u	n/a
97.7	0.075	195400	keystroke	t	n/a
97.97	0.09	195940	keystroke	o	n/a
98.24	0.135	196480	keystroke	r	n/a
98.36	0.06	196720	keystroke	i	n/a
98.525	0.075	197050	keystroke	a	n/a
98.675	0.06	197350	keystroke	l	n/a
98.795	0.09	197590	keystroke	s	n/a
99.6955	0.075	199391	keystroke	Key.enter	n/a
99.776	8.081	199552	prompt	n/a	lone lawyers bali czech\n
100.775	0.075	201550	keystroke	l	n/a
100.925	0.075	201850	keystroke	o	n/a
101.18	0.045	202360	keystroke	n	n/a
101.375	0.075	202750	keystroke	e	n/a
101.795	0.105	203590	keystroke	Key.space	n/a
102.305	0.06	204610	keystroke	l	n/a
102.575	0.135	205150	keystroke	a	n/a
102.875	0.09	205750	keystroke	w	n/a
103.3405	0.06	206681	keystroke	y	n/a
103.4605	0.135	206921	keystroke	e	n/a
103.5805	0.075	207161	keystroke	r	n/a
103.7755	0.09	207551	keystroke	s	n/a
104.0755	0.09	208151	keystroke	Key.space	n/a
104.7355	0.09	209471	keystroke	b	n/a
105.1245	0.09	210249	keystroke	a	n/a
105.2745	0.091	210549	keystroke	l	n/a
105.4845	0.06	210969	keystroke	i	n/a
106.0405	0.075	212081	keystroke	Key.space	n/a
106.595	0.06	213190	keystroke	c	n/a
106.8355	0.105	213671	keystroke	z	n/a
107.1055	0.075	214211	keystroke	e	n/a
107.3755	0.075	214751	keystroke	c	n/a
107.4805	0.075	214961	keystroke	h	n/a
107.7505	0.105	215501	keystroke	Key.enter	n/a
107.8605	8.4415	215721	prompt	n/a	gras brands scales worlds\n
109.04	0.075	218080	keystroke	g	n/a
109.175	0.135	218350	keystroke	r	n/a
109.28	0.12	218560	keystroke	a	n/a
109.52	0.105	219040	keystroke	s	n/a
109.9555	0.09	219911	keystroke	Key.space	n/a
110.5405	0.0745	221081	keystroke	b	n/a
110.705	0.09	221410	keystroke	r	n/a
110.78	0.135	221560	keystroke	a	n/a
110.87	0.075	221740	keystroke	n	n/a
111.0955	0.12	222191	keystroke	d	n/a
111.335	0.09	222670	keystroke	s	n/a
112.19	0.09	224380	keystroke	Key.space	n/a
113.2405	0.15	226481	keystroke	s	n/a
113.3755	0.105	226751	keystroke	c	n/a
113.495	0.12	226990	keystroke	a	n/a
113.66	0.075	227320	keystroke	l	n/a
113.78	0.0905	227560	keystroke	e	n/a
113.9905	0.09	227981	keystroke	s	n/a
114.305	0.075	228610	keystroke	Key.space	n/a
114.6495	0.106	229299	keystroke	w	n/a
114.7995	0.091	229599	keystroke	o	n/a
114.9505	0.09	229901	keystroke	r	n/a
115.0545	0.061	230109	keystroke	l	n/a
115.2805	0.06	230561	keystroke	d	n/a
115.5655	0.09	231131	keystroke	s	n/a
116.225	0.075	232450	keystroke	Key.enter	n/a
116.3065	6.385	232613	prompt	n/a	xhtml moved blond eagle\n
117.335	0.105	234670	keystroke	x	n/a
117.635	0.075	235270	keystroke	h	n/a
117.815	0.075	235630	keystroke	t	n/a
118.055	0.135	236110	keystroke	m	n/a
118.1595	0.0605	236319	keystroke	l	n/a
118.6555	0.075	237311	keystroke	Key.space	n/a
119.1055	0.135	238211	keystroke	m	n/a
119.1805	0.105	238361	keystroke	o	n/a
119.435	0.135	238870	keystroke	v	n/a
119.51	0.105	239020	keystroke	e	n/a
119.75	0.075	239500	keystroke	d	n/a
120.0055	0.09	240011	keystroke	Key.space	n/a
120.3955	0.075	240791	keystroke	b	n/a
120.4855	0.06	240971	keystroke	l	n/a
120.6955	0.12	241391	keystroke	o	n/a
120.7555	0.075	241511	keystroke	n	n/a
120.9355	0.06	241871	keystroke	d	n/a
121.3555	0.075	242711	keystroke	Key.space	n/a
121.7305	0.105	243461	keystroke	e	n/a
121.8955	0.105	243791	keystroke	a	n/a
122.1505	0.075	244301	keystroke	g	n/a
122.2555	0.06	244511	keystroke	l	n/a
122.4805	0.015	244961	keystroke	e	n/a
122.6155	0.075	245231	keystroke	Key.enter	n/a
122.695	7.3465	245390	prompt	n/a	activity yesterday opens import\n
123.5755	0.075	247151	keystroke	a	n/a
123.7555	0.075	247511	keystroke	c	n/a
123.9655	0.075	247931	keystroke	t	n/a
124.0855	0.075	248171	keystroke	i	n/a
124.2505	0.075	248501	keystroke	v	n/a
124.3555	0.075	248711	keystroke	i	n/a
124.5355	0.06	249071	keystroke	t	n/a
124.6405	0.06	249281	keystroke	y	n/a
125.1045	0.045	250209	keystroke	Key.space	n/a
125.6445	0.061	251289	keystroke	y	n/a
125.8845	0.075	251769	keystroke	e	n/a
126.0655	0.104	252131	keystroke	s	n/a
126.2295	0.075	252459	keystroke	t	n/a
126.3205	0.164	252641	keystroke	e	n/a
126.4545	0.12	252909	keystroke	r	n/a
126.6645	0.151	253329	keystroke	d	n/a
126.7695	0.12	253539	keystroke	a	n/a
126.9505	0.075	253901	keystroke	y	n/a
127.3245	0.0905	254649	keystroke	Key.space	n/a
127.775	0.105	255550	keystroke	o	n/a
127.835	0.121	255670	keystroke	p	n/a
128.045	0.075	256090	keystroke	e	n/a
128.195	0.075	256390	keystroke	n	n/a
128.345	0.075	256690	keystroke	s	n/a
128.6305	0.09	257261	keystroke	Key.space	n/a
129.0805	0.06	258161	keystroke	i	n/a
129.2755	0.075	258551	keystroke	m	n/a
129.4405	0.12	258881	keystroke	p	n/a
129.5455	0.075	259091	keystroke	o	n/a
129.6355	0.06	259271	keystroke	r	n/a
129.815	0.0605	259630	keystroke	t	n/a
129.965	0.075	259930	keystroke	Key.enter	n/a
130.0445	8.457	260089	prompt	n/a	boundary birth swedish complexity\n
130.9405	0.089	261881	keystroke	b	n/a
131.1345	0.135	262269	keystroke	o	n/a
131.2255	0.075	262451	keystroke	u	n/a
131.4045	0.09	262809	keystroke	n	n/a
131.5105	0.1195	263021	keystroke	d	n/a
131.615	0.105	263230	keystroke	a	n/a
131.735	0.075	263470	keystroke	r	n/a
131.885	0.06	263770	keystroke	y	n/a
132.335	0.075	264670	keystroke	Key.space	n/a
132.9055	0.074	265811	keystroke	b	n/a
133.0095	0.076	266019	keystroke	i	n/a
133.2055	0.044	266411	keystroke	r	n/a
133.52	0.06	267040	keystroke	t	n/a
133.73	0.06	267460	keystroke	h	n/a
134.18	0.06	268360	keystroke	Key.space	n/a
134.45	0.09	268900	keystroke	s	n/a
134.735	0.06	269470	keystroke	w	n/a
134.93	0.06	269860	keystroke	e	n/a
135.29	0.105	270580	keystroke	d	n/a
135.44	0.075	270880	keystroke	i	n/a
135.605	0.075	271210	keystroke	s	n/a
135.77	0.045	271540	keystroke	h	n/a
136.22	0.06	272440	keystroke	Key.space	n/a
136.61	0.0905	273220	keystroke	c	n/a
136.7455	0.06	273491	keystroke	o	n/a
136.94	0.06	273880	keystroke	m	n/a
137.105	0.136	274210	keystroke	p	n/a
137.21	0.075	274420	keystroke	l	n/a
137.375	0.06	274750	keystroke	e	n/a
137.69	0.0895	275380	keystroke	x	n/a
137.8855	0.075	275771	keystroke	i	n/a
138.0655	0.045	276131	keystroke	t	n/a
138.14	0.075	276280	keystroke	y	n/a
138.425	0.075	276850	keystroke	Key.enter	n/a
138.5055	14.486	277011	prompt	n/a	technological territories practitioner debug\n
139.67	0.1195	279340	keystroke	t	n/a
139.73	0.1195	279460	keystroke	e	n/a
139.9695	0.12	279939	keystroke	c	n/a
140.0745	0.045	280149	keystroke	h	n/a
140.285	0.18	280570	keystroke	n	n/a
140.39	0.09	280780	keystroke	o	n/a
141.965	0.06	283930	keystroke	l	n/a
142.1	0.0905	284200	keystroke	o	n/a
142.2955	0.075	284591	keystroke	g	n/a
142.3855	0.075	284771	keystroke	i	n/a
142.6105	0.105	285221	keystroke	c	n/a
142.6555	0.105	285311	keystroke	a	n/a
142.8505	0.06	285701	keystroke	l	n/a
143.2255	0.075	286451	keystroke	Key.space	n/a
143.555	0.135	287110	keystroke	t	n/a
143.765	0.105	287530	keystroke	e	n/a
143.99	0.06	287980	keystroke	r	n/a
144.125	0.09	288250	keystroke	r	n/a
144.23	0.045	288460	keystroke	i	n/a
144.41	0.06	288820	keystroke	o	n/a
146.015	0.075	292030	keystroke	Key.backspace	n/a
146.7805	0.075	293561	keystroke	t	n/a
146.8855	0.0595	293771	keystroke	o	n/a
147.005	0.09	294010	keystroke	r	n/a
147.17	0.06	294340	keystroke	i	n/a
147.275	0.09	294550	keystroke	e	n/a
147.515	0.075	295030	keystroke	s	n/a
147.8	0.09	295600	keystroke	Key.space	n/a
148.2355	0.06	296471	keystroke	p	n/a
148.3105	0.105	296621	keystroke	r	n/a
148.3555	0.15	296711	keystroke	a	n/a
148.5505	0.105	297101	keystroke	c	n/a
148.7755	0.075	297551	keystroke	t	n/a
148.88	0.075	297760	keystroke	i	n/a
150.755	0.075	301510	keystroke	t	n/a
150.86	0.1045	301720	keystroke	i	n/a
150.905	0.0895	301810	keystroke	o	n/a
151.0995	0.09	302199	keystroke	n	n/a
151.2045	0.135	302409	keystroke	e	n/a
151.3095	0.09	302619	keystroke	r	n/a
151.565	0.075	303130	keystroke	Key.space	n/a
151.8805	0.105	303761	keystroke	d	n/a
151.9555	0.12	303911	keystroke	e	n/a
152.2555	0.12	304511	keystroke	b	n/a
152.3155	0.09	304631	keystroke	u	n/a
152.4355	0.09	304871	keystroke	g	n/a
152.9155	0.075	305831	keystroke	Key.enter	n/a
152.995	8.2165	305990	prompt	n/a	doom veteran agreement beads\n
153.89	0.09	307780	keystroke	d	n/a
153.995	0.075	307990	keystroke	o	n/a
154.16	0.075	308320	keystroke	o	n/a
154.4755	0.0595	308951	keystroke	m	n/a
154.715	0.075	309430	keystroke	Key.space	n/a
155.015	0.12	310030	keystroke	v	n/a
155.105	0.105	310210	keystroke	e	n/a
155.6	0.06	311200	keystroke	e	n/a
157.1005	0.105	314201	keystroke	Key.backspace	n/a
157.3255	0.1345	314651	keystroke	t	n/a
157.505	0.12	315010	keystroke	e	n/a
157.685	0.195	315370	keystroke	r	n/a
157.835	0.105	315670	keystroke	a	n/a
158.015	0.075	316030	keystroke	n	n/a
158.39	0.09	316780	keystroke	Key.space	n/a
158.585	0.09	317170	keystroke	a	n/a
158.825	0.12	317650	keystroke	g	n/a
159.065	0.12	318130	keystroke	r	n/a
159.14	0.075	318280	keystroke	e	n/a
159.29	0.09	318580	keystroke	e	n/a
159.425	0.075	318850	keystroke	m	n/a
159.53	0.09	319060	keystroke	e	n/a
159.635	0.075	319270	keystroke	n	n/a
159.77	0.075	319540	keystroke	t	n/a
160.055	0.075	320110	keystroke	Key.space	n/a
160.49	0.09	320980	keystroke	b	n/a
160.55	0.135	321100	keystroke	e	n/a
160.625	0.15	321250	keystroke	a	n/a
160.79	0.15	321580	keystroke	d	n/a
160.925	0.105	321850	keystroke	s	n/a
161.135	0.075	322270	keystroke	Key.enter	n/a
161.214	6.8225	322428	prompt	n/a	revealed scottish yeah wake\n
162.3205	0.135	324641	keystroke	r	n/a
162.4105	0.09	324821	keystroke	e	n/a
162.6505	0.09	325301	keystroke	c	n/a
162.9955	0.105	325991	keystroke	Key.backspace	n/a
163.1455	0.135	326291	keystroke	v	n/a
163.2655	0.12	326531	keystroke	e	n/a
163.5805	0.135	327161	keystroke	a	n/a
163.7005	0.09	327401	keystroke	l	n/a
163.9255	0.0895	327851	keystroke	e	n/a
164.135	0.105	328270	keystroke	d	n/a
164.435	0.09	328870	keystroke	Key.space	n/a
164.705	0.135	329410	keystroke	s	n/a
164.825	0.09	329650	keystroke	c	n/a
164.96	0.0755	329920	keystroke	o	n/a
165.1255	0.06	330251	keystroke	t	n/a
165.2755	0.0595	330551	keystroke	t	n/a
165.3805	0.075	330761	keystroke	i	n/a
165.5155	0.09	331031	keystroke	s	n/a
165.6805	0.029	331361	keystroke	h	n/a
165.9645	0.075	331929	keystroke	Key.space	n/a
166.3705	0.06	332741	keystroke	y	n/a
166.4455	0.12	332891	keystroke	e	n/a
166.5355	0.075	333071	keystroke	a	n/a
166.6405	0.0595	333281	keystroke	h	n/a
166.955	0.075	333910	keystroke	Key.space	n/a
167.3295	0.091	334659	keystroke	w	n/a
167.5095	0.091	335019	keystroke	a	n/a
167.6455	0.09	335291	keystroke	k	n/a
167.8245	0.045	335649	keystroke	e	n/a
168.0045	0.03	336009	keystroke	Key.enter	n/a
168.041	11.9355	336082	prompt	n/a	diagram hardcover reprint component\n
168.92	0.09	337840	keystroke	d	n/a
169.04	0.075	338080	keystroke	i	n/a
169.145	0.0595	338290	keystroke	a	n/a
169.3395	0.09	338679	keystroke	g	n/a
169.5495	0.12	339099	keystroke	r	n/a
169.6395	0.09	339279	keystroke	a	n/a
169.85	0.06	339700	keystroke	m	n/a
170.27	0.09	340540	keystroke	Key.space	n/a
170.63	0.105	341260	keystroke	h	n/a
170.66	0.1795	341320	keystroke	a	n/a
170.7805	0.09	341561	keystroke	r	n/a
170.9595	0.105	341919	keystroke	d	n/a
171.1995	0.09	342399	keystroke	c	n/a
171.3195	0.076	342639	keystroke	o	n/a
171.4695	0.076	342939	keystroke	v	n/a
171.5595	0.151	343119	keystroke	e	n/a
171.6645	0.106	343329	keystroke	r	n/a
172.07	0.075	344140	keystroke	Key.space	n/a
172.43	0.12	344860	keystroke	r	n/a
172.505	0.075	345010	keystroke	e	n/a
172.64	0.075	345280	keystroke	p	n/a
172.73	0.09	345460	keystroke	r	n/a
172.88	0.12	345760	keystroke	i	n/a
172.955	0.075	345910	keystroke	n	n/a
173.105	0.075	346210	keystroke	t	n/a
173.36	0.075	346720	keystroke	Key.space	n/a
173.9	0.03	347800	keystroke	c	n/a
173.915	0.03	347830	keystroke	o	n/a
173.9895	0.0755	347979	keystroke	m	n/a
174.125	0.06	348250	keystroke	o	n/a
174.335	0.075	348670	keystroke	n	n/a
174.6345	0.075	349269	keystroke	e	n/a
174.7545	0.075	349509	keystroke	n	n/a
174.8745	0.06	349749	keystroke	t	n/a
175.4905	0.075	350981	keystroke	Key.backspace	n/a
175.6395	0.076	351279	keystroke	Key.backspace	n/a
175.7905	0.059	351581	keystroke	Key.backspace	n/a
175.9395	0.046	351879	keystroke	Key.backspace	n/a
176.18	0.09	352360	keystroke	Key.backspace	n/a
176.8705	0.059	353741	keystroke	p	n/a
177.0355	0.059	354071	keystroke	o	n/a
177.56	0.105	355120	keystroke	e	n/a
177.755	0.06	355510	keystroke	n	n/a
177.8895	0.075	355779	keystroke	t	n/a
178.2495	0.015	356499	keystroke	Key.backspace	n/a
178.3245	0.075	356649	keystroke	Key.backspace	n/a
178.4595	0.075	356919	keystroke	Key.backspace	n/a
178.82	0.075	357640	keystroke	n	n/a
178.955	0.06	357910	keystroke	e	n/a
179.06	0.06	358120	keystroke	n	n/a
179.585	0.075	359170	keystroke	t	n/a
179.885	0.09	359770	keystroke	Key.enter	n/a
179.9795	9.417	359959	prompt	n/a	subsidiary means guest composed\n
181.0695	0.0905	362139	keystroke	s	n/a
181.205	0.06	362410	keystroke	i	n/a
181.5505	0.1045	363101	keystroke	Key.backspace	n/a
182.0455	0.06	364091	keystroke	u	n/a
182.3455	0.06	364691	keystroke	b	n/a
182.5255	0.135	365051	keystroke	s	n/a
182.6455	0.06	365291	keystroke	i	n/a
182.8405	0.12	365681	keystroke	d	n/a
183.44	0.06	366880	keystroke	i	n/a
183.56	0.105	367120	keystroke	a	n/a
183.83	0.06	367660	keystroke	r	n/a
184.025	0.06	368050	keystroke	y	n/a
184.655	0.06	369310	keystroke	Key.space	n/a
184.9255	0.0745	369851	keystroke	m	n/a
185.0305	0.1195	370061	keystroke	e	n/a
185.12	0.075	370240	keystroke	a	n/a
185.255	0.06	370510	keystroke	n	n/a
185.405	0.06	370810	keystroke	s	n/a
185.66	0.075	371320	keystroke	Key.space	n/a
186.1695	0.105	372339	keystroke	g	n/a
186.2895	0.075	372579	keystroke	u	n/a
186.3795	0.075	372759	keystroke	e	n/a
186.5895	0.075	373179	keystroke	s	n/a
186.7995	0.06	373599	keystroke	t	n/a
187.205	0.09	374410	keystroke	Key.space	n/a
187.58	0.105	375160	keystroke	c	n/a
187.7	0.06	375400	keystroke	o	n/a
187.88	0.075	375760	keystroke	m	n/a
188.045	0.06	376090	keystroke	p	n/a
188.24	0.075	376480	keystroke	o	n/a
188.465	0.1355	376930	keystroke	s	n/a
188.5555	0.105	377111	keystroke	e	n/a
188.7805	0.09	377561	keystroke	d	n/a
189.3055	0.09	378611	keystroke	Key.enter	n/a
189.399	8.9525	378798	prompt	n/a	feed independently cover chemical\n
190.205	0.15	380410	keystroke	f	n/a
190.325	0.105	380650	keystroke	e	n/a
190.4905	0.105	380981	keystroke	e	n/a
190.7305	0.09	381461	keystroke	d	n/a
190.9855	0.09	381971	keystroke	Key.space	n/a
191.4355	0.075	382871	keystroke	i	n/a
191.6305	0.089	383261	keystroke	n	n/a
191.8405	0.134	383681	keystroke	d	n/a
191.9445	0.121	383889	keystroke	e	n/a
192.1405	0.089	384281	keystroke	p	n/a
192.3205	0.105	384641	keystroke	e	n/a
192.4555	0.074	384911	keystroke	n	n/a
192.6195	0.09	385239	keystroke	d	n/a
192.9355	0.059	385871	keystroke	t	n/a
193.0545	0.09	386109	keystroke	l	n/a
193.2955	0.059	386591	keystroke	y	n/a
194.6445	0.075	389289	keystroke	Key.space	n/a
195.2745	0.045	390549	keystroke	o	n/a
195.5595	0.105	391119	keystroke	Key.backspace	n/a
195.6945	0.09	391389	keystroke	c	n/a
195.8305	0.074	391661	keystroke	o	n/a
195.9495	0.105	391899	keystroke	v	n/a
196.0695	0.15	392139	keystroke	e	n/a
196.1745	0.105	392349	keystroke	r	n/a
196.5345	0.06	393069	keystroke	Key.space	n/a
196.8945	0.105	393789	keystroke	c	n/a
197.0145	0.06	394029	keystroke	h	n/a
197.1195	0.075	394239	keystroke	e	n/a
197.2395	0.135	394479	keystroke	m	n/a
197.3445	0.09	394689	keystroke	i	n/a
197.5095	0.15	395019	keystroke	c	n/a
197.78	0.0895	395560	keystroke	a	n/a
197.99	0.0755	395980	keystroke	l	n/a
198.275	0.075	396550	keystroke	Key.enter	n/a
198.3545	11.187	396709	prompt	n/a	coleman breathing wanting wonderful\n
199.46	0.09	398920	keystroke	c	n/a
199.565	0.06	399130	keystroke	o	n/a
199.715	0.09	399430	keystroke	l	n/a
199.91	0.075	399820	keystroke	e	n/a
200.015	0.0755	400030	keystroke	m	n/a
200.2255	0.075	400451	keystroke	a	n/a
200.3745	0.075	400749	keystroke	n	n/a
200.6305	0.104	401261	keystroke	Key.space	n/a
200.9905	0.09	401981	keystroke	b	n/a
201.1855	0.12	402371	keystroke	r	n/a
202.2195	0.105	404439	keystroke	e	n/a
202.3845	0.09	404769	keystroke	a	n/a
202.8795	0.075	405759	keystroke	t	n/a
202.9995	0.06	405999	keystroke	h	n/a
203.1495	0.12	406299	keystroke	i	n/a
203.2105	0.104	406421	keystroke	n	n/a
203.3445	0.075	406689	keystroke	g	n/a
203.4645	0.1055	406929	keystroke	Key.space	n/a
203.855	0.12	407710	keystroke	a	n/a
204.8145	0.0905	409629	keystroke	Key.backspace	n/a
205.2195	0.09	410439	keystroke	w	n/a
205.415	0.075	410830	keystroke	a	n/a
205.685	0.075	411370	keystroke	n	n/a
205.94	0.0745	411880	keystroke	t	n/a
206.0445	0.12	412089	keystroke	i	n/a
206.1195	0.06	412239	keystroke	n	n/a
206.2395	0.075	412479	keystroke	g	n/a
206.57	0.075	413140	keystroke	Key.space	n/a
206.9155	0.0895	413831	keystroke	w	n/a
207.02	0.06	414040	keystroke	o	n/a
207.215	0.09	414430	keystroke	n	n/a
207.26	0.15	414520	keystroke	d	n/a
207.395	0.12	414790	keystroke	e	n/a
207.485	0.09	414970	keystroke	r	n/a
207.7555	0.09	415511	keystroke	u	n/a
208.2345	0.075	416469	keystroke	Key.backspace	n/a
208.4595	0.0605	416919	keystroke	f	n/a
208.64	0.06	417280	keystroke	u	n/a
208.94	0.075	417880	keystroke	l	n/a
209.45	0.09	418900	keystroke	Key.enter	n/a
209.5465	6.925	419093	prompt	n/a	paul town specification johns\n
210.425	0.075	420850	keystroke	p	n/a
210.53	0.105	421060	keystroke	a	n/a
210.665	0.06	421330	keystroke	u	n/a
210.89	0.06	421780	keystroke	l	n/a
211.235	0.09	422470	keystroke	Key.space	n/a
211.685	0.09	423370	keystroke	t	n/a
211.76	0.06	423520	keystroke	o	n/a
211.895	0.09	423790	keystroke	w	n/a
212.075	0.045	424150	keystroke	n	n/a
212.42	0.075	424840	keystroke	Key.space	n/a
212.96	0.09	425920	keystroke	s	n/a
213.455	0.015	426910	keystroke	p	n/a
213.56	0.075	427120	keystroke	e	n/a
213.965	0.09	427930	keystroke	c	n/a
214.07	0.06	428140	keystroke	i	n/a
214.1905	0.0745	428381	keystroke	f	n/a
214.28	0.06	428560	keystroke	i	n/a
214.37	0.1055	428740	keystroke	c	n/a
214.445	0.1655	428890	keystroke	a	n/a
214.5955	0.09	429191	keystroke	t	n/a
214.6705	0.09	429341	keystroke	i	n/a
214.7305	0.075	429461	keystroke	o	n/a
214.8805	0.105	429761	keystroke	n	n/a
215.1655	0.075	430331	keystroke	Key.space	n/a
215.5705	0.135	431141	keystroke	j	n/a
215.6305	0.09	431261	keystroke	o	n/a
215.8105	0.09	431621	keystroke	h	n/a
216.0055	0.089	432011	keystroke	n	n/a
216.1395	0.076	432279	keystroke	s	n/a
216.3655	0.104	432731	keystroke	Key.enter	n/a
216.4745	7.167	432949	prompt	n/a	appeared compiled holdings nation\n
217.2355	0.075	434471	keystroke	a	n/a
217.3695	0.06	434739	keystroke	p	n/a
217.5045	0.075	435009	keystroke	p	n/a
217.6105	0.134	435221	keystroke	e	n/a
217.7295	0.135	435459	keystroke	a	n/a
217.8495	0.12	435699	keystroke	r	n/a
218.0755	0.104	436151	keystroke	e	n/a
218.3005	0.089	436601	keystroke	d	n/a
218.6595	0.09	437319	keystroke	Key.space	n/a
218.8545	0.105	437709	keystroke	c	n/a
218.9155	0.074	437831	keystroke	o	n/a
219.0945	0.075	438189	keystroke	m	n/a
219.2745	0.09	438549	keystroke	p	n/a
219.5445	0.06	439089	keystroke	i	n/a
219.7555	0.059	439511	keystroke	l	n/a
219.9045	0.0755	439809	keystroke	e	n/a
220.115	0.075	440230	keystroke	d	n/a
220.58	0.075	441160	keystroke	Key.space	n/a
221.1045	0.075	442209	keystroke	h	n/a
221.285	0.06	442570	keystroke	o	n/a
221.435	0.075	442870	keystroke	l	n/a
221.555	0.09	443110	keystroke	d	n/a
221.675	0.105	443350	keystroke	i	n/a
221.735	0.075	443470	keystroke	n	n/a
221.885	0.09	443770	keystroke	g	n/a
222.14	0.075	444280	keystroke	s	n/a
222.47	0.075	444940	keystroke	Key.space	n/a
222.7105	0.075	445421	keystroke	n	n/a
222.7705	0.15	445541	keystroke	a	n/a
222.9205	0.09	445841	keystroke	t	n/a
222.9655	0.12	445931	keystroke	i	n/a
223.0255	0.105	446051	keystroke	o	n/a
223.1905	0.105	446381	keystroke	n	n/a
223.5505	0.09	447101	keystroke	Key.enter	n/a
223.645	6.1765	447290	prompt	n/a	super miles cancer thereby\n
224.375	0.1205	448750	keystroke	s	n/a
224.5405	0.075	449081	keystroke	u	n/a
224.7805	0.06	449561	keystroke	p	n/a
224.9005	0.12	449801	keystroke	e	n/a
224.9745	0.076	449949	keystroke	r	n/a
225.2455	0.0595	450491	keystroke	Key.space	n/a
225.71	0.105	451420	keystroke	m	n/a
225.77	0.105	451540	keystroke	i	n/a
225.965	0.075	451930	keystroke	l	n/a
226.055	0.105	452110	keystroke	e	n/a
226.295	0.09	452590	keystroke	s	n/a
226.535	0.075	453070	keystroke	Key.space	n/a
226.865	0.135	453730	keystroke	c	n/a
226.97	0.06	453940	keystroke	a	n/a
227.045	0.09	454090	keystroke	n	n/a
227.15	0.15	454300	keystroke	c	n/a
227.27	0.165	454540	keystroke	e	n/a
227.48	0.09	454960	keystroke	r	n/a
227.7805	0.0895	455561	keystroke	Key.space	n/a
228.065	0.135	456130	keystroke	t	n/a
228.23	0.0755	456460	keystroke	h	n/a
228.3355	0.075	456671	keystroke	e	n/a
228.515	0.18	457030	keystroke	r	n/a
228.65	0.105	457300	keystroke	e	n/a
228.95	0.09	457900	keystroke	b	n/a
229.5045	0.06	459009	keystroke	y	n/a
229.7295	0.09	459459	keystroke	Key.enter	n/a
229.8245	6.297	459649	prompt	n/a	nightmare paintings chemical bean\n
230.75	0.075	461500	keystroke	n	n/a
230.915	0.06	461830	keystroke	i	n/a
231.02	0.09	462040	keystroke	g	n/a
231.14	0.06	462280	keystroke	h	n/a
231.215	0.075	462430	keystroke	t	n/a
231.455	0.075	462910	keystroke	m	n/a
231.545	0.12	463090	keystroke	a	n/a
231.74	0.1645	463480	keystroke	r	n/a
231.875	0.0745	463750	keystroke	e	n/a
232.13	0.09	464260	keystroke	Key.space	n/a
232.3555	0.075	464711	keystroke	p	n/a
232.4755	0.09	464951	keystroke	a	n/a
232.5955	0.075	465191	keystroke	i	n/a
232.6405	0.09	465281	keystroke	n	n/a
232.7455	0.105	465491	keystroke	t	n/a
232.8805	0.09	465761	keystroke	i	n/a
232.9405	0.075	465881	keystroke	n	n/a
233.075	0.09	466150	keystroke	g	n/a
233.315	0.075	466630	keystroke	s	n/a
233.735	0.075	467470	keystroke	Key.space	n/a
234.0195	0.12	468039	keystroke	c	n/a
234.1245	0.075	468249	keystroke	h	n/a
234.215	0.1045	468430	keystroke	e	n/a
234.3645	0.1505	468729	keystroke	m	n/a
234.4695	0.0905	468939	keystroke	i	n/a
234.605	0.165	469210	keystroke	c	n/a
234.785	0.075	469570	keystroke	a	n/a
234.95	0.075	469900	keystroke	l	n/a
235.25	0.075	470500	keystroke	Key.space	n/a
235.475	0.075	470950	keystroke	b	n/a
235.565	0.135	471130	keystroke	e	n/a
235.67	0.09	471340	keystroke	a	n/a
235.82	0.075	471640	keystroke	n	n/a
236.03	0.09	472060	keystroke	Key.enter	n/a
236.124	7.9475	472248	prompt	n/a	teenage meals monetary wines\n
236.9595	0.12	473919	keystroke	t	n/a
237.1245	0.09	474249	keystroke	e	n/a
237.2595	0.09	474519	keystroke	e	n/a
237.4095	0.06	474819	keystroke	n	n/a
237.4995	0.09	474999	keystroke	a	n/a
237.6795	0.1055	475359	keystroke	g	n/a
237.74	0.12	475480	keystroke	e	n/a
238.0245	0.075	476049	keystroke	Key.space	n/a
238.2495	0.075	476499	keystroke	m	n/a
238.4145	0.1655	476829	keystroke	e	n/a
238.595	0.0755	477190	keystroke	a	n/a
238.7755	0.075	477551	keystroke	l	n/a
238.9855	0.075	477971	keystroke	s	n/a
239.2555	0.09	478511	keystroke	Key.space	n/a
239.525	0.075	479050	keystroke	m	n/a
239.705	0.06	479410	keystroke	o	n/a
239.96	0.075	479920	keystroke	n	n/a
240.08	0.075	480160	keystroke	e	n/a
240.2895	0.105	480579	keystroke	r	n/a
240.7545	0.075	481509	keystroke	Key.backspace	n/a
240.8445	0.12	481689	keystroke	t	n/a
240.9795	0.135	481959	keystroke	a	n/a
241.1295	0.12	482259	keystroke	r	n/a
241.3545	0.075	482709	keystroke	y	n/a
241.7295	0.09	483459	keystroke	Key.space	n/a
242.1195	0.105	484239	keystroke	w	n/a
242.2395	0.105	484479	keystroke	i	n/a
242.3145	0.076	484629	keystroke	n	n/a
242.5845	0.06	485169	keystroke	t	n/a
243.305	0.135	486610	keystroke	Key.backspace	n/a
243.455	0.015	486910	keystroke	e	n/a
243.485	0.075	486970	keystroke	s	n/a
243.98	0.09	487960	keystroke	Key.enter	n/a
244.0755	7.4205	488151	prompt	n/a	on vista profession catherine\n
245.015	0.09	490030	keystroke	o	n/a
245.12	0.045	490240	keystroke	n	n/a
245.7795	0.09	491559	keystroke	Key.space	n/a
246.1995	0.135	492399	keystroke	v	n/a
246.3195	0.075	492639	keystroke	i	n/a
246.4395	0.1355	492879	keystroke	s	n/a
246.56	0.135	493120	keystroke	t	n/a
246.695	0.09	493390	keystroke	a	n/a
247.0995	0.075	494199	keystroke	Key.space	n/a
247.4745	0.06	494949	keystroke	p	n/a
247.6095	0.075	495219	keystroke	r	n/a
247.6995	0.075	495399	keystroke	o	n/a
247.9095	0.21	495819	keystroke	f	n/a
248.0895	0.105	496179	keystroke	e	n/a
248.3595	0.045	496719	keystroke	s	n/a
248.495	0.075	496990	keystroke	s	n/a
248.6	0.105	497200	keystroke	i	n/a
248.66	0.09	497320	keystroke	o	n/a
248.84	0.09	497680	keystroke	n	n/a
249.305	0.075	498610	keystroke	Key.space	n/a
249.785	0.12	499570	keystroke	c	n/a
249.89	0.105	499780	keystroke	a	n/a
250.115	0.105	500230	keystroke	t	n/a
250.19	0.0745	500380	keystroke	h	n/a
250.3095	0.105	500619	keystroke	e	n/a
250.909	0.09	501818	keystroke	r	n/a
251.029	0.1055	502058	keystroke	i	n/a
251.104	0.061	502208	keystroke	n	n/a
251.2245	0.075	502449	keystroke	e	n/a
251.4345	0.06	502869	keystroke	Key.enter	n/a
251.499	10.617	502998	prompt	n/a	fiber active expression who'd\n
252.3945	0.09	504789	keystroke	f	n/a
252.4545	0.06	504909	keystroke	i	n/a
252.665	0.075	505330	keystroke	b	n/a
252.785	0.09	505570	keystroke	e	n/a
252.83	0.09	505660	keystroke	r	n/a
253.19	0.075	506380	keystroke	Key.space	n/a
253.43	0.135	506860	keystroke	a	n/a
253.535	0.09	507070	keystroke	c	n/a
253.745	0.105	507490	keystroke	t	n/a
253.865	0.045	507730	keystroke	i	n/a
254	0.075	508000	keystroke	g	n/a
254.06	0.105	508120	keystroke	e	n/a
254.8095	0.075	509619	keystroke	Key.backspace	n/a
254.9745	0.09	509949	keystroke	Key.backspace	n/a
255.0945	0.135	510189	keystroke	v	n/a
255.1845	0.105	510369	keystroke	e	n/a
255.4845	0.09	510969	keystroke	Key.space	n/a
256.4745	0.09	512949	keystroke	e	n/a
256.8795	0.075	513759	keystroke	p	n/a
257.224	0.075	514448	keystroke	Key.backspace	n/a
257.3605	0.105	514721	keystroke	x	n/a
257.93	0.105	515860	keystroke	p	n/a
258.125	0.15	516250	keystroke	r	n/a
258.215	0.105	516430	keystroke	e	n/a
258.425	0.09	516850	keystroke	s	n/a
258.59	0.06	517180	keystroke	s	n/a
258.62	0.135	517240	keystroke	i	n/a
258.695	0.09	517390	keystroke	o	n/a
258.89	0.075	517780	keystroke	n	n/a
259.085	0.09	518170	keystroke	Key.space	n/a
259.28	0.09	518560	keystroke	w	n/a
259.385	0.09	518770	keystroke	h	n/a
259.43	0.075	518860	keystroke	i	n/a
260.39	0.075	520780	keystroke	Key.backspace	n/a
260.75	0.045	521500	keystroke	o	n/a
261.485	0.045	522970	keystroke	'	n/a
261.695	0.0895	523390	keystroke	d	n/a
262.055	0.06	524110	keystroke	Key.enter	n/a
262.119	5.982	524238	prompt	n/a	output dock website recently\n
263.0595	0.06	526119	keystroke	o	n/a
263.2395	0.06	526479	keystroke	u	n/a
263.3595	0.075	526719	keystroke	t	n/a
263.4495	0.0755	526899	keystroke	p	n/a
263.555	0.09	527110	keystroke	u	n/a
263.72	0.045	527440	keystroke	t	n/a
263.975	0.075	527950	keystroke	Key.space	n/a
264.47	0.0755	528940	keystroke	d	n/a
264.5595	0.06	529119	keystroke	o	n/a
264.6945	0.075	529389	keystroke	c	n/a
264.8305	0.044	529661	keystroke	k	n/a
265.2345	0.06	530469	keystroke	Key.space	n/a
265.5345	0.136	531069	keystroke	w	n/a
265.6095	0.105	531219	keystroke	e	n/a
265.7295	0.075	531459	keystroke	b	n/a
265.8495	0.09	531699	keystroke	s	n/a
265.9545	0.06	531909	keystroke	i	n/a
266.0595	0.1205	532119	keystroke	t	n/a
266.1495	0.1055	532299	keystroke	e	n/a
266.6	0.075	533200	keystroke	Key.space	n/a
266.9	0.135	533800	keystroke	r	n/a
266.99	0.09	533980	keystroke	e	n/a
267.185	0.12	534370	keystroke	c	n/a
267.26	0.06	534520	keystroke	e	n/a
267.35	0.06	534700	keystroke	n	n/a
267.455	0.075	534910	keystroke	t	n/a
267.575	0.09	535150	keystroke	l	n/a
267.785	0.06	535570	keystroke	y	n/a
268.0095	0.09	536019	keystroke	Key.enter	n/a
268.104	10.272	536208	prompt	n/a	relationship scholarships harris knights\n
268.9095	0.135	537819	keystroke	r	n/a
268.9845	0.075	537969	keystroke	e	n/a
269.1045	0.06	538209	keystroke	l	n/a
269.2395	0.105	538479	keystroke	a	n/a
269.7795	0.075	539559	keystroke	t	n/a
269.8695	0.12	539739	keystroke	i	n/a
269.9445	0.06	539889	keystroke	o	n/a
270.0795	0.09	540159	keystroke	n	n/a
270.2745	0.075	540549	keystroke	s	n/a
270.3645	0.045	540729	keystroke	h	n/a
270.5595	0.06	541119	keystroke	i	n/a
270.7395	0.06	541479	keystroke	p	n/a
271.4595	0.06	542919	keystroke	Key.space	n/a
271.8495	0.15	543699	keystroke	s	n/a
271.9695	0.105	543939	keystroke	c	n/a
271.9845	0.06	543969	keystroke	h	n/a
272.2395	0.06	544479	keystroke	o	n/a
272.8695	0.075	545739	keystroke	l	n/a
272.9895	0.15	545979	keystroke	a	n/a
273.0945	0.105	546189	keystroke	r	n/a
273.4395	0.045	546879	keystroke	h	n/a
274.2045	0.09	548409	keystroke	Key.backspace	n/a
274.5045	0.075	549009	keystroke	s	n/a
274.6845	0.075	549369	keystroke	h	n/a
274.8945	0.06	549789	keystroke	i	n/a
275.0745	0.075	550149	keystroke	p	n/a
275.21	0.06	550420	keystroke	s	n/a
275.57	0.09	551140	keystroke	Key.space	n/a
276.05	0.075	552100	keystroke	h	n/a
276.14	0.195	552280	keystroke	a	n/a
276.29	0.075	552580	keystroke	r	n/a
276.455	0.105	552910	keystroke	r	n/a
276.575	0.0745	553150	keystroke	i	n/a
276.7395	0.06	553479	keystroke	s	n/a
276.9495	0.075	553899	keystroke	Key.space	n/a
277.2945	0.12	554589	keystroke	k	n/a
277.3845	0.105	554769	keystroke	n	n/a
277.5345	0.09	555069	keystroke	i	n/a
277.6995	0.09	555399	keystroke	g	n/a
277.8045	0.075	555609	keystroke	h	n/a
277.8945	0.09	555789	keystroke	t	n/a
278.1045	0.09	556209	keystroke	s	n/a
278.2845	0.09	556569	keystroke	Key.enter	n/a
278.379	6.462	556758	prompt	n/a	fisher copy glossary drunk\n
279.575	0.09	559150	keystroke	f	n/a
279.68	0.075	559360	keystroke	i	n/a
279.8445	0.075	559689	keystroke	s	n/a
279.9495	0.06	559899	keystroke	h	n/a
280.0695	0.12	560139	keystroke	e	n/a
280.1445	0.09	560289	keystroke	r	n/a
280.3845	0.09	560769	keystroke	Key.space	n/a
280.7295	0.105	561459	keystroke	c	n/a
280.8495	0.06	561699	keystroke	o	n/a
281.0145	0.06	562029	keystroke	p	n/a
281.24	0.06	562480	keystroke	y	n/a
281.69	0.06	563380	keystroke	Key.space	n/a
282.275	0.075	564550	keystroke	g	n/a
282.335	0.06	564670	keystroke	l	n/a
282.485	0.075	564970	keystroke	o	n/a
282.65	0.09	565300	keystroke	s	n/a
282.83	0.105	565660	keystroke	s	n/a
282.965	0.165	565930	keystroke	a	n/a
283.115	0.075	566230	keystroke	r	n/a
283.265	0.06	566530	keystroke	y	n/a
283.5945	0.09	567189	keystroke	Key.space	n/a
283.895	0.0895	567790	keystroke	d	n/a
284.0895	0.075	568179	keystroke	r	n/a
284.1945	0.06	568389	keystroke	u	n/a
284.3895	0.135	568779	keystroke	n	n/a
284.4795	0.105	568959	keystroke	k	n/a
284.7345	0.105	569469	keystroke	Key.enter	n/a
284.8475	8.8135	569695	prompt	n/a	intention paragraph harley beast\n
285.634	0.106	571268	keystroke	i	n/a
285.679	0.091	571358	keystroke	n	n/a
285.86	0.1645	571720	keystroke	t	n/a
285.95	0.1045	571900	keystroke	e	n/a
286.0395	0.045	572079	keystroke	n	n/a
286.3545	0.105	572709	keystroke	t	n/a
286.5045	0.135	573009	keystroke	i	n/a
286.5495	0.12	573099	keystroke	o	n/a
286.7595	0.075	573519	keystroke	n	n/a
287.1045	0.075	574209	keystroke	Key.space	n/a
287.3745	0.075	574749	keystroke	p	n/a
287.87	0.09	575740	keystroke	a	n/a
288.0045	0.15	576009	keystroke	r	n/a
288.1395	0.075	576279	keystroke	a	n/a
288.3645	0.105	576729	keystroke	g	n/a
288.5745	0.135	577149	keystroke	r	n/a
288.6795	0.105	577359	keystroke	a	n/a
288.8595	0.075	577719	keystroke	p	n/a
289.1145	0.06	578229	keystroke	h	n/a
289.4895	0.075	578979	keystroke	Key.space	n/a
289.7745	0.06	579549	keystroke	j	n/a
289.8495	0.165	579699	keystroke	a	n/a
290.3145	0.09	580629	keystroke	Key.backspace	n/a
291.064	0.075	582128	keystroke	Key.backspace	n/a
291.455	0.074	582910	keystroke	h	n/a
291.545	0.09	583090	keystroke	a	n/a
291.62	0.09	583240	keystroke	r	n/a
291.754	0.076	583508	keystroke	l	n/a
291.92	0.075	583840	keystroke	e	n/a
292.04	0.0605	584080	keystroke	y	n/a
292.3545	0.09	584709	keystroke	Key.space	n/a
292.6395	0.075	585279	keystroke	b	n/a
292.7445	0.135	585489	keystroke	e	n/a
292.8355	0.135	585671	keystroke	a	n/a
293.0605	0.134	586121	keystroke	s	n/a
293.2555	0.075	586511	keystroke	t	n/a
293.5545	0.105	587109	keystroke	Key.enter	n/a
293.6645	8.1725	587329	prompt	n/a	nest calcium andrew class\n
294.44	0.09	588880	keystroke	n	n/a
294.5	0.1195	589000	keystroke	e	n/a
294.755	0.15	589510	keystroke	s	n/a
294.86	0.074	589720	keystroke	t	n/a
295.205	0.075	590410	keystroke	Key.space	n/a
295.685	0.135	591370	keystroke	c	n/a
295.76	0.09	591520	keystroke	a	n/a
295.8645	0.0755	591729	keystroke	l	n/a
296.165	0.12	592330	keystroke	c	n/a
296.465	0.075	592930	keystroke	i	n/a
296.57	0.105	593140	keystroke	u	n/a
296.885	0.075	593770	keystroke	m	n/a
297.275	0.075	594550	keystroke	Key.space	n/a
297.5745	0.12	595149	keystroke	a	n/a
297.7095	0.06	595419	keystroke	n	n/a
297.7705	0.1045	595541	keystroke	d	n/a
297.995	0.06	595990	keystroke	f	n/a
298.19	0.105	596380	keystroke	r	n/a
298.43	0.0895	596860	keystroke	e	n/a
298.7895	0.06	597579	keystroke	Key.backspace	n/a
298.9095	0.06	597819	keystroke	Key.backspace	n/a
299.0295	0.06	598059	keystroke	Key.backspace	n/a
299.6295	0.09	599259	keystroke	r	n/a
299.8245	0.165	599649	keystroke	e	n/a
299.9445	0.0905	599889	keystroke	w	n/a
300.305	0.075	600610	keystroke	Key.space	n/a
300.725	0.135	601450	keystroke	c	n/a
300.845	0.075	601690	keystroke	l	n/a
300.965	0.18	601930	keystroke	a	n/a
301.13	0.09	602260	keystroke	s	n/a
301.295	0.06	602590	keystroke	s	n/a
301.745	0.09	603490	keystroke	Key.enter	n/a
301.8395	11.817	603679	prompt	n/a	naked chapel civilization directions\n
302.8995	0.09	605799	keystroke	n	n/a
303.0045	0.09	606009	keystroke	a	n/a
303.1395	0.075	606279	keystroke	k	n/a
303.2595	0.075	606519	keystroke	e	n/a
303.4695	0.075	606939	keystroke	d	n/a
303.7245	0.075	607449	keystroke	Key.space	n/a
304.0545	0.12	608109	keystroke	c	n/a
304.1595	0.06	608319	keystroke	h	n/a
304.2495	0.075	608499	keystroke	a	n/a
304.3845	0.06	608769	keystroke	p	n/a
304.5195	0.06	609039	keystroke	e	n/a
304.6995	0.045	609399	keystroke	l	n/a
304.9995	0.06	609999	keystroke	Key.space	n/a
305.2845	0.12	610569	keystroke	c	n/a
305.5695	0.06	611139	keystroke	i	n/a
305.7645	0.075	611529	keystroke	v	n/a
305.8545	0.09	611709	keystroke	i	n/a
306.1095	0.075	612219	keystroke	l	n/a
306.3645	0.045	612729	keystroke	i	n/a
306.5745	0.12	613149	keystroke	c	n/a
307.16	0.09	614320	keystroke	Key.backspace	n/a
310.7625	0.087	621525	keystroke	z	n/a
310.8045	0.105	621609	keystroke	a	n/a
311.1045	0.075	622209	keystroke	t	n/a
311.1945	0.105	622389	keystroke	i	n/a
311.2545	0.09	622509	keystroke	o	n/a
311.4345	0.075	622869	keystroke	n	n/a
311.8095	0.09	623619	keystroke	Key.space	n/a
312.0945	0.09	624189	keystroke	d	n/a
312.2295	0.075	624459	keystroke	i	n/a
312.3345	0.135	624669	keystroke	r	n/a
312.4245	0.105	624849	keystroke	e	n/a
312.6045	0.105	625209	keystroke	c	n/a
312.8145	0.075	625629	keystroke	t	n/a
312.9045	0.105	625809	keystroke	i	n/a
312.9495	0.105	625899	keystroke	o	n/a
313.0995	0.105	626199	keystroke	n	n/a
313.2495	0.09	626499	keystroke	s	n/a
313.5645	0.09	627129	keystroke	Key.enter	n/a
313.6595	10.1665	627319	prompt	n/a	maiden recorders david tuition\n
314.8245	0.105	629649	keystroke	Key.backspace	n/a
315.32	0.045	630640	keystroke	m	n/a
315.41	0.075	630820	keystroke	a	n/a
315.5	0.09	631000	keystroke	i	n/a
315.635	0.165	631270	keystroke	d	n/a
315.755	0.12	631510	keystroke	e	n/a
315.95	0.075	631900	keystroke	n	n/a
316.28	0.09	632560	keystroke	Key.space	n/a
316.565	0.12	633130	keystroke	r	n/a
316.64	0.105	633280	keystroke	e	n/a
316.835	0.12	633670	keystroke	c	n/a
316.94	0.075	633880	keystroke	o	n/a
317.195	0.12	634390	keystroke	d	n/a
317.63	0.09	635260	keystroke	Key.backspace	n/a
317.7945	0.105	635589	keystroke	r	n/a
318.05	0.12	636100	keystroke	d	n/a
318.155	0.1495	636310	keystroke	e	n/a
318.2445	0.105	636489	keystroke	r	n/a
318.4395	0.105	636879	keystroke	s	n/a
318.7395	0.09	637479	keystroke	Key.space	n/a
319.3995	0.1055	638799	keystroke	d	n/a
319.46	0.075	638920	keystroke	a	n/a
319.685	0.09	639370	keystroke	v	n/a
319.79	0.06	639580	keystroke	i	n/a
319.925	0.075	639850	keystroke	d	n/a
320.315	0.075	640630	keystroke	Key.space	n/a
320.8405	0.0745	641681	keystroke	t	n/a
320.99	0.1345	641980	keystroke	i	n/a
321.0055	0.045	642011	keystroke	u	n/a
322.175	0.045	644350	keystroke	Key.backspace	n/a
322.28	0.075	644560	keystroke	Key.backspace	n/a
322.88	0.105	645760	keystroke	u	n/a
322.94	0.075	645880	keystroke	i	n/a
323.06	0.075	646120	keystroke	t	n/a
323.195	0.105	646390	keystroke	i	n/a
323.24	0.105	646480	keystroke	o	n/a
323.4505	0.105	646901	keystroke	n	n/a
323.7505	0.074	647501	keystroke	Key.enter	n/a
323.8285	7.723	647657	prompt	n/a	mills amazing strike orbit\n
324.9495	0.135	649899	keystroke	m	n/a
325.0545	0.09	650109	keystroke	i	n/a
325.2795	0.06	650559	keystroke	l	n/a
325.3995	0.09	650799	keystroke	l	n/a
325.5495	0.105	651099	keystroke	s	n/a
325.8345	0.0905	651669	keystroke	Key.space	n/a
326.15	0.06	652300	keystroke	m	n/a
326.63	0.09	653260	keystroke	Key.backspace	n/a
326.78	0.105	653560	keystroke	a	n/a
326.945	0.06	653890	keystroke	m	n/a
326.99	0.105	653980	keystroke	a	n/a
327.26	0.105	654520	keystroke	z	n/a
327.41	0.105	654820	keystroke	i	n/a
327.47	0.0745	654940	keystroke	n	n/a
327.6645	0.06	655329	keystroke	g	n/a
328.49	0.06	656980	keystroke	Key.space	n/a
328.91	0.12	657820	keystroke	s	n/a
329.105	0.09	658210	keystroke	t	n/a
329.315	0.075	658630	keystroke	r	n/a
329.435	0.06	658870	keystroke	i	n/a
329.6	0.09	659200	keystroke	k	n/a
329.75	0.075	659500	keystroke	e	n/a
330.155	0.09	660310	keystroke	Key.space	n/a
330.59	0.075	661180	keystroke	o	n/a
330.725	0.06	661450	keystroke	r	n/a
330.965	0.075	661930	keystroke	b	n/a
331.1	0.105	662200	keystroke	i	n/a
331.25	0.06	662500	keystroke	t	n/a
331.4595	0.09	662919	keystroke	Key.enter	n/a
331.5545	7.0015	663109	prompt	n/a	adverse default morris barely\n
332.4055	0.149	664811	keystroke	a	n/a
332.5395	0.105	665079	keystroke	d	n/a
332.8095	0.06	665619	keystroke	b	n/a
333.1095	0.075	666219	keystroke	Key.backspace	n/a
333.2145	0.105	666429	keystroke	v	n/a
333.3495	0.12	666699	keystroke	e	n/a
333.4095	0.105	666819	keystroke	r	n/a
333.6195	0.15	667239	keystroke	s	n/a
333.7245	0.09	667449	keystroke	e	n/a
334.2195	0.075	668439	keystroke	Key.space	n/a
334.6245	0.105	669249	keystroke	d	n/a
334.6995	0.075	669399	keystroke	e	n/a
334.8195	0.135	669639	keystroke	f	n/a
334.9245	0.105	669849	keystroke	a	n/a
334.9995	0.075	669999	keystroke	u	n/a
335.1945	0.06	670389	keystroke	l	n/a
335.3295	0.06	670659	keystroke	t	n/a
335.87	0.06	671740	keystroke	Key.space	n/a
336.1695	0.06	672339	keystroke	m	n/a
336.3195	0.075	672639	keystroke	o	n/a
336.4845	0.06	672969	keystroke	r	n/a
336.6345	0.075	673269	keystroke	r	n/a
336.7545	0.0905	673509	keystroke	i	n/a
337.0555	0.074	674111	keystroke	s	n/a
337.3245	0.075	674649	keystroke	Key.space	n/a
337.6405	0.074	675281	keystroke	b	n/a
337.7295	0.12	675459	keystroke	a	n/a
337.8655	0.12	675731	keystroke	r	n/a
337.9695	0.061	675939	keystroke	e	n/a
338.0445	0.076	676089	keystroke	l	n/a
338.2405	0.074	676481	keystroke	y	n/a
338.4655	0.089	676931	keystroke	Key.enter	n/a
338.559	10.6625	677118	prompt	n/a	external inquiry liabilities cuts\n
339.4855	0.074	678971	keystroke	e	n/a
339.9495	0.075	679899	keystroke	t	n/a
340.2045	0.195	680409	keystroke	e	n/a
340.3545	0.091	680709	keystroke	r	n/a
340.6995	0.06	681399	keystroke	Key.backspace	n/a
340.8045	0.0455	681609	keystroke	Key.backspace	n/a
340.925	0.06	681850	keystroke	Key.backspace	n/a
341.4345	0.12	682869	keystroke	x	n/a
341.7645	0.15	683529	keystroke	e	n/a
342.1245	0.09	684249	keystroke	Key.backspace	n/a
342.2595	0.105	684519	keystroke	t	n/a
342.3495	0.15	684699	keystroke	e	n/a
342.4545	0.09	684909	keystroke	r	n/a
342.6795	0.075	685359	keystroke	n	n/a
342.8145	0.09	685629	keystroke	a	n/a
342.9195	0.06	685839	keystroke	l	n/a
343.34	0.045	686680	keystroke	Key.space	n/a
343.79	0.135	687580	keystroke	i	n/a
343.865	0.09	687730	keystroke	n	n/a
344.3895	0.075	688779	keystroke	q	n/a
344.48	0.09	688960	keystroke	u	n/a
344.555	0.075	689110	keystroke	i	n/a
344.795	0.06	689590	keystroke	r	n/a
344.9	0.06	689800	keystroke	y	n/a
345.4695	0.075	690939	keystroke	Key.space	n/a
345.8145	0.105	691629	keystroke	l	n/a
345.8755	0.089	691751	keystroke	i	n/a
346.0845	0.045	692169	keystroke	a	n/a
346.34	0.075	692680	keystroke	b	n/a
346.505	0.06	693010	keystroke	i	n/a
346.6845	0.105	693369	keystroke	l	n/a
346.7595	0.075	693519	keystroke	i	n/a
346.9995	0.075	693999	keystroke	t	n/a
347.0905	0.074	694181	keystroke	i	n/a
347.2245	0.105	694449	keystroke	e	n/a
347.4505	0.074	694901	keystroke	s	n/a
347.9745	0.09	695949	keystroke	Key.space	n/a
348.4095	0.075	696819	keystroke	c	n/a
348.5295	0.075	697059	keystroke	u	n/a
348.6795	0.075	697359	keystroke	t	n/a
348.9045	0.09	697809	keystroke	s	n/a
349.1295	0.09	698259	keystroke	Key.enter	n/a
349.2255	8.861	698451	prompt	n/a	joseph access bangladesh bargains\n
350.36	0.06	700720	keystroke	j	n/a
350.4795	0.075	700959	keystroke	o	n/a
350.8245	0.15	701649	keystroke	s	n/a
350.9595	0.105	701919	keystroke	e	n/a
351.0945	0.075	702189	keystroke	p	n/a
351.3955	0.059	702791	keystroke	h	n/a
351.8595	0.075	703719	keystroke	Key.space	n/a
352.13	0.12	704260	keystroke	a	n/a
352.34	0.06	704680	keystroke	c	n/a
352.49	0.165	704980	keystroke	c	n/a
352.64	0.09	705280	keystroke	e	n/a
352.85	0.09	705700	keystroke	s	n/a
353	0.075	706000	keystroke	s	n/a
353.225	0.09	706450	keystroke	Key.space	n/a
353.5695	0.06	707139	keystroke	b	n/a
353.6445	0.105	707289	keystroke	a	n/a
353.8095	0.0755	707619	keystroke	n	n/a
354.5145	0.075	709029	keystroke	g	n/a
354.6345	0.06	709269	keystroke	l	n/a
354.7395	0.105	709479	keystroke	a	n/a
355.1295	0.1205	710259	keystroke	d	n/a
355.34	0.075	710680	keystroke	e	n/a
355.55	0.075	711100	keystroke	s	n/a
355.685	0.075	711370	keystroke	h	n/a
356.1345	0.075	712269	keystroke	Key.space	n/a
356.615	0.075	713230	keystroke	b	n/a
356.66	0.15	713320	keystroke	a	n/a
356.765	0.09	713530	keystroke	r	n/a
356.99	0.075	713980	keystroke	g	n/a
357.125	0.105	714250	keystroke	a	n/a
357.26	0.0895	714520	keystroke	i	n/a
357.3045	0.06	714609	keystroke	n	n/a
357.4545	0.0605	714909	keystroke	s	n/a
357.98	0.105	715960	keystroke	Key.enter	n/a
358.0895	7.4515	716179	prompt	n/a	steve reduces light cook\n
358.895	0.15	717790	keystroke	s	n/a
359.03	0.12	718060	keystroke	t	n/a
359.42	0.09	718840	keystroke	e	n/a
359.675	0.15	719350	keystroke	v	n/a
359.795	0.09	719590	keystroke	e	n/a
360.275	0.075	720550	keystroke	Key.space	n/a
360.7105	0.09	721421	keystroke	r	n/a
360.7705	0.074	721541	keystroke	e	n/a
360.9505	0.119	721901	keystroke	d	n/a
361.1005	0.0745	722201	keystroke	u	n/a
361.19	0.179	722380	keystroke	c	n/a
361.34	0.104	722680	keystroke	e	n/a
361.6845	0.075	723369	keystroke	s	n/a
361.8795	0.09	723759	keystroke	Key.space	n/a
362.1195	0.0455	724239	keystroke	i	n/a
362.285	0.06	724570	keystroke	g	n/a
362.36	0.075	724720	keystroke	h	n/a
362.66	0.075	725320	keystroke	Key.backspace	n/a
362.795	0.06	725590	keystroke	Key.backspace	n/a
362.975	0.075	725950	keystroke	Key.backspace	n/a
363.395	0.09	726790	keystroke	l	n/a
363.47	0.075	726940	keystroke	i	n/a
363.695	0.075	727390	keystroke	g	n/a
363.83	0.06	727660	keystroke	h	n/a
363.935	0.0595	727870	keystroke	t	n/a
364.28	0.06	728560	keystroke	Key.space	n/a
364.6545	0.105	729309	keystroke	c	n/a
364.8045	0.045	729609	keystroke	o	n/a
364.9395	0.06	729879	keystroke	o	n/a
365.1045	0.075	730209	keystroke	k	n/a
365.45	0.09	730900	keystroke	Key.enter	n/a
365.544	7.783	731088	prompt	n/a	choosing and match selling\n
366.455	0.0745	732910	keystroke	c	n/a
366.5	0.0595	733000	keystroke	h	n/a
366.6645	0.06	733329	keystroke	o	n/a
366.8	0.075	733600	keystroke	o	n/a
366.89	0.075	733780	keystroke	s	n/a
367.01	0.12	734020	keystroke	i	n/a
367.07	0.075	734140	keystroke	n	n/a
367.295	0.015	734590	keystroke	g	n/a
367.49	0.075	734980	keystroke	Key.space	n/a
367.685	0.09	735370	keystroke	a	n/a
367.805	0.06	735610	keystroke	n	n/a
367.91	0.105	735820	keystroke	d	n/a
368.03	0.06	736060	keystroke	Key.space	n/a
368.48	0.045	736960	keystroke	m	n/a
368.54	0.15	737080	keystroke	a	n/a
368.705	0.06	737410	keystroke	t	n/a
368.885	0.09	737770	keystroke	c	n/a
368.99	0.06	737980	keystroke	h	n/a
369.26	0.075	738520	keystroke	Key.space	n/a
369.62	0.105	739240	keystroke	s	n/a
370.1745	0.0605	740349	keystroke	e	n/a
370.3845	0.06	740769	keystroke	i	n/a
370.595	0.09	741190	keystroke	l	n/a
371.825	0.09	743650	keystroke	Key.backspace	n/a
372.5145	0.06	745029	keystroke	l	n/a
372.6495	0.09	745299	keystroke	l	n/a
372.8745	0.12	745749	keystroke	i	n/a
372.9495	0.09	745899	keystroke	n	n/a
373.0995	0.075	746199	keystroke	g	n/a
373.2495	0.075	746499	keystroke	Key.enter	n/a
373.332	5.9795	746664	prompt	n/a	refused color injury sigma\n
374.09	0.105	748180	keystroke	r	n/a
374.165	0.075	748330	keystroke	e	n/a
374.315	0.105	748630	keystroke	f	n/a
374.435	0.06	748870	keystroke	u	n/a
374.54	0.15	749080	keystroke	s	n/a
374.63	0.12	749260	keystroke	e	n/a
374.84	0.09	749680	keystroke	d	n/a
375.185	0.09	750370	keystroke	Key.space	n/a
375.425	0.105	750850	keystroke	c	n/a
375.485	0.075	750970	keystroke	o	n/a
375.635	0.075	751270	keystroke	l	n/a
375.785	0.075	751570	keystroke	o	n/a
375.89	0.075	751780	keystroke	r	n/a
376.205	0.0745	752410	keystroke	Key.space	n/a
376.5195	0.12	753039	keystroke	i	n/a
376.5795	0.075	753159	keystroke	n	n/a
376.8645	0.075	753729	keystroke	j	n/a
377.0295	0.06	754059	keystroke	u	n/a
377.3595	0.06	754719	keystroke	r	n/a
377.5095	0.045	755019	keystroke	y	n/a
377.915	0.075	755830	keystroke	Key.space	n/a
378.41	0.03	756820	keystroke	s	n/a
378.4695	0.0605	756939	keystroke	i	n/a
378.59	0.09	757180	keystroke	g	n/a
378.74	0.06	757480	keystroke	m	n/a
378.875	0.09	757750	keystroke	a	n/a
379.235	0.075	758470	keystroke	Key.enter	n/a
379.314	5.742	758628	prompt	n/a	its bottom lyrics album\n
380.255	0.075	760510	keystroke	i	n/a
380.375	0.09	760750	keystroke	t	n/a
380.63	0.075	761260	keystroke	s	n/a
381.0195	0.09	762039	keystroke	Key.space	n/a
381.3945	0.045	762789	keystroke	b	n/a
381.5145	0.09	763029	keystroke	o	n/a
381.6645	0.075	763329	keystroke	t	n/a
381.7995	0.075	763599	keystroke	t	n/a
381.9195	0.135	763839	keystroke	o	n/a
381.9945	0.105	763989	keystroke	m	n/a
382.2645	0.09	764529	keystroke	Key.space	n/a
382.5795	0.075	765159	keystroke	l	n/a
382.7895	0.0455	765579	keystroke	y	n/a
382.955	0.09	765910	keystroke	r	n/a
383.06	0.075	766120	keystroke	i	n/a
383.3	0.12	766600	keystroke	c	n/a
383.495	0.09	766990	keystroke	s	n/a
383.839	0.09	767678	keystroke	Key.space	n/a
384.125	0.075	768250	keystroke	a	n/a
384.23	0.075	768460	keystroke	l	n/a
384.5145	0.075	769029	keystroke	b	n/a
384.5905	0.059	769181	keystroke	u	n/a
384.7845	0.075	769569	keystroke	m	n/a
384.9795	0.075	769959	keystroke	Key.enter	n/a
385.059	7.3175	770118	prompt	n/a	he'll alive modelling protection\n
386.1345	0.0445	772269	keystroke	h	n/a
386.314	0.075	772628	keystroke	e	n/a
386.8995	0.075	773799	keystroke	'	n/a
387.1845	0.06	774369	keystroke	l	n/a
387.3045	0.045	774609	keystroke	l	n/a
387.6645	0.075	775329	keystroke	Key.space	n/a
388.085	0.06	776170	keystroke	a	n/a
388.19	0.135	776380	keystroke	l	n/a
388.28	0.075	776560	keystroke	i	n/a
388.46	0.075	776920	keystroke	v	n/a
388.55	0.105	777100	keystroke	e	n/a
388.67	0.09	777340	keystroke	Key.space	n/a
388.8945	0.12	777789	keystroke	m	n/a
388.9695	0.075	777939	keystroke	o	n/a
389.1645	0.12	778329	keystroke	d	n/a
389.2695	0.105	778539	keystroke	e	n/a
389.5095	0.06	779019	keystroke	l	n/a
389.6145	0.075	779229	keystroke	l	n/a
389.7795	0.12	779559	keystroke	i	n/a
389.8545	0.075	779709	keystroke	n	n/a
389.9745	0.09	779949	keystroke	g	n/a
390.2895	0.09	780579	keystroke	Key.space	n/a
390.5145	0.06	781029	keystroke	p	n/a
390.635	0.06	781270	keystroke	r	n/a
390.8	0.015	781600	keystroke	o	n/a
391.1895	0.1505	782379	keystroke	t	n/a
391.355	0.09	782710	keystroke	e	n/a
391.505	0.09	783010	keystroke	c	n/a
391.715	0.075	783430	keystroke	t	n/a
391.775	0.12	783550	keystroke	i	n/a
391.85	0.12	783700	keystroke	o	n/a
392.015	0.105	784030	keystroke	n	n/a
392.285	0.09	784570	keystroke	Key.enter	n/a
392.387	6.754	784774	prompt	n/a	latinas ment blind theory\n
393.124	0.076	786248	keystroke	l	n/a
393.215	0.105	786430	keystroke	a	n/a
393.41	0.09	786820	keystroke	t	n/a
393.545	0.045	787090	keystroke	j	n/a
394.099	0.075	788198	keystroke	Key.backspace	n/a
394.385	0.075	788770	keystroke	i	n/a
394.58	0.075	789160	keystroke	n	n/a
394.714	0.091	789428	keystroke	a	n/a
394.8945	0.09	789789	keystroke	s	n/a
395.1795	0.075	790359	keystroke	Key.space	n/a
395.4195	0.0755	790839	keystroke	m	n/a
395.54	0.06	791080	keystroke	e	n/a
395.6595	0.0595	791319	keystroke	n	n/a
395.764	0.075	791528	keystroke	t	n/a
396.349	0.075	792698	keystroke	Key.space	n/a
396.784	0.075	793568	keystroke	b	n/a
396.874	0.06	793748	keystroke	l	n/a
397.085	0.09	794170	keystroke	i	n/a
397.145	0.09	794290	keystroke	n	n/a
397.295	0.075	794590	keystroke	d	n/a
397.685	0.09	795370	keystroke	Key.space	n/a
398.045	0.105	796090	keystroke	t	n/a
398.18	0.06	796360	keystroke	h	n/a
398.285	0.09	796570	keystroke	e	n/a
398.54	0.075	797080	keystroke	o	n/a
398.645	0.075	797290	keystroke	r	n/a
398.81	0.075	797620	keystroke	y	n/a
399.05	0.09	798100	keystroke	Key.enter	n/a
399.1445	6.5365	798289	prompt	n/a	fields forum superb signing\n
399.965	0.09	799930	keystroke	f	n/a
400.07	0.06	800140	keystroke	i	n/a
400.175	0.075	800350	keystroke	e	n/a
400.295	0.06	800590	keystroke	l	n/a
400.4	0.21	800800	keystroke	d	n/a
400.58	0.105	801160	keystroke	s	n/a
400.789	0.091	801578	keystroke	Key.space	n/a
401.2095	0.06	802419	keystroke	f	n/a
401.2845	0.075	802569	keystroke	o	n/a
401.3895	0.075	802779	keystroke	r	n/a
401.5245	0.06	803049	keystroke	u	n/a
401.7345	0.075	803469	keystroke	m	n/a
402.0495	0.0745	804099	keystroke	Key.space	n/a
402.349	0.09	804698	keystroke	s	n/a
402.454	0.06	804908	keystroke	u	n/a
402.664	0.06	805328	keystroke	p	n/a
402.74	0.1045	805480	keystroke	e	n/a
402.8145	0.06	805629	keystroke	r	n/a
403.0545	0.075	806109	keystroke	b	n/a
403.4895	0.06	806979	keystroke	Key.space	n/a
404.2545	0.075	808509	keystroke	s	n/a
404.3445	0.06	808689	keystroke	i	n/a
404.5095	0.09	809019	keystroke	g	n/a
404.7345	0.06	809469	keystroke	n	n/a
404.8395	0.135	809679	keystroke	i	n/a
404.9445	0.075	809889	keystroke	n	n/a
405.0795	0.075	810159	keystroke	g	n/a
405.5895	0.09	811179	keystroke	Key.enter	n/a
405.684	8.142	811368	prompt	n/a	prison floor success tions\n
406.5345	0.0445	813069	keystroke	p	n/a
406.609	0.06	813218	keystroke	r	n/a
406.714	0.075	813428	keystroke	o	n/a
406.729	0.045	813458	keystroke	i	n/a
406.924	0.09	813848	keystroke	s	n/a
407.044	0.105	814088	keystroke	o	n/a
407.104	0.075	814208	keystroke	n	n/a
407.7045	0.075	815409	keystroke	Key.space	n/a
408.229	0.045	816458	keystroke	Key.backspace	n/a
408.349	0.045	816698	keystroke	Key.backspace	n/a
408.454	0.061	816908	keystroke	Key.backspace	n/a
408.59	0.045	817180	keystroke	Key.backspace	n/a
408.709	0.061	817418	keystroke	Key.backspace	n/a
408.86	0.105	817720	keystroke	Key.backspace	n/a
409.3545	0.045	818709	keystroke	i	n/a
409.5045	0.075	819009	keystroke	s	n/a
409.6245	0.12	819249	keystroke	o	n/a
409.7145	0.06	819429	keystroke	n	n/a
409.864	0.075	819728	keystroke	Key.space	n/a
409.954	0.075	819908	keystroke	f	n/a
410.044	0.06	820088	keystroke	l	n/a
410.194	0.06	820388	keystroke	o	n/a
410.2995	0.105	820599	keystroke	o	n/a
410.4795	0.06	820959	keystroke	r	n/a
410.7495	0.075	821499	keystroke	Key.space	n/a
411.0195	0.105	822039	keystroke	s	n/a
411.1395	0.06	822279	keystroke	u	n/a
411.2745	0.09	822549	keystroke	c	n/a
411.3945	0.21	822789	keystroke	c	n/a
411.5745	0.105	823149	keystroke	e	n/a
412.249	0.075	824498	keystroke	s	n/a
412.399	0.105	824798	keystroke	s	n/a
412.654	0.09	825308	keystroke	Key.space	n/a
412.984	0.075	825968	keystroke	t	n/a
413.089	0.06	826178	keystroke	i	n/a
413.224	0.075	826448	keystroke	o	n/a
413.419	0.06	826838	keystroke	n	n/a
413.524	0.075	827048	keystroke	s	n/a
413.7645	0.06	827529	keystroke	Key.enter	n/a
413.829	5.877	827658	prompt	n/a	warrant defines soap focus\n
414.56	0.105	829120	keystroke	w	n/a
414.77	0.135	829540	keystroke	a	n/a
414.905	0.225	829810	keystroke	r	n/a
415.22	0.09	830440	keystroke	r	n/a
415.535	0.075	831070	keystroke	a	n/a
415.73	0.0595	831460	keystroke	n	n/a
415.865	0.075	831730	keystroke	t	n/a
416.104	0.09	832208	keystroke	Key.space	n/a
416.3445	0.1345	832689	keystroke	d	n/a
416.4345	0.0905	832869	keystroke	e	n/a
416.584	0.105	833168	keystroke	f	n/a
416.72	0.104	833440	keystroke	i	n/a
416.779	0.076	833558	keystroke	n	n/a
416.87	0.059	833740	keystroke	e	n/a
417.064	0.075	834128	keystroke	s	n/a
417.334	0.105	834668	keystroke	Key.space	n/a
417.891	0.073	835782	keystroke	s	n/a
417.994	0.06	835988	keystroke	o	n/a
418.099	0.075	836198	keystroke	a	n/a
418.219	0.0605	836438	keystroke	p	n/a
418.6395	0.075	837279	keystroke	Key.space	n/a
419	0.06	838000	keystroke	f	n/a
419.075	0.075	838150	keystroke	o	n/a
419.1795	0.105	838359	keystroke	c	n/a
419.2995	0.09	838599	keystroke	u	n/a
419.465	0.075	838930	keystroke	s	n/a
419.63	0.075	839260	keystroke	Key.enter	n/a
419.709	10.617	839418	prompt	n/a	vaccine premier trackbacks largely\n
420.6945	0.075	841389	keystroke	v	n/a
420.8595	0.06	841719	keystroke	a	n/a
421.0545	0.0755	842109	keystroke	c	n/a
421.204	0.121	842408	keystroke	c	n/a
421.31	0.074	842620	keystroke	i	n/a
421.49	0.059	842980	keystroke	n	n/a
421.624	0.076	843248	keystroke	e	n/a
421.774	0.06	843548	keystroke	Key.space	n/a
421.985	0.059	843970	keystroke	p	n/a
422.089	0.136	844178	keystroke	r	n/a
422.194	0.105	844388	keystroke	e	n/a
422.255	0.059	844510	keystroke	i	n/a
422.525	0.149	845050	keystroke	m	n/a
422.615	0.105	845230	keystroke	i	n/a
422.735	0.075	845470	keystroke	e	n/a
422.779	0.091	845558	keystroke	r	n/a
423.274	0.06	846548	keystroke	Key.backspace	n/a
423.394	0.06	846788	keystroke	Key.backspace	n/a
423.499	0.06	846998	keystroke	Key.backspace	n/a
423.619	0.06	847238	keystroke	Key.backspace	n/a
423.739	0.045	847478	keystroke	Key.backspace	n/a
423.859	0.06	847718	keystroke	Key.backspace	n/a
424.4745	0.075	848949	keystroke	e	n/a
424.6845	0.075	849369	keystroke	m	n/a
424.8345	0.0895	849669	keystroke	i	n/a
424.984	0.135	849968	keystroke	e	n/a
425.089	0.075	850178	keystroke	r	n/a
425.434	0.09	850868	keystroke	Key.space	n/a
425.7645	0.15	851529	keystroke	t	n/a
425.8995	0.12	851799	keystroke	a	n/a
426.8445	0.075	853689	keystroke	Key.backspace	n/a
426.9345	0.1195	853869	keystroke	r	n/a
427.054	0.09	854108	keystroke	a	n/a
427.189	0.12	854378	keystroke	c	n/a
427.369	0.075	854738	keystroke	k	n/a
427.759	0.06	855518	keystroke	b	n/a
427.834	0.135	855668	keystroke	a	n/a
427.939	0.135	855878	keystroke	c	n/a
428.089	0.045	856178	keystroke	k	n/a
428.239	0.075	856478	keystroke	s	n/a
428.704	0.075	857408	keystroke	Key.space	n/a
428.989	0.075	857978	keystroke	l	n/a
429.079	0.135	858158	keystroke	a	n/a
429.215	0.089	858430	keystroke	r	n/a
429.424	0.12	858848	keystroke	g	n/a
429.514	0.12	859028	keystroke	e	n/a
429.694	0.105	859388	keystroke	l	n/a
429.919	0.075	859838	keystroke	y	n/a
430.22	0.105	860440	keystroke	Key.enter	n/a
430.3285	7.3025	860657	prompt	n/a	channels powers lucia injury\n
431.1645	0.105	862329	keystroke	c	n/a
431.2545	0.075	862509	keystroke	h	n/a
431.3445	0.105	862689	keystroke	a	n/a
431.4795	0.045	862959	keystroke	n	n/a
431.5995	0.075	863199	keystroke	n	n/a
431.7195	0.06	863439	keystroke	e	n/a
431.8245	0.075	863649	keystroke	l	n/a
431.9745	0.09	863949	keystroke	s	n/a
432.1245	0.09	864249	keystroke	Key.space	n/a
432.32	0.074	864640	keystroke	p	n/a
432.665	0.09	865330	keystroke	o	n/a
432.86	0.164	865720	keystroke	w	n/a
432.965	0.105	865930	keystroke	e	n/a
433.13	0.105	866260	keystroke	r	n/a
433.37	0.075	866740	keystroke	s	n/a
433.73	0.075	867460	keystroke	Key.space	n/a
435.004	0.09	870008	keystroke	l	n/a
435.214	0.075	870428	keystroke	u	n/a
435.499	0.105	870998	keystroke	c	n/a
435.62	0.059	871240	keystroke	i	n/a
435.754	0.075	871508	keystroke	a	n/a
436.099	0.09	872198	keystroke	Key.space	n/a
436.4895	0.075	872979	keystroke	i	n/a
436.6845	0.09	873369	keystroke	n	n/a
436.8945	0.06	873789	keystroke	j	n/a
437.0295	0.06	874059	keystroke	u	n/a
437.1795	0.06	874359	keystroke	r	n/a
437.2995	0.06	874599	keystroke	y	n/a
437.5545	0.075	875109	keystroke	Key.enter	n/a
437.634	9.807	875268	prompt	n/a	flower conservation impossible detect\n
438.5745	0.0595	877149	keystroke	f	n/a
438.7395	0.06	877479	keystroke	l	n/a
438.889	0.046	877778	keystroke	o	n/a
439.504	0.105	879008	keystroke	w	n/a
439.579	0.09	879158	keystroke	e	n/a
439.759	0.09	879518	keystroke	r	n/a
440.104	0.09	880208	keystroke	Key.space	n/a
440.359	0.105	880718	keystroke	c	n/a
440.465	0.119	880930	keystroke	o	n/a
440.539	0.06	881078	keystroke	n	n/a
440.749	0.105	881498	keystroke	c	n/a
441.094	0.075	882188	keystroke	Key.backspace	n/a
441.304	0.18	882608	keystroke	s	n/a
441.469	0.09	882938	keystroke	e	n/a
441.634	0.075	883268	keystroke	r	n/a
441.934	0.12	883868	keystroke	v	n/a
442.084	0.135	884168	keystroke	a	n/a
442.294	0.075	884588	keystroke	t	n/a
442.384	0.1205	884768	keystroke	i	n/a
442.444	0.1055	884888	keystroke	o	n/a
442.6095	0.09	885219	keystroke	n	n/a
443.21	0.075	886420	keystroke	Key.space	n/a
443.615	0.075	887230	keystroke	i	n/a
443.795	0.06	887590	keystroke	m	n/a
443.93	0.12	887860	keystroke	p	n/a
444.02	0.06	888040	keystroke	o	n/a
444.125	0.075	888250	keystroke	s	n/a
444.29	0.075	888580	keystroke	s	n/a
444.335	0.075	888670	keystroke	i	n/a
444.545	0.06	889090	keystroke	b	n/a
444.695	0.06	889390	keystroke	l	n/a
444.815	0.075	889630	keystroke	e	n/a
445.355	0.075	890710	keystroke	Key.space	n/a
445.64	0.1195	891280	keystroke	d	n/a
445.7295	0.105	891459	keystroke	e	n/a
445.9095	0.1045	891819	keystroke	t	n/a
446.074	0.135	892148	keystroke	e	n/a
446.9295	0.075	893859	keystroke	c	n/a
447.1545	0.075	894309	keystroke	t	n/a
447.3345	0.105	894669	keystroke	Key.enter	n/a
447.4465	8.4395	894893	prompt	n/a	tragedy settled namibia technician\n
448.2795	0.165	896559	keystroke	t	n/a
448.3695	0.105	896739	keystroke	r	n/a
448.535	0.1045	897070	keystroke	a	n/a
448.7295	0.105	897459	keystroke	g	n/a
449.209	0.061	898418	keystroke	e	n/a
449.404	0.09	898808	keystroke	d	n/a
449.539	0.076	899078	keystroke	y	n/a
449.944	0.075	899888	keystroke	Key.space	n/a
450.394	0.12	900788	keystroke	s	n/a
450.544	0.105	901088	keystroke	e	n/a
450.814	0.045	901628	keystroke	t	n/a
450.934	0.105	901868	keystroke	t	n/a
451.054	0.0755	902108	keystroke	l	n/a
451.1895	0.075	902379	keystroke	e	n/a
451.3995	0.075	902799	keystroke	d	n/a
451.6995	0.09	903399	keystroke	Key.space	n/a
452.134	0.075	904268	keystroke	n	n/a
452.255	0.075	904510	keystroke	a	n/a
452.42	0.164	904840	keystroke	m	n/a
452.54	0.09	905080	keystroke	i	n/a
452.779	0.091	905558	keystroke	n	n/a
453.199	0.075	906398	keystroke	Key.backspace	n/a
453.319	0.061	906638	keystroke	b	n/a
453.439	0.075	906878	keystroke	i	n/a
453.574	0.091	907148	keystroke	a	n/a
453.994	0.06	907988	keystroke	Key.space	n/a
454.399	0.136	908798	keystroke	t	n/a
454.489	0.106	908978	keystroke	e	n/a
454.639	0.076	909278	keystroke	h	n/a
454.804	0.076	909608	keystroke	c	n/a
454.939	0.136	909878	keystroke	n	n/a
455.029	0.075	910058	keystroke	i	n/a
455.209	0.105	910418	keystroke	c	n/a
455.329	0.06	910658	keystroke	i	n/a
455.4495	0.075	910899	keystroke	a	n/a
455.5995	0.0745	911199	keystroke	n	n/a
455.794	0.09	911588	keystroke	Key.enter	n/a
455.889	7.167	911778	prompt	n/a	average budapest steal essay\n
456.709	0.12	913418	keystroke	a	n/a
456.994	0.1205	913988	keystroke	v	n/a
457.0995	0.09	914199	keystroke	e	n/a
457.2645	0.15	914529	keystroke	r	n/a
457.4295	0.15	914859	keystroke	a	n/a
457.5945	0.135	915189	keystroke	g	n/a
457.6845	0.09	915369	keystroke	e	n/a
458.134	0.06	916268	keystroke	Key.space	n/a
459.0495	0.075	918099	keystroke	b	n/a
459.1695	0.075	918339	keystroke	u	n/a
459.3345	0.12	918669	keystroke	d	n/a
459.4545	0.0895	918909	keystroke	a	n/a
459.664	0.06	919328	keystroke	p	n/a
459.754	0.075	919508	keystroke	e	n/a
459.994	0.12	919988	keystroke	s	n/a
460.084	0.075	920168	keystroke	t	n/a
460.399	0.075	920798	keystroke	Key.space	n/a
460.654	0.09	921308	keystroke	s	n/a
460.834	0.18	921668	keystroke	t	n/a
460.969	0.12	921938	keystroke	e	n/a
461.209	0.09	922418	keystroke	a	n/a
461.359	0.06	922718	keystroke	l	n/a
461.674	0.075	923348	keystroke	Key.space	n/a
461.9745	0.075	923949	keystroke	e	n/a
462.1995	0.09	924399	keystroke	s	n/a
462.4095	0.06	924819	keystroke	s	n/a
462.5745	0.09	925149	keystroke	a	n/a
462.7395	0.075	925479	keystroke	y	n/a
462.9645	0.09	925929	keystroke	Key.enter	n/a
463.059	7.467	926118	prompt	n/a	wallace instructions quest allied\n
464.2845	0.105	928569	keystroke	w	n/a
464.4645	0.105	928929	keystroke	a	n/a
464.6295	0.0605	929259	keystroke	l	n/a
464.765	0.075	929530	keystroke	l	n/a
464.825	0.105	929650	keystroke	a	n/a
465.05	0.18	930100	keystroke	c	n/a
465.185	0.09	930370	keystroke	e	n/a
465.425	0.075	930850	keystroke	Key.space	n/a
465.71	0.15	931420	keystroke	i	n/a
465.8	0.075	931600	keystroke	n	n/a
465.95	0.105	931900	keystroke	s	n/a
466.1745	0.12	932349	keystroke	t	n/a
466.2345	0.105	932469	keystroke	r	n/a
466.3695	0.075	932739	keystroke	u	n/a
466.5795	0.09	933159	keystroke	c	n/a
466.8195	0.09	933639	keystroke	t	n/a
466.8945	0.105	933789	keystroke	i	n/a
466.9545	0.105	933909	keystroke	o	n/a
467.1495	0.09	934299	keystroke	n	n/a
467.3745	0.06	934749	keystroke	s	n/a
467.5545	0.075	935109	keystroke	Key.space	n/a
468.02	0.09	936040	keystroke	q	n/a
468.2	0.09	936400	keystroke	u	n/a
468.395	0.0745	936790	keystroke	e	n/a
468.6345	0.15	937269	keystroke	s	n/a
468.7395	0.09	937479	keystroke	t	n/a
469.279	0.075	938558	keystroke	Key.space	n/a
469.58	0.059	939160	keystroke	a	n/a
469.685	0.06	939370	keystroke	l	n/a
469.804	0.09	939608	keystroke	l	n/a
469.984	0.09	939968	keystroke	i	n/a
470.104	0.075	940208	keystroke	e	n/a
470.2845	0.105	940569	keystroke	d	n/a
470.4345	0.09	940869	keystroke	Key.enter	n/a
470.529	6.672	941058	prompt	n/a	crack individual councils gone\n
471.3795	0.06	942759	keystroke	c	n/a
471.5595	0.135	943119	keystroke	r	n/a
471.6495	0.1055	943299	keystroke	a	n/a
471.9045	0.09	943809	keystroke	c	n/a
472.024	0.06	944048	keystroke	k	n/a
472.444	0.0755	944888	keystroke	Key.space	n/a
472.7295	0.12	945459	keystroke	i	n/a
472.8045	0.06	945609	keystroke	n	n/a
473.1195	0.075	946239	keystroke	d	n/a
473.2095	0.09	946419	keystroke	i	n/a
473.449	0.045	946898	keystroke	v	n/a
473.539	0.06	947078	keystroke	i	n/a
473.764	0.0755	947528	keystroke	d	n/a
473.8995	0.075	947799	keystroke	u	n/a
474.0645	0.075	948129	keystroke	a	n/a
474.2445	0.075	948489	keystroke	l	n/a
474.6345	0.09	949269	keystroke	Key.space	n/a
475.1445	0.06	950289	keystroke	c	n/a
475.1895	0.135	950379	keystroke	o	n/a
475.2795	0.06	950559	keystroke	u	n/a
475.4445	0.075	950889	keystroke	n	n/a
475.5645	0.135	951129	keystroke	c	n/a
475.744	0.03	951488	keystroke	i	n/a
475.8795	0.075	951759	keystroke	l	n/a
476.0745	0.06	952149	keystroke	s	n/a
476.2395	0.075	952479	keystroke	Key.space	n/a
476.524	0.09	953048	keystroke	g	n/a
476.599	0.12	953198	keystroke	o	n/a
476.689	0.06	953378	keystroke	n	n/a
476.869	0.0455	953738	keystroke	e	n/a
477.1095	0.09	954219	keystroke	Key.enter	n/a
477.204	8.487	954408	prompt	n/a	reserve terrorism guided programme\n
478.0995	0.135	956199	keystroke	r	n/a
478.1895	0.105	956379	keystroke	e	n/a
478.6545	0.105	957309	keystroke	v	n/a
478.7745	0.165	957549	keystroke	e	n/a
478.8795	0.09	957759	keystroke	r	n/a
479.0595	0.12	958119	keystroke	s	n/a
479.1195	0.09	958239	keystroke	e	n/a
479.6595	0.06	959319	keystroke	Key.space	n/a
480.0945	0.1045	960189	keystroke	t	n/a
480.29	0.089	960580	keystroke	e	n/a
480.469	0.075	960938	keystroke	r	n/a
480.619	0.075	961238	keystroke	r	n/a
480.71	0.059	961420	keystroke	o	n/a
481.039	0.06	962078	keystroke	r	n/a
481.144	0.06	962288	keystroke	i	n/a
481.504	0.06	963008	keystroke	s	n/a
481.819	0.0605	963638	keystroke	m	n/a
482.2245	0.075	964449	keystroke	Key.space	n/a
482.6445	0.075	965289	keystroke	g	n/a
482.7645	0.075	965529	keystroke	u	n/a
482.8095	0.09	965619	keystroke	i	n/a
483.0045	0.135	966009	keystroke	d	n/a
483.0945	0.105	966189	keystroke	e	n/a
483.3495	0.075	966699	keystroke	d	n/a
483.634	0.075	967268	keystroke	Key.space	n/a
483.904	0.06	967808	keystroke	p	n/a
484.039	0.06	968078	keystroke	r	n/a
484.159	0.06	968318	keystroke	o	n/a
484.624	0.21	969248	keystroke	g	n/a
484.759	0.135	969518	keystroke	r	n/a
485.014	0.09	970028	keystroke	a	n/a
485.149	0.075	970298	keystroke	m	n/a
485.284	0.075	970568	keystroke	m	n/a
485.404	0.09	970808	keystroke	e	n/a
485.599	0.09	971198	keystroke	Key.enter	n/a
485.694	6.222	971388	prompt	n/a	assure areas wings archives\n
486.394	0.1655	972788	keystroke	a	n/a
486.5445	0.09	973089	keystroke	s	n/a
486.7095	0.105	973419	keystroke	s	n/a
486.7995	0.075	973599	keystroke	u	n/a
486.9795	0.15	973959	keystroke	r	n/a
487.0845	0.06	974169	keystroke	e	n/a
487.399	0.09	974798	keystroke	Key.space	n/a
487.789	0.12	975578	keystroke	a	n/a
487.954	0.165	975908	keystroke	r	n/a
488.044	0.105	976088	keystroke	e	n/a
488.134	0.135	976268	keystroke	a	n/a
488.344	0.105	976688	keystroke	s	n/a
488.659	0.09	977318	keystroke	Key.space	n/a
489.1995	0.075	978399	keystroke	w	n/a
489.2895	0.12	978579	keystroke	i	n/a
489.3795	0.105	978759	keystroke	n	n/a
489.5145	0.105	979029	keystroke	g	n/a
489.7545	0.09	979509	keystroke	s	n/a
490.069	0.075	980138	keystroke	Key.space	n/a
490.55	0.164	981100	keystroke	a	n/a
490.669	0.09	981338	keystroke	r	n/a
490.894	0.09	981788	keystroke	c	n/a
490.97	0.059	981940	keystroke	h	n/a
491.119	0.075	982238	keystroke	i	n/a
491.314	0.12	982628	keystroke	v	n/a
491.389	0.12	982778	keystroke	e	n/a
491.584	0.09	983168	keystroke	s	n/a
491.824	0.09	983648	keystroke	Key.enter	n/a
491.9185	8.2475	983837	prompt	n/a	cheers conversation seas tips\n
492.6795	0.105	985359	keystroke	c	n/a
492.7995	0.045	985599	keystroke	h	n/a
493.2045	0.06	986409	keystroke	e	n/a
493.3395	0.165	986679	keystroke	e	n/a
493.4895	0.09	986979	keystroke	r	n/a
493.7295	0.06	987459	keystroke	s	n/a
493.9095	0.075	987819	keystroke	Key.space	n/a
494.1795	0.09	988359	keystroke	c	n/a
494.2545	0.12	988509	keystroke	o	n/a
494.3295	0.06	988659	keystroke	n	n/a
494.4495	0.06	988899	keystroke	v	n/a
494.7795	0.075	989559	keystroke	Key.backspace	n/a
495.2745	0.09	990549	keystroke	e	n/a
495.6195	0.09	991239	keystroke	Key.backspace	n/a
495.7395	0.1045	991479	keystroke	e	n/a
495.7995	0.1045	991599	keystroke	r	n/a
496.294	0.075	992588	keystroke	Key.backspace	n/a
496.429	0.075	992858	keystroke	Key.backspace	n/a
496.519	0.135	993038	keystroke	s	n/a
496.609	0.075	993218	keystroke	e	n/a
496.774	0.0905	993548	keystroke	r	n/a
497.0145	0.12	994029	keystroke	v	n/a
497.1495	0.1045	994299	keystroke	a	n/a
497.284	0.09	994568	keystroke	t	n/a
497.434	0.09	994868	keystroke	i	n/a
497.464	0.09	994928	keystroke	o	n/a
497.629	0.105	995258	keystroke	n	n/a
498.11	0.09	996220	keystroke	Key.space	n/a
498.275	0.15	996550	keystroke	s	n/a
498.395	0.105	996790	keystroke	e	n/a
498.56	0.15	997120	keystroke	a	n/a
498.68	0.105	997360	keystroke	s	n/a
498.965	0.09	997930	keystroke	Key.space	n/a
499.4	0.09	998800	keystroke	t	n/a
499.52	0.045	999040	keystroke	i	n/a
499.7	0.045	999400	keystroke	p	n/a
499.834	0.075	999668	keystroke	s	n/a
500.104	0.06	1000208	keystroke	Key.enter	n/a
500.1685	5.8475	1000337	prompt	n/a	gets you furnished trainers\n
501.064	0.135	1002128	keystroke	g	n/a
501.214	0.136	1002428	keystroke	e	n/a
501.335	0.119	1002670	keystroke	t	n/a
501.574	0.09	1003148	keystroke	s	n/a
501.919	0.105	1003838	keystroke	Key.space	n/a
502.279	0.075	1004558	keystroke	y	n/a
502.369	0.09	1004738	keystroke	o	n/a
502.414	0.0605	1004828	keystroke	u	n/a
502.6545	0.09	1005309	keystroke	Key.space	n/a
503.0145	0.03	1006029	keystroke	f	n/a
503.0895	0.075	1006179	keystroke	u	n/a
503.1795	0.06	1006359	keystroke	r	n/a
503.3595	0.105	1006719	keystroke	n	n/a
503.4345	0.06	1006869	keystroke	i	n/a
503.6295	0.09	1007259	keystroke	s	n/a
503.7345	0.09	1007469	keystroke	h	n/a
503.8395	0.045	1007679	keystroke	e	n/a
504.0045	0.075	1008009	keystroke	d	n/a
504.1995	0.09	1008399	keystroke	Key.space	n/a
504.5595	0.1805	1009119	keystroke	t	n/a
504.6795	0.0455	1009359	keystroke	r	n/a
504.785	0.12	1009570	keystroke	a	n/a
505.04	0.12	1010080	keystroke	i	n/a
505.325	0.06	1010650	keystroke	n	n/a
505.52	0.105	1011040	keystroke	e	n/a
505.595	0.105	1011190	keystroke	r	n/a
505.79	0.075	1011580	keystroke	s	n/a
505.925	0.089	1011850	keystroke	Key.enter	n/a
506.019	5.682	1012038	prompt	n/a	herself think rich break\n
506.9	0.075	1013800	keystroke	h	n/a
507.005	0.105	1014010	keystroke	e	n/a
507.065	0.075	1014130	keystroke	r	n/a
507.26	0.089	1014520	keystroke	s	n/a
507.304	0.075	1014608	keystroke	e	n/a
507.439	0.076	1014878	keystroke	l	n/a
507.605	0.044	1015210	keystroke	f	n/a
507.919	0.09	1015838	keystroke	Key.space	n/a
508.1745	0.075	1016349	keystroke	t	n/a
508.3095	0.075	1016619	keystroke	h	n/a
508.4295	0.165	1016859	keystroke	i	n/a
508.5345	0.15	1017069	keystroke	n	n/a
508.6545	0.09	1017309	keystroke	k	n/a
509.1645	0.12	1018329	keystroke	Key.space	n/a
509.5095	0.075	1019019	keystroke	r	n/a
509.5995	0.075	1019199	keystroke	i	n/a
510.0045	0.09	1020009	keystroke	c	n/a
510.1695	0.045	1020339	keystroke	h	n/a
510.5145	0.075	1021029	keystroke	Key.space	n/a
510.9795	0.075	1021959	keystroke	b	n/a
511.0395	0.21	1022079	keystroke	r	n/a
511.1445	0.135	1022289	keystroke	e	n/a
511.219	0.1055	1022438	keystroke	a	n/a
511.3995	0.075	1022799	keystroke	k	n/a
511.5945	0.105	1023189	keystroke	Key.enter	n/a
511.7035	13.1525	1023407	prompt	n/a	supervision privilege skill buttons\n
513.005	0.075	1026010	keystroke	a	n/a
513.095	0.06	1026190	keystroke	u	n/a
513.275	0.045	1026550	keystroke	p	n/a
513.35	0.09	1026700	keystroke	w	n/a
513.755	0.015	1027510	keystroke	v	n/a
513.785	0.015	1027570	keystroke	i	n/a
513.905	0.06	1027810	keystroke	s	n/a
514.01	0.09	1028020	keystroke	i	n/a
514.055	0.104	1028110	keystroke	o	n/a
514.234	0.09	1028468	keystroke	n	n/a
515.494	0.06	1030988	keystroke	Key.backspace	n/a
515.674	0.045	1031348	keystroke	Key.backspace	n/a
515.824	0.06	1031648	keystroke	Key.backspace	n/a
515.959	0.06	1031918	keystroke	Key.backspace	n/a
516.094	0.06	1032188	keystroke	Key.backspace	n/a
516.229	0.045	1032458	keystroke	Key.backspace	n/a
516.334	0.045	1032668	keystroke	Key.backspace	n/a
516.454	0.045	1032908	keystroke	Key.backspace	n/a
516.589	0.03	1033178	keystroke	Key.backspace	n/a
516.724	0.03	1033448	keystroke	Key.backspace	n/a
516.934	0.045	1033868	keystroke	Key.backspace	n/a
517.3545	0.075	1034709	keystroke	s	n/a
517.4595	0.06	1034919	keystroke	u	n/a
517.6995	0.06	1035399	keystroke	p	n/a
517.8045	0.09	1035609	keystroke	e	n/a
517.8645	0.06	1035729	keystroke	r	n/a
518.0445	0.09	1036089	keystroke	v	n/a
518.1495	0.075	1036299	keystroke	i	n/a
518.3145	0.09	1036629	keystroke	s	n/a
518.4195	0.105	1036839	keystroke	i	n/a
518.4645	0.105	1036929	keystroke	o	n/a
518.6595	0.09	1037319	keystroke	n	n/a
519.0195	0.09	1038039	keystroke	Key.space	n/a
519.4845	0.06	1038969	keystroke	r	n/a
519.8295	0.09	1039659	keystroke	Key.backspace	n/a
520.1895	0.075	1040379	keystroke	p	n/a
520.3095	0.06	1040619	keystroke	r	n/a
520.4295	0.105	1040859	keystroke	i	n/a
520.7295	0.06	1041459	keystroke	v	n/a
520.8045	0.075	1041609	keystroke	i	n/a
521.0445	0.06	1042089	keystroke	l	n/a
521.1495	0.09	1042299	keystroke	e	n/a
521.3145	0.135	1042629	keystroke	g	n/a
521.4195	0.105	1042839	keystroke	e	n/a
522.274	0.09	1044548	keystroke	Key.space	n/a
522.5145	0.06	1045029	keystroke	s	n/a
522.5895	0.075	1045179	keystroke	k	n/a
522.7395	0.075	1045479	keystroke	i	n/a
522.9645	0.06	1045929	keystroke	l	n/a
523.0845	0.075	1046169	keystroke	l	n/a
523.4145	0.075	1046829	keystroke	Key.space	n/a
523.9095	0.09	1047819	keystroke	b	n/a
523.9845	0.075	1047969	keystroke	u	n/a
524.1345	0.075	1048269	keystroke	t	n/a
524.2695	0.09	1048539	keystroke	t	n/a
524.3295	0.1345	1048659	keystroke	o	n/a
524.4195	0.0595	1048839	keystroke	n	n/a
524.554	0.106	1049108	keystroke	s	n/a
524.794	0.06	1049588	keystroke	Key.enter	n/a
524.8605	11.4255	1049721	prompt	n/a	alternative mongolia podcasts directly\n
526.025	0.075	1052050	keystroke	a	n/a
526.115	0.075	1052230	keystroke	l	n/a
526.609	0.135	1053218	keystroke	t	n/a
526.714	0.165	1053428	keystroke	e	n/a
526.805	0.104	1053610	keystroke	r	n/a
527.014	0.061	1054028	keystroke	n	n/a
527.119	0.105	1054238	keystroke	a	n/a
527.284	0.075	1054568	keystroke	t	n/a
527.375	0.059	1054750	keystroke	i	n/a
527.509	0.165	1055018	keystroke	v	n/a
527.614	0.135	1055228	keystroke	e	n/a
528.169	0.075	1056338	keystroke	Key.space	n/a
528.5595	0.03	1057119	keystroke	n	n/a
528.9345	0.06	1057869	keystroke	Key.backspace	n/a
529.1745	0.075	1058349	keystroke	m	n/a
529.3395	0.105	1058679	keystroke	o	n/a
529.5045	0.075	1059009	keystroke	n	n/a
530.09	0.075	1060180	keystroke	g	n/a
530.135	0.059	1060270	keystroke	o	n/a
530.3595	0.045	1060719	keystroke	l	n/a
530.5095	0.075	1061019	keystroke	i	n/a
530.645	0.09	1061290	keystroke	a	n/a
531.184	0.075	1062368	keystroke	Key.space	n/a
531.5295	0.06	1063059	keystroke	p	n/a
531.6945	0.075	1063389	keystroke	d	n/a
532.3995	0.075	1064799	keystroke	Key.backspace	n/a
532.6995	0.075	1065399	keystroke	o	n/a
532.8195	0.06	1065639	keystroke	d	n/a
533.0445	0.12	1066089	keystroke	c	n/a
533.2245	0.195	1066449	keystroke	a	n/a
533.4345	0.135	1066869	keystroke	s	n/a
534.3045	0.12	1068609	keystroke	t	n/a
534.5895	0.09	1069179	keystroke	s	n/a
534.785	0.09	1069570	keystroke	Key.space	n/a
534.95	0.075	1069900	keystroke	d	n/a
535.04	0.06	1070080	keystroke	i	n/a
535.175	0.105	1070350	keystroke	r	n/a
535.25	0.105	1070500	keystroke	e	n/a
535.415	0.09	1070830	keystroke	c	n/a
535.625	0.06	1071250	keystroke	t	n/a
535.715	0.075	1071430	keystroke	l	n/a
535.9245	0.06	1071849	keystroke	y	n/a
536.1945	0.0895	1072389	keystroke	Key.enter	n/a
536.2885	7.6325	1072577	prompt	n/a	business health mens who'd\n
537.454	0.135	1074908	keystroke	b	n/a
537.544	0.075	1075088	keystroke	u	n/a
537.739	0.075	1075478	keystroke	s	n/a
537.815	0.0595	1075630	keystroke	i	n/a
537.9945	0.0895	1075989	keystroke	n	n/a
538.099	0.09	1076198	keystroke	e	n/a
538.339	0.06	1076678	keystroke	s	n/a
538.474	0.06	1076948	keystroke	s	n/a
538.699	0.075	1077398	keystroke	Key.space	n/a
538.9395	0.075	1077879	keystroke	h	n/a
539.0295	0.135	1078059	keystroke	e	n/a
539.1195	0.09	1078239	keystroke	a	n/a
539.2395	0.06	1078479	keystroke	l	n/a
539.5245	0.075	1079049	keystroke	t	n/a
539.6895	0.075	1079379	keystroke	h	n/a
540.574	0.075	1081148	keystroke	Key.space	n/a
540.889	0.06	1081778	keystroke	m	n/a
541.04	0.0595	1082080	keystroke	e	n/a
541.1595	0.075	1082319	keystroke	n	n/a
541.369	0.075	1082738	keystroke	s	n/a
541.564	0.09	1083128	keystroke	Key.space	n/a
541.789	0.09	1083578	keystroke	w	n/a
541.924	0.06	1083848	keystroke	o	n/a
542.284	0.045	1084568	keystroke	Key.backspace	n/a
542.509	0.075	1085018	keystroke	h	n/a
542.599	0.045	1085198	keystroke	o	n/a
543.109	0.06	1086218	keystroke	'	n/a
543.274	0.075	1086548	keystroke	d	n/a
543.814	0.105	1087628	keystroke	Key.enter	n/a
543.9235	10.737	1087847	prompt	n/a	excel pipe hello subjects\n
545.029	0.09	1090058	keystroke	e	n/a
545.569	0.1055	1091138	keystroke	x	n/a
545.8095	0.135	1091619	keystroke	c	n/a
545.929	0.075	1091858	keystroke	e	n/a
546.034	0.061	1092068	keystroke	l	n/a
546.649	0.075	1093298	keystroke	Key.space	n/a
547.0845	0.105	1094169	keystroke	p	n/a
547.2645	0.06	1094529	keystroke	i	n/a
547.4145	0.09	1094829	keystroke	p	n/a
547.5645	0.075	1095129	keystroke	e	n/a
547.8645	0.075	1095729	keystroke	Key.space	n/a
548.2545	0.06	1096509	keystroke	j	n/a
548.5995	0.075	1097199	keystroke	Key.backspace	n/a
548.7495	0.09	1097499	keystroke	g	n/a
548.9745	0.09	1097949	keystroke	e	n/a
549.1245	0.06	1098249	keystroke	l	n/a
549.2595	0.06	1098519	keystroke	l	n/a
549.4545	0.06	1098909	keystroke	Key.backspace	n/a
549.7095	0.045	1099419	keystroke	Key.backspace	n/a
549.8895	0.075	1099779	keystroke	Key.backspace	n/a
550.0545	0.12	1100109	keystroke	Key.backspace	n/a
550.5195	0.06	1101039	keystroke	h	n/a
550.6545	0.075	1101309	keystroke	e	n/a
550.7595	0.06	1101519	keystroke	l	n/a
550.8945	0.075	1101789	keystroke	l	n/a
551.0445	0.0745	1102089	keystroke	o	n/a
551.404	0.105	1102808	keystroke	Key.space	n/a
551.764	0.09	1103528	keystroke	s	n/a
551.869	0.06	1103738	keystroke	u	n/a
552.124	0.075	1104248	keystroke	b	n/a
552.454	0.0755	1104908	keystroke	j	n/a
552.5895	0.15	1105179	keystroke	e	n/a
552.8595	0.075	1105719	keystroke	t	n/a
553.099	0.06	1106198	keystroke	s	n/a
553.789	0.0905	1107578	keystroke	Key.backspace	n/a
553.8945	0.075	1107789	keystroke	Key.backspace	n/a
553.9995	0.075	1107999	keystroke	c	n/a
554.1795	0.09	1108359	keystroke	t	n/a
554.3745	0.09	1108749	keystroke	s	n/a
554.554	0.105	1109108	keystroke	Key.enter	n/a
554.6635	8.788	1109327	prompt	n/a	emotional scenic collecting sitemap\n
555.5295	0.06	1111059	keystroke	e	n/a
555.6345	0.105	1111269	keystroke	m	n/a
555.7845	0.075	1111569	keystroke	o	n/a
555.9795	0.09	1111959	keystroke	t	n/a
556.0395	0.09	1112079	keystroke	i	n/a
556.1145	0.06	1112229	keystroke	o	n/a
556.2345	0.09	1112469	keystroke	n	n/a
556.3695	0.09	1112739	keystroke	a	n/a
556.5045	0.06	1113009	keystroke	l	n/a
556.8935	0.075	1113787	keystroke	Key.space	n/a
557.2095	0.12	1114419	keystroke	s	n/a
557.2985	0.09	1114597	keystroke	c	n/a
557.6145	0.0895	1115229	keystroke	e	n/a
557.7945	0.1495	1115589	keystroke	n	n/a
557.914	0.091	1115828	keystroke	i	n/a
558.529	0.09	1117058	keystroke	c	n/a
558.8595	0.075	1117719	keystroke	Key.space	n/a
559.4145	0.105	1118829	keystroke	c	n/a
559.5645	0.015	1119129	keystroke	o	n/a
559.6545	0.045	1119309	keystroke	l	n/a
559.7745	0.06	1119549	keystroke	l	n/a
559.8945	0.135	1119789	keystroke	e	n/a
559.9995	0.105	1119999	keystroke	c	n/a
560.2395	0.0595	1120479	keystroke	t	n/a
560.3445	0.1045	1120689	keystroke	i	n/a
560.4195	0.0595	1120839	keystroke	n	n/a
560.525	0.074	1121050	keystroke	g	n/a
560.9895	0.0295	1121979	keystroke	Key.space	n/a
561.214	0.09	1122428	keystroke	s	n/a
561.3495	0.165	1122699	keystroke	t	n/a
561.4695	0.105	1122939	keystroke	e	n/a
561.5445	0.075	1123089	keystroke	i	n/a
562.0245	0.03	1124049	keystroke	Key.backspace	n/a
562.1295	0.045	1124259	keystroke	Key.backspace	n/a
562.2195	0.075	1124439	keystroke	Key.backspace	n/a
562.519	0.06	1125038	keystroke	i	n/a
562.609	0.12	1125218	keystroke	t	n/a
562.684	0.09	1125368	keystroke	e	n/a
562.879	0.06	1125758	keystroke	m	n/a
562.969	0.075	1125938	keystroke	a	n/a
563.104	0.075	1126208	keystroke	p	n/a
563.389	0.06	1126778	keystroke	Key.enter	n/a
563.4545	7.062	1126909	prompt	n/a	achievement descending make mistake\n
564.394	0.0905	1128788	keystroke	a	n/a
564.5445	0.105	1129089	keystroke	c	n/a
564.7395	0.06	1129479	keystroke	h	n/a
564.889	0.075	1129778	keystroke	e	n/a
564.979	0.06	1129958	keystroke	i	n/a
565.189	0.15	1130378	keystroke	v	n/a
565.324	0.075	1130648	keystroke	e	n/a
565.489	0.06	1130978	keystroke	m	n/a
565.639	0.06	1131278	keystroke	e	n/a
565.729	0.06	1131458	keystroke	n	n/a
565.834	0.06	1131668	keystroke	t	n/a
566.254	0.075	1132508	keystroke	Key.space	n/a
566.584	0.1355	1133168	keystroke	d	n/a
566.674	0.1205	1133348	keystroke	e	n/a
566.915	0.09	1133830	keystroke	s	n/a
567.08	0.135	1134160	keystroke	c	n/a
567.185	0.09	1134370	keystroke	e	n/a
567.334	0.076	1134668	keystroke	n	n/a
567.4245	0.105	1134849	keystroke	d	n/a
567.5595	0.105	1135119	keystroke	i	n/a
567.6495	0.06	1135299	keystroke	n	n/a
567.7545	0.09	1135509	keystroke	g	n/a
568.2345	0.075	1136469	keystroke	Key.space	n/a
568.4895	0.075	1136979	keystroke	m	n/a
568.5945	0.075	1137189	keystroke	a	n/a
568.6845	0.06	1137369	keystroke	k	n/a
568.819	0.0605	1137638	keystroke	e	n/a
569.2245	0.075	1138449	keystroke	Key.space	n/a
569.4795	0.135	1138959	keystroke	m	n/a
569.5545	0.075	1139109	keystroke	i	n/a
569.6445	0.165	1139289	keystroke	s	n/a
569.7795	0.105	1139559	keystroke	t	n/a
569.8245	0.12	1139649	keystroke	a	n/a
570.0345	0.06	1140069	keystroke	k	n/a
570.4245	0.09	1140849	keystroke	Key.enter	n/a
570.5195	11.0215	1141039	prompt	n/a	acquisition totals pour publication\n
571.324	0.15	1142648	keystroke	a	n/a
571.504	0.0755	1143008	keystroke	c	n/a
571.7745	0.075	1143549	keystroke	t	n/a
572.2235	0.075	1144447	keystroke	Key.backspace	n/a
572.5235	0.045	1145047	keystroke	q	n/a
572.6285	0.106	1145257	keystroke	u	n/a
572.6885	0.09	1145377	keystroke	i	n/a
573.409	0.091	1146818	keystroke	s	n/a
573.515	0.059	1147030	keystroke	i	n/a
573.6635	0.09	1147327	keystroke	t	n/a
573.7835	0.121	1147567	keystroke	i	n/a
573.7995	0.12	1147599	keystroke	o	n/a
574.0085	0.09	1148017	keystroke	n	n/a
574.5635	0.075	1149127	keystroke	Key.space	n/a
574.9245	0.075	1149849	keystroke	t	n/a
575.044	0.0145	1150088	keystroke	o	n/a
575.1045	0.149	1150209	keystroke	t	n/a
575.2245	0.06	1150449	keystroke	a	n/a
575.3285	0.06	1150657	keystroke	l	n/a
575.5385	0.0915	1151077	keystroke	s	n/a
575.959	0.075	1151918	keystroke	Key.space	n/a
576.2595	0.105	1152519	keystroke	p	n/a
576.529	0.045	1153058	keystroke	u	n/a
577.264	0.06	1154528	keystroke	Key.backspace	n/a
577.535	0.074	1155070	keystroke	o	n/a
577.7	0.074	1155400	keystroke	u	n/a
577.849	0.015	1155698	keystroke	t	n/a
578.149	0.06	1156298	keystroke	Key.backspace	n/a
578.224	0.09	1156448	keystroke	r	n/a
578.734	0.06	1157468	keystroke	Key.space	n/a
579.094	0.091	1158188	keystroke	p	n/a
579.289	0.075	1158578	keystroke	u	n/a
579.5735	0.075	1159147	keystroke	b	n/a
579.7085	0.061	1159417	keystroke	l	n/a
579.8885	0.075	1159777	keystroke	i	n/a
580.2495	0.135	1160499	keystroke	c	n/a
580.4445	0.09	1160889	keystroke	a	n/a
580.6545	0.0895	1161309	keystroke	t	n/a
580.7145	0.1045	1161429	keystroke	i	n/a
580.774	0.09	1161548	keystroke	o	n/a
580.939	0.09	1161878	keystroke	n	n/a
581.4495	0.09	1162899	keystroke	Key.enter	n/a
581.544	7.557	1163088	prompt	n/a	fitting economic termination joshua\n
582.4695	0.075	1164939	keystroke	f	n/a
582.6045	0.075	1165209	keystroke	i	n/a
582.8145	0.075	1165629	keystroke	t	n/a
582.9645	0.09	1165929	keystroke	t	n/a
583.0995	0.105	1166199	keystroke	i	n/a
583.1595	0.075	1166319	keystroke	n	n/a
583.2945	0.06	1166589	keystroke	g	n/a
583.4595	0.09	1166919	keystroke	Key.space	n/a
583.6845	0.105	1167369	keystroke	e	n/a
583.8795	0.105	1167759	keystroke	c	n/a
584.0445	0.075	1168089	keystroke	o	n/a
584.2695	0.105	1168539	keystroke	n	n/a
584.4045	0.09	1168809	keystroke	o	n/a
584.5995	0.135	1169199	keystroke	m	n/a
584.7045	0.09	1169409	keystroke	i	n/a
584.8245	0.06	1169649	keystroke	c	n/a
585.2595	0.09	1170519	keystroke	Key.space	n/a
585.6045	0.12	1171209	keystroke	t	n/a
585.7395	0.165	1171479	keystroke	e	n/a
585.8745	0.1045	1171749	keystroke	r	n/a
586.054	0.1505	1172108	keystroke	m	n/a
586.174	0.0905	1172348	keystroke	i	n/a
586.5045	0.075	1173009	keystroke	n	n/a
586.6395	0.105	1173279	keystroke	a	n/a
586.8495	0.06	1173699	keystroke	t	n/a
586.9245	0.12	1173849	keystroke	i	n/a
586.9995	0.09	1173999	keystroke	o	n/a
587.1795	0.075	1174359	keystroke	n	n/a
587.5245	0.06	1175049	keystroke	Key.space	n/a
588.019	0.075	1176038	keystroke	j	n/a
588.064	0.09	1176128	keystroke	o	n/a
588.349	0.09	1176698	keystroke	s	n/a
588.394	0.1205	1176788	keystroke	h	n/a
588.5285	0.106	1177057	keystroke	u	n/a
588.6935	0.091	1177387	keystroke	a	n/a
589.0235	0.075	1178047	keystroke	Key.enter	n/a
589.1035	9.762	1178207	prompt	n/a	meditation standing clan receptor\n
589.894	0.075	1179788	keystroke	m	n/a
590.089	0.105	1180178	keystroke	e	n/a
590.314	0.105	1180628	keystroke	d	n/a
590.449	0.075	1180898	keystroke	i	n/a
590.6295	0.105	1181259	keystroke	t	n/a
590.7645	0.075	1181529	keystroke	a	n/a
590.8995	0.105	1181799	keystroke	t	n/a
591.0195	0.0895	1182039	keystroke	i	n/a
591.064	0.105	1182128	keystroke	o	n/a
591.274	0.075	1182548	keystroke	n	n/a
592.5035	0.045	1185007	keystroke	Key.space	n/a
592.8795	0.135	1185759	keystroke	s	n/a
592.9545	0.09	1185909	keystroke	t	n/a
593.0155	0.119	1186031	keystroke	a	n/a
593.1495	0.06	1186299	keystroke	n	n/a
593.2395	0.0905	1186479	keystroke	d	n/a
593.345	0.075	1186690	keystroke	i	n/a
593.39	0.074	1186780	keystroke	n	n/a
593.525	0.074	1187050	keystroke	g	n/a
594.0945	0.075	1188189	keystroke	Key.space	n/a
594.3195	0.09	1188639	keystroke	c	n/a
594.4395	0.0445	1188879	keystroke	l	n/a
594.529	0.06	1189058	keystroke	a	n/a
594.649	0.0755	1189298	keystroke	n	n/a
594.9945	0.06	1189989	keystroke	Key.space	n/a
595.4295	0.12	1190859	keystroke	r	n/a
595.5345	0.105	1191069	keystroke	e	n/a
595.7895	0.1045	1191579	keystroke	e	n/a
595.954	0.015	1191908	keystroke	p	n/a
597.0495	0.045	1194099	keystroke	Key.backspace	n/a
597.1845	0.06	1194369	keystroke	Key.backspace	n/a
597.2595	0.15	1194519	keystroke	c	n/a
597.3795	0.0745	1194759	keystroke	e	n/a
597.469	0.03	1194938	keystroke	p	n/a
598.279	0.03	1196558	keystroke	t	n/a
598.399	0.045	1196798	keystroke	o	n/a
598.6095	0.06	1197219	keystroke	r	n/a
598.789	0.075	1197578	keystroke	Key.enter	n/a
598.869	6.1615	1197738	prompt	n/a	inner throw maximize surge\n
599.6745	0.06	1199349	keystroke	i	n/a
599.8695	0.045	1199739	keystroke	n	n/a
599.9895	0.06	1199979	keystroke	n	n/a
600.0945	0.12	1200189	keystroke	e	n/a
600.1695	0.09	1200339	keystroke	r	n/a
600.3195	0.075	1200639	keystroke	Key.space	n/a
600.694	0.09	1201388	keystroke	t	n/a
600.829	0.06	1201658	keystroke	h	n/a
600.934	0.09	1201868	keystroke	r	n/a
601.069	0.06	1202138	keystroke	o	n/a
601.219	0.06	1202438	keystroke	w	n/a
601.6845	0.075	1203369	keystroke	Key.space	n/a
601.9095	0.06	1203819	keystroke	m	n/a
602.0445	0.015	1204089	keystroke	a	n/a
602.3595	0.045	1204719	keystroke	x	n/a
602.4345	0.0745	1204869	keystroke	i	n/a
602.644	0.135	1205288	keystroke	m	n/a
602.719	0.121	1205438	keystroke	i	n/a
603.034	0.12	1206068	keystroke	z	n/a
603.124	0.105	1206248	keystroke	e	n/a
603.769	0.045	1207538	keystroke	Key.space	n/a
604.189	0.075	1208378	keystroke	s	n/a
604.324	0.075	1208648	keystroke	u	n/a
604.429	0.076	1208858	keystroke	r	n/a
604.624	0.135	1209248	keystroke	g	n/a
604.715	0.12	1209430	keystroke	e	n/a
604.954	0.075	1209908	keystroke	Key.enter	n/a
605.034	7.4965	1210068	prompt	n/a	capabilities jokes each observed\n
605.9	0.104	1211800	keystroke	c	n/a
605.959	0.091	1211918	keystroke	a	n/a
606.094	0.06	1212188	keystroke	p	n/a
606.214	0.076	1212428	keystroke	a	n/a
606.695	0.029	1213390	keystroke	b	n/a
606.829	0.075	1213658	keystroke	i	n/a
607.054	0.09	1214108	keystroke	l	n/a
607.114	0.075	1214228	keystroke	i	n/a
607.354	0.061	1214708	keystroke	t	n/a
607.474	0.075	1214948	keystroke	i	n/a
607.609	0.09	1215218	keystroke	e	n/a
607.819	0.075	1215638	keystroke	s	n/a
608.1945	0.09	1216389	keystroke	Key.space	n/a
608.6295	0.105	1217259	keystroke	j	n/a
608.7355	0.104	1217471	keystroke	o	n/a
608.8845	0.09	1217769	keystroke	k	n/a
609.0345	0.075	1218069	keystroke	e	n/a
609.2445	0.075	1218489	keystroke	s	n/a
609.5445	0.075	1219089	keystroke	Key.space	n/a
609.889	0.12	1219778	keystroke	e	n/a
610.069	0.135	1220138	keystroke	a	n/a
610.159	0.12	1220318	keystroke	c	n/a
610.324	0.075	1220648	keystroke	h	n/a
610.639	0.075	1221278	keystroke	Key.space	n/a
610.879	0.075	1221758	keystroke	o	n/a
611.149	0.06	1222298	keystroke	b	n/a
611.434	0.135	1222868	keystroke	s	n/a
611.524	0.075	1223048	keystroke	e	n/a
611.674	0.09	1223348	keystroke	r	n/a
611.974	0.06	1223948	keystroke	v	n/a
612.079	0.105	1224158	keystroke	e	n/a
612.274	0.105	1224548	keystroke	d	n/a
612.4695	0.06	1224939	keystroke	Key.enter	n/a
612.5335	9.3875	1225067	prompt	n/a	lung religions trader routing\n
613.414	0.075	1226828	keystroke	k	n/a
613.639	0.075	1227278	keystroke	u	n/a
613.954	0.09	1227908	keystroke	n	n/a
614.209	0.045	1228418	keystroke	g	n/a
614.6145	0.06	1229229	keystroke	Key.backspace	n/a
614.7495	0.06	1229499	keystroke	Key.backspace	n/a
614.8695	0.045	1229739	keystroke	Key.backspace	n/a
614.9745	0.075	1229949	keystroke	Key.backspace	n/a
615.514	0.075	1231028	keystroke	l	n/a
615.709	0.075	1231418	keystroke	i	n/a
616.159	0.09	1232318	keystroke	Key.backspace	n/a
616.399	0.06	1232798	keystroke	u	n/a
616.6245	0.075	1233249	keystroke	n	n/a
616.8345	0.09	1233669	keystroke	g	n/a
617.344	0.0895	1234688	keystroke	Key.space	n/a
617.7485	0.1205	1235497	keystroke	r	n/a
617.839	0.105	1235678	keystroke	e	n/a
617.929	0.06	1235858	keystroke	l	n/a
618.109	0.045	1236218	keystroke	i	n/a
618.304	0.09	1236608	keystroke	g	n/a
618.379	0.1055	1236758	keystroke	i	n/a
618.439	0.0755	1236878	keystroke	o	n/a
618.6045	0.09	1237209	keystroke	n	n/a
618.8445	0.075	1237689	keystroke	s	n/a
619.0845	0.075	1238169	keystroke	Key.space	n/a
619.414	0.0755	1238828	keystroke	t	n/a
619.609	0.075	1239218	keystroke	r	n/a
619.699	0.0905	1239398	keystroke	a	n/a
619.864	0.1505	1239728	keystroke	d	n/a
619.969	0.12	1239938	keystroke	e	n/a
620.074	0.09	1240148	keystroke	r	n/a
620.569	0.0755	1241138	keystroke	Key.space	n/a
621.0045	0.075	1242009	keystroke	r	n/a
621.0645	0.105	1242129	keystroke	o	n/a
621.1245	0.075	1242249	keystroke	u	n/a
621.3495	0.075	1242699	keystroke	t	n/a
621.4395	0.09	1242879	keystroke	i	n/a
621.4845	0.06	1242969	keystroke	n	n/a
621.6045	0.075	1243209	keystroke	g	n/a
621.859	0.06	1243718	keystroke	Key.enter	n/a
621.925	10.916	1243850	prompt	n/a	fibre unit recognize broke\n
623.134	0.06	1246268	keystroke	f	n/a
623.224	0.075	1246448	keystroke	i	n/a
623.494	0.075	1246988	keystroke	b	n/a
623.7195	0.15	1247439	keystroke	r	n/a
623.81	0.1045	1247620	keystroke	e	n/a
624.1695	0.075	1248339	keystroke	Key.space	n/a
624.604	0.06	1249208	keystroke	u	n/a
624.7545	0.135	1249509	keystroke	n	n/a
624.8295	0.09	1249659	keystroke	i	n/a
624.9795	0.075	1249959	keystroke	t	n/a
625.444	0.06	1250888	keystroke	Key.space	n/a
626.104	0.12	1252208	keystroke	r	n/a
626.209	0.09	1252418	keystroke	e	n/a
626.434	0.09	1252868	keystroke	c	n/a
626.525	0.059	1253050	keystroke	o	n/a
626.839	0.06	1253678	keystroke	g	n/a
626.989	0.1505	1253978	keystroke	n	n/a
627.0945	0.09	1254189	keystroke	i	n/a
627.3345	0.12	1254669	keystroke	z	n/a
627.5595	0.06	1255119	keystroke	e	n/a
628.0095	0.06	1256019	keystroke	Key.space	n/a
628.7895	0.045	1257579	keystroke	n	n/a
628.8045	0.045	1257609	keystroke	b	n/a
628.9095	0.06	1257819	keystroke	r	n/a
628.9995	0.06	1257999	keystroke	o	n/a
629.1345	0.09	1258269	keystroke	k	n/a
629.2845	0.06	1258569	keystroke	e	n/a
629.8695	0.06	1259739	keystroke	Key.backspace	n/a
629.9895	0.06	1259979	keystroke	Key.backspace	n/a
630.1245	0.03	1260249	keystroke	Key.backspace	n/a
630.3645	0.045	1260729	keystroke	Key.backspace	n/a
630.544	0.09	1261088	keystroke	Key.backspace	n/a
630.829	0.075	1261658	keystroke	Key.backspace	n/a
