onset	duration	sample	value	key	prompt_text
11.3635	0.001	22727	keystroke_Key.enter	Key.enter	n/a
11.4045	13.4155	22809	prompt	n/a	the quick brown fox jumps over a lazy dog\n
12.638	0.1045	25276	keystroke_t	t	n/a
12.773	0.1045	25546	keystroke_h	h	n/a
12.8775	0.09	25755	keystroke_e	e	n/a
13.0875	0.06	26175	keystroke_Key.space	Key.space	n/a
13.3275	0.075	26655	keystroke_q	q	n/a
13.462	0.09	26924	keystroke_u	u	n/a
13.7325	0.0755	27465	keystroke_i	i	n/a
13.8375	0.09	27675	keystroke_c	c	n/a
13.972	0.0905	27944	keystroke_k	k	n/a
14.257	0.0755	28514	keystroke_Key.space	Key.space	n/a
14.932	0.076	29864	keystroke_b	b	n/a
15.1575	0.12	30315	keystroke_r	r	n/a
15.3375	0.15	30675	keystroke_o	o	n/a
15.473	0.1045	30946	keystroke_w	w	n/a
15.7725	0.12	31545	keystroke_d	d	n/a
15.8775	0.1045	31755	keystroke_n	n	n/a
16.1775	0.0895	32355	keystroke_Key.space	Key.space	n/a
16.552	0.075	33104	keystroke_=	=	n/a
16.7315	0.046	33463	keystroke_Key.backspace	Key.backspace	n/a
16.8825	0.09	33765	keystroke_Key.backspace	Key.backspace	n/a
17.0625	0.075	34125	keystroke_Key.backspace	Key.backspace	n/a
17.317	0.1055	34634	keystroke_Key.backspace	Key.backspace	n/a
17.6925	0.0605	35385	keystroke_n	n	n/a
17.903	0.06	35806	keystroke_Key.space	Key.space	n/a
18.008	0.0745	36016	keystroke_f	f	n/a
18.112	0.1055	36224	keystroke_o	o	n/a
18.368	0.089	36736	keystroke_x	x	n/a
18.5475	0.0745	37095	keystroke_Key.space	Key.space	n/a
18.893	0.0745	37786	keystroke_j	j	n/a
19.0425	0.0755	38085	keystroke_u	u	n/a
19.237	0.0905	38474	keystroke_m	m	n/a
19.4175	0.1045	38835	keystroke_p	p	n/a
19.5525	0.1045	39105	keystroke_s	s	n/a
19.687	0.0755	39374	keystroke_Key.space	Key.space	n/a
19.867	0.12	39734	keystroke_o	o	n/a
20.0625	0.0745	40125	keystroke_v	v	n/a
20.197	0.15	40394	keystroke_e	e	n/a
20.332	0.09	40664	keystroke_r	r	n/a
20.437	0.09	40874	keystroke_Key.space	Key.space	n/a
20.5125	0.0905	41025	keystroke_a	a	n/a
20.6175	0.09	41235	keystroke_Key.space	Key.space	n/a
20.7825	0.0905	41565	keystroke_l	l	n/a
21.3825	0.0905	42765	keystroke_s	s	n/a
21.742	0.105	43484	keystroke_Key.backspace	Key.backspace	n/a
21.832	0.12	43664	keystroke_z	z	n/a
22.507	0.0755	45014	keystroke_Key.backspace	Key.backspace	n/a
22.612	0.09	45224	keystroke_a	a	n/a
22.8675	0.06	45735	keystroke_z	z	n/a
23.0475	0.0745	46095	keystroke_y	y	n/a
23.557	0.0605	47114	keystroke_Key.space	Key.space	n/a
23.827	0.09	47654	keystroke_d	d	n/a
24.022	0.105	48044	keystroke_o	o	n/a
24.1575	0.0905	48315	keystroke_g	g	n/a
24.7425	0.074	49485	keystroke_Key.enter	Key.enter	n/a
24.825	10.9595	49650	prompt	n/a	conventional referred airline debt\n
25.672	0.075	51344	keystroke_c	c	n/a
25.8225	0.0745	51645	keystroke_o	o	n/a
26.047	0.0755	52094	keystroke_n	n	n/a
26.1975	0.09	52395	keystroke_v	v	n/a
26.4525	0.12	52905	keystroke_e	e	n/a
27.3225	0.075	54645	keystroke_n	n	n/a
28.103	0.0745	56206	keystroke_t	t	n/a
28.2375	0.225	56475	keystroke_i	i	n/a
28.3125	0.1505	56625	keystroke_o	o	n/a
28.3875	0.1195	56775	keystroke_n	n	n/a
28.6115	0.091	57223	keystroke_a	a	n/a
28.7625	0.105	57525	keystroke_l	l	n/a
29.1065	0.076	58213	keystroke_Key.space	Key.space	n/a
29.4525	0.195	58905	keystroke_r	r	n/a
29.7075	0.1345	59415	keystroke_e	e	n/a
29.9175	0.12	59835	keystroke_f	f	n/a
30.6375	0.1195	61275	keystroke_e	e	n/a
30.893	0.059	61786	keystroke_r	r	n/a
31.0125	0.1045	62025	keystroke_r	r	n/a
31.1475	0.18	62295	keystroke_e	e	n/a
31.2825	0.1355	62565	keystroke_d	d	n/a
31.6115	0.075	63223	keystroke_Key.space	Key.space	n/a
31.8225	0.0755	63645	keystroke_a	a	n/a
32.408	0.0745	64816	keystroke_i	i	n/a
32.5425	0.06	65085	keystroke_r	r	n/a
32.7825	0.0895	65565	keystroke_l	l	n/a
33.052	0.166	66104	keystroke_i	i	n/a
33.2025	0.0445	66405	keystroke_n	n	n/a
33.262	0.075	66524	keystroke_e	e	n/a
33.862	0.06	67724	keystroke_Key.space	Key.space	n/a
33.9825	0.12	67965	keystroke_d	d	n/a
34.1325	0.104	68265	keystroke_e	e	n/a
34.3725	0.075	68745	keystroke_b	b	n/a
35.392	0.075	70784	keystroke_t	t	n/a
35.692	0.0905	71384	keystroke_Key.enter	Key.enter	n/a
35.789	11.125	71578	prompt	n/a	holes rentals marco determine\n
36.803	0.1345	73606	keystroke_h	h	n/a
36.9525	0.09	73905	keystroke_o	o	n/a
37.192	0.12	74384	keystroke_l	l	n/a
37.387	0.0755	74774	keystroke_e	e	n/a
37.8825	0.0445	75765	keystroke_Key.backspace	Key.backspace	n/a
38.617	0.075	77234	keystroke_e	e	n/a
38.8275	0.105	77655	keystroke_s	s	n/a
39.0975	0.045	78195	keystroke_Key.space	Key.space	n/a
39.442	0.105	78884	keystroke_r	r	n/a
39.472	0.136	78944	keystroke_e	e	n/a
39.683	0.0745	79366	keystroke_n	n	n/a
39.832	0.1355	79664	keystroke_t	t	n/a
39.997	0.105	79994	keystroke_a	a	n/a
40.1175	0.09	80235	keystroke_l	l	n/a
40.5825	0.0595	81165	keystroke_Key.space	Key.space	n/a
41.887	0.15	83774	keystroke_Key.backspace	Key.backspace	n/a
42.052	0.1055	84104	keystroke_s	s	n/a
42.292	0.0755	84584	keystroke_Key.space	Key.space	n/a
42.592	0.0755	85184	keystroke_m	m	n/a
42.637	0.075	85274	keystroke_a	a	n/a
42.8175	0.09	85635	keystroke_r	r	n/a
43.1165	0.0915	86233	keystroke_c	c	n/a
43.223	0.0735	86446	keystroke_o	o	n/a
43.4615	0.0755	86923	keystroke_Key.space	Key.space	n/a
44.107	0.15	88214	keystroke_d	d	n/a
44.303	0.135	88606	keystroke_e	e	n/a
44.4975	0.105	88995	keystroke_t	t	n/a
44.6625	0.119	89325	keystroke_e	e	n/a
44.8715	0.106	89743	keystroke_r	r	n/a
45.1565	0.121	90313	keystroke_m	m	n/a
45.4265	0.2105	90853	keystroke_i	i	n/a
45.577	0.1495	91154	keystroke_n	n	n/a
46.0275	0.1055	92055	keystroke_e	e	n/a
46.837	0.075	93674	keystroke_Key.enter	Key.enter	n/a
46.9175	8.0225	93835	prompt	n/a	created watching stadium cruise\n
47.8425	0.014	95685	keystroke_c	c	n/a
48.0515	0.196	96103	keystroke_r	r	n/a
49.0125	0.1805	98025	keystroke_e	e	n/a
49.1775	0.135	98355	keystroke_a	a	n/a
49.357	0.1055	98714	keystroke_t	t	n/a
49.4475	0.1955	98895	keystroke_e	e	n/a
49.627	0.135	99254	keystroke_d	d	n/a
49.927	0.09	99854	keystroke_Key.space	Key.space	n/a
50.242	0.1655	100484	keystroke_w	w	n/a
50.3775	0.135	100755	keystroke_a	a	n/a
50.6325	0.06	101265	keystroke_t	t	n/a
50.933	0.105	101866	keystroke_c	c	n/a
51.023	0.119	102046	keystroke_h	h	n/a
51.097	0.1805	102194	keystroke_i	i	n/a
51.2475	0.1345	102495	keystroke_n	n	n/a
51.352	0.1055	102704	keystroke_g	g	n/a
51.5325	0.0745	103065	keystroke_Key.space	Key.space	n/a
52.1325	0.1195	104265	keystroke_s	s	n/a
52.372	0.0755	104744	keystroke_t	t	n/a
52.4775	0.105	104955	keystroke_a	a	n/a
52.7325	0.06	105465	keystroke_d	d	n/a
52.898	0.089	105796	keystroke_i	i	n/a
53.0925	0.075	106185	keystroke_u	u	n/a
53.3175	0.075	106635	keystroke_m	m	n/a
53.5275	0.075	107055	keystroke_Key.space	Key.space	n/a
53.7675	0.09	107535	keystroke_c	c	n/a
53.9775	0.06	107955	keystroke_r	r	n/a
54.127	0.075	108254	keystroke_u	u	n/a
54.3225	0.075	108645	keystroke_i	i	n/a
54.3975	0.09	108795	keystroke_s	s	n/a
54.6225	0.0595	109245	keystroke_e	e	n/a
54.8625	0.0745	109725	keystroke_Key.enter	Key.enter	n/a
54.9445	7.645	109889	prompt	n/a	melissa chemical aqua harmony\n
55.7025	0.0745	111405	keystroke_m	m	n/a
55.8225	0.0595	111645	keystroke_e	e	n/a
56.0025	0.0895	112005	keystroke_l	l	n/a
56.2425	0.06	112485	keystroke_i	i	n/a
56.317	0.075	112634	keystroke_s	s	n/a
56.482	0.105	112964	keystroke_s	s	n/a
56.6775	0.0905	113355	keystroke_a	a	n/a
56.827	0.075	113654	keystroke_Key.space	Key.space	n/a
57.1275	0.105	114255	keystroke_c	c	n/a
57.248	0.0745	114496	keystroke_h	h	n/a
57.3675	0.075	114735	keystroke_e	e	n/a
57.5625	0.075	115125	keystroke_m	m	n/a
58.7625	0.0445	117525	keystroke_i	i	n/a
58.868	0.1345	117736	keystroke_c	c	n/a
58.987	0.105	117974	keystroke_a	a	n/a
59.062	0.105	118124	keystroke_l	l	n/a
59.3925	0.075	118785	keystroke_Key.space	Key.space	n/a
60.112	0.09	120224	keystroke_a	a	n/a
60.352	0.12	120704	keystroke_q	q	n/a
60.532	0.075	121064	keystroke_u	u	n/a
60.623	0.105	121246	keystroke_a	a	n/a
60.8175	0.06	121635	keystroke_Key.space	Key.space	n/a
61.1925	0.09	122385	keystroke_h	h	n/a
61.3875	0.1045	122775	keystroke_a	a	n/a
61.612	0.075	123224	keystroke_r	r	n/a
61.7475	0.0895	123495	keystroke_m	m	n/a
61.8975	0.1345	123795	keystroke_o	o	n/a
62.003	0.1345	124006	keystroke_n	n	n/a
62.3025	0.0895	124605	keystroke_y	y	n/a
62.5125	0.075	125025	keystroke_Key.enter	Key.enter	n/a
62.5945	14.365	125189	prompt	n/a	borders permanent husband empirical\n
63.532	0.0755	127064	keystroke_b	b	n/a
63.728	0.0895	127456	keystroke_o	o	n/a
63.847	0.1055	127694	keystroke_r	r	n/a
64.117	0.105	128234	keystroke_d	d	n/a
64.312	0.1205	128624	keystroke_e	e	n/a
64.417	0.09	128834	keystroke_r	r	n/a
64.597	0.075	129194	keystroke_s	s	n/a
65.137	0.075	130274	keystroke_Key.space	Key.space	n/a
65.4525	0.105	130905	keystroke_p	p	n/a
65.6925	0.135	131385	keystroke_e	e	n/a
65.812	0.105	131624	keystroke_r	r	n/a
66.0375	0.09	132075	keystroke_m	m	n/a
66.3225	0.09	132645	keystroke_e	e	n/a
66.5175	0.135	133035	keystroke_n	n	n/a
67.3115	0.075	134623	keystroke_Key.backspace	Key.backspace	n/a
67.4175	0.105	134835	keystroke_a	a	n/a
68.107	0.075	136214	keystroke_Key.backspace	Key.backspace	n/a
68.197	0.045	136394	keystroke_Key.backspace	Key.backspace	n/a
68.303	0.0745	136606	keystroke_a	a	n/a
68.9175	0.09	137835	keystroke_n	n	n/a
69.067	0.09	138134	keystroke_e	e	n/a
69.172	0.09	138344	keystroke_n	n	n/a
69.322	0.105	138644	keystroke_t	t	n/a
69.817	0.075	139634	keystroke_Key.space	Key.space	n/a
70.178	0.0595	140356	keystroke_h	h	n/a
70.3275	0.105	140655	keystroke_u	u	n/a
70.553	0.104	141106	keystroke_s	s	n/a
71.0775	0.105	142155	keystroke_b	b	n/a
71.227	0.09	142454	keystroke_a	a	n/a
71.6475	0.1205	143295	keystroke_n	n	n/a
71.797	0.1355	143594	keystroke_c	c	n/a
72.3375	0.15	144675	keystroke_Key.backspace	Key.backspace	n/a
72.5475	0.105	145095	keystroke_d	d	n/a
72.6975	0.075	145395	keystroke_Key.space	Key.space	n/a
73.627	0.1805	147254	keystroke_e	e	n/a
73.9575	0.0745	147915	keystroke_m	m	n/a
74.287	0.105	148574	keystroke_p	p	n/a
74.5275	0.0745	149055	keystroke_i	i	n/a
74.6475	0.09	149295	keystroke_r	r	n/a
74.827	0.091	149654	keystroke_a	a	n/a
75.1275	0.09	150255	keystroke_Key.backspace	Key.backspace	n/a
75.2315	0.105	150463	keystroke_c	c	n/a
75.3525	0.1195	150705	keystroke_a	a	n/a
75.5915	0.136	151183	keystroke_l	l	n/a
76.852	0.1055	153704	keystroke_Key.enter	Key.enter	n/a
76.966	8.409	153932	prompt	n/a	miss composer belief exceptional\n
78.247	0.015	156494	keystroke_m	m	n/a
78.3825	0.06	156765	keystroke_i	i	n/a
78.5475	0.0595	157095	keystroke_s	s	n/a
78.742	0.105	157484	keystroke_s	s	n/a
79.0275	0.1045	158055	keystroke_Key.space	Key.space	n/a
79.357	0.09	158714	keystroke_c	c	n/a
79.508	0.134	159016	keystroke_o	o	n/a
79.5975	0.12	159195	keystroke_m	m	n/a
79.8675	0.12	159735	keystroke_p	p	n/a
80.122	0.0745	160244	keystroke_o	o	n/a
80.183	0.09	160366	keystroke_s	s	n/a
80.392	0.15	160784	keystroke_e	e	n/a
80.5275	0.09	161055	keystroke_r	r	n/a
80.6615	0.0905	161323	keystroke_Key.space	Key.space	n/a
81.1725	0.075	162345	keystroke_b	b	n/a
81.2925	0.09	162585	keystroke_e	e	n/a
81.4265	0.091	162853	keystroke_l	l	n/a
81.608	0.104	163216	keystroke_i	i	n/a
81.8915	0.1665	163783	keystroke_e	e	n/a
82.0715	0.136	164143	keystroke_f	f	n/a
82.1765	0.09	164353	keystroke_Key.space	Key.space	n/a
83.1825	0.09	166365	keystroke_e	e	n/a
83.708	0.0745	167416	keystroke_x	x	n/a
83.9175	0.075	167835	keystroke_c	c	n/a
84.0675	0.105	168135	keystroke_e	e	n/a
84.3225	0.104	168645	keystroke_p	p	n/a
84.5325	0.03	169065	keystroke_t	t	n/a
84.5775	0.239	169155	keystroke_i	i	n/a
84.6375	0.1645	169275	keystroke_o	o	n/a
84.7275	0.135	169455	keystroke_n	n	n/a
84.8765	0.105	169753	keystroke_a	a	n/a
85.0115	0.1215	170023	keystroke_l	l	n/a
85.2975	0.0745	170595	keystroke_Key.enter	Key.enter	n/a
85.3815	9.6525	170763	prompt	n/a	fighter disciplinary gardens thunder\n
86.2725	0.074	172545	keystroke_f	f	n/a
86.438	0.0895	172876	keystroke_i	i	n/a
86.5565	0.0905	173113	keystroke_g	g	n/a
86.6615	0.09	173323	keystroke_h	h	n/a
86.947	0.1505	173894	keystroke_t	t	n/a
87.1875	0.1195	174375	keystroke_e	e	n/a
87.2625	0.1045	174525	keystroke_r	r	n/a
87.427	0.09	174854	keystroke_Key.space	Key.space	n/a
87.833	0.1045	175666	keystroke_d	d	n/a
88.0275	0.0745	176055	keystroke_i	i	n/a
88.117	0.106	176234	keystroke_s	s	n/a
88.3725	0.09	176745	keystroke_c	c	n/a
88.597	0.09	177194	keystroke_i	i	n/a
88.9425	0.12	177885	keystroke_p	p	n/a
88.987	0.195	177974	keystroke_l	l	n/a
90.067	0.1205	180134	keystroke_i	i	n/a
90.2475	0.0895	180495	keystroke_n	n	n/a
90.3525	0.1045	180705	keystroke_a	a	n/a
90.6225	0.1345	181245	keystroke_r	r	n/a
91.2825	0.075	182565	keystroke_y	y	n/a
91.522	0.075	183044	keystroke_Key.space	Key.space	n/a
91.9875	0.12	183975	keystroke_g	g	n/a
92.1225	0.1045	184245	keystroke_a	a	n/a
92.3025	0.1055	184605	keystroke_r	r	n/a
92.527	0.1205	185054	keystroke_d	d	n/a
92.6625	0.135	185325	keystroke_e	e	n/a
92.812	0.0755	185624	keystroke_n	n	n/a
93.007	0.09	186014	keystroke_s	s	n/a
93.847	0.09	187694	keystroke_Key.space	Key.space	n/a
94.0875	0.104	188175	keystroke_t	t	n/a
94.1765	0.1205	188353	keystroke_h	h	n/a
94.3265	0.1515	188653	keystroke_u	u	n/a
94.4475	0.105	188895	keystroke_n	n	n/a
94.5975	0.15	189195	keystroke_d	d	n/a
94.7325	0.18	189465	keystroke_e	e	n/a
94.8675	0.12	189735	keystroke_r	r	n/a
94.9275	0.105	189855	keystroke_Key.enter	Key.enter	n/a
95.04	9.206	190080	prompt	n/a	babes ratings textbooks apparently\n
95.843	0.074	191686	keystroke_b	b	n/a
95.9325	0.09	191865	keystroke_a	a	n/a
96.0375	0.075	192075	keystroke_b	b	n/a
96.2175	0.075	192435	keystroke_e	e	n/a
96.412	0.075	192824	keystroke_s	s	n/a
96.532	0.09	193064	keystroke_Key.space	Key.space	n/a
96.922	0.1205	193844	keystroke_r	r	n/a
97.072	0.09	194144	keystroke_a	a	n/a
97.222	0.09	194444	keystroke_t	t	n/a
97.3275	0.1645	194655	keystroke_i	i	n/a
97.417	0.1355	194834	keystroke_n	n	n/a
97.5375	0.1045	195075	keystroke_g	g	n/a
97.717	0.075	195434	keystroke_Key.space	Key.space	n/a
97.8975	0.0755	195795	keystroke_s	s	n/a
98.152	0.0755	196304	keystroke_Key.backspace	Key.backspace	n/a
98.287	0.09	196574	keystroke_Key.backspace	Key.backspace	n/a
98.378	0.089	196756	keystroke_s	s	n/a
98.8575	0.0895	197715	keystroke_Key.space	Key.space	n/a
99.217	0.0905	198434	keystroke_t	t	n/a
99.3665	0.121	198733	keystroke_e	e	n/a
99.6525	0.06	199305	keystroke_x	x	n/a
99.893	0.074	199786	keystroke_t	t	n/a
100.1925	0.119	200385	keystroke_b	b	n/a
100.447	0.0605	200894	keystroke_o	o	n/a
100.5975	0.135	201195	keystroke_o	o	n/a
100.687	0.1205	201374	keystroke_k	k	n/a
101.2425	0.06	202485	keystroke_s	s	n/a
101.3925	0.09	202785	keystroke_Key.space	Key.space	n/a
101.6475	0.09	203295	keystroke_a	a	n/a
101.9625	0.12	203925	keystroke_p	p	n/a
102.788	0.1045	205576	keystroke_p	p	n/a
102.9075	0.12	205815	keystroke_a	a	n/a
103.1925	0.12	206385	keystroke_r	r	n/a
103.3275	0.105	206655	keystroke_e	e	n/a
103.4925	0.0605	206985	keystroke_n	n	n/a
103.6125	0.075	207225	keystroke_t	t	n/a
103.7615	0.091	207523	keystroke_l	l	n/a
103.8675	0.075	207735	keystroke_y	y	n/a
104.1365	0.105	208273	keystroke_Key.enter	Key.enter	n/a
104.2495	5.5445	208499	prompt	n/a	measured lace friday acne\n
105.0075	0.0595	210015	keystroke_m	m	n/a
105.082	0.1505	210164	keystroke_e	e	n/a
105.2025	0.12	210405	keystroke_a	a	n/a
105.4575	0.045	210915	keystroke_s	s	n/a
105.5475	0.09	211095	keystroke_u	u	n/a
105.7575	0.12	211515	keystroke_r	r	n/a
105.8625	0.195	211725	keystroke_e	e	n/a
106.0125	0.15	212025	keystroke_d	d	n/a
106.2375	0.09	212475	keystroke_Key.space	Key.space	n/a
106.5975	0.06	213195	keystroke_l	l	n/a
106.6725	0.105	213345	keystroke_a	a	n/a
107.0175	0.0905	214035	keystroke_c	c	n/a
107.1525	0.09	214305	keystroke_e	e	n/a
107.302	0.0905	214604	keystroke_Key.space	Key.space	n/a
107.573	0.0895	215146	keystroke_f	f	n/a
107.7375	0.06	215475	keystroke_r	r	n/a
107.8725	0.075	215745	keystroke_i	i	n/a
108.1125	0.12	216225	keystroke_d	d	n/a
108.2175	0.09	216435	keystroke_a	a	n/a
108.4275	0.105	216855	keystroke_y	y	n/a
108.8465	0.076	217693	keystroke_Key.space	Key.space	n/a
109.0125	0.09	218025	keystroke_a	a	n/a
109.252	0.0895	218504	keystroke_c	c	n/a
109.4025	0.09	218805	keystroke_n	n	n/a
109.5375	0.075	219075	keystroke_e	e	n/a
109.7015	0.09	219403	keystroke_Key.enter	Key.enter	n/a
109.7985	5.6055	219597	prompt	n/a	wait auctions peeing selling\n
110.5875	0.089	221175	keystroke_w	w	n/a
110.753	0.104	221506	keystroke_a	a	n/a
110.887	0.0905	221774	keystroke_i	i	n/a
111.0375	0.09	222075	keystroke_t	t	n/a
111.1875	0.09	222375	keystroke_Key.space	Key.space	n/a
111.4425	0.075	222885	keystroke_a	a	n/a
111.8325	0.075	223665	keystroke_u	u	n/a
111.9225	0.105	223845	keystroke_c	c	n/a
112.192	0.0605	224384	keystroke_t	t	n/a
112.267	0.1945	224534	keystroke_i	i	n/a
112.327	0.106	224654	keystroke_o	o	n/a
112.4175	0.12	224835	keystroke_n	n	n/a
112.5525	0.105	225105	keystroke_s	s	n/a
112.7315	0.076	225463	keystroke_Key.space	Key.space	n/a
113.153	0.089	226306	keystroke_p	p	n/a
113.272	0.0755	226544	keystroke_e	e	n/a
113.437	0.1055	226874	keystroke_e	e	n/a
113.5275	0.1045	227055	keystroke_i	i	n/a
113.572	0.1205	227144	keystroke_n	n	n/a
113.738	0.074	227476	keystroke_g	g	n/a
113.902	0.0755	227804	keystroke_Key.space	Key.space	n/a
114.127	0.09	228254	keystroke_s	s	n/a
114.4425	0.0745	228885	keystroke_e	e	n/a
114.637	0.0745	229274	keystroke_l	l	n/a
114.7725	0.0905	229545	keystroke_l	l	n/a
114.9975	0.135	229995	keystroke_i	i	n/a
115.0725	0.12	230145	keystroke_n	n	n/a
115.1765	0.0755	230353	keystroke_g	g	n/a
115.3275	0.0745	230655	keystroke_Key.enter	Key.enter	n/a
115.407	5.5165	230814	prompt	n/a	groups marketplace wanting edges\n
116.197	0.0755	232394	keystroke_g	g	n/a
116.392	0.061	232784	keystroke_r	r	n/a
116.5125	0.06	233025	keystroke_o	o	n/a
116.6775	0.0745	233355	keystroke_u	u	n/a
116.8875	0.09	233775	keystroke_p	p	n/a
117.0225	0.09	234045	keystroke_s	s	n/a
117.232	0.06	234464	keystroke_Key.space	Key.space	n/a
117.502	0.12	235004	keystroke_w	w	n/a
117.667	0.105	235334	keystroke_a	a	n/a
117.817	0.06	235634	keystroke_n	n	n/a
118.0125	0.0305	236025	keystroke_t	t	n/a
118.072	0.12	236144	keystroke_i	i	n/a
118.147	0.105	236294	keystroke_n	n	n/a
118.297	0.0755	236594	keystroke_g	g	n/a
118.762	0.0755	237524	keystroke_Key.space	Key.space	n/a
119.827	0.075	239654	keystroke_e	e	n/a
120.037	0.09	240074	keystroke_d	d	n/a
120.307	0.0605	240614	keystroke_g	g	n/a
120.4575	0.0905	240915	keystroke_e	e	n/a
120.6675	0.0755	241335	keystroke_s	s	n/a
120.847	0.075	241694	keystroke_Key.enter	Key.enter	n/a
120.934	7.895	241868	prompt	n/a	adapters naval installations arrived\n
121.5375	0.09	243075	keystroke_a	a	n/a
121.7625	0.1055	243525	keystroke_d	d	n/a
121.9125	0.075	243825	keystroke_a	a	n/a
122.2125	0.105	244425	keystroke_p	p	n/a
122.423	0.089	244846	keystroke_t	t	n/a
122.573	0.1195	245146	keystroke_e	e	n/a
122.6775	0.0745	245355	keystroke_r	r	n/a
122.857	0.106	245714	keystroke_s	s	n/a
123.1875	0.075	246375	keystroke_Key.space	Key.space	n/a
123.563	0.1495	247126	keystroke_n	n	n/a
123.5775	0.0755	247155	keystroke_a	a	n/a
124.463	0.104	248926	keystroke_v	v	n/a
124.7475	0.09	249495	keystroke_a	a	n/a
124.9575	0.135	249915	keystroke_k	k	n/a
125.3325	0.09	250665	keystroke_Key.space	Key.space	n/a
125.5875	0.135	251175	keystroke_i	i	n/a
125.6775	0.09	251355	keystroke_n	n	n/a
125.7525	0.09	251505	keystroke_s	s	n/a
126.0075	0.09	252015	keystroke_t	t	n/a
126.1425	0.09	252285	keystroke_a	a	n/a
126.322	0.0455	252644	keystroke_l	l	n/a
126.4275	0.1055	252855	keystroke_l	l	n/a
126.533	0.09	253066	keystroke_a	a	n/a
126.743	0.0745	253486	keystroke_t	t	n/a
126.833	0.179	253666	keystroke_i	i	n/a
126.877	0.1055	253754	keystroke_o	o	n/a
126.9515	0.121	253903	keystroke_n	n	n/a
127.0865	0.106	254173	keystroke_s	s	n/a
127.417	0.06	254834	keystroke_Key.space	Key.space	n/a
127.612	0.075	255224	keystroke_a	a	n/a
127.8075	0.0595	255615	keystroke_r	r	n/a
127.9265	0.076	255853	keystroke_r	r	n/a
128.0775	0.06	256155	keystroke_i	i	n/a
128.287	0.075	256574	keystroke_v	v	n/a
128.452	0.09	256904	keystroke_e	e	n/a
128.632	0.0755	257264	keystroke_d	d	n/a
128.752	0.075	257504	keystroke_Key.enter	Key.enter	n/a
128.836	9.0075	257672	prompt	n/a	subsection jump jamie edit\n
129.533	0.0895	259066	keystroke_s	s	n/a
129.7425	0.075	259485	keystroke_u	u	n/a
129.9825	0.075	259965	keystroke_b	b	n/a
130.8825	0.0605	261765	keystroke_s	s	n/a
131.0925	0.075	262185	keystroke_e	e	n/a
131.303	0.0895	262606	keystroke_c	c	n/a
131.5275	0.075	263055	keystroke_t	t	n/a
131.6175	0.18	263235	keystroke_i	i	n/a
131.6475	0.1195	263295	keystroke_o	o	n/a
131.7375	0.1355	263475	keystroke_n	n	n/a
132.112	0.075	264224	keystroke_Key.space	Key.space	n/a
132.5175	0.06	265035	keystroke_j	j	n/a
132.667	0.091	265334	keystroke_u	u	n/a
132.877	0.06	265754	keystroke_m	m	n/a
133.0125	0.104	266025	keystroke_p	p	n/a
133.2525	0.0745	266505	keystroke_Key.space	Key.space	n/a
133.492	0.0605	266984	keystroke_j	j	n/a
133.5675	0.105	267135	keystroke_a	a	n/a
133.7325	0.06	267465	keystroke_m	m	n/a
133.898	0.074	267796	keystroke_i	i	n/a
134.017	0.0905	268034	keystroke_e	e	n/a
134.1675	0.074	268335	keystroke_Key.space	Key.space	n/a
134.467	0.0895	268934	keystroke_e	e	n/a
134.6775	0.0755	269355	keystroke_d	d	n/a
134.812	0.09	269624	keystroke_d	d	n/a
134.932	0.1055	269864	keystroke_i	i	n/a
135.127	0.076	270254	keystroke_t	t	n/a
135.4725	0.09	270945	keystroke_Key.backspace	Key.backspace	n/a
135.6375	0.104	271275	keystroke_Key.backspace	Key.backspace	n/a
135.7575	0.1045	271515	keystroke_t	t	n/a
136.1165	0.075	272233	keystroke_Key.backspace	Key.backspace	n/a
136.2675	0.12	272535	keystroke_Key.backspace	Key.backspace	n/a
136.8375	0.075	273675	keystroke_i	i	n/a
136.9275	0.0905	273855	keystroke_t	t	n/a
137.782	0.06	275564	keystroke_Key.enter	Key.enter	n/a
137.848	8.306	275696	prompt	n/a	structural permanent railway thermal\n
138.502	0.12	277004	keystroke_s	s	n/a
138.847	0.12	277694	keystroke_t	t	n/a
138.982	0.105	277964	keystroke_r	r	n/a
139.1625	0.075	278325	keystroke_u	u	n/a
139.3575	0.09	278715	keystroke_c	c	n/a
139.6125	0.06	279225	keystroke_t	t	n/a
139.733	0.09	279466	keystroke_u	u	n/a
139.9275	0.105	279855	keystroke_r	r	n/a
140.2125	0.075	280425	keystroke_a	a	n/a
140.333	0.09	280666	keystroke_l	l	n/a
140.6475	0.075	281295	keystroke_Key.space	Key.space	n/a
140.9025	0.105	281805	keystroke_p	p	n/a
141.0665	0.121	282133	keystroke_e	e	n/a
141.1725	0.09	282345	keystroke_r	r	n/a
141.3375	0.075	282675	keystroke_m	m	n/a
141.4275	0.075	282855	keystroke_a	a	n/a
141.698	0.089	283396	keystroke_n	n	n/a
141.9675	0.105	283935	keystroke_e	e	n/a
142.0875	0.105	284175	keystroke_n	n	n/a
142.2675	0.075	284535	keystroke_t	t	n/a
142.762	0.075	285524	keystroke_Key.space	Key.space	n/a
143.273	0.1045	286546	keystroke_r	r	n/a
143.4225	0.075	286845	keystroke_a	a	n/a
143.5125	0.075	287025	keystroke_i	i	n/a
143.7375	0.075	287475	keystroke_l	l	n/a
143.9775	0.165	287955	keystroke_w	w	n/a
144.0975	0.15	288195	keystroke_a	a	n/a
144.337	0.1055	288674	keystroke_y	y	n/a
144.7425	0.0745	289485	keystroke_Key.space	Key.space	n/a
144.952	0.09	289904	keystroke_t	t	n/a
145.0275	0.0895	290055	keystroke_h	h	n/a
145.133	0.134	290266	keystroke_e	e	n/a
145.2525	0.0905	290505	keystroke_r	r	n/a
145.4175	0.075	290835	keystroke_m	m	n/a
145.508	0.0895	291016	keystroke_a	a	n/a
145.7625	0.1055	291525	keystroke_l	l	n/a
146.0625	0.09	292125	keystroke_Key.enter	Key.enter	n/a
146.1595	5.9345	292319	prompt	n/a	builder venice foods push\n
146.918	0.09	293836	keystroke_b	b	n/a
147.0525	0.09	294105	keystroke_u	u	n/a
147.367	0.0755	294734	keystroke_l	l	n/a
147.652	0.091	295304	keystroke_d	d	n/a
147.7725	0.15	295545	keystroke_e	e	n/a
147.892	0.1055	295784	keystroke_r	r	n/a
148.117	0.0755	296234	keystroke_Key.space	Key.space	n/a
148.5525	0.06	297105	keystroke_v	v	n/a
148.6875	0.09	297375	keystroke_e	e	n/a
148.8225	0.075	297645	keystroke_n	n	n/a
148.9575	0.09	297915	keystroke_i	i	n/a
149.168	0.0895	298336	keystroke_c	c	n/a
149.3175	0.09	298635	keystroke_e	e	n/a
149.4525	0.075	298905	keystroke_Key.space	Key.space	n/a
149.9025	0.075	299805	keystroke_f	f	n/a
150.0675	0.075	300135	keystroke_o	o	n/a
150.203	0.0895	300406	keystroke_o	o	n/a
150.2625	0.15	300525	keystroke_d	d	n/a
150.3975	0.104	300795	keystroke_s	s	n/a
150.5625	0.0745	301125	keystroke_Key.space	Key.space	n/a
151.043	0.104	302086	keystroke_p	p	n/a
151.313	0.089	302626	keystroke_u	u	n/a
151.403	0.105	302806	keystroke_s	s	n/a
151.537	0.09	303074	keystroke_h	h	n/a
151.987	0.105	303974	keystroke_Key.enter	Key.enter	n/a
152.0975	6.147	304195	prompt	n/a	iron specify solaris workout\n
152.812	0.0605	305624	keystroke_i	i	n/a
152.947	0.091	305894	keystroke_r	r	n/a
153.083	0.164	306166	keystroke_o	o	n/a
153.262	0.0905	306524	keystroke_n	n	n/a
153.517	0.075	307034	keystroke_Key.space	Key.space	n/a
153.6675	0.1195	307335	keystroke_s	s	n/a
153.7575	0.09	307515	keystroke_p	p	n/a
153.907	0.1045	307814	keystroke_e	e	n/a
154.1325	0.075	308265	keystroke_c	c	n/a
154.2675	0.1195	308535	keystroke_i	i	n/a
154.4475	0.104	308895	keystroke_f	f	n/a
154.7475	0.0895	309495	keystroke_y	y	n/a
155.0625	0.0745	310125	keystroke_Key.space	Key.space	n/a
155.3475	0.0905	310695	keystroke_s	s	n/a
155.5425	0.09	311085	keystroke_o	o	n/a
155.7525	0.06	311505	keystroke_l	l	n/a
155.8575	0.105	311715	keystroke_a	a	n/a
156.2775	0.0755	312555	keystroke_r	r	n/a
156.4275	0.075	312855	keystroke_i	i	n/a
156.5475	0.09	313095	keystroke_s	s	n/a
156.6975	0.09	313395	keystroke_Key.space	Key.space	n/a
157.012	0.135	314024	keystroke_w	w	n/a
157.1775	0.105	314355	keystroke_o	o	n/a
157.327	0.0755	314654	keystroke_r	r	n/a
157.4475	0.075	314895	keystroke_k	k	n/a
157.642	0.091	315284	keystroke_o	o	n/a
157.882	0.105	315764	keystroke_u	u	n/a
158.0175	0.0895	316035	keystroke_t	t	n/a
158.167	0.0755	316334	keystroke_Key.enter	Key.enter	n/a
158.248	5.021	316496	prompt	n/a	gras tent team sprint\n
159.217	0.1355	318434	keystroke_g	g	n/a
159.322	0.121	318644	keystroke_r	r	n/a
159.532	0.091	319064	keystroke_a	a	n/a
159.772	0.0305	319544	keystroke_s	s	n/a
160.0125	0.0895	320025	keystroke_Key.space	Key.space	n/a
160.222	0.1055	320444	keystroke_t	t	n/a
160.3425	0.075	320685	keystroke_e	e	n/a
160.5675	0.075	321135	keystroke_n	n	n/a
160.853	0.089	321706	keystroke_t	t	n/a
161.017	0.0745	322034	keystroke_Key.space	Key.space	n/a
161.483	0.1335	322966	keystroke_t	t	n/a
161.6625	0.2245	323325	keystroke_e	e	n/a
161.8265	0.12	323653	keystroke_a	a	n/a
161.977	0.09	323954	keystroke_m	m	n/a
162.2015	0.075	324403	keystroke_Key.space	Key.space	n/a
162.4125	0.104	324825	keystroke_s	s	n/a
162.5615	0.1205	325123	keystroke_p	p	n/a
162.7115	0.091	325423	keystroke_r	r	n/a
162.8175	0.12	325635	keystroke_i	i	n/a
162.9525	0.09	325905	keystroke_n	n	n/a
163.0725	0.075	326145	keystroke_t	t	n/a
163.1925	0.075	326385	keystroke_Key.enter	Key.enter	n/a
163.2735	7.045	326547	prompt	n/a	updated mesa mouse negotiation\n
164.1225	0.06	328245	keystroke_u	u	n/a
164.3465	0.106	328693	keystroke_p	p	n/a
164.5425	0.12	329085	keystroke_d	d	n/a
164.677	0.0905	329354	keystroke_a	a	n/a
164.843	0.104	329686	keystroke_t	t	n/a
164.962	0.1505	329924	keystroke_e	e	n/a
165.1275	0.12	330255	keystroke_d	d	n/a
165.3375	0.075	330675	keystroke_Key.space	Key.space	n/a
165.6225	0.075	331245	keystroke_m	m	n/a
165.7125	0.1055	331425	keystroke_e	e	n/a
165.9525	0.1945	331905	keystroke_s	s	n/a
166.148	0.105	332296	keystroke_a	a	n/a
166.312	0.09	332624	keystroke_Key.space	Key.space	n/a
166.568	0.059	333136	keystroke_m	m	n/a
167.1825	0.059	334365	keystroke_o	o	n/a
167.393	0.0745	334786	keystroke_u	u	n/a
167.483	0.1045	334966	keystroke_s	s	n/a
167.7075	0.089	335415	keystroke_e	e	n/a
167.902	0.075	335804	keystroke_Key.space	Key.space	n/a
168.2475	0.075	336495	keystroke_n	n	n/a
168.412	0.09	336824	keystroke_e	e	n/a
168.712	0.0755	337424	keystroke_g	g	n/a
168.832	0.0755	337664	keystroke_o	o	n/a
169.012	0.061	338024	keystroke_t	t	n/a
169.1325	0.0895	338265	keystroke_i	i	n/a
169.313	0.089	338626	keystroke_a	a	n/a
169.432	0.1055	338864	keystroke_t	t	n/a
169.552	0.165	339104	keystroke_i	i	n/a
169.5825	0.1195	339165	keystroke_o	o	n/a
169.672	0.12	339344	keystroke_n	n	n/a
170.227	0.09	340454	keystroke_Key.enter	Key.enter	n/a
170.324	6.5055	340648	prompt	n/a	cage flush companies learn\n
171.0525	0.0905	342105	keystroke_c	c	n/a
171.157	0.1355	342314	keystroke_a	a	n/a
171.4875	0.0895	342975	keystroke_g	g	n/a
171.607	0.0755	343214	keystroke_e	e	n/a
171.757	0.09	343514	keystroke_Key.space	Key.space	n/a
172.147	0.09	344294	keystroke_f	f	n/a
172.2675	0.0755	344535	keystroke_l	l	n/a
172.477	0.09	344954	keystroke_u	u	n/a
172.612	0.0595	345224	keystroke_s	s	n/a
172.7175	0.0605	345435	keystroke_g	g	n/a
173.0475	0.06	346095	keystroke_Key.space	Key.space	n/a
173.198	0.0595	346396	keystroke_c	c	n/a
173.9925	0.076	347985	keystroke_o	o	n/a
174.0975	0.105	348195	keystroke_m	m	n/a
174.3225	0.09	348645	keystroke_p	p	n/a
174.457	0.06	348914	keystroke_a	a	n/a
174.9225	0.074	349845	keystroke_n	n	n/a
175.1175	0.0895	350235	keystroke_i	i	n/a
175.2375	0.0905	350475	keystroke_e	e	n/a
175.4475	0.075	350895	keystroke_s	s	n/a
175.7025	0.0745	351405	keystroke_Key.space	Key.space	n/a
176.0775	0.076	352155	keystroke_l	l	n/a
176.212	0.18	352424	keystroke_e	e	n/a
176.332	0.15	352664	keystroke_a	a	n/a
176.497	0.09	352994	keystroke_r	r	n/a
176.5725	0.075	353145	keystroke_n	n	n/a
176.7225	0.1045	353445	keystroke_Key.enter	Key.enter	n/a
176.834	7.75	353668	prompt	n/a	lyrics homepage physics ships\n
177.593	0.074	355186	keystroke_l	l	n/a
177.8915	0.0455	355783	keystroke_y	y	n/a
178.1165	0.0755	356233	keystroke_r	r	n/a
178.2975	0.075	356595	keystroke_i	i	n/a
178.4475	0.09	356895	keystroke_c	c	n/a
178.6575	0.09	357315	keystroke_e	e	n/a
179.0025	0.089	358005	keystroke_Key.backspace	Key.backspace	n/a
179.1225	0.09	358245	keystroke_s	s	n/a
179.3475	0.075	358695	keystroke_Key.space	Key.space	n/a
179.8275	0.06	359655	keystroke_h	h	n/a
180.442	0.1805	360884	keystroke_o	o	n/a
180.547	0.15	361094	keystroke_m	m	n/a
180.7125	0.0605	361425	keystroke_e	e	n/a
181.2375	0.105	362475	keystroke_p	p	n/a
181.3875	0.03	362775	keystroke_a	a	n/a
181.5375	0.12	363075	keystroke_g	g	n/a
181.6425	0.075	363285	keystroke_e	e	n/a
181.7925	0.09	363585	keystroke_Key.space	Key.space	n/a
182.2275	0.09	364455	keystroke_p	p	n/a
182.437	0.076	364874	keystroke_h	h	n/a
182.6025	0.0895	365205	keystroke_y	y	n/a
182.723	0.089	365446	keystroke_s	s	n/a
182.8875	0.09	365775	keystroke_i	i	n/a
182.9625	0.105	365925	keystroke_c	c	n/a
183.0975	0.15	366195	keystroke_s	s	n/a
183.2625	0.0595	366525	keystroke_Key.space	Key.space	n/a
183.412	0.09	366824	keystroke_s	s	n/a
183.5175	0.0905	367035	keystroke_h	h	n/a
183.637	0.0905	367274	keystroke_i	i	n/a
183.8475	0.0895	367695	keystroke_p	p	n/a
184.2675	0.045	368535	keystroke_s	s	n/a
184.492	0.09	368984	keystroke_Key.enter	Key.enter	n/a
184.5875	7.152	369175	prompt	n/a	missing influences nascar html\n
185.2275	0.075	370455	keystroke_m	m	n/a
185.4825	0.0155	370965	keystroke_i	i	n/a
185.513	0.0595	371026	keystroke_s	s	n/a
185.6775	0.0895	371355	keystroke_s	s	n/a
185.6925	0.135	371385	keystroke_i	i	n/a
185.7975	0.105	371595	keystroke_n	n	n/a
186.3225	0.075	372645	keystroke_g	g	n/a
186.4275	0.074	372855	keystroke_Key.space	Key.space	n/a
186.5925	0.1195	373185	keystroke_i	i	n/a
186.6675	0.119	373335	keystroke_n	n	n/a
186.8925	0.105	373785	keystroke_f	f	n/a
187.027	0.076	374054	keystroke_l	l	n/a
187.2515	0.0755	374503	keystroke_u	u	n/a
187.387	0.09	374774	keystroke_e	e	n/a
187.5215	0.075	375043	keystroke_n	n	n/a
187.702	0.0745	375404	keystroke_c	c	n/a
187.8525	0.165	375705	keystroke_e	e	n/a
188.0025	0.0745	376005	keystroke_r	r	n/a
188.152	0.075	376304	keystroke_Key.space	Key.space	n/a
188.5875	0.045	377175	keystroke_n	n	n/a
188.663	0.074	377326	keystroke_a	a	n/a
188.9925	0.075	377985	keystroke_s	s	n/a
189.187	0.075	378374	keystroke_c	c	n/a
189.352	0.09	378704	keystroke_a	a	n/a
189.562	0.1505	379124	keystroke_r	r	n/a
189.7275	0.12	379455	keystroke_e	e	n/a
190.3425	0.089	380685	keystroke_Key.backspace	Key.backspace	n/a
190.7315	0.06	381463	keystroke_Key.space	Key.space	n/a
191.017	0.0755	382034	keystroke_h	h	n/a
191.2125	0.0895	382425	keystroke_t	t	n/a
191.332	0.075	382664	keystroke_m	m	n/a
191.467	0.1205	382934	keystroke_l	l	n/a
191.677	0.06	383354	keystroke_Key.enter	Key.enter	n/a
191.743	9.9255	383486	prompt	n/a	queen to've couldn't objective\n
192.5775	0.0745	385155	keystroke_g	g	n/a
193.057	0.09	386114	keystroke_Key.backspace	Key.backspace	n/a
193.2075	0.1045	386415	keystroke_q	q	n/a
193.3725	0.075	386745	keystroke_u	u	n/a
193.4925	0.075	386985	keystroke_e	e	n/a
193.657	0.075	387314	keystroke_e	e	n/a
193.7475	0.1345	387495	keystroke_n	n	n/a
194.032	0.075	388064	keystroke_Key.space	Key.space	n/a
194.5725	0.0145	389145	keystroke_t	t	n/a
194.7075	0.075	389415	keystroke_o	o	n/a
195.187	0.046	390374	keystroke_'	'	n/a
195.3225	0.0895	390645	keystroke_v	v	n/a
195.457	0.105	390914	keystroke_e	e	n/a
195.5475	0.0745	391095	keystroke_Key.space	Key.space	n/a
196.0715	0.06	392143	keystroke_c	c	n/a
196.1615	0.0455	392323	keystroke_o	o	n/a
196.327	0.075	392654	keystroke_u	u	n/a
196.5525	0.0745	393105	keystroke_l	l	n/a
196.7025	0.0895	393405	keystroke_d	d	n/a
196.897	0.045	393794	keystroke_n	n	n/a
197.152	0.09	394304	keystroke_'	'	n/a
197.287	0.09	394574	keystroke_t	t	n/a
197.437	0.0755	394874	keystroke_Key.space	Key.space	n/a
198.1265	0.09	396253	keystroke_o	o	n/a
198.3365	0.076	396673	keystroke_b	b	n/a
198.622	0.0905	397244	keystroke_j	j	n/a
198.7275	0.0905	397455	keystroke_e	e	n/a
198.967	0.0895	397934	keystroke_c	c	n/a
199.1925	0.105	398385	keystroke_t	t	n/a
199.342	0.1055	398684	keystroke_u	u	n/a
199.477	0.105	398954	keystroke_v	v	n/a
199.6125	0.12	399225	keystroke_e	e	n/a
199.9875	0.03	399975	keystroke_=	=	n/a
200.287	0.0895	400574	keystroke_Key.backspace	Key.backspace	n/a
200.467	0.06	400934	keystroke_Key.backspace	Key.backspace	n/a
200.6025	0.0745	401205	keystroke_Key.backspace	Key.backspace	n/a
200.737	0.1055	401474	keystroke_Key.backspace	Key.backspace	n/a
201.3075	0.104	402615	keystroke_i	i	n/a
201.4275	0.12	402855	keystroke_v	v	n/a
201.5475	0.105	403095	keystroke_e	e	n/a
201.5765	0.091	403153	keystroke_Key.enter	Key.enter	n/a
201.672	10.2715	403344	prompt	n/a	systematic loaded chain who'd've\n
202.463	0.0895	404926	keystroke_s	s	n/a
202.6425	0.09	405285	keystroke_y	y	n/a
202.7165	0.1205	405433	keystroke_s	s	n/a
203.0625	0.105	406125	keystroke_t	t	n/a
203.1975	0.09	406395	keystroke_e	e	n/a
203.377	0.135	406754	keystroke_m	m	n/a
203.722	0.09	407444	keystroke_a	a	n/a
203.978	0.089	407956	keystroke_t	t	n/a
204.2025	0.12	408405	keystroke_i	i	n/a
204.5025	0.09	409005	keystroke_c	c	n/a
204.6825	0.0895	409365	keystroke_Key.space	Key.space	n/a
205.417	0.03	410834	keystroke_l	l	n/a
205.642	0.09	411284	keystroke_o	o	n/a
205.762	0.12	411524	keystroke_a	a	n/a
205.957	0.1355	411914	keystroke_d	d	n/a
206.2125	0.1945	412425	keystroke_e	e	n/a
206.332	0.165	412664	keystroke_d	d	n/a
206.647	0.0755	413294	keystroke_Key.space	Key.space	n/a
206.932	0.09	413864	keystroke_c	c	n/a
207.037	0.075	414074	keystroke_h	h	n/a
207.247	0.105	414494	keystroke_a	a	n/a
207.3675	0.09	414735	keystroke_i	i	n/a
207.502	0.1055	415004	keystroke_n	n	n/a
207.742	0.075	415484	keystroke_Key.space	Key.space	n/a
208.0125	0.09	416025	keystroke_w	w	n/a
208.327	0.105	416654	keystroke_h	h	n/a
208.4765	0.105	416953	keystroke_o	o	n/a
209.332	0.09	418664	keystroke_'	'	n/a
210.712	0.0755	421424	keystroke_d	d	n/a
210.847	0.105	421694	keystroke_'	'	n/a
211.087	0.0755	422174	keystroke_v	v	n/a
211.2075	0.105	422415	keystroke_e	e	n/a
211.8525	0.089	423705	keystroke_Key.enter	Key.enter	n/a
211.946	6.388	423892	prompt	n/a	pickup orange draw deemed\n
213.3675	0.075	426735	keystroke_p	p	n/a
213.5625	0.09	427125	keystroke_i	i	n/a
213.7125	0.089	427425	keystroke_c	c	n/a
213.877	0.0905	427754	keystroke_k	k	n/a
214.1175	0.09	428235	keystroke_u	u	n/a
214.3725	0.075	428745	keystroke_p	p	n/a
214.6575	0.045	429315	keystroke_Key.space	Key.space	n/a
214.8375	0.09	429675	keystroke_o	o	n/a
214.9575	0.105	429915	keystroke_r	r	n/a
215.1225	0.105	430245	keystroke_a	a	n/a
215.2125	0.105	430425	keystroke_n	n	n/a
215.3465	0.091	430693	keystroke_g	g	n/a
215.4525	0.06	430905	keystroke_e	e	n/a
215.5425	0.075	431085	keystroke_Key.space	Key.space	n/a
215.9325	0.09	431865	keystroke_d	d	n/a
216.1125	0.12	432225	keystroke_r	r	n/a
216.2775	0.06	432555	keystroke_a	a	n/a
216.4425	0.0745	432885	keystroke_w	w	n/a
216.607	0.075	433214	keystroke_Key.space	Key.space	n/a
217.2075	0.0745	434415	keystroke_d	d	n/a
217.372	0.06	434744	keystroke_e	e	n/a
217.5975	0.015	435195	keystroke_e	e	n/a
217.627	0.06	435254	keystroke_m	m	n/a
217.762	0.135	435524	keystroke_e	e	n/a
217.867	0.135	435734	keystroke_d	d	n/a
218.287	0.045	436574	keystroke_Key.enter	Key.enter	n/a
218.338	8.096	436676	prompt	n/a	column belarus nomination counters\n
219.112	0.075	438224	keystroke_c	c	n/a
219.262	0.09	438524	keystroke_o	o	n/a
219.4875	0.075	438975	keystroke_l	l	n/a
220.0125	0.09	440025	keystroke_u	u	n/a
220.312	0.0605	440624	keystroke_m	m	n/a
220.4765	0.0915	440953	keystroke_n	n	n/a
220.7025	0.06	441405	keystroke_Key.space	Key.space	n/a
221.1975	0.0745	442395	keystroke_b	b	n/a
221.347	0.075	442694	keystroke_e	e	n/a
221.4825	0.0745	442965	keystroke_l	l	n/a
221.587	0.06	443174	keystroke_a	a	n/a
221.737	0.09	443474	keystroke_r	r	n/a
221.902	0.09	443804	keystroke_u	u	n/a
222.0075	0.0895	444015	keystroke_s	s	n/a
222.157	0.075	444314	keystroke_Key.space	Key.space	n/a
222.5175	0.074	445035	keystroke_n	n	n/a
222.7425	0.1345	445485	keystroke_o	o	n/a
222.8465	0.105	445693	keystroke_m	m	n/a
223.072	0.1355	446144	keystroke_i	i	n/a
223.177	0.1055	446354	keystroke_n	n	n/a
223.3575	0.1045	446715	keystroke_a	a	n/a
223.642	0.09	447284	keystroke_t	t	n/a
223.792	0.2405	447584	keystroke_i	i	n/a
223.882	0.135	447764	keystroke_o	o	n/a
223.957	0.12	447914	keystroke_n	n	n/a
224.9625	0.075	449925	keystroke_Key.space	Key.space	n/a
225.4875	0.075	450975	keystroke_c	c	n/a
225.5775	0.075	451155	keystroke_o	o	n/a
225.8025	0.09	451605	keystroke_u	u	n/a
225.8765	0.091	451753	keystroke_n	n	n/a
225.9225	0.09	451845	keystroke_t	t	n/a
226.0575	0.1205	452115	keystroke_e	e	n/a
226.1625	0.0745	452325	keystroke_r	r	n/a
226.282	0.0905	452564	keystroke_s	s	n/a
226.357	0.075	452714	keystroke_Key.enter	Key.enter	n/a
226.4375	7.5415	452875	prompt	n/a	organic reading beads needn't\n
227.3325	0.09	454665	keystroke_o	o	n/a
227.4825	0.09	454965	keystroke_r	r	n/a
227.7375	0.09	455475	keystroke_g	g	n/a
227.8425	0.09	455685	keystroke_a	a	n/a
227.9175	0.1045	455835	keystroke_n	n	n/a
228.052	0.1355	456104	keystroke_i	i	n/a
228.2775	0.105	456555	keystroke_c	c	n/a
228.4275	0.059	456855	keystroke_Key.space	Key.space	n/a
228.8775	0.149	457755	keystroke_r	r	n/a
228.9665	0.18	457933	keystroke_e	e	n/a
229.0865	0.135	458173	keystroke_a	a	n/a
229.207	0.1195	458414	keystroke_d	d	n/a
229.3415	0.105	458683	keystroke_i	i	n/a
229.4925	0.104	458985	keystroke_n	n	n/a
229.582	0.0905	459164	keystroke_g	g	n/a
229.732	0.09	459464	keystroke_Key.space	Key.space	n/a
230.152	0.0755	460304	keystroke_b	b	n/a
230.257	0.1955	460514	keystroke_e	e	n/a
230.4065	0.1655	460813	keystroke_a	a	n/a
230.557	0.1355	461114	keystroke_d	d	n/a
231.0075	0.06	462015	keystroke_s	s	n/a
231.2325	0.045	462465	keystroke_Key.space	Key.space	n/a
231.6825	0.06	463365	keystroke_n	n	n/a
231.7725	0.06	463545	keystroke_e	e	n/a
231.9375	0.105	463875	keystroke_e	e	n/a
232.0875	0.12	464175	keystroke_d	d	n/a
232.5825	0.104	465165	keystroke_n	n	n/a
232.9425	0.09	465885	keystroke_'	'	n/a
233.077	0.09	466154	keystroke_t	t	n/a
233.2565	0.045	466513	keystroke_Key.space	Key.space	n/a
233.6775	0.119	467355	keystroke_Key.backspace	Key.backspace	n/a
233.9015	0.075	467803	keystroke_Key.enter	Key.enter	n/a
233.9835	6.55	467967	prompt	n/a	villa mainstream kinda shock\n
234.817	0.075	469634	keystroke_c	c	n/a
235.207	0.135	470414	keystroke_Key.backspace	Key.backspace	n/a
235.4025	0.0895	470805	keystroke_v	v	n/a
235.507	0.09	471014	keystroke_i	i	n/a
235.7325	0.074	471465	keystroke_l	l	n/a
235.8525	0.075	471705	keystroke_l	l	n/a
235.9425	0.09	471885	keystroke_a	a	n/a
236.1525	0.06	472305	keystroke_Key.space	Key.space	n/a
236.407	0.075	472814	keystroke_m	m	n/a
236.4975	0.0895	472995	keystroke_a	a	n/a
236.602	0.12	473204	keystroke_i	i	n/a
236.707	0.075	473414	keystroke_n	n	n/a
236.872	0.105	473744	keystroke_s	s	n/a
237.127	0.1055	474254	keystroke_t	t	n/a
237.2015	0.12	474403	keystroke_r	r	n/a
237.4125	0.0745	474825	keystroke_e	e	n/a
237.5625	0.09	475125	keystroke_e	e	n/a
237.757	0.0745	475514	keystroke_m	m	n/a
238.627	0.075	477254	keystroke_Key.space	Key.space	n/a
238.882	0.06	477764	keystroke_k	k	n/a
239.077	0.105	478154	keystroke_i	i	n/a
239.152	0.09	478304	keystroke_n	n	n/a
239.212	0.135	478424	keystroke_d	d	n/a
239.362	0.105	478724	keystroke_a	a	n/a
239.512	0.09	479024	keystroke_Key.space	Key.space	n/a
239.812	0.105	479624	keystroke_s	s	n/a
239.902	0.09	479804	keystroke_h	h	n/a
240.067	0.12	480134	keystroke_o	o	n/a
240.2025	0.0895	480405	keystroke_c	c	n/a
240.307	0.1055	480614	keystroke_k	k	n/a
240.427	0.1045	480854	keystroke_Key.enter	Key.enter	n/a
240.5365	9.703	481073	prompt	n/a	giants when locator termination\n
241.567	0.09	483134	keystroke_g	g	n/a
241.717	0.1055	483434	keystroke_i	i	n/a
241.837	0.0455	483674	keystroke_a	a	n/a
241.927	0.105	483854	keystroke_n	n	n/a
242.1525	0.09	484305	keystroke_t	t	n/a
242.377	0.075	484754	keystroke_s	s	n/a
242.542	0.045	485084	keystroke_Key.space	Key.space	n/a
242.7815	0.09	485563	keystroke_w	w	n/a
242.9025	0.104	485805	keystroke_h	h	n/a
243.0515	0.076	486103	keystroke_e	e	n/a
243.142	0.0745	486284	keystroke_n	n	n/a
243.322	0.0745	486644	keystroke_Key.space	Key.space	n/a
243.5315	0.1055	487063	keystroke_l	l	n/a
243.9675	0.045	487935	keystroke_c	c	n/a
244.3275	0.149	488655	keystroke_Key.backspace	Key.backspace	n/a
244.5375	0.135	489075	keystroke_o	o	n/a
244.6865	0.121	489373	keystroke_c	c	n/a
245.2725	0.09	490545	keystroke_a	a	n/a
245.5415	0.075	491083	keystroke_t	t	n/a
245.6625	0.135	491325	keystroke_o	o	n/a
245.7815	0.09	491563	keystroke_r	r	n/a
246.5615	0.0755	493123	keystroke_Key.space	Key.space	n/a
246.952	0.06	493904	keystroke_e	e	n/a
247.0425	0.1795	494085	keystroke_t	t	n/a
247.417	0.0755	494834	keystroke_Key.backspace	Key.backspace	n/a
247.567	0.09	495134	keystroke_Key.backspace	Key.backspace	n/a
247.687	0.12	495374	keystroke_t	t	n/a
247.9115	0.12	495823	keystroke_e	e	n/a
248.0775	0.075	496155	keystroke_r	r	n/a
248.182	0.1055	496364	keystroke_m	m	n/a
248.3625	0.1045	496725	keystroke_i	i	n/a
248.4365	0.106	496873	keystroke_n	n	n/a
248.5725	0.135	497145	keystroke_a	a	n/a
248.8725	0.1045	497745	keystroke_t	t	n/a
249.292	0.24	498584	keystroke_i	i	n/a
249.3665	0.18	498733	keystroke_o	o	n/a
249.4875	0.134	498975	keystroke_n	n	n/a
250.147	0.0905	500294	keystroke_Key.enter	Key.enter	n/a
250.2435	7.7655	500487	prompt	n/a	fisher raise helena exclude\n
251.437	0.09	502874	keystroke_f	f	n/a
251.6025	0.1495	503205	keystroke_i	i	n/a
251.767	0.12	503534	keystroke_s	s	n/a
251.902	0.105	503804	keystroke_h	h	n/a
252.022	0.1495	504044	keystroke_e	e	n/a
252.1865	0.0755	504373	keystroke_r	r	n/a
252.2915	0.1955	504583	keystroke_Key.space	Key.space	n/a
252.6515	0.106	505303	keystroke_r	r	n/a
252.787	0.105	505574	keystroke_a	a	n/a
252.877	0.105	505754	keystroke_i	i	n/a
253.027	0.105	506054	keystroke_s	s	n/a
253.222	0.075	506444	keystroke_e	e	n/a
253.327	0.09	506654	keystroke_Key.space	Key.space	n/a
253.5975	0.0895	507195	keystroke_h	h	n/a
253.717	0.075	507434	keystroke_e	e	n/a
253.927	0.1205	507854	keystroke_l	l	n/a
254.167	0.075	508334	keystroke_e	e	n/a
254.393	0.194	508786	keystroke_n	n	n/a
254.527	0.105	509054	keystroke_a	a	n/a
255.0965	0.075	510193	keystroke_Key.space	Key.space	n/a
255.4565	0.091	510913	keystroke_e	e	n/a
255.802	0.09	511604	keystroke_x	x	n/a
256.0415	0.0605	512083	keystroke_c	c	n/a
256.147	0.09	512294	keystroke_l	l	n/a
256.3575	0.1045	512715	keystroke_u	u	n/a
256.417	0.18	512834	keystroke_d	d	n/a
256.582	0.1805	513164	keystroke_e	e	n/a
256.702	0.12	513404	keystroke_d	d	n/a
257.467	0.12	514934	keystroke_Key.backspace	Key.backspace	n/a
257.9165	0.09	515833	keystroke_Key.enter	Key.enter	n/a
258.0185	9.275	516037	prompt	n/a	sympathy mine laser extremely\n
258.892	0.075	517784	keystroke_s	s	n/a
259.027	0.105	518054	keystroke_y	y	n/a
259.297	0.105	518594	keystroke_m	m	n/a
259.597	0.12	519194	keystroke_p	p	n/a
259.747	0.0905	519494	keystroke_a	a	n/a
260.062	0.091	520124	keystroke_t	t	n/a
260.168	0.074	520336	keystroke_h	h	n/a
260.3025	0.105	520605	keystroke_y	y	n/a
260.512	0.0745	521024	keystroke_Key.space	Key.space	n/a
260.7675	0.0745	521535	keystroke_m	m	n/a
260.917	0.1355	521834	keystroke_i	i	n/a
261.022	0.105	522044	keystroke_n	n	n/a
261.157	0.0755	522314	keystroke_e	e	n/a
261.292	0.075	522584	keystroke_Key.space	Key.space	n/a
261.592	0.0905	523184	keystroke_l	l	n/a
261.727	0.0905	523454	keystroke_a	a	n/a
261.803	0.134	523606	keystroke_s	s	n/a
262.207	0.075	524414	keystroke_e	e	n/a
262.312	0.1195	524624	keystroke_r	r	n/a
262.4625	0.0745	524925	keystroke_Key.space	Key.space	n/a
262.822	0.09	525644	keystroke_e	e	n/a
263.107	0.075	526214	keystroke_x	x	n/a
263.407	0.1055	526814	keystroke_t	t	n/a
263.482	0.0905	526964	keystroke_r	r	n/a
263.6925	0.075	527385	keystroke_e	e	n/a
263.7965	0.106	527593	keystroke_m	m	n/a
263.9175	0.105	527835	keystroke_e	e	n/a
264.2025	0.135	528405	keystroke_l	l	n/a
264.382	0.0455	528764	keystroke_t	t	n/a
264.5925	0.09	529185	keystroke_y	y	n/a
264.7265	0.0905	529453	keystroke_Key.backspace	Key.backspace	n/a
264.8915	0.105	529783	keystroke_Key.backspace	Key.backspace	n/a
264.9825	0.089	529965	keystroke_y	y	n/a
265.7625	0.09	531525	keystroke_=	=	n/a
267.0225	0.059	534045	keystroke_Key.backspace	Key.backspace	n/a
267.2025	0.09	534405	keystroke_Key.enter	Key.enter	n/a
267.2985	12.4905	534597	prompt	n/a	challenging laboratory launches raymond\n
268.3265	0.0905	536653	keystroke_c	c	n/a
268.3875	0.0895	536775	keystroke_h	h	n/a
268.5075	0.0745	537015	keystroke_a	a	n/a
268.657	0.075	537314	keystroke_l	l	n/a
268.7915	0.061	537583	keystroke_l	l	n/a
268.8525	0.12	537705	keystroke_e	e	n/a
269.0175	0.075	538035	keystroke_n	n	n/a
269.1225	0.0745	538245	keystroke_g	g	n/a
269.2125	0.1195	538425	keystroke_i	i	n/a
269.317	0.105	538634	keystroke_n	n	n/a
269.392	0.075	538784	keystroke_g	g	n/a
269.512	0.09	539024	keystroke_Key.space	Key.space	n/a
270.157	0.0755	540314	keystroke_l	l	n/a
270.262	0.075	540524	keystroke_a	a	n/a
270.4115	0.09	540823	keystroke_b	b	n/a
270.6065	0.091	541213	keystroke_r	r	n/a
270.7575	0.074	541515	keystroke_a	a	n/a
271.0115	0.061	542023	keystroke_t	t	n/a
271.1325	0.075	542265	keystroke_o	o	n/a
271.2525	0.06	542505	keystroke_r	r	n/a
271.5065	0.105	543013	keystroke_y	y	n/a
271.747	0.0595	543494	keystroke_Key.space	Key.space	n/a
272.047	0.075	544094	keystroke_l	l	n/a
272.152	0.075	544304	keystroke_a	a	n/a
272.347	0.0605	544694	keystroke_u	u	n/a
272.437	0.105	544874	keystroke_n	n	n/a
272.587	0.075	545174	keystroke_c	c	n/a
272.7675	0.15	545535	keystroke_e	e	n/a
273.5475	0.105	547095	keystroke_=	=	n/a
273.907	0.075	547814	keystroke_Key.backspace	Key.backspace	n/a
274.057	0.075	548114	keystroke_Key.backspace	Key.backspace	n/a
274.3275	0.1495	548655	keystroke_h	h	n/a
274.447	0.165	548894	keystroke_d	d	n/a
274.552	0.135	549104	keystroke_e	e	n/a
274.987	0.06	549974	keystroke_Key.backspace	Key.backspace	n/a
275.107	0.1045	550214	keystroke_Key.backspace	Key.backspace	n/a
275.4075	0.195	550815	keystroke_e	e	n/a
275.5125	0.135	551025	keystroke_d	d	n/a
276.0365	0.075	552073	keystroke_Key.backspace	Key.backspace	n/a
276.202	0.0745	552404	keystroke_s	s	n/a
276.3515	0.0755	552703	keystroke_Key.space	Key.space	n/a
277.5215	0.09	555043	keystroke_y	y	n/a
277.8365	0.12	555673	keystroke_Key.backspace	Key.backspace	n/a
277.9415	0.165	555883	keystroke_r	r	n/a
278.0925	0.135	556185	keystroke_a	a	n/a
278.8425	0.06	557685	keystroke_y	y	n/a
278.9925	0.105	557985	keystroke_m	m	n/a
279.1575	0.134	558315	keystroke_o	o	n/a
279.262	0.1055	558524	keystroke_n	n	n/a
279.4125	0.09	558825	keystroke_d	d	n/a
279.6965	0.09	559393	keystroke_Key.enter	Key.enter	n/a
279.7935	7.96	559587	prompt	n/a	moment puts water subsidiaries\n
280.5975	0.0895	561195	keystroke_m	m	n/a
280.777	0.135	561554	keystroke_o	o	n/a
280.897	0.1505	561794	keystroke_m	m	n/a
281.1075	0.134	562215	keystroke_e	e	n/a
281.1965	0.1205	562393	keystroke_n	n	n/a
281.347	0.0895	562694	keystroke_t	t	n/a
281.497	0.0445	562994	keystroke_Key.space	Key.space	n/a
281.797	0.1495	563594	keystroke_p	p	n/a
282.1875	0.0745	564375	keystroke_u	u	n/a
282.307	0.09	564614	keystroke_t	t	n/a
282.6365	0.09	565273	keystroke_d	d	n/a
282.757	0.09	565514	keystroke_Key.space	Key.space	n/a
283.147	0.165	566294	keystroke_w	w	n/a
283.2675	0.1345	566535	keystroke_a	a	n/a
283.5075	0.1195	567015	keystroke_t	t	n/a
283.6125	0.18	567225	keystroke_e	e	n/a
283.7475	0.135	567495	keystroke_r	r	n/a
283.8365	0.091	567673	keystroke_Key.space	Key.space	n/a
284.1975	0.0445	568395	keystroke_s	s	n/a
284.602	0.1205	569204	keystroke_u	u	n/a
284.932	0.09	569864	keystroke_b	b	n/a
285.112	0.09	570224	keystroke_s	s	n/a
286.4465	0.0605	572893	keystroke_i	i	n/a
286.6725	0.104	573345	keystroke_d	d	n/a
286.7615	0.1055	573523	keystroke_a	a	n/a
286.973	0.074	573946	keystroke_r	r	n/a
287.1215	0.106	574243	keystroke_i	i	n/a
287.212	0.1205	574424	keystroke_e	e	n/a
287.4825	0.0895	574965	keystroke_s	s	n/a
287.692	0.06	575384	keystroke_Key.enter	Key.enter	n/a
287.758	10.5555	575516	prompt	n/a	relevant recommendation psychological occurred\n
288.6815	0.105	577363	keystroke_r	r	n/a
288.757	0.1045	577514	keystroke_e	e	n/a
288.9515	0.076	577903	keystroke_l	l	n/a
289.0125	0.104	578025	keystroke_e	e	n/a
289.2515	0.076	578503	keystroke_v	v	n/a
289.4765	0.076	578953	keystroke_a	a	n/a
289.5675	0.105	579135	keystroke_n	n	n/a
289.8525	0.075	579705	keystroke_t	t	n/a
290.347	0.06	580694	keystroke_Key.space	Key.space	n/a
290.6475	0.1045	581295	keystroke_r	r	n/a
290.737	0.1195	581474	keystroke_e	e	n/a
290.992	0.06	581984	keystroke_c	c	n/a
291.0675	0.164	582135	keystroke_o	o	n/a
291.3215	0.1205	582643	keystroke_m	m	n/a
291.817	0.0755	583634	keystroke_m	m	n/a
292.147	0.105	584294	keystroke_e	e	n/a
292.3865	0.06	584773	keystroke_n	n	n/a
292.5365	0.105	585073	keystroke_d	d	n/a
292.7015	0.1205	585403	keystroke_a	a	n/a
292.882	0.09	585764	keystroke_t	t	n/a
293.0165	0.15	586033	keystroke_o	o	n/a
293.0325	0.149	586065	keystroke_i	i	n/a
293.1225	0.12	586245	keystroke_n	n	n/a
293.797	0.0295	587594	keystroke_Key.space	Key.space	n/a
294.1115	0.12	588223	keystroke_p	p	n/a
294.4265	0.0605	588853	keystroke_s	s	n/a
294.6065	0.106	589213	keystroke_y	y	n/a
294.9225	0.059	589845	keystroke_c	c	n/a
295.0115	0.12	590023	keystroke_h	h	n/a
295.2965	0.105	590593	keystroke_o	o	n/a
295.5215	0.0755	591043	keystroke_l	l	n/a
295.717	0.075	591434	keystroke_o	o	n/a
296.287	0.0895	592574	keystroke_g	g	n/a
296.437	0.0895	592874	keystroke_i	i	n/a
296.5865	0.135	593173	keystroke_c	c	n/a
296.7365	0.0905	593473	keystroke_a	a	n/a
296.8115	0.076	593623	keystroke_l	l	n/a
297.0665	0.075	594133	keystroke_Key.space	Key.space	n/a
297.3075	0.089	594615	keystroke_o	o	n/a
297.4425	0.06	594885	keystroke_c	c	n/a
297.5765	0.1055	595153	keystroke_c	c	n/a
297.7565	0.09	595513	keystroke_u	u	n/a
297.922	0.1045	595844	keystroke_r	r	n/a
298.0115	0.181	596023	keystroke_e	e	n/a
298.1765	0.106	596353	keystroke_d	d	n/a
298.237	0.075	596474	keystroke_Key.enter	Key.enter	n/a
298.3165	7.377	596633	prompt	n/a	pete fabulous could individuals\n
299.182	0.0595	598364	keystroke_p	p	n/a
299.227	0.135	598454	keystroke_e	e	n/a
299.467	0.135	598934	keystroke_t	t	n/a
299.6165	0.09	599233	keystroke_e	e	n/a
299.7665	0.06	599533	keystroke_Key.space	Key.space	n/a
300.172	0.165	600344	keystroke_f	f	n/a
300.4125	0.075	600825	keystroke_a	a	n/a
300.5615	0.0905	601123	keystroke_b	b	n/a
300.697	0.0895	601394	keystroke_u	u	n/a
300.967	0.075	601934	keystroke_l	l	n/a
301.1775	0.0745	602355	keystroke_o	o	n/a
301.402	0.105	602804	keystroke_u	u	n/a
301.612	0.075	603224	keystroke_s	s	n/a
301.807	0.0445	603614	keystroke_Key.space	Key.space	n/a
302.287	0.0605	604574	keystroke_c	c	n/a
302.377	0.06	604754	keystroke_o	o	n/a
302.557	0.09	605114	keystroke_u	u	n/a
302.782	0.105	605564	keystroke_l	l	n/a
302.977	0.075	605954	keystroke_d	d	n/a
303.397	0.09	606794	keystroke_Key.space	Key.space	n/a
303.637	0.105	607274	keystroke_i	i	n/a
303.712	0.105	607424	keystroke_n	n	n/a
304.147	0.075	608294	keystroke_d	d	n/a
304.252	0.12	608504	keystroke_i	i	n/a
304.447	0.075	608894	keystroke_v	v	n/a
304.567	0.105	609134	keystroke_i	i	n/a
304.792	0.09	609584	keystroke_d	d	n/a
304.927	0.075	609854	keystroke_u	u	n/a
305.047	0.12	610094	keystroke_a	a	n/a
305.197	0.09	610394	keystroke_l	l	n/a
305.632	0.06	611264	keystroke_Key.enter	Key.enter	n/a
305.6985	10.735	611397	prompt	n/a	thanksgiving huntington what're serious\n
306.757	0.0895	613514	keystroke_t	t	n/a
306.8915	0.091	613783	keystroke_h	h	n/a
306.997	0.09	613994	keystroke_a	a	n/a
307.252	0.0745	614504	keystroke_n	n	n/a
307.6565	0.09	615313	keystroke_k	k	n/a
307.8065	0.105	615613	keystroke_s	s	n/a
308.167	0.03	616334	keystroke_g	g	n/a
308.242	0.1205	616484	keystroke_i	i	n/a
308.497	0.0755	616994	keystroke_v	v	n/a
308.587	0.165	617174	keystroke_i	i	n/a
308.692	0.12	617384	keystroke_n	n	n/a
308.7525	0.0895	617505	keystroke_g	g	n/a
308.917	0.105	617834	keystroke_Key.space	Key.space	n/a
309.547	0.105	619094	keystroke_h	h	n/a
309.6665	0.135	619333	keystroke_u	u	n/a
309.8315	0.12	619663	keystroke_n	n	n/a
310.0575	0.074	620115	keystroke_t	t	n/a
310.2365	0.15	620473	keystroke_i	i	n/a
310.3265	0.135	620653	keystroke_n	n	n/a
310.9565	0.075	621913	keystroke_g	g	n/a
311.1665	0.06	622333	keystroke_t	t	n/a
311.272	0.105	622544	keystroke_o	o	n/a
311.467	0.12	622934	keystroke_n	n	n/a
311.977	0.074	623954	keystroke_Key.space	Key.space	n/a
312.337	0.105	624674	keystroke_w	w	n/a
312.502	0.075	625004	keystroke_h	h	n/a
312.622	0.075	625244	keystroke_a	a	n/a
312.7715	0.0755	625543	keystroke_t	t	n/a
313.282	0.015	626564	keystroke_'	'	n/a
313.342	0.1495	626684	keystroke_r	r	n/a
313.432	0.0895	626864	keystroke_e	e	n/a
313.5365	0.09	627073	keystroke_Key.space	Key.space	n/a
314.1225	0.089	628245	keystroke_s	s	n/a
314.3475	0.09	628695	keystroke_e	e	n/a
314.4525	0.09	628905	keystroke_r	r	n/a
314.7065	0.09	629413	keystroke_i	i	n/a
315.3975	0.1045	630795	keystroke_o	o	n/a
316.087	0.1055	632174	keystroke_u	u	n/a
316.2225	0.105	632445	keystroke_s	s	n/a
316.3565	0.075	632713	keystroke_Key.enter	Key.enter	n/a
316.4405	11.1085	632881	prompt	n/a	removable tuition techniques this's\n
318.0525	0.0595	636105	keystroke_r	r	n/a
318.217	0.045	636434	keystroke_e	e	n/a
318.502	0.12	637004	keystroke_m	m	n/a
318.6075	0.1495	637215	keystroke_o	o	n/a
318.802	0.1055	637604	keystroke_v	v	n/a
318.9825	0.045	637965	keystroke_a	a	n/a
319.4925	0.045	638985	keystroke_b	b	n/a
321.2325	0.0895	642465	keystroke_l	l	n/a
321.337	0.075	642674	keystroke_e	e	n/a
321.532	0.089	643064	keystroke_Key.space	Key.space	n/a
322.012	0.0895	644024	keystroke_t	t	n/a
322.1625	0.074	644325	keystroke_u	u	n/a
322.372	0.075	644744	keystroke_i	i	n/a
322.477	0.075	644954	keystroke_t	t	n/a
322.6115	0.2105	645223	keystroke_i	i	n/a
322.6575	0.134	645315	keystroke_o	o	n/a
322.762	0.1205	645524	keystroke_n	n	n/a
323.107	0.0595	646214	keystroke_Key.space	Key.space	n/a
323.4975	0.104	646995	keystroke_t	t	n/a
323.6165	0.1355	647233	keystroke_e	e	n/a
323.9025	0.059	647805	keystroke_c	c	n/a
324.0815	0.0905	648163	keystroke_h	h	n/a
324.3515	0.076	648703	keystroke_n	n	n/a
324.6225	0.014	649245	keystroke_i	i	n/a
325.012	0.0895	650024	keystroke_q	q	n/a
325.162	0.0745	650324	keystroke_u	u	n/a
325.2825	0.09	650565	keystroke_e	e	n/a
325.5065	0.045	651013	keystroke_s	s	n/a
325.6715	0.0605	651343	keystroke_Key.space	Key.space	n/a
325.9125	0.074	651825	keystroke_t	t	n/a
326.002	0.0745	652004	keystroke_h	h	n/a
326.1065	0.1205	652213	keystroke_i	i	n/a
326.272	0.075	652544	keystroke_s	s	n/a
326.542	0.06	653084	keystroke_'	'	n/a
326.632	0.06	653264	keystroke_s	s	n/a
327.4715	0.075	654943	keystroke_Key.enter	Key.enter	n/a
327.5535	6.94	655107	prompt	n/a	remarkable division omega loops\n
328.357	0.0745	656714	keystroke_r	r	n/a
328.4015	0.105	656803	keystroke_e	e	n/a
328.627	0.0745	657254	keystroke_m	m	n/a
328.7025	0.074	657405	keystroke_a	a	n/a
328.867	0.06	657734	keystroke_r	r	n/a
329.077	0.09	658154	keystroke_k	k	n/a
329.227	0.09	658454	keystroke_a	a	n/a
329.392	0.1055	658784	keystroke_b	b	n/a
329.661	0.0915	659322	keystroke_l	l	n/a
329.767	0.075	659534	keystroke_e	e	n/a
329.9015	0.105	659803	keystroke_Key.space	Key.space	n/a
330.5765	0.09	661153	keystroke_d	d	n/a
330.787	0.1045	661574	keystroke_i	i	n/a
330.9515	0.075	661903	keystroke_v	v	n/a
331.057	0.12	662114	keystroke_i	i	n/a
331.327	0.075	662654	keystroke_s	s	n/a
331.417	0.24	662834	keystroke_i	i	n/a
331.507	0.135	663014	keystroke_o	o	n/a
331.582	0.1505	663164	keystroke_n	n	n/a
331.912	0.0745	663824	keystroke_Key.space	Key.space	n/a
332.377	0.12	664754	keystroke_o	o	n/a
332.557	0.1195	665114	keystroke_m	m	n/a
332.767	0.0905	665534	keystroke_e	e	n/a
333.0375	0.0745	666075	keystroke_g	g	n/a
333.187	0.09	666374	keystroke_a	a	n/a
333.412	0.075	666824	keystroke_Key.space	Key.space	n/a
333.7125	0.0595	667425	keystroke_l	l	n/a
333.892	0.0745	667784	keystroke_o	o	n/a
334.042	0.0455	668084	keystroke_o	o	n/a
334.192	0.1045	668384	keystroke_p	p	n/a
334.3115	0.061	668623	keystroke_s	s	n/a
334.4015	0.09	668803	keystroke_Key.enter	Key.enter	n/a
334.4975	10.061	668995	prompt	n/a	permanent threshold previews quality\n
335.347	0.09	670694	keystroke_p	p	n/a
335.4525	0.0895	670905	keystroke_e	e	n/a
335.5575	0.0745	671115	keystroke_r	r	n/a
335.737	0.105	671474	keystroke_m	m	n/a
335.872	0.09	671744	keystroke_a	a	n/a
336.0525	0.089	672105	keystroke_n	n	n/a
336.2325	0.089	672465	keystroke_e	e	n/a
336.3515	0.105	672703	keystroke_n	n	n/a
336.5165	0.1055	673033	keystroke_t	t	n/a
337.222	0.09	674444	keystroke_Key.space	Key.space	n/a
337.447	0.0905	674894	keystroke_t	t	n/a
337.5525	0.0745	675105	keystroke_h	h	n/a
337.7325	0.1495	675465	keystroke_r	r	n/a
337.851	0.1215	675702	keystroke_e	e	n/a
338.1525	0.09	676305	keystroke_s	s	n/a
338.332	0.09	676664	keystroke_h	h	n/a
338.7375	0.0895	677475	keystroke_o	o	n/a
338.9475	0.0895	677895	keystroke_l	l	n/a
339.817	0.09	679634	keystroke_f	f	n/a
340.177	0.06	680354	keystroke_Key.backspace	Key.backspace	n/a
340.552	0.09	681104	keystroke_d	d	n/a
340.702	0.045	681404	keystroke_Key.space	Key.space	n/a
340.9115	0.1055	681823	keystroke_p	p	n/a
341.107	0.1195	682214	keystroke_r	r	n/a
341.2115	0.136	682423	keystroke_e	e	n/a
341.512	0.075	683024	keystroke_v	v	n/a
341.6475	0.09	683295	keystroke_i	i	n/a
341.7225	0.1945	683445	keystroke_e	e	n/a
341.842	0.165	683684	keystroke_w	w	n/a
342.2165	0.09	684433	keystroke_s	s	n/a
342.592	0.09	685184	keystroke_Key.space	Key.space	n/a
343.207	0.0745	686414	keystroke_q	q	n/a
343.372	0.09	686744	keystroke_u	u	n/a
343.5225	0.0745	687045	keystroke_a	a	n/a
343.732	0.075	687464	keystroke_l	l	n/a
343.927	0.09	687854	keystroke_i	i	n/a
344.152	0.105	688304	keystroke_t	t	n/a
344.377	0.075	688754	keystroke_y	y	n/a
344.4675	0.0895	688935	keystroke_Key.enter	Key.enter	n/a
344.5635	5.41	689127	prompt	n/a	charity others shot grab\n
345.412	0.09	690824	keystroke_c	c	n/a
345.532	0.075	691064	keystroke_h	h	n/a
345.5925	0.1195	691185	keystroke_a	a	n/a
345.7575	0.119	691515	keystroke_r	r	n/a
346.027	0.1055	692054	keystroke_i	i	n/a
346.1765	0.09	692353	keystroke_t	t	n/a
346.3715	0.09	692743	keystroke_y	y	n/a
346.5215	0.09	693043	keystroke_Key.space	Key.space	n/a
347.092	0.105	694184	keystroke_o	o	n/a
347.212	0.12	694424	keystroke_t	t	n/a
347.347	0.0755	694694	keystroke_h	h	n/a
347.392	0.1345	694784	keystroke_e	e	n/a
347.5125	0.074	695025	keystroke_r	r	n/a
347.617	0.0895	695234	keystroke_Key.space	Key.space	n/a
347.8265	0.1055	695653	keystroke_s	s	n/a
347.9915	0.091	695983	keystroke_h	h	n/a
348.1415	0.105	696283	keystroke_o	o	n/a
348.2475	0.074	696495	keystroke_t	t	n/a
348.3815	0.09	696763	keystroke_Key.space	Key.space	n/a
349.222	0.135	698444	keystroke_g	g	n/a
349.342	0.1945	698684	keystroke_r	r	n/a
349.522	0.0905	699044	keystroke_a	a	n/a
349.657	0.09	699314	keystroke_b	b	n/a
349.8665	0.105	699733	keystroke_Key.enter	Key.enter	n/a
349.9785	7	699957	prompt	n/a	quit betting insertion mattress\n
350.767	0.104	701534	keystroke_q	q	n/a
350.9175	0.0745	701835	keystroke_u	u	n/a
351.112	0.0905	702224	keystroke_i	i	n/a
351.216	0.076	702432	keystroke_t	t	n/a
351.337	0.06	702674	keystroke_Key.space	Key.space	n/a
351.502	0.09	703004	keystroke_b	b	n/a
351.606	0.091	703212	keystroke_e	e	n/a
352.7325	0.0445	705465	keystroke_t	t	n/a
352.8815	0.0755	705763	keystroke_t	t	n/a
352.9725	0.119	705945	keystroke_i	i	n/a
353.0015	0.151	706003	keystroke_n	n	n/a
353.137	0.075	706274	keystroke_g	g	n/a
353.2715	0.105	706543	keystroke_Key.space	Key.space	n/a
353.677	0.1045	707354	keystroke_i	i	n/a
353.7515	0.1205	707503	keystroke_n	n	n/a
353.872	0.1195	707744	keystroke_s	s	n/a
354.217	0.1045	708434	keystroke_e	e	n/a
354.367	0.09	708734	keystroke_r	r	n/a
354.5765	0.075	709153	keystroke_t	t	n/a
354.6665	0.2405	709333	keystroke_i	i	n/a
354.771	0.1205	709542	keystroke_o	o	n/a
354.8325	0.119	709665	keystroke_n	n	n/a
355.177	0.0745	710354	keystroke_Key.space	Key.space	n/a
355.5365	0.09	711073	keystroke_m	m	n/a
355.6565	0.0755	711313	keystroke_e	e	n/a
355.867	0.045	711734	keystroke_t	t	n/a
355.987	0.09	711974	keystroke_t	t	n/a
356.242	0.1345	712484	keystroke_r	r	n/a
356.347	0.1045	712694	keystroke_e	e	n/a
356.5865	0.075	713173	keystroke_s	s	n/a
356.8865	0.0905	713773	keystroke_Key.enter	Key.enter	n/a
356.985	10.793	713970	prompt	n/a	trips regulations container occurs\n
358.492	0.045	716984	keystroke_t	t	n/a
358.656	0.1055	717312	keystroke_r	r	n/a
358.837	0.076	717674	keystroke_i	i	n/a
359.0625	0.104	718125	keystroke_p	p	n/a
359.2865	0.06	718573	keystroke_s	s	n/a
359.617	0.105	719234	keystroke_Key.space	Key.space	n/a
359.857	0.135	719714	keystroke_r	r	n/a
359.947	0.12	719894	keystroke_e	e	n/a
360.202	0.075	720404	keystroke_g	g	n/a
360.412	0.0595	720824	keystroke_u	u	n/a
360.6065	0.1055	721213	keystroke_l	l	n/a
360.697	0.09	721394	keystroke_a	a	n/a
360.877	0.0745	721754	keystroke_t	t	n/a
360.922	0.2405	721844	keystroke_i	i	n/a
361.0115	0.151	722023	keystroke_o	o	n/a
361.117	0.1045	722234	keystroke_n	n	n/a
361.2515	0.075	722503	keystroke_s	s	n/a
361.5515	0.09	723103	keystroke_Key.space	Key.space	n/a
362.317	0.105	724634	keystroke_c	c	n/a
362.452	0.09	724904	keystroke_o	o	n/a
362.557	0.089	725114	keystroke_n	n	n/a
362.6775	0.0595	725355	keystroke_t	t	n/a
362.932	0.105	725864	keystroke_a	a	n/a
363.0665	0.1355	726133	keystroke_i	i	n/a
363.127	0.1495	726254	keystroke_n	n	n/a
363.3065	0.075	726613	keystroke_t	t	n/a
363.637	0.0745	727274	keystroke_Key.backspace	Key.backspace	n/a
363.772	0.0745	727544	keystroke_Key.backspace	Key.backspace	n/a
363.802	0.1345	727604	keystroke_e	e	n/a
363.8775	0.12	727755	keystroke_r	r	n/a
364.0865	0.105	728173	keystroke_Key.space	Key.space	n/a
364.416	0.075	728832	keystroke_Key.backspace	Key.backspace	n/a
364.567	0.0745	729134	keystroke_Key.backspace	Key.backspace	n/a
364.701	0.091	729402	keystroke_Key.backspace	Key.backspace	n/a
365.4825	0.06	730965	keystroke_n	n	n/a
365.5565	0.135	731113	keystroke_e	e	n/a
365.6615	0.0905	731323	keystroke_r	r	n/a
365.7815	0.105	731563	keystroke_Key.space	Key.space	n/a
366.697	0.09	733394	keystroke_o	o	n/a
367.042	0.06	734084	keystroke_c	c	n/a
367.207	0.105	734414	keystroke_c	c	n/a
367.267	0.105	734534	keystroke_u	u	n/a
367.387	0.09	734774	keystroke_r	r	n/a
367.597	0.0745	735194	keystroke_s	s	n/a
367.702	0.0745	735404	keystroke_Key.enter	Key.enter	n/a
367.7815	10.167	735563	prompt	n/a	ignore fell valuation cheaper\n
368.647	0.059	737294	keystroke_i	i	n/a
369.007	0.074	738014	keystroke_g	g	n/a
369.097	0.075	738194	keystroke_n	n	n/a
369.292	0.074	738584	keystroke_o	o	n/a
369.4275	0.164	738855	keystroke_r	r	n/a
369.532	0.09	739064	keystroke_e	e	n/a
369.636	0.09	739272	keystroke_Key.space	Key.space	n/a
370.087	0.06	740174	keystroke_f	f	n/a
370.222	0.105	740444	keystroke_e	e	n/a
370.357	0.0595	740714	keystroke_l	l	n/a
370.4765	0.09	740953	keystroke_l	l	n/a
370.7165	0.0755	741433	keystroke_Key.space	Key.space	n/a
370.9415	0.105	741883	keystroke_c	c	n/a
371.0915	0.0755	742183	keystroke_a	a	n/a
371.2125	0.104	742425	keystroke_l	l	n/a
371.9165	0.06	743833	keystroke_Key.backspace	Key.backspace	n/a
372.0665	0.06	744133	keystroke_Key.backspace	Key.backspace	n/a
372.2165	0.045	744433	keystroke_Key.backspace	Key.backspace	n/a
372.757	0.075	745514	keystroke_v	v	n/a
372.877	0.09	745754	keystroke_a	a	n/a
372.997	0.0895	745994	keystroke_l	l	n/a
373.222	0.074	746444	keystroke_u	u	n/a
373.4625	0.1035	746925	keystroke_a	a	n/a
373.657	0.06	747314	keystroke_t	t	n/a
373.702	0.1945	747404	keystroke_i	i	n/a
373.747	0.1355	747494	keystroke_o	o	n/a
373.837	0.12	747674	keystroke_n	n	n/a
375.127	0.1045	750254	keystroke_Key.space	Key.space	n/a
375.2915	0.09	750583	keystroke_c	c	n/a
375.367	0.1195	750734	keystroke_h	h	n/a
375.4715	0.21	750943	keystroke_e	e	n/a
375.5765	0.1205	751153	keystroke_a	a	n/a
375.6665	0.0905	751333	keystroke_r	r	n/a
375.862	0.1505	751724	keystroke_p	p	n/a
375.997	0.1655	751994	keystroke_e	e	n/a
376.102	0.12	752204	keystroke_r	r	n/a
376.3715	0.0605	752743	keystroke_Key.backspace	Key.backspace	n/a
376.5215	0.0605	753043	keystroke_Key.backspace	Key.backspace	n/a
376.6565	0.075	753313	keystroke_Key.backspace	Key.backspace	n/a
376.792	0.0595	753584	keystroke_Key.backspace	Key.backspace	n/a
377.347	0.105	754694	keystroke_p	p	n/a
377.437	0.195	754874	keystroke_e	e	n/a
377.542	0.105	755084	keystroke_r	r	n/a
377.857	0.09	755714	keystroke_Key.enter	Key.enter	n/a
377.954	20.92	755908	prompt	n/a	stroke camp automotive member\n
378.892	0.06	757784	keystroke_s	s	n/a
379.147	0.1045	758294	keystroke_t	t	n/a
379.357	0.12	758714	keystroke_o	o	n/a
379.732	0.12	759464	keystroke_k	k	n/a
392.3635	0.029	784727	keystroke_Key.backspace	Key.backspace	n/a
392.482	0.075	784964	keystroke_Key.backspace	Key.backspace	n/a
393.2625	0.075	786525	keystroke_r	r	n/a
393.3825	0.135	786765	keystroke_o	o	n/a
393.4725	0.135	786945	keystroke_k	k	n/a
393.5925	0.09	787185	keystroke_e	e	n/a
393.7865	0.075	787573	keystroke_Key.space	Key.space	n/a
394.0875	0.12	788175	keystroke_c	c	n/a
394.3275	0.075	788655	keystroke_a	a	n/a
394.4475	0.09	788895	keystroke_m	m	n/a
394.5825	0.165	789165	keystroke_p	p	n/a
394.7015	0.121	789403	keystroke_l	l	n/a
395.0475	0.0745	790095	keystroke_Key.space	Key.space	n/a
395.5575	0.0595	791115	keystroke_s	s	n/a
395.677	0.0905	791354	keystroke_u	u	n/a
395.917	0.075	791834	keystroke_t	t	n/a
396.052	0.1055	792104	keystroke_o	o	n/a
396.2925	0.09	792585	keystroke_m	m	n/a
396.562	0.09	793124	keystroke_o	o	n/a
396.742	0.0755	793484	keystroke_t	t	n/a
396.877	0.1055	793754	keystroke_i	i	n/a
397.057	0.075	794114	keystroke_v	v	n/a
397.1925	0.09	794385	keystroke_e	e	n/a
397.3115	0.09	794623	keystroke_Key.space	Key.space	n/a
398.0025	0.075	796005	keystroke_m	m	n/a
398.0925	0.0595	796185	keystroke_e	e	n/a
398.198	0.089	796396	keystroke_m	m	n/a
398.4525	0.0745	796905	keystroke_b	b	n/a
398.497	0.135	796994	keystroke_e	e	n/a
398.602	0.105	797204	keystroke_r	r	n/a
398.797	0.075	797594	keystroke_Key.enter	Key.enter	n/a
398.878	9.6265	797756	prompt	n/a	hollow clarke helpful focusing\n
399.668	0.0745	799336	keystroke_h	h	n/a
400.147	0.1055	800294	keystroke_o	o	n/a
400.387	0.06	800774	keystroke_l	l	n/a
400.5225	0.075	801045	keystroke_l	l	n/a
400.687	0.1055	801374	keystroke_o	o	n/a
400.912	0.0605	801824	keystroke_w	w	n/a
401.032	0.075	802064	keystroke_Key.space	Key.space	n/a
401.152	0.09	802304	keystroke_c	c	n/a
401.272	0.09	802544	keystroke_l	l	n/a
401.3775	0.0745	802755	keystroke_a	a	n/a
401.5875	0.0905	803175	keystroke_r	r	n/a
401.707	0.105	803414	keystroke_k	k	n/a
401.8275	0.0745	803655	keystroke_e	e	n/a
402.592	0.075	805184	keystroke_Key.space	Key.space	n/a
402.847	0.075	805694	keystroke_h	h	n/a
403.042	0.075	806084	keystroke_e	e	n/a
403.1925	0.09	806385	keystroke_l	l	n/a
403.3875	0.105	806775	keystroke_p	p	n/a
403.6715	0.061	807343	keystroke_f	f	n/a
403.7775	0.0595	807555	keystroke_u	u	n/a
404.0325	0.075	808065	keystroke_l	l	n/a
404.4375	0.0595	808875	keystroke_Key.space	Key.space	n/a
404.812	0.06	809624	keystroke_f	f	n/a
405.007	0.09	810014	keystroke_o	o	n/a
405.2175	0.0895	810435	keystroke_c	c	n/a
405.442	0.076	810884	keystroke_u	u	n/a
405.622	0.09	811244	keystroke_s	s	n/a
405.7875	0.315	811575	keystroke_i	i	n/a
405.907	0.1655	811814	keystroke_o	o	n/a
405.997	0.135	811994	keystroke_n	n	n/a
406.6865	0.075	813373	keystroke_Key.backspace	Key.backspace	n/a
407.2715	0.075	814543	keystroke_Key.backspace	Key.backspace	n/a
407.782	0.075	815564	keystroke_n	n	n/a
407.902	0.0755	815804	keystroke_g	g	n/a
408.442	0.06	816884	keystroke_Key.enter	Key.enter	n/a
408.5115	10.3875	817023	prompt	n/a	arrange premises puts cholesterol\n
409.312	0.0905	818624	keystroke_a	a	n/a
409.522	0.0455	819044	keystroke_r	r	n/a
409.642	0.075	819284	keystroke_r	r	n/a
409.7925	0.1045	819585	keystroke_a	a	n/a
409.897	0.0905	819794	keystroke_n	n	n/a
410.002	0.105	820004	keystroke_g	g	n/a
410.092	0.1055	820184	keystroke_e	e	n/a
410.242	0.0905	820484	keystroke_Key.space	Key.space	n/a
410.782	0.09	821564	keystroke_p	p	n/a
411.037	0.12	822074	keystroke_r	r	n/a
411.112	0.135	822224	keystroke_e	e	n/a
411.382	0.105	822764	keystroke_m	m	n/a
411.622	0.105	823244	keystroke_i	i	n/a
411.787	0.075	823574	keystroke_s	s	n/a
412.117	0.09	824234	keystroke_e	e	n/a
412.357	0.075	824714	keystroke_s	s	n/a
412.717	0.06	825434	keystroke_Key.space	Key.space	n/a
413.017	0.1055	826034	keystroke_p	p	n/a
413.2725	0.09	826545	keystroke_u	u	n/a
413.3775	0.075	826755	keystroke_t	t	n/a
413.5425	0.075	827085	keystroke_s	s	n/a
413.6475	0.1045	827295	keystroke_Key.space	Key.space	n/a
414.067	0.045	828134	keystroke_c	c	n/a
414.142	0.0905	828284	keystroke_h	h	n/a
414.3675	0.0895	828735	keystroke_o	o	n/a
414.5925	0.104	829185	keystroke_l	l	n/a
415.7925	0.075	831585	keystroke_e	e	n/a
416.0025	0.1195	832005	keystroke_s	s	n/a
416.2725	0.0895	832545	keystroke_t	t	n/a
416.8575	0.12	833715	keystroke_e	e	n/a
416.9925	0.1195	833985	keystroke_r	r	n/a
417.2475	0.03	834495	keystroke_a	a	n/a
417.352	0.1055	834704	keystroke_o	o	n/a
417.682	0.075	835364	keystroke_Key.backspace	Key.backspace	n/a
417.847	0.0755	835694	keystroke_Key.backspace	Key.backspace	n/a
418.162	0.1055	836324	keystroke_o	o	n/a
418.3875	0.12	836775	keystroke_l	l	n/a
418.7925	0.1045	837585	keystroke_Key.enter	Key.enter	n/a
418.903	7.616	837806	prompt	n/a	criticism fine dame pete\n
419.6325	0.075	839265	keystroke_c	c	n/a
419.8575	0.0595	839715	keystroke_r	r	n/a
420.0375	0.1045	840075	keystroke_i	i	n/a
420.112	0.1055	840224	keystroke_s	s	n/a
420.502	0.1055	841004	keystroke_Key.backspace	Key.backspace	n/a
420.637	0.09	841274	keystroke_t	t	n/a
420.9975	0.18	841995	keystroke_i	i	n/a
422.1375	0.075	844275	keystroke_c	c	n/a
422.3325	0.0895	844665	keystroke_i	i	n/a
422.452	0.0895	844904	keystroke_s	s	n/a
422.6775	0.104	845355	keystroke_m	m	n/a
422.9025	0.075	845805	keystroke_Key.space	Key.space	n/a
423.817	0.0755	847634	keystroke_f	f	n/a
423.937	0.1355	847874	keystroke_i	i	n/a
424.342	0.1055	848684	keystroke_b	b	n/a
424.5065	0.076	849013	keystroke_e	e	n/a
424.6265	0.1055	849253	keystroke_Key.space	Key.space	n/a
424.8675	0.1495	849735	keystroke_d	d	n/a
424.987	0.12	849974	keystroke_a	a	n/a
425.077	0.105	850154	keystroke_m	m	n/a
425.1975	0.075	850395	keystroke_e	e	n/a
425.317	0.09	850634	keystroke_Key.space	Key.space	n/a
425.9775	0.075	851955	keystroke_p	p	n/a
426.0375	0.105	852075	keystroke_e	e	n/a
426.247	0.1055	852494	keystroke_t	t	n/a
426.337	0.1055	852674	keystroke_e	e	n/a
426.427	0.0905	852854	keystroke_Key.enter	Key.enter	n/a
426.523	6.581	853046	prompt	n/a	toll optimum valley promises\n
427.477	0.09	854954	keystroke_t	t	n/a
427.6125	0.0745	855225	keystroke_o	o	n/a
427.8225	0.0595	855645	keystroke_l	l	n/a
427.9425	0.105	855885	keystroke_l	l	n/a
428.1665	0.075	856333	keystroke_Key.space	Key.space	n/a
428.3925	0.089	856785	keystroke_o	o	n/a
428.6315	0.136	857263	keystroke_p	p	n/a
429.0675	0.09	858135	keystroke_t	t	n/a
429.1725	0.09	858345	keystroke_i	i	n/a
429.3365	0.091	858673	keystroke_m	m	n/a
429.5175	0.12	859035	keystroke_u	u	n/a
429.7275	0.09	859455	keystroke_m	m	n/a
429.9825	0.059	859965	keystroke_Key.space	Key.space	n/a
430.2215	0.106	860443	keystroke_v	v	n/a
430.357	0.0905	860714	keystroke_a	a	n/a
430.4475	0.06	860895	keystroke_l	l	n/a
430.5965	0.0755	861193	keystroke_l	l	n/a
430.6865	0.0905	861373	keystroke_e	e	n/a
430.9875	0.1045	861975	keystroke_y	y	n/a
431.197	0.075	862394	keystroke_Key.space	Key.space	n/a
431.707	0.105	863414	keystroke_p	p	n/a
431.9175	0.0745	863835	keystroke_r	r	n/a
432.007	0.1055	864014	keystroke_o	o	n/a
432.2325	0.09	864465	keystroke_m	m	n/a
432.397	0.1045	864794	keystroke_i	i	n/a
432.5465	0.0605	865093	keystroke_s	s	n/a
432.7265	0.076	865453	keystroke_e	e	n/a
432.9375	0.0595	865875	keystroke_s	s	n/a
433.0115	0.09	866023	keystroke_Key.enter	Key.enter	n/a
433.11	6.383	866220	prompt	n/a	computed equal reaction palmer\n
433.8825	0.0745	867765	keystroke_c	c	n/a
433.972	0.136	867944	keystroke_o	o	n/a
434.077	0.0905	868154	keystroke_m	m	n/a
434.227	0.0755	868454	keystroke_p	p	n/a
434.452	0.0595	868904	keystroke_u	u	n/a
434.5425	0.105	869085	keystroke_t	t	n/a
434.6775	0.165	869355	keystroke_e	e	n/a
434.872	0.105	869744	keystroke_d	d	n/a
435.0225	0.075	870045	keystroke_Key.space	Key.space	n/a
435.5175	0.0745	871035	keystroke_e	e	n/a
435.817	0.09	871634	keystroke_q	q	n/a
436.0275	0.0745	872055	keystroke_u	u	n/a
436.163	0.074	872326	keystroke_a	a	n/a
436.282	0.105	872564	keystroke_l	l	n/a
436.537	0.0755	873074	keystroke_Key.space	Key.space	n/a
436.8225	0.1045	873645	keystroke_r	r	n/a
436.8825	0.135	873765	keystroke_e	e	n/a
436.9875	0.12	873975	keystroke_a	a	n/a
437.257	0.075	874514	keystroke_c	c	n/a
437.452	0.0745	874904	keystroke_t	t	n/a
437.497	0.225	874994	keystroke_i	i	n/a
437.5875	0.104	875175	keystroke_o	o	n/a
437.6615	0.12	875323	keystroke_n	n	n/a
437.9475	0.074	875895	keystroke_Key.space	Key.space	n/a
438.217	0.165	876434	keystroke_p	p	n/a
438.427	0.06	876854	keystroke_a	a	n/a
438.652	0.09	877304	keystroke_l	l	n/a
438.937	0.0755	877874	keystroke_m	m	n/a
439.027	0.135	878054	keystroke_e	e	n/a
439.192	0.105	878384	keystroke_r	r	n/a
439.432	0.06	878864	keystroke_Key.enter	Key.enter	n/a
439.499	9.4745	878998	prompt	n/a	marathon disorder editors foster\n
440.2115	0.061	880423	keystroke_m	m	n/a
440.2725	0.105	880545	keystroke_a	a	n/a
440.482	0.0755	880964	keystroke_r	r	n/a
440.6175	0.104	881235	keystroke_a	a	n/a
440.782	0.06	881564	keystroke_t	t	n/a
440.962	0.09	881924	keystroke_h	h	n/a
441.1125	0.1045	882225	keystroke_o	o	n/a
441.262	0.1205	882524	keystroke_n	n	n/a
441.712	0.0755	883424	keystroke_Key.space	Key.space	n/a
442.1615	0.09	884323	keystroke_d	d	n/a
442.312	0.105	884624	keystroke_i	i	n/a
442.432	0.0895	884864	keystroke_s	s	n/a
442.6715	0.0905	885343	keystroke_o	o	n/a
443.902	0.105	887804	keystroke_r	r	n/a
444.2625	0.105	888525	keystroke_d	d	n/a
444.4265	0.1655	888853	keystroke_e	e	n/a
444.577	0.0895	889154	keystroke_r	r	n/a
445.162	0.075	890324	keystroke_Key.space	Key.space	n/a
445.5065	0.09	891013	keystroke_e	e	n/a
445.7315	0.09	891463	keystroke_d	d	n/a
445.8815	0.091	891763	keystroke_i	i	n/a
446.0325	0.075	892065	keystroke_t	t	n/a
446.137	0.0905	892274	keystroke_o	o	n/a
446.5865	0.106	893173	keystroke_r	r	n/a
446.8275	0.1045	893655	keystroke_s	s	n/a
446.992	0.075	893984	keystroke_Key.space	Key.space	n/a
447.217	0.09	894434	keystroke_f	f	n/a
447.337	0.09	894674	keystroke_o	o	n/a
447.412	0.06	894824	keystroke_r	r	n/a
447.8765	0.03	895753	keystroke_Key.backspace	Key.backspace	n/a
447.9525	0.0895	895905	keystroke_s	s	n/a
448.5675	0.09	897135	keystroke_t	t	n/a
448.702	0.1355	897404	keystroke_e	e	n/a
448.7925	0.1195	897585	keystroke_r	r	n/a
448.8825	0.0895	897765	keystroke_Key.enter	Key.enter	n/a
448.9785	9.385	897957	prompt	n/a	christianity containers beliefs favorite\n
449.7675	0.0895	899535	keystroke_c	c	n/a
449.902	0.105	899804	keystroke_h	h	n/a
450.052	0.0755	900104	keystroke_r	r	n/a
450.1715	0.106	900343	keystroke_i	i	n/a
450.3065	0.075	900613	keystroke_s	s	n/a
450.532	0.0905	901064	keystroke_t	t	n/a
450.652	0.12	901304	keystroke_i	i	n/a
450.892	0.045	901784	keystroke_a	a	n/a
451.2525	0.104	902505	keystroke_n	n	n/a
451.4765	0.1205	902953	keystroke_i	i	n/a
451.672	0.0905	903344	keystroke_t	t	n/a
451.8965	0.06	903793	keystroke_y	y	n/a
452.1225	0.074	904245	keystroke_Key.space	Key.space	n/a
452.7825	0.0745	905565	keystroke_c	c	n/a
452.8875	0.1195	905775	keystroke_o	o	n/a
452.9925	0.0895	905985	keystroke_n	n	n/a
453.2775	0.1045	906555	keystroke_t	t	n/a
453.952	0.1205	907904	keystroke_a	a	n/a
454.087	0.0755	908174	keystroke_i	i	n/a
454.132	0.12	908264	keystroke_n	n	n/a
454.327	0.1505	908654	keystroke_e	e	n/a
454.522	0.12	909044	keystroke_r	r	n/a
454.7625	0.074	909525	keystroke_s	s	n/a
454.9715	0.0755	909943	keystroke_Key.space	Key.space	n/a
455.212	0.075	910424	keystroke_b	b	n/a
455.3025	0.0745	910605	keystroke_e	e	n/a
455.482	0.0755	910964	keystroke_l	l	n/a
455.662	0.1055	911324	keystroke_i	i	n/a
455.722	0.1205	911444	keystroke_e	e	n/a
456.157	0.0905	912314	keystroke_f	f	n/a
456.592	0.0745	913184	keystroke_s	s	n/a
456.7565	0.0905	913513	keystroke_Key.space	Key.space	n/a
456.9815	0.1055	913963	keystroke_f	f	n/a
457.102	0.12	914204	keystroke_a	a	n/a
457.342	0.0455	914684	keystroke_v	v	n/a
457.522	0.09	915044	keystroke_o	o	n/a
457.672	0.09	915344	keystroke_r	r	n/a
457.762	0.105	915524	keystroke_i	i	n/a
457.9275	0.0745	915855	keystroke_t	t	n/a
458.1365	0.09	916273	keystroke_e	e	n/a
458.2725	0.089	916545	keystroke_Key.enter	Key.enter	n/a
458.3675	10.991	916735	prompt	n/a	sporting demographic must jewish\n
459.0965	0.09	918193	keystroke_s	s	n/a
459.2475	0.09	918495	keystroke_p	p	n/a
459.4575	0.0745	918915	keystroke_o	o	n/a
459.5475	0.075	919095	keystroke_r	r	n/a
459.713	0.074	919426	keystroke_t	t	n/a
459.7725	0.135	919545	keystroke_i	i	n/a
459.847	0.135	919694	keystroke_n	n	n/a
459.997	0.0595	919994	keystroke_g	g	n/a
460.117	0.075	920234	keystroke_Key.space	Key.space	n/a
460.7315	0.0605	921463	keystroke_d	d	n/a
460.852	0.09	921704	keystroke_e	e	n/a
460.972	0.09	921944	keystroke_o	o	n/a
461.362	0.075	922724	keystroke_Key.backspace	Key.backspace	n/a
461.992	0.12	923984	keystroke_m	m	n/a
462.127	0.1205	924254	keystroke_o	o	n/a
462.4575	0.075	924915	keystroke_g	g	n/a
463.4765	0.09	926953	keystroke_r	r	n/a
463.7165	0.1055	927433	keystroke_a	a	n/a
463.8375	0.075	927675	keystroke_p	p	n/a
464.017	0.12	928034	keystroke_h	h	n/a
464.167	0.09	928334	keystroke_o	o	n/a
464.7375	0.12	929475	keystroke_c	c	n/a
465.0965	0.105	930193	keystroke_Key.backspace	Key.backspace	n/a
465.262	0.105	930524	keystroke_Key.backspace	Key.backspace	n/a
465.667	0.0745	931334	keystroke_i	i	n/a
465.8775	0.104	931755	keystroke_c	c	n/a
465.9965	0.06	931993	keystroke_Key.space	Key.space	n/a
467.167	0.0745	934334	keystroke_m	m	n/a
467.3775	0.195	934755	keystroke_u	u	n/a
467.527	0.0895	935054	keystroke_s	s	n/a
467.7665	0.0905	935533	keystroke_Key.space	Key.space	n/a
468.1565	0.0905	936313	keystroke_j	j	n/a
468.277	0.1055	936554	keystroke_e	e	n/a
468.502	0.0905	937004	keystroke_w	w	n/a
468.622	0.1045	937244	keystroke_i	i	n/a
468.8775	0.09	937755	keystroke_s	s	n/a
468.9825	0.12	937965	keystroke_h	h	n/a
469.2965	0.061	938593	keystroke_Key.enter	Key.enter	n/a
469.3665	9.202	938733	prompt	n/a	connector audi screensavers chain\n
471.0825	0.0895	942165	keystroke_c	c	n/a
471.1875	0.0895	942375	keystroke_o	o	n/a
471.382	0.075	942764	keystroke_n	n	n/a
471.517	0.1195	943034	keystroke_n	n	n/a
471.5765	0.105	943153	keystroke_e	e	n/a
471.7875	0.0745	943575	keystroke_c	c	n/a
471.9965	0.0605	943993	keystroke_t	t	n/a
472.0865	0.105	944173	keystroke_o	o	n/a
472.2075	0.1045	944415	keystroke_r	r	n/a
472.3575	0.1045	944715	keystroke_Key.space	Key.space	n/a
472.777	0.0595	945554	keystroke_a	a	n/a
472.9865	0.09	945973	keystroke_u	u	n/a
473.1215	0.09	946243	keystroke_d	d	n/a
473.482	0.09	946964	keystroke_i	i	n/a
473.7365	0.09	947473	keystroke_Key.space	Key.space	n/a
473.9615	0.09	947923	keystroke_c	c	n/a
474.292	0.09	948584	keystroke_Key.backspace	Key.backspace	n/a
474.397	0.0905	948794	keystroke_s	s	n/a
474.592	0.075	949184	keystroke_c	c	n/a
474.772	0.0755	949544	keystroke_r	r	n/a
474.9965	0.061	949993	keystroke_e	e	n/a
475.1315	0.0755	950263	keystroke_e	e	n/a
475.2375	0.0745	950475	keystroke_n	n	n/a
475.4165	0.1055	950833	keystroke_s	s	n/a
475.5975	0.105	951195	keystroke_a	a	n/a
476.062	0.045	952124	keystroke_c	c	n/a
476.452	0.12	952904	keystroke_Key.backspace	Key.backspace	n/a
476.542	0.075	953084	keystroke_v	v	n/a
476.7075	0.165	953415	keystroke_e	e	n/a
476.812	0.135	953624	keystroke_r	r	n/a
477.337	0.105	954674	keystroke_Key.space	Key.space	n/a
477.937	0.0905	955874	keystroke_c	c	n/a
478.042	0.09	956084	keystroke_h	h	n/a
478.147	0.075	956294	keystroke_a	a	n/a
478.2075	0.1645	956415	keystroke_i	i	n/a
478.297	0.12	956594	keystroke_n	n	n/a
478.477	0.09	956954	keystroke_Key.enter	Key.enter	n/a
478.574	6.6095	957148	prompt	n/a	senate ratios unlike global\n
479.197	0.09	958394	keystroke_s	s	n/a
479.4075	0.074	958815	keystroke_e	e	n/a
479.5715	0.0905	959143	keystroke_n	n	n/a
479.617	0.09	959234	keystroke_a	a	n/a
479.812	0.105	959624	keystroke_t	t	n/a
479.9775	0.1495	959955	keystroke_e	e	n/a
480.742	0.0745	961484	keystroke_Key.space	Key.space	n/a
481.177	0.12	962354	keystroke_r	r	n/a
481.312	0.09	962624	keystroke_a	a	n/a
481.4925	0.06	962985	keystroke_t	t	n/a
481.5975	0.224	963195	keystroke_i	i	n/a
481.7315	0.105	963463	keystroke_o	o	n/a
481.9425	0.089	963885	keystroke_s	s	n/a
482.1525	0.059	964305	keystroke_Key.space	Key.space	n/a
482.812	0.105	965624	keystroke_u	u	n/a
482.992	0.0905	965984	keystroke_n	n	n/a
483.232	0.075	966464	keystroke_l	l	n/a
483.427	0.075	966854	keystroke_i	i	n/a
483.682	0.09	967364	keystroke_k	k	n/a
483.787	0.075	967574	keystroke_e	e	n/a
483.937	0.09	967874	keystroke_Key.space	Key.space	n/a
484.207	0.075	968414	keystroke_g	g	n/a
484.3125	0.075	968625	keystroke_l	l	n/a
484.492	0.0905	968984	keystroke_o	o	n/a
484.687	0.0755	969374	keystroke_b	b	n/a
484.792	0.0895	969584	keystroke_a	a	n/a
484.942	0.0745	969884	keystroke_l	l	n/a
485.0915	0.09	970183	keystroke_Key.enter	Key.enter	n/a
485.189	9.865	970378	prompt	n/a	resistant houses heights modelling\n
485.9615	0.1055	971923	keystroke_r	r	n/a
486.0215	0.1205	972043	keystroke_e	e	n/a
486.262	0.075	972524	keystroke_s	s	n/a
486.4275	0.074	972855	keystroke_i	i	n/a
486.517	0.1045	973034	keystroke_s	s	n/a
486.8175	0.0745	973635	keystroke_t	t	n/a
486.9515	0.09	973903	keystroke_a	a	n/a
487.117	0.1055	974234	keystroke_n	n	n/a
487.2365	0.09	974473	keystroke_t	t	n/a
487.8365	0.06	975673	keystroke_Key.space	Key.space	n/a
488.0765	0.09	976153	keystroke_h	h	n/a
488.2115	0.106	976423	keystroke_o	o	n/a
488.407	0.0905	976814	keystroke_u	u	n/a
488.512	0.075	977024	keystroke_s	s	n/a
488.6465	0.15	977293	keystroke_e	e	n/a
488.962	0.0745	977924	keystroke_s	s	n/a
489.052	0.0895	978104	keystroke_Key.space	Key.space	n/a
489.3375	0.0895	978675	keystroke_h	h	n/a
489.457	0.0895	978914	keystroke_w	w	n/a
489.607	0.135	979214	keystroke_i	i	n/a
489.892	0.0745	979784	keystroke_g	g	n/a
489.982	0.105	979964	keystroke_h	h	n/a
490.072	0.09	980144	keystroke_t	t	n/a
490.5515	0.09	981103	keystroke_Key.backspace	Key.backspace	n/a
490.732	0.045	981464	keystroke_Key.backspace	Key.backspace	n/a
490.8675	0.029	981735	keystroke_Key.backspace	Key.backspace	n/a
490.9865	0.06	981973	keystroke_Key.backspace	Key.backspace	n/a
491.3465	0.09	982693	keystroke_Key.backspace	Key.backspace	n/a
491.752	0.09	983504	keystroke_e	e	n/a
491.8725	0.074	983745	keystroke_i	i	n/a
492.007	0.105	984014	keystroke_g	g	n/a
492.082	0.105	984164	keystroke_h	h	n/a
492.202	0.075	984404	keystroke_t	t	n/a
492.472	0.09	984944	keystroke_s	s	n/a
492.817	0.06	985634	keystroke_Key.space	Key.space	n/a
493.0725	0.0895	986145	keystroke_m	m	n/a
493.252	0.1205	986504	keystroke_o	o	n/a
493.417	0.075	986834	keystroke_d	d	n/a
493.522	0.09	987044	keystroke_e	e	n/a
493.687	0.0605	987374	keystroke_l	l	n/a
493.837	0.105	987674	keystroke_l	l	n/a
494.197	0.12	988394	keystroke_i	i	n/a
494.272	0.15	988544	keystroke_n	n	n/a
494.557	0.135	989114	keystroke_g	g	n/a
494.977	0.0745	989954	keystroke_Key.enter	Key.enter	n/a
495.0585	7.075	990117	prompt	n/a	shaved conditioning victor such\n
495.742	0.09	991484	keystroke_s	s	n/a
495.847	0.09	991694	keystroke_h	h	n/a
495.922	0.075	991844	keystroke_a	a	n/a
496.132	0.0605	992264	keystroke_v	v	n/a
496.282	0.075	992564	keystroke_e	e	n/a
496.4175	0.1195	992835	keystroke_d	d	n/a
496.657	0.075	993314	keystroke_Key.space	Key.space	n/a
497.107	0.075	994214	keystroke_c	c	n/a
497.197	0.075	994394	keystroke_o	o	n/a
497.3465	0.105	994693	keystroke_n	n	n/a
497.5725	0.0595	995145	keystroke_d	d	n/a
497.6775	0.105	995355	keystroke_i	i	n/a
497.916	0.0755	995832	keystroke_t	t	n/a
497.962	0.1955	995924	keystroke_i	i	n/a
498.0215	0.121	996043	keystroke_o	o	n/a
498.0965	0.136	996193	keystroke_n	n	n/a
498.4875	0.164	996975	keystroke_i	i	n/a
498.5925	0.179	997185	keystroke_n	n	n/a
498.862	0.09	997724	keystroke_g	g	n/a
499.012	0.09	998024	keystroke_Key.space	Key.space	n/a
499.807	0.059	999614	keystroke_v	v	n/a
499.9875	0.09	999975	keystroke_i	i	n/a
500.152	0.09	1000304	keystroke_c	c	n/a
500.4215	0.0755	1000843	keystroke_t	t	n/a
500.527	0.105	1001054	keystroke_o	o	n/a
500.6475	0.0745	1001295	keystroke_r	r	n/a
500.872	0.075	1001744	keystroke_Key.space	Key.space	n/a
501.292	0.06	1002584	keystroke_s	s	n/a
501.412	0.105	1002824	keystroke_u	u	n/a
501.7875	0.075	1003575	keystroke_c	c	n/a
501.847	0.09	1003694	keystroke_h	h	n/a
502.042	0.0895	1004084	keystroke_Key.enter	Key.enter	n/a
502.1375	8.396	1004275	prompt	n/a	mentioned troops declared clearance\n
502.912	0.075	1005824	keystroke_m	m	n/a
502.972	0.09	1005944	keystroke_e	e	n/a
503.392	0.09	1006784	keystroke_n	n	n/a
503.602	0.06	1007204	keystroke_t	t	n/a
503.8575	0.2545	1007715	keystroke_i	i	n/a
503.917	0.165	1007834	keystroke_o	o	n/a
504.0225	0.1495	1008045	keystroke_n	n	n/a
504.8015	0.1505	1009603	keystroke_e	e	n/a
504.9065	0.135	1009813	keystroke_d	d	n/a
505.0715	0.09	1010143	keystroke_Key.space	Key.space	n/a
505.552	0.105	1011104	keystroke_t	t	n/a
505.687	0.09	1011374	keystroke_r	r	n/a
505.852	0.06	1011704	keystroke_o	o	n/a
505.987	0.075	1011974	keystroke_o	o	n/a
506.1375	0.1045	1012275	keystroke_p	p	n/a
506.302	0.0595	1012604	keystroke_s	s	n/a
506.437	0.09	1012874	keystroke_Key.space	Key.space	n/a
506.7225	0.0745	1013445	keystroke_d	d	n/a
506.8415	0.1205	1013683	keystroke_e	e	n/a
507.037	0.075	1014074	keystroke_c	c	n/a
507.1865	0.0755	1014373	keystroke_l	l	n/a
507.3075	0.089	1014615	keystroke_a	a	n/a
507.5165	0.0755	1015033	keystroke_r	r	n/a
507.5765	0.15	1015153	keystroke_e	e	n/a
507.7275	0.1045	1015455	keystroke_d	d	n/a
507.9065	0.0755	1015813	keystroke_Key.space	Key.space	n/a
508.387	0.075	1016774	keystroke_c	c	n/a
508.507	0.0605	1017014	keystroke_l	l	n/a
508.597	0.135	1017194	keystroke_e	e	n/a
508.6715	0.12	1017343	keystroke_a	a	n/a
508.852	0.105	1017704	keystroke_r	r	n/a
509.3015	0.045	1018603	keystroke_a	a	n/a
509.3775	0.0745	1018755	keystroke_n	n	n/a
509.542	0.0905	1019084	keystroke_c	c	n/a
509.677	0.075	1019354	keystroke_e	e	n/a
510.457	0.075	1020914	keystroke_Key.enter	Key.enter	n/a
510.5385	5.935	1021077	prompt	n/a	cooper pond its wheat\n
511.492	0.0745	1022984	keystroke_c	c	n/a
511.5965	0.06	1023193	keystroke_o	o	n/a
511.7315	0.076	1023463	keystroke_o	o	n/a
511.9115	0.09	1023823	keystroke_p	p	n/a
511.9725	0.1195	1023945	keystroke_e	e	n/a
512.0765	0.091	1024153	keystroke_r	r	n/a
512.3465	0.0755	1024693	keystroke_Key.space	Key.space	n/a
512.6615	0.09	1025323	keystroke_p	p	n/a
512.872	0.0895	1025744	keystroke_o	o	n/a
513.0365	0.121	1026073	keystroke_n	n	n/a
513.3975	0.0745	1026795	keystroke_Key.space	Key.space	n/a
513.7565	0.09	1027513	keystroke_Key.backspace	Key.backspace	n/a
514.0715	0.0605	1028143	keystroke_d	d	n/a
514.147	0.0445	1028294	keystroke_Key.space	Key.space	n/a
514.3115	0.091	1028623	keystroke_i	i	n/a
514.492	0.09	1028984	keystroke_t	t	n/a
514.9275	0.0745	1029855	keystroke_s	s	n/a
515.1215	0.06	1030243	keystroke_Key.space	Key.space	n/a
515.3015	0.1055	1030603	keystroke_w	w	n/a
515.4665	0.09	1030933	keystroke_h	h	n/a
515.887	0.1645	1031774	keystroke_e	e	n/a
516.0215	0.1655	1032043	keystroke_a	a	n/a
516.1715	0.1205	1032343	keystroke_t	t	n/a
516.3965	0.0755	1032793	keystroke_Key.enter	Key.enter	n/a
516.478	17.6055	1032956	prompt	n/a	salmon dimension substantial northeast\n
517.5665	0.1205	1035133	keystroke_s	s	n/a
517.7015	0.0905	1035403	keystroke_a	a	n/a
517.8215	0.0755	1035643	keystroke_l	l	n/a
518.017	0.075	1036034	keystroke_m	m	n/a
518.167	0.0905	1036334	keystroke_o	o	n/a
518.302	0.1205	1036604	keystroke_n	n	n/a
518.572	0.075	1037144	keystroke_Key.space	Key.space	n/a
518.9615	0.06	1037923	keystroke_d	d	n/a
519.0225	0.105	1038045	keystroke_i	i	n/a
519.2165	0.0905	1038433	keystroke_m	m	n/a
519.3375	0.0895	1038675	keystroke_a	a	n/a
519.487	0.0755	1038974	keystroke_n	n	n/a
519.606	0.106	1039212	keystroke_e	e	n/a
519.9515	0.0605	1039903	keystroke_Key.backspace	Key.backspace	n/a
520.0865	0.0755	1040173	keystroke_Key.backspace	Key.backspace	n/a
520.2365	0.0755	1040473	keystroke_Key.backspace	Key.backspace	n/a
520.4165	0.075	1040833	keystroke_e	e	n/a
520.6875	0.09	1041375	keystroke_n	n	n/a
520.9865	0.105	1041973	keystroke_s	s	n/a
521.1815	0.2105	1042363	keystroke_i	i	n/a
521.272	0.105	1042544	keystroke_o	o	n/a
521.302	0.15	1042604	keystroke_n	n	n/a
521.857	0.075	1043714	keystroke_Key.space	Key.space	n/a
522.112	0.075	1044224	keystroke_s	s	n/a
522.2615	0.0905	1044523	keystroke_u	u	n/a
522.5465	0.0605	1045093	keystroke_s	s	n/a
522.7425	0.0895	1045485	keystroke_n	n	n/a
523.0415	0.09	1046083	keystroke_Key.backspace	Key.backspace	n/a
523.4315	0.105	1046863	keystroke_Key.backspace	Key.backspace	n/a
523.8215	0.0455	1047643	keystroke_b	b	n/a
523.8525	0.104	1047705	keystroke_s	s	n/a
524.092	0.1205	1048184	keystroke_t	t	n/a
524.2265	0.12	1048453	keystroke_a	a	n/a
524.377	0.09	1048754	keystroke_t	t	n/a
525.637	0.12	1051274	keystroke_Key.backspace	Key.backspace	n/a
529.1955	0.027	1058391	keystroke_n	n	n/a
529.807	0.105	1059614	keystroke_t	t	n/a
530.257	0.075	1060514	keystroke_i	i	n/a
530.392	0.105	1060784	keystroke_a	a	n/a
530.542	0.0905	1061084	keystroke_l	l	n/a
530.9915	0.0755	1061983	keystroke_Key.space	Key.space	n/a
531.592	0.075	1063184	keystroke_n	n	n/a
531.742	0.1345	1063484	keystroke_o	o	n/a
532.252	0.0605	1064504	keystroke_r	r	n/a
532.417	0.0905	1064834	keystroke_t	t	n/a
532.5225	0.135	1065045	keystroke_h	h	n/a
532.7325	0.119	1065465	keystroke_e	e	n/a
533.287	0.1505	1066574	keystroke_a	a	n/a
533.392	0.15	1066784	keystroke_s	s	n/a
533.7065	0.105	1067413	keystroke_t	t	n/a
533.992	0.0895	1067984	keystroke_Key.enter	Key.enter	n/a
534.0885	12.3855	1068177	prompt	n/a	miniature systems chose makers\n
539.215	0.1025	1078430	keystroke_m	m	n/a
539.3325	0.15	1078665	keystroke_i	i	n/a
539.407	0.1205	1078814	keystroke_n	n	n/a
539.6625	0.0745	1079325	keystroke_a	a	n/a
540.157	0.0905	1080314	keystroke_t	t	n/a
540.3225	0.0745	1080645	keystroke_u	u	n/a
540.412	0.1505	1080824	keystroke_r	r	n/a
540.5025	0.1195	1081005	keystroke_e	e	n/a
540.6375	0.074	1081275	keystroke_Key.space	Key.space	n/a
540.937	0.075	1081874	keystroke_s	s	n/a
541.147	0.0905	1082294	keystroke_y	y	n/a
541.2375	0.1055	1082475	keystroke_s	s	n/a
541.4025	0.075	1082805	keystroke_t	t	n/a
541.5525	0.075	1083105	keystroke_e	e	n/a
541.7475	0.105	1083495	keystroke_m	m	n/a
541.8825	0.059	1083765	keystroke_s	s	n/a
542.062	0.0755	1084124	keystroke_Key.space	Key.space	n/a
542.3775	0.0445	1084755	keystroke_c	c	n/a
542.4675	0.045	1084935	keystroke_h	h	n/a
542.5865	0.121	1085173	keystroke_o	o	n/a
542.693	0.0885	1085386	keystroke_s	s	n/a
542.9325	0.06	1085865	keystroke_e	e	n/a
543.0525	0.075	1086105	keystroke_Key.space	Key.space	n/a
543.2775	0.075	1086555	keystroke_m	m	n/a
543.3975	0.06	1086795	keystroke_a	a	n/a
543.7275	0.015	1087455	keystroke_l	l	n/a
545.3625	0.1195	1090725	keystroke_Key.backspace	Key.backspace	n/a
545.4375	0.1645	1090875	keystroke_k	k	n/a
545.557	0.165	1091114	keystroke_e	e	n/a
545.8425	0.12	1091685	keystroke_r	r	n/a
546.127	0.09	1092254	keystroke_s	s	n/a
546.3825	0.0895	1092765	keystroke_Key.enter	Key.enter	n/a
546.4775	5.861	1092955	prompt	n/a	deviant french down dental\n
547.2975	0.09	1094595	keystroke_d	d	n/a
547.4625	0.12	1094925	keystroke_e	e	n/a
547.688	0.09	1095376	keystroke_v	v	n/a
547.8525	0.09	1095705	keystroke_i	i	n/a
547.9275	0.105	1095855	keystroke_a	a	n/a
548.0475	0.105	1096095	keystroke_n	n	n/a
548.3325	0.03	1096665	keystroke_t	t	n/a
548.512	0.0755	1097024	keystroke_Key.space	Key.space	n/a
548.8575	0.0895	1097715	keystroke_f	f	n/a
548.9925	0.075	1097985	keystroke_r	r	n/a
549.2025	0.075	1098405	keystroke_e	e	n/a
549.337	0.105	1098674	keystroke_n	n	n/a
549.592	0.0755	1099184	keystroke_c	c	n/a
549.652	0.15	1099304	keystroke_h	h	n/a
549.967	0.105	1099934	keystroke_Key.space	Key.space	n/a
550.2075	0.0745	1100415	keystroke_d	d	n/a
550.3125	0.1045	1100625	keystroke_o	o	n/a
550.5675	0.12	1101135	keystroke_w	w	n/a
550.777	0.075	1101554	keystroke_n	n	n/a
551.002	0.09	1102004	keystroke_Key.space	Key.space	n/a
551.302	0.0755	1102604	keystroke_d	d	n/a
551.4975	0.0745	1102995	keystroke_e	e	n/a
551.617	0.0755	1103234	keystroke_n	n	n/a
551.737	0.09	1103474	keystroke_t	t	n/a
551.902	0.105	1103804	keystroke_a	a	n/a
552.022	0.09	1104044	keystroke_l	l	n/a
552.2475	0.0895	1104495	keystroke_Key.enter	Key.enter	n/a
552.343	9.7155	1104686	prompt	n/a	vermont merely research quotes\n
553.147	0.06	1106294	keystroke_v	v	n/a
553.312	0.105	1106624	keystroke_e	e	n/a
553.4025	0.075	1106805	keystroke_r	r	n/a
553.552	0.075	1107104	keystroke_m	m	n/a
553.7325	0.1355	1107465	keystroke_o	o	n/a
553.8225	0.135	1107645	keystroke_n	n	n/a
554.272	0.0455	1108544	keystroke_Key.space	Key.space	n/a
554.6175	0.0595	1109235	keystroke_Key.backspace	Key.backspace	n/a
554.737	0.0755	1109474	keystroke_t	t	n/a
554.9175	0.075	1109835	keystroke_Key.space	Key.space	n/a
555.5925	0.0745	1111185	keystroke_m	m	n/a
555.712	0.12	1111424	keystroke_e	e	n/a
555.833	0.179	1111666	keystroke_r	r	n/a
555.982	0.1205	1111964	keystroke_e	e	n/a
556.1625	0.135	1112325	keystroke_l	l	n/a
556.4475	0.105	1112895	keystroke_y	y	n/a
557.0475	0.06	1114095	keystroke_Key.space	Key.space	n/a
557.3475	0.21	1114695	keystroke_r	r	n/a
557.527	0.121	1115054	keystroke_e	e	n/a
557.7975	0.105	1115595	keystroke_s	s	n/a
559.4175	0.165	1118835	keystroke_e	e	n/a
559.5375	0.135	1119075	keystroke_a	a	n/a
559.7025	0.105	1119405	keystroke_r	r	n/a
559.9875	0.09	1119975	keystroke_c	c	n/a
560.0625	0.1045	1120125	keystroke_h	h	n/a
560.3325	0.09	1120665	keystroke_Key.space	Key.space	n/a
560.978	0.09	1121956	keystroke_q	q	n/a
561.143	0.075	1122286	keystroke_u	u	n/a
561.353	0.104	1122706	keystroke_o	o	n/a
561.473	0.1045	1122946	keystroke_t	t	n/a
561.6225	0.105	1123245	keystroke_e	e	n/a
561.877	0.0755	1123754	keystroke_s	s	n/a
561.997	0.0605	1123994	keystroke_Key.enter	Key.enter	n/a
562.0645	9.6095	1124129	prompt	n/a	stroke square salad geographical\n
562.7175	0.09	1125435	keystroke_s	s	n/a
562.9875	0.12	1125975	keystroke_t	t	n/a
563.0475	0.135	1126095	keystroke_r	r	n/a
563.2125	0.105	1126425	keystroke_o	o	n/a
563.3775	0.105	1126755	keystroke_k	k	n/a
563.4525	0.09	1126905	keystroke_e	e	n/a
563.677	0.075	1127354	keystroke_Key.space	Key.space	n/a
563.9175	0.09	1127835	keystroke_s	s	n/a
564.1875	0.09	1128375	keystroke_q	q	n/a
564.383	0.059	1128766	keystroke_u	u	n/a
564.4275	0.1195	1128855	keystroke_a	a	n/a
564.6075	0.15	1129215	keystroke_r	r	n/a
564.698	0.09	1129396	keystroke_e	e	n/a
564.8775	0.0745	1129755	keystroke_Key.space	Key.space	n/a
565.0875	0.15	1130175	keystroke_s	s	n/a
565.2525	0.105	1130505	keystroke_a	a	n/a
565.3875	0.105	1130775	keystroke_l	l	n/a
565.5075	0.0895	1131015	keystroke_a	a	n/a
565.882	0.1055	1131764	keystroke_f	f	n/a
566.4075	0.1345	1132815	keystroke_Key.backspace	Key.backspace	n/a
566.6925	0.0745	1133385	keystroke_d	d	n/a
566.812	0.075	1133624	keystroke_Key.space	Key.space	n/a
568.042	0.09	1136084	keystroke_g	g	n/a
568.372	0.0755	1136744	keystroke_e	e	n/a
568.5675	0.075	1137135	keystroke_o	o	n/a
568.972	0.1055	1137944	keystroke_g	g	n/a
569.0925	0.1355	1138185	keystroke_r	r	n/a
569.317	0.0905	1138634	keystroke_a	a	n/a
569.4975	0.135	1138995	keystroke_p	p	n/a
569.648	0.15	1139296	keystroke_h	h	n/a
569.8425	0.165	1139685	keystroke_o	o	n/a
570.637	0.1055	1141274	keystroke_Key.backspace	Key.backspace	n/a
570.907	0.075	1141814	keystroke_i	i	n/a
571.0425	0.1195	1142085	keystroke_c	c	n/a
571.1775	0.09	1142355	keystroke_a	a	n/a
571.2825	0.105	1142565	keystroke_l	l	n/a
571.5975	0.0745	1143195	keystroke_Key.enter	Key.enter	n/a
571.6785	8.86	1143357	prompt	n/a	intellectual everyone respective scotia\n
572.438	0.12	1144876	keystroke_i	i	n/a
572.527	0.105	1145054	keystroke_n	n	n/a
572.738	0.1045	1145476	keystroke_t	t	n/a
572.828	0.105	1145656	keystroke_e	e	n/a
573.038	0.06	1146076	keystroke_l	l	n/a
573.157	0.105	1146314	keystroke_l	l	n/a
573.4125	0.135	1146825	keystroke_e	e	n/a
574.057	0.075	1148114	keystroke_c	c	n/a
574.298	0.059	1148596	keystroke_t	t	n/a
574.402	0.0755	1148804	keystroke_u	u	n/a
574.538	0.09	1149076	keystroke_a	a	n/a
574.6425	0.09	1149285	keystroke_l	l	n/a
574.8825	0.0745	1149765	keystroke_Key.space	Key.space	n/a
575.1375	0.1055	1150275	keystroke_e	e	n/a
575.347	0.0755	1150694	keystroke_v	v	n/a
575.4975	0.12	1150995	keystroke_e	e	n/a
575.6325	0.105	1151265	keystroke_r	r	n/a
575.7675	0.09	1151535	keystroke_y	y	n/a
576.0665	0.151	1152133	keystroke_o	o	n/a
576.1575	0.135	1152315	keystroke_n	n	n/a
576.2775	0.09	1152555	keystroke_e	e	n/a
576.442	0.0905	1152884	keystroke_Key.space	Key.space	n/a
577.147	0.1055	1154294	keystroke_r	r	n/a
577.208	0.119	1154416	keystroke_e	e	n/a
577.432	0.09	1154864	keystroke_s	s	n/a
577.5975	0.0905	1155195	keystroke_p	p	n/a
577.703	0.0895	1155406	keystroke_e	e	n/a
577.9575	0.075	1155915	keystroke_c	c	n/a
578.1825	0.06	1156365	keystroke_t	t	n/a
578.2275	0.105	1156455	keystroke_i	i	n/a
578.4225	0.1205	1156845	keystroke_v	v	n/a
578.5875	0.09	1157175	keystroke_e	e	n/a
579.2475	0.06	1158495	keystroke_Key.space	Key.space	n/a
579.532	0.091	1159064	keystroke_s	s	n/a
579.7425	0.105	1159485	keystroke_c	c	n/a
579.9075	0.1055	1159815	keystroke_o	o	n/a
580.0425	0.075	1160085	keystroke_t	t	n/a
580.1625	0.1045	1160325	keystroke_i	i	n/a
580.3125	0.0895	1160625	keystroke_a	a	n/a
580.447	0.09	1160894	keystroke_Key.enter	Key.enter	n/a
580.542	10.662	1161084	prompt	n/a	window cartridges than authorization\n
581.782	0.075	1163564	keystroke_w	w	n/a
581.902	0.1205	1163804	keystroke_i	i	n/a
581.9625	0.12	1163925	keystroke_n	n	n/a
582.097	0.0755	1164194	keystroke_d	d	n/a
582.2315	0.151	1164463	keystroke_o	o	n/a
582.3375	0.074	1164675	keystroke_w	w	n/a
582.5475	0.089	1165095	keystroke_Key.space	Key.space	n/a
583.147	0.0605	1166294	keystroke_c	c	n/a
583.312	0.12	1166624	keystroke_a	a	n/a
583.492	0.105	1166984	keystroke_r	r	n/a
583.763	0.0745	1167526	keystroke_t	t	n/a
584.228	0.104	1168456	keystroke_r	r	n/a
584.4075	0.1045	1168815	keystroke_i	i	n/a
584.663	0.089	1169326	keystroke_d	d	n/a
584.932	0.09	1169864	keystroke_g	g	n/a
585.0825	0.1195	1170165	keystroke_e	e	n/a
585.4575	0.1345	1170915	keystroke_s	s	n/a
585.8325	0.09	1171665	keystroke_Key.space	Key.space	n/a
586.147	0.105	1172294	keystroke_t	t	n/a
586.672	0.105	1173344	keystroke_h	h	n/a
586.7475	0.1645	1173495	keystroke_a	a	n/a
586.8675	0.1195	1173735	keystroke_t	t	n/a
587.122	0.06	1174244	keystroke_Key.space	Key.space	n/a
587.5575	0.045	1175115	keystroke_Key.backspace	Key.backspace	n/a
587.677	0.0905	1175354	keystroke_Key.backspace	Key.backspace	n/a
588.4425	0.0605	1176885	keystroke_n	n	n/a
588.6075	0.09	1177215	keystroke_Key.space	Key.space	n/a
588.7275	0.1345	1177455	keystroke_a	a	n/a
589.058	0.089	1178116	keystroke_u	u	n/a
589.192	0.1055	1178384	keystroke_t	t	n/a
589.312	0.0755	1178624	keystroke_h	h	n/a
589.4925	0.1195	1178985	keystroke_o	o	n/a
589.642	0.0755	1179284	keystroke_r	r	n/a
589.7775	0.1045	1179555	keystroke_i	i	n/a
590.092	0.06	1180184	keystroke_z	z	n/a
590.2875	0.105	1180575	keystroke_a	a	n/a
590.4975	0.075	1180995	keystroke_t	t	n/a
590.5875	0.18	1181175	keystroke_i	i	n/a
590.6325	0.1355	1181265	keystroke_o	o	n/a
590.7225	0.1345	1181445	keystroke_n	n	n/a
591.1275	0.075	1182255	keystroke_Key.enter	Key.enter	n/a
591.209	5.875	1182418	prompt	n/a	refine potatoes snake truth\n
592.072	0.09	1184144	keystroke_r	r	n/a
592.147	0.135	1184294	keystroke_e	e	n/a
592.312	0.0755	1184624	keystroke_f	f	n/a
592.433	0.119	1184866	keystroke_i	i	n/a
