onset	duration	sample	value	key	prompt_text
2.397	14.711	4794	prompt	n/a	the quick brown fox jumps over a lazy dog\n
3.8	0.042	7600	keystroke_t	t	n/a
3.827	0.105	7654	keystroke_h	h	n/a
3.947	0.09	7894	keystroke_e	e	n/a
4.022	0.105	8044	keystroke_Key.space	Key.space	n/a
4.052	0.12	8104	keystroke_q	q	n/a
4.532	0.104	9064	keystroke_u	u	n/a
4.727	0.09	9454	keystroke_i	i	n/a
4.921	0.09	9842	keystroke_c	c	n/a
4.997	0.105	9994	keystroke_k	k	n/a
5.071	0.12	10142	keystroke_Key.space	Key.space	n/a
5.342	0.06	10684	keystroke_b	b	n/a
5.462	0.105	10924	keystroke_o	o	n/a
5.537	0.104	11074	keystroke_r	r	n/a
6.1235	0.045	12247	keystroke_Key.backspace	Key.backspace	n/a
6.2435	0.06	12487	keystroke_Key.backspace	Key.backspace	n/a
6.3485	0.06	12697	keystroke_r	r	n/a
6.486	0.075	12972	keystroke_o	o	n/a
6.576	0.075	13152	keystroke_w	w	n/a
6.696	0.12	13392	keystroke_n	n	n/a
6.801	0.09	13602	keystroke_Key.space	Key.space	n/a
7.056	0.045	14112	keystroke_d	d	n/a
7.116	0.09	14232	keystroke_o	o	n/a
7.671	0.045	15342	keystroke_Key.backspace	Key.backspace	n/a
7.821	0.06	15642	keystroke_Key.backspace	Key.backspace	n/a
8.3605	0.075	16721	keystroke_f	f	n/a
8.4805	0.0755	16961	keystroke_o	o	n/a
8.646	0.0895	17292	keystroke_x	x	n/a
8.8855	0.0905	17771	keystroke_j	j	n/a
9.231	0.0595	18462	keystroke_Key.backspace	Key.backspace	n/a
9.381	0.09	18762	keystroke_Key.space	Key.space	n/a
9.5605	0.0605	19121	keystroke_j	j	n/a
9.7705	0.015	19541	keystroke_u	u	n/a
9.8455	0.0905	19691	keystroke_m	m	n/a
9.996	0.045	19992	keystroke_p	p	n/a
10.086	0.105	20172	keystroke_s	s	n/a
10.205	0.1205	20410	keystroke_Key.space	Key.space	n/a
10.2955	0.09	20591	keystroke_o	o	n/a
10.4605	0.09	20921	keystroke_v	v	n/a
10.5655	0.18	21131	keystroke_e	e	n/a
10.6555	0.135	21311	keystroke_r	r	n/a
10.8055	0.09	21611	keystroke_Key.space	Key.space	n/a
10.9255	0.075	21851	keystroke_t	t	n/a
10.9855	0.105	21971	keystroke_h	h	n/a
11.0755	0.075	22151	keystroke_e	e	n/a
11.151	0.074	22302	keystroke_Key.space	Key.space	n/a
11.256	0.1195	22512	keystroke_l	l	n/a
11.3605	0.09	22721	keystroke_a	a	n/a
11.6005	0.0905	23201	keystroke_z	z	n/a
11.6605	0.0905	23321	keystroke_y	y	n/a
11.736	0.0895	23472	keystroke_Key.space	Key.space	n/a
11.976	0.09	23952	keystroke_d	d	n/a
12.051	0.09	24102	keystroke_o	o	n/a
12.2155	0.0455	24431	keystroke_g	g	n/a
13.056	0.06	26112	keystroke_Key.backspace	Key.backspace	n/a
13.236	0.015	26472	keystroke_=	=	n/a
13.9405	0.045	27881	keystroke_Key.backspace	Key.backspace	n/a
14.0605	0.06	28121	keystroke_Key.backspace	Key.backspace	n/a
14.2105	0.06	28421	keystroke_Key.backspace	Key.backspace	n/a
14.3605	0.03	28721	keystroke_Key.backspace	Key.backspace	n/a
14.4805	0.045	28961	keystroke_Key.backspace	Key.backspace	n/a
14.6155	0.045	29231	keystroke_Key.backspace	Key.backspace	n/a
14.7655	0.045	29531	keystroke_Key.backspace	Key.backspace	n/a
14.9155	0.03	29831	keystroke_Key.backspace	Key.backspace	n/a
15.0355	0.0455	30071	keystroke_Key.backspace	Key.backspace	n/a
15.156	0.075	30312	keystroke_Key.backspace	Key.backspace	n/a
15.306	0.0595	30612	keystroke_Key.backspace	Key.backspace	n/a
15.4405	0.075	30881	keystroke_Key.backspace	Key.backspace	n/a
15.6515	0.09	31303	keystroke_a	a	n/a
15.846	0.075	31692	keystroke_Key.space	Key.space	n/a
16.041	0.06	32082	keystroke_l	l	n/a
16.176	0.075	32352	keystroke_a	a	n/a
16.371	0.09	32742	keystroke_z	z	n/a
16.446	0.105	32892	keystroke_y	y	n/a
16.536	0.075	33072	keystroke_Key.space	Key.space	n/a
16.716	0.09	33432	keystroke_d	d	n/a
16.791	0.09	33582	keystroke_o	o	n/a
16.911	0.06	33822	keystroke_g	g	n/a
17.061	0.045	34122	keystroke_Key.enter	Key.enter	n/a
17.112	6.4905	34224	prompt	n/a	vista reliable italic brochure\n
17.9755	0.075	35951	keystroke_v	v	n/a
18.2005	0.0755	36401	keystroke_i	i	n/a
18.381	0.075	36762	keystroke_s	s	n/a
18.5015	0.0745	37003	keystroke_t	t	n/a
18.666	0.1505	37332	keystroke_a	a	n/a
18.831	0.074	37662	keystroke_Key.space	Key.space	n/a
19.191	0.0755	38382	keystroke_r	r	n/a
19.5665	0.0595	39133	keystroke_e	e	n/a
19.7005	0.1505	39401	keystroke_l	l	n/a
19.8205	0.105	39641	keystroke_i	i	n/a
19.9415	0.0895	39883	keystroke_a	a	n/a
20.136	0.0605	40272	keystroke_b	b	n/a
20.241	0.105	40482	keystroke_l	l	n/a
20.331	0.075	40662	keystroke_e	e	n/a
20.451	0.09	40902	keystroke_Key.space	Key.space	n/a
20.571	0.104	41142	keystroke_i	i	n/a
20.736	0.09	41472	keystroke_t	t	n/a
20.886	0.12	41772	keystroke_a	a	n/a
20.991	0.165	41982	keystroke_l	l	n/a
21.246	0.06	42492	keystroke_i	i	n/a
21.336	0.075	42672	keystroke_c	c	n/a
21.576	0.075	43152	keystroke_Key.space	Key.space	n/a
21.981	0.06	43962	keystroke_b	b	n/a
22.221	0.045	44442	keystroke_r	r	n/a
22.311	0.09	44622	keystroke_o	o	n/a
22.506	0.045	45012	keystroke_c	c	n/a
22.671	0.09	45342	keystroke_h	h	n/a
22.9105	0.046	45821	keystroke_u	u	n/a
23.0315	0.06	46063	keystroke_r	r	n/a
23.241	0.045	46482	keystroke_e	e	n/a
23.5565	0.045	47113	keystroke_Key.enter	Key.enter	n/a
23.6055	6.042	47211	prompt	n/a	occasional fiction press keeping\n
24.276	0.075	48552	keystroke_o	o	n/a
24.471	0.045	48942	keystroke_c	c	n/a
24.576	0.105	49152	keystroke_c	c	n/a
24.786	0.105	49572	keystroke_a	a	n/a
24.981	0.075	49962	keystroke_s	s	n/a
25.146	0.12	50292	keystroke_i	i	n/a
25.251	0.12	50502	keystroke_o	o	n/a
25.326	0.105	50652	keystroke_n	n	n/a
25.461	0.135	50922	keystroke_a	a	n/a
25.611	0.09	51222	keystroke_l	l	n/a
25.686	0.105	51372	keystroke_Key.space	Key.space	n/a
25.836	0.09	51672	keystroke_f	f	n/a
26.1215	0.0445	52243	keystroke_i	i	n/a
26.271	0.09	52542	keystroke_c	c	n/a
26.586	0.045	53172	keystroke_t	t	n/a
26.721	0.12	53442	keystroke_i	i	n/a
26.811	0.135	53622	keystroke_o	o	n/a
26.901	0.15	53802	keystroke_n	n	n/a
27.036	0.075	54072	keystroke_Key.space	Key.space	n/a
27.216	0.06	54432	keystroke_f	f	n/a
27.561	0.06	55122	keystroke_Key.backspace	Key.backspace	n/a
27.801	0.075	55602	keystroke_p	p	n/a
27.921	0.12	55842	keystroke_r	r	n/a
28.026	0.105	56052	keystroke_e	e	n/a
28.161	0.075	56322	keystroke_s	s	n/a
28.3255	0.09	56651	keystroke_s	s	n/a
28.4305	0.09	56861	keystroke_Key.space	Key.space	n/a
28.5955	0.09	57191	keystroke_k	k	n/a
28.7305	0.06	57461	keystroke_e	e	n/a
28.8655	0.12	57731	keystroke_e	e	n/a
28.9705	0.165	57941	keystroke_p	p	n/a
29.1205	0.12	58241	keystroke_i	i	n/a
29.2105	0.105	58421	keystroke_n	n	n/a
29.3305	0.06	58661	keystroke_g	g	n/a
29.5705	0.075	59141	keystroke_Key.enter	Key.enter	n/a
29.651	5.5615	59302	prompt	n/a	alert references muslims lemon\n
30.291	0.105	60582	keystroke_a	a	n/a
30.426	0.09	60852	keystroke_l	l	n/a
30.531	0.105	61062	keystroke_e	e	n/a
30.606	0.09	61212	keystroke_r	r	n/a
30.786	0.06	61572	keystroke_t	t	n/a
30.876	0.12	61752	keystroke_Key.space	Key.space	n/a
31.191	0.12	62382	keystroke_r	r	n/a
31.296	0.15	62592	keystroke_e	e	n/a
31.476	0.12	62952	keystroke_f	f	n/a
31.626	0.15	63252	keystroke_e	e	n/a
31.716	0.12	63432	keystroke_r	r	n/a
31.866	0.105	63732	keystroke_e	e	n/a
32.031	0.075	64062	keystroke_n	n	n/a
32.136	0.09	64272	keystroke_c	c	n/a
32.3455	0.15	64691	keystroke_e	e	n/a
32.4505	0.105	64901	keystroke_s	s	n/a
32.5855	0.105	65171	keystroke_Key.space	Key.space	n/a
32.7055	0.09	65411	keystroke_m	m	n/a
32.9155	0.061	65831	keystroke_u	u	n/a
33.006	0.075	66012	keystroke_s	s	n/a
33.216	0.1345	66432	keystroke_l	l	n/a
33.3205	0.105	66641	keystroke_i	i	n/a
33.576	0.075	67152	keystroke_m	m	n/a
33.696	0.09	67392	keystroke_s	s	n/a
33.861	0.06	67722	keystroke_Key.space	Key.space	n/a
34.101	0.105	68202	keystroke_l	l	n/a
34.191	0.075	68382	keystroke_e	e	n/a
34.296	0.105	68592	keystroke_m	m	n/a
34.446	0.12	68892	keystroke_o	o	n/a
34.566	0.075	69132	keystroke_n	n	n/a
35.1805	0.03	70361	keystroke_Key.enter	Key.enter	n/a
35.2155	8.5625	70431	prompt	n/a	folders objects tackle representation\n
36.111	0.075	72222	keystroke_f	f	n/a
36.216	0.075	72432	keystroke_o	o	n/a
36.381	0.105	72762	keystroke_l	l	n/a
36.471	0.09	72942	keystroke_d	d	n/a
36.711	0.03	73422	keystroke_e	e	n/a
36.726	0.105	73452	keystroke_r	r	n/a
36.876	0.06	73752	keystroke_Key.space	Key.space	n/a
37.2215	0.059	74443	keystroke_Key.backspace	Key.backspace	n/a
37.3555	0.045	74711	keystroke_Key.backspace	Key.backspace	n/a
37.8515	0.089	75703	keystroke_r	r	n/a
38.0465	0.06	76093	keystroke_s	s	n/a
38.1355	0.1205	76271	keystroke_Key.space	Key.space	n/a
38.391	0.09	76782	keystroke_o	o	n/a
38.736	0.075	77472	keystroke_b	b	n/a
38.946	0.075	77892	keystroke_j	j	n/a
39.141	0.045	78282	keystroke_e	e	n/a
39.336	0.09	78672	keystroke_c	c	n/a
39.516	0.075	79032	keystroke_t	t	n/a
39.711	0.0895	79422	keystroke_s	s	n/a
39.8305	0.075	79661	keystroke_Key.space	Key.space	n/a
40.0855	0.105	80171	keystroke_t	t	n/a
40.1915	0.104	80383	keystroke_a	a	n/a
40.4155	0.09	80831	keystroke_c	c	n/a
40.5065	0.104	81013	keystroke_k	k	n/a
40.7455	0.12	81491	keystroke_l	l	n/a
40.911	0.06	81822	keystroke_e	e	n/a
41.016	0.075	82032	keystroke_Key.space	Key.space	n/a
41.301	0.12	82602	keystroke_r	r	n/a
41.451	0.09	82902	keystroke_e	e	n/a
41.646	0.075	83292	keystroke_p	p	n/a
41.991	0.075	83982	keystroke_r	r	n/a
42.171	0.06	84342	keystroke_e	e	n/a
42.306	0.105	84612	keystroke_s	s	n/a
42.7405	0.075	85481	keystroke_e	e	n/a
42.8755	0.0755	85751	keystroke_n	n	n/a
42.996	0.0605	85992	keystroke_t	t	n/a
43.1165	0.135	86233	keystroke_a	a	n/a
43.1915	0.075	86383	keystroke_t	t	n/a
43.3265	0.12	86653	keystroke_i	i	n/a
43.4015	0.12	86803	keystroke_o	o	n/a
43.4915	0.075	86983	keystroke_n	n	n/a
43.7015	0.075	87403	keystroke_Key.enter	Key.enter	n/a
43.781	7.4075	87562	prompt	n/a	securities populations deposit herbal\n
44.391	0.135	88782	keystroke_s	s	n/a
44.511	0.135	89022	keystroke_e	e	n/a
44.991	0.09	89982	keystroke_c	c	n/a
45.321	0.045	90642	keystroke_u	u	n/a
45.396	0.06	90792	keystroke_r	r	n/a
45.576	0.06	91152	keystroke_i	i	n/a
45.681	0.075	91362	keystroke_t	t	n/a
45.801	0.165	91602	keystroke_i	i	n/a
45.9955	0.06	91991	keystroke_o	o	n/a
46.341	0.045	92682	keystroke_Key.backspace	Key.backspace	n/a
46.6855	0.09	93371	keystroke_e	e	n/a
46.836	0.075	93672	keystroke_s	s	n/a
46.9705	0.0755	93941	keystroke_Key.space	Key.space	n/a
47.346	0.09	94692	keystroke_p	p	n/a
47.541	0.06	95082	keystroke_o	o	n/a
47.691	0.12	95382	keystroke_p	p	n/a
47.826	0.1055	95652	keystroke_u	u	n/a
48.0365	0.104	96073	keystroke_l	l	n/a
48.1705	0.1205	96341	keystroke_a	a	n/a
48.2455	0.0905	96491	keystroke_t	t	n/a
48.321	0.135	96642	keystroke_i	i	n/a
48.396	0.12	96792	keystroke_o	o	n/a
48.471	0.1045	96942	keystroke_n	n	n/a
48.5605	0.075	97121	keystroke_s	s	n/a
48.6955	0.075	97391	keystroke_Key.space	Key.space	n/a
48.9355	0.06	97871	keystroke_d	d	n/a
49.0555	0.075	98111	keystroke_e	e	n/a
49.1905	0.12	98381	keystroke_p	p	n/a
49.2965	0.105	98593	keystroke_o	o	n/a
49.4165	0.089	98833	keystroke_s	s	n/a
49.5655	0.075	99131	keystroke_i	i	n/a
49.7305	0.06	99461	keystroke_t	t	n/a
49.8355	0.075	99671	keystroke_Key.space	Key.space	n/a
50.0905	0.06	100181	keystroke_h	h	n/a
50.1665	0.09	100333	keystroke_e	e	n/a
50.3315	0.074	100663	keystroke_r	r	n/a
50.6155	0.075	101231	keystroke_b	b	n/a
50.7055	0.105	101411	keystroke_a	a	n/a
50.9005	0.105	101801	keystroke_l	l	n/a
51.1255	0.06	102251	keystroke_Key.enter	Key.enter	n/a
51.195	5.243	102390	prompt	n/a	team poems install traveler\n
52.0405	0.12	104081	keystroke_t	t	n/a
52.1455	0.105	104291	keystroke_e	e	n/a
52.2355	0.1205	104471	keystroke_a	a	n/a
52.371	0.1355	104742	keystroke_m	m	n/a
52.491	0.09	104982	keystroke_Key.space	Key.space	n/a
52.626	0.15	105252	keystroke_p	p	n/a
52.761	0.09	105522	keystroke_o	o	n/a
52.851	0.075	105702	keystroke_e	e	n/a
53.001	0.09	106002	keystroke_m	m	n/a
53.136	0.09	106272	keystroke_s	s	n/a
53.256	0.09	106512	keystroke_Key.space	Key.space	n/a
53.496	0.12	106992	keystroke_i	i	n/a
53.601	0.105	107202	keystroke_n	n	n/a
53.691	0.105	107382	keystroke_s	s	n/a
53.886	0.105	107772	keystroke_t	t	n/a
53.991	0.12	107982	keystroke_a	a	n/a
54.096	0.075	108192	keystroke_l	l	n/a
54.246	0.1195	108492	keystroke_l	l	n/a
54.351	0.1045	108702	keystroke_Key.space	Key.space	n/a
54.516	0.06	109032	keystroke_t	t	n/a
54.6955	0.075	109391	keystroke_r	r	n/a
54.8005	0.105	109601	keystroke_a	a	n/a
55.026	0.135	110052	keystroke_v	v	n/a
55.146	0.1045	110292	keystroke_e	e	n/a
55.311	0.075	110622	keystroke_l	l	n/a
56.046	0.1495	112092	keystroke_e	e	n/a
56.1355	0.091	112271	keystroke_r	r	n/a
56.4055	0.03	112811	keystroke_Key.enter	Key.enter	n/a
56.442	7.7805	112884	prompt	n/a	netscape fireplace wells neighbors\n
57.1255	0.105	114251	keystroke_n	n	n/a
57.2155	0.06	114431	keystroke_e	e	n/a
57.4255	0.0755	114851	keystroke_t	t	n/a
57.606	0.09	115212	keystroke_s	s	n/a
57.846	0.09	115692	keystroke_c	c	n/a
57.951	0.105	115902	keystroke_a	a	n/a
58.116	0.075	116232	keystroke_p	p	n/a
58.236	0.0445	116472	keystroke_e	e	n/a
58.3405	0.09	116681	keystroke_Key.space	Key.space	n/a
58.5355	0.075	117071	keystroke_f	f	n/a
58.6555	0.075	117311	keystroke_i	i	n/a
58.7905	0.06	117581	keystroke_e	e	n/a
59.8105	0.09	119621	keystroke_r	r	n/a
60.2465	0.045	120493	keystroke_Key.backspace	Key.backspace	n/a
60.4865	0.045	120973	keystroke_Key.backspace	Key.backspace	n/a
60.711	0.045	121422	keystroke_r	r	n/a
60.816	0.075	121632	keystroke_e	e	n/a
61.116	0.105	122232	keystroke_p	p	n/a
61.326	0.105	122652	keystroke_l	l	n/a
61.446	0.09	122892	keystroke_a	a	n/a
61.641	0.075	123282	keystroke_c	c	n/a
61.7905	0.0905	123581	keystroke_e	e	n/a
61.9105	0.06	123821	keystroke_Key.space	Key.space	n/a
62.0305	0.135	124061	keystroke_w	w	n/a
62.1505	0.1055	124301	keystroke_e	e	n/a
62.2405	0.075	124481	keystroke_l	l	n/a
62.3905	0.09	124781	keystroke_l	l	n/a
62.4965	0.074	124993	keystroke_s	s	n/a
62.6455	0.06	125291	keystroke_Key.space	Key.space	n/a
62.7205	0.105	125441	keystroke_n	n	n/a
62.8405	0.105	125681	keystroke_e	e	n/a
62.9905	0.075	125981	keystroke_i	i	n/a
63.1405	0.06	126281	keystroke_g	g	n/a
63.2605	0.075	126521	keystroke_h	h	n/a
63.5155	0.06	127031	keystroke_b	b	n/a
63.6205	0.09	127241	keystroke_o	o	n/a
63.7405	0.075	127481	keystroke_r	r	n/a
63.9655	0.075	127931	keystroke_s	s	n/a
64.1605	0.06	128321	keystroke_Key.enter	Key.enter	n/a
64.2255	6.867	128451	prompt	n/a	turtle mazda caribbean reader\n
64.836	0.075	129672	keystroke_t	t	n/a
64.941	0.075	129882	keystroke_u	u	n/a
65.046	0.075	130092	keystroke_r	r	n/a
65.241	0.06	130482	keystroke_t	t	n/a
65.376	0.12	130752	keystroke_l	l	n/a
65.511	0.045	131022	keystroke_e	e	n/a
65.601	0.1045	131202	keystroke_Key.space	Key.space	n/a
65.7505	0.075	131501	keystroke_m	m	n/a
65.9155	0.09	131831	keystroke_e	e	n/a
66.2905	0.045	132581	keystroke_Key.backspace	Key.backspace	n/a
66.4415	0.0745	132883	keystroke_a	a	n/a
66.651	0.075	133302	keystroke_z	z	n/a
67.0255	0.06	134051	keystroke_d	d	n/a
67.2355	0.09	134471	keystroke_a	a	n/a
67.3855	0.075	134771	keystroke_Key.space	Key.space	n/a
67.5955	0.09	135191	keystroke_c	c	n/a
67.8955	0.075	135791	keystroke_a	a	n/a
68.1055	0.06	136211	keystroke_r	r	n/a
68.2405	0.0605	136481	keystroke_i	i	n/a
68.376	0.03	136752	keystroke_b	b	n/a
68.526	0.045	137052	keystroke_b	b	n/a
68.691	0.135	137382	keystroke_e	e	n/a
68.811	0.12	137622	keystroke_a	a	n/a
69.006	0.075	138012	keystroke_n	n	n/a
70.026	0.075	140052	keystroke_Key.space	Key.space	n/a
70.176	0.1355	140352	keystroke_r	r	n/a
70.236	0.1655	140472	keystroke_e	e	n/a
70.3565	0.135	140713	keystroke_a	a	n/a
70.5965	0.06	141193	keystroke_d	d	n/a
70.7615	0.135	141523	keystroke_e	e	n/a
70.8665	0.09	141733	keystroke_r	r	n/a
71.0165	0.074	142033	keystroke_Key.enter	Key.enter	n/a
71.0955	8.127	142191	prompt	n/a	heritage therapy promo rate\n
74.228	0.0435	148456	keystroke_h	h	n/a
74.2565	0.12	148513	keystroke_e	e	n/a
74.3465	0.075	148693	keystroke_r	r	n/a
74.5715	0.09	149143	keystroke_i	i	n/a
75.1265	0.089	150253	keystroke_t	t	n/a
75.2905	0.091	150581	keystroke_a	a	n/a
75.5305	0.12	151061	keystroke_g	g	n/a
75.6215	0.104	151243	keystroke_e	e	n/a
75.7105	0.09	151421	keystroke_Key.space	Key.space	n/a
76.0565	0.075	152113	keystroke_t	t	n/a
76.1155	0.075	152231	keystroke_h	h	n/a
76.2355	0.15	152471	keystroke_e	e	n/a
76.3565	0.089	152713	keystroke_r	r	n/a
76.5505	0.076	153101	keystroke_a	a	n/a
76.7915	0.075	153583	keystroke_p	p	n/a
76.9715	0.105	153943	keystroke_y	y	n/a
77.0615	0.075	154123	keystroke_Key.space	Key.space	n/a
77.5115	0.09	155023	keystroke_p	p	n/a
77.6315	0.06	155263	keystroke_r	r	n/a
77.7505	0.166	155501	keystroke_o	o	n/a
77.9605	0.105	155921	keystroke_m	m	n/a
78.0815	0.089	156163	keystroke_o	o	n/a
78.2305	0.106	156461	keystroke_Key.space	Key.space	n/a
78.4115	0.105	156823	keystroke_r	r	n/a
78.5615	0.165	157123	keystroke_a	a	n/a
78.6815	0.135	157363	keystroke_t	t	n/a
78.7865	0.135	157573	keystroke_e	e	n/a
79.1165	0.105	158233	keystroke_Key.enter	Key.enter	n/a
79.2255	6.777	158451	prompt	n/a	colleagues kyle shuttle innocent\n
79.9415	0.089	159883	keystroke_c	c	n/a
80.0455	0.075	160091	keystroke_o	o	n/a
80.1955	0.09	160391	keystroke_l	l	n/a
80.3455	0.09	160691	keystroke_l	l	n/a
80.4505	0.09	160901	keystroke_e	e	n/a
80.6005	0.06	161201	keystroke_q	q	n/a
81.1855	0.045	162371	keystroke_Key.backspace	Key.backspace	n/a
81.3205	0.06	162641	keystroke_a	a	n/a
81.5155	0.105	163031	keystroke_g	g	n/a
81.6955	0.075	163391	keystroke_u	u	n/a
81.8155	0.135	163631	keystroke_e	e	n/a
81.9355	0.1205	163871	keystroke_s	s	n/a
82.041	0.09	164082	keystroke_Key.space	Key.space	n/a
82.2955	0.06	164591	keystroke_k	k	n/a
82.506	0.06	165012	keystroke_y	y	n/a
82.716	0.0905	165432	keystroke_l	l	n/a
82.8515	0.0745	165703	keystroke_e	e	n/a
82.971	0.075	165942	keystroke_Key.space	Key.space	n/a
83.3765	0.045	166753	keystroke_s	s	n/a
83.6155	0.076	167231	keystroke_h	h	n/a
83.7965	0.06	167593	keystroke_u	u	n/a
83.8865	0.0595	167773	keystroke_t	t	n/a
84.021	0.075	168042	keystroke_t	t	n/a
84.126	0.105	168252	keystroke_l	l	n/a
84.246	0.075	168492	keystroke_e	e	n/a
84.335	0.105	168670	keystroke_Key.space	Key.space	n/a
84.6655	0.09	169331	keystroke_i	i	n/a
84.8155	0.06	169631	keystroke_n	n	n/a
84.9505	0.105	169901	keystroke_n	n	n/a
85.1155	0.09	170231	keystroke_o	o	n/a
85.2655	0.075	170531	keystroke_c	c	n/a
85.4455	0.09	170891	keystroke_e	e	n/a
85.5655	0.06	171131	keystroke_n	n	n/a
85.7005	0.06	171401	keystroke_t	t	n/a
85.9255	0.075	171851	keystroke_Key.enter	Key.enter	n/a
86.0055	7.617	172011	prompt	n/a	jefferson advance conclusions unemployment\n
86.6455	0.06	173291	keystroke_j	j	n/a
86.7655	0.06	173531	keystroke_e	e	n/a
86.9605	0.075	173921	keystroke_f	f	n/a
87.0955	0.105	174191	keystroke_f	f	n/a
87.2305	0.15	174461	keystroke_e	e	n/a
87.3355	0.105	174671	keystroke_r	r	n/a
87.801	0.09	175602	keystroke_s	s	n/a
87.936	0.12	175872	keystroke_o	o	n/a
88.011	0.135	176022	keystroke_n	n	n/a
88.116	0.09	176232	keystroke_Key.space	Key.space	n/a
88.341	0.09	176682	keystroke_a	a	n/a
88.746	0.0595	177492	keystroke_d	d	n/a
88.9715	0.089	177943	keystroke_v	v	n/a
89.1205	0.075	178241	keystroke_a	a	n/a
89.3005	0.06	178601	keystroke_n	n	n/a
89.4055	0.06	178811	keystroke_c	c	n/a
89.5855	0.06	179171	keystroke_e	e	n/a
89.6605	0.12	179321	keystroke_Key.space	Key.space	n/a
90.0065	0.089	180013	keystroke_c	c	n/a
90.1105	0.1055	180221	keystroke_o	o	n/a
90.306	0.075	180612	keystroke_n	n	n/a
90.471	0.105	180942	keystroke_c	c	n/a
90.621	0.075	181242	keystroke_l	l	n/a
90.711	0.09	181422	keystroke_u	u	n/a
90.861	0.09	181722	keystroke_s	s	n/a
91.026	0.18	182052	keystroke_i	i	n/a
91.176	0.09	182352	keystroke_o	o	n/a
91.221	0.1195	182442	keystroke_n	n	n/a
91.3705	0.09	182741	keystroke_s	s	n/a
91.5055	0.075	183011	keystroke_Key.space	Key.space	n/a
91.7005	0.075	183401	keystroke_u	u	n/a
91.8955	0.0755	183791	keystroke_n	n	n/a
92.016	0.06	184032	keystroke_e	e	n/a
92.151	0.075	184302	keystroke_m	m	n/a
92.436	0.015	184872	keystroke_p	p	n/a
92.511	0.09	185022	keystroke_l	l	n/a
92.6755	0.075	185351	keystroke_o	o	n/a
92.7805	0.075	185561	keystroke_y	y	n/a
93.0055	0.075	186011	keystroke_m	m	n/a
93.1255	0.075	186251	keystroke_e	e	n/a
93.2305	0.075	186461	keystroke_n	n	n/a
93.3955	0.06	186791	keystroke_t	t	n/a
93.5455	0.075	187091	keystroke_Key.enter	Key.enter	n/a
93.625	6.3425	187250	prompt	n/a	laboratory disco stands naval\n
94.401	0.09	188802	keystroke_l	l	n/a
94.506	0.0605	189012	keystroke_a	a	n/a
94.6405	0.09	189281	keystroke_b	b	n/a
94.8655	0.03	189731	keystroke_r	r	n/a
94.9555	0.075	189911	keystroke_o	o	n/a
95.2705	0.03	190541	keystroke_Key.backspace	Key.backspace	n/a
95.3755	0.045	190751	keystroke_Key.backspace	Key.backspace	n/a
95.6305	0.06	191261	keystroke_o	o	n/a
95.7805	0.075	191561	keystroke_r	r	n/a
96.0205	0.09	192041	keystroke_a	a	n/a
96.2305	0.06	192461	keystroke_t	t	n/a
96.3355	0.105	192671	keystroke_o	o	n/a
96.4705	0.06	192941	keystroke_r	r	n/a
96.5755	0.09	193151	keystroke_y	y	n/a
96.6505	0.075	193301	keystroke_Key.space	Key.space	n/a
97.0705	0.06	194141	keystroke_d	d	n/a
97.2055	0.06	194411	keystroke_i	i	n/a
97.3555	0.076	194711	keystroke_s	s	n/a
97.5805	0.075	195161	keystroke_c	c	n/a
97.7155	0.121	195431	keystroke_o	o	n/a
97.8505	0.045	195701	keystroke_Key.space	Key.space	n/a
97.971	0.09	195942	keystroke_s	s	n/a
98.166	0.0745	196332	keystroke_t	t	n/a
98.3305	0.105	196661	keystroke_a	a	n/a
98.4505	0.09	196901	keystroke_n	n	n/a
98.5855	0.105	197171	keystroke_d	d	n/a
98.7355	0.105	197471	keystroke_s	s	n/a
98.8705	0.076	197741	keystroke_Key.space	Key.space	n/a
99.0505	0.075	198101	keystroke_n	n	n/a
99.1855	0.135	198371	keystroke_a	a	n/a
99.3955	0.09	198791	keystroke_v	v	n/a
99.5005	0.105	199001	keystroke_a	a	n/a
99.6805	0.075	199361	keystroke_l	l	n/a
99.9055	0.0605	199811	keystroke_Key.enter	Key.enter	n/a
99.971	5.2465	199942	prompt	n/a	garmin mailed quantum soviet\n
100.656	0.09	201312	keystroke_g	g	n/a
100.851	0.165	201702	keystroke_a	a	n/a
101.031	0.0595	202062	keystroke_r	r	n/a
101.1805	0.105	202361	keystroke_m	m	n/a
101.3605	0.075	202721	keystroke_i	i	n/a
101.5555	0.09	203111	keystroke_n	n	n/a
101.661	0.0895	203322	keystroke_Key.space	Key.space	n/a
101.8555	0.06	203711	keystroke_m	m	n/a
101.9305	0.12	203861	keystroke_a	a	n/a
102.0655	0.105	204131	keystroke_i	i	n/a
102.1555	0.1805	204311	keystroke_l	l	n/a
102.291	0.09	204582	keystroke_e	e	n/a
102.486	0.075	204972	keystroke_d	d	n/a
102.621	0.075	205242	keystroke_Key.space	Key.space	n/a
103.161	0.075	206322	keystroke_q	q	n/a
103.281	0.09	206562	keystroke_u	u	n/a
103.416	0.09	206832	keystroke_a	a	n/a
103.551	0.075	207102	keystroke_n	n	n/a
103.716	0.06	207432	keystroke_t	t	n/a
103.821	0.075	207642	keystroke_u	u	n/a
104.001	0.09	208002	keystroke_m	m	n/a
104.121	0.075	208242	keystroke_Key.space	Key.space	n/a
104.256	0.075	208512	keystroke_s	s	n/a
104.376	0.0895	208752	keystroke_o	o	n/a
104.541	0.075	209082	keystroke_v	v	n/a
104.661	0.075	209322	keystroke_i	i	n/a
104.796	0.09	209592	keystroke_e	e	n/a
105.021	0.045	210042	keystroke_t	t	n/a
105.156	0.0605	210312	keystroke_Key.enter	Key.enter	n/a
105.221	6.0865	210442	prompt	n/a	efficient immune laptops trained\n
105.9065	0.06	211813	keystroke_e	e	n/a
106.0265	0.06	212053	keystroke_f	f	n/a
106.1765	0.0745	212353	keystroke_f	f	n/a
106.266	0.075	212532	keystroke_i	i	n/a
106.416	0.075	212832	keystroke_c	c	n/a
106.581	0.09	213162	keystroke_i	i	n/a
106.731	0.06	213462	keystroke_e	e	n/a
106.866	0.075	213732	keystroke_n	n	n/a
106.986	0.06	213972	keystroke_t	t	n/a
107.106	0.105	214212	keystroke_Key.space	Key.space	n/a
107.466	0.09	214932	keystroke_i	i	n/a
107.646	0.09	215292	keystroke_m	m	n/a
107.811	0.075	215622	keystroke_m	m	n/a
108.006	0.06	216012	keystroke_u	u	n/a
108.171	0.075	216342	keystroke_n	n	n/a
108.276	0.06	216552	keystroke_e	e	n/a
108.516	0.015	217032	keystroke_Key.space	Key.space	n/a
108.696	0.105	217392	keystroke_l	l	n/a
108.846	0.06	217692	keystroke_a	a	n/a
108.951	0.09	217902	keystroke_p	p	n/a
109.4305	0.045	218861	keystroke_t	t	n/a
109.5205	0.12	219041	keystroke_o	o	n/a
109.6705	0.105	219341	keystroke_p	p	n/a
109.8055	0.075	219611	keystroke_s	s	n/a
109.9255	0.075	219851	keystroke_Key.space	Key.space	n/a
110.1505	0.09	220301	keystroke_t	t	n/a
110.421	0.015	220842	keystroke_r	r	n/a
110.451	0.12	220902	keystroke_a	a	n/a
110.586	0.1195	221172	keystroke_i	i	n/a
110.6905	0.105	221381	keystroke_n	n	n/a
110.8255	0.075	221651	keystroke_e	e	n/a
110.9905	0.075	221981	keystroke_d	d	n/a
111.2305	0.075	222461	keystroke_Key.enter	Key.enter	n/a
111.311	7.4815	222622	prompt	n/a	insider infections possession layer\n
111.9205	0.135	223841	keystroke_i	i	n/a
112.0105	0.09	224021	keystroke_n	n	n/a
112.4315	0.104	224863	keystroke_s	s	n/a
112.7905	0.06	225581	keystroke_i	i	n/a
112.9255	0.06	225851	keystroke_d	d	n/a
113.0605	0.15	226121	keystroke_e	e	n/a
113.1655	0.09	226331	keystroke_r	r	n/a
113.2855	0.105	226571	keystroke_Key.space	Key.space	n/a
113.4205	0.1505	226841	keystroke_i	i	n/a
113.556	0.09	227112	keystroke_n	n	n/a
113.796	0.075	227592	keystroke_f	f	n/a
113.916	0.0745	227832	keystroke_e	e	n/a
114.1255	0.105	228251	keystroke_c	c	n/a
114.3055	0.06	228611	keystroke_t	t	n/a
114.4105	0.15	228821	keystroke_i	i	n/a
114.5455	0.18	229091	keystroke_o	o	n/a
114.6805	0.1205	229361	keystroke_n	n	n/a
115.071	0.06	230142	keystroke_s	s	n/a
115.251	0.09	230502	keystroke_Key.space	Key.space	n/a
115.581	0.135	231162	keystroke_p	p	n/a
115.701	0.09	231402	keystroke_o	o	n/a
115.806	0.0745	231612	keystroke_s	s	n/a
115.941	0.12	231882	keystroke_s	s	n/a
116.076	0.06	232152	keystroke_e	e	n/a
116.796	0.09	233592	keystroke_s	s	n/a
116.946	0.09	233892	keystroke_s	s	n/a
117.096	0.12	234192	keystroke_i	i	n/a
117.171	0.135	234342	keystroke_o	o	n/a
117.246	0.12	234492	keystroke_n	n	n/a
118.0255	0.06	236051	keystroke_Key.space	Key.space	n/a
118.1605	0.1055	236321	keystroke_l	l	n/a
118.2515	0.0895	236503	keystroke_a	a	n/a
118.386	0.09	236772	keystroke_y	y	n/a
118.491	0.105	236982	keystroke_e	e	n/a
118.551	0.1045	237102	keystroke_r	r	n/a
118.7015	0.09	237403	keystroke_Key.enter	Key.enter	n/a
118.7975	6.64	237595	prompt	n/a	issued spine adrian zoning\n
119.3615	0.09	238723	keystroke_i	i	n/a
119.4665	0.075	238933	keystroke_s	s	n/a
119.6165	0.075	239233	keystroke_s	s	n/a
119.6765	0.105	239353	keystroke_u	u	n/a
119.8265	0.06	239653	keystroke_e	e	n/a
120.0065	0.135	240013	keystroke_d	d	n/a
120.1555	0.0905	240311	keystroke_Key.space	Key.space	n/a
120.306	0.06	240612	keystroke_p	p	n/a
120.7555	0.045	241511	keystroke_Key.backspace	Key.backspace	n/a
120.8315	0.0745	241663	keystroke_s	s	n/a
120.996	0.105	241992	keystroke_p	p	n/a
121.461	0.0895	242922	keystroke_i	i	n/a
121.611	0.09	243222	keystroke_n	n	n/a
121.731	0.06	243462	keystroke_e	e	n/a
121.851	0.075	243702	keystroke_Key.space	Key.space	n/a
122.3905	0.12	244781	keystroke_a	a	n/a
122.6605	0.075	245321	keystroke_d	d	n/a
122.8405	0.075	245681	keystroke_r	r	n/a
122.9755	0.105	245951	keystroke_i	i	n/a
123.1105	0.0905	246221	keystroke_a	a	n/a
123.2155	0.105	246431	keystroke_n	n	n/a
123.3055	0.105	246611	keystroke_Key.space	Key.space	n/a
123.621	0.105	247242	keystroke_z	z	n/a
123.681	0.105	247362	keystroke_o	o	n/a
123.8155	0.0905	247631	keystroke_n	n	n/a
123.936	0.09	247872	keystroke_i	i	n/a
124.146	0.045	248292	keystroke_g	g	n/a
124.7315	0.045	249463	keystroke_Key.backspace	Key.backspace	n/a
124.9415	0.045	249883	keystroke_n	n	n/a
125.0165	0.045	250033	keystroke_g	g	n/a
125.3765	0.06	250753	keystroke_Key.enter	Key.enter	n/a
125.4405	4.842	250881	prompt	n/a	maintenance daily soma stress\n
126.1555	0.076	252311	keystroke_m	m	n/a
126.2615	0.074	252523	keystroke_a	a	n/a
126.3655	0.105	252731	keystroke_i	i	n/a
126.4415	0.104	252883	keystroke_n	n	n/a
126.6805	0.075	253361	keystroke_t	t	n/a
126.8455	0.075	253691	keystroke_e	e	n/a
126.9505	0.09	253901	keystroke_n	n	n/a
127.1005	0.105	254201	keystroke_a	a	n/a
127.2505	0.06	254501	keystroke_n	n	n/a
127.3705	0.06	254741	keystroke_c	c	n/a
127.5505	0.06	255101	keystroke_e	e	n/a
127.6705	0.09	255341	keystroke_Key.space	Key.space	n/a
127.7905	0.06	255581	keystroke_d	d	n/a
127.8955	0.105	255791	keystroke_a	a	n/a
128.1655	0.06	256331	keystroke_i	i	n/a
128.2855	0.0905	256571	keystroke_l	l	n/a
128.436	0.12	256872	keystroke_y	y	n/a
128.526	0.09	257052	keystroke_Key.space	Key.space	n/a
128.721	0.045	257442	keystroke_s	s	n/a
128.781	0.135	257562	keystroke_o	o	n/a
128.871	0.09	257742	keystroke_m	m	n/a
128.991	0.105	257982	keystroke_a	a	n/a
129.111	0.09	258222	keystroke_Key.space	Key.space	n/a
129.306	0.105	258612	keystroke_s	s	n/a
129.516	0.06	259032	keystroke_t	t	n/a
129.666	0.12	259332	keystroke_r	r	n/a
129.771	0.105	259542	keystroke_e	e	n/a
129.876	0.09	259752	keystroke_s	s	n/a
130.071	0.075	260142	keystroke_s	s	n/a
130.191	0.09	260382	keystroke_Key.enter	Key.enter	n/a
130.285	6.4175	260570	prompt	n/a	ontario debian they'll officials\n
130.821	0.06	261642	keystroke_o	o	n/a
130.941	0.06	261882	keystroke_n	n	n/a
131.046	0.09	262092	keystroke_a	a	n/a
131.166	0.075	262332	keystroke_t	t	n/a
131.556	0.045	263112	keystroke_Key.backspace	Key.backspace	n/a
131.676	0.075	263352	keystroke_Key.backspace	Key.backspace	n/a
131.766	0.06	263532	keystroke_t	t	n/a
131.931	0.09	263862	keystroke_a	a	n/a
132.201	0.0595	264402	keystroke_r	r	n/a
132.441	0.06	264882	keystroke_i	i	n/a
132.681	0.09	265362	keystroke_o	o	n/a
132.786	0.105	265572	keystroke_Key.space	Key.space	n/a
132.966	0.045	265932	keystroke_d	d	n/a
133.116	0.075	266232	keystroke_e	e	n/a
133.326	0.075	266652	keystroke_b	b	n/a
133.446	0.09	266892	keystroke_i	i	n/a
133.566	0.09	267132	keystroke_a	a	n/a
133.686	0.105	267372	keystroke_n	n	n/a
133.776	0.09	267552	keystroke_Key.space	Key.space	n/a
134.226	0.075	268452	keystroke_t	t	n/a
134.316	0.09	268632	keystroke_h	h	n/a
134.421	0.075	268842	keystroke_e	e	n/a
134.526	0.075	269052	keystroke_y	y	n/a
134.661	0.09	269322	keystroke_'	'	n/a
134.856	0.06	269712	keystroke_l	l	n/a
134.976	0.135	269952	keystroke_l	l	n/a
135.096	0.0755	270192	keystroke_Key.space	Key.space	n/a
135.561	0.09	271122	keystroke_o	o	n/a
135.621	0.075	271242	keystroke_f	f	n/a
135.771	0.075	271542	keystroke_f	f	n/a
135.861	0.075	271722	keystroke_i	i	n/a
135.981	0.09	271962	keystroke_c	c	n/a
136.086	0.09	272172	keystroke_i	i	n/a
136.221	0.1045	272442	keystroke_a	a	n/a
136.3405	0.075	272681	keystroke_l	l	n/a
136.4905	0.075	272981	keystroke_s	s	n/a
136.6255	0.075	273251	keystroke_Key.enter	Key.enter	n/a
136.7055	5.412	273411	prompt	n/a	favor apollo districts burning\n
137.3155	0.075	274631	keystroke_f	f	n/a
137.4205	0.105	274841	keystroke_a	a	n/a
137.586	0.0745	275172	keystroke_v	v	n/a
137.736	0.09	275472	keystroke_o	o	n/a
137.841	0.0595	275682	keystroke_r	r	n/a
137.9905	0.1055	275981	keystroke_Key.space	Key.space	n/a
138.4105	0.075	276821	keystroke_a	a	n/a
138.5605	0.15	277121	keystroke_p	p	n/a
138.7255	0.075	277451	keystroke_o	o	n/a
138.9055	0.075	277811	keystroke_l	l	n/a
139.0405	0.075	278081	keystroke_l	l	n/a
139.3255	0.016	278651	keystroke_o	o	n/a
139.3555	0.045	278711	keystroke_Key.space	Key.space	n/a
139.5055	0.06	279011	keystroke_d	d	n/a
139.6105	0.06	279221	keystroke_i	i	n/a
139.7455	0.105	279491	keystroke_s	s	n/a
139.9105	0.06	279821	keystroke_t	t	n/a
140.0605	0.075	280121	keystroke_r	r	n/a
140.2105	0.075	280421	keystroke_i	i	n/a
140.3305	0.075	280661	keystroke_c	c	n/a
140.646	0.0745	281292	keystroke_t	t	n/a
140.826	0.075	281652	keystroke_s	s	n/a
140.9455	0.075	281891	keystroke_Key.space	Key.space	n/a
141.1705	0.045	282341	keystroke_b	b	n/a
141.261	0.0745	282522	keystroke_u	u	n/a
141.3655	0.0755	282731	keystroke_r	r	n/a
141.546	0.0895	283092	keystroke_n	n	n/a
141.6505	0.105	283301	keystroke_i	i	n/a
141.7705	0.075	283541	keystroke_n	n	n/a
141.8755	0.06	283751	keystroke_g	g	n/a
142.026	0.09	284052	keystroke_Key.enter	Key.enter	n/a
142.1205	8.397	284241	prompt	n/a	regards complimentary transparency nine\n
142.7465	0.06	285493	keystroke_r	r	n/a
142.9115	0.075	285823	keystroke_e	e	n/a
143.0465	0.075	286093	keystroke_g	g	n/a
143.2115	0.12	286423	keystroke_a	a	n/a
143.3165	0.075	286633	keystroke_r	r	n/a
143.5265	0.105	287053	keystroke_d	d	n/a
143.6765	0.09	287353	keystroke_s	s	n/a
143.8565	0.045	287713	keystroke_Key.space	Key.space	n/a
144.0365	0.075	288073	keystroke_c	c	n/a
144.1265	0.195	288253	keystroke_o	o	n/a
144.2465	0.135	288493	keystroke_m	m	n/a
144.3965	0.15	288793	keystroke_p	p	n/a
144.7715	0.045	289543	keystroke_l	l	n/a
145.1015	0.09	290203	keystroke_i	i	n/a
145.3265	0.075	290653	keystroke_m	m	n/a
145.4465	0.09	290893	keystroke_e	e	n/a
145.6115	0.06	291223	keystroke_n	n	n/a
145.7165	0.075	291433	keystroke_t	t	n/a
145.8815	0.15	291763	keystroke_a	a	n/a
146.0165	0.075	292033	keystroke_r	r	n/a
146.2115	0.1045	292423	keystroke_y	y	n/a
146.301	0.09	292602	keystroke_Key.space	Key.space	n/a
146.796	0.075	293592	keystroke_t	t	n/a
146.931	0.12	293862	keystroke_r	r	n/a
147.066	0.135	294132	keystroke_a	a	n/a
147.246	0.075	294492	keystroke_n	n	n/a
147.3965	0.06	294793	keystroke_s	s	n/a
147.6215	0.075	295243	keystroke_p	p	n/a
147.7415	0.105	295483	keystroke_a	a	n/a
147.9365	0.075	295873	keystroke_r	r	n/a
148.3115	0.06	296623	keystroke_e	e	n/a
148.4915	0.075	296983	keystroke_n	n	n/a
148.656	0.06	297312	keystroke_c	c	n/a
149.2415	0.074	298483	keystroke_y	y	n/a
149.5105	0.075	299021	keystroke_Key.space	Key.space	n/a
149.8115	0.119	299623	keystroke_n	n	n/a
149.9155	0.135	299831	keystroke_i	i	n/a
150.1555	0.06	300311	keystroke_n	n	n/a
150.2755	0.06	300551	keystroke_e	e	n/a
150.4405	0.075	300881	keystroke_Key.enter	Key.enter	n/a
150.521	5.742	301042	prompt	n/a	recall views packing over\n
151.5055	0.106	303011	keystroke_t	t	n/a
151.8515	0.045	303703	keystroke_e	e	n/a
152.1205	0.045	304241	keystroke_Key.backspace	Key.backspace	n/a
152.256	0.045	304512	keystroke_Key.backspace	Key.backspace	n/a
152.316	0.105	304632	keystroke_r	r	n/a
152.391	0.105	304782	keystroke_e	e	n/a
152.616	0.09	305232	keystroke_c	c	n/a
152.721	0.09	305442	keystroke_a	a	n/a
152.796	0.075	305592	keystroke_l	l	n/a
152.9315	0.12	305863	keystroke_l	l	n/a
153.0365	0.105	306073	keystroke_Key.space	Key.space	n/a
153.2165	0.075	306433	keystroke_v	v	n/a
153.3065	0.06	306613	keystroke_i	i	n/a
153.4265	0.21	306853	keystroke_e	e	n/a
153.9505	0.061	307901	keystroke_w	w	n/a
154.5055	0.061	309011	keystroke_s	s	n/a
154.6105	0.075	309221	keystroke_Key.space	Key.space	n/a
154.7615	0.09	309523	keystroke_p	p	n/a
154.8515	0.06	309703	keystroke_a	a	n/a
155.0305	0.06	310061	keystroke_c	c	n/a
155.2115	0.059	310423	keystroke_k	k	n/a
155.3455	0.105	310691	keystroke_i	i	n/a
155.4355	0.106	310871	keystroke_n	n	n/a
155.5265	0.059	311053	keystroke_g	g	n/a
155.6005	0.12	311201	keystroke_Key.space	Key.space	n/a
155.7355	0.075	311471	keystroke_o	o	n/a
155.8405	0.105	311681	keystroke_v	v	n/a
155.9305	0.165	311861	keystroke_e	e	n/a
156.0505	0.075	312101	keystroke_r	r	n/a
156.1705	0.0905	312341	keystroke_Key.enter	Key.enter	n/a
156.2655	6.492	312531	prompt	n/a	volumes creatures executives correct\n
156.981	0.0755	313962	keystroke_v	v	n/a
157.1015	0.09	314203	keystroke_o	o	n/a
157.3115	0.09	314623	keystroke_l	l	n/a
157.461	0.06	314922	keystroke_u	u	n/a
157.626	0.075	315252	keystroke_m	m	n/a
157.746	0.075	315492	keystroke_e	e	n/a
157.926	0.09	315852	keystroke_s	s	n/a
158.031	0.075	316062	keystroke_Key.space	Key.space	n/a
158.2715	0.074	316543	keystroke_c	c	n/a
158.466	0.105	316932	keystroke_r	r	n/a
158.541	0.135	317082	keystroke_e	e	n/a
158.781	0.15	317562	keystroke_a	a	n/a
158.931	0.09	317862	keystroke_t	t	n/a
159.126	0.06	318252	keystroke_u	u	n/a
159.291	0.12	318582	keystroke_r	r	n/a
159.396	0.105	318792	keystroke_e	e	n/a
159.696	0.09	319392	keystroke_s	s	n/a
159.831	0.045	319662	keystroke_Key.space	Key.space	n/a
160.011	0.0595	320022	keystroke_e	e	n/a
160.221	0.0745	320442	keystroke_x	x	n/a
160.3855	0.0605	320771	keystroke_e	e	n/a
160.5655	0.09	321131	keystroke_c	c	n/a
160.7005	0.06	321401	keystroke_u	u	n/a
160.866	0.06	321732	keystroke_t	t	n/a
161.0005	0.0755	322001	keystroke_i	i	n/a
161.136	0.12	322272	keystroke_v	v	n/a
161.241	0.15	322482	keystroke_e	e	n/a
161.361	0.105	322722	keystroke_s	s	n/a
161.511	0.09	323022	keystroke_Key.space	Key.space	n/a
161.706	0.0905	323412	keystroke_c	c	n/a
161.8115	0.09	323623	keystroke_o	o	n/a
161.9315	0.06	323863	keystroke_r	r	n/a
162.0665	0.09	324133	keystroke_r	r	n/a
162.1265	0.12	324253	keystroke_e	e	n/a
162.351	0.105	324702	keystroke_c	c	n/a
162.516	0.075	325032	keystroke_t	t	n/a
162.651	0.105	325302	keystroke_Key.enter	Key.enter	n/a
162.7605	6.087	325521	prompt	n/a	pixels layer hunger alfred\n
163.431	0.12	326862	keystroke_p	p	n/a
163.536	0.105	327072	keystroke_i	i	n/a
163.716	0.105	327432	keystroke_x	x	n/a
163.911	0.075	327822	keystroke_e	e	n/a
164.046	0.12	328092	keystroke_l	l	n/a
164.181	0.0605	328362	keystroke_s	s	n/a
164.316	0.075	328632	keystroke_Key.space	Key.space	n/a
164.511	0.075	329022	keystroke_l	l	n/a
164.616	0.105	329232	keystroke_a	a	n/a
164.871	0.06	329742	keystroke_y	y	n/a
165.291	0.1355	330582	keystroke_e	e	n/a
165.381	0.0905	330762	keystroke_r	r	n/a
165.5165	0.075	331033	keystroke_Key.space	Key.space	n/a
166.0865	0.045	332173	keystroke_h	h	n/a
166.1915	0.075	332383	keystroke_u	u	n/a
166.3415	0.09	332683	keystroke_n	n	n/a
166.4465	0.075	332893	keystroke_g	g	n/a
166.5365	0.134	333073	keystroke_e	e	n/a
166.6405	0.09	333281	keystroke_r	r	n/a
166.7455	0.075	333491	keystroke_Key.space	Key.space	n/a
166.9705	0.105	333941	keystroke_a	a	n/a
167.0765	0.059	334153	keystroke_l	l	n/a
167.2255	0.06	334451	keystroke_f	f	n/a
167.4815	0.074	334963	keystroke_r	r	n/a
167.6905	0.09	335381	keystroke_e	e	n/a
167.9005	0.03	335801	keystroke_e	e	n/a
168.4405	0.06	336881	keystroke_Key.backspace	Key.backspace	n/a
168.5605	0.06	337121	keystroke_d	d	n/a
168.7265	0.119	337453	keystroke_Key.enter	Key.enter	n/a
168.8505	7.0475	337701	prompt	n/a	emotions heard invitation travelling\n
169.491	0.09	338982	keystroke_e	e	n/a
169.596	0.09	339192	keystroke_m	m	n/a
169.716	0.105	339432	keystroke_o	o	n/a
169.881	0.075	339762	keystroke_t	t	n/a
170.181	0.1195	340362	keystroke_i	i	n/a
170.2855	0.12	340571	keystroke_o	o	n/a
170.3605	0.105	340721	keystroke_n	n	n/a
170.4955	0.09	340991	keystroke_s	s	n/a
170.6905	0.075	341381	keystroke_Key.space	Key.space	n/a
170.9455	0.12	341891	keystroke_e	e	n/a
171.4105	0.075	342821	keystroke_Key.backspace	Key.backspace	n/a
171.621	0.0745	343242	keystroke_h	h	n/a
171.6805	0.12	343361	keystroke_e	e	n/a
171.816	0.15	343632	keystroke_a	a	n/a
171.921	0.0895	343842	keystroke_r	r	n/a
172.146	0.1045	344292	keystroke_d	d	n/a
172.206	0.12	344412	keystroke_Key.space	Key.space	n/a
172.3405	0.12	344681	keystroke_i	i	n/a
172.4455	0.09	344891	keystroke_n	n	n/a
173.511	0.075	347022	keystroke_v	v	n/a
173.631	0.075	347262	keystroke_i	i	n/a
173.781	0.06	347562	keystroke_t	t	n/a
173.931	0.135	347862	keystroke_a	a	n/a
174.021	0.075	348042	keystroke_t	t	n/a
174.156	0.1205	348312	keystroke_i	i	n/a
174.2465	0.135	348493	keystroke_o	o	n/a
174.3355	0.121	348671	keystroke_n	n	n/a
174.4405	0.09	348881	keystroke_Key.space	Key.space	n/a
174.6815	0.075	349363	keystroke_t	t	n/a
174.8315	0.075	349663	keystroke_r	r	n/a
174.9365	0.09	349873	keystroke_a	a	n/a
175.1615	0.075	350323	keystroke_v	v	n/a
175.2215	0.105	350443	keystroke_e	e	n/a
175.4165	0.12	350833	keystroke_l	l	n/a
175.4915	0.135	350983	keystroke_i	i	n/a
175.5965	0.09	351193	keystroke_n	n	n/a
175.7165	0.06	351433	keystroke_g	g	n/a
175.8215	0.0745	351643	keystroke_Key.enter	Key.enter	n/a
175.903	8.0345	351806	prompt	n/a	immune flavor capitol argentina\n
176.4355	0.075	352871	keystroke_e	e	n/a
176.9905	0.075	353981	keystroke_Key.backspace	Key.backspace	n/a
177.2155	0.06	354431	keystroke_i	i	n/a
177.3355	0.075	354671	keystroke_m	m	n/a
177.471	0.075	354942	keystroke_m	m	n/a
177.651	0.045	355302	keystroke_u	u	n/a
177.786	0.075	355572	keystroke_n	n	n/a
177.876	0.075	355752	keystroke_e	e	n/a
177.996	0.0905	355992	keystroke_Key.space	Key.space	n/a
178.191	0.06	356382	keystroke_f	f	n/a
178.2805	0.09	356561	keystroke_l	l	n/a
178.4155	0.09	356831	keystroke_a	a	n/a
178.956	0.075	357912	keystroke_v	v	n/a
179.166	0.075	358332	keystroke_o	o	n/a
179.256	0.075	358512	keystroke_r	r	n/a
179.391	0.09	358782	keystroke_Key.space	Key.space	n/a
179.751	0.105	359502	keystroke_c	c	n/a
179.901	0.105	359802	keystroke_a	a	n/a
180.081	0.0905	360162	keystroke_p	p	n/a
180.2465	0.075	360493	keystroke_i	i	n/a
180.3815	0.06	360763	keystroke_t	t	n/a
180.5615	0.09	361123	keystroke_o	o	n/a
180.8015	0.015	361603	keystroke_r	r	n/a
181.251	0.06	362502	keystroke_Key.backspace	Key.backspace	n/a
181.476	0.075	362952	keystroke_l	l	n/a
181.611	0.075	363222	keystroke_Key.space	Key.space	n/a
182.151	0.06	364302	keystroke_g	g	n/a
182.481	0.045	364962	keystroke_Key.backspace	Key.backspace	n/a
182.571	0.105	365142	keystroke_a	a	n/a
182.766	0.06	365532	keystroke_r	r	n/a
183.021	0.015	366042	keystroke_g	g	n/a
183.051	0.195	366102	keystroke_e	e	n/a
183.261	0.015	366522	keystroke_n	n	n/a
183.306	0.0605	366612	keystroke_t	t	n/a
183.3955	0.091	366791	keystroke_i	i	n/a
183.5005	0.091	367001	keystroke_n	n	n/a
183.6355	0.091	367271	keystroke_a	a	n/a
183.8755	0.06	367751	keystroke_Key.enter	Key.enter	n/a
183.9525	5.175	367905	prompt	n/a	shoot butts shorter appliances\n
184.6405	0.09	369281	keystroke_s	s	n/a
184.7155	0.09	369431	keystroke_h	h	n/a
184.7605	0.075	369521	keystroke_o	o	n/a
184.8955	0.09	369791	keystroke_o	o	n/a
185.0305	0.06	370061	keystroke_t	t	n/a
185.1355	0.06	370271	keystroke_Key.space	Key.space	n/a
185.3155	0.045	370631	keystroke_b	b	n/a
185.3755	0.075	370751	keystroke_u	u	n/a
185.5105	0.06	371021	keystroke_t	t	n/a
185.6305	0.09	371261	keystroke_t	t	n/a
185.7955	0.09	371591	keystroke_s	s	n/a
185.9155	0.075	371831	keystroke_Key.space	Key.space	n/a
186.096	0.135	372192	keystroke_s	s	n/a
186.276	0.075	372552	keystroke_h	h	n/a
186.336	0.09	372672	keystroke_o	o	n/a
186.426	0.075	372852	keystroke_r	r	n/a
186.591	0.09	373182	keystroke_t	t	n/a
186.741	0.12	373482	keystroke_e	e	n/a
186.816	0.075	373632	keystroke_r	r	n/a
186.9515	0.06	373903	keystroke_Key.space	Key.space	n/a
187.3565	0.075	374713	keystroke_a	a	n/a
187.4615	0.075	374923	keystroke_p	p	n/a
187.5815	0.09	375163	keystroke_p	p	n/a
187.7765	0.075	375553	keystroke_l	l	n/a
187.8665	0.09	375733	keystroke_i	i	n/a
188.271	0.075	376542	keystroke_a	a	n/a
188.391	0.06	376782	keystroke_n	n	n/a
188.646	0.045	377292	keystroke_c	c	n/a
188.796	0.135	377592	keystroke_e	e	n/a
188.901	0.105	377802	keystroke_s	s	n/a
189.036	0.09	378072	keystroke_Key.enter	Key.enter	n/a
189.1315	6.326	378263	prompt	n/a	discusses collectables commit cradle\n
189.8015	0.075	379603	keystroke_d	d	n/a
189.8915	0.075	379783	keystroke_i	i	n/a
190.0115	0.105	380023	keystroke_s	s	n/a
190.2815	0.06	380563	keystroke_c	c	n/a
190.3865	0.06	380773	keystroke_u	u	n/a
190.5065	0.075	381013	keystroke_s	s	n/a
190.6715	0.075	381343	keystroke_s	s	n/a
190.7765	0.105	381553	keystroke_e	e	n/a
190.8965	0.105	381793	keystroke_s	s	n/a
191.0015	0.12	382003	keystroke_Key.space	Key.space	n/a
191.3165	0.06	382633	keystroke_c	c	n/a
191.3915	0.089	382783	keystroke_o	o	n/a
191.5705	0.061	383141	keystroke_l	l	n/a
191.6915	0.09	383383	keystroke_l	l	n/a
191.7665	0.075	383533	keystroke_e	e	n/a
191.9915	0.075	383983	keystroke_c	c	n/a
192.1715	0.075	384343	keystroke_t	t	n/a
192.291	0.12	384582	keystroke_a	a	n/a
192.5155	0.045	385031	keystroke_b	b	n/a
192.5905	0.105	385181	keystroke_l	l	n/a
192.7405	0.1655	385481	keystroke_e	e	n/a
192.891	0.1195	385782	keystroke_s	s	n/a
193.0405	0.09	386081	keystroke_Key.space	Key.space	n/a
193.2205	0.09	386441	keystroke_c	c	n/a
193.3705	0.09	386741	keystroke_o	o	n/a
193.626	0.06	387252	keystroke_m	m	n/a
193.761	0.09	387522	keystroke_m	m	n/a
193.971	0.045	387942	keystroke_i	i	n/a
194.121	0.045	388242	keystroke_t	t	n/a
194.211	0.09	388422	keystroke_Key.space	Key.space	n/a
194.451	0.09	388902	keystroke_c	c	n/a
194.631	0.075	389262	keystroke_r	r	n/a
194.736	0.12	389472	keystroke_a	a	n/a
194.946	0.075	389892	keystroke_d	d	n/a
195.111	0.075	390222	keystroke_l	l	n/a
195.261	0.06	390522	keystroke_e	e	n/a
195.381	0.075	390762	keystroke_Key.enter	Key.enter	n/a
195.4605	9.6415	390921	prompt	n/a	pursuit trail waterproof insert\n
196.116	0.045	392232	keystroke_c	c	n/a
196.806	0.075	393612	keystroke_Key.backspace	Key.backspace	n/a
197.076	0.075	394152	keystroke_p	p	n/a
197.226	0.06	394452	keystroke_u	u	n/a
197.361	0.105	394722	keystroke_r	r	n/a
197.6755	0.045	395351	keystroke_s	s	n/a
197.8255	0.075	395651	keystroke_u	u	n/a
198.681	0.06	397362	keystroke_i	i	n/a
198.846	0.06	397692	keystroke_t	t	n/a
198.966	0.075	397932	keystroke_Key.space	Key.space	n/a
199.146	0.075	398292	keystroke_t	t	n/a
199.3115	0.09	398623	keystroke_r	r	n/a
199.4165	0.104	398833	keystroke_a	a	n/a
199.551	0.1495	399102	keystroke_i	i	n/a
199.6715	0.134	399343	keystroke_l	l	n/a
199.7905	0.105	399581	keystroke_Key.space	Key.space	n/a
200.0165	0.089	400033	keystroke_w	w	n/a
200.1505	0.135	400301	keystroke_a	a	n/a
200.2555	0.09	400511	keystroke_t	t	n/a
200.3605	0.12	400721	keystroke_e	e	n/a
200.4355	0.09	400871	keystroke_r	r	n/a
200.5705	0.09	401141	keystroke_Key.space	Key.space	n/a
200.6905	0.105	401381	keystroke_p	p	n/a
200.8255	0.09	401651	keystroke_r	r	n/a
201.0055	0.075	402011	keystroke_o	o	n/a
201.3055	0.06	402611	keystroke_Key.backspace	Key.backspace	n/a
201.4405	0.075	402881	keystroke_Key.backspace	Key.backspace	n/a
201.5755	0.075	403151	keystroke_Key.backspace	Key.backspace	n/a
201.7105	0.06	403421	keystroke_Key.backspace	Key.backspace	n/a
201.9355	0.0605	403871	keystroke_p	p	n/a
202.056	0.045	404112	keystroke_r	r	n/a
202.2505	0.075	404501	keystroke_o	o	n/a
202.4305	0.06	404861	keystroke_f	f	n/a
202.5805	0.06	405161	keystroke_f	f	n/a
202.6855	0.075	405371	keystroke_Key.space	Key.space	n/a
202.941	0.015	405882	keystroke_f	f	n/a
203.241	0.045	406482	keystroke_Key.backspace	Key.backspace	n/a
203.436	0.015	406872	keystroke_Key.backspace	Key.backspace	n/a
203.496	0.075	406992	keystroke_Key.backspace	Key.backspace	n/a
203.631	0.075	407262	keystroke_Key.backspace	Key.backspace	n/a
203.886	0.045	407772	keystroke_o	o	n/a
203.961	0.06	407922	keystroke_f	f	n/a
204.111	0.09	408222	keystroke_Key.space	Key.space	n/a
204.261	0.12	408522	keystroke_i	i	n/a
204.3515	0.105	408703	keystroke_n	n	n/a
204.4715	0.1645	408943	keystroke_s	s	n/a
204.5765	0.149	409153	keystroke_e	e	n/a
204.681	0.1045	409362	keystroke_r	r	n/a
204.8765	0.059	409753	keystroke_t	t	n/a
205.0255	0.075	410051	keystroke_Key.enter	Key.enter	n/a
205.106	4.932	410212	prompt	n/a	promo diagnostic karma nested\n
205.6705	0.105	411341	keystroke_p	p	n/a
205.8055	0.075	411611	keystroke_r	r	n/a
205.9105	0.135	411821	keystroke_o	o	n/a
206.0305	0.151	412061	keystroke_m	m	n/a
206.1655	0.135	412331	keystroke_o	o	n/a
206.3155	0.09	412631	keystroke_Key.space	Key.space	n/a
206.5855	0.075	413171	keystroke_d	d	n/a
206.7055	0.06	413411	keystroke_i	i	n/a
206.8255	0.15	413651	keystroke_a	a	n/a
207.0205	0.075	414041	keystroke_g	g	n/a
207.1555	0.135	414311	keystroke_n	n	n/a
207.2755	0.09	414551	keystroke_o	o	n/a
207.4255	0.15	414851	keystroke_s	s	n/a
207.6505	0.075	415301	keystroke_t	t	n/a
207.8305	0.06	415661	keystroke_i	i	n/a
207.9505	0.105	415901	keystroke_c	c	n/a
208.0855	0.09	416171	keystroke_Key.space	Key.space	n/a
208.2805	0.075	416561	keystroke_k	k	n/a
208.3855	0.105	416771	keystroke_a	a	n/a
208.4755	0.09	416951	keystroke_r	r	n/a
208.6405	0.1055	417281	keystroke_m	m	n/a
208.761	0.09	417522	keystroke_a	a	n/a
208.911	0.075	417822	keystroke_Key.space	Key.space	n/a
209.136	0.075	418272	keystroke_n	n	n/a
209.2255	0.1655	418451	keystroke_e	e	n/a
209.376	0.15	418752	keystroke_s	s	n/a
209.496	0.15	418992	keystroke_t	t	n/a
209.631	0.09	419262	keystroke_e	e	n/a
209.811	0.075	419622	keystroke_d	d	n/a
209.931	0.105	419862	keystroke_Key.enter	Key.enter	n/a
210.0415	5.261	420083	prompt	n/a	accuracy advances ease waiver\n
210.591	0.09	421182	keystroke_a	a	n/a
210.801	0.045	421602	keystroke_c	c	n/a
210.921	0.09	421842	keystroke_c	c	n/a
211.041	0.09	422082	keystroke_u	u	n/a
211.146	0.09	422292	keystroke_r	r	n/a
211.326	0.09	422652	keystroke_a	a	n/a
211.551	0.045	423102	keystroke_c	c	n/a
211.686	0.09	423372	keystroke_y	y	n/a
211.761	0.075	423522	keystroke_Key.space	Key.space	n/a
211.956	0.075	423912	keystroke_a	a	n/a
212.091	0.09	424182	keystroke_d	d	n/a
212.3005	0.075	424601	keystroke_v	v	n/a
212.511	0.09	425022	keystroke_a	a	n/a
212.781	0.075	425562	keystroke_n	n	n/a
212.916	0.09	425832	keystroke_c	c	n/a
213.111	0.06	426222	keystroke_e	e	n/a
213.351	0.09	426702	keystroke_s	s	n/a
213.501	0.06	427002	keystroke_Key.space	Key.space	n/a
213.741	0.09	427482	keystroke_e	e	n/a
213.891	0.195	427782	keystroke_a	a	n/a
214.056	0.105	428112	keystroke_s	s	n/a
214.131	0.105	428262	keystroke_e	e	n/a
214.2665	0.075	428533	keystroke_Key.space	Key.space	n/a
214.3715	0.09	428743	keystroke_w	w	n/a
214.4765	0.195	428953	keystroke_a	a	n/a
214.6565	0.09	429313	keystroke_i	i	n/a
214.8815	0.105	429763	keystroke_v	v	n/a
214.9715	0.15	429943	keystroke_e	e	n/a
215.0915	0.09	430183	keystroke_r	r	n/a
215.2105	0.09	430421	keystroke_Key.enter	Key.enter	n/a
215.3055	4.782	430611	prompt	n/a	corresponding micro has doubt\n
216.006	0.015	432012	keystroke_c	c	n/a
216.022	0.059	432044	keystroke_o	o	n/a
216.141	0.06	432282	keystroke_r	r	n/a
216.276	0.21	432552	keystroke_r	r	n/a
216.441	0.225	432882	keystroke_e	e	n/a
216.651	0.09	433302	keystroke_s	s	n/a
216.861	0.1055	433722	keystroke_p	p	n/a
216.951	0.1795	433902	keystroke_o	o	n/a
217.1015	0.105	434203	keystroke_n	n	n/a
217.2365	0.089	434473	keystroke_d	d	n/a
217.3115	0.105	434623	keystroke_i	i	n/a
217.3865	0.119	434773	keystroke_n	n	n/a
217.4915	0.06	434983	keystroke_g	g	n/a
217.5655	0.1655	435131	keystroke_Key.space	Key.space	n/a
217.701	0.165	435402	keystroke_m	m	n/a
217.851	0.09	435702	keystroke_i	i	n/a
217.971	0.075	435942	keystroke_c	c	n/a
218.166	0.075	436332	keystroke_r	r	n/a
218.301	0.135	436602	keystroke_o	o	n/a
218.481	0.105	436962	keystroke_Key.space	Key.space	n/a
218.841	0.06	437682	keystroke_h	h	n/a
218.931	0.18	437862	keystroke_a	a	n/a
219.096	0.09	438192	keystroke_s	s	n/a
219.201	0.075	438402	keystroke_Key.space	Key.space	n/a
219.336	0.075	438672	keystroke_d	d	n/a
219.426	0.105	438852	keystroke_o	o	n/a
219.516	0.075	439032	keystroke_u	u	n/a
219.606	0.075	439212	keystroke_b	b	n/a
219.846	0.045	439692	keystroke_t	t	n/a
219.966	0.12	439932	keystroke_Key.enter	Key.enter	n/a
220.091	8.4115	440182	prompt	n/a	aims leonard cream switching\n
220.686	0.105	441372	keystroke_a	a	n/a
220.806	0.09	441612	keystroke_i	i	n/a
220.941	0.09	441882	keystroke_m	m	n/a
221.076	0.0895	442152	keystroke_s	s	n/a
221.226	0.06	442452	keystroke_Key.space	Key.space	n/a
221.4655	0.075	442931	keystroke_l	l	n/a
221.706	0.045	443412	keystroke_o	o	n/a
222.006	0.06	444012	keystroke_Key.backspace	Key.backspace	n/a
222.141	0.06	444282	keystroke_e	e	n/a
222.2465	0.105	444493	keystroke_o	o	n/a
222.3815	0.075	444763	keystroke_n	n	n/a
222.5915	0.09	445183	keystroke_a	a	n/a
223.0565	0.075	446113	keystroke_Key.backspace	Key.backspace	n/a
223.5515	0.03	447103	keystroke_r	r	n/a
223.8365	0.045	447673	keystroke_Key.backspace	Key.backspace	n/a
223.9115	0.15	447823	keystroke_a	a	n/a
224.0165	0.09	448033	keystroke_r	r	n/a
224.2415	0.075	448483	keystroke_d	d	n/a
224.3455	0.06	448691	keystroke_Key.space	Key.space	n/a
224.796	0.09	449592	keystroke_c	c	n/a
225.036	0.09	450072	keystroke_r	r	n/a
225.126	0.195	450252	keystroke_e	e	n/a
225.336	0.105	450672	keystroke_a	a	n/a
225.441	0.105	450882	keystroke_m	m	n/a
225.561	0.09	451122	keystroke_Key.space	Key.space	n/a
225.861	0.06	451722	keystroke_s	s	n/a
226.026	0.09	452052	keystroke_w	w	n/a
226.1755	0.061	452351	keystroke_i	i	n/a
226.2965	0.0445	452593	keystroke_t	t	n/a
226.4765	0.09	452953	keystroke_h	h	n/a
226.611	0.09	453222	keystroke_c	c	n/a
227.091	0.0745	454182	keystroke_Key.backspace	Key.backspace	n/a
227.4055	0.09	454811	keystroke_Key.backspace	Key.backspace	n/a
227.856	0.075	455712	keystroke_c	c	n/a
227.946	0.105	455892	keystroke_h	h	n/a
228.021	0.151	456042	keystroke_i	i	n/a
228.156	0.09	456312	keystroke_n	n	n/a
228.261	0.0595	456522	keystroke_g	g	n/a
228.4255	0.075	456851	keystroke_Key.enter	Key.enter	n/a
228.5085	5.372	457017	prompt	n/a	restored boulevard metals burst\n
229.131	0.135	458262	keystroke_r	r	n/a
229.191	0.105	458382	keystroke_e	e	n/a
229.536	0.075	459072	keystroke_s	s	n/a
229.866	0.06	459732	keystroke_t	t	n/a
229.956	0.105	459912	keystroke_o	o	n/a
230.091	0.135	460182	keystroke_r	r	n/a
230.166	0.135	460332	keystroke_e	e	n/a
230.391	0.075	460782	keystroke_d	d	n/a
230.481	0.075	460962	keystroke_Key.space	Key.space	n/a
230.676	0.045	461352	keystroke_b	b	n/a
230.751	0.12	461502	keystroke_o	o	n/a
230.826	0.09	461652	keystroke_u	u	n/a
231.006	0.105	462012	keystroke_l	l	n/a
231.096	0.06	462192	keystroke_e	e	n/a
231.306	0.075	462612	keystroke_v	v	n/a
231.411	0.165	462822	keystroke_a	a	n/a
231.651	0.06	463302	keystroke_r	r	n/a
231.876	0.075	463752	keystroke_d	d	n/a
231.966	0.105	463932	keystroke_Key.space	Key.space	n/a
232.116	0.105	464232	keystroke_m	m	n/a
232.236	0.075	464472	keystroke_e	e	n/a
232.386	0.09	464772	keystroke_t	t	n/a
232.521	0.09	465042	keystroke_a	a	n/a
232.656	0.075	465312	keystroke_l	l	n/a
232.776	0.06	465552	keystroke_s	s	n/a
232.881	0.045	465762	keystroke_Key.space	Key.space	n/a
233.016	0.06	466032	keystroke_b	b	n/a
233.181	0.06	466362	keystroke_u	u	n/a
233.271	0.075	466542	keystroke_r	r	n/a
233.496	0.135	466992	keystroke_s	s	n/a
233.616	0.09	467232	keystroke_t	t	n/a
233.796	0.075	467592	keystroke_Key.enter	Key.enter	n/a
233.8805	6.112	467761	prompt	n/a	gross user kinda audience\n
234.696	0.075	469392	keystroke_g	g	n/a
234.861	0.09	469722	keystroke_r	r	n/a
235.071	0.045	470142	keystroke_o	o	n/a
235.161	0.075	470322	keystroke_s	s	n/a
235.296	0.105	470592	keystroke_s	s	n/a
235.386	0.09	470772	keystroke_Key.space	Key.space	n/a
235.521	0.075	471042	keystroke_u	u	n/a
235.716	0.075	471432	keystroke_s	s	n/a
235.821	0.06	471642	keystroke_e	e	n/a
235.866	0.12	471732	keystroke_r	r	n/a
236.001	0.09	472002	keystroke_Key.space	Key.space	n/a
236.166	0.075	472332	keystroke_k	k	n/a
236.301	0.075	472602	keystroke_i	i	n/a
236.346	0.12	472692	keystroke_n	n	n/a
236.541	0.075	473082	keystroke_d	d	n/a
236.736	0.09	473472	keystroke_a	a	n/a
236.856	0.075	473712	keystroke_Key.space	Key.space	n/a
237.006	0.105	474012	keystroke_a	a	n/a
237.156	0.09	474312	keystroke_u	u	n/a
237.426	0.045	474852	keystroke_d	d	n/a
237.546	0.105	475092	keystroke_i	i	n/a
237.741	0.09	475482	keystroke_a	a	n/a
237.8755	0.0605	475751	keystroke_n	n	n/a
238.026	0.06	476052	keystroke_c	c	n/a
238.5355	0.045	477071	keystroke_Key.backspace	Key.backspace	n/a
238.6555	0.0605	477311	keystroke_Key.backspace	Key.backspace	n/a
238.761	0.09	477522	keystroke_Key.backspace	Key.backspace	n/a
238.866	0.06	477732	keystroke_e	e	n/a
239.046	0.045	478092	keystroke_n	n	n/a
239.136	0.09	478272	keystroke_c	c	n/a
239.346	0.075	478692	keystroke_e	e	n/a
239.916	0.075	479832	keystroke_Key.enter	Key.enter	n/a
239.9965	7.3765	479993	prompt	n/a	continuous rome hoping edwards\n
240.696	0.09	481392	keystroke_c	c	n/a
240.801	0.105	481602	keystroke_o	o	n/a
240.951	0.09	481902	keystroke_n	n	n/a
241.101	0.06	482202	keystroke_t	t	n/a
241.251	0.075	482502	keystroke_i	i	n/a
241.296	0.09	482592	keystroke_n	n	n/a
241.491	0.06	482982	keystroke_u	u	n/a
241.746	0.045	483492	keystroke_o	o	n/a
241.776	0.105	483552	keystroke_u	u	n/a
242.556	0.06	485112	keystroke_Key.backspace	Key.backspace	n/a
242.706	0.045	485412	keystroke_Key.backspace	Key.backspace	n/a
243.201	0.105	486402	keystroke_o	o	n/a
243.276	0.075	486552	keystroke_u	u	n/a
243.426	0.06	486852	keystroke_s	s	n/a
243.531	0.075	487062	keystroke_Key.space	Key.space	n/a
243.996	0.075	487992	keystroke_r	r	n/a
244.101	0.09	488202	keystroke_o	o	n/a
244.161	0.105	488322	keystroke_m	m	n/a
244.266	0.075	488532	keystroke_e	e	n/a
244.356	0.09	488712	keystroke_Key.space	Key.space	n/a
244.7165	0.135	489433	keystroke_h	h	n/a
244.7915	0.12	489583	keystroke_o	o	n/a
245.001	0.1505	490002	keystroke_p	p	n/a
245.2415	0.09	490483	keystroke_i	i	n/a
245.3015	0.105	490603	keystroke_n	n	n/a
245.3915	0.06	490783	keystroke_g	g	n/a
245.4965	0.0895	490993	keystroke_Key.space	Key.space	n/a
245.8865	0.09	491773	keystroke_e	e	n/a
246.1115	0.075	492223	keystroke_d	d	n/a
246.3665	0.075	492733	keystroke_w	w	n/a
246.5015	0.18	493003	keystroke_a	a	n/a
246.6665	0.06	493333	keystroke_r	r	n/a
246.9365	0.06	493873	keystroke_d	d	n/a
247.1615	0.06	494323	keystroke_s	s	n/a
247.2955	0.076	494591	keystroke_Key.enter	Key.enter	n/a
247.3785	8.1545	494757	prompt	n/a	copyrights organizer specialties illustrated\n
247.9115	0.075	495823	keystroke_c	c	n/a
248.0015	0.12	496003	keystroke_o	o	n/a
248.1365	0.135	496273	keystroke_p	p	n/a
248.2865	0.075	496573	keystroke_y	y	n/a
248.4665	0.075	496933	keystroke_r	r	n/a
248.6015	0.075	497203	keystroke_i	i	n/a
248.7365	0.06	497473	keystroke_g	g	n/a
248.8255	0.091	497651	keystroke_h	h	n/a
248.9305	0.0755	497861	keystroke_t	t	n/a
249.126	0.075	498252	keystroke_s	s	n/a
249.186	0.105	498372	keystroke_Key.space	Key.space	n/a
249.321	0.09	498642	keystroke_o	o	n/a
249.441	0.075	498882	keystroke_r	r	n/a
249.741	0.09	499482	keystroke_g	g	n/a
249.861	0.105	499722	keystroke_a	a	n/a
250.011	0.09	500022	keystroke_n	n	n/a
250.2205	0.045	500441	keystroke_z	z	n/a
250.2805	0.06	500561	keystroke_i	i	n/a
250.6255	0.045	501251	keystroke_Key.backspace	Key.backspace	n/a
250.7305	0.06	501461	keystroke_Key.backspace	Key.backspace	n/a
250.9405	0.06	501881	keystroke_i	i	n/a
251.046	0.075	502092	keystroke_z	z	n/a
251.2415	0.135	502483	keystroke_e	e	n/a
251.3315	0.105	502663	keystroke_r	r	n/a
251.4665	0.09	502933	keystroke_Key.space	Key.space	n/a
251.6315	0.09	503263	keystroke_s	s	n/a
251.7815	0.075	503563	keystroke_p	p	n/a
251.8715	0.12	503743	keystroke_e	e	n/a
252.1115	0.09	504223	keystroke_c	c	n/a
252.2165	0.0895	504433	keystroke_i	i	n/a
252.336	0.105	504672	keystroke_a	a	n/a
252.486	0.09	504972	keystroke_l	l	n/a
252.666	0.045	505332	keystroke_t	t	n/a
252.756	0.075	505512	keystroke_i	i	n/a
252.846	0.15	505692	keystroke_e	e	n/a
252.966	0.105	505932	keystroke_s	s	n/a
253.086	0.105	506172	keystroke_Key.space	Key.space	n/a
253.251	0.075	506502	keystroke_i	i	n/a
253.431	0.03	506862	keystroke_s	s	n/a
253.8365	0.0295	507673	keystroke_Key.backspace	Key.backspace	n/a
254.0615	0.045	508123	keystroke_l	l	n/a
254.1815	0.1045	508363	keystroke_l	l	n/a
254.271	0.075	508542	keystroke_u	u	n/a
254.376	0.105	508752	keystroke_s	s	n/a
254.526	0.09	509052	keystroke_t	t	n/a
254.7205	0.075	509441	keystroke_r	r	n/a
254.8405	0.09	509681	keystroke_a	a	n/a
255.0505	0.09	510101	keystroke_t	t	n/a
255.0955	0.105	510191	keystroke_e	e	n/a
255.3055	0.075	510611	keystroke_d	d	n/a
255.4405	0.09	510881	keystroke_Key.enter	Key.enter	n/a
255.5385	5.619	511077	prompt	n/a	shaped ozone street attraction\n
256.176	0.0905	512352	keystroke_s	s	n/a
256.2365	0.135	512473	keystroke_h	h	n/a
256.5065	0.09	513013	keystroke_a	a	n/a
256.6715	0.09	513343	keystroke_p	p	n/a
256.7755	0.075	513551	keystroke_e	e	n/a
256.9565	0.09	513913	keystroke_d	d	n/a
257.1055	0.09	514211	keystroke_Key.space	Key.space	n/a
257.2555	0.09	514511	keystroke_o	o	n/a
257.5855	0.075	515171	keystroke_z	z	n/a
257.6755	0.136	515351	keystroke_o	o	n/a
257.7805	0.106	515561	keystroke_n	n	n/a
257.9005	0.09	515801	keystroke_e	e	n/a
258.0055	0.105	516011	keystroke_Key.space	Key.space	n/a
258.2905	0.075	516581	keystroke_s	s	n/a
258.5005	0.045	517001	keystroke_t	t	n/a
258.6215	0.105	517243	keystroke_r	r	n/a
258.6965	0.105	517393	keystroke_e	e	n/a
258.8915	0.09	517783	keystroke_e	e	n/a
259.0415	0.09	518083	keystroke_t	t	n/a
259.1455	0.105	518291	keystroke_Key.space	Key.space	n/a
259.3705	0.105	518741	keystroke_a	a	n/a
259.4905	0.06	518981	keystroke_t	t	n/a
259.6105	0.075	519221	keystroke_t	t	n/a
259.7465	0.089	519493	keystroke_r	r	n/a
259.8805	0.105	519761	keystroke_a	a	n/a
260.3165	0.074	520633	keystroke_c	c	n/a
260.5555	0.06	521111	keystroke_t	t	n/a
260.6605	0.15	521321	keystroke_i	i	n/a
260.7655	0.135	521531	keystroke_o	o	n/a
260.8705	0.105	521741	keystroke_n	n	n/a
261.0655	0.09	522131	keystroke_Key.enter	Key.enter	n/a
261.1605	6.2525	522321	prompt	n/a	analyst builds prominent prayer\n
261.6805	0.045	523361	keystroke_s	s	n/a
261.9655	0.075	523931	keystroke_Key.backspace	Key.backspace	n/a
262.1005	0.105	524201	keystroke_a	a	n/a
262.2355	0.061	524471	keystroke_n	n	n/a
262.3705	0.06	524741	keystroke_a	a	n/a
262.5205	0.06	525041	keystroke_l	l	n/a
262.671	0.075	525342	keystroke_y	y	n/a
262.821	0.075	525642	keystroke_s	s	n/a
262.941	0.075	525882	keystroke_Key.space	Key.space	n/a
263.241	0.0745	526482	keystroke_Key.backspace	Key.backspace	n/a
263.3755	0.06	526751	keystroke_t	t	n/a
263.4805	0.075	526961	keystroke_Key.space	Key.space	n/a
263.751	0.06	527502	keystroke_b	b	n/a
263.856	0.075	527712	keystroke_u	u	n/a
264.036	0.06	528072	keystroke_i	i	n/a
264.141	0.1045	528282	keystroke_l	l	n/a
264.2755	0.09	528551	keystroke_d	d	n/a
264.4855	0.075	528971	keystroke_s	s	n/a
264.5905	0.091	529181	keystroke_Key.space	Key.space	n/a
264.7565	0.105	529513	keystroke_p	p	n/a
264.9215	0.06	529843	keystroke_r	r	n/a
264.9965	0.15	529993	keystroke_o	o	n/a
265.1315	0.0895	530263	keystroke_m	m	n/a
265.311	0.105	530622	keystroke_i	i	n/a
265.401	0.075	530802	keystroke_n	n	n/a
265.5215	0.09	531043	keystroke_e	e	n/a
265.6415	0.09	531283	keystroke_n	n	n/a
265.7765	0.06	531553	keystroke_t	t	n/a
265.8805	0.09	531761	keystroke_Key.space	Key.space	n/a
266.0605	0.09	532121	keystroke_p	p	n/a
266.1955	0.03	532391	keystroke_a	a	n/a
266.5265	0.045	533053	keystroke_Key.backspace	Key.backspace	n/a
266.6615	0.0595	533323	keystroke_r	r	n/a
266.841	0.0755	533682	keystroke_a	a	n/a
266.9765	0.03	533953	keystroke_y	y	n/a
267.0815	0.1195	534163	keystroke_e	e	n/a
267.156	0.09	534312	keystroke_r	r	n/a
267.351	0.0605	534702	keystroke_Key.enter	Key.enter	n/a
267.416	6.6865	534832	prompt	n/a	football coral organizational pottery\n
267.996	0.075	535992	keystroke_f	f	n/a
268.1015	0.0595	536203	keystroke_o	o	n/a
268.236	0.0905	536472	keystroke_o	o	n/a
268.5215	0.075	537043	keystroke_t	t	n/a
268.7165	0.0895	537433	keystroke_b	b	n/a
268.836	0.135	537672	keystroke_a	a	n/a
268.986	0.045	537972	keystroke_l	l	n/a
269.106	0.135	538212	keystroke_l	l	n/a
269.211	0.09	538422	keystroke_Key.space	Key.space	n/a
269.361	0.09	538722	keystroke_c	c	n/a
269.421	0.075	538842	keystroke_o	o	n/a
269.556	0.105	539112	keystroke_r	r	n/a
269.691	0.12	539382	keystroke_a	a	n/a
269.781	0.105	539562	keystroke_l	l	n/a
269.871	0.12	539742	keystroke_Key.space	Key.space	n/a
270.006	0.105	540012	keystroke_o	o	n/a
270.201	0.075	540402	keystroke_r	r	n/a
270.456	0.075	540912	keystroke_g	g	n/a
270.606	0.12	541212	keystroke_a	a	n/a
270.771	0.09	541542	keystroke_n	n	n/a
270.921	0.075	541842	keystroke_i	i	n/a
271.071	0.09	542142	keystroke_z	z	n/a
271.281	0.0755	542562	keystroke_a	a	n/a
271.476	0.06	542952	keystroke_t	t	n/a
271.626	0.1355	543252	keystroke_i	i	n/a
271.731	0.1355	543462	keystroke_o	o	n/a
271.8365	0.12	543673	keystroke_n	n	n/a
271.9715	0.075	543943	keystroke_a	a	n/a
272.0615	0.135	544123	keystroke_l	l	n/a
272.1815	0.1345	544363	keystroke_Key.space	Key.space	n/a
272.361	0.105	544722	keystroke_p	p	n/a
272.571	0.06	545142	keystroke_t	t	n/a
272.946	0.06	545892	keystroke_Key.backspace	Key.backspace	n/a
273.156	0.075	546312	keystroke_o	o	n/a
273.351	0.045	546702	keystroke_t	t	n/a
273.471	0.09	546942	keystroke_t	t	n/a
273.591	0.105	547182	keystroke_e	e	n/a
273.651	0.09	547302	keystroke_r	r	n/a
273.801	0.075	547602	keystroke_y	y	n/a
274.011	0.09	548022	keystroke_Key.enter	Key.enter	n/a
274.105	5.233	548210	prompt	n/a	flex harassment cove wider\n
274.626	0.0755	549252	keystroke_f	f	n/a
275.4065	0.06	550813	keystroke_l	l	n/a
275.5265	0.0595	551053	keystroke_e	e	n/a
275.751	0.09	551502	keystroke_x	x	n/a
275.856	0.105	551712	keystroke_Key.space	Key.space	n/a
275.991	0.075	551982	keystroke_h	h	n/a
276.111	0.12	552222	keystroke_a	a	n/a
276.261	0.0745	552522	keystroke_r	r	n/a
276.4405	0.0755	552881	keystroke_a	a	n/a
276.636	0.06	553272	keystroke_s	s	n/a
276.772	0.089	553544	keystroke_s	s	n/a
276.951	0.075	553902	keystroke_m	m	n/a
277.056	0.105	554112	keystroke_e	e	n/a
277.191	0.075	554382	keystroke_n	n	n/a
277.281	0.06	554562	keystroke_t	t	n/a
277.386	0.105	554772	keystroke_Key.space	Key.space	n/a
277.566	0.06	555132	keystroke_c	c	n/a
277.656	0.165	555312	keystroke_o	o	n/a
277.866	0.12	555732	keystroke_v	v	n/a
277.971	0.105	555942	keystroke_e	e	n/a
278.106	0.105	556212	keystroke_Key.space	Key.space	n/a
278.406	0.075	556812	keystroke_w	w	n/a
278.571	0.06	557142	keystroke_i	i	n/a
278.886	0.06	557772	keystroke_d	d	n/a
279.021	0.15	558042	keystroke_e	e	n/a
279.126	0.09	558252	keystroke_r	r	n/a
279.261	0.075	558522	keystroke_Key.enter	Key.enter	n/a
279.3415	7.751	558683	prompt	n/a	related sierra hopkins that're\n
279.936	0.1195	559872	keystroke_r	r	n/a
280.0415	0.1195	560083	keystroke_e	e	n/a
280.1465	0.12	560293	keystroke_l	l	n/a
280.3115	0.09	560623	keystroke_a	a	n/a
280.3715	0.105	560743	keystroke_t	t	n/a
280.4915	0.105	560983	keystroke_i	i	n/a
280.6115	0.075	561223	keystroke_e	e	n/a
280.7765	0.09	561553	keystroke_d	d	n/a
280.9715	0.059	561943	keystroke_Key.space	Key.space	n/a
281.331	0.075	562662	keystroke_Key.backspace	Key.backspace	n/a
281.481	0.075	562962	keystroke_Key.backspace	Key.backspace	n/a
281.616	0.075	563232	keystroke_Key.backspace	Key.backspace	n/a
281.751	0.075	563502	keystroke_Key.backspace	Key.backspace	n/a
281.841	0.06	563682	keystroke_e	e	n/a
282.007	0.074	564014	keystroke_d	d	n/a
282.096	0.075	564192	keystroke_Key.space	Key.space	n/a
282.4565	0.0595	564913	keystroke_s	s	n/a
282.546	0.045	565092	keystroke_e	e	n/a
282.951	0.075	565902	keystroke_Key.backspace	Key.backspace	n/a
283.161	0.09	566322	keystroke_i	i	n/a
283.236	0.12	566472	keystroke_e	e	n/a
283.341	0.075	566682	keystroke_r	r	n/a
283.521	0.105	567042	keystroke_r	r	n/a
283.641	0.105	567282	keystroke_a	a	n/a
283.761	0.0895	567522	keystroke_Key.space	Key.space	n/a
284.0305	0.121	568061	keystroke_h	h	n/a
284.0905	0.12	568181	keystroke_o	o	n/a
284.3605	0.091	568721	keystroke_p	p	n/a
284.661	0.075	569322	keystroke_k	k	n/a
284.796	0.105	569592	keystroke_i	i	n/a
284.886	0.105	569772	keystroke_n	n	n/a
285.111	0.075	570222	keystroke_s	s	n/a
285.201	0.09	570402	keystroke_Key.space	Key.space	n/a
285.516	0.06	571032	keystroke_t	t	n/a
285.606	0.075	571212	keystroke_h	h	n/a
285.696	0.12	571392	keystroke_a	a	n/a
285.771	0.06	571542	keystroke_t	t	n/a
285.906	0.06	571812	keystroke_'	'	n/a
286.1915	0.105	572383	keystroke_r	r	n/a
286.2665	0.105	572533	keystroke_e	e	n/a
287.016	0.075	574032	keystroke_Key.enter	Key.enter	n/a
287.096	4.542	574192	prompt	n/a	kenneth yard picture position\n
287.811	0.075	575622	keystroke_k	k	n/a
287.871	0.06	575742	keystroke_e	e	n/a
287.991	0.06	575982	keystroke_n	n	n/a
288.111	0.075	576222	keystroke_n	n	n/a
288.216	0.0605	576432	keystroke_e	e	n/a
288.3665	0.075	576733	keystroke_t	t	n/a
288.4565	0.1045	576913	keystroke_h	h	n/a
288.546	0.075	577092	keystroke_Key.space	Key.space	n/a
288.756	0.06	577512	keystroke_y	y	n/a
288.906	0.135	577812	keystroke_a	a	n/a
289.011	0.09	578022	keystroke_r	r	n/a
289.221	0.06	578442	keystroke_d	d	n/a
289.266	0.12	578532	keystroke_Key.space	Key.space	n/a
289.461	0.12	578922	keystroke_p	p	n/a
289.596	0.06	579192	keystroke_i	i	n/a
289.761	0.075	579522	keystroke_c	c	n/a
289.941	0.075	579882	keystroke_t	t	n/a
290.046	0.09	580092	keystroke_u	u	n/a
290.121	0.12	580242	keystroke_r	r	n/a
290.181	0.12	580362	keystroke_e	e	n/a
290.346	0.09	580692	keystroke_Key.space	Key.space	n/a
290.451	0.135	580902	keystroke_p	p	n/a
290.556	0.09	581112	keystroke_o	o	n/a
290.676	0.105	581352	keystroke_s	s	n/a
290.796	0.075	581592	keystroke_i	i	n/a
290.991	0.075	581982	keystroke_t	t	n/a
291.126	0.135	582252	keystroke_i	i	n/a
291.231	0.12	582462	keystroke_o	o	n/a
291.321	0.09	582642	keystroke_n	n	n/a
291.546	0.09	583092	keystroke_Key.enter	Key.enter	n/a
291.6405	5.937	583281	prompt	n/a	cameron xerox villas tubes\n
292.221	0.09	584442	keystroke_c	c	n/a
292.326	0.12	584652	keystroke_a	a	n/a
292.447	0.074	584894	keystroke_m	m	n/a
292.5665	0.135	585133	keystroke_e	e	n/a
292.6865	0.075	585373	keystroke_r	r	n/a
292.8065	0.135	585613	keystroke_o	o	n/a
292.9265	0.15	585853	keystroke_n	n	n/a
293.0315	0.09	586063	keystroke_Key.space	Key.space	n/a
293.3315	0.075	586663	keystroke_x	x	n/a
293.4515	0.09	586903	keystroke_e	e	n/a
293.7065	0.075	587413	keystroke_r	r	n/a
293.9165	0.045	587833	keystroke_o	o	n/a
294.2765	0.075	588553	keystroke_x	x	n/a
294.6365	0.075	589273	keystroke_Key.space	Key.space	n/a
295.9265	0.075	591853	keystroke_v	v	n/a
296.0015	0.0745	592003	keystroke_i	i	n/a
296.121	0.075	592242	keystroke_l	l	n/a
296.2555	0.105	592511	keystroke_l	l	n/a
296.3765	0.104	592753	keystroke_a	a	n/a
296.5705	0.075	593141	keystroke_s	s	n/a
296.6905	0.06	593381	keystroke_Key.space	Key.space	n/a
296.8705	0.06	593741	keystroke_t	t	n/a
296.9615	0.075	593923	keystroke_u	u	n/a
297.0955	0.1205	594191	keystroke_b	b	n/a
297.201	0.09	594402	keystroke_e	e	n/a
297.351	0.105	594702	keystroke_s	s	n/a
297.486	0.09	594972	keystroke_Key.enter	Key.enter	n/a
297.581	5.097	595162	prompt	n/a	exceed announce tune fruit\n
298.101	0.09	596202	keystroke_e	e	n/a
298.2665	0.105	596533	keystroke_x	x	n/a
298.4465	0.09	596893	keystroke_c	c	n/a
298.6415	0.06	597283	keystroke_e	e	n/a
298.7615	0.105	597523	keystroke_e	e	n/a
299.0015	0.075	598003	keystroke_d	d	n/a
299.1065	0.09	598213	keystroke_Key.space	Key.space	n/a
299.3465	0.075	598693	keystroke_a	a	n/a
299.4365	0.075	598873	keystroke_n	n	n/a
299.5715	0.09	599143	keystroke_n	n	n/a
299.6915	0.105	599383	keystroke_o	o	n/a
299.7815	0.075	599563	keystroke_u	u	n/a
299.9615	0.075	599923	keystroke_n	n	n/a
300.0665	0.075	600133	keystroke_c	c	n/a
300.2465	0.06	600493	keystroke_e	e	n/a
300.3215	0.09	600643	keystroke_Key.space	Key.space	n/a
301.2815	0.045	602563	keystroke_t	t	n/a
301.3715	0.075	602743	keystroke_u	u	n/a
301.5365	0.09	603073	keystroke_n	n	n/a
301.6115	0.075	603223	keystroke_e	e	n/a
301.7005	0.091	603401	keystroke_Key.space	Key.space	n/a
301.8515	0.045	603703	keystroke_f	f	n/a
302.0005	0.061	604001	keystroke_r	r	n/a
302.1365	0.075	604273	keystroke_u	u	n/a
302.3615	0.045	604723	keystroke_i	i	n/a
302.4815	0.045	604963	keystroke_t	t	n/a
302.6305	0.045	605261	keystroke_Key.enter	Key.enter	n/a
302.6815	5.1565	605363	prompt	n/a	pointed gaps exotic common\n
303.3355	0.151	606671	keystroke_p	p	n/a
303.4415	0.149	606883	keystroke_o	o	n/a
303.5315	0.12	607063	keystroke_i	i	n/a
303.6055	0.106	607211	keystroke_n	n	n/a
303.7565	0.135	607513	keystroke_t	t	n/a
303.8465	0.104	607693	keystroke_e	e	n/a
304.0715	0.045	608143	keystroke_d	d	n/a
304.1315	0.089	608263	keystroke_Key.space	Key.space	n/a
304.3415	0.075	608683	keystroke_g	g	n/a
304.4465	0.149	608893	keystroke_a	a	n/a
304.6105	0.091	609221	keystroke_p	p	n/a
304.7615	0.089	609523	keystroke_s	s	n/a
304.8955	0.075	609791	keystroke_Key.space	Key.space	n/a
305.2705	0.045	610541	keystroke_e	e	n/a
305.4065	0.12	610813	keystroke_x	x	n/a
305.6165	0.09	611233	keystroke_o	o	n/a
305.8555	0.076	611711	keystroke_t	t	n/a
305.9905	0.06	611981	keystroke_i	i	n/a
306.0955	0.076	612191	keystroke_c	c	n/a
306.5755	0.075	613151	keystroke_Key.space	Key.space	n/a
306.8305	0.06	613661	keystroke_c	c	n/a
306.9655	0.091	613931	keystroke_o	o	n/a
307.0105	0.09	614021	keystroke_m	m	n/a
307.1465	0.089	614293	keystroke_m	m	n/a
307.2505	0.135	614501	keystroke_o	o	n/a
307.3555	0.045	614711	keystroke_n	n	n/a
307.7755	0.06	615551	keystroke_Key.enter	Key.enter	n/a
307.841	6.2065	615682	prompt	n/a	proceedings sensor maria digit\n
308.4805	0.09	616961	keystroke_p	p	n/a
308.6005	0.09	617201	keystroke_r	r	n/a
308.7065	0.074	617413	keystroke_o	o	n/a
308.8705	0.09	617741	keystroke_c	c	n/a
309.0955	0.06	618191	keystroke_e	e	n/a
309.2155	0.091	618431	keystroke_e	e	n/a
309.3955	0.091	618791	keystroke_d	d	n/a
309.4705	0.09	618941	keystroke_i	i	n/a
309.5455	0.12	619091	keystroke_n	n	n/a
309.6505	0.06	619301	keystroke_g	g	n/a
309.9515	0.059	619903	keystroke_s	s	n/a
310.0715	0.089	620143	keystroke_Key.space	Key.space	n/a
310.2515	0.075	620503	keystroke_s	s	n/a
310.4315	0.045	620863	keystroke_e	e	n/a
310.5215	0.075	621043	keystroke_n	n	n/a
311.2115	0.105	622423	keystroke_s	s	n/a
311.4515	0.075	622903	keystroke_o	o	n/a
311.5865	0.045	623173	keystroke_r	r	n/a
311.6615	0.12	623323	keystroke_Key.space	Key.space	n/a
311.7965	0.105	623593	keystroke_m	m	n/a
312.0065	0.135	624013	keystroke_a	a	n/a
312.1565	0.06	624313	keystroke_r	r	n/a
312.2615	0.09	624523	keystroke_i	i	n/a
312.3815	0.105	624763	keystroke_a	a	n/a
312.696	0.0595	625392	keystroke_Key.space	Key.space	n/a
312.966	0.0745	625932	keystroke_d	d	n/a
313.1005	0.075	626201	keystroke_i	i	n/a
313.3255	0.045	626651	keystroke_g	g	n/a
313.4605	0.075	626921	keystroke_i	i	n/a
313.821	0.045	627642	keystroke_t	t	n/a
313.971	0.075	627942	keystroke_Key.enter	Key.enter	n/a
314.051	5.7115	628102	prompt	n/a	names consolidation donor every\n
314.7365	0.075	629473	keystroke_n	n	n/a
314.8265	0.09	629653	keystroke_a	a	n/a
314.9315	0.075	629863	keystroke_m	m	n/a
315.0065	0.135	630013	keystroke_e	e	n/a
315.1265	0.105	630253	keystroke_s	s	n/a
315.2465	0.06	630493	keystroke_Key.space	Key.space	n/a
315.5765	0.015	631153	keystroke_s	s	n/a
315.8165	0.045	631633	keystroke_Key.backspace	Key.backspace	n/a
315.9065	0.06	631813	keystroke_c	c	n/a
316.0265	0.12	632053	keystroke_o	o	n/a
316.1015	0.09	632203	keystroke_n	n	n/a
316.3115	0.075	632623	keystroke_s	s	n/a
316.506	0.0755	633012	keystroke_o	o	n/a
316.6865	0.075	633373	keystroke_l	l	n/a
316.8065	0.075	633613	keystroke_i	i	n/a
316.9415	0.075	633883	keystroke_d	d	n/a
317.0315	0.165	634063	keystroke_a	a	n/a
317.1815	0.06	634363	keystroke_t	t	n/a
317.2565	0.12	634513	keystroke_i	i	n/a
317.3315	0.135	634663	keystroke_o	o	n/a
317.4215	0.105	634843	keystroke_n	n	n/a
317.5115	0.09	635023	keystroke_Key.space	Key.space	n/a
317.7065	0.03	635413	keystroke_d	d	n/a
318.2315	0.105	636463	keystroke_o	o	n/a
318.3515	0.09	636703	keystroke_n	n	n/a
318.576	0.06	637152	keystroke_o	o	n/a
318.771	0.045	637542	keystroke_r	r	n/a
318.861	0.09	637722	keystroke_Key.space	Key.space	n/a
319.041	0.075	638082	keystroke_e	e	n/a
319.206	0.105	638412	keystroke_v	v	n/a
319.296	0.15	638592	keystroke_e	e	n/a
319.401	0.09	638802	keystroke_r	r	n/a
319.476	0.075	638952	keystroke_y	y	n/a
319.686	0.075	639372	keystroke_Key.enter	Key.enter	n/a
319.769	7.6135	639538	prompt	n/a	retailer thrown leaving jaguar\n
320.781	0.09	641562	keystroke_r	r	n/a
321.276	0.045	642552	keystroke_a	a	n/a
321.606	0.06	643212	keystroke_Key.backspace	Key.backspace	n/a
321.711	0.09	643422	keystroke_e	e	n/a
321.891	0.075	643782	keystroke_t	t	n/a
322.026	0.1045	644052	keystroke_a	a	n/a
322.1455	0.12	644291	keystroke_i	i	n/a
322.2355	0.181	644471	keystroke_l	l	n/a
322.3715	0.165	644743	keystroke_e	e	n/a
322.4615	0.105	644923	keystroke_r	r	n/a
322.5515	0.09	645103	keystroke_Key.space	Key.space	n/a
322.9565	0.09	645913	keystroke_t	t	n/a
323.0765	0.09	646153	keystroke_h	h	n/a
323.2115	0.075	646423	keystroke_r	r	n/a
323.3015	0.09	646603	keystroke_o	o	n/a
323.4215	0.09	646843	keystroke_w	w	n/a
323.5715	0.12	647143	keystroke_n	n	n/a
323.6765	0.075	647353	keystroke_Key.space	Key.space	n/a
324.0815	0.075	648163	keystroke_l	l	n/a
324.1265	0.09	648253	keystroke_e	e	n/a
324.2015	0.135	648403	keystroke_a	a	n/a
324.4565	0.06	648913	keystroke_v	v	n/a
324.5755	0.076	649151	keystroke_i	i	n/a
324.6215	0.105	649243	keystroke_n	n	n/a
324.7415	0.03	649483	keystroke_g	g	n/a
324.8315	0.09	649663	keystroke_Key.space	Key.space	n/a
325.3405	0.075	650681	keystroke_j	j	n/a
325.4315	0.09	650863	keystroke_a	a	n/a
325.7465	0.045	651493	keystroke_g	g	n/a
325.8515	0.075	651703	keystroke_u	u	n/a
326.016	0.0905	652032	keystroke_a	a	n/a
326.286	0.045	652572	keystroke_r	r	n/a
327.306	0.075	654612	keystroke_Key.enter	Key.enter	n/a
327.385	4.6775	654770	prompt	n/a	cape creating without photos\n
328.011	0.105	656022	keystroke_c	c	n/a
328.116	0.12	656232	keystroke_a	a	n/a
328.251	0.105	656502	keystroke_p	p	n/a
328.341	0.075	656682	keystroke_e	e	n/a
328.431	0.105	656862	keystroke_Key.space	Key.space	n/a
328.686	0.06	657372	keystroke_c	c	n/a
328.881	0.12	657762	keystroke_r	r	n/a
328.941	0.105	657882	keystroke_e	e	n/a
329.031	0.165	658062	keystroke_a	a	n/a
329.151	0.09	658302	keystroke_t	t	n/a
329.271	0.105	658542	keystroke_i	i	n/a
329.346	0.105	658692	keystroke_n	n	n/a
329.436	0.06	658872	keystroke_g	g	n/a
329.511	0.105	659022	keystroke_Key.space	Key.space	n/a
329.781	0.015	659562	keystroke_w	w	n/a
329.826	0.09	659652	keystroke_i	i	n/a
329.946	0.06	659892	keystroke_t	t	n/a
330.021	0.105	660042	keystroke_h	h	n/a
330.141	0.105	660282	keystroke_o	o	n/a
330.216	0.09	660432	keystroke_u	u	n/a
330.321	0.06	660642	keystroke_t	t	n/a
330.411	0.09	660822	keystroke_Key.space	Key.space	n/a
330.561	0.09	661122	keystroke_p	p	n/a
330.816	0.18	661632	keystroke_h	h	n/a
331.041	0.09	662082	keystroke_o	o	n/a
331.386	0.045	662772	keystroke_t	t	n/a
331.551	0.075	663102	keystroke_o	o	n/a
331.716	0.075	663432	keystroke_s	s	n/a
332.001	0.06	664002	keystroke_Key.enter	Key.enter	n/a
332.066	7.1815	664132	prompt	n/a	dynamic prints rights drainage\n
332.826	0.045	665652	keystroke_d	d	n/a
332.931	0.06	665862	keystroke_y	y	n/a
333.111	0.075	666222	keystroke_n	n	n/a
333.231	0.09	666462	keystroke_a	a	n/a
333.336	0.09	666672	keystroke_m	m	n/a
333.531	0.015	667062	keystroke_o	o	n/a
333.546	0.045	667092	keystroke_i	i	n/a
333.711	0.09	667422	keystroke_c	c	n/a
333.816	0.075	667632	keystroke_Key.space	Key.space	n/a
334.4305	0.045	668861	keystroke_Key.backspace	Key.backspace	n/a
334.5655	0.06	669131	keystroke_Key.backspace	Key.backspace	n/a
334.6855	0.075	669371	keystroke_Key.backspace	Key.backspace	n/a
334.8205	0.09	669641	keystroke_Key.backspace	Key.backspace	n/a
335.1055	0.045	670211	keystroke_i	i	n/a
335.2255	0.045	670451	keystroke_c	c	n/a
335.3155	0.075	670631	keystroke_Key.space	Key.space	n/a
335.5555	0.0905	671111	keystroke_p	p	n/a
335.781	0.075	671562	keystroke_r	r	n/a
335.916	0.1195	671832	keystroke_i	i	n/a
336.0205	0.09	672041	keystroke_n	n	n/a
336.0955	0.075	672191	keystroke_t	t	n/a
336.2455	0.105	672491	keystroke_s	s	n/a
336.3055	0.105	672611	keystroke_Key.space	Key.space	n/a
336.546	0.09	673092	keystroke_r	r	n/a
336.651	0.06	673302	keystroke_i	i	n/a
336.801	0.075	673602	keystroke_g	g	n/a
336.906	0.0595	673812	keystroke_h	h	n/a
336.9965	0.089	673993	keystroke_t	t	n/a
337.1615	0.104	674323	keystroke_s	s	n/a
337.2505	0.075	674501	keystroke_Key.space	Key.space	n/a
337.6265	0.059	675253	keystroke_d	d	n/a
337.8355	0.06	675671	keystroke_r	r	n/a
337.9855	0.12	675971	keystroke_a	a	n/a
338.1205	0.135	676241	keystroke_i	i	n/a
338.2255	0.09	676451	keystroke_n	n	n/a
338.3905	0.105	676781	keystroke_a	a	n/a
338.5405	0.09	677081	keystroke_g	g	n/a
338.6455	0.12	677291	keystroke_e	e	n/a
339.1555	0.09	678311	keystroke_Key.enter	Key.enter	n/a
339.2495	8.8025	678499	prompt	n/a	administrator verzeichnis wings merger\n
339.876	0.12	679752	keystroke_a	a	n/a
340.086	0.06	680172	keystroke_d	d	n/a
340.266	0.09	680532	keystroke_m	m	n/a
340.431	0.12	680862	keystroke_i	i	n/a
340.521	0.09	681042	keystroke_n	n	n/a
340.776	0.09	681552	keystroke_i	i	n/a
341.211	0.06	682422	keystroke_s	s	n/a
341.391	0.06	682782	keystroke_t	t	n/a
341.556	0.075	683112	keystroke_r	r	n/a
341.661	0.15	683322	keystroke_a	a	n/a
341.796	0.06	683592	keystroke_t	t	n/a
342.006	0.12	684012	keystroke_o	o	n/a
342.171	0.045	684342	keystroke_r	r	n/a
342.261	0.09	684522	keystroke_Key.space	Key.space	n/a
342.471	0.075	684942	keystroke_v	v	n/a
342.636	0.18	685272	keystroke_e	e	n/a
342.786	0.075	685572	keystroke_r	r	n/a
343.086	0.075	686172	keystroke_z	z	n/a
343.416	0.105	686832	keystroke_e	e	n/a
343.596	0.12	687192	keystroke_i	i	n/a
343.776	0.09	687552	keystroke_c	c	n/a
343.941	0.09	687882	keystroke_h	h	n/a
344.301	0.105	688602	keystroke_n	n	n/a
344.421	0.09	688842	keystroke_i	i	n/a
344.571	0.03	689142	keystroke_c	c	n/a
345.036	0.06	690072	keystroke_Key.backspace	Key.backspace	n/a
345.141	0.075	690282	keystroke_s	s	n/a
345.306	0.045	690612	keystroke_Key.space	Key.space	n/a
346.026	0.075	692052	keystroke_w	w	n/a
346.086	0.105	692172	keystroke_i	i	n/a
346.236	0.09	692472	keystroke_n	n	n/a
346.431	0.06	692862	keystroke_g	g	n/a
346.581	0.09	693162	keystroke_s	s	n/a
346.686	0.09	693372	keystroke_Key.space	Key.space	n/a
346.956	0.075	693912	keystroke_m	m	n/a
347.031	0.15	694062	keystroke_e	e	n/a
347.121	0.105	694242	keystroke_r	r	n/a
347.391	0.075	694782	keystroke_g	g	n/a
347.435	0.166	694870	keystroke_e	e	n/a
347.556	0.09	695112	keystroke_r	r	n/a
347.9755	0.075	695951	keystroke_Key.enter	Key.enter	n/a
348.056	7.0025	696112	prompt	n/a	unified lovely athens enhancements\n
348.6655	0.06	697331	keystroke_u	u	n/a
348.8155	0.06	697631	keystroke_n	n	n/a
348.8765	0.089	697753	keystroke_i	i	n/a
349.0405	0.06	698081	keystroke_f	f	n/a
349.1455	0.075	698291	keystroke_i	i	n/a
349.2955	0.06	698591	keystroke_e	e	n/a
349.4755	0.105	698951	keystroke_d	d	n/a
349.5655	0.105	699131	keystroke_Key.space	Key.space	n/a
349.7005	0.09	699401	keystroke_l	l	n/a
349.8805	0.075	699761	keystroke_o	o	n/a
349.9405	0.12	699881	keystroke_v	v	n/a
350.0455	0.09	700091	keystroke_e	e	n/a
350.1805	0.12	700361	keystroke_l	l	n/a
350.2855	0.135	700571	keystroke_y	y	n/a
350.3905	0.075	700781	keystroke_Key.space	Key.space	n/a
350.616	0.12	701232	keystroke_a	a	n/a
350.751	0.105	701502	keystroke_t	t	n/a
350.886	0.09	701772	keystroke_h	h	n/a
351.021	0.075	702042	keystroke_e	e	n/a
351.141	0.075	702282	keystroke_n	n	n/a
351.291	0.09	702582	keystroke_s	s	n/a
351.396	0.105	702792	keystroke_Key.space	Key.space	n/a
351.876	0.075	703752	keystroke_e	e	n/a
352.041	0.075	704082	keystroke_n	n	n/a
353.0155	0.06	706031	keystroke_h	h	n/a
353.1355	0.09	706271	keystroke_a	a	n/a
353.2405	0.075	706481	keystroke_n	n	n/a
353.3605	0.06	706721	keystroke_c	c	n/a
353.5105	0.075	707021	keystroke_e	e	n/a
353.6455	0.06	707291	keystroke_m	m	n/a
353.7505	0.105	707501	keystroke_e	e	n/a
353.8855	0.06	707771	keystroke_n	n	n/a
354.0055	0.075	708011	keystroke_t	t	n/a
354.2155	0.09	708431	keystroke_s	s	n/a
354.981	0.075	709962	keystroke_Key.enter	Key.enter	n/a
355.0625	5.005	710125	prompt	n/a	status mexico promotes lycos\n
355.776	0.105	711552	keystroke_s	s	n/a
355.866	0.09	711732	keystroke_t	t	n/a
355.986	0.12	711972	keystroke_a	a	n/a
356.061	0.09	712122	keystroke_t	t	n/a
356.271	0.06	712542	keystroke_u	u	n/a
356.376	0.09	712752	keystroke_s	s	n/a
356.481	0.0895	712962	keystroke_Key.space	Key.space	n/a
356.6455	0.09	713291	keystroke_m	m	n/a
356.7505	0.075	713501	keystroke_e	e	n/a
356.9305	0.09	713861	keystroke_x	x	n/a
357.0505	0.075	714101	keystroke_i	i	n/a
357.1855	0.09	714371	keystroke_c	c	n/a
357.3955	0.105	714791	keystroke_o	o	n/a
357.4855	0.1055	714971	keystroke_Key.space	Key.space	n/a
357.816	0.075	715632	keystroke_p	p	n/a
357.936	0.06	715872	keystroke_r	r	n/a
358.056	0.12	716112	keystroke_o	o	n/a
358.146	0.09	716292	keystroke_m	m	n/a
358.281	0.105	716562	keystroke_o	o	n/a
358.416	0.12	716832	keystroke_t	t	n/a
358.551	0.15	717102	keystroke_e	e	n/a
358.656	0.165	717312	keystroke_s	s	n/a
358.806	0.06	717612	keystroke_Key.space	Key.space	n/a
359.106	0.06	718212	keystroke_l	l	n/a
359.241	0.075	718482	keystroke_y	y	n/a
359.436	0.075	718872	keystroke_c	c	n/a
359.526	0.09	719052	keystroke_o	o	n/a
359.661	0.09	719322	keystroke_s	s	n/a
360.006	0.06	720012	keystroke_Key.enter	Key.enter	n/a
360.07	6.5075	720140	prompt	n/a	quote properly technique pushed\n
360.7555	0.09	721511	keystroke_q	q	n/a
360.8905	0.15	721781	keystroke_u	u	n/a
361.0555	0.09	722111	keystroke_i	i	n/a
361.1755	0.12	722351	keystroke_t	t	n/a
361.2655	0.12	722531	keystroke_e	e	n/a
361.4005	0.12	722801	keystroke_Key.space	Key.space	n/a
361.5355	0.12	723071	keystroke_p	p	n/a
361.6705	0.06	723341	keystroke_r	r	n/a
361.7605	0.06	723521	keystroke_o	o	n/a
361.9855	0.09	723971	keystroke_p	p	n/a
362.0905	0.165	724181	keystroke_e	e	n/a
362.2255	0.09	724451	keystroke_r	r	n/a
362.4355	0.165	724871	keystroke_l	l	n/a
362.5705	0.135	725141	keystroke_y	y	n/a
362.6755	0.12	725351	keystroke_Key.space	Key.space	n/a
363.0205	0.09	726041	keystroke_t	t	n/a
363.1855	0.015	726371	keystroke_e	e	n/a
363.9505	0.06	727901	keystroke_c	c	n/a
364.0405	0.075	728081	keystroke_h	h	n/a
364.2355	0.12	728471	keystroke_n	n	n/a
364.4605	0.075	728921	keystroke_i	i	n/a
364.7005	0.105	729401	keystroke_q	q	n/a
364.8355	0.06	729671	keystroke_u	u	n/a
364.9255	0.075	729851	keystroke_e	e	n/a
365.0305	0.09	730061	keystroke_Key.space	Key.space	n/a
365.3155	0.105	730631	keystroke_p	p	n/a
365.4055	0.09	730811	keystroke_u	u	n/a
365.5405	0.045	731081	keystroke_s	s	n/a
365.661	0.0445	731322	keystroke_h	h	n/a
365.7505	0.0605	731501	keystroke_e	e	n/a
365.9455	0.06	731891	keystroke_d	d	n/a
366.4855	0.09	732971	keystroke_Key.enter	Key.enter	n/a
366.5805	8.292	733161	prompt	n/a	distinct experiments trace constraints\n
367.221	0.09	734442	keystroke_d	d	n/a
367.296	0.06	734592	keystroke_i	i	n/a
367.431	0.15	734862	keystroke_s	s	n/a
367.596	0.075	735192	keystroke_t	t	n/a
367.746	0.09	735492	keystroke_i	i	n/a
367.956	0.075	735912	keystroke_n	n	n/a
368.166	0.075	736332	keystroke_c	c	n/a
368.436	0.06	736872	keystroke_t	t	n/a
368.556	0.09	737112	keystroke_Key.space	Key.space	n/a
368.781	0.06	737562	keystroke_e	e	n/a
369.066	0.09	738132	keystroke_p	p	n/a
369.276	0.135	738552	keystroke_e	e	n/a
369.8465	0.06	739693	keystroke_Key.backspace	Key.backspace	n/a
369.9965	0.06	739993	keystroke_Key.backspace	Key.backspace	n/a
370.0715	0.09	740143	keystroke_x	x	n/a
370.446	0.06	740892	keystroke_p	p	n/a
370.626	0.1655	741252	keystroke_e	e	n/a
370.746	0.0905	741492	keystroke_r	r	n/a
370.8965	0.06	741793	keystroke_i	i	n/a
371.0465	0.089	742093	keystroke_m	m	n/a
371.1815	0.09	742363	keystroke_e	e	n/a
371.2865	0.075	742573	keystroke_n	n	n/a
371.4065	0.074	742813	keystroke_t	t	n/a
371.6165	0.075	743233	keystroke_s	s	n/a
371.7065	0.075	743413	keystroke_Key.space	Key.space	n/a
371.9465	0.06	743893	keystroke_t	t	n/a
372.0965	0.09	744193	keystroke_r	r	n/a
372.1865	0.105	744373	keystroke_a	a	n/a
372.5165	0.089	745033	keystroke_c	c	n/a
372.7265	0.06	745453	keystroke_e	e	n/a
372.8155	0.09	745631	keystroke_Key.space	Key.space	n/a
373.0705	0.075	746141	keystroke_c	c	n/a
373.1615	0.119	746323	keystroke_o	o	n/a
373.2205	0.12	746441	keystroke_n	n	n/a
373.4005	0.12	746801	keystroke_s	s	n/a
373.5505	0.076	747101	keystroke_t	t	n/a
373.7015	0.089	747403	keystroke_r	r	n/a
373.8065	0.179	747613	keystroke_a	a	n/a
374.0455	0.12	748091	keystroke_i	i	n/a
374.1355	0.105	748271	keystroke_n	n	n/a
374.3455	0.06	748691	keystroke_t	t	n/a
374.5105	0.075	749021	keystroke_s	s	n/a
374.7955	0.075	749591	keystroke_Key.enter	Key.enter	n/a
374.875	6.793	749750	prompt	n/a	truck flood bags they're\n
375.5005	0.06	751001	keystroke_t	t	n/a
375.6355	0.075	751271	keystroke_u	u	n/a
375.7555	0.06	751511	keystroke_r	r	n/a
376.1905	0.06	752381	keystroke_c	c	n/a
376.5205	0.06	753041	keystroke_Key.backspace	Key.backspace	n/a
376.6555	0.06	753311	keystroke_Key.backspace	Key.backspace	n/a
376.7905	0.06	753581	keystroke_Key.backspace	Key.backspace	n/a
376.8205	0.075	753641	keystroke_r	r	n/a
377.0165	0.074	754033	keystroke_u	u	n/a
377.1655	0.075	754331	keystroke_c	c	n/a
377.3005	0.105	754601	keystroke_k	k	n/a
377.3905	0.105	754781	keystroke_Key.space	Key.space	n/a
377.5855	0.03	755171	keystroke_f	f	n/a
377.6605	0.09	755321	keystroke_l	l	n/a
377.8255	0.06	755651	keystroke_o	o	n/a
377.9605	0.18	755921	keystroke_o	o	n/a
378.1255	0.12	756251	keystroke_k	k	n/a
378.2605	0.105	756521	keystroke_Key.space	Key.space	n/a
379.071	0.075	758142	keystroke_Key.backspace	Key.backspace	n/a
379.206	0.09	758412	keystroke_Key.backspace	Key.backspace	n/a
379.311	0.09	758622	keystroke_d	d	n/a
379.446	0.045	758892	keystroke_Key.space	Key.space	n/a
379.581	0.075	759162	keystroke_b	b	n/a
379.671	0.15	759342	keystroke_a	a	n/a
379.836	0.075	759672	keystroke_g	g	n/a
379.986	0.09	759972	keystroke_s	s	n/a
380.091	0.105	760182	keystroke_Key.space	Key.space	n/a
380.256	0.075	760512	keystroke_t	t	n/a
380.316	0.06	760632	keystroke_h	h	n/a
380.436	0.09	760872	keystroke_e	e	n/a
380.541	0.06	761082	keystroke_y	y	n/a
380.676	0.09	761352	keystroke_'	'	n/a
380.766	0.105	761532	keystroke_r	r	n/a
380.826	0.105	761652	keystroke_e	e	n/a
380.946	0.09	761892	keystroke_Key.space	Key.space	n/a
381.591	0.075	763182	keystroke_Key.enter	Key.enter	n/a
381.6705	5.307	763341	prompt	n/a	figures fossil mins johnny\n
382.281	0.075	764562	keystroke_f	f	n/a
382.386	0.09	764772	keystroke_i	i	n/a
382.506	0.075	765012	keystroke_g	g	n/a
382.5955	0.105	765191	keystroke_u	u	n/a
382.7015	0.119	765403	keystroke_r	r	n/a
382.7455	0.135	765491	keystroke_e	e	n/a
382.8655	0.12	765731	keystroke_s	s	n/a
382.9705	0.09	765941	keystroke_Key.space	Key.space	n/a
383.1205	0.09	766241	keystroke_f	f	n/a
383.2255	0.075	766451	keystroke_o	o	n/a
383.4055	0.045	766811	keystroke_l	l	n/a
383.6905	0.06	767381	keystroke_Key.backspace	Key.backspace	n/a
383.8255	0.075	767651	keystroke_s	s	n/a
383.9605	0.105	767921	keystroke_s	s	n/a
384.0955	0.09	768191	keystroke_i	i	n/a
384.2305	0.12	768461	keystroke_l	l	n/a
384.3655	0.09	768731	keystroke_Key.space	Key.space	n/a
384.5155	0.09	769031	keystroke_m	m	n/a
384.6205	0.135	769241	keystroke_i	i	n/a
384.7255	0.075	769451	keystroke_n	n	n/a
384.9355	0.03	769871	keystroke_h	h	n/a
385.2205	0.06	770441	keystroke_Key.backspace	Key.backspace	n/a
385.3705	0.075	770741	keystroke_s	s	n/a
385.4605	0.075	770921	keystroke_Key.space	Key.space	n/a
386.0155	0.12	772031	keystroke_j	j	n/a
386.1055	0.105	772211	keystroke_o	o	n/a
386.2555	0.075	772511	keystroke_h	h	n/a
386.4205	0.06	772841	keystroke_n	n	n/a
386.5405	0.075	773081	keystroke_n	n	n/a
386.7055	0.06	773411	keystroke_y	y	n/a
386.8855	0.09	773771	keystroke_Key.enter	Key.enter	n/a
386.982	7.4505	773964	prompt	n/a	doll drawing causing courier\n
387.6505	0.09	775301	keystroke_d	d	n/a
387.7555	0.06	775511	keystroke_o	o	n/a
387.936	0.06	775872	keystroke_l	l	n/a
388.056	0.12	776112	keystroke_l	l	n/a
388.311	0.075	776622	keystroke_Key.space	Key.space	n/a
388.611	0.09	777222	keystroke_d	d	n/a
388.776	0.09	777552	keystroke_r	r	n/a
388.986	0.015	777972	keystroke_w	w	n/a
389.391	0.045	778782	keystroke_Key.backspace	Key.backspace	n/a
389.5865	0.104	779173	keystroke_a	a	n/a
389.7815	0.045	779563	keystroke_w	w	n/a
390.0215	0.09	780043	keystroke_i	i	n/a
390.0815	0.09	780163	keystroke_n	n	n/a
390.2005	0.061	780401	keystroke_g	g	n/a
390.2905	0.09	780581	keystroke_Key.space	Key.space	n/a
390.4855	0.046	780971	keystroke_d	d	n/a
390.9955	0.106	781991	keystroke_a	a	n/a
391.5955	0.06	783191	keystroke_Key.backspace	Key.backspace	n/a
391.7305	0.075	783461	keystroke_Key.backspace	Key.backspace	n/a
391.8205	0.105	783641	keystroke_c	c	n/a
391.9265	0.12	783853	keystroke_a	a	n/a
392.0605	0.06	784121	keystroke_u	u	n/a
392.1805	0.09	784361	keystroke_s	s	n/a
392.3165	0.059	784633	keystroke_i	i	n/a
392.3455	0.09	784691	keystroke_n	n	n/a
392.4515	0.059	784903	keystroke_g	g	n/a
392.5255	0.09	785051	keystroke_Key.space	Key.space	n/a
392.7505	0.09	785501	keystroke_c	c	n/a
392.8255	0.105	785651	keystroke_o	o	n/a
392.8855	0.091	785771	keystroke_u	u	n/a
393.0055	0.075	786011	keystroke_r	r	n/a
393.1405	0.09	786281	keystroke_i	i	n/a
393.2455	0.12	786491	keystroke_e	e	n/a
393.5455	0.105	787091	keystroke_r	r	n/a
394.3405	0.09	788681	keystroke_Key.enter	Key.enter	n/a
394.4355	5.9675	788871	prompt	n/a	update program animal enables\n
395.0755	0.09	790151	keystroke_u	u	n/a
395.1665	0.119	790333	keystroke_p	p	n/a
395.4055	0.09	790811	keystroke_d	d	n/a
395.4805	0.15	790961	keystroke_a	a	n/a
395.6005	0.105	791201	keystroke_t	t	n/a
395.6755	0.105	791351	keystroke_e	e	n/a
395.8105	0.105	791621	keystroke_Key.space	Key.space	n/a
395.9455	0.09	791891	keystroke_p	p	n/a
396.0955	0.075	792191	keystroke_r	r	n/a
396.2155	0.075	792431	keystroke_o	o	n/a
396.5155	0.06	793031	keystroke_g	g	n/a
396.6805	0.09	793361	keystroke_r	r	n/a
396.8755	0.075	793751	keystroke_a	a	n/a
396.9955	0.12	793991	keystroke_m	m	n/a
397.0855	0.105	794171	keystroke_Key.space	Key.space	n/a
397.3705	0.12	794741	keystroke_a	a	n/a
397.5055	0.075	795011	keystroke_n	n	n/a
397.6405	0.12	795281	keystroke_i	i	n/a
397.7615	0.089	795523	keystroke_m	m	n/a
397.8805	0.105	795761	keystroke_a	a	n/a
398.0455	0.12	796091	keystroke_l	l	n/a
398.1805	0.06	796361	keystroke_Key.space	Key.space	n/a
398.4055	0.045	796811	keystroke_d	d	n/a
398.721	0.06	797442	keystroke_Key.backspace	Key.backspace	n/a
398.826	0.06	797652	keystroke_e	e	n/a
398.961	0.06	797922	keystroke_n	n	n/a
399.036	0.12	798072	keystroke_a	a	n/a
399.261	0.045	798522	keystroke_b	b	n/a
399.6515	0.075	799303	keystroke_l	l	n/a
399.7415	0.06	799483	keystroke_e	e	n/a
399.9665	0.075	799933	keystroke_s	s	n/a
400.326	0.075	800652	keystroke_Key.enter	Key.enter	n/a
400.408	5.815	800816	prompt	n/a	broadway empirical prior accessory\n
401.061	0.06	802122	keystroke_b	b	n/a
401.226	0.075	802452	keystroke_r	r	n/a
401.331	0.105	802662	keystroke_o	o	n/a
401.421	0.105	802842	keystroke_a	a	n/a
401.571	0.105	803142	keystroke_d	d	n/a
401.766	0.075	803532	keystroke_w	w	n/a
401.856	0.12	803712	keystroke_a	a	n/a
401.991	0.12	803982	keystroke_y	y	n/a
402.081	0.075	804162	keystroke_Key.space	Key.space	n/a
402.216	0.09	804432	keystroke_e	e	n/a
402.351	0.09	804702	keystroke_m	m	n/a
402.5315	0.105	805063	keystroke_p	p	n/a
402.6815	0.074	805363	keystroke_i	i	n/a
402.8155	0.0755	805631	keystroke_r	r	n/a
402.9655	0.075	805931	keystroke_i	i	n/a
403.2215	0.134	806443	keystroke_c	c	n/a
403.3715	0.105	806743	keystroke_a	a	n/a
403.4905	0.136	806981	keystroke_l	l	n/a
403.6105	0.09	807221	keystroke_Key.space	Key.space	n/a
403.8655	0.091	807731	keystroke_p	p	n/a
404.0015	0.074	808003	keystroke_r	r	n/a
404.1805	0.106	808361	keystroke_i	i	n/a
404.2705	0.135	808541	keystroke_o	o	n/a
404.4505	0.076	808901	keystroke_r	r	n/a
404.5415	0.105	809083	keystroke_Key.space	Key.space	n/a
404.7065	0.09	809413	keystroke_a	a	n/a
404.9015	0.075	809803	keystroke_c	c	n/a
405.0365	0.1195	810073	keystroke_c	c	n/a
405.276	0.135	810552	keystroke_e	e	n/a
405.366	0.105	810732	keystroke_s	s	n/a
405.531	0.105	811062	keystroke_s	s	n/a
405.651	0.105	811302	keystroke_o	o	n/a
405.771	0.06	811542	keystroke_r	r	n/a
405.921	0.075	811842	keystroke_y	y	n/a
406.116	0.105	812232	keystroke_Key.enter	Key.enter	n/a
406.226	8.5165	812452	prompt	n/a	proposition ringtones combo website\n
406.761	0.09	813522	keystroke_p	p	n/a
406.956	0.045	813912	keystroke_r	r	n/a
407.031	0.06	814062	keystroke_o	o	n/a
407.256	0.12	814512	keystroke_p	p	n/a
407.391	0.135	814782	keystroke_o	o	n/a
408.8005	0.105	817601	keystroke_s	s	n/a
408.9505	0.075	817901	keystroke_i	i	n/a
409.0715	0.059	818143	keystroke_t	t	n/a
409.1455	0.135	818291	keystroke_i	i	n/a
409.2365	0.12	818473	keystroke_o	o	n/a
409.3105	0.12	818621	keystroke_n	n	n/a
409.4005	0.105	818801	keystroke_Key.space	Key.space	n/a
409.7305	0.061	819461	keystroke_r	r	n/a
409.8205	0.075	819641	keystroke_i	i	n/a
410.0155	0.076	820031	keystroke_n	n	n/a
410.3315	0.06	820663	keystroke_g	g	n/a
410.5415	0.06	821083	keystroke_t	t	n/a
410.6165	0.105	821233	keystroke_o	o	n/a
410.6915	0.12	821383	keystroke_n	n	n/a
410.7965	0.06	821593	keystroke_e	e	n/a
410.9465	0.09	821893	keystroke_s	s	n/a
411.0515	0.075	822103	keystroke_Key.space	Key.space	n/a
411.2915	0.09	822583	keystroke_c	c	n/a
411.3515	0.105	822703	keystroke_o	o	n/a
411.4115	0.105	822823	keystroke_m	m	n/a
411.5315	0.105	823063	keystroke_p	p	n/a
411.8615	0.06	823723	keystroke_Key.backspace	Key.backspace	n/a
411.9365	0.06	823873	keystroke_b	b	n/a
412.1015	0.105	824203	keystroke_o	o	n/a
412.1915	0.075	824383	keystroke_Key.space	Key.space	n/a
412.5065	0.1345	825013	keystroke_w	w	n/a
412.581	0.105	825162	keystroke_e	e	n/a
412.836	0.075	825672	keystroke_b	b	n/a
413.001	0.09	826002	keystroke_s	s	n/a
413.136	0.075	826272	keystroke_i	i	n/a
413.481	0.105	826962	keystroke_t	t	n/a
413.571	0.105	827142	keystroke_e	e	n/a
413.721	0.09	827442	keystroke_Key.space	Key.space	n/a
414.6805	0.06	829361	keystroke_Key.enter	Key.enter	n/a
414.7455	6.822	829491	prompt	n/a	greensboro lebanon accent steps\n
415.3105	0.075	830621	keystroke_g	g	n/a
415.4905	0.09	830981	keystroke_r	r	n/a
415.7765	0.044	831553	keystroke_e	e	n/a
415.9105	0.09	831821	keystroke_e	e	n/a
416.0155	0.075	832031	keystroke_n	n	n/a
416.1805	0.091	832361	keystroke_s	s	n/a
416.4355	0.06	832871	keystroke_b	b	n/a
416.5255	0.09	833051	keystroke_o	o	n/a
416.6455	0.075	833291	keystroke_r	r	n/a
416.7655	0.09	833531	keystroke_o	o	n/a
416.8855	0.09	833771	keystroke_Key.space	Key.space	n/a
417.1255	0.075	834251	keystroke_l	l	n/a
417.1855	0.06	834371	keystroke_e	e	n/a
417.4715	0.06	834943	keystroke_b	b	n/a
417.5465	0.12	835093	keystroke_a	a	n/a
417.7115	0.075	835423	keystroke_n	n	n/a
417.846	0.1055	835692	keystroke_a	a	n/a
418.0565	0.09	836113	keystroke_o	o	n/a
418.4015	0.015	836803	keystroke_Key.backspace	Key.backspace	n/a
418.4765	0.075	836953	keystroke_Key.backspace	Key.backspace	n/a
418.7615	0.12	837523	keystroke_o	o	n/a
418.8365	0.105	837673	keystroke_n	n	n/a
419.0015	0.105	838003	keystroke_Key.space	Key.space	n/a
419.4515	0.075	838903	keystroke_a	a	n/a
419.6615	0.06	839323	keystroke_c	c	n/a
419.7815	0.105	839563	keystroke_c	c	n/a
419.9915	0.09	839983	keystroke_e	e	n/a
420.1265	0.09	840253	keystroke_n	n	n/a
420.2465	0.06	840493	keystroke_t	t	n/a
420.3355	0.091	840671	keystroke_Key.space	Key.space	n/a
420.5315	0.105	841063	keystroke_s	s	n/a
420.6815	0.12	841363	keystroke_t	t	n/a
420.7865	0.0895	841573	keystroke_e	e	n/a
420.951	0.09	841902	keystroke_p	p	n/a
421.131	0.075	842262	keystroke_s	s	n/a
421.506	0.06	843012	keystroke_Key.enter	Key.enter	n/a
421.5725	5.455	843145	prompt	n/a	condition than scientist horizon\n
422.256	0.0755	844512	keystroke_c	c	n/a
422.3165	0.15	844633	keystroke_o	o	n/a
422.4065	0.09	844813	keystroke_n	n	n/a
422.5565	0.03	845113	keystroke_t	t	n/a
422.8105	0.06	845621	keystroke_Key.backspace	Key.backspace	n/a
422.9165	0.074	845833	keystroke_d	d	n/a
423.0655	0.06	846131	keystroke_i	i	n/a
423.1865	0.059	846373	keystroke_t	t	n/a
423.2905	0.15	846581	keystroke_i	i	n/a
423.4255	0.121	846851	keystroke_o	o	n/a
423.5015	0.134	847003	keystroke_n	n	n/a
423.6205	0.09	847241	keystroke_Key.space	Key.space	n/a
423.8755	0.075	847751	keystroke_t	t	n/a
423.9365	0.074	847873	keystroke_h	h	n/a
424.0265	0.119	848053	keystroke_a	a	n/a
424.1305	0.09	848261	keystroke_n	n	n/a
424.2055	0.105	848411	keystroke_Key.space	Key.space	n/a
424.4005	0.06	848801	keystroke_s	s	n/a
424.6255	0.075	849251	keystroke_c	c	n/a
424.7605	0.09	849521	keystroke_i	i	n/a
424.9555	0.075	849911	keystroke_e	e	n/a
425.0755	0.075	850151	keystroke_n	n	n/a
425.2705	0.075	850541	keystroke_t	t	n/a
425.3905	0.09	850781	keystroke_i	i	n/a
425.5255	0.18	851051	keystroke_s	s	n/a
425.6905	0.06	851381	keystroke_t	t	n/a
425.7955	0.12	851591	keystroke_Key.space	Key.space	n/a
425.9305	0.15	851861	keystroke_h	h	n/a
426.0205	0.12	852041	keystroke_o	o	n/a
426.1855	0.075	852371	keystroke_r	r	n/a
426.3205	0.075	852641	keystroke_i	i	n/a
426.4855	0.105	852971	keystroke_z	z	n/a
426.6055	0.12	853211	keystroke_o	o	n/a
426.7105	0.105	853421	keystroke_n	n	n/a
426.9505	0.075	853901	keystroke_Key.enter	Key.enter	n/a
427.031	7.0015	854062	prompt	n/a	pills milton hadn't output\n
427.6855	0.195	855371	keystroke_p	p	n/a
427.8655	0.075	855731	keystroke_i	i	n/a
428.0455	0.075	856091	keystroke_l	l	n/a
428.1955	0.1355	856391	keystroke_l	l	n/a
428.316	0.075	856632	keystroke_s	s	n/a
428.406	0.09	856812	keystroke_Key.space	Key.space	n/a
428.541	0.075	857082	keystroke_m	m	n/a
428.661	0.1055	857322	keystroke_i	i	n/a
428.8265	0.105	857653	keystroke_l	l	n/a
429.0665	0.06	858133	keystroke_t	t	n/a
429.1715	0.045	858343	keystroke_i	i	n/a
429.2015	0.165	858403	keystroke_o	o	n/a
429.3215	0.15	858643	keystroke_n	n	n/a
429.6515	0.045	859303	keystroke_Key.backspace	Key.backspace	n/a
429.7865	0.045	859573	keystroke_Key.backspace	Key.backspace	n/a
429.9065	0.075	859813	keystroke_Key.backspace	Key.backspace	n/a
430.8065	0.105	861613	keystroke_o	o	n/a
430.8815	0.165	861763	keystroke_n	n	n/a
431.0305	0.061	862061	keystroke_Key.space	Key.space	n/a
431.1665	0.09	862333	keystroke_h	h	n/a
431.2715	0.105	862543	keystroke_a	a	n/a
431.4965	0.045	862993	keystroke_d	d	n/a
431.6465	0.045	863293	keystroke_n	n	n/a
431.9615	0.105	863923	keystroke_'	'	n/a
432.1865	0.06	864373	keystroke_t	t	n/a
432.2915	0.105	864583	keystroke_Key.space	Key.space	n/a
432.636	0.105	865272	keystroke_o	o	n/a
432.696	0.105	865392	keystroke_u	u	n/a
432.816	0.03	865632	keystroke_t	t	n/a
432.936	0.105	865872	keystroke_p	p	n/a
433.026	0.09	866052	keystroke_u	u	n/a
433.206	0.06	866412	keystroke_t	t	n/a
433.986	0.045	867972	keystroke_Key.enter	Key.enter	n/a
434.036	8.352	868072	prompt	n/a	therapeutic describing album energy\n
434.6615	0.075	869323	keystroke_t	t	n/a
434.7215	0.09	869443	keystroke_h	h	n/a
434.8415	0.15	869683	keystroke_e	e	n/a
434.9465	0.09	869893	keystroke_r	r	n/a
435.1265	0.03	870253	keystroke_q	q	n/a
435.2015	0.03	870403	keystroke_a	a	n/a
