onset	duration	sample	value	key	prompt_text
1.9055	19.397	3811	prompt	n/a	the quick brown fox jumps over a lazy dog\n
2.9955	0.1115	5991	keystroke_t	t	n/a
3.1555	0.08	6311	keystroke_h	h	n/a
3.2505	0.169	6501	keystroke_e	e	n/a
3.4275	0.1195	6855	keystroke_Key.space	Key.space	n/a
3.7235	0.071	7447	keystroke_q	q	n/a
5.1545	0.097	10309	keystroke_u	u	n/a
5.3705	0.073	10741	keystroke_i	i	n/a
6.1875	0.096	12375	keystroke_q	q	n/a
6.38	0.047	12760	keystroke_k	k	n/a
6.9315	0.1115	13863	keystroke_Key.backspace	Key.backspace	n/a
7.0835	0.08	14167	keystroke_Key.backspace	Key.backspace	n/a
7.4595	0.136	14919	keystroke_c	c	n/a
7.659	0.064	15318	keystroke_j	j	n/a
7.8745	0.1285	15749	keystroke_Key.space	Key.space	n/a
8.4595	0.0315	16919	keystroke_Key.backspace	Key.backspace	n/a
8.579	0.0805	17158	keystroke_Key.backspace	Key.backspace	n/a
9.259	0.056	18518	keystroke_k	k	n/a
9.4025	0.153	18805	keystroke_Key.space	Key.space	n/a
9.675	0.0805	19350	keystroke_b	b	n/a
9.875	0.1285	19750	keystroke_r	r	n/a
10.0115	0.08	20023	keystroke_o	o	n/a
10.1315	0.144	20263	keystroke_w	w	n/a
10.2595	0.063	20519	keystroke_n	n	n/a
10.363	0.1285	20726	keystroke_Key.space	Key.space	n/a
11.1635	0.096	22327	keystroke_f	f	n/a
11.2755	0.0635	22551	keystroke_o	o	n/a
11.396	0.152	22792	keystroke_x	x	n/a
11.659	0.1195	23318	keystroke_Key.space	Key.space	n/a
11.7875	0.112	23575	keystroke_j	j	n/a
12.0675	0.104	24135	keystroke_u	u	n/a
12.2995	0.12	24599	keystroke_m	m	n/a
12.5315	0.0955	25063	keystroke_o	o	n/a
12.6835	0.1515	25367	keystroke_s	s	n/a
12.899	0.1115	25798	keystroke_Key.space	Key.space	n/a
13.331	0.0565	26662	keystroke_=	=	n/a
13.8035	0.0715	27607	keystroke_Key.backspace	Key.backspace	n/a
13.963	0.0645	27926	keystroke_Key.backspace	Key.backspace	n/a
14.1075	0.08	28215	keystroke_Key.backspace	Key.backspace	n/a
14.2995	0.072	28599	keystroke_Key.backspace	Key.backspace	n/a
14.8995	0.072	29799	keystroke_p	p	n/a
15.0115	0.143	30023	keystroke_s	s	n/a
15.203	0.12	30406	keystroke_Key.space	Key.space	n/a
15.667	0.0645	31334	keystroke_=	=	n/a
16.4435	0.096	32887	keystroke_=	=	n/a
17.1795	0.064	34359	keystroke_Key.backspace	Key.backspace	n/a
17.3395	0.056	34679	keystroke_Key.backspace	Key.backspace	n/a
17.7315	0.048	35463	keystroke_o	o	n/a
17.764	0.0795	35528	keystroke_v	v	n/a
18.5875	0.1675	37175	keystroke_e	e	n/a
18.6915	0.152	37383	keystroke_r	r	n/a
18.827	0.112	37654	keystroke_Key.space	Key.space	n/a
18.9155	0.176	37831	keystroke_a	a	n/a
19.4595	0.112	38919	keystroke_Key.space	Key.space	n/a
19.6185	0.097	39237	keystroke_l	l	n/a
19.7235	0.112	39447	keystroke_a	a	n/a
19.947	0.136	39894	keystroke_z	z	n/a
20.0595	0.0715	40119	keystroke_y	y	n/a
20.2595	0.0715	40519	keystroke_Key.space	Key.space	n/a
20.4435	0.112	40887	keystroke_d	d	n/a
20.531	0.0965	41062	keystroke_o	o	n/a
20.7235	0.064	41447	keystroke_g	g	n/a
21.1795	0.119	42359	keystroke_Key.enter	Key.enter	n/a
21.3075	13.2745	42615	prompt	n/a	organize markers florist reveals\n
21.947	0.1445	43894	keystroke_o	o	n/a
22.139	0.1365	44278	keystroke_r	r	n/a
22.683	0.088	45366	keystroke_g	g	n/a
22.827	0.144	45654	keystroke_a	a	n/a
23.003	0.08	46006	keystroke_n	n	n/a
23.1955	0.088	46391	keystroke_i	i	n/a
23.3555	0.1435	46711	keystroke_z	z	n/a
23.6435	0.208	47287	keystroke_e	e	n/a
23.8185	0.08	47637	keystroke_Key.space	Key.space	n/a
24.107	0.112	48214	keystroke_m	m	n/a
24.251	0.2	48502	keystroke_a	a	n/a
24.6515	0.111	49303	keystroke_r	r	n/a
24.8035	0.0795	49607	keystroke_k	k	n/a
24.931	0.16	49862	keystroke_e	e	n/a
25.0435	0.152	50087	keystroke_r	r	n/a
25.299	0.1675	50598	keystroke_s	s	n/a
25.443	0.112	50886	keystroke_Key.space	Key.space	n/a
25.643	0.136	51286	keystroke_f	f	n/a
25.8435	0.1115	51687	keystroke_k	k	n/a
26.0915	0.0795	52183	keystroke_o	o	n/a
26.403	0.1445	52806	keystroke_r	r	n/a
26.6595	0.0715	53319	keystroke_i	i	n/a
27.179	0.072	54358	keystroke_Key.backspace	Key.backspace	n/a
27.355	0.048	54710	keystroke_Key.backspace	Key.backspace	n/a
27.499	0.0635	54998	keystroke_Key.backspace	Key.backspace	n/a
27.627	0.104	55254	keystroke_Key.backspace	Key.backspace	n/a
28.5315	0.0715	57063	keystroke_l	l	n/a
28.715	0.072	57430	keystroke_o	o	n/a
29.0585	0.1125	58117	keystroke_r	r	n/a
29.2995	0.0635	58599	keystroke_i	i	n/a
29.4025	0.152	58805	keystroke_s	s	n/a
29.5625	0.121	59125	keystroke_t	t	n/a
30.6425	0.12	61285	keystroke_Key.space	Key.space	n/a
31.043	0.1605	62086	keystroke_r	r	n/a
31.155	0.152	62310	keystroke_e	e	n/a
31.4195	0.1195	62839	keystroke_v	v	n/a
31.731	0.16	63462	keystroke_e	e	n/a
31.892	0.199	63784	keystroke_a	a	n/a
32.467	0.072	64934	keystroke_l	l	n/a
32.915	0.144	65830	keystroke_s	s	n/a
33.267	0.144	66534	keystroke_Key.space	Key.space	n/a
34.1465	0.0965	68293	keystroke_Key.backspace	Key.backspace	n/a
34.467	0.112	68934	keystroke_Key.enter	Key.enter	n/a
34.588	17.5065	69176	prompt	n/a	disk jacksonville bahrain meeting\n
35.187	0.1355	70374	keystroke_s	s	n/a
35.291	0.096	70582	keystroke_i	i	n/a
36.123	0.088	72246	keystroke_Key.backspace	Key.backspace	n/a
36.291	0.048	72582	keystroke_Key.backspace	Key.backspace	n/a
37.267	0.12	74534	keystroke_d	d	n/a
37.4195	0.088	74839	keystroke_i	i	n/a
37.563	0.1525	75126	keystroke_s	s	n/a
37.7235	0.0635	75447	keystroke_k	k	n/a
38.01	0.129	76020	keystroke_Key.space	Key.space	n/a
38.7945	0.1045	77589	keystroke_j	j	n/a
38.891	0.12	77782	keystroke_a	a	n/a
39.155	0.1205	78310	keystroke_c	c	n/a
39.3705	0.096	78741	keystroke_k	k	n/a
39.675	0.1445	79350	keystroke_s	s	n/a
39.7795	0.08	79559	keystroke_o	o	n/a
39.9795	0.1035	79959	keystroke_n	n	n/a
40.4115	0.1115	80823	keystroke_v	v	n/a
40.539	0.104	81078	keystroke_i	i	n/a
40.7715	0.0795	81543	keystroke_l	l	n/a
40.891	0.088	81782	keystroke_l	l	n/a
41.107	0.152	82214	keystroke_e	e	n/a
41.291	0.127	82582	keystroke_Key.space	Key.space	n/a
41.547	0.104	83094	keystroke_b	b	n/a
42.707	0.128	85414	keystroke_a	a	n/a
44.067	0.12	88134	keystroke_h	h	n/a
44.435	0.0965	88870	keystroke_r	r	n/a
44.7235	0.1355	89447	keystroke_a	a	n/a
44.891	0.088	89782	keystroke_i	i	n/a
45.067	0.096	90134	keystroke_n	n	n/a
45.211	0.1035	90422	keystroke_Key.space	Key.space	n/a
50.9305	0.0885	101861	keystroke_m	m	n/a
51.043	0.096	102086	keystroke_e	e	n/a
51.195	0.12	102390	keystroke_e	e	n/a
51.403	0.104	102806	keystroke_t	t	n/a
51.555	0.079	103110	keystroke_i	i	n/a
51.69	0.089	103380	keystroke_n	n	n/a
51.811	0.064	103622	keystroke_g	g	n/a
51.995	0.0955	103990	keystroke_Key.enter	Key.enter	n/a
52.099	7.929	104198	prompt	n/a	asian forum starting monte\n
52.6025	0.1285	105205	keystroke_a	a	n/a
52.7465	0.1525	105493	keystroke_s	s	n/a
52.9065	0.0885	105813	keystroke_i	i	n/a
53.0345	0.144	106069	keystroke_a	a	n/a
53.115	0.0955	106230	keystroke_n	n	n/a
53.291	0.1035	106582	keystroke_Key.space	Key.space	n/a
53.5065	0.112	107013	keystroke_f	f	n/a
54.4105	0.0805	108821	keystroke_o	o	n/a
54.8745	0.12	109749	keystroke_r	r	n/a
55.107	0.096	110214	keystroke_u	u	n/a
55.3465	0.048	110693	keystroke_m	m	n/a
55.8585	0.12	111717	keystroke_Key.space	Key.space	n/a
56.0825	0.1765	112165	keystroke_s	s	n/a
56.259	0.112	112518	keystroke_t	t	n/a
56.7065	0.176	113413	keystroke_a	a	n/a
57.0905	0.112	114181	keystroke_r	r	n/a
57.275	0.0875	114550	keystroke_t	t	n/a
57.426	0.0965	114852	keystroke_i	i	n/a
57.603	0.0795	115206	keystroke_n	n	n/a
57.6985	0.12	115397	keystroke_g	g	n/a
57.8585	0.08	115717	keystroke_Key.space	Key.space	n/a
58.0025	0.0725	116005	keystroke_m	m	n/a
58.147	0.0725	116294	keystroke_o	o	n/a
58.435	0.079	116870	keystroke_t	t	n/a
58.811	0.08	117622	keystroke_Key.backspace	Key.backspace	n/a
59.347	0.096	118694	keystroke_n	n	n/a
59.635	0.072	119270	keystroke_t	t	n/a
59.795	0.127	119590	keystroke_e	e	n/a
59.93	0.096	119860	keystroke_Key.enter	Key.enter	n/a
60.031	8.5175	120062	prompt	n/a	restrictions played linda women\n
60.643	0.1595	121286	keystroke_r	r	n/a
60.7385	0.128	121477	keystroke_e	e	n/a
60.9625	0.1285	121925	keystroke_s	s	n/a
61.171	0.1035	122342	keystroke_t	t	n/a
61.707	0.072	123414	keystroke_r	r	n/a
61.843	0.088	123686	keystroke_i	i	n/a
62.059	0.104	124118	keystroke_c	c	n/a
62.3065	0.088	124613	keystroke_t	t	n/a
62.5625	0.176	125125	keystroke_i	i	n/a
62.6665	0.112	125333	keystroke_o	o	n/a
62.8505	0.08	125701	keystroke_n	n	n/a
62.923	0.1365	125846	keystroke_s	s	n/a
63.0825	0.1115	126165	keystroke_Key.space	Key.space	n/a
63.227	0.095	126454	keystroke_o	o	n/a
63.4425	0.176	126885	keystroke_a	a	n/a
64.162	0.0645	128324	keystroke_Key.backspace	Key.backspace	n/a
64.298	0.0965	128596	keystroke_Key.backspace	Key.backspace	n/a
64.8825	0.096	129765	keystroke_p	p	n/a
65.074	0.081	130148	keystroke_l	l	n/a
65.218	0.12	130436	keystroke_a	a	n/a
65.362	0.0885	130724	keystroke_y	y	n/a
65.483	0.128	130966	keystroke_e	e	n/a
65.739	0.112	131478	keystroke_d	d	n/a
66.0025	0.128	132005	keystroke_Key.space	Key.space	n/a
66.2345	0.216	132469	keystroke_l	l	n/a
66.3865	0.096	132773	keystroke_i	i	n/a
66.6185	0.1205	133237	keystroke_n	n	n/a
66.834	0.0885	133668	keystroke_d	d	n/a
67.0585	0.152	134117	keystroke_a	a	n/a
67.234	0.08	134468	keystroke_Key.space	Key.space	n/a
67.3625	0.12	134725	keystroke_w	w	n/a
67.483	0.063	134966	keystroke_o	o	n/a
67.6505	0.0885	135301	keystroke_m	m	n/a
67.7545	0.128	135509	keystroke_e	e	n/a
67.883	0.079	135766	keystroke_n	n	n/a
68.4665	0.079	136933	keystroke_Key.enter	Key.enter	n/a
68.554	10.3545	137108	prompt	n/a	starring discusses selecting miller\n
69.131	0.111	138262	keystroke_s	s	n/a
69.307	0.112	138614	keystroke_t	t	n/a
69.5065	0.128	139013	keystroke_a	a	n/a
69.722	0.0805	139444	keystroke_r	r	n/a
69.8505	0.12	139701	keystroke_r	r	n/a
69.9865	0.096	139973	keystroke_i	i	n/a
70.107	0.1195	140214	keystroke_n	n	n/a
70.2185	0.112	140437	keystroke_g	g	n/a
70.3065	0.08	140613	keystroke_Key.space	Key.space	n/a
70.4665	0.088	140933	keystroke_d	d	n/a
70.5465	0.0885	141093	keystroke_i	i	n/a
70.6985	0.104	141397	keystroke_s	s	n/a
70.947	0.1035	141894	keystroke_c	c	n/a
71.0745	0.088	142149	keystroke_u	u	n/a
71.2265	0.0885	142453	keystroke_s	s	n/a
71.3945	0.096	142789	keystroke_s	s	n/a
71.5865	0.1525	143173	keystroke_e	e	n/a
71.714	0.1445	143428	keystroke_s	s	n/a
72.066	0.0725	144132	keystroke_Key.space	Key.space	n/a
72.2345	0.0875	144469	keystroke_s	s	n/a
72.419	0.112	144838	keystroke_e	e	n/a
72.579	0.088	145158	keystroke_l	l	n/a
73.075	0.08	146150	keystroke_e	e	n/a
73.243	0.088	146486	keystroke_c	c	n/a
73.475	0.1035	146950	keystroke_t	t	n/a
73.5865	0.0955	147173	keystroke_i	i	n/a
73.755	0.072	147510	keystroke_n	n	n/a
73.835	0.071	147670	keystroke_g	g	n/a
73.89	0.1365	147780	keystroke_Key.space	Key.space	n/a
74.106	0.08	148212	keystroke_n	n	n/a
74.426	0.136	148852	keystroke_i	i	n/a
74.954	0.0635	149908	keystroke_=	=	n/a
75.1465	0.064	150293	keystroke_Key.backspace	Key.backspace	n/a
75.314	0.072	150628	keystroke_Key.backspace	Key.backspace	n/a
75.53	0.08	151060	keystroke_Key.backspace	Key.backspace	n/a
75.858	0.112	151716	keystroke_n	n	n/a
76.027	0.1275	152054	keystroke_a	a	n/a
76.202	0.08	152404	keystroke_i	i	n/a
76.53	0.056	153060	keystroke_Key.backspace	Key.backspace	n/a
76.6665	0.079	153333	keystroke_Key.backspace	Key.backspace	n/a
77.1225	0.0715	154245	keystroke_Key.backspace	Key.backspace	n/a
77.482	0.088	154964	keystroke_m	m	n/a
77.7545	0.1035	155509	keystroke_i	i	n/a
78.0265	0.056	156053	keystroke_l	l	n/a
78.147	0.0795	156294	keystroke_l	l	n/a
78.2825	0.168	156565	keystroke_e	e	n/a
78.4025	0.112	156805	keystroke_r	r	n/a
78.8105	0.096	157621	keystroke_Key.enter	Key.enter	n/a
78.9155	23.0085	157831	prompt	n/a	inspection programme fantasy integer\n
79.5305	0.096	159061	keystroke_i	i	n/a
79.9535	0.0895	159907	keystroke_n	n	n/a
80.1535	0.1365	160307	keystroke_s	s	n/a
80.322	0.0885	160644	keystroke_o	o	n/a
80.8905	0.0715	161781	keystroke_Key.backspace	Key.backspace	n/a
81.1145	0.096	162229	keystroke_p	p	n/a
81.3705	0.096	162741	keystroke_r	r	n/a
81.563	0.103	163126	keystroke_e	e	n/a
81.9705	0.0715	163941	keystroke_Key.backspace	Key.backspace	n/a
82.122	0.0965	164244	keystroke_Key.backspace	Key.backspace	n/a
82.2105	0.1035	164421	keystroke_e	e	n/a
82.8425	0.088	165685	keystroke_c	c	n/a
83.0665	0.0875	166133	keystroke_t	t	n/a
83.778	0.2	167556	keystroke_i	i	n/a
83.9145	0.104	167829	keystroke_o	o	n/a
84.067	0.095	168134	keystroke_n	n	n/a
84.2265	0.12	168453	keystroke_Key.space	Key.space	n/a
84.834	0.08	169668	keystroke_p	p	n/a
84.922	0.104	169844	keystroke_r	r	n/a
85.714	0.08	171428	keystroke_o	o	n/a
85.898	0.08	171796	keystroke_g	g	n/a
86.042	0.136	172084	keystroke_r	r	n/a
86.3065	0.0795	172613	keystroke_a	a	n/a
86.4175	0.041	172835	keystroke_a	a	n/a
86.5625	0.072	173125	keystroke_m	m	n/a
86.714	0.0805	173428	keystroke_m	m	n/a
87.3535	0.081	174707	keystroke_Key.backspace	Key.backspace	n/a
87.522	0.0645	175044	keystroke_Key.backspace	Key.backspace	n/a
87.6585	0.104	175317	keystroke_Key.backspace	Key.backspace	n/a
88.7145	0.072	177429	keystroke_m	m	n/a
88.866	0.1045	177732	keystroke_m	m	n/a
88.9785	0.136	177957	keystroke_e	e	n/a
89.2265	0.112	178453	keystroke_Key.space	Key.space	n/a
95.49	0.1675	190980	keystroke_f	f	n/a
95.6505	0.152	191301	keystroke_a	a	n/a
95.7615	0.104	191523	keystroke_n	n	n/a
96.546	0.1205	193092	keystroke_t	t	n/a
97.1305	0.12	194261	keystroke_a	a	n/a
97.5945	0.135	195189	keystroke_s	s	n/a
97.8495	0.0885	195699	keystroke_y	y	n/a
98.0255	0.1285	196051	keystroke_Key.space	Key.space	n/a
98.466	0.1125	196932	keystroke_i	i	n/a
98.627	0.0865	197254	keystroke_n	n	n/a
98.7055	0.096	197411	keystroke_t	t	n/a
98.9625	0.112	197925	keystroke_e	e	n/a
99.4265	0.1035	198853	keystroke_=	=	n/a
99.594	0.0965	199188	keystroke_g	g	n/a
100.138	0.0715	200276	keystroke_Key.backspace	Key.backspace	n/a
100.3455	0.032	200691	keystroke_Key.backspace	Key.backspace	n/a
100.8815	0.1205	201763	keystroke_g	g	n/a
101.3615	0.217	202723	keystroke_e	e	n/a
101.5295	0.1365	203059	keystroke_r	r	n/a
101.826	0.096	203652	keystroke_Key.enter	Key.enter	n/a
101.928	12.467	203856	prompt	n/a	congressional during isaac individual\n
102.6025	0.136	205205	keystroke_c	c	n/a
102.698	0.0485	205396	keystroke_o	o	n/a
103.0505	0.0875	206101	keystroke_n	n	n/a
103.3065	0.0715	206613	keystroke_g	g	n/a
103.53	0.1515	207060	keystroke_r	r	n/a
103.6265	0.1355	207253	keystroke_e	e	n/a
103.8665	0.0955	207733	keystroke_s	s	n/a
104.01	0.128	208020	keystroke_s	s	n/a
104.114	0.208	208228	keystroke_i	i	n/a
104.242	0.152	208484	keystroke_o	o	n/a
104.442	0.136	208884	keystroke_a	a	n/a
104.466	0.072	208932	keystroke_n	n	n/a
104.9465	0.095	209893	keystroke_Key.backspace	Key.backspace	n/a
105.114	0.0715	210228	keystroke_Key.backspace	Key.backspace	n/a
105.5065	0.1035	211013	keystroke_n	n	n/a
105.81	0.0645	211620	keystroke_a	a	n/a
105.906	0.0885	211812	keystroke_l	l	n/a
106.21	0.128	212420	keystroke_Key.space	Key.space	n/a
106.4505	0.1115	212901	keystroke_d	d	n/a
106.7135	0.073	213427	keystroke_u	u	n/a
107.0415	0.144	214083	keystroke_r	r	n/a
107.1535	0.064	214307	keystroke_i	i	n/a
107.2665	0.088	214533	keystroke_n	n	n/a
107.402	0.0885	214804	keystroke_g	g	n/a
107.474	0.0955	214948	keystroke_Key.space	Key.space	n/a
107.6825	0.08	215365	keystroke_i	i	n/a
107.8255	0.113	215651	keystroke_s	s	n/a
108.2585	0.104	216517	keystroke_a	a	n/a
108.546	0.136	217092	keystroke_a	a	n/a
108.842	0.1365	217684	keystroke_c	c	n/a
109.169	0.105	218338	keystroke_Key.space	Key.space	n/a
109.386	0.072	218772	keystroke_i	i	n/a
110.314	0.0635	220628	keystroke_n	n	n/a
110.9535	0.121	221907	keystroke_d	d	n/a
111.314	0.0795	222628	keystroke_i	i	n/a
112.146	0.096	224292	keystroke_v	v	n/a
112.4895	0.0725	224979	keystroke_i	i	n/a
112.61	0.1275	225220	keystroke_d	d	n/a
112.7695	0.088	225539	keystroke_u	u	n/a
112.9055	0.136	225811	keystroke_a	a	n/a
113.1135	0.096	226227	keystroke_l	l	n/a
114.3295	0.064	228659	keystroke_Key.enter	Key.enter	n/a
114.4	10.8435	228800	prompt	n/a	guys isle restaurants against\n
116.0495	0.184	232099	keystroke_g	g	n/a
116.1375	0.12	232275	keystroke_u	u	n/a
116.3535	0.064	232707	keystroke_y	y	n/a
116.434	0.1765	232868	keystroke_s	s	n/a
116.5855	0.12	233171	keystroke_Key.space	Key.space	n/a
116.7615	0.105	233523	keystroke_i	i	n/a
116.8825	0.1515	233765	keystroke_s	s	n/a
117.521	0.137	235042	keystroke_k	k	n/a
117.922	0.136	235844	keystroke_e	e	n/a
118.09	0.136	236180	keystroke_Key.space	Key.space	n/a
118.266	0.144	236532	keystroke_r	r	n/a
118.354	0.128	236708	keystroke_e	e	n/a
118.626	0.064	237252	keystroke_s	s	n/a
119.329	0.089	238658	keystroke_Key.backspace	Key.backspace	n/a
119.482	0.08	238964	keystroke_Key.backspace	Key.backspace	n/a
119.626	0.072	239252	keystroke_Key.backspace	Key.backspace	n/a
119.77	0.079	239540	keystroke_Key.backspace	Key.backspace	n/a
119.945	0.073	239890	keystroke_Key.backspace	Key.backspace	n/a
120.3135	0.088	240627	keystroke_Key.backspace	Key.backspace	n/a
120.6575	0.08	241315	keystroke_l	l	n/a
120.746	0.136	241492	keystroke_e	e	n/a
120.882	0.104	241764	keystroke_Key.space	Key.space	n/a
121.13	0.191	242260	keystroke_r	r	n/a
121.209	0.161	242418	keystroke_e	e	n/a
121.49	0.096	242980	keystroke_s	s	n/a
121.69	0.1115	243380	keystroke_t	t	n/a
121.93	0.1515	243860	keystroke_a	a	n/a
122.1775	0.1045	244355	keystroke_u	u	n/a
122.45	0.1035	244900	keystroke_r	r	n/a
122.6575	0.1525	245315	keystroke_a	a	n/a
122.7775	0.0965	245555	keystroke_n	n	n/a
122.8815	0.1035	245763	keystroke_t	t	n/a
123.058	0.12	246116	keystroke_s	s	n/a
123.569	0.1605	247138	keystroke_Key.space	Key.space	n/a
123.8495	0.136	247699	keystroke_a	a	n/a
124.026	0.1035	248052	keystroke_g	g	n/a
124.258	0.136	248516	keystroke_a	a	n/a
124.594	0.08	249188	keystroke_i	i	n/a
124.746	0.088	249492	keystroke_n	n	n/a
124.81	0.176	249620	keystroke_s	s	n/a
124.978	0.112	249956	keystroke_t	t	n/a
125.13	0.112	250260	keystroke_Key.enter	Key.enter	n/a
125.2475	6.3475	250495	prompt	n/a	carries swiss beneficial badge\n
125.922	0.112	251844	keystroke_c	c	n/a
126.154	0.144	252308	keystroke_a	a	n/a
126.378	0.08	252756	keystroke_r	r	n/a
126.5055	0.1205	253011	keystroke_r	r	n/a
126.674	0.08	253348	keystroke_i	i	n/a
126.826	0.176	253652	keystroke_e	e	n/a
126.922	0.184	253844	keystroke_s	s	n/a
127.098	0.1515	254196	keystroke_Key.space	Key.space	n/a
127.3295	0.096	254659	keystroke_s	s	n/a
127.546	0.104	255092	keystroke_w	w	n/a
127.73	0.0955	255460	keystroke_i	i	n/a
128.2815	0.1045	256563	keystroke_s	s	n/a
128.441	0.1605	256882	keystroke_s	s	n/a
128.5935	0.1365	257187	keystroke_Key.space	Key.space	n/a
128.754	0.088	257508	keystroke_b	b	n/a
128.8495	0.0885	257699	keystroke_e	e	n/a
129.01	0.088	258020	keystroke_n	n	n/a
129.266	0.104	258532	keystroke_e	e	n/a
129.5215	0.1115	259043	keystroke_f	f	n/a
129.649	0.088	259298	keystroke_i	i	n/a
129.929	0.0965	259858	keystroke_c	c	n/a
130.113	0.097	260226	keystroke_i	i	n/a
130.2335	0.1355	260467	keystroke_a	a	n/a
130.354	0.0795	260708	keystroke_l	l	n/a
130.497	0.1285	260994	keystroke_Key.space	Key.space	n/a
130.657	0.08	261314	keystroke_b	b	n/a
130.761	0.112	261522	keystroke_a	a	n/a
130.9695	0.0955	261939	keystroke_d	d	n/a
131.178	0.08	262356	keystroke_g	g	n/a
131.3135	0.128	262627	keystroke_e	e	n/a
131.4735	0.1195	262947	keystroke_Key.enter	Key.enter	n/a
131.599	6.476	263198	prompt	n/a	harvard house best tribes\n
132.2415	0.096	264483	keystroke_h	h	n/a
132.3455	0.1595	264691	keystroke_a	a	n/a
132.497	0.1365	264994	keystroke_r	r	n/a
132.7935	0.128	265587	keystroke_v	v	n/a
132.9695	0.176	265939	keystroke_a	a	n/a
133.1855	0.088	266371	keystroke_r	r	n/a
133.4815	0.1525	266963	keystroke_d	d	n/a
133.689	0.0805	267378	keystroke_Key.space	Key.space	n/a
134.0015	0.128	268003	keystroke_h	h	n/a
134.2975	0.2	268595	keystroke_o	o	n/a
134.4495	0.104	268899	keystroke_u	u	n/a
134.5935	0.1285	269187	keystroke_s	s	n/a
135.162	0.127	270324	keystroke_e	e	n/a
135.513	0.096	271026	keystroke_Key.space	Key.space	n/a
135.913	0.1205	271826	keystroke_b	b	n/a
136.0255	0.16	272051	keystroke_e	e	n/a
136.1695	0.152	272339	keystroke_s	s	n/a
136.3375	0.128	272675	keystroke_t	t	n/a
136.466	0.1275	272932	keystroke_Key.space	Key.space	n/a
136.7695	0.096	273539	keystroke_t	t	n/a
136.9685	0.097	273937	keystroke_r	r	n/a
137.354	0.0875	274708	keystroke_i	i	n/a
137.578	0.095	275156	keystroke_b	b	n/a
137.705	0.152	275410	keystroke_e	e	n/a
137.818	0.1355	275636	keystroke_s	s	n/a
137.9695	0.104	275939	keystroke_Key.enter	Key.enter	n/a
138.0795	8.331	276159	prompt	n/a	fuji gene rain laboratories\n
139.1055	0.096	278211	keystroke_f	f	n/a
139.2095	0.064	278419	keystroke_u	u	n/a
139.3935	0.1845	278787	keystroke_j	j	n/a
139.5055	0.1045	279011	keystroke_i	i	n/a
139.6335	0.1445	279267	keystroke_Key.space	Key.space	n/a
139.9055	0.08	279811	keystroke_g	g	n/a
140.0655	0.096	280131	keystroke_e	e	n/a
140.1375	0.096	280275	keystroke_n	n	n/a
140.2655	0.1285	280531	keystroke_e	e	n/a
140.4575	0.104	280915	keystroke_Key.space	Key.space	n/a
140.7135	0.136	281427	keystroke_r	r	n/a
140.8815	0.12	281763	keystroke_a	a	n/a
141.0175	0.08	282035	keystroke_i	i	n/a
141.1695	0.088	282339	keystroke_n	n	n/a
141.2655	0.136	282531	keystroke_Key.space	Key.space	n/a
141.5535	0.096	283107	keystroke_k	k	n/a
141.6735	0.144	283347	keystroke_a	a	n/a
142.6655	0.0875	285331	keystroke_Key.backspace	Key.backspace	n/a
142.8415	0.063	285683	keystroke_Key.backspace	Key.backspace	n/a
143.3935	0.072	286787	keystroke_l	l	n/a
143.562	0.1515	287124	keystroke_a	a	n/a
143.77	0.0795	287540	keystroke_b	b	n/a
143.977	0.12	287954	keystroke_o	o	n/a
144.289	0.1205	288578	keystroke_r	r	n/a
144.513	0.152	289026	keystroke_a	a	n/a
144.674	0.0955	289348	keystroke_t	t	n/a
145.321	0.088	290642	keystroke_o	o	n/a
145.5695	0.1195	291139	keystroke_r	r	n/a
145.761	0.0875	291522	keystroke_i	i	n/a
145.9055	0.2	291811	keystroke_e	e	n/a
146.074	0.1435	292148	keystroke_s	s	n/a
146.3215	0.088	292643	keystroke_Key.enter	Key.enter	n/a
146.414	13.0765	292828	prompt	n/a	investigated rotation southeast profits\n
147.0175	0.088	294035	keystroke_i	i	n/a
147.2015	0.096	294403	keystroke_n	n	n/a
147.3295	0.08	294659	keystroke_v	v	n/a
147.5455	0.2475	295091	keystroke_e	e	n/a
147.721	0.064	295442	keystroke_s	s	n/a
148.482	0.063	296964	keystroke_t	t	n/a
148.706	0.0955	297412	keystroke_i	i	n/a
148.8575	0.12	297715	keystroke_g	g	n/a
149.0005	0.161	298001	keystroke_a	a	n/a
149.2175	0.0805	298435	keystroke_g	g	n/a
149.913	0.112	299826	keystroke_Key.backspace	Key.backspace	n/a
150.177	0.1275	300354	keystroke_t	t	n/a
150.3375	0.1205	300675	keystroke_e	e	n/a
150.7535	0.136	301507	keystroke_d	d	n/a
151.3045	0.12	302609	keystroke_Key.space	Key.space	n/a
151.5925	0.137	303185	keystroke_r	r	n/a
151.7455	0.112	303491	keystroke_o	o	n/a
151.9535	0.12	303907	keystroke_t	t	n/a
152.129	0.1605	304258	keystroke_a	a	n/a
152.2645	0.113	304529	keystroke_t	t	n/a
152.3855	0.159	304771	keystroke_i	i	n/a
152.4895	0.111	304979	keystroke_o	o	n/a
152.6325	0.089	305265	keystroke_n	n	n/a
152.7135	0.0875	305427	keystroke_Key.space	Key.space	n/a
152.8965	0.113	305793	keystroke_s	s	n/a
153.2095	0.12	306419	keystroke_o	o	n/a
153.5615	0.1195	307123	keystroke_u	u	n/a
153.945	0.064	307890	keystroke_t	t	n/a
154.065	0.0965	308130	keystroke_h	h	n/a
154.8005	0.129	309601	keystroke_e	e	n/a
154.937	0.152	309874	keystroke_a	a	n/a
155.1925	0.12	310385	keystroke_s	s	n/a
155.3375	0.1435	310675	keystroke_t	t	n/a
155.4895	0.119	310979	keystroke_Key.space	Key.space	n/a
156.1535	0.12	312307	keystroke_p	p	n/a
156.409	0.112	312818	keystroke_r	r	n/a
156.5295	0.0795	313059	keystroke_o	o	n/a
156.8015	0.104	313603	keystroke_f	f	n/a
156.937	0.0795	313874	keystroke_u	u	n/a
157.0975	0.104	314195	keystroke_t	t	n/a
157.29	0.0875	314580	keystroke_s	s	n/a
157.8005	0.088	315601	keystroke_Key.backspace	Key.backspace	n/a
157.969	0.0645	315938	keystroke_Key.backspace	Key.backspace	n/a
158.105	0.08	316210	keystroke_Key.backspace	Key.backspace	n/a
158.7055	0.08	317411	keystroke_i	i	n/a
158.8255	0.08	317651	keystroke_t	t	n/a
159.0335	0.128	318067	keystroke_s	s	n/a
159.4175	0.072	318835	keystroke_Key.enter	Key.enter	n/a
159.493	9.4215	318986	prompt	n/a	depression yang palace players\n
160.137	0.112	320274	keystroke_d	d	n/a
160.313	0.12	320626	keystroke_e	e	n/a
160.425	0.08	320850	keystroke_p	p	n/a
160.921	0.2565	321842	keystroke_r	r	n/a
161.1855	0.128	322371	keystroke_e	e	n/a
161.4175	0.1115	322835	keystroke_s	s	n/a
161.577	0.136	323154	keystroke_s	s	n/a
161.681	0.2085	323362	keystroke_i	i	n/a
161.809	0.1365	323618	keystroke_o	o	n/a
162.0095	0.0955	324019	keystroke_n	n	n/a
162.201	0.12	324402	keystroke_Key.space	Key.space	n/a
162.857	0.104	325714	keystroke_t	t	n/a
163.337	0.104	326674	keystroke_Key.backspace	Key.backspace	n/a
163.6895	0.0875	327379	keystroke_y	y	n/a
163.833	0.112	327666	keystroke_a	a	n/a
163.953	0.112	327906	keystroke_n	n	n/a
164.1605	0.072	328321	keystroke_g	g	n/a
164.7045	0.104	329409	keystroke_Key.space	Key.space	n/a
164.8725	0.105	329745	keystroke_p	p	n/a
165.3295	0.135	330659	keystroke_a	a	n/a
165.5525	0.0805	331105	keystroke_l	l	n/a
166.1685	0.152	332337	keystroke_a	a	n/a
166.4245	0.1845	332849	keystroke_c	c	n/a
166.5775	0.1755	333155	keystroke_e	e	n/a
166.761	0.112	333522	keystroke_Key.space	Key.space	n/a
167.561	0.096	335122	keystroke_p	p	n/a
167.753	0.0955	335506	keystroke_l	l	n/a
167.9055	0.1435	335811	keystroke_a	a	n/a
168.097	0.0725	336194	keystroke_y	y	n/a
168.233	0.1765	336466	keystroke_e	e	n/a
168.377	0.096	336754	keystroke_r	r	n/a
168.5935	0.1355	337187	keystroke_s	s	n/a
168.809	0.104	337618	keystroke_Key.enter	Key.enter	n/a
168.917	9.4855	337834	prompt	n/a	cisco sodium forming rates\n
169.665	0.1285	339330	keystroke_c	c	n/a
170.033	0.104	340066	keystroke_i	i	n/a
170.249	0.128	340498	keystroke_s	s	n/a
171.2975	0.128	342595	keystroke_c	c	n/a
171.473	0.071	342946	keystroke_o	o	n/a
171.6565	0.1125	343313	keystroke_Key.space	Key.space	n/a
172.505	0.1205	345010	keystroke_s	s	n/a
172.88	0.097	345760	keystroke_o	o	n/a
173.313	0.12	346626	keystroke_d	d	n/a
173.6895	0.1035	347379	keystroke_i	i	n/a
174.025	0.104	348050	keystroke_u	u	n/a
174.369	0.0965	348738	keystroke_m	m	n/a
174.561	0.12	349122	keystroke_Key.space	Key.space	n/a
174.785	0.0715	349570	keystroke_f	f	n/a
175.1045	0.088	350209	keystroke_o	o	n/a
175.521	0.1275	351042	keystroke_r	r	n/a
175.9045	0.0965	351809	keystroke_m	m	n/a
176.1055	0.087	352211	keystroke_i	i	n/a
176.2725	0.08	352545	keystroke_n	n	n/a
176.4165	0.12	352833	keystroke_g	g	n/a
176.5285	0.1445	353057	keystroke_Key.space	Key.space	n/a
176.9125	0.1285	353825	keystroke_r	r	n/a
177.6405	0.16	355281	keystroke_a	a	n/a
177.841	0.1515	355682	keystroke_t	t	n/a
177.977	0.1995	355954	keystroke_e	e	n/a
178.129	0.112	356258	keystroke_s	s	n/a
178.2725	0.1285	356545	keystroke_Key.enter	Key.enter	n/a
178.407	13.4995	356814	prompt	n/a	modeling fitted satisfaction neutral\n
179.177	0.192	358354	keystroke_m	m	n/a
179.337	0.1355	358674	keystroke_o	o	n/a
179.6005	0.1125	359201	keystroke_e	e	n/a
179.8725	0.0885	359745	keystroke_d	d	n/a
180.6565	0.0805	361313	keystroke_Key.backspace	Key.backspace	n/a
180.8325	0.064	361665	keystroke_Key.backspace	Key.backspace	n/a
181.0005	0.088	362001	keystroke_d	d	n/a
181.6805	0.1365	363361	keystroke_e	e	n/a
182.073	0.2085	364146	keystroke_l	l	n/a
182.209	0.1125	364418	keystroke_i	i	n/a
182.409	0.112	364818	keystroke_n	n	n/a
182.617	0.104	365234	keystroke_g	g	n/a
182.808	0.105	365616	keystroke_Key.space	Key.space	n/a
183.025	0.12	366050	keystroke_f	f	n/a
183.153	0.088	366306	keystroke_i	i	n/a
183.297	0.072	366594	keystroke_t	t	n/a
183.425	0.112	366850	keystroke_t	t	n/a
183.593	0.128	367186	keystroke_e	e	n/a
183.832	0.1765	367664	keystroke_d	d	n/a
184.0405	0.1125	368081	keystroke_Key.space	Key.space	n/a
184.265	0.144	368530	keystroke_s	s	n/a
184.497	0.104	368994	keystroke_a	a	n/a
185.072	0.113	370144	keystroke_t	t	n/a
185.297	0.064	370594	keystroke_i	i	n/a
185.4245	0.1365	370849	keystroke_s	s	n/a
185.753	0.1045	371506	keystroke_f	f	n/a
186.041	0.144	372082	keystroke_a	a	n/a
186.321	0.08	372642	keystroke_c	c	n/a
186.545	0.12	373090	keystroke_t	t	n/a
186.705	0.208	373410	keystroke_i	i	n/a
186.833	0.1275	373666	keystroke_o	o	n/a
187.024	0.089	374048	keystroke_n	n	n/a
187.1525	0.0955	374305	keystroke_Key.space	Key.space	n/a
187.393	0.112	374786	keystroke_n	n	n/a
188.041	0.128	376082	keystroke_e	e	n/a
188.2895	0.095	376579	keystroke_u	u	n/a
189.537	0.1355	379074	keystroke_t	t	n/a
191.177	0.1195	382354	keystroke_r	r	n/a
191.3445	0.12	382689	keystroke_a	a	n/a
191.505	0.112	383010	keystroke_l	l	n/a
191.825	0.0795	383650	keystroke_Key.enter	Key.enter	n/a
191.9135	21.832	383827	prompt	n/a	consumption omissions neil magical\n
192.6805	0.152	385361	keystroke_c	c	n/a
192.825	0.0955	385650	keystroke_o	o	n/a
193.0405	0.0725	386081	keystroke_n	n	n/a
193.1765	0.144	386353	keystroke_s	s	n/a
193.3125	0.1035	386625	keystroke_u	u	n/a
193.576	0.065	387152	keystroke_m	m	n/a
194.7365	0.0955	389473	keystroke_p	p	n/a
194.8965	0.0955	389793	keystroke_t	t	n/a
195.016	0.1925	390032	keystroke_i	i	n/a
195.12	0.121	390240	keystroke_o	o	n/a
195.329	0.079	390658	keystroke_n	n	n/a
195.416	0.089	390832	keystroke_Key.space	Key.space	n/a
195.8885	0.096	391777	keystroke_m	m	n/a
196.7765	0.096	393553	keystroke_Key.backspace	Key.backspace	n/a
197.8005	0.088	395601	keystroke_o	o	n/a
198.305	0.08	396610	keystroke_m	m	n/a
198.5125	0.0805	397025	keystroke_i	i	n/a
198.6805	0.08	397361	keystroke_s	s	n/a
198.857	0.1195	397714	keystroke_s	s	n/a
198.9365	0.192	397873	keystroke_i	i	n/a
199.0725	0.112	398145	keystroke_o	o	n/a
199.233	0.08	398466	keystroke_n	n	n/a
199.352	0.145	398704	keystroke_s	s	n/a
199.8165	0.1115	399633	keystroke_Key.space	Key.space	n/a
200.032	0.0805	400064	keystroke_n	n	n/a
200.153	0.1115	400306	keystroke_e	e	n/a
200.4805	0.208	400961	keystroke_i	i	n/a
201.2645	0.136	402529	keystroke_l	l	n/a
202.312	0.072	404624	keystroke_m	m	n/a
202.4725	0.1355	404945	keystroke_a	a	n/a
202.7445	0.08	405489	keystroke_g	g	n/a
202.913	0.104	405826	keystroke_i	i	n/a
203.584	0.072	407168	keystroke_Key.backspace	Key.backspace	n/a
203.736	0.08	407472	keystroke_Key.backspace	Key.backspace	n/a
203.96	0.064	407920	keystroke_Key.backspace	Key.backspace	n/a
204.1205	0.1435	408241	keystroke_Key.space	Key.space	n/a
204.368	0.096	408736	keystroke_m	m	n/a
204.7845	0.08	409569	keystroke_Key.backspace	Key.backspace	n/a
204.944	0.064	409888	keystroke_Key.backspace	Key.backspace	n/a
205.088	0.1045	410176	keystroke_Key.backspace	Key.backspace	n/a
206.0005	0.088	412001	keystroke_Key.backspace	Key.backspace	n/a
206.472	0.1605	412944	keystroke_Key.space	Key.space	n/a
206.6405	0.0955	413281	keystroke_m	m	n/a
207.5205	0.096	415041	keystroke_Key.backspace	Key.backspace	n/a
207.704	0.096	415408	keystroke_Key.backspace	Key.backspace	n/a
208.4	0.08	416800	keystroke_l	l	n/a
208.624	0.0885	417248	keystroke_Key.space	Key.space	n/a
208.816	0.097	417632	keystroke_m	m	n/a
209.025	0.119	418050	keystroke_g	g	n/a
209.6325	0.104	419265	keystroke_Key.backspace	Key.backspace	n/a
209.8325	0.112	419665	keystroke_a	a	n/a
210.4565	0.08	420913	keystroke_g	g	n/a
210.592	0.1045	421184	keystroke_i	i	n/a
210.7205	0.136	421441	keystroke_c	c	n/a
210.833	0.1515	421666	keystroke_a	a	n/a
211.1285	0.0955	422257	keystroke_k	k	n/a
211.7925	0.112	423585	keystroke_Key.backspace	Key.backspace	n/a
213.3205	0.064	426641	keystroke_l	l	n/a
213.6405	0.104	427281	keystroke_Key.enter	Key.enter	n/a
213.748	8.526	427496	prompt	n/a	nuke recording sized eminem\n
214.4395	0.177	428879	keystroke_n	n	n/a
214.5685	0.119	429137	keystroke_u	u	n/a
214.792	0.0795	429584	keystroke_k	k	n/a
214.904	0.1525	429808	keystroke_e	e	n/a
215.04	0.144	430080	keystroke_Key.space	Key.space	n/a
215.48	0.16	430960	keystroke_r	r	n/a
215.576	0.168	431152	keystroke_e	e	n/a
215.8325	0.0955	431665	keystroke_c	c	n/a
215.9125	0.0955	431825	keystroke_o	o	n/a
216.0405	0.1195	432081	keystroke_r	r	n/a
216.256	0.088	432512	keystroke_i	i	n/a
216.576	0.088	433152	keystroke_n	n	n/a
216.816	0.088	433632	keystroke_g	g	n/a
217.1045	0.072	434209	keystroke_Key.backspace	Key.backspace	n/a
217.24	0.08	434480	keystroke_Key.backspace	Key.backspace	n/a
217.392	0.0965	434784	keystroke_Key.backspace	Key.backspace	n/a
217.688	0.137	435376	keystroke_d	d	n/a
217.8165	0.096	435633	keystroke_i	i	n/a
217.9845	0.0715	435969	keystroke_n	n	n/a
218.0885	0.136	436177	keystroke_g	g	n/a
218.184	0.096	436368	keystroke_Key.space	Key.space	n/a
218.4645	0.144	436929	keystroke_s	s	n/a
218.5525	0.088	437105	keystroke_i	i	n/a
218.7125	0.184	437425	keystroke_z	z	n/a
218.8805	0.12	437761	keystroke_e	e	n/a
219.0795	0.16	438159	keystroke_d	d	n/a
219.2565	0.175	438513	keystroke_Key.space	Key.space	n/a
219.7285	0.1195	439457	keystroke_e	e	n/a
220.1525	0.152	440305	keystroke_m	m	n/a
220.3365	0.112	440673	keystroke_i	i	n/a
220.8085	0.096	441617	keystroke_n	n	n/a
221.7445	0.128	443489	keystroke_e	e	n/a
221.9365	0.088	443873	keystroke_m	m	n/a
222.1605	0.112	444321	keystroke_Key.enter	Key.enter	n/a
222.278	10.884	444556	prompt	n/a	forth sunny dependent overcome\n
222.8965	0.096	445793	keystroke_f	f	n/a
223.0245	0.12	446049	keystroke_o	o	n/a
223.2965	0.12	446593	keystroke_r	r	n/a
223.5285	0.095	447057	keystroke_t	t	n/a
223.632	0.1035	447264	keystroke_h	h	n/a
223.7835	0.112	447567	keystroke_Key.space	Key.space	n/a
223.992	0.1195	447984	keystroke_s	s	n/a
224.0805	0.079	448161	keystroke_u	u	n/a
224.2635	0.048	448527	keystroke_n	n	n/a
224.3765	0.0875	448753	keystroke_n	n	n/a
224.6	0.0795	449200	keystroke_y	y	n/a
224.7755	0.0965	449551	keystroke_Key.space	Key.space	n/a
225.112	0.0875	450224	keystroke_d	d	n/a
225.2885	0.112	450577	keystroke_e	e	n/a
225.3765	0.088	450753	keystroke_o	o	n/a
225.5045	0.104	451009	keystroke_e	e	n/a
225.5995	0.105	451199	keystroke_n	n	n/a
226.2885	0.072	452577	keystroke_Key.backspace	Key.backspace	n/a
226.4395	0.0805	452879	keystroke_Key.backspace	Key.backspace	n/a
226.608	0.096	453216	keystroke_Key.backspace	Key.backspace	n/a
226.888	0.128	453776	keystroke_o	o	n/a
227.0885	0.1115	454177	keystroke_e	e	n/a
227.544	0.096	455088	keystroke_n	n	n/a
228.08	0.056	456160	keystroke_Key.backspace	Key.backspace	n/a
228.208	0.088	456416	keystroke_Key.backspace	Key.backspace	n/a
228.376	0.104	456752	keystroke_Key.backspace	Key.backspace	n/a
228.912	0.08	457824	keystroke_p	p	n/a
229.12	0.1205	458240	keystroke_e	e	n/a
229.2635	0.073	458527	keystroke_n	n	n/a
229.5765	0.111	459153	keystroke_d	d	n/a
229.9275	0.129	459855	keystroke_e	e	n/a
230.1685	0.0875	460337	keystroke_n	n	n/a
230.368	0.08	460736	keystroke_t	t	n/a
230.752	0.096	461504	keystroke_Key.space	Key.space	n/a
230.984	0.0965	461968	keystroke_o	o	n/a
231.296	0.112	462592	keystroke_v	v	n/a
231.512	0.1595	463024	keystroke_e	e	n/a
231.616	0.1205	463232	keystroke_r	r	n/a
231.9125	0.1035	463825	keystroke_c	c	n/a
232.0235	0.072	464047	keystroke_o	o	n/a
232.1915	0.056	464383	keystroke_m	m	n/a
232.2395	0.0805	464479	keystroke_e	e	n/a
233.0725	0.087	466145	keystroke_Key.enter	Key.enter	n/a
233.166	17.9555	466332	prompt	n/a	bulgarian divorce burden municipality\n
233.872	0.1115	467744	keystroke_b	b	n/a
234.4325	0.0875	468865	keystroke_u	u	n/a
235.448	0.144	470896	keystroke_l	l	n/a
236.4245	0.112	472849	keystroke_g	g	n/a
236.664	0.152	473328	keystroke_a	a	n/a
236.8395	0.136	473679	keystroke_r	r	n/a
237.0555	0.08	474111	keystroke_i	i	n/a
237.1845	0.111	474369	keystroke_a	a	n/a
237.3115	0.0805	474623	keystroke_n	n	n/a
237.464	0.12	474928	keystroke_Key.space	Key.space	n/a
237.9685	0.1035	475937	keystroke_d	d	n/a
240.7205	0.0715	481441	keystroke_i	i	n/a
240.896	0.064	481792	keystroke_v	v	n/a
241.0565	0.0715	482113	keystroke_o	o	n/a
241.2005	0.0795	482401	keystroke_r	r	n/a
241.4155	0.1765	482831	keystroke_c	c	n/a
241.576	0.167	483152	keystroke_e	e	n/a
241.7355	0.1125	483471	keystroke_Key.space	Key.space	n/a
241.9045	0.184	483809	keystroke_b	b	n/a
242.0315	0.121	484063	keystroke_u	u	n/a
242.1125	0.0955	484225	keystroke_r	r	n/a
242.3445	0.088	484689	keystroke_d	d	n/a
242.52	0.096	485040	keystroke_e	e	n/a
242.6965	0.1035	485393	keystroke_n	n	n/a
242.88	0.08	485760	keystroke_Key.space	Key.space	n/a
243.264	0.104	486528	keystroke_m	m	n/a
243.712	0.08	487424	keystroke_u	u	n/a
243.912	0.08	487824	keystroke_n	n	n/a
244.1035	0.0885	488207	keystroke_i	i	n/a
246.6635	0.0725	493327	keystroke_c	c	n/a
246.8325	0.079	493665	keystroke_i	i	n/a
247.144	0.096	494288	keystroke_p	p	n/a
247.352	0.104	494704	keystroke_a	a	n/a
248.488	0.232	496976	keystroke_k	k	n/a
249.152	0.1035	498304	keystroke_Key.backspace	Key.backspace	n/a
250.12	0.2635	500240	keystroke_l	l	n/a
250.304	0.12	500608	keystroke_i	i	n/a
250.52	0.0715	501040	keystroke_t	t	n/a
250.6395	0.096	501279	keystroke_y	y	n/a
251.04	0.079	502080	keystroke_Key.enter	Key.enter	n/a
251.134	17.3715	502268	prompt	n/a	origin spent undefined polo\n
251.776	0.1045	503552	keystroke_o	o	n/a
251.9285	0.1115	503857	keystroke_r	r	n/a
252.6795	0.1045	505359	keystroke_i	i	n/a
253.696	0.0805	507392	keystroke_g	g	n/a
254.6405	0.08	509281	keystroke_i	i	n/a
254.7995	0.1125	509599	keystroke_n	n	n/a
254.9595	0.128	509919	keystroke_Key.space	Key.space	n/a
255.2635	0.121	510527	keystroke_s	s	n/a
256.432	0.087	512864	keystroke_p	p	n/a
256.616	0.1275	513232	keystroke_e	e	n/a
256.7515	0.0805	513503	keystroke_n	n	n/a
256.9285	0.111	513857	keystroke_t	t	n/a
257.0875	0.0875	514175	keystroke_Key.space	Key.space	n/a
257.4475	0.096	514895	keystroke_u	u	n/a
257.64	0.087	515280	keystroke_n	n	n/a
257.7835	0.1195	515567	keystroke_d	d	n/a
258.5435	0.0885	517087	keystroke_r	r	n/a
258.936	0.119	517872	keystroke_f	f	n/a
259.072	0.072	518144	keystroke_i	i	n/a
259.208	0.1035	518416	keystroke_n	n	n/a
260.0235	0.0965	520047	keystroke_d	d	n/a
260.896	0.088	521792	keystroke_=	=	n/a
261.336	0.0795	522672	keystroke_Key.backspace	Key.backspace	n/a
261.4875	0.0965	522975	keystroke_Key.backspace	Key.backspace	n/a
261.7195	0.104	523439	keystroke_e	e	n/a
262.1035	0.112	524207	keystroke_d	d	n/a
262.3115	0.104	524623	keystroke_Key.space	Key.space	n/a
263.3275	0.08	526655	keystroke_Key.backspace	Key.backspace	n/a
263.504	0.0475	527008	keystroke_Key.backspace	Key.backspace	n/a
263.647	0.064	527294	keystroke_Key.backspace	Key.backspace	n/a
263.7915	0.0885	527583	keystroke_Key.backspace	Key.backspace	n/a
263.944	0.095	527888	keystroke_Key.backspace	Key.backspace	n/a
264.128	0.096	528256	keystroke_Key.backspace	Key.backspace	n/a
264.392	0.0795	528784	keystroke_Key.backspace	Key.backspace	n/a
264.5755	0.1045	529151	keystroke_e	e	n/a
265.008	0.112	530016	keystroke_f	f	n/a
265.272	0.128	530544	keystroke_i	i	n/a
265.5115	0.1445	531023	keystroke_n	n	n/a
265.632	0.1435	531264	keystroke_e	e	n/a
265.9115	0.1605	531823	keystroke_d	d	n/a
266.151	0.0885	532302	keystroke_Key.space	Key.space	n/a
266.4155	0.0555	532831	keystroke_p	p	n/a
266.5435	0.0565	533087	keystroke_p	p	n/a
267.04	0.087	534080	keystroke_Key.backspace	Key.backspace	n/a
267.6235	0.08	535247	keystroke_o	o	n/a
267.8475	0.073	535695	keystroke_l	l	n/a
268.096	0.088	536192	keystroke_o	o	n/a
268.3995	0.104	536799	keystroke_Key.enter	Key.enter	n/a
268.5095	7.4755	537019	prompt	n/a	heel lenders helicopter builder\n
269.272	0.12	538544	keystroke_h	h	n/a
269.392	0.0795	538784	keystroke_e	e	n/a
269.551	0.113	539102	keystroke_e	e	n/a
269.688	0.08	539376	keystroke_l	l	n/a
269.848	0.128	539696	keystroke_Key.space	Key.space	n/a
270.351	0.096	540702	keystroke_l	l	n/a
270.488	0.111	540976	keystroke_e	e	n/a
270.584	0.104	541168	keystroke_n	n	n/a
270.776	0.112	541552	keystroke_d	d	n/a
271	0.152	542000	keystroke_e	e	n/a
271.112	0.112	542224	keystroke_r	r	n/a
271.288	0.1595	542576	keystroke_s	s	n/a
271.4315	0.1035	542863	keystroke_Key.space	Key.space	n/a
272.0315	0.0965	544063	keystroke_h	h	n/a
272.1355	0.136	544271	keystroke_e	e	n/a
272.3915	0.184	544783	keystroke_l	l	n/a
272.7675	0.096	545535	keystroke_i	i	n/a
273.2875	0.096	546575	keystroke_c	c	n/a
273.4395	0.072	546879	keystroke_o	o	n/a
273.64	0.0715	547280	keystroke_p	p	n/a
273.872	0.096	547744	keystroke_t	t	n/a
274.1275	0.1845	548255	keystroke_e	e	n/a
274.2395	0.1365	548479	keystroke_r	r	n/a
274.383	0.136	548766	keystroke_Key.space	Key.space	n/a
274.696	0.192	549392	keystroke_b	b	n/a
274.863	0.0885	549726	keystroke_u	u	n/a
275.072	0.208	550144	keystroke_i	i	n/a
275.239	0.121	550478	keystroke_l	l	n/a
275.375	0.089	550750	keystroke_d	d	n/a
275.559	0.1365	551118	keystroke_e	e	n/a
275.68	0.0875	551360	keystroke_r	r	n/a
275.8635	0.12	551727	keystroke_Key.enter	Key.enter	n/a
275.989	9.076	551978	prompt	n/a	feet wine community simply\n
276.728	0.0955	553456	keystroke_f	f	n/a
276.9275	0.088	553855	keystroke_e	e	n/a
277.0955	0.096	554191	keystroke_e	e	n/a
277.263	0.105	554526	keystroke_t	t	n/a
277.4315	0.104	554863	keystroke_Key.space	Key.space	n/a
277.5915	0.136	555183	keystroke_w	w	n/a
277.695	0.08	555390	keystroke_i	i	n/a
277.84	0.0955	555680	keystroke_n	n	n/a
277.919	0.136	555838	keystroke_e	e	n/a
278.063	0.0725	556126	keystroke_Key.space	Key.space	n/a
278.231	0.1125	556462	keystroke_c	c	n/a
278.5755	0.024	557151	keystroke_o	o	n/a
278.744	0.0395	557488	keystroke_o	o	n/a
279.623	0.0885	559246	keystroke_Key.backspace	Key.backspace	n/a
280.368	0.0875	560736	keystroke_m	m	n/a
281.223	0.088	562446	keystroke_m	m	n/a
281.608	0.0875	563216	keystroke_u	u	n/a
281.7835	0.168	563567	keystroke_n	n	n/a
281.9115	0.128	563823	keystroke_i	i	n/a
282.2795	0.104	564559	keystroke_t	t	n/a
282.4075	0.08	564815	keystroke_y	y	n/a
282.5195	0.112	565039	keystroke_Key.space	Key.space	n/a
282.6955	0.136	565391	keystroke_s	s	n/a
282.7995	0.104	565599	keystroke_i	i	n/a
282.9835	0.129	565967	keystroke_m	m	n/a
283.1675	0.112	566335	keystroke_p	p	n/a
283.3915	0.104	566783	keystroke_k	k	n/a
283.9995	0.103	567999	keystroke_Key.backspace	Key.backspace	n/a
284.256	0.104	568512	keystroke_l	l	n/a
284.559	0.0965	569118	keystroke_y	y	n/a
284.975	0.0875	569950	keystroke_Key.enter	Key.enter	n/a
285.068	12.9245	570136	prompt	n/a	thesaurus somewhat right belfast\n
285.7755	0.112	571551	keystroke_t	t	n/a
285.8795	0.1035	571759	keystroke_h	h	n/a
286.303	0.12	572606	keystroke_e	e	n/a
287.271	0.1205	574542	keystroke_s	s	n/a
287.511	0.1275	575022	keystroke_a	a	n/a
287.7835	0.088	575567	keystroke_u	u	n/a
288.343	0.08	576686	keystroke_r	r	n/a
288.543	0.1045	577086	keystroke_u	u	n/a
288.7035	0.1355	577407	keystroke_s	s	n/a
288.863	0.088	577726	keystroke_Key.space	Key.space	n/a
288.9995	0.128	577999	keystroke_s	s	n/a
289.0715	0.08	578143	keystroke_o	o	n/a
289.2235	0.112	578447	keystroke_m	m	n/a
289.8875	0.144	579775	keystroke_w	w	n/a
290.559	0.072	581118	keystroke_Key.backspace	Key.backspace	n/a
290.6395	0.1115	581279	keystroke_e	e	n/a
290.8795	0.128	581759	keystroke_w	w	n/a
291.032	0.103	582064	keystroke_h	h	n/a
291.1915	0.1755	582383	keystroke_a	a	n/a
291.4555	0.096	582911	keystroke_t	t	n/a
291.6555	0.104	583311	keystroke_Key.space	Key.space	n/a
291.9675	0.1205	583935	keystroke_r	r	n/a
292.0635	0.072	584127	keystroke_i	i	n/a
292.2795	0.104	584559	keystroke_h	h	n/a
292.7035	0.096	585407	keystroke_Key.backspace	Key.backspace	n/a
293.3435	0.1195	586687	keystroke_g	g	n/a
293.4875	0.0955	586975	keystroke_h	h	n/a
293.5995	0.152	587199	keystroke_t	t	n/a
293.767	0.1205	587534	keystroke_Key.space	Key.space	n/a
294.407	0.112	588814	keystroke_b	b	n/a
294.5515	0.128	589103	keystroke_e	e	n/a
294.7585	0.105	589517	keystroke_k	k	n/a
295.4555	0.096	590911	keystroke_Key.backspace	Key.backspace	n/a
295.791	0.1125	591582	keystroke_k	k	n/a
296.3915	0.104	592783	keystroke_Key.backspace	Key.backspace	n/a
296.9355	0.072	593871	keystroke_l	l	n/a
297.1915	0.176	594383	keystroke_f	f	n/a
297.3595	0.159	594719	keystroke_a	a	n/a
297.5265	0.153	595053	keystroke_s	s	n/a
297.6955	0.112	595391	keystroke_t	t	n/a
297.9275	0.064	595855	keystroke_Key.enter	Key.enter	n/a
297.9965	6.7005	595993	prompt	n/a	canal example aqua cluster\n
298.7115	0.136	597423	keystroke_c	c	n/a
298.831	0.1445	597662	keystroke_a	a	n/a
299.111	0.0965	598222	keystroke_n	n	n/a
299.255	0.1435	598510	keystroke_a	a	n/a
299.3915	0.096	598783	keystroke_l	l	n/a
299.5435	0.0955	599087	keystroke_Key.space	Key.space	n/a
299.9035	0.0795	599807	keystroke_e	e	n/a
300.1195	0.0955	600239	keystroke_x	x	n/a
300.3195	0.136	600639	keystroke_a	a	n/a
300.439	0.0805	600878	keystroke_m	m	n/a
300.591	0.096	601182	keystroke_p	p	n/a
300.767	0.096	601534	keystroke_l	l	n/a
300.8555	0.1275	601711	keystroke_e	e	n/a
300.991	0.072	601982	keystroke_Key.space	Key.space	n/a
301.327	0.1435	602654	keystroke_a	a	n/a
301.6155	0.136	603231	keystroke_q	q	n/a
302.0315	0.104	604063	keystroke_u	u	n/a
302.1915	0.128	604383	keystroke_a	a	n/a
302.4075	0.103	604815	keystroke_Key.space	Key.space	n/a
302.8955	0.096	605791	keystroke_c	c	n/a
303.0155	0.096	606031	keystroke_l	l	n/a
303.2715	0.072	606543	keystroke_u	u	n/a
303.799	0.088	607598	keystroke_s	s	n/a
303.991	0.0885	607982	keystroke_t	t	n/a
304.3275	0.12	608655	keystroke_e	e	n/a
304.4315	0.12	608863	keystroke_r	r	n/a
304.575	0.12	609150	keystroke_Key.enter	Key.enter	n/a
304.702	7.019	609404	prompt	n/a	references toward complex turned\n
305.3115	0.1675	610623	keystroke_r	r	n/a
305.415	0.144	610830	keystroke_e	e	n/a
305.6385	0.1205	611277	keystroke_f	f	n/a
305.8625	0.121	611725	keystroke_e	e	n/a
305.9515	0.1275	611903	keystroke_r	r	n/a
306.0955	0.111	612191	keystroke_e	e	n/a
306.1745	0.112	612349	keystroke_n	n	n/a
306.303	0.1595	612606	keystroke_c	c	n/a
306.4315	0.159	612863	keystroke_e	e	n/a
306.5825	0.153	613165	keystroke_s	s	n/a
306.751	0.1275	613502	keystroke_Key.space	Key.space	n/a
306.9035	0.1115	613807	keystroke_t	t	n/a
306.9745	0.1045	613949	keystroke_o	o	n/a
307.1105	0.2	614221	keystroke_w	w	n/a
307.2385	0.216	614477	keystroke_a	a	n/a
307.4955	0.135	614991	keystroke_r	r	n/a
307.815	0.128	615630	keystroke_d	d	n/a
307.999	0.072	615998	keystroke_Key.space	Key.space	n/a
308.167	0.112	616334	keystroke_c	c	n/a
308.239	0.08	616478	keystroke_o	o	n/a
308.399	0.104	616798	keystroke_m	m	n/a
308.591	0.08	617182	keystroke_p	p	n/a
308.935	0.088	617870	keystroke_l	l	n/a
309.2155	0.184	618431	keystroke_e	e	n/a
309.3675	0.1195	618735	keystroke_t	t	n/a
309.759	0.104	619518	keystroke_Key.backspace	Key.backspace	n/a
309.911	0.1365	619822	keystroke_x	x	n/a
310.127	0.096	620254	keystroke_Key.space	Key.space	n/a
310.727	0.1205	621454	keystroke_t	t	n/a
310.871	0.096	621742	keystroke_u	u	n/a
310.999	0.128	621998	keystroke_r	r	n/a
311.1425	0.096	622285	keystroke_n	n	n/a
311.2625	0.112	622525	keystroke_e	e	n/a
311.4465	0.1285	622893	keystroke_d	d	n/a
311.6545	0.064	623309	keystroke_Key.enter	Key.enter	n/a
311.7285	8.096	623457	prompt	n/a	engineer backed excuse consulting\n
312.4235	0.128	624847	keystroke_e	e	n/a
312.5275	0.1115	625055	keystroke_n	n	n/a
313.1665	0.0885	626333	keystroke_g	g	n/a
313.3905	0.065	626781	keystroke_i	i	n/a
313.543	0.096	627086	keystroke_n	n	n/a
314.007	0.079	628014	keystroke_e	e	n/a
314.1595	0.175	628319	keystroke_e	e	n/a
314.311	0.1525	628622	keystroke_r	r	n/a
314.455	0.1125	628910	keystroke_Key.space	Key.space	n/a
314.7675	0.1035	629535	keystroke_b	b	n/a
314.999	0.111	629998	keystroke_a	a	n/a
315.431	0.112	630862	keystroke_c	c	n/a
315.599	0.0965	631198	keystroke_k	k	n/a
315.8225	0.105	631645	keystroke_e	e	n/a
316.047	0.1125	632094	keystroke_d	d	n/a
316.1675	0.096	632335	keystroke_Key.space	Key.space	n/a
316.407	0.0875	632814	keystroke_e	e	n/a
316.6465	0.0725	633293	keystroke_x	x	n/a
316.8545	0.1205	633709	keystroke_c	c	n/a
317.215	0.112	634430	keystroke_u	u	n/a
317.719	0.176	635438	keystroke_s	s	n/a
317.863	0.1285	635726	keystroke_e	e	n/a
317.983	0.088	635966	keystroke_Key.space	Key.space	n/a
318.1515	0.0955	636303	keystroke_c	c	n/a
318.207	0.1045	636414	keystroke_o	o	n/a
318.383	0.088	636766	keystroke_n	n	n/a
318.495	0.144	636990	keystroke_s	s	n/a
318.631	0.096	637262	keystroke_u	u	n/a
318.879	0.1125	637758	keystroke_l	l	n/a
319.071	0.112	638142	keystroke_t	t	n/a
319.223	0.0875	638446	keystroke_i	i	n/a
319.3665	0.0885	638733	keystroke_n	n	n/a
319.447	0.096	638894	keystroke_g	g	n/a
319.551	0.0955	639102	keystroke_Key.space	Key.space	n/a
319.7185	0.104	639437	keystroke_Key.enter	Key.enter	n/a
319.8285	8.716	639657	prompt	n/a	tiger editors trouble wells\n
320.7115	0.1035	641423	keystroke_t	t	n/a
320.9265	0.1045	641853	keystroke_i	i	n/a
321.2145	0.08	642429	keystroke_g	g	n/a
321.391	0.168	642782	keystroke_e	e	n/a
321.463	0.144	642926	keystroke_r	r	n/a
321.647	0.056	643294	keystroke_Key.space	Key.space	n/a
322.079	0.128	644158	keystroke_e	e	n/a
322.311	0.112	644622	keystroke_d	d	n/a
322.479	0.0885	644958	keystroke_i	i	n/a
322.735	0.08	645470	keystroke_t	t	n/a
322.871	0.096	645742	keystroke_o	o	n/a
322.983	0.12	645966	keystroke_r	r	n/a
323.1985	0.1525	646397	keystroke_s	s	n/a
323.367	0.104	646734	keystroke_Key.space	Key.space	n/a
323.607	0.08	647214	keystroke_t	t	n/a
323.831	0.12	647662	keystroke_r	r	n/a
323.9755	0.1835	647951	keystroke_o	o	n/a
324.135	0.1125	648270	keystroke_u	u	n/a
324.3425	0.088	648685	keystroke_b	b	n/a
324.5345	0.1205	649069	keystroke_l	l	n/a
324.6385	0.137	649277	keystroke_e	e	n/a
324.75	0.104	649500	keystroke_Key.space	Key.space	n/a
325.0155	0.0875	650031	keystroke_e	e	n/a
325.5025	0.1445	651005	keystroke_w	w	n/a
325.727	0.087	651454	keystroke_Key.backspace	Key.backspace	n/a
325.8785	0.0805	651757	keystroke_Key.backspace	Key.backspace	n/a
326.0955	0.1195	652191	keystroke_w	w	n/a
326.287	0.136	652574	keystroke_e	e	n/a
326.447	0.064	652894	keystroke_k	k	n/a
326.599	0.088	653198	keystroke_k	k	n/a
327.095	0.104	654190	keystroke_Key.backspace	Key.backspace	n/a
327.263	0.096	654526	keystroke_Key.backspace	Key.backspace	n/a
327.975	0.056	655950	keystroke_l	l	n/a
328.111	0.056	656222	keystroke_l	l	n/a
328.207	0.136	656414	keystroke_s	s	n/a
328.463	0.079	656926	keystroke_Key.enter	Key.enter	n/a
328.549	7.0675	657098	prompt	n/a	universal the philip immune\n
329.1915	0.087	658383	keystroke_u	u	n/a
329.3665	0.089	658733	keystroke_n	n	n/a
329.7185	0.072	659437	keystroke_i	i	n/a
329.871	0.1205	659742	keystroke_v	v	n/a
330.0955	0.1595	660191	keystroke_e	e	n/a
330.175	0.144	660350	keystroke_r	r	n/a
330.351	0.16	660702	keystroke_s	s	n/a
330.487	0.136	660974	keystroke_a	a	n/a
330.607	0.08	661214	keystroke_l	l	n/a
330.767	0.136	661534	keystroke_Key.space	Key.space	n/a
330.911	0.104	661822	keystroke_t	t	n/a
330.983	0.112	661966	keystroke_h	h	n/a
331.103	0.136	662206	keystroke_e	e	n/a
331.167	0.12	662334	keystroke_Key.space	Key.space	n/a
331.327	0.096	662654	keystroke_p	p	n/a
331.567	0.064	663134	keystroke_h	h	n/a
331.751	0.208	663502	keystroke_i	i	n/a
331.943	0.176	663886	keystroke_l	l	n/a
332.1755	0.1035	664351	keystroke_i	i	n/a
332.423	0.08	664846	keystroke_p	p	n/a
332.8625	0.112	665725	keystroke_Key.space	Key.space	n/a
333.143	0.12	666286	keystroke_i	i	n/a
333.959	0.0795	667918	keystroke_m	m	n/a
334.1185	0.0885	668237	keystroke_m	m	n/a
334.3585	0.0805	668717	keystroke_u	u	n/a
334.5265	0.097	669053	keystroke_n	n	n/a
334.6625	0.1285	669325	keystroke_e	e	n/a
335.527	0.088	671054	keystroke_Key.enter	Key.enter	n/a
335.6205	19.3795	671241	prompt	n/a	habits migration locked bacteria\n
336.327	0.0955	672654	keystroke_b	b	n/a
336.4625	0.1205	672925	keystroke_a	a	n/a
336.591	0.1035	673182	keystroke_h	h	n/a
336.887	0.192	673774	keystroke_b	b	n/a
337.071	0.088	674142	keystroke_i	i	n/a
337.423	0.08	674846	keystroke_t	t	n/a
337.9425	0.08	675885	keystroke_Key.backspace	Key.backspace	n/a
338.0945	0.0885	676189	keystroke_Key.backspace	Key.backspace	n/a
338.2705	0.088	676541	keystroke_Key.backspace	Key.backspace	n/a
338.767	0.1035	677534	keystroke_Key.backspace	Key.backspace	n/a
338.9345	0.088	677869	keystroke_Key.backspace	Key.backspace	n/a
339.0945	0.072	678189	keystroke_Key.backspace	Key.backspace	n/a
339.2465	0.088	678493	keystroke_Key.backspace	Key.backspace	n/a
339.638	0.08	679276	keystroke_h	h	n/a
339.839	0.0875	679678	keystroke_a	a	n/a
339.9825	0.168	679965	keystroke_b	b	n/a
340.0865	0.12	680173	keystroke_i	i	n/a
340.183	0.0875	680366	keystroke_t	t	n/a
340.3745	0.1605	680749	keystroke_s	s	n/a
340.5185	0.096	681037	keystroke_Key.space	Key.space	n/a
340.7905	0.1845	681581	keystroke_m	m	n/a
341.007	0.095	682014	keystroke_i	i	n/a
341.1505	0.0955	682301	keystroke_r	r	n/a
341.358	0.137	682716	keystroke_g	g	n/a
341.542	0.161	683084	keystroke_r	r	n/a
341.694	0.2165	683388	keystroke_a	a	n/a
341.926	0.128	683852	keystroke_t	t	n/a
342.086	0.1845	684172	keystroke_i	i	n/a
342.19	0.12	684380	keystroke_o	o	n/a
342.35	0.0965	684700	keystroke_n	n	n/a
342.7105	0.1275	685421	keystroke_Key.space	Key.space	n/a
343.486	0.0805	686972	keystroke_Key.backspace	Key.backspace	n/a
343.6625	0.072	687325	keystroke_Key.backspace	Key.backspace	n/a
343.822	0.08	687644	keystroke_Key.backspace	Key.backspace	n/a
343.9905	0.0715	687981	keystroke_Key.backspace	Key.backspace	n/a
344.15	0.0645	688300	keystroke_Key.backspace	Key.backspace	n/a
346.678	0.0805	693356	keystroke_Key.backspace	Key.backspace	n/a
346.846	0.0645	693692	keystroke_Key.backspace	Key.backspace	n/a
347.0065	0.0555	694013	keystroke_Key.backspace	Key.backspace	n/a
347.1505	0.08	694301	keystroke_Key.backspace	Key.backspace	n/a
347.9105	0.1035	695821	keystroke_g	g	n/a
347.9985	0.1675	695997	keystroke_r	r	n/a
348.142	0.192	696284	keystroke_a	a	n/a
348.2945	0.1195	696589	keystroke_t	t	n/a
348.526	0.1125	697052	keystroke_u	u	n/a
348.5905	0.144	697181	keystroke_o	o	n/a
349.4625	0.0715	698925	keystroke_Key.backspace	Key.backspace	n/a
349.6145	0.0635	699229	keystroke_Key.backspace	Key.backspace	n/a
349.862	0.224	699724	keystroke_i	i	n/a
350.0145	0.1115	700029	keystroke_o	o	n/a
350.19	0.096	700380	keystroke_n	n	n/a
350.326	0.12	700652	keystroke_Key.space	Key.space	n/a
350.8145	0.104	701629	keystroke_l	l	n/a
350.9975	0.089	701995	keystroke_o	o	n/a
351.334	0.1205	702668	keystroke_c	c	n/a
351.4625	0.0875	702925	keystroke_k	k	n/a
351.582	0.1205	703164	keystroke_e	e	n/a
351.8145	0.128	703629	keystroke_d	d	n/a
351.9825	0.112	703965	keystroke_Key.space	Key.space	n/a
352.398	0.096	704796	keystroke_b	b	n/a
352.542	0.144	705084	keystroke_a	a	n/a
352.9905	0.144	705981	keystroke_t	t	n/a
353.4945	0.056	706989	keystroke_Key.backspace	Key.backspace	n/a
353.678	0.0885	707356	keystroke_c	c	n/a
353.974	0.088	707948	keystroke_t	t	n/a
354.158	0.16	708316	keystroke_e	e	n/a
354.254	0.1125	708508	keystroke_r	r	n/a
354.5105	0.087	709021	keystroke_i	i	n/a
354.6785	0.104	709357	keystroke_a	a	n/a
354.8935	0.104	709787	keystroke_Key.enter	Key.enter	n/a
355.0045	9.227	710009	prompt	n/a	promo aruba third heights\n
355.638	0.12	711276	keystroke_o	o	n/a
355.766	0.112	711532	keystroke_r	r	n/a
355.8865	0.056	711773	keystroke_i	i	n/a
356.1735	0.0645	712347	keystroke_m	m	n/a
356.1905	0.039	712381	keystroke_n	n	n/a
356.462	0.072	712924	keystroke_Key.backspace	Key.backspace	n/a
356.606	0.0805	713212	keystroke_Key.backspace	Key.backspace	n/a
356.758	0.0645	713516	keystroke_Key.backspace	Key.backspace	n/a
356.902	0.0635	713804	keystroke_Key.backspace	Key.backspace	n/a
357.0385	0.112	714077	keystroke_Key.backspace	Key.backspace	n/a
357.4145	0.1115	714829	keystroke_p	p	n/a
357.5575	0.1045	715115	keystroke_r	r	n/a
357.678	0.048	715356	keystroke_o	o	n/a
357.854	0.16	715708	keystroke_m	m	n/a
357.974	0.1045	715948	keystroke_o	o	n/a
358.15	0.104	716300	keystroke_Key.space	Key.space	n/a
358.59	0.136	717180	keystroke_a	a	n/a
358.8305	0.104	717661	keystroke_r	r	n/a
358.9415	0.0805	717883	keystroke_u	u	n/a
359.126	0.1205	718252	keystroke_b	b	n/a
359.2625	0.1275	718525	keystroke_a	a	n/a
359.406	0.136	718812	keystroke_Key.space	Key.space	n/a
359.6215	0.1045	719243	keystroke_t	t	n/a
359.686	0.16	719372	keystroke_h	h	n/a
360.998	0.088	721996	keystroke_i	i	n/a
361.1185	0.0955	722237	keystroke_r	r	n/a
361.35	0.136	722700	keystroke_d	d	n/a
361.502	0.104	723004	keystroke_Key.space	Key.space	n/a
361.734	0.1525	723468	keystroke_h	h	n/a
362.2295	0.121	724459	keystroke_e	e	n/a
363.126	0.08	726252	keystroke_i	i	n/a
363.222	0.104	726444	keystroke_g	g	n/a
363.39	0.1765	726780	keystroke_h	h	n/a
363.646	0.104	727292	keystroke_t	t	n/a
363.862	0.12	727724	keystroke_s	s	n/a
364.142	0.088	728284	keystroke_Key.enter	Key.enter	n/a
364.236	11.8035	728472	prompt	n/a	deutsch sender bedroom bald\n
364.8465	0.08	729693	keystroke_d	d	n/a
365.3825	0.128	730765	keystroke_e	e	n/a
365.5425	0.064	731085	keystroke_u	u	n/a
365.926	0.056	731852	keystroke_t	t	n/a
366.197	0.1375	732394	keystroke_s	s	n/a
366.4135	0.1125	732827	keystroke_c	c	n/a
366.55	0.0565	733100	keystroke_g	g	n/a
366.694	0.088	733388	keystroke_Key.space	Key.space	n/a
367.302	0.072	734604	keystroke_Key.backspace	Key.backspace	n/a
367.454	0.0635	734908	keystroke_Key.backspace	Key.backspace	n/a
367.862	0.136	735724	keystroke_h	h	n/a
368.182	0.104	736364	keystroke_Key.space	Key.space	n/a
368.3505	0.1275	736701	keystroke_s	s	n/a
368.518	0.104	737036	keystroke_n	n	n/a
368.982	0.088	737964	keystroke_Key.backspace	Key.backspace	n/a
369.11	0.096	738220	keystroke_e	e	n/a
369.3895	0.1205	738779	keystroke_d	d	n/a
369.758	0.0795	739516	keystroke_Key.backspace	Key.backspace	n/a
370.038	0.144	740076	keystroke_n	n	n/a
370.5335	0.104	741067	keystroke_d	d	n/a
370.742	0.136	741484	keystroke_e	e	n/a
370.8455	0.12	741691	keystroke_r	r	n/a
370.9415	0.0965	741883	keystroke_Key.space	Key.space	n/a
371.3335	0.096	742667	keystroke_b	b	n/a
371.894	0.096	743788	keystroke_e	e	n/a
372.15	0.12	744300	keystroke_d	d	n/a
372.4615	0.104	744923	keystroke_r	r	n/a
372.6145	0.063	745229	keystroke_o	o	n/a
372.7505	0.0875	745501	keystroke_o	o	n/a
372.9895	0.104	745979	keystroke_m	m	n/a
373.59	0.104	747180	keystroke_Key.space	Key.space	n/a
373.846	0.1205	747692	keystroke_b	b	n/a
374.038	0.12	748076	keystroke_a	a	n/a
374.214	0.104	748428	keystroke_l	l	n/a
374.382	0.112	748764	keystroke_d	d	n/a
375.942	0.096	751884	keystroke_Key.enter	Key.enter	n/a
376.0445	12.539	752089	prompt	n/a	challenge ware consisting reno\n
376.6695	0.12	753339	keystroke_c	c	n/a
376.8065	0.127	753613	keystroke_h	h	n/a
377.0295	0.1205	754059	keystroke_a	a	n/a
377.2705	0.0875	754541	keystroke_l	l	n/a
377.438	0.0795	754876	keystroke_l	l	n/a
377.798	0.0875	755596	keystroke_e	e	n/a
377.918	0.096	755836	keystroke_n	n	n/a
378.118	0.064	756236	keystroke_g	g	n/a
378.23	0.128	756460	keystroke_e	e	n/a
378.334	0.12	756668	keystroke_Key.space	Key.space	n/a
378.462	0.184	756924	keystroke_w	w	n/a
378.5825	0.1755	757165	keystroke_a	a	n/a
378.758	0.168	757516	keystroke_r	r	n/a
379.2215	0.12	758443	keystroke_e	e	n/a
379.4455	0.048	758891	keystroke_Key.space	Key.space	n/a
379.9895	0.0955	759979	keystroke_o	o	n/a
380.462	0.0875	760924	keystroke_=	=	n/a
380.6135	0.1205	761227	keystroke_c	c	n/a
380.742	0.088	761484	keystroke_o	o	n/a
380.9175	0.0885	761835	keystroke_n	n	n/a
381.39	0.0715	762780	keystroke_Key.backspace	Key.backspace	n/a
381.5655	0.0485	763131	keystroke_Key.backspace	Key.backspace	n/a
381.7095	0.072	763419	keystroke_Key.backspace	Key.backspace	n/a
381.862	0.0875	763724	keystroke_Key.backspace	Key.backspace	n/a
382.0375	0.1045	764075	keystroke_Key.backspace	Key.backspace	n/a
382.582	0.1275	765164	keystroke_c	c	n/a
382.6775	0.08	765355	keystroke_o	o	n/a
382.8375	0.08	765675	keystroke_n	n	n/a
382.9415	0.0965	765883	keystroke_s	s	n/a
383.0455	0.08	766091	keystroke_i	i	n/a
383.133	0.0645	766266	keystroke_s	s	n/a
383.686	0.096	767372	keystroke_t	t	n/a
383.9425	0.0945	767885	keystroke_i	i	n/a
384.102	0.088	768204	keystroke_n	n	n/a
384.174	0.112	768348	keystroke_g	g	n/a
384.286	0.088	768572	keystroke_Key.space	Key.space	n/a
384.605	0.129	769210	keystroke_e	e	n/a
385.486	0.096	770972	keystroke_=	=	n/a
385.598	0.152	771196	keystroke_r	r	n/a
385.6935	0.1445	771387	keystroke_e	e	n/a
385.8535	0.208	771707	keystroke_n	n	n/a
386.0295	0.0885	772059	keystroke_o	o	n/a
386.3175	0.0715	772635	keystroke_Key.backspace	Key.backspace	n/a
386.469	0.064	772938	keystroke_Key.backspace	Key.backspace	n/a
386.6215	0.0635	773243	keystroke_Key.backspace	Key.backspace	n/a
386.765	0.08	773530	keystroke_Key.backspace	Key.backspace	n/a
386.933	0.088	773866	keystroke_Key.backspace	Key.backspace	n/a
387.1735	0.0805	774347	keystroke_Key.backspace	Key.backspace	n/a
387.342	0.127	774684	keystroke_r	r	n/a
387.462	0.136	774924	keystroke_e	e	n/a
387.678	0.1595	775356	keystroke_n	n	n/a
388.182	0.0875	776364	keystroke_o	o	n/a
388.4855	0.096	776971	keystroke_Key.enter	Key.enter	n/a
388.5885	12.764	777177	prompt	n/a	dozens affiliates popularity limiting\n
389.2375	0.104	778475	keystroke_d	d	n/a
389.3335	0.1125	778667	keystroke_o	o	n/a
389.478	0.072	778956	keystroke_e	e	n/a
389.798	0.096	779596	keystroke_Key.backspace	Key.backspace	n/a
389.878	0.152	779756	keystroke_z	z	n/a
390.037	0.121	780074	keystroke_e	e	n/a
390.2295	0.097	780459	keystroke_n	n	n/a
390.446	0.128	780892	keystroke_s	s	n/a
390.63	0.096	781260	keystroke_Key.space	Key.space	n/a
390.9575	0.112	781915	keystroke_a	a	n/a
391.1415	0.096	782283	keystroke_f	f	n/a
391.3255	0.0805	782651	keystroke_f	f	n/a
391.638	0.184	783276	keystroke_i	i	n/a
391.902	0.136	783804	keystroke_l	l	n/a
392.1265	0.0875	784253	keystroke_i	i	n/a
392.238	0.128	784476	keystroke_a	a	n/a
392.358	0.136	784716	keystroke_t	t	n/a
392.502	0.136	785004	keystroke_e	e	n/a
392.7095	0.144	785419	keystroke_d	d	n/a
393.366	0.104	786732	keystroke_Key.backspace	Key.backspace	n/a
393.5185	0.1675	787037	keystroke_s	s	n/a
393.694	0.112	787388	keystroke_Key.space	Key.space	n/a
395.006	0.088	790012	keystroke_p	p	n/a
395.182	0.08	790364	keystroke_o	o	n/a
395.398	0.096	790796	keystroke_p	p	n/a
396.086	0.079	792172	keystroke_u	u	n/a
396.334	0.0875	792668	keystroke_l	l	n/a
396.5655	0.1685	793131	keystroke_a	a	n/a
396.79	0.152	793580	keystroke_r	r	n/a
397.502	0.0955	795004	keystroke_i	i	n/a
397.6215	0.0965	795243	keystroke_t	t	n/a
397.7575	0.104	795515	keystroke_y	y	n/a
397.878	0.0875	795756	keystroke_Key.space	Key.space	n/a
398.0535	0.192	796107	keystroke_l	l	n/a
398.1815	0.144	796363	keystroke_i	i	n/a
398.3975	0.1925	796795	keystroke_n	n	n/a
398.525	0.137	797050	keystroke_i	i	n/a
398.702	0.112	797404	keystroke_t	t	n/a
399.277	0.08	798554	keystroke_Key.backspace	Key.backspace	n/a
399.421	0.0805	798842	keystroke_Key.backspace	Key.backspace	n/a
399.5895	0.088	799179	keystroke_Key.backspace	Key.backspace	n/a
400.2935	0.072	800587	keystroke_m	m	n/a
400.4935	0.08	800987	keystroke_i	i	n/a
400.6855	0.104	801371	keystroke_t	t	n/a
400.7815	0.088	801563	keystroke_i	i	n/a
400.9025	0.0875	801805	keystroke_n	n	n/a
400.9975	0.104	801995	keystroke_g	g	n/a
401.2935	0.056	802587	keystroke_Key.enter	Key.enter	n/a
401.357	7.842	802714	prompt	n/a	exists central lived steering\n
401.934	0.096	803868	keystroke_e	e	n/a
402.1735	0.0885	804347	keystroke_x	x	n/a
402.294	0.0875	804588	keystroke_i	i	n/a
402.4055	0.232	804811	keystroke_s	s	n/a
402.582	0.1435	805164	keystroke_t	t	n/a
402.9655	0.128	805931	keystroke_s	s	n/a
403.1175	0.12	806235	keystroke_Key.space	Key.space	n/a
403.4215	0.104	806843	keystroke_c	c	n/a
403.7095	0.12	807419	keystroke_e	e	n/a
403.918	0.0315	807836	keystroke_n	n	n/a
404.2695	0.104	808539	keystroke_t	t	n/a
404.4135	0.128	808827	keystroke_r	r	n/a
404.534	0.1435	809068	keystroke_a	a	n/a
404.814	0.0475	809628	keystroke_l	l	n/a
405.461	0.136	810922	keystroke_Key.space	Key.space	n/a
405.8695	0.28	811739	keystroke_l	l	n/a
406.0855	0.136	812171	keystroke_i	i	n/a
406.246	0.1355	812492	keystroke_v	v	n/a
406.454	0.128	812908	keystroke_e	e	n/a
406.6855	0.16	813371	keystroke_d	d	n/a
406.861	0.112	813722	keystroke_Key.space	Key.space	n/a
407.085	0.105	814170	keystroke_s	s	n/a
407.269	0.096	814538	keystroke_t	t	n/a
407.485	0.0965	814970	keystroke_e	e	n/a
407.6695	0.072	815339	keystroke_e	e	n/a
407.91	0.152	815820	keystroke_r	r	n/a
408.486	0.072	816972	keystroke_i	i	n/a
408.629	0.096	817258	keystroke_n	n	n/a
408.7175	0.1195	817435	keystroke_g	g	n/a
409.1015	0.088	818203	keystroke_Key.enter	Key.enter	n/a
409.2025	7.1005	818405	prompt	n/a	invention donation popular bruce\n
409.7975	0.056	819595	keystroke_i	i	n/a
409.9575	0.112	819915	keystroke_n	n	n/a
410.1975	0.104	820395	keystroke_v	v	n/a
410.3735	0.16	820747	keystroke_e	e	n/a
410.4855	0.0955	820971	keystroke_n	n	n/a
410.637	0.0965	821274	keystroke_t	t	n/a
410.773	0.16	821546	keystroke_i	i	n/a
410.877	0.097	821754	keystroke_o	o	n/a
411.0215	0.096	822043	keystroke_n	n	n/a
411.134	0.0875	822268	keystroke_Key.space	Key.space	n/a
411.334	0.119	822668	keystroke_d	d	n/a
411.446	0.0875	822892	keystroke_o	o	n/a
411.6455	0.104	823291	keystroke_n	n	n/a
411.7495	0.152	823499	keystroke_a	a	n/a
411.8935	0.1045	823787	keystroke_t	t	n/a
411.9415	0.1675	823883	keystroke_i	i	n/a
412.0535	0.1115	824107	keystroke_o	o	n/a
412.213	0.097	824426	keystroke_n	n	n/a
412.285	0.056	824570	keystroke_Key.space	Key.space	n/a
412.9095	0.1515	825819	keystroke_p	p	n/a
413.6055	0.08	827211	keystroke_o	o	n/a
413.814	0.0795	827628	keystroke_p	p	n/a
414.0615	0.088	828123	keystroke_u	u	n/a
414.2935	0.088	828587	keystroke_l	l	n/a
414.4455	0.144	828891	keystroke_a	a	n/a
414.5815	0.1525	829163	keystroke_r	r	n/a
415.061	0.089	830122	keystroke_Key.space	Key.space	n/a
415.477	0.096	830954	keystroke_b	b	n/a
415.5975	0.088	831195	keystroke_r	r	n/a
415.7015	0.096	831403	keystroke_u	u	n/a
415.8855	0.1915	831771	keystroke_c	c	n/a
416.029	0.145	832058	keystroke_e	e	n/a
416.253	0.0485	832506	keystroke_Key.enter	Key.enter	n/a
416.307	0.0685	832614	prompt	n/a	loss draft robots fate\n
416.3415	0.0315	832683	keystroke_Key.enter	Key.enter	n/a
416.3825	10.8805	832765	prompt	n/a	chase walls i'm equally\n
417.013	0.1125	834026	keystroke_c	c	n/a
417.277	0.0885	834554	keystroke_h	h	n/a
417.4295	0.1445	834859	keystroke_s	s	n/a
417.9335	0.096	835867	keystroke_a	a	n/a
418.2055	0.088	836411	keystroke_Key.backspace	Key.backspace	n/a
418.3735	0.08	836747	keystroke_Key.backspace	Key.backspace	n/a
418.6615	0.1205	837323	keystroke_a	a	n/a
418.8695	0.16	837739	keystroke_s	s	n/a
419.0135	0.152	838027	keystroke_e	e	n/a
419.1575	0.12	838315	keystroke_Key.space	Key.space	n/a
419.4295	0.103	838859	keystroke_v	v	n/a
419.5725	0.1135	839145	keystroke_a	a	n/a
419.7085	0.217	839417	keystroke_l	l	n/a
420.301	0.088	840602	keystroke_Key.backspace	Key.backspace	n/a
420.469	0.0725	840938	keystroke_Key.backspace	Key.backspace	n/a
420.621	0.0805	841242	keystroke_Key.backspace	Key.backspace	n/a
420.7895	0.1435	841579	keystroke_w	w	n/a
420.925	0.177	841850	keystroke_a	a	n/a
421.2375	0.0955	842475	keystroke_l	l	n/a
421.421	0.0805	842842	keystroke_l	l	n/a
421.7655	0.1515	843531	keystroke_s	s	n/a
421.949	0.1365	843898	keystroke_Key.space	Key.space	n/a
422.341	0.096	844682	keystroke_i	i	n/a
423.301	0.0485	846602	keystroke_'	'	n/a
423.421	0.16	846842	keystroke_s	s	n/a
423.981	0.08	847962	keystroke_Key.backspace	Key.backspace	n/a
424.2695	0.0715	848539	keystroke_m	m	n/a
424.6525	0.1205	849305	keystroke_Key.space	Key.space	n/a
425.197	0.1285	850394	keystroke_e	e	n/a
425.5095	0.112	851019	keystroke_q	q	n/a
426.101	0.072	852202	keystroke_u	u	n/a
426.245	0.12	852490	keystroke_a	a	n/a
426.3975	0.072	852795	keystroke_l	l	n/a
426.5335	0.072	853067	keystroke_l	l	n/a
426.7975	0.08	853595	keystroke_y	y	n/a
427.205	0.056	854410	keystroke_Key.enter	Key.enter	n/a
427.2675	9.7235	854535	prompt	n/a	tank involved shuttle productive\n
428.0125	0.097	856025	keystroke_t	t	n/a
428.3895	0.1205	856779	keystroke_a	a	n/a
428.5175	0.184	857035	keystroke_n	n	n/a
428.6375	0.152	857275	keystroke_k	k	n/a
428.7975	0.096	857595	keystroke_Key.space	Key.space	n/a
429.0215	0.088	858043	keystroke_i	i	n/a
429.1895	0.088	858379	keystroke_n	n	n/a
429.3495	0.088	858699	keystroke_v	v	n/a
429.4855	0.1035	858971	keystroke_o	o	n/a
429.725	0.0965	859450	keystroke_l	l	n/a
430.109	0.0885	860218	keystroke_v	v	n/a
430.269	0.128	860538	keystroke_e	e	n/a
430.509	0.1525	861018	keystroke_d	d	n/a
430.669	0.112	861338	keystroke_Key.space	Key.space	n/a
430.8855	0.0955	861771	keystroke_s	s	n/a
431.0295	0.1995	862059	keystroke_h	h	n/a
431.1735	0.0955	862347	keystroke_u	u	n/a
431.325	0.072	862650	keystroke_t	t	n/a
431.493	0.096	862986	keystroke_t	t	n/a
431.645	0.112	863290	keystroke_l	l	n/a
432.0135	0.1275	864027	keystroke_e	e	n/a
432.221	0.1125	864442	keystroke_Key.space	Key.space	n/a
432.421	0.0885	864842	keystroke_p	p	n/a
432.541	0.0725	865082	keystroke_r	r	n/a
433.277	0.0645	866554	keystroke_o	o	n/a
433.8295	0.0875	867659	keystroke_d	d	n/a
434.1655	0.088	868331	keystroke_u	u	n/a
434.373	0.1285	868746	keystroke_c	c	n/a
434.837	0.1115	869674	keystroke_t	t	n/a
434.981	0.0885	869962	keystroke_i	i	n/a
435.1495	0.127	870299	keystroke_v	v	n/a
435.3095	0.151	870619	keystroke_e	e	n/a
435.5405	0.0965	871081	keystroke_'	'	n/a
436.4855	0.1115	872971	keystroke_Key.backspace	Key.backspace	n/a
436.886	0.1025	873772	keystroke_Key.enter	Key.enter	n/a
436.995	7.8835	873990	prompt	n/a	hints insulin cattle dentists\n
437.837	0.2315	875674	keystroke_h	h	n/a
437.981	0.1275	875962	keystroke_i	i	n/a
438.197	0.1045	876394	keystroke_n	n	n/a
438.3015	0.08	876603	keystroke_t	t	n/a
438.5245	0.1765	877049	keystroke_s	s	n/a
438.717	0.112	877434	keystroke_Key.space	Key.space	n/a
439.1725	0.0965	878345	keystroke_s	s	n/a
439.9815	0.0875	879963	keystroke_Key.backspace	Key.backspace	n/a
440.2855	0.064	880571	keystroke_i	i	n/a
440.461	0.0725	880922	keystroke_n	n	n/a
440.6135	0.1275	881227	keystroke_s	s	n/a
440.7495	0.0795	881499	keystroke_u	u	n/a
441.0615	0.192	882123	keystroke_l	l	n/a
441.2045	0.089	882409	keystroke_i	i	n/a
441.3565	0.1205	882713	keystroke_n	n	n/a
441.501	0.112	883002	keystroke_Key.space	Key.space	n/a
441.6775	0.1355	883355	keystroke_c	c	n/a
441.8215	0.119	883643	keystroke_a	a	n/a
442.1245	0.0725	884249	keystroke_t	t	n/a
442.2615	0.095	884523	keystroke_t	t	n/a
442.389	0.104	884778	keystroke_l	l	n/a
442.509	0.152	885018	keystroke_e	e	n/a
442.653	0.112	885306	keystroke_Key.space	Key.space	n/a
443.165	0.0725	886330	keystroke_d	d	n/a
443.325	0.112	886650	keystroke_e	e	n/a
443.4205	0.096	886841	keystroke_n	n	n/a
443.701	0.104	887402	keystroke_t	t	n/a
443.965	0.088	887930	keystroke_i	i	n/a
444.085	0.144	888170	keystroke_s	s	n/a
444.253	0.12	888506	keystroke_t	t	n/a
444.517	0.096	889034	keystroke_s	s	n/a
444.781	0.096	889562	keystroke_Key.enter	Key.enter	n/a
444.883	12.6195	889766	prompt	n/a	bouquet we'd've encryption kentucky\n
445.709	0.1035	891418	keystroke_b	b	n/a
445.9725	0.1925	891945	keystroke_o	o	n/a
446.101	0.112	892202	keystroke_u	u	n/a
446.293	0.112	892586	keystroke_q	q	n/a
446.421	0.088	892842	keystroke_u	u	n/a
446.573	0.184	893146	keystroke_e	e	n/a
446.7015	0.1515	893403	keystroke_s	s	n/a
447.021	0.08	894042	keystroke_t	t	n/a
447.525	0.056	895050	keystroke_Key.backspace	Key.backspace	n/a
447.661	0.104	895322	keystroke_Key.backspace	Key.backspace	n/a
448.0135	0.0955	896027	keystroke_t	t	n/a
448.237	0.12	896474	keystroke_Key.space	Key.space	n/a
448.565	0.1525	897130	keystroke_w	w	n/a
448.8135	0.128	897627	keystroke_e	e	n/a
449.4455	0.079	898891	keystroke_'	'	n/a
449.5885	0.1445	899177	keystroke_d	d	n/a
450.2925	0.081	900585	keystroke_'	'	n/a
450.5645	0.128	901129	keystroke_v	v	n/a
450.7645	0.169	901529	keystroke_e	e	n/a
451.053	0.128	902106	keystroke_Key.space	Key.space	n/a
451.397	0.1275	902794	keystroke_e	e	n/a
451.5325	0.1125	903065	keystroke_n	n	n/a
451.733	0.072	903466	keystroke_c	c	n/a
451.965	0.12	903930	keystroke_r	r	n/a
452.628	0.081	905256	keystroke_y	y	n/a
452.989	0.0805	905978	keystroke_p	p	n/a
453.213	0.104	906426	keystroke_t	t	n/a
453.7965	0.2	907593	keystroke_i	i	n/a
453.9485	0.112	907897	keystroke_o	o	n/a
454.196	0.096	908392	keystroke_n	n	n/a
454.365	0.135	908730	keystroke_Key.space	Key.space	n/a
454.813	0.1035	909626	keystroke_k	k	n/a
454.949	0.112	909898	keystroke_e	e	n/a
455.061	0.096	910122	keystroke_n	n	n/a
455.5725	0.1205	911145	keystroke_t	t	n/a
455.893	0.0795	911786	keystroke_u	u	n/a
456.277	0.0955	912554	keystroke_c	c	n/a
456.4695	0.127	912939	keystroke_k	k	n/a
456.8205	0.1205	913641	keystroke_y	y	n/a
457.3565	0.1445	914713	keystroke_Key.enter	Key.enter	n/a
457.507	10.4115	915014	prompt	n/a	russian dealers phenomenon wonder\n
458.197	0.152	916394	keystroke_r	r	n/a
458.357	0.064	916714	keystroke_u	u	n/a
458.6365	0.1195	917273	keystroke_s	s	n/a
458.853	0.104	917706	keystroke_s	s	n/a
459.364	0.089	918728	keystroke_i	i	n/a
459.509	0.1355	919018	keystroke_a	a	n/a
459.6205	0.0905	919241	keystroke_n	n	n/a
459.764	0.0965	919528	keystroke_Key.space	Key.space	n/a
459.9325	0.072	919865	keystroke_d	d	n/a
460.1245	0.136	920249	keystroke_e	e	n/a
460.269	0.176	920538	keystroke_a	a	n/a
462.789	0.1195	925578	keystroke_l	l	n/a
462.941	0.2	925882	keystroke_e	e	n/a
463.0685	0.152	926137	keystroke_r	r	n/a
463.3005	0.136	926601	keystroke_s	s	n/a
463.445	0.095	926890	keystroke_Key.space	Key.space	n/a
463.597	0.096	927194	keystroke_p	p	n/a
463.965	0.128	927930	keystroke_h	h	n/a
464.6925	0.136	929385	keystroke_e	e	n/a
464.893	0.0875	929786	keystroke_n	n	n/a
465.101	0.08	930202	keystroke_o	o	n/a
465.725	0.1435	931450	keystroke_m	m	n/a
465.869	0.152	931738	keystroke_e	e	n/a
466.0125	0.104	932025	keystroke_n	n	n/a
466.213	0.0795	932426	keystroke_o	o	n/a
466.3725	0.096	932745	keystroke_n	n	n/a
466.5725	0.12	933145	keystroke_Key.space	Key.space	n/a
466.9725	0.1125	933945	keystroke_w	w	n/a
467.0605	0.096	934121	keystroke_o	o	n/a
467.229	0.12	934458	keystroke_n	n	n/a
467.3245	0.12	934649	keystroke_d	d	n/a
467.5325	0.16	935065	keystroke_e	e	n/a
467.629	0.144	935258	keystroke_r	r	n/a
467.813	0.104	935626	keystroke_Key.enter	Key.enter	n/a
467.923	8.627	935846	prompt	n/a	suse hudson home liable\n
468.909	0.12	937818	keystroke_s	s	n/a
469.06	0.1045	938120	keystroke_u	u	n/a
469.253	0.1675	938506	keystroke_s	s	n/a
469.413	0.176	938826	keystroke_e	e	n/a
469.604	0.088	939208	keystroke_Key.space	Key.space	n/a
469.781	0.1115	939562	keystroke_h	h	n/a
469.9885	0.0965	939977	keystroke_u	u	n/a
470.1415	0.119	940283	keystroke_d	d	n/a
471.197	0.152	942394	keystroke_s	s	n/a
471.421	0.104	942842	keystroke_o	o	n/a
471.7965	0.1045	943593	keystroke_n	n	n/a
472.0045	0.112	944009	keystroke_Key.space	Key.space	n/a
472.3405	0.128	944681	keystroke_h	h	n/a
472.5885	0.096	945177	keystroke_o	o	n/a
472.741	0.127	945482	keystroke_m	m	n/a
472.893	0.128	945786	keystroke_e	e	n/a
473.076	0.152	946152	keystroke_Key.space	Key.space	n/a
473.5565	0.112	947113	keystroke_i	i	n/a
474.5085	0.104	949017	keystroke_Key.backspace	Key.backspace	n/a
474.8285	0.232	949657	keystroke_l	l	n/a
474.9965	0.096	949993	keystroke_i	i	n/a
475.2125	0.12	950425	keystroke_a	a	n/a
475.3335	0.096	950667	keystroke_b	b	n/a
475.6205	0.1835	951241	keystroke_l	l	n/a
476.1885	0.136	952377	keystroke_e	e	n/a
476.4285	0.12	952857	keystroke_Key.enter	Key.enter	n/a
476.5545	8.9555	953109	prompt	n/a	staying avenue cement animation\n
477.397	0.096	954794	keystroke_s	s	n/a
477.589	0.103	955178	keystroke_t	t	n/a
477.708	0.1685	955416	keystroke_a	a	n/a
477.8925	0.1125	955785	keystroke_y	y	n/a
477.981	0.0715	955962	keystroke_i	i	n/a
478.1245	0.0795	956249	keystroke_n	n	n/a
478.237	0.143	956474	keystroke_g	g	n/a
478.3635	0.113	956727	keystroke_Key.space	Key.space	n/a
478.6125	0.1435	957225	keystroke_s	s	n/a
478.877	0.111	957754	keystroke_a	a	n/a
479.428	0.104	958856	keystroke_Key.backspace	Key.backspace	n/a
479.9965	0.096	959993	keystroke_Key.backspace	Key.backspace	n/a
480.157	0.1355	960314	keystroke_a	a	n/a
480.501	0.0955	961002	keystroke_v	v	n/a
481.0205	0.1285	962041	keystroke_e	e	n/a
481.237	0.0715	962474	keystroke_n	n	n/a
481.4685	0.104	962937	keystroke_u	u	n/a
481.581	0.143	963162	keystroke_e	e	n/a
481.716	0.1045	963432	keystroke_Key.space	Key.space	n/a
481.948	0.0965	963896	keystroke_c	c	n/a
482.221	0.127	964442	keystroke_e	e	n/a
482.38	0.088	964760	keystroke_m	m	n/a
482.501	0.1355	965002	keystroke_e	e	n/a
482.637	0.095	965274	keystroke_n	n	n/a
482.7405	0.104	965481	keystroke_t	t	n/a
482.9085	0.104	965817	keystroke_Key.space	Key.space	n/a
483.3565	0.064	966713	keystroke_a	a	n/a
483.6365	0.1125	967273	keystroke_n	n	n/a
483.9405	0.08	967881	keystroke_i	i	n/a
484.428	0.1125	968856	keystroke_m	m	n/a
484.556	0.1285	969112	keystroke_a	a	n/a
484.7	0.12	969400	keystroke_t	t	n/a
484.796	0.176	969592	keystroke_i	i	n/a
484.901	0.12	969802	keystroke_o	o	n/a
485.044	0.1285	970088	keystroke_n	n	n/a
485.404	0.104	970808	keystroke_Key.enter	Key.enter	n/a
485.514	10.348	971028	prompt	n/a	entered sheer holdem heater\n
486.0765	0.12	972153	keystroke_e	e	n/a
486.1885	0.104	972377	keystroke_n	n	n/a
486.4285	0.0965	972857	keystroke_t	t	n/a
486.62	0.152	973240	keystroke_e	e	n/a
486.724	0.184	973448	keystroke_r	r	n/a
486.9	0.0965	973800	keystroke_e	e	n/a
487.093	0.1675	974186	keystroke_d	d	n/a
487.2515	0.137	974503	keystroke_Key.space	Key.space	n/a
487.4035	0.112	974807	keystroke_s	s	n/a
487.5245	0.104	975049	keystroke_h	h	n/a
487.9485	0.072	975897	keystroke_e	e	n/a
488.1085	0.112	976217	keystroke_e	e	n/a
488.7645	0.176	977529	keystroke_r	r	n/a
489.2925	0.128	978585	keystroke_Key.space	Key.space	n/a
489.4845	0.08	978969	keystroke_s	s	n/a
489.6045	0.128	979209	keystroke_h	h	n/a
490.2045	0.0795	980409	keystroke_Key.backspace	Key.backspace	n/a
490.3395	0.08	980679	keystroke_Key.backspace	Key.backspace	n/a
490.6125	0.095	981225	keystroke_h	h	n/a
491.1165	0.088	982233	keystroke_o	o	n/a
491.34	0.0965	982680	keystroke_l	l	n/a
492.228	0.1365	984456	keystroke_d	d	n/a
493.3805	0.104	986761	keystroke_e	e	n/a
493.6365	0.056	987273	keystroke_m	m	n/a
493.7645	0.096	987529	keystroke_Key.space	Key.space	n/a
494.9	0.096	989800	keystroke_h	h	n/a
495.012	0.1605	990024	keystroke_e	e	n/a
495.1245	0.168	990249	keystroke_a	a	n/a
495.3325	0.088	990665	keystroke_t	t	n/a
495.5085	0.144	991017	keystroke_e	e	n/a
495.596	0.1205	991192	keystroke_r	r	n/a
495.7645	0.095	991529	keystroke_Key.enter	Key.enter	n/a
495.8735	9.58	991747	prompt	n/a	bands disclosure neon sunday\n
496.6765	0.088	993353	keystroke_b	b	n/a
496.7645	0.136	993529	keystroke_a	a	n/a
496.9645	0.104	993929	keystroke_n	n	n/a
497.2285	0.144	994457	keystroke_d	d	n/a
497.4445	0.1355	994889	keystroke_s	s	n/a
497.6285	0.111	995257	keystroke_Key.space	Key.space	n/a
498.0285	0.12	996057	keystroke_s	s	n/a
498.1325	0.1035	996265	keystroke_i	i	n/a
498.988	0.0885	997976	keystroke_Key.backspace	Key.backspace	n/a
499.1325	0.0715	998265	keystroke_Key.backspace	Key.backspace	n/a
499.244	0.1045	998488	keystroke_d	d	n/a
499.7885	0.104	999577	keystroke_i	i	n/a
499.9395	0.128	999879	keystroke_s	s	n/a
500.2605	0.04	1000521	keystroke_c	c	n/a
501.0445	0.088	1002089	keystroke_l	l	n/a
501.356	0.0795	1002712	keystroke_o	o	n/a
501.6605	0.12	1003321	keystroke_s	s	n/a
501.8125	0.08	1003625	keystroke_u	u	n/a
501.9725	0.096	1003945	keystroke_r	r	n/a
501.9875	0.193	1003975	keystroke_e	e	n/a
502.1715	0.121	1004343	keystroke_Key.space	Key.space	n/a
502.5165	0.095	1005033	keystroke_n	n	n/a
502.6525	0.104	1005305	keystroke_e	e	n/a
503.1245	0.047	1006249	keystroke_o	o	n/a
503.26	0.096	1006520	keystroke_n	n	n/a
503.828	0.096	1007656	keystroke_Key.space	Key.space	n/a
504.012	0.12	1008024	keystroke_s	s	n/a
504.148	0.096	1008296	keystroke_u	u	n/a
504.332	0.1365	1008664	keystroke_n	n	n/a
504.4685	0.152	1008937	keystroke_d	d	n/a
504.6285	0.111	1009257	keystroke_a	a	n/a
504.7165	0.143	1009433	keystroke_y	y	n/a
505.364	0.088	1010728	keystroke_Key.enter	Key.enter	n/a
505.458	8.579	1010916	prompt	n/a	antibodies films playback grid\n
506.0515	0.096	1012103	keystroke_a	a	n/a
506.2835	0.096	1012567	keystroke_n	n	n/a
506.4835	0.096	1012967	keystroke_t	t	n/a
507.1075	0.0885	1014215	keystroke_i	i	n/a
507.3725	0.096	1014745	keystroke_b	b	n/a
508.0925	0.0955	1016185	keystroke_o	o	n/a
508.332	0.1205	1016664	keystroke_d	d	n/a
508.46	0.0805	1016920	keystroke_i	i	n/a
508.58	0.184	1017160	keystroke_e	e	n/a
508.684	0.168	1017368	keystroke_s	s	n/a
508.812	0.128	1017624	keystroke_Key.space	Key.space	n/a
509.004	0.128	1018008	keystroke_f	f	n/a
509.1	0.232	1018200	keystroke_i	i	n/a
509.284	0.144	1018568	keystroke_l	l	n/a
509.5645	0.1195	1019129	keystroke_m	m	n/a
510.052	0.1285	1020104	keystroke_s	s	n/a
510.212	0.12	1020424	keystroke_Key.space	Key.space	n/a
510.62	0.104	1021240	keystroke_p	p	n/a
510.844	0.088	1021688	keystroke_l	l	n/a
511.0835	0.1445	1022167	keystroke_a	a	n/a
511.484	0.0805	1022968	keystroke_y	y	n/a
511.7085	0.0875	1023417	keystroke_b	b	n/a
511.8205	0.112	1023641	keystroke_a	a	n/a
512.0765	0.088	1024153	keystroke_c	c	n/a
512.1715	0.081	1024343	keystroke_k	k	n/a
512.348	0.112	1024696	keystroke_Key.space	Key.space	n/a
512.884	0.136	1025768	keystroke_g	g	n/a
513.348	0.152	1026696	keystroke_r	r	n/a
513.564	0.096	1027128	keystroke_i	i	n/a
513.692	0.136	1027384	keystroke_d	d	n/a
513.916	0.12	1027832	keystroke_Key.enter	Key.enter	n/a
514.041	5.141	1028082	prompt	n/a	lottery rely fame tide\n
514.7645	0.1035	1029529	keystroke_l	l	n/a
515.164	0.104	1030328	keystroke_o	o	n/a
515.332	0.0405	1030664	keystroke_t	t	n/a
515.46	0.08	1030920	keystroke_t	t	n/a
515.644	0.144	1031288	keystroke_e	e	n/a
515.732	0.104	1031464	keystroke_r	r	n/a
515.932	0.12	1031864	keystroke_y	y	n/a
516.1	0.128	1032200	keystroke_Key.space	Key.space	n/a
516.244	0.144	1032488	keystroke_r	r	n/a
516.324	0.152	1032648	keystroke_e	e	n/a
516.508	0.104	1033016	keystroke_l	l	n/a
516.7875	0.1045	1033575	keystroke_y	y	n/a
516.932	0.12	1033864	keystroke_Key.space	Key.space	n/a
517.1245	0.112	1034249	keystroke_f	f	n/a
517.468	0.072	1034936	keystroke_a	a	n/a
517.596	0.088	1035192	keystroke_m	m	n/a
517.708	0.168	1035416	keystroke_e	e	n/a
517.8675	0.12	1035735	keystroke_Key.space	Key.space	n/a
518.0355	0.0885	1036071	keystroke_t	t	n/a
518.388	0.1035	1036776	keystroke_i	i	n/a
518.5555	0.0965	1037111	keystroke_d	d	n/a
518.7395	0.137	1037479	keystroke_e	e	n/a
519.076	0.104	1038152	keystroke_Key.enter	Key.enter	n/a
519.186	12.7635	1038372	prompt	n/a	flame many sacred advertiser\n
519.9005	0.1435	1039801	keystroke_f	f	n/a
520.068	0.1195	1040136	keystroke_a	a	n/a
521.06	0.1035	1042120	keystroke_Key.backspace	Key.backspace	n/a
522.0195	0.064	1044039	keystroke_;	;	n/a
522.588	0.08	1045176	keystroke_Key.backspace	Key.backspace	n/a
522.804	0.1365	1045608	keystroke_l	l	n/a
523.06	0.128	1046120	keystroke_a	a	n/a
523.172	0.104	1046344	keystroke_m	m	n/a
523.284	0.168	1046568	keystroke_e	e	n/a
523.444	0.12	1046888	keystroke_Key.space	Key.space	n/a
523.996	0.0955	1047992	keystroke_m	m	n/a
524.1075	0.128	1048215	keystroke_a	a	n/a
524.2195	0.056	1048439	keystroke_n	n	n/a
524.4755	0.088	1048951	keystroke_y	y	n/a
524.6355	0.112	1049271	keystroke_Key.space	Key.space	n/a
525.0915	0.12	1050183	keystroke_s	s	n/a
526.004	0.135	1052008	keystroke_c	c	n/a
526.5075	0.088	1053015	keystroke_Key.backspace	Key.backspace	n/a
526.612	0.12	1053224	keystroke_a	a	n/a
526.796	0.144	1053592	keystroke_c	c	n/a
526.948	0.168	1053896	keystroke_r	r	n/a
527.22	0.079	1054440	keystroke_e	e	n/a
527.588	0.16	1055176	keystroke_d	d	n/a
527.819	0.113	1055638	keystroke_Key.space	Key.space	n/a
528.1085	0.087	1056217	keystroke_a	a	n/a
528.3	0.112	1056600	keystroke_d	d	n/a
528.58	0.088	1057160	keystroke_v	v	n/a
528.8115	0.2	1057623	keystroke_e	e	n/a
528.9395	0.152	1057879	keystroke_r	r	n/a
529.3235	0.0965	1058647	keystroke_t	t	n/a
529.651	0.097	1059302	keystroke_i	i	n/a
529.7955	0.168	1059591	keystroke_s	s	n/a
529.9235	0.193	1059847	keystroke_e	e	n/a
530.572	0.12	1061144	keystroke_r	r	n/a
531.836	0.1115	1063672	keystroke_Key.enter	Key.enter	n/a
531.9535	6.54	1063907	prompt	n/a	accepted pair throughout ties\n
532.4755	0.104	1064951	keystroke_a	a	n/a
532.7475	0.0725	1065495	keystroke_c	c	n/a
532.916	0.0885	1065832	keystroke_c	c	n/a
533.1155	0.136	1066231	keystroke_e	e	n/a
533.4765	0.095	1066953	keystroke_p	p	n/a
533.628	0.112	1067256	keystroke_t	t	n/a
533.7795	0.1205	1067559	keystroke_e	e	n/a
533.988	0.1515	1067976	keystroke_d	d	n/a
534.1405	0.1035	1068281	keystroke_Key.space	Key.space	n/a
534.9875	0.1125	1069975	keystroke_p	p	n/a
535.1235	0.1115	1070247	keystroke_a	a	n/a
535.275	0.088	1070550	keystroke_i	i	n/a
535.556	0.1435	1071112	keystroke_r	r	n/a
535.7875	0.096	1071575	keystroke_Key.space	Key.space	n/a
536.059	0.113	1072118	keystroke_t	t	n/a
536.172	0.1035	1072344	keystroke_h	h	n/a
536.4115	0.1365	1072823	keystroke_r	r	n/a
536.5395	0.1925	1073079	keystroke_o	o	n/a
536.676	0.1035	1073352	keystroke_u	u	n/a
536.8195	0.064	1073639	keystroke_g	g	n/a
536.9395	0.112	1073879	keystroke_h	h	n/a
537.1715	0.128	1074343	keystroke_o	o	n/a
537.2515	0.1125	1074503	keystroke_u	u	n/a
537.356	0.12	1074712	keystroke_t	t	n/a
537.507	0.1205	1075014	keystroke_Key.space	Key.space	n/a
537.6675	0.12	1075335	keystroke_t	t	n/a
537.7475	0.144	1075495	keystroke_i	i	n/a
537.916	0.176	1075832	keystroke_e	e	n/a
538.052	0.1435	1076104	keystroke_s	s	n/a
538.3875	0.1045	1076775	keystroke_Key.enter	Key.enter	n/a
538.4975	9.0515	1076995	prompt	n/a	traveling numeric goal education\n
539.132	0.1195	1078264	keystroke_t	t	n/a
539.2915	0.112	1078583	keystroke_r	r	n/a
539.412	0.1115	1078824	keystroke_a	a	n/a
539.62	0.128	1079240	keystroke_v	v	n/a
539.8275	0.1285	1079655	keystroke_e	e	n/a
540.012	0.208	1080024	keystroke_l	l	n/a
540.164	0.103	1080328	keystroke_i	i	n/a
540.332	0.103	1080664	keystroke_n	n	n/a
540.42	0.104	1080840	keystroke_g	g	n/a
540.4995	0.1515	1080999	keystroke_Key.space	Key.space	n/a
540.764	0.216	1081528	keystroke_n	n	n/a
540.916	0.12	1081832	keystroke_u	u	n/a
541.236	0.159	1082472	keystroke_m	m	n/a
541.8355	0.2	1083671	keystroke_e	e	n/a
541.9555	0.088	1083911	keystroke_r	r	n/a
542.0595	0.0645	1084119	keystroke_i	i	n/a
542.2275	0.144	1084455	keystroke_c	c	n/a
542.4115	0.104	1084823	keystroke_Key.space	Key.space	n/a
542.7075	0.0725	1085415	keystroke_o	o	n/a
543.124	0.087	1086248	keystroke_Key.backspace	Key.backspace	n/a
543.235	0.081	1086470	keystroke_g	g	n/a
543.732	0.096	1087464	keystroke_o	o	n/a
544.0115	0.048	1088023	keystroke_d	d	n/a
544.556	0.1035	1089112	keystroke_Key.backspace	Key.backspace	n/a
544.724	0.1275	1089448	keystroke_a	a	n/a
545.164	0.0795	1090328	keystroke_l	l	n/a
545.4595	0.112	1090919	keystroke_Key.space	Key.space	n/a
545.716	0.1035	1091432	keystroke_e	e	n/a
546.0115	0.1285	1092023	keystroke_d	d	n/a
546.348	0.056	1092696	keystroke_u	u	n/a
546.572	0.144	1093144	keystroke_c	c	n/a
546.708	0.176	1093416	keystroke_a	a	n/a
546.868	0.1515	1093736	keystroke_t	t	n/a
546.9475	0.208	1093895	keystroke_i	i	n/a
547.0595	0.12	1094119	keystroke_o	o	n/a
547.2275	0.136	1094455	keystroke_n	n	n/a
547.4355	0.1115	1094871	keystroke_Key.enter	Key.enter	n/a
547.554	6.283	1095108	prompt	n/a	race sender logistics meter\n
548.2835	0.152	1096567	keystroke_r	r	n/a
548.4435	0.144	1096887	keystroke_a	a	n/a
548.6355	0.1925	1097271	keystroke_c	c	n/a
548.7635	0.1685	1097527	keystroke_e	e	n/a
548.947	0.136	1097894	keystroke_Key.space	Key.space	n/a
549.252	0.096	1098504	keystroke_e	e	n/a
549.612	0.0715	1099224	keystroke_Key.backspace	Key.backspace	n/a
549.764	0.0875	1099528	keystroke_s	s	n/a
550.1395	0.104	1100279	keystroke_e	e	n/a
550.26	0.088	1100520	keystroke_n	n	n/a
550.4275	0.0805	1100855	keystroke_d	d	n/a
550.612	0.1355	1101224	keystroke_e	e	n/a
550.716	0.1195	1101432	keystroke_r	r	n/a
550.827	0.0725	1101654	keystroke_Key.space	Key.space	n/a
550.9715	0.088	1101943	keystroke_l	l	n/a
551.1465	0.073	1102293	keystroke_o	o	n/a
551.2835	0.08	1102567	keystroke_g	g	n/a
551.452	0.0635	1102904	keystroke_i	i	n/a
551.579	0.088	1103158	keystroke_s	s	n/a
551.739	0.1045	1103478	keystroke_t	t	n/a
551.9475	0.0715	1103895	keystroke_i	i	n/a
552.0835	0.1045	1104167	keystroke_c	c	n/a
552.2995	0.1355	1104599	keystroke_s	s	n/a
552.539	0.0885	1105078	keystroke_Key.space	Key.space	n/a
552.8515	0.1035	1105703	keystroke_m	m	n/a
552.924	0.128	1105848	keystroke_e	e	n/a
553.0755	0.128	1106151	keystroke_t	t	n/a
553.2115	0.1435	1106423	keystroke_e	e	n/a
553.356	0.1435	1106712	keystroke_r	r	n/a
553.7385	0.096	1107477	keystroke_Key.enter	Key.enter	n/a
553.8395	12.6375	1107679	prompt	n/a	remedies dimensions professional bluetooth\n
554.58	0.1035	1109160	keystroke_e	e	n/a
554.771	0.104	1109542	keystroke_m	m	n/a
555.683	0.088	1111366	keystroke_Key.backspace	Key.backspace	n/a
555.827	0.08	1111654	keystroke_Key.backspace	Key.backspace	n/a
555.947	0.16	1111894	keystroke_r	r	n/a
556.051	0.128	1112102	keystroke_e	e	n/a
556.195	0.096	1112390	keystroke_m	m	n/a
556.3555	0.1595	1112711	keystroke_e	e	n/a
557.115	0.12	1114230	keystroke_d	d	n/a
557.8035	0.1125	1115607	keystroke_i	i	n/a
557.9315	0.208	1115863	keystroke_e	e	n/a
558.0595	0.176	1116119	keystroke_s	s	n/a
558.2515	0.08	1116503	keystroke_Key.space	Key.space	n/a
558.4515	0.136	1116903	keystroke_d	d	n/a
558.6915	0.088	1117383	keystroke_i	i	n/a
558.8835	0.096	1117767	keystroke_m	m	n/a
558.9635	0.136	1117927	keystroke_e	e	n/a
559.1075	0.064	1118215	keystroke_n	n	n/a
559.2595	0.12	1118519	keystroke_s	s	n/a
559.3235	0.168	1118647	keystroke_i	i	n/a
559.4355	0.112	1118871	keystroke_o	o	n/a
559.5795	0.0875	1119159	keystroke_n	n	n/a
559.7395	0.144	1119479	keystroke_s	s	n/a
559.8915	0.0715	1119783	keystroke_Key.space	Key.space	n/a
560.1315	0.0875	1120263	keystroke_p	p	n/a
560.2515	0.136	1120503	keystroke_r	r	n/a
560.363	0.08	1120726	keystroke_o	o	n/a
560.5555	0.144	1121111	keystroke_f	f	n/a
560.7705	0.129	1121541	keystroke_e	e	n/a
560.9865	0.249	1121973	keystroke_s	s	n/a
561.4435	0.0965	1122887	keystroke_s	s	n/a
561.6515	0.192	1123303	keystroke_i	i	n/a
561.7625	0.1285	1123525	keystroke_o	o	n/a
561.9635	0.088	1123927	keystroke_n	n	n/a
562.2035	0.128	1124407	keystroke_a	a	n/a
562.4035	0.112	1124807	keystroke_l	l	n/a
562.803	0.112	1125606	keystroke_Key.space	Key.space	n/a
563.891	0.096	1127782	keystroke_b	b	n/a
564.147	0.0965	1128294	keystroke_l	l	n/a
564.419	0.08	1128838	keystroke_u	u	n/a
564.5395	0.1595	1129079	keystroke_e	e	n/a
565.3475	0.0795	1130695	keystroke_t	t	n/a
565.6515	0.048	1131303	keystroke_o	o	n/a
565.7875	0.072	1131575	keystroke_o	o	n/a
565.963	0.0965	1131926	keystroke_t	t	n/a
566.1075	0.112	1132215	keystroke_h	h	n/a
566.363	0.112	1132726	keystroke_Key.enter	Key.enter	n/a
566.481	14.2755	1132962	prompt	n/a	chemistry buyers powerseller florists\n
567.115	0.088	1134230	keystroke_c	c	n/a
567.227	0.104	1134454	keystroke_h	h	n/a
567.339	0.144	1134678	keystroke_e	e	n/a
567.4675	0.104	1134935	keystroke_m	m	n/a
567.651	0.088	1135302	keystroke_i	i	n/a
568.2115	0.1275	1136423	keystroke_s	s	n/a
568.499	0.096	1136998	keystroke_t	t	n/a
568.779	0.1445	1137558	keystroke_r	r	n/a
568.9395	0.096	1137879	keystroke_y	y	n/a
569.147	0.112	1138294	keystroke_Key.space	Key.space	n/a
569.4595	0.104	1138919	keystroke_b	b	n/a
569.619	0.1045	1139238	keystroke_u	u	n/a
569.8515	0.0955	1139703	keystroke_y	y	n/a
570.323	0.1845	1140646	keystroke_e	e	n/a
570.435	0.1685	1140870	keystroke_r	r	n/a
570.691	0.1595	1141382	keystroke_s	s	n/a
570.827	0.088	1141654	keystroke_Key.space	Key.space	n/a
570.9395	0.079	1141879	keystroke_o	o	n/a
571.4355	0.088	1142871	keystroke_Key.backspace	Key.backspace	n/a
572.427	0.08	1144854	keystroke_p	p	n/a
572.611	0.0725	1145222	keystroke_o	o	n/a
572.755	0.12	1145510	keystroke_w	w	n/a
572.851	0.168	1145702	keystroke_e	e	n/a
572.9795	0.1355	1145959	keystroke_r	r	n/a
573.563	0.1685	1147126	keystroke_s	s	n/a
573.7235	0.152	1147447	keystroke_e	e	n/a
573.8835	0.0795	1147767	keystroke_l	l	n/a
574.0265	0.089	1148053	keystroke_l	l	n/a
574.1065	0.153	1148213	keystroke_e	e	n/a
574.203	0.176	1148406	keystroke_r	r	n/a
574.4195	0.1435	1148839	keystroke_Key.space	Key.space	n/a
574.683	0.1285	1149366	keystroke_f	f	n/a
574.788	0.0875	1149576	keystroke_l	l	n/a
575.003	0.0965	1150006	keystroke_o	o	n/a
579.4115	0.151	1158823	keystroke_r	r	n/a
579.6105	0.0725	1159221	keystroke_i	i	n/a
579.747	0.2	1159494	keystroke_s	s	n/a
579.899	0.152	1159798	keystroke_t	t	n/a
580.379	0.112	1160758	keystroke_s	s	n/a
580.675	0.08	1161350	keystroke_Key.enter	Key.enter	n/a
580.7605	11.628	1161521	prompt	n/a	wilson attacks montana planners\n
581.3795	0.104	1162759	keystroke_s	s	n/a
581.7545	0.112	1163509	keystroke_Key.backspace	Key.backspace	n/a
582.0265	0.113	1164053	keystroke_w	w	n/a
582.2345	0.16	1164469	keystroke_i	i	n/a
582.3625	0.136	1164725	keystroke_l	l	n/a
582.547	0.128	1165094	keystroke_s	s	n/a
582.6345	0.08	1165269	keystroke_o	o	n/a
582.7875	0.087	1165575	keystroke_n	n	n/a
582.9465	0.1125	1165893	keystroke_Key.space	Key.space	n/a
583.3065	0.1445	1166613	keystroke_a	a	n/a
583.7395	0.055	1167479	keystroke_t	t	n/a
583.8985	0.081	1167797	keystroke_t	t	n/a
585.0115	0.1275	1170023	keystroke_a	a	n/a
585.275	0.104	1170550	keystroke_c	c	n/a
585.443	0.24	1170886	keystroke_k	k	n/a
585.8835	0.1435	1171767	keystroke_s	s	n/a
586.091	0.0875	1172182	keystroke_Key.space	Key.space	n/a
586.3315	0.12	1172663	keystroke_m	m	n/a
586.4515	0.08	1172903	keystroke_o	o	n/a
586.659	0.072	1173318	keystroke_n	n	n/a
586.851	0.096	1173702	keystroke_t	t	n/a
587.1475	0.0955	1174295	keystroke_a	a	n/a
587.259	0.088	1174518	keystroke_n	n	n/a
587.379	0.136	1174758	keystroke_a	a	n/a
587.651	0.088	1175302	keystroke_Key.space	Key.space	n/a
590.531	0.0795	1181062	keystroke_p	p	n/a
590.7635	0.063	1181527	keystroke_l	l	n/a
590.9715	0.103	1181943	keystroke_a	a	n/a
591.5395	0.071	1183079	keystroke_n	n	n/a
591.6745	0.104	1183349	keystroke_n	n	n/a
591.787	0.208	1183574	keystroke_e	e	n/a
591.939	0.12	1183878	keystroke_r	r	n/a
592.099	0.128	1184198	keystroke_s	s	n/a
592.275	0.112	1184550	keystroke_Key.enter	Key.enter	n/a
592.392	10.516	1184784	prompt	n/a	telling warriors bureau trim\n
593.067	0.112	1186134	keystroke_t	t	n/a
593.243	0.096	1186486	keystroke_e	e	n/a
593.379	0.0885	1186758	keystroke_l	l	n/a
593.5395	0.087	1187079	keystroke_l	l	n/a
593.7545	0.089	1187509	keystroke_i	i	n/a
593.8745	0.1125	1187749	keystroke_n	n	n/a
594.003	0.0795	1188006	keystroke_g	g	n/a
594.0585	0.104	1188117	keystroke_Key.space	Key.space	n/a
594.2345	0.12	1188469	keystroke_w	w	n/a
594.5875	0.1275	1189175	keystroke_w	w	n/a
595.1065	0.104	1190213	keystroke_Key.backspace	Key.backspace	n/a
595.2825	0.072	1190565	keystroke_a	a	n/a
595.4985	0.104	1190997	keystroke_r	r	n/a
595.7065	0.1125	1191413	keystroke_r	r	n/a
595.907	0.184	1191814	keystroke_i	i	n/a
596.059	0.159	1192118	keystroke_o	o	n/a
596.371	0.152	1192742	keystroke_s	s	n/a
597.0825	0.128	1194165	keystroke_Key.space	Key.space	n/a
599.49	0.129	1198980	keystroke_b	b	n/a
599.706	0.1045	1199412	keystroke_u	u	n/a
600.251	0.12	1200502	keystroke_r	r	n/a
600.587	0.136	1201174	keystroke_e	e	n/a
600.699	0.184	1201398	keystroke_a	a	n/a
601.059	0.048	1202118	keystroke_u	u	n/a
601.8425	0.12	1203685	keystroke_Key.space	Key.space	n/a
602.0425	0.0725	1204085	keystroke_t	t	n/a
602.3225	0.128	1204645	keystroke_r	r	n/a
602.4505	0.072	1204901	keystroke_i	i	n/a
602.6025	0.1045	1205205	keystroke_m	m	n/a
602.7865	0.12	1205573	keystroke_Key.enter	Key.enter	n/a
602.9105	6.7575	1205821	prompt	n/a	nickel flex telling carriers\n
603.5065	0.1525	1207013	keystroke_n	n	n/a
603.6265	0.12	1207253	keystroke_i	i	n/a
603.8105	0.096	1207621	keystroke_c	c	n/a
604.003	0.088	1208006	keystroke_k	k	n/a
604.187	0.127	1208374	keystroke_e	e	n/a
604.33	0.081	1208660	keystroke_l	l	n/a
604.466	0.104	1208932	keystroke_Key.space	Key.space	n/a
604.65	0.104	1209300	keystroke_f	f	n/a
604.7465	0.104	1209493	keystroke_l	l	n/a
604.906	0.121	1209812	keystroke_w	w	n/a
605.411	0.1035	1210822	keystroke_Key.backspace	Key.backspace	n/a
605.563	0.1355	1211126	keystroke_e	e	n/a
605.7145	0.144	1211429	keystroke_w	w	n/a
606.2185	0.0965	1212437	keystroke_Key.backspace	Key.backspace	n/a
606.3545	0.152	1212709	keystroke_x	x	n/a
606.5545	0.136	1213109	keystroke_Key.space	Key.space	n/a
606.731	0.0955	1213462	keystroke_t	t	n/a
606.891	0.136	1213782	keystroke_e	e	n/a
607.571	0.064	1215142	keystroke_l	l	n/a
607.707	0.088	1215414	keystroke_l	l	n/a
607.931	0.056	1215862	keystroke_i	i	n/a
608.035	0.104	1216070	keystroke_n	n	n/a
608.163	0.087	1216326	keystroke_g	g	n/a
608.226	0.104	1216452	keystroke_Key.space	Key.space	n/a
608.4265	0.1275	1216853	keystroke_c	c	n/a
608.546	0.137	1217092	keystroke_a	a	n/a
608.7625	0.0955	1217525	keystroke_r	r	n/a
608.89	0.12	1217780	keystroke_r	r	n/a
609.027	0.087	1218054	keystroke_i	i	n/a
609.187	0.1595	1218374	keystroke_e	e	n/a
609.274	0.1205	1218548	keystroke_r	r	n/a
609.443	0.12	1218886	keystroke_s	s	n/a
609.6105	0.056	1219221	keystroke_Key.enter	Key.enter	n/a
609.671	7.4135	1219342	prompt	n/a	precisely hints think mats\n
610.2665	0.0885	1220533	keystroke_p	p	n/a
610.394	0.112	1220788	keystroke_r	r	n/a
610.674	0.1125	1221348	keystroke_e	e	n/a
611.0185	0.096	1222037	keystroke_c	c	n/a
611.1545	0.072	1222309	keystroke_i	i	n/a
611.3305	0.144	1222661	keystroke_s	s	n/a
611.507	0.1355	1223014	keystroke_e	e	n/a
611.6985	0.08	1223397	keystroke_l	l	n/a
612.0185	0.0805	1224037	keystroke_y	y	n/a
612.1865	0.1045	1224373	keystroke_Key.space	Key.space	n/a
612.443	0.1995	1224886	keystroke_h	h	n/a
612.571	0.1195	1225142	keystroke_i	i	n/a
612.7065	0.1045	1225413	keystroke_t	t	n/a
613.2425	0.072	1226485	keystroke_Key.backspace	Key.backspace	n/a
613.4585	0.096	1226917	keystroke_n	n	n/a
613.571	0.0795	1227142	keystroke_t	t	n/a
613.8025	0.1435	1227605	keystroke_s	s	n/a
613.954	0.08	1227908	keystroke_Key.space	Key.space	n/a
614.522	0.104	1229044	keystroke_t	t	n/a
614.667	0.191	1229334	keystroke_h	h	n/a
614.794	0.1445	1229588	keystroke_i	i	n/a
614.954	0.1685	1229908	keystroke_n	n	n/a
615.075	0.1035	1230150	keystroke_k	k	n/a
615.2655	0.097	1230531	keystroke_i	i	n/a
615.9705	0.096	1231941	keystroke_Key.backspace	Key.backspace	n/a
616.1305	0.12	1232261	keystroke_Key.space	Key.space	n/a
616.37	0.1285	1232740	keystroke_m	m	n/a
616.491	0.143	1232982	keystroke_a	a	n/a
616.642	0.112	1233284	keystroke_t	t	n/a
616.8265	0.1195	1233653	keystroke_s	s	n/a
617.018	0.0645	1234036	keystroke_Key.enter	Key.enter	n/a
617.0895	10.3705	1234179	prompt	n/a	excuse structured rouge maple\n
617.6345	0.112	1235269	keystroke_e	e	n/a
617.89	0.0965	1235780	keystroke_x	x	n/a
618.45	0.072	1236900	keystroke_c	c	n/a
618.5545	0.0725	1237109	keystroke_u	u	n/a
618.7705	0.208	1237541	keystroke_s	s	n/a
618.946	0.192	1237892	keystroke_e	e	n/a
619.306	0.1285	1238612	keystroke_Key.space	Key.space	n/a
619.6985	0.088	1239397	keystroke_t	t	n/a
620.0345	0.096	1240069	keystroke_Key.backspace	Key.backspace	n/a
620.1385	0.12	1240277	keystroke_s	s	n/a
620.307	0.1195	1240614	keystroke_t	t	n/a
620.499	0.1035	1240998	keystroke_r	r	n/a
620.7545	0.0795	1241509	keystroke_u	u	n/a
620.9225	0.0715	1241845	keystroke_c	c	n/a
621.146	0.104	1242292	keystroke_t	t	n/a
621.3465	0.0715	1242693	keystroke_u	u	n/a
621.4265	0.1845	1242853	keystroke_r	r	n/a
621.538	0.145	1243076	keystroke_e	e	n/a
621.755	0.103	1243510	keystroke_e	e	n/a
621.963	0.1115	1243926	keystroke_d	d	n/a
622.298	0.0805	1244596	keystroke_Key.space	Key.space	n/a
622.754	0.072	1245508	keystroke_Key.backspace	Key.backspace	n/a
622.906	0.08	1245812	keystroke_Key.backspace	Key.backspace	n/a
623.2105	0.104	1246421	keystroke_Key.backspace	Key.backspace	n/a
623.443	0.152	1246886	keystroke_d	d	n/a
623.6425	0.1205	1247285	keystroke_Key.space	Key.space	n/a
623.8825	0.128	1247765	keystroke_r	r	n/a
623.9615	0.193	1247923	keystroke_o	o	n/a
624.107	0.0875	1248214	keystroke_u	u	n/a
624.2905	0.12	1248581	keystroke_n	n	n/a
624.6905	0.104	1249381	keystroke_Key.backspace	Key.backspace	n/a
624.8655	0.113	1249731	keystroke_g	g	n/a
625.0105	0.144	1250021	keystroke_e	e	n/a
625.1625	0.087	1250325	keystroke_Key.space	Key.space	n/a
625.4745	0.08	1250949	keystroke_m	m	n/a
625.6025	0.1035	1251205	keystroke_a	a	n/a
626.3385	0.088	1252677	keystroke_p	p	n/a
626.5065	0.072	1253013	keystroke_l	l	n/a
626.603	0.1515	1253206	keystroke_e	e	n/a
626.778	0.048	1253556	keystroke_Key.space	Key.space	n/a
627.3785	0.08	1254757	keystroke_Key.enter	Key.enter	n/a
627.464	11.068	1254928	prompt	n/a	lawyers effectiveness down rico\n
628.0825	0.1445	1256165	keystroke_l	l	n/a
628.2585	0.136	1256517	keystroke_a	a	n/a
629.4905	0.1195	1258981	keystroke_w	w	n/a
630.0985	0.08	1260197	keystroke_y	y	n/a
630.2265	0.12	1260453	keystroke_e	e	n/a
630.2905	0.104	1260581	keystroke_r	r	n/a
630.474	0.144	1260948	keystroke_s	s	n/a
630.65	0.088	1261300	keystroke_Key.space	Key.space	n/a
631.2025	0.1115	1262405	keystroke_e	e	n/a
631.45	0.0885	1262900	keystroke_f	f	n/a
631.6265	0.1035	1263253	keystroke_f	f	n/a
631.7465	0.112	1263493	keystroke_e	e	n/a
632.0425	0.08	1264085	keystroke_c	c	n/a
632.474	0.12	1264948	keystroke_t	t	n/a
632.738	0.072	1265476	keystroke_i	i	n/a
632.851	0.135	1265702	keystroke_v	v	n/a
633.2025	0.0875	1266405	keystroke_e	e	n/a
633.6105	0.0955	1267221	keystroke_n	n	n/a
633.786	0.1125	1267572	keystroke_e	e	n/a
634.0495	0.089	1268099	keystroke_s	s	n/a
634.2185	0.128	1268437	keystroke_s	s	n/a
634.7065	0.064	1269413	keystroke_d	d	n/a
635.018	0.0965	1270036	keystroke_Key.backspace	Key.backspace	n/a
635.1855	0.104	1270371	keystroke_Key.space	Key.space	n/a
635.3705	0.087	1270741	keystroke_d	d	n/a
635.762	0.088	1271524	keystroke_o	o	n/a
636.202	0.1205	1272404	keystroke_w	w	n/a
636.8265	0.112	1273653	keystroke_n	n	n/a
637.2665	0.128	1274533	keystroke_Key.space	Key.space	n/a
637.6185	0.096	1275237	keystroke_r	r	n/a
637.7865	0.096	1275573	keystroke_i	i	n/a
638.0745	0.088	1276149	keystroke_c	c	n/a
638.2025	0.079	1276405	keystroke_o	o	n/a
638.4415	0.0885	1276883	keystroke_Key.enter	Key.enter	n/a
