onset	duration	sample	value	key	prompt_text
2.39	13.604	4780	prompt	n/a	the quick brown fox jumps over a lazy dog\n
4.752	0.1425	9504	keystroke_t	t	n/a
4.863	0.1995	9726	keystroke_h	h	n/a
5.0145	0.2085	10029	keystroke_e	e	n/a
5.183	0.168	10366	keystroke_Key.space	Key.space	n/a
5.415	0.152	10830	keystroke_q	q	n/a
5.591	0.144	11182	keystroke_u	u	n/a
5.695	0.128	11390	keystroke_i	i	n/a
5.935	0.112	11870	keystroke_k	k	n/a
6.279	0.112	12558	keystroke_Key.backspace	Key.backspace	n/a
6.591	0.088	13182	keystroke_c	c	n/a
6.952	0.136	13904	keystroke_j	j	n/a
7.136	0.16	14272	keystroke_Key.space	Key.space	n/a
7.744	0.112	15488	keystroke_=	=	n/a
7.952	0.112	15904	keystroke_=	=	n/a
9.064	0.072	18128	keystroke_Key.backspace	Key.backspace	n/a
9.248	0.072	18496	keystroke_Key.backspace	Key.backspace	n/a
9.416	0.079	18832	keystroke_Key.backspace	Key.backspace	n/a
9.727	0.024	19454	keystroke_Key.backspace	Key.backspace	n/a
10.407	0.1125	20814	keystroke_k	k	n/a
10.5435	0.088	21087	keystroke_Key.space	Key.space	n/a
10.6955	0.112	21391	keystroke_b	b	n/a
10.8155	0.0885	21631	keystroke_r	r	n/a
10.96	0.0875	21920	keystroke_o	o	n/a
11.0715	0.08	22143	keystroke_w	w	n/a
11.184	0.104	22368	keystroke_n	n	n/a
11.312	0.136	22624	keystroke_Key.space	Key.space	n/a
11.408	0.096	22816	keystroke_f	f	n/a
11.56	0.104	23120	keystroke_o	o	n/a
11.68	0.104	23360	keystroke_x	x	n/a
11.864	0.112	23728	keystroke_Key.space	Key.space	n/a
11.984	0.072	23968	keystroke_j	j	n/a
12.16	0.096	24320	keystroke_u	u	n/a
12.384	0.128	24768	keystroke_m	m	n/a
12.576	0.152	25152	keystroke_p	p	n/a
12.92	0.152	25840	keystroke_s	s	n/a
13.04	0.104	26080	keystroke_Key.space	Key.space	n/a
13.168	0.16	26336	keystroke_o	o	n/a
13.288	0.08	26576	keystroke_v	v	n/a
13.504	0.168	27008	keystroke_e	e	n/a
13.6	0.128	27200	keystroke_r	r	n/a
13.664	0.144	27328	keystroke_Key.space	Key.space	n/a
13.76	0.128	27520	keystroke_a	a	n/a
13.896	0.12	27792	keystroke_Key.space	Key.space	n/a
14.152	0.128	28304	keystroke_l	l	n/a
14.288	0.088	28576	keystroke_a	a	n/a
14.512	0.08	29024	keystroke_z	z	n/a
14.6955	0.1125	29391	keystroke_y	y	n/a
14.904	0.151	29808	keystroke_Key.space	Key.space	n/a
15.032	0.088	30064	keystroke_d	d	n/a
15.16	0.12	30320	keystroke_o	o	n/a
15.328	0.072	30656	keystroke_g	g	n/a
15.864	0.127	31728	keystroke_Key.enter	Key.enter	n/a
15.9985	10.251	31997	prompt	n/a	snowboard housewares touched mercury\n
16.783	0.112	33566	keystroke_s	s	n/a
16.919	0.128	33838	keystroke_n	n	n/a
17.104	0.135	34208	keystroke_o	o	n/a
17.199	0.088	34398	keystroke_w	w	n/a
17.536	0.095	35072	keystroke_b	b	n/a
17.736	0.135	35472	keystroke_o	o	n/a
17.863	0.168	35726	keystroke_a	a	n/a
17.991	0.12	35982	keystroke_r	r	n/a
18.143	0.152	36286	keystroke_d	d	n/a
18.279	0.112	36558	keystroke_Key.space	Key.space	n/a
18.56	0.127	37120	keystroke_h	h	n/a
18.727	0.208	37454	keystroke_o	o	n/a
18.863	0.145	37726	keystroke_u	u	n/a
18.983	0.152	37966	keystroke_s	s	n/a
19.071	0.08	38142	keystroke_e	e	n/a
19.287	0.089	38574	keystroke_w	w	n/a
19.391	0.2	38782	keystroke_a	a	n/a
19.551	0.168	39102	keystroke_r	r	n/a
19.647	0.184	39294	keystroke_e	e	n/a
19.775	0.144	39550	keystroke_s	s	n/a
19.903	0.096	39806	keystroke_Key.space	Key.space	n/a
20.127	0.096	40254	keystroke_t	t	n/a
20.215	0.16	40430	keystroke_o	o	n/a
20.343	0.112	40686	keystroke_u	u	n/a
20.471	0.08	40942	keystroke_c	c	n/a
20.583	0.113	41166	keystroke_h	h	n/a
20.679	0.056	41358	keystroke_e	e	n/a
20.815	0.104	41630	keystroke_d	d	n/a
20.92	0.111	41840	keystroke_Key.space	Key.space	n/a
21.047	0.128	42094	keystroke_m	m	n/a
21.159	0.184	42318	keystroke_e	e	n/a
21.271	0.088	42542	keystroke_r	r	n/a
21.511	0.096	43022	keystroke_c	c	n/a
21.959	0.12	43918	keystroke_u	u	n/a
22.271	0.096	44542	keystroke_r	r	n/a
22.431	0.113	44862	keystroke_y	y	n/a
22.655	0.104	45310	keystroke_'	'	n/a
24.727	0.096	49454	keystroke_Key.backspace	Key.backspace	n/a
26.0875	0.16	52175	keystroke_Key.enter	Key.enter	n/a
26.2525	14.4685	52505	prompt	n/a	reno political wiring their\n
35.079	0.168	70158	keystroke_r	r	n/a
35.207	0.144	70414	keystroke_e	e	n/a
35.975	0.104	71950	keystroke_n	n	n/a
36.175	0.136	72350	keystroke_o	o	n/a
36.335	0.128	72670	keystroke_Key.space	Key.space	n/a
36.991	0.112	73982	keystroke_p	p	n/a
37.183	0.104	74366	keystroke_o	o	n/a
37.375	0.112	74750	keystroke_l	l	n/a
37.535	0.08	75070	keystroke_i	i	n/a
37.639	0.08	75278	keystroke_t	t	n/a
37.735	0.096	75470	keystroke_i	i	n/a
37.847	0.128	75694	keystroke_c	c	n/a
37.967	0.128	75934	keystroke_a	a	n/a
38.071	0.104	76142	keystroke_l	l	n/a
38.151	0.152	76302	keystroke_Key.space	Key.space	n/a
38.271	0.112	76542	keystroke_w	w	n/a
38.479	0.08	76958	keystroke_i	i	n/a
38.575	0.08	77150	keystroke_r	r	n/a
38.703	0.072	77406	keystroke_i	i	n/a
39.159	0.112	78318	keystroke_n	n	n/a
39.247	0.1365	78494	keystroke_g	g	n/a
39.3755	0.096	78751	keystroke_Key.space	Key.space	n/a
39.5195	0.0795	79039	keystroke_t	t	n/a
39.616	0.104	79232	keystroke_h	h	n/a
39.703	0.088	79406	keystroke_e	e	n/a
39.84	0.096	79680	keystroke_i	i	n/a
39.951	0.064	79902	keystroke_r	r	n/a
40.623	0.096	81246	keystroke_Key.enter	Key.enter	n/a
40.725	6.228	81450	prompt	n/a	sunny largely scholars boards\n
41.328	0.112	82656	keystroke_s	s	n/a
41.471	0.097	82942	keystroke_u	u	n/a
41.703	0.065	83406	keystroke_n	n	n/a
41.815	0.104	83630	keystroke_n	n	n/a
42.071	0.12	84142	keystroke_y	y	n/a
42.223	0.144	84446	keystroke_Key.space	Key.space	n/a
42.359	0.144	84718	keystroke_l	l	n/a
42.455	0.16	84910	keystroke_a	a	n/a
42.583	0.08	85166	keystroke_r	r	n/a
42.759	0.064	85518	keystroke_g	g	n/a
43.119	0.065	86238	keystroke_e	e	n/a
43.271	0.104	86542	keystroke_l	l	n/a
43.479	0.12	86958	keystroke_y	y	n/a
43.551	0.136	87102	keystroke_Key.space	Key.space	n/a
43.751	0.097	87502	keystroke_s	s	n/a
44.039	0.08	88078	keystroke_c	c	n/a
44.207	0.096	88414	keystroke_h	h	n/a
44.399	0.08	88798	keystroke_o	o	n/a
44.567	0.12	89134	keystroke_l	l	n/a
45.1275	0.112	90255	keystroke_a	a	n/a
45.3435	0.088	90687	keystroke_r	r	n/a
45.5275	0.144	91055	keystroke_s	s	n/a
45.6475	0.128	91295	keystroke_Key.space	Key.space	n/a
45.8315	0.104	91663	keystroke_b	b	n/a
46.0555	0.12	92111	keystroke_o	o	n/a
46.1275	0.16	92255	keystroke_a	a	n/a
46.2635	0.104	92527	keystroke_r	r	n/a
46.415	0.112	92830	keystroke_d	d	n/a
46.639	0.072	93278	keystroke_s	s	n/a
46.831	0.12	93662	keystroke_Key.enter	Key.enter	n/a
46.956	6.709	93912	prompt	n/a	necklace violent hash came\n
47.831	0.112	95662	keystroke_n	n	n/a
47.927	0.08	95854	keystroke_e	e	n/a
48.095	0.08	96190	keystroke_c	c	n/a
48.479	0.088	96958	keystroke_k	k	n/a
48.687	0.144	97374	keystroke_l	l	n/a
48.799	0.136	97598	keystroke_a	a	n/a
48.943	0.088	97886	keystroke_c	c	n/a
49.119	0.12	98238	keystroke_e	e	n/a
49.207	0.128	98414	keystroke_Key.space	Key.space	n/a
49.359	0.12	98718	keystroke_b	b	n/a
49.935	0.112	99870	keystroke_Key.backspace	Key.backspace	n/a
50.167	0.08	100334	keystroke_v	v	n/a
51.071	0.072	102142	keystroke_i	i	n/a
51.239	0.096	102478	keystroke_o	o	n/a
51.439	0.136	102878	keystroke_l	l	n/a
51.559	0.096	103118	keystroke_e	e	n/a
51.695	0.12	103390	keystroke_n	n	n/a
51.8235	0.1115	103647	keystroke_t	t	n/a
51.911	0.12	103822	keystroke_Key.space	Key.space	n/a
52.055	0.152	104110	keystroke_h	h	n/a
52.175	0.168	104350	keystroke_a	a	n/a
52.327	0.12	104654	keystroke_s	s	n/a
52.599	0.112	105198	keystroke_h	h	n/a
52.863	0.112	105726	keystroke_Key.space	Key.space	n/a
53.071	0.096	106142	keystroke_c	c	n/a
53.167	0.12	106334	keystroke_a	a	n/a
53.295	0.112	106590	keystroke_m	m	n/a
53.423	0.048	106846	keystroke_e	e	n/a
53.535	0.128	107070	keystroke_Key.enter	Key.enter	n/a
53.673	7.832	107346	prompt	n/a	door personalized ronald divine\n
54.327	0.0885	108654	keystroke_d	d	n/a
54.535	0.064	109070	keystroke_o	o	n/a
54.655	0.088	109310	keystroke_o	o	n/a
54.783	0.136	109566	keystroke_r	r	n/a
54.863	0.128	109726	keystroke_Key.space	Key.space	n/a
54.935	0.128	109870	keystroke_p	p	n/a
55.047	0.184	110094	keystroke_e	e	n/a
55.135	0.168	110270	keystroke_r	r	n/a
55.239	0.12	110478	keystroke_s	s	n/a
55.343	0.112	110686	keystroke_o	o	n/a
55.431	0.096	110862	keystroke_n	n	n/a
55.519	0.112	111038	keystroke_a	a	n/a
55.639	0.184	111278	keystroke_l	l	n/a
55.799	0.112	111598	keystroke_i	i	n/a
55.959	0.088	111918	keystroke_z	z	n/a
56.255	0.064	112510	keystroke_e	e	n/a
56.4305	0.113	112861	keystroke_d	d	n/a
56.5595	0.112	113119	keystroke_Key.space	Key.space	n/a
56.7515	0.104	113503	keystroke_r	r	n/a
56.8875	0.088	113775	keystroke_o	o	n/a
57.0635	0.096	114127	keystroke_n	n	n/a
57.4955	0.112	114991	keystroke_a	a	n/a
57.7995	0.144	115599	keystroke_l	l	n/a
57.9835	0.176	115967	keystroke_d	d	n/a
58.1675	0.136	116335	keystroke_Key.space	Key.space	n/a
58.2955	0.12	116591	keystroke_d	d	n/a
58.4555	0.12	116911	keystroke_i	i	n/a
58.5835	0.096	117167	keystroke_v	v	n/a
59.2315	0.096	118463	keystroke_Key.backspace	Key.backspace	n/a
60.6315	0.096	121263	keystroke_v	v	n/a
60.8475	0.08	121695	keystroke_i	i	n/a
61.0395	0.095	122079	keystroke_n	n	n/a
61.1505	0.057	122301	keystroke_e	e	n/a
61.407	0.096	122814	keystroke_Key.enter	Key.enter	n/a
61.508	6.149	123016	prompt	n/a	blocked examined webster determined\n
62.359	0.12	124718	keystroke_b	b	n/a
62.583	0.088	125166	keystroke_l	l	n/a
62.775	0.096	125550	keystroke_o	o	n/a
62.863	0.096	125726	keystroke_c	c	n/a
63.007	0.136	126014	keystroke_k	k	n/a
63.095	0.072	126190	keystroke_e	e	n/a
63.239	0.144	126478	keystroke_d	d	n/a
63.367	0.12	126734	keystroke_Key.space	Key.space	n/a
63.463	0.072	126926	keystroke_e	e	n/a
63.647	0.104	127294	keystroke_x	x	n/a
63.831	0.12	127662	keystroke_a	a	n/a
63.991	0.1045	127982	keystroke_m	m	n/a
64.199	0.08	128398	keystroke_i	i	n/a
64.343	0.136	128686	keystroke_n	n	n/a
64.447	0.072	128894	keystroke_e	e	n/a
64.591	0.144	129182	keystroke_d	d	n/a
64.711	0.144	129422	keystroke_Key.space	Key.space	n/a
64.831	0.112	129662	keystroke_w	w	n/a
64.999	0.072	129998	keystroke_e	e	n/a
65.1835	0.0875	130367	keystroke_b	b	n/a
65.295	0.096	130590	keystroke_s	s	n/a
65.4955	0.0795	130991	keystroke_t	t	n/a
65.607	0.208	131214	keystroke_e	e	n/a
65.727	0.1205	131454	keystroke_r	r	n/a
65.823	0.1525	131646	keystroke_Key.space	Key.space	n/a
65.9195	0.096	131839	keystroke_d	d	n/a
66.1115	0.096	132223	keystroke_e	e	n/a
66.2635	0.08	132527	keystroke_t	t	n/a
66.3515	0.208	132703	keystroke_e	e	n/a
66.4795	0.088	132959	keystroke_r	r	n/a
66.7515	0.128	133503	keystroke_m	m	n/a
66.9915	0.064	133983	keystroke_i	i	n/a
67.1195	0.112	134239	keystroke_n	n	n/a
67.1995	0.072	134399	keystroke_e	e	n/a
67.3435	0.112	134687	keystroke_d	d	n/a
67.5195	0.136	135039	keystroke_Key.enter	Key.enter	n/a
67.6615	10.451	135323	prompt	n/a	sustainable bishop manitoba nitrogen\n
68.6235	0.088	137247	keystroke_s	s	n/a
68.7825	0.144	137565	keystroke_u	u	n/a
68.8785	0.088	137757	keystroke_s	s	n/a
69.0705	0.096	138141	keystroke_t	t	n/a
69.1675	0.079	138335	keystroke_q	q	n/a
69.1825	0.08	138365	keystroke_a	a	n/a
69.2945	0.096	138589	keystroke_i	i	n/a
69.719	0.08	139438	keystroke_Key.backspace	Key.backspace	n/a
69.879	0.072	139758	keystroke_Key.backspace	Key.backspace	n/a
70.039	0.088	140078	keystroke_Key.backspace	Key.backspace	n/a
70.175	0.104	140350	keystroke_a	a	n/a
70.343	0.08	140686	keystroke_i	i	n/a
70.5185	0.136	141037	keystroke_n	n	n/a
70.6865	0.104	141373	keystroke_a	a	n/a
70.8065	0.072	141613	keystroke_b	b	n/a
71.023	0.144	142046	keystroke_l	l	n/a
71.103	0.1595	142206	keystroke_e	e	n/a
71.2065	0.1445	142413	keystroke_Key.space	Key.space	n/a
71.359	0.04	142718	keystroke_h	h	n/a
71.7585	0.096	143517	keystroke_Key.backspace	Key.backspace	n/a
72.0625	0.104	144125	keystroke_b	b	n/a
72.663	0.096	145326	keystroke_i	i	n/a
72.767	0.08	145534	keystroke_s	s	n/a
72.863	0.128	145726	keystroke_h	h	n/a
72.999	0.144	145998	keystroke_o	o	n/a
73.2315	0.216	146463	keystroke_p	p	n/a
73.6625	0.112	147325	keystroke_Key.space	Key.space	n/a
73.8315	0.1195	147663	keystroke_m	m	n/a
73.967	0.104	147934	keystroke_a	a	n/a
74.151	0.072	148302	keystroke_i	i	n/a
74.695	0.104	149390	keystroke_Key.backspace	Key.backspace	n/a
74.983	0.12	149966	keystroke_n	n	n/a
75.231	0.088	150462	keystroke_i	i	n/a
75.399	0.088	150798	keystroke_t	t	n/a
75.511	0.08	151022	keystroke_o	o	n/a
75.679	0.12	151358	keystroke_b	b	n/a
75.831	0.12	151662	keystroke_a	a	n/a
76.023	0.1275	152046	keystroke_Key.space	Key.space	n/a
76.5105	0.096	153021	keystroke_n	n	n/a
76.7505	0.088	153501	keystroke_i	i	n/a
76.9025	0.064	153805	keystroke_t	t	n/a
77.0465	0.064	154093	keystroke_r	r	n/a
77.1585	0.112	154317	keystroke_o	o	n/a
77.367	0.0715	154734	keystroke_g	g	n/a
77.5745	0.072	155149	keystroke_e	e	n/a
77.7425	0.12	155485	keystroke_n	n	n/a
78.0065	0.104	156013	keystroke_Key.enter	Key.enter	n/a
78.116	7.916	156232	prompt	n/a	roman chan evolution spokesman\n
78.9745	0.096	157949	keystroke_r	r	n/a
79.0865	0.112	158173	keystroke_o	o	n/a
79.2545	0.12	158509	keystroke_m	m	n/a
79.3345	0.112	158669	keystroke_a	a	n/a
79.4785	0.104	158957	keystroke_n	n	n/a
79.5985	0.12	159197	keystroke_Key.space	Key.space	n/a
79.8225	0.072	159645	keystroke_c	c	n/a
79.9185	0.112	159837	keystroke_h	h	n/a
80.0945	0.128	160189	keystroke_a	a	n/a
80.3745	0.112	160749	keystroke_n	n	n/a
80.5185	0.112	161037	keystroke_Key.space	Key.space	n/a
80.8065	0.072	161613	keystroke_e	e	n/a
80.9905	0.08	161981	keystroke_v	v	n/a
81.1825	0.088	162365	keystroke_o	o	n/a
81.3585	0.096	162717	keystroke_l	l	n/a
81.5505	0.112	163101	keystroke_u	u	n/a
81.9265	0.104	163853	keystroke_t	t	n/a
82.0385	0.08	164077	keystroke_i	i	n/a
82.1345	0.144	164269	keystroke_o	o	n/a
82.2305	0.144	164461	keystroke_n	n	n/a
82.3105	0.12	164621	keystroke_Key.space	Key.space	n/a
82.4065	0.08	164813	keystroke_s	s	n/a
82.5185	0.112	165037	keystroke_p	p	n/a
82.7105	0.104	165421	keystroke_o	o	n/a
82.9905	0.104	165981	keystroke_k	k	n/a
83.1425	0.088	166285	keystroke_e	e	n/a
83.2545	0.088	166509	keystroke_n	n	n/a
83.7105	0.096	167421	keystroke_Key.backspace	Key.backspace	n/a
83.8145	0.08	167629	keystroke_s	s	n/a
84.2225	0.08	168445	keystroke_m	m	n/a
84.2945	0.112	168589	keystroke_a	a	n/a
84.4465	0.08	168893	keystroke_n	n	n/a
85.887	0.144	171774	keystroke_Key.enter	Key.enter	n/a
86.035	6.461	172070	prompt	n/a	organisations create mariah figures\n
86.711	0.184	173422	keystroke_o	o	n/a
86.831	0.072	173662	keystroke_r	r	n/a
86.991	0.096	173982	keystroke_g	g	n/a
87.079	0.136	174158	keystroke_a	a	n/a
87.207	0.104	174414	keystroke_n	n	n/a
87.351	0.104	174702	keystroke_i	i	n/a
87.7985	0.08	175597	keystroke_s	s	n/a
87.9505	0.12	175901	keystroke_a	a	n/a
88.1265	0.088	176253	keystroke_t	t	n/a
88.2155	0.095	176431	keystroke_i	i	n/a
88.3025	0.176	176605	keystroke_o	o	n/a
88.4145	0.168	176829	keystroke_n	n	n/a
88.5105	0.128	177021	keystroke_s	s	n/a
88.6065	0.144	177213	keystroke_Key.space	Key.space	n/a
88.7515	0.079	177503	keystroke_c	c	n/a
88.9505	0.128	177901	keystroke_r	r	n/a
89.0465	0.112	178093	keystroke_e	e	n/a
89.1345	0.152	178269	keystroke_a	a	n/a
89.2465	0.152	178493	keystroke_t	t	n/a
89.3585	0.144	178717	keystroke_e	e	n/a
89.4785	0.12	178957	keystroke_Key.space	Key.space	n/a
89.9185	0.144	179837	keystroke_m	m	n/a
90.0225	0.128	180045	keystroke_a	a	n/a
90.1265	0.1045	180253	keystroke_r	r	n/a
90.599	0.08	181198	keystroke_i	i	n/a
90.679	0.112	181358	keystroke_a	a	n/a
90.823	0.112	181646	keystroke_h	h	n/a
90.927	0.128	181854	keystroke_Key.space	Key.space	n/a
91.143	0.072	182286	keystroke_f	f	n/a
91.223	0.088	182446	keystroke_i	i	n/a
91.375	0.056	182750	keystroke_g	g	n/a
91.487	0.104	182974	keystroke_u	u	n/a
91.615	0.112	183230	keystroke_r	r	n/a
91.767	0.088	183534	keystroke_e	e	n/a
92.079	0.088	184158	keystroke_s	s	n/a
92.383	0.112	184766	keystroke_Key.enter	Key.enter	n/a
92.4985	6.7015	184997	prompt	n/a	emphasis pixel blocked pete\n
93.287	0.088	186574	keystroke_e	e	n/a
93.423	0.1195	186846	keystroke_m	m	n/a
93.615	0.136	187230	keystroke_p	p	n/a
93.751	0.144	187502	keystroke_a	a	n/a
93.863	0.136	187726	keystroke_h	h	n/a
94.255	0.08	188510	keystroke_Key.backspace	Key.backspace	n/a
94.399	0.088	188798	keystroke_Key.backspace	Key.backspace	n/a
94.655	0.128	189310	keystroke_h	h	n/a
94.783	0.176	189566	keystroke_a	a	n/a
94.951	0.072	189902	keystroke_s	s	n/a
95.111	0.104	190222	keystroke_i	i	n/a
95.231	0.104	190462	keystroke_s	s	n/a
95.343	0.135	190686	keystroke_Key.space	Key.space	n/a
96.014	0.105	192028	keystroke_p	p	n/a
96.199	0.103	192398	keystroke_i	i	n/a
96.342	0.081	192684	keystroke_x	x	n/a
96.622	0.072	193244	keystroke_e	e	n/a
96.798	0.12	193596	keystroke_l	l	n/a
96.91	0.112	193820	keystroke_Key.space	Key.space	n/a
97.103	0.104	194206	keystroke_b	b	n/a
97.311	0.087	194622	keystroke_l	l	n/a
97.494	0.105	194988	keystroke_o	o	n/a
97.566	0.088	195132	keystroke_c	c	n/a
97.719	0.111	195438	keystroke_k	k	n/a
97.807	0.063	195614	keystroke_e	e	n/a
97.943	0.143	195886	keystroke_d	d	n/a
98.054	0.128	196108	keystroke_Key.space	Key.space	n/a
98.246	0.128	196492	keystroke_p	p	n/a
98.382	0.072	196764	keystroke_e	e	n/a
98.558	0.08	197116	keystroke_t	t	n/a
98.718	0.096	197436	keystroke_e	e	n/a
99.062	0.136	198124	keystroke_Key.enter	Key.enter	n/a
99.203	8.0525	198406	prompt	n/a	emacs acrobat supply ultram\n
100.255	0.087	200510	keystroke_e	e	n/a
100.43	0.144	200860	keystroke_m	m	n/a
100.558	0.121	201116	keystroke_a	a	n/a
100.846	0.088	201692	keystroke_c	c	n/a
101.254	0.144	202508	keystroke_s	s	n/a
101.366	0.136	202732	keystroke_Key.space	Key.space	n/a
101.718	0.112	203436	keystroke_a	a	n/a
102.358	0.088	204716	keystroke_c	c	n/a
102.59	0.072	205180	keystroke_r	r	n/a
102.75	0.088	205500	keystroke_o	o	n/a
102.958	0.096	205916	keystroke_b	b	n/a
103.078	0.152	206156	keystroke_a	a	n/a
103.238	0.112	206476	keystroke_t	t	n/a
103.342	0.144	206684	keystroke_Key.space	Key.space	n/a
103.462	0.08	206924	keystroke_s	s	n/a
103.582	0.088	207164	keystroke_u	u	n/a
104.022	0.096	208044	keystroke_p	p	n/a
104.166	0.088	208332	keystroke_p	p	n/a
104.422	0.088	208844	keystroke_l	l	n/a
104.6945	0.128	209389	keystroke_y	y	n/a
104.8065	0.136	209613	keystroke_Key.space	Key.space	n/a
105.5745	0.104	211149	keystroke_u	u	n/a
105.9825	0.128	211965	keystroke_l	l	n/a
106.3345	0.112	212669	keystroke_t	t	n/a
106.5505	0.12	213101	keystroke_r	r	n/a
106.6385	0.136	213277	keystroke_a	a	n/a
106.8545	0.104	213709	keystroke_m	m	n/a
107.1425	0.112	214285	keystroke_Key.enter	Key.enter	n/a
107.26	5.6275	214520	prompt	n/a	miami surgeons drug metallic\n
108.0385	0.112	216077	keystroke_m	m	n/a
108.2705	0.096	216541	keystroke_i	i	n/a
108.3585	0.12	216717	keystroke_a	a	n/a
108.5025	0.12	217005	keystroke_m	m	n/a
108.8145	0.088	217629	keystroke_i	i	n/a
108.9505	0.144	217901	keystroke_Key.space	Key.space	n/a
109.2385	0.104	218477	keystroke_s	s	n/a
109.3905	0.128	218781	keystroke_u	u	n/a
109.5265	0.072	219053	keystroke_r	r	n/a
109.7105	0.056	219421	keystroke_g	g	n/a
109.8625	0.064	219725	keystroke_e	e	n/a
110.0145	0.088	220029	keystroke_o	o	n/a
110.1665	0.12	220333	keystroke_n	n	n/a
110.2945	0.12	220589	keystroke_s	s	n/a
110.3905	0.128	220781	keystroke_Key.space	Key.space	n/a
110.6225	0.12	221245	keystroke_d	d	n/a
110.8865	0.064	221773	keystroke_r	r	n/a
111.0865	0.08	222173	keystroke_u	u	n/a
111.2145	0.088	222429	keystroke_g	g	n/a
111.4225	0.12	222845	keystroke_Key.space	Key.space	n/a
111.6225	0.12	223245	keystroke_m	m	n/a
111.7265	0.072	223453	keystroke_e	e	n/a
111.8945	0.08	223789	keystroke_t	t	n/a
111.9825	0.136	223965	keystroke_a	a	n/a
112.1425	0.072	224285	keystroke_l	l	n/a
112.2785	0.088	224557	keystroke_l	l	n/a
112.4865	0.104	224973	keystroke_i	i	n/a
112.5745	0.08	225149	keystroke_c	c	n/a
112.7665	0.12	225533	keystroke_Key.enter	Key.enter	n/a
112.8905	7.669	225781	prompt	n/a	us partners magazine frequencies\n
113.6305	0.144	227261	keystroke_u	u	n/a
113.7185	0.136	227437	keystroke_s	s	n/a
113.8225	0.128	227645	keystroke_Key.space	Key.space	n/a
113.9105	0.16	227821	keystroke_p	p	n/a
114.0225	0.136	228045	keystroke_a	a	n/a
114.1265	0.056	228253	keystroke_r	r	n/a
114.2545	0.088	228509	keystroke_t	t	n/a
114.3905	0.12	228781	keystroke_n	n	n/a
114.494	0.1045	228988	keystroke_e	e	n/a
114.5585	0.152	229117	keystroke_r	r	n/a
114.6945	0.112	229389	keystroke_s	s	n/a
114.7985	0.103	229597	keystroke_Key.space	Key.space	n/a
114.9025	0.12	229805	keystroke_m	m	n/a
114.9905	0.104	229981	keystroke_a	a	n/a
115.1745	0.08	230349	keystroke_g	g	n/a
115.2865	0.104	230573	keystroke_a	a	n/a
115.8065	0.095	231613	keystroke_z	z	n/a
116.0065	0.072	232013	keystroke_i	i	n/a
116.1265	0.144	232253	keystroke_n	n	n/a
116.2225	0.128	232445	keystroke_e	e	n/a
116.3105	0.167	232621	keystroke_Key.space	Key.space	n/a
116.4305	0.08	232861	keystroke_f	f	n/a
116.5905	0.191	233181	keystroke_r	r	n/a
116.726	0.1595	233452	keystroke_e	e	n/a
116.8375	0.144	233675	keystroke_q	q	n/a
117.0855	0.136	234171	keystroke_u	u	n/a
117.2055	0.176	234411	keystroke_e	e	n/a
118.1655	0.088	236331	keystroke_n	n	n/a
118.7095	0.024	237419	keystroke_c	c	n/a
119.2695	0.096	238539	keystroke_i	i	n/a
119.3735	0.121	238747	keystroke_e	e	n/a
119.5495	0.072	239099	keystroke_s	s	n/a
120.4055	0.152	240811	keystroke_Key.enter	Key.enter	n/a
120.5625	7.133	241125	prompt	n/a	advertisers bloggers jewel idea\n
121.1335	0.1365	242267	keystroke_a	a	n/a
121.3015	0.0965	242603	keystroke_d	d	n/a
121.998	0.096	243996	keystroke_v	v	n/a
122.222	0.16	244444	keystroke_e	e	n/a
122.358	0.088	244716	keystroke_r	r	n/a
122.558	0.072	245116	keystroke_t	t	n/a
122.718	0.104	245436	keystroke_i	i	n/a
122.854	0.072	245708	keystroke_s	s	n/a
123.11	0.184	246220	keystroke_e	e	n/a
123.246	0.112	246492	keystroke_r	r	n/a
123.39	0.144	246780	keystroke_s	s	n/a
123.502	0.144	247004	keystroke_Key.space	Key.space	n/a
123.87	0.12	247740	keystroke_b	b	n/a
124.3335	0.096	248667	keystroke_l	l	n/a
124.5255	0.104	249051	keystroke_o	o	n/a
124.662	0.0475	249324	keystroke_g	g	n/a
124.7655	0.0805	249531	keystroke_g	g	n/a
124.942	0.12	249884	keystroke_e	e	n/a
125.038	0.12	250076	keystroke_r	r	n/a
125.15	0.12	250300	keystroke_s	s	n/a
125.238	0.128	250476	keystroke_Key.space	Key.space	n/a
125.334	0.1205	250668	keystroke_j	j	n/a
125.43	0.0645	250860	keystroke_e	e	n/a
125.9985	0.08	251997	keystroke_w	w	n/a
126.1825	0.064	252365	keystroke_e	e	n/a
126.4945	0.112	252989	keystroke_l	l	n/a
126.6385	0.136	253277	keystroke_Key.space	Key.space	n/a
127.0385	0.096	254077	keystroke_i	i	n/a
127.1665	0.032	254333	keystroke_d	d	n/a
127.3105	0.08	254621	keystroke_e	e	n/a
127.3745	0.12	254749	keystroke_a	a	n/a
127.5825	0.112	255165	keystroke_Key.enter	Key.enter	n/a
127.698	6.5415	255396	prompt	n/a	essentials julie abandoned extent\n
128.5345	0.079	257069	keystroke_e	e	n/a
128.7185	0.064	257437	keystroke_s	s	n/a
128.8455	0.08	257691	keystroke_s	s	n/a
128.9585	0.087	257917	keystroke_e	e	n/a
129.0865	0.111	258173	keystroke_n	n	n/a
129.1905	0.063	258381	keystroke_t	t	n/a
129.3175	0.064	258635	keystroke_i	i	n/a
129.3895	0.113	258779	keystroke_a	a	n/a
129.5175	0.096	259035	keystroke_l	l	n/a
129.7095	0.145	259419	keystroke_s	s	n/a
129.8295	0.128	259659	keystroke_Key.space	Key.space	n/a
130.1105	0.079	260221	keystroke_j	j	n/a
130.2935	0.081	260587	keystroke_u	u	n/a
130.4535	0.096	260907	keystroke_l	l	n/a
130.6305	0.087	261261	keystroke_i	i	n/a
130.7335	0.144	261467	keystroke_e	e	n/a
130.8455	0.128	261691	keystroke_Key.space	Key.space	n/a
130.9655	0.112	261931	keystroke_a	a	n/a
131.1095	0.104	262219	keystroke_b	b	n/a
131.6625	0.095	263325	keystroke_a	a	n/a
131.7735	0.104	263547	keystroke_n	n	n/a
131.9095	0.089	263819	keystroke_d	d	n/a
132.334	0.096	264668	keystroke_o	o	n/a
132.446	0.152	264892	keystroke_n	n	n/a
132.534	0.072	265068	keystroke_e	e	n/a
132.686	0.12	265372	keystroke_d	d	n/a
132.798	0.136	265596	keystroke_Key.space	Key.space	n/a
132.918	0.056	265836	keystroke_e	e	n/a
133.078	0.12	266156	keystroke_x	x	n/a
133.326	0.12	266652	keystroke_t	t	n/a
133.454	0.104	266908	keystroke_e	e	n/a
133.598	0.128	267196	keystroke_n	n	n/a
133.782	0.072	267564	keystroke_t	t	n/a
134.102	0.136	268204	keystroke_Key.enter	Key.enter	n/a
134.245	11.4345	268490	prompt	n/a	link effort cosmetics moldova\n
135.094	0.096	270188	keystroke_l	l	n/a
135.238	0.136	270476	keystroke_i	i	n/a
135.366	0.136	270732	keystroke_n	n	n/a
135.51	0.16	271020	keystroke_k	k	n/a
135.63	0.144	271260	keystroke_Key.space	Key.space	n/a
136.062	0.144	272124	keystroke_e	e	n/a
136.878	0.064	273756	keystroke_f	f	n/a
137.014	0.072	274028	keystroke_f	f	n/a
137.214	0.128	274428	keystroke_o	o	n/a
137.574	0.12	275148	keystroke_r	r	n/a
137.79	0.136	275580	keystroke_t	t	n/a
137.902	0.104	275804	keystroke_Key.space	Key.space	n/a
138.15	0.112	276300	keystroke_c	c	n/a
138.75	0.136	277500	keystroke_o	o	n/a
138.838	0.088	277676	keystroke_s	s	n/a
139.038	0.136	278076	keystroke_m	m	n/a
139.182	0.08	278364	keystroke_e	e	n/a
139.374	0.064	278748	keystroke_t	t	n/a
139.55	0.096	279100	keystroke_i	i	n/a
139.598	0.104	279196	keystroke_c	c	n/a
139.83	0.152	279660	keystroke_s	s	n/a
139.958	0.144	279916	keystroke_Key.space	Key.space	n/a
140.59	0.12	281180	keystroke_m	m	n/a
140.806	0.08	281612	keystroke_o	o	n/a
140.99	0.096	281980	keystroke_l	l	n/a
141.07	0.08	282140	keystroke_d	d	n/a
141.254	0.12	282508	keystroke_o	o	n/a
141.366	0.064	282732	keystroke_v	v	n/a
142.39	0.12	284780	keystroke_a	a	n/a
145.59	0.088	291180	keystroke_Key.enter	Key.enter	n/a
145.687	7.168	291374	prompt	n/a	holds tracker photograph salaries\n
146.645	0.128	293290	keystroke_h	h	n/a
146.853	0.096	293706	keystroke_o	o	n/a
147.061	0.096	294122	keystroke_l	l	n/a
147.181	0.0725	294362	keystroke_d	d	n/a
147.421	0.137	294842	keystroke_s	s	n/a
147.549	0.136	295098	keystroke_Key.space	Key.space	n/a
147.853	0.064	295706	keystroke_t	t	n/a
148.005	0.088	296010	keystroke_r	r	n/a
148.069	0.128	296138	keystroke_a	a	n/a
148.245	0.072	296490	keystroke_c	c	n/a
148.429	0.096	296858	keystroke_k	k	n/a
148.565	0.184	297130	keystroke_e	e	n/a
148.661	0.128	297322	keystroke_r	r	n/a
148.741	0.136	297482	keystroke_Key.space	Key.space	n/a
148.957	0.04	297914	keystroke_p	p	n/a
149.061	0.128	298122	keystroke_h	h	n/a
149.285	0.12	298570	keystroke_o	o	n/a
149.461	0.096	298922	keystroke_t	t	n/a
149.525	0.112	299050	keystroke_o	o	n/a
149.853	0.072	299706	keystroke_g	g	n/a
150.021	0.088	300042	keystroke_r	r	n/a
150.077	0.136	300154	keystroke_a	a	n/a
150.157	0.104	300314	keystroke_p	p	n/a
150.309	0.137	300618	keystroke_h	h	n/a
150.43	0.136	300860	keystroke_Key.space	Key.space	n/a
150.542	0.08	301084	keystroke_s	s	n/a
150.678	0.144	301356	keystroke_l	l	n/a
150.742	0.136	301484	keystroke_a	a	n/a
150.95	0.096	301900	keystroke_a	a	n/a
151.358	0.072	302716	keystroke_Key.backspace	Key.backspace	n/a
151.494	0.064	302988	keystroke_Key.backspace	Key.backspace	n/a
151.638	0.088	303276	keystroke_Key.backspace	Key.backspace	n/a
151.718	0.12	303436	keystroke_a	a	n/a
151.918	0.128	303836	keystroke_l	l	n/a
152.038	0.152	304076	keystroke_a	a	n/a
152.182	0.056	304364	keystroke_r	r	n/a
152.318	0.08	304636	keystroke_i	i	n/a
152.414	0.056	304828	keystroke_e	e	n/a
152.526	0.072	305052	keystroke_s	s	n/a
152.749	0.104	305498	keystroke_Key.enter	Key.enter	n/a
152.8675	10.6115	305735	prompt	n/a	dramatically appreciation richards distributors\n
153.966	0.112	307932	keystroke_d	d	n/a
154.189	0.128	308378	keystroke_r	r	n/a
154.269	0.136	308538	keystroke_a	a	n/a
154.397	0.153	308794	keystroke_m	m	n/a
154.509	0.104	309018	keystroke_a	a	n/a
154.645	0.08	309290	keystroke_t	t	n/a
154.765	0.08	309530	keystroke_i	i	n/a
154.869	0.088	309738	keystroke_c	c	n/a
154.981	0.097	309962	keystroke_a	a	n/a
155.069	0.072	310138	keystroke_l	l	n/a
155.205	0.104	310410	keystroke_l	l	n/a
155.413	0.145	310826	keystroke_y	y	n/a
155.525	0.12	311050	keystroke_Key.space	Key.space	n/a
155.781	0.144	311562	keystroke_a	a	n/a
155.909	0.056	311818	keystroke_p	p	n/a
156.045	0.088	312090	keystroke_p	p	n/a
156.237	0.136	312474	keystroke_r	r	n/a
156.341	0.112	312682	keystroke_e	e	n/a
156.773	0.104	313546	keystroke_c	c	n/a
157.005	0.12	314010	keystroke_i	i	n/a
157.101	0.152	314202	keystroke_a	a	n/a
157.213	0.08	314426	keystroke_t	t	n/a
157.357	0.072	314714	keystroke_i	i	n/a
157.453	0.1445	314906	keystroke_o	o	n/a
157.5495	0.152	315099	keystroke_n	n	n/a
157.6695	0.112	315339	keystroke_Key.space	Key.space	n/a
158.0535	0.08	316107	keystroke_r	r	n/a
158.142	0.0795	316284	keystroke_i	i	n/a
158.2615	0.088	316523	keystroke_c	c	n/a
158.3575	0.12	316715	keystroke_h	h	n/a
158.4695	0.12	316939	keystroke_a	a	n/a
158.5575	0.152	317115	keystroke_r	r	n/a
158.7015	0.104	317403	keystroke_d	d	n/a
158.9175	0.112	317835	keystroke_s	s	n/a
159.0375	0.136	318075	keystroke_Key.space	Key.space	n/a
159.1415	0.08	318283	keystroke_d	d	n/a
159.2855	0.104	318571	keystroke_i	i	n/a
159.3815	0.096	318763	keystroke_s	s	n/a
159.5335	0.08	319067	keystroke_t	t	n/a
159.7095	0.056	319419	keystroke_r	r	n/a
161.7495	0.08	323499	keystroke_i	i	n/a
161.9495	0.072	323899	keystroke_b	b	n/a
162.2215	0.112	324443	keystroke_u	u	n/a
162.4695	0.08	324939	keystroke_t	t	n/a
162.5975	0.12	325195	keystroke_o	o	n/a
162.6935	0.088	325387	keystroke_r	r	n/a
162.8695	0.112	325739	keystroke_s	s	n/a
163.3095	0.168	326619	keystroke_Key.enter	Key.enter	n/a
163.483	3.644	326966	prompt	n/a	towers invited pray had\n
164.302	0.104	328604	keystroke_t	t	n/a
164.438	0.144	328876	keystroke_o	o	n/a
164.534	0.152	329068	keystroke_w	w	n/a
164.662	0.12	329324	keystroke_e	e	n/a
164.742	0.152	329484	keystroke_r	r	n/a
164.854	0.112	329708	keystroke_s	s	n/a
164.95	0.152	329900	keystroke_Key.space	Key.space	n/a
165.222	0.079	330444	keystroke_i	i	n/a
165.35	0.12	330700	keystroke_n	n	n/a
165.446	0.071	330892	keystroke_v	v	n/a
165.558	0.096	331116	keystroke_i	i	n/a
165.662	0.128	331324	keystroke_t	t	n/a
165.774	0.087	331548	keystroke_e	e	n/a
165.942	0.112	331884	keystroke_d	d	n/a
166.022	0.12	332044	keystroke_Key.space	Key.space	n/a
166.158	0.104	332316	keystroke_p	p	n/a
166.222	0.103	332444	keystroke_r	r	n/a
166.278	0.128	332556	keystroke_a	a	n/a
166.406	0.128	332812	keystroke_y	y	n/a
166.534	0.103	333068	keystroke_Key.space	Key.space	n/a
166.638	0.104	333276	keystroke_h	h	n/a
166.717	0.144	333434	keystroke_a	a	n/a
166.83	0.096	333660	keystroke_d	d	n/a
167.005	0.12	334010	keystroke_Key.enter	Key.enter	n/a
167.1295	7.0135	334259	prompt	n/a	obviously lewis fireplace dolls\n
167.925	0.113	335850	keystroke_o	o	n/a
168.085	0.121	336170	keystroke_b	b	n/a
168.213	0.072	336426	keystroke_v	v	n/a
168.325	0.064	336650	keystroke_i	i	n/a
168.413	0.136	336826	keystroke_o	o	n/a
168.525	0.105	337050	keystroke_u	u	n/a
168.637	0.08	337274	keystroke_s	s	n/a
168.726	0.136	337452	keystroke_l	l	n/a
168.942	0.127	337884	keystroke_y	y	n/a
169.109	0.12	338218	keystroke_Key.space	Key.space	n/a
169.773	0.12	339546	keystroke_l	l	n/a
169.91	0.063	339820	keystroke_e	e	n/a
170.069	0.096	340138	keystroke_w	w	n/a
170.494	0.079	340988	keystroke_i	i	n/a
170.589	0.128	341178	keystroke_s	s	n/a
170.709	0.1205	341418	keystroke_Key.space	Key.space	n/a
170.8775	0.096	341755	keystroke_f	f	n/a
171.0375	0.088	342075	keystroke_i	i	n/a
171.1415	0.144	342283	keystroke_r	r	n/a
171.2535	0.0795	342507	keystroke_e	e	n/a
171.3815	0.096	342763	keystroke_p	p	n/a
171.5575	0.152	343115	keystroke_l	l	n/a
171.6455	0.16	343291	keystroke_a	a	n/a
171.8135	0.072	343627	keystroke_c	c	n/a
172.0615	0.176	344123	keystroke_e	e	n/a
172.2055	0.136	344411	keystroke_Key.space	Key.space	n/a
172.4535	0.088	344907	keystroke_d	d	n/a
172.5895	0.088	345179	keystroke_o	o	n/a
172.7655	0.072	345531	keystroke_l	l	n/a
172.8855	0.112	345771	keystroke_l	l	n/a
173.0135	0.088	346027	keystroke_s	s	n/a
174.0535	0.088	348107	keystroke_Key.enter	Key.enter	n/a
174.1455	6.645	348291	prompt	n/a	populations pregnancy tiny mandatory\n
175.0615	0.136	350123	keystroke_p	p	n/a
175.2855	0.088	350571	keystroke_o	o	n/a
175.7335	0.088	351467	keystroke_p	p	n/a
175.925	0.112	351850	keystroke_u	u	n/a
176.109	0.152	352218	keystroke_l	l	n/a
176.213	0.152	352426	keystroke_a	a	n/a
176.333	0.08	352666	keystroke_t	t	n/a
176.421	0.08	352842	keystroke_i	i	n/a
176.477	0.168	352954	keystroke_o	o	n/a
176.597	0.16	353194	keystroke_n	n	n/a
176.677	0.12	353354	keystroke_s	s	n/a
176.741	0.12	353482	keystroke_Key.space	Key.space	n/a
176.845	0.192	353690	keystroke_p	p	n/a
176.925	0.136	353850	keystroke_r	r	n/a
177.021	0.072	354042	keystroke_e	e	n/a
177.173	0.072	354346	keystroke_g	g	n/a
177.629	0.104	355258	keystroke_n	n	n/a
177.717	0.12	355434	keystroke_a	a	n/a
177.829	0.112	355658	keystroke_n	n	n/a
177.957	0.104	355914	keystroke_c	c	n/a
178.133	0.128	356266	keystroke_y	y	n/a
178.285	0.12	356570	keystroke_Key.space	Key.space	n/a
178.525	0.0795	357050	keystroke_t	t	n/a
178.5965	0.129	357193	keystroke_i	i	n/a
178.7335	0.111	357467	keystroke_n	n	n/a
178.9645	0.112	357929	keystroke_y	y	n/a
179.0605	0.12	358121	keystroke_Key.space	Key.space	n/a
179.2295	0.12	358459	keystroke_m	m	n/a
179.3165	0.113	358633	keystroke_a	a	n/a
179.4615	0.104	358923	keystroke_n	n	n/a
179.5575	0.063	359115	keystroke_d	d	n/a
179.9815	0.128	359963	keystroke_a	a	n/a
180.1895	0.079	360379	keystroke_t	t	n/a
180.2845	0.104	360569	keystroke_o	o	n/a
180.3725	0.064	360745	keystroke_r	r	n/a
180.4685	0.104	360937	keystroke_y	y	n/a
180.6925	0.096	361385	keystroke_Key.enter	Key.enter	n/a
180.793	5.5815	361586	prompt	n/a	mattress alleged ferry obtain\n
181.5165	0.137	363033	keystroke_m	m	n/a
181.6285	0.137	363257	keystroke_a	a	n/a
181.797	0.056	363594	keystroke_t	t	n/a
181.917	0.072	363834	keystroke_t	t	n/a
182.117	0.192	364234	keystroke_r	r	n/a
182.277	0.072	364554	keystroke_e	e	n/a
182.453	0.064	364906	keystroke_s	s	n/a
182.565	0.08	365130	keystroke_s	s	n/a
182.677	0.112	365354	keystroke_Key.space	Key.space	n/a
182.741	0.128	365482	keystroke_a	a	n/a
182.909	0.048	365818	keystroke_l	l	n/a
183.029	0.12	366058	keystroke_l	l	n/a
183.165	0.072	366330	keystroke_e	e	n/a
183.349	0.064	366698	keystroke_g	g	n/a
183.549	0.056	367098	keystroke_e	e	n/a
183.709	0.088	367418	keystroke_d	d	n/a
183.805	0.136	367610	keystroke_Key.space	Key.space	n/a
184.2055	0.072	368411	keystroke_f	f	n/a
184.3815	0.0795	368763	keystroke_e	e	n/a
184.565	0.056	369130	keystroke_r	r	n/a
184.669	0.08	369338	keystroke_r	r	n/a
184.813	0.136	369626	keystroke_y	y	n/a
184.917	0.12	369834	keystroke_Key.space	Key.space	n/a
185.133	0.12	370266	keystroke_o	o	n/a
185.349	0.12	370698	keystroke_b	b	n/a
185.533	0.088	371066	keystroke_t	t	n/a
185.629	0.112	371258	keystroke_a	a	n/a
185.781	0.064	371562	keystroke_i	i	n/a
185.917	0.096	371834	keystroke_n	n	n/a
186.269	0.104	372538	keystroke_Key.enter	Key.enter	n/a
186.3775	6.285	372755	prompt	n/a	using registered weekend travesti\n
187.229	0.104	374458	keystroke_u	u	n/a
187.317	0.08	374634	keystroke_s	s	n/a
187.445	0.112	374890	keystroke_i	i	n/a
187.533	0.152	375066	keystroke_n	n	n/a
187.621	0.104	375242	keystroke_g	g	n/a
187.701	0.144	375402	keystroke_Key.space	Key.space	n/a
187.965	0.144	375930	keystroke_r	r	n/a
188.069	0.128	376138	keystroke_e	e	n/a
188.237	0.088	376474	keystroke_g	g	n/a
188.381	0.08	376762	keystroke_i	i	n/a
188.469	0.128	376938	keystroke_s	s	n/a
188.605	0.08	377210	keystroke_t	t	n/a
188.725	0.128	377450	keystroke_e	e	n/a
188.821	0.184	377642	keystroke_r	r	n/a
188.925	0.088	377850	keystroke_e	e	n/a
189.093	0.12	378186	keystroke_d	d	n/a
189.189	0.144	378378	keystroke_Key.space	Key.space	n/a
189.293	0.168	378586	keystroke_w	w	n/a
189.437	0.056	378874	keystroke_e	e	n/a
189.549	0.08	379098	keystroke_e	e	n/a
189.677	0.096	379354	keystroke_k	k	n/a
189.765	0.064	379530	keystroke_e	e	n/a
189.885	0.128	379770	keystroke_n	n	n/a
189.949	0.152	379898	keystroke_d	d	n/a
190.069	0.112	380138	keystroke_Key.space	Key.space	n/a
190.325	0.088	380650	keystroke_t	t	n/a
190.509	0.112	381018	keystroke_r	r	n/a
190.613	0.176	381226	keystroke_a	a	n/a
190.821	0.088	381642	keystroke_v	v	n/a
191.029	0.064	382058	keystroke_e	e	n/a
191.221	0.104	382442	keystroke_s	s	n/a
191.6615	0.096	383323	keystroke_t	t	n/a
191.9095	0.08	383819	keystroke_i	i	n/a
192.565	0.096	385130	keystroke_Key.enter	Key.enter	n/a
192.665	7.1175	385330	prompt	n/a	baker floppy industry casual\n
193.565	0.1205	387130	keystroke_b	b	n/a
193.7095	0.12	387419	keystroke_a	a	n/a
193.8775	0.08	387755	keystroke_k	k	n/a
193.9655	0.208	387931	keystroke_e	e	n/a
194.0855	0.128	388171	keystroke_r	r	n/a
194.1815	0.144	388363	keystroke_Key.space	Key.space	n/a
194.3015	0.096	388603	keystroke_f	f	n/a
194.4375	0.08	388875	keystroke_l	l	n/a
194.6295	0.096	389259	keystroke_o	o	n/a
194.8535	0.08	389707	keystroke_p	p	n/a
194.997	0.088	389994	keystroke_p	p	n/a
195.229	0.112	390458	keystroke_y	y	n/a
195.349	0.128	390698	keystroke_Key.space	Key.space	n/a
195.541	0.12	391082	keystroke_i	i	n/a
195.709	0.136	391418	keystroke_n	n	n/a
196.141	0.072	392282	keystroke_d	d	n/a
196.309	0.1035	392618	keystroke_u	u	n/a
196.4285	0.104	392857	keystroke_s	s	n/a
196.5805	0.072	393161	keystroke_t	t	n/a
196.7485	0.08	393497	keystroke_r	r	n/a
196.9085	0.112	393817	keystroke_y	y	n/a
197.0765	0.12	394153	keystroke_Key.space	Key.space	n/a
197.3165	0.096	394633	keystroke_c	c	n/a
197.4285	0.113	394857	keystroke_a	a	n/a
197.6205	0.1045	395241	keystroke_u	u	n/a
197.757	0.08	395514	keystroke_s	s	n/a
198.101	0.056	396202	keystroke_u	u	n/a
198.445	0.032	396890	keystroke_Key.backspace	Key.backspace	n/a
198.581	0.088	397162	keystroke_Key.backspace	Key.backspace	n/a
198.717	0.104	397434	keystroke_Key.backspace	Key.backspace	n/a
198.821	0.088	397642	keystroke_s	s	n/a
199.181	0.104	398362	keystroke_u	u	n/a
199.293	0.128	398586	keystroke_a	a	n/a
199.405	0.112	398810	keystroke_l	l	n/a
199.661	0.12	399322	keystroke_Key.enter	Key.enter	n/a
199.786	6.7325	399572	prompt	n/a	voters routing careful threaded\n
200.7415	0.088	401483	keystroke_v	v	n/a
200.8935	0.104	401787	keystroke_o	o	n/a
201.0055	0.08	402011	keystroke_t	t	n/a
201.1655	0.1595	402331	keystroke_e	e	n/a
201.301	0.128	402602	keystroke_r	r	n/a
201.413	0.128	402826	keystroke_s	s	n/a
201.509	0.152	403018	keystroke_Key.space	Key.space	n/a
201.949	0.088	403898	keystroke_r	r	n/a
202.061	0.104	404122	keystroke_o	o	n/a
202.333	0.12	404666	keystroke_u	u	n/a
202.557	0.088	405114	keystroke_t	t	n/a
202.669	0.072	405338	keystroke_i	i	n/a
202.789	0.136	405578	keystroke_n	n	n/a
202.877	0.136	405754	keystroke_g	g	n/a
202.997	0.112	405994	keystroke_Key.space	Key.space	n/a
203.269	0.104	406538	keystroke_c	c	n/a
203.469	0.176	406938	keystroke_a	a	n/a
203.637	0.1195	407274	keystroke_r	r	n/a
203.7805	0.136	407561	keystroke_e	e	n/a
203.9005	0.072	407801	keystroke_f	f	n/a
204.0445	0.104	408089	keystroke_u	u	n/a
204.2365	0.113	408473	keystroke_l	l	n/a
204.4205	0.0965	408841	keystroke_Key.space	Key.space	n/a
204.709	0.08	409418	keystroke_t	t	n/a
204.813	0.144	409626	keystroke_h	h	n/a
204.925	0.2	409850	keystroke_r	r	n/a
205.077	0.152	410154	keystroke_e	e	n/a
205.213	0.12	410426	keystroke_a	a	n/a
205.853	0.056	411706	keystroke_d	d	n/a
206.029	0.056	412058	keystroke_e	e	n/a
206.173	0.064	412346	keystroke_d	d	n/a
206.389	0.128	412778	keystroke_Key.enter	Key.enter	n/a
206.521	5.357	413042	prompt	n/a	meter acrobat force flat\n
207.2605	0.12	414521	keystroke_m	m	n/a
207.3245	0.144	414649	keystroke_e	e	n/a
207.4925	0.088	414985	keystroke_t	t	n/a
207.6295	0.231	415259	keystroke_e	e	n/a
207.7405	0.128	415481	keystroke_r	r	n/a
207.8445	0.16	415689	keystroke_Key.space	Key.space	n/a
207.9725	0.136	415945	keystroke_a	a	n/a
208.213	0.128	416426	keystroke_c	c	n/a
208.493	0.1045	416986	keystroke_r	r	n/a
208.6535	0.096	417307	keystroke_o	o	n/a
209.1735	0.128	418347	keystroke_b	b	n/a
209.3575	0.152	418715	keystroke_a	a	n/a
209.517	0.0885	419034	keystroke_t	t	n/a
209.6205	0.1525	419241	keystroke_Key.space	Key.space	n/a
209.741	0.0885	419482	keystroke_f	f	n/a
209.876	0.1125	419752	keystroke_o	o	n/a
209.941	0.0715	419882	keystroke_r	r	n/a
210.1805	0.112	420361	keystroke_c	c	n/a
210.8205	0.128	421641	keystroke_e	e	n/a
210.9325	0.144	421865	keystroke_Key.space	Key.space	n/a
211.1645	0.096	422329	keystroke_f	f	n/a
211.349	0.144	422698	keystroke_l	l	n/a
211.453	0.128	422906	keystroke_a	a	n/a
211.605	0.0635	423210	keystroke_t	t	n/a
211.773	0.104	423546	keystroke_Key.enter	Key.enter	n/a
211.8835	5.939	423767	prompt	n/a	noise restricted adoption ours\n
212.733	0.0955	425466	keystroke_n	n	n/a
212.9565	0.072	425913	keystroke_o	o	n/a
213.1405	0.096	426281	keystroke_i	i	n/a
213.2285	0.16	426457	keystroke_s	s	n/a
213.3325	0.12	426665	keystroke_e	e	n/a
213.4525	0.152	426905	keystroke_Key.space	Key.space	n/a
213.8045	0.184	427609	keystroke_r	r	n/a
213.9165	0.112	427833	keystroke_e	e	n/a
214.0935	0.127	428187	keystroke_s	s	n/a
214.2285	0.064	428457	keystroke_t	t	n/a
214.381	0.072	428762	keystroke_r	r	n/a
214.517	0.104	429034	keystroke_i	i	n/a
214.613	0.08	429226	keystroke_c	c	n/a
214.861	0.112	429722	keystroke_t	t	n/a
214.965	0.12	429930	keystroke_e	e	n/a
215.157	0.104	430314	keystroke_d	d	n/a
215.213	0.1835	430426	keystroke_Key.space	Key.space	n/a
215.3565	0.128	430713	keystroke_a	a	n/a
215.5325	0.08	431065	keystroke_d	d	n/a
216.1725	0.12	432345	keystroke_o	o	n/a
216.3805	0.12	432761	keystroke_p	p	n/a
216.5245	0.088	433049	keystroke_t	t	n/a
216.6365	0.08	433273	keystroke_i	i	n/a
216.7325	0.104	433465	keystroke_o	o	n/a
216.8285	0.128	433657	keystroke_n	n	n/a
216.9085	0.12	433817	keystroke_Key.space	Key.space	n/a
217.0685	0.152	434137	keystroke_o	o	n/a
217.2125	0.144	434425	keystroke_u	u	n/a
217.3485	0.08	434697	keystroke_r	r	n/a
217.5165	0.088	435033	keystroke_s	s	n/a
217.7165	0.104	435433	keystroke_Key.enter	Key.enter	n/a
217.8275	4.4665	435655	prompt	n/a	today rated threat unions\n
218.636	0.112	437272	keystroke_t	t	n/a
218.732	0.129	437464	keystroke_o	o	n/a
218.788	0.152	437576	keystroke_d	d	n/a
218.892	0.128	437784	keystroke_a	a	n/a
218.996	0.128	437992	keystroke_y	y	n/a
219.076	0.192	438152	keystroke_Key.space	Key.space	n/a
219.252	0.105	438504	keystroke_r	r	n/a
219.348	0.145	438696	keystroke_a	a	n/a
219.461	0.128	438922	keystroke_t	t	n/a
219.597	0.088	439194	keystroke_e	e	n/a
219.757	0.096	439514	keystroke_d	d	n/a
219.821	0.136	439642	keystroke_Key.space	Key.space	n/a
219.981	0.072	439962	keystroke_t	t	n/a
220.077	0.12	440154	keystroke_h	h	n/a
220.205	0.144	440410	keystroke_r	r	n/a
220.301	0.176	440602	keystroke_e	e	n/a
220.445	0.184	440890	keystroke_a	a	n/a
220.589	0.096	441178	keystroke_t	t	n/a
220.965	0.152	441930	keystroke_Key.space	Key.space	n/a
221.357	0.096	442714	keystroke_u	u	n/a
221.565	0.1035	443130	keystroke_n	n	n/a
221.7165	0.064	443433	keystroke_i	i	n/a
221.8285	0.152	443657	keystroke_o	o	n/a
221.9245	0.136	443849	keystroke_n	n	n/a
222.0285	0.096	444057	keystroke_s	s	n/a
222.1725	0.1195	444345	keystroke_Key.enter	Key.enter	n/a
222.2965	15.1415	444593	prompt	n/a	genre comparisons beat analyzed\n
223.052	0.096	446104	keystroke_g	g	n/a
223.252	0.0725	446504	keystroke_e	e	n/a
223.3965	0.12	446793	keystroke_n	n	n/a
223.5645	0.104	447129	keystroke_r	r	n/a
223.717	0.1115	447434	keystroke_e	e	n/a
223.8445	0.128	447689	keystroke_Key.space	Key.space	n/a
224.0285	0.128	448057	keystroke_c	c	n/a
224.1405	0.112	448281	keystroke_o	o	n/a
224.2685	0.112	448537	keystroke_m	m	n/a
224.4125	0.16	448825	keystroke_p	p	n/a
224.5485	0.136	449097	keystroke_a	a	n/a
224.6445	0.088	449289	keystroke_r	r	n/a
224.7725	0.072	449545	keystroke_i	i	n/a
224.8765	0.1525	449753	keystroke_o	o	n/a
224.989	0.144	449978	keystroke_n	n	n/a
225.101	0.128	450202	keystroke_s	s	n/a
225.205	0.136	450410	keystroke_Key.space	Key.space	n/a
225.661	0.12	451322	keystroke_b	b	n/a
225.757	0.08	451514	keystroke_e	e	n/a
225.805	0.12	451610	keystroke_a	a	n/a
226.005	0.112	452010	keystroke_t	t	n/a
226.101	0.136	452202	keystroke_Key.space	Key.space	n/a
226.716	0.128	453432	keystroke_a	a	n/a
226.845	0.127	453690	keystroke_n	n	n/a
226.9	0.113	453800	keystroke_a	a	n/a
227.084	0.096	454168	keystroke_l	l	n/a
227.308	0.112	454616	keystroke_y	y	n/a
227.636	0.096	455272	keystroke_z	z	n/a
227.884	0.056	455768	keystroke_e	e	n/a
228.036	0.08	456072	keystroke_d	d	n/a
235.668	0.088	471336	keystroke_s	s	n/a
237.332	0.104	474664	keystroke_Key.enter	Key.enter	n/a
237.4425	13.995	474885	prompt	n/a	recipient besides width evident\n
238.861	0.168	477722	keystroke_r	r	n/a
238.98	0.136	477960	keystroke_e	e	n/a
239.165	0.08	478330	keystroke_c	c	n/a
239.276	0.113	478552	keystroke_u	u	n/a
239.421	0.144	478842	keystroke_o	o	n/a
240.2525	0.072	480505	keystroke_=	=	n/a
241.3805	0.104	482761	keystroke_Key.backspace	Key.backspace	n/a
241.6205	0.08	483241	keystroke_Key.backspace	Key.backspace	n/a
241.8845	0.096	483769	keystroke_Key.backspace	Key.backspace	n/a
242.62	0.12	485240	keystroke_i	i	n/a
243.316	0.112	486632	keystroke_o	o	n/a
244.3325	0.0875	488665	keystroke_Key.backspace	Key.backspace	n/a
244.724	0.08	489448	keystroke_p	p	n/a
245.004	0.08	490008	keystroke_i	i	n/a
245.132	0.096	490264	keystroke_e	e	n/a
245.292	0.088	490584	keystroke_b	b	n/a
246.2365	0.096	492473	keystroke_Key.backspace	Key.backspace	n/a
246.7005	0.0955	493401	keystroke_n	n	n/a
247.14	0.192	494280	keystroke_t	t	n/a
247.333	0.127	494666	keystroke_Key.space	Key.space	n/a
247.78	0.128	495560	keystroke_b	b	n/a
247.86	0.064	495720	keystroke_e	e	n/a
247.972	0.112	495944	keystroke_s	s	n/a
248.14	0.096	496280	keystroke_i	i	n/a
248.244	0.064	496488	keystroke_d	d	n/a
248.452	0.192	496904	keystroke_e	e	n/a
248.54	0.136	497080	keystroke_s	s	n/a
248.652	0.152	497304	keystroke_Key.space	Key.space	n/a
248.836	0.144	497672	keystroke_w	w	n/a
249.012	0.08	498024	keystroke_i	i	n/a
249.268	0.088	498536	keystroke_d	d	n/a
249.6125	0.079	499225	keystroke_t	t	n/a
249.7475	0.097	499495	keystroke_h	h	n/a
249.8595	0.152	499719	keystroke_Key.space	Key.space	n/a
250.0205	0.063	500041	keystroke_e	e	n/a
250.1795	0.088	500359	keystroke_v	v	n/a
250.3235	0.096	500647	keystroke_i	i	n/a
250.4285	0.064	500857	keystroke_d	d	n/a
250.5955	0.056	501191	keystroke_e	e	n/a
250.6835	0.12	501367	keystroke_n	n	n/a
250.8115	0.0565	501623	keystroke_t	t	n/a
251.3555	0.08	502711	keystroke_Key.enter	Key.enter	n/a
251.441	6.8445	502882	prompt	n/a	country climbing stuffed byte\n
252.8115	0.128	505623	keystroke_c	c	n/a
253.0195	0.144	506039	keystroke_o	o	n/a
253.1395	0.088	506279	keystroke_u	u	n/a
253.3315	0.096	506663	keystroke_n	n	n/a
253.3715	0.073	506743	keystroke_t	t	n/a
253.5315	0.072	507063	keystroke_r	r	n/a
253.6435	0.104	507287	keystroke_y	y	n/a
253.7635	0.104	507527	keystroke_Key.space	Key.space	n/a
254.2355	0.08	508471	keystroke_c	c	n/a
254.3635	0.152	508727	keystroke_l	l	n/a
254.5795	0.08	509159	keystroke_i	i	n/a
254.7475	0.112	509495	keystroke_m	m	n/a
254.98	0.088	509960	keystroke_b	b	n/a
255.196	0.08	510392	keystroke_i	i	n/a
255.324	0.176	510648	keystroke_n	n	n/a
255.444	0.176	510888	keystroke_g	g	n/a
255.564	0.144	511128	keystroke_Key.space	Key.space	n/a
255.7	0.096	511400	keystroke_s	s	n/a
255.86	0.064	511720	keystroke_t	t	n/a
255.972	0.128	511944	keystroke_u	u	n/a
256.084	0.048	512168	keystroke_f	f	n/a
256.196	0.072	512392	keystroke_f	f	n/a
256.452	0.056	512904	keystroke_e	e	n/a
256.62	0.088	513240	keystroke_d	d	n/a
256.716	0.12	513432	keystroke_Key.space	Key.space	n/a
257.244	0.104	514488	keystroke_b	b	n/a
257.492	0.112	514984	keystroke_y	y	n/a
257.676	0.064	515352	keystroke_t	t	n/a
257.852	0.072	515704	keystroke_e	e	n/a
258.172	0.112	516344	keystroke_Key.enter	Key.enter	n/a
258.2885	15.205	516577	prompt	n/a	alan acts cologne experienced\n
259.1	0.112	518200	keystroke_a	a	n/a
259.244	0.136	518488	keystroke_l	l	n/a
259.332	0.12	518664	keystroke_a	a	n/a
259.508	0.112	519016	keystroke_n	n	n/a
259.748	0.128	519496	keystroke_Key.space	Key.space	n/a
260.012	0.176	520024	keystroke_a	a	n/a
260.18	0.072	520360	keystroke_c	c	n/a
260.404	0.088	520808	keystroke_t	t	n/a
260.732	0.112	521464	keystroke_s	s	n/a
260.852	0.112	521704	keystroke_Key.space	Key.space	n/a
261.204	0.096	522408	keystroke_c	c	n/a
261.348	0.08	522696	keystroke_o	o	n/a
261.508	0.096	523016	keystroke_l	l	n/a
261.98	0.08	523960	keystroke_g	g	n/a
262.204	0.128	524408	keystroke_n	n	n/a
262.3475	0.1045	524695	keystroke_e	e	n/a
262.444	0.112	524888	keystroke_Key.space	Key.space	n/a
262.692	0.064	525384	keystroke_e	e	n/a
262.86	0.104	525720	keystroke_x	x	n/a
262.988	0.1195	525976	keystroke_p	p	n/a
263.109	0.095	526218	keystroke_e	e	n/a
263.18	0.056	526360	keystroke_r	r	n/a
263.348	0.072	526696	keystroke_e	e	n/a
263.364	0.088	526728	keystroke_i	i	n/a
263.588	0.12	527176	keystroke_n	n	n/a
263.636	0.12	527272	keystroke_c	c	n/a
264.036	0.048	528072	keystroke_Key.backspace	Key.backspace	n/a
264.18	0.072	528360	keystroke_Key.backspace	Key.backspace	n/a
264.324	0.072	528648	keystroke_Key.backspace	Key.backspace	n/a
264.468	0.096	528936	keystroke_Key.backspace	Key.backspace	n/a
264.772	0.08	529544	keystroke_i	i	n/a
264.884	0.08	529768	keystroke_e	e	n/a
264.988	0.12	529976	keystroke_n	n	n/a
265.076	0.072	530152	keystroke_c	c	n/a
265.316	0.064	530632	keystroke_e	e	n/a
265.476	0.072	530952	keystroke_d	d	n/a
270.3315	0.088	540663	keystroke_o	o	n/a
273.42	0.072	546840	keystroke_Key.enter	Key.enter	n/a
273.496	8.741	546992	prompt	n/a	dense scratch radio lucky\n
276.844	0.088	553688	keystroke_d	d	n/a
277.028	0.072	554056	keystroke_e	e	n/a
277.644	0.104	555288	keystroke_n	n	n/a
277.788	0.184	555576	keystroke_s	s	n/a
277.916	0.144	555832	keystroke_e	e	n/a
278.028	0.128	556056	keystroke_Key.space	Key.space	n/a
278.476	0.136	556952	keystroke_s	s	n/a
278.652	0.08	557304	keystroke_c	c	n/a
278.884	0.08	557768	keystroke_r	r	n/a
278.972	0.144	557944	keystroke_a	a	n/a
279.172	0.088	558344	keystroke_t	t	n/a
279.396	0.088	558792	keystroke_c	c	n/a
279.548	0.128	559096	keystroke_h	h	n/a
279.668	0.144	559336	keystroke_Key.space	Key.space	n/a
279.82	0.128	559640	keystroke_r	r	n/a
279.908	0.136	559816	keystroke_a	a	n/a
280.084	0.08	560168	keystroke_d	d	n/a
280.228	0.063	560456	keystroke_i	i	n/a
280.388	0.08	560776	keystroke_o	o	n/a
280.531	0.12	561062	keystroke_Key.space	Key.space	n/a
280.875	0.121	561750	keystroke_l	l	n/a
281.075	0.12	562150	keystroke_u	u	n/a
281.188	0.087	562376	keystroke_c	c	n/a
281.291	0.104	562582	keystroke_k	k	n/a
281.531	0.12	563062	keystroke_y	y	n/a
282.131	0.1045	564262	keystroke_Key.enter	Key.enter	n/a
282.24	7.029	564480	prompt	n/a	threatening promote wanted obligations\n
282.9635	0.088	565927	keystroke_t	t	n/a
283.0835	0.128	566167	keystroke_h	h	n/a
283.1795	0.144	566359	keystroke_r	r	n/a
283.2675	0.128	566535	keystroke_e	e	n/a
283.3715	0.168	566743	keystroke_a	a	n/a
283.4995	0.0965	566999	keystroke_t	t	n/a
283.9	0.088	567800	keystroke_e	e	n/a
284.028	0.136	568056	keystroke_n	n	n/a
284.268	0.088	568536	keystroke_i	i	n/a
284.364	0.16	568728	keystroke_n	n	n/a
284.468	0.12	568936	keystroke_g	g	n/a
284.556	0.128	569112	keystroke_Key.space	Key.space	n/a
284.764	0.096	569528	keystroke_p	p	n/a
284.82	0.08	569640	keystroke_r	r	n/a
284.948	0.104	569896	keystroke_o	o	n/a
285.116	0.112	570232	keystroke_m	m	n/a
286.076	0.096	572152	keystroke_o	o	n/a
286.18	0.112	572360	keystroke_t	t	n/a
286.276	0.104	572552	keystroke_e	e	n/a
286.356	0.16	572712	keystroke_Key.space	Key.space	n/a
286.484	0.128	572968	keystroke_w	w	n/a
286.588	0.152	573176	keystroke_a	a	n/a
286.7	0.144	573400	keystroke_n	n	n/a
286.756	0.12	573512	keystroke_t	t	n/a
286.86	0.096	573720	keystroke_e	e	n/a
287.036	0.16	574072	keystroke_d	d	n/a
287.156	0.12	574312	keystroke_Key.space	Key.space	n/a
287.492	0.104	574984	keystroke_o	o	n/a
287.644	0.096	575288	keystroke_b	b	n/a
287.804	0.152	575608	keystroke_l	l	n/a
287.924	0.136	575848	keystroke_i	i	n/a
288.084	0.096	576168	keystroke_g	g	n/a
288.22	0.1435	576440	keystroke_a	a	n/a
288.3715	0.08	576743	keystroke_t	t	n/a
288.4675	0.08	576935	keystroke_i	i	n/a
288.5635	0.168	577127	keystroke_o	o	n/a
288.6595	0.1525	577319	keystroke_n	n	n/a
288.7395	0.0805	577479	keystroke_s	s	n/a
289.164	0.104	578328	keystroke_Key.enter	Key.enter	n/a
289.2735	5.0755	578547	prompt	n/a	regulated generation meta saudi\n
290.0435	0.152	580087	keystroke_r	r	n/a
290.1315	0.12	580263	keystroke_e	e	n/a
290.2915	0.0875	580583	keystroke_g	g	n/a
290.3875	0.088	580775	keystroke_u	u	n/a
290.5155	0.152	581031	keystroke_l	l	n/a
290.5955	0.144	581191	keystroke_a	a	n/a
290.6835	0.128	581367	keystroke_t	t	n/a
290.8195	0.088	581639	keystroke_e	e	n/a
290.9715	0.1205	581943	keystroke_d	d	n/a
291.052	0.128	582104	keystroke_Key.space	Key.space	n/a
291.284	0.088	582568	keystroke_g	g	n/a
291.42	0.064	582840	keystroke_e	e	n/a
291.492	0.128	582984	keystroke_n	n	n/a
291.564	0.096	583128	keystroke_e	e	n/a
291.7	0.096	583400	keystroke_r	r	n/a
291.78	0.152	583560	keystroke_a	a	n/a
291.916	0.096	583832	keystroke_t	t	n/a
292.028	0.064	584056	keystroke_i	i	n/a
292.1	0.151	584200	keystroke_o	o	n/a
292.203	0.137	584406	keystroke_n	n	n/a
292.276	0.119	584552	keystroke_Key.space	Key.space	n/a
292.459	0.144	584918	keystroke_m	m	n/a
292.547	0.08	585094	keystroke_e	e	n/a
292.732	0.087	585464	keystroke_t	t	n/a
292.812	0.143	585624	keystroke_a	a	n/a
292.947	0.144	585894	keystroke_Key.space	Key.space	n/a
293.076	0.135	586152	keystroke_s	s	n/a
293.476	0.119	586952	keystroke_a	a	n/a
293.659	0.112	587318	keystroke_u	u	n/a
293.827	0.072	587654	keystroke_d	d	n/a
294.02	0.071	588040	keystroke_i	i	n/a
294.259	0.088	588518	keystroke_Key.enter	Key.enter	n/a
294.352	7.149	588704	prompt	n/a	catalogue genius globe educators\n
295.171	0.136	590342	keystroke_c	c	n/a
295.5875	0.112	591175	keystroke_a	a	n/a
295.8515	0.088	591703	keystroke_t	t	n/a
295.9875	0.128	591975	keystroke_a	a	n/a
296.8195	0.096	593639	keystroke_l	l	n/a
297.0355	0.096	594071	keystroke_o	o	n/a
297.1875	0.064	594375	keystroke_g	g	n/a
297.3235	0.088	594647	keystroke_u	u	n/a
297.4515	0.12	594903	keystroke_e	e	n/a
297.5155	0.112	595031	keystroke_Key.space	Key.space	n/a
297.9795	0.088	595959	keystroke_g	g	n/a
298.1075	0.072	596215	keystroke_e	e	n/a
298.2115	0.104	596423	keystroke_n	n	n/a
298.4195	0.064	596839	keystroke_i	i	n/a
298.6115	0.096	597223	keystroke_u	u	n/a
298.7235	0.136	597447	keystroke_s	s	n/a
298.8195	0.12	597639	keystroke_Key.space	Key.space	n/a
299.1155	0.088	598231	keystroke_g	g	n/a
299.2675	0.072	598535	keystroke_l	l	n/a
299.4355	0.072	598871	keystroke_o	o	n/a
299.6035	0.104	599207	keystroke_b	b	n/a
299.7475	0.128	599495	keystroke_e	e	n/a
299.8675	0.136	599735	keystroke_Key.space	Key.space	n/a
300.1475	0.064	600295	keystroke_e	e	n/a
300.2995	0.072	600599	keystroke_d	d	n/a
300.4835	0.128	600967	keystroke_u	u	n/a
300.5635	0.096	601127	keystroke_c	c	n/a
300.6915	0.136	601383	keystroke_a	a	n/a
300.8355	0.064	601671	keystroke_t	t	n/a
300.9475	0.112	601895	keystroke_o	o	n/a
301.0435	0.072	602087	keystroke_r	r	n/a
301.1875	0.08	602375	keystroke_s	s	n/a
301.3955	0.104	602791	keystroke_Key.enter	Key.enter	n/a
301.504	12.1245	603008	prompt	n/a	boards you've nintendo lord\n
302.3795	0.096	604759	keystroke_b	b	n/a
302.5795	0.128	605159	keystroke_o	o	n/a
302.6435	0.168	605287	keystroke_a	a	n/a
302.7715	0.136	605543	keystroke_r	r	n/a
302.9315	0.088	605863	keystroke_d	d	n/a
303.0915	0.136	606183	keystroke_s	s	n/a
303.2035	0.128	606407	keystroke_Key.space	Key.space	n/a
303.3635	0.128	606727	keystroke_y	y	n/a
303.5155	0.216	607031	keystroke_o	o	n/a
303.9555	0.088	607911	keystroke_u	u	n/a
304.1715	0.112	608343	keystroke_'	'	n/a
304.5315	0.08	609063	keystroke_v	v	n/a
304.7395	0.112	609479	keystroke_e	e	n/a
304.8275	0.128	609655	keystroke_Key.space	Key.space	n/a
305.0195	0.096	610039	keystroke_n	n	n/a
305.1955	0.064	610391	keystroke_i	i	n/a
305.3235	0.12	610647	keystroke_n	n	n/a
305.4755	0.072	610951	keystroke_e	e	n/a
305.6995	0.072	611399	keystroke_t	t	n/a
305.8595	0.064	611719	keystroke_e	e	n/a
306.5155	0.088	613031	keystroke_Key.backspace	Key.backspace	n/a
306.6755	0.112	613351	keystroke_Key.backspace	Key.backspace	n/a
307.4915	0.08	614983	keystroke_Key.backspace	Key.backspace	n/a
308.0755	0.096	616151	keystroke_t	t	n/a
308.3075	0.08	616615	keystroke_e	e	n/a
308.4035	0.096	616807	keystroke_n	n	n/a
308.5315	0.08	617063	keystroke_d	d	n/a
308.7315	0.08	617463	keystroke_o	o	n/a
308.8595	0.112	617719	keystroke_Key.space	Key.space	n/a
309.3475	0.1035	618695	keystroke_l	l	n/a
309.555	0.1205	619110	keystroke_o	o	n/a
309.627	0.129	619254	keystroke_r	r	n/a
309.715	0.152	619430	keystroke_d	d	n/a
313.515	0.112	627030	keystroke_Key.enter	Key.enter	n/a
313.632	6.8445	627264	prompt	n/a	tony levels repeat packard\n
314.659	0.12	629318	keystroke_t	t	n/a
315.035	0.096	630070	keystroke_i	i	n/a
315.275	0.104	630550	keystroke_b	b	n/a
315.659	0.088	631318	keystroke_Key.backspace	Key.backspace	n/a
315.827	0.104	631654	keystroke_Key.backspace	Key.backspace	n/a
316.339	0.104	632678	keystroke_o	o	n/a
316.555	0.112	633110	keystroke_n	n	n/a
316.859	0.128	633718	keystroke_y	y	n/a
317.147	0.16	634294	keystroke_Key.space	Key.space	n/a
317.483	0.168	634966	keystroke_l	l	n/a
317.571	0.096	635142	keystroke_e	e	n/a
317.739	0.064	635478	keystroke_v	v	n/a
317.859	0.064	635718	keystroke_e	e	n/a
317.955	0.12	635910	keystroke_l	l	n/a
318.067	0.112	636134	keystroke_s	s	n/a
318.171	0.152	636342	keystroke_Key.space	Key.space	n/a
318.299	0.144	636598	keystroke_r	r	n/a
318.387	0.12	636774	keystroke_e	e	n/a
318.531	0.144	637062	keystroke_p	p	n/a
318.579	0.128	637158	keystroke_e	e	n/a
318.683	0.16	637366	keystroke_a	a	n/a
318.819	0.096	637638	keystroke_t	t	n/a
318.955	0.136	637910	keystroke_Key.space	Key.space	n/a
319.363	0.144	638726	keystroke_p	p	n/a
319.459	0.168	638918	keystroke_a	a	n/a
319.595	0.104	639190	keystroke_c	c	n/a
319.715	0.096	639430	keystroke_k	k	n/a
319.819	0.144	639638	keystroke_a	a	n/a
319.947	0.08	639894	keystroke_r	r	n/a
320.107	0.088	640214	keystroke_d	d	n/a
320.363	0.112	640726	keystroke_Key.enter	Key.enter	n/a
320.4805	9.244	640961	prompt	n/a	it'll token charleston thomson\n
321.283	0.096	642566	keystroke_i	i	n/a
322.051	0.104	644102	keystroke_t	t	n/a
322.347	0.112	644694	keystroke_'	'	n/a
322.627	0.072	645254	keystroke_l	l	n/a
322.755	0.088	645510	keystroke_l	l	n/a
322.867	0.128	645734	keystroke_Key.space	Key.space	n/a
323.179	0.096	646358	keystroke_t	t	n/a
323.299	0.096	646598	keystroke_o	o	n/a
323.515	0.072	647030	keystroke_k	k	n/a
323.611	0.056	647222	keystroke_e	e	n/a
323.699	0.104	647398	keystroke_n	n	n/a
323.771	0.12	647542	keystroke_Key.space	Key.space	n/a
323.995	0.088	647990	keystroke_c	c	n/a
324.107	0.12	648214	keystroke_h	h	n/a
324.203	0.104	648406	keystroke_a	a	n/a
324.275	0.08	648550	keystroke_r	r	n/a
324.403	0.1365	648806	keystroke_l	l	n/a
324.4675	0.08	648935	keystroke_e	e	n/a
324.5955	0.1115	649191	keystroke_s	s	n/a
324.8595	0.064	649719	keystroke_t	t	n/a
324.9555	0.072	649911	keystroke_o	o	n/a
325.3235	0.112	650647	keystroke_n	n	n/a
325.5155	0.128	651031	keystroke_Key.space	Key.space	n/a
325.7955	0.08	651591	keystroke_t	t	n/a
325.8915	0.112	651783	keystroke_h	h	n/a
326.0755	0.088	652151	keystroke_o	o	n/a
326.2595	0.12	652519	keystroke_m	m	n/a
326.9635	0.08	653927	keystroke_s	s	n/a
327.1315	0.104	654263	keystroke_o	o	n/a
327.2835	0.12	654567	keystroke_n	n	n/a
329.6115	0.111	659223	keystroke_Key.enter	Key.enter	n/a
329.732	6.4325	659464	prompt	n/a	sake nested michael standards\n
330.6355	0.152	661271	keystroke_s	s	n/a
330.7955	0.136	661591	keystroke_a	a	n/a
330.9545	0.129	661909	keystroke_k	k	n/a
331.0595	0.144	662119	keystroke_e	e	n/a
331.1625	0.112	662325	keystroke_Key.space	Key.space	n/a
331.2835	0.119	662567	keystroke_n	n	n/a
331.3875	0.071	662775	keystroke_e	e	n/a
331.5545	0.08	663109	keystroke_s	s	n/a
331.7465	0.112	663493	keystroke_t	t	n/a
331.9065	0.048	663813	keystroke_e	e	n/a
332.0265	0.153	664053	keystroke_d	d	n/a
332.1625	0.104	664325	keystroke_Key.space	Key.space	n/a
332.2905	0.112	664581	keystroke_m	m	n/a
332.4745	0.112	664949	keystroke_i	i	n/a
332.5465	0.072	665093	keystroke_c	c	n/a
332.7145	0.097	665429	keystroke_h	h	n/a
333.2425	0.113	666485	keystroke_a	a	n/a
333.4185	0.064	666837	keystroke_e	e	n/a
333.5225	0.121	667045	keystroke_l	l	n/a
333.6105	0.12	667221	keystroke_Key.space	Key.space	n/a
333.7065	0.08	667413	keystroke_s	s	n/a
333.8435	0.103	667687	keystroke_t	t	n/a
333.9785	0.112	667957	keystroke_a	a	n/a
334.1545	0.096	668309	keystroke_n	n	n/a
334.3305	0.096	668661	keystroke_d	d	n/a
334.5305	0.16	669061	keystroke_a	a	n/a
334.6665	0.112	669333	keystroke_r	r	n/a
334.7705	0.112	669541	keystroke_d	d	n/a
335.0185	0.08	670037	keystroke_s	s	n/a
336.0665	0.096	672133	keystroke_Key.enter	Key.enter	n/a
336.168	9.6125	672336	prompt	n/a	prairie disagree returns democratic\n
336.9465	0.224	673893	keystroke_p	p	n/a
337.4025	0.128	674805	keystroke_r	r	n/a
337.5315	0.167	675063	keystroke_a	a	n/a
337.8585	0.08	675717	keystroke_i	i	n/a
338.7705	0.104	677541	keystroke_r	r	n/a
338.9145	0.128	677829	keystroke_i	i	n/a
339.0105	0.112	678021	keystroke_e	e	n/a
339.1145	0.152	678229	keystroke_Key.space	Key.space	n/a
339.2425	0.104	678485	keystroke_d	d	n/a
339.3545	0.136	678709	keystroke_i	i	n/a
339.4665	0.08	678933	keystroke_s	s	n/a
339.5865	0.136	679173	keystroke_a	a	n/a
339.7385	0.064	679477	keystroke_g	g	n/a
339.9385	0.088	679877	keystroke_r	r	n/a
340.1385	0.056	680277	keystroke_e	e	n/a
340.2585	0.088	680517	keystroke_e	e	n/a
340.3865	0.104	680773	keystroke_Key.space	Key.space	n/a
340.5705	0.12	681141	keystroke_r	r	n/a
340.6505	0.112	681301	keystroke_e	e	n/a
340.7785	0.072	681557	keystroke_t	t	n/a
340.9065	0.104	681813	keystroke_u	u	n/a
340.9625	0.088	681925	keystroke_r	r	n/a
341.1305	0.12	682261	keystroke_n	n	n/a
341.2745	0.144	682549	keystroke_s	s	n/a
341.4025	0.144	682805	keystroke_Key.space	Key.space	n/a
341.6025	0.112	683205	keystroke_d	d	n/a
341.8345	0.08	683669	keystroke_e	e	n/a
341.9785	0.104	683957	keystroke_m	m	n/a
342.1865	0.104	684373	keystroke_o	o	n/a
342.4105	0.088	684821	keystroke_c	c	n/a
342.6425	0.12	685285	keystroke_r	r	n/a
342.7545	0.088	685509	keystroke_a	a	n/a
342.7865	0.032	685573	keystroke_q	q	n/a
343.4025	0.152	686805	keystroke_Key.backspace	Key.backspace	n/a
345.011	0.088	690022	keystroke_t	t	n/a
345.123	0.12	690246	keystroke_i	i	n/a
345.259	0.136	690518	keystroke_c	c	n/a
345.635	0.144	691270	keystroke_Key.enter	Key.enter	n/a
345.7835	8.3325	691567	prompt	n/a	calcium maintained accomplish indie\n
346.531	0.136	693062	keystroke_a	a	n/a
346.891	0.112	693782	keystroke_Key.backspace	Key.backspace	n/a
346.971	0.096	693942	keystroke_c	c	n/a
347.091	0.12	694182	keystroke_a	a	n/a
347.227	0.152	694454	keystroke_l	l	n/a
347.531	0.104	695062	keystroke_c	c	n/a
347.723	0.088	695446	keystroke_i	i	n/a
347.939	0.096	695878	keystroke_u	u	n/a
348.203	0.12	696406	keystroke_m	m	n/a
348.371	0.128	696742	keystroke_Key.space	Key.space	n/a
348.739	0.096	697478	keystroke_a	a	n/a
349.179	0.096	698358	keystroke_Key.backspace	Key.backspace	n/a
349.443	0.152	698886	keystroke_m	m	n/a
349.587	0.12	699174	keystroke_a	a	n/a
349.707	0.08	699414	keystroke_i	i	n/a
349.811	0.152	699622	keystroke_n	n	n/a
349.947	0.112	699894	keystroke_t	t	n/a
350.107	0.056	700214	keystroke_a	a	n/a
350.187	0.072	700374	keystroke_i	i	n/a
350.315	0.136	700630	keystroke_n	n	n/a
350.443	0.064	700886	keystroke_e	e	n/a
350.603	0.152	701206	keystroke_d	d	n/a
350.747	0.112	701494	keystroke_Key.space	Key.space	n/a
350.939	0.12	701878	keystroke_a	a	n/a
351.195	0.056	702390	keystroke_c	c	n/a
351.267	0.096	702534	keystroke_c	c	n/a
351.451	0.08	702902	keystroke_o	o	n/a
351.939	0.144	703878	keystroke_m	m	n/a
352.187	0.104	704374	keystroke_p	p	n/a
352.699	0.088	705398	keystroke_l	l	n/a
352.899	0.072	705798	keystroke_i	i	n/a
353.003	0.0795	706006	keystroke_s	s	n/a
353.0835	0.0955	706167	keystroke_h	h	n/a
353.179	0.12	706358	keystroke_Key.space	Key.space	n/a
353.275	0.072	706550	keystroke_i	i	n/a
353.387	0.136	706774	keystroke_n	n	n/a
353.491	0.088	706982	keystroke_d	d	n/a
353.651	0.088	707302	keystroke_i	i	n/a
353.795	0.072	707590	keystroke_e	e	n/a
353.995	0.12	707990	keystroke_Key.enter	Key.enter	n/a
354.1185	7.5415	708237	prompt	n/a	screensavers homework telephone competitive\n
354.867	0.12	709734	keystroke_s	s	n/a
355.059	0.079	710118	keystroke_c	c	n/a
355.274	0.129	710548	keystroke_r	r	n/a
355.419	0.087	710838	keystroke_e	e	n/a
355.522	0.08	711044	keystroke_e	e	n/a
355.866	0.096	711732	keystroke_n	n	n/a
356.362	0.08	712724	keystroke_s	s	n/a
356.466	0.16	712932	keystroke_a	a	n/a
356.627	0.079	713254	keystroke_v	v	n/a
356.858	0.16	713716	keystroke_e	e	n/a
357.002	0.128	714004	keystroke_r	r	n/a
357.122	0.144	714244	keystroke_s	s	n/a
357.234	0.136	714468	keystroke_Key.space	Key.space	n/a
357.378	0.12	714756	keystroke_h	h	n/a
357.482	0.16	714964	keystroke_o	o	n/a
357.618	0.176	715236	keystroke_m	m	n/a
357.714	0.064	715428	keystroke_e	e	n/a
357.834	0.104	715668	keystroke_w	w	n/a
357.97	0.072	715940	keystroke_o	o	n/a
358.026	0.072	716052	keystroke_r	r	n/a
358.13	0.12	716260	keystroke_k	k	n/a
358.258	0.104	716516	keystroke_Key.space	Key.space	n/a
358.506	0.08	717012	keystroke_t	t	n/a
358.642	0.096	717284	keystroke_e	e	n/a
358.762	0.12	717524	keystroke_l	l	n/a
358.858	0.056	717716	keystroke_e	e	n/a
359.106	0.12	718212	keystroke_p	p	n/a
359.29	0.128	718580	keystroke_h	h	n/a
359.434	0.168	718868	keystroke_o	o	n/a
359.538	0.16	719076	keystroke_n	n	n/a
359.626	0.128	719252	keystroke_e	e	n/a
359.722	0.176	719444	keystroke_Key.space	Key.space	n/a
359.842	0.096	719684	keystroke_c	c	n/a
359.93	0.152	719860	keystroke_o	o	n/a
360.026	0.128	720052	keystroke_m	m	n/a
360.1865	0.1515	720373	keystroke_p	p	n/a
360.298	0.104	720596	keystroke_e	e	n/a
360.682	0.08	721364	keystroke_t	t	n/a
360.818	0.072	721636	keystroke_i	i	n/a
360.891	0.063	721782	keystroke_t	t	n/a
360.994	0.088	721988	keystroke_i	i	n/a
361.098	0.088	722196	keystroke_v	v	n/a
361.322	0.072	722644	keystroke_e	e	n/a
361.506	0.152	723012	keystroke_Key.enter	Key.enter	n/a
361.664	5.34	723328	prompt	n/a	probably sessions america tops\n
362.3225	0.104	724645	keystroke_p	p	n/a
362.4185	0.088	724837	keystroke_r	r	n/a
362.5145	0.088	725029	keystroke_o	o	n/a
362.6665	0.104	725333	keystroke_b	b	n/a
362.7625	0.112	725525	keystroke_a	a	n/a
362.8265	0.112	725653	keystroke_b	b	n/a
363.131	0.12	726262	keystroke_l	l	n/a
363.355	0.136	726710	keystroke_y	y	n/a
363.467	0.16	726934	keystroke_Key.space	Key.space	n/a
363.571	0.12	727142	keystroke_s	s	n/a
363.667	0.08	727334	keystroke_e	e	n/a
363.819	0.056	727638	keystroke_s	s	n/a
363.939	0.088	727878	keystroke_s	s	n/a
364.091	0.104	728182	keystroke_i	i	n/a
364.179	0.176	728358	keystroke_o	o	n/a
364.291	0.176	728582	keystroke_n	n	n/a
364.371	0.128	728742	keystroke_s	s	n/a
364.475	0.12	728950	keystroke_Key.space	Key.space	n/a
364.731	0.112	729462	keystroke_a	a	n/a
364.891	0.152	729782	keystroke_m	m	n/a
365.003	0.152	730006	keystroke_e	e	n/a
365.107	0.096	730214	keystroke_r	r	n/a
365.267	0.112	730534	keystroke_i	i	n/a
365.515	0.08	731030	keystroke_c	c	n/a
365.643	0.152	731286	keystroke_a	a	n/a
365.803	0.112	731606	keystroke_Key.space	Key.space	n/a
365.971	0.104	731942	keystroke_t	t	n/a
366.075	0.128	732150	keystroke_o	o	n/a
366.251	0.152	732502	keystroke_p	p	n/a
366.611	0.08	733222	keystroke_s	s	n/a
366.875	0.127	733750	keystroke_Key.enter	Key.enter	n/a
367.007	8.0045	734014	prompt	n/a	fitting acquisitions celebs productions\n
367.722	0.105	735444	keystroke_f	f	n/a
367.827	0.104	735654	keystroke_i	i	n/a
368.098	0.056	736196	keystroke_t	t	n/a
368.21	0.089	736420	keystroke_t	t	n/a
368.346	0.128	736692	keystroke_i	i	n/a
368.443	0.2	736886	keystroke_n	n	n/a
368.53	0.16	737060	keystroke_g	g	n/a
368.635	0.128	737270	keystroke_Key.space	Key.space	n/a
368.731	0.144	737462	keystroke_a	a	n/a
368.922	0.097	737844	keystroke_c	c	n/a
369.163	0.103	738326	keystroke_q	q	n/a
369.298	0.153	738596	keystroke_u	u	n/a
369.403	0.191	738806	keystroke_i	i	n/a
369.546	0.088	739092	keystroke_s	s	n/a
369.706	0.104	739412	keystroke_i	i	n/a
370.387	0.111	740774	keystroke_t	t	n/a
370.474	0.104	740948	keystroke_i	i	n/a
370.586	0.176	741172	keystroke_o	o	n/a
370.698	0.176	741396	keystroke_n	n	n/a
370.77	0.152	741540	keystroke_s	s	n/a
370.882	0.16	741764	keystroke_Key.space	Key.space	n/a
371.01	0.096	742020	keystroke_c	c	n/a
371.178	0.064	742356	keystroke_e	e	n/a
371.258	0.112	742516	keystroke_l	l	n/a
371.306	0.088	742612	keystroke_e	e	n/a
371.482	0.12	742964	keystroke_b	b	n/a
371.562	0.096	743124	keystroke_r	r	n/a
372.018	0.112	744036	keystroke_Key.backspace	Key.backspace	n/a
372.122	0.112	744244	keystroke_s	s	n/a
372.282	0.136	744564	keystroke_Key.space	Key.space	n/a
373.082	0.136	746164	keystroke_p	p	n/a
373.226	0.088	746452	keystroke_r	r	n/a
373.298	0.152	746596	keystroke_o	o	n/a
373.418	0.128	746836	keystroke_d	d	n/a
373.554	0.128	747108	keystroke_u	u	n/a
373.666	0.072	747332	keystroke_c	c	n/a
373.89	0.096	747780	keystroke_t	t	n/a
373.978	0.096	747956	keystroke_i	i	n/a
374.034	0.184	748068	keystroke_o	o	n/a
374.17	0.152	748340	keystroke_n	n	n/a
374.242	0.104	748484	keystroke_s	s	n/a
374.874	0.136	749748	keystroke_Key.enter	Key.enter	n/a
375.0145	6.125	750029	prompt	n/a	serving anthony lips health\n
375.586	0.224	751172	keystroke_s	s	n/a
375.746	0.16	751492	keystroke_e	e	n/a
375.851	0.087	751702	keystroke_r	r	n/a
376.082	0.088	752164	keystroke_v	v	n/a
376.21	0.1285	752420	keystroke_i	i	n/a
376.3145	0.192	752629	keystroke_n	n	n/a
376.4185	0.152	752837	keystroke_g	g	n/a
376.5385	0.144	753077	keystroke_Key.space	Key.space	n/a
376.6665	0.136	753333	keystroke_a	a	n/a
376.7945	0.12	753589	keystroke_n	n	n/a
376.9945	0.08	753989	keystroke_t	t	n/a
377.0905	0.12	754181	keystroke_h	h	n/a
377.2025	0.184	754405	keystroke_o	o	n/a
377.3385	0.144	754677	keystroke_n	n	n/a
377.634	0.144	755268	keystroke_y	y	n/a
377.779	0.175	755558	keystroke_Key.space	Key.space	n/a
378.122	0.136	756244	keystroke_l	l	n/a
378.298	0.12	756596	keystroke_i	i	n/a
378.507	0.144	757014	keystroke_p	p	n/a
378.73	0.136	757460	keystroke_s	s	n/a
378.874	0.128	757748	keystroke_Key.space	Key.space	n/a
379.554	0.144	759108	keystroke_h	h	n/a
379.658	0.088	759316	keystroke_e	e	n/a
379.73	0.144	759460	keystroke_a	a	n/a
379.866	0.096	759732	keystroke_l	l	n/a
380.042	0.064	760084	keystroke_t	t	n/a
380.13	0.112	760260	keystroke_h	h	n/a
381.0185	0.12	762037	keystroke_Key.enter	Key.enter	n/a
381.1435	9.492	762287	prompt	n/a	fujitsu timber someone nightlife\n
382.1305	0.072	764261	keystroke_f	f	n/a
382.7225	0.112	765445	keystroke_u	u	n/a
383.4665	0.112	766933	keystroke_j	j	n/a
383.6905	0.104	767381	keystroke_i	i	n/a
383.8905	0.096	767781	keystroke_t	t	n/a
384.4345	0.0715	768869	keystroke_s	s	n/a
384.586	0.112	769172	keystroke_u	u	n/a
384.986	0.104	769972	keystroke_Key.space	Key.space	n/a
385.29	0.096	770580	keystroke_t	t	n/a
385.378	0.08	770756	keystroke_i	i	n/a
387.33	0.104	774660	keystroke_m	m	n/a
387.562	0.096	775124	keystroke_b	b	n/a
387.634	0.184	775268	keystroke_e	e	n/a
387.73	0.144	775460	keystroke_r	r	n/a
387.826	0.144	775652	keystroke_Key.space	Key.space	n/a
387.922	0.096	775844	keystroke_s	s	n/a
387.994	0.136	775988	keystroke_o	o	n/a
388.114	0.096	776228	keystroke_m	m	n/a
388.203	0.063	776406	keystroke_e	e	n/a
388.258	0.136	776516	keystroke_o	o	n/a
388.354	0.136	776708	keystroke_n	n	n/a
388.442	0.0875	776884	keystroke_e	e	n/a
388.5225	0.103	777045	keystroke_Key.space	Key.space	n/a
389.0185	0.063	778037	keystroke_n	n	n/a
389.1935	0.081	778387	keystroke_i	i	n/a
389.2815	0.073	778563	keystroke_g	g	n/a
389.4105	0.079	778821	keystroke_h	h	n/a
389.5145	0.064	779029	keystroke_t	t	n/a
389.9375	0.16	779875	keystroke_l	l	n/a
390.082	0.144	780164	keystroke_i	i	n/a
390.146	0.1195	780292	keystroke_f	f	n/a
390.2575	0.072	780515	keystroke_e	e	n/a
390.5215	0.112	781043	keystroke_Key.enter	Key.enter	n/a
390.639	7.6685	781278	prompt	n/a	plastic situated girls consecutive\n
391.3545	0.112	782709	keystroke_p	p	n/a
391.5465	0.152	783093	keystroke_l	l	n/a
391.6505	0.16	783301	keystroke_a	a	n/a
391.7865	0.168	783573	keystroke_s	s	n/a
391.9465	0.08	783893	keystroke_t	t	n/a
392.0345	0.096	784069	keystroke_i	i	n/a
392.1545	0.128	784309	keystroke_c	c	n/a
392.3305	0.12	784661	keystroke_Key.space	Key.space	n/a
392.618	0.104	785236	keystroke_s	s	n/a
392.778	0.096	785556	keystroke_i	i	n/a
392.906	0.056	785812	keystroke_t	t	n/a
393.018	0.112	786036	keystroke_u	u	n/a
393.09	0.136	786180	keystroke_a	a	n/a
393.258	0.072	786516	keystroke_t	t	n/a
393.514	0.08	787028	keystroke_e	e	n/a
393.682	0.136	787364	keystroke_d	d	n/a
393.794	0.12	787588	keystroke_Key.space	Key.space	n/a
394.1785	0.072	788357	keystroke_g	g	n/a
394.2825	0.08	788565	keystroke_i	i	n/a
394.3705	0.072	788741	keystroke_r	r	n/a
394.4505	0.112	788901	keystroke_l	l	n/a
394.5465	0.144	789093	keystroke_s	s	n/a
394.6585	0.136	789317	keystroke_Key.space	Key.space	n/a
395.082	0.056	790164	keystroke_c	c	n/a
395.17	0.248	790340	keystroke_o	o	n/a
395.419	0.167	790838	keystroke_n	n	n/a
395.746	0.096	791492	keystroke_s	s	n/a
395.954	0.08	791908	keystroke_e	e	n/a
396.538	0.104	793076	keystroke_c	c	n/a
397.3695	0.12	794739	keystroke_u	u	n/a
397.6415	0.088	795283	keystroke_t	t	n/a
397.7535	0.104	795507	keystroke_i	i	n/a
397.8655	0.08	795731	keystroke_v	v	n/a
398.0415	0.073	796083	keystroke_e	e	n/a
398.1945	0.112	796389	keystroke_Key.enter	Key.enter	n/a
398.31	10.8455	796620	prompt	n/a	availability runtime beings troops\n
398.9055	0.128	797811	keystroke_a	a	n/a
399.0735	0.128	798147	keystroke_v	v	n/a
399.1865	0.127	798373	keystroke_a	a	n/a
399.3055	0.088	798611	keystroke_i	i	n/a
399.4335	0.12	798867	keystroke_l	l	n/a
399.5375	0.104	799075	keystroke_a	a	n/a
399.6655	0.104	799331	keystroke_b	b	n/a
400.226	0.08	800452	keystroke_i	i	n/a
400.362	0.144	800724	keystroke_l	l	n/a
400.482	0.112	800964	keystroke_i	i	n/a
400.61	0.08	801220	keystroke_t	t	n/a
400.698	0.12	801396	keystroke_y	y	n/a
400.786	0.128	801572	keystroke_Key.space	Key.space	n/a
401.05	0.096	802100	keystroke_r	r	n/a
401.1935	0.096	802387	keystroke_u	u	n/a
401.5145	0.056	803029	keystroke_t	t	n/a
401.8735	0.088	803747	keystroke_Key.backspace	Key.backspace	n/a
402.2335	0.136	804467	keystroke_n	n	n/a
402.4735	0.088	804947	keystroke_t	t	n/a
402.5775	0.072	805155	keystroke_i	i	n/a
402.7135	0.112	805427	keystroke_n	n	n/a
402.8175	0.128	805635	keystroke_e	e	n/a
402.9135	0.112	805827	keystroke_Key.space	Key.space	n/a
403.322	0.0795	806644	keystroke_Key.backspace	Key.backspace	n/a
403.4655	0.08	806931	keystroke_Key.backspace	Key.backspace	n/a
403.6015	0.096	807203	keystroke_Key.backspace	Key.backspace	n/a
404.3055	0.16	808611	keystroke_m	m	n/a
404.4415	0.136	808883	keystroke_e	e	n/a
404.5615	0.136	809123	keystroke_Key.space	Key.space	n/a
404.6895	0.112	809379	keystroke_b	b	n/a
404.7775	0.08	809555	keystroke_e	e	n/a
404.962	0.072	809924	keystroke_g	g	n/a
405.962	0.12	811924	keystroke_Key.backspace	Key.backspace	n/a
406.514	0.08	813028	keystroke_i	i	n/a
406.642	0.168	813284	keystroke_n	n	n/a
406.77	0.104	813540	keystroke_g	g	n/a
406.946	0.168	813892	keystroke_s	s	n/a
407.082	0.1365	814164	keystroke_Key.space	Key.space	n/a
407.2745	0.079	814549	keystroke_t	t	n/a
407.4425	0.072	814885	keystroke_r	r	n/a
407.5545	0.079	815109	keystroke_o	o	n/a
407.6895	0.097	815379	keystroke_o	o	n/a
408.0105	0.143	816021	keystroke_p	p	n/a
408.1615	0.096	816323	keystroke_s	s	n/a
409.0495	0.104	818099	keystroke_Key.enter	Key.enter	n/a
409.1655	6.7495	818331	prompt	n/a	period immunology eric delays\n
409.8575	0.152	819715	keystroke_p	p	n/a
409.9625	0.167	819925	keystroke_e	e	n/a
410.0575	0.113	820115	keystroke_r	r	n/a
410.1935	0.073	820387	keystroke_i	i	n/a
410.3055	0.152	820611	keystroke_o	o	n/a
410.4095	0.16	820819	keystroke_d	d	n/a
410.5375	0.128	821075	keystroke_Key.space	Key.space	n/a
410.9295	0.088	821859	keystroke_i	i	n/a
411.1375	0.088	822275	keystroke_m	m	n/a
411.2895	0.088	822579	keystroke_m	m	n/a
411.5535	0.096	823107	keystroke_u	u	n/a
412.3295	0.112	824659	keystroke_n	n	n/a
412.5935	0.072	825187	keystroke_o	o	n/a
412.7775	0.08	825555	keystroke_l	l	n/a
412.9535	0.112	825907	keystroke_o	o	n/a
413.0975	0.064	826195	keystroke_g	g	n/a
413.2175	0.12	826435	keystroke_y	y	n/a
413.3535	0.12	826707	keystroke_Key.space	Key.space	n/a
413.5295	0.096	827059	keystroke_e	e	n/a
413.7135	0.08	827427	keystroke_r	r	n/a
413.8495	0.096	827699	keystroke_i	i	n/a
413.9535	0.104	827907	keystroke_c	c	n/a
414.1215	0.144	828243	keystroke_Key.space	Key.space	n/a
414.2415	0.104	828483	keystroke_d	d	n/a
414.4255	0.064	828851	keystroke_e	e	n/a
414.5375	0.112	829075	keystroke_l	l	n/a
414.6415	0.112	829283	keystroke_a	a	n/a
414.7855	0.128	829571	keystroke_y	y	n/a
414.9145	0.071	829829	keystroke_s	s	n/a
415.7775	0.136	831555	keystroke_Key.enter	Key.enter	n/a
415.919	11.8195	831838	prompt	n/a	grid receives phrase they'll\n
416.5215	0.08	833043	keystroke_g	g	n/a
416.6895	0.08	833379	keystroke_r	r	n/a
416.7775	0.096	833555	keystroke_i	i	n/a
416.8335	0.176	833667	keystroke_d	d	n/a
417.0015	0.1445	834003	keystroke_Key.space	Key.space	n/a
417.2655	0.136	834531	keystroke_r	r	n/a
417.3855	0.136	834771	keystroke_e	e	n/a
417.5375	0.112	835075	keystroke_c	c	n/a
417.6255	0.088	835251	keystroke_e	e	n/a
417.7295	0.12	835459	keystroke_i	i	n/a
417.8175	0.064	835635	keystroke_v	v	n/a
417.9775	0.056	835955	keystroke_e	e	n/a
418.2895	0.088	836579	keystroke_s	s	n/a
418.4335	0.12	836867	keystroke_Key.space	Key.space	n/a
418.7615	0.112	837523	keystroke_p	p	n/a
418.9535	0.12	837907	keystroke_h	h	n/a
419.0655	0.136	838131	keystroke_r	r	n/a
419.1775	0.168	838355	keystroke_a	a	n/a
419.3615	0.032	838723	keystroke_a	a	n/a
419.3855	0.16	838771	keystroke_s	s	n/a
419.5055	0.12	839011	keystroke_e	e	n/a
419.6175	0.12	839235	keystroke_Key.space	Key.space	n/a
419.8655	0.096	839731	keystroke_t	t	n/a
419.9935	0.096	839987	keystroke_h	h	n/a
420.0655	0.072	840131	keystroke_e	e	n/a
420.4895	0.096	840979	keystroke_y	y	n/a
420.7775	0.096	841555	keystroke_'	'	n/a
421.2175	0.096	842435	keystroke_l	l	n/a
421.3855	0.104	842771	keystroke_l	l	n/a
422.3215	0.12	844643	keystroke_Key.backspace	Key.backspace	n/a
422.4895	0.104	844979	keystroke_Key.backspace	Key.backspace	n/a
422.657	0.088	845314	keystroke_Key.backspace	Key.backspace	n/a
422.809	0.0725	845618	keystroke_Key.backspace	Key.backspace	n/a
422.9375	0.088	845875	keystroke_Key.backspace	Key.backspace	n/a
423.0735	0.096	846147	keystroke_Key.backspace	Key.backspace	n/a
423.2255	0.088	846451	keystroke_Key.backspace	Key.backspace	n/a
423.3615	0.1035	846723	keystroke_Key.backspace	Key.backspace	n/a
423.481	0.12	846962	keystroke_Key.backspace	Key.backspace	n/a
423.649	0.088	847298	keystroke_Key.backspace	Key.backspace	n/a
424.049	0.096	848098	keystroke_s	s	n/a
424.361	0.072	848722	keystroke_Key.backspace	Key.backspace	n/a
424.489	0.088	848978	keystroke_Key.backspace	Key.backspace	n/a
424.625	0.12	849250	keystroke_s	s	n/a
424.785	0.104	849570	keystroke_e	e	n/a
424.905	0.12	849810	keystroke_Key.space	Key.space	n/a
425.537	0.08	851074	keystroke_t	t	n/a
425.649	0.088	851298	keystroke_h	h	n/a
425.713	0.064	851426	keystroke_e	e	n/a
425.881	0.104	851762	keystroke_y	y	n/a
426.682	0.119	853364	keystroke_'	'	n/a
426.953	0.104	853906	keystroke_l	l	n/a
427.129	0.112	854258	keystroke_l	l	n/a
427.633	0.104	855266	keystroke_Key.enter	Key.enter	n/a
427.7425	7.628	855485	prompt	n/a	boulevard britney prix photograph\n
428.529	0.112	857058	keystroke_b	b	n/a
428.849	0.096	857698	keystroke_o	o	n/a
429.033	0.112	858066	keystroke_u	u	n/a
429.561	0.104	859122	keystroke_l	l	n/a
429.841	0.08	859682	keystroke_e	e	n/a
430.041	0.08	860082	keystroke_v	v	n/a
430.225	0.136	860450	keystroke_a	a	n/a
430.369	0.088	860738	keystroke_r	r	n/a
430.513	0.152	861026	keystroke_d	d	n/a
430.649	0.144	861298	keystroke_Key.space	Key.space	n/a
430.825	0.104	861650	keystroke_b	b	n/a
431.289	0.064	862578	keystroke_r	r	n/a
431.449	0.088	862898	keystroke_i	i	n/a
431.585	0.08	863170	keystroke_t	t	n/a
431.825	0.112	863650	keystroke_n	n	n/a
431.953	0.072	863906	keystroke_e	e	n/a
432.137	0.128	864274	keystroke_y	y	n/a
432.257	0.128	864514	keystroke_Key.space	Key.space	n/a
432.457	0.128	864914	keystroke_p	p	n/a
432.577	0.064	865154	keystroke_r	r	n/a
432.721	0.096	865442	keystroke_i	i	n/a
432.913	0.08	865826	keystroke_x	x	n/a
433.185	0.112	866370	keystroke_Key.space	Key.space	n/a
433.657	0.096	867314	keystroke_p	p	n/a
433.817	0.112	867634	keystroke_h	h	n/a
433.977	0.104	867954	keystroke_o	o	n/a
434.113	0.064	868226	keystroke_t	t	n/a
434.201	0.112	868402	keystroke_o	o	n/a
434.377	0.056	868754	keystroke_g	g	n/a
434.545	0.104	869090	keystroke_r	r	n/a
434.609	0.144	869218	keystroke_a	a	n/a
434.721	0.12	869442	keystroke_p	p	n/a
434.913	0.112	869826	keystroke_h	h	n/a
435.249	0.12	870498	keystroke_Key.enter	Key.enter	n/a
435.3735	8.429	870747	prompt	n/a	mysql floppy credits lottery\n
437.633	0.104	875266	keystroke_m	m	n/a
437.929	0.104	875858	keystroke_y	y	n/a
438.593	0.064	877186	keystroke_s	s	n/a
438.865	0.096	877730	keystroke_q	q	n/a
439.225	0.112	878450	keystroke_l	l	n/a
439.385	0.136	878770	keystroke_Key.space	Key.space	n/a
439.561	0.112	879122	keystroke_f	f	n/a
439.745	0.096	879490	keystroke_l	l	n/a
439.977	0.088	879954	keystroke_o	o	n/a
440.185	0.064	880370	keystroke_p	p	n/a
440.329	0.08	880658	keystroke_p	p	n/a
440.553	0.104	881106	keystroke_y	y	n/a
440.713	0.128	881426	keystroke_Key.space	Key.space	n/a
440.945	0.064	881890	keystroke_c	c	n/a
441.153	0.144	882306	keystroke_r	r	n/a
441.281	0.08	882562	keystroke_e	e	n/a
441.449	0.072	882898	keystroke_d	d	n/a
441.617	0.088	883234	keystroke_i	i	n/a
441.761	0.072	883522	keystroke_t	t	n/a
441.937	0.168	883874	keystroke_s	s	n/a
442.065	0.152	884130	keystroke_Key.space	Key.space	n/a
442.393	0.088	884786	keystroke_l	l	n/a
442.585	0.112	885170	keystroke_o	o	n/a
442.761	0.056	885522	keystroke_t	t	n/a
442.873	0.08	885746	keystroke_t	t	n/a
443.081	0.168	886162	keystroke_e	e	n/a
443.217	0.08	886434	keystroke_r	r	n/a
443.377	0.144	886754	keystroke_y	y	n/a
443.681	0.12	887362	keystroke_Key.enter	Key.enter	n/a
443.8055	5.909	887611	prompt	n/a	coverage mate connecting blackberry\n
444.681	0.072	889362	keystroke_c	c	n/a
444.809	0.128	889618	keystroke_o	o	n/a
444.905	0.048	889810	keystroke_v	v	n/a
445.065	0.136	890130	keystroke_e	e	n/a
445.169	0.096	890338	keystroke_r	r	n/a
445.273	0.136	890546	keystroke_a	a	n/a
445.425	0.056	890850	keystroke_g	g	n/a
445.633	0.1435	891266	keystroke_e	e	n/a
445.761	0.1355	891522	keystroke_Key.space	Key.space	n/a
445.9285	0.16	891857	keystroke_m	m	n/a
446.0325	0.136	892065	keystroke_a	a	n/a
446.1845	0.152	892369	keystroke_t	t	n/a
446.3285	0.152	892657	keystroke_e	e	n/a
446.4565	0.136	892913	keystroke_Key.space	Key.space	n/a
446.6965	0.08	893393	keystroke_c	c	n/a
446.8005	0.064	893601	keystroke_o	o	n/a
446.9445	0.048	893889	keystroke_n	n	n/a
447.0485	0.08	894097	keystroke_n	n	n/a
447.1525	0.096	894305	keystroke_e	e	n/a
447.2885	0.088	894577	keystroke_c	c	n/a
447.5365	0.088	895073	keystroke_t	t	n/a
447.6405	0.128	895281	keystroke_i	i	n/a
447.7605	0.152	895521	keystroke_n	n	n/a
447.8405	0.12	895681	keystroke_g	g	n/a
447.9205	0.136	895841	keystroke_Key.space	Key.space	n/a
448.0325	0.088	896065	keystroke_b	b	n/a
448.2245	0.128	896449	keystroke_l	l	n/a
448.2885	0.184	896577	keystroke_a	a	n/a
448.4005	0.0965	896801	keystroke_c	c	n/a
448.5365	0.096	897073	keystroke_k	k	n/a
448.8005	0.112	897601	keystroke_b	b	n/a
448.9045	0.072	897809	keystroke_e	e	n/a
449.089	0.064	898178	keystroke_r	r	n/a
449.193	0.08	898386	keystroke_r	r	n/a
449.345	0.112	898690	keystroke_y	y	n/a
449.601	0.112	899202	keystroke_Key.enter	Key.enter	n/a
449.7175	8.333	899435	prompt	n/a	heel cooking occupation swingers\n
450.521	0.128	901042	keystroke_h	h	n/a
450.609	0.072	901218	keystroke_e	e	n/a
450.777	0.072	901554	keystroke_l	l	n/a
450.873	0.096	901746	keystroke_l	l	n/a
451.401	0.064	902802	keystroke_Key.backspace	Key.backspace	n/a
451.529	0.08	903058	keystroke_Key.backspace	Key.backspace	n/a
451.617	0.072	903234	keystroke_e	e	n/a
451.817	0.112	903634	keystroke_l	l	n/a
451.961	0.104	903922	keystroke_Key.space	Key.space	n/a
452.257	0.096	904514	keystroke_c	c	n/a
452.401	0.072	904802	keystroke_o	o	n/a
452.545	0.104	905090	keystroke_o	o	n/a
452.761	0.08	905522	keystroke_k	k	n/a
452.929	0.12	905858	keystroke_i	i	n/a
453.041	0.144	906082	keystroke_n	n	n/a
453.137	0.112	906274	keystroke_g	g	n/a
453.217	0.12	906434	keystroke_Key.space	Key.space	n/a
453.769	0.08	907538	keystroke_c	c	n/a
453.897	0.128	907794	keystroke_o	o	n/a
454.497	0.056	908994	keystroke_Key.backspace	Key.backspace	n/a
454.633	0.08	909266	keystroke_Key.backspace	Key.backspace	n/a
454.921	0.096	909842	keystroke_o	o	n/a
455.025	0.088	910050	keystroke_c	c	n/a
455.185	0.072	910370	keystroke_c	c	n/a
455.745	0.144	911490	keystroke_u	u	n/a
455.881	0.168	911762	keystroke_p	p	n/a
456.057	0.12	912114	keystroke_a	a	n/a
456.233	0.096	912466	keystroke_t	t	n/a
456.345	0.104	912690	keystroke_i	i	n/a
456.425	0.184	912850	keystroke_o	o	n/a
456.537	0.16	913074	keystroke_n	n	n/a
456.61	0.135	913220	keystroke_Key.space	Key.space	n/a
456.705	0.072	913410	keystroke_s	s	n/a
456.897	0.096	913794	keystroke_w	w	n/a
457.073	0.072	914146	keystroke_i	i	n/a
457.209	0.144	914418	keystroke_n	n	n/a
457.369	0.08	914738	keystroke_g	g	n/a
457.545	0.12	915090	keystroke_e	e	n/a
457.641	0.112	915282	keystroke_r	r	n/a
457.721	0.096	915442	keystroke_s	s	n/a
457.921	0.128	915842	keystroke_Key.enter	Key.enter	n/a
458.053	8.0935	916106	prompt	n/a	injuries bookmarks dynamic accidents\n
458.777	0.104	917554	keystroke_i	i	n/a
458.921	0.104	917842	keystroke_n	n	n/a
459.137	0.072	918274	keystroke_j	j	n/a
459.313	0.096	918626	keystroke_u	u	n/a
459.409	0.104	918818	keystroke_r	r	n/a
459.585	0.08	919170	keystroke_i	i	n/a
459.657	0.088	919314	keystroke_e	e	n/a
459.777	0.152	919554	keystroke_s	s	n/a
459.897	0.16	919794	keystroke_Key.space	Key.space	n/a
460.289	0.12	920578	keystroke_b	b	n/a
460.513	0.08	921026	keystroke_l	l	n/a
461.161	0.088	922322	keystroke_Key.backspace	Key.backspace	n/a
461.505	0.056	923010	keystroke_o	o	n/a
461.641	0.08	923282	keystroke_o	o	n/a
461.873	0.08	923746	keystroke_k	k	n/a
462.121	0.056	924242	keystroke_m	m	n/a
462.241	0.168	924482	keystroke_a	a	n/a
462.377	0.064	924754	keystroke_r	r	n/a
462.489	0.08	924978	keystroke_k	k	n/a
462.881	0.136	925762	keystroke_s	s	n/a
462.993	0.136	925986	keystroke_Key.space	Key.space	n/a
463.169	0.096	926338	keystroke_d	d	n/a
463.377	0.104	926754	keystroke_y	y	n/a
463.609	0.088	927218	keystroke_n	n	n/a
463.713	0.128	927426	keystroke_a	a	n/a
463.849	0.104	927698	keystroke_m	m	n/a
464.073	0.088	928146	keystroke_i	i	n/a
464.169	0.128	928338	keystroke_c	c	n/a
464.305	0.128	928610	keystroke_Key.space	Key.space	n/a
464.673	0.136	929346	keystroke_a	a	n/a
464.905	0.04	929810	keystroke_c	c	n/a
465.001	0.0805	930002	keystroke_c	c	n/a
465.169	0.112	930338	keystroke_i	i	n/a
465.257	0.08	930514	keystroke_d	d	n/a
465.441	0.072	930882	keystroke_e	e	n/a
465.513	0.144	931026	keystroke_n	n	n/a
465.649	0.072	931298	keystroke_t	t	n/a
465.785	0.096	931570	keystroke_s	s	n/a
466.009	0.136	932018	keystroke_Key.enter	Key.enter	n/a
466.159	5.067	932318	prompt	n/a	investors engaged seating gonna\n
466.857	0.136	933714	keystroke_i	i	n/a
466.969	0.168	933938	keystroke_n	n	n/a
467.089	0.08	934178	keystroke_v	v	n/a
467.281	0.136	934562	keystroke_e	e	n/a
467.401	0.136	934802	keystroke_s	s	n/a
467.593	0.096	935186	keystroke_t	t	n/a
467.777	0.12	935554	keystroke_o	o	n/a
467.833	0.136	935666	keystroke_r	r	n/a
467.9535	0.119	935907	keystroke_s	s	n/a
468.056	0.137	936112	keystroke_Key.space	Key.space	n/a
468.153	0.08	936306	keystroke_e	e	n/a
468.257	0.119	936514	keystroke_n	n	n/a
468.401	0.072	936802	keystroke_g	g	n/a
468.585	0.128	937170	keystroke_a	a	n/a
468.736	0.089	937472	keystroke_g	g	n/a
468.905	0.0635	937810	keystroke_e	e	n/a
469.0485	0.112	938097	keystroke_d	d	n/a
469.1445	0.152	938289	keystroke_Key.space	Key.space	n/a
469.2725	0.12	938545	keystroke_s	s	n/a
469.4165	0.12	938833	keystroke_e	e	n/a
469.5285	0.168	939057	keystroke_a	a	n/a
469.6725	0.072	939345	keystroke_t	t	n/a
469.8085	0.136	939617	keystroke_i	i	n/a
469.9205	0.184	939841	keystroke_n	n	n/a
470.0165	0.104	940033	keystroke_g	g	n/a
470.0965	0.104	940193	keystroke_Key.space	Key.space	n/a
470.321	0.072	940642	keystroke_g	g	n/a
470.457	0.088	940914	keystroke_o	o	n/a
470.641	0.064	941282	keystroke_n	n	n/a
470.753	0.104	941506	keystroke_n	n	n/a
470.857	0.112	941714	keystroke_a	a	n/a
471.105	0.12	942210	keystroke_Key.enter	Key.enter	n/a
471.229	5.829	942458	prompt	n/a	queen listen revenue interviews\n
472.241	0.112	944482	keystroke_q	q	n/a
472.393	0.144	944786	keystroke_u	u	n/a
472.505	0.04	945010	keystroke_e	e	n/a
472.601	0.088	945202	keystroke_e	e	n/a
472.817	0.12	945634	keystroke_n	n	n/a
472.96	0.129	945920	keystroke_Key.space	Key.space	n/a
473.096	0.129	946192	keystroke_l	l	n/a
473.209	0.152	946418	keystroke_i	i	n/a
473.281	0.143	946562	keystroke_s	s	n/a
473.393	0.12	946786	keystroke_t	t	n/a
473.473	0.12	946946	keystroke_e	e	n/a
473.585	0.127	947170	keystroke_n	n	n/a
473.8	0.12	947600	keystroke_Key.space	Key.space	n/a
474.408	0.144	948816	keystroke_r	r	n/a
474.497	0.111	948994	keystroke_e	e	n/a
474.672	0.088	949344	keystroke_v	v	n/a
474.8	0.08	949600	keystroke_e	e	n/a
474.896	0.112	949792	keystroke_n	n	n/a
475.168	0.12	950336	keystroke_u	u	n/a
475.32	0.129	950640	keystroke_e	e	n/a
475.4	0.144	950800	keystroke_Key.space	Key.space	n/a
475.656	0.129	951312	keystroke_i	i	n/a
475.801	0.152	951602	keystroke_n	n	n/a
475.897	0.064	951794	keystroke_t	t	n/a
475.977	0.176	951954	keystroke_e	e	n/a
476.105	0.056	952210	keystroke_r	r	n/a
476.265	0.056	952530	keystroke_v	v	n/a
476.377	0.112	952754	keystroke_i	i	n/a
476.473	0.08	952946	keystroke_e	e	n/a
476.601	0.0555	953202	keystroke_w	w	n/a
476.7845	0.08	953569	keystroke_s	s	n/a
476.929	0.128	953858	keystroke_Key.enter	Key.enter	n/a
477.0605	7.0055	954121	prompt	n/a	acting guitars bomb syracuse\n
477.713	0.184	955426	keystroke_a	a	n/a
477.889	0.08	955778	keystroke_c	c	n/a
478.121	0.08	956242	keystroke_t	t	n/a
478.233	0.104	956466	keystroke_i	i	n/a
478.369	0.176	956738	keystroke_n	n	n/a
478.497	0.12	956994	keystroke_g	g	n/a
478.577	0.128	957154	keystroke_Key.space	Key.space	n/a
478.873	0.072	957746	keystroke_g	g	n/a
478.993	0.064	957986	keystroke_u	u	n/a
479.153	0.112	958306	keystroke_i	i	n/a
479.361	0.112	958722	keystroke_t	t	n/a
479.521	0.168	959042	keystroke_a	a	n/a
479.721	0.112	959442	keystroke_r	r	n/a
479.849	0.168	959698	keystroke_s	s	n/a
479.985	0.144	959970	keystroke_Key.space	Key.space	n/a
480.153	0.128	960306	keystroke_b	b	n/a
480.409	0.088	960818	keystroke_o	o	n/a
480.681	0.112	961362	keystroke_m	m	n/a
480.969	0.12	961938	keystroke_b	b	n/a
481.161	0.144	962322	keystroke_Key.space	Key.space	n/a
481.457	0.152	962914	keystroke_s	s	n/a
481.657	0.136	963314	keystroke_y	y	n/a
481.969	0.112	963938	keystroke_r	r	n/a
482.089	0.16	964178	keystroke_a	a	n/a
482.297	0.104	964594	keystroke_m	m	n/a
482.8565	0.0965	965713	keystroke_Key.backspace	Key.backspace	n/a
482.961	0.08	965922	keystroke_c	c	n/a
483.161	0.112	966322	keystroke_u	u	n/a
483.297	0.136	966594	keystroke_s	s	n/a
483.417	0.08	966834	keystroke_e	e	n/a
483.929	0.136	967858	keystroke_Key.enter	Key.enter	n/a
484.069	5.541	968138	prompt	n/a	violations euros tablet camps\n
484.873	0.12	969746	keystroke_v	v	n/a
485.249	0.088	970498	keystroke_i	i	n/a
485.425	0.088	970850	keystroke_o	o	n/a
485.601	0.128	971202	keystroke_l	l	n/a
485.681	0.144	971362	keystroke_a	a	n/a
485.801	0.104	971602	keystroke_t	t	n/a
485.889	0.056	971778	keystroke_i	i	n/a
485.929	0.176	971858	keystroke_o	o	n/a
486.057	0.168	972114	keystroke_n	n	n/a
486.113	0.104	972226	keystroke_s	s	n/a
486.193	0.168	972386	keystroke_Key.space	Key.space	n/a
486.321	0.079	972642	keystroke_e	e	n/a
486.513	0.112	973026	keystroke_u	u	n/a
486.665	0.08	973330	keystroke_r	r	n/a
487.073	0.12	974146	keystroke_o	o	n/a
487.193	0.12	974386	keystroke_s	s	n/a
487.273	0.151	974546	keystroke_Key.space	Key.space	n/a
487.393	0.111	974786	keystroke_t	t	n/a
487.545	0.088	975090	keystroke_a	a	n/a
487.641	0.08	975282	keystroke_b	b	n/a
488.145	0.12	976290	keystroke_l	l	n/a
488.249	0.168	976498	keystroke_e	e	n/a
488.384	0.104	976768	keystroke_t	t	n/a
488.48	0.224	976960	keystroke_Key.space	Key.space	n/a
488.648	0.097	977296	keystroke_c	c	n/a
488.777	0.104	977554	keystroke_a	a	n/a
488.904	0.137	977808	keystroke_m	m	n/a
489.12	0.144	978240	keystroke_p	p	n/a
489.28	0.097	978560	keystroke_s	s	n/a
489.4885	0.12	978977	keystroke_Key.enter	Key.enter	n/a
489.6145	5.6995	979229	prompt	n/a	industries divine sleeve washing\n
490.2805	0.128	980561	keystroke_i	i	n/a
490.4085	0.112	980817	keystroke_n	n	n/a
490.4965	0.072	980993	keystroke_d	d	n/a
490.6645	0.12	981329	keystroke_u	u	n/a
490.7365	0.136	981473	keystroke_s	s	n/a
490.8645	0.064	981729	keystroke_t	t	n/a
491.0005	0.08	982001	keystroke_r	r	n/a
491.1285	0.096	982257	keystroke_i	i	n/a
491.2085	0.168	982417	keystroke_e	e	n/a
491.3045	0.152	982609	keystroke_s	s	n/a
491.4005	0.168	982801	keystroke_Key.space	Key.space	n/a
491.5925	0.128	983185	keystroke_d	d	n/a
491.7605	0.088	983521	keystroke_i	i	n/a
491.8885	0.096	983777	keystroke_v	v	n/a
492.464	0.048	984928	keystroke_i	i	n/a
492.592	0.128	985184	keystroke_n	n	n/a
492.696	0.112	985392	keystroke_e	e	n/a
492.792	0.152	985584	keystroke_Key.space	Key.space	n/a
492.912	0.08	985824	keystroke_s	s	n/a
493.072	0.128	986144	keystroke_l	l	n/a
493.152	0.049	986304	keystroke_e	e	n/a
493.256	0.088	986512	keystroke_e	e	n/a
493.496	0.08	986992	keystroke_v	v	n/a
493.72	0.128	987440	keystroke_e	e	n/a
493.824	0.184	987648	keystroke_Key.space	Key.space	n/a
494.104	0.088	988208	keystroke_w	w	n/a
494.232	0.184	988464	keystroke_a	a	n/a
494.328	0.136	988656	keystroke_s	s	n/a
494.488	0.144	988976	keystroke_h	h	n/a
494.616	0.16	989232	keystroke_i	i	n/a
494.736	0.16	989472	keystroke_n	n	n/a
494.824	0.08	989648	keystroke_g	g	n/a
495.184	0.128	990368	keystroke_Key.enter	Key.enter	n/a
495.3165	7.4775	990633	prompt	n/a	stephen swimming creating cooperative\n
496.1045	0.152	992209	keystroke_s	s	n/a
496.2645	0.128	992529	keystroke_t	t	n/a
496.3605	0.112	992721	keystroke_e	e	n/a
496.4885	0.152	992977	keystroke_p	p	n/a
496.6645	0.128	993329	keystroke_h	h	n/a
496.7445	0.088	993489	keystroke_e	e	n/a
496.8725	0.12	993745	keystroke_n	n	n/a
496.952	0.1445	993904	keystroke_Key.space	Key.space	n/a
497.2085	0.088	994417	keystroke_s	s	n/a
497.3765	0.1115	994753	keystroke_w	w	n/a
498.4565	0.112	996913	keystroke_i	i	n/a
498.6965	0.08	997393	keystroke_m	m	n/a
498.8485	0.0955	997697	keystroke_m	m	n/a
499.065	0.079	998130	keystroke_i	i	n/a
499.177	0.1435	998354	keystroke_n	n	n/a
499.3445	0.152	998689	keystroke_g	g	n/a
499.4565	0.16	998913	keystroke_Key.space	Key.space	n/a
499.8005	0.112	999601	keystroke_c	c	n/a
500.0405	0.12	1000081	keystroke_r	r	n/a
500.1285	0.12	1000257	keystroke_e	e	n/a
500.2165	0.152	1000433	keystroke_a	a	n/a
500.3285	0.08	1000657	keystroke_t	t	n/a
500.4485	0.152	1000897	keystroke_i	i	n/a
500.5605	0.2	1001121	keystroke_n	n	n/a
500.6565	0.096	1001313	keystroke_g	g	n/a
500.7365	0.12	1001473	keystroke_Key.space	Key.space	n/a
500.8885	0.096	1001777	keystroke_c	c	n/a
501.0245	0.096	1002049	keystroke_o	o	n/a
501.2165	0.096	1002433	keystroke_o	o	n/a
501.6565	0.152	1003313	keystroke_p	p	n/a
501.8005	0.192	1003601	keystroke_e	e	n/a
501.9045	0.104	1003809	keystroke_r	r	n/a
502.0165	0.2	1004033	keystroke_a	a	n/a
502.1765	0.072	1004353	keystroke_t	t	n/a
502.2805	0.104	1004561	keystroke_i	i	n/a
502.3925	0.088	1004785	keystroke_v	v	n/a
502.5685	0.08	1005137	keystroke_e	e	n/a
502.6725	0.12	1005345	keystroke_Key.enter	Key.enter	n/a
502.798	5.0355	1005596	prompt	n/a	entire who's video david\n
503.3765	0.096	1006753	keystroke_e	e	n/a
503.5365	0.12	1007073	keystroke_n	n	n/a
503.6405	0.056	1007281	keystroke_t	t	n/a
503.8005	0.088	1007601	keystroke_i	i	n/a
503.8965	0.144	1007793	keystroke_r	r	n/a
503.9845	0.168	1007969	keystroke_e	e	n/a
504.1045	0.144	1008209	keystroke_Key.space	Key.space	n/a
504.5365	0.104	1009073	keystroke_w	w	n/a
504.6325	0.12	1009265	keystroke_h	h	n/a
504.7445	0.136	1009489	keystroke_o	o	n/a
504.9845	0.12	1009969	keystroke_'	'	n/a
505.1445	0.144	1010289	keystroke_s	s	n/a
505.2405	0.16	1010481	keystroke_Key.space	Key.space	n/a
505.4325	0.096	1010865	keystroke_v	v	n/a
505.6005	0.12	1011201	keystroke_i	i	n/a
505.9125	0.032	1011825	keystroke_d	d	n/a
506.2325	0.064	1012465	keystroke_e	e	n/a
506.3845	0.112	1012769	keystroke_o	o	n/a
506.5045	0.112	1013009	keystroke_Key.space	Key.space	n/a
506.6405	0.152	1013281	keystroke_d	d	n/a
506.9045	0.224	1013809	keystroke_a	a	n/a
507.0965	0.056	1014193	keystroke_v	v	n/a
507.4165	0.112	1014833	keystroke_i	i	n/a
507.4965	0.072	1014993	keystroke_d	d	n/a
507.7125	0.12	1015425	keystroke_Key.enter	Key.enter	n/a
507.8365	8.285	1015673	prompt	n/a	enterprises tanks tower repeated\n
508.4885	0.08	1016977	keystroke_e	e	n/a
508.6165	0.12	1017233	keystroke_n	n	n/a
508.7605	0.072	1017521	keystroke_t	t	n/a
508.8885	0.184	1017777	keystroke_e	e	n/a
509.0005	0.072	1018001	keystroke_r	r	n/a
509.1205	0.128	1018241	keystroke_p	p	n/a
509.2485	0.064	1018497	keystroke_r	r	n/a
509.3685	0.096	1018737	keystroke_i	i	n/a
509.4565	0.08	1018913	keystroke_s	s	n/a
509.5925	0.088	1019185	keystroke_e	e	n/a
509.7365	0.1275	1019473	keystroke_s	s	n/a
509.856	0.144	1019712	keystroke_Key.space	Key.space	n/a
510.064	0.104	1020128	keystroke_t	t	n/a
510.176	0.136	1020352	keystroke_a	a	n/a
510.328	0.104	1020656	keystroke_n	n	n/a
510.552	0.088	1021104	keystroke_k	k	n/a
510.68	0.096	1021360	keystroke_s	s	n/a
510.768	0.128	1021536	keystroke_Key.space	Key.space	n/a
511.072	0.08	1022144	keystroke_t	t	n/a
511.232	0.128	1022464	keystroke_o	o	n/a
511.376	0.112	1022752	keystroke_w	w	n/a
511.568	0.224	1023136	keystroke_e	e	n/a
511.712	0.152	1023424	keystroke_r	r	n/a
511.824	0.144	1023648	keystroke_Key.space	Key.space	n/a
512.232	0.184	1024464	keystroke_r	r	n/a
512.352	0.12	1024704	keystroke_e	e	n/a
512.512	0.128	1025024	keystroke_p	p	n/a
512.592	0.088	1025184	keystroke_e	e	n/a
512.704	0.064	1025408	keystroke_a	a	n/a
512.712	0.064	1025424	keystroke_q	q	n/a
512.8	0.088	1025600	keystroke_t	t	n/a
513	0.072	1026000	keystroke_e	e	n/a
513.28	0.08	1026560	keystroke_Key.backspace	Key.backspace	n/a
513.432	0.072	1026864	keystroke_Key.backspace	Key.backspace	n/a
513.568	0.096	1027136	keystroke_Key.backspace	Key.backspace	n/a
513.712	0.144	1027424	keystroke_t	t	n/a
513.832	0.1045	1027664	keystroke_e	e	n/a
514.008	0.12	1028016	keystroke_d	d	n/a
514.232	0.032	1028464	keystroke_'	'	n/a
515.344	0.088	1030688	keystroke_Key.backspace	Key.backspace	n/a
516.016	0.104	1032032	keystroke_Key.enter	Key.enter	n/a
516.124	6.102	1032248	prompt	n/a	boulder suspended trustee north\n
516.92	0.136	1033840	keystroke_b	b	n/a
517.152	0.152	1034304	keystroke_o	o	n/a
517.32	0.128	1034640	keystroke_u	u	n/a
517.512	0.152	1035024	keystroke_l	l	n/a
517.672	0.064	1035344	keystroke_d	d	n/a
517.936	0.16	1035872	keystroke_e	e	n/a
518.016	0.136	1036032	keystroke_r	r	n/a
518.128	0.168	1036256	keystroke_Key.space	Key.space	n/a
518.256	0.072	1036512	keystroke_s	s	n/a
518.368	0.152	1036736	keystroke_u	u	n/a
518.44	0.128	1036880	keystroke_s	s	n/a
518.984	0.12	1037968	keystroke_p	p	n/a
519.112	0.056	1038224	keystroke_e	e	n/a
519.216	0.112	1038432	keystroke_n	n	n/a
519.32	0.096	1038640	keystroke_d	d	n/a
519.592	0.064	1039184	keystroke_e	e	n/a
519.776	0.088	1039552	keystroke_d	d	n/a
519.865	0.119	1039730	keystroke_Key.space	Key.space	n/a
520.024	0.064	1040048	keystroke_t	t	n/a
520.1685	0.08	1040337	keystroke_r	r	n/a
520.2885	0.104	1040577	keystroke_u	u	n/a
520.4005	0.096	1040801	keystroke_s	s	n/a
520.6245	0.072	1041249	keystroke_t	t	n/a
521.0165	0.048	1042033	keystroke_e	e	n/a
521.1365	0.072	1042273	keystroke_e	e	n/a
521.2485	0.12	1042497	keystroke_Key.space	Key.space	n/a
521.3525	0.088	1042705	keystroke_n	n	n/a
521.5125	0.136	1043025	keystroke_o	o	n/a
521.6325	0.064	1043265	keystroke_r	r	n/a
521.7845	0.072	1043569	keystroke_t	t	n/a
521.8805	0.104	1043761	keystroke_h	h	n/a
522.1285	0.096	1044257	keystroke_Key.enter	Key.enter	n/a
522.2295	7.604	1044459	prompt	n/a	regional occurs finds intranet\n
522.9605	0.168	1045921	keystroke_r	r	n/a
523.0715	0.153	1046143	keystroke_e	e	n/a
523.2405	0.08	1046481	keystroke_g	g	n/a
523.3925	0.103	1046785	keystroke_i	i	n/a
523.5365	0.152	1047073	keystroke_o	o	n/a
523.6485	0.12	1047297	keystroke_n	n	n/a
523.7285	0.12	1047457	keystroke_a	a	n/a
523.8485	0.111	1047697	keystroke_l	l	n/a
523.9275	0.136	1047855	keystroke_Key.space	Key.space	n/a
524.1595	0.104	1048319	keystroke_c	c	n/a
524.3035	0.104	1048607	keystroke_o	o	n/a
524.5675	0.056	1049135	keystroke_c	c	n/a
524.9515	0.08	1049903	keystroke_Key.backspace	Key.backspace	n/a
525.0955	0.072	1050191	keystroke_Key.backspace	Key.backspace	n/a
525.2555	0.096	1050511	keystroke_Key.backspace	Key.backspace	n/a
525.5595	0.096	1051119	keystroke_o	o	n/a
525.6475	0.064	1051295	keystroke_c	c	n/a
525.7755	0.08	1051551	keystroke_c	c	n/a
525.9835	0.112	1051967	keystroke_u	u	n/a
526.1115	0.088	1052223	keystroke_r	r	n/a
526.3595	0.144	1052719	keystroke_s	s	n/a
526.4715	0.152	1052943	keystroke_Key.space	Key.space	n/a
526.5915	0.096	1053183	keystroke_f	f	n/a
526.7115	0.104	1053423	keystroke_i	i	n/a
526.8395	0.136	1053679	keystroke_n	n	n/a
526.9285	0.087	1053857	keystroke_d	d	n/a
527.1355	0.136	1054271	keystroke_s	s	n/a
