onset	duration	sample	value	key	prompt_text
18.945	0.12	37890	keystroke	Key.tab	n/a
19.099	10.244	38198	prompt	n/a	the quick brown fox jumps over a lazy dog\n
20.7	0.045	41400	keystroke	t	n/a
20.88	0.105	41760	keystroke	h	n/a
21.84	0.09	43680	keystroke	e	n/a
22.215	0.075	44430	keystroke	Key.space	n/a
22.65	0.09	45300	keystroke	q	n/a
22.815	0.105	45630	keystroke	u	n/a
23.025	0.0745	46050	keystroke	i	n/a
23.2345	0.075	46469	keystroke	c	n/a
23.3395	0.09	46679	keystroke	k	n/a
23.46	0.0895	46920	keystroke	Key.space	n/a
23.6545	0.09	47309	keystroke	b	n/a
23.835	0.075	47670	keystroke	r	n/a
23.94	0.075	47880	keystroke	o	n/a
24.075	0.12	48150	keystroke	w	n/a
24.21	0.09	48420	keystroke	n	n/a
24.315	0.075	48630	keystroke	Key.space	n/a
24.465	0.09	48930	keystroke	f	n/a
24.57	0.075	49140	keystroke	o	n/a
24.795	0.06	49590	keystroke	x	n/a
25.065	0.075	50130	keystroke	Key.space	n/a
25.185	0.0895	50370	keystroke	j	n/a
25.3495	0.09	50699	keystroke	u	n/a
25.5445	0.09	51089	keystroke	m	n/a
25.7395	0.09	51479	keystroke	p	n/a
25.9655	0.074	51931	keystroke	s	n/a
26.2045	0.075	52409	keystroke	Key.space	n/a
26.3845	0.075	52769	keystroke	o	n/a
26.5955	0.074	53191	keystroke	v	n/a
26.7445	0.151	53489	keystroke	e	n/a
26.8645	0.091	53729	keystroke	r	n/a
26.9695	0.06	53939	keystroke	Key.space	n/a
27.1055	0.104	54211	keystroke	a	n/a
27.1945	0.06	54389	keystroke	Key.space	n/a
27.3895	0.0905	54779	keystroke	l	n/a
27.585	0.075	55170	keystroke	a	n/a
27.81	0.12	55620	keystroke	z	n/a
27.885	0.12	55770	keystroke	y	n/a
28.005	0.09	56010	keystroke	Key.space	n/a
28.17	0.09	56340	keystroke	d	n/a
28.275	0.09	56550	keystroke	o	n/a
28.515	0.09	57030	keystroke	g	n/a
29.2645	0.076	58529	keystroke	Key.enter	n/a
29.3475	6.2645	58695	prompt	n/a	animation neighbors cumulative push\n
30.0155	0.105	60031	keystroke	a	n/a
30.1655	0.09	60331	keystroke	n	n/a
30.3155	0.09	60631	keystroke	i	n/a
30.5105	0.09	61021	keystroke	m	n/a
30.6155	0.09	61231	keystroke	a	n/a
30.7955	0.105	61591	keystroke	t	n/a
30.8855	0.0895	61771	keystroke	i	n/a
31.05	0.075	62100	keystroke	o	n/a
31.215	0.09	62430	keystroke	n	n/a
31.29	0.075	62580	keystroke	Key.space	n/a
31.425	0.0905	62850	keystroke	n	n/a
31.5455	0.09	63091	keystroke	e	n/a
31.6495	0.076	63299	keystroke	i	n/a
31.8455	0.074	63691	keystroke	g	n/a
31.9045	0.105	63809	keystroke	h	n/a
32.1155	0.075	64231	keystroke	b	n/a
32.3245	0.045	64649	keystroke	o	n/a
32.4155	0.105	64831	keystroke	r	n/a
32.6705	0.06	65341	keystroke	s	n/a
32.7595	0.091	65519	keystroke	Key.space	n/a
32.9695	0.076	65939	keystroke	c	n/a
33.1645	0.061	66329	keystroke	u	n/a
33.3905	0.06	66781	keystroke	m	n/a
33.5405	0.09	67081	keystroke	u	n/a
33.7805	0.0595	67561	keystroke	l	n/a
33.885	0.09	67770	keystroke	a	n/a
34.08	0.075	68160	keystroke	t	n/a
34.17	0.091	68340	keystroke	i	n/a
34.32	0.076	68640	keystroke	v	n/a
34.47	0.105	68940	keystroke	e	n/a
34.56	0.09	69120	keystroke	Key.space	n/a
34.71	0.09	69420	keystroke	p	n/a
34.89	0.075	69780	keystroke	u	n/a
35.025	0.091	70050	keystroke	s	n/a
35.1	0.105	70200	keystroke	h	n/a
35.4755	0.135	70951	keystroke	Key.enter	n/a
35.615	6.8825	71230	prompt	n/a	replace deliver limitations tunisia\n
36.495	0.09	72990	keystroke	r	n/a
36.586	0.119	73172	keystroke	e	n/a
36.75	0.06	73500	keystroke	p	n/a
36.915	0.075	73830	keystroke	l	n/a
37.02	0.09	74040	keystroke	a	n/a
37.23	0.075	74460	keystroke	c	n/a
37.335	0.12	74670	keystroke	e	n/a
37.425	0.105	74850	keystroke	Key.space	n/a
37.62	0.075	75240	keystroke	d	n/a
37.755	0.105	75510	keystroke	e	n/a
37.845	0.075	75690	keystroke	l	n/a
38.025	0.09	76050	keystroke	i	n/a
38.1	0.06	76200	keystroke	v	n/a
38.22	0.135	76440	keystroke	e	n/a
38.37	0.105	76740	keystroke	r	n/a
38.49	0.075	76980	keystroke	Key.space	n/a
38.64	0.075	77280	keystroke	l	n/a
38.8205	0.075	77641	keystroke	i	n/a
38.9555	0.075	77911	keystroke	m	n/a
39.0905	0.09	78181	keystroke	i	n/a
39.2855	0.09	78571	keystroke	t	n/a
39.4805	0.09	78961	keystroke	a	n/a
39.6605	0.105	79321	keystroke	t	n/a
39.7655	0.09	79531	keystroke	i	n/a
39.9155	0.075	79831	keystroke	o	n/a
40.125	0.06	80250	keystroke	n	n/a
40.245	0.105	80490	keystroke	s	n/a
40.38	0.075	80760	keystroke	Key.space	n/a
40.77	0.09	81540	keystroke	t	n/a
40.845	0.09	81690	keystroke	u	n/a
41.01	0.075	82020	keystroke	n	n/a
41.175	0.09	82350	keystroke	i	n/a
41.5055	0.06	83011	keystroke	s	n/a
41.5955	0.075	83191	keystroke	i	n/a
41.8205	0.075	83641	keystroke	a	n/a
42.4055	0.09	84811	keystroke	Key.enter	n/a
42.5005	9.717	85001	prompt	n/a	guests nickel elliott parallel\n
43.53	0.105	87060	keystroke	g	n/a
43.62	0.075	87240	keystroke	u	n/a
43.755	0.105	87510	keystroke	e	n/a
44.01	0.075	88020	keystroke	s	n/a
44.25	0.09	88500	keystroke	t	n/a
44.535	0.105	89070	keystroke	s	n/a
44.7	0.075	89400	keystroke	Key.space	n/a
44.91	0.045	89820	keystroke	n	n/a
45.03	0.075	90060	keystroke	i	n/a
45.165	0.105	90330	keystroke	c	n/a
45.255	0.09	90510	keystroke	k	n/a
45.7205	0.09	91441	keystroke	e	n/a
45.8105	0.105	91621	keystroke	l	n/a
45.9455	0.135	91891	keystroke	Key.space	n/a
46.2305	0.09	92461	keystroke	e	n/a
46.3355	0.075	92671	keystroke	l	n/a
46.4705	0.075	92941	keystroke	l	n/a
46.7105	0.075	93421	keystroke	i	n/a
46.9655	0.045	93931	keystroke	o	n/a
47.1	0.075	94200	keystroke	t	n/a
47.295	0.06	94590	keystroke	t	n/a
47.565	0.075	95130	keystroke	Key.space	n/a
47.85	0.075	95700	keystroke	p	n/a
48.675	0.135	97350	keystroke	a	n/a
48.9895	0.091	97979	keystroke	r	n/a
49.935	0.1205	99870	keystroke	a	n/a
50.28	0.0595	100560	keystroke	l	n/a
50.4145	0.091	100829	keystroke	l	n/a
50.5505	0.075	101101	keystroke	e	n/a
50.6255	0.09	101251	keystroke	l	n/a
52.125	0.09	104250	keystroke	Key.enter	n/a
52.2215	8.47	104443	prompt	n/a	visual keith louisiana tent\n
53.5955	0.09	107191	keystroke	v	n/a
53.7455	0.075	107491	keystroke	i	n/a
54.195	0.09	108390	keystroke	s	n/a
54.27	0.12	108540	keystroke	u	n/a
54.54	0.09	109080	keystroke	a	n/a
54.6	0.12	109200	keystroke	l	n/a
54.75	0.075	109500	keystroke	Key.space	n/a
54.945	0.075	109890	keystroke	k	n/a
55.05	0.105	110100	keystroke	e	n/a
55.1855	0.09	110371	keystroke	i	n/a
55.3805	0.09	110761	keystroke	t	n/a
55.4855	0.105	110971	keystroke	h	n/a
55.5755	0.09	111151	keystroke	Key.space	n/a
55.8005	0.09	111601	keystroke	l	n/a
56.0105	0.09	112021	keystroke	o	n/a
56.1755	0.075	112351	keystroke	u	n/a
57.151	0.074	114302	keystroke	i	n/a
57.315	0.09	114630	keystroke	s	n/a
57.421	0.089	114842	keystroke	i	n/a
57.885	0.075	115770	keystroke	a	n/a
58.005	0.09	116010	keystroke	n	n/a
58.14	0.075	116280	keystroke	a	n/a
58.335	0.09	116670	keystroke	Key.space	n/a
58.59	0.105	117180	keystroke	t	n/a
58.77	0.075	117540	keystroke	e	n/a
58.8905	0.09	117781	keystroke	n	n/a
59.1155	0.09	118231	keystroke	t	n/a
60.615	0.075	121230	keystroke	Key.enter	n/a
60.6945	12.748	121389	prompt	n/a	studies physical lets disclose\n
63.842	0.043	127684	keystroke	s	n/a
64.2155	0.075	128431	keystroke	t	n/a
64.3505	0.105	128701	keystroke	u	n/a
64.6655	0.09	129331	keystroke	d	n/a
64.7855	0.075	129571	keystroke	i	n/a
64.9205	0.09	129841	keystroke	e	n/a
65.1755	0.075	130351	keystroke	s	n/a
65.6555	0.075	131311	keystroke	Key.space	n/a
66.27	0.105	132540	keystroke	p	n/a
66.54	0.075	133080	keystroke	h	n/a
66.675	0.12	133350	keystroke	y	n/a
66.915	0.09	133830	keystroke	s	n/a
67.2	0.06	134400	keystroke	i	n/a
67.365	0.075	134730	keystroke	c	n/a
67.56	0.075	135120	keystroke	a	n/a
67.68	0.09	135360	keystroke	l	n/a
67.98	0.09	135960	keystroke	Key.space	n/a
69.075	0.06	138150	keystroke	l	n/a
69.18	0.105	138360	keystroke	e	n/a
69.405	0.045	138810	keystroke	t	n/a
69.751	0.104	139502	keystroke	s	n/a
70.08	0.076	140160	keystroke	Key.space	n/a
70.2755	0.075	140551	keystroke	d	n/a
70.4105	0.06	140821	keystroke	i	n/a
70.5305	0.09	141061	keystroke	s	n/a
70.7705	0.09	141541	keystroke	c	n/a
70.8755	0.075	141751	keystroke	l	n/a
71.0705	0.06	142141	keystroke	o	n/a
71.5205	0.09	143041	keystroke	s	n/a
71.7305	0.09	143461	keystroke	e	n/a
73.321	0.12	146642	keystroke	Key.enter	n/a
73.4485	6.9235	146897	prompt	n/a	most galaxy barbie enrolled\n
74.835	0.09	149670	keystroke	m	n/a
75	0.09	150000	keystroke	o	n/a
75.135	0.0905	150270	keystroke	s	n/a
75.3905	0.0745	150781	keystroke	t	n/a
75.525	0.075	151050	keystroke	Key.space	n/a
75.63	0.105	151260	keystroke	g	n/a
75.99	0.105	151980	keystroke	a	n/a
76.245	0.06	152490	keystroke	l	n/a
76.41	0.075	152820	keystroke	a	n/a
76.71	0.06	153420	keystroke	x	n/a
76.8	0.135	153600	keystroke	y	n/a
76.98	0.075	153960	keystroke	Key.space	n/a
77.22	0.0755	154440	keystroke	b	n/a
77.37	0.06	154740	keystroke	a	n/a
77.5355	0.09	155071	keystroke	r	n/a
77.6855	0.06	155371	keystroke	b	n/a
77.9105	0.075	155821	keystroke	i	n/a
78.0305	0.105	156061	keystroke	e	n/a
78.1955	0.075	156391	keystroke	Key.space	n/a
78.39	0.075	156780	keystroke	e	n/a
78.48	0.075	156960	keystroke	n	n/a
78.69	0.075	157380	keystroke	r	n/a
78.78	0.075	157560	keystroke	o	n/a
79.05	0.061	158100	keystroke	l	n/a
79.185	0.075	158370	keystroke	l	n/a
79.32	0.105	158640	keystroke	e	n/a
79.665	0.0755	159330	keystroke	d	n/a
80.2805	0.09	160561	keystroke	Key.enter	n/a
80.375	8.817	160750	prompt	n/a	maine italiano outsourcing optimum\n
81.0455	0.0895	162091	keystroke	m	n/a
81.165	0.135	162330	keystroke	a	n/a
81.255	0.075	162510	keystroke	i	n/a
81.4655	0.045	162931	keystroke	n	n/a
81.96	0.12	163920	keystroke	e	n/a
82.095	0.06	164190	keystroke	Key.space	n/a
82.245	0.105	164490	keystroke	i	n/a
82.44	0.0605	164880	keystroke	t	n/a
82.6655	0.105	165331	keystroke	a	n/a
82.8305	0.075	165661	keystroke	l	n/a
83.0705	0.075	166141	keystroke	i	n/a
83.3255	0.12	166651	keystroke	a	n/a
83.4605	0.09	166921	keystroke	n	n/a
83.715	0.06	167430	keystroke	o	n/a
83.9705	0.075	167941	keystroke	Key.space	n/a
84.2705	0.09	168541	keystroke	o	n/a
84.3755	0.075	168751	keystroke	u	n/a
84.5105	0.075	169021	keystroke	t	n/a
84.7655	0.105	169531	keystroke	s	n/a
84.9455	0.105	169891	keystroke	o	n/a
85.0655	0.09	170131	keystroke	u	n/a
85.245	0.075	170490	keystroke	r	n/a
85.5	0.09	171000	keystroke	c	n/a
85.575	0.075	171150	keystroke	i	n/a
85.74	0.09	171480	keystroke	n	n/a
86.07	0.075	172140	keystroke	g	n/a
86.31	0.075	172620	keystroke	Key.space	n/a
86.7455	0.075	173491	keystroke	o	n/a
86.9705	0.0595	173941	keystroke	p	n/a
87.1805	0.075	174361	keystroke	t	n/a
87.2855	0.075	174571	keystroke	i	n/a
87.4645	0.091	174929	keystroke	m	n/a
88.021	0.09	176042	keystroke	u	n/a
88.455	0.1345	176910	keystroke	m	n/a
89.1005	0.09	178201	keystroke	Key.enter	n/a
89.195	9.042	178390	prompt	n/a	liabilities wicked domains jennifer\n
90.75	0.075	181500	keystroke	l	n/a
90.93	0.09	181860	keystroke	i	n/a
91.2	0.165	182400	keystroke	a	n/a
91.35	0.03	182700	keystroke	b	n/a
91.6345	0.076	183269	keystroke	i	n/a
91.8605	0.06	183721	keystroke	l	n/a
92.0255	0.09	184051	keystroke	i	n/a
92.2055	0.075	184411	keystroke	t	n/a
92.2955	0.06	184591	keystroke	i	n/a
92.4605	0.09	184921	keystroke	e	n/a
92.6855	0.105	185371	keystroke	s	n/a
92.7605	0.12	185521	keystroke	Key.space	n/a
93.0005	0.105	186001	keystroke	w	n/a
93.1205	0.06	186241	keystroke	i	n/a
93.2855	0.105	186571	keystroke	c	n/a
93.4055	0.075	186811	keystroke	k	n/a
93.5105	0.105	187021	keystroke	e	n/a
93.7055	0.105	187411	keystroke	d	n/a
93.8555	0.09	187711	keystroke	Key.space	n/a
94.1405	0.09	188281	keystroke	d	n/a
94.2155	0.0595	188431	keystroke	o	n/a
94.395	0.09	188790	keystroke	m	n/a
94.53	0.105	189060	keystroke	a	n/a
94.65	0.045	189300	keystroke	i	n/a
94.8305	0.06	189661	keystroke	n	n/a
95.0855	0.075	190171	keystroke	s	n/a
95.2955	0.06	190591	keystroke	Key.space	n/a
95.655	0.06	191310	keystroke	j	n/a
95.82	0.075	191640	keystroke	e	n/a
95.925	0.06	191850	keystroke	n	n/a
96.045	0.0755	192090	keystroke	n	n/a
96.2105	0.075	192421	keystroke	i	n/a
96.3455	0.09	192691	keystroke	f	n/a
96.5105	0.09	193021	keystroke	e	n/a
96.8255	0.09	193651	keystroke	r	n/a
98.1305	0.105	196261	keystroke	Key.enter	n/a
98.2395	7.2875	196479	prompt	n/a	weekends joint samoa launched\n
99.1655	0.09	198331	keystroke	w	n/a
99.36	0.0755	198720	keystroke	e	n/a
99.4955	0.09	198991	keystroke	e	n/a
99.7655	0.075	199531	keystroke	k	n/a
99.9005	0.09	199801	keystroke	e	n/a
100.0205	0.09	200041	keystroke	n	n/a
100.1555	0.09	200311	keystroke	d	n/a
100.3055	0.09	200611	keystroke	s	n/a
100.4405	0.075	200881	keystroke	Key.space	n/a
100.6355	0.075	201271	keystroke	j	n/a
100.8305	0.09	201661	keystroke	o	n/a
101.0405	0.045	202081	keystroke	i	n/a
101.1605	0.09	202321	keystroke	n	n/a
101.5955	0.045	203191	keystroke	t	n/a
101.7305	0.089	203461	keystroke	Key.space	n/a
101.9245	0.091	203849	keystroke	s	n/a
102.1495	0.046	204299	keystroke	a	n/a
102.2105	0.06	204421	keystroke	m	n/a
102.3755	0.075	204751	keystroke	o	n/a
102.5705	0.075	205141	keystroke	a	n/a
102.84	0.09	205680	keystroke	Key.space	n/a
103.71	0.075	207420	keystroke	l	n/a
103.935	0.09	207870	keystroke	a	n/a
104.04	0.09	208080	keystroke	u	n/a
104.28	0.075	208560	keystroke	n	n/a
104.43	0.06	208860	keystroke	c	n/a
104.535	0.075	209070	keystroke	h	n/a
104.64	0.12	209280	keystroke	e	n/a
104.895	0.135	209790	keystroke	d	n/a
105.405	0.12	210810	keystroke	Key.enter	n/a
105.5305	7.9015	211061	prompt	n/a	breeding innovations distributors searching\n
106.17	0.075	212340	keystroke	b	n/a
106.35	0.105	212700	keystroke	r	n/a
106.47	0.09	212940	keystroke	e	n/a
106.68	0.075	213360	keystroke	e	n/a
106.86	0.09	213720	keystroke	d	n/a
106.951	0.059	213902	keystroke	i	n/a
107.115	0.045	214230	keystroke	n	n/a
107.205	0.075	214410	keystroke	g	n/a
107.31	0.09	214620	keystroke	Key.space	n/a
107.9855	0.06	215971	keystroke	i	n/a
108.1355	0.075	216271	keystroke	n	n/a
108.2705	0.06	216541	keystroke	n	n/a
108.4505	0.06	216901	keystroke	o	n/a
108.5405	0.075	217081	keystroke	v	n/a
108.7355	0.09	217471	keystroke	a	n/a
108.9605	0.0895	217921	keystroke	t	n/a
109.065	0.075	218130	keystroke	i	n/a
109.215	0.06	218430	keystroke	o	n/a
109.38	0.09	218760	keystroke	n	n/a
109.485	0.09	218970	keystroke	s	n/a
109.56	0.09	219120	keystroke	Key.space	n/a
109.711	0.089	219422	keystroke	d	n/a
109.876	0.075	219752	keystroke	i	n/a
109.995	0.076	219990	keystroke	s	n/a
110.22	0.0755	220440	keystroke	t	n/a
110.385	0.075	220770	keystroke	r	n/a
110.475	0.09	220950	keystroke	i	n/a
110.655	0.076	221310	keystroke	b	n/a
110.775	0.091	221550	keystroke	u	n/a
110.955	0.09	221910	keystroke	t	n/a
111.2405	0.0595	222481	keystroke	o	n/a
111.375	0.075	222750	keystroke	r	n/a
111.585	0.075	223170	keystroke	s	n/a
111.69	0.09	223380	keystroke	Key.space	n/a
111.795	0.105	223590	keystroke	s	n/a
111.99	0.105	223980	keystroke	e	n/a
112.155	0.105	224310	keystroke	a	n/a
112.35	0.075	224700	keystroke	r	n/a
112.59	0.1205	225180	keystroke	c	n/a
112.695	0.075	225390	keystroke	h	n/a
112.8	0.0755	225600	keystroke	i	n/a
112.9355	0.075	225871	keystroke	n	n/a
113.1155	0.09	226231	keystroke	g	n/a
113.3705	0.06	226741	keystroke	Key.enter	n/a
113.435	6.312	226870	prompt	n/a	neon editor trigger amongst\n
114.091	0.104	228182	keystroke	n	n/a
114.256	0.089	228512	keystroke	e	n/a
114.391	0.06	228782	keystroke	o	n/a
114.601	0.105	229202	keystroke	n	n/a
115.0055	0.09	230011	keystroke	Key.space	n/a
115.245	0.075	230490	keystroke	e	n/a
115.4705	0.075	230941	keystroke	d	n/a
115.5755	0.075	231151	keystroke	i	n/a
115.7855	0.09	231571	keystroke	t	n/a
115.8605	0.075	231721	keystroke	o	n/a
116.0855	0.0595	232171	keystroke	r	n/a
116.22	0.09	232440	keystroke	Key.space	n/a
116.685	0.0905	233370	keystroke	t	n/a
116.8655	0.09	233731	keystroke	r	n/a
116.9705	0.06	233941	keystroke	i	n/a
117.1655	0.09	234331	keystroke	g	n/a
117.3155	0.075	234631	keystroke	g	n/a
117.465	0.09	234930	keystroke	e	n/a
117.585	0.105	235170	keystroke	r	n/a
117.75	0.075	235500	keystroke	Key.space	n/a
118.095	0.151	236190	keystroke	a	n/a
118.201	0.105	236402	keystroke	m	n/a
118.411	0.059	236822	keystroke	o	n/a
118.591	0.075	237182	keystroke	n	n/a
118.681	0.0895	237362	keystroke	g	n/a
118.9205	0.105	237841	keystroke	s	n/a
119.1605	0.09	238321	keystroke	t	n/a
119.6405	0.105	239281	keystroke	Key.enter	n/a
119.75	5.802	239500	prompt	n/a	hist camping jason adapters\n
120.3905	0.075	240781	keystroke	h	n/a
120.5405	0.075	241081	keystroke	i	n/a
120.6305	0.06	241261	keystroke	s	n/a
120.8555	0.075	241711	keystroke	t	n/a
120.9905	0.105	241981	keystroke	Key.space	n/a
121.65	0.09	243300	keystroke	c	n/a
121.845	0.12	243690	keystroke	a	n/a
121.95	0.075	243900	keystroke	m	n/a
122.191	0.059	244382	keystroke	p	n/a
122.385	0.075	244770	keystroke	i	n/a
122.52	0.075	245040	keystroke	n	n/a
122.67	0.06	245340	keystroke	g	n/a
123.06	0.09	246120	keystroke	Key.space	n/a
123.285	0.075	246570	keystroke	j	n/a
123.42	0.06	246840	keystroke	a	n/a
123.63	0.075	247260	keystroke	s	n/a
123.72	0.06	247440	keystroke	o	n/a
123.9	0.075	247800	keystroke	n	n/a
124.005	0.0605	248010	keystroke	Key.space	n/a
124.1105	0.105	248221	keystroke	a	n/a
124.3055	0.09	248611	keystroke	d	n/a
124.4405	0.09	248881	keystroke	a	n/a
124.5455	0.075	249091	keystroke	p	n/a
124.7255	0.09	249451	keystroke	t	n/a
124.8605	0.075	249721	keystroke	e	n/a
124.9655	0.09	249931	keystroke	r	n/a
125.2055	0.075	250411	keystroke	s	n/a
125.4455	0.105	250891	keystroke	Key.enter	n/a
125.5555	5.9365	251111	prompt	n/a	interim complete our another\n
126.1805	0.075	252361	keystroke	i	n/a
126.3755	0.075	252751	keystroke	n	n/a
126.5255	0.09	253051	keystroke	t	n/a
126.7355	0.12	253471	keystroke	e	n/a
126.8705	0.12	253741	keystroke	r	n/a
127.0955	0.075	254191	keystroke	i	n/a
127.2605	0.12	254521	keystroke	m	n/a
127.4555	0.09	254911	keystroke	Key.space	n/a
127.7555	0.09	255511	keystroke	c	n/a
127.8005	0.075	255601	keystroke	o	n/a
127.935	0.105	255870	keystroke	m	n/a
128.16	0.06	256320	keystroke	p	n/a
128.34	0.09	256680	keystroke	l	n/a
128.46	0.12	256920	keystroke	e	n/a
128.595	0.12	257190	keystroke	t	n/a
128.73	0.105	257460	keystroke	e	n/a
128.895	0.09	257790	keystroke	Key.space	n/a
129.09	0.105	258180	keystroke	o	n/a
129.18	0.09	258360	keystroke	u	n/a
129.345	0.075	258690	keystroke	t	n/a
129.6305	0.06	259261	keystroke	Key.backspace	n/a
129.9305	0.06	259861	keystroke	r	n/a
130.0805	0.06	260161	keystroke	Key.space	n/a
130.3205	0.105	260641	keystroke	a	n/a
130.5005	0.09	261001	keystroke	n	n/a
130.7105	0.06	261421	keystroke	o	n/a
130.815	0.105	261630	keystroke	t	n/a
130.92	0.0605	261840	keystroke	h	n/a
131.04	0.12	262080	keystroke	e	n/a
131.13	0.151	262260	keystroke	r	n/a
131.4	0.0905	262800	keystroke	Key.enter	n/a
131.495	9.222	262990	prompt	n/a	o'clock sustained vegetables runtime\n
132.3305	0.06	264661	keystroke	o	n/a
132.6005	0.03	265201	keystroke	'	n/a
133.485	0.06	266970	keystroke	c	n/a
133.8	0.075	267600	keystroke	l	n/a
133.965	0.06	267930	keystroke	o	n/a
134.1	0.075	268200	keystroke	c	n/a
134.19	0.105	268380	keystroke	k	n/a
134.325	0.09	268650	keystroke	Key.space	n/a
134.625	0.09	269250	keystroke	s	n/a
134.73	0.075	269460	keystroke	u	n/a
134.82	0.09	269640	keystroke	s	n/a
135.03	0.09	270060	keystroke	t	n/a
135.225	0.09	270450	keystroke	a	n/a
135.33	0.06	270660	keystroke	i	n/a
135.48	0.06	270960	keystroke	n	n/a
135.615	0.09	271230	keystroke	e	n/a
135.84	0.075	271680	keystroke	d	n/a
135.96	0.09	271920	keystroke	Key.space	n/a
136.62	0.06	273240	keystroke	v	n/a
136.77	0.12	273540	keystroke	e	n/a
137.145	0.075	274290	keystroke	g	n/a
137.325	0.075	274650	keystroke	e	n/a
137.7455	0.09	275491	keystroke	t	n/a
138.0005	0.105	276001	keystroke	a	n/a
138.1655	0.075	276331	keystroke	b	n/a
138.4205	0.06	276841	keystroke	l	n/a
138.5705	0.075	277141	keystroke	e	n/a
138.7955	0.09	277591	keystroke	s	n/a
138.9305	0.09	277861	keystroke	Key.space	n/a
139.1855	0.09	278371	keystroke	r	n/a
139.2755	0.075	278551	keystroke	u	n/a
139.4705	0.075	278941	keystroke	n	n/a
139.6655	0.0745	279331	keystroke	t	n/a
139.755	0.061	279510	keystroke	i	n/a
139.905	0.106	279810	keystroke	m	n/a
140.04	0.075	280080	keystroke	e	n/a
140.625	0.09	281250	keystroke	Key.enter	n/a
140.7205	7.2865	281441	prompt	n/a	losing opened nintendo normally\n
142.065	0.06	284130	keystroke	l	n/a
142.26	0.045	284520	keystroke	o	n/a
142.4405	0.09	284881	keystroke	s	n/a
142.5755	0.045	285151	keystroke	i	n/a
142.7105	0.06	285421	keystroke	n	n/a
142.8155	0.09	285631	keystroke	g	n/a
142.9355	0.09	285871	keystroke	Key.space	n/a
143.1605	0.075	286321	keystroke	o	n/a
143.3405	0.06	286681	keystroke	p	n/a
143.4305	0.0895	286861	keystroke	e	n/a
143.535	0.105	287070	keystroke	n	n/a
143.655	0.0755	287310	keystroke	e	n/a
143.85	0.075	287700	keystroke	d	n/a
143.955	0.075	287910	keystroke	Key.space	n/a
144.1955	0.075	288391	keystroke	n	n/a
144.3605	0.06	288721	keystroke	i	n/a
144.5405	0.09	289081	keystroke	n	n/a
144.7805	0.075	289561	keystroke	t	n/a
144.9905	0.045	289981	keystroke	e	n/a
145.0505	0.075	290101	keystroke	n	n/a
145.23	0.09	290460	keystroke	d	n/a
145.335	0.045	290670	keystroke	o	n/a
145.5155	0.075	291031	keystroke	Key.space	n/a
145.9205	0.06	291841	keystroke	n	n/a
146.1155	0.045	292231	keystroke	o	n/a
146.2655	0.075	292531	keystroke	r	n/a
146.3705	0.09	292741	keystroke	m	n/a
147.0155	0.09	294031	keystroke	a	n/a
147.1205	0.045	294241	keystroke	l	n/a
147.2255	0.06	294451	keystroke	l	n/a
147.4355	0.12	294871	keystroke	y	n/a
147.9305	0.075	295861	keystroke	Key.enter	n/a
148.012	6.64	296024	prompt	n/a	bent wonderful tony consolidation\n
148.7855	0.075	297571	keystroke	b	n/a
148.9205	0.09	297841	keystroke	e	n/a
149.0255	0.075	298051	keystroke	n	n/a
149.2505	0.06	298501	keystroke	t	n/a
149.3705	0.09	298741	keystroke	Key.space	n/a
149.5205	0.105	299041	keystroke	w	n/a
149.6105	0.06	299221	keystroke	o	n/a
149.8055	0.075	299611	keystroke	n	n/a
149.8805	0.105	299761	keystroke	d	n/a
150.0455	0.12	300091	keystroke	e	n/a
150.2105	0.075	300421	keystroke	r	n/a
150.4505	0.075	300901	keystroke	f	n/a
150.5405	0.09	301081	keystroke	u	n/a
150.8705	0.06	301741	keystroke	l	n/a
151.1405	0.09	302281	keystroke	Key.space	n/a
151.4105	0.0895	302821	keystroke	t	n/a
151.485	0.075	302970	keystroke	o	n/a
151.65	0.09	303300	keystroke	n	n/a
151.86	0.075	303720	keystroke	y	n/a
152.025	0.075	304050	keystroke	Key.space	n/a
152.19	0.091	304380	keystroke	c	n/a
152.295	0.076	304590	keystroke	o	n/a
152.475	0.075	304950	keystroke	n	n/a
152.625	0.09	305250	keystroke	s	n/a
152.731	0.06	305462	keystroke	o	n/a
152.91	0.06	305820	keystroke	l	n/a
153.091	0.0745	306182	keystroke	i	n/a
153.2105	0.075	306421	keystroke	d	n/a
153.3305	0.105	306661	keystroke	a	n/a
153.5555	0.075	307111	keystroke	t	n/a
153.6455	0.09	307291	keystroke	i	n/a
153.8255	0.045	307651	keystroke	o	n/a
153.991	0.09	307982	keystroke	n	n/a
154.56	0.09	309120	keystroke	Key.enter	n/a
154.6555	7.7965	309311	prompt	n/a	robert christian choir rainbow\n
155.3105	0.09	310621	keystroke	r	n/a
155.4155	0.06	310831	keystroke	o	n/a
155.6255	0.075	311251	keystroke	b	n/a
155.7305	0.1345	311461	keystroke	e	n/a
155.881	0.105	311762	keystroke	r	n/a
156.1205	0.075	312241	keystroke	t	n/a
156.2555	0.0745	312511	keystroke	Key.space	n/a
156.45	0.075	312900	keystroke	c	n/a
156.54	0.09	313080	keystroke	h	n/a
156.69	0.075	313380	keystroke	r	n/a
156.81	0.075	313620	keystroke	i	n/a
156.93	0.105	313860	keystroke	s	n/a
157.155	0.09	314310	keystroke	t	n/a
157.4255	0.06	314851	keystroke	i	n/a
157.6205	0.09	315241	keystroke	a	n/a
157.7405	0.075	315481	keystroke	n	n/a
157.8605	0.09	315721	keystroke	Key.space	n/a
158.1605	0.105	316321	keystroke	c	n/a
158.2205	0.09	316441	keystroke	h	n/a
158.4305	0.06	316861	keystroke	o	n/a
158.6255	0.06	317251	keystroke	i	n/a
158.9105	0.06	317821	keystroke	r	n/a
159.4355	0.09	318871	keystroke	Key.space	n/a
159.7205	0.015	319441	keystroke	r	n/a
159.8105	0.105	319621	keystroke	a	n/a
159.9305	0.105	319861	keystroke	n	n/a
160.305	0.06	320610	keystroke	Key.backspace	n/a
160.59	0.06	321180	keystroke	i	n/a
160.74	0.0905	321480	keystroke	n	n/a
161.1	0.075	322200	keystroke	b	n/a
161.385	0.075	322770	keystroke	o	n/a
161.52	0.075	323040	keystroke	w	n/a
162.3305	0.12	324661	keystroke	Key.enter	n/a
162.4545	8.6675	324909	prompt	n/a	warranty discrimination lock matrix\n
163.455	0.0905	326910	keystroke	w	n/a
163.6355	0.12	327271	keystroke	a	n/a
163.9055	0.06	327811	keystroke	r	n/a
164.0255	0.09	328051	keystroke	r	n/a
164.2055	0.09	328411	keystroke	a	n/a
164.2805	0.075	328561	keystroke	n	n/a
164.4605	0.075	328921	keystroke	t	n/a
164.5805	0.075	329161	keystroke	y	n/a
164.9105	0.075	329821	keystroke	Key.space	n/a
165.1655	0.09	330331	keystroke	d	n/a
165.3005	0.09	330601	keystroke	i	n/a
165.4055	0.075	330811	keystroke	s	n/a
165.6005	0.09	331201	keystroke	c	n/a
165.8105	0.075	331621	keystroke	r	n/a
165.8705	0.09	331741	keystroke	i	n/a
166.0355	0.09	332071	keystroke	m	n/a
166.1705	0.09	332341	keystroke	i	n/a
166.3355	0.06	332671	keystroke	n	n/a
166.56	0.075	333120	keystroke	a	n/a
166.815	0.075	333630	keystroke	t	n/a
166.92	0.0755	333840	keystroke	i	n/a
167.0705	0.06	334141	keystroke	o	n/a
167.2205	0.075	334441	keystroke	n	n/a
167.3105	0.075	334621	keystroke	Key.space	n/a
167.475	0.06	334950	keystroke	l	n/a
167.625	0.06	335250	keystroke	o	n/a
167.85	0.075	335700	keystroke	c	n/a
167.955	0.075	335910	keystroke	k	n/a
168.09	0.06	336180	keystroke	Key.space	n/a
168.255	0.09	336510	keystroke	m	n/a
168.405	0.09	336810	keystroke	a	n/a
168.66	0.09	337320	keystroke	t	n/a
168.855	0.06	337710	keystroke	r	n/a
168.93	0.075	337860	keystroke	i	n/a
169.3955	0.09	338791	keystroke	x	n/a
171.0005	0.1195	342001	keystroke	Key.enter	n/a
171.125	9.627	342250	prompt	n/a	claimed dynamic postposted every\n
171.736	0.074	343472	keystroke	c	n/a
171.916	0.074	343832	keystroke	l	n/a
172.051	0.104	344102	keystroke	a	n/a
172.14	0.076	344280	keystroke	i	n/a
172.32	0.09	344640	keystroke	m	n/a
172.44	0.105	344880	keystroke	e	n/a
172.665	0.09	345330	keystroke	d	n/a
172.785	0.105	345570	keystroke	Key.space	n/a
173.086	0.075	346172	keystroke	d	n/a
173.19	0.075	346380	keystroke	y	n/a
173.43	0.09	346860	keystroke	n	n/a
173.565	0.105	347130	keystroke	a	n/a
173.685	0.09	347370	keystroke	m	n/a
173.8805	0.06	347761	keystroke	i	n/a
174.0755	0.075	348151	keystroke	c	n/a
174.2405	0.06	348481	keystroke	Key.space	n/a
174.6005	0.06	349201	keystroke	p	n/a
174.7505	0.105	349501	keystroke	o	n/a
174.8855	0.09	349771	keystroke	s	n/a
175.1405	0.075	350281	keystroke	t	n/a
175.4255	0.075	350851	keystroke	p	n/a
175.6205	0.045	351241	keystroke	o	n/a
176.3555	0.105	352711	keystroke	s	n/a
176.595	0.105	353190	keystroke	t	n/a
177.555	0.09	355110	keystroke	e	n/a
177.825	0.106	355650	keystroke	d	n/a
178.6805	0.06	357361	keystroke	Key.space	n/a
179.58	0.105	359160	keystroke	e	n/a
179.79	0.06	359580	keystroke	v	n/a
179.88	0.12	359760	keystroke	e	n/a
180.015	0.09	360030	keystroke	r	n/a
180.12	0.075	360240	keystroke	y	n/a
180.6455	0.105	361291	keystroke	Key.enter	n/a
180.7555	5.8315	361511	prompt	n/a	penetration commented nathan herbs\n
181.6955	0.06	363391	keystroke	p	n/a
181.7855	0.09	363571	keystroke	e	n/a
181.9055	0.09	363811	keystroke	n	n/a
182.0105	0.12	364021	keystroke	e	n/a
182.2955	0.075	364591	keystroke	t	n/a
182.4605	0.075	364921	keystroke	r	n/a
182.6255	0.09	365251	keystroke	a	n/a
182.8355	0.09	365671	keystroke	t	n/a
182.9105	0.09	365821	keystroke	i	n/a
183.0755	0.06	366151	keystroke	o	n/a
183.2405	0.075	366481	keystroke	n	n/a
183.3305	0.075	366661	keystroke	Key.space	n/a
183.4505	0.105	366901	keystroke	c	n/a
183.5405	0.075	367081	keystroke	o	n/a
183.7205	0.075	367441	keystroke	m	n/a
183.8405	0.075	367681	keystroke	m	n/a
183.9455	0.105	367891	keystroke	e	n/a
184.0505	0.09	368101	keystroke	n	n/a
184.1855	0.09	368371	keystroke	t	n/a
184.3655	0.06	368731	keystroke	e	n/a
184.5305	0.075	369061	keystroke	d	n/a
184.6355	0.0745	369271	keystroke	Key.space	n/a
184.785	0.075	369570	keystroke	n	n/a
184.89	0.075	369780	keystroke	a	n/a
185.056	0.089	370112	keystroke	t	n/a
185.13	0.075	370260	keystroke	h	n/a
185.28	0.105	370560	keystroke	a	n/a
185.415	0.09	370830	keystroke	n	n/a
185.535	0.06	371070	keystroke	Key.space	n/a
185.715	0.06	371430	keystroke	h	n/a
185.82	0.061	371640	keystroke	e	n/a
185.97	0.075	371940	keystroke	r	n/a
186.06	0.06	372120	keystroke	b	n/a
186.24	0.075	372480	keystroke	s	n/a
186.51	0.075	373020	keystroke	Key.enter	n/a
186.5895	6.3875	373179	prompt	n/a	costa governance rarely relating\n
187.56	0.09	375120	keystroke	c	n/a
187.635	0.09	375270	keystroke	o	n/a
187.815	0.09	375630	keystroke	s	n/a
188.01	0.075	376020	keystroke	t	n/a
188.22	0.09	376440	keystroke	a	n/a
188.34	0.09	376680	keystroke	Key.space	n/a
188.685	0.06	377370	keystroke	g	n/a
188.7905	0.06	377581	keystroke	o	n/a
188.9555	0.075	377911	keystroke	v	n/a
189.1505	0.15	378301	keystroke	e	n/a
189.2855	0.105	378571	keystroke	r	n/a
189.4055	0.09	378811	keystroke	n	n/a
189.5555	0.105	379111	keystroke	a	n/a
189.6755	0.075	379351	keystroke	n	n/a
189.8705	0.075	379741	keystroke	c	n/a
189.9905	0.09	379981	keystroke	e	n/a
190.2605	0.075	380521	keystroke	Key.space	n/a
190.425	0.09	380850	keystroke	r	n/a
190.65	0.075	381300	keystroke	a	n/a
190.83	0.076	381660	keystroke	r	n/a
190.92	0.105	381840	keystroke	e	n/a
191.0705	0.075	382141	keystroke	l	n/a
191.2655	0.075	382531	keystroke	y	n/a
191.3705	0.09	382741	keystroke	Key.space	n/a
191.6255	0.09	383251	keystroke	r	n/a
191.7305	0.075	383461	keystroke	e	n/a
191.8055	0.09	383611	keystroke	l	n/a
191.9705	0.09	383941	keystroke	a	n/a
192.1655	0.105	384331	keystroke	t	n/a
192.3455	0.06	384691	keystroke	i	n/a
192.4655	0.09	384931	keystroke	n	n/a
192.6305	0.09	385261	keystroke	g	n/a
192.9005	0.075	385801	keystroke	Key.enter	n/a
192.98	5.832	385960	prompt	n/a	society comments sender completing\n
193.6355	0.09	387271	keystroke	s	n/a
193.7105	0.09	387421	keystroke	o	n/a
193.9205	0.06	387841	keystroke	c	n/a
194.0555	0.075	388111	keystroke	i	n/a
194.2655	0.09	388531	keystroke	e	n/a
194.4755	0.075	388951	keystroke	t	n/a
194.5655	0.09	389131	keystroke	y	n/a
194.7005	0.075	389401	keystroke	Key.space	n/a
194.9255	0.06	389851	keystroke	c	n/a
195.0005	0.075	390001	keystroke	o	n/a
195.1805	0.075	390361	keystroke	m	n/a
195.3005	0.075	390601	keystroke	m	n/a
195.42	0.075	390840	keystroke	e	n/a
195.54	0.06	391080	keystroke	n	n/a
195.645	0.06	391290	keystroke	t	n/a
195.885	0.06	391770	keystroke	s	n/a
195.975	0.075	391950	keystroke	Key.space	n/a
196.155	0.075	392310	keystroke	s	n/a
196.35	0.075	392700	keystroke	e	n/a
196.41	0.09	392820	keystroke	n	n/a
196.56	0.075	393120	keystroke	d	n/a
196.71	0.09	393420	keystroke	e	n/a
196.83	0.105	393660	keystroke	r	n/a
196.98	0.075	393960	keystroke	Key.space	n/a
197.145	0.105	394290	keystroke	c	n/a
197.235	0.06	394470	keystroke	o	n/a
197.34	0.09	394680	keystroke	m	n/a
197.535	0.075	395070	keystroke	p	n/a
197.73	0.076	395460	keystroke	l	n/a
197.82	0.09	395640	keystroke	e	n/a
197.985	0.075	395970	keystroke	t	n/a
198.075	0.06	396150	keystroke	i	n/a
198.21	0.075	396420	keystroke	n	n/a
198.36	0.06	396720	keystroke	g	n/a
198.735	0.075	397470	keystroke	Key.enter	n/a
198.8145	8.5175	397629	prompt	n/a	kazakhstan solved occasions thereof\n
199.546	0.09	399092	keystroke	k	n/a
199.7555	0.075	399511	keystroke	a	n/a
200.0105	0.09	400021	keystroke	z	n/a
200.2805	0.075	400561	keystroke	a	n/a
200.6255	0.09	401251	keystroke	k	n/a
200.9555	0.135	401911	keystroke	h	n/a
201.6005	0.09	403201	keystroke	s	n/a
201.7955	0.09	403591	keystroke	t	n/a
202.006	0.104	404012	keystroke	a	n/a
202.125	0.12	404250	keystroke	n	n/a
202.29	0.105	404580	keystroke	Key.space	n/a
202.665	0.105	405330	keystroke	s	n/a
202.785	0.075	405570	keystroke	o	n/a
202.996	0.0745	405992	keystroke	l	n/a
203.2955	0.075	406591	keystroke	v	n/a
203.49	0.075	406980	keystroke	e	n/a
203.685	0.12	407370	keystroke	d	n/a
203.865	0.09	407730	keystroke	Key.space	n/a
204.165	0.06	408330	keystroke	o	n/a
204.36	0.09	408720	keystroke	c	n/a
204.525	0.075	409050	keystroke	c	n/a
204.735	0.075	409470	keystroke	a	n/a
204.9	0.09	409800	keystroke	s	n/a
205.005	0.06	410010	keystroke	i	n/a
205.1705	0.045	410341	keystroke	o	n/a
205.3505	0.075	410701	keystroke	n	n/a
205.4555	0.09	410911	keystroke	s	n/a
205.5905	0.075	411181	keystroke	Key.space	n/a
205.7555	0.09	411511	keystroke	t	n/a
205.8305	0.09	411661	keystroke	h	n/a
205.9355	0.12	411871	keystroke	e	n/a
206.0705	0.15	412141	keystroke	r	n/a
206.2055	0.09	412411	keystroke	e	n/a
206.3855	0.075	412771	keystroke	o	n/a
206.7	0.0755	413400	keystroke	f	n/a
207.2405	0.09	414481	keystroke	Key.enter	n/a
207.335	6.657	414670	prompt	n/a	wonder yukon equity realtor\n
208.0955	0.09	416191	keystroke	w	n/a
208.1555	0.06	416311	keystroke	o	n/a
208.3505	0.075	416701	keystroke	n	n/a
208.4705	0.09	416941	keystroke	d	n/a
208.6205	0.15	417241	keystroke	e	n/a
208.7555	0.105	417511	keystroke	r	n/a
208.8755	0.09	417751	keystroke	Key.space	n/a
209.0705	0.09	418141	keystroke	y	n/a
209.325	0.09	418650	keystroke	u	n/a
209.5655	0.075	419131	keystroke	k	n/a
209.7305	0.06	419461	keystroke	o	n/a
209.8955	0.09	419791	keystroke	n	n/a
210.0005	0.09	420001	keystroke	Key.space	n/a
210.3755	0.09	420751	keystroke	e	n/a
210.6905	0.06	421381	keystroke	q	n/a
210.7655	0.09	421531	keystroke	u	n/a
211.0355	0.015	422071	keystroke	i	n/a
211.1705	0.09	422341	keystroke	t	n/a
211.3505	0.075	422701	keystroke	y	n/a
211.6055	0.075	423211	keystroke	Key.space	n/a
211.8005	0.09	423601	keystroke	r	n/a
211.8755	0.0895	423751	keystroke	e	n/a
212.101	0.089	424202	keystroke	a	n/a
212.206	0.074	424412	keystroke	l	n/a
212.43	0.06	424860	keystroke	t	n/a
212.506	0.074	425012	keystroke	o	n/a
213.195	0.06	426390	keystroke	r	n/a
213.915	0.075	427830	keystroke	Key.enter	n/a
213.995	12.402	427990	prompt	n/a	amounts unable acdbentity signed\n
214.575	0.1355	429150	keystroke	a	n/a
214.6955	0.06	429391	keystroke	m	n/a
214.9055	0.09	429811	keystroke	o	n/a
214.9655	0.075	429931	keystroke	u	n/a
215.1605	0.075	430321	keystroke	n	n/a
215.2505	0.09	430501	keystroke	t	n/a
215.4905	0.075	430981	keystroke	s	n/a
215.7755	0.09	431551	keystroke	Key.space	n/a
215.9855	0.06	431971	keystroke	u	n/a
216.1355	0.09	432271	keystroke	n	n/a
216.2855	0.105	432571	keystroke	a	n/a
216.3755	0.075	432751	keystroke	b	n/a
216.6005	0.06	433201	keystroke	l	n/a
216.7205	0.075	433441	keystroke	e	n/a
216.8105	0.075	433621	keystroke	Key.space	n/a
216.9305	0.09	433861	keystroke	a	n/a
217.2455	0.09	434491	keystroke	c	n/a
217.8455	0.09	435691	keystroke	d	n/a
218.4905	0.09	436981	keystroke	b	n/a
218.7455	0.09	437491	keystroke	e	n/a
218.8505	0.09	437701	keystroke	n	n/a
219.0905	0.09	438181	keystroke	t	n/a
219.2255	0.06	438451	keystroke	i	n/a
219.4805	0.015	438961	keystroke	t	n/a
219.5405	0.09	439081	keystroke	y	n/a
219.9905	0.0895	439981	keystroke	Key.space	n/a
225.168	0.027	450336	keystroke	s	n/a
225.225	0.075	450450	keystroke	i	n/a
225.42	0.0755	450840	keystroke	g	n/a
225.5105	0.09	451021	keystroke	n	n/a
225.6455	0.075	451291	keystroke	e	n/a
225.9155	0.09	451831	keystroke	d	n/a
226.3055	0.09	452611	keystroke	Key.enter	n/a
226.4015	6.6255	452803	prompt	n/a	hong distribute national toolbox\n
227.0555	0.06	454111	keystroke	h	n/a
227.2205	0.075	454441	keystroke	o	n/a
227.3855	0.075	454771	keystroke	n	n/a
227.4905	0.09	454981	keystroke	g	n/a
227.6105	0.075	455221	keystroke	Key.space	n/a
227.8205	0.075	455641	keystroke	d	n/a
227.9105	0.075	455821	keystroke	i	n/a
228.0455	0.09	456091	keystroke	s	n/a
228.2855	0.075	456571	keystroke	t	n/a
228.4655	0.06	456931	keystroke	r	n/a
228.5555	0.075	457111	keystroke	i	n/a
228.961	0.075	457922	keystroke	b	n/a
229.126	0.06	458252	keystroke	u	n/a
229.381	0.045	458762	keystroke	t	n/a
229.561	0.074	459122	keystroke	e	n/a
229.68	0.075	459360	keystroke	Key.space	n/a
229.846	0.089	459692	keystroke	n	n/a
230.041	0.059	460082	keystroke	a	n/a
230.221	0.09	460442	keystroke	t	n/a
230.296	0.09	460592	keystroke	i	n/a
230.476	0.06	460952	keystroke	o	n/a
230.641	0.075	461282	keystroke	n	n/a
230.746	0.09	461492	keystroke	a	n/a
230.85	0.076	461700	keystroke	l	n/a
230.97	0.0605	461940	keystroke	Key.space	n/a
231.1205	0.075	462241	keystroke	t	n/a
231.3005	0.06	462601	keystroke	o	n/a
231.45	0.0905	462900	keystroke	o	n/a
231.6755	0.075	463351	keystroke	l	n/a
232.2005	0.075	464401	keystroke	b	n/a
232.3955	0.06	464791	keystroke	o	n/a
232.5155	0.09	465031	keystroke	x	n/a
232.9205	0.105	465841	keystroke	Key.enter	n/a
233.03	7.2275	466060	prompt	n/a	clothing bedroom portsmouth topics\n
233.716	0.089	467432	keystroke	c	n/a
233.776	0.105	467552	keystroke	l	n/a
233.971	0.06	467942	keystroke	o	n/a
234.076	0.105	468152	keystroke	t	n/a
234.181	0.06	468362	keystroke	h	n/a
234.271	0.075	468542	keystroke	i	n/a
234.406	0.09	468812	keystroke	n	n/a
234.511	0.09	469022	keystroke	g	n/a
234.616	0.075	469232	keystroke	Key.space	n/a
234.751	0.09	469502	keystroke	b	n/a
234.856	0.09	469712	keystroke	e	n/a
235.066	0.075	470132	keystroke	d	n/a
235.246	0.075	470492	keystroke	r	n/a
235.321	0.06	470642	keystroke	o	n/a
235.4705	0.06	470941	keystroke	o	n/a
235.6355	0.075	471271	keystroke	m	n/a
235.7405	0.075	471481	keystroke	Key.space	n/a
235.9655	0.03	471931	keystroke	p	n/a
236.1755	0.06	472351	keystroke	o	n/a
236.4755	0.06	472951	keystroke	r	n/a
236.6555	0.075	473311	keystroke	t	n/a
237.0755	0.105	474151	keystroke	s	n/a
237.2855	0.075	474571	keystroke	m	n/a
237.4655	0.12	474931	keystroke	o	n/a
237.5555	0.09	475111	keystroke	u	n/a
237.7355	0.105	475471	keystroke	t	n/a
237.8255	0.09	475651	keystroke	h	n/a
237.9305	0.09	475861	keystroke	Key.space	n/a
238.1255	0.09	476251	keystroke	t	n/a
238.2455	0.075	476491	keystroke	o	n/a
238.7555	0.03	477511	keystroke	p	n/a
238.9205	0.06	477841	keystroke	i	n/a
239.0255	0.075	478051	keystroke	c	n/a
239.2055	0.075	478411	keystroke	s	n/a
240.15	0.1055	480300	keystroke	Key.enter	n/a
240.26	9.522	480520	prompt	n/a	keyboards disabilities myth instances\n
241.0055	0.045	482011	keystroke	k	n/a
241.1105	0.1055	482221	keystroke	e	n/a
241.186	0.09	482372	keystroke	y	n/a
241.396	0.06	482792	keystroke	b	n/a
241.591	0.075	483182	keystroke	o	n/a
241.711	0.15	483422	keystroke	a	n/a
241.831	0.1045	483662	keystroke	r	n/a
242.0255	0.09	484051	keystroke	d	n/a
242.1455	0.09	484291	keystroke	s	n/a
242.2655	0.075	484531	keystroke	Key.space	n/a
242.4755	0.09	484951	keystroke	d	n/a
242.5805	0.09	485161	keystroke	i	n/a
243.421	0.105	486842	keystroke	s	n/a
243.571	0.135	487142	keystroke	a	n/a
244.666	0.075	489332	keystroke	b	n/a
245.206	0.09	490412	keystroke	i	n/a
245.6255	0.09	491251	keystroke	l	n/a
245.8805	0.075	491761	keystroke	i	n/a
246.1055	0.105	492211	keystroke	t	n/a
246.2255	0.105	492451	keystroke	i	n/a
246.3755	0.105	492751	keystroke	e	n/a
246.6605	0.09	493321	keystroke	s	n/a
246.8855	0.09	493771	keystroke	Key.space	n/a
247.1255	0.075	494251	keystroke	m	n/a
247.3505	0.075	494701	keystroke	y	n/a
247.4855	0.105	494971	keystroke	t	n/a
247.6055	0.09	495211	keystroke	h	n/a
247.9355	0.075	495871	keystroke	Key.space	n/a
248.1305	0.06	496261	keystroke	i	n/a
248.2805	0.09	496561	keystroke	n	n/a
248.3855	0.09	496771	keystroke	s	n/a
248.5655	0.075	497131	keystroke	t	n/a
248.7455	0.105	497491	keystroke	a	n/a
248.8655	0.075	497731	keystroke	n	n/a
249.0305	0.09	498061	keystroke	c	n/a
249.1805	0.09	498361	keystroke	e	n/a
249.4055	0.0755	498811	keystroke	s	n/a
249.721	0.06	499442	keystroke	Key.enter	n/a
249.786	8.711	499572	prompt	n/a	encourages times conflict civilian\n
250.6055	0.105	501211	keystroke	e	n/a
250.7255	0.09	501451	keystroke	n	n/a
250.8755	0.105	501751	keystroke	c	n/a
251.0705	0.1055	502141	keystroke	o	n/a
251.146	0.105	502292	keystroke	u	n/a
251.28	0.105	502560	keystroke	r	n/a
251.52	0.076	503040	keystroke	a	n/a
251.625	0.075	503250	keystroke	g	n/a
251.82	0.0605	503640	keystroke	e	n/a
252.0305	0.0595	504061	keystroke	s	n/a
252.12	0.09	504240	keystroke	Key.space	n/a
252.3	0.09	504600	keystroke	t	n/a
252.4055	0.0445	504811	keystroke	i	n/a
252.585	0.105	505170	keystroke	m	n/a
252.7655	0.0745	505531	keystroke	e	n/a
252.9905	0.075	505981	keystroke	s	n/a
253.1255	0.075	506251	keystroke	Key.space	n/a
253.2455	0.105	506491	keystroke	c	n/a
253.3205	0.06	506641	keystroke	o	n/a
253.4705	0.105	506941	keystroke	n	n/a
253.6205	0.105	507241	keystroke	f	n/a
253.7105	0.075	507421	keystroke	l	n/a
253.8605	0.09	507721	keystroke	i	n/a
253.9955	0.105	507991	keystroke	c	n/a
255.346	0.09	510692	keystroke	t	n/a
255.675	0.045	511350	keystroke	Key.space	n/a
256.036	0.104	512072	keystroke	c	n/a
256.155	0.0905	512310	keystroke	i	n/a
256.3205	0.09	512641	keystroke	v	n/a
256.4255	0.09	512851	keystroke	i	n/a
256.6955	0.075	513391	keystroke	l	n/a
256.9355	0.0755	513871	keystroke	i	n/a
257.431	0.089	514862	keystroke	a	n/a
257.521	0.119	515042	keystroke	n	n/a
258.42	0.075	516840	keystroke	Key.enter	n/a
258.5005	6.0565	517001	prompt	n/a	similar salmon comedy cooking\n
259.426	0.1045	518852	keystroke	s	n/a
259.5455	0.075	519091	keystroke	i	n/a
259.7555	0.075	519511	keystroke	m	n/a
259.9055	0.0905	519811	keystroke	i	n/a
260.161	0.075	520322	keystroke	l	n/a
260.791	0.105	521582	keystroke	a	n/a
261.001	0.09	522002	keystroke	r	n/a
261.181	0.09	522362	keystroke	Key.space	n/a
261.376	0.06	522752	keystroke	s	n/a
261.511	0.12	523022	keystroke	a	n/a
261.616	0.075	523232	keystroke	l	n/a
261.796	0.06	523592	keystroke	m	n/a
261.961	0.06	523922	keystroke	o	n/a
262.156	0.06	524312	keystroke	n	n/a
262.231	0.105	524462	keystroke	Key.space	n/a
262.441	0.09	524882	keystroke	c	n/a
262.546	0.09	525092	keystroke	o	n/a
262.711	0.105	525422	keystroke	m	n/a
262.831	0.105	525662	keystroke	e	n/a
263.041	0.09	526082	keystroke	d	n/a
263.146	0.105	526292	keystroke	y	n/a
263.281	0.09	526562	keystroke	Key.space	n/a
263.536	0.015	527072	keystroke	c	n/a
263.566	0.045	527132	keystroke	o	n/a
263.686	0.135	527372	keystroke	o	n/a
263.806	0.075	527612	keystroke	k	n/a
263.941	0.075	527882	keystroke	i	n/a
264.061	0.075	528122	keystroke	n	n/a
264.181	0.09	528362	keystroke	g	n/a
264.466	0.09	528932	keystroke	Key.enter	n/a
264.56	9.0725	529120	prompt	n/a	returning villas processing lord\n
265.6215	0.104	531243	keystroke	r	n/a
265.7555	0.09	531511	keystroke	e	n/a
265.9655	0.09	531931	keystroke	t	n/a
266.0855	0.075	532171	keystroke	u	n/a
266.266	0.06	532532	keystroke	r	n/a
266.311	0.09	532622	keystroke	n	n/a
266.491	0.06	532982	keystroke	i	n/a
266.596	0.075	533192	keystroke	n	n/a
266.716	0.09	533432	keystroke	g	n/a
266.821	0.09	533642	keystroke	Key.space	n/a
267.136	0.015	534272	keystroke	v	n/a
267.181	0.09	534362	keystroke	i	n/a
267.886	0.06	535772	keystroke	l	n/a
268.036	0.075	536072	keystroke	l	n/a
268.186	0.105	536372	keystroke	a	n/a
268.3955	0.09	536791	keystroke	s	n/a
268.5455	0.09	537091	keystroke	Key.space	n/a
268.7705	0.09	537541	keystroke	p	n/a
268.9055	0.165	537811	keystroke	r	n/a
269.0405	0.105	538081	keystroke	e	n/a
269.4155	0.0895	538831	keystroke	Key.backspace	n/a
269.641	0.075	539282	keystroke	c	n/a
269.76	0.105	539520	keystroke	e	n/a
270.27	0.061	540540	keystroke	Key.backspace	n/a
270.42	0.075	540840	keystroke	Key.backspace	n/a
270.7055	0.06	541411	keystroke	o	n/a
271.1105	0.06	542221	keystroke	c	n/a
271.231	0.0895	542462	keystroke	e	n/a
271.501	0.06	543002	keystroke	s	n/a
271.651	0.09	543302	keystroke	s	n/a
271.786	0.06	543572	keystroke	i	n/a
271.936	0.074	543872	keystroke	n	n/a
272.07	0.0905	544140	keystroke	g	n/a
272.19	0.09	544380	keystroke	Key.space	n/a
272.431	0.075	544862	keystroke	l	n/a
272.596	0.06	545192	keystroke	o	n/a
272.671	0.075	545342	keystroke	r	n/a
272.971	0.045	545942	keystroke	d	n/a
273.541	0.09	547082	keystroke	Key.enter	n/a
273.6355	7.7065	547271	prompt	n/a	bible mapping combinations barbados\n
274.441	0.06	548882	keystroke	b	n/a
274.636	0.045	549272	keystroke	i	n/a
274.786	0.075	549572	keystroke	b	n/a
275.011	0.06	550022	keystroke	l	n/a
275.161	0.075	550322	keystroke	e	n/a
275.281	0.09	550562	keystroke	Key.space	n/a
275.431	0.1045	550862	keystroke	m	n/a
275.5655	0.09	551131	keystroke	a	n/a
275.7155	0.045	551431	keystroke	p	n/a
275.8205	0.075	551641	keystroke	p	n/a
276.03	0.045	552060	keystroke	i	n/a
276.151	0.074	552302	keystroke	n	n/a
276.256	0.09	552512	keystroke	g	n/a
276.375	0.076	552750	keystroke	Key.space	n/a
277.006	0.075	554012	keystroke	c	n/a
277.17	0.075	554340	keystroke	o	n/a
277.3805	0.075	554761	keystroke	m	n/a
277.575	0.09	555150	keystroke	b	n/a
277.7555	0.0595	555511	keystroke	i	n/a
277.89	0.0755	555780	keystroke	n	n/a
278.0255	0.06	556051	keystroke	a	n/a
278.2205	0.075	556441	keystroke	t	n/a
278.3255	0.105	556651	keystroke	i	n/a
278.5205	0.06	557041	keystroke	o	n/a
278.6855	0.075	557371	keystroke	n	n/a
278.7905	0.105	557581	keystroke	s	n/a
278.9105	0.075	557821	keystroke	Key.space	n/a
279.0905	0.075	558181	keystroke	b	n/a
279.1805	0.09	558361	keystroke	a	n/a
279.3305	0.105	558661	keystroke	r	n/a
280.096	0.075	560192	keystroke	b	n/a
280.186	0.15	560372	keystroke	a	n/a
280.381	0.105	560762	keystroke	d	n/a
280.501	0.09	561002	keystroke	o	n/a
280.726	0.09	561452	keystroke	s	n/a
281.266	0.075	562532	keystroke	Key.enter	n/a
281.345	7.782	562690	prompt	n/a	keeping goal essence sponsored\n
282.001	0.075	564002	keystroke	k	n/a
282.181	0.075	564362	keystroke	e	n/a
282.376	0.06	564752	keystroke	e	n/a
282.466	0.06	564932	keystroke	p	n/a
282.691	0.03	565382	keystroke	i	n/a
282.796	0.075	565592	keystroke	n	n/a
282.946	0.045	565892	keystroke	g	n/a
283.021	0.075	566042	keystroke	Key.space	n/a
283.471	0.06	566942	keystroke	g	n/a
283.576	0.075	567152	keystroke	o	n/a
283.846	0.105	567692	keystroke	a	n/a
283.951	0.105	567902	keystroke	l	n/a
284.101	0.075	568202	keystroke	Key.space	n/a
284.311	0.045	568622	keystroke	a	n/a
284.611	0.075	569222	keystroke	Key.backspace	n/a
284.761	0.09	569522	keystroke	e	n/a
285.031	0.06	570062	keystroke	s	n/a
285.181	0.06	570362	keystroke	s	n/a
285.376	0.09	570752	keystroke	e	n/a
285.4505	0.0905	570901	keystroke	n	n/a
285.646	0.09	571292	keystroke	c	n/a
285.796	0.09	571592	keystroke	e	n/a
285.916	0.09	571832	keystroke	Key.space	n/a
286.201	0.0745	572402	keystroke	s	n/a
286.2905	0.075	572581	keystroke	o	n/a
286.741	0.075	573482	keystroke	Key.backspace	n/a
287.0105	0.075	574021	keystroke	p	n/a
287.1905	0.06	574381	keystroke	o	n/a
287.3855	0.09	574771	keystroke	n	n/a
287.5055	0.075	575011	keystroke	s	n/a
287.7305	0.06	575461	keystroke	o	n/a
288.2555	0.075	576511	keystroke	r	n/a
288.3605	0.105	576721	keystroke	e	n/a
288.6155	0.09	577231	keystroke	d	n/a
289.0205	0.105	578041	keystroke	Key.enter	n/a
289.13	7.107	578260	prompt	n/a	staffing variations quarter public\n
289.726	0.09	579452	keystroke	s	n/a
289.936	0.06	579872	keystroke	t	n/a
290.115	0.106	580230	keystroke	a	n/a
290.341	0.075	580682	keystroke	f	n/a
290.476	0.09	580952	keystroke	f	n/a
290.596	0.06	581192	keystroke	i	n/a
290.716	0.09	581432	keystroke	n	n/a
290.866	0.09	581732	keystroke	g	n/a
290.986	0.09	581972	keystroke	Key.space	n/a
291.316	0.075	582632	keystroke	v	n/a
291.526	0.075	583052	keystroke	a	n/a
291.706	0.06	583412	keystroke	r	n/a
291.796	0.075	583592	keystroke	i	n/a
291.946	0.12	583892	keystroke	a	n/a
292.201	0.075	584402	keystroke	t	n/a
292.306	0.1055	584612	keystroke	i	n/a
292.6355	0.075	585271	keystroke	o	n/a
292.8755	0.09	585751	keystroke	n	n/a
293.0865	0.074	586173	keystroke	s	n/a
293.2355	0.09	586471	keystroke	Key.space	n/a
293.551	0.06	587102	keystroke	q	n/a
293.626	0.09	587252	keystroke	u	n/a
293.821	0.105	587642	keystroke	a	n/a
293.986	0.12	587972	keystroke	r	n/a
294.211	0.06	588422	keystroke	t	n/a
294.361	0.075	588722	keystroke	e	n/a
294.481	0.075	588962	keystroke	r	n/a
294.706	0.075	589412	keystroke	Key.space	n/a
294.901	0.09	589802	keystroke	p	n/a
295.066	0.0895	590132	keystroke	u	n/a
295.2755	0.06	590551	keystroke	b	n/a
295.5005	0.06	591001	keystroke	l	n/a
295.6355	0.075	591271	keystroke	i	n/a
295.7555	0.09	591511	keystroke	c	n/a
296.1605	0.075	592321	keystroke	Key.enter	n/a
296.24	6.5825	592480	prompt	n/a	linear coastal engagement promoted\n
296.971	0.06	593942	keystroke	l	n/a
297.121	0.075	594242	keystroke	i	n/a
297.286	0.075	594572	keystroke	n	n/a
297.391	0.105	594782	keystroke	e	n/a
297.541	0.105	595082	keystroke	a	n/a
297.691	0.09	595382	keystroke	r	n/a
297.826	0.074	595652	keystroke	Key.space	n/a
298.006	0.09	596012	keystroke	c	n/a
298.081	0.074	596162	keystroke	o	n/a
298.216	0.104	596432	keystroke	a	n/a
298.41	0.076	596820	keystroke	s	n/a
298.666	0.06	597332	keystroke	t	n/a
298.86	0.106	597720	keystroke	a	n/a
298.981	0.045	597962	keystroke	l	n/a
299.071	0.074	598142	keystroke	Key.space	n/a
299.2355	0.09	598471	keystroke	e	n/a
299.2955	0.105	598591	keystroke	n	n/a
299.4755	0.075	598951	keystroke	g	n/a
299.6855	0.075	599371	keystroke	a	n/a
299.8805	0.075	599761	keystroke	g	n/a
300.015	0.1055	600030	keystroke	e	n/a
300.165	0.06	600330	keystroke	m	n/a
300.285	0.09	600570	keystroke	e	n/a
300.405	0.0755	600810	keystroke	n	n/a
300.5855	0.0745	601171	keystroke	t	n/a
300.7805	0.0745	601561	keystroke	Key.space	n/a
301.0655	0.075	602131	keystroke	p	n/a
301.2305	0.075	602461	keystroke	r	n/a
301.3205	0.06	602641	keystroke	o	n/a
301.486	0.075	602972	keystroke	m	n/a
301.651	0.09	603302	keystroke	o	n/a
301.831	0.06	603662	keystroke	t	n/a
301.9955	0.06	603991	keystroke	e	n/a
302.1905	0.09	604381	keystroke	d	n/a
302.7305	0.09	605461	keystroke	Key.enter	n/a
302.827	8.0505	605654	prompt	n/a	characterized styles barrier desperate\n
303.495	0.09	606990	keystroke	c	n/a
303.57	0.075	607140	keystroke	h	n/a
303.691	0.075	607382	keystroke	a	n/a
303.856	0.09	607712	keystroke	r	n/a
304.111	0.09	608222	keystroke	a	n/a
304.396	0.09	608792	keystroke	c	n/a
304.6515	0.059	609303	keystroke	t	n/a
304.7855	0.09	609571	keystroke	e	n/a
304.8905	0.09	609781	keystroke	r	n/a
305.1005	0.045	610201	keystroke	i	n/a
305.2655	0.09	610531	keystroke	z	n/a
305.461	0.09	610922	keystroke	e	n/a
305.656	0.105	611312	keystroke	d	n/a
305.776	0.075	611552	keystroke	Key.space	n/a
306.031	0.09	612062	keystroke	s	n/a
306.331	0.105	612662	keystroke	t	n/a
306.481	0.09	612962	keystroke	y	n/a
307.0505	0.075	614101	keystroke	l	n/a
307.1555	0.105	614311	keystroke	e	n/a
307.5155	0.12	615031	keystroke	s	n/a
307.6505	0.09	615301	keystroke	Key.space	n/a
307.8465	0.089	615693	keystroke	b	n/a
307.9505	0.075	615901	keystroke	a	n/a
308.1605	0.061	616321	keystroke	r	n/a
308.3105	0.075	616621	keystroke	r	n/a
308.4005	0.09	616801	keystroke	i	n/a
308.5065	0.179	617013	keystroke	e	n/a
308.6865	0.105	617373	keystroke	r	n/a
308.8655	0.105	617731	keystroke	Key.space	n/a
309.1065	0.074	618213	keystroke	d	n/a
309.2555	0.075	618511	keystroke	e	n/a
309.4815	0.059	618963	keystroke	s	n/a
309.5705	0.075	619141	keystroke	p	n/a
309.6905	0.18	619381	keystroke	e	n/a
309.8715	0.104	619743	keystroke	r	n/a
310.0955	0.075	620191	keystroke	a	n/a
310.2605	0.075	620521	keystroke	t	n/a
310.4115	0.089	620823	keystroke	e	n/a
310.8155	0.06	621631	keystroke	Key.enter	n/a
310.88	8.4575	621760	prompt	n/a	numerical dimensions prospective chips\n
311.881	0.09	623762	keystroke	n	n/a
312.046	0.09	624092	keystroke	u	n/a
312.2705	0.075	624541	keystroke	m	n/a
312.4955	0.075	624991	keystroke	b	n/a
312.6905	0.1645	625381	keystroke	e	n/a
313.26	0.075	626520	keystroke	Key.backspace	n/a
313.41	0.0905	626820	keystroke	Key.backspace	n/a
313.8605	0.09	627721	keystroke	e	n/a
313.9655	0.09	627931	keystroke	r	n/a
314.236	0.075	628472	keystroke	i	n/a
314.356	0.09	628712	keystroke	c	n/a
314.521	0.105	629042	keystroke	a	n/a
314.626	0.075	629252	keystroke	l	n/a
314.731	0.09	629462	keystroke	Key.space	n/a
314.941	0.09	629882	keystroke	d	n/a
315.061	0.075	630122	keystroke	i	n/a
315.241	0.105	630482	keystroke	m	n/a
315.376	0.075	630752	keystroke	e	n/a
315.4955	0.075	630991	keystroke	n	n/a
315.7805	0.06	631561	keystroke	s	n/a
315.8855	0.075	631771	keystroke	i	n/a
316.0505	0.06	632101	keystroke	o	n/a
316.2155	0.06	632431	keystroke	n	n/a
316.3205	0.075	632641	keystroke	s	n/a
316.4405	0.075	632881	keystroke	Key.space	n/a
316.6205	0.075	633241	keystroke	p	n/a
316.7705	0.09	633541	keystroke	r	n/a
316.8755	0.075	633751	keystroke	o	n/a
317.011	0.0895	634022	keystroke	s	n/a
317.1605	0.06	634321	keystroke	p	n/a
317.2505	0.06	634501	keystroke	e	n/a
317.4755	0.075	634951	keystroke	c	n/a
317.6855	0.06	635371	keystroke	t	n/a
317.7605	0.075	635521	keystroke	i	n/a
317.9405	0.06	635881	keystroke	v	n/a
318.0755	0.105	636151	keystroke	e	n/a
318.1955	0.0905	636391	keystroke	Key.space	n/a
318.391	0.0745	636782	keystroke	c	n/a
318.4505	0.0755	636901	keystroke	h	n/a
318.6005	0.0755	637201	keystroke	i	n/a
318.841	0.03	637682	keystroke	p	n/a
318.931	0.105	637862	keystroke	s	n/a
319.261	0.075	638522	keystroke	Key.enter	n/a
319.341	7.361	638682	prompt	n/a	albany allowance pamela standing\n
319.921	0.075	639842	keystroke	a	n/a
320.011	0.06	640022	keystroke	l	n/a
320.191	0.075	640382	keystroke	b	n/a
320.326	0.075	640652	keystroke	a	n/a
320.416	0.09	640832	keystroke	n	n/a
320.626	0.06	641252	keystroke	y	n/a
320.896	0.075	641792	keystroke	Key.space	n/a
321.1055	0.075	642211	keystroke	a	n/a
321.1955	0.06	642391	keystroke	l	n/a
321.3455	0.06	642691	keystroke	l	n/a
321.496	0.075	642992	keystroke	o	n/a
321.601	0.105	643202	keystroke	w	n/a
321.811	0.09	643622	keystroke	a	n/a
321.916	0.09	643832	keystroke	n	n/a
322.066	0.075	644132	keystroke	c	n/a
322.186	0.105	644372	keystroke	e	n/a
322.411	0.075	644822	keystroke	Key.space	n/a
322.591	0.075	645182	keystroke	p	n/a
322.831	0.06	645662	keystroke	a	n/a
322.906	0.09	645812	keystroke	m	n/a
323.071	0.09	646142	keystroke	e	n/a
323.206	0.075	646412	keystroke	l	n/a
323.416	0.0595	646832	keystroke	Key.space	n/a
323.4905	0.075	646981	keystroke	a	n/a
323.881	0.06	647762	keystroke	Key.backspace	n/a
324.031	0.06	648062	keystroke	Key.backspace	n/a
324.376	0.075	648752	keystroke	a	n/a
324.796	0.075	649592	keystroke	Key.space	n/a
325.2005	0.075	650401	keystroke	s	n/a
325.4105	0.0455	650821	keystroke	t	n/a
325.546	0.105	651092	keystroke	a	n/a
325.666	0.075	651332	keystroke	n	n/a
325.756	0.12	651512	keystroke	d	n/a
325.891	0.045	651782	keystroke	i	n/a
326.011	0.075	652022	keystroke	n	n/a
326.16	0.076	652320	keystroke	g	n/a
326.6255	0.075	653251	keystroke	Key.enter	n/a
326.705	8.8475	653410	prompt	n/a	philadelphia pairs manor gabriel\n
327.856	0.09	655712	keystroke	p	n/a
328.096	0.105	656192	keystroke	h	n/a
328.366	0.105	656732	keystroke	i	n/a
328.666	0.06	657332	keystroke	l	n/a
328.951	0.09	657902	keystroke	a	n/a
329.266	0.045	658532	keystroke	d	n/a
329.4605	0.075	658921	keystroke	e	n/a
329.5805	0.075	659161	keystroke	l	n/a
330.6455	0.105	661291	keystroke	p	n/a
331.0205	0.09	662041	keystroke	h	n/a
331.2155	0.075	662431	keystroke	i	n/a
331.516	0.105	663032	keystroke	a	n/a
331.696	0.105	663392	keystroke	Key.space	n/a
331.9355	0.075	663871	keystroke	p	n/a
332.1005	0.09	664201	keystroke	a	n/a
332.2355	0.06	664471	keystroke	i	n/a
332.4155	0.09	664831	keystroke	r	n/a
332.6555	0.06	665311	keystroke	s	n/a
332.8055	0.105	665611	keystroke	Key.space	n/a
333.0005	0.12	666001	keystroke	m	n/a
333.1805	0.075	666361	keystroke	a	n/a
333.2855	0.075	666571	keystroke	n	n/a
333.4655	0.06	666931	keystroke	o	n/a
333.5855	0.075	667171	keystroke	r	n/a
333.6905	0.09	667381	keystroke	Key.space	n/a
333.8405	0.06	667681	keystroke	g	n/a
334.0355	0.075	668071	keystroke	a	n/a
334.1255	0.0905	668251	keystroke	b	n/a
334.321	0.075	668642	keystroke	r	n/a
334.41	0.091	668820	keystroke	i	n/a
334.5605	0.0755	669121	keystroke	e	n/a
335.1005	0.0755	670201	keystroke	l	n/a
335.476	0.075	670952	keystroke	Key.enter	n/a
335.5555	17.832	671111	prompt	n/a	practitioners elite careful house\n
343.368	0.001	686736	keystroke	p	n/a
343.531	0.09	687062	keystroke	r	n/a
343.726	0.105	687452	keystroke	a	n/a
343.936	0.1055	687872	keystroke	c	n/a
344.1765	0.074	688353	keystroke	t	n/a
344.2955	0.075	688591	keystroke	i	n/a
348.2585	0.043	696517	keystroke	t	n/a
348.2865	0.09	696573	keystroke	i	n/a
348.4815	0.075	696963	keystroke	o	n/a
348.6765	0.09	697353	keystroke	n	n/a
348.9315	0.135	697863	keystroke	e	n/a
349.0815	0.12	698163	keystroke	r	n/a
349.3365	0.105	698673	keystroke	s	n/a
349.7415	0.12	699483	keystroke	Key.space	n/a
349.9665	0.09	699933	keystroke	e	n/a
350.0715	0.09	700143	keystroke	l	n/a
350.2665	0.075	700533	keystroke	i	n/a
350.4465	0.105	700893	keystroke	t	n/a
350.6265	0.12	701253	keystroke	e	n/a
350.7615	0.09	701523	keystroke	Key.space	n/a
350.9565	0.0745	701913	keystroke	c	n/a
351.106	0.135	702212	keystroke	a	n/a
351.271	0.135	702542	keystroke	r	n/a
351.391	0.1055	702782	keystroke	e	n/a
351.6465	0.09	703293	keystroke	f	n/a
351.751	0.075	703502	keystroke	u	n/a
351.976	0.06	703952	keystroke	l	n/a
352.066	0.075	704132	keystroke	Key.space	n/a
352.261	0.075	704522	keystroke	h	n/a
352.441	0.105	704882	keystroke	o	n/a
352.516	0.105	705032	keystroke	u	n/a
352.666	0.075	705332	keystroke	s	n/a
352.831	0.105	705662	keystroke	e	n/a
353.296	0.09	706592	keystroke	Key.enter	n/a
353.3905	5.637	706781	prompt	n/a	cowboy details provide mailman\n
354.091	0.09	708182	keystroke	c	n/a
354.211	0.075	708422	keystroke	o	n/a
354.376	0.09	708752	keystroke	w	n/a
354.481	0.075	708962	keystroke	b	n/a
354.691	0.06	709382	keystroke	o	n/a
354.856	0.075	709712	keystroke	y	n/a
354.961	0.06	709922	keystroke	Key.space	n/a
355.096	0.075	710192	keystroke	d	n/a
355.276	0.075	710552	keystroke	e	n/a
355.471	0.075	710942	keystroke	t	n/a
355.681	0.09	711362	keystroke	a	n/a
355.786	0.075	711572	keystroke	i	n/a
355.996	0.075	711992	keystroke	l	n/a
356.101	0.09	712202	keystroke	s	n/a
356.206	0.09	712412	keystroke	Key.space	n/a
356.371	0.105	712742	keystroke	p	n/a
356.551	0.06	713102	keystroke	r	n/a
356.641	0.075	713282	keystroke	o	n/a
356.986	0.06	713972	keystroke	v	n/a
357.0755	0.075	714151	keystroke	i	n/a
357.2555	0.075	714511	keystroke	d	n/a
357.4505	0.075	714901	keystroke	e	n/a
357.5705	0.075	715141	keystroke	Key.space	n/a
357.7355	0.09	715471	keystroke	m	n/a
357.9015	0.104	715803	keystroke	a	n/a
357.9605	0.105	715921	keystroke	i	n/a
358.2005	0.06	716401	keystroke	l	n/a
358.3505	0.09	716701	keystroke	m	n/a
358.4855	0.09	716971	keystroke	a	n/a
358.5765	0.089	717153	keystroke	n	n/a
358.9355	0.09	717871	keystroke	Key.enter	n/a
359.0305	10.077	718061	prompt	n/a	growing season vbulletin motorcycle\n
359.7605	0.09	719521	keystroke	g	n/a
359.9855	0.09	719971	keystroke	r	n/a
360.0905	0.09	720181	keystroke	o	n/a
360.1955	0.09	720391	keystroke	w	n/a
360.3155	0.06	720631	keystroke	i	n/a
360.4655	0.075	720931	keystroke	n	n/a
360.6005	0.09	721201	keystroke	g	n/a
360.7355	0.075	721471	keystroke	Key.space	n/a
360.9455	0.075	721891	keystroke	s	n/a
361.1105	0.09	722221	keystroke	e	n/a
361.2905	0.105	722581	keystroke	a	n/a
361.471	0.09	722942	keystroke	s	n/a
361.621	0.075	723242	keystroke	o	n/a
361.816	0.075	723632	keystroke	n	n/a
361.981	0.09	723962	keystroke	Key.space	n/a
362.236	0.09	724472	keystroke	v	n/a
362.386	0.09	724772	keystroke	b	n/a
362.566	0.09	725132	keystroke	u	n/a
362.836	0.045	725672	keystroke	l	n/a
362.956	0.075	725912	keystroke	l	n/a
363.136	0.0755	726272	keystroke	i	n/a
363.5705	0.06	727141	keystroke	Key.backspace	n/a
363.6905	0.09	727381	keystroke	e	n/a
363.9305	0.09	727861	keystroke	t	n/a
364.0655	0.075	728131	keystroke	i	n/a
364.2605	0.075	728521	keystroke	n	n/a
364.726	0.075	729452	keystroke	Key.space	n/a
364.936	0.075	729872	keystroke	m	n/a
365.116	0.075	730232	keystroke	o	n/a
365.371	0.0905	730742	keystroke	t	n/a
365.6865	0.075	731373	keystroke	o	n/a
365.8665	0.06	731733	keystroke	r	n/a
366.181	0.075	732362	keystroke	c	n/a
366.481	0.075	732962	keystroke	y	n/a
366.631	0.09	733262	keystroke	c	n/a
366.826	0.06	733652	keystroke	l	n/a
366.946	0.105	733892	keystroke	e	n/a
367.1865	0.09	734373	keystroke	s	n/a
368.5965	0.075	737193	keystroke	Key.backspace	n/a
369.0465	0.06	738093	keystroke	Key.enter	n/a
369.1105	6.522	738221	prompt	n/a	heel mercy titten cubic\n
370.171	0.09	740342	keystroke	h	n/a
370.711	0.075	741422	keystroke	e	n/a
370.861	0.075	741722	keystroke	e	n/a
370.996	0.075	741992	keystroke	l	n/a
371.086	0.075	742172	keystroke	Key.space	n/a
371.236	0.105	742472	keystroke	m	n/a
371.4905	0.091	742981	keystroke	e	n/a
371.5965	0.075	743193	keystroke	r	n/a
371.836	0.105	743672	keystroke	c	n/a
372.031	0.06	744062	keystroke	y	n/a
372.4055	0.075	744811	keystroke	Key.space	n/a
372.7965	0.09	745593	keystroke	t	n/a
372.9015	0.06	745803	keystroke	i	n/a
373.0665	0.075	746133	keystroke	t	n/a
373.2315	0.045	746463	keystroke	t	n/a
373.3665	0.075	746733	keystroke	e	n/a
373.4415	0.1195	746883	keystroke	n	n/a
373.861	0.12	747722	keystroke	Key.space	n/a
374.2205	0.091	748441	keystroke	c	n/a
374.2805	0.09	748561	keystroke	u	n/a
374.4455	0.09	748891	keystroke	b	n/a
374.7005	0.06	749401	keystroke	i	n/a
375.1805	0.076	750361	keystroke	c	n/a
375.5555	0.075	751111	keystroke	Key.enter	n/a
375.6355	8.667	751271	prompt	n/a	standards pdas related habits\n
376.576	0.105	753152	keystroke	s	n/a
376.756	0.09	753512	keystroke	t	n/a
376.966	0.09	753932	keystroke	a	n/a
377.071	0.0895	754142	keystroke	n	n/a
377.1905	0.12	754381	keystroke	d	n/a
377.4305	0.135	754861	keystroke	a	n/a
377.6855	0.09	755371	keystroke	r	n/a
377.8805	0.075	755761	keystroke	d	n/a
378.001	0.09	756002	keystroke	s	n/a
378.136	0.09	756272	keystroke	Key.space	n/a
378.5105	0.06	757021	keystroke	p	n/a
378.6755	0.09	757351	keystroke	d	n/a
378.826	0.105	757652	keystroke	a	n/a
379.171	0.075	758342	keystroke	s	n/a
379.366	0.09	758732	keystroke	Key.space	n/a
380.206	0.135	760412	keystroke	r	n/a
380.326	0.09	760652	keystroke	e	n/a
380.446	0.075	760892	keystroke	l	n/a
380.581	0.12	761162	keystroke	a	n/a
380.776	0.075	761552	keystroke	t	n/a
380.911	0.1045	761822	keystroke	e	n/a
381.1355	0.091	762271	keystroke	d	n/a
381.2415	0.06	762483	keystroke	Key.space	n/a
381.4665	0.075	762933	keystroke	h	n/a
381.5715	0.105	763143	keystroke	a	n/a
381.6915	0.045	763383	keystroke	v	n/a
381.9165	0.075	763833	keystroke	i	n/a
382.3065	0.044	764613	keystroke	Key.backspace	n/a
382.441	0.06	764882	keystroke	Key.backspace	n/a
382.726	0.045	765452	keystroke	b	n/a
382.936	0.06	765872	keystroke	i	n/a
383.116	0.06	766232	keystroke	t	n/a
383.416	0.09	766832	keystroke	s	n/a
384.2265	0.075	768453	keystroke	Key.enter	n/a
384.3055	7.572	768611	prompt	n/a	starter employee employers likes\n
385.0965	0.09	770193	keystroke	s	n/a
385.3665	0.075	770733	keystroke	t	n/a
385.4705	0.12	770941	keystroke	a	n/a
385.6655	0.091	771331	keystroke	r	n/a
385.861	0.06	771722	keystroke	t	n/a
386.011	0.075	772022	keystroke	e	n/a
386.101	0.075	772202	keystroke	r	n/a
386.251	0.09	772502	keystroke	Key.space	n/a
386.431	0.09	772862	keystroke	e	n/a
386.506	0.09	773012	keystroke	m	n/a
386.701	0.09	773402	keystroke	p	n/a
386.926	0.06	773852	keystroke	l	n/a
387.076	0.06	774152	keystroke	o	n/a
387.331	0.075	774662	keystroke	y	n/a
387.451	0.075	774902	keystroke	e	n/a
387.616	0.075	775232	keystroke	e	n/a
387.8715	0.09	775743	keystroke	Key.space	n/a
388.1715	0.075	776343	keystroke	e	n/a
388.2615	0.09	776523	keystroke	m	n/a
388.5165	0.015	777033	keystroke	p	n/a
388.7115	0.075	777423	keystroke	l	n/a
389.1765	0.06	778353	keystroke	o	n/a
389.3565	0.06	778713	keystroke	y	n/a
389.6105	0.09	779221	keystroke	e	n/a
389.7905	0.076	779581	keystroke	r	n/a
390.0605	0.091	780121	keystroke	s	n/a
390.1655	0.09	780331	keystroke	Key.space	n/a
390.3615	0.074	780723	keystroke	l	n/a
390.556	0.075	781112	keystroke	i	n/a
390.736	0.075	781472	keystroke	k	n/a
390.886	0.075	781772	keystroke	e	n/a
391.246	0.075	782492	keystroke	s	n/a
391.8015	0.0745	783603	keystroke	Key.enter	n/a
391.882	6.8655	783764	prompt	n/a	unto insulation packages about\n
393.151	0.06	786302	keystroke	u	n/a
393.301	0.105	786602	keystroke	n	n/a
393.496	0.075	786992	keystroke	t	n/a
393.586	0.045	787172	keystroke	o	n/a
393.676	0.09	787352	keystroke	Key.space	n/a
393.901	0.06	787802	keystroke	i	n/a
394.426	0.06	788852	keystroke	n	n/a
394.621	0.075	789242	keystroke	s	n/a
394.801	0.09	789602	keystroke	o	n/a
395.191	0.06	790382	keystroke	Key.backspace	n/a
395.386	0.075	790772	keystroke	u	n/a
395.611	0.075	791222	keystroke	l	n/a
395.836	0.06	791672	keystroke	a	n/a
395.986	0.105	791972	keystroke	t	n/a
396.076	0.0755	792152	keystroke	i	n/a
396.226	0.06	792452	keystroke	o	n/a
396.3915	0.0745	792783	keystroke	n	n/a
396.481	0.09	792962	keystroke	Key.space	n/a
396.646	0.0905	793292	keystroke	p	n/a
396.7215	0.075	793443	keystroke	a	n/a
396.9015	0.09	793803	keystroke	c	n/a
397.0065	0.06	794013	keystroke	k	n/a
397.1265	0.0895	794253	keystroke	a	n/a
397.261	0.09	794522	keystroke	g	n/a
397.396	0.105	794792	keystroke	e	n/a
397.621	0.06	795242	keystroke	s	n/a
397.726	0.135	795452	keystroke	Key.space	n/a
397.876	0.06	795752	keystroke	a	n/a
397.951	0.075	795902	keystroke	b	n/a
398.191	0.075	796382	keystroke	o	n/a
398.236	0.075	796472	keystroke	u	n/a
398.371	0.09	796742	keystroke	t	n/a
398.6555	0.09	797311	keystroke	Key.enter	n/a
398.75	5.5625	797500	prompt	n/a	msgid inch accepts link\n
399.586	0.105	799172	keystroke	m	n/a
399.721	0.09	799442	keystroke	s	n/a
399.931	0.075	799862	keystroke	g	n/a
400.141	0.06	800282	keystroke	i	n/a
400.7105	0.075	801421	keystroke	d	n/a
400.8605	0.075	801721	keystroke	Key.space	n/a
401.011	0.075	802022	keystroke	i	n/a
401.206	0.075	802412	keystroke	n	n/a
401.581	0.075	803162	keystroke	c	n/a
401.641	0.09	803282	keystroke	h	n/a
401.776	0.09	803552	keystroke	Key.space	n/a
401.971	0.09	803942	keystroke	a	n/a
402.1805	0.0755	804361	keystroke	c	n/a
402.331	0.09	804662	keystroke	c	n/a
402.466	0.105	804932	keystroke	e	n/a
402.556	0.075	805112	keystroke	p	n/a
402.766	0.06	805532	keystroke	t	n/a
402.991	0.09	805982	keystroke	s	n/a
403.066	0.075	806132	keystroke	Key.space	n/a
403.216	0.075	806432	keystroke	l	n/a
403.411	0.045	806822	keystroke	i	n/a
403.486	0.09	806972	keystroke	n	n/a
403.681	0.075	807362	keystroke	k	n/a
404.2365	0.075	808473	keystroke	Key.enter	n/a
404.3155	4.842	808631	prompt	n/a	notion mouse parks appears\n
404.9565	0.075	809913	keystroke	n	n/a
405.1365	0.075	810273	keystroke	o	n/a
405.2565	0.075	810513	keystroke	t	n/a
405.3465	0.09	810693	keystroke	i	n/a
405.511	0.075	811022	keystroke	o	n/a
405.691	0.09	811382	keystroke	n	n/a
405.796	0.075	811592	keystroke	Key.space	n/a
405.946	0.075	811892	keystroke	m	n/a
406.111	0.135	812222	keystroke	o	n/a
406.216	0.075	812432	keystroke	u	n/a
406.486	0.0755	812972	keystroke	s	n/a
406.6515	0.075	813303	keystroke	e	n/a
406.7715	0.075	813543	keystroke	Key.space	n/a
406.921	0.075	813842	keystroke	p	n/a
407.011	0.105	814022	keystroke	a	n/a
407.161	0.0905	814322	keystroke	r	n/a
407.2665	0.075	814533	keystroke	k	n/a
407.4315	0.06	814863	keystroke	s	n/a
407.5215	0.105	815043	keystroke	Key.space	n/a
407.6415	0.09	815283	keystroke	a	n/a
407.8065	0.06	815613	keystroke	p	n/a
407.9265	0.09	815853	keystroke	p	n/a
408.1215	0.075	816243	keystroke	e	n/a
408.2115	0.1195	816423	keystroke	a	n/a
408.391	0.105	816782	keystroke	r	n/a
408.706	0.075	817412	keystroke	s	n/a
409.081	0.075	818162	keystroke	Key.enter	n/a
409.1605	7.842	818321	prompt	n/a	paragraph environmental reality lewis\n
409.7715	0.074	819543	keystroke	p	n/a
409.8615	0.104	819723	keystroke	a	n/a
409.9955	0.09	819991	keystroke	r	n/a
410.1455	0.105	820291	keystroke	a	n/a
410.3405	0.075	820681	keystroke	g	n/a
410.5815	0.03	821163	keystroke	r	n/a
410.6855	0.105	821371	keystroke	a	n/a
411.0755	0.075	822151	keystroke	p	n/a
411.3305	0.09	822661	keystroke	h	n/a
411.8705	0.06	823741	keystroke	Key.space	n/a
412.1405	0.075	824281	keystroke	e	n/a
412.336	0.09	824672	keystroke	n	n/a
412.561	0.105	825122	keystroke	v	n/a
412.681	0.075	825362	keystroke	i	n/a
412.861	0.09	825722	keystroke	r	n/a
412.981	0.09	825962	keystroke	m	n/a
413.3555	0.09	826711	keystroke	Key.backspace	n/a
413.5965	0.074	827193	keystroke	o	n/a
413.7905	0.06	827581	keystroke	n	n/a
413.9855	0.09	827971	keystroke	m	n/a
414.0905	0.105	828181	keystroke	e	n/a
414.2105	0.076	828421	keystroke	n	n/a
414.3455	0.076	828691	keystroke	t	n/a
414.5255	0.09	829051	keystroke	a	n/a
414.6315	0.074	829263	keystroke	l	n/a
414.7505	0.09	829501	keystroke	Key.space	n/a
414.9455	0.091	829891	keystroke	r	n/a
415.0365	0.0895	830073	keystroke	e	n/a
415.216	0.09	830432	keystroke	a	n/a
415.321	0.075	830642	keystroke	l	n/a
415.501	0.06	831002	keystroke	i	n/a
415.636	0.105	831272	keystroke	t	n/a
415.756	0.075	831512	keystroke	y	n/a
415.846	0.0745	831692	keystroke	Key.space	n/a
416.1005	0.06	832201	keystroke	l	n/a
416.1905	0.09	832381	keystroke	e	n/a
416.3105	0.075	832621	keystroke	w	n/a
416.476	0.09	832952	keystroke	i	n/a
416.626	0.12	833252	keystroke	s	n/a
416.9115	0.09	833823	keystroke	Key.enter	n/a
417.006	6.6865	834012	prompt	n/a	precise newspapers playback eagles\n
417.7655	0.0755	835531	keystroke	p	n/a
417.901	0.105	835802	keystroke	r	n/a
418.021	0.105	836042	keystroke	e	n/a
418.291	0.075	836582	keystroke	c	n/a
418.381	0.09	836762	keystroke	i	n/a
418.531	0.135	837062	keystroke	s	n/a
418.801	0.09	837602	keystroke	e	n/a
418.966	0.09	837932	keystroke	Key.space	n/a
419.176	0.075	838352	keystroke	n	n/a
419.311	0.09	838622	keystroke	e	n/a
419.491	0.09	838982	keystroke	w	n/a
419.746	0.09	839492	keystroke	s	n/a
419.971	0.075	839942	keystroke	p	n/a
420.121	0.09	840242	keystroke	a	n/a
420.241	0.06	840482	keystroke	p	n/a
420.436	0.0905	840872	keystroke	e	n/a
420.6165	0.075	841233	keystroke	r	n/a
420.8115	0.075	841623	keystroke	s	n/a
420.9015	0.06	841803	keystroke	Key.space	n/a
421.0365	0.075	842073	keystroke	p	n/a
421.2465	0.0595	842493	keystroke	l	n/a
421.381	0.075	842762	keystroke	a	n/a
421.471	0.075	842942	keystroke	y	n/a
421.681	0.075	843362	keystroke	b	n/a
421.816	0.075	843632	keystroke	a	n/a
421.9965	0.0895	843993	keystroke	c	n/a
422.101	0.09	844202	keystroke	k	n/a
422.206	0.0755	844412	keystroke	Key.space	n/a
422.401	0.075	844802	keystroke	e	n/a
422.611	0.075	845222	keystroke	a	n/a
422.7315	0.075	845463	keystroke	g	n/a
422.971	0.0305	845942	keystroke	l	n/a
423.076	0.06	846152	keystroke	e	n/a
423.3015	0.09	846603	keystroke	s	n/a
423.601	0.09	847202	keystroke	Key.enter	n/a
423.6955	5.9675	847391	prompt	n/a	solely pitch regions intermediate\n
424.4415	0.0895	848883	keystroke	s	n/a
424.516	0.06	849032	keystroke	o	n/a
424.7865	0.0595	849573	keystroke	l	n/a
424.936	0.06	849872	keystroke	e	n/a
425.161	0.045	850322	keystroke	l	n/a
425.356	0.09	850712	keystroke	y	n/a
425.506	0.075	851012	keystroke	Key.space	n/a
425.731	0.075	851462	keystroke	p	n/a
425.911	0.075	851822	keystroke	i	n/a
426.046	0.075	852092	keystroke	t	n/a
426.286	0.09	852572	keystroke	c	n/a
426.391	0.075	852782	keystroke	h	n/a
426.451	0.09	852902	keystroke	Key.space	n/a
426.646	0.105	853292	keystroke	r	n/a
426.736	0.09	853472	keystroke	e	n/a
426.946	0.105	853892	keystroke	g	n/a
427.021	0.09	854042	keystroke	i	n/a
427.186	0.06	854372	keystroke	o	n/a
427.3505	0.09	854701	keystroke	n	n/a
427.4555	0.09	854911	keystroke	s	n/a
427.5605	0.075	855121	keystroke	Key.space	n/a
427.6955	0.06	855391	keystroke	i	n/a
427.8315	0.0895	855663	keystroke	n	n/a
427.966	0.09	855932	keystroke	t	n/a
428.146	0.12	856292	keystroke	e	n/a
428.221	0.135	856442	keystroke	r	n/a
428.371	0.105	856742	keystroke	m	n/a
428.551	0.09	857102	keystroke	e	n/a
428.7315	0.105	857463	keystroke	d	n/a
428.8515	0.075	857703	keystroke	i	n/a
428.9565	0.105	857913	keystroke	a	n/a
429.1515	0.075	858303	keystroke	t	n/a
429.2715	0.105	858543	keystroke	e	n/a
429.5715	0.0895	859143	keystroke	Key.enter	n/a
429.666	6.1915	859332	prompt	n/a	tumor useful detector formal\n
430.381	0.09	860762	keystroke	t	n/a
430.486	0.09	860972	keystroke	u	n/a
430.726	0.075	861452	keystroke	m	n/a
430.906	0.06	861812	keystroke	o	n/a
431.0715	0.075	862143	keystroke	r	n/a
431.2365	0.09	862473	keystroke	Key.space	n/a
431.4615	0.089	862923	keystroke	u	n/a
431.5655	0.075	863131	keystroke	s	n/a
431.7155	0.091	863431	keystroke	e	n/a
431.9405	0.09	863881	keystroke	f	n/a
432.0165	0.09	864033	keystroke	u	n/a
432.2855	0.046	864571	keystroke	l	n/a
432.3915	0.059	864783	keystroke	Key.space	n/a
432.6165	0.074	865233	keystroke	d	n/a
432.7515	0.0895	865503	keystroke	e	n/a
432.946	0.075	865892	keystroke	t	n/a
433.096	0.075	866192	keystroke	e	n/a
433.351	0.075	866702	keystroke	c	n/a
433.6215	0.105	867243	keystroke	t	n/a
433.7415	0.075	867483	keystroke	o	n/a
433.906	0.075	867812	keystroke	r	n/a
434.4765	0.09	868953	keystroke	Key.space	n/a
434.7465	0.075	869493	keystroke	f	n/a
434.8515	0.06	869703	keystroke	o	n/a
434.9865	0.09	869973	keystroke	r	n/a
435.0915	0.075	870183	keystroke	m	n/a
435.2565	0.1045	870513	keystroke	a	n/a
435.376	0.0755	870752	keystroke	l	n/a
435.766	0.09	871532	keystroke	Key.enter	n/a
435.8605	5.952	871721	prompt	n/a	retro apart pounds occasionally\n
436.591	0.09	873182	keystroke	r	n/a
436.682	0.104	873364	keystroke	e	n/a
436.9065	0.075	873813	keystroke	t	n/a
437.0565	0.105	874113	keystroke	r	n/a
437.1765	0.075	874353	keystroke	o	n/a
437.3865	0.074	874773	keystroke	Key.space	n/a
437.5655	0.075	875131	keystroke	a	n/a
437.6555	0.075	875311	keystroke	p	n/a
437.7605	0.105	875521	keystroke	a	n/a
437.926	0.09	875852	keystroke	r	n/a
438.106	0.09	876212	keystroke	t	n/a
438.226	0.105	876452	keystroke	Key.space	n/a
438.436	0.075	876872	keystroke	p	n/a
438.616	0.09	877232	keystroke	o	n/a
438.841	0.075	877682	keystroke	u	n/a
439.051	0.075	878102	keystroke	n	n/a
439.171	0.105	878342	keystroke	d	n/a
439.306	0.075	878612	keystroke	s	n/a
439.4565	0.06	878913	keystroke	Key.space	n/a
439.6365	0.075	879273	keystroke	o	n/a
439.7565	0.075	879513	keystroke	c	n/a
439.9215	0.075	879843	keystroke	c	n/a
440.0865	0.1045	880173	keystroke	a	n/a
440.326	0.075	880652	keystroke	s	n/a
440.461	0.09	880922	keystroke	i	n/a
440.641	0.06	881282	keystroke	o	n/a
440.791	0.09	881582	keystroke	n	n/a
440.896	0.0905	881792	keystroke	a	n/a
441.0465	0.045	882093	keystroke	l	n/a
441.1515	0.06	882303	keystroke	l	n/a
441.3465	0.06	882693	keystroke	y	n/a
441.7365	0.075	883473	keystroke	Key.enter	n/a
441.815	6.5675	883630	prompt	n/a	tutorial trinity gives aircraft\n
442.4865	0.0895	884973	keystroke	t	n/a
442.576	0.105	885152	keystroke	u	n/a
442.846	0.0755	885692	keystroke	t	n/a
443.0415	0.09	886083	keystroke	o	n/a
443.7015	0.075	887403	keystroke	r	n/a
443.8215	0.075	887643	keystroke	i	n/a
444.0015	0.09	888003	keystroke	a	n/a
444.1065	0.075	888213	keystroke	l	n/a
444.2115	0.09	888423	keystroke	Key.space	n/a
444.4515	0.09	888903	keystroke	t	n/a
444.6315	0.075	889263	keystroke	r	n/a
444.7365	0.075	889473	keystroke	i	n/a
444.8715	0.09	889743	keystroke	n	n/a
445.0365	0.075	890073	keystroke	i	n/a
445.2015	0.075	890403	keystroke	t	n/a
445.3215	0.075	890643	keystroke	y	n/a
445.4415	0.0895	890883	keystroke	Key.space	n/a
445.606	0.075	891212	keystroke	g	n/a
445.696	0.075	891392	keystroke	i	n/a
445.831	0.06	891662	keystroke	v	n/a
445.981	0.0755	891962	keystroke	e	n/a
446.1905	0.061	892381	keystroke	s	n/a
446.3115	0.059	892623	keystroke	Key.space	n/a
446.3855	0.1205	892771	keystroke	a	n/a
446.626	0.045	893252	keystroke	i	n/a
446.776	0.075	893552	keystroke	r	n/a
447.016	0.06	894032	keystroke	c	n/a
447.196	0.075	894392	keystroke	r	n/a
447.331	0.105	894662	keystroke	a	n/a
447.541	0.09	895082	keystroke	f	n/a
447.736	0.075	895472	keystroke	t	n/a
448.291	0.09	896582	keystroke	Key.enter	n/a
448.386	5.3965	896772	prompt	n/a	husband pieces care blame\n
449.131	0.1045	898262	keystroke	h	n/a
449.2805	0.105	898561	keystroke	u	n/a
449.4605	0.105	898921	keystroke	s	n/a
449.7155	0.075	899431	keystroke	b	n/a
449.8355	0.09	899671	keystroke	a	n/a
449.9405	0.06	899881	keystroke	n	n/a
450.0605	0.105	900121	keystroke	d	n/a
450.1505	0.09	900301	keystroke	Key.space	n/a
450.3305	0.06	900661	keystroke	p	n/a
450.5415	0.075	901083	keystroke	i	n/a
450.6605	0.106	901321	keystroke	e	n/a
450.9615	0.045	901923	keystroke	c	n/a
451.2015	0.075	902403	keystroke	e	n/a
451.4265	0.075	902853	keystroke	s	n/a
451.6205	0.075	903241	keystroke	Key.space	n/a
451.951	0.09	903902	keystroke	c	n/a
452.146	0.075	904292	keystroke	a	n/a
452.326	0.105	904652	keystroke	r	n/a
452.416	0.09	904832	keystroke	e	n/a
452.551	0.06	905102	keystroke	Key.space	n/a
452.686	0.075	905372	keystroke	b	n/a
452.896	0.06	905792	keystroke	l	n/a
453.031	0.06	906062	keystroke	a	n/a
453.136	0.075	906272	keystroke	m	n/a
453.2565	0.075	906513	keystroke	e	n/a
453.706	0.075	907412	keystroke	Key.enter	n/a
453.7855	7.782	907571	prompt	n/a	moving checks guarantees somebody's\n
454.351	0.075	908702	keystroke	m	n/a
454.501	0.075	909002	keystroke	o	n/a
454.636	0.09	909272	keystroke	v	n/a
454.711	0.06	909422	keystroke	i	n/a
454.831	0.09	909662	keystroke	n	n/a
454.936	0.09	909872	keystroke	g	n/a
455.056	0.075	910112	keystroke	Key.space	n/a
455.236	0.09	910472	keystroke	c	n/a
455.311	0.09	910622	keystroke	h	n/a
455.446	0.09	910892	keystroke	e	n/a
455.611	0.075	911222	keystroke	c	n/a
455.716	0.0755	911432	keystroke	k	n/a
455.8505	0.076	911701	keystroke	s	n/a
456.0005	0.06	912001	keystroke	Key.space	n/a
456.1355	0.09	912271	keystroke	g	n/a
456.2105	0.09	912421	keystroke	u	n/a
456.3765	0.075	912753	keystroke	a	n/a
456.4965	0.089	912993	keystroke	r	n/a
456.6615	0.1045	913323	keystroke	a	n/a
457.006	0.075	914012	keystroke	n	n/a
457.186	0.09	914372	keystroke	t	n/a
457.351	0.075	914702	keystroke	e	n/a
457.546	0.06	915092	keystroke	e	n/a
457.786	0.075	915572	keystroke	s	n/a
457.936	0.06	915872	keystroke	Key.space	n/a
458.101	0.075	916202	keystroke	s	n/a
458.191	0.06	916382	keystroke	o	n/a
458.341	0.09	916682	keystroke	m	n/a
459.1955	0.06	918391	keystroke	e	n/a
459.466	0.06	918932	keystroke	b	n/a
459.676	0.06	919352	keystroke	o	n/a
459.826	0.0895	919652	keystroke	d	n/a
459.9305	0.075	919861	keystroke	y	n/a
460.6955	0.09	921391	keystroke	'	n/a
460.9805	0.09	921961	keystroke	s	n/a
461.476	0.09	922952	keystroke	Key.enter	n/a
461.573	5.9195	923146	prompt	n/a	tape essentially pointed airport\n
462.376	0.09	924752	keystroke	t	n/a
462.571	0.09	925142	keystroke	a	n/a
462.646	0.09	925292	keystroke	p	n/a
462.796	0.105	925592	keystroke	e	n/a
462.946	0.09	925892	keystroke	Key.space	n/a
463.126	0.075	926252	keystroke	e	n/a
463.321	0.075	926642	keystroke	s	n/a
463.471	0.09	926942	keystroke	s	n/a
463.666	0.075	927332	keystroke	e	n/a
463.756	0.09	927512	keystroke	n	n/a
463.936	0.075	927872	keystroke	t	n/a
464.026	0.09	928052	keystroke	i	n/a
464.206	0.075	928412	keystroke	a	n/a
464.326	0.03	928652	keystroke	l	n/a
464.416	0.06	928832	keystroke	l	n/a
464.596	0.075	929192	keystroke	y	n/a
464.686	0.075	929372	keystroke	Key.space	n/a
464.926	0.09	929852	keystroke	p	n/a
465.121	0.075	930242	keystroke	o	n/a
465.316	0.06	930632	keystroke	i	n/a
465.4655	0.075	930931	keystroke	n	n/a
465.6155	0.075	931231	keystroke	t	n/a
465.7655	0.09	931531	keystroke	e	n/a
465.961	0.09	931922	keystroke	d	n/a
466.081	0.075	932162	keystroke	Key.space	n/a
466.216	0.105	932432	keystroke	a	n/a
466.351	0.06	932702	keystroke	i	n/a
466.471	0.075	932942	keystroke	r	n/a
466.621	0.075	933242	keystroke	p	n/a
466.771	0.0905	933542	keystroke	o	n/a
466.9065	0.09	933813	keystroke	r	n/a
467.1305	0.06	934261	keystroke	t	n/a
467.4155	0.075	934831	keystroke	Key.enter	n/a
467.4955	5.4575	934991	prompt	n/a	sister gibson targets ties\n
468.1515	0.029	936303	keystroke	s	n/a
468.1655	0.0605	936331	keystroke	i	n/a
468.271	0.09	936542	keystroke	s	n/a
468.496	0.075	936992	keystroke	t	n/a
468.586	0.105	937172	keystroke	e	n/a
468.691	0.105	937382	keystroke	r	n/a
468.841	0.075	937682	keystroke	Key.space	n/a
469.021	0.075	938042	keystroke	g	n/a
469.066	0.075	938132	keystroke	i	n/a
469.246	0.09	938492	keystroke	b	n/a
469.396	0.09	938792	keystroke	s	n/a
469.531	0.06	939062	keystroke	o	n/a
469.696	0.075	939392	keystroke	n	n/a
469.786	0.09	939572	keystroke	Key.space	n/a
470.041	0.075	940082	keystroke	t	n/a
470.191	0.105	940382	keystroke	a	n/a
470.326	0.105	940652	keystroke	r	n/a
470.476	0.06	940952	keystroke	g	n/a
470.566	0.105	941132	keystroke	e	n/a
470.731	0.09	941462	keystroke	t	n/a
470.971	0.06	941942	keystroke	s	n/a
471.106	0.075	942212	keystroke	Key.space	n/a
471.931	0.09	943862	keystroke	t	n/a
472.036	0.075	944072	keystroke	i	n/a
472.171	0.0895	944342	keystroke	e	n/a
472.591	0.075	945182	keystroke	s	n/a
472.846	0.105	945692	keystroke	Key.enter	n/a
472.956	7.0465	945912	prompt	n/a	gates organisation local shaft\n
473.641	0.09	947282	keystroke	g	n/a
473.821	0.09	947642	keystroke	a	n/a
474.001	0.09	948002	keystroke	t	n/a
474.151	0.075	948302	keystroke	e	n/a
474.391	0.045	948782	keystroke	s	n/a
474.466	0.105	948932	keystroke	Key.space	n/a
474.646	0.0905	949292	keystroke	o	n/a
474.7665	0.12	949533	keystroke	r	n/a
474.9465	0.074	949893	keystroke	g	n/a
475.0965	0.075	950193	keystroke	a	n/a
475.1865	0.075	950373	keystroke	n	n/a
475.3365	0.075	950673	keystroke	i	n/a
476.116	0.06	952232	keystroke	s	n/a
476.251	0.09	952502	keystroke	a	n/a
476.4755	0.09	952951	keystroke	t	n/a
476.5805	0.091	953161	keystroke	i	n/a
476.731	0.06	953462	keystroke	o	n/a
476.896	0.09	953792	keystroke	n	n/a
477.001	0.09	954002	keystroke	Key.space	n/a
477.301	0.045	954602	keystroke	l	n/a
477.451	0.06	954902	keystroke	o	n/a
477.556	0.075	955112	keystroke	c	n/a
477.736	0.075	955472	keystroke	a	n/a
477.826	0.075	955652	keystroke	l	n/a
477.931	0.075	955862	keystroke	Key.space	n/a
478.1565	0.074	956313	keystroke	s	n/a
478.2455	0.09	956491	keystroke	h	n/a
478.3805	0.075	956761	keystroke	a	n/a
478.5155	0.09	957031	keystroke	f	n/a
478.7105	0.075	957421	keystroke	t	n/a
479.911	0.09	959822	keystroke	Key.enter	n/a
480.0055	6.642	960011	prompt	n/a	everywhere contract promoting americas\n
480.721	0.1045	961442	keystroke	e	n/a
480.8705	0.076	961741	keystroke	v	n/a
480.9755	0.165	961951	keystroke	e	n/a
481.1255	0.09	962251	keystroke	r	n/a
481.2005	0.09	962401	keystroke	y	n/a
481.4405	0.0605	962881	keystroke	w	n/a
481.4855	0.12	962971	keystroke	h	n/a
481.5905	0.1055	963181	keystroke	e	n/a
481.786	0.075	963572	keystroke	r	n/a
481.8455	0.1055	963691	keystroke	e	n/a
481.996	0.09	963992	keystroke	Key.space	n/a
482.476	0.09	964952	keystroke	c	n/a
482.581	0.06	965162	keystroke	o	n/a
482.746	0.0755	965492	keystroke	n	n/a
482.896	0.06	965792	keystroke	t	n/a
483.046	0.06	966092	keystroke	r	n/a
483.211	0.0755	966422	keystroke	a	n/a
483.3905	0.0905	966781	keystroke	c	n/a
483.601	0.075	967202	keystroke	t	n/a
483.691	0.075	967382	keystroke	Key.space	n/a
483.871	0.075	967742	keystroke	p	n/a
483.991	0.09	967982	keystroke	r	n/a
484.096	0.06	968192	keystroke	o	n/a
484.306	0.06	968612	keystroke	m	n/a
484.471	0.075	968942	keystroke	o	n/a
484.606	0.09	969212	keystroke	t	n/a
484.726	0.06	969452	keystroke	i	n/a
484.831	0.09	969662	keystroke	n	n/a
484.9505	0.075	969901	keystroke	g	n/a
485.041	0.0895	970082	keystroke	Key.space	n/a
485.2205	0.0755	970441	keystroke	a	n/a
485.326	0.0895	970652	keystroke	m	n/a
485.5065	0.135	971013	keystroke	e	n/a
485.6265	0.12	971253	keystroke	r	n/a
485.8065	0.075	971613	keystroke	i	n/a
485.986	0.075	971972	keystroke	c	n/a
486.151	0.09	972302	keystroke	a	n/a
486.346	0.075	972692	keystroke	s	n/a
486.556	0.09	973112	keystroke	Key.enter	n/a
486.65	4.6475	973300	prompt	n/a	tubes attach concept soul\n
487.276	0.105	974552	keystroke	t	n/a
487.351	0.09	974702	keystroke	u	n/a
487.516	0.075	975032	keystroke	b	n/a
487.636	0.075	975272	keystroke	e	n/a
487.831	0.075	975662	keystroke	s	n/a
487.921	0.075	975842	keystroke	Key.space	n/a
488.026	0.075	976052	keystroke	a	n/a
488.341	0.06	976682	keystroke	t	n/a
488.476	0.075	976952	keystroke	t	n/a
488.6865	0.06	977373	keystroke	a	n/a
488.8665	0.09	977733	keystroke	c	n/a
488.9565	0.075	977913	keystroke	h	n/a
489.0455	0.076	978091	keystroke	Key.space	n/a
489.2865	0.075	978573	keystroke	c	n/a
489.3765	0.06	978753	keystroke	o	n/a
489.526	0.09	979052	keystroke	n	n/a
489.631	0.075	979262	keystroke	c	n/a
489.766	0.09	979532	keystroke	e	n/a
489.871	0.06	979742	keystroke	p	n/a
490.0505	0.076	980101	keystroke	t	n/a
490.1555	0.105	980311	keystroke	Key.space	n/a
490.3355	0.075	980671	keystroke	s	n/a
490.4255	0.105	980851	keystroke	o	n/a
490.5005	0.075	981001	keystroke	u	n/a
490.7105	0.1055	981421	keystroke	l	n/a
491.221	0.075	982442	keystroke	Key.enter	n/a
491.3005	4.347	982601	prompt	n/a	susan days killed becomes\n
491.8655	0.09	983731	keystroke	s	n/a
491.9705	0.075	983941	keystroke	u	n/a
492.1055	0.0605	984211	keystroke	s	n/a
492.2705	0.0905	984541	keystroke	a	n/a
492.376	0.0745	984752	keystroke	n	n/a
492.496	0.0745	984992	keystroke	Key.space	n/a
492.6755	0.075	985351	keystroke	d	n/a
492.7815	0.105	985563	keystroke	a	n/a
492.9015	0.075	985803	keystroke	y	n/a
493.0365	0.105	986073	keystroke	s	n/a
493.1715	0.075	986343	keystroke	Key.space	n/a
493.5015	0.06	987003	keystroke	k	n/a
493.6515	0.06	987303	keystroke	i	n/a
493.8915	0.03	987783	keystroke	l	n/a
493.9815	0.075	987963	keystroke	l	n/a
494.1465	0.075	988293	keystroke	e	n/a
494.3265	0.075	988653	keystroke	d	n/a
494.4315	0.06	988863	keystroke	Key.space	n/a
494.5665	0.09	989133	keystroke	b	n/a
494.6115	0.105	989223	keystroke	e	n/a
494.8365	0.075	989673	keystroke	c	n/a
494.9265	0.075	989853	keystroke	o	n/a
495.0615	0.105	990123	keystroke	m	n/a
495.1965	0.075	990393	keystroke	e	n/a
495.4065	0.0595	990813	keystroke	s	n/a
495.571	0.075	991142	keystroke	Key.enter	n/a
495.65	7.9925	991300	prompt	n/a	controlling british dealers enabling\n
496.321	0.075	992642	keystroke	c	n/a
496.411	0.045	992822	keystroke	o	n/a
496.546	0.105	993092	keystroke	n	n/a
496.636	0.105	993272	keystroke	t	n/a
496.8165	0.075	993633	keystroke	r	n/a
496.9065	0.075	993813	keystroke	o	n/a
497.1015	0.06	994203	keystroke	l	n/a
497.2215	0.075	994443	keystroke	l	n/a
497.4165	0.045	994833	keystroke	i	n/a
497.4915	0.075	994983	keystroke	n	n/a
497.5965	0.09	995193	keystroke	g	n/a
497.7015	0.074	995403	keystroke	Key.space	n/a
497.9865	0.075	995973	keystroke	b	n/a
498.1055	0.091	996211	keystroke	r	n/a
498.2115	0.0745	996423	keystroke	i	n/a
498.376	0.06	996752	keystroke	t	n/a
498.451	0.06	996902	keystroke	i	n/a
498.7965	0.074	997593	keystroke	s	n/a
498.8565	0.119	997713	keystroke	h	n/a
499.0055	0.09	998011	keystroke	Key.space	n/a
499.2615	0.075	998523	keystroke	d	n/a
499.4565	0.059	998913	keystroke	e	n/a
499.5915	0.09	999183	keystroke	a	n/a
499.6965	0.074	999393	keystroke	l	n/a
499.8315	0.09	999663	keystroke	e	n/a
499.9665	0.074	999933	keystroke	r	n/a
500.1765	0.075	1000353	keystroke	s	n/a
500.3105	0.076	1000621	keystroke	Key.space	n/a
500.4305	0.09	1000861	keystroke	e	n/a
500.5365	0.074	1001073	keystroke	n	n/a
500.7155	0.091	1001431	keystroke	a	n/a
500.8665	0.0895	1001733	keystroke	b	n/a
502.741	0.06	1005482	keystroke	l	n/a
502.936	0.06	1005872	keystroke	i	n/a
503.041	0.075	1006082	keystroke	n	n/a
503.131	0.09	1006262	keystroke	g	n/a
503.5655	0.075	1007131	keystroke	Key.enter	n/a
503.646	5.2465	1007292	prompt	n/a	solved andrews fence coverage\n
504.3015	0.089	1008603	keystroke	s	n/a
504.3755	0.09	1008751	keystroke	o	n/a
504.5555	0.075	1009111	keystroke	l	n/a
504.6605	0.075	1009321	keystroke	v	n/a
504.8105	0.076	1009621	keystroke	e	n/a
504.9915	0.075	1009983	keystroke	d	n/a
505.0965	0.075	1010193	keystroke	Key.space	n/a
505.2015	0.105	1010403	keystroke	a	n/a
505.2915	0.075	1010583	keystroke	n	n/a
505.4115	0.105	1010823	keystroke	d	n/a
505.6215	0.09	1011243	keystroke	r	n/a
505.7415	0.075	1011483	keystroke	e	n/a
505.9515	0.075	1011903	keystroke	w	n/a
506.1615	0.075	1012323	keystroke	s	n/a
506.2655	0.091	1012531	keystroke	Key.space	n/a
506.4755	0.075	1012951	keystroke	f	n/a
506.6115	0.074	1013223	keystroke	e	n/a
506.7155	0.091	1013431	keystroke	n	n/a
506.8655	0.0755	1013731	keystroke	c	n/a
506.971	0.09	1013942	keystroke	e	n/a
507.151	0.09	1014302	keystroke	Key.space	n/a
507.421	0.0905	1014842	keystroke	c	n/a
507.5265	0.074	1015053	keystroke	o	n/a
507.6755	0.0905	1015351	keystroke	v	n/a
507.841	0.135	1015682	keystroke	e	n/a
507.991	0.09	1015982	keystroke	r	n/a
508.171	0.09	1016342	keystroke	a	n/a
508.291	0.105	1016582	keystroke	g	n/a
508.441	0.075	1016882	keystroke	e	n/a
508.801	0.09	1017602	keystroke	Key.enter	n/a
508.8955	6.027	1017791	prompt	n/a	scale stack deposits cigarettes\n
509.5505	0.045	1019101	keystroke	s	n/a
509.7155	0.06	1019431	keystroke	c	n/a
509.8355	0.091	1019671	keystroke	a	n/a
509.9405	0.06	1019881	keystroke	l	n/a
510.0755	0.091	1020151	keystroke	e	n/a
510.2405	0.075	1020481	keystroke	Key.space	n/a
510.3605	0.075	1020721	keystroke	s	n/a
510.571	0.075	1021142	keystroke	t	n/a
510.751	0.06	1021502	keystroke	a	n/a
510.9455	0.06	1021891	keystroke	c	n/a
511.0355	0.09	1022071	keystroke	k	n/a
511.1405	0.075	1022281	keystroke	Key.space	n/a
511.3205	0.09	1022641	keystroke	d	n/a
511.501	0.06	1023002	keystroke	e	n/a
511.576	0.075	1023152	keystroke	p	n/a
511.756	0.075	1023512	keystroke	o	n/a
511.906	0.09	1023812	keystroke	s	n/a
512.011	0.075	1024022	keystroke	i	n/a
512.191	0.075	1024382	keystroke	t	n/a
512.416	0.105	1024832	keystroke	s	n/a
512.551	0.09	1025102	keystroke	Key.space	n/a
512.8365	0.074	1025673	keystroke	c	n/a
512.9255	0.076	1025851	keystroke	i	n/a
513.1065	0.074	1026213	keystroke	g	n/a
513.3315	0.105	1026663	keystroke	a	n/a
513.5265	0.09	1027053	keystroke	r	n/a
513.7065	0.105	1027413	keystroke	e	n/a
513.9765	0.06	1027953	keystroke	t	n/a
514.0965	0.075	1028193	keystroke	t	n/a
514.2465	0.075	1028493	keystroke	e	n/a
514.5465	0.0895	1029093	keystroke	s	n/a
514.831	0.09	1029662	keystroke	Key.enter	n/a
514.9255	6.492	1029851	prompt	n/a	scores point palestinian arrived\n
515.476	0.075	1030952	keystroke	s	n/a
515.641	0.12	1031282	keystroke	c	n/a
515.761	0.075	1031522	keystroke	o	n/a
515.881	0.12	1031762	keystroke	r	n/a
515.986	0.105	1031972	keystroke	e	n/a
516.256	0.06	1032512	keystroke	s	n/a
516.346	0.09	1032692	keystroke	Key.space	n/a
516.556	0.06	1033112	keystroke	p	n/a
516.991	0.06	1033982	keystroke	o	n/a
517.141	0.06	1034282	keystroke	i	n/a
517.276	0.0895	1034552	keystroke	n	n/a
517.4405	0.09	1034881	keystroke	t	n/a
517.5605	0.075	1035121	keystroke	Key.space	n/a
517.7705	0.075	1035541	keystroke	p	n/a
517.8755	0.105	1035751	keystroke	a	n/a
517.9955	0.075	1035991	keystroke	l	n/a
518.1455	0.09	1036291	keystroke	e	n/a
518.3855	0.09	1036771	keystroke	s	n/a
518.6255	0.0905	1037251	keystroke	t	n/a
518.731	0.06	1037462	keystroke	i	n/a
518.851	0.075	1037702	keystroke	n	n/a
519.016	0.075	1038032	keystroke	i	n/a
519.346	0.075	1038692	keystroke	a	n/a
519.451	0.075	1038902	keystroke	n	n/a
519.661	0.06	1039322	keystroke	Key.space	n/a
519.856	0.075	1039712	keystroke	a	n/a
520.0505	0.075	1040101	keystroke	r	n/a
520.1855	0.091	1040371	keystroke	r	n/a
520.2905	0.076	1040581	keystroke	i	n/a
520.4415	0.074	1040883	keystroke	v	n/a
520.5915	0.119	1041183	keystroke	e	n/a
521.1455	0.09	1042291	keystroke	d	n/a
521.3265	0.0895	1042653	keystroke	Key.enter	n/a
521.4215	6.191	1042843	prompt	n/a	organizing that's talent enemies\n
522.046	0.06	1044092	keystroke	o	n/a
522.151	0.09	1044302	keystroke	r	n/a
522.391	0.045	1044782	keystroke	g	n/a
522.586	0.09	1045172	keystroke	a	n/a
522.661	0.075	1045322	keystroke	n	n/a
522.826	0.075	1045652	keystroke	i	n/a
522.946	0.075	1045892	keystroke	z	n/a
523.111	0.06	1046222	keystroke	i	n/a
523.2305	0.075	1046461	keystroke	n	n/a
523.3505	0.075	1046701	keystroke	g	n/a
523.456	0.06	1046912	keystroke	Key.space	n/a
523.561	0.105	1047122	keystroke	t	n/a
523.651	0.075	1047302	keystroke	h	n/a
523.771	0.0905	1047542	keystroke	a	n/a
523.951	0.075	1047902	keystroke	t	n/a
524.056	0.075	1048112	keystroke	'	n/a
524.206	0.09	1048412	keystroke	s	n/a
524.326	0.075	1048652	keystroke	Key.space	n/a
524.566	0.045	1049132	keystroke	t	n/a
524.761	0.09	1049522	keystroke	a	n/a
524.866	0.06	1049732	keystroke	l	n/a
525.031	0.09	1050062	keystroke	e	n/a
525.166	0.09	1050332	keystroke	n	n/a
525.346	0.075	1050692	keystroke	t	n/a
525.511	0.075	1051022	keystroke	Key.space	n/a
525.781	0.06	1051562	keystroke	e	n/a
526.111	0.075	1052222	keystroke	n	n/a
526.231	0.075	1052462	keystroke	e	n/a
526.351	0.075	1052702	keystroke	m	n/a
526.576	0.075	1053152	keystroke	i	n/a
526.696	0.075	1053392	keystroke	e	n/a
526.936	0.075	1053872	keystroke	s	n/a
527.551	0.06	1055102	keystroke	Key.enter	n/a
527.615	7.8575	1055230	prompt	n/a	workshop actively helicopter refugees\n
528.4515	0.09	1056903	keystroke	w	n/a
528.5565	0.06	1057113	keystroke	o	n/a
528.6605	0.091	1057321	keystroke	r	n/a
528.7965	0.119	1057593	keystroke	k	n/a
529.0815	0.074	1058163	keystroke	s	n/a
529.1715	0.0895	1058343	keystroke	h	n/a
529.366	0.06	1058732	keystroke	o	n/a
529.546	0.075	1059092	keystroke	p	n/a
529.741	0.06	1059482	keystroke	Key.space	n/a
529.921	0.045	1059842	keystroke	a	n/a
530.101	0.06	1060202	keystroke	c	n/a
530.266	0.075	1060532	keystroke	t	n/a
530.371	0.06	1060742	keystroke	i	n/a
530.506	0.06	1061012	keystroke	v	n/a
530.641	0.075	1061282	keystroke	e	n/a
530.746	0.0895	1061492	keystroke	l	n/a
530.9415	0.09	1061883	keystroke	y	n/a
531.0455	0.076	1062091	keystroke	Key.space	n/a
531.1955	0.09	1062391	keystroke	h	n/a
531.3155	0.075	1062631	keystroke	e	n/a
531.4505	0.075	1062901	keystroke	l	n/a
531.6155	0.075	1063231	keystroke	i	n/a
531.7205	0.09	1063441	keystroke	c	n/a
531.8555	0.075	1063711	keystroke	o	n/a
532.0355	0.075	1064071	keystroke	p	n/a
532.1705	0.09	1064341	keystroke	t	n/a
532.3515	0.059	1064703	keystroke	e	n/a
532.4405	0.105	1064881	keystroke	r	n/a
532.6055	0.09	1065211	keystroke	Key.space	n/a
532.8905	0.09	1065781	keystroke	r	n/a
532.9955	0.075	1065991	keystroke	e	n/a
533.1905	0.0605	1066381	keystroke	f	n/a
533.266	0.105	1066532	keystroke	u	n/a
534.0765	0.06	1068153	keystroke	g	n/a
534.2415	0.09	1068483	keystroke	e	n/a
534.4215	0.09	1068843	keystroke	e	n/a
534.796	0.075	1069592	keystroke	s	n/a
535.3805	0.09	1070761	keystroke	Key.enter	n/a
535.478	6.4445	1070956	prompt	n/a	instant underwear bases airfare\n
536.3255	0.045	1072651	keystroke	i	n/a
536.4615	0.09	1072923	keystroke	n	n/a
536.5655	0.075	1073131	keystroke	s	n/a
536.7305	0.075	1073461	keystroke	t	n/a
536.8805	0.091	1073761	keystroke	a	n/a
536.9415	0.105	1073883	keystroke	n	n/a
537.1665	0.09	1074333	keystroke	t	n/a
537.3305	0.091	1074661	keystroke	Key.space	n/a
537.7655	0.06	1075531	keystroke	u	n/a
537.9005	0.105	1075801	keystroke	n	n/a
537.9905	0.075	1075981	keystroke	d	n/a
538.1405	0.165	1076281	keystroke	e	n/a
538.2905	0.105	1076581	keystroke	r	n/a
538.5155	0.105	1077031	keystroke	w	n/a
538.6505	0.105	1077301	keystroke	e	n/a
538.8005	0.09	1077601	keystroke	a	n/a
538.9505	0.12	1077901	keystroke	r	n/a
539.1005	0.061	1078201	keystroke	Key.space	n/a
539.2515	0.075	1078503	keystroke	b	n/a
539.3415	0.09	1078683	keystroke	a	n/a
539.5215	0.075	1079043	keystroke	s	n/a
539.6865	0.075	1079373	keystroke	e	n/a
539.8665	0.09	1079733	keystroke	s	n/a
539.9865	0.06	1079973	keystroke	Key.space	n/a
540.2865	0.06	1080573	keystroke	a	n/a
540.4665	0.06	1080933	keystroke	i	n/a
540.6165	0.06	1081233	keystroke	r	n/a
540.9615	0.075	1081923	keystroke	f	n/a
541.1415	0.105	1082283	keystroke	a	n/a
541.3065	0.105	1082613	keystroke	r	n/a
541.3965	0.105	1082793	keystroke	e	n/a
541.816	0.105	1083632	keystroke	Key.enter	n/a
541.925	6.1925	1083850	prompt	n/a	harmful norway motivated charm\n
542.5815	0.075	1085163	keystroke	h	n/a
542.7015	0.075	1085403	keystroke	a	n/a
542.8365	0.09	1085673	keystroke	r	n/a
542.8815	0.12	1085763	keystroke	m	n/a
543.091	0.075	1086182	keystroke	f	n/a
543.181	0.09	1086362	keystroke	u	n/a
543.436	0.06	1086872	keystroke	l	n/a
543.526	0.09	1087052	keystroke	Key.space	n/a
543.691	0.09	1087382	keystroke	n	n/a
543.871	0.09	1087742	keystroke	o	n/a
543.976	0.09	1087952	keystroke	r	n/a
544.201	0.06	1088402	keystroke	w	n/a
544.321	0.105	1088642	keystroke	a	n/a
544.441	0.09	1088882	keystroke	y	n/a
544.5605	0.06	1089121	keystroke	Key.space	n/a
544.8165	0.075	1089633	keystroke	m	n/a
544.9505	0.09	1089901	keystroke	o	n/a
545.0855	0.09	1090171	keystroke	t	n/a
545.2055	0.075	1090411	keystroke	i	n/a
545.3105	0.091	1090621	keystroke	f	n/a
545.6105	0.03	1091221	keystroke	a	n/a
545.8205	0.06	1091641	keystroke	Key.backspace	n/a
545.9405	0.09	1091881	keystroke	Key.backspace	n/a
546.1655	0.075	1092331	keystroke	v	n/a
546.3605	0.09	1092721	keystroke	a	n/a
546.5855	0.075	1093171	keystroke	t	n/a
546.7055	0.09	1093411	keystroke	e	n/a
546.8855	0.105	1093771	keystroke	d	n/a
547.0055	0.075	1094011	keystroke	Key.space	n/a
547.1255	0.075	1094251	keystroke	c	n/a
547.2155	0.0905	1094431	keystroke	h	n/a
547.321	0.075	1094642	keystroke	a	n/a
547.486	0.06	1094972	keystroke	r	n/a
547.561	0.105	1095122	keystroke	m	n/a
548.011	0.105	1096022	keystroke	Key.enter	n/a
548.1205	7.917	1096241	prompt	n/a	foto term thanks who're\n
549.091	0.09	1098182	keystroke	f	n/a
549.196	0.075	1098392	keystroke	o	n/a
549.331	0.075	1098662	keystroke	t	n/a
549.826	0.075	1099652	keystroke	o	n/a
550.141	0.075	1100282	keystroke	Key.space	n/a
551.776	0.06	1103552	keystroke	t	n/a
551.956	0.105	1103912	keystroke	e	n/a
552.076	0.075	1104152	keystroke	r	n/a
552.181	0.09	1104362	keystroke	m	n/a
552.301	0.075	1104602	keystroke	Key.space	n/a
552.481	0.075	1104962	keystroke	t	n/a
552.556	0.09	1105112	keystroke	h	n/a
552.691	0.105	1105382	keystroke	a	n/a
553.366	0.075	1106732	keystroke	n	n/a
553.636	0.015	1107272	keystroke	k	n/a
553.711	0.09	1107422	keystroke	s	n/a
553.951	0.075	1107902	keystroke	Key.space	n/a
554.101	0.09	1108202	keystroke	w	n/a
554.146	0.09	1108292	keystroke	h	n/a
554.356	0.075	1108712	keystroke	o	n/a
555.046	0.09	1110092	keystroke	'	n/a
555.241	0.1045	1110482	keystroke	r	n/a
555.361	0.0745	1110722	keystroke	e	n/a
555.9305	0.1055	1111861	keystroke	Key.enter	n/a
556.0405	4.272	1112081	prompt	n/a	pulse major heard route\n
556.7105	0.075	1113421	keystroke	p	n/a
556.891	0.075	1113782	keystroke	u	n/a
557.0855	0.0755	1114171	keystroke	l	n/a
557.176	0.075	1114352	keystroke	s	n/a
557.3405	0.09	1114681	keystroke	e	n/a
557.446	0.0905	1114892	keystroke	Key.space	n/a
557.5815	0.105	1115163	keystroke	m	n/a
557.7315	0.09	1115463	keystroke	a	n/a
557.8365	0.075	1115673	keystroke	j	n/a
558.061	0.06	1116122	keystroke	o	n/a
558.1815	0.09	1116363	keystroke	r	n/a
558.3015	0.075	1116603	keystroke	Key.space	n/a
558.4665	0.104	1116933	keystroke	h	n/a
558.5555	0.09	1117111	keystroke	e	n/a
558.7205	0.09	1117441	keystroke	a	n/a
558.8855	0.105	1117771	keystroke	r	n/a
559.1255	0.075	1118251	keystroke	d	n/a
559.2305	0.075	1118461	keystroke	Key.space	n/a
559.366	0.09	1118732	keystroke	r	n/a
559.486	0.105	1118972	keystroke	o	n/a
559.561	0.09	1119122	keystroke	u	n/a
559.756	0.09	1119512	keystroke	t	n/a
559.981	0.06	1119962	keystroke	e	n/a
560.221	0.09	1120442	keystroke	Key.enter	n/a
560.315	5.6525	1120630	prompt	n/a	reaching invalid blogger trader\n
560.9705	0.076	1121941	keystroke	r	n/a
561.1055	0.075	1122211	keystroke	e	n/a
561.2705	0.06	1122541	keystroke	a	n/a
561.4355	0.105	1122871	keystroke	c	n/a
561.5415	0.059	1123083	keystroke	h	n/a
561.646	0.0745	1123292	keystroke	i	n/a
561.7955	0.075	1123591	keystroke	n	n/a
561.8865	0.059	1123773	keystroke	g	n/a
561.9755	0.075	1123951	keystroke	Key.space	n/a
562.0955	0.06	1124191	keystroke	i	n/a
562.2155	0.12	1124431	keystroke	n	n/a
562.3505	0.03	1124701	keystroke	v	n/a
562.5755	0.075	1125151	keystroke	a	n/a
562.6955	0.09	1125391	keystroke	l	n/a
562.8905	0.075	1125781	keystroke	i	n/a
563.0255	0.075	1126051	keystroke	d	n/a
563.1155	0.075	1126231	keystroke	Key.space	n/a
563.2355	0.075	1126471	keystroke	b	n/a
563.4605	0.06	1126921	keystroke	l	n/a
563.6105	0.045	1127221	keystroke	o	n/a
563.7455	0.075	1127491	keystroke	g	n/a
564.2255	0.075	1128451	keystroke	g	n/a
564.4515	0.1045	1128903	keystroke	e	n/a
564.5715	0.0895	1129143	keystroke	r	n/a
564.706	0.09	1129412	keystroke	Key.space	n/a
564.916	0.075	1129832	keystroke	t	n/a
565.0655	0.075	1130131	keystroke	r	n/a
565.2155	0.105	1130431	keystroke	a	n/a
565.3805	0.075	1130761	keystroke	d	n/a
565.5155	0.075	1131031	keystroke	e	n/a
565.6205	0.06	1131241	keystroke	r	n/a
565.8755	0.09	1131751	keystroke	Key.enter	n/a
565.971	6.3115	1131942	prompt	n/a	details mortgage tests landscape\n
566.581	0.06	1133162	keystroke	d	n/a
566.731	0.09	1133462	keystroke	e	n/a
566.881	0.075	1133762	keystroke	t	n/a
567.046	0.09	1134092	keystroke	a	n/a
567.151	0.0755	1134302	keystroke	i	n/a
567.346	0.09	1134692	keystroke	l	n/a
567.4655	0.09	1134931	keystroke	s	n/a
567.571	0.0595	1135142	keystroke	Key.space	n/a
567.6905	0.09	1135381	keystroke	m	n/a
567.8555	0.091	1135711	keystroke	o	n/a
567.9755	0.09	1135951	keystroke	r	n/a
568.1705	0.061	1136341	keystroke	t	n/a
568.3505	0.06	1136701	keystroke	g	n/a
568.5005	0.046	1137001	keystroke	a	n/a
568.6205	0.09	1137241	keystroke	g	n/a
568.8005	0.0905	1137601	keystroke	e	n/a
568.951	0.06	1137902	keystroke	Key.space	n/a
569.641	0.075	1139282	keystroke	t	n/a
569.836	0.075	1139672	keystroke	e	n/a
570.046	0.075	1140092	keystroke	s	n/a
570.226	0.09	1140452	keystroke	t	n/a
570.436	0.0755	1140872	keystroke	s	n/a
570.5705	0.075	1141141	keystroke	Key.space	n/a
570.7655	0.076	1141531	keystroke	l	n/a
570.8855	0.091	1141771	keystroke	a	n/a
570.9915	0.089	1141983	keystroke	n	n/a
571.1105	0.091	1142221	keystroke	d	n/a
571.2755	0.076	1142551	keystroke	s	n/a
571.456	0.06	1142912	keystroke	c	n/a
571.606	0.06	1143212	keystroke	a	n/a
571.711	0.09	1143422	keystroke	p	n/a
571.8315	0.09	1143663	keystroke	e	n/a
572.2065	0.074	1144413	keystroke	Key.enter	n/a
572.2855	10.5725	1144571	prompt	n/a	camps aberdeen ending expansys\n
573.1665	0.1195	1146333	keystroke	a	n/a
573.4805	0.075	1146961	keystroke	Key.backspace	n/a
573.6305	0.076	1147261	keystroke	c	n/a
573.7805	0.09	1147561	keystroke	a	n/a
573.8855	0.09	1147771	keystroke	m	n/a
574.1105	0.061	1148221	keystroke	p	n/a
574.636	0.075	1149272	keystroke	s	n/a
