onset	duration	sample	value	key	prompt_text
10.218	8.4595	20436	prompt	n/a	the quick brown fox jumps over a lazy dog\n
11.5525	0.014	23105	keystroke	t	n/a
11.6705	0.135	23341	keystroke	h	n/a
11.7905	0.105	23581	keystroke	e	n/a
11.9405	0.12	23881	keystroke	Key.space	n/a
12.0905	0.12	24181	keystroke	q	n/a
12.2255	0.165	24451	keystroke	u	n/a
12.4055	0.12	24811	keystroke	i	n/a
12.5555	0.15	25111	keystroke	c	n/a
12.6905	0.165	25381	keystroke	k	n/a
12.8105	0.18	25621	keystroke	Key.space	n/a
12.9755	0.1495	25951	keystroke	b	n/a
13.126	0.104	26252	keystroke	r	n/a
13.26	0.105	26520	keystroke	o	n/a
13.53	0.09	27060	keystroke	n	n/a
13.9355	0.075	27871	keystroke	Key.backspace	n/a
14.0695	0.12	28139	keystroke	w	n/a
14.2495	0.15	28499	keystroke	n	n/a
14.4005	0.1195	28801	keystroke	Key.space	n/a
14.4895	0.1055	28979	keystroke	f	n/a
14.625	0.135	29250	keystroke	o	n/a
14.79	0.1345	29580	keystroke	x	n/a
14.9095	0.135	29819	keystroke	Key.space	n/a
15.0605	0.12	30121	keystroke	j	n/a
15.2705	0.09	30541	keystroke	u	n/a
15.5105	0.09	31021	keystroke	m	n/a
15.7355	0.12	31471	keystroke	p	n/a
15.8405	0.09	31681	keystroke	s	n/a
15.9455	0.18	31891	keystroke	Key.space	n/a
16.0955	0.18	32191	keystroke	o	n/a
16.2155	0.105	32431	keystroke	v	n/a
16.4555	0.195	32911	keystroke	e	n/a
16.6205	0.09	33241	keystroke	r	n/a
16.8005	0.12	33601	keystroke	Key.space	n/a
16.965	0.1055	33930	keystroke	a	n/a
17.1005	0.1495	34201	keystroke	Key.space	n/a
17.3255	0.18	34651	keystroke	l	n/a
17.4305	0.045	34861	keystroke	a	n/a
17.6405	0.06	35281	keystroke	z	n/a
17.8355	0.089	35671	keystroke	y	n/a
17.9395	0.12	35879	keystroke	Key.space	n/a
18.0895	0.135	36179	keystroke	d	n/a
18.1955	0.119	36391	keystroke	o	n/a
18.3605	0.12	36721	keystroke	g	n/a
18.585	0.09	37170	keystroke	Key.enter	n/a
18.682	5.605	37364	prompt	n/a	passive scenes john grad\n
19.6655	0.105	39331	keystroke	p	n/a
19.7855	0.09	39571	keystroke	a	n/a
20.0255	0.075	40051	keystroke	s	n/a
20.1905	0.075	40381	keystroke	s	n/a
20.5355	0.18	41071	keystroke	i	n/a
20.8505	0.06	41701	keystroke	v	n/a
21.0455	0.105	42091	keystroke	e	n/a
21.2105	0.15	42421	keystroke	Key.space	n/a
21.4205	0.12	42841	keystroke	s	n/a
21.6455	0.0895	43291	keystroke	c	n/a
21.8405	0.075	43681	keystroke	e	n/a
21.9305	0.12	43861	keystroke	n	n/a
22.0655	0.119	44131	keystroke	e	n/a
22.245	0.105	44490	keystroke	s	n/a
22.365	0.135	44730	keystroke	Key.space	n/a
22.5465	0.134	45093	keystroke	j	n/a
22.6955	0.18	45391	keystroke	o	n/a
22.8155	0.15	45631	keystroke	h	n/a
23.1155	0.15	46231	keystroke	n	n/a
23.2655	0.12	46531	keystroke	Key.space	n/a
23.4005	0.045	46801	keystroke	g	n/a
23.5955	0.12	47191	keystroke	r	n/a
23.7455	0.135	47491	keystroke	a	n/a
23.9255	0.105	47851	keystroke	d	n/a
24.1655	0.12	48331	keystroke	Key.enter	n/a
24.2895	5.0975	48579	prompt	n/a	veteran bored curve solar\n
24.8855	0.105	49771	keystroke	v	n/a
25.0955	0.12	50191	keystroke	e	n/a
25.2605	0.1495	50521	keystroke	t	n/a
25.4255	0.225	50851	keystroke	e	n/a
25.5905	0.12	51181	keystroke	r	n/a
25.8455	0.105	51691	keystroke	a	n/a
25.9205	0.1355	51841	keystroke	n	n/a
26.0855	0.149	52171	keystroke	Key.space	n/a
26.2205	0.135	52441	keystroke	b	n/a
26.4155	0.1345	52831	keystroke	o	n/a
26.49	0.105	52980	keystroke	r	n/a
26.67	0.09	53340	keystroke	e	n/a
26.895	0.1355	53790	keystroke	d	n/a
27.0155	0.105	54031	keystroke	Key.space	n/a
27.1805	0.12	54361	keystroke	c	n/a
27.2705	0.1195	54541	keystroke	u	n/a
27.45	0.12	54900	keystroke	r	n/a
27.72	0.105	55440	keystroke	v	n/a
27.9	0.135	55800	keystroke	e	n/a
28.02	0.135	56040	keystroke	Key.space	n/a
28.185	0.15	56370	keystroke	s	n/a
28.29	0.075	56580	keystroke	o	n/a
28.515	0.12	57030	keystroke	l	n/a
28.6055	0.1645	57211	keystroke	a	n/a
28.95	0.121	57900	keystroke	r	n/a
29.295	0.09	58590	keystroke	Key.enter	n/a
29.39	6.057	58780	prompt	n/a	daddy calculation global edward\n
30.046	0.104	60092	keystroke	d	n/a
30.271	0.105	60542	keystroke	a	n/a
30.465	0.06	60930	keystroke	d	n/a
30.615	0.105	61230	keystroke	d	n/a
30.87	0.105	61740	keystroke	y	n/a
31.02	0.15	62040	keystroke	Key.space	n/a
31.201	0.15	62402	keystroke	c	n/a
31.381	0.15	62762	keystroke	a	n/a
31.486	0.134	62972	keystroke	l	n/a
31.74	0.1505	63480	keystroke	c	n/a
31.8755	0.105	63751	keystroke	u	n/a
32.1155	0.105	64231	keystroke	l	n/a
32.1905	0.0905	64381	keystroke	a	n/a
32.4155	0.135	64831	keystroke	t	n/a
32.5055	0.135	65011	keystroke	i	n/a
32.5955	0.21	65191	keystroke	o	n/a
32.7305	0.165	65461	keystroke	n	n/a
32.8505	0.1505	65701	keystroke	Key.space	n/a
32.986	0.15	65972	keystroke	g	n/a
33.091	0.165	66182	keystroke	l	n/a
33.196	0.135	66392	keystroke	o	n/a
33.451	0.135	66902	keystroke	b	n/a
33.811	0.09	67622	keystroke	a	n/a
33.916	0.165	67832	keystroke	l	n/a
34.051	0.195	68102	keystroke	Key.space	n/a
34.216	0.06	68432	keystroke	e	n/a
34.411	0.06	68822	keystroke	d	n/a
34.575	0.1355	69150	keystroke	w	n/a
34.695	0.1505	69390	keystroke	a	n/a
34.8455	0.105	69691	keystroke	r	n/a
35.0705	0.135	70141	keystroke	d	n/a
35.3405	0.105	70681	keystroke	Key.enter	n/a
35.4505	6.9265	70901	prompt	n/a	kruger indirect needn't lamp\n
36.1955	0.135	72391	keystroke	k	n/a
36.3605	0.105	72721	keystroke	r	n/a
36.5705	0.12	73141	keystroke	u	n/a
36.9155	0.105	73831	keystroke	g	n/a
37.1405	0.1955	74281	keystroke	e	n/a
37.261	0.149	74522	keystroke	r	n/a
37.426	0.119	74852	keystroke	Key.space	n/a
37.605	0.135	75210	keystroke	i	n/a
37.726	0.134	75452	keystroke	n	n/a
37.816	0.1495	75632	keystroke	d	n/a
37.9805	0.1345	75961	keystroke	i	n/a
38.2055	0.1645	76411	keystroke	r	n/a
38.4005	0.12	76801	keystroke	e	n/a
38.6705	0.12	77341	keystroke	c	n/a
38.9405	0.09	77881	keystroke	t	n/a
39.0905	0.12	78181	keystroke	Key.space	n/a
39.3005	0.12	78601	keystroke	n	n/a
39.3455	0.09	78691	keystroke	e	n/a
39.541	0.089	79082	keystroke	e	n/a
39.78	0.12	79560	keystroke	d	n/a
40.2305	0.105	80461	keystroke	n	n/a
40.7255	0.121	81451	keystroke	'	n/a
40.9805	0.105	81961	keystroke	t	n/a
41.235	0.15	82470	keystroke	Key.space	n/a
41.596	0.15	83192	keystroke	l	n/a
41.655	0.15	83310	keystroke	a	n/a
41.835	0.165	83670	keystroke	m	n/a
42.015	0.121	84030	keystroke	p	n/a
42.286	0.09	84572	keystroke	Key.enter	n/a
42.3805	5.0215	84761	prompt	n/a	on editors striking fired\n
43.005	0.166	86010	keystroke	o	n/a
43.126	0.225	86252	keystroke	n	n/a
43.321	0.15	86642	keystroke	Key.space	n/a
43.486	0.075	86972	keystroke	e	n/a
43.696	0.15	87392	keystroke	d	n/a
43.801	0.12	87602	keystroke	i	n/a
43.996	0.0895	87992	keystroke	t	n/a
44.1305	0.1205	88261	keystroke	o	n/a
44.2205	0.1355	88441	keystroke	r	n/a
44.416	0.18	88832	keystroke	s	n/a
44.671	0.135	89342	keystroke	Key.space	n/a
44.791	0.09	89582	keystroke	s	n/a
45.016	0.0895	90032	keystroke	t	n/a
45.2105	0.105	90421	keystroke	r	n/a
45.3305	0.12	90661	keystroke	i	n/a
45.6155	0.09	91231	keystroke	k	n/a
45.8255	0.135	91651	keystroke	i	n/a
45.9155	0.21	91831	keystroke	n	n/a
46.1105	0.09	92221	keystroke	g	n/a
46.2155	0.105	92431	keystroke	Key.space	n/a
46.3655	0.12	92731	keystroke	f	n/a
46.4705	0.165	92941	keystroke	i	n/a
46.6655	0.165	93331	keystroke	r	n/a
46.8005	0.135	93601	keystroke	e	n/a
47.0705	0.12	94141	keystroke	d	n/a
47.3255	0.075	94651	keystroke	Key.enter	n/a
47.4055	5.4565	94811	prompt	n/a	replacement pushing disks asus\n
48.001	0.12	96002	keystroke	r	n/a
48.076	0.135	96152	keystroke	e	n/a
48.256	0.075	96512	keystroke	p	n/a
48.481	0.15	96962	keystroke	l	n/a
48.8855	0.105	97771	keystroke	a	n/a
49.065	0.18	98130	keystroke	c	n/a
49.23	0.12	98460	keystroke	e	n/a
49.38	0.135	98760	keystroke	m	n/a
49.5	0.121	99000	keystroke	e	n/a
49.605	0.181	99210	keystroke	n	n/a
49.771	0.105	99542	keystroke	t	n/a
49.86	0.135	99720	keystroke	Key.space	n/a
50.04	0.091	100080	keystroke	p	n/a
50.25	0.105	100500	keystroke	u	n/a
50.431	0.15	100862	keystroke	s	n/a
50.521	0.104	101042	keystroke	h	n/a
50.685	0.136	101370	keystroke	i	n/a
50.775	0.195	101550	keystroke	n	n/a
50.925	0.105	101850	keystroke	g	n/a
51.045	0.1205	102090	keystroke	Key.space	n/a
51.1805	0.135	102361	keystroke	d	n/a
51.3305	0.12	102661	keystroke	i	n/a
51.4355	0.1205	102871	keystroke	s	n/a
51.676	0.134	103352	keystroke	k	n/a
51.796	0.164	103592	keystroke	s	n/a
51.975	0.15	103950	keystroke	Key.space	n/a
52.14	0.09	104280	keystroke	a	n/a
52.321	0.0895	104642	keystroke	s	n/a
52.3955	0.12	104791	keystroke	u	n/a
52.5455	0.105	105091	keystroke	s	n/a
52.7705	0.09	105541	keystroke	Key.enter	n/a
52.867	11.7105	105734	prompt	n/a	champion sophisticated scout stopped\n
53.5055	0.15	107011	keystroke	c	n/a
53.6705	0.12	107341	keystroke	h	n/a
53.8055	0.105	107611	keystroke	a	n/a
53.9405	0.12	107881	keystroke	m	n/a
54.1205	0.12	108241	keystroke	p	n/a
54.3755	0.105	108751	keystroke	t	n/a
54.4355	0.18	108871	keystroke	i	n/a
54.5855	0.195	109171	keystroke	o	n/a
54.6755	0.1795	109351	keystroke	n	n/a
54.8255	0.1495	109651	keystroke	Key.space	n/a
54.945	0.12	109890	keystroke	s	n/a
55.08	0.09	110160	keystroke	o	n/a
55.32	0.09	110640	keystroke	p	n/a
55.785	0.105	111570	keystroke	h	n/a
56.4905	0.465	112981	keystroke	Key.backspace	n/a
57.0755	0.09	114151	keystroke	Key.backspace	n/a
57.2855	0.03	114571	keystroke	Key.backspace	n/a
57.4205	0.075	114841	keystroke	Key.backspace	n/a
57.5705	0.075	115141	keystroke	Key.backspace	n/a
57.751	0.075	115502	keystroke	Key.backspace	n/a
57.9155	0.0755	115831	keystroke	Key.backspace	n/a
58.096	0.075	116192	keystroke	Key.backspace	n/a
58.291	0.06	116582	keystroke	Key.backspace	n/a
58.591	0.135	117182	keystroke	i	n/a
58.906	0.15	117812	keystroke	o	n/a
59.0105	0.1655	118021	keystroke	n	n/a
59.146	0.15	118292	keystroke	Key.space	n/a
59.281	0.1195	118562	keystroke	s	n/a
59.6255	0.135	119251	keystroke	o	n/a
59.896	0.105	119792	keystroke	p	n/a
60.1205	0.12	120241	keystroke	h	n/a
60.3905	0.135	120781	keystroke	i	n/a
60.4955	0.15	120991	keystroke	s	n/a
60.7805	0.105	121561	keystroke	t	n/a
61.0955	0.12	122191	keystroke	i	n/a
61.2755	0.105	122551	keystroke	c	n/a
61.4255	0.105	122851	keystroke	a	n/a
61.636	0.09	123272	keystroke	t	n/a
61.741	0.135	123482	keystroke	e	n/a
61.966	0.105	123932	keystroke	d	n/a
62.086	0.105	124172	keystroke	Key.space	n/a
62.206	0.12	124412	keystroke	s	n/a
62.416	0.18	124832	keystroke	c	n/a
62.581	0.135	125162	keystroke	o	n/a
62.671	0.195	125342	keystroke	u	n/a
62.881	0.1195	125762	keystroke	t	n/a
63.1205	0.105	126241	keystroke	Key.space	n/a
63.3155	0.15	126631	keystroke	s	n/a
63.5255	0.135	127051	keystroke	t	n/a
63.6155	0.12	127231	keystroke	o	n/a
63.7955	0.075	127591	keystroke	p	n/a
63.9605	0.105	127921	keystroke	p	n/a
64.0355	0.09	128071	keystroke	e	n/a
64.2605	0.15	128521	keystroke	d	n/a
64.486	0.09	128972	keystroke	Key.enter	n/a
64.58	7.722	129160	prompt	n/a	gravity charts collection naturals\n
65.221	0.075	130442	keystroke	g	n/a
65.4455	0.105	130891	keystroke	r	n/a
65.865	0.105	131730	keystroke	a	n/a
66.09	0.12	132180	keystroke	v	n/a
66.18	0.135	132360	keystroke	i	n/a
66.345	0.09	132690	keystroke	t	n/a
66.555	0.091	133110	keystroke	y	n/a
66.735	0.1205	133470	keystroke	Key.space	n/a
66.8855	0.135	133771	keystroke	c	n/a
67.0055	0.1505	134011	keystroke	h	n/a
67.23	0.09	134460	keystroke	r	n/a
67.275	0.075	134550	keystroke	a	n/a
67.905	0.075	135810	keystroke	Key.backspace	n/a
68.085	0.06	136170	keystroke	Key.backspace	n/a
68.191	0.15	136382	keystroke	a	n/a
68.326	0.105	136652	keystroke	r	n/a
68.566	0.074	137132	keystroke	t	n/a
68.8055	0.135	137611	keystroke	s	n/a
68.9705	0.1345	137941	keystroke	Key.space	n/a
69.166	0.15	138332	keystroke	c	n/a
69.255	0.09	138510	keystroke	o	n/a
69.496	0.059	138992	keystroke	l	n/a
69.63	0.105	139260	keystroke	l	n/a
69.75	0.075	139500	keystroke	e	n/a
69.96	0.105	139920	keystroke	c	n/a
70.2	0.105	140400	keystroke	t	n/a
70.29	0.135	140580	keystroke	i	n/a
70.38	0.195	140760	keystroke	o	n/a
70.5	0.15	141000	keystroke	n	n/a
70.62	0.165	141240	keystroke	Key.space	n/a
70.83	0.135	141660	keystroke	n	n/a
70.95	0.105	141900	keystroke	a	n/a
71.1755	0.09	142351	keystroke	t	n/a
71.3255	0.105	142651	keystroke	u	n/a
71.4905	0.075	142981	keystroke	r	n/a
71.7005	0.135	143401	keystroke	a	n/a
71.7905	0.135	143581	keystroke	l	n/a
71.9405	0.105	143881	keystroke	s	n/a
72.2255	0.075	144451	keystroke	Key.enter	n/a
72.306	6.221	144612	prompt	n/a	dennis babes sexuality cisco\n
72.855	0.1355	145710	keystroke	d	n/a
73.095	0.105	146190	keystroke	e	n/a
73.216	0.074	146432	keystroke	n	n/a
73.38	0.121	146760	keystroke	n	n/a
73.516	0.165	147032	keystroke	i	n/a
73.651	0.119	147302	keystroke	s	n/a
73.755	0.12	147510	keystroke	Key.space	n/a
73.92	0.12	147840	keystroke	b	n/a
74.055	0.121	148110	keystroke	a	n/a
74.161	0.09	148322	keystroke	b	n/a
74.385	0.181	148770	keystroke	e	n/a
74.535	0.1355	149070	keystroke	s	n/a
75.2105	0.12	150421	keystroke	Key.space	n/a
75.465	0.18	150930	keystroke	s	n/a
75.615	0.09	151230	keystroke	e	n/a
75.855	0.15	151710	keystroke	x	n/a
76.02	0.09	152040	keystroke	u	n/a
76.29	0.15	152580	keystroke	a	n/a
76.53	0.225	153060	keystroke	l	n/a
76.665	0.1655	153330	keystroke	i	n/a
76.74	0.0755	153480	keystroke	t	n/a
76.935	0.105	153870	keystroke	y	n/a
77.116	0.1345	154232	keystroke	Key.space	n/a
77.506	0.135	155012	keystroke	c	n/a
77.581	0.15	155162	keystroke	i	n/a
77.746	0.12	155492	keystroke	s	n/a
78.016	0.1195	156032	keystroke	c	n/a
78.1355	0.12	156271	keystroke	o	n/a
78.4505	0.075	156901	keystroke	Key.enter	n/a
78.53	7.587	157060	prompt	n/a	third trap hole extraordinary\n
79.3055	0.105	158611	keystroke	t	n/a
79.5005	0.105	159001	keystroke	h	n/a
79.7555	0.135	159511	keystroke	i	n/a
79.8305	0.105	159661	keystroke	r	n/a
80.1005	0.12	160201	keystroke	d	n/a
80.2505	0.105	160501	keystroke	Key.space	n/a
80.4605	0.09	160921	keystroke	t	n/a
80.7455	0.1045	161491	keystroke	r	n/a
80.88	0.166	161760	keystroke	a	n/a
81.076	0.1645	162152	keystroke	p	n/a
81.2255	0.165	162451	keystroke	Key.space	n/a
81.4505	0.15	162901	keystroke	h	n/a
81.5705	0.09	163141	keystroke	o	n/a
81.8255	0.15	163651	keystroke	l	n/a
82.0205	0.105	164041	keystroke	e	n/a
82.1705	0.1495	164341	keystroke	Key.space	n/a
82.335	0.075	164670	keystroke	e	n/a
82.56	0.105	165120	keystroke	x	n/a
82.785	0.09	165570	keystroke	t	n/a
83.01	0.091	166020	keystroke	r	n/a
83.221	0.15	166442	keystroke	a	n/a
83.416	0.12	166832	keystroke	o	n/a
84.421	0.09	168842	keystroke	r	n/a
84.646	0.164	169292	keystroke	d	n/a
84.871	0.1195	169742	keystroke	i	n/a
84.9755	0.2095	169951	keystroke	n	n/a
85.38	0.09	170760	keystroke	a	n/a
85.515	0.091	171030	keystroke	r	n/a
85.77	0.105	171540	keystroke	y	n/a
86.04	0.075	172080	keystroke	Key.enter	n/a
86.12	6.762	172240	prompt	n/a	successful circulation adding teacher\n
86.7455	0.105	173491	keystroke	s	n/a
86.9705	0.105	173941	keystroke	u	n/a
87.1955	0.075	174391	keystroke	c	n/a
87.4355	0.12	174871	keystroke	c	n/a
87.7205	0.06	175441	keystroke	e	n/a
87.8555	0.105	175711	keystroke	s	n/a
88.0655	0.0895	176131	keystroke	s	n/a
88.305	0.12	176610	keystroke	f	n/a
88.395	0.061	176790	keystroke	u	n/a
88.605	0.151	177210	keystroke	l	n/a
88.74	0.15	177480	keystroke	Key.space	n/a
88.905	0.12	177810	keystroke	c	n/a
89.01	0.105	178020	keystroke	i	n/a
89.191	0.104	178382	keystroke	r	n/a
89.475	0.135	178950	keystroke	c	n/a
89.565	0.075	179130	keystroke	u	n/a
89.776	0.134	179552	keystroke	l	n/a
89.881	0.09	179762	keystroke	a	n/a
90.105	0.121	180210	keystroke	t	n/a
90.166	0.165	180332	keystroke	i	n/a
90.271	0.195	180542	keystroke	o	n/a
90.405	0.165	180810	keystroke	n	n/a
90.525	0.165	181050	keystroke	Key.space	n/a
90.615	0.151	181230	keystroke	a	n/a
90.735	0.12	181470	keystroke	d	n/a
90.916	0.12	181832	keystroke	d	n/a
91.021	0.2245	182042	keystroke	i	n/a
91.2305	0.165	182461	keystroke	n	n/a
91.3805	0.105	182761	keystroke	g	n/a
91.5755	0.105	183151	keystroke	Key.space	n/a
91.6955	0.09	183391	keystroke	t	n/a
91.7705	0.12	183541	keystroke	e	n/a
91.9505	0.135	183901	keystroke	a	n/a
92.1905	0.12	184381	keystroke	c	n/a
92.2505	0.12	184501	keystroke	h	n/a
92.4005	0.18	184801	keystroke	e	n/a
92.5205	0.1645	185041	keystroke	r	n/a
92.7905	0.0895	185581	keystroke	Key.enter	n/a
92.8845	5.8025	185769	prompt	n/a	resolve leeds tyler wyoming\n
93.5255	0.12	187051	keystroke	r	n/a
93.6605	0.12	187321	keystroke	e	n/a
93.9005	0.105	187801	keystroke	s	n/a
93.9755	0.06	187951	keystroke	o	n/a
94.1705	0.165	188341	keystroke	l	n/a
94.2305	0.12	188461	keystroke	v	n/a
94.4105	0.1195	188821	keystroke	e	n/a
94.485	0.165	188970	keystroke	Key.space	n/a
94.7855	0.135	189571	keystroke	l	n/a
95.0555	0.0595	190111	keystroke	e	n/a
95.205	0.06	190410	keystroke	e	n/a
95.4	0.165	190800	keystroke	d	n/a
95.535	0.12	191070	keystroke	s	n/a
95.61	0.135	191220	keystroke	Key.space	n/a
95.79	0.0905	191580	keystroke	t	n/a
96.0155	0.075	192031	keystroke	y	n/a
96.1805	0.135	192361	keystroke	l	n/a
96.3305	0.135	192661	keystroke	e	n/a
96.7355	0.135	193471	keystroke	r	n/a
97.0055	0.1345	194011	keystroke	Key.space	n/a
97.276	0.119	194552	keystroke	w	n/a
97.575	0.105	195150	keystroke	y	n/a
97.861	0.119	195722	keystroke	o	n/a
97.996	0.12	195992	keystroke	m	n/a
98.145	0.12	196290	keystroke	i	n/a
98.235	0.151	196470	keystroke	n	n/a
98.37	0.105	196740	keystroke	g	n/a
98.61	0.075	197220	keystroke	Key.enter	n/a
98.6895	5.472	197379	prompt	n/a	beginners merry scout thumb\n
99.3	0.12	198600	keystroke	b	n/a
99.421	0.104	198842	keystroke	e	n/a
99.69	0.09	199380	keystroke	g	n/a
99.9	0.1355	199800	keystroke	i	n/a
100.0055	0.09	200011	keystroke	n	n/a
100.1705	0.135	200341	keystroke	n	n/a
100.3205	0.18	200641	keystroke	e	n/a
100.4855	0.15	200971	keystroke	r	n/a
100.6505	0.15	201301	keystroke	s	n/a
100.7855	0.135	201571	keystroke	Key.space	n/a
100.9805	0.21	201961	keystroke	m	n/a
101.1155	0.1795	202231	keystroke	e	n/a
101.2655	0.1045	202531	keystroke	r	n/a
101.4465	0.074	202893	keystroke	r	n/a
101.6705	0.09	203341	keystroke	y	n/a
101.8205	0.135	203641	keystroke	Key.space	n/a
101.9705	0.105	203941	keystroke	s	n/a
102.1355	0.18	204271	keystroke	c	n/a
102.2405	0.165	204481	keystroke	o	n/a
102.3755	0.195	204751	keystroke	u	n/a
102.5555	0.1205	205111	keystroke	t	n/a
102.69	0.12	205380	keystroke	Key.space	n/a
102.811	0.119	205622	keystroke	t	n/a
102.885	0.135	205770	keystroke	h	n/a
103.065	0.105	206130	keystroke	u	n/a
103.32	0.105	206640	keystroke	m	n/a
103.71	0.135	207420	keystroke	b	n/a
104.0555	0.105	208111	keystroke	Key.enter	n/a
104.165	5.6965	208330	prompt	n/a	variety href flesh edited\n
104.805	0.09	209610	keystroke	v	n/a
104.9855	0.18	209971	keystroke	a	n/a
105.3305	0.1355	210661	keystroke	r	n/a
105.555	0.135	211110	keystroke	i	n/a
105.886	0.104	211772	keystroke	e	n/a
106.11	0.09	212220	keystroke	t	n/a
106.335	0.091	212670	keystroke	y	n/a
106.47	0.105	212940	keystroke	Key.space	n/a
106.726	0.105	213452	keystroke	h	n/a
106.846	0.104	213692	keystroke	r	n/a
107.026	0.1195	214052	keystroke	e	n/a
107.2655	0.12	214531	keystroke	f	n/a
107.4005	0.12	214801	keystroke	Key.space	n/a
107.5505	0.105	215101	keystroke	f	n/a
107.6705	0.15	215341	keystroke	l	n/a
107.9405	0.06	215881	keystroke	e	n/a
108.135	0.135	216270	keystroke	s	n/a
108.271	0.134	216542	keystroke	h	n/a
108.406	0.164	216812	keystroke	Key.space	n/a
108.63	0.06	217260	keystroke	e	n/a
108.825	0.09	217650	keystroke	d	n/a
108.93	0.105	217860	keystroke	i	n/a
109.0505	0.09	218101	keystroke	t	n/a
109.2155	0.105	218431	keystroke	e	n/a
109.456	0.1195	218912	keystroke	d	n/a
109.7855	0.075	219571	keystroke	Key.enter	n/a
109.865	7.0315	219730	prompt	n/a	wisconsin uses verizon modification\n
110.5805	0.105	221161	keystroke	w	n/a
110.7005	0.135	221401	keystroke	i	n/a
110.8655	0.15	221731	keystroke	s	n/a
111.15	0.136	222300	keystroke	c	n/a
111.3	0.166	222600	keystroke	o	n/a
111.451	0.149	222902	keystroke	n	n/a
111.66	0.12	223320	keystroke	s	n/a
111.72	0.18	223440	keystroke	i	n/a
111.855	0.2105	223710	keystroke	n	n/a
112.05	0.15	224100	keystroke	Key.space	n/a
112.185	0.135	224370	keystroke	u	n/a
112.321	0.164	224642	keystroke	s	n/a
112.47	0.21	224940	keystroke	e	n/a
112.65	0.135	225300	keystroke	s	n/a
112.815	0.135	225630	keystroke	Key.space	n/a
112.98	0.121	225960	keystroke	v	n/a
113.251	0.165	226502	keystroke	e	n/a
113.386	0.105	226772	keystroke	r	n/a
113.521	0.135	227042	keystroke	i	n/a
113.926	0.12	227852	keystroke	z	n/a
114.181	0.15	228362	keystroke	o	n/a
114.286	0.18	228572	keystroke	n	n/a
114.451	0.15	228902	keystroke	Key.space	n/a
114.676	0.2245	229352	keystroke	m	n/a
114.886	0.165	229772	keystroke	o	n/a
115.1105	0.135	230221	keystroke	d	n/a
115.2305	0.15	230461	keystroke	i	n/a
115.5305	0.12	231061	keystroke	f	n/a
115.6355	0.105	231271	keystroke	i	n/a
115.8005	0.135	231601	keystroke	c	n/a
115.9655	0.105	231931	keystroke	a	n/a
116.2055	0.1045	232411	keystroke	t	n/a
116.295	0.105	232590	keystroke	i	n/a
116.37	0.165	232740	keystroke	o	n/a
116.475	0.135	232950	keystroke	n	n/a
116.82	0.075	233640	keystroke	Key.enter	n/a
116.8995	5.9225	233799	prompt	n/a	movie classic occur nights\n
117.796	0.075	235592	keystroke	o	n/a
117.826	0.09	235652	keystroke	m	n/a
118.215	0.075	236430	keystroke	Key.backspace	n/a
118.365	0.06	236730	keystroke	Key.backspace	n/a
118.62	0.135	237240	keystroke	m	n/a
118.785	0.136	237570	keystroke	o	n/a
118.965	0.1055	237930	keystroke	v	n/a
119.0855	0.12	238171	keystroke	i	n/a
119.2205	0.105	238441	keystroke	e	n/a
119.3705	0.12	238741	keystroke	Key.space	n/a
119.6255	0.135	239251	keystroke	c	n/a
119.7005	0.165	239401	keystroke	l	n/a
119.8505	0.105	239701	keystroke	a	n/a
120.1055	0.015	240211	keystroke	s	n/a
120.2555	0.09	240511	keystroke	s	n/a
120.465	0.105	240930	keystroke	i	n/a
120.63	0.12	241260	keystroke	c	n/a
120.795	0.09	241590	keystroke	Key.space	n/a
120.87	0.15	241740	keystroke	o	n/a
121.005	0.091	242010	keystroke	c	n/a
121.17	0.12	242340	keystroke	c	n/a
121.291	0.12	242582	keystroke	u	n/a
121.471	0.104	242942	keystroke	r	n/a
121.665	0.12	243330	keystroke	Key.space	n/a
121.92	0.105	243840	keystroke	n	n/a
122.026	0.149	244052	keystroke	i	n/a
122.16	0.09	244320	keystroke	g	n/a
122.265	0.105	244530	keystroke	h	n/a
122.385	0.105	244770	keystroke	t	n/a
122.55	0.15	245100	keystroke	s	n/a
122.745	0.075	245490	keystroke	Key.enter	n/a
122.825	5.412	245650	prompt	n/a	update treo special printable\n
123.4655	0.12	246931	keystroke	u	n/a
123.6455	0.15	247291	keystroke	p	n/a
123.7505	0.12	247501	keystroke	d	n/a
123.8405	0.12	247681	keystroke	a	n/a
124.0955	0.105	248191	keystroke	t	n/a
124.1555	0.15	248311	keystroke	e	n/a
124.3205	0.1505	248641	keystroke	Key.space	n/a
124.456	0.075	248912	keystroke	t	n/a
124.636	0.1345	249272	keystroke	r	n/a
124.7555	0.165	249511	keystroke	e	n/a
124.9505	0.1795	249901	keystroke	o	n/a
125.115	0.135	250230	keystroke	Key.space	n/a
125.235	0.136	250470	keystroke	s	n/a
125.3555	0.12	250711	keystroke	p	n/a
125.4905	0.105	250981	keystroke	e	n/a
125.7305	0.12	251461	keystroke	c	n/a
125.7905	0.09	251581	keystroke	i	n/a
125.9255	0.18	251851	keystroke	a	n/a
126.0455	0.165	252091	keystroke	l	n/a
126.2255	0.135	252451	keystroke	Key.space	n/a
126.3905	0.135	252781	keystroke	p	n/a
126.5705	0.12	253141	keystroke	r	n/a
126.7955	0.105	253591	keystroke	i	n/a
127.096	0.149	254192	keystroke	n	n/a
127.305	0.075	254610	keystroke	t	n/a
127.44	0.1505	254880	keystroke	a	n/a
127.5905	0.075	255181	keystroke	b	n/a
127.7855	0.135	255571	keystroke	l	n/a
127.8605	0.12	255721	keystroke	e	n/a
128.1455	0.0895	256291	keystroke	Key.enter	n/a
128.242	6.475	256484	prompt	n/a	worry referenced highest antibodies\n
128.835	0.105	257670	keystroke	w	n/a
128.955	0.105	257910	keystroke	o	n/a
129.045	0.105	258090	keystroke	r	n/a
129.24	0.075	258480	keystroke	r	n/a
129.45	0.09	258900	keystroke	y	n/a
129.6	0.1205	259200	keystroke	Key.space	n/a
129.8105	0.15	259621	keystroke	r	n/a
129.9455	0.165	259891	keystroke	e	n/a
130.1255	0.18	260251	keystroke	f	n/a
130.2905	0.18	260581	keystroke	e	n/a
130.4405	0.165	260881	keystroke	r	n/a
130.5905	0.12	261181	keystroke	e	n/a
130.7555	0.135	261511	keystroke	n	n/a
130.8455	0.18	261691	keystroke	c	n/a
130.9805	0.09	261961	keystroke	e	n/a
131.1755	0.15	262351	keystroke	d	n/a
131.3405	0.135	262681	keystroke	Key.space	n/a
131.4905	0.135	262981	keystroke	h	n/a
131.5805	0.15	263161	keystroke	i	n/a
131.7155	0.09	263431	keystroke	g	n/a
131.8355	0.15	263671	keystroke	h	n/a
131.9705	0.225	263941	keystroke	e	n/a
132.1355	0.24	264271	keystroke	s	n/a
132.3155	0.135	264631	keystroke	t	n/a
132.4355	0.135	264871	keystroke	Key.space	n/a
132.6005	0.135	265201	keystroke	a	n/a
132.7505	0.105	265501	keystroke	n	n/a
132.901	0.1195	265802	keystroke	t	n/a
133.006	0.164	266012	keystroke	i	n/a
133.365	0.12	266730	keystroke	b	n/a
133.545	0.09	267090	keystroke	o	n/a
133.98	0.12	267960	keystroke	d	n/a
134.1305	0.12	268261	keystroke	i	n/a
134.295	0.195	268590	keystroke	e	n/a
134.415	0.15	268830	keystroke	s	n/a
134.64	0.0755	269280	keystroke	Key.enter	n/a
134.72	7.542	269440	prompt	n/a	victoria plants peripherals brazil\n
135.3755	0.09	270751	keystroke	v	n/a
135.4505	0.135	270901	keystroke	i	n/a
135.6455	0.12	271291	keystroke	c	n/a
135.9155	0.09	271831	keystroke	t	n/a
136.0355	0.12	272071	keystroke	o	n/a
136.1705	0.105	272341	keystroke	r	n/a
136.2765	0.149	272553	keystroke	i	n/a
136.5305	0.165	273061	keystroke	a	n/a
136.711	0.1195	273422	keystroke	Key.space	n/a
136.9955	0.09	273991	keystroke	p	n/a
137.2055	0.105	274411	keystroke	l	n/a
137.2955	0.105	274591	keystroke	a	n/a
137.4455	0.135	274891	keystroke	n	n/a
137.5505	0.105	275101	keystroke	t	n/a
137.7155	0.195	275431	keystroke	s	n/a
137.8805	0.105	275761	keystroke	Key.space	n/a
138.1505	0.09	276301	keystroke	p	n/a
138.4655	0.165	276931	keystroke	e	n/a
138.6005	0.135	277201	keystroke	r	n/a
138.8705	0.12	277741	keystroke	i	n/a
139.1405	0.0895	278281	keystroke	p	n/a
139.396	0.104	278792	keystroke	h	n/a
139.605	0.196	279210	keystroke	e	n/a
139.755	0.105	279510	keystroke	r	n/a
139.95	0.135	279900	keystroke	a	n/a
140.071	0.1945	280142	keystroke	l	n/a
140.2355	0.12	280471	keystroke	s	n/a
140.3105	0.165	280621	keystroke	Key.space	n/a
140.97	0.1355	281940	keystroke	b	n/a
141.0605	0.1055	282121	keystroke	r	n/a
141.226	0.15	282452	keystroke	a	n/a
141.511	0.135	283022	keystroke	z	n/a
141.721	0.15	283442	keystroke	i	n/a
141.856	0.165	283712	keystroke	l	n/a
142.186	0.075	284372	keystroke	Key.enter	n/a
142.2645	6.688	284529	prompt	n/a	footwear societies soviet colleagues\n
142.9055	0.12	285811	keystroke	f	n/a
143.0265	0.059	286053	keystroke	o	n/a
143.1755	0.135	286351	keystroke	o	n/a
143.2805	0.09	286561	keystroke	t	n/a
143.506	0.179	287012	keystroke	w	n/a
144.0305	0.105	288061	keystroke	e	n/a
144.1505	0.255	288301	keystroke	a	n/a
144.3455	0.1495	288691	keystroke	r	n/a
144.51	0.12	289020	keystroke	Key.space	n/a
144.631	0.149	289262	keystroke	s	n/a
144.795	0.136	289590	keystroke	o	n/a
144.946	0.1195	289892	keystroke	c	n/a
145.021	0.15	290042	keystroke	i	n/a
145.201	0.105	290402	keystroke	e	n/a
145.396	0.12	290792	keystroke	t	n/a
145.531	0.135	291062	keystroke	i	n/a
145.651	0.239	291302	keystroke	e	n/a
145.83	0.15	291660	keystroke	s	n/a
145.9655	0.12	291931	keystroke	Key.space	n/a
146.115	0.12	292230	keystroke	s	n/a
146.265	0.135	292530	keystroke	o	n/a
146.4455	0.15	292891	keystroke	v	n/a
146.5655	0.15	293131	keystroke	i	n/a
146.7455	0.12	293491	keystroke	e	n/a
146.926	0.135	293852	keystroke	t	n/a
147.106	0.12	294212	keystroke	Key.space	n/a
147.346	0.135	294692	keystroke	c	n/a
147.436	0.075	294872	keystroke	o	n/a
147.6605	0.075	295321	keystroke	l	n/a
147.8255	0.105	295651	keystroke	l	n/a
147.9005	0.06	295801	keystroke	e	n/a
148.0655	0.105	296131	keystroke	a	n/a
148.2905	0.09	296581	keystroke	g	n/a
148.3655	0.12	296731	keystroke	u	n/a
148.5155	0.15	297031	keystroke	e	n/a
148.6055	0.165	297211	keystroke	s	n/a
148.8755	0.075	297751	keystroke	Key.enter	n/a
148.955	8.142	297910	prompt	n/a	necessity alexandria president jones\n
149.6705	0.105	299341	keystroke	n	n/a
149.7305	0.09	299461	keystroke	e	n/a
149.9705	0.165	299941	keystroke	c	n/a
150.1655	0.165	300331	keystroke	e	n/a
150.3455	0.105	300691	keystroke	s	n/a
150.5555	0.09	301111	keystroke	s	n/a
150.7805	0.1195	301561	keystroke	i	n/a
151.17	0.09	302340	keystroke	t	n/a
151.38	0.12	302760	keystroke	y	n/a
151.605	0.1205	303210	keystroke	Key.space	n/a
151.7855	0.15	303571	keystroke	a	n/a
151.9505	0.15	303901	keystroke	l	n/a
152.1905	0.0745	304381	keystroke	e	n/a
152.43	0.12	304860	keystroke	x	n/a
152.7	0.1205	305400	keystroke	a	n/a
152.805	0.135	305610	keystroke	n	n/a
152.9555	0.1355	305911	keystroke	d	n/a
153.271	0.105	306542	keystroke	r	n/a
153.391	0.15	306782	keystroke	i	n/a
153.526	0.195	307052	keystroke	a	n/a
153.706	0.119	307412	keystroke	Key.space	n/a
153.856	0.135	307712	keystroke	p	n/a
154.006	0.135	308012	keystroke	r	n/a
154.096	0.195	308192	keystroke	e	n/a
154.231	0.15	308462	keystroke	s	n/a
154.395	0.105	308790	keystroke	i	n/a
154.561	0.105	309122	keystroke	d	n/a
155.295	0.1055	310590	keystroke	e	n/a
155.3855	0.12	310771	keystroke	n	n/a
155.5505	0.12	311101	keystroke	t	n/a
155.7305	0.15	311461	keystroke	Key.space	n/a
156.1355	0.12	312271	keystroke	j	n/a
156.2705	0.18	312541	keystroke	o	n/a
156.4055	0.195	312811	keystroke	n	n/a
156.6155	0.18	313231	keystroke	e	n/a
156.7655	0.135	313531	keystroke	s	n/a
157.0355	0.0595	314071	keystroke	Key.enter	n/a
157.0995	4.3775	314199	prompt	n/a	timber format market can\n
157.815	0.15	315630	keystroke	t	n/a
157.95	0.15	315900	keystroke	i	n/a
158.085	0.15	316170	keystroke	m	n/a
158.355	0.15	316710	keystroke	b	n/a
158.491	0.1945	316982	keystroke	e	n/a
158.6255	0.09	317251	keystroke	r	n/a
158.7305	0.12	317461	keystroke	Key.space	n/a
158.8655	0.12	317731	keystroke	f	n/a
158.9705	0.1195	317941	keystroke	o	n/a
159.106	0.12	318212	keystroke	r	n/a
159.27	0.18	318540	keystroke	m	n/a
159.421	0.105	318842	keystroke	a	n/a
159.585	0.105	319170	keystroke	t	n/a
159.705	0.121	319410	keystroke	Key.space	n/a
159.8855	0.1495	319771	keystroke	m	n/a
160.005	0.151	320010	keystroke	a	n/a
160.11	0.09	320220	keystroke	r	n/a
160.215	0.15	320430	keystroke	k	n/a
160.29	0.21	320580	keystroke	e	n/a
160.44	0.12	320880	keystroke	t	n/a
160.59	0.12	321180	keystroke	Key.space	n/a
160.755	0.166	321510	keystroke	c	n/a
160.935	0.12	321870	keystroke	a	n/a
161.1	0.075	322200	keystroke	n	n/a
161.385	0.09	322770	keystroke	Key.enter	n/a
161.4795	6.7025	322959	prompt	n/a	essential jerry legislative drops\n
162.015	0.09	324030	keystroke	e	n/a
162.195	0.09	324390	keystroke	s	n/a
162.39	0.075	324780	keystroke	s	n/a
162.6305	0.06	325261	keystroke	e	n/a
162.6605	0.12	325321	keystroke	n	n/a
162.8255	0.12	325651	keystroke	t	n/a
162.9465	0.1345	325893	keystroke	i	n/a
163.1105	0.12	326221	keystroke	a	n/a
163.2605	0.18	326521	keystroke	l	n/a
163.4105	0.135	326821	keystroke	Key.space	n/a
163.6205	0.135	327241	keystroke	j	n/a
163.86	0.091	327720	keystroke	u	n/a
164.056	0.09	328112	keystroke	e	n/a
164.415	0.075	328830	keystroke	Key.backspace	n/a
164.596	0.059	329192	keystroke	Key.backspace	n/a
164.7	0.075	329400	keystroke	e	n/a
164.971	0.09	329942	keystroke	r	n/a
165.1355	0.075	330271	keystroke	r	n/a
165.3605	0.105	330721	keystroke	y	n/a
165.4655	0.105	330931	keystroke	Key.space	n/a
165.6155	0.165	331231	keystroke	l	n/a
165.7205	0.09	331441	keystroke	e	n/a
165.9005	0.135	331801	keystroke	g	n/a
166.0055	0.105	332011	keystroke	i	n/a
166.1555	0.165	332311	keystroke	s	n/a
166.3055	0.135	332611	keystroke	l	n/a
166.4555	0.09	332911	keystroke	a	n/a
166.635	0.105	333270	keystroke	t	n/a
166.725	0.12	333450	keystroke	i	n/a
166.905	0.105	333810	keystroke	v	n/a
167.055	0.1055	334110	keystroke	e	n/a
167.1755	0.12	334351	keystroke	Key.space	n/a
167.3105	0.105	334621	keystroke	d	n/a
167.4755	0.12	334951	keystroke	r	n/a
167.6555	0.135	335311	keystroke	o	n/a
167.7755	0.135	335551	keystroke	p	n/a
167.8955	0.1205	335791	keystroke	s	n/a
168.12	0.06	336240	keystroke	Key.enter	n/a
168.185	6.312	336370	prompt	n/a	vietnamese janet across lower\n
168.825	0.105	337650	keystroke	v	n/a
169.08	0.12	338160	keystroke	i	n/a
169.23	0.0905	338460	keystroke	e	n/a
169.4705	0.105	338941	keystroke	t	n/a
169.8905	0.09	339781	keystroke	n	n/a
170.0255	0.135	340051	keystroke	a	n/a
170.1305	0.135	340261	keystroke	m	n/a
170.3255	0.195	340651	keystroke	e	n/a
170.4755	0.195	340951	keystroke	s	n/a
170.6405	0.1505	341281	keystroke	e	n/a
170.7755	0.1045	341551	keystroke	Key.space	n/a
170.97	0.12	341940	keystroke	j	n/a
171.1805	0.075	342361	keystroke	a	n/a
171.3305	0.1495	342661	keystroke	n	n/a
171.495	0.12	342990	keystroke	e	n/a
171.6755	0.12	343351	keystroke	t	n/a
171.8405	0.12	343681	keystroke	Key.space	n/a
171.9455	0.15	343891	keystroke	a	n/a
172.2	0.105	344400	keystroke	c	n/a
172.5	0.135	345000	keystroke	r	n/a
172.65	0.12	345300	keystroke	o	n/a
172.801	0.119	345602	keystroke	s	n/a
172.995	0.1205	345990	keystroke	s	n/a
173.3405	0.1195	346681	keystroke	Key.space	n/a
173.626	0.18	347252	keystroke	l	n/a
173.761	0.165	347522	keystroke	o	n/a
173.941	0.165	347882	keystroke	w	n/a
174.061	0.21	348122	keystroke	e	n/a
174.196	0.15	348392	keystroke	r	n/a
174.391	0.105	348782	keystroke	Key.enter	n/a
174.4995	6.0575	348999	prompt	n/a	custody recovered jesse huge\n
175.1105	0.12	350221	keystroke	c	n/a
175.1855	0.12	350371	keystroke	u	n/a
175.3205	0.18	350641	keystroke	s	n/a
175.5455	0.12	351091	keystroke	t	n/a
175.6805	0.12	351361	keystroke	o	n/a
175.8905	0.12	351781	keystroke	d	n/a
176.1755	0.105	352351	keystroke	y	n/a
176.2955	0.165	352591	keystroke	Key.space	n/a
176.5055	0.12	353011	keystroke	r	n/a
176.6105	0.15	353221	keystroke	e	n/a
176.9255	0.1355	353851	keystroke	c	n/a
177.166	0.15	354332	keystroke	o	n/a
177.301	0.105	354602	keystroke	v	n/a
177.526	0.1795	355052	keystroke	e	n/a
177.6455	0.15	355291	keystroke	r	n/a
177.8405	0.09	355681	keystroke	e	n/a
178.0665	0.119	356133	keystroke	d	n/a
178.2005	0.135	356401	keystroke	Key.space	n/a
178.4105	0.135	356821	keystroke	j	n/a
178.5465	0.194	357093	keystroke	e	n/a
178.7555	0.075	357511	keystroke	s	n/a
178.9205	0.15	357841	keystroke	s	n/a
179.0255	0.105	358051	keystroke	e	n/a
179.1755	0.12	358351	keystroke	Key.space	n/a
179.6105	0.1205	359221	keystroke	h	n/a
179.806	0.089	359612	keystroke	u	n/a
179.955	0.105	359910	keystroke	g	n/a
180.24	0.075	360480	keystroke	e	n/a
180.4805	0.075	360961	keystroke	Key.enter	n/a
180.56	5.397	361120	prompt	n/a	debate authority such diagram\n
181.1705	0.075	362341	keystroke	d	n/a
181.3505	0.105	362701	keystroke	e	n/a
181.4705	0.135	362941	keystroke	b	n/a
181.5905	0.1355	363181	keystroke	a	n/a
181.801	0.12	363602	keystroke	t	n/a
181.906	0.1645	363812	keystroke	e	n/a
182.0855	0.105	364171	keystroke	Key.space	n/a
182.1905	0.105	364381	keystroke	a	n/a
182.2805	0.1505	364561	keystroke	u	n/a
182.445	0.105	364890	keystroke	t	n/a
182.535	0.12	365070	keystroke	h	n/a
182.715	0.135	365430	keystroke	o	n/a
182.835	0.105	365670	keystroke	r	n/a
182.955	0.1355	365910	keystroke	i	n/a
183.1055	0.105	366211	keystroke	t	n/a
183.3455	0.105	366691	keystroke	y	n/a
183.5555	0.135	367111	keystroke	Key.space	n/a
183.6755	0.15	367351	keystroke	s	n/a
183.7955	0.1205	367591	keystroke	u	n/a
184.0205	0.135	368041	keystroke	c	n/a
184.1405	0.1505	368281	keystroke	h	n/a
184.321	0.135	368642	keystroke	Key.space	n/a
184.515	0.121	369030	keystroke	d	n/a
184.621	0.165	369242	keystroke	i	n/a
184.77	0.136	369540	keystroke	a	n/a
185.07	0.12	370140	keystroke	g	n/a
185.31	0.195	370620	keystroke	r	n/a
185.521	0.074	371042	keystroke	a	n/a
185.55	0.135	371100	keystroke	m	n/a
185.866	0.089	371732	keystroke	Key.enter	n/a
185.961	6.1755	371922	prompt	n/a	darkness employed uganda happy\n
186.526	0.105	373052	keystroke	d	n/a
186.781	0.18	373562	keystroke	a	n/a
186.931	0.104	373862	keystroke	r	n/a
187.08	0.135	374160	keystroke	k	n/a
187.32	0.15	374640	keystroke	n	n/a
187.455	0.18	374910	keystroke	e	n/a
187.575	0.12	375150	keystroke	s	n/a
187.8	0.0905	375600	keystroke	s	n/a
188.0555	0.135	376111	keystroke	Key.space	n/a
188.2205	0.135	376441	keystroke	e	n/a
188.3855	0.15	376771	keystroke	m	n/a
188.5655	0.09	377131	keystroke	p	n/a
188.7755	0.15	377551	keystroke	l	n/a
188.9105	0.165	377821	keystroke	o	n/a
189.0155	0.09	378031	keystroke	y	n/a
189.2405	0.09	378481	keystroke	e	n/a
189.4655	0.105	378931	keystroke	d	n/a
189.5855	0.105	379171	keystroke	Key.space	n/a
189.7505	0.15	379501	keystroke	u	n/a
190.0655	0.09	380131	keystroke	g	n/a
190.3505	0.12	380701	keystroke	a	n/a
190.5755	0.165	381151	keystroke	n	n/a
190.7555	0.105	381511	keystroke	d	n/a
190.9805	0.12	381961	keystroke	a	n/a
191.1005	0.105	382201	keystroke	Key.space	n/a
191.2355	0.1195	382471	keystroke	h	n/a
191.37	0.135	382740	keystroke	a	n/a
191.49	0.09	382980	keystroke	p	n/a
191.685	0.105	383370	keystroke	p	n/a
191.82	0.075	383640	keystroke	y	n/a
192.06	0.075	384120	keystroke	Key.enter	n/a
192.14	6.0265	384280	prompt	n/a	nest libs observer brunette\n
192.826	0.134	385652	keystroke	n	n/a
192.901	0.2095	385802	keystroke	e	n/a
193.051	0.1945	386102	keystroke	s	n/a
193.2005	0.1495	386401	keystroke	t	n/a
193.3055	0.1195	386611	keystroke	Key.space	n/a
193.4555	0.2095	386911	keystroke	l	n/a
193.62	0.12	387240	keystroke	i	n/a
193.8305	0.195	387661	keystroke	b	n/a
194.1155	0.105	388231	keystroke	s	n/a
194.2955	0.12	388591	keystroke	Key.space	n/a
194.4905	0.135	388981	keystroke	o	n/a
194.7155	0.0755	389431	keystroke	b	n/a
194.9105	0.12	389821	keystroke	s	n/a
195.1505	0.195	390301	keystroke	e	n/a
195.286	0.09	390572	keystroke	r	n/a
195.556	0.105	391112	keystroke	v	n/a
195.766	0.18	391532	keystroke	e	n/a
195.871	0.18	391742	keystroke	r	n/a
196.036	0.12	392072	keystroke	Key.space	n/a
196.23	0.1355	392460	keystroke	b	n/a
196.3805	0.15	392761	keystroke	r	n/a
196.6955	0.1045	393391	keystroke	u	n/a
196.89	0.165	393780	keystroke	n	n/a
197.34	0.18	394680	keystroke	e	n/a
197.521	0.06	395042	keystroke	t	n/a
197.671	0.105	395342	keystroke	t	n/a
197.851	0.105	395702	keystroke	e	n/a
198.075	0.09	396150	keystroke	Key.enter	n/a
198.171	7.046	396342	prompt	n/a	review actors probability assessing\n
198.84	0.105	397680	keystroke	r	n/a
198.93	0.09	397860	keystroke	e	n/a
199.1855	0.105	398371	keystroke	v	n/a
199.2455	0.105	398491	keystroke	i	n/a
199.3955	0.21	398791	keystroke	e	n/a
199.5605	0.105	399121	keystroke	w	n/a
199.65	0.1655	399300	keystroke	Key.space	n/a
199.83	0.1055	399660	keystroke	a	n/a
200.0405	0.105	400081	keystroke	c	n/a
200.2805	0.12	400561	keystroke	t	n/a
200.6255	0.135	401251	keystroke	o	n/a
200.8055	0.105	401611	keystroke	r	n/a
201.0605	0.1505	402121	keystroke	s	n/a
201.196	0.12	402392	keystroke	Key.space	n/a
201.421	0.12	402842	keystroke	p	n/a
201.496	0.12	402992	keystroke	r	n/a
201.631	0.105	403262	keystroke	o	n/a
201.871	0.105	403742	keystroke	b	n/a
202.021	0.12	404042	keystroke	a	n/a
202.096	0.06	404192	keystroke	b	n/a
202.531	0.12	405062	keystroke	i	n/a
202.666	0.179	405332	keystroke	l	n/a
202.771	0.149	405542	keystroke	i	n/a
202.875	0.106	405750	keystroke	t	n/a
203.0855	0.105	406171	keystroke	y	n/a
203.2355	0.135	406471	keystroke	Key.space	n/a
203.4005	0.1205	406801	keystroke	a	n/a
203.7305	0.12	407461	keystroke	s	n/a
203.9105	0.135	407821	keystroke	s	n/a
204.1205	0.1355	408241	keystroke	e	n/a
204.286	0.1045	408572	keystroke	s	n/a
204.511	0.0745	409022	keystroke	s	n/a
204.5705	0.165	409141	keystroke	i	n/a
204.7205	0.135	409441	keystroke	n	n/a
204.8405	0.12	409681	keystroke	g	n/a
205.1105	0.105	410221	keystroke	Key.enter	n/a
205.2195	5.9975	410439	prompt	n/a	wiley equally daniel method\n
205.8455	0.12	411691	keystroke	w	n/a
206.0255	0.09	412051	keystroke	i	n/a
206.1905	0.1345	412381	keystroke	l	n/a
206.31	0.091	412620	keystroke	e	n/a
206.52	0.105	413040	keystroke	y	n/a
206.655	0.121	413310	keystroke	Key.space	n/a
206.821	0.075	413642	keystroke	e	n/a
207.075	0.061	414150	keystroke	q	n/a
207.18	0.105	414360	keystroke	u	n/a
207.301	0.15	414602	keystroke	a	n/a
207.466	0.105	414932	keystroke	l	n/a
207.645	0.1205	415290	keystroke	l	n/a
207.8405	0.105	415681	keystroke	y	n/a
208.0055	0.12	416011	keystroke	Key.space	n/a
208.1555	0.1195	416311	keystroke	d	n/a
208.35	0.165	416700	keystroke	a	n/a
208.47	0.105	416940	keystroke	n	n/a
208.635	0.135	417270	keystroke	i	n/a
208.8	0.1505	417600	keystroke	e	n/a
208.92	0.196	417840	keystroke	l	n/a
209.101	0.135	418202	keystroke	Key.space	n/a
209.221	0.105	418442	keystroke	e	n/a
209.64	0.075	419280	keystroke	Key.backspace	n/a
209.911	0.134	419822	keystroke	m	n/a
210.06	0.06	420120	keystroke	e	n/a
210.225	0.135	420450	keystroke	t	n/a
210.301	0.119	420602	keystroke	h	n/a
210.645	0.12	421290	keystroke	o	n/a
210.885	0.15	421770	keystroke	d	n/a
211.14	0.075	422280	keystroke	Key.enter	n/a
211.22	5.7875	422440	prompt	n/a	active rounds honda powerseller\n
211.815	0.09	423630	keystroke	a	n/a
212.04	0.12	424080	keystroke	c	n/a
212.31	0.075	424620	keystroke	t	n/a
212.4	0.105	424800	keystroke	i	n/a
212.595	0.09	425190	keystroke	v	n/a
212.775	0.105	425550	keystroke	e	n/a
212.865	0.12	425730	keystroke	Key.space	n/a
213.045	0.1205	426090	keystroke	r	n/a
213.1355	0.15	426271	keystroke	o	n/a
213.3005	0.135	426601	keystroke	u	n/a
213.3605	0.18	426721	keystroke	n	n/a
213.4805	0.21	426961	keystroke	d	n/a
213.6755	0.135	427351	keystroke	s	n/a
213.8555	0.105	427711	keystroke	Key.space	n/a
214.0505	0.15	428101	keystroke	h	n/a
214.2155	0.18	428431	keystroke	o	n/a
214.3505	0.165	428701	keystroke	n	n/a
214.5005	0.105	429001	keystroke	d	n/a
214.7255	0.135	429451	keystroke	a	n/a
214.8305	0.105	429661	keystroke	Key.space	n/a
215.0405	0.1345	430081	keystroke	p	n/a
215.236	0.194	430472	keystroke	o	n/a
215.385	0.24	430770	keystroke	w	n/a
215.4905	0.2395	430981	keystroke	e	n/a
215.655	0.15	431310	keystroke	r	n/a
215.955	0.241	431910	keystroke	s	n/a
216.1355	0.1055	432271	keystroke	e	n/a
216.286	0.105	432572	keystroke	l	n/a
216.466	0.12	432932	keystroke	l	n/a
216.571	0.195	433142	keystroke	e	n/a
216.691	0.165	433382	keystroke	r	n/a
216.916	0.09	433832	keystroke	Key.enter	n/a
217.0105	9.0115	434021	prompt	n/a	substitute malpractice essay density\n
217.576	0.135	435152	keystroke	s	n/a
217.696	0.105	435392	keystroke	u	n/a
217.861	0.15	435722	keystroke	b	n/a
218.071	0.135	436142	keystroke	s	n/a
218.446	0.0895	436892	keystroke	t	n/a
218.5055	0.135	437011	keystroke	i	n/a
218.6855	0.105	437371	keystroke	t	n/a
218.8355	0.105	437671	keystroke	u	n/a
219.0005	0.09	438001	keystroke	t	n/a
219.2255	0.105	438451	keystroke	e	n/a
219.4205	0.12	438841	keystroke	Key.space	n/a
219.7505	0.135	439501	keystroke	m	n/a
219.8855	0.135	439771	keystroke	a	n/a
220.0955	0.135	440191	keystroke	l	n/a
220.3955	0.15	440791	keystroke	p	n/a
220.6505	0.1045	441301	keystroke	r	n/a
222.1355	0.105	444271	keystroke	a	n/a
222.3605	0.105	444721	keystroke	c	n/a
222.6005	0.105	445201	keystroke	t	n/a
222.7355	0.12	445471	keystroke	i	n/a
223.0205	0.1355	446041	keystroke	c	n/a
223.186	0.135	446372	keystroke	e	n/a
223.35	0.151	446700	keystroke	Key.space	n/a
223.546	0.135	447092	keystroke	e	n/a
223.741	0.105	447482	keystroke	s	n/a
223.92	0.0755	447840	keystroke	s	n/a
224.1005	0.09	448201	keystroke	a	n/a
224.2955	0.105	448591	keystroke	y	n/a
224.4455	0.15	448891	keystroke	Key.space	n/a
224.5805	0.105	449161	keystroke	d	n/a
224.7905	0.09	449581	keystroke	e	n/a
224.9555	0.1355	449911	keystroke	n	n/a
225.151	0.135	450302	keystroke	s	n/a
225.301	0.135	450602	keystroke	i	n/a
225.42	0.121	450840	keystroke	t	n/a
225.6605	0.105	451321	keystroke	y	n/a
225.9305	0.09	451861	keystroke	Key.enter	n/a
226.025	4.842	452050	prompt	n/a	we'd returns live likewise\n
226.695	0.15	453390	keystroke	w	n/a
226.8	0.15	453600	keystroke	e	n/a
226.995	0.1505	453990	keystroke	'	n/a
227.2205	0.1355	454441	keystroke	d	n/a
227.401	0.1345	454802	keystroke	Key.space	n/a
227.5655	0.1205	455131	keystroke	r	n/a
227.641	0.1345	455282	keystroke	e	n/a
227.8655	0.105	455731	keystroke	t	n/a
227.9555	0.09	455911	keystroke	u	n/a
228.0755	0.135	456151	keystroke	r	n/a
228.1955	0.165	456391	keystroke	n	n/a
228.3305	0.165	456661	keystroke	s	n/a
228.4805	0.135	456961	keystroke	Key.space	n/a
228.6605	0.1955	457321	keystroke	l	n/a
228.931	0.1645	457862	keystroke	i	n/a
229.1105	0.0745	458221	keystroke	v	n/a
229.246	0.104	458492	keystroke	e	n/a
229.365	0.1055	458730	keystroke	Key.space	n/a
229.5005	0.1955	459001	keystroke	l	n/a
229.6205	0.105	459241	keystroke	i	n/a
229.8455	0.135	459691	keystroke	k	n/a
229.9205	0.075	459841	keystroke	e	n/a
230.1155	0.105	460231	keystroke	w	n/a
230.3105	0.1205	460621	keystroke	i	n/a
230.431	0.2095	460862	keystroke	s	n/a
230.5955	0.135	461191	keystroke	e	n/a
230.791	0.075	461582	keystroke	Key.enter	n/a
230.8695	6.6875	461739	prompt	n/a	adult ethiopia welcome sword\n
231.45	0.18	462900	keystroke	a	n/a
231.81	0.135	463620	keystroke	d	n/a
231.96	0.09	463920	keystroke	u	n/a
232.2	0.135	464400	keystroke	l	n/a
232.305	0.12	464610	keystroke	t	n/a
232.44	0.15	464880	keystroke	Key.space	n/a
232.605	0.12	465210	keystroke	e	n/a
232.89	0.12	465780	keystroke	t	n/a
233.025	0.105	466050	keystroke	h	n/a
233.235	0.105	466470	keystroke	i	n/a
233.505	0.135	467010	keystroke	o	n/a
233.76	0.09	467520	keystroke	p	n/a
234.03	0.09	468060	keystroke	i	n/a
234.225	0.12	468450	keystroke	a	n/a
234.405	0.151	468810	keystroke	Key.space	n/a
234.736	0.1645	469472	keystroke	w	n/a
234.8855	0.105	469771	keystroke	e	n/a
235.2005	0.105	470401	keystroke	l	n/a
235.5455	0.12	471091	keystroke	c	n/a
235.6505	0.15	471301	keystroke	o	n/a
235.7555	0.18	471511	keystroke	m	n/a
235.8605	0.09	471721	keystroke	e	n/a
235.9655	0.15	471931	keystroke	Key.space	n/a
236.1005	0.09	472201	keystroke	w	n/a
236.476	0.075	472952	keystroke	Key.backspace	n/a
236.536	0.09	473072	keystroke	s	n/a
236.746	0.09	473492	keystroke	w	n/a
236.851	0.105	473702	keystroke	o	n/a
237.001	0.12	474002	keystroke	r	n/a
237.241	0.15	474482	keystroke	d	n/a
237.51	0.045	475020	keystroke	Key.enter	n/a
237.56	6.567	475120	prompt	n/a	durable introduced mention march\n
238.246	0.134	476492	keystroke	d	n/a
238.351	0.105	476702	keystroke	u	n/a
238.531	0.12	477062	keystroke	r	n/a
238.756	0.12	477512	keystroke	a	n/a
238.816	0.09	477632	keystroke	b	n/a
239.0405	0.12	478081	keystroke	l	n/a
239.1305	0.15	478261	keystroke	e	n/a
239.4605	0.12	478921	keystroke	Key.space	n/a
239.7305	0.12	479461	keystroke	i	n/a
239.8805	0.15	479761	keystroke	n	n/a
240.0155	0.075	480031	keystroke	t	n/a
240.1955	0.1205	480391	keystroke	r	n/a
240.3005	0.12	480601	keystroke	o	n/a
240.4355	0.135	480871	keystroke	d	n/a
240.5555	0.15	481111	keystroke	u	n/a
240.6755	0.15	481351	keystroke	c	n/a
240.9605	0.09	481921	keystroke	t	n/a
241.3805	0.09	482761	keystroke	Key.backspace	n/a
241.4855	0.09	482971	keystroke	e	n/a
241.71	0.106	483420	keystroke	d	n/a
241.861	0.12	483722	keystroke	Key.space	n/a
242.116	0.12	484232	keystroke	m	n/a
242.251	0.12	484502	keystroke	e	n/a
242.356	0.12	484712	keystroke	n	n/a
242.491	0.135	484982	keystroke	t	n/a
242.626	0.165	485252	keystroke	i	n/a
242.746	0.18	485492	keystroke	o	n/a
242.836	0.15	485672	keystroke	n	n/a
242.956	0.209	485912	keystroke	Key.space	n/a
243.135	0.18	486270	keystroke	m	n/a
243.285	0.165	486570	keystroke	a	n/a
243.405	0.09	486810	keystroke	r	n/a
243.69	0.136	487380	keystroke	c	n/a
243.765	0.106	487530	keystroke	h	n/a
244.0655	0.06	488131	keystroke	Key.enter	n/a
244.13	6.732	488260	prompt	n/a	rooms shipment saver pittsburgh\n
244.695	0.135	489390	keystroke	r	n/a
244.815	0.09	489630	keystroke	o	n/a
244.98	0.15	489960	keystroke	o	n/a
245.07	0.18	490140	keystroke	m	n/a
245.235	0.135	490470	keystroke	s	n/a
245.415	0.135	490830	keystroke	Key.space	n/a
246.2855	0.12	492571	keystroke	s	n/a
246.3905	0.135	492781	keystroke	h	n/a
246.5105	0.105	493021	keystroke	i	n/a
246.7355	0.105	493471	keystroke	p	n/a
246.991	0.1345	493982	keystroke	m	n/a
247.1105	0.12	494221	keystroke	e	n/a
247.2155	0.18	494431	keystroke	n	n/a
247.3505	0.105	494701	keystroke	t	n/a
247.4405	0.135	494881	keystroke	Key.space	n/a
247.6055	0.075	495211	keystroke	s	n/a
247.7705	0.105	495541	keystroke	a	n/a
247.9955	0.105	495991	keystroke	v	n/a
248.1455	0.2245	496291	keystroke	e	n/a
248.2955	0.1655	496591	keystroke	r	n/a
248.461	0.089	496922	keystroke	Key.space	n/a
248.565	0.12	497130	keystroke	p	n/a
248.76	0.12	497520	keystroke	i	n/a
248.895	0.075	497790	keystroke	t	n/a
249.0455	0.0895	498091	keystroke	t	n/a
249.285	0.135	498570	keystroke	s	n/a
249.54	0.105	499080	keystroke	b	n/a
249.69	0.135	499380	keystroke	u	n/a
249.78	0.12	499560	keystroke	r	n/a
250.095	0.09	500190	keystroke	g	n/a
250.44	0.12	500880	keystroke	h	n/a
250.785	0.075	501570	keystroke	Key.enter	n/a
250.8645	5.5775	501729	prompt	n/a	seemed exit chocolate tolerance\n
251.386	0.12	502772	keystroke	s	n/a
251.551	0.089	503102	keystroke	e	n/a
251.821	0.0895	503642	keystroke	e	n/a
251.9555	0.12	503911	keystroke	m	n/a
252.1055	0.09	504211	keystroke	e	n/a
252.3305	0.12	504661	keystroke	d	n/a
252.4655	0.135	504931	keystroke	Key.space	n/a
252.6155	0.06	505231	keystroke	e	n/a
252.8255	0.12	505651	keystroke	x	n/a
252.9305	0.12	505861	keystroke	i	n/a
253.17	0.12	506340	keystroke	t	n/a
253.38	0.12	506760	keystroke	Key.space	n/a
253.59	0.135	507180	keystroke	c	n/a
253.68	0.12	507360	keystroke	h	n/a
253.815	0.09	507630	keystroke	o	n/a
253.935	0.136	507870	keystroke	c	n/a
254.056	0.075	508112	keystroke	o	n/a
254.266	0.105	508532	keystroke	l	n/a
254.326	0.105	508652	keystroke	a	n/a
254.551	0.105	509102	keystroke	t	n/a
254.701	0.12	509402	keystroke	e	n/a
254.836	0.12	509672	keystroke	Key.space	n/a
254.971	0.135	509942	keystroke	t	n/a
255.1065	0.059	510213	keystroke	o	n/a
255.285	0.136	510570	keystroke	l	n/a
255.39	0.165	510780	keystroke	e	n/a
255.51	0.135	511020	keystroke	r	n/a
255.735	0.105	511470	keystroke	a	n/a
255.826	0.12	511652	keystroke	n	n/a
255.975	0.151	511950	keystroke	c	n/a
256.17	0.09	512340	keystroke	e	n/a
256.35	0.09	512700	keystroke	Key.enter	n/a
256.445	6.777	512890	prompt	n/a	efficiently internal profits peaceful\n
256.9505	0.105	513901	keystroke	e	n/a
257.1605	0.09	514321	keystroke	f	n/a
257.3255	0.105	514651	keystroke	f	n/a
257.4455	0.09	514891	keystroke	i	n/a
257.6555	0.09	515311	keystroke	c	n/a
257.7005	0.105	515401	keystroke	i	n/a
257.8505	0.09	515701	keystroke	e	n/a
257.9705	0.1055	515941	keystroke	n	n/a
258.09	0.09	516180	keystroke	t	n/a
258.2255	0.15	516451	keystroke	l	n/a
258.3455	0.12	516691	keystroke	y	n/a
258.4805	0.165	516961	keystroke	Key.space	n/a
258.6605	0.15	517321	keystroke	i	n/a
258.7505	0.225	517501	keystroke	n	n/a
258.9005	0.09	517801	keystroke	t	n/a
259.0955	0.1505	518191	keystroke	e	n/a
259.201	0.135	518402	keystroke	r	n/a
259.351	0.12	518702	keystroke	n	n/a
259.456	0.165	518912	keystroke	a	n/a
259.636	0.135	519272	keystroke	l	n/a
259.786	0.15	519572	keystroke	Key.space	n/a
260.026	0.1045	520052	keystroke	p	n/a
260.1905	0.105	520381	keystroke	r	n/a
260.2805	0.12	520561	keystroke	o	n/a
260.4155	0.12	520831	keystroke	f	n/a
260.7905	0.135	521581	keystroke	i	n/a
260.8955	0.105	521791	keystroke	t	n/a
261.105	0.166	522210	keystroke	s	n/a
261.286	0.09	522572	keystroke	Key.space	n/a
261.466	0.135	522932	keystroke	p	n/a
261.616	0.104	523232	keystroke	e	n/a
261.825	0.135	523650	keystroke	a	n/a
262.05	0.1505	524100	keystroke	c	n/a
262.3055	0.075	524611	keystroke	e	n/a
262.5155	0.1345	525031	keystroke	f	n/a
262.6205	0.0895	525241	keystroke	u	n/a
262.83	0.135	525660	keystroke	l	n/a
263.1305	0.09	526261	keystroke	Key.enter	n/a
263.226	8.651	526452	prompt	n/a	validity horizontal denial ericsson\n
263.881	0.104	527762	keystroke	v	n/a
264.09	0.15	528180	keystroke	a	n/a
264.33	0.211	528660	keystroke	l	n/a
264.48	0.15	528960	keystroke	i	n/a
264.66	0.136	529320	keystroke	d	n/a
265.4405	0.12	530881	keystroke	i	n/a
265.5455	0.09	531091	keystroke	t	n/a
265.7555	0.105	531511	keystroke	y	n/a
265.9055	0.15	531811	keystroke	Key.space	n/a
266.0855	0.1795	532171	keystroke	h	n/a
266.31	0.121	532620	keystroke	o	n/a
266.596	0.104	533192	keystroke	r	n/a
267.18	0.105	534360	keystroke	i	n/a
267.36	0.15	534720	keystroke	z	n/a
267.676	0.12	535352	keystroke	o	n/a
267.811	0.15	535622	keystroke	n	n/a
267.916	0.105	535832	keystroke	t	n/a
268.171	0.165	536342	keystroke	a	n/a
268.291	0.18	536582	keystroke	l	n/a
268.426	0.15	536852	keystroke	Key.space	n/a
268.531	0.105	537062	keystroke	d	n/a
268.741	0.12	537482	keystroke	e	n/a
268.846	0.105	537692	keystroke	n	n/a
269.041	0.1195	538082	keystroke	i	n/a
269.1755	0.135	538351	keystroke	a	n/a
269.3555	0.18	538711	keystroke	l	n/a
269.5205	0.15	539041	keystroke	Key.space	n/a
269.6855	0.1055	539371	keystroke	e	n/a
269.896	0.12	539792	keystroke	r	n/a
270.1655	0.105	540331	keystroke	i	n/a
270.466	0.12	540932	keystroke	c	n/a
270.8255	0.12	541651	keystroke	s	n/a
271.185	0.12	542370	keystroke	s	n/a
271.3205	0.15	542641	keystroke	o	n/a
271.4105	0.135	542821	keystroke	n	n/a
271.786	0.09	543572	keystroke	Key.enter	n/a
271.8795	6.7775	543759	prompt	n/a	pros acrylic powerseller vista\n
272.5205	0.105	545041	keystroke	p	n/a
272.6105	0.09	545221	keystroke	r	n/a
272.7155	0.15	545431	keystroke	o	n/a
272.8655	0.135	545731	keystroke	s	n/a
273.0455	0.135	546091	keystroke	Key.space	n/a
273.2405	0.15	546481	keystroke	a	n/a
273.5255	0.12	547051	keystroke	c	n/a
273.9905	0.03	547981	keystroke	Key.backspace	n/a
274.5605	0.105	549121	keystroke	c	n/a
274.8155	0.075	549631	keystroke	r	n/a
275.0405	0.0905	550081	keystroke	y	n/a
275.34	0.18	550680	keystroke	l	n/a
275.476	0.164	550952	keystroke	i	n/a
275.626	0.134	551252	keystroke	c	n/a
275.7455	0.1195	551491	keystroke	Key.space	n/a
276.03	0.1955	552060	keystroke	p	n/a
276.2705	0.135	552541	keystroke	o	n/a
276.3455	0.165	552691	keystroke	w	n/a
276.3605	0.225	552721	keystroke	e	n/a
276.5255	0.135	553051	keystroke	r	n/a
276.7505	0.2245	553501	keystroke	s	n/a
276.9155	0.1645	553831	keystroke	e	n/a
277.0355	0.1045	554071	keystroke	l	n/a
277.23	0.135	554460	keystroke	l	n/a
277.305	0.195	554610	keystroke	e	n/a
277.47	0.105	554940	keystroke	r	n/a
277.605	0.0905	555210	keystroke	Key.space	n/a
277.7255	0.105	555451	keystroke	v	n/a
277.8155	0.165	555631	keystroke	i	n/a
277.9655	0.105	555931	keystroke	s	n/a
278.1155	0.105	556231	keystroke	t	n/a
278.2805	0.18	556561	keystroke	a	n/a
278.5655	0.09	557131	keystroke	Key.enter	n/a
278.661	7.586	557322	prompt	n/a	reunion boulder identifies choosing\n
279.285	0.135	558570	keystroke	r	n/a
279.421	0.1795	558842	keystroke	e	n/a
279.5855	0.0895	559171	keystroke	u	n/a
279.72	0.1955	559440	keystroke	n	n/a
279.9005	0.195	559801	keystroke	i	n/a
280.0505	0.165	560101	keystroke	o	n/a
280.1555	0.24	560311	keystroke	n	n/a
280.3965	0.149	560793	keystroke	Key.space	n/a
280.6355	0.165	561271	keystroke	h	n/a
280.8455	0.15	561691	keystroke	o	n/a
281.0105	0.1355	562021	keystroke	u	n/a
281.5805	0.03	563161	keystroke	Key.backspace	n/a
281.7905	0.015	563581	keystroke	Key.backspace	n/a
281.8805	0.075	563761	keystroke	Key.backspace	n/a
282.1655	0.105	564331	keystroke	b	n/a
282.3905	0.09	564781	keystroke	o	n/a
282.4355	0.09	564871	keystroke	u	n/a
282.6605	0.12	565321	keystroke	l	n/a
282.7205	0.1055	565441	keystroke	d	n/a
282.946	0.165	565892	keystroke	e	n/a
283.081	0.1345	566162	keystroke	r	n/a
283.2005	0.1795	566401	keystroke	Key.space	n/a
283.3655	0.1345	566731	keystroke	i	n/a
283.5455	0.1195	567091	keystroke	d	n/a
283.785	0.1055	567570	keystroke	e	n/a
283.875	0.1055	567750	keystroke	n	n/a
284.0105	0.12	568021	keystroke	t	n/a
284.1455	0.09	568291	keystroke	i	n/a
284.3255	0.105	568651	keystroke	i	n/a
284.3705	0.15	568741	keystroke	f	n/a
284.5655	0.18	569131	keystroke	e	n/a
284.7005	0.1355	569401	keystroke	s	n/a
284.866	0.105	569732	keystroke	Key.space	n/a
285.001	0.1495	570002	keystroke	c	n/a
285.1355	0.045	570271	keystroke	h	n/a
285.1655	0.1355	570331	keystroke	o	n/a
285.391	0.12	570782	keystroke	o	n/a
285.526	0.12	571052	keystroke	s	n/a
285.631	0.1345	571262	keystroke	i	n/a
285.721	0.165	571442	keystroke	n	n/a
285.871	0.105	571742	keystroke	g	n/a
286.1405	0.105	572281	keystroke	Key.enter	n/a
286.25	5.292	572500	prompt	n/a	three that's suffering diamond\n
286.966	0.105	573932	keystroke	t	n/a
287.056	0.1045	574112	keystroke	h	n/a
287.2055	0.165	574411	keystroke	r	n/a
287.3255	0.105	574651	keystroke	e	n/a
287.521	0.12	575042	keystroke	e	n/a
287.671	0.12	575342	keystroke	Key.space	n/a
287.761	0.1195	575522	keystroke	t	n/a
287.8955	0.1195	575791	keystroke	h	n/a
287.986	0.179	575972	keystroke	a	n/a
288.18	0.091	576360	keystroke	t	n/a
288.286	0.134	576572	keystroke	'	n/a
288.45	0.1655	576900	keystroke	s	n/a
288.6	0.1205	577200	keystroke	Key.space	n/a
288.7505	0.12	577501	keystroke	s	n/a
288.8555	0.12	577711	keystroke	u	n/a
288.9905	0.09	577981	keystroke	f	n/a
289.156	0.105	578312	keystroke	f	n/a
289.306	0.225	578612	keystroke	e	n/a
289.456	0.135	578912	keystroke	r	n/a
289.606	0.165	579212	keystroke	i	n/a
289.741	0.2095	579482	keystroke	n	n/a
289.8755	0.105	579751	keystroke	g	n/a
289.9955	0.12	579991	keystroke	Key.space	n/a
290.1305	0.105	580261	keystroke	d	n/a
290.2655	0.06	580531	keystroke	i	n/a
290.3555	0.135	580711	keystroke	a	n/a
290.7905	0.12	581581	keystroke	m	n/a
290.9255	0.18	581851	keystroke	o	n/a
291.0455	0.1205	582091	keystroke	n	n/a
291.1805	0.1505	582361	keystroke	d	n/a
291.451	0.09	582902	keystroke	Key.enter	n/a
291.545	7.2275	583090	prompt	n/a	boolean professionals shaft lands\n
292.171	0.105	584342	keystroke	b	n/a
292.366	0.09	584732	keystroke	o	n/a
292.546	0.09	585092	keystroke	o	n/a
292.771	0.075	585542	keystroke	l	n/a
292.8155	0.0755	585631	keystroke	e	n/a
292.996	0.135	585992	keystroke	a	n/a
293.086	0.12	586172	keystroke	n	n/a
293.221	0.15	586442	keystroke	Key.space	n/a
293.356	0.134	586712	keystroke	p	n/a
293.446	0.089	586892	keystroke	r	n/a
293.55	0.15	587100	keystroke	o	n/a
293.716	0.089	587432	keystroke	f	n/a
293.94	0.09	587880	keystroke	e	n/a
294.601	0.105	589202	keystroke	s	n/a
294.766	0.12	589532	keystroke	s	n/a
294.901	0.105	589802	keystroke	i	n/a
294.961	0.15	589922	keystroke	o	n/a
295.051	0.15	590102	keystroke	n	n/a
295.156	0.09	590312	keystroke	s	n/a
295.936	0.06	591872	keystroke	Key.backspace	n/a
296.011	0.135	592022	keystroke	a	n/a
296.221	0.15	592442	keystroke	l	n/a
296.386	0.15	592772	keystroke	s	n/a
296.551	0.15	593102	keystroke	Key.space	n/a
296.911	0.0295	593822	keystroke	s	n/a
296.926	0.1195	593852	keystroke	h	n/a
297.0605	0.1045	594121	keystroke	a	n/a
297.33	0.105	594660	keystroke	f	n/a
297.6155	0.105	595231	keystroke	t	n/a
297.7805	0.15	595561	keystroke	Key.space	n/a
298.0055	0.12	596011	keystroke	l	n/a
298.095	0.105	596190	keystroke	a	n/a
298.215	0.136	596430	keystroke	n	n/a
298.336	0.1495	596672	keystroke	d	n/a
298.4705	0.1505	596941	keystroke	s	n/a
298.666	0.105	597332	keystroke	Key.enter	n/a
298.7755	6.7915	597551	prompt	n/a	agreement than thumbzilla specially\n
299.3405	0.075	598681	keystroke	a	n/a
299.536	0.09	599072	keystroke	g	n/a
299.7905	0.1655	599581	keystroke	r	n/a
299.911	0.105	599822	keystroke	e	n/a
300.121	0.09	600242	keystroke	e	n/a
300.241	0.1795	600482	keystroke	m	n/a
300.3755	0.105	600751	keystroke	e	n/a
300.4955	0.165	600991	keystroke	n	n/a
300.6005	0.105	601201	keystroke	t	n/a
300.7205	0.135	601441	keystroke	Key.space	n/a
300.8255	0.12	601651	keystroke	t	n/a
300.9305	0.105	601861	keystroke	h	n/a
301.1105	0.12	602221	keystroke	a	n/a
301.1855	0.12	602371	keystroke	n	n/a
301.3355	0.12	602671	keystroke	Key.space	n/a
301.4705	0.12	602941	keystroke	t	n/a
301.6055	0.1195	603211	keystroke	h	n/a
301.95	0.09	603900	keystroke	u	n/a
302.205	0.09	604410	keystroke	m	n/a
302.4	0.12	604800	keystroke	b	n/a
302.79	0.166	605580	keystroke	z	n/a
302.941	0.1045	605882	keystroke	i	n/a
303.1205	0.135	606241	keystroke	l	n/a
303.2855	0.15	606571	keystroke	l	n/a
303.5555	0.12	607111	keystroke	a	n/a
303.9005	0.12	607801	keystroke	Key.space	n/a
304.1105	0.12	608221	keystroke	s	n/a
304.2455	0.105	608491	keystroke	p	n/a
304.3805	0.0895	608761	keystroke	e	n/a
304.6055	0.12	609211	keystroke	c	n/a
304.6955	0.075	609391	keystroke	i	n/a
304.8155	0.15	609631	keystroke	a	n/a
304.9505	0.1055	609901	keystroke	l	n/a
305.1455	0.105	610291	keystroke	l	n/a
305.2355	0.105	610471	keystroke	y	n/a
305.4905	0.075	610981	keystroke	Key.enter	n/a
305.569	6.838	611138	prompt	n/a	maps impose systematic distance\n
306.3905	0.135	612781	keystroke	m	n/a
306.4205	0.09	612841	keystroke	a	n/a
306.9155	0.075	613831	keystroke	Key.backspace	n/a
307.3805	0.12	614761	keystroke	a	n/a
307.5455	0.12	615091	keystroke	p	n/a
307.7555	0.12	615511	keystroke	s	n/a
307.9205	0.105	615841	keystroke	Key.space	n/a
308.0855	0.15	616171	keystroke	i	n/a
308.2205	0.18	616441	keystroke	m	n/a
308.4155	0.15	616831	keystroke	p	n/a
308.5955	0.165	617191	keystroke	o	n/a
308.7155	0.24	617431	keystroke	s	n/a
308.9105	0.12	617821	keystroke	e	n/a
309.06	0.135	618120	keystroke	Key.space	n/a
309.18	0.105	618360	keystroke	s	n/a
309.376	0.119	618752	keystroke	y	n/a
309.54	0.195	619080	keystroke	s	n/a
309.751	0.1045	619502	keystroke	t	n/a
309.8705	0.12	619741	keystroke	e	n/a
310.0355	0.135	620071	keystroke	m	n/a
310.1555	0.12	620311	keystroke	a	n/a
310.3655	0.105	620731	keystroke	t	n/a
310.4555	0.15	620911	keystroke	i	n/a
310.6505	0.12	621301	keystroke	c	n/a
310.8005	0.105	621601	keystroke	Key.space	n/a
310.8905	0.135	621781	keystroke	d	n/a
311.0405	0.135	622081	keystroke	i	n/a
311.1605	0.0905	622321	keystroke	s	n/a
311.356	0.105	622712	keystroke	t	n/a
311.551	0.135	623102	keystroke	a	n/a
311.656	0.1345	623312	keystroke	n	n/a
311.9555	0.1505	623911	keystroke	c	n/a
312.1205	0.1205	624241	keystroke	e	n/a
312.316	0.0895	624632	keystroke	Key.enter	n/a
312.4095	7.7975	624819	prompt	n/a	implementation princess highland bucks\n
313.035	0.1055	626070	keystroke	i	n/a
313.1855	0.1955	626371	keystroke	m	n/a
313.396	0.09	626792	keystroke	p	n/a
313.621	0.105	627242	keystroke	l	n/a
313.726	0.12	627452	keystroke	e	n/a
313.906	0.135	627812	keystroke	m	n/a
314.011	0.12	628022	keystroke	e	n/a
314.146	0.135	628292	keystroke	n	n/a
314.296	0.09	628592	keystroke	t	n/a
314.431	0.195	628862	keystroke	a	n/a
314.566	0.15	629132	keystroke	t	n/a
314.641	0.15	629282	keystroke	i	n/a
314.776	0.165	629552	keystroke	o	n/a
315.031	0.1795	630062	keystroke	n	n/a
315.375	0.105	630750	keystroke	Key.space	n/a
315.571	0.149	631142	keystroke	p	n/a
315.735	0.091	631470	keystroke	r	n/a
315.9	0.121	631800	keystroke	i	n/a
316.17	0.15	632340	keystroke	n	n/a
316.38	0.106	632760	keystroke	s	n/a
317.055	0.105	634110	keystroke	Key.backspace	n/a
317.19	0.15	634380	keystroke	c	n/a
317.355	0.15	634710	keystroke	e	n/a
317.52	0.09	635040	keystroke	s	n/a
317.715	0.12	635430	keystroke	s	n/a
317.805	0.105	635610	keystroke	Key.space	n/a
317.97	0.166	635940	keystroke	h	n/a
318.076	0.135	636152	keystroke	i	n/a
318.196	0.12	636392	keystroke	g	n/a
318.3005	0.1355	636601	keystroke	h	n/a
318.526	0.135	637052	keystroke	l	n/a
318.601	0.1345	637202	keystroke	a	n/a
318.751	0.18	637502	keystroke	n	n/a
318.856	0.1645	637712	keystroke	d	n/a
319.0055	0.1355	638011	keystroke	Key.space	n/a
319.171	0.15	638342	keystroke	b	n/a
319.351	0.15	638702	keystroke	u	n/a
319.666	0.12	639332	keystroke	c	n/a
319.756	0.135	639512	keystroke	k	n/a
319.861	0.194	639722	keystroke	s	n/a
320.116	0.089	640232	keystroke	Key.enter	n/a
320.21	8.487	640420	prompt	n/a	worked renewable kelkoo oklahoma\n
320.851	0.105	641702	keystroke	w	n/a
320.956	0.09	641912	keystroke	o	n/a
321.0605	0.12	642121	keystroke	r	n/a
321.1505	0.18	642301	keystroke	k	n/a
321.3155	0.075	642631	keystroke	e	n/a
321.5405	0.105	643081	keystroke	d	n/a
321.6605	0.09	643321	keystroke	Key.space	n/a
321.8255	0.15	643651	keystroke	r	n/a
321.9455	0.105	643891	keystroke	e	n/a
322.1105	0.165	644221	keystroke	n	n/a
322.2455	0.195	644491	keystroke	e	n/a
322.3955	0.12	644791	keystroke	w	n/a
322.6655	0.12	645331	keystroke	a	n/a
322.7255	0.09	645451	keystroke	b	n/a
322.9355	0.1805	645871	keystroke	l	n/a
323.0405	0.1205	646081	keystroke	e	n/a
323.176	0.135	646352	keystroke	Key.space	n/a
323.341	0.135	646682	keystroke	k	n/a
323.477	0.134	646954	keystroke	e	n/a
323.671	0.105	647342	keystroke	l	n/a
324.271	0.105	648542	keystroke	k	n/a
324.676	0.075	649352	keystroke	o	n/a
324.856	0.12	649712	keystroke	o	n/a
324.976	0.12	649952	keystroke	Key.space	n/a
325.156	0.12	650312	keystroke	o	n/a
325.471	0.135	650942	keystroke	k	n/a
325.831	0.105	651662	keystroke	a	n/a
326.2355	0.105	652471	keystroke	h	n/a
326.3855	0.165	652771	keystroke	a	n/a
327.6605	0.045	655321	keystroke	Key.backspace	n/a
327.9305	0.105	655861	keystroke	o	n/a
328.1705	0.15	656341	keystroke	m	n/a
328.3355	0.12	656671	keystroke	a	n/a
328.6505	0.045	657301	keystroke	Key.enter	n/a
328.6995	6.6875	657399	prompt	n/a	coupons phrase contamination slave\n
329.49	0.105	658980	keystroke	c	n/a
329.55	0.15	659100	keystroke	o	n/a
329.685	0.09	659370	keystroke	u	n/a
329.911	0.12	659822	keystroke	p	n/a
330.076	0.075	660152	keystroke	o	n/a
330.256	0.165	660512	keystroke	n	n/a
330.436	0.09	660872	keystroke	s	n/a
330.526	0.15	661052	keystroke	Key.space	n/a
330.826	0.105	661652	keystroke	p	n/a
331.021	0.1495	662042	keystroke	h	n/a
331.1405	0.105	662281	keystroke	r	n/a
331.2905	0.165	662581	keystroke	a	n/a
331.5605	0.165	663121	keystroke	s	n/a
331.6805	0.135	663361	keystroke	e	n/a
331.8455	0.09	663691	keystroke	Key.space	n/a
332.0255	0.135	664051	keystroke	c	n/a
332.1305	0.18	664261	keystroke	o	n/a
332.2655	0.135	664531	keystroke	n	n/a
332.3855	0.135	664771	keystroke	t	n/a
332.6405	0.135	665281	keystroke	a	n/a
332.8505	0.135	665701	keystroke	m	n/a
333.0905	0.12	666181	keystroke	i	n/a
333.1955	0.135	666391	keystroke	n	n/a
333.3315	0.089	666663	keystroke	a	n/a
333.5105	0.135	667021	keystroke	t	n/a
333.5855	0.18	667171	keystroke	i	n/a
333.6755	0.195	667351	keystroke	o	n/a
333.7805	0.165	667561	keystroke	n	n/a
333.9155	0.18	667831	keystroke	Key.space	n/a
334.0355	0.105	668071	keystroke	s	n/a
334.366	0.135	668732	keystroke	l	n/a
334.696	0.105	669392	keystroke	a	n/a
334.935	0.105	669870	keystroke	v	n/a
335.1	0.105	670200	keystroke	e	n/a
335.295	0.09	670590	keystroke	Key.enter	n/a
335.3915	7.2405	670783	prompt	n/a	cached protest topics alternative\n
336	0.135	672000	keystroke	c	n/a
336.225	0.12	672450	keystroke	a	n/a
336.84	0.12	673680	keystroke	c	n/a
336.975	0.136	673950	keystroke	h	n/a
337.1405	0.09	674281	keystroke	e	n/a
337.3655	0.09	674731	keystroke	d	n/a
337.4855	0.09	674971	keystroke	Key.space	n/a
337.6355	0.15	675271	keystroke	p	n/a
337.6955	0.15	675391	keystroke	r	n/a
337.8605	0.195	675721	keystroke	o	n/a
338.0705	0.12	676141	keystroke	t	n/a
338.2205	0.105	676441	keystroke	e	n/a
338.4905	0.18	676981	keystroke	s	n/a
338.6255	0.15	677251	keystroke	t	n/a
338.7905	0.105	677581	keystroke	Key.space	n/a
338.9105	0.12	677821	keystroke	t	n/a
339.0005	0.18	678001	keystroke	o	n/a
339.1505	0.135	678301	keystroke	p	n/a
339.3305	0.165	678661	keystroke	i	n/a
339.4805	0.12	678961	keystroke	c	n/a
339.6305	0.15	679261	keystroke	s	n/a
339.7955	0.12	679591	keystroke	Key.space	n/a
340.0505	0.03	680101	keystroke	a	n/a
340.0655	0.15	680131	keystroke	l	n/a
340.3505	0.105	680701	keystroke	t	n/a
340.8155	0.09	681631	keystroke	e	n/a
341.0405	0.105	682081	keystroke	r	n/a
341.1755	0.1505	682351	keystroke	n	n/a
341.296	0.12	682592	keystroke	a	n/a
341.491	0.105	682982	keystroke	t	n/a
341.566	0.135	683132	keystroke	i	n/a
342.016	0.135	684032	keystroke	v	n/a
342.256	0.12	684512	keystroke	e	n/a
342.5555	0.075	685111	keystroke	Key.enter	n/a
342.635	5.457	685270	prompt	n/a	canal important assume loaded\n
343.141	0.164	686282	keystroke	c	n/a
343.321	0.1345	686642	keystroke	a	n/a
343.4405	0.1345	686881	keystroke	n	n/a
343.59	0.12	687180	keystroke	a	n/a
343.755	0.166	687510	keystroke	l	n/a
343.966	0.135	687932	keystroke	Key.space	n/a
344.206	0.165	688412	keystroke	i	n/a
344.356	0.135	688712	keystroke	m	n/a
344.506	0.165	689012	keystroke	p	n/a
344.626	0.195	689252	keystroke	o	n/a
344.716	0.09	689432	keystroke	r	n/a
344.911	0.075	689822	keystroke	t	n/a
345.046	0.15	690092	keystroke	a	n/a
345.196	0.15	690392	keystroke	n	n/a
345.3	0.121	690600	keystroke	t	n/a
345.45	0.136	690900	keystroke	Key.space	n/a
345.57	0.12	691140	keystroke	a	n/a
345.796	0.075	691592	keystroke	s	n/a
345.975	0.091	691950	keystroke	s	n/a
346.096	0.105	692192	keystroke	u	n/a
346.38	0.106	692760	keystroke	m	n/a
346.455	0.091	692910	keystroke	e	n/a
346.785	0.15	693570	keystroke	Key.space	n/a
347.071	0.165	694142	keystroke	l	n/a
347.206	0.15	694412	keystroke	o	n/a
347.281	0.135	694562	keystroke	a	n/a
347.401	0.105	694802	keystroke	d	n/a
347.596	0.075	695192	keystroke	e	n/a
347.791	0.105	695582	keystroke	d	n/a
348.016	0.075	696032	keystroke	Key.enter	n/a
348.0945	6.1325	696189	prompt	n/a	desire accessing mardi molecules\n
348.631	0.105	697262	keystroke	d	n/a
348.856	0.09	697712	keystroke	e	n/a
349.0955	0.105	698191	keystroke	s	n/a
349.1405	0.135	698281	keystroke	i	n/a
349.366	0.1345	698732	keystroke	r	n/a
349.4405	0.135	698881	keystroke	e	n/a
349.6055	0.135	699211	keystroke	Key.space	n/a
349.7555	0.105	699511	keystroke	a	n/a
349.965	0.091	699930	keystroke	c	n/a
350.13	0.12	700260	keystroke	c	n/a
350.28	0.166	700560	keystroke	e	n/a
350.43	0.076	700860	keystroke	s	n/a
350.5655	0.12	701131	keystroke	s	n/a
350.7005	0.1355	701401	keystroke	i	n/a
350.805	0.21	701610	keystroke	n	n/a
350.956	0.1195	701912	keystroke	g	n/a
351.0905	0.12	702181	keystroke	Key.space	n/a
351.2405	0.225	702481	keystroke	m	n/a
351.3905	0.18	702781	keystroke	a	n/a
351.5405	0.09	703081	keystroke	r	n/a
351.7505	0.15	703501	keystroke	d	n/a
351.9155	0.21	703831	keystroke	i	n/a
352.0805	0.18	704161	keystroke	Key.space	n/a
352.3505	0.21	704701	keystroke	m	n/a
352.5155	0.135	705031	keystroke	o	n/a
352.8155	0.15	705631	keystroke	l	n/a
353.0255	0.105	706051	keystroke	e	n/a
353.3255	0.15	706651	keystroke	c	n/a
353.4155	0.12	706831	keystroke	u	n/a
353.641	0.15	707282	keystroke	l	n/a
353.731	0.209	707462	keystroke	e	n/a
353.866	0.164	707732	keystroke	s	n/a
354.15	0.075	708300	keystroke	Key.enter	n/a
354.2305	6.507	708461	prompt	n/a	italiano bicycle dell grown\n
354.9755	0.12	709951	keystroke	i	n/a
355.1255	0.105	710251	keystroke	t	n/a
355.381	0.15	710762	keystroke	a	n/a
355.456	0.18	710912	keystroke	l	n/a
355.606	0.09	711212	keystroke	i	n/a
355.7705	0.1205	711541	keystroke	a	n/a
355.8455	0.1355	711691	keystroke	n	n/a
356.041	0.1945	712082	keystroke	o	n/a
356.1905	0.12	712381	keystroke	Key.space	n/a
356.4155	0.09	712831	keystroke	b	n/a
356.6555	0.1205	713311	keystroke	i	n/a
356.8655	0.1205	713731	keystroke	c	n/a
357.166	0.105	714332	keystroke	t	n/a
357.931	0.09	715862	keystroke	Key.backspace	n/a
358.021	0.0895	716042	keystroke	y	n/a
358.3055	0.105	716611	keystroke	c	n/a
358.4105	0.165	716821	keystroke	l	n/a
358.5905	0.09	717181	keystroke	e	n/a
358.6805	0.15	717361	keystroke	Key.space	n/a
358.8155	0.105	717631	keystroke	d	n/a
359.0405	0.09	718081	keystroke	e	n/a
359.1755	0.06	718351	keystroke	l	n/a
359.3555	0.15	718711	keystroke	l	n/a
359.5205	0.12	719041	keystroke	Key.space	n/a
359.6415	0.104	719283	keystroke	g	n/a
359.9555	0.105	719911	keystroke	r	n/a
360.0755	0.105	720151	keystroke	o	n/a
360.1955	0.15	720391	keystroke	w	n/a
360.3155	0.165	720631	keystroke	n	n/a
360.6755	0.06	721351	keystroke	Key.enter	n/a
360.7415	7.2405	721483	prompt	n/a	opened theories mixture how'll\n
361.3355	0.195	722671	keystroke	o	n/a
361.5155	0.0905	723031	keystroke	p	n/a
361.651	0.075	723302	keystroke	e	n/a
361.756	0.18	723512	keystroke	n	n/a
361.996	0.075	723992	keystroke	e	n/a
362.205	0.09	724410	keystroke	d	n/a
362.31	0.151	724620	keystroke	Key.space	n/a
362.476	0.1195	724952	keystroke	t	n/a
362.5805	0.1355	725161	keystroke	h	n/a
362.761	0.1345	725522	keystroke	e	n/a
362.8805	0.1205	725761	keystroke	o	n/a
363.046	0.12	726092	keystroke	r	n/a
363.15	0.151	726300	keystroke	i	n/a
363.286	0.2095	726572	keystroke	e	n/a
363.4205	0.165	726841	keystroke	s	n/a
363.5855	0.1195	727171	keystroke	Key.space	n/a
363.75	0.1955	727500	keystroke	m	n/a
363.9305	0.105	727861	keystroke	i	n/a
364.0205	0.12	728041	keystroke	x	n/a
364.2905	0.105	728581	keystroke	t	n/a
364.3655	0.12	728731	keystroke	u	n/a
365.4155	0.12	730831	keystroke	r	n/a
365.5505	0.12	731101	keystroke	e	n/a
365.6855	0.12	731371	keystroke	Key.space	n/a
365.8355	0.18	731671	keystroke	h	n/a
365.9705	0.135	731941	keystroke	o	n/a
366.3005	0.12	732601	keystroke	w	n/a
366.6005	0.135	733201	keystroke	'	n/a
367.4405	0.09	734881	keystroke	l	n/a
367.6355	0.09	735271	keystroke	l	n/a
367.906	0.0745	735812	keystroke	Key.enter	n/a
367.985	6.597	735970	prompt	n/a	drawn agreements sand accordance\n
368.5655	0.105	737131	keystroke	d	n/a
368.8055	0.06	737611	keystroke	r	n/a
368.8805	0.21	737761	keystroke	a	n/a
369.0755	0.15	738151	keystroke	w	n/a
369.4055	0.135	738811	keystroke	n	n/a
369.5705	0.15	739141	keystroke	Key.space	n/a
369.7955	0.165	739591	keystroke	a	n/a
370.021	0.105	740042	keystroke	g	n/a
370.261	0.1345	740522	keystroke	r	n/a
370.3655	0.12	740731	keystroke	e	n/a
370.5605	0.105	741121	keystroke	e	n/a
370.6505	0.135	741301	keystroke	m	n/a
370.801	0.1045	741602	keystroke	e	n/a
370.8905	0.165	741781	keystroke	n	n/a
370.9805	0.12	741961	keystroke	t	n/a
371.1455	0.15	742291	keystroke	s	n/a
371.2805	0.15	742561	keystroke	Key.space	n/a
371.4315	0.074	742863	keystroke	a	n/a
371.8055	0.09	743611	keystroke	Key.backspace	n/a
371.8965	0.104	743793	keystroke	s	n/a
372.1055	0.12	744211	keystroke	a	n/a
372.2555	0.1055	744511	keystroke	n	n/a
372.376	0.15	744752	keystroke	d	n/a
372.511	0.15	745022	keystroke	Key.space	n/a
372.676	0.15	745352	keystroke	a	n/a
372.946	0.105	745892	keystroke	c	n/a
373.1405	0.135	746281	keystroke	c	n/a
373.2905	0.165	746581	keystroke	o	n/a
373.4255	0.12	746851	keystroke	r	n/a
373.6805	0.12	747361	keystroke	d	n/a
373.8755	0.1205	747751	keystroke	a	n/a
373.966	0.135	747932	keystroke	n	n/a
374.116	0.15	748232	keystroke	c	n/a
374.251	0.105	748502	keystroke	e	n/a
374.491	0.09	748982	keystroke	Key.enter	n/a
374.5845	5.4425	749169	prompt	n/a	budget allen contain inspector\n
375.361	0.075	750722	keystroke	b	n/a
375.541	0.135	751082	keystroke	u	n/a
375.631	0.12	751262	keystroke	d	n/a
375.8555	0.105	751711	keystroke	g	n/a
376.0055	0.18	752011	keystroke	e	n/a
376.1555	0.1205	752311	keystroke	t	n/a
376.321	0.12	752642	keystroke	Key.space	n/a
376.486	0.12	752972	keystroke	a	n/a
376.591	0.105	753182	keystroke	l	n/a
376.786	0.075	753572	keystroke	l	n/a
376.891	0.12	753782	keystroke	e	n/a
377.011	0.165	754022	keystroke	n	n/a
377.206	0.12	754412	keystroke	Key.space	n/a
377.311	0.15	754622	keystroke	c	n/a
377.416	0.15	754832	keystroke	o	n/a
377.536	0.15	755072	keystroke	n	n/a
377.656	0.12	755312	keystroke	t	n/a
377.836	0.15	755672	keystroke	a	n/a
377.956	0.135	755912	keystroke	i	n/a
378.046	0.18	756092	keystroke	n	n/a
378.211	0.15	756422	keystroke	Key.space	n/a
378.331	0.165	756662	keystroke	i	n/a
378.466	0.15	756932	keystroke	n	n/a
378.646	0.12	757292	keystroke	s	n/a
378.796	0.12	757592	keystroke	p	n/a
378.901	0.09	757802	keystroke	e	n/a
379.1555	0.106	758311	keystroke	c	n/a
379.3955	0.09	758791	keystroke	t	n/a
379.5005	0.135	759001	keystroke	o	n/a
379.6505	0.09	759301	keystroke	r	n/a
379.9505	0.075	759901	keystroke	Key.enter	n/a
380.03	6.1175	760060	prompt	n/a	dear husband removed sensitivity\n
380.5505	0.09	761101	keystroke	d	n/a
380.7455	0.09	761491	keystroke	e	n/a
380.9405	0.1955	761881	keystroke	a	n/a
381.0305	0.1505	762061	keystroke	r	n/a
381.196	0.1195	762392	keystroke	Key.space	n/a
381.3305	0.195	762661	keystroke	h	n/a
381.5105	0.12	763021	keystroke	u	n/a
381.6315	0.119	763263	keystroke	s	n/a
381.7805	0.12	763561	keystroke	b	n/a
381.9455	0.135	763891	keystroke	a	n/a
382.0505	0.135	764101	keystroke	n	n/a
382.2005	0.15	764401	keystroke	d	n/a
382.3515	0.149	764703	keystroke	Key.space	n/a
382.5755	0.12	765151	keystroke	r	n/a
382.6355	0.15	765271	keystroke	e	n/a
382.8005	0.165	765601	keystroke	m	n/a
382.9505	0.165	765901	keystroke	o	n/a
383.0105	0.12	766021	keystroke	v	n/a
383.1755	0.105	766351	keystroke	e	n/a
383.3855	0.135	766771	keystroke	d	n/a
383.5805	0.105	767161	keystroke	Key.space	n/a
383.73	0.151	767460	keystroke	s	n/a
383.911	0.104	767822	keystroke	e	n/a
384.03	0.1205	768060	keystroke	n	n/a
384.1655	0.135	768331	keystroke	s	n/a
384.3155	0.165	768631	keystroke	i	n/a
384.4655	0.105	768931	keystroke	t	n/a
384.6005	0.12	769201	keystroke	i	n/a
385.081	0.12	770162	keystroke	v	n/a
385.4705	0.105	770941	keystroke	i	n/a
385.6205	0.09	771241	keystroke	t	n/a
385.8305	0.09	771661	keystroke	y	n/a
386.0555	0.09	772111	keystroke	Key.enter	n/a
386.15	5.727	772300	prompt	n/a	we'll clocks nano doesn't\n
386.806	0.18	773612	keystroke	w	n/a
386.926	0.135	773852	keystroke	e	n/a
387.046	0.1345	774092	keystroke	'	n/a
387.4205	0.1205	774841	keystroke	l	n/a
387.631	0.12	775262	keystroke	l	n/a
387.765	0.151	775530	keystroke	Key.space	n/a
387.901	0.135	775802	keystroke	c	n/a
388.02	0.18	776040	keystroke	l	n/a
388.186	0.12	776372	keystroke	o	n/a
388.921	0.119	777842	keystroke	c	n/a
389.085	0.136	778170	keystroke	k	n/a
389.251	0.135	778502	keystroke	s	n/a
389.416	0.134	778832	keystroke	Key.space	n/a
389.701	0.105	779402	keystroke	n	n/a
389.791	0.135	779582	keystroke	a	n/a
389.911	0.105	779822	keystroke	n	n/a
390.121	0.15	780242	keystroke	o	n/a
390.255	0.135	780510	keystroke	Key.space	n/a
390.361	0.09	780722	keystroke	d	n/a
390.571	0.1045	781142	keystroke	o	n/a
390.6605	0.165	781321	keystroke	e	n/a
390.8405	0.135	781681	keystroke	s	n/a
390.9455	0.09	781891	keystroke	n	n/a
391.186	0.12	782372	keystroke	'	n/a
391.291	0.09	782582	keystroke	t	n/a
391.7855	0.09	783571	keystroke	Key.enter	n/a
391.88	6.6125	783760	prompt	n/a	jets session camcorder spanking\n
392.5505	0.1805	785101	keystroke	j	n/a
392.671	0.12	785342	keystroke	e	n/a
392.806	0.12	785612	keystroke	t	n/a
393.0155	0.165	786031	keystroke	s	n/a
393.2555	0.135	786511	keystroke	Key.space	n/a
393.5405	0.165	787081	keystroke	s	n/a
393.6605	0.105	787321	keystroke	e	n/a
393.8855	0.075	787771	keystroke	s	n/a
394.0655	0.105	788131	keystroke	s	n/a
394.1855	0.09	788371	keystroke	i	n/a
394.2605	0.18	788521	keystroke	o	n/a
394.3655	0.21	788731	keystroke	n	n/a
394.5305	0.21	789061	keystroke	Key.space	n/a
394.7555	0.12	789511	keystroke	c	n/a
394.9805	0.135	789961	keystroke	a	n/a
395.0705	0.135	790141	keystroke	m	n/a
395.6105	0.105	791221	keystroke	c	n/a
395.7605	0.105	791521	keystroke	o	n/a
396.1055	0.09	792211	keystroke	r	n/a
396.3155	0.105	792631	keystroke	d	n/a
396.556	0.1645	793112	keystroke	e	n/a
396.646	0.18	793292	keystroke	r	n/a
396.841	0.12	793682	keystroke	Key.space	n/a
397.0655	0.15	794131	keystroke	s	n/a
397.2005	0.12	794401	keystroke	p	n/a
397.3655	0.15	794731	keystroke	a	n/a
397.5005	0.09	795001	keystroke	n	n/a
397.6505	0.135	795301	keystroke	k	n/a
397.9065	0.119	795813	keystroke	i	n/a
398.0405	0.135	796081	keystroke	n	n/a
398.1605	0.1205	796321	keystroke	g	n/a
398.416	0.075	796832	keystroke	Key.enter	n/a
398.495	7.0775	796990	prompt	n/a	moisture anxiety advisory labor\n
399.166	0.135	798332	keystroke	m	n/a
399.316	0.15	798632	keystroke	o	n/a
399.511	0.09	799022	keystroke	s	n/a
399.571	0.09	799142	keystroke	i	n/a
400.0355	0.075	800071	keystroke	Key.backspace	n/a
400.2155	0.045	800431	keystroke	Key.backspace	n/a
400.4705	0.135	800941	keystroke	i	n/a
400.5155	0.15	801031	keystroke	s	n/a
400.7255	0.105	801451	keystroke	t	n/a
400.8605	0.135	801721	keystroke	u	n/a
400.9805	0.165	801961	keystroke	r	n/a
401.086	0.1345	802172	keystroke	e	n/a
401.2215	0.1495	802443	keystroke	Key.space	n/a
401.416	0.1045	802832	keystroke	a	n/a
401.5055	0.105	803011	keystroke	n	n/a
401.7315	0.119	803463	keystroke	x	n/a
401.8515	0.164	803703	keystroke	i	n/a
402.0605	0.135	804121	keystroke	e	n/a
402.3005	0.09	804601	keystroke	t	n/a
402.4955	0.1055	804991	keystroke	y	n/a
402.676	0.15	805352	keystroke	Key.space	n/a
402.811	0.18	805622	keystroke	a	n/a
402.946	0.09	805892	keystroke	d	n/a
403.186	0.105	806372	keystroke	v	n/a
403.276	0.105	806552	keystroke	i	n/a
403.441	0.12	806882	keystroke	s	n/a
403.815	0.12	807630	keystroke	o	n/a
403.891	0.09	807782	keystroke	r	n/a
404.115	0.105	808230	keystroke	y	n/a
404.34	0.105	808680	keystroke	Key.space	n/a
404.67	0.12	809340	keystroke	l	n/a
404.775	0.135	809550	keystroke	a	n/a
404.926	0.104	809852	keystroke	b	n/a
405.121	0.12	810242	keystroke	o	n/a
405.196	0.12	810392	keystroke	r	n/a
405.511	0.06	811022	keystroke	Key.enter	n/a
405.577	7.51	811154	prompt	n/a	branches vehicle technological build\n
406.246	0.1045	812492	keystroke	b	n/a
406.3205	0.12	812641	keystroke	r	n/a
406.4855	0.1655	812971	keystroke	a	n/a
406.6055	0.1205	813211	keystroke	n	n/a
406.876	0.135	813752	keystroke	c	n/a
406.981	0.12	813962	keystroke	h	n/a
407.1305	0.18	814261	keystroke	e	n/a
407.2355	0.15	814471	keystroke	s	n/a
407.4005	0.12	814801	keystroke	Key.space	n/a
407.6255	0.105	815251	keystroke	v	n/a
407.7755	0.12	815551	keystroke	i	n/a
408.3155	0.075	816631	keystroke	Key.backspace	n/a
408.4205	0.105	816841	keystroke	e	n/a
408.6605	0.105	817321	keystroke	h	n/a
408.8255	0.15	817651	keystroke	i	n/a
408.9605	0.12	817921	keystroke	c	n/a
409.126	0.195	818252	keystroke	l	n/a
409.35	0.091	818700	keystroke	e	n/a
409.456	0.135	818912	keystroke	Key.space	n/a
409.681	0.105	819362	keystroke	t	n/a
409.816	0.105	819632	keystroke	e	n/a
410.056	0.1495	820112	keystroke	c	n/a
410.1455	0.105	820291	keystroke	h	n/a
410.4005	0.12	820801	keystroke	n	n/a
410.5505	0.09	821101	keystroke	o	n/a
410.7605	0.15	821521	keystroke	l	n/a
410.8955	0.12	821791	keystroke	o	n/a
411.0005	0.09	822001	keystroke	g	n/a
411.1055	0.1355	822211	keystroke	i	n/a
411.301	0.135	822602	keystroke	c	n/a
411.616	0.045	823232	keystroke	a	n/a
411.631	0.09	823262	keystroke	l	n/a
411.856	0.135	823712	keystroke	Key.space	n/a
412.096	0.12	824192	keystroke	b	n/a
412.261	0.195	824522	keystroke	u	n/a
412.396	0.12	824792	keystroke	i	n/a
412.651	0.105	825302	keystroke	l	n/a
412.726	0.135	825452	keystroke	d	n/a
412.9955	0.0905	825991	keystroke	Key.enter	n/a
413.0895	6.133	826179	prompt	n/a	sufficient complications pants loan\n
413.7005	0.12	827401	keystroke	s	n/a
413.7905	0.12	827581	keystroke	u	n/a
413.9555	0.075	827911	keystroke	f	n/a
414.0905	0.09	828181	keystroke	f	n/a
414.1955	0.12	828391	keystroke	i	n/a
414.3755	0.135	828751	keystroke	c	n/a
414.4505	0.135	828901	keystroke	i	n/a
414.6455	0.105	829291	keystroke	e	n/a
414.7655	0.1355	829531	keystroke	n	n/a
414.916	0.105	829832	keystroke	t	n/a
415.051	0.1045	830102	keystroke	Key.space	n/a
415.2005	0.15	830401	keystroke	c	n/a
415.2755	0.105	830551	keystroke	o	n/a
415.4555	0.135	830911	keystroke	m	n/a
415.6055	0.09	831211	keystroke	p	n/a
415.8305	0.18	831661	keystroke	l	n/a
415.9505	0.135	831901	keystroke	i	n/a
416.0705	0.135	832141	keystroke	c	n/a
416.2205	0.105	832441	keystroke	a	n/a
416.4455	0.135	832891	keystroke	t	n/a
416.5205	0.12	833041	keystroke	i	n/a
416.5955	0.165	833191	keystroke	o	n/a
416.6855	0.195	833371	keystroke	n	n/a
416.8355	0.165	833671	keystroke	s	n/a
417.0015	0.0895	834003	keystroke	Key.space	n/a
417.106	0.135	834212	keystroke	p	n/a
417.511	0.0595	835022	keystroke	a	n/a
417.5855	0.135	835171	keystroke	n	n/a
417.7355	0.105	835471	keystroke	t	n/a
417.9605	0.166	835921	keystroke	s	n/a
418.1555	0.135	836311	keystroke	Key.space	n/a
418.3355	0.135	836671	keystroke	l	n/a
418.6055	0.075	837211	keystroke	o	n/a
418.6955	0.135	837391	keystroke	a	n/a
418.8155	0.105	837631	keystroke	n	n/a
419.116	0.105	838232	keystroke	Key.enter	n/a
419.225	6.942	838450	prompt	n/a	attacks camcorder hans grants\n
419.776	0.105	839552	keystroke	a	n/a
419.956	0.105	839912	keystroke	t	n/a
420.106	0.105	840212	keystroke	t	n/a
420.2555	0.1505	840511	keystroke	a	n/a
420.526	0.105	841052	keystroke	c	n/a
420.661	0.15	841322	keystroke	k	n/a
420.826	0.105	841652	keystroke	s	n/a
420.931	0.165	841862	keystroke	Key.space	n/a
421.201	0.135	842402	keystroke	c	n/a
421.3505	0.1805	842701	keystroke	a	n/a
421.516	0.1345	843032	keystroke	m	n/a
421.7105	0.135	843421	keystroke	c	n/a
421.8755	0.135	843751	keystroke	o	n/a
422.0255	0.105	844051	keystroke	r	n/a
422.266	0.105	844532	keystroke	d	n/a
422.506	0.15	845012	keystroke	e	n/a
422.596	0.165	845192	keystroke	r	n/a
422.776	0.135	845552	keystroke	Key.space	n/a
422.971	0.12	845942	keystroke	h	n/a
423.106	0.12	846212	keystroke	a	n/a
423.241	0.135	846482	keystroke	n	n/a
423.406	0.12	846812	keystroke	d	n/a
424.096	0.06	848192	keystroke	Key.backspace	n/a
424.171	0.165	848342	keystroke	s	n/a
424.411	0.135	848822	keystroke	Key.space	n/a
424.651	0.105	849302	keystroke	g	n/a
424.876	0.105	849752	keystroke	r	n/a
425.011	0.149	850022	keystroke	a	n/a
425.161	0.119	850322	keystroke	n	n/a
425.296	0.119	850592	keystroke	t	n/a
425.8055	0.135	851611	keystroke	s	n/a
426.0905	0.075	852181	keystroke	Key.enter	n/a
426.1695	5.9075	852339	prompt	n/a	maintain rural meat sustainable\n
426.7805	0.12	853561	keystroke	m	n/a
426.9155	0.105	853831	keystroke	a	n/a
427.0355	0.1355	854071	keystroke	i	n/a
427.306	0.165	854612	keystroke	n	n/a
427.576	0.075	855152	keystroke	t	n/a
427.741	0.165	855482	keystroke	a	n/a
427.876	0.135	855752	keystroke	i	n/a
427.951	0.225	855902	keystroke	n	n/a
428.161	0.15	856322	keystroke	Key.space	n/a
428.341	0.1195	856682	keystroke	r	n/a
428.4305	0.1345	856861	keystroke	u	n/a
428.596	0.09	857192	keystroke	r	n/a
428.775	0.1665	857550	keystroke	a	n/a
428.9105	0.1805	857821	keystroke	l	n/a
429.076	0.135	858152	keystroke	Key.space	n/a
429.256	0.195	858512	keystroke	m	n/a
429.361	0.075	858722	keystroke	e	n/a
429.556	0.105	859112	keystroke	a	n/a
429.721	0.165	859442	keystroke	t	n/a
429.976	0.15	859952	keystroke	Key.space	n/a
430.246	0.165	860492	keystroke	s	n/a
430.366	0.105	860732	keystroke	u	n/a
430.516	0.09	861032	keystroke	s	n/a
430.696	0.12	861392	keystroke	t	n/a
430.876	0.15	861752	keystroke	a	n/a
431.056	0.09	862112	keystroke	i	n/a
431.206	0.15	862412	keystroke	n	n/a
431.341	0.1495	862682	keystroke	a	n/a
431.4455	0.105	862891	keystroke	b	n/a
431.6855	0.12	863371	keystroke	l	n/a
431.7455	0.12	863491	keystroke	e	n/a
432.0005	0.075	864001	keystroke	Key.enter	n/a
432.08	5.772	864160	prompt	n/a	editions handed portraits males\n
432.6755	0.105	865351	keystroke	e	n/a
432.8855	0.12	865771	keystroke	d	n/a
432.9605	0.135	865921	keystroke	i	n/a
433.126	0.135	866252	keystroke	t	n/a
433.246	0.15	866492	keystroke	i	n/a
433.381	0.1645	866762	keystroke	o	n/a
433.5005	0.165	867001	keystroke	n	n/a
433.6505	0.12	867301	keystroke	s	n/a
433.7855	0.15	867571	keystroke	Key.space	n/a
433.9205	0.12	867841	keystroke	h	n/a
434.0415	0.119	868083	keystroke	a	n/a
434.1905	0.12	868381	keystroke	n	n/a
434.3255	0.09	868651	keystroke	d	n/a
434.5505	0.075	869101	keystroke	e	n/a
434.7605	0.12	869521	keystroke	d	n/a
434.8655	0.12	869731	keystroke	Key.space	n/a
435.0155	0.1805	870031	keystroke	p	n/a
435.271	0.135	870542	keystroke	o	n/a
435.376	0.105	870752	keystroke	r	n/a
435.586	0.105	871172	keystroke	t	n/a
435.886	0.075	871772	keystroke	r	n/a
436.036	0.15	872072	keystroke	a	n/a
436.171	0.12	872342	keystroke	i	n/a
436.321	0.1045	872642	keystroke	t	n/a
436.5455	0.151	873091	keystroke	s	n/a
436.741	0.135	873482	keystroke	Key.space	n/a
436.996	0.135	873992	keystroke	m	n/a
437.116	0.12	874232	keystroke	a	n/a
437.251	0.15	874502	keystroke	l	n/a
437.371	0.21	874742	keystroke	e	n/a
437.521	0.12	875042	keystroke	s	n/a
437.791	0.06	875582	keystroke	Key.enter	n/a
437.8545	6.5075	875709	prompt	n/a	dicke sugar cycles xerox\n
438.691	0.12	877382	keystroke	d	n/a
438.856	0.075	877712	keystroke	i	n/a
438.946	0.1645	877892	keystroke	c	n/a
439.0955	0.1195	878191	keystroke	k	n/a
439.275	0.1505	878550	keystroke	e	n/a
439.8605	0.105	879721	keystroke	Key.space	n/a
439.9805	0.135	879961	keystroke	s	n/a
440.1305	0.12	880261	keystroke	u	n/a
440.2655	0.09	880531	keystroke	g	n/a
440.5505	0.12	881101	keystroke	e	n/a
441.03	0.076	882060	keystroke	Key.backspace	n/a
441.121	0.135	882242	keystroke	a	n/a
441.241	0.135	882482	keystroke	r	n/a
441.4505	0.12	882901	keystroke	Key.space	n/a
441.6305	0.12	883261	keystroke	c	n/a
441.9005	0.09	883801	keystroke	y	n/a
442.1705	0.105	884341	keystroke	c	n/a
442.2605	0.12	884521	keystroke	l	n/a
442.4255	0.195	884851	keystroke	e	n/a
442.5455	0.135	885091	keystroke	s	n/a
442.7405	0.105	885481	keystroke	Key.space	n/a
442.9955	0.15	885991	keystroke	x	n/a
443.2505	0.1655	886501	keystroke	e	n/a
443.356	0.135	886712	keystroke	r	n/a
443.566	0.105	887132	keystroke	o	n/a
443.956	0.135	887912	keystroke	x	n/a
444.286	0.075	888572	keystroke	Key.enter	n/a
444.365	5.7275	888730	prompt	n/a	jonathan libraries zealand he\n
445.021	0.12	890042	keystroke	j	n/a
445.156	0.15	890312	keystroke	o	n/a
445.291	0.135	890582	keystroke	n	n/a
445.411	0.12	890822	keystroke	a	n/a
445.636	0.105	891272	keystroke	t	n/a
445.726	0.12	891452	keystroke	h	n/a
445.8755	0.165	891751	keystroke	a	n/a
445.9955	0.1355	891991	keystroke	n	n/a
446.1755	0.135	892351	keystroke	Key.space	n/a
446.3255	0.21	892651	keystroke	l	n/a
446.4905	0.12	892981	keystroke	i	n/a
446.6705	0.15	893341	keystroke	b	n/a
446.7755	0.136	893551	keystroke	r	n/a
446.9255	0.21	893851	keystroke	a	n/a
447.0755	0.12	894151	keystroke	r	n/a
447.2405	0.165	894481	keystroke	i	n/a
447.3905	0.21	894781	keystroke	e	n/a
447.5555	0.105	895111	keystroke	s	n/a
447.6605	0.12	895321	keystroke	Key.space	n/a
448.3655	0.15	896731	keystroke	z	n/a
448.6955	0.09	897391	keystroke	e	n/a
448.9055	0.105	897811	keystroke	a	n/a
449.0555	0.12	898111	keystroke	l	n/a
449.1905	0.135	898381	keystroke	a	n/a
449.2955	0.18	898591	keystroke	n	n/a
449.4605	0.105	898921	keystroke	d	n/a
449.5055	0.15	899011	keystroke	Key.space	n/a
449.6255	0.15	899251	keystroke	h	n/a
449.7605	0.105	899521	keystroke	e	n/a
450.0155	0.075	900031	keystroke	Key.enter	n/a
450.096	5.2915	900192	prompt	n/a	before discussion wives propose\n
450.751	0.12	901502	keystroke	b	n/a
450.811	0.09	901622	keystroke	e	n/a
451.036	0.105	902072	keystroke	f	n/a
451.126	0.12	902252	keystroke	o	n/a
451.291	0.12	902582	keystroke	r	n/a
451.366	0.135	902732	keystroke	e	n/a
451.456	0.12	902912	keystroke	Key.space	n/a
451.636	0.15	903272	keystroke	d	n/a
451.756	0.135	903512	keystroke	i	n/a
451.921	0.105	903842	keystroke	s	n/a
452.146	0.12	904292	keystroke	c	n/a
452.251	0.105	904502	keystroke	u	n/a
452.386	0.12	904772	keystroke	s	n/a
452.581	0.12	905162	keystroke	s	n/a
452.731	0.135	905462	keystroke	i	n/a
452.8365	0.164	905673	keystroke	o	n/a
452.926	0.2095	905852	keystroke	n	n/a
453.1205	0.135	906241	keystroke	Key.space	n/a
453.2105	0.12	906421	keystroke	w	n/a
453.4055	0.1505	906811	keystroke	i	n/a
453.721	0.105	907442	keystroke	v	n/a
453.931	0.18	907862	keystroke	e	n/a
454.036	0.15	908072	keystroke	s	n/a
454.171	0.135	908342	keystroke	Key.space	n/a
454.3205	0.136	908641	keystroke	p	n/a
454.4405	0.12	908881	keystroke	r	n/a
454.5455	0.106	909091	keystroke	o	n/a
454.6955	0.1645	909391	keystroke	p	n/a
454.846	0.1495	909692	keystroke	o	n/a
454.9655	0.1655	909931	keystroke	s	n/a
455.0555	0.1205	910111	keystroke	e	n/a
455.3105	0.075	910621	keystroke	Key.enter	n/a
455.391	7.106	910782	prompt	n/a	site diploma omissions existed\n
455.9255	0.105	911851	keystroke	s	n/a
456.016	0.1195	912032	keystroke	i	n/a
456.181	0.0895	912362	keystroke	t	n/a
456.3305	0.165	912661	keystroke	e	n/a
456.5105	0.12	913021	keystroke	Key.space	n/a
456.6455	0.1205	913291	keystroke	d	n/a
456.7955	0.105	913591	keystroke	i	n/a
457.051	0.12	914102	keystroke	p	n/a
457.201	0.135	914402	keystroke	o	n/a
458.146	0.075	916292	keystroke	Key.backspace	n/a
458.401	0.15	916802	keystroke	l	n/a
458.596	0.12	917192	keystroke	o	n/a
458.881	0.15	917762	keystroke	m	n/a
459.076	0.12	918152	keystroke	a	n/a
459.211	0.135	918422	keystroke	Key.space	n/a
459.391	0.165	918782	keystroke	o	n/a
459.706	0.1195	919412	keystroke	m	n/a
459.9005	0.12	919801	keystroke	i	n/a
460.0505	0.09	920101	keystroke	s	n/a
460.2455	0.105	920491	keystroke	s	n/a
460.3055	0.15	920611	keystroke	i	n/a
460.4405	0.15	920881	keystroke	o	n/a
460.5155	0.195	921031	keystroke	n	n/a
460.6505	0.15	921301	keystroke	s	n/a
460.7705	0.18	921541	keystroke	Key.space	n/a
460.9205	0.09	921841	keystroke	e	n/a
461.1155	0.15	922231	keystroke	x	n/a
461.2205	0.15	922441	keystroke	i	n/a
461.4305	0.166	922861	keystroke	s	n/a
461.6405	0.12	923281	keystroke	t	n/a
461.8055	0.12	923611	keystroke	e	n/a
462.0605	0.12	924121	keystroke	d	n/a
462.4205	0.075	924841	keystroke	Key.enter	n/a
462.5	7.9475	925000	prompt	n/a	imagination necessary isolation explicit\n
463.0205	0.1655	926041	keystroke	i	n/a
463.156	0.15	926312	keystroke	m	n/a
463.321	0.09	926642	keystroke	a	n/a
463.546	0.12	927092	keystroke	g	n/a
463.651	0.135	927302	keystroke	i	n/a
463.846	0.119	927692	keystroke	n	n/a
464.071	0.089	928142	keystroke	a	n/a
464.281	0.119	928562	keystroke	t	n/a
464.371	0.149	928742	keystroke	i	n/a
464.49	0.181	928980	keystroke	o	n/a
464.55	0.165	929100	keystroke	n	n/a
464.7	0.151	929400	keystroke	Key.space	n/a
464.835	0.21	929670	keystroke	n	n/a
464.971	0.075	929942	keystroke	e	n/a
465.1655	0.1955	930331	keystroke	c	n/a
465.376	0.18	930752	keystroke	e	n/a
465.451	0.15	930902	keystroke	s	n/a
465.661	0.09	931322	keystroke	s	n/a
465.856	0.12	931712	keystroke	a	n/a
465.976	0.105	931952	keystroke	r	n/a
466.201	0.105	932402	keystroke	y	n/a
466.351	0.12	932702	keystroke	Key.space	n/a
466.456	0.165	932912	keystroke	i	n/a
466.606	0.12	933212	keystroke	s	n/a
466.756	0.09	933512	keystroke	l	n/a
467.1155	0.09	934231	keystroke	Key.backspace	n/a
467.3705	0.12	934741	keystroke	o	n/a
467.6105	0.075	935221	keystroke	l	n/a
467.746	0.105	935492	keystroke	a	n/a
467.956	0.1195	935912	keystroke	t	n/a
468.0455	0.105	936091	keystroke	i	n/a
468.1055	0.18	936211	keystroke	o	n/a
468.2105	0.21	936421	keystroke	n	n/a
468.3755	0.18	936751	keystroke	Key.space	n/a
468.4655	0.105	936931	keystroke	e	n/a
468.7055	0.135	937411	keystroke	x	n/a
468.8255	0.06	937651	keystroke	p	n/a
469.366	0.195	938732	keystroke	l	n/a
469.531	0.12	939062	keystroke	i	n/a
469.771	0.135	939542	keystroke	c	n/a
469.876	0.12	939752	keystroke	i	n/a
470.071	0.1345	940142	keystroke	t	n/a
470.3705	0.075	940741	keystroke	Key.enter	n/a
470.4505	5.7565	940901	prompt	n/a	youth vessels shoot outer\n
471.121	0.1045	942242	keystroke	y	n/a
471.2405	0.15	942481	keystroke	o	n/a
471.3305	0.135	942661	keystroke	u	n/a
471.8855	0.105	943771	keystroke	t	n/a
471.9755	0.1355	943951	keystroke	h	n/a
472.1405	0.1205	944281	keystroke	Key.space	n/a
472.3505	0.15	944701	keystroke	v	n/a
472.5455	0.1055	945091	keystroke	e	n/a
472.756	0.255	945512	keystroke	s	n/a
473.3705	0.1205	946741	keystroke	s	n/a
473.701	0.135	947402	keystroke	e	n/a
473.866	0.135	947732	keystroke	l	n/a
473.971	0.15	947942	keystroke	s	n/a
474.151	0.105	948302	keystroke	Key.space	n/a
474.361	0.12	948722	keystroke	s	n/a
474.511	0.105	949022	keystroke	h	n/a
474.706	0.09	949412	keystroke	o	n/a
474.901	0.135	949802	keystroke	o	n/a
475.006	0.105	950012	keystroke	t	n/a
475.171	0.089	950342	keystroke	Key.space	n/a
475.306	0.18	950612	keystroke	o	n/a
475.426	0.134	950852	keystroke	u	n/a
475.53	0.106	951060	keystroke	t	n/a
475.71	0.211	951420	keystroke	e	n/a
475.831	0.165	951662	keystroke	r	n/a
476.131	0.075	952262	keystroke	Key.enter	n/a
476.21	6.372	952420	prompt	n/a	robert wisdom anyone versus\n
476.776	0.135	953552	keystroke	r	n/a
476.896	0.075	953792	keystroke	o	n/a
477.1055	0.135	954211	keystroke	b	n/a
477.2255	0.225	954451	keystroke	e	n/a
477.3605	0.15	954721	keystroke	r	n/a
477.6455	0.105	955291	keystroke	t	n/a
478.1555	0.12	956311	keystroke	Key.space	n/a
478.5005	0.12	957001	keystroke	w	n/a
478.6505	0.12	957301	keystroke	i	n/a
478.7855	0.15	957571	keystroke	s	n/a
479.0405	0.165	958081	keystroke	d	n/a
479.1905	0.135	958381	keystroke	o	n/a
479.2655	0.225	958531	keystroke	m	n/a
479.4755	0.12	958951	keystroke	Key.space	n/a
479.6405	0.135	959281	keystroke	a	n/a
479.7605	0.165	959521	keystroke	n	n/a
479.9405	0.12	959881	keystroke	y	n/a
480.2105	0.1655	960421	keystroke	o	n/a
480.361	0.195	960722	keystroke	n	n/a
480.481	0.09	960962	keystroke	e	n/a
480.601	0.135	961202	keystroke	Key.space	n/a
480.751	0.105	961502	keystroke	v	n/a
480.901	0.1795	961802	keystroke	e	n/a
481.021	0.1345	962042	keystroke	r	n/a
481.2305	0.06	962461	keystroke	u	n/a
481.3055	0.12	962611	keystroke	s	n/a
481.621	0.075	963242	keystroke	Key.backspace	n/a
481.7705	0.0755	963541	keystroke	Key.backspace	n/a
481.906	0.1045	963812	keystroke	s	n/a
482.0555	0.105	964111	keystroke	u	n/a
482.1455	0.136	964291	keystroke	s	n/a
482.5055	0.075	965011	keystroke	Key.enter	n/a
482.5865	5.8755	965173	prompt	n/a	observe oklahoma paper encoding\n
483.166	0.075	966332	keystroke	o	n/a
483.346	0.12	966692	keystroke	b	n/a
483.451	0.15	966902	keystroke	s	n/a
483.586	0.165	967172	keystroke	e	n/a
483.646	0.12	967292	keystroke	r	n/a
483.916	0.135	967832	keystroke	v	n/a
484.126	0.12	968252	keystroke	e	n/a
484.276	0.105	968552	keystroke	Key.space	n/a
484.396	0.105	968792	keystroke	o	n/a
484.651	0.09	969302	keystroke	k	n/a
484.891	0.09	969782	keystroke	l	n/a
484.981	0.1495	969962	keystroke	a	n/a
485.2655	0.165	970531	keystroke	h	n/a
485.4455	0.105	970891	keystroke	o	n/a
485.7005	0.135	971401	keystroke	m	n/a
485.8805	0.105	971761	keystroke	a	n/a
486.1205	0.12	972241	keystroke	Key.space	n/a
486.3005	0.12	972601	keystroke	p	n/a
486.4655	0.12	972931	keystroke	a	n/a
486.5705	0.105	973141	keystroke	p	n/a
486.6905	0.18	973381	keystroke	e	n/a
486.7955	0.15	973591	keystroke	r	n/a
486.9305	0.12	973861	keystroke	Key.space	n/a
487.0805	0.105	974161	keystroke	e	n/a
487.2005	0.165	974401	keystroke	n	n/a
487.4105	0.135	974821	keystroke	c	n/a
487.5605	0.105	975121	keystroke	o	n/a
487.7105	0.15	975421	keystroke	d	n/a
487.8905	0.165	975781	keystroke	i	n/a
488.0105	0.151	976021	keystroke	n	n/a
488.1005	0.121	976201	keystroke	g	n/a
488.3855	0.075	976771	keystroke	Key.enter	n/a
488.465	7.707	976930	prompt	n/a	pichunter crowd magical donor\n
489.1955	0.105	978391	keystroke	p	n/a
489.3905	0.135	978781	keystroke	i	n/a
489.5405	0.135	979081	keystroke	c	n/a
489.9305	0.135	979861	keystroke	h	n/a
490.0355	0.15	980071	keystroke	u	n/a
490.2155	0.165	980431	keystroke	n	n/a
490.4255	0.135	980851	keystroke	t	n/a
490.6205	0.21	981241	keystroke	e	n/a
490.7855	0.15	981571	keystroke	r	n/a
490.9505	0.1055	981901	keystroke	Key.space	n/a
491.101	0.12	982202	keystroke	p	n/a
491.506	0.074	983012	keystroke	Key.backspace	n/a
491.566	0.135	983132	keystroke	c	n/a
491.821	0.105	983642	keystroke	r	n/a
491.941	0.12	983882	keystroke	o	n/a
492.136	0.105	984272	keystroke	w	n/a
492.406	0.12	984812	keystroke	d	n/a
492.526	0.1055	985052	keystroke	Key.space	n/a
492.796	0.27	985592	keystroke	m	n/a
493.186	0.075	986372	keystroke	a	n/a
493.366	0.135	986732	keystroke	g	n/a
493.486	0.165	986972	keystroke	i	n/a
493.636	0.135	987272	keystroke	n	n/a
493.741	0.15	987482	keystroke	c	n/a
494.371	0.075	988742	keystroke	Key.backspace	n/a
494.551	0.06	989102	keystroke	Key.backspace	n/a
494.671	0.12	989342	keystroke	c	n/a
494.851	0.15	989702	keystroke	a	n/a
494.971	0.1795	989942	keystroke	l	n/a
495.1355	0.15	990271	keystroke	Key.space	n/a
495.2705	0.135	990541	keystroke	d	n/a
495.3755	0.18	990751	keystroke	o	n/a
495.5405	0.165	991081	keystroke	n	n/a
495.6905	0.135	991381	keystroke	o	n/a
495.8255	0.12	991651	keystroke	r	n/a
496.0955	0.075	992191	keystroke	Key.enter	n/a
496.175	7.4225	992350	prompt	n/a	director cover screensaver carpet\n
496.7255	0.12	993451	keystroke	d	n/a
496.8005	0.15	993601	keystroke	i	n/a
496.9655	0.1355	993931	keystroke	r	n/a
497.116	0.1055	994232	keystroke	e	n/a
497.3415	0.12	994683	keystroke	c	n/a
497.5955	0.076	995191	keystroke	t	n/a
497.6865	0.149	995373	keystroke	o	n/a
497.8055	0.105	995611	keystroke	r	n/a
497.9555	0.136	995911	keystroke	Key.space	n/a
498.1655	0.12	996331	keystroke	c	n/a
498.3315	0.135	996663	keystroke	o	n/a
498.4365	0.105	996873	keystroke	v	n/a
498.6615	0.18	997323	keystroke	e	n/a
498.7815	0.12	997563	keystroke	r	n/a
498.9165	0.135	997833	keystroke	Key.space	n/a
499.0365	0.1195	998073	keystroke	s	n/a
499.261	0.12	998522	keystroke	c	n/a
499.516	0.135	999032	keystroke	r	n/a
499.666	0.105	999332	keystroke	e	n/a
499.876	0.09	999752	keystroke	e	n/a
500.011	0.12	1000022	keystroke	n	n/a
500.266	0.135	1000532	keystroke	s	n/a
500.8655	0.105	1001731	keystroke	a	n/a
501.1355	0.105	1002271	keystroke	v	n/a
501.331	0.165	1002662	keystroke	e	n/a
501.451	0.15	1002902	keystroke	r	n/a
501.616	0.135	1003232	keystroke	Key.space	n/a
501.796	0.15	1003592	keystroke	c	n/a
501.976	0.1345	1003952	keystroke	a	n/a
502.141	0.0745	1004282	keystroke	p	n/a
502.5005	0.075	1005001	keystroke	Key.backspace	n/a
502.5905	0.105	1005181	keystroke	r	n/a
502.861	0.12	1005722	keystroke	p	n/a
503.086	0.105	1006172	keystroke	e	n/a
503.266	0.105	1006532	keystroke	t	n/a
503.506	0.09	1007012	keystroke	Key.enter	n/a
503.6	5.8925	1007200	prompt	n/a	denver amanda warranty rarely\n
504.226	0.075	1008452	keystroke	d	n/a
504.421	0.105	1008842	keystroke	e	n/a
504.571	0.12	1009142	keystroke	n	n/a
504.7955	0.165	1009591	keystroke	v	n/a
505.0355	0.165	1010071	keystroke	e	n/a
505.1705	0.12	1010341	keystroke	r	n/a
505.3055	0.12	1010611	keystroke	Key.space	n/a
505.4555	0.135	1010911	keystroke	a	n/a
505.5755	0.12	1011151	keystroke	m	n/a
505.7105	0.12	1011421	keystroke	a	n/a
505.8455	0.12	1011691	keystroke	n	n/a
505.9355	0.12	1011871	keystroke	d	n/a
506.1465	0.165	1012293	keystroke	a	n/a
506.3555	0.135	1012711	keystroke	Key.space	n/a
506.5065	0.134	1013013	keystroke	w	n/a
