onset	duration	sample	value	key	prompt_text
4.621	21.494	9242	prompt	n/a	the quick brown fox jumps over a lazy dog\n
8.3195	0.028	16639	keystroke_t	t	n/a
8.3625	0.09	16725	keystroke_h	h	n/a
8.467	0.09	16934	keystroke_e	e	n/a
8.5725	0.0895	17145	keystroke_Key.space	Key.space	n/a
9.2925	0.0755	18585	keystroke_q	q	n/a
9.5925	0.12	19185	keystroke_u	u	n/a
9.698	0.1205	19396	keystroke_i	i	n/a
9.8625	0.0905	19725	keystroke_c	c	n/a
9.9975	0.1955	19995	keystroke_k	k	n/a
10.178	0.059	20356	keystroke_Key.space	Key.space	n/a
10.3435	0.0895	20687	keystroke_b	b	n/a
10.463	0.09	20926	keystroke_r	r	n/a
11.3785	0.0745	22757	keystroke_o	o	n/a
11.4985	0.075	22997	keystroke_w	w	n/a
11.633	0.15	23266	keystroke_n	n	n/a
11.783	0.105	23566	keystroke_Key.space	Key.space	n/a
12.6085	0.0595	25217	keystroke_f	f	n/a
12.7585	0.0905	25517	keystroke_o	o	n/a
12.9835	0.075	25967	keystroke_z	z	n/a
13.464	0.0745	26928	keystroke_Key.backspace	Key.backspace	n/a
13.629	0.075	27258	keystroke_x	x	n/a
14.229	0.105	28458	keystroke_Key.space	Key.space	n/a
15.5945	0.0445	31189	keystroke_j	j	n/a
15.7595	0.09	31519	keystroke_u	u	n/a
15.9995	0.0755	31999	keystroke_m	m	n/a
16.6295	0.0905	33259	keystroke_o	o	n/a
16.8095	0.0605	33619	keystroke_e	e	n/a
16.9745	0.0755	33949	keystroke_d	d	n/a
17.079	0.09	34158	keystroke_Key.space	Key.space	n/a
17.439	0.0605	34878	keystroke_Key.backspace	Key.backspace	n/a
17.5745	0.045	35149	keystroke_Key.backspace	Key.backspace	n/a
17.7095	0.06	35419	keystroke_Key.backspace	Key.backspace	n/a
18.6855	0.06	37371	keystroke_Key.backspace	Key.backspace	n/a
18.9705	0.06	37941	keystroke_p	p	n/a
19.1505	0.06	38301	keystroke_e	e	n/a
19.3305	0.06	38661	keystroke_d	d	n/a
19.4055	0.1045	38811	keystroke_Key.space	Key.space	n/a
19.5705	0.045	39141	keystroke_i	i	n/a
19.7805	0.06	39561	keystroke_v	v	n/a
19.9905	0.1195	39981	keystroke_e	e	n/a
20.0505	0.0905	40101	keystroke_r	r	n/a
20.815	0.0155	41630	keystroke_Key.backspace	Key.backspace	n/a
21.07	0.061	42140	keystroke_Key.backspace	Key.backspace	n/a
21.206	0.059	42412	keystroke_Key.backspace	Key.backspace	n/a
21.5355	0.0595	43071	keystroke_Key.backspace	Key.backspace	n/a
22.3305	0.076	44661	keystroke_o	o	n/a
22.4955	0.061	44991	keystroke_v	v	n/a
22.6465	0.1645	45293	keystroke_e	e	n/a
22.7655	0.091	45531	keystroke_r	r	n/a
22.886	0.075	45772	keystroke_Key.space	Key.space	n/a
23.0065	0.09	46013	keystroke_a	a	n/a
23.1265	0.09	46253	keystroke_Key.space	Key.space	n/a
23.2315	0.105	46463	keystroke_l	l	n/a
23.682	0.1195	47364	keystroke_a	a	n/a
24.522	0.0605	49044	keystroke_z	z	n/a
24.777	0.18	49554	keystroke_y	y	n/a
24.912	0.135	49824	keystroke_Key.space	Key.space	n/a
25.437	0.075	50874	keystroke_d	d	n/a
25.542	0.09	51084	keystroke_o	o	n/a
25.6475	0.0745	51295	keystroke_g	g	n/a
26.037	0.075	52074	keystroke_Key.enter	Key.enter	n/a
26.119	9.1635	52238	prompt	n/a	defeat effort circles reduction\n
27.103	0.06	54206	keystroke_d	d	n/a
27.253	0.059	54506	keystroke_e	e	n/a
27.8075	0.06	55615	keystroke_f	f	n/a
27.9725	0.135	55945	keystroke_r	r	n/a
28.123	0.0895	56246	keystroke_a	a	n/a
28.6475	0.0605	57295	keystroke_Key.backspace	Key.backspace	n/a
28.7825	0.045	57565	keystroke_Key.backspace	Key.backspace	n/a
28.8585	0.134	57717	keystroke_e	e	n/a
29.038	0.0905	58076	keystroke_a	a	n/a
29.143	0.06	58286	keystroke_t	t	n/a
29.2785	0.1045	58557	keystroke_Key.space	Key.space	n/a
29.698	0.045	59396	keystroke_e	e	n/a
29.863	0.075	59726	keystroke_d	d	n/a
30.013	0.075	60026	keystroke_d	d	n/a
30.463	0.0605	60926	keystroke_Key.backspace	Key.backspace	n/a
30.599	0.0595	61198	keystroke_Key.backspace	Key.backspace	n/a
30.6735	0.0605	61347	keystroke_f	f	n/a
30.884	0.0145	61768	keystroke_f	f	n/a
30.9135	0.0905	61827	keystroke_o	o	n/a
31.0185	0.09	62037	keystroke_r	r	n/a
31.1685	0.075	62337	keystroke_t	t	n/a
31.2885	0.1205	62577	keystroke_Key.space	Key.space	n/a
32.084	0.0755	64168	keystroke_c	c	n/a
32.2045	0.06	64409	keystroke_i	i	n/a
32.8345	0.075	65669	keystroke_r	r	n/a
33.0745	0.105	66149	keystroke_c	c	n/a
33.1945	0.0895	66389	keystroke_l	l	n/a
33.3295	0.075	66659	keystroke_e	e	n/a
33.4795	0.09	66959	keystroke_s	s	n/a
33.5995	0.105	67199	keystroke_Key.space	Key.space	n/a
34.0495	0.15	68099	keystroke_r	r	n/a
34.185	0.0445	68370	keystroke_e	e	n/a
34.38	0.0745	68760	keystroke_d	d	n/a
34.53	0.0895	69060	keystroke_u	u	n/a
34.6345	0.06	69269	keystroke_c	c	n/a
34.8145	0.0455	69629	keystroke_t	t	n/a
34.8445	0.135	69689	keystroke_i	i	n/a
34.95	0.105	69900	keystroke_o	o	n/a
35.025	0.105	70050	keystroke_n	n	n/a
35.189	0.09	70378	keystroke_Key.enter	Key.enter	n/a
35.289	9.491	70578	prompt	n/a	ecuador parents sing thailand\n
37.261	0.0145	74522	keystroke_e	e	n/a
37.4105	0.06	74821	keystroke_c	c	n/a
37.561	0.075	75122	keystroke_u	u	n/a
37.681	0.0595	75362	keystroke_a	a	n/a
37.8455	0.06	75691	keystroke_d	d	n/a
37.9655	0.075	75931	keystroke_o	o	n/a
38.4455	0.045	76891	keystroke_r	r	n/a
38.5355	0.105	77071	keystroke_Key.space	Key.space	n/a
39.976	0.0755	79952	keystroke_p	p	n/a
40.0655	0.135	80131	keystroke_a	a	n/a
40.1865	0.134	80373	keystroke_r	r	n/a
40.306	0.09	80612	keystroke_e	e	n/a
40.441	0.105	80882	keystroke_n	n	n/a
40.562	0.089	81124	keystroke_t	t	n/a
40.832	0.0295	81664	keystroke_s	s	n/a
40.846	0.09	81692	keystroke_Key.space	Key.space	n/a
41.731	0.09	83462	keystroke_s	s	n/a
42.017	0.015	84034	keystroke_i	i	n/a
42.062	0.075	84124	keystroke_n	n	n/a
42.362	0.0905	84724	keystroke_g	g	n/a
42.527	0.105	85054	keystroke_Key.space	Key.space	n/a
43.2925	0.09	86585	keystroke_t	t	n/a
43.5025	0.105	87005	keystroke_h	h	n/a
43.8625	0.075	87725	keystroke_a	a	n/a
43.9825	0.0595	87965	keystroke_i	i	n/a
44.1325	0.0895	88265	keystroke_l	l	n/a
44.2375	0.075	88475	keystroke_a	a	n/a
44.3575	0.0895	88715	keystroke_n	n	n/a
44.507	0.09	89014	keystroke_d	d	n/a
44.702	0.075	89404	keystroke_Key.enter	Key.enter	n/a
44.7845	8.9825	89569	prompt	n/a	section hairy piano salaries\n
45.6635	0.0895	91327	keystroke_s	s	n/a
45.7375	0.0755	91475	keystroke_e	e	n/a
45.9175	0.075	91835	keystroke_c	c	n/a
46.128	0.06	92256	keystroke_t	t	n/a
46.203	0.135	92406	keystroke_u	u	n/a
46.353	0.135	92706	keystroke_i	i	n/a
46.458	0.105	92916	keystroke_b	b	n/a
46.9385	0.045	93877	keystroke_Key.backspace	Key.backspace	n/a
47.058	0.06	94116	keystroke_Key.backspace	Key.backspace	n/a
47.1785	0.06	94357	keystroke_Key.backspace	Key.backspace	n/a
48.1085	0.105	96217	keystroke_i	i	n/a
48.2435	0.1205	96487	keystroke_o	o	n/a
48.4235	0.0905	96847	keystroke_n	n	n/a
48.979	0.105	97958	keystroke_Key.space	Key.space	n/a
49.834	0.1205	99668	keystroke_h	h	n/a
49.984	0.0755	99968	keystroke_a	a	n/a
50.164	0.1055	100328	keystroke_i	i	n/a
50.3285	0.061	100657	keystroke_r	r	n/a
50.7045	0.074	101409	keystroke_y	y	n/a
50.8845	0.12	101769	keystroke_Key.space	Key.space	n/a
51.094	0.0905	102188	keystroke_p	p	n/a
51.2895	0.1045	102579	keystroke_i	i	n/a
51.484	0.06	102968	keystroke_a	a	n/a
51.6645	0.0745	103329	keystroke_n	n	n/a
51.7845	0.1045	103569	keystroke_o	o	n/a
52.2345	0.105	104469	keystroke_Key.space	Key.space	n/a
52.58	0.075	105160	keystroke_a	a	n/a
52.715	0.075	105430	keystroke_l	l	n/a
52.849	0.06	105698	keystroke_a	a	n/a
53.27	0.074	106540	keystroke_r	r	n/a
53.374	0.076	106748	keystroke_i	i	n/a
53.465	0.105	106930	keystroke_e	e	n/a
53.585	0.044	107170	keystroke_s	s	n/a
53.719	0.046	107438	keystroke_Key.enter	Key.enter	n/a
53.7715	11.876	107543	prompt	n/a	mold afraid copper creates\n
54.9355	0.105	109871	keystroke_n	n	n/a
55.1005	0.12	110201	keystroke_i	i	n/a
56.0005	0.06	112001	keystroke_Key.backspace	Key.backspace	n/a
56.1955	0.06	112391	keystroke_Key.backspace	Key.backspace	n/a
58.987	0.058	117974	keystroke_m	m	n/a
59.1805	0.0445	118361	keystroke_o	o	n/a
59.451	0.045	118902	keystroke_l	l	n/a
59.871	0.0595	119742	keystroke_d	d	n/a
59.9755	0.1195	119951	keystroke_Key.space	Key.space	n/a
60.141	0.09	120282	keystroke_a	a	n/a
60.366	0.06	120732	keystroke_f	f	n/a
60.546	0.09	121092	keystroke_r	r	n/a
60.651	0.075	121302	keystroke_a	a	n/a
60.756	0.12	121512	keystroke_i	i	n/a
60.891	0.09	121782	keystroke_d	d	n/a
61.5505	0.105	123101	keystroke_Key.space	Key.space	n/a
61.7755	0.12	123551	keystroke_c	c	n/a
61.881	0.075	123762	keystroke_o	o	n/a
62.195	0.091	124390	keystroke_p	p	n/a
62.376	0.06	124752	keystroke_p	p	n/a
62.541	0.104	125082	keystroke_e	e	n/a
62.6	0.106	125200	keystroke_r	r	n/a
62.781	0.1495	125562	keystroke_Key.space	Key.space	n/a
63.2895	0.076	126579	keystroke_s	s	n/a
64.2655	0.075	128531	keystroke_Key.backspace	Key.backspace	n/a
64.3855	0.06	128771	keystroke_c	c	n/a
64.5655	0.165	129131	keystroke_r	r	n/a
64.7005	0.12	129401	keystroke_e	e	n/a
64.8055	0.09	129611	keystroke_a	a	n/a
64.9105	0.075	129821	keystroke_t	t	n/a
65.0595	0.151	130119	keystroke_e	e	n/a
65.286	0.0445	130572	keystroke_s	s	n/a
65.5995	0.045	131199	keystroke_Key.enter	Key.enter	n/a
65.6525	15.6695	131305	prompt	n/a	greatly checklist improved fundamentals\n
67.22	0.09	134440	keystroke_g	g	n/a
67.3995	0.136	134799	keystroke_r	r	n/a
67.5055	0.1495	135011	keystroke_e	e	n/a
67.67	0.075	135340	keystroke_a	a	n/a
67.715	0.105	135430	keystroke_t	t	n/a
67.9255	0.09	135851	keystroke_l	l	n/a
68.4205	0.089	136841	keystroke_y	y	n/a
68.6145	0.15	137229	keystroke_Key.space	Key.space	n/a
68.9145	0.105	137829	keystroke_c	c	n/a
69.02	0.0755	138040	keystroke_h	h	n/a
69.0955	0.074	138191	keystroke_e	e	n/a
69.575	0.09	139150	keystroke_c	c	n/a
69.725	0.045	139450	keystroke_k	k	n/a
69.994	0.15	139988	keystroke_l	l	n/a
70.115	0.09	140230	keystroke_i	i	n/a
70.249	0.1055	140498	keystroke_s	s	n/a
70.3395	0.06	140679	keystroke_t	t	n/a
70.7445	0.105	141489	keystroke_Key.space	Key.space	n/a
71.0445	0.0905	142089	keystroke_i	i	n/a
71.225	0.1495	142450	keystroke_m	m	n/a
71.3895	0.0905	142779	keystroke_p	p	n/a
71.6	0.105	143200	keystroke_o	o	n/a
71.72	0.09	143440	keystroke_v	v	n/a
71.84	0.1045	143680	keystroke_e	e	n/a
72.0195	0.075	144039	keystroke_d	d	n/a
72.4395	0.09	144879	keystroke_Key.space	Key.space	n/a
72.7845	0.09	145569	keystroke_f	f	n/a
73.0395	0.075	146079	keystroke_u	u	n/a
73.2945	0.075	146589	keystroke_n	n	n/a
74.9735	0.03	149947	keystroke_Key.backspace	Key.backspace	n/a
75.1085	0.046	150217	keystroke_Key.backspace	Key.backspace	n/a
75.2585	0.046	150517	keystroke_Key.backspace	Key.backspace	n/a
75.4085	0.046	150817	keystroke_Key.backspace	Key.backspace	n/a
75.5585	0.046	151117	keystroke_Key.backspace	Key.backspace	n/a
75.7085	0.06	151417	keystroke_Key.backspace	Key.backspace	n/a
75.8435	0.0605	151687	keystroke_Key.backspace	Key.backspace	n/a
76.5045	0.0445	153009	keystroke_Key.backspace	Key.backspace	n/a
76.759	0.075	153518	keystroke_r	r	n/a
76.924	0.12	153848	keystroke_o	o	n/a
77.134	0.06	154268	keystroke_v	v	n/a
77.254	0.075	154508	keystroke_e	e	n/a
77.434	0.06	154868	keystroke_d	d	n/a
77.539	0.105	155078	keystroke_Key.space	Key.space	n/a
78.304	0.075	156608	keystroke_f	f	n/a
78.484	0.06	156968	keystroke_u	u	n/a
78.679	0.09	157358	keystroke_n	n	n/a
78.829	0.09	157658	keystroke_d	d	n/a
78.934	0.075	157868	keystroke_a	a	n/a
79.9535	0.09	159907	keystroke_m	m	n/a
80.0735	0.0905	160147	keystroke_e	e	n/a
80.179	0.1055	160358	keystroke_n	n	n/a
80.268	0.06	160536	keystroke_t	t	n/a
80.374	0.06	160748	keystroke_a	a	n/a
80.554	0.09	161108	keystroke_l	l	n/a
81.109	0.06	162218	keystroke_s	s	n/a
81.229	0.089	162458	keystroke_Key.enter	Key.enter	n/a
81.3275	11.1835	162655	prompt	n/a	surfing cameras anatomy approximate\n
82.368	0.075	164736	keystroke_s	s	n/a
82.5185	0.1055	165037	keystroke_u	u	n/a
82.6985	0.06	165397	keystroke_r	r	n/a
82.9385	0.075	165877	keystroke_f	f	n/a
83.0435	0.15	166087	keystroke_i	i	n/a
83.1335	0.105	166267	keystroke_n	n	n/a
83.2385	0.075	166477	keystroke_g	g	n/a
83.3735	0.09	166747	keystroke_Key.space	Key.space	n/a
84.1985	0.1045	168397	keystroke_c	c	n/a
84.318	0.09	168636	keystroke_a	a	n/a
84.468	0.12	168936	keystroke_m	m	n/a
84.5735	0.1345	169147	keystroke_e	e	n/a
84.6485	0.1355	169297	keystroke_r	r	n/a
84.9035	0.12	169807	keystroke_a	a	n/a
85.0835	0.0445	170167	keystroke_s	s	n/a
85.203	0.135	170406	keystroke_Key.space	Key.space	n/a
85.473	0.0745	170946	keystroke_a	a	n/a
85.5625	0.12	171125	keystroke_n	n	n/a
86.0425	0.075	172085	keystroke_a	a	n/a
86.2825	0.075	172565	keystroke_t	t	n/a
86.3875	0.121	172775	keystroke_o	o	n/a
86.5535	0.09	173107	keystroke_m	m	n/a
86.8385	0.06	173677	keystroke_y	y	n/a
87.3785	0.089	174757	keystroke_Key.space	Key.space	n/a
87.9035	0.015	175807	keystroke_a	a	n/a
88.143	0.075	176286	keystroke_p	p	n/a
88.323	0.045	176646	keystroke_p	p	n/a
88.503	0.0755	177006	keystroke_o	o	n/a
88.6235	0.075	177247	keystroke_r	r	n/a
89.7485	0.089	179497	keystroke_o	o	n/a
90.3325	0.075	180665	keystroke_x	x	n/a
90.4525	0.1055	180905	keystroke_i	i	n/a
91.1875	0.135	182375	keystroke_m	m	n/a
91.3675	0.12	182735	keystroke_a	a	n/a
91.5035	0.1045	183007	keystroke_t	t	n/a
91.6225	0.06	183245	keystroke_e	e	n/a
92.4625	0.0445	184925	keystroke_Key.enter	Key.enter	n/a
92.518	7.9875	185036	prompt	n/a	volvo companies aims winning\n
93.573	0.0895	187146	keystroke_v	v	n/a
93.7085	0.059	187417	keystroke_o	o	n/a
93.9175	0.06	187835	keystroke_l	l	n/a
94.083	0.09	188166	keystroke_v	v	n/a
94.3675	0.0905	188735	keystroke_o	o	n/a
94.6525	0.105	189305	keystroke_Key.space	Key.space	n/a
95.4475	0.075	190895	keystroke_c	c	n/a
95.6125	0.15	191225	keystroke_o	o	n/a
95.747	0.1805	191494	keystroke_m	m	n/a
95.9285	0.119	191857	keystroke_p	p	n/a
96.1225	0.06	192245	keystroke_a	a	n/a
96.2725	0.12	192545	keystroke_n	n	n/a
96.3775	0.12	192755	keystroke_i	i	n/a
96.5425	0.06	193085	keystroke_e	e	n/a
96.5875	0.105	193175	keystroke_s	s	n/a
96.8575	0.12	193715	keystroke_Key.space	Key.space	n/a
97.833	0.059	195666	keystroke_a	a	n/a
97.9525	0.195	195905	keystroke_i	i	n/a
98.133	0.119	196266	keystroke_m	m	n/a
98.297	0.0755	196594	keystroke_s	s	n/a
98.432	0.075	196864	keystroke_Key.space	Key.space	n/a
98.702	0.031	197404	keystroke_w	w	n/a
98.792	0.091	197584	keystroke_i	i	n/a
98.942	0.0605	197884	keystroke_n	n	n/a
99.1075	0.03	198215	keystroke_n	n	n/a
99.1525	0.165	198305	keystroke_i	i	n/a
99.2575	0.12	198515	keystroke_n	n	n/a
99.5125	0.075	199025	keystroke_g	g	n/a
100.412	0.09	200824	keystroke_Key.enter	Key.enter	n/a
100.5095	10.7935	201019	prompt	n/a	refers strength classical shopping\n
101.627	0.1055	203254	keystroke_r	r	n/a
101.7025	0.074	203405	keystroke_e	e	n/a
101.882	0.0595	203764	keystroke_f	f	n/a
102.0615	0.15	204123	keystroke_e	e	n/a
102.1965	0.075	204393	keystroke_r	r	n/a
102.5415	0.06	205083	keystroke_s	s	n/a
102.662	0.1205	205324	keystroke_Key.space	Key.space	n/a
102.8865	0.06	205773	keystroke_s	s	n/a
103.0225	0.074	206045	keystroke_t	t	n/a
103.202	0.1195	206404	keystroke_r	r	n/a
103.6215	0.09	207243	keystroke_e	e	n/a
103.8015	0.0755	207603	keystroke_b	b	n/a
104.432	0.059	208864	keystroke_Key.backspace	Key.backspace	n/a
104.687	0.09	209374	keystroke_n	n	n/a
105.302	0.105	210604	keystroke_g	g	n/a
105.466	0.075	210932	keystroke_h	h	n/a
106.127	0.06	212254	keystroke_Key.backspace	Key.backspace	n/a
106.262	0.06	212524	keystroke_t	t	n/a
106.367	0.0745	212734	keystroke_h	h	n/a
106.6665	0.105	213333	keystroke_Key.space	Key.space	n/a
107.3865	0.015	214773	keystroke_c	c	n/a
107.4155	0.1065	214831	keystroke_l	l	n/a
107.522	0.075	215044	keystroke_a	a	n/a
107.702	0.044	215404	keystroke_s	s	n/a
107.8505	0.045	215701	keystroke_s	s	n/a
107.9115	0.0745	215823	keystroke_i	i	n/a
108.017	0.0885	216034	keystroke_c	c	n/a
108.0765	0.075	216153	keystroke_a	a	n/a
108.707	0.059	217414	keystroke_l	l	n/a
108.9015	0.0895	217803	keystroke_Key.space	Key.space	n/a
109.4265	0.075	218853	keystroke_s	s	n/a
109.5165	0.12	219033	keystroke_h	h	n/a
109.622	0.1195	219244	keystroke_o	o	n/a
110.5815	0.06	221163	keystroke_p	p	n/a
110.7315	0.059	221463	keystroke_p	p	n/a
110.8815	0.134	221763	keystroke_i	i	n/a
110.9865	0.12	221973	keystroke_n	n	n/a
111.107	0.074	222214	keystroke_g	g	n/a
111.226	0.075	222452	keystroke_Key.enter	Key.enter	n/a
111.307	10.826	222614	prompt	n/a	justin understand causing jelsoft\n
112.3065	0.075	224613	keystroke_j	j	n/a
112.5015	0.089	225003	keystroke_u	u	n/a
112.5755	0.09	225151	keystroke_s	s	n/a
112.7105	0.135	225421	keystroke_i	i	n/a
112.8155	0.106	225631	keystroke_n	n	n/a
112.9355	0.12	225871	keystroke_Key.space	Key.space	n/a
113.1905	0.075	226381	keystroke_u	u	n/a
113.4155	0.0455	226831	keystroke_n	n	n/a
113.7465	0.044	227493	keystroke_Key.backspace	Key.backspace	n/a
113.8805	0.06	227761	keystroke_Key.backspace	Key.backspace	n/a
114.0155	0.06	228031	keystroke_Key.backspace	Key.backspace	n/a
114.1505	0.046	228301	keystroke_Key.backspace	Key.backspace	n/a
114.2715	0.059	228543	keystroke_Key.backspace	Key.backspace	n/a
114.3755	0.075	228751	keystroke_t	t	n/a
114.5255	0.135	229051	keystroke_i	i	n/a
114.6005	0.1505	229201	keystroke_n	n	n/a
114.7655	0.09	229531	keystroke_Key.space	Key.space	n/a
114.8855	0.105	229771	keystroke_u	u	n/a
115.0955	0.09	230191	keystroke_n	n	n/a
115.2155	0.075	230431	keystroke_d	d	n/a
115.411	0.135	230822	keystroke_e	e	n/a
115.486	0.12	230972	keystroke_r	r	n/a
116.191	0.075	232382	keystroke_s	s	n/a
116.326	0.1055	232652	keystroke_t	t	n/a
116.4155	0.1055	232831	keystroke_a	a	n/a
116.5365	0.074	233073	keystroke_n	n	n/a
116.6555	0.0905	233311	keystroke_d	d	n/a
116.7755	0.09	233551	keystroke_Key.space	Key.space	n/a
116.956	0.1045	233912	keystroke_c	c	n/a
117.076	0.09	234152	keystroke_a	a	n/a
117.18	0.091	234360	keystroke_u	u	n/a
117.3	0.076	234600	keystroke_s	s	n/a
117.4205	0.1195	234841	keystroke_i	i	n/a
117.525	0.1065	235050	keystroke_n	n	n/a
117.646	0.044	235292	keystroke_g	g	n/a
117.84	0.09	235680	keystroke_Key.space	Key.space	n/a
119.8655	0.105	239731	keystroke_j	j	n/a
119.985	0.06	239970	keystroke_e	e	n/a
120.135	0.0905	240270	keystroke_l	l	n/a
120.915	0.075	241830	keystroke_s	s	n/a
121.065	0.091	242130	keystroke_o	o	n/a
121.17	0.045	242340	keystroke_f	f	n/a
121.3805	0.075	242761	keystroke_t	t	n/a
121.9955	0.135	243991	keystroke_Key.enter	Key.enter	n/a
122.138	5.664	244276	prompt	n/a	suppose recordings so assurance\n
122.8355	0.06	245671	keystroke_s	s	n/a
122.9405	0.09	245881	keystroke_u	u	n/a
123.1205	0.03	246241	keystroke_p	p	n/a
123.2405	0.06	246481	keystroke_p	p	n/a
123.3755	0.105	246751	keystroke_o	o	n/a
123.5105	0.135	247021	keystroke_s	s	n/a
123.6305	0.075	247261	keystroke_e	e	n/a
123.7205	0.12	247441	keystroke_Key.space	Key.space	n/a
123.9005	0.165	247801	keystroke_r	r	n/a
124.0355	0.075	248071	keystroke_e	e	n/a
124.2005	0.075	248401	keystroke_c	c	n/a
124.2905	0.09	248581	keystroke_o	o	n/a
124.4105	0.09	248821	keystroke_r	r	n/a
124.6055	0.0745	249211	keystroke_d	d	n/a
124.725	0.1205	249450	keystroke_i	i	n/a
124.8005	0.12	249601	keystroke_n	n	n/a
124.9055	0.0595	249811	keystroke_g	g	n/a
125.055	0.09	250110	keystroke_s	s	n/a
125.205	0.09	250410	keystroke_Key.space	Key.space	n/a
125.34	0.075	250680	keystroke_s	s	n/a
125.46	0.105	250920	keystroke_o	o	n/a
125.595	0.09	251190	keystroke_Key.space	Key.space	n/a
125.79	0.06	251580	keystroke_a	a	n/a
126.15	0.0595	252300	keystroke_s	s	n/a
126.2845	0.075	252569	keystroke_s	s	n/a
126.9445	0.12	253889	keystroke_u	u	n/a
127.0795	0.03	254159	keystroke_r	r	n/a
127.1255	0.089	254251	keystroke_a	a	n/a
127.2895	0.075	254579	keystroke_n	n	n/a
127.425	0.0895	254850	keystroke_c	c	n/a
127.5145	0.0605	255029	keystroke_e	e	n/a
127.725	0.075	255450	keystroke_Key.enter	Key.enter	n/a
127.807	9.219	255614	prompt	n/a	syntax points partnership helen\n
129.4205	0.0745	258841	keystroke_s	s	n/a
129.7645	0.1055	259529	keystroke_y	y	n/a
130.1695	0.0755	260339	keystroke_n	n	n/a
130.3495	0.0755	260699	keystroke_t	t	n/a
130.4395	0.075	260879	keystroke_a	a	n/a
131.325	0.0755	262650	keystroke_x	x	n/a
131.4145	0.1055	262829	keystroke_Key.space	Key.space	n/a
131.6545	0.0605	263309	keystroke_p	p	n/a
131.85	0.15	263700	keystroke_o	o	n/a
131.97	0.165	263940	keystroke_i	i	n/a
132.105	0.1205	264210	keystroke_n	n	n/a
132.2095	0.075	264419	keystroke_t	t	n/a
132.3445	0.09	264689	keystroke_s	s	n/a
132.915	0.105	265830	keystroke_Key.space	Key.space	n/a
133.35	0.045	266700	keystroke_p	p	n/a
133.4095	0.075	266819	keystroke_a	a	n/a
133.545	0.06	267090	keystroke_r	r	n/a
134.1595	0.075	268319	keystroke_t	t	n/a
134.325	0.075	268650	keystroke_n	n	n/a
134.415	0.15	268830	keystroke_e	e	n/a
134.535	0.09	269070	keystroke_r	r	n/a
134.745	0.09	269490	keystroke_s	s	n/a
134.85	0.12	269700	keystroke_h	h	n/a
134.985	0.105	269970	keystroke_i	i	n/a
135.18	0.0595	270360	keystroke_p	p	n/a
135.7195	0.09	271439	keystroke_Key.space	Key.space	n/a
135.8395	0.1055	271679	keystroke_h	h	n/a
135.9595	0.045	271919	keystroke_e	e	n/a
136.095	0.0445	272190	keystroke_l	l	n/a
136.1845	0.045	272369	keystroke_e	e	n/a
136.5595	0.075	273119	keystroke_n	n	n/a
136.9795	0.045	273959	keystroke_Key.enter	Key.enter	n/a
137.0395	8.566	274079	prompt	n/a	median papers periodically returned\n
137.9245	0.0895	275849	keystroke_m	m	n/a
138.059	0.075	276118	keystroke_e	e	n/a
138.2395	0.075	276479	keystroke_d	d	n/a
138.2995	0.075	276599	keystroke_i	i	n/a
139.1695	0.0595	278339	keystroke_a	a	n/a
139.289	0.135	278578	keystroke_n	n	n/a
139.439	0.1045	278878	keystroke_Key.space	Key.space	n/a
139.694	0.0745	279388	keystroke_p	p	n/a
139.799	0.0595	279598	keystroke_a	a	n/a
139.9485	0.06	279897	keystroke_p	p	n/a
140.0535	0.135	280107	keystroke_e	e	n/a
140.144	0.0895	280288	keystroke_r	r	n/a
140.564	0.0745	281128	keystroke_s	s	n/a
140.654	0.1345	281308	keystroke_Key.space	Key.space	n/a
141.179	0.1205	282358	keystroke_p	p	n/a
141.3285	0.076	282657	keystroke_e	e	n/a
141.3745	0.105	282749	keystroke_r	r	n/a
141.5245	0.149	283049	keystroke_i	i	n/a
141.8245	0.089	283649	keystroke_o	o	n/a
142.424	0.0145	284848	keystroke_d	d	n/a
142.4545	0.0745	284909	keystroke_i	i	n/a
142.634	0.09	285268	keystroke_c	c	n/a
142.709	0.075	285418	keystroke_a	a	n/a
142.829	0.045	285658	keystroke_l	l	n/a
142.949	0.06	285898	keystroke_l	l	n/a
143.129	0.075	286258	keystroke_y	y	n/a
143.324	0.09	286648	keystroke_Key.space	Key.space	n/a
144.4645	0.074	288929	keystroke_r	r	n/a
144.5985	0.06	289197	keystroke_e	e	n/a
144.7635	0.0605	289527	keystroke_t	t	n/a
144.8835	0.075	289767	keystroke_u	u	n/a
145.0935	0.0755	290187	keystroke_r	r	n/a
145.1835	0.09	290367	keystroke_n	n	n/a
145.2885	0.06	290577	keystroke_e	e	n/a
145.4385	0.0755	290877	keystroke_d	d	n/a
145.529	0.075	291058	keystroke_Key.enter	Key.enter	n/a
145.609	11.6435	291218	prompt	n/a	conf persistent philadelphia reseller\n
146.519	0.075	293038	keystroke_c	c	n/a
146.609	0.18	293218	keystroke_o	o	n/a
146.744	0.12	293488	keystroke_n	n	n/a
146.909	0.09	293818	keystroke_f	f	n/a
147.089	0.09	294178	keystroke_Key.space	Key.space	n/a
147.719	0.06	295438	keystroke_p	p	n/a
148.1685	0.165	296337	keystroke_e	e	n/a
148.319	0.0745	296638	keystroke_r	r	n/a
148.5135	0.0755	297027	keystroke_s	s	n/a
148.619	0.0895	297238	keystroke_i	i	n/a
148.7385	0.0905	297477	keystroke_s	s	n/a
148.9635	0.06	297927	keystroke_t	t	n/a
149.0835	0.075	298167	keystroke_e	e	n/a
149.2335	0.105	298467	keystroke_n	n	n/a
149.3985	0.075	298797	keystroke_t	t	n/a
149.5035	0.1045	299007	keystroke_Key.space	Key.space	n/a
150.3585	0.075	300717	keystroke_p	p	n/a
150.5535	0.12	301107	keystroke_h	h	n/a
150.6885	0.1055	301377	keystroke_i	i	n/a
151.183	0.06	302366	keystroke_l	l	n/a
151.3935	0.075	302787	keystroke_e	e	n/a
153.0135	0.09	306027	keystroke_Key.backspace	Key.backspace	n/a
153.1785	0.075	306357	keystroke_a	a	n/a
153.7185	0.06	307437	keystroke_d	d	n/a
153.8985	0.06	307797	keystroke_e	e	n/a
154.0635	0.06	308127	keystroke_l	l	n/a
154.2435	0.075	308487	keystroke_p	p	n/a
154.4685	0.105	308937	keystroke_h	h	n/a
155.1285	0.075	310257	keystroke_i	i	n/a
155.2325	0.061	310465	keystroke_a	a	n/a
155.728	0.1045	311456	keystroke_Key.space	Key.space	n/a
156.1335	0.1045	312267	keystroke_r	r	n/a
156.223	0.09	312446	keystroke_e	e	n/a
156.403	0.12	312806	keystroke_s	s	n/a
156.508	0.09	313016	keystroke_e	e	n/a
156.718	0.06	313436	keystroke_l	l	n/a
156.883	0.045	313766	keystroke_l	l	n/a
156.958	0.105	313916	keystroke_e	e	n/a
157.048	0.09	314096	keystroke_r	r	n/a
157.168	0.075	314336	keystroke_Key.enter	Key.enter	n/a
157.2615	10.926	314523	prompt	n/a	revelation duty courses specify\n
158.0975	0.1055	316195	keystroke_r	r	n/a
158.188	0.06	316376	keystroke_e	e	n/a
158.398	0.0905	316796	keystroke_v	v	n/a
159.6725	0.0595	319345	keystroke_e	e	n/a
159.852	0.12	319704	keystroke_l	l	n/a
159.9565	0.0755	319913	keystroke_a	a	n/a
160.047	0.075	320094	keystroke_t	t	n/a
160.1375	0.119	320275	keystroke_i	i	n/a
160.2115	0.165	320423	keystroke_o	o	n/a
160.3315	0.135	320663	keystroke_n	n	n/a
160.481	0.1055	320962	keystroke_Key.space	Key.space	n/a
160.8265	0.0745	321653	keystroke_d	d	n/a
160.961	0.0905	321922	keystroke_u	u	n/a
161.1415	0.0745	322283	keystroke_t	t	n/a
161.2465	0.104	322493	keystroke_y	y	n/a
161.8605	0.1045	323721	keystroke_Key.space	Key.space	n/a
162.1905	0.0895	324381	keystroke_c	c	n/a
162.295	0.1345	324590	keystroke_o	o	n/a
162.4	0.1045	324800	keystroke_u	u	n/a
162.5345	0.061	325069	keystroke_r	r	n/a
163.749	0.075	327498	keystroke_s	s	n/a
163.928	0.0755	327856	keystroke_e	e	n/a
164.0935	0.075	328187	keystroke_s	s	n/a
164.453	0.105	328906	keystroke_Key.space	Key.space	n/a
164.768	0.135	329536	keystroke_r	r	n/a
164.873	0.075	329746	keystroke_e	e	n/a
165.3075	0.0605	330615	keystroke_Key.backspace	Key.backspace	n/a
165.442	0.06	330884	keystroke_Key.backspace	Key.backspace	n/a
165.5325	0.0745	331065	keystroke_s	s	n/a
165.728	0.104	331456	keystroke_p	p	n/a
166.072	0.0755	332144	keystroke_e	e	n/a
167.436	0.1195	334872	keystroke_c	c	n/a
167.6315	0.1345	335263	keystroke_i	i	n/a
167.811	0.0895	335622	keystroke_f	f	n/a
167.9455	0.0755	335891	keystroke_y	y	n/a
168.11	0.076	336220	keystroke_Key.enter	Key.enter	n/a
168.192	12.9815	336384	prompt	n/a	legally volt underground broadband\n
170.4655	0.029	340931	keystroke_l	l	n/a
170.5385	0.09	341077	keystroke_e	e	n/a
170.7785	0.09	341557	keystroke_f	f	n/a
170.8985	0.09	341797	keystroke_a	a	n/a
171.0485	0.0605	342097	keystroke_l	l	n/a
171.198	0.075	342396	keystroke_l	l	n/a
171.4835	0.09	342967	keystroke_y	y	n/a
172.1275	0.0155	344255	keystroke_Key.backspace	Key.backspace	n/a
172.1575	0.015	344315	keystroke_Key.backspace	Key.backspace	n/a
172.218	0.06	344436	keystroke_Key.backspace	Key.backspace	n/a
172.368	0.045	344736	keystroke_Key.backspace	Key.backspace	n/a
172.488	0.045	344976	keystroke_Key.backspace	Key.backspace	n/a
172.563	0.075	345126	keystroke_g	g	n/a
172.653	0.045	345306	keystroke_a	a	n/a
172.788	0.09	345576	keystroke_l	l	n/a
173.222	0.0455	346444	keystroke_l	l	n/a
173.4025	0.075	346805	keystroke_y	y	n/a
173.5825	0.089	347165	keystroke_Key.space	Key.space	n/a
175.202	0.0745	350404	keystroke_v	v	n/a
175.306	0.0755	350612	keystroke_o	o	n/a
175.516	0.0755	351032	keystroke_l	l	n/a
175.9065	0.0745	351813	keystroke_t	t	n/a
176.0265	0.105	352053	keystroke_Key.space	Key.space	n/a
177.1665	0.0155	354333	keystroke_u	u	n/a
177.2265	0.015	354453	keystroke_n	n	n/a
177.256	0.015	354512	keystroke_d	d	n/a
177.3765	0.15	354753	keystroke_e	e	n/a
177.4665	0.09	354933	keystroke_r	r	n/a
177.6765	0.075	355353	keystroke_g	g	n/a
177.8865	0.075	355773	keystroke_r	r	n/a
178.4865	0.165	356973	keystroke_o	o	n/a
178.6215	0.075	357243	keystroke_u	u	n/a
178.816	0.0905	357632	keystroke_n	n	n/a
178.8915	0.06	357783	keystroke_d	d	n/a
179.0715	0.105	358143	keystroke_Key.space	Key.space	n/a
179.807	0.1045	359614	keystroke_b	b	n/a
180.062	0.0585	360124	keystroke_r	r	n/a
180.1365	0.105	360273	keystroke_o	o	n/a
180.2715	0.06	360543	keystroke_a	a	n/a
180.467	0.059	360934	keystroke_d	d	n/a
180.691	0.0755	361382	keystroke_b	b	n/a
180.796	0.061	361592	keystroke_a	a	n/a
180.887	0.09	361774	keystroke_n	n	n/a
180.992	0.06	361984	keystroke_d	d	n/a
181.097	0.0735	362194	keystroke_Key.enter	Key.enter	n/a
181.177	5.381	362354	prompt	n/a	forced scared refer risks\n
181.8915	0.0745	363783	keystroke_f	f	n/a
181.996	0.0905	363992	keystroke_o	o	n/a
182.161	0.0755	364322	keystroke_r	r	n/a
182.371	0.105	364742	keystroke_c	c	n/a
182.491	0.09	364982	keystroke_e	e	n/a
182.6865	0.059	365373	keystroke_d	d	n/a
182.836	0.075	365672	keystroke_Key.space	Key.space	n/a
183.166	0.045	366332	keystroke_a	a	n/a
183.541	0.075	367082	keystroke_Key.backspace	Key.backspace	n/a
183.646	0.0745	367292	keystroke_s	s	n/a
183.766	0.12	367532	keystroke_c	c	n/a
183.9165	0.1205	367833	keystroke_a	a	n/a
184.051	0.1195	368102	keystroke_r	r	n/a
184.1415	0.089	368283	keystroke_e	e	n/a
184.3205	0.0755	368641	keystroke_d	d	n/a
184.4865	0.0895	368973	keystroke_Key.space	Key.space	n/a
184.7715	0.12	369543	keystroke_r	r	n/a
184.8765	0.06	369753	keystroke_e	e	n/a
185.0265	0.075	370053	keystroke_f	f	n/a
185.2065	0.135	370413	keystroke_e	e	n/a
185.3265	0.09	370653	keystroke_r	r	n/a
185.4465	0.105	370893	keystroke_Key.space	Key.space	n/a
185.852	0.0745	371704	keystroke_r	r	n/a
185.9415	0.075	371883	keystroke_i	i	n/a
186.0915	0.075	372183	keystroke_s	s	n/a
186.1965	0.1045	372393	keystroke_k	k	n/a
186.3165	0.06	372633	keystroke_s	s	n/a
186.4665	0.0895	372933	keystroke_Key.enter	Key.enter	n/a
186.5615	9.027	373123	prompt	n/a	complicated equipped times recording\n
187.6955	0.105	375391	keystroke_c	c	n/a
187.802	0.089	375604	keystroke_o	o	n/a
187.861	0.1055	375722	keystroke_m	m	n/a
188.0115	0.075	376023	keystroke_p	p	n/a
188.191	0.075	376382	keystroke_l	l	n/a
188.3415	0.075	376683	keystroke_i	i	n/a
188.4315	0.09	376863	keystroke_c	c	n/a
188.5365	0.135	377073	keystroke_a	a	n/a
188.686	0.075	377372	keystroke_t	t	n/a
188.8365	0.075	377673	keystroke_e	e	n/a
189.001	0.075	378002	keystroke_d	d	n/a
189.1205	0.1205	378241	keystroke_Key.space	Key.space	n/a
190.037	0.0595	380074	keystroke_q	q	n/a
190.4105	0.0605	380821	keystroke_Key.backspace	Key.backspace	n/a
190.891	0.0605	381782	keystroke_e	e	n/a
191.1165	0.075	382233	keystroke_q	q	n/a
191.2965	0.12	382593	keystroke_u	u	n/a
191.4015	0.105	382803	keystroke_i	i	n/a
191.5965	0.06	383193	keystroke_p	p	n/a
191.731	0.0755	383462	keystroke_p	p	n/a
191.837	0.044	383674	keystroke_e	e	n/a
191.9715	0.06	383943	keystroke_d	d	n/a
192.0465	0.09	384093	keystroke_Key.space	Key.space	n/a
193.231	0.09	386462	keystroke_t	t	n/a
193.336	0.225	386672	keystroke_i	i	n/a
193.531	0.135	387062	keystroke_m	m	n/a
193.696	0.12	387392	keystroke_e	e	n/a
193.786	0.09	387572	keystroke_s	s	n/a
193.906	0.135	387812	keystroke_Key.space	Key.space	n/a
194.026	0.12	388052	keystroke_r	r	n/a
194.116	0.075	388232	keystroke_e	e	n/a
194.356	0.1055	388712	keystroke_c	c	n/a
194.4465	0.09	388893	keystroke_o	o	n/a
194.5815	0.1055	389163	keystroke_r	r	n/a
194.776	0.09	389552	keystroke_d	d	n/a
194.8815	0.18	389763	keystroke_i	i	n/a
194.9865	0.165	389973	keystroke_n	n	n/a
195.1665	0.0595	390333	keystroke_g	g	n/a
195.5115	0.075	391023	keystroke_Key.enter	Key.enter	n/a
195.593	4.4345	391186	prompt	n/a	change online anne buys\n
196.381	0.0755	392762	keystroke_c	c	n/a
196.441	0.121	392882	keystroke_h	h	n/a
196.5465	0.0905	393093	keystroke_a	a	n/a
196.6515	0.12	393303	keystroke_n	n	n/a
196.7565	0.075	393513	keystroke_g	g	n/a
196.9215	0.075	393843	keystroke_e	e	n/a
197.4755	0.1205	394951	keystroke_Key.space	Key.space	n/a
197.597	0.119	395194	keystroke_o	o	n/a
197.746	0.09	395492	keystroke_n	n	n/a
197.8955	0.121	395791	keystroke_l	l	n/a
198.0315	0.1495	396063	keystroke_i	i	n/a
198.1665	0.1645	396333	keystroke_n	n	n/a
198.346	0.0455	396692	keystroke_e	e	n/a
198.4215	0.0895	396843	keystroke_Key.space	Key.space	n/a
198.496	0.0605	396992	keystroke_a	a	n/a
198.6015	0.06	397203	keystroke_n	n	n/a
198.737	0.0595	397474	keystroke_n	n	n/a
198.8565	0.06	397713	keystroke_e	e	n/a
198.9315	0.09	397863	keystroke_Key.space	Key.space	n/a
199.141	0.075	398282	keystroke_b	b	n/a
199.3365	0.075	398673	keystroke_u	u	n/a
199.5755	0.075	399151	keystroke_y	y	n/a
199.7115	0.075	399423	keystroke_s	s	n/a
199.966	0.0595	399932	keystroke_Key.enter	Key.enter	n/a
200.0335	8.5	400067	prompt	n/a	assembly legal feed powell\n
200.762	0.045	401524	keystroke_a	a	n/a
200.9265	0.06	401853	keystroke_s	s	n/a
201.091	0.0455	402182	keystroke_s	s	n/a
201.196	0.091	402392	keystroke_e	e	n/a
201.331	0.135	402662	keystroke_m	m	n/a
202.3515	0.044	404703	keystroke_b	b	n/a
202.4715	0.09	404943	keystroke_l	l	n/a
203.0855	0.076	406171	keystroke_y	y	n/a
203.2515	0.135	406503	keystroke_Key.space	Key.space	n/a
203.7165	0.1045	407433	keystroke_l	l	n/a
204.0915	0.12	408183	keystroke_e	e	n/a
204.3165	0.075	408633	keystroke_f	f	n/a
204.5565	0.045	409113	keystroke_a	a	n/a
204.7205	0.046	409441	keystroke_l	l	n/a
205.0365	0.06	410073	keystroke_Key.backspace	Key.backspace	n/a
205.1715	0.06	410343	keystroke_Key.backspace	Key.backspace	n/a
205.2905	0.0755	410581	keystroke_Key.backspace	Key.backspace	n/a
205.3955	0.061	410791	keystroke_g	g	n/a
205.4565	0.045	410913	keystroke_a	a	n/a
205.5615	0.09	411123	keystroke_l	l	n/a
206.1605	0.121	412321	keystroke_Key.space	Key.space	n/a
206.2965	0.1055	412593	keystroke_f	f	n/a
206.4765	0.075	412953	keystroke_e	e	n/a
206.641	0.075	413282	keystroke_e	e	n/a
206.791	0.075	413582	keystroke_d	d	n/a
206.851	0.12	413702	keystroke_Key.space	Key.space	n/a
207.0315	0.104	414063	keystroke_p	p	n/a
207.4965	0.0745	414993	keystroke_o	o	n/a
207.646	0.1355	415292	keystroke_w	w	n/a
207.7665	0.1045	415533	keystroke_e	e	n/a
208.096	0.06	416192	keystroke_l	l	n/a
208.2315	0.075	416463	keystroke_l	l	n/a
208.4565	0.075	416913	keystroke_Key.enter	Key.enter	n/a
208.5375	8.9955	417075	prompt	n/a	journey shows opposite rugs\n
209.9115	0.134	419823	keystroke_j	j	n/a
210.076	0.1955	420152	keystroke_o	o	n/a
210.2565	0.075	420513	keystroke_u	u	n/a
210.7065	0.075	421413	keystroke_r	r	n/a
210.812	0.0895	421624	keystroke_n	n	n/a
210.931	0.09	421862	keystroke_e	e	n/a
211.066	0.105	422132	keystroke_y	y	n/a
211.216	0.12	422432	keystroke_Key.space	Key.space	n/a
211.546	0.0905	423092	keystroke_s	s	n/a
211.621	0.09	423242	keystroke_h	h	n/a
211.727	0.1495	423454	keystroke_o	o	n/a
212.6115	0.06	425223	keystroke_w	w	n/a
213.2115	0.075	426423	keystroke_s	s	n/a
213.301	0.135	426602	keystroke_Key.space	Key.space	n/a
213.616	0.06	427232	keystroke_o	o	n/a
213.811	0.06	427622	keystroke_p	p	n/a
213.946	0.06	427892	keystroke_p	p	n/a
214.126	0.0605	428252	keystroke_o	o	n/a
214.231	0.06	428462	keystroke_s	s	n/a
214.366	0.0905	428732	keystroke_t	t	n/a
214.441	0.091	428882	keystroke_i	i	n/a
214.621	0.075	429242	keystroke_e	e	n/a
214.7115	0.1045	429423	keystroke_Key.space	Key.space	n/a
215.371	0.015	430742	keystroke_Key.backspace	Key.backspace	n/a
215.461	0.06	430922	keystroke_Key.backspace	Key.backspace	n/a
215.596	0.045	431192	keystroke_Key.backspace	Key.backspace	n/a
215.8955	0.06	431791	keystroke_Key.backspace	Key.backspace	n/a
216.1055	0.076	432211	keystroke_i	i	n/a
216.2415	0.045	432483	keystroke_t	t	n/a
216.3615	0.075	432723	keystroke_e	e	n/a
216.466	0.1055	432932	keystroke_Key.space	Key.space	n/a
216.7815	0.0745	433563	keystroke_r	r	n/a
216.8715	0.075	433743	keystroke_u	u	n/a
217.0205	0.075	434041	keystroke_g	g	n/a
217.1705	0.076	434341	keystroke_s	s	n/a
217.4565	0.075	434913	keystroke_Key.enter	Key.enter	n/a
217.5365	8.1115	435073	prompt	n/a	fired protecting protocols carter\n
219.1815	0.0745	438363	keystroke_f	f	n/a
219.2865	0.09	438573	keystroke_i	i	n/a
219.4205	0.1505	438841	keystroke_r	r	n/a
219.556	0.09	439112	keystroke_e	e	n/a
219.766	0.075	439532	keystroke_d	d	n/a
219.871	0.1495	439742	keystroke_Key.space	Key.space	n/a
220.3355	0.0755	440671	keystroke_p	p	n/a
220.456	0.0755	440912	keystroke_r	r	n/a
220.546	0.09	441092	keystroke_o	o	n/a
220.651	0.045	441302	keystroke_t	t	n/a
220.7705	0.0755	441541	keystroke_e	e	n/a
220.9365	0.075	441873	keystroke_c	c	n/a
221.116	0.06	442232	keystroke_t	t	n/a
221.206	0.165	442412	keystroke_i	i	n/a
221.341	0.105	442682	keystroke_n	n	n/a
221.476	0.075	442952	keystroke_g	g	n/a
221.626	0.105	443252	keystroke_Key.space	Key.space	n/a
222.2555	0.135	444511	keystroke_p	p	n/a
222.4055	0.0755	444811	keystroke_r	r	n/a
222.496	0.075	444992	keystroke_o	o	n/a
222.676	0.0755	445352	keystroke_t	t	n/a
222.781	0.0895	445562	keystroke_o	o	n/a
222.9615	0.075	445923	keystroke_c	c	n/a
223.6505	0.0755	447301	keystroke_o	o	n/a
223.846	0.0755	447692	keystroke_l	l	n/a
224.0115	0.0895	448023	keystroke_s	s	n/a
224.131	0.075	448262	keystroke_Key.space	Key.space	n/a
224.3715	0.0745	448743	keystroke_c	c	n/a
224.491	0.1345	448982	keystroke_a	a	n/a
224.5955	0.076	449191	keystroke_r	r	n/a
225.2265	0.105	450453	keystroke_t	t	n/a
225.4065	0.074	450813	keystroke_e	e	n/a
225.4655	0.061	450931	keystroke_r	r	n/a
225.5555	0.0905	451111	keystroke_Key.enter	Key.enter	n/a
225.6515	8.2915	451303	prompt	n/a	casual diana grand short\n
226.5165	0.075	453033	keystroke_a	a	n/a
226.9065	0.06	453813	keystroke_Key.backspace	Key.backspace	n/a
226.9815	0.1195	453963	keystroke_c	c	n/a
227.0865	0.0895	454173	keystroke_a	a	n/a
227.221	0.12	454442	keystroke_u	u	n/a
227.416	0.0605	454832	keystroke_s	s	n/a
228.541	0.0455	457082	keystroke_Key.backspace	Key.backspace	n/a
228.706	0.0305	457412	keystroke_Key.backspace	Key.backspace	n/a
229.141	0.091	458282	keystroke_s	s	n/a
229.291	0.06	458582	keystroke_u	u	n/a
229.906	0.045	459812	keystroke_a	a	n/a
229.996	0.195	459992	keystroke_l	l	n/a
230.131	0.12	460262	keystroke_Key.space	Key.space	n/a
230.5815	0.074	461163	keystroke_d	d	n/a
230.7155	0.105	461431	keystroke_i	i	n/a
230.8065	0.089	461613	keystroke_a	a	n/a
230.9565	0.089	461913	keystroke_n	n	n/a
231.301	0.0755	462602	keystroke_a	a	n/a
231.4655	0.105	462931	keystroke_Key.space	Key.space	n/a
232.2905	0.061	464581	keystroke_g	g	n/a
232.4715	0.105	464943	keystroke_r	r	n/a
232.591	0.075	465182	keystroke_a	a	n/a
232.6965	0.135	465393	keystroke_n	n	n/a
232.8765	0.075	465753	keystroke_d	d	n/a
233.0705	0.12	466141	keystroke_Key.space	Key.space	n/a
233.2365	0.09	466473	keystroke_s	s	n/a
233.3265	0.104	466653	keystroke_h	h	n/a
233.4455	0.12	466891	keystroke_o	o	n/a
233.5205	0.075	467041	keystroke_r	r	n/a
233.6865	0.075	467373	keystroke_t	t	n/a
233.866	0.075	467732	keystroke_Key.enter	Key.enter	n/a
233.9465	24.9715	467893	prompt	n/a	stats france texture cornwall\n
234.9915	0.06	469983	keystroke_s	s	n/a
235.1565	0.044	470313	keystroke_t	t	n/a
235.2315	0.105	470463	keystroke_a	a	n/a
235.3815	0.0595	470763	keystroke_t	t	n/a
235.531	0.1055	471062	keystroke_s	s	n/a
235.651	0.12	471302	keystroke_Key.space	Key.space	n/a
236.176	0.0755	472352	keystroke_f	f	n/a
236.3415	0.12	472683	keystroke_r	r	n/a
236.4455	0.12	472891	keystroke_a	a	n/a
236.6115	0.059	473223	keystroke_b	b	n/a
236.6865	0.164	473373	keystroke_c	c	n/a
236.8205	0.0905	473641	keystroke_e	e	n/a
237.001	0.1195	474002	keystroke_Key.space	Key.space	n/a
237.6155	0.045	475231	keystroke_Key.backspace	Key.backspace	n/a
237.6755	0.075	475351	keystroke_Key.backspace	Key.backspace	n/a
237.8265	0.0595	475653	keystroke_Key.backspace	Key.backspace	n/a
237.961	0.06	475922	keystroke_Key.backspace	Key.backspace	n/a
238.8615	0.09	477723	keystroke_n	n	n/a
239.0265	0.089	478053	keystroke_c	c	n/a
239.1305	0.106	478261	keystroke_e	e	n/a
239.2205	0.12	478441	keystroke_Key.space	Key.space	n/a
244.923	0.013	489846	keystroke_t	t	n/a
245.011	0.0755	490022	keystroke_e	e	n/a
246.076	0.09	492152	keystroke_x	x	n/a
246.3765	0.1045	492753	keystroke_t	t	n/a
246.586	0.075	493172	keystroke_u	u	n/a
246.691	0.1055	493382	keystroke_r	r	n/a
246.7815	0.0595	493563	keystroke_e	e	n/a
247.3365	0.134	494673	keystroke_Key.space	Key.space	n/a
247.6515	0.09	495303	keystroke_c	c	n/a
247.7565	0.105	495513	keystroke_i	i	n/a
247.9065	0.09	495813	keystroke_r	r	n/a
248.0115	0.09	496023	keystroke_b	b	n/a
248.596	0.06	497192	keystroke_Key.backspace	Key.backspace	n/a
248.746	0.045	497492	keystroke_Key.backspace	Key.backspace	n/a
248.8665	0.06	497733	keystroke_Key.backspace	Key.backspace	n/a
249.7365	0.0745	499473	keystroke_o	o	n/a
250.051	0.0755	500102	keystroke_r	r	n/a
250.186	0.075	500372	keystroke_b	b	n/a
250.516	0.0905	501032	keystroke_e	e	n/a
250.966	0.075	501932	keystroke_Key.backspace	Key.backspace	n/a
251.1015	0.0445	502203	keystroke_w	w	n/a
251.326	0.045	502652	keystroke_Key.backspace	Key.backspace	n/a
251.446	0.09	502892	keystroke_Key.backspace	Key.backspace	n/a
252.451	0.105	504902	keystroke_n	n	n/a
252.7065	0.1045	505413	keystroke_w	w	n/a
252.826	0.12	505652	keystroke_a	a	n/a
252.991	0.0605	505982	keystroke_k	k	n/a
253.1415	0.06	506283	keystroke_k	k	n/a
254.4315	0.059	508863	keystroke_Key.backspace	Key.backspace	n/a
254.7905	0.06	509581	keystroke_Key.backspace	Key.backspace	n/a
258.4075	0.001	516815	keystroke_l	l	n/a
258.5115	0.06	517023	keystroke_l	l	n/a
258.8105	0.105	517621	keystroke_Key.enter	Key.enter	n/a
258.9225	7.991	517845	prompt	n/a	selections mexican coordinates format\n
259.9505	0.0755	519901	keystroke_s	s	n/a
260.071	0.0755	520142	keystroke_e	e	n/a
260.2215	0.0745	520443	keystroke_l	l	n/a
260.341	0.0755	520682	keystroke_e	e	n/a
260.5065	0.045	521013	keystroke_c	c	n/a
260.6715	0.075	521343	keystroke_t	t	n/a
260.7465	0.09	521493	keystroke_i	i	n/a
260.807	0.1645	521614	keystroke_o	o	n/a
260.9415	0.135	521883	keystroke_n	n	n/a
261.106	0.105	522212	keystroke_s	s	n/a
261.226	0.12	522452	keystroke_Key.space	Key.space	n/a
261.436	0.105	522872	keystroke_m	m	n/a
261.5565	0.059	523113	keystroke_e	e	n/a
262.3365	0.06	524673	keystroke_x	x	n/a
262.4255	0.105	524851	keystroke_i	i	n/a
262.5455	0.106	525091	keystroke_c	c	n/a
262.6815	0.1045	525363	keystroke_a	a	n/a
262.771	0.1055	525542	keystroke_n	n	n/a
262.966	0.09	525932	keystroke_Key.space	Key.space	n/a
263.566	0.0905	527132	keystroke_c	c	n/a
263.7155	0.061	527431	keystroke_o	o	n/a
263.8515	0.075	527703	keystroke_o	o	n/a
263.9865	0.0745	527973	keystroke_r	r	n/a
265.0215	0.0745	530043	keystroke_d	d	n/a
265.111	0.1205	530222	keystroke_i	i	n/a
265.2455	0.136	530491	keystroke_n	n	n/a
265.3655	0.105	530731	keystroke_a	a	n/a
265.486	0.0895	530972	keystroke_t	t	n/a
265.6065	0.119	531213	keystroke_e	e	n/a
265.7415	0.105	531483	keystroke_s	s	n/a
265.8755	0.1205	531751	keystroke_Key.space	Key.space	n/a
266.071	0.045	532142	keystroke_f	f	n/a
266.132	0.1195	532264	keystroke_o	o	n/a
266.281	0.105	532562	keystroke_r	r	n/a
266.4015	0.1045	532803	keystroke_m	m	n/a
266.5365	0.075	533073	keystroke_a	a	n/a
266.702	0.074	533404	keystroke_t	t	n/a
266.836	0.075	533672	keystroke_Key.enter	Key.enter	n/a
266.918	12.535	533836	prompt	n/a	pool trinidad highlights arbitrary\n
267.677	0.0895	535354	keystroke_p	p	n/a
267.9155	0.0455	535831	keystroke_o	o	n/a
268.036	0.075	536072	keystroke_o	o	n/a
268.216	0.0755	536432	keystroke_l	l	n/a
268.3815	0.105	536763	keystroke_Key.space	Key.space	n/a
268.756	0.06	537512	keystroke_t	t	n/a
268.921	0.091	537842	keystroke_r	r	n/a
269.446	0.0905	538892	keystroke_i	i	n/a
269.626	0.0895	539252	keystroke_n	n	n/a
270.8115	0.09	541623	keystroke_i	i	n/a
270.9765	0.104	541953	keystroke_d	d	n/a
271.0965	0.2095	542193	keystroke_a	a	n/a
271.262	0.089	542524	keystroke_d	d	n/a
271.5455	0.0905	543091	keystroke_Key.space	Key.space	n/a
272.1015	0.1345	544203	keystroke_h	h	n/a
272.2815	0.075	544563	keystroke_i	i	n/a
272.3405	0.06	544681	keystroke_g	g	n/a
272.4455	0.075	544891	keystroke_h	h	n/a
272.8955	0.136	545791	keystroke_l	l	n/a
273.0155	0.136	546031	keystroke_i	i	n/a
273.1365	0.0745	546273	keystroke_g	g	n/a
273.2255	0.106	546451	keystroke_h	h	n/a
273.5105	0.045	547021	keystroke_s	s	n/a
274.2455	0.075	548491	keystroke_Key.backspace	Key.backspace	n/a
274.4115	0.09	548823	keystroke_r	r	n/a
274.6365	0.09	549273	keystroke_s	s	n/a
274.9515	0.0595	549903	keystroke_Key.backspace	Key.backspace	n/a
275.086	0.045	550172	keystroke_Key.backspace	Key.backspace	n/a
275.1315	0.074	550263	keystroke_t	t	n/a
275.236	0.09	550472	keystroke_s	s	n/a
275.431	0.09	550862	keystroke_Key.space	Key.space	n/a
276.1665	0.0905	552333	keystroke_a	a	n/a
276.5565	0.0895	553113	keystroke_r	r	n/a
277.0965	0.105	554193	keystroke_b	b	n/a
277.3215	0.075	554643	keystroke_i	i	n/a
277.5765	0.0895	555153	keystroke_t	t	n/a
277.786	0.075	555572	keystroke_r	r	n/a
277.891	0.0905	555782	keystroke_a	a	n/a
278.191	0.09	556382	keystroke_r	r	n/a
279.166	0.0905	558332	keystroke_y	y	n/a
279.361	0.09	558722	keystroke_Key.enter	Key.enter	n/a
279.458	9.5355	558916	prompt	n/a	coaching slope toyota levy\n
280.3065	0.12	560613	keystroke_c	c	n/a
280.4415	0.09	560883	keystroke_o	o	n/a
280.5615	0.0895	561123	keystroke_a	a	n/a
280.7115	0.1045	561423	keystroke_c	c	n/a
280.801	0.1055	561602	keystroke_h	h	n/a
280.9215	0.15	561843	keystroke_i	i	n/a
281.0265	0.104	562053	keystroke_n	n	n/a
281.1465	0.074	562293	keystroke_g	g	n/a
281.251	0.1195	562502	keystroke_Key.space	Key.space	n/a
281.6715	0.0745	563343	keystroke_s	s	n/a
282.2715	0.0595	564543	keystroke_l	l	n/a
282.4215	0.12	564843	keystroke_p	p	n/a
283.066	0.075	566132	keystroke_Key.backspace	Key.backspace	n/a
283.9065	0.09	567813	keystroke_o	o	n/a
284.0115	0.105	568023	keystroke_p	p	n/a
284.522	0.0745	569044	keystroke_e	e	n/a
284.6415	0.135	569283	keystroke_Key.space	Key.space	n/a
285.6465	0.075	571293	keystroke_t	t	n/a
286.2015	0.105	572403	keystroke_o	o	n/a
286.5465	0.06	573093	keystroke_y	y	n/a
286.7265	0.1055	573453	keystroke_o	o	n/a
286.967	0.105	573934	keystroke_t	t	n/a
287.086	0.0905	574172	keystroke_a	a	n/a
287.8065	0.1345	575613	keystroke_Key.space	Key.space	n/a
288.061	0.105	576122	keystroke_l	l	n/a
288.1515	0.0595	576303	keystroke_e	e	n/a
288.316	0.091	576632	keystroke_v	v	n/a
288.482	0.075	576964	keystroke_y	y	n/a
288.9015	0.09	577803	keystroke_Key.enter	Key.enter	n/a
288.998	8.335	577996	prompt	n/a	python impressive cruises salem\n
290.2815	0.075	580563	keystroke_p	p	n/a
290.6265	0.075	581253	keystroke_y	y	n/a
290.807	0.0745	581614	keystroke_t	t	n/a
290.867	0.1045	581734	keystroke_h	h	n/a
290.9865	0.165	581973	keystroke_o	o	n/a
291.2115	0.135	582423	keystroke_n	n	n/a
291.3765	0.089	582753	keystroke_Key.space	Key.space	n/a
291.572	0.0895	583144	keystroke_i	i	n/a
291.7515	0.119	583503	keystroke_m	m	n/a
291.917	0.1195	583834	keystroke_p	p	n/a
292.1265	0.09	584253	keystroke_r	r	n/a
292.2015	0.09	584403	keystroke_e	e	n/a
292.3965	0.0605	584793	keystroke_s	s	n/a
292.546	0.076	585092	keystroke_s	s	n/a
292.637	0.09	585274	keystroke_i	i	n/a
292.742	0.1045	585484	keystroke_v	v	n/a
292.848	0.1035	585696	keystroke_e	e	n/a
292.9365	0.12	585873	keystroke_Key.space	Key.space	n/a
294.017	0.074	588034	keystroke_c	c	n/a
294.226	0.076	588452	keystroke_r	r	n/a
294.482	0.09	588964	keystroke_u	u	n/a
294.617	0.074	589234	keystroke_i	i	n/a
294.8265	0.09	589653	keystroke_s	s	n/a
294.9315	0.135	589863	keystroke_e	e	n/a
295.0815	0.09	590163	keystroke_s	s	n/a
295.6815	0.1045	591363	keystroke_Key.space	Key.space	n/a
295.8465	0.06	591693	keystroke_a	a	n/a
296.251	0.075	592502	keystroke_Key.backspace	Key.backspace	n/a
296.357	0.12	592714	keystroke_s	s	n/a
296.477	0.0745	592954	keystroke_a	a	n/a
296.746	0.0755	593492	keystroke_l	l	n/a
296.8515	0.0745	593703	keystroke_e	e	n/a
297.016	0.0905	594032	keystroke_m	m	n/a
297.256	0.075	594512	keystroke_Key.enter	Key.enter	n/a
297.337	8.7425	594674	prompt	n/a	worthy corrections earn shipments\n
298.276	0.076	596552	keystroke_w	w	n/a
298.3965	0.105	596793	keystroke_o	o	n/a
298.486	0.091	596972	keystroke_r	r	n/a
300.3015	0.06	600603	keystroke_t	t	n/a
300.4065	0.0895	600813	keystroke_h	h	n/a
300.617	0.15	601234	keystroke_y	y	n/a
300.721	0.106	601442	keystroke_Key.space	Key.space	n/a
301.1715	0.1045	602343	keystroke_c	c	n/a
301.291	0.075	602582	keystroke_o	o	n/a
301.381	0.06	602762	keystroke_r	r	n/a
301.532	0.0895	603064	keystroke_r	r	n/a
301.636	0.0905	603272	keystroke_e	e	n/a
301.816	0.045	603632	keystroke_c	c	n/a
301.9815	0.0445	603963	keystroke_t	t	n/a
302.0565	0.15	604113	keystroke_i	i	n/a
302.1465	0.1495	604293	keystroke_o	o	n/a
302.252	0.134	604504	keystroke_n	n	n/a
302.4315	0.075	604863	keystroke_s	s	n/a
303.301	0.0905	606602	keystroke_Key.space	Key.space	n/a
303.4365	0.165	606873	keystroke_e	e	n/a
303.7515	0.135	607503	keystroke_a	a	n/a
303.8265	0.1345	607653	keystroke_r	r	n/a
304.516	0.1055	609032	keystroke_n	n	n/a
304.6365	0.12	609273	keystroke_Key.space	Key.space	n/a
304.8915	0.0745	609783	keystroke_s	s	n/a
304.981	0.135	609962	keystroke_h	h	n/a
305.1015	0.1345	610203	keystroke_i	i	n/a
305.296	0.09	610592	keystroke_p	p	n/a
305.5515	0.075	611103	keystroke_m	m	n/a
305.641	0.0905	611282	keystroke_e	e	n/a
305.746	0.076	611492	keystroke_n	n	n/a
305.8065	0.0755	611613	keystroke_t	t	n/a
305.9265	0.0755	611853	keystroke_s	s	n/a
306.0165	0.0595	612033	keystroke_Key.enter	Key.enter	n/a
306.083	10.45	612166	prompt	n/a	motherboard patients served wishlist\n
307.336	0.016	614672	keystroke_o	o	n/a
307.6065	0.0595	615213	keystroke_Key.backspace	Key.backspace	n/a
307.846	0.1355	615692	keystroke_m	m	n/a
307.966	0.105	615932	keystroke_o	o	n/a
308.1015	0.075	616203	keystroke_t	t	n/a
308.1605	0.0905	616321	keystroke_h	h	n/a
308.2815	0.1195	616563	keystroke_e	e	n/a
308.3865	0.06	616773	keystroke_r	r	n/a
308.4915	0.105	616983	keystroke_b	b	n/a
308.6415	0.105	617283	keystroke_o	o	n/a
308.7915	0.135	617583	keystroke_a	a	n/a
308.8815	0.12	617763	keystroke_r	r	n/a
309.0915	0.0895	618183	keystroke_d	d	n/a
309.211	0.0905	618422	keystroke_Key.space	Key.space	n/a
309.9465	0.12	619893	keystroke_p	p	n/a
310.0965	0.06	620193	keystroke_a	a	n/a
310.2015	0.075	620403	keystroke_t	t	n/a
310.2915	0.09	620583	keystroke_i	i	n/a
310.397	0.0745	620794	keystroke_e	e	n/a
310.4865	0.0605	620973	keystroke_n	n	n/a
311.1475	0.0445	622295	keystroke_t	t	n/a
311.267	0.0445	622534	keystroke_s	s	n/a
311.3865	0.09	622773	keystroke_Key.space	Key.space	n/a
311.8965	0.1045	623793	keystroke_s	s	n/a
312.016	0.075	624032	keystroke_e	e	n/a
312.722	0.0745	625444	keystroke_r	r	n/a
313.1265	0.075	626253	keystroke_e	e	n/a
313.6815	0.0595	627363	keystroke_Key.backspace	Key.backspace	n/a
313.7265	0.0895	627453	keystroke_v	v	n/a
313.8315	0.0895	627663	keystroke_e	e	n/a
313.996	0.075	627992	keystroke_d	d	n/a
314.221	0.12	628442	keystroke_Key.space	Key.space	n/a
315.5265	0.075	631053	keystroke_w	w	n/a
315.6465	0.1055	631293	keystroke_i	i	n/a
315.7655	0.076	631531	keystroke_s	s	n/a
315.886	0.0905	631772	keystroke_h	h	n/a
316.0665	0.135	632133	keystroke_l	l	n/a
316.1865	0.09	632373	keystroke_i	i	n/a
316.292	0.0895	632584	keystroke_s	s	n/a
316.3655	0.0615	632731	keystroke_t	t	n/a
316.4715	0.0595	632943	keystroke_Key.enter	Key.enter	n/a
316.5385	8.3795	633077	prompt	n/a	females stick forum analyze\n
317.296	0.0605	634592	keystroke_f	f	n/a
317.446	0.09	634892	keystroke_e	e	n/a
317.5215	0.0895	635043	keystroke_m	m	n/a
317.641	0.045	635282	keystroke_e	e	n/a
318.106	0.045	636212	keystroke_Key.backspace	Key.backspace	n/a
318.4965	0.09	636993	keystroke_a	a	n/a
318.6915	0.075	637383	keystroke_l	l	n/a
318.7675	0.164	637535	keystroke_e	e	n/a
318.9465	0.045	637893	keystroke_s	s	n/a
319.2465	0.105	638493	keystroke_Key.space	Key.space	n/a
319.412	0.089	638824	keystroke_s	s	n/a
319.562	0.104	639124	keystroke_t	t	n/a
319.682	0.06	639364	keystroke_i	i	n/a
319.816	0.091	639632	keystroke_c	c	n/a
319.952	0.1495	639904	keystroke_k	k	n/a
320.086	0.1055	640172	keystroke_Key.space	Key.space	n/a
320.8815	0.1045	641763	keystroke_f	f	n/a
321.031	0.1355	642062	keystroke_o	o	n/a
321.5715	0.0595	643143	keystroke_r	r	n/a
321.721	0.061	643442	keystroke_u	u	n/a
321.977	0.074	643954	keystroke_m	m	n/a
322.201	0.09	644402	keystroke_Key.space	Key.space	n/a
322.741	0.0305	645482	keystroke_a	a	n/a
322.786	0.091	645572	keystroke_n	n	n/a
322.936	0.0605	645872	keystroke_a	a	n/a
323.971	0.09	647942	keystroke_l	l	n/a
324.196	0.09	648392	keystroke_y	y	n/a
324.571	0.12	649142	keystroke_z	z	n/a
324.736	0.06	649472	keystroke_e	e	n/a
324.826	0.0905	649652	keystroke_Key.enter	Key.enter	n/a
324.922	10.3915	649844	prompt	n/a	sculpture region stating analog\n
327.768	0.001	655536	keystroke_s	s	n/a
327.886	0.075	655772	keystroke_c	c	n/a
328.561	0.075	657122	keystroke_u	u	n/a
328.757	0.09	657514	keystroke_l	l	n/a
329.7165	0.09	659433	keystroke_p	p	n/a
329.8365	0.105	659673	keystroke_t	t	n/a
329.9865	0.09	659973	keystroke_u	u	n/a
330.1065	0.15	660213	keystroke_r	r	n/a
330.2715	0.075	660543	keystroke_e	e	n/a
330.3915	0.105	660783	keystroke_Key.space	Key.space	n/a
330.5565	0.15	661113	keystroke_r	r	n/a
330.751	0.0755	661502	keystroke_e	e	n/a
331.0065	0.075	662013	keystroke_g	g	n/a
331.1115	0.135	662223	keystroke_i	i	n/a
331.2315	0.15	662463	keystroke_o	o	n/a
331.3665	0.12	662733	keystroke_n	n	n/a
331.5315	0.135	663063	keystroke_Key.space	Key.space	n/a
331.9515	0.06	663903	keystroke_s	s	n/a
332.0865	0.075	664173	keystroke_t	t	n/a
332.1765	0.12	664353	keystroke_a	a	n/a
332.2975	0.089	664595	keystroke_t	t	n/a
332.4465	0.135	664893	keystroke_i	i	n/a
332.5515	0.09	665103	keystroke_n	n	n/a
332.6565	0.06	665313	keystroke_g	g	n/a
332.7465	0.075	665493	keystroke_Key.space	Key.space	n/a
332.8365	0.075	665673	keystroke_a	a	n/a
333.2415	0.06	666483	keystroke_b	b	n/a
333.8415	0.09	667683	keystroke_Key.backspace	Key.backspace	n/a
334.157	0.089	668314	keystroke_n	n	n/a
334.397	0.074	668794	keystroke_a	a	n/a
334.651	0.06	669302	keystroke_l	l	n/a
334.8315	0.0605	669663	keystroke_o	o	n/a
334.9515	0.0595	669903	keystroke_g	g	n/a
335.236	0.075	670472	keystroke_Key.enter	Key.enter	n/a
335.317	8.0525	670634	prompt	n/a	closes britney roland coding\n
336.137	0.09	672274	keystroke_c	c	n/a
336.2415	0.0605	672483	keystroke_l	l	n/a
336.407	0.045	672814	keystroke_o	o	n/a
336.466	0.151	672932	keystroke_s	s	n/a
336.601	0.0915	673202	keystroke_e	e	n/a
336.767	0.075	673534	keystroke_s	s	n/a
336.9165	0.1055	673833	keystroke_Key.space	Key.space	n/a
338.1015	0.105	676203	keystroke_b	b	n/a
338.2515	0.0895	676503	keystroke_r	r	n/a
338.911	0.091	677822	keystroke_i	i	n/a
339.046	0.075	678092	keystroke_t	t	n/a
339.1665	0.0895	678333	keystroke_n	n	n/a
339.286	0.075	678572	keystroke_e	e	n/a
339.451	0.076	678902	keystroke_y	y	n/a
340.066	0.135	680132	keystroke_Key.space	Key.space	n/a
340.727	0.0895	681454	keystroke_r	r	n/a
340.861	0.075	681722	keystroke_o	o	n/a
341.056	0.075	682112	keystroke_l	l	n/a
341.1465	0.06	682293	keystroke_a	a	n/a
341.251	0.105	682502	keystroke_n	n	n/a
341.3715	0.06	682743	keystroke_d	d	n/a
341.851	0.12	683702	keystroke_Key.space	Key.space	n/a
342.181	0.09	684362	keystroke_c	c	n/a
342.301	0.0605	684602	keystroke_o	o	n/a
342.9315	0.075	685863	keystroke_d	d	n/a
343.0215	0.12	686043	keystroke_i	i	n/a
343.0815	0.135	686163	keystroke_n	n	n/a
343.156	0.0905	686312	keystroke_g	g	n/a
343.3065	0.06	686613	keystroke_Key.enter	Key.enter	n/a
343.3725	10.376	686745	prompt	n/a	sisters element expenses greatly\n
344.2205	0.0455	688441	keystroke_s	s	n/a
344.3415	0.075	688683	keystroke_i	i	n/a
344.446	0.075	688892	keystroke_s	s	n/a
344.566	0.0605	689132	keystroke_t	t	n/a
344.7165	0.1795	689433	keystroke_e	e	n/a
344.836	0.09	689672	keystroke_r	r	n/a
345.1815	0.06	690363	keystroke_s	s	n/a
345.271	0.1045	690542	keystroke_Key.space	Key.space	n/a
345.5105	0.076	691021	keystroke_e	e	n/a
345.6155	0.0765	691231	keystroke_l	l	n/a
345.7355	0.0915	691471	keystroke_e	e	n/a
345.8865	0.09	691773	keystroke_m	m	n/a
346.591	0.061	693182	keystroke_e	e	n/a
346.696	0.0755	693392	keystroke_n	n	n/a
346.786	0.075	693572	keystroke_t	t	n/a
346.9065	0.075	693813	keystroke_Key.space	Key.space	n/a
347.9565	0.0745	695913	keystroke_e	e	n/a
348.2715	0.075	696543	keystroke_x	x	n/a
348.377	0.104	696754	keystroke_p	p	n/a
348.511	0.09	697022	keystroke_e	e	n/a
348.6165	0.0895	697233	keystroke_n	n	n/a
348.7665	0.135	697533	keystroke_s	s	n/a
348.8865	0.135	697773	keystroke_e	e	n/a
349.0665	0.0755	698133	keystroke_s	s	n/a
349.5015	0.12	699003	keystroke_Key.space	Key.space	n/a
349.7415	0.09	699483	keystroke_f	f	n/a
350.3865	0.09	700773	keystroke_g	g	n/a
350.8215	0.045	701643	keystroke_Key.backspace	Key.backspace	n/a
350.956	0.0605	701912	keystroke_Key.backspace	Key.backspace	n/a
351.077	0.09	702154	keystroke_g	g	n/a
351.9015	0.1205	703803	keystroke_r	r	n/a
352.0065	0.135	704013	keystroke_e	e	n/a
352.1715	0.09	704343	keystroke_a	a	n/a
352.7415	0.045	705483	keystroke_t	t	n/a
352.9065	0.075	705813	keystroke_l	l	n/a
353.1915	0.075	706383	keystroke_y	y	n/a
353.6415	0.1055	707283	keystroke_Key.enter	Key.enter	n/a
353.7525	7.5855	707505	prompt	n/a	word fuzzy instance courses\n
354.647	0.0445	709294	keystroke_w	w	n/a
354.7365	0.105	709473	keystroke_o	o	n/a
354.8565	0.09	709713	keystroke_r	r	n/a
355.127	0.075	710254	keystroke_d	d	n/a
355.261	0.091	710522	keystroke_Key.space	Key.space	n/a
356.1015	0.0905	712203	keystroke_f	f	n/a
356.372	0.09	712744	keystroke_u	u	n/a
357.196	0.0605	714392	keystroke_z	z	n/a
357.361	0.075	714722	keystroke_z	z	n/a
357.497	0.1045	714994	keystroke_y	y	n/a
357.721	0.09	715442	keystroke_Key.space	Key.space	n/a
358.0365	0.0605	716073	keystroke_i	i	n/a
358.2015	0.0905	716403	keystroke_n	n	n/a
358.3365	0.105	716673	keystroke_s	s	n/a
358.472	0.0745	716944	keystroke_t	t	n/a
358.577	0.075	717154	keystroke_a	a	n/a
358.6065	0.105	717213	keystroke_n	n	n/a
358.7865	0.165	717573	keystroke_c	c	n/a
358.922	0.105	717844	keystroke_e	e	n/a
359.0715	0.12	718143	keystroke_Key.space	Key.space	n/a
359.311	0.0905	718622	keystroke_c	c	n/a
359.911	0.1205	719822	keystroke_o	o	n/a
360.016	0.106	720032	keystroke_u	u	n/a
360.3315	0.1955	720663	keystroke_r	r	n/a
360.7665	0.1055	721533	keystroke_s	s	n/a
360.9315	0.12	721863	keystroke_e	e	n/a
361.0665	0.09	722133	keystroke_s	s	n/a
361.2615	0.075	722523	keystroke_Key.enter	Key.enter	n/a
361.342	9.2965	722684	prompt	n/a	exciting ties distribution contacted\n
362.6565	0.075	725313	keystroke_e	e	n/a
362.956	0.0755	725912	keystroke_x	x	n/a
363.167	0.0745	726334	keystroke_c	c	n/a
363.2565	0.0905	726513	keystroke_i	i	n/a
363.392	0.0895	726784	keystroke_t	t	n/a
363.4965	0.165	726993	keystroke_i	i	n/a
363.602	0.1045	727204	keystroke_n	n	n/a
363.752	0.059	727504	keystroke_g	g	n/a
363.8415	0.1195	727683	keystroke_Key.space	Key.space	n/a
364.1115	0.075	728223	keystroke_t	t	n/a
364.2165	0.12	728433	keystroke_i	i	n/a
364.3215	0.165	728643	keystroke_e	e	n/a
364.4415	0.12	728883	keystroke_s	s	n/a
364.6215	0.12	729243	keystroke_Key.space	Key.space	n/a
365.611	0.105	731222	keystroke_d	d	n/a
365.746	0.105	731492	keystroke_i	i	n/a
366.316	0.09	732632	keystroke_s	s	n/a
366.5415	0.135	733083	keystroke_t	t	n/a
367.2915	0.075	734583	keystroke_r	r	n/a
367.7565	0.06	735513	keystroke_i	i	n/a
367.9365	0.09	735873	keystroke_b	b	n/a
368.1465	0.09	736293	keystroke_u	u	n/a
368.2965	0.075	736593	keystroke_t	t	n/a
368.402	0.12	736804	keystroke_i	i	n/a
368.4915	0.135	736983	keystroke_o	o	n/a
368.597	0.0895	737194	keystroke_n	n	n/a
369.107	0.104	738214	keystroke_Key.space	Key.space	n/a
369.392	0.12	738784	keystroke_c	c	n/a
369.496	0.1205	738992	keystroke_o	o	n/a
369.572	0.1195	739144	keystroke_n	n	n/a
369.6915	0.09	739383	keystroke_t	t	n/a
369.8115	0.1205	739623	keystroke_a	a	n/a
369.947	0.105	739894	keystroke_c	c	n/a
370.172	0.0595	740344	keystroke_t	t	n/a
370.3065	0.061	740613	keystroke_e	e	n/a
370.472	0.06	740944	keystroke_d	d	n/a
370.577	0.06	741154	keystroke_Key.enter	Key.enter	n/a
370.6425	9.041	741285	prompt	n/a	metadata everyday lender elite\n
371.446	0.12	742892	keystroke_m	m	n/a
371.581	0.0755	743162	keystroke_e	e	n/a
372.227	0.1045	744454	keystroke_t	t	n/a
372.436	0.135	744872	keystroke_a	a	n/a
372.902	0.0895	745804	keystroke_d	d	n/a
373.066	0.12	746132	keystroke_a	a	n/a
373.247	0.104	746494	keystroke_d	d	n/a
373.352	0.1045	746704	keystroke_a	a	n/a
373.921	0.045	747842	keystroke_Key.backspace	Key.backspace	n/a
374.0565	0.06	748113	keystroke_Key.backspace	Key.backspace	n/a
374.2965	0.1055	748593	keystroke_t	t	n/a
375.556	0.09	751112	keystroke_a	a	n/a
375.7065	0.0895	751413	keystroke_Key.space	Key.space	n/a
376.216	0.09	752432	keystroke_e	e	n/a
376.3965	0.09	752793	keystroke_v	v	n/a
376.621	0.121	753242	keystroke_e	e	n/a
376.7265	0.075	753453	keystroke_r	r	n/a
376.877	0.104	753754	keystroke_y	y	n/a
377.057	0.074	754114	keystroke_d	d	n/a
377.147	0.089	754294	keystroke_a	a	n/a
377.281	0.075	754562	keystroke_y	y	n/a
377.4465	0.105	754893	keystroke_Key.space	Key.space	n/a
377.942	0.06	755884	keystroke_l	l	n/a
378.0615	0.0605	756123	keystroke_e	e	n/a
378.136	0.091	756272	keystroke_n	n	n/a
378.287	0.0595	756574	keystroke_d	d	n/a
378.451	0.135	756902	keystroke_e	e	n/a
378.5715	0.0895	757143	keystroke_r	r	n/a
378.676	0.09	757352	keystroke_Key.space	Key.space	n/a
378.8715	0.0755	757743	keystroke_e	e	n/a
379.006	0.136	758012	keystroke_l	l	n/a
379.112	0.09	758224	keystroke_i	i	n/a
379.306	0.091	758612	keystroke_t	t	n/a
379.427	0.09	758854	keystroke_e	e	n/a
379.6065	0.0745	759213	keystroke_Key.enter	Key.enter	n/a
379.688	11.5605	759376	prompt	n/a	females ruling michael mortgages\n
380.477	0.105	760954	keystroke_f	f	n/a
380.627	0.09	761254	keystroke_e	e	n/a
380.731	0.106	761462	keystroke_m	m	n/a
380.852	0.104	761704	keystroke_a	a	n/a
381.677	0.059	763354	keystroke_l	l	n/a
381.827	0.1495	763654	keystroke_e	e	n/a
381.9465	0.09	763893	keystroke_s	s	n/a
382.1865	0.0755	764373	keystroke_Key.space	Key.space	n/a
382.607	0.0745	765214	keystroke_r	r	n/a
382.7115	0.0895	765423	keystroke_u	u	n/a
383.7765	0.06	767553	keystroke_l	l	n/a
383.867	0.1195	767734	keystroke_i	i	n/a
383.9565	0.09	767913	keystroke_n	n	n/a
384.0915	0.075	768183	keystroke_g	g	n/a
384.197	0.1045	768394	keystroke_Key.space	Key.space	n/a
384.3165	0.135	768633	keystroke_m	m	n/a
384.4365	0.105	768873	keystroke_i	i	n/a
384.6465	0.1055	769293	keystroke_c	c	n/a
384.766	0.0755	769532	keystroke_h	h	n/a
384.886	0.061	769772	keystroke_a	a	n/a
385.036	0.076	770072	keystroke_e	e	n/a
385.2015	0.075	770403	keystroke_l	l	n/a
385.3065	0.1205	770613	keystroke_Key.space	Key.space	n/a
385.936	0.09	771872	keystroke_m	m	n/a
386.0415	0.1055	772083	keystroke_o	o	n/a
386.447	0.089	772894	keystroke_r	r	n/a
386.777	0.0445	773554	keystroke_t	t	n/a
387.5415	0.06	775083	keystroke_a	a	n/a
390.1225	0.013	780245	keystroke_Key.backspace	Key.backspace	n/a
390.4825	0.0595	780965	keystroke_g	g	n/a
390.647	0.0445	781294	keystroke_a	a	n/a
390.7215	0.09	781443	keystroke_g	g	n/a
390.8265	0.135	781653	keystroke_e	e	n/a
390.9315	0.0905	781863	keystroke_s	s	n/a
391.1565	0.09	782313	keystroke_Key.enter	Key.enter	n/a
391.253	10.33	782506	prompt	n/a	shades galleries legitimate wildlife\n
392.177	0.0895	784354	keystroke_s	s	n/a
392.2515	0.0755	784503	keystroke_h	h	n/a
392.356	0.106	784712	keystroke_a	a	n/a
392.477	0.1045	784954	keystroke_e	e	n/a
393.2415	0.09	786483	keystroke_Key.backspace	Key.backspace	n/a
393.3615	0.0745	786723	keystroke_d	d	n/a
393.527	0.0445	787054	keystroke_e	e	n/a
393.6465	0.0745	787293	keystroke_s	s	n/a
393.781	0.105	787562	keystroke_Key.space	Key.space	n/a
395.011	0.0305	790022	keystroke_g	g	n/a
395.1015	0.0595	790203	keystroke_a	a	n/a
395.267	0.029	790534	keystroke_l	l	n/a
395.416	0.075	790832	keystroke_l	l	n/a
396.361	0.1055	792722	keystroke_e	e	n/a
396.481	0.105	792962	keystroke_r	r	n/a
396.631	0.0905	793262	keystroke_i	i	n/a
396.7515	0.1045	793503	keystroke_e	e	n/a
396.9915	0.075	793983	keystroke_s	s	n/a
397.1265	0.075	794253	keystroke_Key.space	Key.space	n/a
397.2915	0.09	794583	keystroke_l	l	n/a
397.3815	0.06	794763	keystroke_e	e	n/a
398.1015	0.0755	796203	keystroke_g	g	n/a
398.2515	0.0745	796503	keystroke_i	i	n/a
398.386	0.075	796772	keystroke_t	t	n/a
398.5215	0.105	797043	keystroke_i	i	n/a
398.8965	0.0745	797793	keystroke_m	m	n/a
399.031	0.075	798062	keystroke_a	a	n/a
399.136	0.12	798272	keystroke_t	t	n/a
399.3015	0.0745	798603	keystroke_e	e	n/a
399.3915	0.1345	798783	keystroke_Key.space	Key.space	n/a
399.706	0.075	799412	keystroke_w	w	n/a
399.811	0.0905	799622	keystroke_i	i	n/a
399.961	0.15	799922	keystroke_l	l	n/a
400.2765	0.09	800553	keystroke_d	d	n/a
400.801	0.1205	801602	keystroke_l	l	n/a
400.891	0.106	801782	keystroke_i	i	n/a
401.071	0.135	802142	keystroke_f	f	n/a
401.236	0.0605	802472	keystroke_e	e	n/a
401.5065	0.075	803013	keystroke_Key.enter	Key.enter	n/a
401.586	9.9725	803172	prompt	n/a	commonly housing opening wheel\n
402.5115	0.03	805023	keystroke_c	c	n/a
402.5565	0.12	805113	keystroke_o	o	n/a
402.7815	0.06	805563	keystroke_m	m	n/a
403.246	0.1205	806492	keystroke_m	m	n/a
403.486	0.135	806972	keystroke_o	o	n/a
403.666	0.1355	807332	keystroke_n	n	n/a
403.921	0.0455	807842	keystroke_l	l	n/a
404.1015	0.09	808203	keystroke_y	y	n/a
404.581	0.075	809162	keystroke_Key.space	Key.space	n/a
404.897	0.0895	809794	keystroke_h	h	n/a
405.031	0.15	810062	keystroke_o	o	n/a
405.1515	0.1045	810303	keystroke_u	u	n/a
405.286	0.1055	810572	keystroke_s	s	n/a
405.4215	0.1345	810843	keystroke_i	i	n/a
405.511	0.15	811022	keystroke_n	n	n/a
406.2465	0.075	812493	keystroke_g	g	n/a
406.366	0.09	812732	keystroke_Key.space	Key.space	n/a
409.293	0.0285	818586	keystroke_o	o	n/a
409.441	0.0755	818882	keystroke_p	p	n/a
409.5765	0.075	819153	keystroke_e	e	n/a
409.772	0.075	819544	keystroke_n	n	n/a
409.921	0.1505	819842	keystroke_i	i	n/a
410.0265	0.09	820053	keystroke_n	n	n/a
410.131	0.06	820262	keystroke_g	g	n/a
410.386	0.09	820772	keystroke_Key.space	Key.space	n/a
410.7915	0.045	821583	keystroke_w	w	n/a
410.8665	0.09	821733	keystroke_h	h	n/a
411.002	0.06	822004	keystroke_e	e	n/a
411.197	0.045	822394	keystroke_l	l	n/a
411.332	0.0595	822664	keystroke_l	l	n/a
411.467	0.09	822934	keystroke_Key.enter	Key.enter	n/a
411.5655	9.7735	823131	prompt	n/a	apache notifications comp thompson\n
414.454	0.027	828908	keystroke_a	a	n/a
414.737	0.104	829474	keystroke_p	p	n/a
415.112	0.15	830224	keystroke_a	a	n/a
415.4115	0.1055	830823	keystroke_c	c	n/a
415.547	0.075	831094	keystroke_h	h	n/a
415.6815	0.075	831363	keystroke_e	e	n/a
415.847	0.0895	831694	keystroke_Key.space	Key.space	n/a
416.2665	0.1055	832533	keystroke_n	n	n/a
416.447	0.09	832894	keystroke_o	o	n/a
416.627	0.075	833254	keystroke_t	t	n/a
416.732	0.09	833464	keystroke_i	i	n/a
417.122	0.0745	834244	keystroke_f	f	n/a
417.2115	0.0755	834423	keystroke_i	i	n/a
417.377	0.09	834754	keystroke_c	c	n/a
417.497	0.0895	834994	keystroke_a	a	n/a
417.6315	0.0605	835263	keystroke_t	t	n/a
417.7525	0.104	835505	keystroke_i	i	n/a
417.827	0.15	835654	keystroke_o	o	n/a
418.0065	0.1355	836013	keystroke_n	n	n/a
418.3515	0.0745	836703	keystroke_s	s	n/a
418.577	0.104	837154	keystroke_Key.space	Key.space	n/a
418.727	0.0895	837454	keystroke_c	c	n/a
418.8315	0.135	837663	keystroke_o	o	n/a
418.9675	0.1045	837935	keystroke_m	m	n/a
419.0865	0.09	838173	keystroke_p	p	n/a
419.627	0.1045	839254	keystroke_Key.space	Key.space	n/a
419.777	0.075	839554	keystroke_t	t	n/a
419.8525	0.1045	839705	keystroke_h	h	n/a
419.972	0.18	839944	keystroke_o	o	n/a
420.2115	0.1205	840423	keystroke_m	m	n/a
420.437	0.0445	840874	keystroke_p	p	n/a
420.902	0.075	841804	keystroke_s	s	n/a
421.006	0.121	842012	keystroke_o	o	n/a
421.097	0.1045	842194	keystroke_n	n	n/a
421.2765	0.0595	842553	keystroke_Key.enter	Key.enter	n/a
421.3425	9.6405	842685	prompt	n/a	exams congress reliance pubmed\n
422.747	0.09	845494	keystroke_e	e	n/a
423.047	0.0745	846094	keystroke_x	x	n/a
423.227	0.0895	846454	keystroke_a	a	n/a
423.3615	0.1055	846723	keystroke_m	m	n/a
423.887	0.075	847774	keystroke_s	s	n/a
424.082	0.03	848164	keystroke_Key.space	Key.space	n/a
424.156	0.03	848312	keystroke_Key.space	Key.space	n/a
424.336	0.12	848672	keystroke_c	c	n/a
424.442	0.12	848884	keystroke_o	o	n/a
424.516	0.106	849032	keystroke_n	n	n/a
424.6665	0.0755	849333	keystroke_g	g	n/a
424.862	0.12	849724	keystroke_r	r	n/a
424.982	0.12	849964	keystroke_e	e	n/a
425.177	0.075	850354	keystroke_s	s	n/a
425.356	0.061	850712	keystroke_s	s	n/a
425.4915	0.09	850983	keystroke_Key.space	Key.space	n/a
426.0915	0.0605	852183	keystroke_r	r	n/a
426.781	0.061	853562	keystroke_e	e	n/a
427.006	0.1205	854012	keystroke_l	l	n/a
427.142	0.06	854284	keystroke_i	i	n/a
427.261	0.061	854522	keystroke_a	a	n/a
427.352	0.09	854704	keystroke_n	n	n/a
427.517	0.1645	855034	keystroke_c	c	n/a
427.6665	0.0755	855333	keystroke_e	e	n/a
427.7865	0.105	855573	keystroke_Key.space	Key.space	n/a
429.7215	0.0755	859443	keystroke_p	p	n/a
429.9765	0.1045	859953	keystroke_u	u	n/a
430.2915	0.06	860583	keystroke_b	b	n/a
430.5315	0.075	861063	keystroke_m	m	n/a
430.6515	0.0605	861303	keystroke_e	e	n/a
430.7265	0.0905	861453	keystroke_n	n	n/a
430.937	0.044	861874	keystroke_Key.enter	Key.enter	n/a
430.987	9.447	861974	prompt	n/a	is orbit puerto apparatus\n
432.752	0.075	865504	keystroke_i	i	n/a
432.902	0.089	865804	keystroke_s	s	n/a
432.992	0.089	865984	keystroke_Key.space	Key.space	n/a
433.1115	0.1345	866223	keystroke_o	o	n/a
433.306	0.075	866612	keystroke_r	r	n/a
433.531	0.1055	867062	keystroke_b	b	n/a
433.667	0.089	867334	keystroke_i	i	n/a
433.831	0.061	867662	keystroke_t	t	n/a
434.0565	0.09	868113	keystroke_Key.space	Key.space	n/a
435.4215	0.06	870843	keystroke_p	p	n/a
436.082	0.089	872164	keystroke_u	u	n/a
436.247	0.164	872494	keystroke_e	e	n/a
436.442	0.09	872884	keystroke_r	r	n/a
436.6515	0.0605	873303	keystroke_t	t	n/a
436.7415	0.105	873483	keystroke_o	o	n/a
436.9365	0.12	873873	keystroke_Key.space	Key.space	n/a
437.342	0.0755	874684	keystroke_a	a	n/a
437.552	0.045	875104	keystroke_p	p	n/a
437.717	0.06	875434	keystroke_p	p	n/a
438.9315	0.1055	877863	keystroke_a	a	n/a
439.157	0.0745	878314	keystroke_r	r	n/a
439.3815	0.075	878763	keystroke_a	a	n/a
439.697	0.075	879394	keystroke_t	t	n/a
439.8165	0.09	879633	keystroke_u	u	n/a
440.0275	0.0745	880055	keystroke_s	s	n/a
440.372	0.06	880744	keystroke_Key.enter	Key.enter	n/a
440.437	9.6715	880874	prompt	n/a	christina approved appears zambia\n
441.902	0.075	883804	keystroke_c	c	n/a
442.022	0.0895	884044	keystroke_h	h	n/a
442.2175	0.0745	884435	keystroke_r	r	n/a
442.336	0.076	884672	keystroke_i	i	n/a
442.4125	0.075	884825	keystroke_s	s	n/a
442.682	0.105	885364	keystroke_t	t	n/a
442.8925	0.1945	885785	keystroke_i	i	n/a
443.072	0.0895	886144	keystroke_n	n	n/a
443.1775	0.0895	886355	keystroke_a	a	n/a
443.3115	0.105	886623	keystroke_Key.space	Key.space	n/a
443.6115	0.09	887223	keystroke_a	a	n/a
443.7615	0.0755	887523	keystroke_p	p	n/a
443.912	0.06	887824	keystroke_p	p	n/a
444.4065	0.075	888813	keystroke_r	r	n/a
444.5265	0.091	889053	keystroke_o	o	n/a
444.6315	0.0905	889263	keystroke_v	v	n/a
444.7675	0.0885	889535	keystroke_e	e	n/a
444.9475	0.06	889895	keystroke_d	d	n/a
445.036	0.0905	890072	keystroke_Key.space	Key.space	n/a
445.7425	0.0745	891485	keystroke_a	a	n/a
445.847	0.075	891694	keystroke_p	p	n/a
446.012	0.06	892024	keystroke_p	p	n/a
446.1475	0.089	892295	keystroke_r	r	n/a
446.687	0.0595	893374	keystroke_Key.backspace	Key.backspace	n/a
446.9275	0.149	893855	keystroke_e	e	n/a
447.0315	0.15	894063	keystroke_a	a	n/a
447.1825	0.089	894365	keystroke_r	r	n/a
447.3015	0.0895	894603	keystroke_s	s	n/a
447.4665	0.1055	894933	keystroke_Key.space	Key.space	n/a
448.7115	0.076	897423	keystroke_z	z	n/a
448.9065	0.091	897813	keystroke_a	a	n/a
449.207	0.09	898414	keystroke_m	m	n/a
449.461	0.1055	898922	keystroke_b	b	n/a
449.5815	0.091	899163	keystroke_i	i	n/a
449.702	0.0605	899404	keystroke_a	a	n/a
450.032	0.0745	900064	keystroke_Key.enter	Key.enter	n/a
450.1125	12.658	900225	prompt	n/a	effort suggestions delegation inquire\n
451.187	0.09	902374	keystroke_w	w	n/a
451.322	0.0755	902644	keystroke_e	e	n/a
451.786	0.045	903572	keystroke_Key.backspace	Key.backspace	n/a
451.9065	0.0605	903813	keystroke_Key.backspace	Key.backspace	n/a
452.117	0.135	904234	keystroke_e	e	n/a
452.447	0.1045	904894	keystroke_d	d	n/a
453.181	0.181	906362	keystroke_Key.backspace	Key.backspace	n/a
453.377	0.015	906754	keystroke_f	f	n/a
453.482	0.075	906964	keystroke_f	f	n/a
453.6475	0.0895	907295	keystroke_o	o	n/a
453.7675	0.075	907535	keystroke_r	r	n/a
453.9315	0.0605	907863	keystroke_t	t	n/a
454.6515	0.105	909303	keystroke_Key.space	Key.space	n/a
454.8315	0.075	909663	keystroke_s	s	n/a
454.9515	0.075	909903	keystroke_u	u	n/a
455.102	0.0745	910204	keystroke_g	g	n/a
455.2515	0.06	910503	keystroke_g	g	n/a
455.3565	0.1505	910713	keystroke_e	e	n/a
455.492	0.105	910984	keystroke_s	s	n/a
455.627	0.104	911254	keystroke_t	t	n/a
455.747	0.119	911494	keystroke_i	i	n/a
455.8365	0.165	911673	keystroke_o	o	n/a
455.942	0.105	911884	keystroke_n	n	n/a
456.107	0.09	912214	keystroke_s	s	n/a
456.257	0.105	912514	keystroke_Key.space	Key.space	n/a
457.5765	0.0905	915153	keystroke_d	d	n/a
457.7565	0.075	915513	keystroke_e	e	n/a
458.2815	0.09	916563	keystroke_l	l	n/a
458.4015	0.075	916803	keystroke_e	e	n/a
458.717	0.0595	917434	keystroke_g	g	n/a
458.9125	0.074	917825	keystroke_a	a	n/a
459.047	0.075	918094	keystroke_t	t	n/a
459.197	0.1345	918394	keystroke_i	i	n/a
459.317	0.1645	918634	keystroke_o	o	n/a
459.467	0.1055	918934	keystroke_n	n	n/a
459.722	0.105	919444	keystroke_Key.space	Key.space	n/a
459.932	0.15	919864	keystroke_i	i	n/a
460.052	0.0905	920104	keystroke_n	n	n/a
461.823	0.0595	923646	keystroke_q	q	n/a
462.1525	0.136	924305	keystroke_u	u	n/a
462.318	0.0895	924636	keystroke_i	i	n/a
462.4975	0.09	924995	keystroke_r	r	n/a
462.573	0.0605	925146	keystroke_e	e	n/a
462.663	0.105	925326	keystroke_Key.enter	Key.enter	n/a
462.7755	16.379	925551	prompt	n/a	failed dates editorial ghana\n
463.728	0.1055	927456	keystroke_f	f	n/a
463.849	0.0895	927698	keystroke_a	a	n/a
463.9685	0.105	927937	keystroke_i	i	n/a
464.1035	0.105	928207	keystroke_l	l	n/a
464.2535	0.03	928507	keystroke_e	e	n/a
464.389	0.0745	928778	keystroke_d	d	n/a
464.4785	0.105	928957	keystroke_Key.space	Key.space	n/a
464.883	0.091	929766	keystroke_d	d	n/a
465.0635	0.09	930127	keystroke_a	a	n/a
465.319	0.0905	930638	keystroke_t	t	n/a
465.4395	0.06	930879	keystroke_e	e	n/a
465.5135	0.076	931027	keystroke_e	e	n/a
465.649	0.0755	931298	keystroke_s	s	n/a
466.1285	0.06	932257	keystroke_Key.backspace	Key.backspace	n/a
466.2945	0.029	932589	keystroke_Key.backspace	Key.backspace	n/a
467.059	0.045	934118	keystroke_s	s	n/a
467.239	0.075	934478	keystroke_Key.space	Key.space	n/a
468.019	0.075	936038	keystroke_e	e	n/a
468.8	0.075	937600	keystroke_d	d	n/a
468.934	0.061	937868	keystroke_i	i	n/a
469.025	0.09	938050	keystroke_t	t	n/a
469.144	0.1065	938288	keystroke_i	i	n/a
469.265	0.1045	938530	keystroke_o	o	n/a
469.4905	0.074	938981	keystroke_r	r	n/a
469.5795	0.091	939159	keystroke_i	i	n/a
469.6845	0.075	939369	keystroke_a	a	n/a
469.8195	0.121	939639	keystroke_l	l	n/a
469.9545	0.12	939909	keystroke_Key.space	Key.space	n/a
470.8255	0.0595	941651	keystroke_Key.backspace	Key.backspace	n/a
470.9905	0.044	941981	keystroke_Key.backspace	Key.backspace	n/a
471.125	0.0455	942250	keystroke_Key.backspace	Key.backspace	n/a
471.2755	0.045	942551	keystroke_Key.backspace	Key.backspace	n/a
471.41	0.0605	942820	keystroke_Key.backspace	Key.backspace	n/a
471.56	0.045	943120	keystroke_Key.backspace	Key.backspace	n/a
471.695	0.06	943390	keystroke_Key.backspace	Key.backspace	n/a
474.053	0.013	948106	keystroke_o	o	n/a
474.8015	0.105	949603	keystroke_r	r	n/a
475.4165	0.045	950833	keystroke_i	i	n/a
475.567	0.044	951134	keystroke_a	a	n/a
475.716	0.0755	951432	keystroke_l	l	n/a
475.836	0.091	951672	keystroke_Key.space	Key.space	n/a
477.697	0.075	955394	keystroke_g	g	n/a
477.8925	0.0295	955785	keystroke_h	h	n/a
478.3425	0.1345	956685	keystroke_a	a	n/a
478.6575	0.09	957315	keystroke_n	n	n/a
478.7775	0.105	957555	keystroke_a	a	n/a
479.0775	0.075	958155	keystroke_Key.enter	Key.enter	n/a
479.159	12.644	958318	prompt	n/a	households volunteers open receptors\n
480.053	0.104	960106	keystroke_h	h	n/a
480.188	0.18	960376	keystroke_o	o	n/a
480.323	0.119	960646	keystroke_u	u	n/a
480.503	0.09	961006	keystroke_s	s	n/a
480.6075	0.06	961215	keystroke_e	e	n/a
480.7875	0.1355	961575	keystroke_h	h	n/a
480.9235	0.1045	961847	keystroke_o	o	n/a
481.1325	0.0755	962265	keystroke_l	l	n/a
481.268	0.15	962536	keystroke_d	d	n/a
481.373	0.12	962746	keystroke_s	s	n/a
481.508	0.119	963016	keystroke_Key.space	Key.space	n/a
481.8685	0.105	963737	keystroke_v	v	n/a
482.0035	0.075	964007	keystroke_o	o	n/a
482.2125	0.0755	964425	keystroke_l	l	n/a
482.408	0.0755	964816	keystroke_u	u	n/a
482.544	0.0745	965088	keystroke_t	t	n/a
482.723	0.09	965446	keystroke_e	e	n/a
482.9785	0.165	965957	keystroke_e	e	n/a
483.0985	0.105	966197	keystroke_r	r	n/a
483.2935	0.075	966587	keystroke_s	s	n/a
483.4135	0.12	966827	keystroke_Key.space	Key.space	n/a
483.654	0.0595	967308	keystroke_o	o	n/a
484.464	0.045	968928	keystroke_Key.backspace	Key.backspace	n/a
484.659	0.015	969318	keystroke_Key.backspace	Key.backspace	n/a
484.734	0.06	969468	keystroke_Key.backspace	Key.backspace	n/a
484.959	0.015	969918	keystroke_Key.backspace	Key.backspace	n/a
485.019	0.075	970038	keystroke_Key.backspace	Key.backspace	n/a
485.184	0.06	970368	keystroke_Key.backspace	Key.backspace	n/a
485.334	0.045	970668	keystroke_Key.backspace	Key.backspace	n/a
486.2645	0.075	972529	keystroke_n	n	n/a
486.4145	0.075	972829	keystroke_t	t	n/a
486.6395	0.06	973279	keystroke_e	e	n/a
486.8045	0.105	973609	keystroke_e	e	n/a
486.8795	0.09	973759	keystroke_r	r	n/a
487.21	0.0745	974420	keystroke_s	s	n/a
487.4195	0.165	974839	keystroke_Key.space	Key.space	n/a
488.11	0.075	976220	keystroke_o	o	n/a
488.365	0.06	976730	keystroke_p	p	n/a
488.485	0.075	976970	keystroke_e	e	n/a
488.935	0.12	977870	keystroke_n	n	n/a
489.0695	0.1355	978139	keystroke_Key.space	Key.space	n/a
489.3245	0.1355	978649	keystroke_r	r	n/a
489.4445	0.06	978889	keystroke_e	e	n/a
489.6395	0.1355	979279	keystroke_c	c	n/a
489.7895	0.105	979579	keystroke_e	e	n/a
490.6305	0.09	981261	keystroke_p	p	n/a
491.2005	0.075	982401	keystroke_t	t	n/a
491.3505	0.09	982701	keystroke_o	o	n/a
491.4555	0.09	982911	keystroke_r	r	n/a
491.606	0.075	983212	keystroke_s	s	n/a
491.7405	0.0605	983481	keystroke_Key.enter	Key.enter	n/a
491.808	10.377	983616	prompt	n/a	heights bookmarks are change\n
492.686	0.105	985372	keystroke_h	h	n/a
493.9455	0.061	987891	keystroke_e	e	n/a
494.0965	0.075	988193	keystroke_i	i	n/a
494.2015	0.075	988403	keystroke_g	g	n/a
494.3215	0.09	988643	keystroke_h	h	n/a
494.4265	0.105	988853	keystroke_t	t	n/a
494.5765	0.06	989153	keystroke_s	s	n/a
494.8005	0.135	989601	keystroke_Key.space	Key.space	n/a
495.192	0.0445	990384	keystroke_b	b	n/a
495.3415	0.06	990683	keystroke_o	o	n/a
495.4765	0.105	990953	keystroke_o	o	n/a
495.6115	0.1205	991223	keystroke_k	k	n/a
495.957	0.105	991914	keystroke_m	m	n/a
496.122	0.1045	992244	keystroke_a	a	n/a
496.211	0.166	992422	keystroke_r	r	n/a
496.422	0.1045	992844	keystroke_s	s	n/a
496.8715	0.06	993743	keystroke_Key.backspace	Key.backspace	n/a
497.3225	0.0885	994645	keystroke_k	k	n/a
497.471	0.106	994942	keystroke_s	s	n/a
497.997	0.1195	995994	keystroke_Key.space	Key.space	n/a
498.462	0.15	996924	keystroke_a	a	n/a
498.597	0.1055	997194	keystroke_r	r	n/a
498.672	0.0895	997344	keystroke_e	e	n/a
498.7775	0.105	997555	keystroke_Key.space	Key.space	n/a
499.0765	0.106	998153	keystroke_c	c	n/a
499.1675	0.09	998335	keystroke_h	h	n/a
499.2725	0.075	998545	keystroke_a	a	n/a
499.3775	0.105	998755	keystroke_n	n	n/a
499.6025	0.059	999205	keystroke_e	e	n/a
500.172	0.0605	1000344	keystroke_Key.backspace	Key.backspace	n/a
501.643	0.06	1003286	keystroke_g	g	n/a
501.703	0.089	1003406	keystroke_e	e	n/a
502.0925	0.0905	1004185	keystroke_Key.enter	Key.enter	n/a
502.189	8.921	1004378	prompt	n/a	consensus patterns aviation echo\n
503.0835	0.075	1006167	keystroke_c	c	n/a
503.188	0.1345	1006376	keystroke_o	o	n/a
503.3085	0.09	1006617	keystroke_n	n	n/a
503.8935	0.06	1007787	keystroke_s	s	n/a
503.998	0.1055	1007996	keystroke_e	e	n/a
504.193	0.09	1008386	keystroke_n	n	n/a
504.598	0.075	1009196	keystroke_s	s	n/a
504.7035	0.075	1009407	keystroke_u	u	n/a
504.8085	0.075	1009617	keystroke_s	s	n/a
504.9735	0.1045	1009947	keystroke_Key.space	Key.space	n/a
506.248	0.06	1012496	keystroke_p	p	n/a
506.308	0.045	1012616	keystroke_a	a	n/a
507.073	0.0605	1014146	keystroke_t	t	n/a
507.208	0.06	1014416	keystroke_t	t	n/a
507.3435	0.1645	1014687	keystroke_e	e	n/a
507.4785	0.0895	1014957	keystroke_r	r	n/a
507.628	0.09	1015256	keystroke_n	n	n/a
507.7785	0.045	1015557	keystroke_s	s	n/a
507.8835	0.12	1015767	keystroke_Key.space	Key.space	n/a
508.6485	0.014	1017297	keystroke_a	a	n/a
508.7235	0.1045	1017447	keystroke_v	v	n/a
508.8425	0.091	1017685	keystroke_i	i	n/a
508.9785	0.074	1017957	keystroke_a	a	n/a
509.278	0.06	1018556	keystroke_t	t	n/a
509.368	0.1055	1018736	keystroke_i	i	n/a
509.4435	0.165	1018887	keystroke_o	o	n/a
509.563	0.105	1019126	keystroke_n	n	n/a
509.9835	0.104	1019967	keystroke_Key.space	Key.space	n/a
510.2235	0.06	1020447	keystroke_e	e	n/a
510.569	0.074	1021138	keystroke_c	c	n/a
510.658	0.0905	1021316	keystroke_h	h	n/a
510.778	0.09	1021556	keystroke_o	o	n/a
511.018	0.09	1022036	keystroke_Key.enter	Key.enter	n/a
511.114	9.746	1022228	prompt	n/a	infants yeast ferrari hockey\n
511.949	0.0885	1023898	keystroke_i	i	n/a
512.0835	0.09	1024167	keystroke_n	n	n/a
512.248	0.09	1024496	keystroke_f	f	n/a
512.3835	0.0445	1024767	keystroke_a	a	n/a
512.474	0.0895	1024948	keystroke_n	n	n/a
512.608	0.0905	1025216	keystroke_t	t	n/a
512.7585	0.09	1025517	keystroke_s	s	n/a
512.8935	0.09	1025787	keystroke_Key.space	Key.space	n/a
513.328	0.06	1026656	keystroke_y	y	n/a
513.4335	0.1345	1026867	keystroke_e	e	n/a
513.538	0.165	1027076	keystroke_a	a	n/a
513.748	0.09	1027496	keystroke_r	r	n/a
513.9725	0.0605	1027945	keystroke_s	s	n/a
514.678	0.0605	1029356	keystroke_Key.backspace	Key.backspace	n/a
514.828	0.045	1029656	keystroke_Key.backspace	Key.backspace	n/a
514.9035	0.1045	1029807	keystroke_s	s	n/a
515.008	0.0905	1030016	keystroke_t	t	n/a
515.2485	0.0895	1030497	keystroke_Key.space	Key.space	n/a
515.9085	0.0745	1031817	keystroke_f	f	n/a
516.073	0.1645	1032146	keystroke_e	e	n/a
516.3125	0.075	1032625	keystroke_r	r	n/a
516.4625	0.075	1032925	keystroke_r	r	n/a
516.583	0.1205	1033166	keystroke_a	a	n/a
516.733	0.09	1033466	keystroke_r	r	n/a
516.913	0.075	1033826	keystroke_i	i	n/a
517.258	0.09	1034516	keystroke_Key.space	Key.space	n/a
517.483	0.075	1034966	keystroke_h	h	n/a
517.5735	0.12	1035147	keystroke_o	o	n/a
519.6735	0.0895	1039347	keystroke_c	c	n/a
519.808	0.105	1039616	keystroke_k	k	n/a
520.063	0.06	1040126	keystroke_e	e	n/a
520.138	0.09	1040276	keystroke_y	y	n/a
520.753	0.105	1041506	keystroke_Key.enter	Key.enter	n/a
520.864	7.3605	1041728	prompt	n/a	failures clouds spread paintball\n
521.6535	0.1195	1043307	keystroke_f	f	n/a
521.758	0.075	1043516	keystroke_a	a	n/a
521.878	0.1045	1043756	keystroke_i	i	n/a
522.0875	0.15	1044175	keystroke_l	l	n/a
522.253	0.075	1044506	keystroke_u	u	n/a
522.3425	0.135	1044685	keystroke_r	r	n/a
522.4485	0.1345	1044897	keystroke_e	e	n/a
522.5675	0.105	1045135	keystroke_s	s	n/a
522.7025	0.12	1045405	keystroke_Key.space	Key.space	n/a
523.167	0.106	1046334	keystroke_c	c	n/a
523.3475	0.0605	1046695	keystroke_l	l	n/a
523.5125	0.15	1047025	keystroke_o	o	n/a
523.6475	0.1055	1047295	keystroke_u	u	n/a
523.798	0.1495	1047596	keystroke_d	d	n/a
523.9325	0.09	1047865	keystroke_s	s	n/a
524.0525	0.12	1048105	keystroke_Key.space	Key.space	n/a
524.428	0.09	1048856	keystroke_s	s	n/a
524.578	0.059	1049156	keystroke_p	p	n/a
524.698	0.149	1049396	keystroke_r	r	n/a
524.818	0.1795	1049636	keystroke_e	e	n/a
524.953	0.105	1049906	keystroke_a	a	n/a
525.193	0.074	1050386	keystroke_d	d	n/a
525.327	0.1055	1050654	keystroke_Key.space	Key.space	n/a
526.1685	0.0745	1052337	keystroke_p	p	n/a
526.303	0.045	1052606	keystroke_a	a	n/a
526.393	0.1945	1052786	keystroke_i	i	n/a
526.5425	0.1055	1053085	keystroke_n	n	n/a
527.323	0.089	1054646	keystroke_t	t	n/a
527.458	0.0745	1054916	keystroke_b	b	n/a
527.5775	0.06	1055155	keystroke_a	a	n/a
527.683	0.0745	1055366	keystroke_l	l	n/a
527.8475	0.0895	1055695	keystroke_l	l	n/a
528.148	0.0745	1056296	keystroke_Key.enter	Key.enter	n/a
528.231	9.353	1056462	prompt	n/a	empirical cold based franklin\n
529.3325	0.045	1058665	keystroke_e	e	n/a
529.4525	0.12	1058905	keystroke_m	m	n/a
530.5175	0.075	1061035	keystroke_p	p	n/a
532.86	0.001	1065720	keystroke_i	i	n/a
533.0075	0.075	1066015	keystroke_r	r	n/a
533.1125	0.075	1066225	keystroke_i	i	n/a
533.2475	0.12	1066495	keystroke_c	c	n/a
533.3825	0.0755	1066765	keystroke_a	a	n/a
533.502	0.106	1067004	keystroke_l	l	n/a
533.622	0.1045	1067244	keystroke_Key.space	Key.space	n/a
534.4175	0.09	1068835	keystroke_c	c	n/a
534.5525	0.0455	1069105	keystroke_o	o	n/a
534.7025	0.075	1069405	keystroke_l	l	n/a
534.8075	0.09	1069615	keystroke_d	d	n/a
534.882	0.105	1069764	keystroke_Key.space	Key.space	n/a
535.0325	0.09	1070065	keystroke_b	b	n/a
535.1375	0.0895	1070275	keystroke_a	a	n/a
535.3025	0.1345	1070605	keystroke_s	s	n/a
535.422	0.09	1070844	keystroke_e	e	n/a
535.6325	0.075	1071265	keystroke_d	d	n/a
535.7225	0.105	1071445	keystroke_Key.space	Key.space	n/a
536.0675	0.06	1072135	keystroke_f	f	n/a
536.2325	0.105	1072465	keystroke_r	r	n/a
536.3675	0.075	1072735	keystroke_a	a	n/a
536.4275	0.135	1072855	keystroke_n	n	n/a
536.8325	0.075	1073665	keystroke_k	k	n/a
537.042	0.0605	1074084	keystroke_l	l	n/a
537.2075	0.15	1074415	keystroke_i	i	n/a
537.2975	0.1195	1074595	keystroke_n	n	n/a
537.4925	0.0895	1074985	keystroke_Key.enter	Key.enter	n/a
537.5885	9.3995	1075177	prompt	n/a	assuming reader concentrate chains\n
538.287	0.09	1076574	keystroke_a	a	n/a
538.497	0.075	1076994	keystroke_s	s	n/a
538.632	0.075	1077264	keystroke_s	s	n/a
538.782	0.0605	1077564	keystroke_u	u	n/a
538.9925	0.0895	1077985	keystroke_m	m	n/a
539.112	0.165	1078224	keystroke_i	i	n/a
539.232	0.0905	1078464	keystroke_n	n	n/a
539.337	0.09	1078674	keystroke_g	g	n/a
539.442	0.12	1078884	keystroke_Key.space	Key.space	n/a
539.6225	0.1345	1079245	keystroke_r	r	n/a
539.7275	0.1345	1079455	keystroke_e	e	n/a
539.832	0.0905	1079664	keystroke_a	a	n/a
540.027	0.09	1080054	keystroke_d	d	n/a
540.237	0.135	1080474	keystroke_e	e	n/a
540.387	0.0905	1080774	keystroke_r	r	n/a
540.5225	0.075	1081045	keystroke_Key.space	Key.space	n/a
540.7025	0.09	1081405	keystroke_c	c	n/a
540.762	0.15	1081524	keystroke_o	o	n/a
540.867	0.105	1081734	keystroke_n	n	n/a
541.9925	0.089	1083985	keystroke_c	c	n/a
542.1415	0.0905	1084283	keystroke_e	e	n/a
542.2325	0.104	1084465	keystroke_n	n	n/a
542.3525	0.0445	1084705	keystroke_t	t	n/a
542.5315	0.18	1085063	keystroke_r	r	n/a
542.7725	0.044	1085545	keystroke_a	a	n/a
542.967	0.0905	1085934	keystroke_t	t	n/a
543.1025	0.045	1086205	keystroke_e	e	n/a
543.1775	0.1045	1086355	keystroke_Key.space	Key.space	n/a
544.617	0.09	1089234	keystroke_c	c	n/a
544.692	0.105	1089384	keystroke_h	h	n/a
544.812	0.06	1089624	keystroke_a	a	n/a
544.887	0.1355	1089774	keystroke_i	i	n/a
545.037	0.105	1090074	keystroke_n	n	n/a
545.157	0.0605	1090314	keystroke_d	d	n/a
546.4615	0.075	1092923	keystroke_Key.backspace	Key.backspace	n/a
546.6115	0.091	1093223	keystroke_s	s	n/a
546.9115	0.075	1093823	keystroke_Key.enter	Key.enter	n/a
546.9925	10.6455	1093985	prompt	n/a	tear yields stud measures\n
548.637	0.074	1097274	keystroke_y	y	n/a
548.727	0.1195	1097454	keystroke_e	e	n/a
548.817	0.135	1097634	keystroke_a	a	n/a
548.966	0.0605	1097932	keystroke_r	r	n/a
549.731	0.0455	1099462	keystroke_Key.backspace	Key.backspace	n/a
549.866	0.045	1099732	keystroke_Key.backspace	Key.backspace	n/a
549.9865	0.0905	1099973	keystroke_Key.backspace	Key.backspace	n/a
550.137	0.0595	1100274	keystroke_Key.backspace	Key.backspace	n/a
551.022	0.075	1102044	keystroke_t	t	n/a
551.172	0.12	1102344	keystroke_e	e	n/a
551.2925	0.1345	1102585	keystroke_a	a	n/a
551.412	0.105	1102824	keystroke_r	r	n/a
551.621	0.09	1103242	keystroke_Key.space	Key.space	n/a
553.286	0.06	1106572	keystroke_y	y	n/a
553.421	0.105	1106842	keystroke_i	i	n/a
553.6465	0.06	1107293	keystroke_e	e	n/a
553.8715	0.09	1107743	keystroke_l	l	n/a
554.0065	0.135	1108013	keystroke_d	d	n/a
554.127	0.059	1108254	keystroke_s	s	n/a
554.636	0.12	1109272	keystroke_Key.space	Key.space	n/a
555.011	0.075	1110022	keystroke_s	s	n/a
555.146	0.076	1110292	keystroke_t	t	n/a
555.2965	0.0895	1110593	keystroke_u	u	n/a
555.416	0.09	1110832	keystroke_d	d	n/a
555.581	0.0905	1111162	keystroke_Key.space	Key.space	n/a
555.836	0.09	1111672	keystroke_m	m	n/a
555.927	0.119	1111854	keystroke_e	e	n/a
556.047	0.059	1112094	keystroke_a	a	n/a
556.256	0.1055	1112512	keystroke_s	s	n/a
556.3765	0.09	1112753	keystroke_u	u	n/a
556.4965	0.105	1112993	keystroke_r	r	n/a
556.5715	0.12	1113143	keystroke_e	e	n/a
556.9915	0.045	1113983	keystroke_s	s	n/a
557.546	0.09	1115092	keystroke_Key.enter	Key.enter	n/a
557.642	10.841	1115284	prompt	n/a	aboriginal bags murray jake\n
558.552	0.104	1117104	keystroke_a	a	n/a
558.9865	0.0905	1117973	keystroke_b	b	n/a
559.1515	0.1045	1118303	keystroke_o	o	n/a
559.406	0.075	1118812	keystroke_r	r	n/a
560.156	0.0905	1120312	keystroke_i	i	n/a
561.2965	0.0895	1122593	keystroke_g	g	n/a
561.4915	0.105	1122983	keystroke_i	i	n/a
561.6415	0.0745	1123283	keystroke_n	n	n/a
561.746	0.06	1123492	keystroke_a	a	n/a
562.316	0.165	1124632	keystroke_l	l	n/a
562.466	0.105	1124932	keystroke_Key.space	Key.space	n/a
562.646	0.0755	1125292	keystroke_b	b	n/a
562.781	0.0605	1125562	keystroke_a	a	n/a
562.931	0.09	1125862	keystroke_g	g	n/a
563.096	0.06	1126192	keystroke_s	s	n/a
563.5165	0.0895	1127033	keystroke_Key.space	Key.space	n/a
563.741	0.075	1127482	keystroke_m	m	n/a
563.936	0.075	1127872	keystroke_u	u	n/a
564.0715	0.0445	1128143	keystroke_r	r	n/a
564.206	0.06	1128412	keystroke_r	r	n/a
564.281	0.045	1128562	keystroke_a	a	n/a
564.566	0.0605	1129132	keystroke_y	y	n/a
564.836	0.105	1129672	keystroke_Key.space	Key.space	n/a
565.121	0.09	1130242	keystroke_k	k	n/a
565.87	0.0605	1131740	keystroke_Key.backspace	Key.backspace	n/a
566.1405	0.076	1132281	keystroke_h	h	n/a
566.6805	0.075	1133361	keystroke_Key.backspace	Key.backspace	n/a
567.806	0.015	1135612	keystroke_j	j	n/a
567.836	0.06	1135672	keystroke_a	a	n/a
568.0015	0.0895	1136003	keystroke_k	k	n/a
568.121	0.06	1136242	keystroke_e	e	n/a
568.391	0.0895	1136782	keystroke_Key.enter	Key.enter	n/a
568.4865	12.595	1136973	prompt	n/a	bacon organizing vanilla modern\n
569.291	0.075	1138582	keystroke_b	b	n/a
569.426	0.06	1138852	keystroke_a	a	n/a
569.561	0.0905	1139122	keystroke_c	c	n/a
570.0105	0.0905	1140021	keystroke_o	o	n/a
570.1605	0.1355	1140321	keystroke_n	n	n/a
570.3105	0.09	1140621	keystroke_Key.space	Key.space	n/a
571.1955	0.09	1142391	keystroke_o	o	n/a
571.346	0.0895	1142692	keystroke_r	r	n/a
572.141	0.06	1144282	keystroke_g	g	n/a
572.246	0.09	1144492	keystroke_a	a	n/a
572.381	0.09	1144762	keystroke_n	n	n/a
572.531	0.09	1145062	keystroke_i	i	n/a
572.981	0.045	1145962	keystroke_s	s	n/a
573.0405	0.15	1146081	keystroke_i	i	n/a
573.146	0.1045	1146292	keystroke_n	n	n/a
573.2355	0.0605	1146471	keystroke_g	g	n/a
573.355	0.09	1146710	keystroke_Key.space	Key.space	n/a
573.67	0.0455	1147340	keystroke_Key.backspace	Key.backspace	n/a
573.82	0.045	1147640	keystroke_Key.backspace	Key.backspace	n/a
573.9555	0.0455	1147911	keystroke_Key.backspace	Key.backspace	n/a
574.105	0.03	1148210	keystroke_Key.backspace	Key.backspace	n/a
574.315	0.06	1148630	keystroke_Key.backspace	Key.backspace	n/a
574.435	0.0455	1148870	keystroke_x	x	n/a
574.691	0.0445	1149382	keystroke_i	i	n/a
574.7055	0.09	1149411	keystroke_n	n	n/a
575.0505	0.045	1150101	keystroke_Key.backspace	Key.backspace	n/a
575.1855	0.06	1150371	keystroke_Key.backspace	Key.backspace	n/a
575.3205	0.045	1150641	keystroke_Key.backspace	Key.backspace	n/a
575.4105	0.06	1150821	keystroke_z	z	n/a
575.5605	0.135	1151121	keystroke_i	i	n/a
575.6655	0.09	1151331	keystroke_n	n	n/a
575.7255	0.075	1151451	keystroke_g	g	n/a
575.8755	0.075	1151751	keystroke_Key.space	Key.space	n/a
578.157	0.058	1156314	keystroke_v	v	n/a
578.23	0.045	1156460	keystroke_a	a	n/a
578.455	0.15	1156910	keystroke_n	n	n/a
578.59	0.06	1157180	keystroke_i	i	n/a
578.77	0.045	1157540	keystroke_l	l	n/a
578.905	0.09	1157810	keystroke_l	l	n/a
579.01	0.03	1158020	keystroke_a	a	n/a
579.1	0.119	1158200	keystroke_Key.space	Key.space	n/a
579.67	0.0895	1159340	keystroke_m	m	n/a
579.7755	0.089	1159551	keystroke_o	o	n/a
579.925	0.0755	1159850	keystroke_d	d	n/a
580.105	0.135	1160210	keystroke_e	e	n/a
580.1945	0.0905	1160389	keystroke_r	r	n/a
580.779	0.0755	1161558	keystroke_n	n	n/a
581.004	0.075	1162008	keystroke_Key.enter	Key.enter	n/a
581.0855	11.8015	1162171	prompt	n/a	gambling constructed poker untitled\n
582.4445	0.06	1164889	keystroke_g	g	n/a
582.5055	0.089	1165011	keystroke_a	a	n/a
582.64	0.1045	1165280	keystroke_m	m	n/a
582.865	0.075	1165730	keystroke_b	b	n/a
583.0445	0.09	1166089	keystroke_l	l	n/a
583.2545	0.12	1166509	keystroke_i	i	n/a
584.32	0.0295	1168640	keystroke_n	n	n/a
584.515	0.0145	1169030	keystroke_g	g	n/a
584.5745	0.1205	1169149	keystroke_Key.space	Key.space	n/a
586.045	0.06	1172090	keystroke_c	c	n/a
586.15	0.135	1172300	keystroke_o	o	n/a
586.24	0.12	1172480	keystroke_n	n	n/a
586.375	0.09	1172750	keystroke_s	s	n/a
586.54	0.075	1173080	keystroke_t	t	n/a
586.72	0.06	1173440	keystroke_r	r	n/a
586.884	0.076	1173768	keystroke_u	u	n/a
586.975	0.075	1173950	keystroke_c	c	n/a
587.185	0.03	1174370	keystroke_t	t	n/a
587.4095	0.075	1174819	keystroke_e	e	n/a
587.5895	0.0605	1175179	keystroke_d	d	n/a
587.695	0.0895	1175390	keystroke_Key.space	Key.space	n/a
588.46	0.075	1176920	keystroke_p	p	n/a
588.655	0.06	1177310	keystroke_o	o	n/a
588.88	0.09	1177760	keystroke_k	k	n/a
589.029	0.106	1178058	keystroke_e	e	n/a
589.375	0.06	1178750	keystroke_r	r	n/a
589.495	0.105	1178990	keystroke_Key.space	Key.space	n/a
590.259	0.016	1180518	keystroke_u	u	n/a
590.395	0.089	1180790	keystroke_n	n	n/a
591.804	0.0905	1183608	keystroke_t	t	n/a
591.9395	0.0895	1183879	keystroke_i	i	n/a
592.209	0.075	1184418	keystroke_t	t	n/a
592.389	0.0755	1184778	keystroke_l	l	n/a
592.4795	0.06	1184959	keystroke_e	e	n/a
592.6595	0.06	1185319	keystroke_d	d	n/a
592.809	0.075	1185618	keystroke_Key.enter	Key.enter	n/a
592.891	9.085	1185782	prompt	n/a	system athletics temporary senegal\n
594.204	0.0745	1188408	keystroke_s	s	n/a
594.3535	0.076	1188707	keystroke_y	y	n/a
594.475	0.089	1188950	keystroke_s	s	n/a
594.6995	0.06	1189399	keystroke_t	t	n/a
594.9245	0.015	1189849	keystroke_e	e	n/a
594.9845	0.15	1189969	keystroke_m	m	n/a
595.1195	0.105	1190239	keystroke_Key.space	Key.space	n/a
595.4195	0.075	1190839	keystroke_a	a	n/a
595.8545	0.09	1191709	keystroke_t	t	n/a
595.9745	0.075	1191949	keystroke_h	h	n/a
596.259	0.0755	1192518	keystroke_l	l	n/a
596.364	0.0905	1192728	keystroke_e	e	n/a
596.5445	0.0755	1193089	keystroke_t	t	n/a
596.664	0.1055	1193328	keystroke_i	i	n/a
596.7995	0.105	1193599	keystroke_c	c	n/a
596.9945	0.075	1193989	keystroke_s	s	n/a
597.1745	0.075	1194349	keystroke_Key.space	Key.space	n/a
597.6245	0.075	1195249	keystroke_t	t	n/a
597.7895	0.075	1195579	keystroke_e	e	n/a
597.9695	0.105	1195939	keystroke_m	m	n/a
598.839	0.075	1197678	keystroke_p	p	n/a
599.0195	0.09	1198039	keystroke_o	o	n/a
599.1245	0.09	1198249	keystroke_r	r	n/a
599.29	0.0595	1198580	keystroke_a	a	n/a
599.7695	0.075	1199539	keystroke_r	r	n/a
599.9045	0.09	1199809	keystroke_y	y	n/a
600.0995	0.104	1200199	keystroke_Key.space	Key.space	n/a
600.4745	0.075	1200949	keystroke_s	s	n/a
600.6395	0.075	1201279	keystroke_e	e	n/a
600.9545	0.075	1201909	keystroke_n	n	n/a
601.0745	0.09	1202149	keystroke_e	e	n/a
601.2835	0.061	1202567	keystroke_g	g	n/a
601.3885	0.075	1202777	keystroke_a	a	n/a
601.6285	0.121	1203257	keystroke_l	l	n/a
601.9135	0.0605	1203827	keystroke_Key.enter	Key.enter	n/a
601.9815	10.179	1203963	prompt	n/a	defense harper tulsa national\n
602.7095	0.06	1205419	keystroke_d	d	n/a
602.8895	0.06	1205779	keystroke_e	e	n/a
603.5785	0.0905	1207157	keystroke_f	f	n/a
603.759	0.0605	1207518	keystroke_e	e	n/a
603.894	0.0755	1207788	keystroke_n	n	n/a
604.0135	0.105	1208027	keystroke_s	s	n/a
604.1035	0.075	1208207	keystroke_e	e	n/a
604.239	0.075	1208478	keystroke_Key.space	Key.space	n/a
604.5395	0.0595	1209079	keystroke_h	h	n/a
604.6585	0.076	1209317	keystroke_a	a	n/a
604.8395	0.044	1209679	keystroke_r	r	n/a
604.9445	0.0895	1209889	keystroke_p	p	n/a
605.108	0.135	1210216	keystroke_e	e	n/a
605.258	0.045	1210516	keystroke_r	r	n/a
605.319	0.089	1210638	keystroke_Key.space	Key.space	n/a
605.604	0.09	1211208	keystroke_t	t	n/a
605.768	0.0905	1211536	keystroke_u	u	n/a
605.948	0.091	1211896	keystroke_l	l	n/a
606.174	0.134	1212348	keystroke_s	s	n/a
606.564	0.075	1213128	keystroke_a	a	n/a
606.683	0.12	1213366	keystroke_Key.space	Key.space	n/a
607.794	0.044	1215588	keystroke_Key.backspace	Key.backspace	n/a
607.928	0.045	1215856	keystroke_Key.backspace	Key.backspace	n/a
609.084	0.029	1218168	keystroke_a	a	n/a
609.203	0.09	1218406	keystroke_Key.space	Key.space	n/a
610.238	0.106	1220476	keystroke_n	n	n/a
610.403	0.045	1220806	keystroke_a	a	n/a
610.5235	0.0755	1221047	keystroke_t	t	n/a
610.614	0.1495	1221228	keystroke_i	i	n/a
610.7325	0.151	1221465	keystroke_o	o	n/a
610.838	0.1195	1221676	keystroke_n	n	n/a
611.0775	0.0455	1222155	keystroke_l	l	n/a
611.528	0.0595	1223056	keystroke_Key.backspace	Key.backspace	n/a
611.6335	0.09	1223267	keystroke_a	a	n/a
611.8275	0.0915	1223655	keystroke_l	l	n/a
612.0985	0.059	1224197	keystroke_Key.enter	Key.enter	n/a
612.1645	8.2015	1224329	prompt	n/a	preparing bridge patrol awarded\n
613.1335	0.09	1226267	keystroke_p	p	n/a
613.4485	0.0745	1226897	keystroke_r	r	n/a
613.583	0.075	1227166	keystroke_e	e	n/a
613.733	0.075	1227466	keystroke_p	p	n/a
613.868	0.09	1227736	keystroke_a	a	n/a
614.5735	0.0745	1229147	keystroke_r	r	n/a
614.663	0.15	1229326	keystroke_i	i	n/a
614.798	0.105	1229596	keystroke_n	n	n/a
614.814	0.0745	1229628	keystroke_g	g	n/a
614.978	0.1045	1229956	keystroke_Key.space	Key.space	n/a
615.5775	0.045	1231155	keystroke_b	b	n/a
616.928	0.075	1233856	keystroke_r	r	n/a
617.063	0.09	1234126	keystroke_i	i	n/a
617.4235	0.03	1234847	keystroke_d	d	n/a
617.5435	0.06	1235087	keystroke_g	g	n/a
617.7085	0.06	1235417	keystroke_e	e	n/a
617.8285	0.105	1235657	keystroke_Key.space	Key.space	n/a
618.0825	0.075	1236165	keystroke_p	p	n/a
618.2185	0.045	1236437	keystroke_a	a	n/a
618.3525	0.075	1236705	keystroke_t	t	n/a
618.5325	0.0755	1237065	keystroke_r	r	n/a
618.638	0.075	1237276	keystroke_o	o	n/a
618.818	0.105	1237636	keystroke_l	l	n/a
618.953	0.0905	1237906	keystroke_Key.space	Key.space	n/a
619.058	0.0755	1238116	keystroke_a	a	n/a
619.238	0.075	1238476	keystroke_w	w	n/a
619.403	0.09	1238806	keystroke_a	a	n/a
619.583	0.12	1239166	keystroke_r	r	n/a
619.8535	0.06	1239707	keystroke_d	d	n/a
620.0035	0.045	1240007	keystroke_e	e	n/a
620.168	0.045	1240336	keystroke_d	d	n/a
620.3025	0.06	1240605	keystroke_Key.enter	Key.enter	n/a
620.3705	7.239	1240741	prompt	n/a	contained updates called strongly\n
621.443	0.045	1242886	keystroke_o	o	n/a
621.803	0.075	1243606	keystroke_Key.backspace	Key.backspace	n/a
621.938	0.105	1243876	keystroke_c	c	n/a
622.058	0.135	1244116	keystroke_o	o	n/a
622.148	0.12	1244296	keystroke_n	n	n/a
622.3875	0.075	1244775	keystroke_t	t	n/a
622.508	0.0745	1245016	keystroke_a	a	n/a
622.7025	0.15	1245405	keystroke_i	i	n/a
622.8225	0.09	1245645	keystroke_n	n	n/a
622.9275	0.06	1245855	keystroke_e	e	n/a
623.0925	0.06	1246185	keystroke_d	d	n/a
623.1825	0.09	1246365	keystroke_Key.space	Key.space	n/a
623.438	0.09	1246876	keystroke_u	u	n/a
623.603	0.075	1247206	keystroke_p	p	n/a
623.783	0.105	1247566	keystroke_d	d	n/a
623.933	0.1195	1247866	keystroke_a	a	n/a
624.0675	0.06	1248135	keystroke_t	t	n/a
624.173	0.12	1248346	keystroke_e	e	n/a
624.323	0.09	1248646	keystroke_s	s	n/a
624.548	0.09	1249096	keystroke_Key.space	Key.space	n/a
624.8475	0.105	1249695	keystroke_c	c	n/a
624.9825	0.075	1249965	keystroke_a	a	n/a
625.1025	0.075	1250205	keystroke_l	l	n/a
625.2675	0.06	1250535	keystroke_l	l	n/a
625.343	0.0595	1250686	keystroke_e	e	n/a
625.493	0.075	1250986	keystroke_d	d	n/a
625.5825	0.12	1251165	keystroke_Key.space	Key.space	n/a
625.9585	0.0595	1251917	keystroke_s	s	n/a
626.1225	0.045	1252245	keystroke_t	t	n/a
626.2885	0.0745	1252577	keystroke_r	r	n/a
626.3775	0.165	1252755	keystroke_o	o	n/a
626.5125	0.12	1253025	keystroke_n	n	n/a
626.6335	0.074	1253267	keystroke_g	g	n/a
626.7825	0.06	1253565	keystroke_l	l	n/a
627.1875	0.06	1254375	keystroke_y	y	n/a
627.5325	0.0755	1255065	keystroke_Key.enter	Key.enter	n/a
627.6135	16.5405	1255227	prompt	n/a	wages broader affordable loading\n
628.478	0.03	1256956	keystroke_w	w	n/a
628.598	0.06	1257196	keystroke_a	a	n/a
628.7925	0.0445	1257585	keystroke_g	g	n/a
628.957	0.0605	1257914	keystroke_e	e	n/a
629.123	0.089	1258246	keystroke_d	d	n/a
629.738	0.075	1259476	keystroke_Key.backspace	Key.backspace	n/a
629.903	0.075	1259806	keystroke_s	s	n/a
630.052	0.075	1260104	keystroke_Key.space	Key.space	n/a
630.938	0.06	1261876	keystroke_b	b	n/a
631.118	0.075	1262236	keystroke_o	o	n/a
631.3425	0.105	1262685	keystroke_r	r	n/a
631.8225	0.0755	1263645	keystroke_Key.backspace	Key.backspace	n/a
633.413	0.0595	1266826	keystroke_Key.backspace	Key.backspace	n/a
633.8475	0.0605	1267695	keystroke_r	r	n/a
634.027	0.075	1268054	keystroke_o	o	n/a
634.207	0.045	1268414	keystroke_a	a	n/a
635.3775	0.045	1270755	keystroke_g	g	n/a
635.5575	0.105	1271115	keystroke_e	e	n/a
635.6475	0.075	1271295	keystroke_r	r	n/a
635.768	0.12	1271536	keystroke_Key.space	Key.space	n/a
635.9325	0.09	1271865	keystroke_a	a	n/a
636.0825	0.075	1272165	keystroke_f	f	n/a
636.5325	0.045	1273065	keystroke_Key.backspace	Key.backspace	n/a
