onset	duration	sample	value	key	prompt_text
44.945	34.3365	89890	prompt	n/a	the quick brown fox jumps over a lazy dog\n
69.036	0.0275	138072	keystroke_t	t	n/a
69.048	0.09	138096	keystroke_h	h	n/a
69.153	0.0905	138306	keystroke_e	e	n/a
69.3935	0.075	138787	keystroke_Key.space	Key.space	n/a
69.859	0.0745	139718	keystroke_q	q	n/a
69.9485	0.075	139897	keystroke_u	u	n/a
70.0985	0.0745	140197	keystroke_i	i	n/a
70.263	0.045	140526	keystroke_c	c	n/a
70.293	0.09	140586	keystroke_k	k	n/a
70.5185	0.044	141037	keystroke_Key.space	Key.space	n/a
71.4485	0.075	142897	keystroke_b	b	n/a
71.5685	0.075	143137	keystroke_r	r	n/a
71.7335	0.075	143467	keystroke_o	o	n/a
71.8235	0.105	143647	keystroke_w	w	n/a
71.9285	0.09	143857	keystroke_n	n	n/a
72.0935	0.0895	144187	keystroke_Key.space	Key.space	n/a
72.408	0.045	144816	keystroke_f	f	n/a
72.4985	0.0745	144997	keystroke_o	o	n/a
72.708	0.075	145416	keystroke_x	x	n/a
72.7985	0.0595	145597	keystroke_Key.space	Key.space	n/a
73.0535	0.0745	146107	keystroke_j	j	n/a
73.1885	0.0895	146377	keystroke_u	u	n/a
73.353	0.06	146706	keystroke_n	n	n/a
74.373	0.06	148746	keystroke_Key.backspace	Key.backspace	n/a
74.6735	0.075	149347	keystroke_m	m	n/a
74.853	0.105	149706	keystroke_p	p	n/a
74.973	0.09	149946	keystroke_s	s	n/a
75.108	0.0905	150216	keystroke_Key.space	Key.space	n/a
75.9485	0.075	151897	keystroke_o	o	n/a
76.0825	0.091	152165	keystroke_v	v	n/a
76.2485	0.105	152497	keystroke_e	e	n/a
76.3235	0.06	152647	keystroke_r	r	n/a
76.3985	0.09	152797	keystroke_Key.space	Key.space	n/a
76.5035	0.075	153007	keystroke_a	a	n/a
76.5785	0.09	153157	keystroke_Key.space	Key.space	n/a
76.7735	0.09	153547	keystroke_l	l	n/a
76.8785	0.135	153757	keystroke_a	a	n/a
77.1035	0.135	154207	keystroke_z	z	n/a
77.7485	0.0595	155497	keystroke_y	y	n/a
77.8685	0.075	155737	keystroke_Key.space	Key.space	n/a
78.1235	0.0745	156247	keystroke_d	d	n/a
78.6485	0.0895	157297	keystroke_o	o	n/a
78.753	0.0455	157506	keystroke_g	g	n/a
79.158	0.12	158316	keystroke_Key.enter	Key.enter	n/a
79.2875	10.598	158575	prompt	n/a	association halo opponents affected\n
80.2535	0.0895	160507	keystroke_a	a	n/a
80.433	0.06	160866	keystroke_s	s	n/a
80.553	0.075	161106	keystroke_s	s	n/a
80.793	0.06	161586	keystroke_c	c	n/a
81.9785	0.06	163957	keystroke_Key.backspace	Key.backspace	n/a
82.3235	0.06	164647	keystroke_o	o	n/a
82.3985	0.09	164797	keystroke_c	c	n/a
83.043	0.0755	166086	keystroke_i	i	n/a
83.1935	0.09	166387	keystroke_a	a	n/a
83.4335	0.105	166867	keystroke_t	t	n/a
84.0635	0.195	168127	keystroke_i	i	n/a
84.1385	0.15	168277	keystroke_o	o	n/a
84.2435	0.105	168487	keystroke_n	n	n/a
84.5735	0.09	169147	keystroke_Key.space	Key.space	n/a
84.9935	0.1045	169987	keystroke_h	h	n/a
85.083	0.1355	170166	keystroke_a	a	n/a
85.248	0.09	170496	keystroke_l	l	n/a
85.444	0.089	170888	keystroke_o	o	n/a
85.683	0.0605	171366	keystroke_Key.space	Key.space	n/a
86.4185	0.015	172837	keystroke_o	o	n/a
86.538	0.0605	173076	keystroke_p	p	n/a
86.658	0.075	173316	keystroke_p	p	n/a
86.808	0.075	173616	keystroke_o	o	n/a
87.0635	0.1045	174127	keystroke_n	n	n/a
87.154	0.074	174308	keystroke_e	e	n/a
87.243	0.0755	174486	keystroke_n	n	n/a
87.333	0.09	174666	keystroke_t	t	n/a
87.543	0.0755	175086	keystroke_s	s	n/a
87.9485	0.0445	175897	keystroke_Key.space	Key.space	n/a
88.1135	0.0895	176227	keystroke_a	a	n/a
88.5935	0.0745	177187	keystroke_f	f	n/a
88.728	0.09	177456	keystroke_f	f	n/a
88.804	0.104	177608	keystroke_e	e	n/a
88.938	0.1055	177876	keystroke_c	c	n/a
89.1485	0.0895	178297	keystroke_t	t	n/a
89.2085	0.105	178417	keystroke_e	e	n/a
89.358	0.1055	178716	keystroke_d	d	n/a
89.778	0.105	179556	keystroke_Key.enter	Key.enter	n/a
89.89	16.195	179780	prompt	n/a	disco sensors gore sponsored\n
90.9785	0.075	181957	keystroke_d	d	n/a
91.0385	0.0905	182077	keystroke_i	i	n/a
91.1135	0.105	182227	keystroke_s	s	n/a
91.278	0.0905	182556	keystroke_c	c	n/a
91.3985	0.0895	182797	keystroke_o	o	n/a
92.2985	0.06	184597	keystroke_Key.space	Key.space	n/a
92.4035	0.104	184807	keystroke_s	s	n/a
92.6285	0.075	185257	keystroke_e	e	n/a
92.914	0.0895	185828	keystroke_n	n	n/a
93.4085	0.1345	186817	keystroke_s	s	n/a
93.558	0.075	187116	keystroke_o	o	n/a
94.3235	0.075	188647	keystroke_r	r	n/a
94.503	0.0755	189006	keystroke_s	s	n/a
94.6685	0.09	189337	keystroke_Key.space	Key.space	n/a
95.1935	0.075	190387	keystroke_g	g	n/a
95.2835	0.075	190567	keystroke_o	o	n/a
95.3885	0.105	190777	keystroke_r	r	n/a
95.4485	0.0905	190897	keystroke_e	e	n/a
95.5535	0.09	191107	keystroke_Key.space	Key.space	n/a
95.8985	0.075	191797	keystroke_s	s	n/a
95.989	0.089	191978	keystroke_p	p	n/a
96.1385	0.12	192277	keystroke_o	o	n/a
96.2735	0.0895	192547	keystroke_n	n	n/a
96.439	0.03	192878	keystroke_d	d	n/a
96.753	0.1205	193506	keystroke_Key.backspace	Key.backspace	n/a
96.843	0.0905	193686	keystroke_s	s	n/a
97.0685	0.1345	194137	keystroke_e	e	n/a
97.1585	0.105	194317	keystroke_r	r	n/a
97.3685	0.075	194737	keystroke_t	t	n/a
97.503	0.12	195006	keystroke_e	e	n/a
97.6835	0.075	195367	keystroke_d	d	n/a
98.0135	0.105	196027	keystroke_Key.backspace	Key.backspace	n/a
98.1935	0.075	196387	keystroke_Key.backspace	Key.backspace	n/a
98.328	0.075	196656	keystroke_Key.backspace	Key.backspace	n/a
98.9435	0.03	197887	keystroke_r	r	n/a
99.228	0.1205	198456	keystroke_Key.backspace	Key.backspace	n/a
99.3485	0.075	198697	keystroke_e	e	n/a
99.5735	0.0605	199147	keystroke_d	d	n/a
101.825	0.0135	203650	keystroke_Key.backspace	Key.backspace	n/a
101.9735	0.0595	203947	keystroke_Key.backspace	Key.backspace	n/a
102.168	0.06	204336	keystroke_Key.backspace	Key.backspace	n/a
102.888	0.0605	205776	keystroke_Key.backspace	Key.backspace	n/a
103.354	0.0745	206708	keystroke_o	o	n/a
103.4585	0.06	206917	keystroke_e	e	n/a
104.493	0.061	208986	keystroke_Key.backspace	Key.backspace	n/a
104.5685	0.0755	209137	keystroke_r	r	n/a
104.7485	0.0595	209497	keystroke_e	e	n/a
104.913	0.06	209826	keystroke_d	d	n/a
106.023	0.06	212046	keystroke_Key.enter	Key.enter	n/a
106.091	9.8065	212182	prompt	n/a	productivity meets international mailto\n
107.238	0.0755	214476	keystroke_p	p	n/a
107.4185	0.09	214837	keystroke_r	r	n/a
107.494	0.0895	214988	keystroke_o	o	n/a
107.6585	0.105	215317	keystroke_d	d	n/a
107.7935	0.105	215587	keystroke_u	u	n/a
107.8985	0.09	215797	keystroke_c	c	n/a
108.1235	0.075	216247	keystroke_t	t	n/a
108.2135	0.09	216427	keystroke_i	i	n/a
108.3185	0.105	216637	keystroke_v	v	n/a
108.4085	0.06	216817	keystroke_i	i	n/a
108.6635	0.06	217327	keystroke_t	t	n/a
108.8135	0.105	217627	keystroke_y	y	n/a
109.323	0.0455	218646	keystroke_Key.space	Key.space	n/a
109.488	0.09	218976	keystroke_m	m	n/a
109.593	0.06	219186	keystroke_e	e	n/a
109.728	0.075	219456	keystroke_e	e	n/a
109.923	0.09	219846	keystroke_t	t	n/a
110.568	0.09	221136	keystroke_s	s	n/a
111.3335	0.0745	222667	keystroke_Key.space	Key.space	n/a
111.558	0.121	223116	keystroke_i	i	n/a
111.663	0.09	223326	keystroke_n	n	n/a
111.769	0.074	223538	keystroke_t	t	n/a
111.889	0.104	223778	keystroke_e	e	n/a
111.979	0.059	223958	keystroke_r	r	n/a
112.1585	0.0745	224317	keystroke_n	n	n/a
112.294	0.105	224588	keystroke_a	a	n/a
112.503	0.075	225006	keystroke_t	t	n/a
112.563	0.165	225126	keystroke_i	i	n/a
112.623	0.15	225246	keystroke_o	o	n/a
112.6835	0.1195	225367	keystroke_n	n	n/a
113.2235	0.1045	226447	keystroke_a	a	n/a
113.298	0.075	226596	keystroke_l	l	n/a
113.508	0.0605	227016	keystroke_Key.space	Key.space	n/a
114.0635	0.075	228127	keystroke_m	m	n/a
114.2135	0.105	228427	keystroke_a	a	n/a
115.024	0.075	230048	keystroke_i	i	n/a
115.204	0.075	230408	keystroke_l	l	n/a
115.3085	0.075	230617	keystroke_t	t	n/a
115.384	0.104	230768	keystroke_o	o	n/a
115.803	0.09	231606	keystroke_Key.enter	Key.enter	n/a
115.9045	11.6615	231809	prompt	n/a	minimum medline bits prior\n
116.749	0.089	233498	keystroke_m	m	n/a
116.898	0.1205	233796	keystroke_i	i	n/a
117.004	0.075	234008	keystroke_n	n	n/a
117.093	0.075	234186	keystroke_i	i	n/a
117.454	0.059	234908	keystroke_m	m	n/a
117.5885	0.0895	235177	keystroke_u	u	n/a
117.7385	0.1195	235477	keystroke_m	m	n/a
118.383	0.075	236766	keystroke_Key.space	Key.space	n/a
118.549	0.089	237098	keystroke_m	m	n/a
118.624	0.09	237248	keystroke_e	e	n/a
118.819	0.075	237638	keystroke_d	d	n/a
118.954	0.0745	237908	keystroke_l	l	n/a
119.1325	0.136	238265	keystroke_i	i	n/a
119.2235	0.119	238447	keystroke_n	n	n/a
119.3285	0.075	238657	keystroke_e	e	n/a
119.4325	0.091	238865	keystroke_Key.space	Key.space	n/a
119.659	0.0735	239318	keystroke_m	m	n/a
119.8235	0.075	239647	keystroke_e	e	n/a
120.019	0.0595	240038	keystroke_d	d	n/a
120.2885	0.075	240577	keystroke_l	l	n/a
120.4835	0.105	240967	keystroke_i	i	n/a
120.5585	0.09	241117	keystroke_n	n	n/a
120.6335	0.075	241267	keystroke_e	e	n/a
122.283	0.06	244566	keystroke_Key.backspace	Key.backspace	n/a
122.4185	0.0595	244837	keystroke_Key.backspace	Key.backspace	n/a
122.553	0.06	245106	keystroke_Key.backspace	Key.backspace	n/a
122.688	0.06	245376	keystroke_Key.backspace	Key.backspace	n/a
122.823	0.06	245646	keystroke_Key.backspace	Key.backspace	n/a
123.3035	0.075	246607	keystroke_Key.backspace	Key.backspace	n/a
123.5585	0.075	247117	keystroke_Key.backspace	Key.backspace	n/a
125.78	0.001	251560	keystroke_b	b	n/a
125.781	0.072	251562	keystroke_i	i	n/a
125.9135	0.075	251827	keystroke_t	t	n/a
126.108	0.091	252216	keystroke_s	s	n/a
126.213	0.09	252426	keystroke_Key.space	Key.space	n/a
126.7385	0.0755	253477	keystroke_p	p	n/a
126.963	0.076	253926	keystroke_r	r	n/a
127.053	0.136	254106	keystroke_i	i	n/a
127.158	0.106	254316	keystroke_o	o	n/a
127.278	0.0605	254556	keystroke_r	r	n/a
127.474	0.0895	254948	keystroke_Key.enter	Key.enter	n/a
127.571	9.7	255142	prompt	n/a	basename documents bolt expectations\n
128.628	0.075	257256	keystroke_b	b	n/a
128.7335	0.1195	257467	keystroke_a	a	n/a
128.748	0.1205	257496	keystroke_s	s	n/a
128.973	0.105	257946	keystroke_e	e	n/a
129.1385	0.0895	258277	keystroke_n	n	n/a
129.2435	0.1045	258487	keystroke_a	a	n/a
129.333	0.09	258666	keystroke_m	m	n/a
129.438	0.1055	258876	keystroke_e	e	n/a
129.918	0.0755	259836	keystroke_Key.space	Key.space	n/a
130.308	0.09	260616	keystroke_d	d	n/a
130.4135	0.0745	260827	keystroke_o	o	n/a
130.533	0.1205	261066	keystroke_c	c	n/a
130.6385	0.105	261277	keystroke_u	u	n/a
130.879	0.089	261758	keystroke_m	m	n/a
130.953	0.0755	261906	keystroke_e	e	n/a
131.058	0.09	262116	keystroke_n	n	n/a
131.0885	0.075	262177	keystroke_t	t	n/a
131.2835	0.09	262567	keystroke_s	s	n/a
131.4335	0.09	262867	keystroke_Key.space	Key.space	n/a
133.5185	0.075	267037	keystroke_b	b	n/a
133.563	0.0755	267126	keystroke_o	o	n/a
133.728	0.0905	267456	keystroke_l	l	n/a
133.803	0.0905	267606	keystroke_t	t	n/a
133.968	0.105	267936	keystroke_Key.space	Key.space	n/a
134.959	0.059	269918	keystroke_e	e	n/a
135.2435	0.075	270487	keystroke_x	x	n/a
135.3935	0.0595	270787	keystroke_p	p	n/a
135.498	0.075	270996	keystroke_e	e	n/a
135.6185	0.1045	271237	keystroke_c	c	n/a
135.828	0.075	271656	keystroke_t	t	n/a
135.9935	0.1045	271987	keystroke_a	a	n/a
136.188	0.091	272376	keystroke_t	t	n/a
136.249	0.15	272498	keystroke_i	i	n/a
136.3085	0.1195	272617	keystroke_o	o	n/a
136.353	0.0905	272706	keystroke_n	n	n/a
136.818	0.06	273636	keystroke_s	s	n/a
137.1785	0.09	274357	keystroke_Key.enter	Key.enter	n/a
137.2745	6.701	274549	prompt	n/a	continuing read hearts sunglasses\n
138.183	0.09	276366	keystroke_c	c	n/a
138.228	0.136	276456	keystroke_o	o	n/a
138.3335	0.0895	276667	keystroke_n	n	n/a
138.4685	0.075	276937	keystroke_t	t	n/a
138.5135	0.135	277027	keystroke_i	i	n/a
138.6335	0.075	277267	keystroke_n	n	n/a
138.783	0.1055	277566	keystroke_u	u	n/a
139.353	0.121	278706	keystroke_i	i	n/a
139.428	0.091	278856	keystroke_n	n	n/a
139.549	0.059	279098	keystroke_g	g	n/a
140.328	0.075	280656	keystroke_Key.space	Key.space	n/a
140.4785	0.09	280957	keystroke_r	r	n/a
140.5385	0.0895	281077	keystroke_e	e	n/a
140.7185	0.1495	281437	keystroke_a	a	n/a
140.838	0.1055	281676	keystroke_d	d	n/a
140.9735	0.075	281947	keystroke_Key.space	Key.space	n/a
141.3185	0.1045	282637	keystroke_h	h	n/a
141.393	0.0905	282786	keystroke_e	e	n/a
141.4685	0.134	282937	keystroke_a	a	n/a
141.5725	0.09	283145	keystroke_r	r	n/a
141.723	0.0905	283446	keystroke_t	t	n/a
141.903	0.105	283806	keystroke_s	s	n/a
142.068	0.0755	284136	keystroke_Key.space	Key.space	n/a
142.293	0.09	284586	keystroke_s	s	n/a
142.398	0.1355	284796	keystroke_u	u	n/a
142.4435	0.1055	284887	keystroke_n	n	n/a
142.623	0.061	285246	keystroke_g	g	n/a
142.9385	0.045	285877	keystroke_l	l	n/a
143.1485	0.105	286297	keystroke_a	a	n/a
143.2985	0.075	286597	keystroke_s	s	n/a
143.4485	0.075	286897	keystroke_s	s	n/a
143.6435	0.045	287287	keystroke_e	e	n/a
143.7785	0.075	287557	keystroke_s	s	n/a
143.8835	0.09	287767	keystroke_Key.enter	Key.enter	n/a
143.9825	8.3025	287965	prompt	n/a	noted heritage celebrity some\n
144.7985	0.075	289597	keystroke_n	n	n/a
144.9635	0.105	289927	keystroke_o	o	n/a
145.0385	0.075	290077	keystroke_t	t	n/a
145.1435	0.075	290287	keystroke_e	e	n/a
145.2785	0.105	290557	keystroke_d	d	n/a
145.7725	0.076	291545	keystroke_Key.space	Key.space	n/a
146.1185	0.075	292237	keystroke_h	h	n/a
146.224	0.0745	292448	keystroke_e	e	n/a
146.3435	0.0895	292687	keystroke_i	i	n/a
146.449	0.0585	292898	keystroke_r	r	n/a
148.128	0.075	296256	keystroke_Key.backspace	Key.backspace	n/a
148.248	0.075	296496	keystroke_Key.backspace	Key.backspace	n/a
148.8785	0.075	297757	keystroke_r	r	n/a
148.9685	0.0745	297937	keystroke_i	i	n/a
149.058	0.075	298116	keystroke_t	t	n/a
149.238	0.105	298476	keystroke_a	a	n/a
149.4335	0.105	298867	keystroke_g	g	n/a
149.493	0.105	298986	keystroke_e	e	n/a
149.6585	0.0745	299317	keystroke_Key.space	Key.space	n/a
149.853	0.12	299706	keystroke_c	c	n/a
149.9585	0.075	299917	keystroke_e	e	n/a
150.108	0.0755	300216	keystroke_l	l	n/a
150.138	0.091	300276	keystroke_e	e	n/a
150.6635	0.075	301327	keystroke_b	b	n/a
150.7835	0.09	301567	keystroke_r	r	n/a
150.8885	0.09	301777	keystroke_i	i	n/a
150.9635	0.075	301927	keystroke_t	t	n/a
151.1135	0.09	302227	keystroke_y	y	n/a
151.3985	0.06	302797	keystroke_Key.space	Key.space	n/a
151.7135	0.06	303427	keystroke_s	s	n/a
151.864	0.1195	303728	keystroke_o	o	n/a
151.9535	0.09	303907	keystroke_m	m	n/a
152.0285	0.12	304057	keystroke_e	e	n/a
152.1785	0.105	304357	keystroke_Key.enter	Key.enter	n/a
152.2895	6.836	304579	prompt	n/a	responding thinkpad imaging me\n
153.049	0.089	306098	keystroke_r	r	n/a
153.109	0.09	306218	keystroke_e	e	n/a
153.258	0.09	306516	keystroke_s	s	n/a
153.378	0.075	306756	keystroke_p	p	n/a
153.5135	0.12	307027	keystroke_o	o	n/a
153.618	0.09	307236	keystroke_n	n	n/a
153.723	0.09	307446	keystroke_d	d	n/a
153.828	0.12	307656	keystroke_i	i	n/a
153.8885	0.0895	307777	keystroke_n	n	n/a
154.023	0.075	308046	keystroke_g	g	n/a
154.113	0.09	308226	keystroke_Key.space	Key.space	n/a
154.4885	0.0895	308977	keystroke_t	t	n/a
154.563	0.1205	309126	keystroke_h	h	n/a
154.6685	0.075	309337	keystroke_i	i	n/a
154.773	0.136	309546	keystroke_n	n	n/a
154.878	0.0905	309756	keystroke_k	k	n/a
155.2685	0.075	310537	keystroke_p	p	n/a
155.3735	0.12	310747	keystroke_a	a	n/a
155.5235	0.105	311047	keystroke_d	d	n/a
156.1985	0.06	312397	keystroke_Key.space	Key.space	n/a
156.4085	0.1205	312817	keystroke_i	i	n/a
156.4685	0.105	312937	keystroke_m	m	n/a
157.309	0.0895	314618	keystroke_a	a	n/a
157.5485	0.075	315097	keystroke_g	g	n/a
157.6235	0.12	315247	keystroke_i	i	n/a
157.6985	0.105	315397	keystroke_n	n	n/a
158.1185	0.075	316237	keystroke_g	g	n/a
158.5835	0.045	317167	keystroke_Key.space	Key.space	n/a
158.7335	0.09	317467	keystroke_m	m	n/a
158.8235	0.075	317647	keystroke_e	e	n/a
159.0335	0.09	318067	keystroke_Key.enter	Key.enter	n/a
159.13	7.045	318260	prompt	n/a	workplace students takes complaint\n
159.888	0.06	319776	keystroke_w	w	n/a
159.978	0.09	319956	keystroke_o	o	n/a
160.069	0.089	320138	keystroke_r	r	n/a
160.203	0.045	320406	keystroke_k	k	n/a
160.383	0.09	320766	keystroke_p	p	n/a
160.398	0.06	320796	keystroke_o	o	n/a
160.443	0.0755	320886	keystroke_l	l	n/a
161.283	0.03	322566	keystroke_Key.backspace	Key.backspace	n/a
161.4785	0.0445	322957	keystroke_Key.backspace	Key.backspace	n/a
161.9585	0.0745	323917	keystroke_l	l	n/a
162.033	0.09	324066	keystroke_a	a	n/a
162.1385	0.1345	324277	keystroke_c	c	n/a
162.243	0.105	324486	keystroke_e	e	n/a
162.408	0.09	324816	keystroke_Key.space	Key.space	n/a
162.648	0.075	325296	keystroke_s	s	n/a
162.858	0.0755	325716	keystroke_t	t	n/a
162.978	0.09	325956	keystroke_u	u	n/a
163.0535	0.09	326107	keystroke_d	d	n/a
163.188	0.075	326376	keystroke_e	e	n/a
163.2935	0.09	326587	keystroke_n	n	n/a
163.323	0.09	326646	keystroke_t	t	n/a
163.4885	0.1345	326977	keystroke_s	s	n/a
163.6085	0.075	327217	keystroke_Key.space	Key.space	n/a
163.743	0.075	327486	keystroke_t	t	n/a
163.9085	0.09	327817	keystroke_a	a	n/a
164.0585	0.06	328117	keystroke_k	k	n/a
164.1035	0.075	328207	keystroke_e	e	n/a
164.2535	0.09	328507	keystroke_s	s	n/a
164.3885	0.09	328777	keystroke_Key.space	Key.space	n/a
165.018	0.09	330036	keystroke_c	c	n/a
165.063	0.1205	330126	keystroke_o	o	n/a
165.1535	0.0745	330307	keystroke_m	m	n/a
165.3035	0.135	330607	keystroke_p	p	n/a
165.378	0.105	330756	keystroke_l	l	n/a
165.498	0.09	330996	keystroke_a	a	n/a
165.603	0.1505	331206	keystroke_i	i	n/a
165.693	0.09	331386	keystroke_n	n	n/a
165.768	0.0905	331536	keystroke_t	t	n/a
166.0835	0.0895	332167	keystroke_Key.enter	Key.enter	n/a
166.1795	8.0805	332359	prompt	n/a	cons oughtn't sorry officially\n
166.968	0.0755	333936	keystroke_c	c	n/a
167.0585	0.119	334117	keystroke_o	o	n/a
167.133	0.0905	334266	keystroke_n	n	n/a
167.208	0.0745	334416	keystroke_s	s	n/a
167.313	0.0755	334626	keystroke_Key.space	Key.space	n/a
167.539	0.0745	335078	keystroke_o	o	n/a
167.7185	0.089	335437	keystroke_u	u	n/a
168.768	0.09	337536	keystroke_g	g	n/a
168.873	0.0605	337746	keystroke_h	h	n/a
169.368	0.06	338736	keystroke_t	t	n/a
170.3285	0.075	340657	keystroke_n	n	n/a
170.943	0.06	341886	keystroke_'	'	n/a
171.1085	0.0745	342217	keystroke_t	t	n/a
171.8275	0.061	343655	keystroke_Key.space	Key.space	n/a
171.9035	0.075	343807	keystroke_s	s	n/a
172.0235	0.09	344047	keystroke_o	o	n/a
172.1285	0.045	344257	keystroke_r	r	n/a
172.2185	0.09	344437	keystroke_r	r	n/a
172.4275	0.091	344855	keystroke_y	y	n/a
172.5325	0.091	345065	keystroke_Key.space	Key.space	n/a
172.7885	0.075	345577	keystroke_o	o	n/a
172.9685	0.0745	345937	keystroke_f	f	n/a
173.103	0.0755	346206	keystroke_f	f	n/a
173.193	0.06	346386	keystroke_i	i	n/a
173.283	0.0905	346566	keystroke_c	c	n/a
173.3885	0.06	346777	keystroke_i	i	n/a
173.4635	0.09	346927	keystroke_a	a	n/a
173.6285	0.06	347257	keystroke_l	l	n/a
173.748	0.0905	347496	keystroke_l	l	n/a
173.8985	0.075	347797	keystroke_y	y	n/a
174.1835	0.0745	348367	keystroke_Key.enter	Key.enter	n/a
174.265	7.0755	348530	prompt	n/a	sans need form cash\n
175.008	0.09	350016	keystroke_s	s	n/a
175.2035	0.0895	350407	keystroke_a	a	n/a
175.323	0.0905	350646	keystroke_n	n	n/a
175.443	0.1055	350886	keystroke_s	s	n/a
176.1185	0.075	352237	keystroke_Key.space	Key.space	n/a
176.2835	0.075	352567	keystroke_n	n	n/a
176.3585	0.045	352717	keystroke_w	w	n/a
176.5385	0.03	353077	keystroke_e	e	n/a
176.9585	0.075	353917	keystroke_Key.backspace	Key.backspace	n/a
177.2585	0.045	354517	keystroke_=	=	n/a
177.588	0.06	355176	keystroke_Key.backspace	Key.backspace	n/a
177.798	0.075	355596	keystroke_Key.backspace	Key.backspace	n/a
177.993	0.0605	355986	keystroke_e	e	n/a
178.143	0.075	356286	keystroke_d	d	n/a
178.263	0.076	356526	keystroke_d	d	n/a
178.713	0.12	357426	keystroke_Key.backspace	Key.backspace	n/a
178.893	0.0755	357786	keystroke_Key.backspace	Key.backspace	n/a
179.0435	0.09	358087	keystroke_e	e	n/a
179.2085	0.075	358417	keystroke_d	d	n/a
179.643	0.0455	359286	keystroke_Key.space	Key.space	n/a
179.914	0.0595	359828	keystroke_f	f	n/a
180.018	0.0445	360036	keystroke_o	o	n/a
180.0775	0.0755	360155	keystroke_r	r	n/a
180.139	0.0885	360278	keystroke_m	m	n/a
180.3475	0.091	360695	keystroke_Key.space	Key.space	n/a
180.4825	0.106	360965	keystroke_c	c	n/a
180.663	0.1195	361326	keystroke_a	a	n/a
180.7235	0.104	361447	keystroke_s	s	n/a
180.9475	0.121	361895	keystroke_h	h	n/a
181.2335	0.105	362467	keystroke_Key.enter	Key.enter	n/a
181.3445	6.3255	362689	prompt	n/a	weapons makes rare fair\n
182.2835	0.105	364567	keystroke_w	w	n/a
182.3735	0.09	364747	keystroke_e	e	n/a
182.6435	0.045	365287	keystroke_a	a	n/a
182.7335	0.075	365467	keystroke_p	p	n/a
183.079	0.0445	366158	keystroke_s	s	n/a
183.2285	0.15	366457	keystroke_o	o	n/a
183.3485	0.09	366697	keystroke_n	n	n/a
183.6485	0.075	367297	keystroke_Key.backspace	Key.backspace	n/a
183.7835	0.075	367567	keystroke_Key.backspace	Key.backspace	n/a
183.9185	0.0745	367837	keystroke_Key.backspace	Key.backspace	n/a
184.173	0.0905	368346	keystroke_o	o	n/a
184.323	0.0905	368646	keystroke_n	n	n/a
184.4285	0.0745	368857	keystroke_s	s	n/a
184.698	0.06	369396	keystroke_Key.space	Key.space	n/a
184.923	0.075	369846	keystroke_m	m	n/a
185.0135	0.105	370027	keystroke_a	a	n/a
185.1485	0.105	370297	keystroke_k	k	n/a
185.2385	0.075	370477	keystroke_e	e	n/a
185.3885	0.09	370777	keystroke_s	s	n/a
185.4925	0.06	370985	keystroke_Key.space	Key.space	n/a
185.7775	0.106	371555	keystroke_r	r	n/a
185.9135	0.1195	371827	keystroke_a	a	n/a
186.0625	0.151	372125	keystroke_r	r	n/a
186.1835	0.105	372367	keystroke_e	e	n/a
186.5735	0.09	373147	keystroke_Key.space	Key.space	n/a
187.1135	0.09	374227	keystroke_f	f	n/a
187.2485	0.0895	374497	keystroke_a	a	n/a
187.3385	0.089	374677	keystroke_i	i	n/a
187.4135	0.075	374827	keystroke_r	r	n/a
187.5775	0.091	375155	keystroke_Key.enter	Key.enter	n/a
187.6745	7.291	375349	prompt	n/a	budget logo armenia cognitive\n
188.583	0.0455	377166	keystroke_b	b	n/a
188.673	0.075	377346	keystroke_u	u	n/a
189.1075	0.076	378215	keystroke_d	d	n/a
189.3325	0.076	378665	keystroke_g	g	n/a
189.4825	0.091	378965	keystroke_e	e	n/a
189.5575	0.09	379115	keystroke_t	t	n/a
189.7225	0.06	379445	keystroke_Key.space	Key.space	n/a
189.9635	0.075	379927	keystroke_l	l	n/a
190.1135	0.075	380227	keystroke_o	o	n/a
190.323	0.075	380646	keystroke_g	g	n/a
190.413	0.075	380826	keystroke_o	o	n/a
190.6385	0.0745	381277	keystroke_Key.space	Key.space	n/a
190.998	0.075	381996	keystroke_a	a	n/a
191.2085	0.075	382417	keystroke_r	r	n/a
191.3135	0.0895	382627	keystroke_m	m	n/a
191.448	0.0905	382896	keystroke_e	e	n/a
191.5535	0.0745	383107	keystroke_n	n	n/a
191.703	0.09	383406	keystroke_i	i	n/a
191.794	0.074	383588	keystroke_a	a	n/a
192.5285	0.09	385057	keystroke_Key.space	Key.space	n/a
192.7535	0.075	385507	keystroke_c	c	n/a
192.8435	0.09	385687	keystroke_o	o	n/a
193.0085	0.075	386017	keystroke_g	g	n/a
193.0985	0.0745	386197	keystroke_n	n	n/a
193.248	0.075	386496	keystroke_i	i	n/a
193.3825	0.061	386765	keystroke_t	t	n/a
193.4585	0.0895	386917	keystroke_i	i	n/a
193.623	0.136	387246	keystroke_v	v	n/a
193.8785	0.0895	387757	keystroke_e	e	n/a
194.8535	0.105	389707	keystroke_Key.enter	Key.enter	n/a
194.9655	5.0495	389931	prompt	n/a	belts reliance detroit wind\n
195.8885	0.06	391777	keystroke_b	b	n/a
196.0535	0.075	392107	keystroke_e	e	n/a
196.1435	0.075	392287	keystroke_l	l	n/a
196.2035	0.06	392407	keystroke_t	t	n/a
196.3685	0.09	392737	keystroke_s	s	n/a
196.4735	0.075	392947	keystroke_Key.space	Key.space	n/a
196.8635	0.09	393727	keystroke_r	r	n/a
196.9085	0.1045	393817	keystroke_e	e	n/a
197.028	0.075	394056	keystroke_l	l	n/a
197.193	0.06	394386	keystroke_i	i	n/a
197.2385	0.09	394477	keystroke_a	a	n/a
197.3585	0.09	394717	keystroke_n	n	n/a
197.4625	0.121	394925	keystroke_c	c	n/a
197.5685	0.075	395137	keystroke_e	e	n/a
197.7035	0.075	395407	keystroke_Key.space	Key.space	n/a
198.0485	0.09	396097	keystroke_d	d	n/a
198.1985	0.105	396397	keystroke_e	e	n/a
198.3935	0.105	396787	keystroke_t	t	n/a
198.4685	0.105	396937	keystroke_r	r	n/a
198.6185	0.135	397237	keystroke_o	o	n/a
198.7075	0.106	397415	keystroke_i	i	n/a
198.8285	0.074	397657	keystroke_t	t	n/a
199.0235	0.059	398047	keystroke_Key.space	Key.space	n/a
199.3835	0.074	398767	keystroke_w	w	n/a
199.5185	0.105	399037	keystroke_i	i	n/a
199.5775	0.106	399155	keystroke_n	n	n/a
199.6985	0.0755	399397	keystroke_t	t	n/a
199.9235	0.089	399847	keystroke_Key.enter	Key.enter	n/a
200.018	8.0365	400036	prompt	n/a	raised personals elect diana\n
201.0635	0.075	402127	keystroke_r	r	n/a
201.2435	0.09	402487	keystroke_a	a	n/a
201.3485	0.09	402697	keystroke_i	i	n/a
201.4525	0.076	402905	keystroke_s	s	n/a
201.6335	0.075	403267	keystroke_e	e	n/a
201.7535	0.09	403507	keystroke_d	d	n/a
201.9325	0.09	403865	keystroke_Key.space	Key.space	n/a
202.3085	0.045	404617	keystroke_e	e	n/a
203.1475	0.075	406295	keystroke_Key.backspace	Key.backspace	n/a
203.4635	0.075	406927	keystroke_p	p	n/a
203.5685	0.12	407137	keystroke_e	e	n/a
203.6585	0.0745	407317	keystroke_r	r	n/a
203.8385	0.105	407677	keystroke_s	s	n/a
203.9585	0.12	407917	keystroke_o	o	n/a
204.0335	0.075	408067	keystroke_n	n	n/a
204.2135	0.075	408427	keystroke_a	a	n/a
204.303	0.0895	408606	keystroke_l	l	n/a
204.4225	0.091	408845	keystroke_s	s	n/a
204.6185	0.06	409237	keystroke_Key.space	Key.space	n/a
205.0535	0.075	410107	keystroke_e	e	n/a
205.1435	0.075	410287	keystroke_l	l	n/a
205.2635	0.06	410527	keystroke_e	e	n/a
205.6235	0.105	411247	keystroke_c	c	n/a
205.8625	0.075	411725	keystroke_t	t	n/a
206.613	0.0755	413226	keystroke_Key.space	Key.space	n/a
206.7475	0.075	413495	keystroke_d	d	n/a
206.8385	0.104	413677	keystroke_i	i	n/a
207.5135	0.075	415027	keystroke_a	a	n/a
207.6185	0.06	415237	keystroke_n	n	n/a
207.7235	0.06	415447	keystroke_a	a	n/a
207.9635	0.09	415927	keystroke_Key.enter	Key.enter	n/a
208.058	15.312	416116	prompt	n/a	constant separate botswana highways\n
208.9235	0.075	417847	keystroke_c	c	n/a
209.0135	0.105	418027	keystroke_o	o	n/a
209.1035	0.09	418207	keystroke_n	n	n/a
209.1485	0.075	418297	keystroke_t	t	n/a
209.3435	0.105	418687	keystroke_s	s	n/a
209.5385	0.075	419077	keystroke_t	t	n/a
209.6735	0.09	419347	keystroke_a	a	n/a
209.7645	0.089	419529	keystroke_n	n	n/a
209.8685	0.06	419737	keystroke_t	t	n/a
209.9435	0.075	419887	keystroke_Key.space	Key.space	n/a
210.0635	0.105	420127	keystroke_s	s	n/a
210.3935	0.06	420787	keystroke_e	e	n/a
210.5285	0.09	421057	keystroke_p	p	n/a
211.1585	0.09	422317	keystroke_=	=	n/a
211.3535	0.075	422707	keystroke_Key.backspace	Key.backspace	n/a
211.5335	0.045	423067	keystroke_Key.backspace	Key.backspace	n/a
211.6535	0.06	423307	keystroke_Key.backspace	Key.backspace	n/a
211.8035	0.045	423607	keystroke_Key.backspace	Key.backspace	n/a
211.9385	0.06	423877	keystroke_Key.backspace	Key.backspace	n/a
212.0735	0.06	424147	keystroke_Key.backspace	Key.backspace	n/a
212.2085	0.06	424417	keystroke_Key.backspace	Key.backspace	n/a
212.3585	0.075	424717	keystroke_Key.backspace	Key.backspace	n/a
213.3775	0.0605	426755	keystroke_Key.backspace	Key.backspace	n/a
213.5725	0.045	427145	keystroke_Key.backspace	Key.backspace	n/a
213.918	0.0605	427836	keystroke_Key.backspace	Key.backspace	n/a
214.0835	0.075	428167	keystroke_s	s	n/a
214.3825	0.06	428765	keystroke_t	t	n/a
214.548	0.105	429096	keystroke_a	a	n/a
214.6985	0.09	429397	keystroke_n	n	n/a
214.7885	0.075	429577	keystroke_t	t	n/a
215.4325	0.06	430865	keystroke_Key.space	Key.space	n/a
215.5375	0.075	431075	keystroke_s	s	n/a
215.7475	0.076	431495	keystroke_e	e	n/a
215.9275	0.0605	431855	keystroke_p	p	n/a
216.1385	0.09	432277	keystroke_a	a	n/a
216.3325	0.0915	432665	keystroke_r	r	n/a
216.544	0.1195	433088	keystroke_a	a	n/a
216.7385	0.105	433477	keystroke_t	t	n/a
216.8135	0.09	433627	keystroke_e	e	n/a
217.3235	0.045	434647	keystroke_Key.space	Key.space	n/a
217.6085	0.09	435217	keystroke_b	b	n/a
217.6835	0.075	435367	keystroke_o	o	n/a
217.8035	0.06	435607	keystroke_t	t	n/a
218.029	0.0895	436058	keystroke_s	s	n/a
218.1935	0.09	436387	keystroke_w	w	n/a
218.3435	0.09	436687	keystroke_a	a	n/a
218.4635	0.075	436927	keystroke_n	n	n/a
218.5235	0.075	437047	keystroke_a	a	n/a
219.2725	0.0605	438545	keystroke_Key.space	Key.space	n/a
219.6025	0.075	439205	keystroke_h	h	n/a
219.6935	0.089	439387	keystroke_i	i	n/a
219.7975	0.0905	439595	keystroke_g	g	n/a
219.8725	0.105	439745	keystroke_h	h	n/a
220.0075	0.091	440015	keystroke_e	e	n/a
220.1435	0.075	440287	keystroke_a	a	n/a
220.788	0.0605	441576	keystroke_Key.backspace	Key.backspace	n/a
220.938	0.075	441876	keystroke_Key.backspace	Key.backspace	n/a
221.178	0.1055	442356	keystroke_w	w	n/a
221.298	0.09	442596	keystroke_a	a	n/a
221.5385	0.1045	443077	keystroke_t	t	n/a
221.763	0.12	443526	keystroke_s	s	n/a
222.648	0.045	445296	keystroke_Key.backspace	Key.backspace	n/a
222.7835	0.0895	445567	keystroke_Key.backspace	Key.backspace	n/a
222.858	0.06	445716	keystroke_y	y	n/a
223.068	0.091	446136	keystroke_s	s	n/a
223.278	0.09	446556	keystroke_Key.enter	Key.enter	n/a
223.3745	9.52	446749	prompt	n/a	tumor valuable fragrances latex\n
224.269	0.104	448538	keystroke_t	t	n/a
224.3285	0.0895	448657	keystroke_u	u	n/a
224.463	0.12	448926	keystroke_m	m	n/a
224.7785	0.06	449557	keystroke_a	a	n/a
225.2285	0.105	450457	keystroke_Key.backspace	Key.backspace	n/a
225.5285	0.105	451057	keystroke_o	o	n/a
225.6335	0.09	451267	keystroke_r	r	n/a
225.9785	0.075	451957	keystroke_Key.space	Key.space	n/a
226.4585	0.09	452917	keystroke_v	v	n/a
226.6535	0.075	453307	keystroke_a	a	n/a
226.7435	0.06	453487	keystroke_l	l	n/a
226.909	0.09	453818	keystroke_u	u	n/a
227.0135	0.06	454027	keystroke_a	a	n/a
227.2085	0.075	454417	keystroke_b	b	n/a
227.2985	0.09	454597	keystroke_l	l	n/a
227.4035	0.09	454807	keystroke_e	e	n/a
227.5235	0.09	455047	keystroke_Key.space	Key.space	n/a
227.8235	0.105	455647	keystroke_f	f	n/a
228.019	0.0745	456038	keystroke_r	r	n/a
228.1535	0.09	456307	keystroke_a	a	n/a
228.3185	0.09	456637	keystroke_g	g	n/a
228.963	0.0595	457926	keystroke_r	r	n/a
229.083	0.1055	458166	keystroke_a	a	n/a
229.2185	0.09	458437	keystroke_n	n	n/a
229.3835	0.105	458767	keystroke_c	c	n/a
229.4885	0.09	458977	keystroke_e	e	n/a
229.6385	0.09	459277	keystroke_s	s	n/a
230.0435	0.06	460087	keystroke_Key.space	Key.space	n/a
230.493	0.09	460986	keystroke_l	l	n/a
230.598	0.0755	461196	keystroke_e	e	n/a
230.9735	0.0895	461947	keystroke_Key.backspace	Key.backspace	n/a
231.0785	0.075	462157	keystroke_a	a	n/a
231.2285	0.09	462457	keystroke_t	t	n/a
231.5285	0.105	463057	keystroke_e	e	n/a
231.7535	0.135	463507	keystroke_x	x	n/a
231.9935	0.075	463987	keystroke_]	]	n/a
232.5325	0.075	465065	keystroke_Key.backspace	Key.backspace	n/a
232.7735	0.1195	465547	keystroke_Key.enter	Key.enter	n/a
232.8985	6.4465	465797	prompt	n/a	spam favors train downloadable\n
233.778	0.105	467556	keystroke_s	s	n/a
233.898	0.0755	467796	keystroke_p	p	n/a
233.988	0.105	467976	keystroke_a	a	n/a
234.109	0.089	468218	keystroke_m	m	n/a
234.303	0.09	468606	keystroke_Key.space	Key.space	n/a
234.6935	0.06	469387	keystroke_f	f	n/a
234.8135	0.075	469627	keystroke_a	a	n/a
234.9935	0.075	469987	keystroke_v	v	n/a
235.1285	0.09	470257	keystroke_o	o	n/a
235.2485	0.0605	470497	keystroke_r	r	n/a
235.4585	0.09	470917	keystroke_s	s	n/a
235.8035	0.0745	471607	keystroke_Key.space	Key.space	n/a
236.1785	0.075	472357	keystroke_t	t	n/a
236.209	0.1045	472418	keystroke_r	r	n/a
236.4485	0.105	472897	keystroke_a	a	n/a
236.538	0.105	473076	keystroke_i	i	n/a
236.628	0.075	473256	keystroke_n	n	n/a
236.793	0.09	473586	keystroke_Key.space	Key.space	n/a
237.6325	0.091	475265	keystroke_d	d	n/a
237.7385	0.06	475477	keystroke_o	o	n/a
237.8135	0.09	475627	keystroke_w	w	n/a
237.9485	0.045	475897	keystroke_n	n	n/a
238.1135	0.075	476227	keystroke_l	l	n/a
238.2635	0.0895	476527	keystroke_o	o	n/a
238.2935	0.12	476587	keystroke_a	a	n/a
238.3685	0.135	476737	keystroke_d	d	n/a
238.5485	0.105	477097	keystroke_a	a	n/a
238.8185	0.074	477637	keystroke_b	b	n/a
238.9385	0.105	477877	keystroke_l	l	n/a
239.0445	0.088	478089	keystroke_e	e	n/a
239.2385	0.104	478477	keystroke_Key.enter	Key.enter	n/a
239.3515	8.739	478703	prompt	n/a	textbooks indicating suspect telecommunications\n
240.243	0.075	480486	keystroke_t	t	n/a
240.288	0.105	480576	keystroke_e	e	n/a
240.603	0.0905	481206	keystroke_x	x	n/a
240.8735	0.075	481747	keystroke_t	t	n/a
241.249	0.074	482498	keystroke_b	b	n/a
241.383	0.076	482766	keystroke_o	o	n/a
241.519	0.135	483038	keystroke_o	o	n/a
241.623	0.106	483246	keystroke_k	k	n/a
241.714	0.075	483428	keystroke_s	s	n/a
242.358	0.0755	484716	keystroke_Key.space	Key.space	n/a
242.493	0.105	484986	keystroke_i	i	n/a
242.553	0.09	485106	keystroke_n	n	n/a
242.659	0.0895	485318	keystroke_d	d	n/a
242.7335	0.105	485467	keystroke_i	i	n/a
242.9135	0.075	485827	keystroke_c	c	n/a
243.0485	0.075	486097	keystroke_a	a	n/a
243.2285	0.075	486457	keystroke_t	t	n/a
243.304	0.1345	486608	keystroke_i	i	n/a
243.3935	0.09	486787	keystroke_n	n	n/a
243.4685	0.0905	486937	keystroke_g	g	n/a
243.5735	0.105	487147	keystroke_Key.space	Key.space	n/a
243.8135	0.09	487627	keystroke_s	s	n/a
243.9485	0.075	487897	keystroke_u	u	n/a
244.0085	0.0755	488017	keystroke_s	s	n/a
244.2935	0.075	488587	keystroke_p	p	n/a
244.384	0.0895	488768	keystroke_e	e	n/a
244.5185	0.09	489037	keystroke_c	c	n/a
244.7435	0.06	489487	keystroke_t	t	n/a
245.014	0.0745	490028	keystroke_Key.space	Key.space	n/a
245.283	0.06	490566	keystroke_t	t	n/a
245.4035	0.09	490807	keystroke_e	e	n/a
245.5385	0.0745	491077	keystroke_l	l	n/a
245.598	0.075	491196	keystroke_e	e	n/a
246.138	0.06	492276	keystroke_c	c	n/a
246.2285	0.0745	492457	keystroke_o	o	n/a
246.4085	0.0445	492817	keystroke_m	m	n/a
246.528	0.075	493056	keystroke_m	m	n/a
246.723	0.105	493446	keystroke_u	u	n/a
246.798	0.075	493596	keystroke_n	n	n/a
246.933	0.106	493866	keystroke_i	i	n/a
247.069	0.075	494138	keystroke_c	c	n/a
247.203	0.091	494406	keystroke_a	a	n/a
247.384	0.09	494768	keystroke_t	t	n/a
247.444	0.165	494888	keystroke_i	i	n/a
247.519	0.134	495038	keystroke_o	o	n/a
247.564	0.104	495128	keystroke_n	n	n/a
247.639	0.09	495278	keystroke_s	s	n/a
247.998	0.0905	495996	keystroke_Key.enter	Key.enter	n/a
248.095	6.566	496190	prompt	n/a	reporting basic park medicines\n
248.898	0.091	497796	keystroke_r	r	n/a
248.958	0.09	497916	keystroke_e	e	n/a
249.093	0.1205	498186	keystroke_p	p	n/a
249.2435	0.09	498487	keystroke_o	o	n/a
249.7385	0.06	499477	keystroke_r	r	n/a
249.918	0.0905	499836	keystroke_t	t	n/a
250.1285	0.12	500257	keystroke_i	i	n/a
250.2035	0.12	500407	keystroke_n	n	n/a
250.3085	0.075	500617	keystroke_g	g	n/a
250.413	0.105	500826	keystroke_Key.space	Key.space	n/a
250.6835	0.1055	501367	keystroke_b	b	n/a
250.803	0.12	501606	keystroke_a	a	n/a
250.878	0.1205	501756	keystroke_s	s	n/a
251.0135	0.105	502027	keystroke_i	i	n/a
251.1485	0.075	502297	keystroke_c	c	n/a
251.2385	0.09	502477	keystroke_Key.space	Key.space	n/a
251.5835	0.06	503167	keystroke_p	p	n/a
251.7935	0.0905	503587	keystroke_a	a	n/a
251.944	0.0745	503888	keystroke_r	r	n/a
252.033	0.075	504066	keystroke_k	k	n/a
252.213	0.105	504426	keystroke_Key.space	Key.space	n/a
252.484	0.075	504968	keystroke_m	m	n/a
252.873	0.075	505746	keystroke_e	e	n/a
253.008	0.105	506016	keystroke_d	d	n/a
253.1285	0.09	506257	keystroke_i	i	n/a
253.234	0.105	506468	keystroke_c	c	n/a
253.3235	0.1355	506647	keystroke_i	i	n/a
253.414	0.089	506828	keystroke_n	n	n/a
253.488	0.076	506976	keystroke_e	e	n/a
254.389	0.075	508778	keystroke_s	s	n/a
254.5685	0.0905	509137	keystroke_Key.enter	Key.enter	n/a
254.666	8.0645	509332	prompt	n/a	nationally stockings senior scanned\n
255.4685	0.075	510937	keystroke_n	n	n/a
255.5735	0.105	511147	keystroke_a	a	n/a
255.844	0.0895	511688	keystroke_t	t	n/a
255.9335	0.1955	511867	keystroke_i	i	n/a
256.0085	0.15	512017	keystroke_o	o	n/a
256.1435	0.0755	512287	keystroke_n	n	n/a
256.5485	0.09	513097	keystroke_a	a	n/a
256.6835	0.045	513367	keystroke_l	l	n/a
256.7885	0.075	513577	keystroke_l	l	n/a
257.539	0.12	515078	keystroke_y	y	n/a
257.929	0.074	515858	keystroke_Key.space	Key.space	n/a
258.124	0.105	516248	keystroke_s	s	n/a
258.364	0.059	516728	keystroke_t	t	n/a
258.453	0.076	516906	keystroke_o	o	n/a
258.558	0.106	517116	keystroke_c	c	n/a
258.649	0.059	517298	keystroke_k	k	n/a
258.7985	0.1045	517597	keystroke_i	i	n/a
258.8585	0.1055	517717	keystroke_n	n	n/a
258.918	0.075	517836	keystroke_g	g	n/a
259.083	0.091	518166	keystroke_s	s	n/a
259.189	0.075	518378	keystroke_Key.space	Key.space	n/a
259.954	0.075	519908	keystroke_s	s	n/a
260.1335	0.075	520267	keystroke_e	e	n/a
260.223	0.076	520446	keystroke_n	n	n/a
260.3885	0.135	520777	keystroke_i	i	n/a
260.4785	0.1205	520957	keystroke_o	o	n/a
260.6135	0.03	521227	keystroke_t	t	n/a
261.019	0.074	522038	keystroke_Key.backspace	Key.backspace	n/a
261.064	0.06	522128	keystroke_r	r	n/a
261.439	0.0445	522878	keystroke_Key.space	Key.space	n/a
261.739	0.09	523478	keystroke_s	s	n/a
261.904	0.105	523808	keystroke_c	c	n/a
262.053	0.091	524106	keystroke_a	a	n/a
262.174	0.06	524348	keystroke_n	n	n/a
262.294	0.075	524588	keystroke_n	n	n/a
262.383	0.076	524766	keystroke_e	e	n/a
262.519	0.09	525038	keystroke_d	d	n/a
262.653	0.076	525306	keystroke_Key.enter	Key.enter	n/a
262.7355	17.155	525471	prompt	n/a	truck substances demonstration aware\n
263.6435	0.1055	527287	keystroke_t	t	n/a
263.7185	0.105	527437	keystroke_r	r	n/a
263.8385	0.105	527677	keystroke_u	u	n/a
263.929	0.1045	527858	keystroke_c	c	n/a
264.049	0.1045	528098	keystroke_k	k	n/a
264.2585	0.075	528517	keystroke_Key.space	Key.space	n/a
264.4085	0.09	528817	keystroke_s	s	n/a
264.5135	0.09	529027	keystroke_u	u	n/a
264.6485	0.105	529297	keystroke_b	b	n/a
264.9935	0.03	529987	keystroke_s	s	n/a
265.129	0.0595	530258	keystroke_t	t	n/a
265.2635	0.09	530527	keystroke_a	a	n/a
265.3835	0.075	530767	keystroke_n	n	n/a
265.444	0.12	530888	keystroke_c	c	n/a
265.549	0.0895	531098	keystroke_e	e	n/a
265.7135	0.09	531427	keystroke_s	s	n/a
266.2235	0.075	532447	keystroke_Key.space	Key.space	n/a
266.3585	0.075	532717	keystroke_d	d	n/a
266.5385	0.06	533077	keystroke_e	e	n/a
266.5835	0.09	533167	keystroke_m	m	n/a
266.7185	0.1055	533437	keystroke_o	o	n/a
266.7935	0.105	533587	keystroke_n	n	n/a
266.944	0.105	533888	keystroke_s	s	n/a
267.1685	0.06	534337	keystroke_t	t	n/a
267.3335	0.09	534667	keystroke_a	a	n/a
267.4835	0.105	534967	keystroke_t	t	n/a
267.5735	0.15	535147	keystroke_i	i	n/a
267.6335	0.135	535267	keystroke_o	o	n/a
267.679	0.1195	535358	keystroke_n	n	n/a
267.7835	0.075	535567	keystroke_s	s	n/a
268.533	0.09	537066	keystroke_Key.backspace	Key.backspace	n/a
268.848	0.091	537696	keystroke_Key.space	Key.space	n/a
269.029	0.1045	538058	keystroke_a	a	n/a
269.194	0.089	538388	keystroke_w	w	n/a
269.314	0.105	538628	keystroke_a	a	n/a
269.6885	0.06	539377	keystroke_t	t	n/a
269.9585	0.0905	539917	keystroke_r	r	n/a
269.9885	0.12	539977	keystroke_e	e	n/a
272.526	0.001	545052	keystroke_Key.backspace	Key.backspace	n/a
272.598	0.0605	545196	keystroke_Key.backspace	Key.backspace	n/a
272.733	0.0605	545466	keystroke_Key.backspace	Key.backspace	n/a
272.868	0.06	545736	keystroke_Key.backspace	Key.backspace	n/a
273.003	0.046	546006	keystroke_Key.backspace	Key.backspace	n/a
273.123	0.06	546246	keystroke_Key.backspace	Key.backspace	n/a
273.244	0.059	546488	keystroke_Key.backspace	Key.backspace	n/a
273.363	0.06	546726	keystroke_Key.backspace	Key.backspace	n/a
273.4835	0.0595	546967	keystroke_Key.backspace	Key.backspace	n/a
273.618	0.12	547236	keystroke_Key.backspace	Key.backspace	n/a
273.813	0.0455	547626	keystroke_Key.backspace	Key.backspace	n/a
274.008	0.075	548016	keystroke_Key.backspace	Key.backspace	n/a
274.579	0.044	549158	keystroke_Key.backspace	Key.backspace	n/a
276.154	0.075	552308	keystroke_t	t	n/a
276.333	0.061	552666	keystroke_r	r	n/a
276.468	0.0905	552936	keystroke_a	a	n/a
276.634	0.0895	553268	keystroke_t	t	n/a
276.768	0.105	553536	keystroke_i	i	n/a
276.798	0.091	553596	keystroke_o	o	n/a
277.354	0.075	554708	keystroke_n	n	n/a
278.1785	0.09	556357	keystroke_Key.space	Key.space	n/a
278.374	0.104	556748	keystroke_a	a	n/a
278.553	0.091	557106	keystroke_w	w	n/a
278.884	0.15	557768	keystroke_a	a	n/a
279.2285	0.1045	558457	keystroke_r	r	n/a
279.289	0.0895	558578	keystroke_e	e	n/a
279.7985	0.09	559597	keystroke_Key.enter	Key.enter	n/a
279.896	8.7845	559792	prompt	n/a	sixth norm indicating trigger\n
280.699	0.089	561398	keystroke_s	s	n/a
280.803	0.075	561606	keystroke_i	i	n/a
280.9085	0.045	561817	keystroke_c	c	n/a
281.5085	0.0755	563017	keystroke_Key.backspace	Key.backspace	n/a
281.599	0.06	563198	keystroke_x	x	n/a
281.943	0.0755	563886	keystroke_t	t	n/a
282.0635	0.0905	564127	keystroke_h	h	n/a
282.438	0.076	564876	keystroke_Key.space	Key.space	n/a
282.619	0.09	565238	keystroke_n	n	n/a
282.694	0.075	565388	keystroke_a	a	n/a
283.053	0.0755	566106	keystroke_Key.backspace	Key.backspace	n/a
283.293	0.09	566586	keystroke_o	o	n/a
283.413	0.075	566826	keystroke_r	r	n/a
283.533	0.0755	567066	keystroke_m	m	n/a
284.0435	0.0595	568087	keystroke_Key.space	Key.space	n/a
284.238	0.105	568476	keystroke_i	i	n/a
284.298	0.0905	568596	keystroke_n	n	n/a
284.4035	0.09	568807	keystroke_d	d	n/a
284.4785	0.105	568957	keystroke_i	i	n/a
284.5985	0.0905	569197	keystroke_c	c	n/a
284.764	0.089	569528	keystroke_a	a	n/a
284.943	0.0905	569886	keystroke_t	t	n/a
285.0485	0.12	570097	keystroke_i	i	n/a
285.1385	0.12	570277	keystroke_n	n	n/a
285.229	0.09	570458	keystroke_g	g	n/a
287.51	0.013	575020	keystroke_Key.space	Key.space	n/a
287.553	0.09	575106	keystroke_t	t	n/a
287.613	0.1055	575226	keystroke_r	r	n/a
287.7485	0.075	575497	keystroke_i	i	n/a
287.8985	0.0755	575797	keystroke_g	g	n/a
288.034	0.105	576068	keystroke_g	g	n/a
288.318	0.106	576636	keystroke_e	e	n/a
288.394	0.09	576788	keystroke_r	r	n/a
288.573	0.1055	577146	keystroke_Key.enter	Key.enter	n/a
288.6845	6.9555	577369	prompt	n/a	out rings selective projectors\n
289.444	0.06	578888	keystroke_o	o	n/a
289.593	0.1055	579186	keystroke_u	u	n/a
289.713	0.045	579426	keystroke_t	t	n/a
289.803	0.0905	579606	keystroke_Key.space	Key.space	n/a
289.894	0.089	579788	keystroke_r	r	n/a
289.998	0.1205	579996	keystroke_i	i	n/a
290.073	0.105	580146	keystroke_n	n	n/a
290.164	0.075	580328	keystroke_g	g	n/a
290.313	0.105	580626	keystroke_s	s	n/a
290.388	0.0755	580776	keystroke_Key.space	Key.space	n/a
290.703	0.0755	581406	keystroke_s	s	n/a
290.883	0.06	581766	keystroke_e	e	n/a
290.928	0.06	581856	keystroke_l	l	n/a
291.169	0.014	582338	keystroke_e	e	n/a
291.379	0.075	582758	keystroke_c	c	n/a
291.6185	0.075	583237	keystroke_t	t	n/a
291.799	0.075	583598	keystroke_i	i	n/a
292.068	0.105	584136	keystroke_v	v	n/a
292.2185	0.09	584437	keystroke_e	e	n/a
292.5485	0.09	585097	keystroke_Key.space	Key.space	n/a
292.8635	0.075	585727	keystroke_r	r	n/a
293.598	0.06	587196	keystroke_Key.backspace	Key.backspace	n/a
293.853	0.0905	587706	keystroke_p	p	n/a
293.988	0.091	587976	keystroke_r	r	n/a
294.0935	0.06	588187	keystroke_o	o	n/a
294.363	0.075	588726	keystroke_j	j	n/a
294.439	0.0595	588878	keystroke_e	e	n/a
294.5735	0.1045	589147	keystroke_c	c	n/a
294.783	0.075	589566	keystroke_t	t	n/a
294.873	0.06	589746	keystroke_o	o	n/a
294.9185	0.075	589837	keystroke_r	r	n/a
295.068	0.105	590136	keystroke_s	s	n/a
295.548	0.09	591096	keystroke_Key.enter	Key.enter	n/a
295.644	10.181	591288	prompt	n/a	cable incidence protect itself\n
296.329	0.0745	592658	keystroke_c	c	n/a
296.463	0.091	592926	keystroke_a	a	n/a
296.673	0.105	593346	keystroke_b	b	n/a
296.7935	0.075	593587	keystroke_l	l	n/a
296.883	0.09	593766	keystroke_e	e	n/a
297.033	0.075	594066	keystroke_Key.space	Key.space	n/a
297.213	0.12	594426	keystroke_i	i	n/a
297.2735	0.105	594547	keystroke_n	n	n/a
297.648	0.075	595296	keystroke_c	c	n/a
297.7535	0.09	595507	keystroke_i	i	n/a
298.008	0.075	596016	keystroke_d	d	n/a
298.308	0.075	596616	keystroke_e	e	n/a
298.4285	0.075	596857	keystroke_n	n	n/a
298.5485	0.09	597097	keystroke_d	d	n/a
298.6985	0.105	597397	keystroke_e	e	n/a
299.2085	0.075	598417	keystroke_Key.backspace	Key.backspace	n/a
299.3585	0.09	598717	keystroke_Key.backspace	Key.backspace	n/a
299.4335	0.09	598867	keystroke_c	c	n/a
299.4935	0.075	598987	keystroke_e	e	n/a
302.45	0.001	604900	keystroke_Key.space	Key.space	n/a
302.613	0.09	605226	keystroke_p	p	n/a
302.7185	0.06	605437	keystroke_r	r	n/a
302.793	0.09	605586	keystroke_o	o	n/a
302.913	0.105	605826	keystroke_t	t	n/a
303.004	0.104	606008	keystroke_e	e	n/a
303.183	0.09	606366	keystroke_c	c	n/a
303.4085	0.105	606817	keystroke_t	t	n/a
303.468	0.0605	606936	keystroke_Key.space	Key.space	n/a
303.6185	0.09	607237	keystroke_i	i	n/a
303.6935	0.104	607387	keystroke_t	t	n/a
303.8735	0.09	607747	keystroke_e	e	n/a
304.0385	0.09	608077	keystroke_s	s	n/a
304.2185	0.075	608437	keystroke_e	e	n/a
304.3385	0.06	608677	keystroke_l	l	n/a
304.6985	0.06	609397	keystroke_Key.backspace	Key.backspace	n/a
304.8185	0.075	609637	keystroke_Key.backspace	Key.backspace	n/a
304.9535	0.075	609907	keystroke_Key.backspace	Key.backspace	n/a
305.0885	0.075	610177	keystroke_Key.backspace	Key.backspace	n/a
305.1785	0.06	610357	keystroke_s	s	n/a
305.358	0.0455	610716	keystroke_e	e	n/a
305.4485	0.1055	610897	keystroke_l	l	n/a
305.568	0.06	611136	keystroke_f	f	n/a
305.733	0.0905	611466	keystroke_Key.enter	Key.enter	n/a
305.8295	10.346	611659	prompt	n/a	academics replied lopez arranged\n
306.514	0.074	613028	keystroke_a	a	n/a
306.723	0.076	613446	keystroke_c	c	n/a
306.829	0.089	613658	keystroke_a	a	n/a
306.979	0.0745	613958	keystroke_d	d	n/a
307.1435	0.06	614287	keystroke_e	e	n/a
307.218	0.0455	614436	keystroke_m	m	n/a
307.3535	0.09	614707	keystroke_i	i	n/a
307.548	0.0605	615096	keystroke_c	c	n/a
307.8785	0.059	615757	keystroke_s	s	n/a
308.2835	0.0595	616567	keystroke_Key.space	Key.space	n/a
308.6135	0.074	617227	keystroke_r	r	n/a
308.6585	0.09	617317	keystroke_e	e	n/a
308.8085	0.045	617617	keystroke_l	l	n/a
309.213	0.1205	618426	keystroke_Key.backspace	Key.backspace	n/a
309.453	0.1205	618906	keystroke_p	p	n/a
309.618	0.0755	619236	keystroke_l	l	n/a
309.798	0.09	619596	keystroke_i	i	n/a
309.933	0.1055	619866	keystroke_e	e	n/a
310.1135	0.09	620227	keystroke_d	d	n/a
310.2785	0.09	620557	keystroke_Key.space	Key.space	n/a
310.7135	0.06	621427	keystroke_l	l	n/a
310.8785	0.09	621757	keystroke_o	o	n/a
311.4635	0.0745	622927	keystroke_p	p	n/a
311.703	0.076	623406	keystroke_z	z	n/a
311.988	0.0755	623976	keystroke_e	e	n/a
312.304	0.044	624608	keystroke_Key.backspace	Key.backspace	n/a
312.423	0.075	624846	keystroke_Key.backspace	Key.backspace	n/a
312.543	0.0605	625086	keystroke_e	e	n/a
312.708	0.09	625416	keystroke_z	z	n/a
312.753	0.03	625506	keystroke_x	x	n/a
313.533	0.0455	627066	keystroke_Key.backspace	Key.backspace	n/a
313.773	0.075	627546	keystroke_Key.space	Key.space	n/a
313.998	0.0895	627996	keystroke_a	a	n/a
314.2085	0.045	628417	keystroke_r	r	n/a
314.2835	0.09	628567	keystroke_r	r	n/a
314.4625	0.091	628925	keystroke_a	a	n/a
314.5685	0.09	629137	keystroke_n	n	n/a
314.719	0.0745	629438	keystroke_g	g	n/a
314.8085	0.105	629617	keystroke_e	e	n/a
314.9735	0.105	629947	keystroke_d	d	n/a
316.083	0.0905	632166	keystroke_Key.enter	Key.enter	n/a
316.1795	7.526	632359	prompt	n/a	earnings fruits leadership schedules\n
316.9385	0.0745	633877	keystroke_e	e	n/a
317.163	0.105	634326	keystroke_a	a	n/a
317.313	0.0905	634626	keystroke_r	r	n/a
317.418	0.076	634836	keystroke_n	n	n/a
317.5535	0.12	635107	keystroke_i	i	n/a
317.6285	0.1045	635257	keystroke_n	n	n/a
317.718	0.0755	635436	keystroke_g	g	n/a
317.9135	0.09	635827	keystroke_s	s	n/a
318.018	0.075	636036	keystroke_Key.space	Key.space	n/a
318.708	0.075	637416	keystroke_f	f	n/a
318.8885	0.06	637777	keystroke_r	r	n/a
318.9625	0.076	637925	keystroke_u	u	n/a
319.1135	0.09	638227	keystroke_i	i	n/a
319.189	0.0895	638378	keystroke_t	t	n/a
319.518	0.076	639036	keystroke_s	s	n/a
319.6835	0.089	639367	keystroke_Key.space	Key.space	n/a
320.298	0.0905	640596	keystroke_l	l	n/a
320.3725	0.061	640745	keystroke_e	e	n/a
320.4625	0.136	640925	keystroke_a	a	n/a
320.5535	0.119	641107	keystroke_d	d	n/a
320.7175	0.106	641435	keystroke_e	e	n/a
320.7935	0.105	641587	keystroke_r	r	n/a
320.9885	0.09	641977	keystroke_s	s	n/a
321.0935	0.15	642187	keystroke_h	h	n/a
321.2135	0.0755	642427	keystroke_i	i	n/a
321.5285	0.0595	643057	keystroke_p	p	n/a
322.0085	0.075	644017	keystroke_Key.space	Key.space	n/a
322.443	0.0755	644886	keystroke_s	s	n/a
322.6085	0.09	645217	keystroke_c	c	n/a
322.7135	0.09	645427	keystroke_h	h	n/a
322.789	0.0745	645578	keystroke_e	e	n/a
322.9385	0.105	645877	keystroke_d	d	n/a
323.0585	0.0605	646117	keystroke_u	u	n/a
323.253	0.09	646506	keystroke_l	l	n/a
323.314	0.074	646628	keystroke_e	e	n/a
323.569	0.015	647138	keystroke_s	s	n/a
323.613	0.091	647226	keystroke_Key.enter	Key.enter	n/a
323.7095	9.371	647419	prompt	n/a	native transactions transmission optics\n
324.5885	0.0745	649177	keystroke_n	n	n/a
324.6785	0.1055	649357	keystroke_a	a	n/a
324.919	0.075	649838	keystroke_t	t	n/a
325.009	0.0885	650018	keystroke_i	i	n/a
325.1125	0.0755	650225	keystroke_v	v	n/a
325.234	0.089	650468	keystroke_e	e	n/a
325.729	0.0595	651458	keystroke_Key.space	Key.space	n/a
325.984	0.075	651968	keystroke_t	t	n/a
326.029	0.0745	652058	keystroke_r	r	n/a
326.209	0.104	652418	keystroke_a	a	n/a
326.299	0.075	652598	keystroke_n	n	n/a
326.374	0.089	652748	keystroke_s	s	n/a
326.568	0.075	653136	keystroke_a	a	n/a
326.7485	0.1055	653497	keystroke_x	x	n/a
327.3935	0.045	654787	keystroke_Key.backspace	Key.backspace	n/a
327.4385	0.015	654877	keystroke_x	x	n/a
328.3235	0.075	656647	keystroke_Key.backspace	Key.backspace	n/a
328.4135	0.0895	656827	keystroke_c	c	n/a
328.638	0.0755	657276	keystroke_t	t	n/a
328.6985	0.1645	657397	keystroke_i	i	n/a
328.788	0.121	657576	keystroke_o	o	n/a
328.834	0.1195	657668	keystroke_n	n	n/a
328.9235	0.0745	657847	keystroke_s	s	n/a
329.898	0.0755	659796	keystroke_Key.space	Key.space	n/a
330.123	0.09	660246	keystroke_t	t	n/a
330.153	0.091	660306	keystroke_r	r	n/a
330.348	0.075	660696	keystroke_a	a	n/a
330.439	0.074	660878	keystroke_n	n	n/a
330.5285	0.0595	661057	keystroke_s	s	n/a
330.649	0.1045	661298	keystroke_m	m	n/a
330.7985	0.0895	661597	keystroke_i	i	n/a
330.903	0.06	661806	keystroke_s	s	n/a
331.038	0.075	662076	keystroke_s	s	n/a
331.129	0.164	662258	keystroke_i	i	n/a
331.2035	0.1345	662407	keystroke_o	o	n/a
331.263	0.135	662526	keystroke_n	n	n/a
331.9385	0.06	663877	keystroke_Key.space	Key.space	n/a
332.163	0.135	664326	keystroke_o	o	n/a
332.268	0.09	664536	keystroke_p	p	n/a
332.493	0.0605	664986	keystroke_t	t	n/a
332.598	0.09	665196	keystroke_i	i	n/a
332.7185	0.1195	665437	keystroke_c	c	n/a
332.8535	0.0895	665707	keystroke_s	s	n/a
332.9735	0.105	665947	keystroke_Key.enter	Key.enter	n/a
333.085	7.225	666170	prompt	n/a	designated guest usps wallace\n
333.9785	0.0745	667957	keystroke_d	d	n/a
334.114	0.074	668228	keystroke_e	e	n/a
334.338	0.09	668676	keystroke_s	s	n/a
334.533	0.075	669066	keystroke_i	i	n/a
334.6685	0.0745	669337	keystroke_g	g	n/a
334.774	0.0895	669548	keystroke_n	n	n/a
334.9535	0.09	669907	keystroke_a	a	n/a
335.1485	0.09	670297	keystroke_t	t	n/a
335.3135	0.0755	670627	keystroke_e	e	n/a
335.4785	0.075	670957	keystroke_d	d	n/a
335.9285	0.09	671857	keystroke_Key.space	Key.space	n/a
336.3785	0.0605	672757	keystroke_g	g	n/a
336.4535	0.09	672907	keystroke_u	u	n/a
336.5585	0.075	673117	keystroke_e	e	n/a
336.7385	0.09	673477	keystroke_s	s	n/a
336.9485	0.075	673897	keystroke_t	t	n/a
337.0835	0.075	674167	keystroke_Key.space	Key.space	n/a
337.6085	0.06	675217	keystroke_u	u	n/a
337.9235	0.0595	675847	keystroke_s	s	n/a
338.029	0.0745	676058	keystroke_p	p	n/a
338.1485	0.0745	676297	keystroke_s	s	n/a
338.7485	0.075	677497	keystroke_Key.space	Key.space	n/a
338.9585	0.06	677917	keystroke_w	w	n/a
339.0785	0.09	678157	keystroke_a	a	n/a
339.1835	0.06	678367	keystroke_l	l	n/a
339.3035	0.075	678607	keystroke_l	l	n/a
339.3635	0.09	678727	keystroke_a	a	n/a
339.5435	0.105	679087	keystroke_c	c	n/a
339.6185	0.105	679237	keystroke_e	e	n/a
340.2035	0.105	680407	keystroke_Key.enter	Key.enter	n/a
340.3175	6.6975	680635	prompt	n/a	gratuit trust kidney universe\n
341.613	0.0905	683226	keystroke_g	g	n/a
341.658	0.0905	683316	keystroke_r	r	n/a
341.9885	0.0745	683977	keystroke_a	a	n/a
342.258	0.105	684516	keystroke_t	t	n/a
342.5735	0.0595	685147	keystroke_u	u	n/a
342.813	0.0155	685626	keystroke_i	i	n/a
342.8435	0.06	685687	keystroke_t	t	n/a
343.519	0.059	687038	keystroke_Key.space	Key.space	n/a
343.819	0.075	687638	keystroke_t	t	n/a
343.849	0.09	687698	keystroke_r	r	n/a
343.984	0.075	687968	keystroke_u	u	n/a
344.073	0.106	688146	keystroke_s	s	n/a
344.254	0.105	688508	keystroke_t	t	n/a
344.374	0.0745	688748	keystroke_Key.space	Key.space	n/a
344.7185	0.06	689437	keystroke_k	k	n/a
344.8535	0.0905	689707	keystroke_i	i	n/a
344.9585	0.075	689917	keystroke_d	d	n/a
345.214	0.1045	690428	keystroke_n	n	n/a
345.3335	0.06	690667	keystroke_e	e	n/a
345.5135	0.075	691027	keystroke_t	t	n/a
345.649	0.059	691298	keystroke_Key.space	Key.space	n/a
345.843	0.1355	691686	keystroke_u	u	n/a
345.933	0.0905	691866	keystroke_n	n	n/a
346.0835	0.105	692167	keystroke_i	i	n/a
346.2635	0.075	692527	keystroke_v	v	n/a
346.4435	0.09	692887	keystroke_e	e	n/a
346.5035	0.075	693007	keystroke_r	r	n/a
346.6385	0.105	693277	keystroke_s	s	n/a
346.8335	0.0605	693667	keystroke_e	e	n/a
346.9085	0.1045	693817	keystroke_Key.enter	Key.enter	n/a
347.0185	7.3015	694037	prompt	n/a	type gras pricing chocolate\n
348.318	0.0455	696636	keystroke_t	t	n/a
348.408	0.075	696816	keystroke_y	y	n/a
348.4685	0.0755	696937	keystroke_p	p	n/a
348.603	0.091	697206	keystroke_e	e	n/a
348.738	0.1055	697476	keystroke_Key.space	Key.space	n/a
349.233	0.091	698466	keystroke_g	g	n/a
349.278	0.09	698556	keystroke_r	r	n/a
349.489	0.149	698978	keystroke_a	a	n/a
349.579	0.119	699158	keystroke_s	s	n/a
349.9385	0.0745	699877	keystroke_Key.space	Key.space	n/a
350.3285	0.045	700657	keystroke_r	r	n/a
351.1235	0.075	702247	keystroke_Key.backspace	Key.backspace	n/a
351.934	0.074	703868	keystroke_p	p	n/a
352.0235	0.075	704047	keystroke_r	r	n/a
352.159	0.089	704318	keystroke_i	i	n/a
352.278	0.105	704556	keystroke_c	c	n/a
352.428	0.0905	704856	keystroke_i	i	n/a
352.458	0.121	704916	keystroke_n	n	n/a
352.594	0.075	705188	keystroke_g	g	n/a
352.698	0.09	705396	keystroke_Key.space	Key.space	n/a
353.0735	0.105	706147	keystroke_c	c	n/a
353.133	0.061	706266	keystroke_h	h	n/a
353.3135	0.0755	706627	keystroke_o	o	n/a
353.433	0.091	706866	keystroke_c	c	n/a
353.509	0.0895	707018	keystroke_o	o	n/a
353.704	0.1045	707408	keystroke_l	l	n/a
353.794	0.105	707588	keystroke_a	a	n/a
354.0035	0.105	708007	keystroke_t	t	n/a
354.0785	0.1205	708157	keystroke_e	e	n/a
354.2135	0.105	708427	keystroke_Key.enter	Key.enter	n/a
354.3235	9.461	708647	prompt	n/a	recovery belt challenging antibody\n
355.084	0.0895	710168	keystroke_r	r	n/a
355.144	0.09	710288	keystroke_e	e	n/a
355.3685	0.0755	710737	keystroke_c	c	n/a
355.609	0.0745	711218	keystroke_o	o	n/a
355.8485	0.0755	711697	keystroke_v	v	n/a
356.0285	0.1205	712057	keystroke_e	e	n/a
356.1185	0.0905	712237	keystroke_r	r	n/a
356.2685	0.0305	712537	keystroke_e	e	n/a
356.733	0.09	713466	keystroke_Key.backspace	Key.backspace	n/a
356.794	0.0745	713588	keystroke_t	t	n/a
357.3485	0.09	714697	keystroke_Key.backspace	Key.backspace	n/a
357.4085	0.075	714817	keystroke_y	y	n/a
359.268	0.075	718536	keystroke_Key.space	Key.space	n/a
359.374	0.075	718748	keystroke_b	b	n/a
359.5235	0.0755	719047	keystroke_e	e	n/a
359.613	0.0755	719226	keystroke_l	l	n/a
359.674	0.089	719348	keystroke_t	t	n/a
359.808	0.0905	719616	keystroke_Key.space	Key.space	n/a
360.723	0.0755	721446	keystroke_c	c	n/a
360.7835	0.09	721567	keystroke_h	h	n/a
360.8885	0.0745	721777	keystroke_a	a	n/a
361.0385	0.075	722077	keystroke_l	l	n/a
361.1585	0.075	722317	keystroke_l	l	n/a
361.249	0.075	722498	keystroke_e	e	n/a
361.3535	0.075	722707	keystroke_n	n	n/a
361.4735	0.105	722947	keystroke_g	g	n/a
361.6085	0.135	723217	keystroke_i	i	n/a
361.699	0.1045	723398	keystroke_n	n	n/a
361.7735	0.09	723547	keystroke_g	g	n/a
361.8935	0.105	723787	keystroke_Key.space	Key.space	n/a
362.0585	0.09	724117	keystroke_a	a	n/a
362.1635	0.105	724327	keystroke_n	n	n/a
362.3885	0.075	724777	keystroke_t	t	n/a
362.5385	0.105	725077	keystroke_i	i	n/a
363.1985	0.075	726397	keystroke_b	b	n/a
363.289	0.0895	726578	keystroke_o	o	n/a
363.3635	0.09	726727	keystroke_d	d	n/a
363.5735	0.09	727147	keystroke_y	y	n/a
363.6785	0.105	727357	keystroke_Key.enter	Key.enter	n/a
363.788	4.902	727576	prompt	n/a	store regardless soap levy\n
364.504	0.105	729008	keystroke_s	s	n/a
364.729	0.075	729458	keystroke_t	t	n/a
364.818	0.061	729636	keystroke_o	o	n/a
364.894	0.105	729788	keystroke_r	r	n/a
364.999	0.089	729998	keystroke_e	e	n/a
365.1785	0.075	730357	keystroke_Key.space	Key.space	n/a
365.374	0.1045	730748	keystroke_r	r	n/a
365.4335	0.0905	730867	keystroke_e	e	n/a
365.599	0.0895	731198	keystroke_g	g	n/a
365.7785	0.105	731557	keystroke_a	a	n/a
365.8535	0.105	731707	keystroke_r	r	n/a
366.0035	0.1205	732007	keystroke_d	d	n/a
366.1385	0.09	732277	keystroke_l	l	n/a
366.2135	0.075	732427	keystroke_e	e	n/a
366.3635	0.0605	732727	keystroke_s	s	n/a
366.4835	0.075	732967	keystroke_s	s	n/a
366.6485	0.075	733297	keystroke_Key.space	Key.space	n/a
366.9335	0.0745	733867	keystroke_s	s	n/a
367.1285	0.09	734257	keystroke_o	o	n/a
367.2335	0.09	734467	keystroke_a	a	n/a
367.3535	0.09	734707	keystroke_p	p	n/a
367.5935	0.09	735187	keystroke_Key.space	Key.space	n/a
368.0585	0.075	736117	keystroke_l	l	n/a
368.1185	0.075	736237	keystroke_e	e	n/a
368.2835	0.0905	736567	keystroke_v	v	n/a
368.493	0.091	736986	keystroke_y	y	n/a
368.5685	0.12	737137	keystroke_Key.enter	Key.enter	n/a
368.6945	9.2655	737389	prompt	n/a	gratuit structure phpbb bright\n
370.338	0.09	740676	keystroke_g	g	n/a
370.3985	0.0895	740797	keystroke_r	r	n/a
370.5935	0.09	741187	keystroke_a	a	n/a
370.7885	0.0755	741577	keystroke_t	t	n/a
370.909	0.074	741818	keystroke_u	u	n/a
371.088	0.091	742176	keystroke_i	i	n/a
371.208	0.076	742416	keystroke_t	t	n/a
371.838	0.075	743676	keystroke_Key.space	Key.space	n/a
371.899	0.105	743798	keystroke_s	s	n/a
372.1235	0.0905	744247	keystroke_t	t	n/a
372.169	0.12	744338	keystroke_r	r	n/a
372.3185	0.0895	744637	keystroke_u	u	n/a
372.423	0.0905	744846	keystroke_c	c	n/a
372.664	0.09	745328	keystroke_t	t	n/a
372.829	0.0895	745658	keystroke_u	u	n/a
372.919	0.119	745838	keystroke_r	r	n/a
372.9935	0.1045	745987	keystroke_e	e	n/a
373.7885	0.0895	747577	keystroke_Key.space	Key.space	n/a
374.059	0.074	748118	keystroke_p	p	n/a
374.3285	0.075	748657	keystroke_h	h	n/a
374.6435	0.075	749287	keystroke_p	p	n/a
375.5435	0.045	751087	keystroke_b	b	n/a
375.6335	0.09	751267	keystroke_b	b	n/a
376.4735	0.075	752947	keystroke_Key.space	Key.space	n/a
376.624	0.09	753248	keystroke_b	b	n/a
376.7285	0.09	753457	keystroke_r	r	n/a
376.8335	0.075	753667	keystroke_i	i	n/a
376.8935	0.075	753787	keystroke_g	g	n/a
376.9835	0.075	753967	keystroke_h	h	n/a
377.0285	0.09	754057	keystroke_t	t	n/a
377.8685	0.09	755737	keystroke_Key.enter	Key.enter	n/a
377.964	7.8115	755928	prompt	n/a	tone agents variance puppy\n
379.0235	0.075	758047	keystroke_t	t	n/a
379.1135	0.105	758227	keystroke_o	o	n/a
379.2035	0.075	758407	keystroke_n	n	n/a
379.2635	0.075	758527	keystroke_e	e	n/a
379.4885	0.09	758977	keystroke_Key.space	Key.space	n/a
379.7735	0.06	759547	keystroke_a	a	n/a
379.9535	0.0745	759907	keystroke_g	g	n/a
380.044	0.104	760088	keystroke_e	e	n/a
380.1635	0.0895	760327	keystroke_t	t	n/a
380.164	0.104	760328	keystroke_n	n	n/a
380.3735	0.1045	760747	keystroke_s	s	n/a
380.9435	0.075	761887	keystroke_Key.backspace	Key.backspace	n/a
381.0785	0.06	762157	keystroke_Key.backspace	Key.backspace	n/a
381.2135	0.075	762427	keystroke_Key.backspace	Key.backspace	n/a
381.4985	0.09	762997	keystroke_n	n	n/a
381.6485	0.09	763297	keystroke_t	t	n/a
381.8135	0.12	763627	keystroke_s	s	n/a
382.369	0.06	764738	keystroke_Key.space	Key.space	n/a
382.654	0.105	765308	keystroke_v	v	n/a
382.9385	0.09	765877	keystroke_a	a	n/a
383.1035	0.0905	766207	keystroke_r	r	n/a
383.2385	0.09	766477	keystroke_i	i	n/a
383.3285	0.105	766657	keystroke_a	a	n/a
384.0035	0.0745	768007	keystroke_n	n	n/a
384.0935	0.075	768187	keystroke_c	c	n/a
384.138	0.09	768276	keystroke_e	e	n/a
384.3485	0.075	768697	keystroke_Key.space	Key.space	n/a
384.6485	0.09	769297	keystroke_p	p	n/a
384.919	0.075	769838	keystroke_u	u	n/a
385.143	0.0755	770286	keystroke_p	p	n/a
385.2485	0.075	770497	keystroke_p	p	n/a
385.4285	0.075	770857	keystroke_y	y	n/a
385.6985	0.075	771397	keystroke_Key.enter	Key.enter	n/a
385.7805	8.05	771561	prompt	n/a	latex venice behavioral degrees\n
386.509	0.0895	773018	keystroke_l	l	n/a
386.5835	0.09	773167	keystroke_a	a	n/a
386.7935	0.09	773587	keystroke_t	t	n/a
386.869	0.1045	773738	keystroke_e	e	n/a
387.1385	0.1055	774277	keystroke_x	x	n/a
387.5885	0.075	775177	keystroke_Key.space	Key.space	n/a
387.8435	0.075	775687	keystroke_v	v	n/a
388.0985	0.06	776197	keystroke_e	e	n/a
388.2635	0.075	776527	keystroke_n	n	n/a
388.4285	0.09	776857	keystroke_i	i	n/a
388.6985	0.0595	777397	keystroke_c	c	n/a
388.743	0.09	777486	keystroke_e	e	n/a
389.133	0.075	778266	keystroke_Key.space	Key.space	n/a
389.4935	0.0745	778987	keystroke_b	b	n/a
389.5835	0.1055	779167	keystroke_e	e	n/a
389.7485	0.0905	779497	keystroke_h	h	n/a
389.8535	0.075	779707	keystroke_a	a	n/a
390.0635	0.075	780127	keystroke_v	v	n/a
390.244	0.1195	780488	keystroke_i	i	n/a
390.3785	0.12	780757	keystroke_o	o	n/a
390.5135	0.075	781027	keystroke_r	r	n/a
390.8285	0.075	781657	keystroke_a	a	n/a
390.9185	0.09	781837	keystroke_l	l	n/a
392.4635	0.045	784927	keystroke_Key.space	Key.space	n/a
392.5235	0.075	785047	keystroke_d	d	n/a
392.644	0.0745	785288	keystroke_e	e	n/a
392.7785	0.0905	785557	keystroke_g	g	n/a
392.853	0.091	785706	keystroke_r	r	n/a
393.034	0.075	786068	keystroke_e	e	n/a
393.139	0.105	786278	keystroke_e	e	n/a
393.348	0.091	786696	keystroke_s	s	n/a
393.7235	0.1055	787447	keystroke_Key.enter	Key.enter	n/a
393.8355	7.84	787671	prompt	n/a	peterson breathing accordance albert\n
394.683	0.0905	789366	keystroke_p	p	n/a
394.788	0.075	789576	keystroke_e	e	n/a
394.908	0.031	789816	keystroke_r	r	n/a
394.953	0.0755	789906	keystroke_e	e	n/a
395.313	0.075	790626	keystroke_Key.backspace	Key.backspace	n/a
395.4485	0.0895	790897	keystroke_Key.backspace	Key.backspace	n/a
395.554	0.09	791108	keystroke_t	t	n/a
395.733	0.091	791466	keystroke_e	e	n/a
395.824	0.0745	791648	keystroke_r	r	n/a
396.079	0.1195	792158	keystroke_s	s	n/a
396.258	0.121	792516	keystroke_o	o	n/a
396.363	0.091	792726	keystroke_n	n	n/a
396.558	0.075	793116	keystroke_Key.space	Key.space	n/a
396.753	0.0905	793506	keystroke_b	b	n/a
396.828	0.105	793656	keystroke_r	r	n/a
396.858	0.121	793716	keystroke_e	e	n/a
397.054	0.0895	794108	keystroke_a	a	n/a
397.218	0.09	794436	keystroke_t	t	n/a
397.293	0.06	794586	keystroke_h	h	n/a
397.414	0.1345	794828	keystroke_i	i	n/a
397.4885	0.105	794977	keystroke_n	n	n/a
397.5635	0.06	795127	keystroke_g	g	n/a
397.6835	0.09	795367	keystroke_Key.space	Key.space	n/a
398.584	0.0895	797168	keystroke_a	a	n/a
398.7935	0.0755	797587	keystroke_c	c	n/a
398.928	0.091	797856	keystroke_c	c	n/a
399.079	0.089	798158	keystroke_o	o	n/a
399.153	0.075	798306	keystroke_r	r	n/a
399.303	0.091	798606	keystroke_d	d	n/a
399.4235	0.1045	798847	keystroke_a	a	n/a
399.5585	0.075	799117	keystroke_n	n	n/a
399.8585	0.1195	799717	keystroke_c	c	n/a
399.9485	0.09	799897	keystroke_e	e	n/a
400.473	0.0905	800946	keystroke_Key.space	Key.space	n/a
400.579	0.09	801158	keystroke_a	a	n/a
400.7135	0.09	801427	keystroke_l	l	n/a
400.8635	0.09	801727	keystroke_b	b	n/a
401.0435	0.09	802087	keystroke_e	e	n/a
401.1035	0.0905	802207	keystroke_r	r	n/a
401.269	0.0895	802538	keystroke_t	t	n/a
401.5835	0.09	803167	keystroke_Key.enter	Key.enter	n/a
401.6795	6.7605	803359	prompt	n/a	smtp plugins logic designed\n
402.544	0.074	805088	keystroke_s	s	n/a
402.633	0.0905	805266	keystroke_m	m	n/a
402.8885	0.06	805777	keystroke_t	t	n/a
402.9935	0.06	805987	keystroke_p	p	n/a
403.578	0.0605	807156	keystroke_Key.space	Key.space	n/a
404.0285	0.135	808057	keystroke_p	p	n/a
404.134	0.0745	808268	keystroke_l	l	n/a
404.3735	0.09	808747	keystroke_u	u	n/a
404.478	0.075	808956	keystroke_g	g	n/a
404.5835	0.1355	809167	keystroke_i	i	n/a
404.6735	0.0905	809347	keystroke_n	n	n/a
404.779	0.075	809558	keystroke_s	s	n/a
404.958	0.06	809916	keystroke_Key.space	Key.space	n/a
405.1685	0.0755	810337	keystroke_l	l	n/a
405.333	0.076	810666	keystroke_o	o	n/a
405.393	0.075	810786	keystroke_f	f	n/a
405.9335	0.09	811867	keystroke_Key.backspace	Key.backspace	n/a
405.994	0.0895	811988	keystroke_g	g	n/a
406.429	0.075	812858	keystroke_i	i	n/a
406.548	0.106	813096	keystroke_c	c	n/a
406.7585	0.0595	813517	keystroke_Key.space	Key.space	n/a
407.269	0.06	814538	keystroke_d	d	n/a
407.388	0.091	814776	keystroke_e	e	n/a
407.553	0.1055	815106	keystroke_s	s	n/a
407.673	0.0755	815346	keystroke_i	i	n/a
407.7635	0.09	815527	keystroke_g	g	n/a
407.8685	0.09	815737	keystroke_n	n	n/a
407.929	0.09	815858	keystroke_e	e	n/a
408.078	0.1055	816156	keystroke_d	d	n/a
408.3485	0.09	816697	keystroke_Key.enter	Key.enter	n/a
408.4445	8.2605	816889	prompt	n/a	karl towers olympic honor\n
409.3835	0.09	818767	keystroke_k	k	n/a
409.4585	0.075	818917	keystroke_a	a	n/a
409.6235	0.075	819247	keystroke_r	r	n/a
409.803	0.075	819606	keystroke_l	l	n/a
410.088	0.0755	820176	keystroke_Key.space	Key.space	n/a
410.3285	0.09	820657	keystroke_t	t	n/a
410.4035	0.0905	820807	keystroke_o	o	n/a
410.5235	0.135	821047	keystroke_w	w	n/a
410.6135	0.09	821227	keystroke_e	e	n/a
410.7785	0.0905	821557	keystroke_r	r	n/a
411.034	0.09	822068	keystroke_s	s	n/a
411.8285	0.09	823657	keystroke_Key.space	Key.space	n/a
412.4135	0.075	824827	keystroke_o	o	n/a
412.5635	0.1055	825127	keystroke_l	l	n/a
412.7435	0.0455	825487	keystroke_y	y	n/a
413.344	0.06	826688	keystroke_m	m	n/a
413.568	0.09	827136	keystroke_p	p	n/a
413.808	0.046	827616	keystroke_u	u	n/a
413.823	0.015	827646	keystroke_i	i	n/a
413.913	0.045	827826	keystroke_c	c	n/a
414.2135	0.0895	828427	keystroke_Key.backspace	Key.backspace	n/a
414.363	0.075	828726	keystroke_Key.backspace	Key.backspace	n/a
414.498	0.09	828996	keystroke_Key.backspace	Key.backspace	n/a
414.9785	0.0605	829957	keystroke_i	i	n/a
415.054	0.06	830108	keystroke_c	c	n/a
415.383	0.061	830766	keystroke_Key.space	Key.space	n/a
415.638	0.061	831276	keystroke_h	h	n/a
415.789	0.12	831578	keystroke_o	o	n/a
415.894	0.0895	831788	keystroke_n	n	n/a
415.998	0.105	831996	keystroke_o	o	n/a
416.089	0.075	832178	keystroke_r	r	n/a
416.598	0.1055	833196	keystroke_Key.enter	Key.enter	n/a
416.7095	6.656	833419	prompt	n/a	incl trunk analysts comm\n
417.648	0.135	835296	keystroke_i	i	n/a
417.739	0.089	835478	keystroke_n	n	n/a
417.993	0.076	835986	keystroke_c	c	n/a
418.084	0.0745	836168	keystroke_l	l	n/a
418.5335	0.0605	837067	keystroke_Key.space	Key.space	n/a
418.8335	0.105	837667	keystroke_t	t	n/a
418.894	0.12	837788	keystroke_r	r	n/a
419.0585	0.09	838117	keystroke_u	u	n/a
419.9285	0.09	839857	keystroke_n	n	n/a
420.109	0.0895	840218	keystroke_k	k	n/a
420.7685	0.06	841537	keystroke_Key.space	Key.space	n/a
420.8435	0.075	841687	keystroke_a	a	n/a
420.934	0.1345	841868	keystroke_n	n	n/a
421.0085	0.09	842017	keystroke_a	a	n/a
421.1585	0.105	842317	keystroke_l	l	n/a
421.3535	0.105	842707	keystroke_y	y	n/a
421.639	0.0895	843278	keystroke_s	s	n/a
421.9235	0.075	843847	keystroke_t	t	n/a
422.134	0.105	844268	keystroke_s	s	n/a
422.6285	0.06	845257	keystroke_Key.space	Key.space	n/a
422.779	0.1045	845558	keystroke_c	c	n/a
422.8385	0.0755	845677	keystroke_o	o	n/a
423.0035	0.045	846007	keystroke_m	m	n/a
423.1085	0.075	846217	keystroke_m	m	n/a
423.2585	0.105	846517	keystroke_Key.enter	Key.enter	n/a
423.3725	6.3075	846745	prompt	n/a	planes corporation played pets\n
424.1135	0.15	848227	keystroke_p	p	n/a
424.189	0.0895	848378	keystroke_l	l	n/a
424.2635	0.09	848527	keystroke_a	a	n/a
424.4135	0.09	848827	keystroke_n	n	n/a
424.489	0.0745	848978	keystroke_e	e	n/a
424.6385	0.09	849277	keystroke_s	s	n/a
424.7735	0.09	849547	keystroke_Key.space	Key.space	n/a
425.1785	0.0745	850357	keystroke_c	c	n/a
425.2685	0.0755	850537	keystroke_o	o	n/a
425.478	0.105	850956	keystroke_p	p	n/a
425.9885	0.075	851977	keystroke_Key.backspace	Key.backspace	n/a
426.094	0.074	852188	keystroke_r	r	n/a
426.258	0.075	852516	keystroke_p	p	n/a
426.498	0.076	852996	keystroke_o	o	n/a
426.6335	0.075	853267	keystroke_r	r	n/a
426.874	0.059	853748	keystroke_a	a	n/a
427.053	0.0755	854106	keystroke_t	t	n/a
427.113	0.1505	854226	keystroke_i	i	n/a
427.1735	0.12	854347	keystroke_o	o	n/a
427.2485	0.09	854497	keystroke_n	n	n/a
427.3985	0.09	854797	keystroke_Key.space	Key.space	n/a
427.6085	0.12	855217	keystroke_p	p	n/a
427.6835	0.105	855367	keystroke_l	l	n/a
427.7735	0.0605	855547	keystroke_a	a	n/a
427.969	0.059	855938	keystroke_y	y	n/a
428.058	0.12	856116	keystroke_e	e	n/a
428.269	0.12	856538	keystroke_d	d	n/a
428.448	0.0755	856896	keystroke_Key.space	Key.space	n/a
429.0635	0.0895	858127	keystroke_p	p	n/a
429.139	0.0895	858278	keystroke_e	e	n/a
429.2585	0.0755	858517	keystroke_t	t	n/a
429.409	0.1345	858818	keystroke_s	s	n/a
429.5585	0.12	859117	keystroke_Key.enter	Key.enter	n/a
429.6855	9.535	859371	prompt	n/a	significance undergraduate stretch floor\n
430.474	0.105	860948	keystroke_s	s	n/a
430.594	0.075	861188	keystroke_i	i	n/a
430.774	0.06	861548	keystroke_g	g	n/a
430.849	0.075	861698	keystroke_n	n	n/a
430.969	0.105	861938	keystroke_i	i	n/a
431.2985	0.075	862597	keystroke_f	f	n/a
431.419	0.0895	862838	keystroke_i	i	n/a
431.644	0.0895	863288	keystroke_c	c	n/a
431.794	0.09	863588	keystroke_a	a	n/a
431.914	0.089	863828	keystroke_n	n	n/a
431.989	0.134	863978	keystroke_c	c	n/a
432.093	0.0905	864186	keystroke_e	e	n/a
432.2435	0.0755	864487	keystroke_Key.space	Key.space	n/a
432.558	0.075	865116	keystroke_u	u	n/a
432.694	0.014	865388	keystroke_u	u	n/a
432.723	0.0905	865446	keystroke_n	n	n/a
432.858	0.075	865716	keystroke_d	d	n/a
433.008	0.105	866016	keystroke_e	e	n/a
433.3385	0.0745	866677	keystroke_Key.backspace	Key.backspace	n/a
433.473	0.075	866946	keystroke_Key.backspace	Key.backspace	n/a
433.593	0.076	867186	keystroke_Key.backspace	Key.backspace	n/a
433.728	0.0755	867456	keystroke_Key.backspace	Key.backspace	n/a
433.999	0.075	867998	keystroke_n	n	n/a
434.104	0.0895	868208	keystroke_d	d	n/a
434.223	0.12	868446	keystroke_e	e	n/a
434.328	0.06	868656	keystroke_r	r	n/a
434.808	0.091	869616	keystroke_g	g	n/a
434.869	0.075	869738	keystroke_r	r	n/a
435.0635	0.1195	870127	keystroke_a	a	n/a
435.168	0.09	870336	keystroke_d	d	n/a
435.453	0.076	870906	keystroke_u	u	n/a
435.543	0.0905	871086	keystroke_a	a	n/a
435.7385	0.0895	871477	keystroke_t	t	n/a
435.798	0.105	871596	keystroke_e	e	n/a
435.948	0.0905	871896	keystroke_Key.space	Key.space	n/a
436.144	0.1045	872288	keystroke_s	s	n/a
436.3535	0.135	872707	keystroke_t	t	n/a
436.4285	0.0905	872857	keystroke_r	r	n/a
436.6235	0.075	873247	keystroke_e	e	n/a
437.1185	0.0755	874237	keystroke_t	t	n/a
437.3435	0.105	874687	keystroke_c	c	n/a
437.4335	0.09	874867	keystroke_h	h	n/a
438.3035	0.0905	876607	keystroke_Key.space	Key.space	n/a
438.5735	0.075	877147	keystroke_f	f	n/a
438.6785	0.06	877357	keystroke_l	l	n/a
438.8435	0.0595	877687	keystroke_o	o	n/a
438.949	0.1045	877898	keystroke_o	o	n/a
439.0385	0.06	878077	keystroke_r	r	n/a
439.1285	0.0905	878257	keystroke_Key.enter	Key.enter	n/a
439.225	5.7405	878450	prompt	n/a	reseller ruth designers model\n
439.9985	0.075	879997	keystroke_r	r	n/a
440.0285	0.09	880057	keystroke_e	e	n/a
440.194	0.075	880388	keystroke_s	s	n/a
440.3735	0.06	880747	keystroke_e	e	n/a
440.4635	0.06	880927	keystroke_l	l	n/a
440.584	0.1045	881168	keystroke_l	l	n/a
440.6735	0.09	881347	keystroke_e	e	n/a
440.7485	0.105	881497	keystroke_r	r	n/a
440.884	0.0745	881768	keystroke_Key.space	Key.space	n/a
441.1385	0.0755	882277	keystroke_r	r	n/a
441.229	0.06	882458	keystroke_u	u	n/a
441.303	0.091	882606	keystroke_t	t	n/a
441.394	0.0895	882788	keystroke_h	h	n/a
441.604	0.0895	883208	keystroke_Key.space	Key.space	n/a
441.9185	0.0605	883837	keystroke_d	d	n/a
442.0535	0.075	884107	keystroke_e	e	n/a
442.1735	0.105	884347	keystroke_s	s	n/a
442.4435	0.06	884887	keystroke_i	i	n/a
442.9685	0.075	885937	keystroke_g	g	n/a
443.1935	0.09	886387	keystroke_n	n	n/a
443.434	0.1045	886868	keystroke_e	e	n/a
443.5535	0.0755	887107	keystroke_r	r	n/a
443.9135	0.0755	887827	keystroke_s	s	n/a
444.1085	0.075	888217	keystroke_Key.space	Key.space	n/a
444.273	0.075	888546	keystroke_m	m	n/a
444.439	0.0745	888878	keystroke_o	o	n/a
444.484	0.074	888968	keystroke_d	d	n/a
444.573	0.1055	889146	keystroke_e	e	n/a
444.6935	0.0605	889387	keystroke_l	l	n/a
444.8735	0.0905	889747	keystroke_Key.enter	Key.enter	n/a
444.9695	10.496	889939	prompt	n/a	would've ecommerce stanford file\n
446.0135	0.09	892027	keystroke_w	w	n/a
446.1185	0.06	892237	keystroke_o	o	n/a
446.6885	0.09	893377	keystroke_l	l	n/a
446.9435	0.0305	893887	keystroke_d	d	n/a
447.274	0.075	894548	keystroke_Key.backspace	Key.backspace	n/a
447.424	0.089	894848	keystroke_Key.backspace	Key.backspace	n/a
447.874	0.075	895748	keystroke_u	u	n/a
448.0685	0.09	896137	keystroke_l	l	n/a
448.1735	0.06	896347	keystroke_d	d	n/a
448.8335	0.075	897667	keystroke_'	'	n/a
448.9235	0.075	897847	keystroke_v	v	n/a
448.9835	0.0905	897967	keystroke_e	e	n/a
449.568	0.045	899136	keystroke_Key.space	Key.space	n/a
449.749	0.059	899498	keystroke_e	e	n/a
450.064	0.0745	900128	keystroke_c	c	n/a
450.1985	0.075	900397	keystroke_o	o	n/a
450.3785	0.06	900757	keystroke_m	m	n/a
450.5135	0.075	901027	keystroke_m	m	n/a
450.6635	0.105	901327	keystroke_e	e	n/a
450.7535	0.075	901507	keystroke_r	r	n/a
451.1435	0.105	902287	keystroke_c	c	n/a
451.2185	0.075	902437	keystroke_e	e	n/a
451.7585	0.06	903517	keystroke_Key.space	Key.space	n/a
451.8485	0.0905	903697	keystroke_s	s	n/a
452.0585	0.06	904117	keystroke_t	t	n/a
452.1935	0.09	904387	keystroke_a	a	n/a
452.299	0.0745	904598	keystroke_n	n	n/a
452.389	0.0595	904778	keystroke_d	d	n/a
452.839	0.0745	905678	keystroke_Key.backspace	Key.backspace	n/a
452.9435	0.09	905887	keystroke_f	f	n/a
453.1535	0.075	906307	keystroke_o	o	n/a
453.2285	0.075	906457	keystroke_r	r	n/a
453.3785	0.09	906757	keystroke_d	d	n/a
453.5735	0.075	907147	keystroke_Key.space	Key.space	n/a
454.908	0.076	909816	keystroke_f	f	n/a
454.998	0.06	909996	keystroke_i	i	n/a
455.163	0.0905	910326	keystroke_l	l	n/a
455.2685	0.06	910537	keystroke_e	e	n/a
455.389	0.0745	910778	keystroke_Key.enter	Key.enter	n/a
455.469	7.7815	910938	prompt	n/a	airfare karaoke separation knowing\n
456.1235	0.09	912247	keystroke_a	a	n/a
456.3185	0.105	912637	keystroke_i	i	n/a
456.4085	0.075	912817	keystroke_r	r	n/a
456.5585	0.09	913117	keystroke_f	f	n/a
456.7385	0.105	913477	keystroke_a	a	n/a
456.8585	0.075	913717	keystroke_r	r	n/a
456.9785	0.045	913957	keystroke_e	e	n/a
457.668	0.075	915336	keystroke_Key.space	Key.space	n/a
457.893	0.076	915786	keystroke_k	k	n/a
457.969	0.105	915938	keystroke_a	a	n/a
458.134	0.06	916268	keystroke_r	r	n/a
458.239	0.089	916478	keystroke_a	a	n/a
458.524	0.104	917048	keystroke_o	o	n/a
458.689	0.119	917378	keystroke_k	k	n/a
458.839	0.059	917678	keystroke_e	e	n/a
459.439	0.06	918878	keystroke_Key.space	Key.space	n/a
459.544	0.09	919088	keystroke_s	s	n/a
459.769	0.075	919538	keystroke_e	e	n/a
459.889	0.09	919778	keystroke_p	p	n/a
460.038	0.09	920076	keystroke_a	a	n/a
460.189	0.105	920378	keystroke_r	r	n/a
460.324	0.0895	920648	keystroke_a	a	n/a
460.519	0.12	921038	keystroke_t	t	n/a
460.6685	0.2395	921337	keystroke_i	i	n/a
460.758	0.135	921516	keystroke_o	o	n/a
460.8785	0.09	921757	keystroke_n	n	n/a
461.463	0.075	922926	keystroke_Key.space	Key.space	n/a
462.034	0.105	924068	keystroke_k	k	n/a
462.109	0.09	924218	keystroke_n	n	n/a
462.259	0.105	924518	keystroke_o	o	n/a
462.349	0.075	924698	keystroke_w	w	n/a
462.649	0.15	925298	keystroke_i	i	n/a
462.724	0.105	925448	keystroke_n	n	n/a
462.784	0.075	925568	keystroke_g	g	n/a
463.189	0.059	926378	keystroke_Key.enter	Key.enter	n/a
463.255	10.12	926510	prompt	n/a	abstracts vulnerable entertaining check\n
463.9985	0.1055	927997	keystroke_a	a	n/a
464.2535	0.0905	928507	keystroke_b	b	n/a
464.464	0.105	928928	keystroke_s	s	n/a
464.689	0.075	929378	keystroke_t	t	n/a
464.719	0.105	929438	keystroke_r	r	n/a
464.929	0.105	929858	keystroke_a	a	n/a
465.049	0.12	930098	keystroke_c	c	n/a
465.274	0.074	930548	keystroke_t	t	n/a
465.424	0.09	930848	keystroke_s	s	n/a
466.0985	0.0605	932197	keystroke_Key.space	Key.space	n/a
466.3385	0.06	932677	keystroke_b	b	n/a
466.3835	0.075	932767	keystroke_u	u	n/a
466.7435	0.075	933487	keystroke_Key.backspace	Key.backspace	n/a
466.8785	0.075	933757	keystroke_Key.backspace	Key.backspace	n/a
467.0135	0.075	934027	keystroke_Key.backspace	Key.backspace	n/a
467.2385	0.06	934477	keystroke_v	v	n/a
467.6585	0.075	935317	keystroke_Key.backspace	Key.backspace	n/a
467.929	0.0445	935858	keystroke_Key.space	Key.space	n/a
468.064	0.0595	936128	keystroke_v	v	n/a
468.1685	0.075	936337	keystroke_u	u	n/a
468.3785	0.09	936757	keystroke_l	l	n/a
468.5885	0.0455	937177	keystroke_b	b	n/a
469.0685	0.075	938137	keystroke_Key.backspace	Key.backspace	n/a
469.3085	0.09	938617	keystroke_n	n	n/a
469.3835	0.0755	938767	keystroke_e	e	n/a
469.4285	0.075	938857	keystroke_r	r	n/a
469.7435	0.09	939487	keystroke_a	a	n/a
470.0435	0.0745	940087	keystroke_b	b	n/a
470.149	0.089	940298	keystroke_l	l	n/a
470.223	0.091	940446	keystroke_e	e	n/a
470.703	0.075	941406	keystroke_Key.space	Key.space	n/a
470.928	0.0905	941856	keystroke_e	e	n/a
471.0335	0.0595	942067	keystroke_n	n	n/a
471.124	0.09	942248	keystroke_t	t	n/a
471.2435	0.1205	942487	keystroke_e	e	n/a
471.3185	0.0745	942637	keystroke_r	r	n/a
471.469	0.0745	942938	keystroke_t	t	n/a
471.618	0.106	943236	keystroke_a	a	n/a
471.7085	0.135	943417	keystroke_i	i	n/a
471.798	0.091	943596	keystroke_n	n	n/a
471.9185	0.0745	943837	keystroke_i	i	n/a
471.978	0.0905	943956	keystroke_n	n	n/a
472.0385	0.0745	944077	keystroke_g	g	n/a
472.2185	0.0745	944437	keystroke_Key.space	Key.space	n/a
472.7435	0.0595	945487	keystroke_c	c	n/a
472.7885	0.0905	945577	keystroke_h	h	n/a
472.833	0.09	945666	keystroke_e	e	n/a
472.9685	0.1205	945937	keystroke_c	c	n/a
473.028	0.0905	946056	keystroke_k	k	n/a
473.2535	0.12	946507	keystroke_Key.enter	Key.enter	n/a
473.38	14.35	946760	prompt	n/a	unlike fujitsu helena cardiac\n
474.1385	0.105	948277	keystroke_u	u	n/a
474.1985	0.1045	948397	keystroke_n	n	n/a
474.4085	0.0895	948817	keystroke_l	l	n/a
474.588	0.09	949176	keystroke_i	i	n/a
474.723	0.12	949446	keystroke_k	k	n/a
474.798	0.075	949596	keystroke_e	e	n/a
474.948	0.0905	949896	keystroke_Key.space	Key.space	n/a
475.624	0.075	951248	keystroke_f	f	n/a
475.729	0.074	951458	keystroke_u	u	n/a
475.909	0.0895	951818	keystroke_j	j	n/a
476.059	0.0895	952118	keystroke_i	i	n/a
476.4935	0.0455	952987	keystroke_t	t	n/a
476.9585	0.06	953917	keystroke_s	s	n/a
477.0785	0.0605	954157	keystroke_u	u	n/a
477.7985	0.045	955597	keystroke_Key.space	Key.space	n/a
478.084	0.0745	956168	keystroke_h	h	n/a
478.1735	0.0755	956347	keystroke_e	e	n/a
478.294	0.09	956588	keystroke_l	l	n/a
478.399	0.075	956798	keystroke_e	e	n/a
478.564	0.089	957128	keystroke_n	n	n/a
478.684	0.09	957368	keystroke_s	s	n/a
481.0855	0.028	962171	keystroke_Key.backspace	Key.backspace	n/a
481.0985	0.0455	962197	keystroke_q	q	n/a
481.668	0.075	963336	keystroke_Key.backspace	Key.backspace	n/a
481.699	0.074	963398	keystroke_a	a	n/a
482.6135	0.075	965227	keystroke_Key.space	Key.space	n/a
482.8535	0.0605	965707	keystroke_c	c	n/a
482.9885	0.09	965977	keystroke_a	a	n/a
483.1235	0.06	966247	keystroke_r	r	n/a
483.2285	0.075	966457	keystroke_i	i	n/a
483.2735	0.0905	966547	keystroke_d	d	n/a
483.3785	0.09	966757	keystroke_a	a	n/a
483.4985	0.09	966997	keystroke_n	n	n/a
483.918	0.075	967836	keystroke_Key.backspace	Key.backspace	n/a
484.053	0.045	968106	keystroke_Key.backspace	Key.backspace	n/a
485.0285	0.12	970057	keystroke_a	a	n/a
485.164	0.0745	970328	keystroke_c	c	n/a
486.2585	0.0745	972517	keystroke_Key.backspace	Key.backspace	n/a
486.4085	0.0595	972817	keystroke_Key.backspace	Key.backspace	n/a
486.558	0.0455	973116	keystroke_Key.backspace	Key.backspace	n/a
486.664	0.089	973328	keystroke_Key.backspace	Key.backspace	n/a
486.8135	0.0745	973627	keystroke_d	d	n/a
487.218	0.0905	974436	keystroke_i	i	n/a
487.3535	0.105	974707	keystroke_a	a	n/a
487.473	0.075	974946	keystroke_c	c	n/a
487.653	0.0755	975306	keystroke_Key.enter	Key.enter	n/a
487.7335	11.112	975467	prompt	n/a	break attachments farming turns\n
488.6585	0.0905	977317	keystroke_b	b	n/a
488.7335	0.09	977467	keystroke_r	r	n/a
488.7935	0.06	977587	keystroke_e	e	n/a
488.9285	0.105	977857	keystroke_a	a	n/a
489.0485	0.0605	978097	keystroke_k	k	n/a
489.2435	0.0905	978487	keystroke_Key.space	Key.space	n/a
489.4535	0.0755	978907	keystroke_a	a	n/a
489.6635	0.06	979327	keystroke_t	t	n/a
489.769	0.0745	979538	keystroke_t	t	n/a
489.9335	0.105	979867	keystroke_a	a	n/a
490.054	0.1045	980108	keystroke_c	c	n/a
490.1735	0.075	980347	keystroke_h	h	n/a
490.2485	0.1055	980497	keystroke_e	e	n/a
490.3835	0.105	980767	keystroke_m	m	n/a
490.5035	0.09	981007	keystroke_e	e	n/a
490.5785	0.09	981157	keystroke_n	n	n/a
490.6235	0.0905	981247	keystroke_t	t	n/a
490.8035	0.1195	981607	keystroke_s	s	n/a
490.9085	0.1055	981817	keystroke_Key.space	Key.space	n/a
491.0585	0.09	982117	keystroke_f	f	n/a
491.2535	0.12	982507	keystroke_a	a	n/a
491.389	0.1045	982778	keystroke_r	r	n/a
491.5385	0.09	983077	keystroke_m	m	n/a
492.978	0.0455	985956	keystroke_Key.backspace	Key.backspace	n/a
493.1135	0.0595	986227	keystroke_Key.backspace	Key.backspace	n/a
493.2635	0.0595	986527	keystroke_Key.backspace	Key.backspace	n/a
493.398	0.061	986796	keystroke_Key.backspace	Key.backspace	n/a
493.518	0.075	987036	keystroke_Key.backspace	Key.backspace	n/a
493.653	0.0755	987306	keystroke_Key.backspace	Key.backspace	n/a
493.7885	0.0595	987577	keystroke_Key.backspace	Key.backspace	n/a
493.9085	0.0595	987817	keystroke_Key.backspace	Key.backspace	n/a
494.028	0.0605	988056	keystroke_Key.backspace	Key.backspace	n/a
494.148	0.0605	988296	keystroke_Key.backspace	Key.backspace	n/a
494.268	0.06	988536	keystroke_Key.backspace	Key.backspace	n/a
494.748	0.0605	989496	keystroke_m	m	n/a
494.853	0.075	989706	keystroke_e	e	n/a
494.958	0.09	989916	keystroke_n	n	n/a
495.064	0.0445	990128	keystroke_t	t	n/a
495.228	0.091	990456	keystroke_s	s	n/a
495.3635	0.075	990727	keystroke_Key.space	Key.space	n/a
495.979	0.075	991958	keystroke_f	f	n/a
496.129	0.119	992258	keystroke_a	a	n/a
496.203	0.105	992406	keystroke_r	r	n/a
496.353	0.076	992706	keystroke_m	m	n/a
496.369	0.045	992738	keystroke_n	n	n/a
496.953	0.0605	993906	keystroke_Key.backspace	Key.backspace	n/a
497.2685	0.15	994537	keystroke_i	i	n/a
497.359	0.1045	994718	keystroke_n	n	n/a
497.4185	0.0905	994837	keystroke_g	g	n/a
498.0185	0.075	996037	keystroke_Key.space	Key.space	n/a
498.2135	0.045	996427	keystroke_t	t	n/a
498.2735	0.06	996547	keystroke_u	u	n/a
498.3635	0.075	996727	keystroke_r	r	n/a
498.4085	0.105	996817	keystroke_n	n	n/a
498.5435	0.09	997087	keystroke_s	s	n/a
498.753	0.091	997506	keystroke_Key.enter	Key.enter	n/a
498.8495	7.5555	997699	prompt	n/a	infinite significance genome researcher\n
499.5935	0.105	999187	keystroke_i	i	n/a
499.6535	0.105	999307	keystroke_n	n	n/a
500.0735	0.09	1000147	keystroke_f	f	n/a
500.179	0.0745	1000358	keystroke_i	i	n/a
500.2235	0.09	1000447	keystroke_n	n	n/a
500.3285	0.09	1000657	keystroke_i	i	n/a
500.4335	0.09	1000867	keystroke_t	t	n/a
500.479	0.1195	1000958	keystroke_e	e	n/a
501.0485	0.06	1002097	keystroke_Key.space	Key.space	n/a
501.2585	0.105	1002517	keystroke_s	s	n/a
501.3485	0.09	1002697	keystroke_i	i	n/a
501.484	0.0895	1002968	keystroke_g	g	n/a
501.5585	0.09	1003117	keystroke_n	n	n/a
501.7235	0.09	1003447	keystroke_i	i	n/a
501.8435	0.06	1003687	keystroke_f	f	n/a
501.9485	0.09	1003897	keystroke_i	i	n/a
502.0535	0.0755	1004107	keystroke_c	c	n/a
502.2035	0.09	1004407	keystroke_a	a	n/a
502.324	0.0745	1004648	keystroke_n	n	n/a
502.3835	0.105	1004767	keystroke_c	c	n/a
502.4735	0.105	1004947	keystroke_e	e	n/a
503.0885	0.09	1006177	keystroke_Key.space	Key.space	n/a
503.5535	0.075	1007107	keystroke_g	g	n/a
503.6735	0.09	1007347	keystroke_e	e	n/a
503.7935	0.075	1007587	keystroke_n	n	n/a
503.9585	0.1505	1007917	keystroke_o	o	n/a
504.0785	0.0905	1008157	keystroke_m	m	n/a
504.199	0.075	1008398	keystroke_e	e	n/a
504.409	0.074	1008818	keystroke_Key.space	Key.space	n/a
504.918	0.0905	1009836	keystroke_r	r	n/a
504.948	0.1055	1009896	keystroke_e	e	n/a
505.1435	0.075	1010287	keystroke_s	s	n/a
505.3235	0.075	1010647	keystroke_e	e	n/a
505.429	0.1345	1010858	keystroke_a	a	n/a
505.5335	0.105	1011067	keystroke_r	r	n/a
505.7285	0.09	1011457	keystroke_c	c	n/a
505.8335	0.075	1011667	keystroke_h	h	n/a
505.9235	0.12	1011847	keystroke_e	e	n/a
506.0135	0.075	1012027	keystroke_r	r	n/a
506.3135	0.0895	1012627	keystroke_Key.enter	Key.enter	n/a
506.409	7.991	1012818	prompt	n/a	fundraising paint recipe occupational\n
507.3035	0.0755	1014607	keystroke_f	f	n/a
507.3485	0.1195	1014697	keystroke_u	u	n/a
507.423	0.09	1014846	keystroke_n	n	n/a
507.5585	0.09	1015117	keystroke_d	d	n/a
507.7985	0.09	1015597	keystroke_r	r	n/a
507.979	0.089	1015958	keystroke_a	a	n/a
508.098	0.075	1016196	keystroke_i	i	n/a
508.1885	0.0605	1016377	keystroke_s	s	n/a
508.2935	0.12	1016587	keystroke_i	i	n/a
508.3685	0.1195	1016737	keystroke_n	n	n/a
508.4735	0.09	1016947	keystroke_g	g	n/a
508.7135	0.06	1017427	keystroke_Key.space	Key.space	n/a
509.4785	0.09	1018957	keystroke_p	p	n/a
509.5835	0.075	1019167	keystroke_a	a	n/a
509.7185	0.1205	1019437	keystroke_i	i	n/a
509.7935	0.105	1019587	keystroke_n	n	n/a
509.9135	0.06	1019827	keystroke_t	t	n/a
510.0635	0.0905	1020127	keystroke_Key.space	Key.space	n/a
510.3935	0.075	1020787	keystroke_r	r	n/a
510.4385	0.0905	1020877	keystroke_e	e	n/a
510.6185	0.105	1021237	keystroke_c	c	n/a
511.144	0.074	1022288	keystroke_i	i	n/a
511.548	0.09	1023096	keystroke_p	p	n/a
511.6835	0.075	1023367	keystroke_e	e	n/a
512.1785	0.075	1024357	keystroke_Key.space	Key.space	n/a
512.4035	0.075	1024807	keystroke_o	o	n/a
512.7785	0.075	1025557	keystroke_c	c	n/a
512.9135	0.075	1025827	keystroke_c	c	n/a
513.0485	0.075	1026097	keystroke_u	u	n/a
513.2585	0.1055	1026517	keystroke_p	p	n/a
513.4235	0.075	1026847	keystroke_a	a	n/a
513.6185	0.0905	1027237	keystroke_t	t	n/a
513.709	0.1645	1027418	keystroke_i	i	n/a
513.784	0.1195	1027568	keystroke_o	o	n/a
513.8435	0.1055	1027687	keystroke_n	n	n/a
513.9335	0.09	1027867	keystroke_a	a	n/a
514.0685	0.1055	1028137	keystroke_l	l	n/a
514.3085	0.09	1028617	keystroke_Key.enter	Key.enter	n/a
514.4045	4.211	1028809	prompt	n/a	goods mass rain excited\n
515.2985	0.0595	1030597	keystroke_g	g	n/a
515.3885	0.0755	1030777	keystroke_o	o	n/a
515.5235	0.0745	1031047	keystroke_o	o	n/a
515.584	0.134	1031168	keystroke_d	d	n/a
515.703	0.0605	1031406	keystroke_s	s	n/a
515.808	0.075	1031616	keystroke_Key.space	Key.space	n/a
515.9885	0.075	1031977	keystroke_m	m	n/a
516.0335	0.0895	1032067	keystroke_a	a	n/a
516.168	0.075	1032336	keystroke_s	s	n/a
516.318	0.075	1032636	keystroke_s	s	n/a
516.423	0.0905	1032846	keystroke_Key.space	Key.space	n/a
516.604	0.075	1033208	keystroke_r	r	n/a
516.7385	0.12	1033477	keystroke_a	a	n/a
516.859	0.119	1033718	keystroke_i	i	n/a
516.9335	0.09	1033867	keystroke_n	n	n/a
517.1135	0.09	1034227	keystroke_Key.space	Key.space	n/a
517.3685	0.09	1034737	keystroke_e	e	n/a
517.7135	0.09	1035427	keystroke_x	x	n/a
517.924	0.1045	1035848	keystroke_c	c	n/a
518.0585	0.075	1036117	keystroke_i	i	n/a
518.1785	0.105	1036357	keystroke_t	t	n/a
518.2685	0.075	1036537	keystroke_e	e	n/a
518.4185	0.0905	1036837	keystroke_d	d	n/a
518.5235	0.09	1037047	keystroke_Key.enter	Key.enter	n/a
518.62	4.48	1037240	prompt	n/a	gays whose steps frame\n
519.604	0.089	1039208	keystroke_g	g	n/a
519.769	0.104	1039538	keystroke_a	a	n/a
519.8585	0.09	1039717	keystroke_y	y	n/a
519.9785	0.1045	1039957	keystroke_s	s	n/a
520.143	0.075	1040286	keystroke_Key.space	Key.space	n/a
520.5035	0.0895	1041007	keystroke_w	w	n/a
520.578	0.076	1041156	keystroke_h	h	n/a
520.743	0.105	1041486	keystroke_o	o	n/a
520.834	0.06	1041668	keystroke_s	s	n/a
520.968	0.0905	1041936	keystroke_e	e	n/a
521.073	0.075	1042146	keystroke_Key.space	Key.space	n/a
521.374	0.134	1042748	keystroke_s	s	n/a
521.598	0.106	1043196	keystroke_t	t	n/a
521.6885	0.09	1043377	keystroke_e	e	n/a
521.823	0.091	1043646	keystroke_p	p	n/a
521.944	0.0895	1043888	keystroke_s	s	n/a
522.093	0.091	1044186	keystroke_Key.space	Key.space	n/a
522.394	0.075	1044788	keystroke_f	f	n/a
522.5585	0.0755	1045117	keystroke_r	r	n/a
522.679	0.105	1045358	keystroke_a	a	n/a
522.798	0.075	1045596	keystroke_m	m	n/a
522.888	0.0755	1045776	keystroke_e	e	n/a
522.993	0.1055	1045986	keystroke_Key.enter	Key.enter	n/a
523.1075	9.1875	1046215	prompt	n/a	incentives funds beverages mechanics\n
523.9535	0.12	1047907	keystroke_i	i	n/a
524.029	0.1045	1048058	keystroke_n	n	n/a
524.1485	0.09	1048297	keystroke_c	c	n/a
524.4185	0.0905	1048837	keystroke_e	e	n/a
524.5535	0.105	1049107	keystroke_n	n	n/a
524.823	0.075	1049646	keystroke_t	t	n/a
525.018	0.075	1050036	keystroke_i	i	n/a
525.258	0.1055	1050516	keystroke_v	v	n/a
525.348	0.0905	1050696	keystroke_e	e	n/a
525.5135	0.1045	1051027	keystroke_s	s	n/a
525.679	0.0595	1051358	keystroke_Key.space	Key.space	n/a
526.0835	0.061	1052167	keystroke_f	f	n/a
526.158	0.135	1052316	keystroke_u	u	n/a
526.249	0.105	1052498	keystroke_n	n	n/a
526.308	0.1055	1052616	keystroke_d	d	n/a
526.638	0.0755	1053276	keystroke_s	s	n/a
527.073	0.075	1054146	keystroke_Key.space	Key.space	n/a
527.853	0.045	1055706	keystroke_v	v	n/a
528.5285	0.0895	1057057	keystroke_Key.backspace	Key.backspace	n/a
528.634	0.075	1057268	keystroke_b	b	n/a
528.8135	0.0745	1057627	keystroke_e	e	n/a
528.934	0.0895	1057868	keystroke_v	v	n/a
529.098	0.106	1058196	keystroke_e	e	n/a
529.159	0.1045	1058318	keystroke_r	r	n/a
529.368	0.105	1058736	keystroke_a	a	n/a
529.609	0.075	1059218	keystroke_g	g	n/a
529.668	0.0905	1059336	keystroke_e	e	n/a
529.8335	0.1045	1059667	keystroke_s	s	n/a
530.7635	0.0595	1061527	keystroke_Key.space	Key.space	n/a
530.928	0.1055	1061856	keystroke_m	m	n/a
530.9885	0.075	1061977	keystroke_e	e	n/a
531.153	0.09	1062306	keystroke_c	c	n/a
531.259	0.074	1062518	keystroke_h	h	n/a
531.363	0.09	1062726	keystroke_a	a	n/a
531.484	0.105	1062968	keystroke_n	n	n/a
531.723	0.075	1063446	keystroke_i	i	n/a
531.814	0.09	1063628	keystroke_c	c	n/a
532.054	0.075	1064108	keystroke_s	s	n/a
532.1885	0.1055	1064377	keystroke_Key.enter	Key.enter	n/a
532.299	11.1725	1064598	prompt	n/a	hawaii shield tramadol across\n
533.0735	0.0605	1066147	keystroke_h	h	n/a
533.119	0.09	1066238	keystroke_a	a	n/a
533.284	0.09	1066568	keystroke_w	w	n/a
533.449	0.075	1066898	keystroke_i	i	n/a
533.5835	0.0755	1067167	keystroke_i	i	n/a
533.959	0.0595	1067918	keystroke_Key.backspace	Key.backspace	n/a
534.079	0.075	1068158	keystroke_Key.backspace	Key.backspace	n/a
534.139	0.075	1068278	keystroke_w	w	n/a
534.304	0.0745	1068608	keystroke_i	i	n/a
534.4385	0.075	1068877	keystroke_i	i	n/a
534.754	0.0745	1069508	keystroke_Key.backspace	Key.backspace	n/a
534.8885	0.075	1069777	keystroke_Key.backspace	Key.backspace	n/a
535.024	0.075	1070048	keystroke_Key.backspace	Key.backspace	n/a
535.278	0.06	1070556	keystroke_a	a	n/a
536.118	0.061	1072236	keystroke_i	i	n/a
536.253	0.076	1072506	keystroke_i	i	n/a
536.793	0.0605	1073586	keystroke_Key.space	Key.space	n/a
536.9135	0.105	1073827	keystroke_s	s	n/a
537.0335	0.075	1074067	keystroke_h	h	n/a
537.1235	0.1055	1074247	keystroke_i	i	n/a
537.2435	0.0755	1074487	keystroke_e	e	n/a
537.364	0.0895	1074728	keystroke_l	l	n/a
537.4385	0.09	1074877	keystroke_d	d	n/a
537.6035	0.075	1075207	keystroke_Key.space	Key.space	n/a
540.216	0.013	1080432	keystroke_t	t	n/a
540.217	0.072	1080434	keystroke_r	r	n/a
540.394	0.09	1080788	keystroke_a	a	n/a
540.498	0.091	1080996	keystroke_m	m	n/a
540.589	0.074	1081178	keystroke_a	a	n/a
540.919	0.075	1081838	keystroke_d	d	n/a
541.024	0.075	1082048	keystroke_o	o	n/a
541.159	0.105	1082318	keystroke_l	l	n/a
541.4135	0.0905	1082827	keystroke_Key.space	Key.space	n/a
541.564	0.09	1083128	keystroke_a	a	n/a
541.789	0.089	1083578	keystroke_c	c	n/a
541.9985	0.0905	1083997	keystroke_e	e	n/a
542.179	0.075	1084358	keystroke_o	o	n/a
542.524	0.0595	1085048	keystroke_Key.backspace	Key.backspace	n/a
542.659	0.0895	1085318	keystroke_Key.backspace	Key.backspace	n/a
542.7935	0.0605	1085587	keystroke_r	r	n/a
542.959	0.0745	1085918	keystroke_o	o	n/a
543.0635	0.0755	1086127	keystroke_s	s	n/a
543.214	0.075	1086428	keystroke_s	s	n/a
543.379	0.09	1086758	keystroke_Key.enter	Key.enter	n/a
543.4755	7.945	1086951	prompt	n/a	protocol approve norfolk stages\n
544.1885	0.0905	1088377	keystroke_p	p	n/a
544.309	0.09	1088618	keystroke_r	r	n/a
544.4135	0.075	1088827	keystroke_o	o	n/a
544.534	0.0745	1089068	keystroke_t	t	n/a
544.6385	0.1205	1089277	keystroke_o	o	n/a
545.0285	0.09	1090057	keystroke_c	c	n/a
545.2685	0.075	1090537	keystroke_o	o	n/a
545.4185	0.0905	1090837	keystroke_l	l	n/a
545.6435	0.075	1091287	keystroke_Key.space	Key.space	n/a
545.734	0.09	1091468	keystroke_a	a	n/a
545.9135	0.075	1091827	keystroke_p	p	n/a
546.0635	0.06	1092127	keystroke_p	p	n/a
546.349	0.06	1092698	keystroke_r	r	n/a
546.454	0.0595	1092908	keystroke_o	o	n/a
546.8135	0.12	1093627	keystroke_c	c	n/a
546.8885	0.12	1093777	keystroke_e	e	n/a
547.293	0.061	1094586	keystroke_Key.backspace	Key.backspace	n/a
547.413	0.091	1094826	keystroke_Key.backspace	Key.backspace	n/a
547.4285	0.0905	1094857	keystroke_v	v	n/a
547.459	0.089	1094918	keystroke_e	e	n/a
547.984	0.0595	1095968	keystroke_Key.space	Key.space	n/a
548.209	0.0745	1096418	keystroke_n	n	n/a
548.359	0.09	1096718	keystroke_o	o	n/a
548.4185	0.075	1096837	keystroke_r	r	n/a
548.6135	0.075	1097227	keystroke_f	f	n/a
548.704	0.0595	1097408	keystroke_o	o	n/a
548.8385	0.105	1097677	keystroke_l	l	n/a
549.004	0.09	1098008	keystroke_k	k	n/a
549.6785	0.09	1099357	keystroke_Key.space	Key.space	n/a
549.8135	0.1055	1099627	keystroke_s	s	n/a
550.0385	0.06	1100077	keystroke_t	t	n/a
550.1585	0.12	1100317	keystroke_a	a	n/a
550.3385	0.09	1100677	keystroke_g	g	n/a
550.4435	0.0755	1100887	keystroke_e	e	n/a
550.579	0.1195	1101158	keystroke_s	s	n/a
551.314	0.104	1102628	keystroke_Key.enter	Key.enter	n/a
551.425	8.1855	1102850	prompt	n/a	hottest watching line reveal\n
552.2735	0.0595	1104547	keystroke_h	h	n/a
552.438	0.076	1104876	keystroke_o	o	n/a
552.528	0.061	1105056	keystroke_t	t	n/a
552.648	0.09	1105296	keystroke_t	t	n/a
552.768	0.091	1105536	keystroke_e	e	n/a
552.934	0.089	1105868	keystroke_s	s	n/a
553.188	0.09	1106376	keystroke_t	t	n/a
553.834	0.074	1107668	keystroke_Key.space	Key.space	n/a
553.939	0.09	1107878	keystroke_w	w	n/a
554.074	0.105	1108148	keystroke_a	a	n/a
554.239	0.104	1108478	keystroke_t	t	n/a
554.509	0.0745	1109018	keystroke_c	c	n/a
554.688	0.076	1109376	keystroke_h	h	n/a
554.809	0.134	1109618	keystroke_i	i	n/a
554.899	0.105	1109798	keystroke_n	n	n/a
554.973	0.06	1109946	keystroke_g	g	n/a
555.109	0.089	1110218	keystroke_Key.space	Key.space	n/a
555.709	0.074	1111418	keystroke_l	l	n/a
555.874	0.104	1111748	keystroke_i	i	n/a
555.964	0.075	1111928	keystroke_n	n	n/a
556.009	0.074	1112018	keystroke_e	e	n/a
556.1285	0.0895	1112257	keystroke_Key.space	Key.space	n/a
556.324	0.06	1112648	keystroke_r	r	n/a
556.338	0.106	1112676	keystroke_e	e	n/a
556.698	0.091	1113396	keystroke_c	c	n/a
556.939	0.089	1113878	keystroke_e	e	n/a
557.193	0.06	1114386	keystroke_Key.backspace	Key.backspace	n/a
557.313	0.106	1114626	keystroke_Key.backspace	Key.backspace	n/a
557.403	0.091	1114806	keystroke_v	v	n/a
557.479	0.105	1114958	keystroke_e	e	n/a
558.0185	0.105	1116037	keystroke_e	e	n/a
558.1835	0.195	1116367	keystroke_a	a	n/a
558.6635	0.09	1117327	keystroke_Key.backspace	Key.backspace	n/a
558.8135	0.075	1117627	keystroke_Key.backspace	Key.backspace	n/a
558.904	0.0895	1117808	keystroke_a	a	n/a
559.039	0.1195	1118078	keystroke_l	l	n/a
559.5185	0.0905	1119037	keystroke_Key.enter	Key.enter	n/a
559.615	9.926	1119230	prompt	n/a	boys tournament specs nathan\n
560.359	0.075	1120718	keystroke_n	n	n/a
560.584	0.1045	1121168	keystroke_o	o	n/a
560.7935	0.0755	1121587	keystroke_y	y	n/a
561.019	0.09	1122038	keystroke_s	s	n/a
561.139	0.075	1122278	keystroke_Key.space	Key.space	n/a
561.244	0.09	1122488	keystroke_t	t	n/a
561.364	0.105	1122728	keystroke_o	o	n/a
561.5435	0.075	1123087	keystroke_u	u	n/a
561.6635	0.06	1123327	keystroke_r	r	n/a
561.7535	0.09	1123507	keystroke_n	n	n/a
561.8885	0.075	1123777	keystroke_a	a	n/a
562.3085	0.0755	1124617	keystroke_Key.backspace	Key.backspace	n/a
562.4435	0.06	1124887	keystroke_Key.backspace	Key.backspace	n/a
562.5635	0.06	1125127	keystroke_Key.backspace	Key.backspace	n/a
562.6835	0.06	1125367	keystroke_Key.backspace	Key.backspace	n/a
562.803	0.0755	1125606	keystroke_Key.backspace	Key.backspace	n/a
562.923	0.061	1125846	keystroke_Key.backspace	Key.backspace	n/a
563.043	0.046	1126086	keystroke_Key.backspace	Key.backspace	n/a
563.164	0.06	1126328	keystroke_Key.backspace	Key.backspace	n/a
563.283	0.06	1126566	keystroke_Key.backspace	Key.backspace	n/a
563.404	0.06	1126808	keystroke_Key.backspace	Key.backspace	n/a
563.539	0.045	1127078	keystroke_Key.backspace	Key.backspace	n/a
563.974	0.075	1127948	keystroke_b	b	n/a
564.079	0.075	1128158	keystroke_o	o	n/a
564.214	0.09	1128428	keystroke_y	y	n/a
564.424	0.105	1128848	keystroke_s	s	n/a
564.559	0.0895	1129118	keystroke_Key.space	Key.space	n/a
564.859	0.0895	1129718	keystroke_t	t	n/a
564.978	0.135	1129956	keystroke_o	o	n/a
565.098	0.091	1130196	keystroke_u	u	n/a
565.263	0.075	1130526	keystroke_r	r	n/a
565.383	0.091	1130766	keystroke_n	n	n/a
565.609	0.074	1131218	keystroke_a	a	n/a
566.194	0.075	1132388	keystroke_m	m	n/a
566.284	0.074	1132568	keystroke_e	e	n/a
566.374	0.09	1132748	keystroke_n	n	n/a
566.449	0.075	1132898	keystroke_t	t	n/a
566.9885	0.06	1133977	keystroke_Key.space	Key.space	n/a
567.2585	0.12	1134517	keystroke_s	s	n/a
567.3485	0.0755	1134697	keystroke_p	p	n/a
567.4835	0.09	1134967	keystroke_e	e	n/a
567.6485	0.0755	1135297	keystroke_c	c	n/a
567.7985	0.12	1135597	keystroke_s	s	n/a
567.9635	0.075	1135927	keystroke_Key.space	Key.space	n/a
568.3085	0.0905	1136617	keystroke_n	n	n/a
568.504	0.09	1137008	keystroke_a	a	n/a
568.6985	0.0755	1137397	keystroke_t	t	n/a
568.8335	0.075	1137667	keystroke_h	h	n/a
568.924	0.075	1137848	keystroke_a	a	n/a
569.0585	0.105	1138117	keystroke_n	n	n/a
569.4485	0.09	1138897	keystroke_Key.enter	Key.enter	n/a
569.545	7.03	1139090	prompt	n/a	laundry continually enclosed owned\n
570.3185	0.075	1140637	keystroke_l	l	n/a
570.4235	0.09	1140847	keystroke_a	a	n/a
570.5585	0.135	1141117	keystroke_u	u	n/a
570.6335	0.12	1141267	keystroke_n	n	n/a
570.9785	0.075	1141957	keystroke_d	d	n/a
571.2635	0.075	1142527	keystroke_r	r	n/a
571.4435	0.09	1142887	keystroke_y	y	n/a
571.6385	0.075	1143277	keystroke_Key.space	Key.space	n/a
572.104	0.0745	1144208	keystroke_c	c	n/a
572.1635	0.105	1144327	keystroke_o	o	n/a
572.2385	0.075	1144477	keystroke_n	n	n/a
572.404	0.0745	1144808	keystroke_t	t	n/a
572.4935	0.15	1144987	keystroke_i	i	n/a
572.599	0.0745	1145198	keystroke_n	n	n/a
572.7335	0.0905	1145467	keystroke_u	u	n/a
572.8085	0.06	1145617	keystroke_a	a	n/a
572.9885	0.045	1145977	keystroke_l	l	n/a
573.0935	0.09	1146187	keystroke_l	l	n/a
573.1535	0.0755	1146307	keystroke_y	y	n/a
573.3035	0.0755	1146607	keystroke_Key.space	Key.space	n/a
573.9935	0.09	1147987	keystroke_e	e	n/a
574.1135	0.09	1148227	keystroke_n	n	n/a
574.324	0.0745	1148648	keystroke_c	c	n/a
574.3985	0.075	1148797	keystroke_l	l	n/a
574.549	0.0895	1149098	keystroke_o	o	n/a
574.5935	0.09	1149187	keystroke_s	s	n/a
574.8335	0.0155	1149667	keystroke_e	e	n/a
574.9235	0.1055	1149847	keystroke_d	d	n/a
575.1635	0.06	1150327	keystroke_Key.space	Key.space	n/a
575.4485	0.09	1150897	keystroke_o	o	n/a
575.5535	0.06	1151107	keystroke_w	w	n/a
575.6585	0.09	1151317	keystroke_n	n	n/a
575.779	0.0895	1151558	keystroke_e	e	n/a
575.9285	0.09	1151857	keystroke_d	d	n/a
576.4835	0.09	1152967	keystroke_Key.enter	Key.enter	n/a
576.579	9.1615	1153158	prompt	n/a	advertisement grace richards cables\n
577.444	0.075	1154888	keystroke_a	a	n/a
577.6545	0.0595	1155309	keystroke_d	d	n/a
577.954	0.06	1155908	keystroke_v	v	n/a
578.104	0.105	1156208	keystroke_e	e	n/a
578.179	0.075	1156358	keystroke_r	r	n/a
578.479	0.075	1156958	keystroke_t	t	n/a
578.584	0.06	1157168	keystroke_i	i	n/a
578.659	0.12	1157318	keystroke_s	s	n/a
578.884	0.075	1157768	keystroke_e	e	n/a
579.004	0.06	1158008	keystroke_m	m	n/a
579.079	0.0755	1158158	keystroke_e	e	n/a
579.138	0.1055	1158276	keystroke_n	n	n/a
579.2285	0.0755	1158457	keystroke_t	t	n/a
579.3185	0.1055	1158637	keystroke_Key.space	Key.space	n/a
579.8135	0.0605	1159627	keystroke_r	r	n/a
580.1885	0.075	1160377	keystroke_Key.backspace	Key.backspace	n/a
580.2785	0.075	1160557	keystroke_g	g	n/a
580.324	0.0895	1160648	keystroke_r	r	n/a
580.5485	0.1055	1161097	keystroke_a	a	n/a
580.743	0.181	1161486	keystroke_v	v	n/a
581.194	0.0445	1162388	keystroke_Key.backspace	Key.backspace	n/a
581.2835	0.0905	1162567	keystroke_c	c	n/a
581.344	0.0745	1162688	keystroke_e	e	n/a
