onset	duration	sample	value	key	prompt_text
5.047	9.7525	10094	prompt	n/a	the quick brown fox jumps over a lazy dog\n
6.759	0.073	13518	keystroke_t	t	n/a
6.817	0.1345	13634	keystroke_h	h	n/a
6.9365	0.1055	13873	keystroke_e	e	n/a
7.087	0.15	14174	keystroke_Key.space	Key.space	n/a
7.312	0.15	14624	keystroke_q	q	n/a
7.477	0.15	14954	keystroke_u	u	n/a
7.582	0.135	15164	keystroke_i	i	n/a
7.7915	0.1205	15583	keystroke_c	c	n/a
7.942	0.18	15884	keystroke_k	k	n/a
8.077	0.15	16154	keystroke_Key.space	Key.space	n/a
8.317	0.075	16634	keystroke_b	b	n/a
8.752	0.1055	17504	keystroke_r	r	n/a
8.886	0.1515	17772	keystroke_o	o	n/a
9.1115	0.0905	18223	keystroke_w	w	n/a
9.307	0.165	18614	keystroke_n	n	n/a
9.487	0.12	18974	keystroke_Key.space	Key.space	n/a
9.8625	0.105	19725	keystroke_f	f	n/a
9.9965	0.135	19993	keystroke_o	o	n/a
10.2665	0.136	20533	keystroke_x	x	n/a
10.4915	0.12	20983	keystroke_Key.space	Key.space	n/a
10.5815	0.12	21163	keystroke_j	j	n/a
11.0015	0.12	22003	keystroke_u	u	n/a
11.272	0.18	22544	keystroke_m	m	n/a
11.437	0.12	22874	keystroke_p	p	n/a
11.632	0.105	23264	keystroke_s	s	n/a
11.842	0.105	23684	keystroke_Key.space	Key.space	n/a
12.142	0.105	24284	keystroke_o	o	n/a
12.262	0.1195	24524	keystroke_v	v	n/a
12.3965	0.1655	24793	keystroke_e	e	n/a
12.532	0.105	25064	keystroke_r	r	n/a
12.667	0.12	25334	keystroke_Key.space	Key.space	n/a
12.802	0.12	25604	keystroke_a	a	n/a
12.922	0.12	25844	keystroke_Key.space	Key.space	n/a
13.102	0.105	26204	keystroke_l	l	n/a
13.357	0.105	26714	keystroke_a	a	n/a
13.642	0.09	27284	keystroke_z	z	n/a
13.837	0.105	27674	keystroke_y	y	n/a
14.002	0.12	28004	keystroke_Key.space	Key.space	n/a
14.197	0.1045	28394	keystroke_d	d	n/a
14.3165	0.105	28633	keystroke_o	o	n/a
14.4515	0.105	28903	keystroke_g	g	n/a
14.6915	0.105	29383	keystroke_Key.enter	Key.enter	n/a
14.804	6.7445	29608	prompt	n/a	boulder deadly strict lower\n
15.487	0.12	30974	keystroke_b	b	n/a
15.697	0.12	31394	keystroke_o	o	n/a
15.817	0.135	31634	keystroke_u	u	n/a
16.0575	0.1195	32115	keystroke_l	l	n/a
16.207	0.075	32414	keystroke_d	d	n/a
16.417	0.1495	32834	keystroke_e	e	n/a
16.5515	0.105	33103	keystroke_r	r	n/a
16.7015	0.135	33403	keystroke_Key.space	Key.space	n/a
17.002	0.09	34004	keystroke_d	d	n/a
17.197	0.12	34394	keystroke_e	e	n/a
17.362	0.15	34724	keystroke_a	a	n/a
17.527	0.12	35054	keystroke_d	d	n/a
17.707	0.135	35414	keystroke_l	l	n/a
17.887	0.1345	35774	keystroke_y	y	n/a
18.157	0.105	36314	keystroke_Key.space	Key.space	n/a
18.472	0.18	36944	keystroke_s	s	n/a
18.667	0.12	37334	keystroke_t	t	n/a
18.937	0.09	37874	keystroke_r	r	n/a
19.432	0.135	38864	keystroke_i	i	n/a
19.6565	0.136	39313	keystroke_c	c	n/a
20.0475	0.0895	40095	keystroke_t	t	n/a
20.2715	0.15	40543	keystroke_Key.space	Key.space	n/a
20.632	0.09	41264	keystroke_l	l	n/a
20.842	0.105	41684	keystroke_o	o	n/a
20.992	0.105	41984	keystroke_w	w	n/a
21.112	0.15	42224	keystroke_e	e	n/a
21.232	0.12	42464	keystroke_r	r	n/a
21.442	0.105	42884	keystroke_Key.enter	Key.enter	n/a
21.552	7.9165	43104	prompt	n/a	type seeds accounts parental\n
22.237	0.09	44474	keystroke_t	t	n/a
22.372	0.18	44744	keystroke_y	y	n/a
22.522	0.135	45044	keystroke_p	p	n/a
22.672	0.105	45344	keystroke_e	e	n/a
22.822	0.135	45644	keystroke_Key.space	Key.space	n/a
23.182	0.09	46364	keystroke_s	s	n/a
23.377	0.09	46754	keystroke_e	e	n/a
23.542	0.105	47084	keystroke_e	e	n/a
23.812	0.075	47624	keystroke_d	d	n/a
24.007	0.1055	48014	keystroke_s	s	n/a
24.1575	0.134	48315	keystroke_Key.space	Key.space	n/a
24.727	0.105	49454	keystroke_a	a	n/a
24.997	0.0755	49994	keystroke_c	c	n/a
25.162	0.075	50324	keystroke_c	c	n/a
25.417	0.18	50834	keystroke_o	o	n/a
25.492	0.135	50984	keystroke_u	u	n/a
25.8675	0.1195	51735	keystroke_n	n	n/a
26.542	0.105	53084	keystroke_t	t	n/a
26.812	0.1055	53624	keystroke_s	s	n/a
26.9925	0.1645	53985	keystroke_Key.space	Key.space	n/a
27.427	0.12	54854	keystroke_p	p	n/a
28.042	0.15	56084	keystroke_a	a	n/a
28.327	0.09	56654	keystroke_r	r	n/a
28.537	0.075	57074	keystroke_e	e	n/a
28.717	0.1195	57434	keystroke_n	n	n/a
28.8665	0.075	57733	keystroke_t	t	n/a
28.987	0.1345	57974	keystroke_a	a	n/a
29.1065	0.105	58213	keystroke_l	l	n/a
29.3765	0.0905	58753	keystroke_Key.enter	Key.enter	n/a
29.4715	8.022	58943	prompt	n/a	fares actor material champagne\n
30.157	0.135	60314	keystroke_f	f	n/a
30.442	0.12	60884	keystroke_a	a	n/a
30.682	0.105	61364	keystroke_r	r	n/a
30.892	0.06	61784	keystroke_e	e	n/a
31.087	0.075	62174	keystroke_s	s	n/a
31.237	0.15	62474	keystroke_Key.space	Key.space	n/a
31.567	0.105	63134	keystroke_a	a	n/a
31.807	0.0895	63614	keystroke_c	c	n/a
31.9715	0.0905	63943	keystroke_t	t	n/a
32.107	0.15	64214	keystroke_o	o	n/a
32.242	0.09	64484	keystroke_r	r	n/a
32.392	0.12	64784	keystroke_Key.space	Key.space	n/a
32.662	0.135	65324	keystroke_m	m	n/a
33.2015	0.1805	66403	keystroke_a	a	n/a
33.412	0.135	66824	keystroke_t	t	n/a
33.8465	0.1355	67693	keystroke_e	e	n/a
33.967	0.1495	67934	keystroke_r	r	n/a
34.177	0.12	68354	keystroke_i	i	n/a
34.387	0.1195	68774	keystroke_a	a	n/a
34.5515	0.12	69103	keystroke_l	l	n/a
35.0615	0.0755	70123	keystroke_Key.space	Key.space	n/a
35.3465	0.12	70693	keystroke_c	c	n/a
35.512	0.135	71024	keystroke_h	h	n/a
35.677	0.09	71354	keystroke_a	a	n/a
35.872	0.1345	71744	keystroke_m	m	n/a
36.1115	0.12	72223	keystroke_p	p	n/a
36.2325	0.119	72465	keystroke_a	a	n/a
36.4265	0.12	72853	keystroke_g	g	n/a
36.7265	0.12	73453	keystroke_n	n	n/a
36.9815	0.0905	73963	keystroke_e	e	n/a
37.372	0.12	74744	keystroke_Key.enter	Key.enter	n/a
37.4965	11.2325	74993	prompt	n/a	wash displayed transportation comparative\n
38.2715	0.1205	76543	keystroke_w	w	n/a
38.512	0.165	77024	keystroke_a	a	n/a
38.662	0.12	77324	keystroke_s	s	n/a
38.857	0.15	77714	keystroke_h	h	n/a
39.037	0.12	78074	keystroke_Key.space	Key.space	n/a
39.307	0.09	78614	keystroke_d	d	n/a
39.412	0.105	78824	keystroke_i	i	n/a
39.637	0.075	79274	keystroke_s	s	n/a
40.0415	0.105	80083	keystroke_p	p	n/a
40.2665	0.15	80533	keystroke_l	l	n/a
40.4015	0.135	80803	keystroke_a	a	n/a
40.6265	0.1205	81253	keystroke_y	y	n/a
40.867	0.075	81734	keystroke_e	e	n/a
41.1065	0.075	82213	keystroke_d	d	n/a
41.2415	0.15	82483	keystroke_Key.space	Key.space	n/a
41.6615	0.12	83323	keystroke_t	t	n/a
41.8865	0.1355	83773	keystroke_r	r	n/a
42.052	0.12	84104	keystroke_a	a	n/a
42.202	0.12	84404	keystroke_n	n	n/a
42.3965	0.105	84793	keystroke_s	s	n/a
42.6965	0.135	85393	keystroke_p	p	n/a
42.8915	0.1505	85783	keystroke_o	o	n/a
43.177	0.09	86354	keystroke_r	r	n/a
43.612	0.06	87224	keystroke_t	t	n/a
44.107	0.165	88214	keystroke_a	a	n/a
44.257	0.12	88514	keystroke_t	t	n/a
44.422	0.15	88844	keystroke_i	i	n/a
44.542	0.105	89084	keystroke_o	o	n/a
44.602	0.15	89204	keystroke_n	n	n/a
45.772	0.165	91544	keystroke_Key.space	Key.space	n/a
46.012	0.105	92024	keystroke_c	c	n/a
46.192	0.195	92384	keystroke_o	o	n/a
46.297	0.165	92594	keystroke_m	m	n/a
46.7615	0.12	93523	keystroke_p	p	n/a
47.317	0.15	94634	keystroke_a	a	n/a
47.467	0.135	94934	keystroke_r	r	n/a
47.722	0.105	95444	keystroke_a	a	n/a
47.9625	0.0895	95925	keystroke_t	t	n/a
48.082	0.165	96164	keystroke_i	i	n/a
48.232	0.165	96464	keystroke_v	v	n/a
48.412	0.09	96824	keystroke_e	e	n/a
48.607	0.12	97214	keystroke_Key.enter	Key.enter	n/a
48.7325	7.6765	97465	prompt	n/a	nose backed wilderness disco\n
49.4025	0.1495	98805	keystroke_n	n	n/a
49.522	0.135	99044	keystroke_o	o	n/a
49.642	0.12	99284	keystroke_s	s	n/a
49.7315	0.1205	99463	keystroke_e	e	n/a
49.867	0.1495	99734	keystroke_Key.space	Key.space	n/a
50.0625	0.089	100125	keystroke_b	b	n/a
50.2125	0.12	100425	keystroke_a	a	n/a
50.3325	0.119	100665	keystroke_c	c	n/a
50.4975	0.135	100995	keystroke_k	k	n/a
50.6765	0.06	101353	keystroke_e	e	n/a
50.8575	0.089	101715	keystroke_d	d	n/a
51.0065	0.15	102013	keystroke_Key.space	Key.space	n/a
51.4425	0.074	102885	keystroke_w	w	n/a
51.5325	0.119	103065	keystroke_i	i	n/a
52.132	0.105	104264	keystroke_l	l	n/a
52.342	0.105	104684	keystroke_d	d	n/a
53.512	0.15	107024	keystroke_e	e	n/a
53.707	0.105	107414	keystroke_r	r	n/a
53.932	0.135	107864	keystroke_n	n	n/a
54.097	0.09	108194	keystroke_e	e	n/a
54.277	0.06	108554	keystroke_s	s	n/a
54.442	0.0745	108884	keystroke_s	s	n/a
54.5615	0.1505	109123	keystroke_Key.space	Key.space	n/a
54.772	0.09	109544	keystroke_d	d	n/a
55.462	0.12	110924	keystroke_i	i	n/a
55.627	0.09	111254	keystroke_s	s	n/a
55.897	0.105	111794	keystroke_c	c	n/a
56.017	0.15	112034	keystroke_o	o	n/a
56.287	0.12	112574	keystroke_Key.enter	Key.enter	n/a
56.4135	10.84	112827	prompt	n/a	eating musicians highlight gets\n
57.067	0.09	114134	keystroke_e	e	n/a
57.2775	0.1195	114555	keystroke_a	a	n/a
57.457	0.105	114914	keystroke_t	t	n/a
57.832	0.15	115664	keystroke_i	i	n/a
57.922	0.165	115844	keystroke_n	n	n/a
58.162	0.105	116324	keystroke_g	g	n/a
58.327	0.135	116654	keystroke_Key.space	Key.space	n/a
59.4675	0.1045	118935	keystroke_m	m	n/a
59.767	0.135	119534	keystroke_u	u	n/a
59.947	0.09	119894	keystroke_s	s	n/a
60.292	0.135	120584	keystroke_c	c	n/a
60.787	0.075	121574	keystroke_i	i	n/a
61.642	0.12	123284	keystroke_Key.backspace	Key.backspace	n/a
61.8365	0.12	123673	keystroke_Key.backspace	Key.backspace	n/a
62.107	0.12	124214	keystroke_i	i	n/a
62.362	0.105	124724	keystroke_c	c	n/a
62.512	0.135	125024	keystroke_i	i	n/a
62.737	0.12	125474	keystroke_a	a	n/a
62.842	0.135	125684	keystroke_n	n	n/a
63.052	0.12	126104	keystroke_s	s	n/a
63.232	0.165	126464	keystroke_Key.space	Key.space	n/a
63.622	0.12	127244	keystroke_h	h	n/a
63.817	0.135	127634	keystroke_i	i	n/a
64.042	0.105	128084	keystroke_g	g	n/a
64.177	0.105	128354	keystroke_h	h	n/a
64.462	0.12	128924	keystroke_l	l	n/a
64.672	0.105	129344	keystroke_i	i	n/a
65.152	0.105	130304	keystroke_g	g	n/a
65.8715	0.135	131743	keystroke_h	h	n/a
66.097	0.12	132194	keystroke_t	t	n/a
66.232	0.12	132464	keystroke_Key.space	Key.space	n/a
66.487	0.12	132974	keystroke_g	g	n/a
66.682	0.135	133364	keystroke_e	e	n/a
66.802	0.105	133604	keystroke_t	t	n/a
66.9815	0.105	133963	keystroke_s	s	n/a
67.1315	0.12	134263	keystroke_Key.enter	Key.enter	n/a
67.258	9.3855	134516	prompt	n/a	careers north lambda fujitsu\n
68.0765	0.135	136153	keystroke_c	c	n/a
68.2715	0.1805	136543	keystroke_a	a	n/a
68.467	0.12	136934	keystroke_r	r	n/a
68.737	0.03	137474	keystroke_e	e	n/a
68.8865	0.06	137773	keystroke_e	e	n/a
69.0815	0.09	138163	keystroke_r	r	n/a
69.3215	0.105	138643	keystroke_s	s	n/a
69.532	0.135	139064	keystroke_Key.space	Key.space	n/a
69.8465	0.135	139693	keystroke_n	n	n/a
69.9365	0.165	139873	keystroke_o	o	n/a
70.0865	0.105	140173	keystroke_r	r	n/a
70.2965	0.09	140593	keystroke_t	t	n/a
70.4315	0.15	140863	keystroke_h	h	n/a
70.6115	0.135	141223	keystroke_Key.space	Key.space	n/a
71.0015	0.1355	142003	keystroke_l	l	n/a
71.182	0.075	142364	keystroke_a	a	n/a
71.527	0.135	143054	keystroke_m	m	n/a
71.782	0.135	143564	keystroke_b	b	n/a
72.5915	0.1055	145183	keystroke_d	d	n/a
72.712	0.1195	145424	keystroke_a	a	n/a
72.907	0.1495	145814	keystroke_Key.space	Key.space	n/a
73.5815	0.135	147163	keystroke_f	f	n/a
73.8365	0.1505	147673	keystroke_u	u	n/a
74.9615	0.15	149923	keystroke_j	j	n/a
75.2015	0.09	150403	keystroke_i	i	n/a
75.8615	0.09	151723	keystroke_t	t	n/a
76.0865	0.105	152173	keystroke_s	s	n/a
76.2515	0.135	152503	keystroke_u	u	n/a
76.5215	0.12	153043	keystroke_Key.enter	Key.enter	n/a
76.647	15.266	153294	prompt	n/a	contacted blair elementary loans\n
77.3015	0.12	154603	keystroke_c	c	n/a
77.4365	0.12	154873	keystroke_o	o	n/a
77.5115	0.15	155023	keystroke_n	n	n/a
77.6465	0.12	155293	keystroke_t	t	n/a
77.7815	0.1205	155563	keystroke_a	a	n/a
77.962	0.12	155924	keystroke_c	c	n/a
78.187	0.075	156374	keystroke_e	e	n/a
78.397	0.09	156794	keystroke_d	d	n/a
78.547	0.15	157094	keystroke_Key.space	Key.space	n/a
78.727	0.12	157454	keystroke_b	b	n/a
78.892	0.135	157784	keystroke_l	l	n/a
79.057	0.12	158114	keystroke_a	a	n/a
79.4465	0.1205	158893	keystroke_i	i	n/a
79.597	0.105	159194	keystroke_r	r	n/a
79.792	0.15	159584	keystroke_Key.space	Key.space	n/a
80.227	0.09	160454	keystroke_e	e	n/a
80.377	0.135	160754	keystroke_l	l	n/a
80.482	0.09	160964	keystroke_e	e	n/a
80.632	0.12	161264	keystroke_m	m	n/a
80.872	0.105	161744	keystroke_e	e	n/a
81.007	0.105	162014	keystroke_n	n	n/a
81.157	0.09	162314	keystroke_t	t	n/a
81.502	0.15	163004	keystroke_a	a	n/a
81.607	0.12	163214	keystroke_r	r	n/a
81.772	0.15	163544	keystroke_y	y	n/a
82.0565	0.15	164113	keystroke_Key.space	Key.space	n/a
84.157	0.045	168314	keystroke_l	l	n/a
84.352	0.12	168704	keystroke_a	a	n/a
85.282	0.105	170564	keystroke_Key.backspace	Key.backspace	n/a
85.567	0.1195	171134	keystroke_o	o	n/a
85.7315	0.1355	171463	keystroke_a	a	n/a
85.852	0.12	171704	keystroke_n	n	n/a
86.062	0.075	172124	keystroke_s	s	n/a
88.191	0.09	176382	keystroke_Key.left	Key.left	n/a
88.371	0.075	176742	keystroke_Key.left	Key.left	n/a
88.551	0.06	177102	keystroke_Key.left	Key.left	n/a
88.792	0.015	177584	keystroke_Key.left	Key.left	n/a
88.957	0.015	177914	keystroke_Key.left	Key.left	n/a
89.047	0.075	178094	keystroke_Key.left	Key.left	n/a
89.212	0.09	178424	keystroke_Key.left	Key.left	n/a
89.392	0.075	178784	keystroke_Key.left	Key.left	n/a
89.557	0.0745	179114	keystroke_Key.left	Key.left	n/a
89.7365	0.075	179473	keystroke_Key.left	Key.left	n/a
89.9165	0.0755	179833	keystroke_Key.left	Key.left	n/a
90.0815	0.0905	180163	keystroke_Key.left	Key.left	n/a
90.277	0.075	180554	keystroke_Key.left	Key.left	n/a
90.457	0.075	180914	keystroke_Key.left	Key.left	n/a
90.6365	0.075	181273	keystroke_Key.left	Key.left	n/a
90.8315	0.075	181663	keystroke_Key.left	Key.left	n/a
91.0265	0.09	182053	keystroke_t	t	n/a
91.8365	0.075	183673	keystroke_Key.enter	Key.enter	n/a
91.916	9.1025	183832	prompt	n/a	assignment elections defines quebec\n
93.097	0.06	186194	keystroke_a	a	n/a
93.307	0.06	186614	keystroke_s	s	n/a
93.457	0.09	186914	keystroke_s	s	n/a
93.562	0.135	187124	keystroke_i	i	n/a
93.727	0.075	187454	keystroke_g	g	n/a
93.847	0.135	187694	keystroke_n	n	n/a
94.1915	0.03	188383	keystroke_m	m	n/a
94.7765	0.09	189553	keystroke_e	e	n/a
94.9415	0.135	189883	keystroke_n	n	n/a
95.0915	0.12	190183	keystroke_t	t	n/a
95.2565	0.165	190513	keystroke_Key.space	Key.space	n/a
95.8865	0.09	191773	keystroke_e	e	n/a
96.0375	0.134	192075	keystroke_l	l	n/a
96.1575	0.089	192315	keystroke_e	e	n/a
96.4425	0.089	192885	keystroke_c	c	n/a
96.6665	0.091	193333	keystroke_t	t	n/a
96.8015	0.1505	193603	keystroke_i	i	n/a
96.922	0.18	193844	keystroke_o	o	n/a
97.027	0.15	194054	keystroke_n	n	n/a
97.177	0.105	194354	keystroke_s	s	n/a
97.312	0.135	194624	keystroke_Key.space	Key.space	n/a
97.8965	0.0905	195793	keystroke_d	d	n/a
98.107	0.075	196214	keystroke_e	e	n/a
98.3465	0.09	196693	keystroke_f	f	n/a
98.5115	0.18	197023	keystroke_i	i	n/a
98.6315	0.1805	197263	keystroke_n	n	n/a
98.782	0.0745	197564	keystroke_e	e	n/a
99.0515	0.015	198103	keystroke_s	s	n/a
99.1115	0.135	198223	keystroke_Key.space	Key.space	n/a
99.577	0.09	199154	keystroke_q	q	n/a
99.727	0.135	199454	keystroke_u	u	n/a
100.027	0.015	200054	keystroke_e	e	n/a
100.2665	0.06	200533	keystroke_b	b	n/a
100.4465	0.06	200893	keystroke_e	e	n/a
100.6565	0.09	201313	keystroke_c	c	n/a
100.9115	0.105	201823	keystroke_Key.enter	Key.enter	n/a
101.0215	6.777	202043	prompt	n/a	truck press workers springfield\n
101.736	0.09	203472	keystroke_t	t	n/a
101.917	0.0895	203834	keystroke_r	r	n/a
102.0365	0.12	204073	keystroke_u	u	n/a
102.2015	0.105	204403	keystroke_c	c	n/a
102.3215	0.1805	204643	keystroke_k	k	n/a
102.456	0.121	204912	keystroke_Key.space	Key.space	n/a
102.607	0.135	205214	keystroke_p	p	n/a
102.727	0.105	205454	keystroke_r	r	n/a
102.832	0.075	205664	keystroke_e	e	n/a
103.042	0.075	206084	keystroke_s	s	n/a
103.192	0.09	206384	keystroke_s	s	n/a
103.311	0.151	206622	keystroke_Key.space	Key.space	n/a
103.447	0.075	206894	keystroke_w	w	n/a
103.567	0.135	207134	keystroke_o	o	n/a
103.687	0.0895	207374	keystroke_r	r	n/a
103.8065	0.12	207613	keystroke_k	k	n/a
104.4665	0.1655	208933	keystroke_e	e	n/a
104.5865	0.1505	209173	keystroke_r	r	n/a
104.827	0.075	209654	keystroke_s	s	n/a
104.947	0.165	209894	keystroke_Key.space	Key.space	n/a
105.382	0.135	210764	keystroke_s	s	n/a
105.532	0.15	211064	keystroke_p	p	n/a
105.697	0.09	211394	keystroke_r	r	n/a
105.802	0.15	211604	keystroke_i	i	n/a
105.907	0.1345	211814	keystroke_n	n	n/a
106.0265	0.075	212053	keystroke_g	g	n/a
106.3865	0.09	212773	keystroke_f	f	n/a
106.5815	0.12	213163	keystroke_i	i	n/a
107.2265	0.075	214453	keystroke_e	e	n/a
107.3765	0.105	214753	keystroke_l	l	n/a
107.4965	0.09	214993	keystroke_d	d	n/a
107.7065	0.09	215413	keystroke_Key.enter	Key.enter	n/a
107.8025	8.4705	215605	prompt	n/a	seniors bottles alternative adolescent\n
108.652	0.105	217304	keystroke_s	s	n/a
108.877	0.06	217754	keystroke_e	e	n/a
109.2065	0.165	218413	keystroke_n	n	n/a
109.4165	0.15	218833	keystroke_i	i	n/a
109.6115	0.1655	219223	keystroke_o	o	n/a
109.807	0.105	219614	keystroke_r	r	n/a
110.122	0.09	220244	keystroke_s	s	n/a
110.287	0.135	220574	keystroke_Key.space	Key.space	n/a
110.617	0.12	221234	keystroke_b	b	n/a
110.752	0.105	221504	keystroke_o	o	n/a
110.902	0.075	221804	keystroke_t	t	n/a
111.052	0.09	222104	keystroke_t	t	n/a
111.187	0.135	222374	keystroke_l	l	n/a
111.307	0.06	222614	keystroke_e	e	n/a
111.487	0.09	222974	keystroke_s	s	n/a
111.607	0.135	223214	keystroke_Key.space	Key.space	n/a
111.982	0.105	223964	keystroke_a	a	n/a
112.102	0.12	224204	keystroke_l	l	n/a
112.297	0.12	224594	keystroke_t	t	n/a
112.492	0.12	224984	keystroke_e	e	n/a
112.597	0.105	225194	keystroke_r	r	n/a
112.717	0.12	225434	keystroke_n	n	n/a
112.867	0.135	225734	keystroke_a	a	n/a
112.987	0.09	225974	keystroke_t	t	n/a
113.092	0.12	226184	keystroke_i	i	n/a
113.272	0.15	226544	keystroke_v	v	n/a
113.377	0.12	226754	keystroke_e	e	n/a
113.542	0.149	227084	keystroke_Key.space	Key.space	n/a
113.812	0.105	227624	keystroke_a	a	n/a
114.0665	0.09	228133	keystroke_d	d	n/a
114.3065	0.105	228613	keystroke_o	o	n/a
114.7565	0.105	229513	keystroke_l	l	n/a
114.9365	0.105	229873	keystroke_e	e	n/a
115.2065	0.075	230413	keystroke_s	s	n/a
115.4765	0.075	230953	keystroke_c	c	n/a
115.7165	0.075	231433	keystroke_e	e	n/a
115.8515	0.12	231703	keystroke_n	n	n/a
115.9865	0.0905	231973	keystroke_t	t	n/a
116.167	0.105	232334	keystroke_Key.enter	Key.enter	n/a
116.2765	4.962	232553	prompt	n/a	outlined near model tear\n
117.007	0.135	234014	keystroke_o	o	n/a
117.112	0.15	234224	keystroke_u	u	n/a
117.277	0.09	234554	keystroke_t	t	n/a
117.412	0.09	234824	keystroke_l	l	n/a
117.637	0.105	235274	keystroke_i	i	n/a
117.892	0.1045	235784	keystroke_n	n	n/a
118.057	0.09	236114	keystroke_e	e	n/a
118.342	0.075	236684	keystroke_d	d	n/a
118.492	0.135	236984	keystroke_Key.space	Key.space	n/a
118.837	0.12	237674	keystroke_n	n	n/a
118.942	0.105	237884	keystroke_e	e	n/a
119.092	0.15	238184	keystroke_a	a	n/a
119.212	0.105	238424	keystroke_r	r	n/a
119.332	0.15	238664	keystroke_Key.space	Key.space	n/a
119.527	0.164	239054	keystroke_m	m	n/a
119.676	0.135	239352	keystroke_o	o	n/a
119.797	0.074	239594	keystroke_d	d	n/a
119.976	0.076	239952	keystroke_e	e	n/a
120.0965	0.15	240193	keystroke_l	l	n/a
120.2015	0.12	240403	keystroke_Key.space	Key.space	n/a
120.4865	0.105	240973	keystroke_t	t	n/a
120.5765	0.105	241153	keystroke_e	e	n/a
120.7265	0.165	241453	keystroke_a	a	n/a
120.9065	0.09	241813	keystroke_r	r	n/a
121.1315	0.105	242263	keystroke_Key.enter	Key.enter	n/a
121.2415	5.9665	242483	prompt	n/a	disposition river their edit\n
121.791	0.0905	243582	keystroke_d	d	n/a
121.9415	0.1355	243883	keystroke_i	i	n/a
122.137	0.12	244274	keystroke_s	s	n/a
122.467	0.105	244934	keystroke_p	p	n/a
122.632	0.12	245264	keystroke_o	o	n/a
122.8565	0.075	245713	keystroke_s	s	n/a
122.9765	0.09	245953	keystroke_i	i	n/a
123.2465	0.075	246493	keystroke_t	t	n/a
123.3065	0.15	246613	keystroke_i	i	n/a
123.4415	0.135	246883	keystroke_o	o	n/a
123.5465	0.15	247093	keystroke_n	n	n/a
123.7115	0.105	247423	keystroke_Key.space	Key.space	n/a
124.1765	0.105	248353	keystroke_r	r	n/a
124.3115	0.12	248623	keystroke_i	i	n/a
124.4615	0.135	248923	keystroke_v	v	n/a
124.5665	0.1195	249133	keystroke_e	e	n/a
124.747	0.1045	249494	keystroke_r	r	n/a
124.971	0.105	249942	keystroke_Key.space	Key.space	n/a
125.4365	0.1055	250873	keystroke_t	t	n/a
125.557	0.12	251114	keystroke_h	h	n/a
125.737	0.06	251474	keystroke_e	e	n/a
125.872	0.105	251744	keystroke_i	i	n/a
126.007	0.075	252014	keystroke_r	r	n/a
126.127	0.135	252254	keystroke_Key.space	Key.space	n/a
126.577	0.045	253154	keystroke_e	e	n/a
126.727	0.12	253454	keystroke_d	d	n/a
126.862	0.12	253724	keystroke_i	i	n/a
126.982	0.075	253964	keystroke_t	t	n/a
127.102	0.105	254204	keystroke_Key.enter	Key.enter	n/a
127.212	6.116	254424	prompt	n/a	pics reid dietary hampshire\n
127.9715	0.105	255943	keystroke_p	p	n/a
128.1965	0.105	256393	keystroke_i	i	n/a
128.3765	0.09	256753	keystroke_c	c	n/a
128.5865	0.105	257173	keystroke_s	s	n/a
128.7515	0.12	257503	keystroke_Key.space	Key.space	n/a
129.067	0.15	258134	keystroke_r	r	n/a
129.367	0.06	258734	keystroke_e	e	n/a
129.532	0.12	259064	keystroke_i	i	n/a
129.742	0.105	259484	keystroke_d	d	n/a
129.892	0.135	259784	keystroke_Key.space	Key.space	n/a
130.267	0.09	260534	keystroke_d	d	n/a
130.402	0.105	260804	keystroke_i	i	n/a
130.612	0.105	261224	keystroke_e	e	n/a
130.807	0.09	261614	keystroke_t	t	n/a
131.017	0.105	262034	keystroke_a	a	n/a
131.122	0.12	262244	keystroke_r	r	n/a
131.272	0.135	262544	keystroke_y	y	n/a
131.376	0.106	262752	keystroke_Key.space	Key.space	n/a
131.6015	0.105	263203	keystroke_h	h	n/a
131.7365	0.105	263473	keystroke_a	a	n/a
131.8715	0.1345	263743	keystroke_m	m	n/a
132.232	0.119	264464	keystroke_p	p	n/a
132.411	0.105	264822	keystroke_s	s	n/a
132.637	0.135	265274	keystroke_h	h	n/a
132.757	0.12	265514	keystroke_i	i	n/a
132.892	0.105	265784	keystroke_r	r	n/a
133.012	0.09	266024	keystroke_e	e	n/a
133.222	0.105	266444	keystroke_Key.enter	Key.enter	n/a
133.3315	9.0265	266663	prompt	n/a	cruise club solutions developmental\n
134.227	0.12	268454	keystroke_c	c	n/a
134.482	0.075	268964	keystroke_r	r	n/a
134.7965	0.1205	269593	keystroke_u	u	n/a
135.037	0.135	270074	keystroke_i	i	n/a
135.202	0.105	270404	keystroke_s	s	n/a
135.352	0.105	270704	keystroke_e	e	n/a
135.547	0.15	271094	keystroke_Key.space	Key.space	n/a
135.937	0.1045	271874	keystroke_c	c	n/a
136.0565	0.135	272113	keystroke_l	l	n/a
136.1765	0.12	272353	keystroke_u	u	n/a
136.3415	0.075	272683	keystroke_b	b	n/a
136.5215	0.12	273043	keystroke_Key.space	Key.space	n/a
136.9715	0.09	273943	keystroke_s	s	n/a
137.0465	0.09	274093	keystroke_o	o	n/a
137.2415	0.105	274483	keystroke_l	l	n/a
137.4215	0.12	274843	keystroke_u	u	n/a
137.6015	0.12	275203	keystroke_t	t	n/a
137.7665	0.135	275533	keystroke_i	i	n/a
137.8865	0.1205	275773	keystroke_o	o	n/a
137.9465	0.1355	275893	keystroke_n	n	n/a
138.097	0.09	276194	keystroke_s	s	n/a
138.247	0.135	276494	keystroke_Key.space	Key.space	n/a
138.487	0.06	276974	keystroke_d	d	n/a
138.667	0.06	277334	keystroke_e	e	n/a
138.832	0.12	277664	keystroke_v	v	n/a
138.922	0.09	277844	keystroke_e	e	n/a
139.027	0.12	278054	keystroke_l	l	n/a
139.2365	0.135	278473	keystroke_o	o	n/a
139.3565	0.15	278713	keystroke_p	p	n/a
139.5665	0.09	279133	keystroke_e	e	n/a
139.702	0.12	279404	keystroke_m	m	n/a
140.286	0.075	280572	keystroke_t	t	n/a
140.646	0.045	281292	keystroke_Key.backspace	Key.backspace	n/a
140.707	0.075	281414	keystroke_e	e	n/a
140.856	0.105	281712	keystroke_n	n	n/a
140.976	0.06	281952	keystroke_t	t	n/a
141.6065	0.12	283213	keystroke_a	a	n/a
141.7115	0.135	283423	keystroke_l	l	n/a
142.2365	0.12	284473	keystroke_Key.enter	Key.enter	n/a
142.361	7.4825	284722	prompt	n/a	rail spotlight stewart killing\n
143.2565	0.1195	286513	keystroke_r	r	n/a
143.391	0.12	286782	keystroke_a	a	n/a
143.526	0.09	287052	keystroke_i	i	n/a
143.677	0.179	287354	keystroke_l	l	n/a
143.811	0.135	287622	keystroke_Key.space	Key.space	n/a
143.962	0.105	287924	keystroke_s	s	n/a
144.082	0.1345	288164	keystroke_p	p	n/a
144.2465	0.12	288493	keystroke_o	o	n/a
144.4265	0.105	288853	keystroke_t	t	n/a
144.6065	0.1205	289213	keystroke_l	l	n/a
144.757	0.105	289514	keystroke_i	i	n/a
144.937	0.09	289874	keystroke_g	g	n/a
145.132	0.12	290264	keystroke_h	h	n/a
145.342	0.0895	290684	keystroke_t	t	n/a
145.7015	0.135	291403	keystroke_Key.space	Key.space	n/a
146.407	0.15	292814	keystroke_s	s	n/a
146.647	0.075	293294	keystroke_t	t	n/a
146.9765	0.09	293953	keystroke_e	e	n/a
147.2015	0.105	294403	keystroke_w	w	n/a
147.457	0.09	294914	keystroke_a	a	n/a
147.727	0.09	295454	keystroke_r	r	n/a
147.952	0.0895	295904	keystroke_t	t	n/a
148.146	0.15	296292	keystroke_Key.space	Key.space	n/a
148.5065	0.0745	297013	keystroke_k	k	n/a
148.671	0.105	297342	keystroke_i	i	n/a
148.851	0.105	297702	keystroke_l	l	n/a
149.046	0.105	298092	keystroke_l	l	n/a
149.211	0.181	298422	keystroke_i	i	n/a
149.331	0.165	298662	keystroke_n	n	n/a
149.481	0.09	298962	keystroke_g	g	n/a
149.7215	0.12	299443	keystroke_Key.enter	Key.enter	n/a
149.848	5.755	299696	prompt	n/a	approximate knitting suits fuel\n
150.592	0.1495	301184	keystroke_a	a	n/a
150.7865	0.075	301573	keystroke_p	p	n/a
150.9215	0.135	301843	keystroke_p	p	n/a
151.0575	0.089	302115	keystroke_r	r	n/a
151.1765	0.12	302353	keystroke_o	o	n/a
151.3415	0.12	302683	keystroke_x	x	n/a
151.4765	0.0755	302953	keystroke_i	i	n/a
151.657	0.105	303314	keystroke_m	m	n/a
151.792	0.135	303584	keystroke_a	a	n/a
151.897	0.135	303794	keystroke_t	t	n/a
152.017	0.09	304034	keystroke_e	e	n/a
152.151	0.15	304302	keystroke_Key.space	Key.space	n/a
152.691	0.12	305382	keystroke_k	k	n/a
152.827	0.21	305654	keystroke_n	n	n/a
153.006	0.136	306012	keystroke_i	i	n/a
153.202	0.089	306404	keystroke_t	t	n/a
153.351	0.105	306702	keystroke_t	t	n/a
153.486	0.135	306972	keystroke_i	i	n/a
153.561	0.135	307122	keystroke_n	n	n/a
153.681	0.075	307362	keystroke_g	g	n/a
153.831	0.105	307662	keystroke_Key.space	Key.space	n/a
153.907	0.0895	307814	keystroke_s	s	n/a
154.027	0.1345	308054	keystroke_u	u	n/a
154.1465	0.1205	308293	keystroke_i	i	n/a
154.252	0.075	308504	keystroke_t	t	n/a
154.417	0.09	308834	keystroke_s	s	n/a
154.552	0.105	309104	keystroke_Key.space	Key.space	n/a
154.7615	0.12	309523	keystroke_f	f	n/a
154.8965	0.105	309793	keystroke_u	u	n/a
155.1665	0.075	310333	keystroke_e	e	n/a
155.2865	0.105	310573	keystroke_l	l	n/a
155.5115	0.0895	311023	keystroke_Key.enter	Key.enter	n/a
155.606	8.2925	311212	prompt	n/a	worn doll stockholm arrivals\n
156.412	0.075	312824	keystroke_w	w	n/a
156.502	0.09	313004	keystroke_o	o	n/a
156.636	0.09	313272	keystroke_r	r	n/a
156.741	0.121	313482	keystroke_n	n	n/a
156.906	0.105	313812	keystroke_Key.space	Key.space	n/a
157.027	0.089	314054	keystroke_d	d	n/a
157.102	0.104	314204	keystroke_o	o	n/a
157.311	0.076	314622	keystroke_l	l	n/a
157.4765	0.135	314953	keystroke_l	l	n/a
157.5965	0.12	315193	keystroke_Key.space	Key.space	n/a
157.9415	0.1205	315883	keystroke_s	s	n/a
158.092	0.105	316184	keystroke_t	t	n/a
158.212	0.09	316424	keystroke_o	o	n/a
158.437	0.12	316874	keystroke_k	k	n/a
159.352	0.105	318704	keystroke_Key.backspace	Key.backspace	n/a
159.622	0.12	319244	keystroke_k	k	n/a
160.087	0.105	320174	keystroke_Key.backspace	Key.backspace	n/a
160.177	0.105	320354	keystroke_c	c	n/a
160.357	0.105	320714	keystroke_k	k	n/a
160.597	0.09	321194	keystroke_Key.space	Key.space	n/a
160.957	0.09	321914	keystroke_Key.backspace	Key.backspace	n/a
161.212	0.12	322424	keystroke_h	h	n/a
161.377	0.12	322754	keystroke_o	o	n/a
161.632	0.105	323264	keystroke_l	l	n/a
161.842	0.105	323684	keystroke_m	m	n/a
162.082	0.12	324164	keystroke_Key.space	Key.space	n/a
162.3515	0.12	324703	keystroke_a	a	n/a
162.5015	0.09	325003	keystroke_r	r	n/a
162.6815	0.06	325363	keystroke_r	r	n/a
162.7565	0.15	325513	keystroke_i	i	n/a
162.8765	0.165	325753	keystroke_v	v	n/a
163.0265	0.12	326053	keystroke_a	a	n/a
163.1615	0.12	326323	keystroke_l	l	n/a
163.5665	0.09	327133	keystroke_s	s	n/a
163.792	0.105	327584	keystroke_Key.enter	Key.enter	n/a
163.9035	10.45	327807	prompt	n/a	phys flip maritime adapted\n
164.6765	0.1205	329353	keystroke_p	p	n/a
165.427	0.089	330854	keystroke_y	y	n/a
166.0565	0.1045	332113	keystroke_Key.backspace	Key.backspace	n/a
166.2965	0.0895	332593	keystroke_h	h	n/a
166.522	0.075	333044	keystroke_y	y	n/a
167.272	0.105	334544	keystroke_s	s	n/a
167.4515	0.1205	334903	keystroke_Key.space	Key.space	n/a
167.587	0.09	335174	keystroke_f	f	n/a
167.7215	0.075	335443	keystroke_l	l	n/a
167.856	0.105	335712	keystroke_i	i	n/a
168.006	0.165	336012	keystroke_p	p	n/a
168.186	0.1505	336372	keystroke_Key.space	Key.space	n/a
168.8015	0.165	337603	keystroke_m	m	n/a
169.297	0.12	338594	keystroke_a	a	n/a
169.567	0.135	339134	keystroke_r	r	n/a
170.2415	0.105	340483	keystroke_i	i	n/a
170.6765	0.105	341353	keystroke_t	t	n/a
170.9465	0.15	341893	keystroke_i	i	n/a
171.0815	0.15	342163	keystroke_m	m	n/a
171.2465	0.075	342493	keystroke_e	e	n/a
171.4715	0.15	342943	keystroke_Key.space	Key.space	n/a
171.8465	0.09	343693	keystroke_d	d	n/a
172.281	0.12	344562	keystroke_Key.backspace	Key.backspace	n/a
172.356	0.1505	344712	keystroke_a	a	n/a
172.5215	0.09	345043	keystroke_d	d	n/a
173.0615	0.12	346123	keystroke_a	a	n/a
173.2115	0.12	346423	keystroke_p	p	n/a
173.7065	0.105	347413	keystroke_t	t	n/a
173.8265	0.09	347653	keystroke_e	e	n/a
174.051	0.075	348102	keystroke_d	d	n/a
174.231	0.12	348462	keystroke_Key.enter	Key.enter	n/a
174.3565	12.2665	348713	prompt	n/a	participant ministry entrepreneurs amplifier\n
175.206	0.136	350412	keystroke_p	p	n/a
175.387	0.135	350774	keystroke_a	a	n/a
175.536	0.105	351072	keystroke_r	r	n/a
175.806	0.075	351612	keystroke_t	t	n/a
175.942	0.1345	351884	keystroke_i	i	n/a
176.1515	0.12	352303	keystroke_c	c	n/a
176.8265	0.1205	353653	keystroke_i	i	n/a
177.0065	0.1205	354013	keystroke_a	a	n/a
177.292	0.1045	354584	keystroke_p	p	n/a
177.7715	0.105	355543	keystroke_Key.backspace	Key.backspace	n/a
177.9365	0.0905	355873	keystroke_Key.backspace	Key.backspace	n/a
178.1765	0.12	356353	keystroke_p	p	n/a
178.2815	0.135	356563	keystroke_a	a	n/a
178.417	0.1045	356834	keystroke_n	n	n/a
178.5515	0.09	357103	keystroke_t	t	n/a
178.7315	0.15	357463	keystroke_Key.space	Key.space	n/a
179.1365	0.1645	358273	keystroke_m	m	n/a
179.256	0.15	358512	keystroke_i	i	n/a
179.436	0.18	358872	keystroke_n	n	n/a
180.067	0.12	360134	keystroke_i	i	n/a
180.202	0.135	360404	keystroke_s	s	n/a
180.322	0.09	360644	keystroke_t	t	n/a
180.517	0.075	361034	keystroke_r	r	n/a
180.6665	0.1505	361333	keystroke_y	y	n/a
180.802	0.1645	361604	keystroke_Key.space	Key.space	n/a
181.207	0.09	362414	keystroke_e	e	n/a
181.3265	0.1205	362653	keystroke_n	n	n/a
181.5665	0.0905	363133	keystroke_t	t	n/a
181.882	0.1045	363764	keystroke_r	r	n/a
182.062	0.075	364124	keystroke_e	e	n/a
182.287	0.12	364574	keystroke_p	p	n/a
182.467	0.12	364934	keystroke_r	r	n/a
182.692	0.09	365384	keystroke_e	e	n/a
182.8565	0.12	365713	keystroke_n	n	n/a
183.1415	0.075	366283	keystroke_e	e	n/a
183.3815	0.12	366763	keystroke_u	u	n/a
183.5315	0.09	367063	keystroke_r	r	n/a
183.7415	0.09	367483	keystroke_s	s	n/a
183.8765	0.1645	367753	keystroke_Key.space	Key.space	n/a
184.117	0.1195	368234	keystroke_a	a	n/a
184.2815	0.27	368563	keystroke_m	m	n/a
184.5665	0.045	369133	keystroke_p	p	n/a
184.7165	0.105	369433	keystroke_l	l	n/a
184.8515	0.12	369703	keystroke_i	i	n/a
185.676	0.135	371352	keystroke_f	f	n/a
185.826	0.12	371652	keystroke_i	i	n/a
186.1265	0.165	372253	keystroke_e	e	n/a
186.2615	0.135	372523	keystroke_r	r	n/a
186.5165	0.105	373033	keystroke_Key.enter	Key.enter	n/a
186.626	7.137	373252	prompt	n/a	steering forming cities information\n
187.2515	0.12	374503	keystroke_s	s	n/a
187.5965	0.09	375193	keystroke_t	t	n/a
187.8965	0.1055	375793	keystroke_e	e	n/a
188.107	0.09	376214	keystroke_r	r	n/a
188.3165	0.045	376633	keystroke_r	r	n/a
188.6465	0.105	377293	keystroke_Key.backspace	Key.backspace	n/a
188.8265	0.12	377653	keystroke_Key.backspace	Key.backspace	n/a
188.9165	0.165	377833	keystroke_e	e	n/a
189.0215	0.12	378043	keystroke_r	r	n/a
189.1565	0.15	378313	keystroke_i	i	n/a
189.2615	0.135	378523	keystroke_n	n	n/a
189.4115	0.0745	378823	keystroke_g	g	n/a
189.531	0.1355	379062	keystroke_Key.space	Key.space	n/a
189.8165	0.105	379633	keystroke_f	f	n/a
189.9365	0.09	379873	keystroke_o	o	n/a
190.0565	0.09	380113	keystroke_r	r	n/a
190.1315	0.105	380263	keystroke_m	m	n/a
190.3115	0.135	380623	keystroke_i	i	n/a
190.4015	0.12	380803	keystroke_n	n	n/a
190.5065	0.09	381013	keystroke_g	g	n/a
190.6265	0.135	381253	keystroke_Key.space	Key.space	n/a
190.8065	0.12	381613	keystroke_c	c	n/a
190.9275	0.104	381855	keystroke_i	i	n/a
191.0765	0.09	382153	keystroke_t	t	n/a
191.1815	0.12	382363	keystroke_i	i	n/a
191.3465	0.135	382693	keystroke_e	e	n/a
191.5865	0.09	383173	keystroke_s	s	n/a
191.6915	0.15	383383	keystroke_Key.space	Key.space	n/a
191.8715	0.135	383743	keystroke_i	i	n/a
191.9765	0.135	383953	keystroke_n	n	n/a
192.0815	0.105	384163	keystroke_f	f	n/a
192.2465	0.0905	384493	keystroke_o	o	n/a
192.3215	0.1355	384643	keystroke_r	r	n/a
192.471	0.076	384942	keystroke_m	m	n/a
192.562	0.15	385124	keystroke_a	a	n/a
192.682	0.105	385364	keystroke_t	t	n/a
192.757	0.135	385514	keystroke_i	i	n/a
192.862	0.105	385724	keystroke_o	o	n/a
192.937	0.075	385874	keystroke_n	n	n/a
193.642	0.12	387284	keystroke_Key.enter	Key.enter	n/a
193.766	9.9565	387532	prompt	n/a	potential relaxation manufactured trek\n
194.6315	0.12	389263	keystroke_p	p	n/a
194.8115	0.1355	389623	keystroke_o	o	n/a
195.157	0.104	390314	keystroke_t	t	n/a
195.456	0.075	390912	keystroke_e	e	n/a
195.771	0.1355	391542	keystroke_n	n	n/a
195.9515	0.105	391903	keystroke_t	t	n/a
196.0865	0.105	392173	keystroke_i	i	n/a
196.3265	0.09	392653	keystroke_a	a	n/a
196.4465	0.1495	392893	keystroke_l	l	n/a
196.551	0.15	393102	keystroke_Key.space	Key.space	n/a
196.941	0.12	393882	keystroke_r	r	n/a
197.106	0.09	394212	keystroke_e	e	n/a
197.241	0.12	394482	keystroke_l	l	n/a
198.2165	0.135	396433	keystroke_a	a	n/a
198.5765	0.12	397153	keystroke_x	x	n/a
198.8465	0.135	397693	keystroke_a	a	n/a
199.1765	0.105	398353	keystroke_t	t	n/a
199.3265	0.165	398653	keystroke_i	i	n/a
199.4615	0.135	398923	keystroke_o	o	n/a
199.5065	0.18	399013	keystroke_n	n	n/a
199.6565	0.1495	399313	keystroke_Key.space	Key.space	n/a
199.941	0.0905	399882	keystroke_m	m	n/a
199.9865	0.105	399973	keystroke_a	a	n/a
200.2265	0.075	400453	keystroke_n	n	n/a
200.467	0.1195	400934	keystroke_u	u	n/a
200.8865	0.105	401773	keystroke_f	f	n/a
201.1715	0.105	402343	keystroke_a	a	n/a
201.3965	0.105	402793	keystroke_c	c	n/a
201.5615	0.105	403123	keystroke_t	t	n/a
201.7265	0.12	403453	keystroke_u	u	n/a
201.8465	0.075	403693	keystroke_r	r	n/a
201.9665	0.075	403933	keystroke_e	e	n/a
202.1615	0.075	404323	keystroke_d	d	n/a
202.2515	0.12	404503	keystroke_Key.space	Key.space	n/a
202.6865	0.105	405373	keystroke_t	t	n/a
202.9115	0.09	405823	keystroke_r	r	n/a
203.2115	0.06	406423	keystroke_e	e	n/a
203.3765	0.12	406753	keystroke_k	k	n/a
203.6315	0.09	407263	keystroke_Key.enter	Key.enter	n/a
203.726	10.302	407452	prompt	n/a	recipients investment wealth joshua\n
204.486	0.09	408972	keystroke_r	r	n/a
204.636	0.075	409272	keystroke_e	e	n/a
204.876	0.09	409752	keystroke_c	c	n/a
205.026	0.135	410052	keystroke_i	i	n/a
205.236	0.12	410472	keystroke_p	p	n/a
205.716	0.12	411432	keystroke_i	i	n/a
205.911	0.12	411822	keystroke_e	e	n/a
206.662	0.1195	413324	keystroke_n	n	n/a
206.8265	0.105	413653	keystroke_t	t	n/a
207.1715	0.105	414343	keystroke_s	s	n/a
207.366	0.18	414732	keystroke_Key.space	Key.space	n/a
207.711	0.18	415422	keystroke_i	i	n/a
208.266	0.15	416532	keystroke_n	n	n/a
208.461	0.135	416922	keystroke_v	v	n/a
208.8065	0.03	417613	keystroke_e	e	n/a
208.9265	0.0895	417853	keystroke_e	e	n/a
209.466	0.105	418932	keystroke_Key.backspace	Key.backspace	n/a
209.556	0.15	419112	keystroke_s	s	n/a
209.676	0.12	419352	keystroke_t	t	n/a
210.006	0.12	420012	keystroke_m	m	n/a
210.156	0.105	420312	keystroke_e	e	n/a
210.291	0.135	420582	keystroke_n	n	n/a
210.411	0.09	420822	keystroke_t	t	n/a
210.576	0.15	421152	keystroke_Key.space	Key.space	n/a
210.981	0.09	421962	keystroke_w	w	n/a
211.191	0.12	422382	keystroke_e	e	n/a
211.446	0.09	422892	keystroke_a	a	n/a
211.686	0.12	423372	keystroke_l	l	n/a
211.881	0.1055	423762	keystroke_t	t	n/a
212.0165	0.1495	424033	keystroke_h	h	n/a
212.181	0.165	424362	keystroke_Key.space	Key.space	n/a
212.857	0.165	425714	keystroke_j	j	n/a
213.007	0.15	426014	keystroke_o	o	n/a
213.187	0.089	426374	keystroke_s	s	n/a
213.321	0.091	426642	keystroke_h	h	n/a
213.517	0.12	427034	keystroke_u	u	n/a
213.756	0.1205	427512	keystroke_a	a	n/a
213.9065	0.12	427813	keystroke_Key.enter	Key.enter	n/a
214.031	9.927	428062	prompt	n/a	tied programmes departmental developing\n
215.2115	0.03	430423	keystroke_t	t	n/a
215.2715	0.1345	430543	keystroke_i	i	n/a
215.407	0.074	430814	keystroke_e	e	n/a
215.6015	0.075	431203	keystroke_d	d	n/a
215.7515	0.15	431503	keystroke_Key.space	Key.space	n/a
216.2765	0.105	432553	keystroke_p	p	n/a
216.4715	0.105	432943	keystroke_r	r	n/a
216.6365	0.12	433273	keystroke_o	o	n/a
216.8165	0.105	433633	keystroke_g	g	n/a
217.0865	0.105	434173	keystroke_r	r	n/a
217.2515	0.12	434503	keystroke_a	a	n/a
217.3865	0.135	434773	keystroke_m	m	n/a
217.6265	0.12	435253	keystroke_m	m	n/a
217.9115	0.1495	435823	keystroke_e	e	n/a
218.2565	0.09	436513	keystroke_s	s	n/a
218.4215	0.135	436843	keystroke_Key.space	Key.space	n/a
218.856	0.075	437712	keystroke_d	d	n/a
219.051	0.076	438102	keystroke_e	e	n/a
219.232	0.104	438464	keystroke_p	p	n/a
219.396	0.2105	438792	keystroke_a	a	n/a
219.577	0.1195	439154	keystroke_r	r	n/a
219.9215	0.105	439843	keystroke_t	t	n/a
220.1015	0.15	440203	keystroke_m	m	n/a
220.3265	0.105	440653	keystroke_e	e	n/a
220.4765	0.135	440953	keystroke_n	n	n/a
220.7015	0.09	441403	keystroke_t	t	n/a
220.9115	0.1045	441823	keystroke_a	a	n/a
221.046	0.195	442092	keystroke_l	l	n/a
221.196	0.135	442392	keystroke_Key.space	Key.space	n/a
221.871	0.075	443742	keystroke_d	d	n/a
222.051	0.076	444102	keystroke_e	e	n/a
222.246	0.1055	444492	keystroke_v	v	n/a
222.321	0.1055	444642	keystroke_e	e	n/a
222.4715	0.105	444943	keystroke_l	l	n/a
222.6815	0.165	445363	keystroke_o	o	n/a
222.8915	0.165	445783	keystroke_p	p	n/a
223.4165	0.165	446833	keystroke_i	i	n/a
223.5065	0.165	447013	keystroke_n	n	n/a
223.6565	0.09	447313	keystroke_g	g	n/a
223.8365	0.12	447673	keystroke_Key.enter	Key.enter	n/a
223.9625	8.246	447925	prompt	n/a	womens architectural giving discussion\n
224.661	0.09	449322	keystroke_w	w	n/a
224.766	0.0905	449532	keystroke_o	o	n/a
224.826	0.1355	449652	keystroke_m	m	n/a
224.9915	0.09	449983	keystroke_e	e	n/a
225.1115	0.12	450223	keystroke_n	n	n/a
225.2615	0.12	450523	keystroke_s	s	n/a
225.4265	0.1345	450853	keystroke_Key.space	Key.space	n/a
225.621	0.18	451242	keystroke_a	a	n/a
225.786	0.105	451572	keystroke_r	r	n/a
226.0715	0.105	452143	keystroke_c	c	n/a
226.2215	0.194	452443	keystroke_h	h	n/a
226.4015	0.1345	452803	keystroke_i	i	n/a
226.596	0.12	453192	keystroke_t	t	n/a
226.791	0.075	453582	keystroke_e	e	n/a
227.046	0.09	454092	keystroke_c	c	n/a
227.272	0.075	454544	keystroke_t	t	n/a
227.391	0.151	454782	keystroke_u	u	n/a
227.526	0.105	455052	keystroke_r	r	n/a
227.706	0.135	455412	keystroke_a	a	n/a
227.856	0.1505	455712	keystroke_l	l	n/a
227.946	0.1505	455892	keystroke_Key.space	Key.space	n/a
228.1865	0.09	456373	keystroke_g	g	n/a
228.3365	0.105	456673	keystroke_i	i	n/a
228.4565	0.105	456913	keystroke_v	v	n/a
228.5915	0.165	457183	keystroke_i	i	n/a
228.6965	0.1495	457393	keystroke_n	n	n/a
228.847	0.089	457694	keystroke_g	g	n/a
228.966	0.135	457932	keystroke_Key.space	Key.space	n/a
230.7215	0.09	461443	keystroke_d	d	n/a
230.8265	0.135	461653	keystroke_i	i	n/a
230.9765	0.03	461953	keystroke_s	s	n/a
231.1565	0.09	462313	keystroke_c	c	n/a
231.2765	0.12	462553	keystroke_u	u	n/a
231.4265	0.075	462853	keystroke_s	s	n/a
231.6065	0.09	463213	keystroke_s	s	n/a
231.7265	0.15	463453	keystroke_i	i	n/a
231.8465	0.12	463693	keystroke_o	o	n/a
231.8915	0.135	463783	keystroke_n	n	n/a
232.1015	0.105	464203	keystroke_Key.enter	Key.enter	n/a
232.211	6.327	464422	prompt	n/a	chronicles steering nation prayer\n
232.9265	0.12	465853	keystroke_c	c	n/a
233.0615	0.075	466123	keystroke_h	h	n/a
233.2565	0.105	466513	keystroke_r	r	n/a
233.3465	0.105	466693	keystroke_o	o	n/a
233.5115	0.135	467023	keystroke_n	n	n/a
233.6315	0.12	467263	keystroke_i	i	n/a
233.7665	0.09	467533	keystroke_c	c	n/a
233.9615	0.105	467923	keystroke_l	l	n/a
234.1115	0.075	468223	keystroke_e	e	n/a
234.2915	0.0745	468583	keystroke_s	s	n/a
234.426	0.12	468852	keystroke_Key.space	Key.space	n/a
234.6815	0.12	469363	keystroke_s	s	n/a
235.071	0.045	470142	keystroke_e	e	n/a
235.446	0.12	470892	keystroke_Key.backspace	Key.backspace	n/a
235.581	0.075	471162	keystroke_t	t	n/a
235.716	0.105	471432	keystroke_e	e	n/a
235.896	0.09	471792	keystroke_e	e	n/a
236.047	0.105	472094	keystroke_r	r	n/a
236.197	0.15	472394	keystroke_i	i	n/a
236.272	0.15	472544	keystroke_n	n	n/a
236.422	0.09	472844	keystroke_g	g	n/a
236.572	0.104	473144	keystroke_Key.space	Key.space	n/a
236.722	0.135	473444	keystroke_n	n	n/a
236.872	0.15	473744	keystroke_a	a	n/a
236.992	0.12	473984	keystroke_t	t	n/a
237.097	0.135	474194	keystroke_i	i	n/a
237.202	0.1195	474404	keystroke_o	o	n/a
237.262	0.1495	474524	keystroke_n	n	n/a
237.3815	0.165	474763	keystroke_Key.space	Key.space	n/a
237.591	0.121	475182	keystroke_p	p	n/a
237.697	0.105	475394	keystroke_r	r	n/a
237.906	0.09	475812	keystroke_a	a	n/a
238.011	0.1205	476022	keystroke_y	y	n/a
238.2065	0.075	476413	keystroke_e	e	n/a
238.2665	0.12	476533	keystroke_r	r	n/a
238.4315	0.105	476863	keystroke_Key.enter	Key.enter	n/a
238.541	9.147	477082	prompt	n/a	microphone projected monitored tribe\n
239.301	0.1805	478602	keystroke_m	m	n/a
239.4365	0.135	478873	keystroke_i	i	n/a
239.556	0.1055	479112	keystroke_c	c	n/a
239.796	0.0305	479592	keystroke_r	r	n/a
239.901	0.15	479802	keystroke_o	o	n/a
240.081	0.135	480162	keystroke_p	p	n/a
240.262	0.179	480524	keystroke_h	h	n/a
240.396	0.09	480792	keystroke_o	o	n/a
240.471	0.105	480942	keystroke_h	h	n/a
241.1015	0.09	482203	keystroke_Key.backspace	Key.backspace	n/a
241.3265	0.0895	482653	keystroke_n	n	n/a
241.461	0.0905	482922	keystroke_e	e	n/a
241.6715	0.12	483343	keystroke_Key.space	Key.space	n/a
242.0915	0.135	484183	keystroke_p	p	n/a
242.4065	0.09	484813	keystroke_r	r	n/a
242.5715	0.075	485143	keystroke_o	o	n/a
242.796	0.12	485592	keystroke_j	j	n/a
242.946	0.075	485892	keystroke_e	e	n/a
243.156	0.105	486312	keystroke_c	c	n/a
243.336	0.09	486672	keystroke_t	t	n/a
243.486	0.09	486972	keystroke_e	e	n/a
243.696	0.09	487392	keystroke_d	d	n/a
243.831	0.135	487662	keystroke_Key.space	Key.space	n/a
244.011	0.196	488022	keystroke_m	m	n/a
244.207	0.134	488414	keystroke_o	o	n/a
244.627	0.134	489254	keystroke_n	n	n/a
244.837	0.12	489674	keystroke_i	i	n/a
245.062	0.15	490124	keystroke_t	t	n/a
245.287	0.119	490574	keystroke_o	o	n/a
245.511	0.075	491022	keystroke_r	r	n/a
245.887	0.075	491774	keystroke_e	e	n/a
246.097	0.089	492194	keystroke_d	d	n/a
246.261	0.166	492522	keystroke_Key.space	Key.space	n/a
246.681	0.106	493362	keystroke_t	t	n/a
246.9215	0.06	493843	keystroke_r	r	n/a
247.0415	0.135	494083	keystroke_i	i	n/a
247.1915	0.09	494383	keystroke_b	b	n/a
247.371	0.075	494742	keystroke_e	e	n/a
247.596	0.09	495192	keystroke_Key.enter	Key.enter	n/a
247.691	8.517	495382	prompt	n/a	clouds framed pierce bouquet\n
248.4215	0.12	496843	keystroke_c	c	n/a
248.5265	0.105	497053	keystroke_l	l	n/a
248.7365	0.105	497473	keystroke_o	o	n/a
248.8865	0.15	497773	keystroke_u	u	n/a
249.0815	0.105	498163	keystroke_d	d	n/a
249.2615	0.12	498523	keystroke_s	s	n/a
249.4415	0.15	498883	keystroke_Key.space	Key.space	n/a
250.0565	0.105	500113	keystroke_f	f	n/a
250.3415	0.075	500683	keystroke_r	r	n/a
250.4315	0.15	500863	keystroke_a	a	n/a
250.6115	0.15	501223	keystroke_m	m	n/a
250.7765	0.06	501553	keystroke_e	e	n/a
250.971	0.075	501942	keystroke_d	d	n/a
251.496	0.15	502992	keystroke_Key.space	Key.space	n/a
251.826	0.12	503652	keystroke_p	p	n/a
252.1415	0.105	504283	keystroke_i	i	n/a
252.3215	0.12	504643	keystroke_e	e	n/a
252.8915	0.09	505783	keystroke_r	r	n/a
253.1315	0.09	506263	keystroke_c	c	n/a
253.3715	0.075	506743	keystroke_e	e	n/a
253.5965	0.1345	507193	keystroke_Key.space	Key.space	n/a
254.166	0.105	508332	keystroke_b	b	n/a
254.376	0.21	508752	keystroke_o	o	n/a
254.616	0.105	509232	keystroke_u	u	n/a
255.216	0.1205	510432	keystroke_q	q	n/a
255.3965	0.1195	510793	keystroke_u	u	n/a
255.591	0.12	511182	keystroke_e	e	n/a
255.8015	0.105	511603	keystroke_t	t	n/a
256.086	0.12	512172	keystroke_Key.enter	Key.enter	n/a
256.2125	13.3005	512425	prompt	n/a	sciences jefferson jefferson centres\n
256.8365	0.09	513673	keystroke_s	s	n/a
257.1215	0.105	514243	keystroke_c	c	n/a
257.3765	0.12	514753	keystroke_i	i	n/a
257.6465	0.105	515293	keystroke_e	e	n/a
257.9165	0.1345	515833	keystroke_n	n	n/a
258.231	0.105	516462	keystroke_c	c	n/a
258.501	0.09	517002	keystroke_e	e	n/a
258.726	0.09	517452	keystroke_s	s	n/a
258.936	0.165	517872	keystroke_Key.space	Key.space	n/a
259.131	0.1655	518262	keystroke_j	j	n/a
259.3565	0.105	518713	keystroke_e	e	n/a
259.5815	0.12	519163	keystroke_f	f	n/a
259.8515	0.12	519703	keystroke_f	f	n/a
260.1215	0.135	520243	keystroke_e	e	n/a
260.3615	0.09	520723	keystroke_r	r	n/a
260.6615	0.105	521323	keystroke_s	s	n/a
260.8565	0.21	521713	keystroke_o	o	n/a
261.0815	0.1345	522163	keystroke_n	n	n/a
261.2615	0.15	522523	keystroke_Key.space	Key.space	n/a
261.576	0.136	523152	keystroke_j	j	n/a
262.416	0.12	524832	keystroke_e	e	n/a
263.991	0.1055	527982	keystroke_f	f	n/a
264.2155	0.135	528431	keystroke_f	f	n/a
264.5765	0.1195	529153	keystroke_e	e	n/a
264.7415	0.12	529483	keystroke_r	r	n/a
264.967	0.104	529934	keystroke_s	s	n/a
265.117	0.164	530234	keystroke_o	o	n/a
265.252	0.179	530504	keystroke_n	n	n/a
265.476	0.105	530952	keystroke_Key.space	Key.space	n/a
266.121	0.06	532242	keystroke_e	e	n/a
266.571	0.12	533142	keystroke_Key.backspace	Key.backspace	n/a
266.751	0.105	533502	keystroke_c	c	n/a
266.946	0.105	533892	keystroke_n	n	n/a
267.1865	0.075	534373	keystroke_e	e	n/a
267.7115	0.09	535423	keystroke_Key.backspace	Key.backspace	n/a
267.8915	0.104	535783	keystroke_Key.backspace	Key.backspace	n/a
268.0105	0.0905	536021	keystroke_e	e	n/a
268.206	0.106	536412	keystroke_n	n	n/a
268.491	0.12	536982	keystroke_t	t	n/a
268.792	0.074	537584	keystroke_r	r	n/a
268.971	0.061	537942	keystroke_e	e	n/a
269.1515	0.09	538303	keystroke_s	s	n/a
269.4065	0.105	538813	keystroke_Key.enter	Key.enter	n/a
269.5155	10.9775	539031	prompt	n/a	valued plant brooklyn harassment\n
270.2465	0.12	540493	keystroke_v	v	n/a
270.4115	0.12	540823	keystroke_a	a	n/a
270.5615	0.15	541123	keystroke_l	l	n/a
270.7125	0.089	541425	keystroke_i	i	n/a
270.7265	0.1045	541453	keystroke_u	u	n/a
270.846	0.075	541692	keystroke_e	e	n/a
271.056	0.075	542112	keystroke_d	d	n/a
271.191	0.15	542382	keystroke_Key.space	Key.space	n/a
271.686	0.12	543372	keystroke_p	p	n/a
272.1815	0.12	544363	keystroke_Key.backspace	Key.backspace	n/a
272.3765	0.074	544753	keystroke_Key.backspace	Key.backspace	n/a
272.5565	0.06	545113	keystroke_Key.backspace	Key.backspace	n/a
272.7365	0.0595	545473	keystroke_Key.backspace	Key.backspace	n/a
272.901	0.06	545802	keystroke_Key.backspace	Key.backspace	n/a
273.0515	0.0745	546103	keystroke_Key.backspace	Key.backspace	n/a
273.786	0.1355	547572	keystroke_u	u	n/a
274.0115	0.0895	548023	keystroke_e	e	n/a
274.236	0.075	548472	keystroke_d	d	n/a
274.341	0.15	548682	keystroke_Key.space	Key.space	n/a
274.506	0.105	549012	keystroke_p	p	n/a
274.671	0.135	549342	keystroke_l	l	n/a
274.761	0.135	549522	keystroke_a	a	n/a
274.971	0.12	549942	keystroke_n	n	n/a
275.166	0.105	550332	keystroke_t	t	n/a
275.406	0.1505	550812	keystroke_Key.space	Key.space	n/a
275.8415	0.105	551683	keystroke_b	b	n/a
276.081	0.091	552162	keystroke_r	r	n/a
276.201	0.12	552402	keystroke_o	o	n/a
276.411	0.135	552822	keystroke_o	o	n/a
276.606	0.12	553212	keystroke_k	k	n/a
276.786	0.195	553572	keystroke_l	l	n/a
276.966	0.105	553932	keystroke_y	y	n/a
277.221	0.12	554442	keystroke_n	n	n/a
277.401	0.12	554802	keystroke_Key.space	Key.space	n/a
278.001	0.135	556002	keystroke_h	h	n/a
278.196	0.121	556392	keystroke_a	a	n/a
278.481	0.135	556962	keystroke_r	r	n/a
279.261	0.15	558522	keystroke_a	a	n/a
279.546	0.075	559092	keystroke_s	s	n/a
279.696	0.09	559392	keystroke_s	s	n/a
279.876	0.12	559752	keystroke_m	m	n/a
280.011	0.06	560022	keystroke_e	e	n/a
280.131	0.09	560262	keystroke_n	n	n/a
280.236	0.076	560472	keystroke_t	t	n/a
280.386	0.105	560772	keystroke_Key.enter	Key.enter	n/a
280.4965	8.0665	560993	prompt	n/a	desirable arrest he's streets\n
281.2265	0.09	562453	keystroke_d	d	n/a
281.4515	0.075	562903	keystroke_e	e	n/a
281.6615	0.105	563323	keystroke_s	s	n/a
281.8565	0.105	563713	keystroke_i	i	n/a
281.9765	0.12	563953	keystroke_r	r	n/a
282.7715	0.135	565543	keystroke_a	a	n/a
283.0565	0.15	566113	keystroke_b	b	n/a
283.3415	0.12	566683	keystroke_l	l	n/a
283.5215	0.09	567043	keystroke_e	e	n/a
283.7315	0.12	567463	keystroke_Key.space	Key.space	n/a
284.1515	0.12	568303	keystroke_a	a	n/a
284.3765	0.105	568753	keystroke_r	r	n/a
284.5415	0.12	569083	keystroke_r	r	n/a
284.7515	0.1045	569503	keystroke_e	e	n/a
284.961	0.135	569922	keystroke_s	s	n/a
285.066	0.105	570132	keystroke_t	t	n/a
285.231	0.12	570462	keystroke_Key.space	Key.space	n/a
285.561	0.1505	571122	keystroke_h	h	n/a
285.7415	0.075	571483	keystroke_e	e	n/a
285.981	0.12	571962	keystroke_'	'	n/a
286.176	0.09	572352	keystroke_s	s	n/a
286.506	0.135	573012	keystroke_Key.space	Key.space	n/a
286.791	0.105	573582	keystroke_s	s	n/a
287.046	0.12	574092	keystroke_t	t	n/a
287.286	0.105	574572	keystroke_r	r	n/a
287.481	0.09	574962	keystroke_e	e	n/a
287.676	0.03	575352	keystroke_e	e	n/a
288.021	0.06	576042	keystroke_t	t	n/a
288.186	0.09	576372	keystroke_s	s	n/a
288.456	0.105	576912	keystroke_Key.enter	Key.enter	n/a
288.5665	9.611	577133	prompt	n/a	forbes version common void\n
289.416	0.105	578832	keystroke_f	f	n/a
289.566	0.12	579132	keystroke_o	o	n/a
289.687	0.119	579374	keystroke_r	r	n/a
289.971	0.1045	579942	keystroke_b	b	n/a
290.1815	0.09	580363	keystroke_e	e	n/a
290.4065	0.074	580813	keystroke_s	s	n/a
290.631	0.165	581262	keystroke_Key.space	Key.space	n/a
291.366	0.12	582732	keystroke_v	v	n/a
291.606	0.105	583212	keystroke_e	e	n/a
291.681	0.105	583362	keystroke_r	r	n/a
292.686	0.1355	585372	keystroke_=	=	n/a
293.151	0.1355	586302	keystroke_Key.backspace	Key.backspace	n/a
293.4215	0.075	586843	keystroke_Key.backspace	Key.backspace	n/a
294.0665	0.1345	588133	keystroke_r	r	n/a
294.3665	0.09	588733	keystroke_s	s	n/a
294.936	0.135	589872	keystroke_i	i	n/a
295.041	0.195	590082	keystroke_o	o	n/a
295.221	0.1205	590442	keystroke_n	n	n/a
295.4615	0.15	590923	keystroke_Key.space	Key.space	n/a
295.9115	0.1195	591823	keystroke_c	c	n/a
296.001	0.12	592002	keystroke_o	o	n/a
296.106	0.105	592212	keystroke_m	m	n/a
296.301	0.195	592602	keystroke_m	m	n/a
296.511	0.09	593022	keystroke_o	o	n/a
296.736	0.135	593472	keystroke_n	n	n/a
297.006	0.12	594012	keystroke_Key.space	Key.space	n/a
297.4415	0.09	594883	keystroke_v	v	n/a
297.5465	0.105	595093	keystroke_o	o	n/a
297.6965	0.12	595393	keystroke_i	i	n/a
297.8615	0.075	595723	keystroke_d	d	n/a
298.0715	0.1045	596143	keystroke_Key.enter	Key.enter	n/a
298.181	7.6915	596362	prompt	n/a	basin full activists plane\n
298.9865	0.105	597973	keystroke_b	b	n/a
299.1665	0.135	598333	keystroke_a	a	n/a
299.3615	0.12	598723	keystroke_s	s	n/a
299.4965	0.165	598993	keystroke_i	i	n/a
299.6165	0.15	599233	keystroke_n	n	n/a
299.8265	0.15	599653	keystroke_Key.space	Key.space	n/a
299.9915	0.0895	599983	keystroke_f	f	n/a
300.126	0.1205	600252	keystroke_u	u	n/a
300.3365	0.105	600673	keystroke_l	l	n/a
300.5165	0.135	601033	keystroke_l	l	n/a
300.6355	0.135	601271	keystroke_Key.space	Key.space	n/a
300.7265	0.135	601453	keystroke_a	a	n/a
300.8755	0.105	601751	keystroke_c	c	n/a
301.476	0.0905	602952	keystroke_t	t	n/a
301.6415	0.119	603283	keystroke_i	i	n/a
301.8055	0.136	603611	keystroke_v	v	n/a
302.0315	0.1195	604063	keystroke_i	i	n/a
303.771	0.15	607542	keystroke_s	s	n/a
303.981	0.12	607962	keystroke_t	t	n/a
304.2965	0.104	608593	keystroke_s	s	n/a
304.4905	0.135	608981	keystroke_Key.space	Key.space	n/a
304.8055	0.106	609611	keystroke_p	p	n/a
305.0615	0.135	610123	keystroke_l	l	n/a
305.1965	0.12	610393	keystroke_a	a	n/a
305.3465	0.135	610693	keystroke_n	n	n/a
305.5415	0.105	611083	keystroke_e	e	n/a
305.7665	0.105	611533	keystroke_Key.enter	Key.enter	n/a
305.8755	7.8425	611751	prompt	n/a	amend raises supplies taylor\n
306.5315	0.135	613063	keystroke_a	a	n/a
307.0415	0.165	614083	keystroke_m	m	n/a
307.2665	0.105	614533	keystroke_e	e	n/a
307.4315	0.1345	614863	keystroke_n	n	n/a
307.581	0.105	615162	keystroke_d	d	n/a
307.701	0.135	615402	keystroke_Key.space	Key.space	n/a
307.986	0.09	615972	keystroke_r	r	n/a
308.4515	0.09	616903	keystroke_a	a	n/a
308.6165	0.15	617233	keystroke_i	i	n/a
308.8565	0.135	617713	keystroke_s	s	n/a
309.3365	0.09	618673	keystroke_e	e	n/a
309.5465	0.105	619093	keystroke_s	s	n/a
309.7115	0.135	619423	keystroke_Key.space	Key.space	n/a
309.9215	0.12	619843	keystroke_s	s	n/a
310.1315	0.1345	620263	keystroke_u	u	n/a
310.341	0.33	620682	keystroke_p	p	n/a
310.911	0.121	621822	keystroke_p	p	n/a
311.181	0.12	622362	keystroke_l	l	n/a
311.361	0.12	622722	keystroke_i	i	n/a
311.526	0.09	623052	keystroke_e	e	n/a
311.706	0.105	623412	keystroke_s	s	n/a
311.886	0.1355	623772	keystroke_Key.space	Key.space	n/a
312.576	0.105	625152	keystroke_t	t	n/a
312.726	0.135	625452	keystroke_a	a	n/a
312.936	0.135	625872	keystroke_y	y	n/a
313.116	0.09	626232	keystroke_l	l	n/a
313.281	0.09	626562	keystroke_o	o	n/a
313.416	0.09	626832	keystroke_r	r	n/a
313.611	0.105	627222	keystroke_Key.enter	Key.enter	n/a
313.7225	17.7555	627445	prompt	n/a	peninsula security shouldn't've acdbentity\n
314.5265	0.135	629053	keystroke_p	p	n/a
314.8565	0.09	629713	keystroke_e	e	n/a
315.112	0.179	630224	keystroke_n	n	n/a
315.396	0.105	630792	keystroke_i	i	n/a
316.2365	0.105	632473	keystroke_s	s	n/a
316.416	0.12	632832	keystroke_u	u	n/a
316.626	0.135	633252	keystroke_l	l	n/a
316.821	0.15	633642	keystroke_a	a	n/a
316.986	0.135	633972	keystroke_Key.space	Key.space	n/a
317.211	0.105	634422	keystroke_s	s	n/a
317.586	0.09	635172	keystroke_e	e	n/a
317.826	0.09	635652	keystroke_c	c	n/a
320.7685	0.073	641537	keystroke_u	u	n/a
320.8565	0.12	641713	keystroke_r	r	n/a
321.0815	0.105	642163	keystroke_i	i	n/a
321.2315	0.12	642463	keystroke_t	t	n/a
321.4265	0.165	642853	keystroke_y	y	n/a
321.5765	0.165	643153	keystroke_Key.space	Key.space	n/a
321.9365	0.12	643873	keystroke_s	s	n/a
322.0415	0.12	644083	keystroke_h	h	n/a
322.1765	0.18	644353	keystroke_o	o	n/a
322.4465	0.135	644893	keystroke_u	u	n/a
322.7765	0.09	645553	keystroke_l	l	n/a
322.8815	0.12	645763	keystroke_d	d	n/a
323.0615	0.15	646123	keystroke_n	n	n/a
323.1665	0.15	646333	keystroke_'	'	n/a
323.3315	0.105	646663	keystroke_t	t	n/a
323.4815	0.135	646963	keystroke_Key.space	Key.space	n/a
325.176	0.105	650352	keystroke_Key.backspace	Key.backspace	n/a
325.386	0.105	650772	keystroke_Key.backspace	Key.backspace	n/a
325.566	0.15	651132	keystroke_Key.backspace	Key.backspace	n/a
325.956	0.075	651912	keystroke_'	'	n/a
326.256	0.105	652512	keystroke_Key.backspace	Key.backspace	n/a
326.436	0.09	652872	keystroke_Key.backspace	Key.backspace	n/a
327.292	0.059	654584	keystroke_'	'	n/a
327.591	0.105	655182	keystroke_v	v	n/a
327.861	0.105	655722	keystroke_e	e	n/a
328.1015	0.165	656203	keystroke_Key.space	Key.space	n/a
328.5965	0.15	657193	keystroke_a	a	n/a
329.091	0.12	658182	keystroke_c	c	n/a
329.391	0.12	658782	keystroke_d	d	n/a
329.691	0.105	659382	keystroke_b	b	n/a
329.991	0.09	659982	keystroke_e	e	n/a
330.216	0.12	660432	keystroke_n	n	n/a
330.531	0.09	661062	keystroke_t	t	n/a
330.831	0.1195	661662	keystroke_i	i	n/a
330.9955	0.12	661991	keystroke_t	t	n/a
331.1455	0.1055	662291	keystroke_y	y	n/a
331.371	0.1045	662742	keystroke_Key.enter	Key.enter	n/a
331.481	5.922	662962	prompt	n/a	doing miles hart assignments\n
332.2115	0.135	664423	keystroke_d	d	n/a
332.3175	0.104	664635	keystroke_o	o	n/a
332.4365	0.135	664873	keystroke_i	i	n/a
332.5265	0.15	665053	keystroke_n	n	n/a
332.6615	0.12	665323	keystroke_g	g	n/a
332.7515	0.135	665503	keystroke_Key.space	Key.space	n/a
332.9315	0.15	665863	keystroke_m	m	n/a
333.0965	0.105	666193	keystroke_i	i	n/a
333.3515	0.09	666703	keystroke_l	l	n/a
333.6065	0.135	667213	keystroke_e	e	n/a
333.8615	0.12	667723	keystroke_s	s	n/a
334.0265	0.12	668053	keystroke_Key.space	Key.space	n/a
334.3265	0.12	668653	keystroke_h	h	n/a
334.4765	0.15	668953	keystroke_a	a	n/a
334.7165	0.075	669433	keystroke_r	r	n/a
334.8965	0.09	669793	keystroke_t	t	n/a
335.0315	0.135	670063	keystroke_Key.space	Key.space	n/a
335.2865	0.12	670573	keystroke_a	a	n/a
335.511	0.075	671022	keystroke_s	s	n/a
335.676	0.09	671352	keystroke_s	s	n/a
335.7815	0.1345	671563	keystroke_i	i	n/a
335.946	0.09	671892	keystroke_g	g	n/a
336.126	0.09	672252	keystroke_n	n	n/a
336.321	0.12	672642	keystroke_m	m	n/a
336.442	0.119	672884	keystroke_e	e	n/a
336.576	0.105	673152	keystroke_n	n	n/a
336.696	0.075	673392	keystroke_t	t	n/a
337.071	0.09	674142	keystroke_s	s	n/a
337.296	0.105	674592	keystroke_Key.enter	Key.enter	n/a
337.4055	6.868	674811	prompt	n/a	visit continued previously midnight\n
338.166	0.15	676332	keystroke_v	v	n/a
338.301	0.12	676602	keystroke_i	i	n/a
338.406	0.09	676812	keystroke_s	s	n/a
338.526	0.105	677052	keystroke_i	i	n/a
338.646	0.09	677292	keystroke_t	t	n/a
338.781	0.135	677562	keystroke_Key.space	Key.space	n/a
339.321	0.1055	678642	keystroke_c	c	n/a
339.3815	0.15	678763	keystroke_o	o	n/a
339.5165	0.135	679033	keystroke_n	n	n/a
339.7115	0.105	679423	keystroke_t	t	n/a
339.9665	0.12	679933	keystroke_i	i	n/a
340.0415	0.135	680083	keystroke_n	n	n/a
340.2965	0.135	680593	keystroke_u	u	n/a
340.4465	0.075	680893	keystroke_e	e	n/a
340.6555	0.091	681311	keystroke_d	d	n/a
340.7915	0.1495	681583	keystroke_Key.space	Key.space	n/a
341.151	0.105	682302	keystroke_p	p	n/a
341.271	0.135	682542	keystroke_r	r	n/a
341.391	0.09	682782	keystroke_e	e	n/a
341.586	0.105	683172	keystroke_v	v	n/a
341.751	0.1205	683502	keystroke_i	i	n/a
341.8865	0.149	683773	keystroke_o	o	n/a
342.0065	0.15	684013	keystroke_u	u	n/a
342.1715	0.09	684343	keystroke_s	s	n/a
342.2915	0.12	684583	keystroke_l	l	n/a
342.4715	0.135	684943	keystroke_y	y	n/a
342.6365	0.149	685273	keystroke_Key.space	Key.space	n/a
342.9815	0.15	685963	keystroke_m	m	n/a
343.1155	0.12	686231	keystroke_i	i	n/a
343.2515	0.09	686503	keystroke_d	d	n/a
343.5215	0.104	687043	keystroke_n	n	n/a
343.656	0.1055	687312	keystroke_i	i	n/a
343.7915	0.075	687583	keystroke_g	g	n/a
343.8965	0.12	687793	keystroke_h	h	n/a
343.971	0.0755	687942	keystroke_t	t	n/a
344.1815	0.09	688363	keystroke_Key.enter	Key.enter	n/a
344.2765	7.1065	688553	prompt	n/a	fundamentals wrist interaction logos\n
344.9165	0.1045	689833	keystroke_f	f	n/a
345.081	0.12	690162	keystroke_u	u	n/a
345.306	0.09	690612	keystroke_n	n	n/a
345.381	0.105	690762	keystroke_d	d	n/a
345.591	0.105	691182	keystroke_a	a	n/a
345.681	0.105	691362	keystroke_m	m	n/a
345.891	0.09	691782	keystroke_e	e	n/a
346.011	0.105	692022	keystroke_n	n	n/a
346.131	0.06	692262	keystroke_t	t	n/a
346.281	0.1055	692562	keystroke_a	a	n/a
346.4165	0.089	692833	keystroke_l	l	n/a
346.5515	0.105	693103	keystroke_s	s	n/a
346.6865	0.134	693373	keystroke_Key.space	Key.space	n/a
346.9105	0.076	693821	keystroke_w	w	n/a
347.1365	0.105	694273	keystroke_r	r	n/a
347.331	0.105	694662	keystroke_i	i	n/a
347.5565	0.1195	695113	keystroke_s	s	n/a
347.7665	0.09	695533	keystroke_t	t	n/a
347.916	0.15	695832	keystroke_Key.space	Key.space	n/a
348.216	0.105	696432	keystroke_i	i	n/a
348.336	0.18	696672	keystroke_n	n	n/a
348.651	0.105	697302	keystroke_t	t	n/a
348.816	0.1355	697632	keystroke_e	e	n/a
348.9065	0.135	697813	keystroke_r	r	n/a
349.6565	0.135	699313	keystroke_a	a	n/a
349.8815	0.0895	699763	keystroke_c	c	n/a
350.0615	0.09	700123	keystroke_t	t	n/a
350.2115	0.12	700423	keystroke_i	i	n/a
350.3165	0.12	700633	keystroke_o	o	n/a
350.4065	0.15	700813	keystroke_n	n	n/a
350.5415	0.15	701083	keystroke_Key.space	Key.space	n/a
350.7065	0.045	701413	keystroke_l	l	n/a
350.8565	0.09	701713	keystroke_o	o	n/a
350.9465	0.059	701893	keystroke_g	g	n/a
351.0665	0.09	702133	keystroke_o	o	n/a
351.1415	0.09	702283	keystroke_s	s	n/a
351.2905	0.09	702581	keystroke_Key.enter	Key.enter	n/a
351.3875	10.3755	702775	prompt	n/a	homepage brain theorem penguin\n
352.0715	0.105	704143	keystroke_h	h	n/a
352.1465	0.105	704293	keystroke_o	o	n/a
352.2965	0.135	704593	keystroke_m	m	n/a
352.4165	0.105	704833	keystroke_e	e	n/a
352.6565	0.09	705313	keystroke_p	p	n/a
352.7915	0.09	705583	keystroke_a	a	n/a
352.8665	0.135	705733	keystroke_g	g	n/a
353.0165	0.075	706033	keystroke_e	e	n/a
353.196	0.12	706392	keystroke_Key.space	Key.space	n/a
353.331	0.09	706662	keystroke_b	b	n/a
353.541	0.09	707082	keystroke_r	r	n/a
353.661	0.12	707322	keystroke_a	a	n/a
353.796	0.15	707592	keystroke_i	i	n/a
353.886	0.18	707772	keystroke_n	n	n/a
354.0815	0.105	708163	keystroke_Key.space	Key.space	n/a
354.4265	0.105	708853	keystroke_h	h	n/a
355.3105	0.1055	710621	keystroke_Key.backspace	Key.backspace	n/a
355.446	0.105	710892	keystroke_t	t	n/a
355.581	0.105	711162	keystroke_h	h	n/a
355.701	0.075	711402	keystroke_e	e	n/a
355.986	0.105	711972	keystroke_o	o	n/a
356.946	0.105	713892	keystroke_r	r	n/a
357.3515	0.105	714703	keystroke_e	e	n/a
357.5615	0.105	715123	keystroke_m	m	n/a
357.7115	0.09	715423	keystroke_Key.space	Key.space	n/a
357.9665	0.1345	715933	keystroke_p	p	n/a
358.176	0.09	716352	keystroke_e	e	n/a
359.556	0.105	719112	keystroke_n	n	n/a
360.321	0.09	720642	keystroke_g	g	n/a
360.531	0.135	721062	keystroke_u	u	n/a
361.236	0.075	722472	keystroke_i	i	n/a
361.401	0.105	722802	keystroke_n	n	n/a
361.6565	0.105	723313	keystroke_Key.enter	Key.enter	n/a
361.766	8.532	723532	prompt	n/a	airline separation voters build\n
362.4515	0.09	724903	keystroke_a	a	n/a
362.6765	0.105	725353	keystroke_i	i	n/a
363.0365	0.09	726073	keystroke_r	r	n/a
363.3815	0.12	726763	keystroke_l	l	n/a
364.2805	0.15	728561	keystroke_i	i	n/a
364.3865	0.149	728773	keystroke_n	n	n/a
364.5815	0.105	729163	keystroke_e	e	n/a
364.8505	0.1655	729701	keystroke_Key.space	Key.space	n/a
365.196	0.06	730392	keystroke_e	e	n/a
365.691	0.105	731382	keystroke_Key.backspace	Key.backspace	n/a
365.766	0.135	731532	keystroke_s	s	n/a
366.0215	0.09	732043	keystroke_e	e	n/a
366.2315	0.105	732463	keystroke_p	p	n/a
366.4265	0.15	732853	keystroke_a	a	n/a
366.5615	0.165	733123	keystroke_r	r	n/a
366.7865	0.1045	733573	keystroke_a	a	n/a
366.876	0.105	733752	keystroke_t	t	n/a
367.086	0.165	734172	keystroke_i	i	n/a
367.221	0.09	734442	keystroke_o	o	n/a
367.281	0.195	734562	keystroke_n	n	n/a
367.446	0.165	734892	keystroke_Key.space	Key.space	n/a
368.0165	0.12	736033	keystroke_v	v	n/a
368.1515	0.1195	736303	keystroke_o	o	n/a
368.451	0.09	736902	keystroke_t	t	n/a
368.601	0.135	737202	keystroke_e	e	n/a
368.721	0.12	737442	keystroke_r	r	n/a
368.916	0.105	737832	keystroke_s	s	n/a
369.051	0.135	738102	keystroke_Key.space	Key.space	n/a
369.381	0.075	738762	keystroke_b	b	n/a
369.531	0.12	739062	keystroke_u	u	n/a
369.681	0.105	739362	keystroke_i	i	n/a
369.831	0.135	739662	keystroke_l	l	n/a
370.0115	0.075	740023	keystroke_d	d	n/a
370.1765	0.12	740353	keystroke_Key.enter	Key.enter	n/a
370.3005	8.352	740601	prompt	n/a	debate forwarding pose controversy\n
371.0315	0.09	742063	keystroke_d	d	n/a
371.226	0.075	742452	keystroke_e	e	n/a
371.4515	0.1045	742903	keystroke_b	b	n/a
371.631	0.15	743262	keystroke_a	a	n/a
371.796	0.09	743592	keystroke_t	t	n/a
371.931	0.0905	743862	keystroke_e	e	n/a
372.1415	0.12	744283	keystroke_Key.space	Key.space	n/a
372.2765	0.12	744553	keystroke_f	f	n/a
372.4565	0.105	744913	keystroke_o	o	n/a
372.5615	0.105	745123	keystroke_r	r	n/a
372.9965	0.09	745993	keystroke_w	w	n/a
373.2365	0.165	746473	keystroke_a	a	n/a
373.4765	0.105	746953	keystroke_r	r	n/a
373.6865	0.105	747373	keystroke_d	d	n/a
373.8965	0.1795	747793	keystroke_i	i	n/a
373.9715	0.1795	747943	keystroke_n	n	n/a
374.196	0.12	748392	keystroke_g	g	n/a
374.361	0.15	748722	keystroke_Key.space	Key.space	n/a
374.631	0.1055	749262	keystroke_p	p	n/a
374.8555	0.106	749711	keystroke_o	o	n/a
374.9905	0.15	749981	keystroke_s	s	n/a
375.1255	0.136	750251	keystroke_e	e	n/a
375.3055	0.12	750611	keystroke_Key.space	Key.space	n/a
375.5005	0.105	751001	keystroke_c	c	n/a
375.6215	0.164	751243	keystroke_o	o	n/a
375.8015	0.134	751603	keystroke_n	n	n/a
376.0855	0.09	752171	keystroke_t	t	n/a
376.2965	0.0895	752593	keystroke_r	r	n/a
376.8805	0.12	753761	keystroke_o	o	n/a
377.0605	0.12	754121	keystroke_v	v	n/a
377.3455	0.135	754691	keystroke_e	e	n/a
377.5105	0.09	755021	keystroke_r	r	n/a
378.0665	0.105	756133	keystroke_s	s	n/a
378.2165	0.15	756433	keystroke_y	y	n/a
378.5455	0.105	757091	keystroke_Key.enter	Key.enter	n/a
378.6555	7.842	757311	prompt	n/a	indication recognize ultra fears\n
379.431	0.15	758862	keystroke_i	i	n/a
379.521	0.165	759042	keystroke_n	n	n/a
379.746	0.09	759492	keystroke_d	d	n/a
379.866	0.1195	759732	keystroke_i	i	n/a
380.0155	0.075	760031	keystroke_c	c	n/a
380.3005	0.135	760601	keystroke_a	a	n/a
380.4205	0.106	760841	keystroke_t	t	n/a
380.5705	0.135	761141	keystroke_i	i	n/a
380.6605	0.1655	761321	keystroke_o	o	n/a
380.7665	0.1945	761533	keystroke_n	n	n/a
380.931	0.1655	761862	keystroke_Key.space	Key.space	n/a
381.9665	0.1195	763933	keystroke_r	r	n/a
382.087	0.074	764174	keystroke_e	e	n/a
382.326	0.09	764652	keystroke_c	c	n/a
382.476	0.12	764952	keystroke_o	o	n/a
382.626	0.075	765252	keystroke_g	g	n/a
382.761	0.135	765522	keystroke_n	n	n/a
383.091	0.105	766182	keystroke_i	i	n/a
383.226	0.12	766452	keystroke_z	z	n/a
383.421	0.12	766842	keystroke_e	e	n/a
383.646	0.15	767292	keystroke_Key.space	Key.space	n/a
384.1565	0.12	768313	keystroke_u	u	n/a
384.3665	0.105	768733	keystroke_l	l	n/a
384.5165	0.1045	769033	keystroke_t	t	n/a
384.726	0.105	769452	keystroke_r	r	n/a
384.861	0.12	769722	keystroke_a	a	n/a
385.026	0.135	770052	keystroke_Key.space	Key.space	n/a
385.266	0.12	770532	keystroke_f	f	n/a
385.476	0.12	770952	keystroke_e	e	n/a
385.761	0.1655	771522	keystroke_a	a	n/a
385.8965	0.1195	771793	keystroke_r	r	n/a
386.136	0.105	772272	keystroke_s	s	n/a
386.421	0.075	772842	keystroke_Key.enter	Key.enter	n/a
386.5005	8.262	773001	prompt	n/a	princess genealogy linux mentioned\n
387.3065	0.134	774613	keystroke_p	p	n/a
387.5015	0.149	775003	keystroke_r	r	n/a
388.011	0.195	776022	keystroke_i	i	n/a
388.221	0.15	776442	keystroke_n	n	n/a
388.446	0.1805	776892	keystroke_c	c	n/a
388.776	0.09	777552	keystroke_e	e	n/a
389.016	0.075	778032	keystroke_s	s	n/a
389.226	0.075	778452	keystroke_s	s	n/a
389.496	0.165	778992	keystroke_Key.space	Key.space	n/a
389.841	0.09	779682	keystroke_g	g	n/a
390.021	0.0895	780042	keystroke_e	e	n/a
390.2005	0.136	780401	keystroke_n	n	n/a
390.3515	0.12	780703	keystroke_e	e	n/a
390.7715	0.105	781543	keystroke_a	a	n/a
390.9065	0.105	781813	keystroke_l	l	n/a
391.1465	0.09	782293	keystroke_o	o	n/a
391.3115	0.0895	782623	keystroke_g	g	n/a
391.491	0.105	782982	keystroke_y	y	n/a
391.731	0.135	783462	keystroke_Key.space	Key.space	n/a
392.046	0.075	784092	keystroke_l	l	n/a
392.271	0.12	784542	keystroke_i	i	n/a
392.361	0.135	784722	keystroke_n	n	n/a
392.646	0.12	785292	keystroke_u	u	n/a
392.826	0.135	785652	keystroke_x	x	n/a
393.006	0.135	786012	keystroke_Key.space	Key.space	n/a
393.261	0.15	786522	keystroke_m	m	n/a
393.441	0.105	786882	keystroke_e	e	n/a
393.606	0.135	787212	keystroke_n	n	n/a
393.786	0.09	787572	keystroke_t	t	n/a
393.906	0.135	787812	keystroke_i	i	n/a
394.011	0.1495	788022	keystroke_o	o	n/a
394.1305	0.15	788261	keystroke_n	n	n/a
394.2505	0.091	788501	keystroke_e	e	n/a
394.4455	0.09	788891	keystroke_d	d	n/a
394.6705	0.09	789341	keystroke_Key.enter	Key.enter	n/a
394.7655	9.552	789531	prompt	n/a	charity under participating cargo\n
395.4515	0.119	790903	keystroke_c	c	n/a
395.5855	0.1355	791171	keystroke_h	h	n/a
395.9765	0.135	791953	keystroke_a	a	n/a
396.3665	0.0895	792733	keystroke_r	r	n/a
396.606	0.12	793212	keystroke_i	i	n/a
396.801	0.105	793602	keystroke_t	t	n/a
397.041	0.105	794082	keystroke_y	y	n/a
397.296	0.165	794592	keystroke_Key.space	Key.space	n/a
397.642	0.089	795284	keystroke_u	u	n/a
397.851	0.105	795702	keystroke_n	n	n/a
398.0765	0.09	796153	keystroke_d	d	n/a
398.316	0.15	796632	keystroke_e	e	n/a
398.421	0.12	796842	keystroke_r	r	n/a
398.616	0.15	797232	keystroke_Key.space	Key.space	n/a
398.886	0.15	797772	keystroke_p	p	n/a
399.201	0.165	798402	keystroke_a	a	n/a
399.351	0.12	798702	keystroke_r	r	n/a
399.6065	0.105	799213	keystroke_t	t	n/a
399.8015	0.135	799603	keystroke_i	i	n/a
400.056	0.09	800112	keystroke_c	c	n/a
400.251	0.12	800502	keystroke_i	i	n/a
400.986	0.12	801972	keystroke_a	a	n/a
401.181	0.135	802362	keystroke_p	p	n/a
401.571	0.09	803142	keystroke_Key.backspace	Key.backspace	n/a
401.736	0.075	803472	keystroke_Key.backspace	Key.backspace	n/a
401.976	0.105	803952	keystroke_p	p	n/a
402.066	0.12	804132	keystroke_a	a	n/a
402.2605	0.091	804521	keystroke_t	t	n/a
402.3665	0.149	804733	keystroke_i	i	n/a
402.4405	0.151	804881	keystroke_n	n	n/a
402.6355	0.091	805271	keystroke_g	g	n/a
402.7105	0.135	805421	keystroke_Key.space	Key.space	n/a
403.0865	0.104	806173	keystroke_c	c	n/a
403.2965	0.239	806593	keystroke_a	a	n/a
403.5205	0.09	807041	keystroke_r	r	n/a
403.7765	0.044	807553	keystroke_g	g	n/a
403.9855	0.09	807971	keystroke_o	o	n/a
404.2105	0.105	808421	keystroke_Key.enter	Key.enter	n/a
404.321	10.8715	808642	prompt	n/a	fridge replies memorabilia bidder\n
405.0055	0.0755	810011	keystroke_f	f	n/a
405.201	0.09	810402	keystroke_r	r	n/a
405.336	0.105	810672	keystroke_i	i	n/a
405.486	0.105	810972	keystroke_d	d	n/a
405.681	0.135	811362	keystroke_g	g	n/a
405.801	0.09	811602	keystroke_e	e	n/a
406.1765	0.135	812353	keystroke_Key.space	Key.space	n/a
406.551	0.135	813102	keystroke_r	r	n/a
406.731	0.045	813462	keystroke_e	e	n/a
406.896	0.09	813792	keystroke_l	l	n/a
407.811	0.09	815622	keystroke_Key.backspace	Key.backspace	n/a
408.111	0.12	816222	keystroke_p	p	n/a
408.351	0.105	816702	keystroke_l	l	n/a
408.576	0.09	817152	keystroke_i	i	n/a
408.741	0.075	817482	keystroke_e	e	n/a
408.936	0.135	817872	keystroke_s	s	n/a
409.101	0.15	818202	keystroke_Key.space	Key.space	n/a
409.446	0.15	818892	keystroke_m	m	n/a
409.581	0.09	819162	keystroke_e	e	n/a
409.701	0.15	819402	keystroke_m	m	n/a
409.852	0.134	819704	keystroke_o	o	n/a
410.016	0.105	820032	keystroke_r	r	n/a
410.346	0.075	820692	keystroke_a	a	n/a
410.7365	0.09	821473	keystroke_b	b	n/a
410.8865	0.12	821773	keystroke_i	i	n/a
411.8165	0.074	823633	keystroke_l	l	n/a
411.996	0.12	823992	keystroke_i	i	n/a
412.176	0.135	824352	keystroke_a	a	n/a
412.341	0.135	824682	keystroke_Key.space	Key.space	n/a
412.731	0.09	825462	keystroke_b	b	n/a
412.911	0.135	825822	keystroke_i	i	n/a
413.5115	0.135	827023	keystroke_e	e	n/a
414.156	0.105	828312	keystroke_Key.backspace	Key.backspace	n/a
414.366	0.09	828732	keystroke_d	d	n/a
414.531	0.1055	829062	keystroke_d	d	n/a
414.7565	0.15	829513	keystroke_e	e	n/a
414.8615	0.135	829723	keystroke_r	r	n/a
415.1015	0.09	830203	keystroke_Key.enter	Key.enter	n/a
415.1955	10.107	830391	prompt	n/a	older million reliability pump\n
416.931	0.075	833862	keystroke_o	o	n/a
417.126	0.12	834252	keystroke_l	l	n/a
417.231	0.075	834462	keystroke_d	d	n/a
417.441	0.12	834882	keystroke_e	e	n/a
417.546	0.12	835092	keystroke_r	r	n/a
417.696	0.15	835392	keystroke_Key.space	Key.space	n/a
417.861	0.195	835722	keystroke_m	m	n/a
418.0255	0.1055	836051	keystroke_i	i	n/a
418.191	0.105	836382	keystroke_l	l	n/a
418.386	0.105	836772	keystroke_l	l	n/a
418.596	0.1055	837192	keystroke_i	i	n/a
418.7165	0.18	837433	keystroke_o	o	n/a
418.8515	0.195	837703	keystroke_n	n	n/a
419.0165	0.12	838033	keystroke_Key.space	Key.space	n/a
419.5265	0.09	839053	keystroke_r	r	n/a
419.7215	0.06	839443	keystroke_e	e	n/a
419.8265	0.075	839653	keystroke_l	l	n/a
419.9615	0.1345	839923	keystroke_i	i	n/a
420.171	0.1655	840342	keystroke_a	a	n/a
420.3665	0.1195	840733	keystroke_b	b	n/a
421.3265	0.15	842653	keystroke_i	i	n/a
422.5565	0.075	845113	keystroke_l	l	n/a
422.856	0.12	845712	keystroke_i	i	n/a
423.096	0.1055	846192	keystroke_t	t	n/a
423.306	0.1205	846612	keystroke_y	y	n/a
423.4415	0.1645	846883	keystroke_Key.space	Key.space	n/a
423.816	0.15	847632	keystroke_p	p	n/a
424.2655	0.166	848531	keystroke_u	u	n/a
424.6265	0.195	849253	keystroke_m	m	n/a
424.8505	0.166	849701	keystroke_p	p	n/a
425.196	0.105	850392	keystroke_Key.enter	Key.enter	n/a
425.3055	7.827	850611	prompt	n/a	therapist bunny climate reported\n
426.096	0.135	852192	keystroke_t	t	n/a
426.246	0.135	852492	keystroke_h	h	n/a
426.441	0.12	852882	keystroke_e	e	n/a
426.6205	0.135	853241	keystroke_r	r	n/a
426.8465	0.105	853693	keystroke_a	a	n/a
427.056	0.1205	854112	keystroke_p	p	n/a
427.2665	0.12	854533	keystroke_i	i	n/a
427.4165	0.18	854833	keystroke_s	s	n/a
427.581	0.12	855162	keystroke_t	t	n/a
428.121	0.1355	856242	keystroke_Key.space	Key.space	n/a
428.541	0.09	857082	keystroke_b	b	n/a
428.691	0.105	857382	keystroke_u	u	n/a
428.931	0.09	857862	keystroke_n	n	n/a
429.126	0.09	858252	keystroke_n	n	n/a
429.381	0.12	858762	keystroke_y	y	n/a
429.471	0.165	858942	keystroke_Key.space	Key.space	n/a
429.8465	0.1345	859693	keystroke_c	c	n/a
430.071	0.075	860142	keystroke_l	l	n/a
430.206	0.075	860412	keystroke_i	i	n/a
430.386	0.12	860772	keystroke_m	m	n/a
430.521	0.135	861042	keystroke_a	a	n/a
430.686	0.135	861372	keystroke_t	t	n/a
430.836	0.075	861672	keystroke_e	e	n/a
430.9555	0.165	861911	keystroke_Key.space	Key.space	n/a
431.511	0.12	863022	keystroke_r	r	n/a
431.646	0.09	863292	keystroke_e	e	n/a
431.886	0.075	863772	keystroke_p	p	n/a
432.051	0.12	864102	keystroke_o	o	n/a
432.201	0.09	864402	keystroke_r	r	n/a
432.411	0.105	864822	keystroke_t	t	n/a
432.546	0.09	865092	keystroke_e	e	n/a
432.771	0.075	865542	keystroke_d	d	n/a
433.026	0.105	866052	keystroke_Key.enter	Key.enter	n/a
433.1355	8.502	866271	prompt	n/a	excess utils collectors corrections\n
433.791	0.09	867582	keystroke_e	e	n/a
434.0305	0.12	868061	keystroke_x	x	n/a
434.541	0.15	869082	keystroke_c	c	n/a
434.826	0.075	869652	keystroke_e	e	n/a
435.021	0.075	870042	keystroke_s	s	n/a
435.186	0.09	870372	keystroke_s	s	n/a
435.336	0.15	870672	keystroke_Key.space	Key.space	n/a
435.726	0.12	871452	keystroke_u	u	n/a
435.936	0.105	871872	keystroke_t	t	n/a
436.101	0.12	872202	keystroke_i	i	n/a
436.326	0.12	872652	keystroke_l	l	n/a
436.536	0.075	873072	keystroke_s	s	n/a
436.761	0.18	873522	keystroke_Key.space	Key.space	n/a
437.061	0.135	874122	keystroke_c	c	n/a
437.241	0.105	874482	keystroke_o	o	n/a
437.496	0.075	874992	keystroke_l	l	n/a
437.661	0.105	875322	keystroke_l	l	n/a
437.751	0.09	875502	keystroke_e	e	n/a
437.991	0.09	875982	keystroke_c	c	n/a
438.306	0.105	876612	keystroke_t	t	n/a
438.666	0.12	877332	keystroke_o	o	n/a
438.846	0.075	877692	keystroke_r	r	n/a
439.026	0.09	878052	keystroke_s	s	n/a
439.1765	0.135	878353	keystroke_Key.space	Key.space	n/a
439.5665	0.105	879133	keystroke_c	c	n/a
439.6865	0.105	879373	keystroke_o	o	n/a
439.8665	0.06	879733	keystroke_r	r	n/a
440.0165	0.105	880033	keystroke_r	r	n/a
440.1515	0.075	880303	keystroke_e	e	n/a
440.4065	0.09	880813	keystroke_c	c	n/a
440.6315	0.0745	881263	keystroke_t	t	n/a
440.751	0.165	881502	keystroke_i	i	n/a
440.886	0.135	881772	keystroke_o	o	n/a
440.961	0.15	881922	keystroke_n	n	n/a
441.246	0.105	882492	keystroke_s	s	n/a
441.5455	0.09	883091	keystroke_Key.enter	Key.enter	n/a
441.642	8.4855	883284	prompt	n/a	reproduce chick porsche reproduced\n
442.446	0.105	884892	keystroke_r	r	n/a
442.581	0.075	885162	keystroke_e	e	n/a
442.791	0.105	885582	keystroke_p	p	n/a
442.926	0.09	885852	keystroke_r	r	n/a
443.076	0.1045	886152	keystroke_o	o	n/a
443.4065	0.074	886813	keystroke_d	d	n/a
443.5865	0.135	887173	keystroke_u	u	n/a
443.7505	0.091	887501	keystroke_c	c	n/a
443.9765	0.074	887953	keystroke_e	e	n/a
444.1405	0.15	888281	keystroke_Key.space	Key.space	n/a
444.621	0.105	889242	keystroke_c	c	n/a
444.876	0.135	889752	keystroke_h	h	n/a
444.996	0.135	889992	keystroke_i	i	n/a
445.176	0.09	890352	keystroke_c	c	n/a
445.416	0.15	890832	keystroke_k	k	n/a
445.521	0.135	891042	keystroke_Key.space	Key.space	n/a
445.851	0.105	891702	keystroke_p	p	n/a
446.076	0.1055	892152	keystroke_o	o	n/a
446.3465	0.12	892693	keystroke_r	r	n/a
446.6465	0.09	893293	keystroke_s	s	n/a
446.8865	0.09	893773	keystroke_c	c	n/a
447.0665	0.12	894133	keystroke_h	h	n/a
447.246	0.09	894492	keystroke_e	e	n/a
447.426	0.15	894852	keystroke_Key.space	Key.space	n/a
447.741	0.135	895482	keystroke_r	r	n/a
447.891	0.105	895782	keystroke_e	e	n/a
448.1005	0.105	896201	keystroke_p	p	n/a
448.2665	0.104	896533	keystroke_r	r	n/a
448.4305	0.09	896861	keystroke_o	o	n/a
448.6405	0.09	897281	keystroke_d	d	n/a
448.941	0.12	897882	keystroke_u	u	n/a
449.256	0.135	898512	keystroke_c	c	n/a
449.556	0.075	899112	keystroke_e	e	n/a
449.796	0.09	899592	keystroke_d	d	n/a
450.036	0.09	900072	keystroke_Key.enter	Key.enter	n/a
450.1305	5.622	900261	prompt	n/a	directions fusion quantum found\n
450.726	0.105	901452	keystroke_d	d	n/a
450.891	0.15	901782	keystroke_i	i	n/a
451.116	0.105	902232	keystroke_r	r	n/a
451.236	0.09	902472	keystroke_e	e	n/a
451.506	0.15	903012	keystroke_c	c	n/a
451.641	0.09	903282	keystroke_t	t	n/a
451.746	0.105	903492	keystroke_i	i	n/a
451.821	0.135	903642	keystroke_o	o	n/a
451.896	0.1495	903792	keystroke_n	n	n/a
452.0305	0.1205	904061	keystroke_s	s	n/a
452.181	0.12	904362	keystroke_Key.space	Key.space	n/a
452.316	0.1045	904632	keystroke_f	f	n/a
452.451	0.135	904902	keystroke_u	u	n/a
452.587	0.104	905174	keystroke_s	s	n/a
452.7365	0.105	905473	keystroke_i	i	n/a
452.8265	0.135	905653	keystroke_o	o	n/a
452.9315	0.18	905863	keystroke_n	n	n/a
453.0815	0.135	906163	keystroke_Key.space	Key.space	n/a
453.5015	0.135	907003	keystroke_q	q	n/a
453.6365	0.135	907273	keystroke_u	u	n/a
453.8015	0.135	907603	keystroke_a	a	n/a
453.9515	0.105	907903	keystroke_n	n	n/a
454.131	0.09	908262	keystroke_t	t	n/a
454.311	0.12	908622	keystroke_u	u	n/a
454.551	0.165	909102	keystroke_m	m	n/a
454.701	0.105	909402	keystroke_Key.space	Key.space	n/a
454.956	0.09	909912	keystroke_f	f	n/a
455.076	0.105	910152	keystroke_o	o	n/a
455.136	0.105	910272	keystroke_u	u	n/a
455.331	0.105	910662	keystroke_n	n	n/a
455.481	0.075	910962	keystroke_d	d	n/a
455.661	0.09	911322	keystroke_Key.enter	Key.enter	n/a
455.7555	11.3525	911511	prompt	n/a	advantages clarity maintaining england\n
456.3815	0.12	912763	keystroke_a	a	n/a
456.606	0.075	913212	keystroke_d	d	n/a
456.8155	0.105	913631	keystroke_v	v	n/a
456.9365	0.134	913873	keystroke_a	a	n/a
457.0855	0.12	914171	keystroke_n	n	n/a
457.2215	0.059	914443	keystroke_t	t	n/a
457.5355	0.121	915071	keystroke_a	a	n/a
458.271	0.075	916542	keystroke_g	g	n/a
458.406	0.075	916812	keystroke_e	e	n/a
458.706	0.105	917412	keystroke_s	s	n/a
458.901	0.135	917802	keystroke_Key.space	Key.space	n/a
459.111	0.105	918222	keystroke_c	c	n/a
459.7105	0.135	919421	keystroke_l	l	n/a
459.8605	0.2255	919721	keystroke_a	a	n/a
460.041	0.105	920082	keystroke_r	r	n/a
460.161	0.12	920322	keystroke_i	i	n/a
460.446	0.09	920892	keystroke_f	f	n/a
460.836	0.09	921672	keystroke_Key.backspace	Key.backspace	n/a
460.971	0.09	921942	keystroke_t	t	n/a
461.151	0.105	922302	keystroke_y	y	n/a
461.331	0.135	922662	keystroke_Key.space	Key.space	n/a
461.6315	0.15	923263	keystroke_m	m	n/a
461.7515	0.09	923503	keystroke_a	a	n/a
462.6355	0.1205	925271	keystroke_i	i	n/a
462.891	0.09	925782	keystroke_n	n	n/a
463.146	0.12	926292	keystroke_t	t	n/a
463.416	0.12	926832	keystroke_a	a	n/a
463.6105	0.15	927221	keystroke_i	i	n/a
464.316	0.09	928632	keystroke_n	n	n/a
464.556	0.135	929112	keystroke_i	i	n/a
464.661	0.135	929322	keystroke_n	n	n/a
464.826	0.09	929652	keystroke_g	g	n/a
465.0205	0.12	930041	keystroke_Key.space	Key.space	n/a
465.6355	0.045	931271	keystroke_e	e	n/a
465.7255	0.135	931451	keystroke_n	n	n/a
466.1465	0.0745	932293	keystroke_g	g	n/a
466.311	0.105	932622	keystroke_l	l	n/a
466.5215	0.1195	933043	keystroke_a	a	n/a
466.656	0.105	933312	keystroke_n	n	n/a
466.776	0.105	933552	keystroke_d	d	n/a
467.091	0.015	934182	keystroke_Key.enter	Key.enter	n/a
467.111	8.0365	934222	prompt	n/a	nitrogen pulse once candidate\n
467.871	0.135	935742	keystroke_n	n	n/a
468.066	0.135	936132	keystroke_i	i	n/a
468.246	0.105	936492	keystroke_t	t	n/a
468.456	0.075	936912	keystroke_r	r	n/a
468.576	0.09	937152	keystroke_o	o	n/a
468.711	0.075	937422	keystroke_g	g	n/a
468.876	0.09	937752	keystroke_e	e	n/a
469.026	0.165	938052	keystroke_n	n	n/a
469.161	0.165	938322	keystroke_Key.space	Key.space	n/a
469.521	0.15	939042	keystroke_p	p	n/a
469.701	0.135	939402	keystroke_u	u	n/a
469.941	0.1055	939882	keystroke_l	l	n/a
470.1365	0.15	940273	keystroke_s	s	n/a
470.2715	0.12	940543	keystroke_e	e	n/a
470.451	0.12	940902	keystroke_Key.space	Key.space	n/a
470.616	0.135	941232	keystroke_o	o	n/a
470.766	0.12	941532	keystroke_n	n	n/a
470.946	0.105	941892	keystroke_c	c	n/a
471.171	0.09	942342	keystroke_e	e	n/a
471.351	0.135	942702	keystroke_Key.space	Key.space	n/a
471.756	0.09	943512	keystroke_c	c	n/a
471.966	0.0905	943932	keystroke_a	a	n/a
472.1915	0.135	944383	keystroke_n	n	n/a
472.4465	0.105	944893	keystroke_d	d	n/a
472.6105	0.106	945221	keystroke_i	i	n/a
472.8355	0.135	945671	keystroke_d	d	n/a
473.571	0.135	947142	keystroke_t	t	n/a
474.306	0.135	948612	keystroke_Key.backspace	Key.backspace	n/a
474.426	0.1495	948852	keystroke_a	a	n/a
474.5905	0.12	949181	keystroke_t	t	n/a
474.8455	0.09	949691	keystroke_e	e	n/a
475.0105	0.135	950021	keystroke_Key.enter	Key.enter	n/a
475.152	9.821	950304	prompt	n/a	receipt excluded prisoner champion\n
476.1365	0.105	952273	keystroke_r	r	n/a
476.3015	0.075	952603	keystroke_e	e	n/a
476.5415	0.09	953083	keystroke_c	c	n/a
477.306	0.12	954612	keystroke_e	e	n/a
477.516	0.165	955032	keystroke_i	i	n/a
477.726	0.135	955452	keystroke_p	p	n/a
477.921	0.12	955842	keystroke_t	t	n/a
478.086	0.135	956172	keystroke_Key.space	Key.space	n/a
478.641	0.075	957282	keystroke_e	e	n/a
478.851	0.12	957702	keystroke_x	x	n/a
479.121	0.09	958242	keystroke_c	c	n/a
479.271	0.12	958542	keystroke_l	l	n/a
479.421	0.15	958842	keystroke_u	u	n/a
479.556	0.09	959112	keystroke_d	d	n/a
479.7655	0.075	959531	keystroke_e	e	n/a
479.9915	0.0745	959983	keystroke_d	d	n/a
480.321	0.18	960642	keystroke_Key.space	Key.space	n/a
480.621	0.135	961242	keystroke_p	p	n/a
480.816	0.12	961632	keystroke_r	r	n/a
480.966	0.12	961932	keystroke_i	i	n/a
481.251	0.1045	962502	keystroke_s	s	n/a
481.4305	0.196	962861	keystroke_o	o	n/a
481.6115	0.165	963223	keystroke_n	n	n/a
481.8665	0.15	963733	keystroke_e	e	n/a
481.9715	0.134	963943	keystroke_r	r	n/a
482.361	0.015	964722	keystroke_Key.space	Key.space	n/a
482.946	0.165	965892	keystroke_h	h	n/a
483.471	0.105	966942	keystroke_Key.backspace	Key.backspace	n/a
483.606	0.12	967212	keystroke_c	c	n/a
483.756	0.105	967512	keystroke_h	h	n/a
483.921	0.105	967842	keystroke_a	a	n/a
484.041	0.1655	968082	keystroke_m	m	n/a
484.1765	0.12	968353	keystroke_p	p	n/a
484.3715	0.119	968743	keystroke_i	i	n/a
484.5215	0.149	969043	keystroke_o	o	n/a
484.6255	0.121	969251	keystroke_n	n	n/a
484.8655	0.106	969731	keystroke_Key.enter	Key.enter	n/a
484.976	10.196	969952	prompt	n/a	interfaces achievement engineers were\n
486.066	0.09	972132	keystroke_i	i	n/a
486.111	0.15	972222	keystroke_n	n	n/a
486.426	0.105	972852	keystroke_t	t	n/a
486.576	0.105	973152	keystroke_e	e	n/a
486.651	0.09	973302	keystroke_r	r	n/a
486.861	0.09	973722	keystroke_f	f	n/a
487.041	0.075	974082	keystroke_a	a	n/a
487.191	0.12	974382	keystroke_c	c	n/a
487.431	0.075	974862	keystroke_e	e	n/a
487.611	0.075	975222	keystroke_s	s	n/a
487.731	0.15	975462	keystroke_Key.space	Key.space	n/a
488.031	0.1195	976062	keystroke_a	a	n/a
488.3005	0.105	976601	keystroke_c	c	n/a
488.4805	0.135	976961	keystroke_h	h	n/a
488.7205	0.12	977441	keystroke_i	i	n/a
489.0955	0.105	978191	keystroke_e	e	n/a
489.531	0.18	979062	keystroke_v	v	n/a
489.696	0.105	979392	keystroke_e	e	n/a
489.891	0.1195	979782	keystroke_m	m	n/a
490.0115	0.104	980023	keystroke_e	e	n/a
490.1305	0.105	980261	keystroke_n	n	n/a
490.2505	0.09	980501	keystroke_t	t	n/a
490.3855	0.105	980771	keystroke_Key.space	Key.space	n/a
490.5955	0.075	981191	keystroke_e	e	n/a
490.7005	0.135	981401	keystroke_n	n	n/a
491.1655	0.09	982331	keystroke_g	g	n/a
491.3755	0.105	982751	keystroke_i	i	n/a
491.5405	0.1355	983081	keystroke_n	n	n/a
491.721	0.12	983442	keystroke_e	e	n/a
492.186	0.09	984372	keystroke_r	r	n/a
492.666	0.12	985332	keystroke_Key.backspace	Key.backspace	n/a
493.311	0.09	986622	keystroke_e	e	n/a
493.536	0.09	987072	keystroke_r	r	n/a
493.941	0.1045	987882	keystroke_s	s	n/a
494.1055	0.15	988211	keystroke_Key.space	Key.space	n/a
494.4805	0.106	988961	keystroke_w	w	n/a
494.6005	0.151	989201	keystroke_e	e	n/a
494.7205	0.15	989441	keystroke_r	r	n/a
494.8555	0.076	989711	keystroke_e	e	n/a
495.0655	0.105	990131	keystroke_Key.enter	Key.enter	n/a
495.175	9.2375	990350	prompt	n/a	planner warranty withdrawal democratic\n
495.906	0.105	991812	keystroke_p	p	n/a
496.086	0.15	992172	keystroke_l	l	n/a
496.206	0.105	992412	keystroke_a	a	n/a
496.5805	0.075	993161	keystroke_n	n	n/a
496.7455	0.105	993491	keystroke_n	n	n/a
496.8955	0.1205	993791	keystroke_e	e	n/a
497.001	0.135	994002	keystroke_r	r	n/a
497.166	0.15	994332	keystroke_Key.space	Key.space	n/a
497.406	0.135	994812	keystroke_w	w	n/a
497.676	0.105	995352	keystroke_a	a	n/a
497.826	0.105	995652	keystroke_r	r	n/a
498.0355	0.105	996071	keystroke_r	r	n/a
498.2005	0.15	996401	keystroke_a	a	n/a
498.3955	0.12	996791	keystroke_n	n	n/a
498.5455	0.105	997091	keystroke_t	t	n/a
498.7105	0.165	997421	keystroke_y	y	n/a
498.8455	0.18	997691	keystroke_Key.space	Key.space	n/a
499.536	0.09	999072	keystroke_w	w	n/a
499.671	0.12	999342	keystroke_i	i	n/a
499.776	0.105	999552	keystroke_t	t	n/a
499.866	0.119	999732	keystroke_h	h	n/a
500.0155	0.12	1000031	keystroke_d	d	n/a
500.181	0.105	1000362	keystroke_r	r	n/a
500.39	0.1655	1000780	keystroke_a	a	n/a
500.781	0.09	1001562	keystroke_w	w	n/a
501.0805	0.105	1002161	keystroke_a	a	n/a
501.3205	0.165	1002641	keystroke_l	l	n/a
501.5005	0.1355	1003001	keystroke_Key.space	Key.space	n/a
502.221	0.06	1004442	keystroke_d	d	n/a
502.416	0.06	1004832	keystroke_e	e	n/a
502.536	0.15	1005072	keystroke_m	m	n/a
502.911	0.105	1005822	keystroke_o	o	n/a
503.061	0.09	1006122	keystroke_c	c	n/a
503.391	0.15	1006782	keystroke_r	r	n/a
503.601	0.09	1007202	keystroke_a	a	n/a
503.766	0.075	1007532	keystroke_t	t	n/a
503.901	0.1495	1007802	keystroke_i	i	n/a
504.0805	0.105	1008161	keystroke_c	c	n/a
504.2905	0.12	1008581	keystroke_Key.enter	Key.enter	n/a
504.4155	11.082	1008831	prompt	n/a	legendary missile developmental picked\n
505.4455	0.06	1010891	keystroke_l	l	n/a
505.5355	0.12	1011071	keystroke_e	e	n/a
505.8505	0.0755	1011701	keystroke_g	g	n/a
506.046	0.104	1012092	keystroke_e	e	n/a
506.181	0.12	1012362	keystroke_n	n	n/a
506.331	0.09	1012662	keystroke_d	d	n/a
506.54	0.18	1013080	keystroke_a	a	n/a
506.676	0.12	1013352	keystroke_r	r	n/a
506.87	0.136	1013740	keystroke_y	y	n/a
507.095	0.15	1014190	keystroke_Key.space	Key.space	n/a
507.56	0.181	1015120	keystroke_i	i	n/a
507.755	0.076	1015510	keystroke_s	s	n/a
507.921	0.119	1015842	keystroke_s	s	n/a
508.415	0.09	1016830	keystroke_Key.backspace	Key.backspace	n/a
508.596	0.09	1017192	keystroke_Key.backspace	Key.backspace	n/a
509.061	0.09	1018122	keystroke_Key.backspace	Key.backspace	n/a
509.286	0.1345	1018572	keystroke_m	m	n/a
509.4505	0.135	1018901	keystroke_i	i	n/a
509.6305	0.075	1019261	keystroke_s	s	n/a
509.7955	0.09	1019591	keystroke_s	s	n/a
510.1405	0.075	1020281	keystroke_i	i	n/a
510.3055	0.12	1020611	keystroke_l	l	n/a
510.4855	0.09	1020971	keystroke_e	e	n/a
510.6355	0.18	1021271	keystroke_Key.space	Key.space	n/a
510.9655	0.09	1021931	keystroke_d	d	n/a
511.1755	0.075	1022351	keystroke_e	e	n/a
511.4005	0.12	1022801	keystroke_v	v	n/a
511.5055	0.12	1023011	keystroke_e	e	n/a
511.6855	0.135	1023371	keystroke_l	l	n/a
512.076	0.135	1024152	keystroke_o	o	n/a
512.226	0.15	1024452	keystroke_p	p	n/a
512.72	0.151	1025440	keystroke_m	m	n/a
512.976	0.12	1025952	keystroke_e	e	n/a
513.186	0.105	1026372	keystroke_n	n	n/a
513.336	0.105	1026672	keystroke_t	t	n/a
513.516	0.12	1027032	keystroke_a	a	n/a
513.681	0.15	1027362	keystroke_l	l	n/a
513.801	0.164	1027602	keystroke_Key.space	Key.space	n/a
514.236	0.105	1028472	keystroke_p	p	n/a
514.416	0.105	1028832	keystroke_i	i	n/a
514.656	0.12	1029312	keystroke_c	c	n/a
514.836	0.135	1029672	keystroke_k	k	n/a
514.986	0.06	1029972	keystroke_e	e	n/a
515.181	0.09	1030362	keystroke_d	d	n/a
515.391	0.105	1030782	keystroke_Key.enter	Key.enter	n/a
515.5	10.527	1031000	prompt	n/a	earthquake violations facilities easter\n
516.3505	0.105	1032701	keystroke_e	e	n/a
516.5905	0.195	1033181	keystroke_a	a	n/a
516.7705	0.105	1033541	keystroke_r	r	n/a
517.0105	0.105	1034021	keystroke_t	t	n/a
517.1455	0.135	1034291	keystroke_h	h	n/a
517.5055	0.105	1035011	keystroke_q	q	n/a
517.7305	0.135	1035461	keystroke_u	u	n/a
517.9855	0.12	1035971	keystroke_a	a	n/a
518.3005	0.15	1036601	keystroke_k	k	n/a
518.5855	0.105	1037171	keystroke_e	e	n/a
518.8705	0.12	1037741	keystroke_Key.space	Key.space	n/a
519.1705	0.165	1038341	keystroke_v	v	n/a
519.4405	0.15	1038881	keystroke_i	i	n/a
519.7555	0.1205	1039511	keystroke_o	o	n/a
519.995	0.1355	1039990	keystroke_l	l	n/a
520.2205	0.1495	1040441	keystroke_a	a	n/a
520.4005	0.1045	1040801	keystroke_t	t	n/a
520.6405	0.21	1041281	keystroke_i	i	n/a
520.9405	0.15	1041881	keystroke_o	o	n/a
521.1055	0.1505	1042211	keystroke_n	n	n/a
521.436	0.105	1042872	keystroke_s	s	n/a
521.9005	0.12	1043801	keystroke_Key.space	Key.space	n/a
522.1255	0.165	1044251	keystroke_f	f	n/a
522.3505	0.091	1044701	keystroke_a	a	n/a
522.5605	0.105	1045121	keystroke_c	c	n/a
522.6805	0.12	1045361	keystroke_i	i	n/a
522.9205	0.15	1045841	keystroke_l	l	n/a
523.0855	0.12	1046171	keystroke_i	i	n/a
523.2955	0.12	1046591	keystroke_t	t	n/a
523.4305	0.105	1046861	keystroke_i	i	n/a
523.5505	0.0605	1047101	keystroke_e	e	n/a
523.716	0.09	1047432	keystroke_s	s	n/a
523.836	0.15	1047672	keystroke_Key.space	Key.space	n/a
524.391	0.09	1048782	keystroke_e	e	n/a
524.8705	0.1505	1049741	keystroke_a	a	n/a
525.125	0.12	1050250	keystroke_s	s	n/a
525.396	0.12	1050792	keystroke_t	t	n/a
525.575	0.106	1051150	keystroke_e	e	n/a
525.665	0.135	1051330	keystroke_r	r	n/a
525.92	0.1055	1051840	keystroke_Key.enter	Key.enter	n/a
526.0305	9.657	1052061	prompt	n/a	supporting soldiers powerful example\n
526.7455	0.12	1053491	keystroke_s	s	n/a
526.941	0.1495	1053882	keystroke_u	u	n/a
527.1355	0.105	1054271	keystroke_p	p	n/a
527.3455	0.105	1054691	keystroke_p	p	n/a
527.6005	0.105	1055201	keystroke_o	o	n/a
527.8705	0.075	1055741	keystroke_r	r	n/a
528.171	0.12	1056342	keystroke_t	t	n/a
528.426	0.165	1056852	keystroke_i	i	n/a
528.531	0.165	1057062	keystroke_n	n	n/a
528.846	0.09	1057692	keystroke_g	g	n/a
529.026	0.12	1058052	keystroke_Key.space	Key.space	n/a
529.371	0.09	1058742	keystroke_s	s	n/a
529.476	0.09	1058952	keystroke_o	o	n/a
529.686	0.1045	1059372	keystroke_l	l	n/a
529.8805	0.075	1059761	keystroke_d	d	n/a
530.2705	0.105	1060541	keystroke_i	i	n/a
530.496	0.15	1060992	keystroke_e	e	n/a
530.691	0.12	1061382	keystroke_r	r	n/a
530.961	0.09	1061922	keystroke_s	s	n/a
531.126	0.135	1062252	keystroke_Key.space	Key.space	n/a
531.336	0.135	1062672	keystroke_p	p	n/a
531.696	0.1045	1063392	keystroke_o	o	n/a
531.8755	0.09	1063751	keystroke_w	w	n/a
532.1605	0.12	1064321	keystroke_e	e	n/a
532.5505	0.1195	1065101	keystroke_r	r	n/a
532.806	0.12	1065612	keystroke_f	f	n/a
533.031	0.12	1066062	keystroke_u	u	n/a
533.226	0.1195	1066452	keystroke_l	l	n/a
533.4505	0.1205	1066901	keystroke_Key.space	Key.space	n/a
534.366	0.015	1068732	keystroke_e	e	n/a
534.546	0.135	1069092	keystroke_x	x	n/a
534.816	0.105	1069632	keystroke_a	a	n/a
534.9655	0.195	1069931	keystroke_m	m	n/a
535.1155	0.135	1070231	keystroke_p	p	n/a
535.2655	0.121	1070531	keystroke_l	l	n/a
535.4005	0.075	1070801	keystroke_e	e	n/a
535.5655	0.12	1071131	keystroke_Key.enter	Key.enter	n/a
535.6925	13.0755	1071385	prompt	n/a	horses computational vietnamese contrary\n
536.541	0.09	1073082	keystroke_h	h	n/a
536.616	0.1345	1073232	keystroke_o	o	n/a
537.0205	0.105	1074041	keystroke_r	r	n/a
537.291	0.12	1074582	keystroke_s	s	n/a
537.621	0.09	1075242	keystroke_e	e	n/a
537.831	0.09	1075662	keystroke_s	s	n/a
537.981	0.165	1075962	keystroke_Key.space	Key.space	n/a
538.251	0.15	1076502	keystroke_c	c	n/a
538.446	0.18	1076892	keystroke_o	o	n/a
538.581	0.225	1077162	keystroke_m	m	n/a
538.791	0.165	1077582	keystroke_p	p	n/a
539.076	0.15	1078152	keystroke_u	u	n/a
539.331	0.15	1078662	keystroke_t	t	n/a
540.1115	0.12	1080223	keystroke_a	a	n/a
540.3065	0.06	1080613	keystroke_t	t	n/a
540.4115	0.105	1080823	keystroke_i	i	n/a
540.4865	0.134	1080973	keystroke_o	o	n/a
540.5905	0.136	1081181	keystroke_n	n	n/a
540.7415	0.105	1081483	keystroke_a	a	n/a
540.9055	0.15	1081811	keystroke_l	l	n/a
540.9955	0.15	1081991	keystroke_Key.space	Key.space	n/a
541.4155	0.105	1082831	keystroke_v	v	n/a
541.5805	0.1355	1083161	keystroke_i	i	n/a
541.791	0.105	1083582	keystroke_e	e	n/a
542.286	0.135	1084572	keystroke_n	n	n/a
542.976	0.105	1085952	keystroke_Key.backspace	Key.backspace	n/a
543.126	0.075	1086252	keystroke_t	t	n/a
543.306	0.105	1086612	keystroke_n	n	n/a
543.606	0.105	1087212	keystroke_a	a	n/a
544.8205	0.136	1089641	keystroke_m	m	n/a
544.9705	0.105	1089941	keystroke_e	e	n/a
545.1955	0.135	1090391	keystroke_s	s	n/a
545.391	0.105	1090782	keystroke_e	e	n/a
545.601	0.15	1091202	keystroke_Key.space	Key.space	n/a
546.081	0.135	1092162	keystroke_c	c	n/a
546.201	0.165	1092402	keystroke_o	o	n/a
546.351	0.135	1092702	keystroke_n	n	n/a
546.651	0.105	1093302	keystroke_r	r	n/a
547.086	0.105	1094172	keystroke_Key.backspace	Key.backspace	n/a
547.416	0.12	1094832	keystroke_t	t	n/a
547.641	0.105	1095282	keystroke_r	r	n/a
547.881	0.09	1095762	keystroke_a	a	n/a
548.181	0.105	1096362	keystroke_r	r	n/a
548.406	0.1195	1096812	keystroke_y	y	n/a
548.6455	0.12	1097291	keystroke_Key.enter	Key.enter	n/a
548.7705	7.6915	1097541	prompt	n/a	yield html emphasis bottle\n
549.8455	0.105	1099691	keystroke_y	y	n/a
550.0265	0.119	1100053	keystroke_i	i	n/a
550.1765	0.075	1100353	keystroke_d	d	n/a
550.7905	0.09	1101581	keystroke_Key.backspace	Key.backspace	n/a
550.956	0.105	1101912	keystroke_e	e	n/a
551.106	0.12	1102212	keystroke_l	l	n/a
551.271	0.09	1102542	keystroke_d	d	n/a
551.421	0.18	1102842	keystroke_Key.space	Key.space	n/a
551.781	0.135	1103562	keystroke_h	h	n/a
552.006	0.12	1104012	keystroke_t	t	n/a
552.186	0.12	1104372	keystroke_m	m	n/a
552.366	0.18	1104732	keystroke_l	l	n/a
552.516	0.12	1105032	keystroke_Key.space	Key.space	n/a
552.876	0.09	1105752	keystroke_e	e	n/a
553.026	0.195	1106052	keystroke_m	m	n/a
553.206	0.135	1106412	keystroke_p	p	n/a
553.491	0.1195	1106982	keystroke_h	h	n/a
553.7305	0.165	1107461	keystroke_a	a	n/a
554.091	0.075	1108182	keystroke_s	s	n/a
554.331	0.105	1108662	keystroke_i	i	n/a
554.526	0.09	1109052	keystroke_s	s	n/a
554.856	0.15	1109712	keystroke_Key.space	Key.space	n/a
555.381	0.105	1110762	keystroke_b	b	n/a
555.531	0.105	1111062	keystroke_o	o	n/a
555.711	0.06	1111422	keystroke_t	t	n/a
555.876	0.09	1111752	keystroke_t	t	n/a
556.0105	0.12	1112021	keystroke_l	l	n/a
556.1455	0.09	1112291	keystroke_e	e	n/a
556.3405	0.12	1112681	keystroke_Key.enter	Key.enter	n/a
556.465	5.9375	1112930	prompt	n/a	mails sega actual connect\n
557.3155	0.165	1114631	keystroke_m	m	n/a
557.5105	0.135	1115021	keystroke_a	a	n/a
557.6305	0.18	1115261	keystroke_i	i	n/a
557.7815	0.15	1115563	keystroke_l	l	n/a
557.9465	0.105	1115893	keystroke_s	s	n/a
558.0805	0.12	1116161	keystroke_Key.space	Key.space	n/a
558.2915	0.104	1116583	keystroke_s	s	n/a
558.4255	0.12	1116851	keystroke_e	e	n/a
558.8455	0.09	1117691	keystroke_g	g	n/a
558.9965	0.119	1117993	keystroke_a	a	n/a
559.1905	0.151	1118381	keystroke_Key.space	Key.space	n/a
559.49	0.105	1118980	keystroke_a	a	n/a
559.7	0.0905	1119400	keystroke_c	c	n/a
559.911	0.0905	1119822	keystroke_t	t	n/a
560.1655	0.135	1120331	keystroke_u	u	n/a
560.3155	0.1205	1120631	keystroke_a	a	n/a
560.481	0.18	1120962	keystroke_l	l	n/a
560.616	0.15	1121232	keystroke_Key.space	Key.space	n/a
561.0655	0.105	1122131	keystroke_c	c	n/a
561.1855	0.105	1122371	keystroke_o	o	n/a
561.3965	0.074	1122793	keystroke_n	n	n/a
561.5765	0.104	1123153	keystroke_n	n	n/a
561.6955	0.0905	1123391	keystroke_e	e	n/a
561.966	0.1195	1123932	keystroke_c	c	n/a
562.1155	0.105	1124231	keystroke_t	t	n/a
562.2955	0.105	1124591	keystroke_Key.enter	Key.enter	n/a
562.4055	7.182	1124811	prompt	n/a	kits tree reservations confirmation\n
563.241	0.09	1126482	keystroke_k	k	n/a
563.451	0.12	1126902	keystroke_i	i	n/a
563.586	0.09	1127172	keystroke_t	t	n/a
563.736	0.105	1127472	keystroke_s	s	n/a
563.871	0.1795	1127742	keystroke_Key.space	Key.space	n/a
564.006	0.1045	1128012	keystroke_t	t	n/a
564.2155	0.0905	1128431	keystroke_r	r	n/a
564.426	0.0745	1128852	keystroke_e	e	n/a
564.5905	0.09	1129181	keystroke_e	e	n/a
564.7255	0.165	1129451	keystroke_Key.space	Key.space	n/a
564.9955	0.12	1129991	keystroke_r	r	n/a
565.1605	0.12	1130321	keystroke_e	e	n/a
565.4005	0.09	1130801	keystroke_s	s	n/a
565.4755	0.21	1130951	keystroke_e	e	n/a
565.7005	0.12	1131401	keystroke_r	r	n/a
566.061	0.15	1132122	keystroke_v	v	n/a
566.256	0.15	1132512	keystroke_a	a	n/a
566.466	0.09	1132932	keystroke_t	t	n/a
566.616	0.1345	1133232	keystroke_i	i	n/a
566.7205	0.15	1133441	keystroke_o	o	n/a
566.8105	0.15	1133621	keystroke_n	n	n/a
566.9755	0.105	1133951	keystroke_s	s	n/a
567.1855	0.12	1134371	keystroke_Key.space	Key.space	n/a
567.4255	0.105	1134851	keystroke_c	c	n/a
567.5155	0.135	1135031	keystroke_o	o	n/a
567.6955	0.105	1135391	keystroke_n	n	n/a
567.8455	0.105	1135691	keystroke_f	f	n/a
568.0255	0.1205	1136051	keystroke_i	i	n/a
568.206	0.09	1136412	keystroke_r	r	n/a
568.356	0.12	1136712	keystroke_m	m	n/a
568.521	0.1655	1137042	keystroke_a	a	n/a
568.6715	0.12	1137343	keystroke_t	t	n/a
568.8055	0.1355	1137611	keystroke_i	i	n/a
568.9115	0.1495	1137823	keystroke_o	o	n/a
569.0015	0.1495	1138003	keystroke_n	n	n/a
569.4955	0.09	1138991	keystroke_Key.enter	Key.enter	n/a
569.5915	6.791	1139183	prompt	n/a	binary exports federation ashley\n
570.4405	0.105	1140881	keystroke_b	b	n/a
570.5465	0.134	1141093	keystroke_i	i	n/a
570.6505	0.15	1141301	keystroke_n	n	n/a
570.7855	0.135	1141571	keystroke_a	a	n/a
570.8905	0.12	1141781	keystroke_r	r	n/a
571.041	0.135	1142082	keystroke_y	y	n/a
571.146	0.1645	1142292	keystroke_Key.space	Key.space	n/a
571.3405	0.06	1142681	keystroke_e	e	n/a
571.5655	0.105	1143131	keystroke_x	x	n/a
571.7905	0.12	1143581	keystroke_p	p	n/a
571.9855	0.1355	1143971	keystroke_o	o	n/a
572.151	0.105	1144302	keystroke_r	r	n/a
572.391	0.075	1144782	keystroke_t	t	n/a
572.601	0.105	1145202	keystroke_s	s	n/a
572.796	0.12	1145592	keystroke_Key.space	Key.space	n/a
573.036	0.105	1146072	keystroke_f	f	n/a
573.246	0.075	1146492	keystroke_e	e	n/a
573.441	0.075	1146882	keystroke_d	d	n/a
573.666	0.09	1147332	keystroke_e	e	n/a
573.816	0.12	1147632	keystroke_r	r	n/a
574.041	0.09	1148082	keystroke_a	a	n/a
574.115	0.106	1148230	keystroke_t	t	n/a
574.325	0.106	1148650	keystroke_i	i	n/a
574.416	0.149	1148832	keystroke_o	o	n/a
574.52	0.136	1149040	keystroke_n	n	n/a
574.926	0.134	1149852	keystroke_Key.space	Key.space	n/a
575.18	0.135	1150360	keystroke_a	a	n/a
575.405	0.106	1150810	keystroke_s	s	n/a
575.555	0.121	1151110	keystroke_h	h	n/a
575.75	0.106	1151500	keystroke_l	l	n/a
575.886	0.0895	1151772	keystroke_e	e	n/a
576.0505	0.09	1152101	keystroke_y	y	n/a
576.2755	0.105	1152551	keystroke_Key.enter	Key.enter	n/a
576.385	11.8625	1152770	prompt	n/a	casual christians describing foot\n
577.0555	0.105	1154111	keystroke_c	c	n/a
577.311	0.105	1154622	keystroke_a	a	n/a
577.461	0.105	1154922	keystroke_s	s	n/a
577.686	0.105	1155372	keystroke_u	u	n/a
577.956	0.105	1155912	keystroke_a	a	n/a
578.1655	0.12	1156331	keystroke_l	l	n/a
578.3005	0.135	1156601	keystroke_Key.space	Key.space	n/a
578.6455	0.12	1157291	keystroke_c	c	n/a
578.8105	0.15	1157621	keystroke_h	h	n/a
579.0655	0.135	1158131	keystroke_r	r	n/a
579.2305	0.1355	1158461	keystroke_i	i	n/a
579.426	0.0895	1158852	keystroke_s	s	n/a
579.6055	0.09	1159211	keystroke_i	i	n/a
579.8455	0.105	1159691	keystroke_t	t	n/a
580.0255	0.195	1160051	keystroke_i	i	n/a
580.1905	0.165	1160381	keystroke_n	n	n/a
580.4005	0.12	1160801	keystroke_a	a	n/a
580.701	0.074	1161402	keystroke_Key.backspace	Key.backspace	n/a
580.866	0.09	1161732	keystroke_Key.backspace	Key.backspace	n/a
581.016	0.135	1162032	keystroke_a	a	n/a
581.166	0.12	1162332	keystroke_n	n	n/a
581.346	0.105	1162692	keystroke_s	s	n/a
581.886	0.149	1163772	keystroke_Key.space	Key.space	n/a
582.2305	0.09	1164461	keystroke_d	d	n/a
582.4705	0.075	1164941	keystroke_e	e	n/a
582.6205	0.12	1165241	keystroke_s	s	n/a
