onset	duration	sample	value	key	prompt_text
5.9795	14.5515	11959	prompt	n/a	the quick brown fox jumps over a lazy dog\n
8.531	0.012	17062	keystroke	t	n/a
8.648	0.09	17296	keystroke	h	n/a
8.9175	0.09	17835	keystroke	e	n/a
10.8815	0.075	21763	keystroke	q	n/a
11.1215	0.1205	22243	keystroke	u	n/a
12.562	0.09	25124	keystroke	Key.backspace	n/a
12.727	0.105	25454	keystroke	Key.backspace	n/a
12.982	0.075	25964	keystroke	Key.space	n/a
13.537	0.075	27074	keystroke	q	n/a
13.732	0.09	27464	keystroke	u	n/a
13.867	0.12	27734	keystroke	i	n/a
14.017	0.105	28034	keystroke	c	n/a
14.137	0.12	28274	keystroke	k	n/a
14.242	0.09	28484	keystroke	Key.space	n/a
14.707	0.09	29414	keystroke	b	n/a
14.917	0.09	29834	keystroke	r	n/a
15.127	0.09	30254	keystroke	o	n/a
15.202	0.09	30404	keystroke	w	n/a
15.352	0.105	30704	keystroke	n	n/a
15.427	0.12	30854	keystroke	Key.space	n/a
15.607	0.09	31214	keystroke	f	n/a
15.712	0.12	31424	keystroke	o	n/a
15.892	0.105	31784	keystroke	x	n/a
16.012	0.105	32024	keystroke	Key.space	n/a
16.192	0.12	32384	keystroke	j	n/a
16.447	0.105	32894	keystroke	u	n/a
16.672	0.105	33344	keystroke	m	n/a
16.942	0.105	33884	keystroke	p	n/a
17.122	0.09	34244	keystroke	s	n/a
17.227	0.075	34454	keystroke	Key.space	n/a
17.407	0.105	34814	keystroke	o	n/a
17.542	0.06	35084	keystroke	v	n/a
17.692	0.09	35384	keystroke	e	n/a
17.752	0.06	35504	keystroke	r	n/a
17.857	0.09	35714	keystroke	Key.space	n/a
17.962	0.075	35924	keystroke	a	n/a
18.067	0.075	36134	keystroke	Key.space	n/a
18.187	0.105	36374	keystroke	l	n/a
18.892	0.075	37784	keystroke	a	n/a
19.132	0.105	38264	keystroke	z	n/a
19.402	0.15	38804	keystroke	y	n/a
19.522	0.09	39044	keystroke	Key.space	n/a
19.702	0.075	39404	keystroke	d	n/a
19.762	0.12	39524	keystroke	o	n/a
19.987	0.06	39974	keystroke	g	n/a
20.452	0.075	40904	keystroke	Key.enter	n/a
20.537	7.867	41074	prompt	n/a	jail bloom suite blowing\n
21.322	0.105	42644	keystroke	j	n/a
21.442	0.075	42884	keystroke	a	n/a
21.562	0.045	43124	keystroke	o	n/a
22.777	0.06	45554	keystroke	Key.backspace	n/a
23.467	0.06	46934	keystroke	i	n/a
23.602	0.12	47204	keystroke	l	n/a
23.827	0.0895	47654	keystroke	Key.space	n/a
24.0515	0.075	48103	keystroke	b	n/a
24.1715	0.0905	48343	keystroke	l	n/a
24.382	0.075	48764	keystroke	o	n/a
24.532	0.105	49064	keystroke	o	n/a
24.862	0.12	49724	keystroke	m	n/a
25.042	0.09	50084	keystroke	Key.space	n/a
25.492	0.06	50984	keystroke	s	n/a
25.732	0.09	51464	keystroke	u	n/a
25.927	0.09	51854	keystroke	i	n/a
26.047	0.075	52094	keystroke	t	n/a
26.212	0.09	52424	keystroke	e	n/a
26.392	0.09	52784	keystroke	Key.space	n/a
26.932	0.06	53864	keystroke	b	n/a
27.172	0.09	54344	keystroke	l	n/a
27.367	0.12	54734	keystroke	o	n/a
27.457	0.09	54914	keystroke	w	n/a
27.577	0.105	55154	keystroke	i	n/a
27.772	0.105	55544	keystroke	n	n/a
27.907	0.06	55814	keystroke	g	n/a
28.327	0.075	56654	keystroke	Key.enter	n/a
28.41	14.1555	56820	prompt	n/a	rejected reliability event adventure\n
29.287	0.09	58574	keystroke	f	n/a
29.782	0.075	59564	keystroke	e	n/a
30.832	0.045	61664	keystroke	Key.backspace	n/a
30.967	0.075	61934	keystroke	Key.backspace	n/a
31.192	0.12	62384	keystroke	r	n/a
31.297	0.09	62594	keystroke	e	n/a
31.657	0.105	63314	keystroke	j	n/a
31.777	0.06	63554	keystroke	e	n/a
32.017	0.12	64034	keystroke	c	n/a
32.917	0.075	65834	keystroke	t	n/a
33.067	0.075	66134	keystroke	e	n/a
33.262	0.075	66524	keystroke	d	n/a
33.367	0.09	66734	keystroke	Key.space	n/a
33.9065	0.1205	67813	keystroke	r	n/a
34.072	0.09	68144	keystroke	e	n/a
34.3265	0.105	68653	keystroke	l	n/a
34.537	0.09	69074	keystroke	i	n/a
34.642	0.09	69284	keystroke	a	n/a
35.002	0.075	70004	keystroke	b	n/a
35.227	0.06	70454	keystroke	i	n/a
35.407	0.09	70814	keystroke	l	n/a
35.662	0.075	71324	keystroke	i	n/a
35.782	0.045	71564	keystroke	t	n/a
35.932	0.075	71864	keystroke	y	n/a
35.947	0.061	71894	keystroke	u	n/a
36.157	0.075	72314	keystroke	Key.space	n/a
36.727	0.075	73454	keystroke	Key.backspace	n/a
36.907	0.075	73814	keystroke	Key.backspace	n/a
37.222	0.06	74444	keystroke	Key.space	n/a
37.822	0.06	75644	keystroke	e	n/a
38.002	0.075	76004	keystroke	v	n/a
38.122	0.06	76244	keystroke	e	n/a
38.272	0.105	76544	keystroke	n	n/a
38.362	0.105	76724	keystroke	Key.space	n/a
38.482	0.075	76964	keystroke	t	n/a
38.677	0.075	77354	keystroke	Key.space	n/a
39.4265	0.0755	78853	keystroke	Key.backspace	n/a
39.6515	0.0905	79303	keystroke	Key.backspace	n/a
39.847	0.105	79694	keystroke	Key.backspace	n/a
40.253	0.0735	80506	keystroke	t	n/a
40.3865	0.0905	80773	keystroke	Key.space	n/a
40.612	0.0755	81224	keystroke	a	n/a
40.882	0.09	81764	keystroke	d	n/a
41.197	0.0745	82394	keystroke	v	n/a
41.3765	0.0905	82753	keystroke	e	n/a
41.527	0.12	83054	keystroke	n	n/a
41.602	0.1045	83204	keystroke	t	n/a
41.8565	0.075	83713	keystroke	u	n/a
41.9765	0.09	83953	keystroke	r	n/a
42.052	0.091	84104	keystroke	e	n/a
42.487	0.075	84974	keystroke	Key.enter	n/a
42.5715	15.2335	85143	prompt	n/a	might've sought scoop publishing\n
43.702	0.105	87404	keystroke	m	n/a
43.837	0.135	87674	keystroke	i	n/a
44.077	0.09	88154	keystroke	g	n/a
44.197	0.075	88394	keystroke	h	n/a
44.302	0.075	88604	keystroke	t	n/a
47.831	0.012	95662	keystroke	'	n/a
48.682	0.075	97364	keystroke	v	n/a
49.283	0.074	98566	keystroke	e	n/a
49.462	0.09	98924	keystroke	Key.space	n/a
49.6865	0.091	99373	keystroke	s	n/a
50.167	0.091	100334	keystroke	o	n/a
50.227	0.1355	100454	keystroke	u	n/a
50.407	0.091	100814	keystroke	t	n/a
50.8415	0.105	101683	keystroke	h	n/a
50.962	0.075	101924	keystroke	g	n/a
51.592	0.09	103184	keystroke	Key.backspace	n/a
51.772	0.0745	103544	keystroke	Key.backspace	n/a
51.9215	0.0905	103843	keystroke	Key.backspace	n/a
52.507	0.076	105014	keystroke	g	n/a
52.598	0.119	105196	keystroke	h	n/a
52.658	0.09	105316	keystroke	t	n/a
52.822	0.0745	105644	keystroke	Key.space	n/a
53.557	0.09	107114	keystroke	s	n/a
53.782	0.091	107564	keystroke	c	n/a
53.9175	0.089	107835	keystroke	o	n/a
54.0825	0.1045	108165	keystroke	o	n/a
54.248	0.1495	108496	keystroke	p	n/a
54.4265	0.1055	108853	keystroke	Key.space	n/a
54.787	0.0895	109574	keystroke	p	n/a
54.9815	0.121	109963	keystroke	u	n/a
55.207	0.075	110414	keystroke	b	n/a
55.2965	0.121	110593	keystroke	l	n/a
55.7025	0.089	111405	keystroke	i	n/a
55.8375	0.105	111675	keystroke	s	n/a
56.3315	0.076	112663	keystroke	h	n/a
56.4815	0.106	112963	keystroke	i	n/a
56.647	0.1045	113294	keystroke	n	n/a
56.798	0.0745	113596	keystroke	g	n/a
57.7265	0.0755	115453	keystroke	Key.enter	n/a
57.8105	8.395	115621	prompt	n/a	individually occupational tale smoking\n
58.6875	0.09	117375	keystroke	i	n/a
58.8675	0.1355	117735	keystroke	n	n/a
59.0925	0.075	118185	keystroke	d	n/a
59.1975	0.09	118395	keystroke	i	n/a
59.3765	0.076	118753	keystroke	v	n/a
59.602	0.0905	119204	keystroke	i	n/a
59.8275	0.089	119655	keystroke	d	n/a
59.9465	0.121	119893	keystroke	u	n/a
60.052	0.075	120104	keystroke	a	n/a
60.1875	0.089	120375	keystroke	l	n/a
60.3525	0.12	120705	keystroke	l	n/a
60.5625	0.119	121125	keystroke	y	n/a
60.6515	0.135	121303	keystroke	Key.space	n/a
60.9525	0.105	121905	keystroke	o	n/a
61.207	0.0745	122414	keystroke	c	n/a
61.3265	0.091	122653	keystroke	c	n/a
61.4625	0.135	122925	keystroke	u	n/a
61.643	0.104	123286	keystroke	p	n/a
61.8215	0.091	123643	keystroke	a	n/a
62.0175	0.12	124035	keystroke	t	n/a
62.1225	0.209	124245	keystroke	i	n/a
62.2125	0.165	124425	keystroke	o	n/a
62.3025	0.165	124605	keystroke	n	n/a
62.4525	0.075	124905	keystroke	a	n/a
62.5565	0.136	125113	keystroke	l	n/a
62.7225	0.1045	125445	keystroke	Key.space	n/a
63.2915	0.106	126583	keystroke	t	n/a
63.8025	0.09	127605	keystroke	a	n/a
63.9215	0.105	127843	keystroke	l	n/a
64.0725	0.075	128145	keystroke	e	n/a
64.1925	0.12	128385	keystroke	Key.space	n/a
64.7465	0.075	129493	keystroke	s	n/a
64.8525	0.105	129705	keystroke	m	n/a
65.0325	0.105	130065	keystroke	o	n/a
65.3025	0.105	130605	keystroke	k	n/a
65.5425	0.09	131085	keystroke	i	n/a
65.7075	0.09	131415	keystroke	n	n/a
65.9175	0.0605	131835	keystroke	g	n/a
66.1275	0.075	132255	keystroke	Key.enter	n/a
66.2105	6.8945	132421	prompt	n/a	idle wishes presenting fact\n
67.2515	0.091	134503	keystroke	i	n/a
67.358	0.1045	134716	keystroke	d	n/a
67.6275	0.09	135255	keystroke	l	n/a
67.7025	0.06	135405	keystroke	e	n/a
67.8225	0.09	135645	keystroke	Key.space	n/a
68.2725	0.104	136545	keystroke	w	n/a
68.3925	0.09	136785	keystroke	i	n/a
68.7975	0.074	137595	keystroke	s	n/a
68.8875	0.105	137775	keystroke	h	n/a
69.0075	0.075	138015	keystroke	e	n/a
69.1725	0.075	138345	keystroke	s	n/a
69.6065	0.075	139213	keystroke	Key.space	n/a
70.5825	0.075	141165	keystroke	p	n/a
70.7925	0.12	141585	keystroke	r	n/a
70.8825	0.105	141765	keystroke	e	n/a
71.1075	0.09	142215	keystroke	s	n/a
71.2725	0.075	142545	keystroke	e	n/a
71.4525	0.105	142905	keystroke	n	n/a
71.5725	0.09	143145	keystroke	t	n/a
71.6925	0.075	143385	keystroke	i	n/a
71.8125	0.135	143625	keystroke	n	n/a
71.9325	0.105	143865	keystroke	g	n/a
72.0675	0.105	144135	keystroke	Key.space	n/a
72.2925	0.09	144585	keystroke	f	n/a
72.3975	0.09	144795	keystroke	a	n/a
72.6525	0.09	145305	keystroke	c	n/a
72.8025	0.09	145605	keystroke	t	n/a
73.0275	0.075	146055	keystroke	Key.enter	n/a
73.1095	12.055	146219	prompt	n/a	informed sink analog bouquet\n
73.9575	0.105	147915	keystroke	i	n/a
74.2125	0.12	148425	keystroke	n	n/a
74.4675	0.09	148935	keystroke	f	n/a
74.5425	0.12	149085	keystroke	o	n/a
74.6475	0.1495	149295	keystroke	m	n/a
76.5225	0.06	153045	keystroke	Key.backspace	n/a
76.9575	0.0745	153915	keystroke	r	n/a
77.138	0.104	154276	keystroke	m	n/a
77.257	0.06	154514	keystroke	e	n/a
77.452	0.06	154904	keystroke	d	n/a
77.542	0.075	155084	keystroke	Key.space	n/a
77.917	0.06	155834	keystroke	s	n/a
77.992	0.09	155984	keystroke	i	n/a
78.127	0.12	156254	keystroke	n	n/a
78.292	0.06	156584	keystroke	g	n/a
78.382	0.09	156764	keystroke	Key.space	n/a
78.562	0.075	157124	keystroke	a	n/a
78.802	0.0905	157604	keystroke	l	n/a
79.162	0.075	158324	keystroke	a	n/a
80.392	0.075	160784	keystroke	Key.backspace	n/a
80.602	0.075	161204	keystroke	Key.backspace	n/a
80.917	0.105	161834	keystroke	n	n/a
81.052	0.06	162104	keystroke	a	n/a
81.157	0.105	162314	keystroke	l	n/a
81.412	0.075	162824	keystroke	o	n/a
81.622	0.06	163244	keystroke	g	n/a
82.177	0.09	164354	keystroke	Key.space	n/a
82.642	0.075	165284	keystroke	b	n/a
82.897	0.105	165794	keystroke	o	n/a
82.972	0.136	165944	keystroke	u	n/a
84.127	0.105	168254	keystroke	q	n/a
84.412	0.105	168824	keystroke	u	n/a
84.652	0.075	169304	keystroke	e	n/a
84.892	0.075	169784	keystroke	t	n/a
85.072	0.09	170144	keystroke	Key.enter	n/a
85.173	8.7515	170346	prompt	n/a	reggae obituaries menus console\n
86.077	0.075	172154	keystroke	r	n/a
86.197	0.105	172394	keystroke	e	n/a
86.467	0.09	172934	keystroke	g	n/a
86.633	0.09	173266	keystroke	g	n/a
86.797	0.09	173594	keystroke	a	n/a
87.097	0.075	174194	keystroke	e	n/a
87.277	0.09	174554	keystroke	Key.space	n/a
87.832	0.105	175664	keystroke	o	n/a
87.997	0.09	175994	keystroke	b	n/a
88.147	0.105	176294	keystroke	i	n/a
88.297	0.075	176594	keystroke	t	n/a
88.477	0.09	176954	keystroke	u	n/a
88.657	0.091	177314	keystroke	a	n/a
89.152	0.09	178304	keystroke	r	n/a
89.362	0.09	178724	keystroke	i	n/a
89.467	0.075	178934	keystroke	e	n/a
89.692	0.075	179384	keystroke	s	n/a
89.872	0.09	179744	keystroke	Key.space	n/a
90.082	0.105	180164	keystroke	m	n/a
90.173	0.089	180346	keystroke	e	n/a
90.322	0.075	180644	keystroke	n	n/a
90.562	0.09	181124	keystroke	u	n/a
90.862	0.06	181724	keystroke	e	n/a
91.837	0.075	183674	keystroke	Key.backspace	n/a
92.317	0.09	184634	keystroke	s	n/a
92.542	0.09	185084	keystroke	Key.space	n/a
92.857	0.09	185714	keystroke	c	n/a
92.932	0.09	185864	keystroke	o	n/a
93.097	0.106	186194	keystroke	n	n/a
93.217	0.09	186434	keystroke	s	n/a
93.322	0.09	186644	keystroke	o	n/a
93.547	0.075	187094	keystroke	l	n/a
93.607	0.06	187214	keystroke	e	n/a
93.847	0.075	187694	keystroke	Key.enter	n/a
93.9305	19.854	187861	prompt	n/a	foundations pixels accepting psychological\n
94.943	0.074	189886	keystroke	f	n/a
95.092	0.105	190184	keystroke	o	n/a
95.168	0.089	190336	keystroke	u	n/a
95.392	0.105	190784	keystroke	n	n/a
95.467	0.09	190934	keystroke	d	n/a
95.617	0.105	191234	keystroke	a	n/a
95.692	0.075	191384	keystroke	t	n/a
95.783	0.164	191566	keystroke	i	n/a
95.873	0.135	191746	keystroke	o	n/a
95.932	0.105	191864	keystroke	n	n/a
96.127	0.09	192254	keystroke	s	n/a
96.802	0.09	193604	keystroke	Key.space	n/a
97.207	0.045	194414	keystroke	p	n/a
97.567	0.075	195134	keystroke	i	n/a
97.913	0.12	195826	keystroke	x	n/a
98.242	0.075	196484	keystroke	e	n/a
98.482	0.06	196964	keystroke	l	n/a
99.292	0.06	198584	keystroke	l	n/a
99.503	0.074	199006	keystroke	s	n/a
100.072	0.06	200144	keystroke	Key.space	n/a
101.0175	0.075	202035	keystroke	Key.backspace	n/a
101.1975	0.09	202395	keystroke	Key.backspace	n/a
101.3925	0.09	202785	keystroke	Key.backspace	n/a
101.8425	0.045	203685	keystroke	a	n/a
102.3225	0.075	204645	keystroke	Key.backspace	n/a
102.5325	0.06	205065	keystroke	s	n/a
102.8925	0.075	205785	keystroke	Key.space	n/a
103.0275	0.075	206055	keystroke	a	n/a
103.2975	0.075	206595	keystroke	c	n/a
103.4325	0.09	206865	keystroke	c	n/a
103.6275	0.06	207255	keystroke	e	n/a
103.7475	0.075	207495	keystroke	p	n/a
103.8525	0.075	207705	keystroke	t	n/a
104.0025	0.09	208005	keystroke	i	n/a
104.1825	0.105	208365	keystroke	n	n/a
104.3175	0.045	208635	keystroke	g	n/a
104.4225	0.09	208845	keystroke	Key.space	n/a
106.3875	0.09	212775	keystroke	p	n/a
106.7775	0.03	213555	keystroke	s	n/a
106.9575	0.105	213915	keystroke	y	n/a
107.1525	0.09	214305	keystroke	c	n/a
107.2575	0.12	214515	keystroke	h	n/a
107.4375	0.105	214875	keystroke	o	n/a
107.6625	0.105	215325	keystroke	l	n/a
108.7275	0.09	217455	keystroke	g	n/a
109.5675	0.09	219135	keystroke	=	n/a
111.0825	0.075	222165	keystroke	Key.backspace	n/a
111.2775	0.075	222555	keystroke	Key.backspace	n/a
112.1625	0.105	224325	keystroke	o	n/a
112.3575	0.076	224715	keystroke	g	n/a
112.4775	0.09	224955	keystroke	i	n/a
112.8225	0.105	225645	keystroke	c	n/a
112.9125	0.105	225825	keystroke	a	n/a
113.2725	0.075	226545	keystroke	l	n/a
113.7075	0.075	227415	keystroke	Key.enter	n/a
113.7915	8.258	227583	prompt	n/a	taxi michael committed resolved\n
115.4475	0.075	230895	keystroke	t	n/a
115.5825	0.06	231165	keystroke	a	n/a
115.8225	0.105	231645	keystroke	x	n/a
115.9425	0.105	231885	keystroke	i	n/a
116.0925	0.105	232185	keystroke	Key.space	n/a
116.5125	0.12	233025	keystroke	m	n/a
116.6775	0.105	233355	keystroke	i	n/a
116.8275	0.12	233655	keystroke	c	n/a
116.9625	0.12	233925	keystroke	h	n/a
117.0975	0.09	234195	keystroke	a	n/a
117.2325	0.06	234465	keystroke	e	n/a
117.3225	0.135	234645	keystroke	l	n/a
117.4425	0.12	234885	keystroke	Key.space	n/a
117.8025	0.075	235605	keystroke	c	n/a
118.0425	0.0895	236085	keystroke	o	n/a
118.2375	0.075	236475	keystroke	m	n/a
118.3875	0.09	236775	keystroke	m	n/a
118.657	0.0155	237314	keystroke	i	n/a
118.7025	0.075	237405	keystroke	t	n/a
118.8375	0.09	237675	keystroke	t	n/a
118.9875	0.075	237975	keystroke	e	n/a
119.2125	0.075	238425	keystroke	d	n/a
119.3325	0.075	238665	keystroke	Key.space	n/a
119.722	0.09	239444	keystroke	r	n/a
119.797	0.0755	239594	keystroke	e	n/a
119.9625	0.1195	239925	keystroke	s	n/a
120.067	0.0755	240134	keystroke	o	n/a
120.262	0.09	240524	keystroke	l	n/a
120.307	0.105	240614	keystroke	v	n/a
120.3975	0.0595	240795	keystroke	e	n/a
121.477	0.09	242954	keystroke	d	n/a
121.987	0.06	243974	keystroke	Key.enter	n/a
122.054	7.976	244108	prompt	n/a	variation poison issue thumbs\n
123.052	0.075	246104	keystroke	v	n/a
123.172	0.18	246344	keystroke	a	n/a
123.337	0.09	246674	keystroke	r	n/a
123.547	0.075	247094	keystroke	i	n/a
123.637	0.165	247274	keystroke	a	n/a
123.787	0.135	247574	keystroke	t	n/a
123.937	0.195	247874	keystroke	i	n/a
123.967	0.225	247934	keystroke	o	n/a
124.102	0.12	248204	keystroke	n	n/a
124.177	0.12	248354	keystroke	Key.space	n/a
124.477	0.09	248954	keystroke	p	n/a
124.717	0.12	249434	keystroke	o	n/a
125.107	0.075	250214	keystroke	i	n/a
125.407	0.075	250814	keystroke	s	n/a
125.542	0.105	251084	keystroke	o	n/a
125.707	0.12	251414	keystroke	n	n/a
125.797	0.12	251594	keystroke	Key.space	n/a
126.037	0.075	252074	keystroke	i	n/a
126.142	0.06	252284	keystroke	s	n/a
126.262	0.09	252524	keystroke	s	n/a
126.412	0.105	252824	keystroke	u	n/a
126.487	0.06	252974	keystroke	e	n/a
126.577	0.12	253154	keystroke	Key.space	n/a
126.772	0.075	253544	keystroke	t	n/a
126.832	0.105	253664	keystroke	h	n/a
127.057	0.075	254114	keystroke	u	n/a
127.282	0.075	254564	keystroke	m	n/a
127.477	0.06	254954	keystroke	b	n/a
127.702	0.075	255404	keystroke	s	n/a
130.015	0.012	260030	keystroke	Key.enter	n/a
130.0355	7.8085	260071	prompt	n/a	glen shock incredible accessory\n
131.002	0.09	262004	keystroke	g	n/a
131.122	0.105	262244	keystroke	l	n/a
131.212	0.06	262424	keystroke	e	n/a
131.812	0.12	263624	keystroke	n	n/a
131.947	0.09	263894	keystroke	Key.space	n/a
132.157	0.09	264314	keystroke	s	n/a
132.322	0.15	264644	keystroke	h	n/a
132.592	0.09	265184	keystroke	o	n/a
132.877	0.09	265754	keystroke	c	n/a
133.012	0.105	266024	keystroke	k	n/a
133.147	0.09	266294	keystroke	Key.space	n/a
133.597	0.075	267194	keystroke	i	n/a
133.792	0.075	267584	keystroke	n	n/a
133.897	0.12	267794	keystroke	c	n/a
134.137	0.121	268274	keystroke	r	n/a
134.287	0.09	268574	keystroke	e	n/a
134.497	0.09	268994	keystroke	d	n/a
134.647	0.09	269294	keystroke	i	n/a
134.932	0.075	269864	keystroke	b	n/a
135.382	0.09	270764	keystroke	l	n/a
135.457	0.075	270914	keystroke	e	n/a
135.577	0.09	271154	keystroke	Key.space	n/a
135.772	0.09	271544	keystroke	a	n/a
135.997	0.075	271994	keystroke	c	n/a
136.132	0.09	272264	keystroke	c	n/a
136.372	0.075	272744	keystroke	e	n/a
136.568	0.089	273136	keystroke	s	n/a
136.688	0.104	273376	keystroke	s	n/a
136.822	0.12	273644	keystroke	o	n/a
136.957	0.075	273914	keystroke	r	n/a
137.138	0.074	274276	keystroke	y	n/a
137.752	0.09	275504	keystroke	Key.enter	n/a
137.8505	15.294	275701	prompt	n/a	victor enabling monsters currently\n
143.2155	0.042	286431	keystroke	v	n/a
143.4375	0.075	286875	keystroke	i	n/a
143.5425	0.105	287085	keystroke	c	n/a
143.6925	0.12	287385	keystroke	o	n/a
143.7675	0.09	287535	keystroke	t	n/a
144.0665	0.091	288133	keystroke	Key.space	n/a
144.3965	0.076	288793	keystroke	e	n/a
144.9075	0.045	289815	keystroke	=	n/a
145.0875	0.03	290175	keystroke	Key.backspace	n/a
145.2225	0.075	290445	keystroke	Key.backspace	n/a
145.3875	0.09	290775	keystroke	Key.backspace	n/a
145.552	0.09	291104	keystroke	Key.backspace	n/a
145.732	0.09	291464	keystroke	Key.backspace	n/a
146.302	0.09	292604	keystroke	t	n/a
146.527	0.03	293054	keystroke	o	n/a
146.9475	0.075	293895	keystroke	r	n/a
147.0525	0.075	294105	keystroke	Key.space	n/a
147.4275	0.03	294855	keystroke	e	n/a
147.5475	0.075	295095	keystroke	n	n/a
147.6525	0.105	295305	keystroke	a	n/a
147.8175	0.0895	295635	keystroke	b	n/a
148.3725	0.09	296745	keystroke	l	n/a
148.5675	0.075	297135	keystroke	i	n/a
148.7625	0.1495	297525	keystroke	n	n/a
148.8825	0.0745	297765	keystroke	g	n/a
148.957	0.09	297914	keystroke	Key.space	n/a
149.0925	0.1045	298185	keystroke	m	n/a
149.257	0.105	298514	keystroke	o	n/a
149.4225	0.1045	298845	keystroke	n	n/a
149.6925	0.1945	299385	keystroke	s	n/a
149.857	0.105	299714	keystroke	t	n/a
150.037	0.135	300074	keystroke	e	n/a
150.142	0.0895	300284	keystroke	r	n/a
150.3365	0.075	300673	keystroke	s	n/a
150.4715	0.09	300943	keystroke	Key.space	n/a
151.3265	0.09	302653	keystroke	c	n/a
151.5065	0.105	303013	keystroke	u	n/a
151.6715	0.06	303343	keystroke	r	n/a
151.8065	0.1205	303613	keystroke	r	n/a
151.9115	0.105	303823	keystroke	e	n/a
152.2415	0.105	304483	keystroke	n	n/a
152.3615	0.06	304723	keystroke	t	n/a
152.4815	0.06	304963	keystroke	l	n/a
152.6165	0.105	305233	keystroke	y	n/a
153.067	0.075	306134	keystroke	Key.enter	n/a
153.149	14.3655	306298	prompt	n/a	textbooks lighter antiques frost\n
154.267	0.105	308534	keystroke	t	n/a
154.867	0.06	309734	keystroke	i	n/a
155.032	0.075	310064	keystroke	s	n/a
155.272	0.09	310544	keystroke	c	n/a
156.202	0.09	312404	keystroke	Key.backspace	n/a
156.367	0.105	312734	keystroke	Key.backspace	n/a
156.592	0.075	313184	keystroke	Key.backspace	n/a
157.237	0.06	314474	keystroke	e	n/a
157.897	0.09	315794	keystroke	x	n/a
158.152	0.075	316304	keystroke	t	n/a
158.977	0.015	317954	keystroke	b	n/a
159.037	0.06	318074	keystroke	o	n/a
159.277	0.09	318554	keystroke	o	n/a
159.517	0.075	319034	keystroke	k	n/a
159.727	0.075	319454	keystroke	s	n/a
159.832	0.075	319664	keystroke	Key.space	n/a
160.177	0.075	320354	keystroke	l	n/a
160.372	0.075	320744	keystroke	i	n/a
160.447	0.1045	320894	keystroke	g	n/a
160.5665	0.105	321133	keystroke	h	n/a
160.9715	0.06	321943	keystroke	t	n/a
161.1365	0.09	322273	keystroke	e	n/a
161.1665	0.075	322333	keystroke	r	n/a
161.3465	0.105	322693	keystroke	Key.space	n/a
161.8565	0.06	323713	keystroke	a	n/a
161.9615	0.12	323923	keystroke	n	n/a
162.2625	0.074	324525	keystroke	t	n/a
162.5315	0.075	325063	keystroke	i	n/a
162.9075	0.074	325815	keystroke	q	n/a
163.0715	0.09	326143	keystroke	u	n/a
163.1765	0.075	326353	keystroke	e	n/a
163.3725	0.104	326745	keystroke	s	n/a
163.8365	0.09	327673	keystroke	Key.space	n/a
164.4975	0.104	328995	keystroke	f	n/a
165.157	0.075	330314	keystroke	o	n/a
165.997	0.09	331994	keystroke	Key.backspace	n/a
166.342	0.105	332684	keystroke	r	n/a
166.702	0.105	333404	keystroke	o	n/a
166.912	0.09	333824	keystroke	s	n/a
167.077	0.09	334154	keystroke	t	n/a
167.437	0.075	334874	keystroke	Key.enter	n/a
167.5205	13.2835	335041	prompt	n/a	shower eagles reductions gives\n
168.457	0.09	336914	keystroke	s	n/a
168.577	0.105	337154	keystroke	h	n/a
168.742	0.105	337484	keystroke	o	n/a
168.832	0.09	337664	keystroke	w	n/a
169.042	0.09	338084	keystroke	e	n/a
169.117	0.09	338234	keystroke	r	n/a
169.252	0.075	338504	keystroke	Key.space	n/a
169.657	0.075	339314	keystroke	e	n/a
169.927	0.12	339854	keystroke	a	n/a
170.137	0.09	340274	keystroke	b	n/a
171.187	0.09	342374	keystroke	Key.backspace	n/a
171.427	0.075	342854	keystroke	g	n/a
171.697	0.09	343394	keystroke	l	n/a
171.788	0.089	343576	keystroke	e	n/a
171.997	0.075	343994	keystroke	s	n/a
172.132	0.075	344264	keystroke	Key.space	n/a
173.137	0.075	346274	keystroke	r	n/a
173.422	0.06	346844	keystroke	d	n/a
173.572	0.075	347144	keystroke	u	n/a
173.722	0.06	347444	keystroke	c	n/a
173.797	0.09	347594	keystroke	t	n/a
173.902	0.165	347804	keystroke	i	n/a
173.962	0.15	347924	keystroke	o	n/a
174.037	0.12	348074	keystroke	n	n/a
174.172	0.075	348344	keystroke	s	n/a
174.337	0.075	348674	keystroke	Key.space	n/a
175.402	0.105	350804	keystroke	Key.backspace	n/a
175.567	0.075	351134	keystroke	Key.backspace	n/a
175.747	0.075	351494	keystroke	Key.backspace	n/a
175.927	0.045	351854	keystroke	Key.backspace	n/a
176.092	0.06	352184	keystroke	Key.backspace	n/a
176.287	0.045	352574	keystroke	Key.backspace	n/a
176.437	0.06	352874	keystroke	Key.backspace	n/a
176.602	0.075	353204	keystroke	Key.backspace	n/a
176.782	0.075	353564	keystroke	Key.backspace	n/a
177.067	0.075	354134	keystroke	e	n/a
177.277	0.075	354554	keystroke	d	n/a
177.532	0.045	355064	keystroke	u	n/a
177.652	0.165	355304	keystroke	c	n/a
178.102	0.075	356204	keystroke	t	n/a
178.192	0.255	356384	keystroke	i	n/a
178.282	0.255	356564	keystroke	o	n/a
178.402	0.15	356804	keystroke	n	n/a
178.627	0.075	357254	keystroke	s	n/a
179.662	0.075	359324	keystroke	Key.space	n/a
179.947	0.075	359894	keystroke	g	n/a
180.052	0.09	360104	keystroke	i	n/a
180.143	0.089	360286	keystroke	v	n/a
180.233	0.089	360466	keystroke	e	n/a
180.577	0.075	361154	keystroke	s	n/a
180.727	0.075	361454	keystroke	Key.enter	n/a
180.809	13.33	361618	prompt	n/a	nerve frames laser species\n
181.657	0.12	363314	keystroke	n	n/a
181.942	0.12	363884	keystroke	e	n/a
182.032	0.135	364064	keystroke	r	n/a
182.722	0.06	365444	keystroke	v	n/a
182.962	0.075	365924	keystroke	e	n/a
183.157	0.075	366314	keystroke	Key.space	n/a
183.442	0.075	366884	keystroke	f	n/a
183.637	0.075	367274	keystroke	r	n/a
183.757	0.075	367514	keystroke	a	n/a
183.937	0.12	367874	keystroke	m	n/a
184.072	0.09	368144	keystroke	e	n/a
184.252	0.09	368504	keystroke	s	n/a
184.357	0.09	368714	keystroke	Key.space	n/a
184.538	0.134	369076	keystroke	l	n/a
184.627	0.135	369254	keystroke	a	n/a
184.882	0.105	369764	keystroke	s	n/a
185.032	0.09	370064	keystroke	t	n/a
185.197	0.12	370394	keystroke	e	n/a
185.287	0.09	370574	keystroke	r	n/a
185.392	0.12	370784	keystroke	Key.space	n/a
185.572	0.105	371144	keystroke	s	n/a
185.737	0.075	371474	keystroke	p	n/a
186.817	0.045	373634	keystroke	Key.backspace	n/a
187.102	0.09	374204	keystroke	Key.backspace	n/a
187.297	0.06	374594	keystroke	Key.backspace	n/a
187.462	0.06	374924	keystroke	Key.backspace	n/a
187.777	0.075	375554	keystroke	Key.backspace	n/a
187.957	0.075	375914	keystroke	Key.backspace	n/a
188.302	0.105	376604	keystroke	e	n/a
188.377	0.075	376754	keystroke	r	n/a
188.557	0.075	377114	keystroke	Key.space	n/a
189.532	0.075	379064	keystroke	s	n/a
189.667	0.105	379334	keystroke	p	n/a
189.802	0.075	379604	keystroke	e	n/a
190.417	0.075	380834	keystroke	c	n/a
190.552	0.09	381104	keystroke	i	n/a
190.867	0.06	381734	keystroke	e	n/a
191.197	0.075	382394	keystroke	s	n/a
191.407	0.045	382814	keystroke	]	n/a
192.532	0.06	385064	keystroke	Key.backspace	n/a
194.047	0.09	388094	keystroke	Key.enter	n/a
194.1445	17.125	388289	prompt	n/a	counting unexpected pharmaceuticals relative\n
195.502	0.06	391004	keystroke	c	n/a
195.8625	0.09	391725	keystroke	o	n/a
196.0425	0.075	392085	keystroke	u	n/a
196.2975	0.105	392595	keystroke	n	n/a
196.4475	0.089	392895	keystroke	t	n/a
196.5825	0.06	393165	keystroke	i	n/a
196.7165	0.121	393433	keystroke	n	n/a
196.8975	0.075	393795	keystroke	g	n/a
197.0325	0.09	394065	keystroke	Key.space	n/a
197.6175	0.075	395235	keystroke	u	n/a
197.8425	0.119	395685	keystroke	n	n/a
198.0375	0.074	396075	keystroke	e	n/a
198.2775	0.105	396555	keystroke	x	n/a
198.3975	0.105	396795	keystroke	p	n/a
198.5775	0.075	397155	keystroke	e	n/a
198.8025	0.135	397605	keystroke	c	n/a
198.9525	0.09	397905	keystroke	t	n/a
199.2975	0.06	398595	keystroke	d	n/a
200.5725	0.075	401145	keystroke	Key.backspace	n/a
200.8275	0.075	401655	keystroke	e	n/a
201.0675	0.06	402135	keystroke	d	n/a
201.2475	0.09	402495	keystroke	Key.space	n/a
202.0425	0.09	404085	keystroke	p	n/a
202.3125	0.075	404625	keystroke	h	n/a
202.7775	0.09	405555	keystroke	a	n/a
204.1575	0.075	408315	keystroke	r	n/a
204.2775	0.105	408555	keystroke	m	n/a
204.4875	0.06	408975	keystroke	a	n/a
204.8625	0.09	409725	keystroke	c	n/a
205.4325	0.075	410865	keystroke	e	n/a
205.7925	0.09	411585	keystroke	u	n/a
206.0775	0.075	412155	keystroke	t	n/a
206.1975	0.09	412395	keystroke	i	n/a
206.5725	0.09	413145	keystroke	c	n/a
206.7075	0.075	413415	keystroke	a	n/a
206.8875	0.09	413775	keystroke	l	n/a
207.0225	0.09	414045	keystroke	s	n/a
207.1875	0.12	414375	keystroke	Key.space	n/a
207.6825	0.075	415365	keystroke	r	n/a
207.7425	0.09	415485	keystroke	e	n/a
207.9375	0.09	415875	keystroke	l	n/a
208.0125	0.075	416025	keystroke	a	n/a
208.5075	0.075	417015	keystroke	t	n/a
208.9725	0.06	417945	keystroke	e	n/a
209.8875	0.09	419775	keystroke	Key.backspace	n/a
210.6225	0.075	421245	keystroke	i	n/a
210.8325	0.075	421665	keystroke	v	n/a
210.9225	0.06	421845	keystroke	e	n/a
211.1925	0.075	422385	keystroke	Key.enter	n/a
211.2835	7.441	422567	prompt	n/a	superb limiting height things\n
212.2425	0.06	424485	keystroke	s	n/a
212.6025	0.12	425205	keystroke	u	n/a
212.8725	0.075	425745	keystroke	p	n/a
213.0825	0.105	426165	keystroke	e	n/a
213.1575	0.12	426315	keystroke	r	n/a
213.4575	0.09	426915	keystroke	b	n/a
213.6225	0.09	427245	keystroke	Key.space	n/a
213.8925	0.105	427785	keystroke	l	n/a
214.1175	0.105	428235	keystroke	i	n/a
214.2525	0.12	428505	keystroke	m	n/a
214.4625	0.09	428925	keystroke	i	n/a
214.5975	0.075	429195	keystroke	t	n/a
214.7025	0.075	429405	keystroke	i	n/a
214.8525	0.135	429705	keystroke	n	n/a
215.0025	0.09	430005	keystroke	g	n/a
215.0775	0.105	430155	keystroke	Key.space	n/a
215.3185	0.134	430637	keystroke	h	n/a
215.4375	0.06	430875	keystroke	e	n/a
215.5575	0.105	431115	keystroke	i	n/a
215.7225	0.105	431445	keystroke	g	n/a
215.8575	0.105	431715	keystroke	h	n/a
215.9475	0.075	431895	keystroke	t	n/a
216.2175	0.075	432435	keystroke	Key.space	n/a
217.7025	0.075	435405	keystroke	t	n/a
217.7625	0.09	435525	keystroke	h	n/a
217.9125	0.06	435825	keystroke	i	n/a
218.0175	0.105	436035	keystroke	n	n/a
218.2275	0.075	436455	keystroke	g	n/a
218.3325	0.075	436665	keystroke	s	n/a
218.6475	0.075	437295	keystroke	Key.enter	n/a
218.7315	11.6775	437463	prompt	n/a	victory reader suzuki simpson\n
221.006	0.012	442012	keystroke	v	n/a
221.168	0.089	442336	keystroke	i	n/a
221.873	0.12	443746	keystroke	c	n/a
222.082	0.091	444164	keystroke	t	n/a
222.352	0.12	444704	keystroke	o	n/a
222.487	0.075	444974	keystroke	r	n/a
222.727	0.121	445454	keystroke	y	n/a
222.862	0.1045	445724	keystroke	Key.space	n/a
223.2825	0.074	446565	keystroke	r	n/a
223.4015	0.091	446803	keystroke	e	n/a
223.7165	0.061	447433	keystroke	a	n/a
224.0025	0.075	448005	keystroke	d	n/a
224.1815	0.075	448363	keystroke	e	n/a
224.2415	0.075	448483	keystroke	r	n/a
224.3465	0.09	448693	keystroke	Key.space	n/a
224.6775	0.059	449355	keystroke	s	n/a
224.8415	0.045	449683	keystroke	u	n/a
225.5025	0.105	451005	keystroke	z	n/a
225.6815	0.106	451363	keystroke	u	n/a
225.9825	0.135	451965	keystroke	k	n/a
226.2515	0.076	452503	keystroke	i	n/a
226.4025	0.089	452805	keystroke	Key.space	n/a
226.7025	0.059	453405	keystroke	s	n/a
226.9865	0.105	453973	keystroke	i	n/a
227.1825	0.119	454365	keystroke	m	n/a
227.3175	0.12	454635	keystroke	p	n/a
227.5575	0.059	455115	keystroke	o	n/a
228.6965	0.091	457393	keystroke	Key.backspace	n/a
229.5225	0.089	459045	keystroke	s	n/a
229.6415	0.09	459283	keystroke	o	n/a
229.8375	0.09	459675	keystroke	n	n/a
230.3325	0.074	460665	keystroke	Key.enter	n/a
230.4135	9.3855	460827	prompt	n/a	minus died roman photographer\n
231.5615	0.076	463123	keystroke	m	n/a
231.6975	0.089	463395	keystroke	i	n/a
231.8475	0.12	463695	keystroke	n	n/a
232.0115	0.091	464023	keystroke	s	n/a
232.1325	0.105	464265	keystroke	u	n/a
232.4015	0.106	464803	keystroke	Key.space	n/a
233.1665	0.075	466333	keystroke	Key.backspace	n/a
233.3615	0.09	466723	keystroke	Key.backspace	n/a
233.7515	0.091	467503	keystroke	Key.backspace	n/a
234.4275	0.135	468855	keystroke	u	n/a
234.5775	0.09	469155	keystroke	s	n/a
234.6815	0.105	469363	keystroke	Key.space	n/a
234.9065	0.075	469813	keystroke	d	n/a
234.9975	0.105	469995	keystroke	i	n/a
235.1175	0.044	470235	keystroke	e	n/a
235.2825	0.074	470565	keystroke	d	n/a
235.3865	0.09	470773	keystroke	Key.space	n/a
235.9115	0.075	471823	keystroke	r	n/a
236.0915	0.106	472183	keystroke	o	n/a
236.2875	0.104	472575	keystroke	m	n/a
236.4065	0.076	472813	keystroke	a	n/a
236.5565	0.151	473113	keystroke	n	n/a
236.6915	0.106	473383	keystroke	Key.space	n/a
237.2325	0.104	474465	keystroke	p	n/a
237.4425	0.09	474885	keystroke	h	n/a
237.6525	0.105	475305	keystroke	o	n/a
237.8475	0.09	475695	keystroke	t	n/a
237.9675	0.105	475935	keystroke	o	n/a
238.2225	0.09	476445	keystroke	g	n/a
238.4475	0.059	476895	keystroke	r	n/a
238.7025	0.06	477405	keystroke	a	n/a
238.9425	0.075	477885	keystroke	p	n/a
239.1375	0.074	478275	keystroke	h	n/a
239.2565	0.091	478513	keystroke	e	n/a
239.3165	0.075	478633	keystroke	r	n/a
239.7225	0.074	479445	keystroke	Key.enter	n/a
239.8045	8.755	479609	prompt	n/a	locked cups governor motorcycle\n
240.8775	0.075	481755	keystroke	l	n/a
241.0725	0.075	482145	keystroke	o	n/a
241.1175	0.105	482235	keystroke	c	n/a
241.2975	0.089	482595	keystroke	k	n/a
241.4175	0.06	482835	keystroke	e	n/a
241.6275	0.075	483255	keystroke	d	n/a
241.7315	0.091	483463	keystroke	Key.space	n/a
241.9575	0.09	483915	keystroke	c	n/a
242.0925	0.12	484185	keystroke	u	n/a
242.2875	0.075	484575	keystroke	p	n/a
242.6325	0.09	485265	keystroke	s	n/a
242.8725	0.075	485745	keystroke	Key.space	n/a
243.3375	0.075	486675	keystroke	g	n/a
243.6825	0.075	487365	keystroke	o	n/a
243.8175	0.089	487635	keystroke	v	n/a
244.0125	0.075	488025	keystroke	e	n/a
244.0725	0.09	488145	keystroke	r	n/a
244.2075	0.09	488415	keystroke	n	n/a
244.3725	0.12	488745	keystroke	o	n/a
244.4775	0.06	488955	keystroke	r	n/a
244.7475	0.105	489495	keystroke	Key.space	n/a
245.2875	0.105	490575	keystroke	m	n/a
245.4825	0.15	490965	keystroke	o	n/a
245.6775	0.105	491355	keystroke	t	n/a
245.8125	0.09	491625	keystroke	o	n/a
245.9175	0.105	491835	keystroke	r	n/a
246.4275	0.09	492855	keystroke	c	n/a
246.7425	0.09	493485	keystroke	y	n/a
247.1625	0.09	494325	keystroke	c	n/a
247.5525	0.09	495105	keystroke	l	n/a
247.8525	0.105	495705	keystroke	e	n/a
248.4675	0.09	496935	keystroke	Key.enter	n/a
248.5645	16.9445	497129	prompt	n/a	pipes calculations charged amended\n
250.1925	0.09	500385	keystroke	p	n/a
250.4325	0.0895	500865	keystroke	i	n/a
250.642	0.105	501284	keystroke	p	n/a
250.8375	0.075	501675	keystroke	e	n/a
251.032	0.1055	502064	keystroke	s	n/a
251.152	0.105	502304	keystroke	Key.space	n/a
251.4075	0.0895	502815	keystroke	c	n/a
251.797	0.075	503594	keystroke	l	n/a
253.012	0.075	506024	keystroke	Key.backspace	n/a
253.3425	0.09	506685	keystroke	a	n/a
253.7925	0.0895	507585	keystroke	l	n/a
254.047	0.09	508094	keystroke	c	n/a
254.182	0.1055	508364	keystroke	u	n/a
254.512	0.09	509024	keystroke	l	n/a
254.707	0.135	509414	keystroke	a	n/a
254.842	0.075	509684	keystroke	t	n/a
254.932	0.21	509864	keystroke	i	n/a
255.007	0.165	510014	keystroke	o	n/a
255.112	0.09	510224	keystroke	j	n/a
255.127	0.105	510254	keystroke	n	n/a
255.322	0.09	510644	keystroke	s	n/a
255.442	0.09	510884	keystroke	Key.space	n/a
256.312	0.075	512624	keystroke	Key.backspace	n/a
257.377	0.105	514754	keystroke	Key.backspace	n/a
257.587	0.12	515174	keystroke	Key.backspace	n/a
258.097	0.105	516194	keystroke	Key.backspace	n/a
259.027	0.09	518054	keystroke	n	n/a
259.192	0.09	518384	keystroke	s	n/a
259.342	0.045	518684	keystroke	Key.space	n/a
259.567	0.105	519134	keystroke	c	n/a
259.702	0.09	519404	keystroke	h	n/a
259.822	0.165	519644	keystroke	a	n/a
259.942	0.075	519884	keystroke	r	n/a
260.182	0.075	520364	keystroke	g	n/a
260.287	0.075	520574	keystroke	e	n/a
260.497	0.075	520994	keystroke	d	n/a
260.602	0.105	521204	keystroke	Key.space	n/a
261.247	0.06	522494	keystroke	a	n/a
261.382	0.105	522764	keystroke	m	n/a
261.532	0.075	523064	keystroke	e	n/a
261.682	0.105	523364	keystroke	n	n/a
261.742	0.12	523484	keystroke	d	n/a
261.967	0.06	523934	keystroke	e	n/a
262.132	0.075	524264	keystroke	d	n/a
263.107	0.075	526214	keystroke	]	n/a
264.592	0.06	529184	keystroke	Key.backspace	n/a
265.417	0.09	530834	keystroke	Key.enter	n/a
265.514	10.9295	531028	prompt	n/a	kijiji paris sequence allowing\n
268.09	0.042	536180	keystroke	k	n/a
268.282	0.09	536564	keystroke	i	n/a
269.302	0.105	538604	keystroke	j	n/a
269.512	0.09	539024	keystroke	i	n/a
269.872	0.12	539744	keystroke	j	n/a
270.067	0.105	540134	keystroke	i	n/a
270.307	0.09	540614	keystroke	Key.space	n/a
270.502	0.105	541004	keystroke	p	n/a
270.652	0.135	541304	keystroke	a	n/a
270.788	0.104	541576	keystroke	r	n/a
270.952	0.09	541904	keystroke	i	n/a
271.072	0.09	542144	keystroke	s	n/a
271.537	0.075	543074	keystroke	Key.space	n/a
271.867	0.06	543734	keystroke	s	n/a
272.122	0.09	544244	keystroke	e	n/a
272.842	0.09	545684	keystroke	q	n/a
273.202	0.075	546404	keystroke	u	n/a
273.412	0.015	546824	keystroke	e	n/a
273.517	0.09	547034	keystroke	n	n/a
273.742	0.075	547484	keystroke	c	n/a
273.967	0.045	547934	keystroke	e	n/a
274.342	0.06	548684	keystroke	Key.space	n/a
274.747	0.06	549494	keystroke	a	n/a
274.882	0.09	549764	keystroke	l	n/a
275.047	0.09	550094	keystroke	l	n/a
275.257	0.09	550514	keystroke	o	n/a
275.302	0.09	550604	keystroke	w	n/a
275.827	0.06	551654	keystroke	i	n/a
275.992	0.09	551984	keystroke	n	n/a
276.112	0.06	552224	keystroke	g	n/a
276.367	0.075	552734	keystroke	Key.enter	n/a
276.4475	18.2965	552895	prompt	n/a	abstracts educational endif russell\n
277.357	0.09	554714	keystroke	a	n/a
277.777	0.075	555554	keystroke	b	n/a
278.017	0.105	556034	keystroke	s	n/a
278.257	0.09	556514	keystroke	t	n/a
278.452	0.09	556904	keystroke	r	n/a
278.752	0.135	557504	keystroke	c	n/a
278.992	0.075	557984	keystroke	t	n/a
279.247	0.09	558494	keystroke	s	n/a
279.952	0.105	559904	keystroke	Key.backspace	n/a
280.147	0.09	560294	keystroke	Key.backspace	n/a
280.342	0.075	560684	keystroke	Key.backspace	n/a
280.522	0.09	561044	keystroke	Key.backspace	n/a
281.002	0.06	562004	keystroke	a	n/a
281.242	0.09	562484	keystroke	c	n/a
281.392	0.105	562784	keystroke	t	n/a
281.647	0.09	563294	keystroke	s	n/a
282.322	0.09	564644	keystroke	Key.space	n/a
284.845	0	569690	keystroke	Key.backspace	n/a
284.947	0.075	569894	keystroke	Key.backspace	n/a
285.142	0.075	570284	keystroke	Key.backspace	n/a
285.322	0.075	570644	keystroke	Key.backspace	n/a
285.547	0.03	571094	keystroke	Key.backspace	n/a
285.952	0.03	571904	keystroke	r	n/a
286.177	0.075	572354	keystroke	a	n/a
286.387	0.12	572774	keystroke	c	n/a
286.582	0.09	573164	keystroke	t	n/a
286.777	0.09	573554	keystroke	s	n/a
287.257	0.075	574514	keystroke	Key.space	n/a
287.692	0.075	575384	keystroke	e	n/a
287.887	0.09	575774	keystroke	d	n/a
288.052	0.075	576104	keystroke	u	n/a
288.262	0.105	576524	keystroke	c	n/a
288.472	0.09	576944	keystroke	a	n/a
288.697	0.06	577394	keystroke	t	n/a
288.817	0.135	577634	keystroke	i	n/a
289.057	0.105	578114	keystroke	o	n/a
289.237	0.105	578474	keystroke	n	n/a
289.402	0.075	578804	keystroke	a	n/a
289.537	0.1345	579074	keystroke	l	n/a
289.657	0.0895	579314	keystroke	Key.space	n/a
291.0065	0.075	582013	keystroke	e	n/a
291.2165	0.0905	582433	keystroke	n	n/a
291.443	0.074	582886	keystroke	d	n/a
291.6065	0.0755	583213	keystroke	i	n/a
291.8015	0.0905	583603	keystroke	f	n/a
292.117	0.0745	584234	keystroke	Key.space	n/a
292.972	0.0895	585944	keystroke	r	n/a
293.2415	0.0905	586483	keystroke	u	n/a
293.377	0.06	586754	keystroke	s	n/a
293.5115	0.09	587023	keystroke	s	n/a
294.0215	0.075	588043	keystroke	e	n/a
294.1715	0.075	588343	keystroke	l	n/a
294.352	0.09	588704	keystroke	l	n/a
294.6665	0.075	589333	keystroke	Key.enter	n/a
294.751	9.9225	589502	prompt	n/a	linking sims surprised weddings\n
295.9115	0.075	591823	keystroke	l	n/a
296.1215	0.075	592243	keystroke	i	n/a
296.2865	0.105	592573	keystroke	n	n/a
296.4365	0.121	592873	keystroke	i	n/a
297.7865	0.075	595573	keystroke	Key.backspace	n/a
299.0165	0.09	598033	keystroke	k	n/a
299.2565	0.075	598513	keystroke	i	n/a
299.4515	0.091	598903	keystroke	n	n/a
299.7065	0.075	599413	keystroke	g	n/a
299.9465	0.06	599893	keystroke	Key.space	n/a
300.3675	0.075	600735	keystroke	s	n/a
300.5165	0.09	601033	keystroke	i	n/a
300.6665	0.12	601333	keystroke	m	n/a
300.8465	0.09	601693	keystroke	s	n/a
300.9665	0.09	601933	keystroke	Key.space	n/a
301.2375	0.074	602475	keystroke	s	n/a
301.4165	0.1045	602833	keystroke	u	n/a
301.821	0.09	603642	keystroke	r	n/a
301.986	0.106	603972	keystroke	p	n/a
302.211	0.09	604422	keystroke	r	n/a
302.346	0.075	604692	keystroke	i	n/a
302.571	0.09	605142	keystroke	s	n/a
302.767	0.074	605534	keystroke	e	n/a
302.946	0.09	605892	keystroke	d	n/a
303.051	0.09	606102	keystroke	Key.space	n/a
303.351	0.075	606702	keystroke	w	n/a
303.502	0.089	607004	keystroke	e	n/a
303.756	0.075	607512	keystroke	d	n/a
303.892	0.089	607784	keystroke	d	n/a
303.996	0.075	607992	keystroke	i	n/a
304.132	0.104	608264	keystroke	n	n/a
304.251	0.09	608502	keystroke	g	n/a
304.371	0.075	608742	keystroke	s	n/a
304.596	0.075	609192	keystroke	Key.enter	n/a
304.6795	18.7435	609359	prompt	n/a	opening draft mirrors specifics\n
316.06	0.027	632120	keystroke	o	n/a
316.176	0.105	632352	keystroke	p	n/a
316.312	0.075	632624	keystroke	e	n/a
316.417	0.104	632834	keystroke	n	n/a
317.062	0.075	634124	keystroke	i	n/a
317.182	0.165	634364	keystroke	n	n/a
317.332	0.09	634664	keystroke	g	n/a
317.437	0.059	634874	keystroke	Key.space	n/a
317.917	0.09	635834	keystroke	d	n/a
318.052	0.135	636104	keystroke	r	n/a
318.292	0.045	636584	keystroke	a	n/a
318.787	0.06	637574	keystroke	f	n/a
318.952	0.075	637904	keystroke	t	n/a
319.087	0.09	638174	keystroke	Key.space	n/a
319.387	0.075	638774	keystroke	m	n/a
319.522	0.105	639044	keystroke	i	n/a
319.732	0.045	639464	keystroke	r	n/a
319.852	0.09	639704	keystroke	r	n/a
319.972	0.09	639944	keystroke	o	n/a
320.362	0.075	640724	keystroke	r	n/a
320.527	0.09	641054	keystroke	s	n/a
320.632	0.09	641264	keystroke	Key.space	n/a
321.022	0.075	642044	keystroke	s	n/a
321.127	0.105	642254	keystroke	p	n/a
321.292	0.09	642584	keystroke	e	n/a
321.547	0.075	643094	keystroke	c	n/a
321.667	0.09	643334	keystroke	i	n/a
321.892	0.075	643784	keystroke	f	n/a
322.012	0.09	644024	keystroke	i	n/a
322.7165	0.09	645433	keystroke	c	n/a
322.8965	0.075	645793	keystroke	s	n/a
323.3615	0.06	646723	keystroke	Key.enter	n/a
323.4275	8.441	646855	prompt	n/a	exactly bras worldwide marriott\n
324.2615	0.06	648523	keystroke	e	n/a
324.4865	0.12	648973	keystroke	x	n/a
324.7415	0.075	649483	keystroke	a	n/a
325.0115	0.135	650023	keystroke	c	n/a
325.1315	0.075	650263	keystroke	t	n/a
325.2965	0.105	650593	keystroke	l	n/a
325.4315	0.195	650863	keystroke	y	n/a
325.6115	0.12	651223	keystroke	Key.space	n/a
326.2265	0.075	652453	keystroke	b	n/a
326.4515	0.105	652903	keystroke	r	n/a
326.6015	0.105	653203	keystroke	a	n/a
326.8265	0.075	653653	keystroke	s	n/a
326.9915	0.09	653983	keystroke	Key.space	n/a
327.6065	0.105	655213	keystroke	w	n/a
328.0115	0.09	656023	keystroke	o	n/a
328.1165	0.09	656233	keystroke	r	n/a
328.7615	0.075	657523	keystroke	l	n/a
328.9565	0.075	657913	keystroke	d	n/a
329.3165	0.075	658633	keystroke	w	n/a
329.4665	0.09	658933	keystroke	i	n/a
329.6165	0.09	659233	keystroke	d	n/a
329.7965	0.06	659593	keystroke	e	n/a
329.9015	0.105	659803	keystroke	Key.space	n/a
330.3065	0.09	660613	keystroke	m	n/a
330.4265	0.105	660853	keystroke	a	n/a
330.6665	0.045	661333	keystroke	r	n/a
330.7865	0.075	661573	keystroke	r	n/a
330.8765	0.09	661753	keystroke	i	n/a
331.0865	0.075	662173	keystroke	o	n/a
331.3565	0.06	662713	keystroke	t	n/a
331.4915	0.06	662983	keystroke	t	n/a
331.8065	0.06	663613	keystroke	Key.enter	n/a
331.873	10.2705	663746	prompt	n/a	chevrolet friends plant disputes\n
332.8265	0.105	665653	keystroke	c	n/a
332.9465	0.09	665893	keystroke	h	n/a
333.0815	0.075	666163	keystroke	e	n/a
333.5475	0.059	667095	keystroke	v	n/a
333.8165	0.075	667633	keystroke	r	n/a
334.0115	0.075	668023	keystroke	o	n/a
334.2065	0.12	668413	keystroke	l	n/a
334.3115	0.075	668623	keystroke	e	n/a
334.5065	0.06	669013	keystroke	t	n/a
334.5965	0.105	669193	keystroke	Key.space	n/a
334.836	0.0905	669672	keystroke	f	n/a
335.016	0.0755	670032	keystroke	r	n/a
336.801	0.09	673602	keystroke	i	n/a
337.101	0.045	674202	keystroke	e	n/a
337.2665	0.0895	674533	keystroke	n	n/a
337.357	0.089	674714	keystroke	d	n/a
337.551	0.09	675102	keystroke	s	n/a
337.671	0.12	675342	keystroke	Key.space	n/a
337.926	0.09	675852	keystroke	p	n/a
338.1365	0.1055	676273	keystroke	l	n/a
338.2115	0.09	676423	keystroke	a	n/a
338.391	0.12	676782	keystroke	n	n/a
339.3515	0.0895	678703	keystroke	t	n/a
339.501	0.0755	679002	keystroke	Key.space	n/a
339.862	0.075	679724	keystroke	d	n/a
340.311	0.06	680622	keystroke	i	n/a
340.402	0.089	680804	keystroke	s	n/a
340.581	0.136	681162	keystroke	p	n/a
340.912	0.089	681824	keystroke	u	n/a
341.046	0.075	682092	keystroke	t	n/a
341.376	0.06	682752	keystroke	e	n/a
341.616	0.09	683232	keystroke	s	n/a
342.066	0.075	684132	keystroke	Key.enter	n/a
342.1475	6.4315	684295	prompt	n/a	raid offshore hill replacement\n
343.072	0.089	686144	keystroke	r	n/a
343.326	0.075	686652	keystroke	a	n/a
343.491	0.09	686982	keystroke	i	n/a
343.641	0.075	687282	keystroke	d	n/a
343.776	0.075	687552	keystroke	Key.space	n/a
343.911	0.105	687822	keystroke	o	n/a
344.031	0.06	688062	keystroke	f	n/a
344.151	0.09	688302	keystroke	f	n/a
344.512	0.074	689024	keystroke	s	n/a
344.676	0.075	689352	keystroke	h	n/a
344.871	0.09	689742	keystroke	o	n/a
344.991	0.106	689982	keystroke	r	n/a
345.051	0.105	690102	keystroke	e	n/a
345.201	0.12	690402	keystroke	Key.space	n/a
345.396	0.12	690792	keystroke	h	n/a
345.546	0.105	691092	keystroke	i	n/a
345.756	0.09	691512	keystroke	l	n/a
345.921	0.15	691842	keystroke	l	n/a
346.056	0.105	692112	keystroke	Key.space	n/a
346.326	0.061	692652	keystroke	r	n/a
346.356	0.09	692712	keystroke	e	n/a
346.566	0.091	693132	keystroke	p	n/a
346.777	0.089	693554	keystroke	l	n/a
346.836	0.09	693672	keystroke	a	n/a
347.046	0.075	694092	keystroke	c	n/a
347.242	0.074	694484	keystroke	e	n/a
347.721	0.06	695442	keystroke	m	n/a
347.812	0.074	695624	keystroke	e	n/a
347.946	0.09	695892	keystroke	n	n/a
348.081	0.075	696162	keystroke	t	n/a
348.486	0.09	696972	keystroke	Key.enter	n/a
348.5865	8.362	697173	prompt	n/a	bennett wing canal exam\n
349.507	0.059	699014	keystroke	b	n/a
349.747	0.045	699494	keystroke	e	n/a
350.451	0.075	700902	keystroke	n	n/a
350.587	0.09	701174	keystroke	n	n/a
350.977	0.044	701954	keystroke	e	n/a
351.156	0.075	702312	keystroke	t	n/a
351.277	0.09	702554	keystroke	t	n/a
351.441	0.09	702882	keystroke	Key.space	n/a
351.651	0.075	703302	keystroke	w	n/a
351.742	0.075	703484	keystroke	i	n/a
351.876	0.106	703752	keystroke	n	n/a
352.012	0.09	704024	keystroke	d	n/a
352.221	0.09	704442	keystroke	Key.space	n/a
353.376	0.09	706752	keystroke	Key.backspace	n/a
353.586	0.09	707172	keystroke	Key.backspace	n/a
354.111	0.06	708222	keystroke	g	n/a
354.906	0.075	709812	keystroke	Key.space	n/a
355.161	0.09	710322	keystroke	c	n/a
355.266	0.105	710532	keystroke	a	n/a
355.476	0.075	710952	keystroke	n	n/a
355.552	0.104	711104	keystroke	a	n/a
355.686	0.105	711372	keystroke	l	n/a
355.866	0.09	711732	keystroke	Key.space	n/a
356.061	0.075	712122	keystroke	e	n/a
356.301	0.075	712602	keystroke	x	n/a
356.481	0.075	712962	keystroke	a	n/a
356.616	0.075	713232	keystroke	m	n/a
356.901	0.045	713802	keystroke	Key.enter	n/a
356.954	9.535	713908	prompt	n/a	constitutes debian addiction imported\n
357.877	0.074	715754	keystroke	c	n/a
358.026	0.09	716052	keystroke	o	n/a
358.221	0.09	716442	keystroke	n	n/a
358.416	0.12	716832	keystroke	s	n/a
358.641	0.09	717282	keystroke	t	n/a
358.836	0.09	717672	keystroke	i	n/a
359.211	0.06	718422	keystroke	t	n/a
359.436	0.075	718872	keystroke	u	n/a
359.976	0.075	719952	keystroke	t	n/a
360.201	0.09	720402	keystroke	e	n/a
360.772	0.074	721544	keystroke	s	n/a
360.921	0.105	721842	keystroke	Key.space	n/a
361.161	0.075	722322	keystroke	d	n/a
361.326	0.06	722652	keystroke	e	n/a
361.686	0.075	723372	keystroke	b	n/a
361.911	0.09	723822	keystroke	i	n/a
362.046	0.09	724092	keystroke	a	n/a
362.226	0.12	724452	keystroke	n	n/a
362.316	0.12	724632	keystroke	Key.space	n/a
362.601	0.076	725202	keystroke	a	n/a
363.111	0.045	726222	keystroke	d	n/a
363.246	0.075	726492	keystroke	d	n/a
363.426	0.091	726852	keystroke	i	n/a
363.561	0.12	727122	keystroke	c	n/a
363.906	0.045	727812	keystroke	t	n/a
363.982	0.224	727964	keystroke	i	n/a
364.086	0.165	728172	keystroke	o	n/a
364.161	0.12	728322	keystroke	n	n/a
364.791	0.09	729582	keystroke	Key.space	n/a
365.196	0.075	730392	keystroke	i	n/a
365.361	0.15	730722	keystroke	m	n/a
365.466	0.105	730932	keystroke	p	n/a
365.691	0.106	731382	keystroke	o	n/a
365.781	0.09	731562	keystroke	r	n/a
365.946	0.12	731892	keystroke	t	n/a
366.096	0.076	732192	keystroke	e	n/a
366.291	0.075	732582	keystroke	d	n/a
366.426	0.06	732852	keystroke	Key.enter	n/a
366.495	11.364	732990	prompt	n/a	crucial sentence privilege causes\n
367.327	0.104	734654	keystroke	c	n/a
367.642	0.074	735284	keystroke	r	n/a
367.851	0.09	735702	keystroke	u	n/a
368.107	0.074	736214	keystroke	c	n/a
368.226	0.09	736452	keystroke	i	n/a
368.331	0.075	736662	keystroke	a	n/a
368.451	0.136	736902	keystroke	l	n/a
368.571	0.09	737142	keystroke	Key.space	n/a
369.111	0.091	738222	keystroke	s	n/a
369.277	0.075	738554	keystroke	e	n/a
369.396	0.12	738792	keystroke	n	n/a
369.547	0.089	739094	keystroke	t	n/a
369.921	0.061	739842	keystroke	e	n/a
370.071	0.105	740142	keystroke	n	n/a
370.206	0.12	740412	keystroke	c	n/a
370.431	0.06	740862	keystroke	e	n/a
370.536	0.105	741072	keystroke	Key.space	n/a
371.227	0.089	742454	keystroke	p	n/a
371.467	0.089	742934	keystroke	r	n/a
371.751	0.075	743502	keystroke	i	n/a
372.457	0.074	744914	keystroke	i	n/a
372.651	0.091	745302	keystroke	l	n/a
373.431	0.09	746862	keystroke	Key.backspace	n/a
373.626	0.105	747252	keystroke	Key.backspace	n/a
374.197	0.059	748394	keystroke	v	n/a
374.467	0.09	748934	keystroke	i	n/a
374.691	0.121	749382	keystroke	l	n/a
375.141	0.061	750282	keystroke	e	n/a
375.861	0.076	751722	keystroke	g	n/a
376.056	0.061	752112	keystroke	e	n/a
376.521	0.09	753042	keystroke	Key.space	n/a
376.881	0.091	753762	keystroke	c	n/a
376.986	0.09	753972	keystroke	a	n/a
377.152	0.104	754304	keystroke	u	n/a
377.241	0.09	754482	keystroke	s	n/a
377.407	0.06	754814	keystroke	e	n/a
377.617	0.075	755234	keystroke	s	n/a
377.766	0.09	755532	keystroke	Key.enter	n/a
377.865	10.164	755730	prompt	n/a	horrible click photograph specify\n
379.266	0.075	758532	keystroke	h	n/a
379.446	0.09	758892	keystroke	o	n/a
379.597	0.059	759194	keystroke	r	n/a
379.717	0.089	759434	keystroke	r	n/a
379.822	0.104	759644	keystroke	i	n/a
379.942	0.09	759884	keystroke	b	n/a
380.392	0.12	760784	keystroke	l	n/a
380.512	0.059	761024	keystroke	e	n/a
380.601	0.105	761202	keystroke	Key.space	n/a
380.917	0.074	761834	keystroke	c	n/a
381.021	0.091	762042	keystroke	l	n/a
381.247	0.074	762494	keystroke	i	n/a
381.531	0.076	763062	keystroke	c	n/a
381.696	0.105	763392	keystroke	k	n/a
381.861	0.09	763722	keystroke	Key.space	n/a
382.642	0.09	765284	keystroke	p	n/a
382.851	0.09	765702	keystroke	h	n/a
383.046	0.106	766092	keystroke	o	n/a
383.196	0.076	766392	keystroke	t	n/a
383.301	0.09	766602	keystroke	o	n/a
383.511	0.076	767022	keystroke	g	n/a
383.707	0.075	767414	keystroke	r	n/a
383.841	0.061	767682	keystroke	a	n/a
384.022	0.0745	768044	keystroke	p	n/a
384.2165	0.075	768433	keystroke	h	n/a
384.6665	0.075	769333	keystroke	Key.space	n/a
385.4165	0.075	770833	keystroke	s	n/a
385.5065	0.09	771013	keystroke	p	n/a
385.6565	0.045	771313	keystroke	e	n/a
385.8815	0.075	771763	keystroke	c	n/a
385.9865	0.09	771973	keystroke	i	n/a
386.8715	0.06	773743	keystroke	f	n/a
387.3215	0.075	774643	keystroke	y	n/a
387.9665	0.06	775933	keystroke	Key.enter	n/a
388.0345	7.284	776069	prompt	n/a	guards died surrounded classes\n
389.0165	0.0745	778033	keystroke	g	n/a
389.211	0.075	778422	keystroke	u	n/a
389.316	0.0905	778632	keystroke	a	n/a
389.4215	0.0895	778843	keystroke	r	n/a
389.661	0.075	779322	keystroke	d	n/a
389.961	0.09	779922	keystroke	s	n/a
390.156	0.105	780312	keystroke	Key.space	n/a
390.396	0.105	780792	keystroke	d	n/a
390.591	0.075	781182	keystroke	i	n/a
390.756	0.06	781512	keystroke	e	n/a
390.951	0.075	781902	keystroke	d	n/a
391.041	0.105	782082	keystroke	Key.space	n/a
391.3715	0.0745	782743	keystroke	s	n/a
391.536	0.075	783072	keystroke	u	n/a
391.881	0.06	783762	keystroke	r	n/a
392.016	0.075	784032	keystroke	r	n/a
392.121	0.12	784242	keystroke	o	n/a
392.196	0.12	784392	keystroke	u	n/a
392.466	0.06	784932	keystroke	n	n/a
393.1565	0.075	786313	keystroke	d	n/a
393.366	0.045	786732	keystroke	e	n/a
393.546	0.075	787092	keystroke	d	n/a
393.666	0.09	787332	keystroke	Key.space	n/a
393.846	0.105	787692	keystroke	c	n/a
393.966	0.12	787932	keystroke	l	n/a
394.191	0.09	788382	keystroke	a	n/a
394.401	0.06	788802	keystroke	s	n/a
394.521	0.105	789042	keystroke	s	n/a
394.746	0.06	789492	keystroke	e	n/a
394.911	0.075	789822	keystroke	s	n/a
395.211	0.105	790422	keystroke	Key.enter	n/a
395.324	13.84	790648	prompt	n/a	community minus citation filling\n
396.126	0.09	792252	keystroke	c	n/a
396.306	0.135	792612	keystroke	u	n/a
396.726	0.06	793452	keystroke	m	n/a
396.891	0.076	793782	keystroke	m	n/a
397.131	0.075	794262	keystroke	u	n/a
397.356	0.09	794712	keystroke	n	n/a
397.551	0.105	795102	keystroke	i	n/a
397.701	0.09	795402	keystroke	t	n/a
397.851	0.12	795702	keystroke	y	n/a
397.941	0.12	795882	keystroke	Key.space	n/a
398.826	0.105	797652	keystroke	m	n/a
398.976	0.06	797952	keystroke	i	n/a
399.081	0.105	798162	keystroke	n	n/a
399.321	0.09	798642	keystroke	u	n/a
399.426	0.075	798852	keystroke	s	n/a
399.561	0.105	799122	keystroke	Key.space	n/a
399.921	0.075	799842	keystroke	c	n/a
400.026	0.075	800052	keystroke	i	n/a
400.386	0.09	800772	keystroke	t	n/a
400.551	0.075	801102	keystroke	a	n/a
400.611	0.09	801222	keystroke	t	n/a
400.731	0.195	801462	keystroke	i	n/a
400.806	0.15	801612	keystroke	o	n/a
400.881	0.15	801762	keystroke	j	n/a
402.876	0.105	805752	keystroke	Key.backspace	n/a
403.357	0.119	806714	keystroke	n	n/a
407.725	0.026	815450	keystroke	Key.space	n/a
407.826	0.06	815652	keystroke	f	n/a
407.931	0.075	815862	keystroke	i	n/a
408.111	0.09	816222	keystroke	l	n/a
408.291	0.135	816582	keystroke	l	n/a
408.546	0.075	817092	keystroke	i	n/a
408.711	0.09	817422	keystroke	n	n/a
408.876	0.075	817752	keystroke	g	n/a
409.086	0.075	818172	keystroke	Key.enter	n/a
409.1695	9.4595	818339	prompt	n/a	ashley conversation wilson lightbox\n
410.151	0.075	820302	keystroke	a	n/a
410.362	0.089	820724	keystroke	s	n/a
410.496	0.091	820992	keystroke	h	n/a
410.722	0.104	821444	keystroke	l	n/a
410.857	0.074	821714	keystroke	e	n/a
411.036	0.135	822072	keystroke	y	n/a
411.201	0.12	822402	keystroke	Key.space	n/a
411.501	0.09	823002	keystroke	c	n/a
411.817	0.089	823634	keystroke	o	n/a
412.026	0.09	824052	keystroke	n	n/a
412.311	0.09	824622	keystroke	v	n/a
412.551	0.06	825102	keystroke	e	n/a
412.582	0.104	825164	keystroke	r	n/a
412.821	0.075	825642	keystroke	s	n/a
413.151	0.09	826302	keystroke	a	n/a
413.287	0.089	826574	keystroke	t	n/a
413.421	0.211	826842	keystroke	i	n/a
413.496	0.211	826992	keystroke	o	n/a
413.616	0.135	827232	keystroke	n	n/a
413.736	0.105	827472	keystroke	Key.space	n/a
414.592	0.074	829184	keystroke	w	n/a
414.696	0.09	829392	keystroke	i	n/a
415.131	0.105	830262	keystroke	l	n/a
415.266	0.09	830532	keystroke	s	n/a
415.386	0.075	830772	keystroke	o	n/a
415.582	0.119	831164	keystroke	n	n/a
415.671	0.12	831342	keystroke	Key.space	n/a
416.452	0.089	832904	keystroke	l	n/a
416.691	0.075	833382	keystroke	i	n/a
417.021	0.091	834042	keystroke	g	n/a
417.127	0.104	834254	keystroke	h	n/a
417.246	0.076	834492	keystroke	t	n/a
417.546	0.061	835092	keystroke	b	n/a
417.622	0.089	835244	keystroke	o	n/a
418.326	0.09	836652	keystroke	x	n/a
418.552	0.074	837104	keystroke	Key.enter	n/a
418.6335	6.535	837267	prompt	n/a	colleges demand either pushing\n
419.542	0.104	839084	keystroke	c	n/a
419.692	0.104	839384	keystroke	o	n/a
419.932	0.075	839864	keystroke	l	n/a
420.066	0.121	840132	keystroke	l	n/a
420.156	0.075	840312	keystroke	e	n/a
420.397	0.089	840794	keystroke	g	n/a
420.516	0.09	841032	keystroke	e	n/a
420.772	0.074	841544	keystroke	s	n/a
420.921	0.09	841842	keystroke	Key.space	n/a
421.222	0.089	842444	keystroke	d	n/a
421.402	0.06	842804	keystroke	e	n/a
421.582	0.104	843164	keystroke	m	n/a
421.671	0.075	843342	keystroke	a	n/a
421.851	0.091	843702	keystroke	n	n/a
421.942	0.075	843884	keystroke	d	n/a
422.046	0.09	844092	keystroke	Key.space	n/a
422.421	0.061	844842	keystroke	e	n/a
422.617	0.09	845234	keystroke	i	n/a
422.737	0.075	845474	keystroke	t	n/a
422.886	0.105	845772	keystroke	h	n/a
422.962	0.074	845924	keystroke	e	n/a
423.007	0.075	846014	keystroke	r	n/a
423.096	0.105	846192	keystroke	Key.space	n/a
423.261	0.12	846522	keystroke	p	n/a
423.487	0.104	846974	keystroke	u	n/a
423.7415	0.0895	847483	keystroke	s	n/a
423.892	0.0895	847784	keystroke	h	n/a
424.147	0.0895	848294	keystroke	i	n/a
424.3405	0.091	848681	keystroke	n	n/a
424.5665	0.045	849133	keystroke	g	n/a
425.0905	0.0755	850181	keystroke	Key.enter	n/a
425.1745	18.189	850349	prompt	n/a	iowa pregnancy raymond webmasters\n
426.096	0.075	852192	keystroke	i	n/a
426.306	0.09	852612	keystroke	o	n/a
426.5765	0.0895	853153	keystroke	w	n/a
426.756	0.075	853512	keystroke	a	n/a
427.416	0.075	854832	keystroke	Key.space	n/a
427.776	0.06	855552	keystroke	p	n/a
428.331	0.105	856662	keystroke	r	n/a
428.481	0.09	856962	keystroke	e	n/a
428.766	0.105	857532	keystroke	g	n/a
429.096	0.06	858192	keystroke	a	n/a
429.276	0.075	858552	keystroke	n	n/a
429.456	0.09	858912	keystroke	c	n/a
429.651	0.06	859302	keystroke	e	n/a
431.061	0.09	862122	keystroke	Key.backspace	n/a
432.321	0.09	864642	keystroke	y	n/a
432.531	0.09	865062	keystroke	Key.space	n/a
432.801	0.075	865602	keystroke	r	n/a
432.891	0.09	865782	keystroke	a	n/a
433.101	0.075	866202	keystroke	y	n/a
433.371	0.09	866742	keystroke	m	n/a
433.581	0.075	867162	keystroke	o	n/a
433.821	0.075	867642	keystroke	n	n/a
433.986	0.06	867972	keystroke	d	n/a
434.121	0.075	868242	keystroke	Key.space	n/a
434.451	0.09	868902	keystroke	w	n/a
434.676	0.075	869352	keystroke	e	n/a
435.501	0.075	871002	keystroke	b	n/a
438.864	0.072	877728	keystroke	s	n/a
441.084	0.027	882168	keystroke	Key.backspace	n/a
441.951	0.105	883902	keystroke	m	n/a
442.116	0.075	884232	keystroke	a	n/a
442.266	0.12	884532	keystroke	s	n/a
442.371	0.09	884742	keystroke	t	n/a
442.551	0.09	885102	keystroke	e	n/a
442.626	0.045	885252	keystroke	r	n/a
442.791	0.045	885582	keystroke	s	n/a
443.271	0.09	886542	keystroke	Key.enter	n/a
443.3685	11.3945	886737	prompt	n/a	asthma rehabilitation unlimited chief\n
444.471	0.045	888942	keystroke	a	n/a
444.651	0.105	889302	keystroke	s	n/a
444.891	0.075	889782	keystroke	t	n/a
445.116	0.105	890232	keystroke	h	n/a
445.401	0.12	890802	keystroke	m	n/a
445.491	0.06	890982	keystroke	a	n/a
445.716	0.105	891432	keystroke	Key.space	n/a
446.316	0.09	892632	keystroke	r	n/a
446.436	0.105	892872	keystroke	e	n/a
446.736	0.09	893472	keystroke	h	n/a
446.841	0.105	893682	keystroke	a	n/a
447.261	0.075	894522	keystroke	b	n/a
447.471	0.09	894942	keystroke	i	n/a
447.682	0.104	895364	keystroke	l	n/a
447.936	0.06	895872	keystroke	i	n/a
448.146	0.09	896292	keystroke	t	n/a
448.506	0.03	897012	keystroke	a	n/a
448.551	0.075	897102	keystroke	t	n/a
448.701	0.21	897402	keystroke	i	n/a
448.821	0.18	897642	keystroke	o	n/a
448.926	0.135	897852	keystroke	n	n/a
449.211	0.075	898422	keystroke	Key.space	n/a
449.751	0.075	899502	keystroke	u	n/a
449.946	0.136	899892	keystroke	n	n/a
450.201	0.075	900402	keystroke	i	n/a
451.446	0.12	902892	keystroke	Key.backspace	n/a
452.136	0.105	904272	keystroke	l	n/a
452.346	0.06	904692	keystroke	i	n/a
452.421	0.105	904842	keystroke	m	n/a
452.541	0.105	905082	keystroke	i	n/a
452.721	0.061	905442	keystroke	t	n/a
452.841	0.09	905682	keystroke	e	n/a
453.036	0.075	906072	keystroke	d	n/a
453.126	0.075	906252	keystroke	Key.space	n/a
453.381	0.091	906762	keystroke	c	n/a
453.516	0.09	907032	keystroke	h	n/a
453.906	0.075	907812	keystroke	i	n/a
454.026	0.075	908052	keystroke	e	n/a
454.296	0.045	908592	keystroke	f	n/a
454.686	0.075	909372	keystroke	Key.enter	n/a
454.7695	8.318	909539	prompt	n/a	blogger lightning boss confirm\n
455.782	0.09	911564	keystroke	b	n/a
455.961	0.091	911922	keystroke	l	n/a
456.171	0.075	912342	keystroke	o	n/a
456.306	0.015	912612	keystroke	g	n/a
456.427	0.059	912854	keystroke	g	n/a
456.711	0.091	913422	keystroke	e	n/a
456.771	0.075	913542	keystroke	r	n/a
457.161	0.075	914322	keystroke	Key.space	n/a
458.016	0.091	916032	keystroke	l	n/a
458.227	0.1035	916454	keystroke	i	n/a
458.361	0.105	916722	keystroke	g	n/a
458.496	0.1205	916992	keystroke	h	n/a
458.5705	0.09	917141	keystroke	t	n/a
458.901	0.1355	917802	keystroke	n	n/a
459.066	0.0905	918132	keystroke	i	n/a
459.201	0.1195	918402	keystroke	n	n/a
459.3655	0.076	918731	keystroke	g	n/a
459.6055	0.075	919211	keystroke	Key.space	n/a
460.026	0.0905	920052	keystroke	b	n/a
460.1465	0.089	920293	keystroke	o	n/a
460.2955	0.076	920591	keystroke	s	n/a
460.461	0.075	920922	keystroke	s	n/a
460.596	0.0895	921192	keystroke	Key.space	n/a
461.2105	0.0905	922421	keystroke	c	n/a
461.316	0.046	922632	keystroke	o	n/a
461.392	0.134	922784	keystroke	n	n/a
461.556	0.106	923112	keystroke	f	n/a
461.901	0.09	923802	keystroke	i	n/a
462.036	0.06	924072	keystroke	r	n/a
462.171	0.09	924342	keystroke	m	n/a
462.951	0.135	925902	keystroke	Key.enter	n/a
463.0955	7.404	926191	prompt	n/a	tracker alan nurse dock\n
464.841	0.0745	929682	keystroke	t	n/a
465.1105	0.105	930221	keystroke	r	n/a
465.3055	0.076	930611	keystroke	a	n/a
466.2205	0.106	932441	keystroke	c	n/a
466.3405	0.075	932681	keystroke	k	n/a
466.5215	0.09	933043	keystroke	e	n/a
466.5655	0.105	933131	keystroke	r	n/a
467.4205	0.09	934841	keystroke	Key.space	n/a
467.5705	0.061	935141	keystroke	a	n/a
467.6765	0.104	935353	keystroke	l	n/a
467.7505	0.09	935501	keystroke	a	n/a
467.9165	0.12	935833	keystroke	n	n/a
468.0655	0.105	936131	keystroke	Key.space	n/a
468.3215	0.119	936643	keystroke	n	n/a
468.5605	0.09	937121	keystroke	u	n/a
468.6815	0.09	937363	keystroke	r	n/a
468.8915	0.089	937783	keystroke	s	n/a
469.0115	0.075	938023	keystroke	e	n/a
469.1605	0.09	938321	keystroke	Key.space	n/a
469.5055	0.076	939011	keystroke	d	n/a
469.5955	0.091	939191	keystroke	o	n/a
469.7615	0.074	939523	keystroke	c	n/a
470.1215	0.074	940243	keystroke	k	n/a
470.4355	0.06	940871	keystroke	Key.enter	n/a
470.5045	8.5285	941009	prompt	n/a	leone peninsula employer easier\n
471.5155	0.106	943031	keystroke	l	n/a
471.6365	0.074	943273	keystroke	e	n/a
471.9515	0.089	943903	keystroke	o	n/a
472.1905	0.091	944381	keystroke	n	n/a
472.2965	0.075	944593	keystroke	e	n/a
472.5205	0.09	945041	keystroke	Key.space	n/a
472.9715	0.105	945943	keystroke	p	n/a
473.5115	0.075	947023	keystroke	e	n/a
473.6905	0.091	947381	keystroke	n	n/a
474.0065	0.075	948013	keystroke	i	n/a
474.1865	0.09	948373	keystroke	n	n/a
474.4405	0.061	948881	keystroke	s	n/a
474.5455	0.091	949091	keystroke	u	n/a
474.9215	0.12	949843	keystroke	l	n/a
475.0855	0.045	950171	keystroke	a	n/a
475.1905	0.09	950381	keystroke	Key.space	n/a
475.4915	0.06	950983	keystroke	e	n/a
475.6555	0.151	951311	keystroke	m	n/a
475.8515	0.134	951703	keystroke	p	n/a
476.1065	0.105	952213	keystroke	l	n/a
476.3315	0.09	952663	keystroke	o	n/a
476.5715	0.09	953143	keystroke	y	n/a
476.8265	0.089	953653	keystroke	e	n/a
476.8715	0.134	953743	keystroke	r	n/a
477.0215	0.104	954043	keystroke	Key.space	n/a
477.3655	0.061	954731	keystroke	e	n/a
477.5315	0.075	955063	keystroke	a	n/a
477.7415	0.06	955483	keystroke	s	n/a
478.1605	0.061	956321	keystroke	i	n/a
478.4155	0.091	956831	keystroke	e	n/a
478.4765	0.075	956953	keystroke	r	n/a
478.9415	0.089	957883	keystroke	Key.enter	n/a
479.038	13.3305	958076	prompt	n/a	observer approximately yukon loaded\n
479.8715	0.075	959743	keystroke	a	n/a
480.1565	0.06	960313	keystroke	b	n/a
480.3655	0.09	960731	keystroke	s	n/a
480.5465	0.06	961093	keystroke	o	n/a
482.1515	0.089	964303	keystroke	Key.backspace	n/a
482.8415	0.09	965683	keystroke	e	n/a
482.8855	0.121	965771	keystroke	r	n/a
483.1715	0.105	966343	keystroke	v	n/a
483.4115	0.06	966823	keystroke	e	n/a
483.4265	0.075	966853	keystroke	r	n/a
484.0865	0.12	968173	keystroke	Key.space	n/a
484.6565	0.09	969313	keystroke	a	n/a
484.8215	0.09	969643	keystroke	p	n/a
484.9855	0.121	969971	keystroke	p	n/a
485.2865	0.09	970573	keystroke	r	n/a
486.0215	0.09	972043	keystroke	o	n/a
486.8315	0.105	973663	keystroke	x	n/a
487.0865	0.105	974173	keystroke	i	n/a
487.4315	0.09	974863	keystroke	m	n/a
487.7315	0.135	975463	keystroke	a	n/a
487.9115	0.12	975823	keystroke	t	n/a
488.3465	0.075	976693	keystroke	e	n/a
488.4815	0.12	976963	keystroke	l	n/a
488.8115	0.075	977623	keystroke	y	n/a
489.0815	0.09	978163	keystroke	Key.space	n/a
489.7415	0.09	979483	keystroke	y	n/a
489.9515	0.09	979903	keystroke	u	n/a
490.2515	0.135	980503	keystroke	k	n/a
490.5215	0.105	981043	keystroke	o	n/a
490.7615	0.15	981523	keystroke	n	n/a
490.8965	0.105	981793	keystroke	Key.space	n/a
491.0465	0.12	982093	keystroke	l	n/a
491.3015	0.075	982603	keystroke	o	n/a
491.3465	0.105	982693	keystroke	a	n/a
491.5115	0.09	983023	keystroke	d	n/a
491.7065	0.06	983413	keystroke	e	n/a
491.9015	0.06	983803	keystroke	d	n/a
492.2765	0.09	984553	keystroke	Key.enter	n/a
492.374	6.894	984748	prompt	n/a	arab hockey wheel surprising\n
493.2515	0.06	986503	keystroke	a	n/a
493.5815	0.105	987163	keystroke	r	n/a
493.8365	0.105	987673	keystroke	a	n/a
494.0615	0.075	988123	keystroke	b	n/a
494.3315	0.09	988663	keystroke	Key.space	n/a
494.7515	0.105	989503	keystroke	h	n/a
494.9465	0.09	989893	keystroke	o	n/a
495.0965	0.09	990193	keystroke	c	n/a
495.2315	0.09	990463	keystroke	k	n/a
495.5165	0.135	991033	keystroke	y	n/a
495.6665	0.105	991333	keystroke	Key.space	n/a
496.1165	0.06	992233	keystroke	w	n/a
496.2665	0.09	992533	keystroke	h	n/a
496.3865	0.06	992773	keystroke	e	n/a
496.5365	0.075	993073	keystroke	e	n/a
496.6865	0.105	993373	keystroke	l	n/a
496.8065	0.12	993613	keystroke	Key.space	n/a
497.0015	0.09	994003	keystroke	s	n/a
497.436	0.09	994872	keystroke	u	n/a
497.601	0.075	995202	keystroke	r	n/a
497.8115	0.0895	995623	keystroke	p	n/a
498.006	0.0755	996012	keystroke	r	n/a
498.2465	0.0745	996493	keystroke	i	n/a
498.426	0.105	996852	keystroke	s	n/a
498.621	0.06	997242	keystroke	i	n/a
498.801	0.0905	997602	keystroke	n	n/a
498.9365	0.0595	997873	keystroke	g	n/a
499.191	0.075	998382	keystroke	Key.enter	n/a
499.2745	7.569	998549	prompt	n/a	operators heaven dome tour\n
501.216	0.09	1002432	keystroke	o	n/a
501.411	0.09	1002822	keystroke	p	n/a
501.576	0.105	1003152	keystroke	e	n/a
501.636	0.21	1003272	keystroke	r	n/a
502.356	0.09	1004712	keystroke	a	n/a
502.566	0.09	1005132	keystroke	t	n/a
502.686	0.105	1005372	keystroke	o	n/a
502.792	0.074	1005584	keystroke	r	n/a
502.986	0.09	1005972	keystroke	s	n/a
503.136	0.09	1006272	keystroke	Key.space	n/a
503.361	0.12	1006722	keystroke	h	n/a
503.421	0.09	1006842	keystroke	e	n/a
503.526	0.105	1007052	keystroke	a	n/a
503.751	0.075	1007502	keystroke	v	n/a
504.621	0.06	1009242	keystroke	e	n/a
504.741	0.135	1009482	keystroke	n	n/a
504.891	0.09	1009782	keystroke	Key.space	n/a
505.041	0.075	1010082	keystroke	d	n/a
505.131	0.09	1010262	keystroke	o	n/a
505.221	0.18	1010442	keystroke	m	n/a
505.416	0.045	1010832	keystroke	e	n/a
505.506	0.09	1011012	keystroke	Key.space	n/a
505.941	0.105	1011882	keystroke	t	n/a
506.076	0.09	1012152	keystroke	o	n/a
506.151	0.135	1012302	keystroke	u	n/a
506.287	0.074	1012574	keystroke	r	n/a
506.766	0.074	1013532	keystroke	Key.enter	n/a
506.849	10.6135	1013698	prompt	n/a	allan adults whale sprint\n
507.696	0.075	1015392	keystroke	a	n/a
508.041	0.09	1016082	keystroke	l	n/a
508.205	0.106	1016410	keystroke	l	n/a
508.281	0.075	1016562	keystroke	a	n/a
508.461	0.135	1016922	keystroke	n	n/a
508.581	0.105	1017162	keystroke	Key.space	n/a
509.451	0.089	1018902	keystroke	a	n/a
509.721	0.06	1019442	keystroke	d	n/a
509.856	0.09	1019712	keystroke	d	n/a
510.096	0.09	1020192	keystroke	u	n/a
510.291	0.105	1020582	keystroke	l	n/a
510.426	0.09	1020852	keystroke	t	n/a
511.191	0.09	1022382	keystroke	Key.backspace	n/a
511.386	0.09	1022772	keystroke	Key.backspace	n/a
511.551	0.09	1023102	keystroke	Key.backspace	n/a
511.731	0.105	1023462	keystroke	Key.backspace	n/a
512.091	0.075	1024182	keystroke	u	n/a
512.301	0.12	1024602	keystroke	l	n/a
512.421	0.105	1024842	keystroke	t	n/a
512.631	0.045	1025262	keystroke	s	n/a
513.276	0.075	1026552	keystroke	Key.space	n/a
513.651	0.105	1027302	keystroke	w	n/a
513.801	0.09	1027602	keystroke	h	n/a
513.906	0.075	1027812	keystroke	a	n/a
514.101	0.09	1028202	keystroke	l	n/a
514.176	0.075	1028352	keystroke	e	n/a
514.296	0.09	1028592	keystroke	Key.space	n/a
514.776	0.075	1029552	keystroke	s	n/a
514.866	0.12	1029732	keystroke	p	n/a
515.001	0.09	1030002	keystroke	r	n/a
515.151	0.06	1030302	keystroke	i	n/a
515.301	0.105	1030602	keystroke	n	n/a
515.436	0.06	1030872	keystroke	g	n/a
516.696	0.09	1033392	keystroke	Key.backspace	n/a
516.921	0.075	1033842	keystroke	t	n/a
517.386	0.075	1034772	keystroke	Key.enter	n/a
517.4675	12.6105	1034935	prompt	n/a	wrong subsequent boolean impossible\n
518.886	0.105	1037772	keystroke	w	n/a
519.081	0.06	1038162	keystroke	r	n/a
519.171	0.075	1038342	keystroke	o	n/a
519.321	0.105	1038642	keystroke	n	n/a
519.441	0.06	1038882	keystroke	g	n/a
519.531	0.09	1039062	keystroke	Key.space	n/a
519.711	0.09	1039422	keystroke	s	n/a
519.891	0.075	1039782	keystroke	u	n/a
520.191	0.075	1040382	keystroke	b	n/a
520.431	0.09	1040862	keystroke	s	n/a
520.626	0.06	1041252	keystroke	e	n/a
520.851	0.09	1041702	keystroke	q	n/a
521.001	0.09	1042002	keystroke	u	n/a
521.181	0.06	1042362	keystroke	e	n/a
521.346	0.09	1042692	keystroke	n	n/a
521.466	0.06	1042932	keystroke	t	n/a
521.571	0.105	1043142	keystroke	Key.space	n/a
522.156	0.06	1044312	keystroke	b	n/a
522.351	0.06	1044702	keystroke	o	n/a
522.486	0.09	1044972	keystroke	o	n/a
522.711	0.105	1045422	keystroke	l	n/a
522.861	0.045	1045722	keystroke	e	n/a
523.071	0.09	1046142	keystroke	a	n/a
523.221	0.135	1046442	keystroke	n	n/a
523.341	0.12	1046682	keystroke	Key.space	n/a
523.626	0.135	1047252	keystroke	i	n/a
523.956	0.09	1047912	keystroke	m	n/a
525.291	0.075	1050582	keystroke	p	n/a
525.471	0.09	1050942	keystroke	p	n/a
526.671	0.105	1053342	keystroke	Key.backspace	n/a
527.436	0.0595	1054872	keystroke	o	n/a
527.616	0.075	1055232	keystroke	s	n/a
527.751	0.09	1055502	keystroke	s	n/a
527.826	0.075	1055652	keystroke	i	n/a
527.976	0.06	1055952	keystroke	b	n/a
528.0805	0.105	1056161	keystroke	l	n/a
528.1705	0.075	1056341	keystroke	e	n/a
529.9855	0.09	1059971	keystroke	Key.enter	n/a
530.083	7.6605	1060166	prompt	n/a	october grave period expect\n
531.1255	0.075	1062251	keystroke	o	n/a
531.2905	0.105	1062581	keystroke	c	n/a
531.4705	0.09	1062941	keystroke	t	n/a
531.5905	0.06	1063181	keystroke	o	n/a
531.7105	0.105	1063421	keystroke	b	n/a
531.9355	0.075	1063871	keystroke	e	n/a
531.9805	0.105	1063961	keystroke	r	n/a
532.1155	0.105	1064231	keystroke	Key.space	n/a
532.3255	0.105	1064651	keystroke	g	n/a
532.5355	0.09	1065071	keystroke	r	n/a
532.6405	0.075	1065281	keystroke	a	n/a
532.8805	0.075	1065761	keystroke	v	n/a
532.9855	0.09	1065971	keystroke	e	n/a
534.5905	0.09	1069181	keystroke	Key.space	n/a
535.0105	0.105	1070021	keystroke	p	n/a
535.2205	0.12	1070441	keystroke	e	n/a
535.3105	0.105	1070621	keystroke	r	n/a
535.4905	0.09	1070981	keystroke	i	n/a
535.7005	0.09	1071401	keystroke	o	n/a
535.8505	0.075	1071701	keystroke	d	n/a
535.9855	0.075	1071971	keystroke	Key.space	n/a
536.5855	0.075	1073171	keystroke	e	n/a
536.8105	0.105	1073621	keystroke	x	n/a
536.9455	0.075	1073891	keystroke	p	n/a
537.0505	0.09	1074101	keystroke	e	n/a
537.2605	0.075	1074521	keystroke	c	n/a
537.4105	0.075	1074821	keystroke	t	n/a
537.6655	0.075	1075331	keystroke	Key.enter	n/a
537.748	6.9695	1075496	prompt	n/a	lesson invoice programmer sparc\n
538.7155	0.12	1077431	keystroke	l	n/a
538.8205	0.075	1077641	keystroke	e	n/a
539.0305	0.075	1078061	keystroke	s	n/a
539.1805	0.105	1078361	keystroke	s	n/a
539.3005	0.09	1078601	keystroke	o	n/a
539.6005	0.105	1079201	keystroke	n	n/a
539.6755	0.135	1079351	keystroke	Key.space	n/a
540.0355	0.075	1080071	keystroke	i	n/a
540.1255	0.135	1080251	keystroke	n	n/a
540.3505	0.075	1080701	keystroke	v	n/a
540.4705	0.075	1080941	keystroke	o	n/a
540.6355	0.075	1081271	keystroke	i	n/a
540.7405	0.09	1081481	keystroke	c	n/a
540.9355	0.06	1081871	keystroke	e	n/a
541.0255	0.105	1082051	keystroke	Key.space	n/a
541.3105	0.09	1082621	keystroke	p	n/a
541.4155	0.09	1082831	keystroke	r	n/a
541.5655	0.105	1083131	keystroke	o	n/a
541.7305	0.075	1083461	keystroke	g	n/a
541.9405	0.105	1083881	keystroke	r	n/a
542.0905	0.09	1084181	keystroke	a	n/a
542.2555	0.075	1084511	keystroke	m	n/a
542.4355	0.075	1084871	keystroke	m	n/a
542.5115	0.089	1085023	keystroke	e	n/a
542.5705	0.09	1085141	keystroke	r	n/a
542.7205	0.075	1085441	keystroke	Key.space	n/a
542.9905	0.075	1085981	keystroke	s	n/a
543.1115	0.074	1086223	keystroke	p	n/a
543.2155	0.09	1086431	keystroke	a	n/a
543.9505	0.075	1087901	keystroke	r	n/a
544.2055	0.06	1088411	keystroke	c	n/a
544.6255	0.09	1089251	keystroke	Key.enter	n/a
544.7215	11.876	1089443	prompt	n/a	numerous explorer utility faster\n
545.6905	0.12	1091381	keystroke	n	n/a
546.0355	0.105	1092071	keystroke	u	n/a
546.4705	0.09	1092941	keystroke	m	n/a
546.8755	0.09	1093751	keystroke	e	n/a
546.9355	0.12	1093871	keystroke	r	n/a
547.2505	0.135	1094501	keystroke	o	n/a
547.3255	0.135	1094651	keystroke	u	n/a
547.5805	0.105	1095161	keystroke	s	n/a
547.6555	0.12	1095311	keystroke	Key.space	n/a
548.0455	0.075	1096091	keystroke	e	n/a
548.4805	0.09	1096961	keystroke	p	n/a
549.4555	0.075	1098911	keystroke	Key.backspace	n/a
549.7405	0.09	1099481	keystroke	x	n/a
550.1455	0.09	1100291	keystroke	p	n/a
550.7605	0.075	1101521	keystroke	l	n/a
550.9555	0.075	1101911	keystroke	o	n/a
551.5705	0.09	1103141	keystroke	r	n/a
552.1255	0.09	1104251	keystroke	e	n/a
552.1855	0.09	1104371	keystroke	r	n/a
553.1455	0.09	1106291	keystroke	Key.space	n/a
553.4755	0.105	1106951	keystroke	u	n/a
554.0605	0.09	1108121	keystroke	t	n/a
554.1655	0.105	1108331	keystroke	i	n/a
554.3905	0.105	1108781	keystroke	l	n/a
554.6305	0.09	1109261	keystroke	i	n/a
554.7505	0.075	1109501	keystroke	t	n/a
554.9305	0.12	1109861	keystroke	y	n/a
555.0205	0.105	1110041	keystroke	Key.space	n/a
555.3355	0.09	1110671	keystroke	f	n/a
555.5465	0.119	1111093	keystroke	a	n/a
555.8905	0.105	1111781	keystroke	s	n/a
555.9655	0.12	1111931	keystroke	t	n/a
556.2355	0.075	1112471	keystroke	e	n/a
556.2955	0.06	1112591	keystroke	r	n/a
556.5055	0.09	1113011	keystroke	Key.enter	n/a
556.603	8.74	1113206	prompt	n/a	door myself congressional unexpected\n
557.7355	0.075	1115471	keystroke	d	n/a
557.9005	0.06	1115801	keystroke	o	n/a
558.0355	0.12	1116071	keystroke	o	n/a
558.2755	0.075	1116551	keystroke	r	n/a
558.4255	0.075	1116851	keystroke	Key.space	n/a
558.6205	0.09	1117241	keystroke	m	n/a
558.8905	0.075	1117781	keystroke	y	n/a
558.9805	0.09	1117961	keystroke	s	n/a
559.1455	0.075	1118291	keystroke	e	n/a
559.2655	0.105	1118531	keystroke	l	n/a
559.4155	0.09	1118831	keystroke	f	n/a
559.5355	0.12	1119071	keystroke	Key.space	n/a
560.0305	0.09	1120061	keystroke	c	n/a
560.1805	0.03	1120361	keystroke	o	n/a
560.3155	0.075	1120631	keystroke	n	n/a
560.5855	0.075	1121171	keystroke	g	n/a
560.7805	0.09	1121561	keystroke	r	n/a
560.8855	0.09	1121771	keystroke	e	n/a
561.1555	0.06	1122311	keystroke	s	n/a
561.2905	0.105	1122581	keystroke	s	n/a
561.4105	0.21	1122821	keystroke	i	n/a
561.5005	0.165	1123001	keystroke	o	n/a
561.6055	0.135	1123211	keystroke	n	n/a
561.7555	0.075	1123511	keystroke	a	n/a
561.8905	0.12	1123781	keystroke	l	n/a
562.1305	0.09	1124261	keystroke	Key.space	n/a
562.8505	0.105	1125701	keystroke	u	n/a
563.2405	0.105	1126481	keystroke	n	n/a
563.4205	0.06	1126841	keystroke	e	n/a
563.6305	0.1205	1127261	keystroke	x	n/a
563.7655	0.075	1127531	keystroke	p	n/a
563.9005	0.06	1127801	keystroke	e	n/a
564.1255	0.105	1128251	keystroke	c	n/a
564.2905	0.09	1128581	keystroke	t	n/a
564.8905	0.06	1129781	keystroke	e	n/a
565.0705	0.075	1130141	keystroke	d	n/a
565.2655	0.075	1130531	keystroke	Key.enter	n/a
565.35	9.833	1130700	prompt	n/a	impressive academy julie toll\n
568.1195	0.056	1136239	keystroke	i	n/a
568.4465	0.104	1136893	keystroke	m	n/a
568.6105	0.105	1137221	keystroke	p	n/a
568.7755	0.105	1137551	keystroke	r	n/a
568.8665	0.089	1137733	keystroke	e	n/a
569.0905	0.076	1138181	keystroke	s	n/a
569.2255	0.105	1138451	keystroke	s	n/a
569.3155	0.105	1138631	keystroke	i	n/a
569.4955	0.105	1138991	keystroke	v	n/a
569.6155	0.075	1139231	keystroke	e	n/a
569.7205	0.105	1139441	keystroke	Key.space	n/a
570.0665	0.074	1140133	keystroke	a	n/a
570.2605	0.09	1140521	keystroke	c	n/a
570.6355	0.06	1141271	keystroke	a	n/a
570.8465	0.074	1141693	keystroke	d	n/a
571.0555	0.0595	1142111	keystroke	e	n/a
571.4	0.0905	1142800	keystroke	m	n/a
571.7165	0.119	1143433	keystroke	y	n/a
571.8955	0.105	1143791	keystroke	Key.space	n/a
572.4055	0.135	1144811	keystroke	j	n/a
572.6905	0.105	1145381	keystroke	u	n/a
573.0505	0.106	1146101	keystroke	l	n/a
573.3365	0.074	1146673	keystroke	i	n/a
573.4855	0.075	1146971	keystroke	e	n/a
573.7405	0.105	1147481	keystroke	Key.space	n/a
574.1755	0.09	1148351	keystroke	t	n/a
574.2805	0.09	1148561	keystroke	o	n/a
574.5055	0.075	1149011	keystroke	l	n/a
574.6555	0.105	1149311	keystroke	l	n/a
575.0755	0.1045	1150151	keystroke	Key.enter	n/a
575.189	12.2185	1150378	prompt	n/a	dicke controversy celebration tent\n
576.066	0.089	1152132	keystroke	d	n/a
576.3655	0.0755	1152731	keystroke	i	n/a
576.62	0.076	1153240	keystroke	c	n/a
576.726	0.09	1153452	keystroke	k	n/a
576.875	0.076	1153750	keystroke	e	n/a
577.04	0.09	1154080	keystroke	Key.space	n/a
577.79	0.091	1155580	keystroke	c	n/a
577.91	0.09	1155820	keystroke	o	n/a
578.646	0.09	1157292	keystroke	n	n/a
578.795	0.12	1157590	keystroke	t	n/a
579.021	0.089	1158042	keystroke	r	n/a
579.17	0.105	1158340	keystroke	o	n/a
579.396	0.105	1158792	keystroke	v	n/a
579.635	0.091	1159270	keystroke	e	n/a
579.666	0.119	1159332	keystroke	r	n/a
580.146	0.075	1160292	keystroke	s	n/a
580.521	0.104	1161042	keystroke	y	n/a
580.73	0.09	1161460	keystroke	Key.space	n/a
581.391	0.06	1162782	keystroke	e	n/a
581.571	0.089	1163142	keystroke	l	n/a
581.691	0.074	1163382	keystroke	e	n/a
582.665	0.105	1165330	keystroke	Key.backspace	n/a
582.876	0.09	1165752	keystroke	Key.backspace	n/a
583.055	0.105	1166110	keystroke	Key.backspace	n/a
583.266	0.09	1166532	keystroke	c	n/a
583.581	0.075	1167162	keystroke	e	n/a
583.746	0.089	1167492	keystroke	l	n/a
583.821	0.074	1167642	keystroke	e	n/a
584.421	0.029	1168842	keystroke	b	n/a
585.276	0.105	1170552	keystroke	r	n/a
585.425	0.091	1170850	keystroke	a	n/a
585.966	0.06	1171932	keystroke	t	n/a
586.085	0.226	1172170	keystroke	i	n/a
586.13	0.21	1172260	keystroke	o	n/a
586.266	0.119	1172532	keystroke	n	n/a
586.355	0.105	1172710	keystroke	Key.space	n/a
586.67	0.061	1173340	keystroke	t	n/a
586.791	0.075	1173582	keystroke	e	n/a
586.941	0.105	1173882	keystroke	n	n/a
587.166	0.059	1174332	keystroke	t	n/a
587.331	0.075	1174662	keystroke	Key.enter	n/a
587.412	11.3805	1174824	prompt	n/a	refinance ensures completion croatia\n
589.205	0.076	1178410	keystroke	r	n/a
589.626	0.06	1179252	keystroke	e	n/a
589.835	0.091	1179670	keystroke	f	n/a
589.986	0.12	1179972	keystroke	i	n/a
590.21	0.12	1180420	keystroke	n	n/a
590.646	0.075	1181292	keystroke	a	n/a
590.81	0.076	1181620	keystroke	n	n/a
591.05	0.076	1182100	keystroke	c	n/a
591.246	0.045	1182492	keystroke	e	n/a
591.41	0.075	1182820	keystroke	Key.space	n/a
591.741	0.09	1183482	keystroke	e	n/a
591.95	0.106	1183900	keystroke	n	n/a
592.161	0.06	1184322	keystroke	s	n/a
592.311	0.074	1184622	keystroke	u	n/a
592.431	0.104	1184862	keystroke	r	n/a
592.506	0.105	1185012	keystroke	e	n/a
592.73	0.09	1185460	keystroke	s	n/a
592.85	0.12	1185700	keystroke	Key.space	n/a
593.811	0.105	1187622	keystroke	c	n/a
594.156	0.105	1188312	keystroke	o	n/a
594.411	0.119	1188822	keystroke	m	n/a
594.875	0.076	1189750	keystroke	p	n/a
595.071	0.12	1190142	keystroke	l	n/a
595.206	0.075	1190412	keystroke	e	n/a
595.476	0.075	1190952	keystroke	t	n/a
595.566	0.255	1191132	keystroke	i	n/a
595.671	0.24	1191342	keystroke	o	n/a
595.791	0.165	1191582	keystroke	n	n/a
595.895	0.136	1191790	keystroke	Key.space	n/a
596.256	0.1045	1192512	keystroke	c	n/a
596.6155	0.06	1193231	keystroke	r	n/a
596.7355	0.105	1193471	keystroke	o	n/a
597.441	0.06	1194882	keystroke	a	n/a
597.7405	0.0605	1195481	keystroke	t	n/a
597.9655	0.1205	1195931	keystroke	i	n/a
598.5055	0.0755	1197011	keystroke	a	n/a
598.7005	0.0905	1197401	keystroke	Key.enter	n/a
598.7975	10.57	1197595	prompt	n/a	copied opposition fear tracking\n
599.7505	0.105	1199501	keystroke	c	n/a
599.9155	0.075	1199831	keystroke	o	n/a
600.111	0.0895	1200222	keystroke	p	n/a
600.336	0.0595	1200672	keystroke	e	n/a
600.801	0.0745	1201602	keystroke	d	n/a
601.761	0.0895	1203522	keystroke	Key.backspace	n/a
601.9405	0.09	1203881	keystroke	Key.backspace	n/a
602.3755	0.09	1204751	keystroke	i	n/a
602.5705	0.075	1205141	keystroke	e	n/a
602.7805	0.075	1205561	keystroke	d	n/a
603.036	0.0895	1206072	keystroke	Key.space	n/a
603.5305	0.09	1207061	keystroke	o	n/a
603.7405	0.075	1207481	keystroke	p	n/a
603.8905	0.105	1207781	keystroke	p	n/a
604.1155	0.09	1208231	keystroke	o	n/a
604.3405	0.105	1208681	keystroke	s	n/a
604.6255	0.075	1209251	keystroke	i	n/a
604.8205	0.06	1209641	keystroke	t	n/a
604.9405	0.15	1209881	keystroke	i	n/a
605.0305	0.18	1210061	keystroke	o	n/a
605.1505	0.165	1210301	keystroke	n	n/a
605.3305	0.09	1210661	keystroke	Key.space	n/a
605.7955	0.09	1211591	keystroke	f	n/a
605.9755	0.075	1211951	keystroke	e	n/a
606.1405	0.06	1212281	keystroke	a	n/a
606.4705	0.03	1212941	keystroke	r	n/a
606.9355	0.075	1213871	keystroke	Key.space	n/a
607.0855	0.09	1214171	keystroke	t	n/a
607.2955	0.075	1214591	keystroke	r	n/a
607.4905	0.06	1214981	keystroke	a	n/a
608.1805	0.105	1216361	keystroke	c	n/a
608.5555	0.09	1217111	keystroke	k	n/a
608.7505	0.09	1217501	keystroke	i	n/a
608.9155	0.0895	1217831	keystroke	n	n/a
609.08	0.075	1218160	keystroke	g	n/a
609.35	0.015	1218700	keystroke	Key.enter	n/a
609.3725	8.77	1218745	prompt	n/a	benefits nutten separation walked\n
610.385	0.075	1220770	keystroke	b	n/a
610.61	0.06	1221220	keystroke	e	n/a
610.865	0.015	1221730	keystroke	n	n/a
611.075	0.075	1222150	keystroke	e	n/a
611.33	0.091	1222660	keystroke	f	n/a
611.465	0.09	1222930	keystroke	i	n/a
611.57	0.091	1223140	keystroke	t	n/a
611.751	0.104	1223502	keystroke	s	n/a
611.9	0.075	1223800	keystroke	Key.space	n/a
612.156	0.104	1224312	keystroke	n	n/a
612.395	0.09	1224790	keystroke	u	n/a
612.59	0.045	1225180	keystroke	t	n/a
612.725	0.075	1225450	keystroke	t	n/a
612.935	0.075	1225870	keystroke	e	n/a
613.116	0.134	1226232	keystroke	n	n/a
613.235	0.12	1226470	keystroke	Key.space	n/a
613.551	0.105	1227102	keystroke	s	n/a
614.061	0.059	1228122	keystroke	e	n/a
614.465	0.09	1228930	keystroke	p	n/a
614.795	0.075	1229590	keystroke	a	n/a
614.976	0.105	1229952	keystroke	r	n/a
615.155	0.106	1230310	keystroke	a	n/a
615.365	0.076	1230730	keystroke	t	n/a
615.65	0.105	1231300	keystroke	i	n/a
615.89	0.09	1231780	keystroke	o	n/a
616.101	0.104	1232202	keystroke	n	n/a
616.28	0.12	1232560	keystroke	Key.space	n/a
616.82	0.076	1233640	keystroke	w	n/a
617.015	0.06	1234030	keystroke	a	n/a
617.18	0.091	1234360	keystroke	l	n/a
617.45	0.091	1234900	keystroke	k	n/a
617.585	0.075	1235170	keystroke	e	n/a
617.796	0.089	1235592	keystroke	d	n/a
618.065	0.075	1236130	keystroke	Key.enter	n/a
618.148	12.114	1236296	prompt	n/a	martial advertise agrees transcription\n
619.295	0.106	1238590	keystroke	m	n/a
619.715	0.09	1239430	keystroke	a	n/a
620.076	0.09	1240152	keystroke	r	n/a
620.345	0.06	1240690	keystroke	t	n/a
620.541	0.075	1241082	keystroke	i	n/a
620.645	0.09	1241290	keystroke	a	n/a
620.78	0.151	1241560	keystroke	l	n/a
620.9	0.12	1241800	keystroke	Key.space	n/a
621.126	0.075	1242252	keystroke	s	n/a
622.205	0.12	1244410	keystroke	Key.backspace	n/a
622.356	0.075	1244712	keystroke	a	n/a
622.566	0.074	1245132	keystroke	d	n/a
622.88	0.09	1245760	keystroke	v	n/a
623.106	0.089	1246212	keystroke	e	n/a
623.166	0.105	1246332	keystroke	r	n/a
623.375	0.075	1246750	keystroke	t	n/a
623.466	0.089	1246932	keystroke	i	n/a
623.735	0.061	1247470	keystroke	s	n/a
623.901	0.06	1247802	keystroke	e	n/a
624.02	0.09	1248040	keystroke	Key.space	n/a
624.291	0.089	1248582	keystroke	a	n/a
624.501	0.09	1249002	keystroke	g	n/a
624.711	0.089	1249422	keystroke	r	n/a
624.906	0.059	1249812	keystroke	e	n/a
625.041	0.075	1250082	keystroke	e	n/a
625.236	0.09	1250472	keystroke	s	n/a
625.37	0.09	1250740	keystroke	Key.space	n/a
625.866	0.09	1251732	keystroke	t	n/a
626.091	0.12	1252182	keystroke	r	n/a
626.271	0.09	1252542	keystroke	a	n/a
626.511	0.044	1253022	keystroke	n	n/a
626.631	0.09	1253262	keystroke	s	n/a
626.961	0.075	1253922	keystroke	c	n/a
627.8	0.09	1255600	keystroke	r	n/a
628.145	0.076	1256290	keystroke	i	n/a
628.611	0.105	1257222	keystroke	p	n/a
628.88	0.076	1257760	keystroke	t	n/a
629.061	0.165	1258122	keystroke	i	n/a
629.316	0.12	1258632	keystroke	o	n/a
629.556	0.105	1259112	keystroke	n	n/a
630.155	0.105	1260310	keystroke	Key.enter	n/a
630.268	7.99	1260536	prompt	n/a	violations herbs speaks steal\n
631.296	0.074	1262592	keystroke	v	n/a
631.401	0.075	1262802	keystroke	i	n/a
631.7	0.075	1263400	keystroke	o	n/a
631.926	0.09	1263852	keystroke	l	n/a
632.091	0.135	1264182	keystroke	a	n/a
632.331	0.074	1264662	keystroke	t	n/a
632.481	0.15	1264962	keystroke	i	n/a
632.945	0.136	1265890	keystroke	o	n/a
633.186	0.105	1266372	keystroke	n	n/a
633.381	0.104	1266762	keystroke	Key.space	n/a
633.861	0.105	1267722	keystroke	h	n/a
634.041	0.105	1268082	keystroke	e	n/a
634.1	0.136	1268200	keystroke	r	n/a
634.581	0.06	1269162	keystroke	b	n/a
634.836	0.075	1269672	keystroke	s	n/a
635.0905	0.059	1270181	keystroke	Key.space	n/a
635.6305	0.074	1271261	keystroke	s	n/a
635.811	0.0895	1271622	keystroke	p	n/a
635.9605	0.075	1271921	keystroke	e	n/a
636.1405	0.089	1272281	keystroke	a	n/a
636.3805	0.09	1272761	keystroke	k	n/a
636.5605	0.09	1273121	keystroke	s	n/a
636.7245	0.09	1273449	keystroke	Key.space	n/a
636.9805	0.09	1273961	keystroke	s	n/a
637.206	0.074	1274412	keystroke	t	n/a
637.4445	0.076	1274889	keystroke	e	n/a
637.6695	0.075	1275339	keystroke	a	n/a
637.8655	0.0905	1275731	keystroke	l	n/a
638.1805	0.075	1276361	keystroke	Key.enter	n/a
638.2715	9.2555	1276543	prompt	n/a	trinity balloon bridge pose\n
640.0405	0.09	1280081	keystroke	t	n/a
640.2795	0.0615	1280559	keystroke	r	n/a
640.476	0.075	1280952	keystroke	i	n/a
640.656	0.09	1281312	keystroke	n	n/a
640.775	0.1355	1281550	keystroke	i	n/a
640.9705	0.1055	1281941	keystroke	t	n/a
641.1505	0.06	1282301	keystroke	y	n/a
641.226	0.1345	1282452	keystroke	Key.space	n/a
641.9755	0.075	1283951	keystroke	b	n/a
642.2455	0.075	1284491	keystroke	a	n/a
642.4105	0.09	1284821	keystroke	l	n/a
642.5905	0.0905	1285181	keystroke	l	n/a
642.8155	0.075	1285631	keystroke	o	n/a
642.9655	0.105	1285931	keystroke	o	n/a
644.4205	0.105	1288841	keystroke	n	n/a
644.8855	0.09	1289771	keystroke	Key.space	n/a
645.1105	0.09	1290221	keystroke	b	n/a
645.3505	0.075	1290701	keystroke	r	n/a
645.5755	0.075	1291151	keystroke	i	n/a
645.6955	0.09	1291391	keystroke	d	n/a
646.0105	0.06	1292021	keystroke	g	n/a
646.1305	0.075	1292261	keystroke	e	n/a
646.2955	0.075	1292591	keystroke	Key.space	n/a
646.5205	0.075	1293041	keystroke	p	n/a
646.7155	0.075	1293431	keystroke	o	n/a
646.8055	0.09	1293611	keystroke	s	n/a
647.0905	0.06	1294181	keystroke	e	n/a
647.4505	0.075	1294901	keystroke	Key.enter	n/a
647.531	10.8115	1295062	prompt	n/a	somerset winning significantly pipeline\n
648.3355	0.09	1296671	keystroke	s	n/a
648.7555	0.09	1297511	keystroke	o	n/a
648.9955	0.09	1297991	keystroke	m	n/a
649.1605	0.09	1298321	keystroke	e	n/a
649.2355	0.135	1298471	keystroke	r	n/a
649.6555	0.06	1299311	keystroke	s	n/a
649.7905	0.075	1299581	keystroke	e	n/a
650.0755	0.075	1300151	keystroke	t	n/a
650.2105	0.09	1300421	keystroke	Key.space	n/a
650.6305	0.075	1301261	keystroke	w	n/a
650.7955	0.075	1301591	keystroke	i	n/a
651.0205	0.06	1302041	keystroke	n	n/a
651.1705	0.105	1302341	keystroke	n	n/a
651.3355	0.09	1302671	keystroke	i	n/a
651.5155	0.09	1303031	keystroke	n	n/a
651.7405	0.03	1303481	keystroke	g	n/a
651.7855	0.105	1303571	keystroke	Key.space	n/a
652.071	0.0895	1304142	keystroke	s	n/a
652.1905	0.075	1304381	keystroke	i	n/a
652.4005	0.075	1304801	keystroke	g	n/a
652.5355	0.09	1305071	keystroke	n	n/a
652.7155	0.09	1305431	keystroke	i	n/a
652.8655	0.09	1305731	keystroke	f	n/a
653.0305	0.105	1306061	keystroke	i	n/a
653.1655	0.135	1306331	keystroke	c	n/a
653.5855	0.06	1307171	keystroke	a	n/a
653.9755	0.09	1307951	keystroke	n	n/a
654.1255	0.06	1308251	keystroke	t	n/a
654.2605	0.09	1308521	keystroke	l	n/a
654.5455	0.12	1309091	keystroke	y	n/a
654.6805	0.12	1309361	keystroke	Key.space	n/a
655.2355	0.09	1310471	keystroke	p	n/a
655.4905	0.075	1310981	keystroke	i	n/a
655.7155	0.105	1311431	keystroke	p	n/a
657.3955	0.075	1314791	keystroke	e	n/a
657.5005	0.105	1315001	keystroke	l	n/a
657.7405	0.06	1315481	keystroke	i	n/a
657.9205	0.09	1315841	keystroke	n	n/a
658.0555	0.075	1316111	keystroke	e	n/a
658.2805	0.06	1316561	keystroke	Key.enter	n/a
658.3475	6.1295	1316695	prompt	n/a	took rover actual object\n
659.3005	0.105	1318601	keystroke	t	n/a
659.4355	0.075	1318871	keystroke	o	n/a
659.6305	0.075	1319261	keystroke	o	n/a
659.8555	0.09	1319711	keystroke	k	n/a
660.0055	0.09	1320011	keystroke	Key.space	n/a
660.3055	0.075	1320611	keystroke	r	n/a
660.4105	0.105	1320821	keystroke	o	n/a
660.5755	0.09	1321151	keystroke	v	n/a
660.7555	0.09	1321511	keystroke	e	n/a
660.8005	0.12	1321601	keystroke	r	n/a
660.9355	0.09	1321871	keystroke	Key.space	n/a
661.1005	0.075	1322201	keystroke	a	n/a
661.3105	0.135	1322621	keystroke	c	n/a
661.4305	0.09	1322861	keystroke	t	n/a
661.5955	0.075	1323191	keystroke	u	n/a
661.7005	0.075	1323401	keystroke	a	n/a
661.8355	0.15	1323671	keystroke	l	n/a
661.9405	0.105	1323881	keystroke	Key.space	n/a
662.2405	0.09	1324481	keystroke	o	n/a
662.8855	0.06	1325771	keystroke	b	n/a
663.2005	0.075	1326401	keystroke	j	n/a
663.3505	0.06	1326701	keystroke	e	n/a
663.5755	0.105	1327151	keystroke	c	n/a
663.6955	0.075	1327391	keystroke	t	n/a
664.4155	0.06	1328831	keystroke	Key.enter	n/a
664.4875	14.675	1328975	prompt	n/a	logical leonard steady late\n
665.6755	0.09	1331351	keystroke	l	n/a
665.8855	0.09	1331771	keystroke	o	n/a
666.0205	0.075	1332041	keystroke	g	n/a
666.1405	0.09	1332281	keystroke	i	n/a
666.4105	0.09	1332821	keystroke	c	n/a
666.4855	0.09	1332971	keystroke	a	n/a
666.6055	0.135	1333211	keystroke	l	n/a
666.7555	0.075	1333511	keystroke	Key.space	n/a
667.0855	0.12	1334171	keystroke	l	n/a
667.1905	0.075	1334381	keystroke	e	n/a
667.7455	0.09	1335491	keystroke	n	n/a
668.0905	0.075	1336181	keystroke	a	n/a
668.2555	0.105	1336511	keystroke	r	n/a
668.4955	0.075	1336991	keystroke	d	n/a
668.6005	0.105	1337201	keystroke	Key.space	n/a
668.9905	0.09	1337981	keystroke	s	n/a
669.1255	0.105	1338251	keystroke	t	n/a
669.3805	0.09	1338761	keystroke	e	n/a
670.9705	0.075	1341941	keystroke	Key.backspace	n/a
671.1355	0.105	1342271	keystroke	Key.backspace	n/a
671.3305	0.09	1342661	keystroke	Key.backspace	n/a
671.5105	0.09	1343021	keystroke	Key.backspace	n/a
671.6905	0.105	1343381	keystroke	Key.backspace	n/a
671.8855	0.09	1343771	keystroke	Key.backspace	n/a
672.1105	0.09	1344221	keystroke	Key.backspace	n/a
672.8305	0.0595	1345661	keystroke	Key.backspace	n/a
673.385	0.0905	1346770	keystroke	o	n/a
673.61	0.105	1347220	keystroke	n	n/a
673.7455	0.1045	1347491	keystroke	a	n/a
673.9555	0.0895	1347911	keystroke	r	n/a
674.165	0.075	1348330	keystroke	d	n/a
674.315	0.0905	1348630	keystroke	Key.space	n/a
674.7055	0.1495	1349411	keystroke	s	n/a
674.87	0.09	1349740	keystroke	t	n/a
675.065	0.075	1350130	keystroke	e	n/a
675.53	0.06	1351060	keystroke	a	n/a
675.725	0.075	1351450	keystroke	d	n/a
675.98	0.105	1351960	keystroke	y	n/a
676.205	0.075	1352410	keystroke	Key.space	n/a
676.865	0.105	1353730	keystroke	l	n/a
676.94	0.075	1353880	keystroke	a	n/a
677.195	0.091	1354390	keystroke	t	n/a
677.3	0.06	1354600	keystroke	e	n/a
679.055	0.105	1358110	keystroke	Key.enter	n/a
679.1715	11.2405	1358343	prompt	n/a	moral basis supplies efficiency\n
680.135	0.09	1360270	keystroke	m	n/a
680.3	0.12	1360600	keystroke	o	n/a
680.435	0.135	1360870	keystroke	r	n/a
680.6	0.09	1361200	keystroke	a	n/a
680.72	0.18	1361440	keystroke	l	n/a
680.84	0.12	1361680	keystroke	Key.space	n/a
681.065	0.105	1362130	keystroke	b	n/a
681.155	0.12	1362310	keystroke	a	n/a
681.35	0.105	1362700	keystroke	s	n/a
681.635	0.09	1363270	keystroke	e	n/a
683.675	0.105	1367350	keystroke	Key.backspace	n/a
684.56	0.09	1369120	keystroke	i	n/a
684.635	0.105	1369270	keystroke	s	n/a
684.725	0.105	1369450	keystroke	Key.space	n/a
684.89	0.09	1369780	keystroke	s	n/a
685.145	0.09	1370290	keystroke	u	n/a
685.325	0.09	1370650	keystroke	p	n/a
685.475	0.105	1370950	keystroke	p	n/a
685.7	0.12	1371400	keystroke	l	n/a
685.94	0.075	1371880	keystroke	i	n/a
686	0.09	1372000	keystroke	e	n/a
686.255	0.075	1372510	keystroke	s	n/a
686.375	0.09	1372750	keystroke	Key.space	n/a
686.84	0.09	1373680	keystroke	e	n/a
687.095	0.09	1374190	keystroke	f	n/a
687.215	0.06	1374430	keystroke	f	n/a
687.8895	0.075	1375779	keystroke	i	n/a
688.2045	0.0905	1376409	keystroke	c	n/a
688.3095	0.105	1376619	keystroke	i	n/a
688.46	0.0595	1376920	keystroke	e	n/a
688.5945	0.09	1377189	keystroke	n	n/a
689.405	0.075	1378810	keystroke	c	n/a
689.765	0.0745	1379530	keystroke	y	n/a
690.335	0.075	1380670	keystroke	Key.enter	n/a
690.417	13.405	1380834	prompt	n/a	preceding communities upon journalists\n
691.4145	0.0905	1382829	keystroke	p	n/a
691.6545	0.105	1383309	keystroke	r	n/a
691.7305	0.1195	1383461	keystroke	e	n/a
692.5545	0.0755	1385109	keystroke	c	n/a
692.81	0.076	1385620	keystroke	e	n/a
693.02	0.09	1386040	keystroke	d	n/a
693.125	0.075	1386250	keystroke	i	n/a
693.29	0.12	1386580	keystroke	n	n/a
693.455	0.09	1386910	keystroke	g	n/a
693.56	0.1195	1387120	keystroke	Key.space	n/a
693.8895	0.075	1387779	keystroke	c	n/a
694.0095	0.12	1388019	keystroke	o	n/a
694.2945	0.06	1388589	keystroke	m	n/a
694.461	0.074	1388922	keystroke	m	n/a
694.7	0.0895	1389400	keystroke	u	n/a
694.925	0.105	1389850	keystroke	n	n/a
695.1345	0.105	1390269	keystroke	i	n/a
695.2845	0.0905	1390569	keystroke	t	n/a
695.405	0.09	1390810	keystroke	i	n/a
695.5095	0.0905	1391019	keystroke	e	n/a
695.7795	0.09	1391559	keystroke	s	n/a
696.3645	0.075	1392729	keystroke	Key.space	n/a
696.6495	0.21	1393299	keystroke	u	n/a
696.8295	0.12	1393659	keystroke	p	n/a
698.0595	0.09	1396119	keystroke	u	n/a
699.6645	0.105	1399329	keystroke	Key.backspace	n/a
700.4455	0.09	1400891	keystroke	o	n/a
700.6095	0.165	1401219	keystroke	n	n/a
700.7895	0.075	1401579	keystroke	Key.space	n/a
701.1495	0.15	1402299	keystroke	j	n/a
701.5095	0.105	1403019	keystroke	o	n/a
701.7645	0.09	1403529	keystroke	u	n/a
701.9895	0.09	1403979	keystroke	r	n/a
702.3345	0.09	1404669	keystroke	n	n/a
702.5455	0.089	1405091	keystroke	a	n/a
702.7095	0.09	1405419	keystroke	l	n/a
702.9495	0.06	1405899	keystroke	i	n/a
703.0845	0.12	1406169	keystroke	s	n/a
703.2945	0.09	1406589	keystroke	t	n/a
703.4445	0.075	1406889	keystroke	s	n/a
703.7595	0.06	1407519	keystroke	Key.enter	n/a
703.827	8.29	1407654	prompt	n/a	heel court we've related\n
704.6895	0.076	1409379	keystroke	h	n/a
704.7795	0.076	1409559	keystroke	e	n/a
704.9295	0.09	1409859	keystroke	e	n/a
705.0795	0.15	1410159	keystroke	l	n/a
705.2145	0.105	1410429	keystroke	Key.space	n/a
705.3645	0.09	1410729	keystroke	c	n/a
705.4845	0.105	1410969	keystroke	o	n/a
705.5445	0.12	1411089	keystroke	u	n/a
705.8305	0.014	1411661	keystroke	r	n/a
705.9495	0.075	1411899	keystroke	t	n/a
706.0695	0.09	1412139	keystroke	Key.space	n/a
706.3995	0.091	1412799	keystroke	w	n/a
706.5795	0.075	1413159	keystroke	e	n/a
708.5295	0.106	1417059	keystroke	'	n/a
708.9055	0.044	1417811	keystroke	v	n/a
709.0545	0.075	1418109	keystroke	e	n/a
709.8495	0.09	1419699	keystroke	Key.space	n/a
710.3145	0.09	1420629	keystroke	r	n/a
710.3895	0.076	1420779	keystroke	e	n/a
710.5245	0.12	1421049	keystroke	l	n/a
710.6305	0.119	1421261	keystroke	a	n/a
710.7655	0.059	1421531	keystroke	t	n/a
710.8395	0.075	1421679	keystroke	e	n/a
711.0195	0.076	1422039	keystroke	d	n/a
711.9795	0.135	1423959	keystroke	Key.enter	n/a
712.1225	7.1345	1424245	prompt	n/a	designed colleague marina elect\n
713.0445	0.09	1426089	keystroke	d	n/a
713.2395	0.046	1426479	keystroke	e	n/a
713.4505	0.105	1426901	keystroke	s	n/a
713.6145	0.09	1427229	keystroke	i	n/a
713.8105	0.059	1427621	keystroke	g	n/a
713.9145	0.135	1427829	keystroke	n	n/a
714.0355	0.06	1428071	keystroke	e	n/a
714.2145	0.091	1428429	keystroke	d	n/a
714.2895	0.105	1428579	keystroke	Key.space	n/a
714.5745	0.076	1429149	keystroke	c	n/a
714.6655	0.104	1429331	keystroke	o	n/a
714.9345	0.061	1429869	keystroke	l	n/a
715.0695	0.136	1430139	keystroke	l	n/a
715.1605	0.075	1430321	keystroke	e	n/a
715.2795	0.091	1430559	keystroke	a	n/a
716.2105	0.045	1432421	keystroke	g	n/a
716.3605	0.075	1432721	keystroke	u	n/a
716.4955	0.074	1432991	keystroke	e	n/a
716.7055	0.074	1433411	keystroke	Key.space	n/a
716.9755	0.09	1433951	keystroke	m	n/a
717.1405	0.09	1434281	keystroke	a	n/a
717.2155	0.105	1434431	keystroke	r	n/a
717.3955	0.06	1434791	keystroke	i	n/a
717.5755	0.09	1435151	keystroke	n	n/a
717.6795	0.076	1435359	keystroke	a	n/a
717.7845	0.105	1435569	keystroke	Key.space	n/a
718.0705	0.059	1436141	keystroke	e	n/a
718.2205	0.105	1436441	keystroke	l	n/a
718.2955	0.09	1436591	keystroke	e	n/a
718.5655	0.089	1437131	keystroke	c	n/a
718.6705	0.044	1437341	keystroke	t	n/a
719.1655	0.089	1438331	keystroke	Key.enter	n/a
719.262	7.0155	1438524	prompt	n/a	everybody camel channels share\n
720.1255	0.089	1440251	keystroke	e	n/a
720.3355	0.075	1440671	keystroke	v	n/a
720.5005	0.09	1441001	keystroke	e	n/a
720.5605	0.075	1441121	keystroke	r	n/a
720.7555	0.105	1441511	keystroke	y	n/a
720.9655	0.059	1441931	keystroke	b	n/a
721.0695	0.136	1442139	keystroke	o	n/a
721.2205	0.09	1442441	keystroke	d	n/a
721.4605	0.09	1442921	keystroke	y	n/a
721.6995	0.105	1443399	keystroke	Key.space	n/a
722.3305	0.104	1444661	keystroke	c	n/a
722.4195	0.12	1444839	keystroke	a	n/a
722.6305	0.12	1445261	keystroke	m	n/a
722.7355	0.075	1445471	keystroke	e	n/a
722.9005	0.15	1445801	keystroke	l	n/a
723.0195	0.106	1446039	keystroke	Key.space	n/a
723.2905	0.105	1446581	keystroke	c	n/a
723.4555	0.09	1446911	keystroke	h	n/a
723.6345	0.046	1447269	keystroke	a	n/a
724.1595	0.06	1448319	keystroke	n	n/a
724.3095	0.076	1448619	keystroke	n	n/a
724.4455	0.06	1448891	keystroke	e	n/a
724.5955	0.074	1449191	keystroke	l	n/a
725.0145	0.061	1450029	keystroke	s	n/a
725.1505	0.074	1450301	keystroke	Key.space	n/a
725.3905	0.074	1450781	keystroke	s	n/a
725.5095	0.091	1451019	keystroke	h	n/a
725.6755	0.075	1451351	keystroke	a	n/a
725.7355	0.12	1451471	keystroke	r	n/a
725.8395	0.075	1451679	keystroke	e	n/a
726.2005	0.075	1452401	keystroke	Key.enter	n/a
726.2825	9.355	1452565	prompt	n/a	manchester totally moscow diane\n
727.2195	0.106	1454439	keystroke	m	n/a
727.3855	0.06	1454771	keystroke	a	n/a
727.5055	0.105	1455011	keystroke	n	n/a
727.7155	0.09	1455431	keystroke	c	n/a
727.8355	0.09	1455671	keystroke	h	n/a
728.6305	0.075	1457261	keystroke	e	n/a
728.8105	0.165	1457621	keystroke	s	n/a
728.9305	0.105	1457861	keystroke	t	n/a
729.1855	0.075	1458371	keystroke	e	n/a
729.2305	0.09	1458461	keystroke	r	n/a
729.5445	0.106	1459089	keystroke	Key.space	n/a
729.8005	0.119	1459601	keystroke	t	n/a
729.8905	0.09	1459781	keystroke	o	n/a
730.7605	0.09	1461521	keystroke	t	n/a
730.8805	0.105	1461761	keystroke	a	n/a
731.0755	0.06	1462151	keystroke	l	n/a
731.2255	0.105	1462451	keystroke	l	n/a
731.4205	0.165	1462841	keystroke	y	n/a
731.5705	0.09	1463141	keystroke	Key.space	n/a
732.6655	0.105	1465331	keystroke	m	n/a
732.9055	0.0895	1465811	keystroke	o	n/a
733.175	0.06	1466350	keystroke	s	n/a
733.355	0.09	1466710	keystroke	c	n/a
733.49	0.12	1466980	keystroke	o	n/a
733.745	0.075	1467490	keystroke	w	n/a
733.895	0.105	1467790	keystroke	Key.space	n/a
734.285	0.075	1468570	keystroke	d	n/a
734.39	0.105	1468780	keystroke	i	n/a
734.78	0.06	1469560	keystroke	a	n/a
734.945	0.075	1469890	keystroke	n	n/a
735.065	0.06	1470130	keystroke	e	n/a
735.545	0.09	1471090	keystroke	Key.enter	n/a
735.6435	8.3485	1471287	prompt	n/a	elizabeth buying stats repairs\n
736.625	0.03	1473250	keystroke	e	n/a
737.015	0.105	1474030	keystroke	l	n/a
737.24	0.06	1474480	keystroke	i	n/a
737.465	0.075	1474930	keystroke	z	n/a
737.66	0.06	1475320	keystroke	a	n/a
737.9	0.06	1475800	keystroke	b	n/a
738.095	0.075	1476190	keystroke	e	n/a
738.29	0.06	1476580	keystroke	t	n/a
738.425	0.18	1476850	keystroke	h	n/a
738.515	0.15	1477030	keystroke	Key.space	n/a
738.86	0.075	1477720	keystroke	b	n/a
739.67	0.105	1479340	keystroke	u	n/a
740.12	0.09	1480240	keystroke	y	n/a
740.345	0.075	1480690	keystroke	i	n/a
740.555	0.105	1481110	keystroke	n	n/a
740.735	0.075	1481470	keystroke	g	n/a
740.795	0.105	1481590	keystroke	Key.space	n/a
741.005	0.105	1482010	keystroke	s	n/a
741.155	0.09	1482310	keystroke	t	n/a
741.26	0.09	1482520	keystroke	a	n/a
741.395	0.075	1482790	keystroke	t	n/a
741.695	0.075	1483390	keystroke	s	n/a
741.845	0.09	1483690	keystroke	Key.space	n/a
742.205	0.06	1484410	keystroke	r	n/a
742.25	0.075	1484500	keystroke	e	n/a
742.505	0.09	1485010	keystroke	p	n/a
742.745	0.075	1485490	keystroke	a	n/a
742.97	0.045	1485940	keystroke	i	n/a
743.09	0.06	1486180	keystroke	r	n/a
743.33	0.09	1486660	keystroke	s	n/a
743.915	0.075	1487830	keystroke	Key.enter	n/a
743.9965	23.785	1487993	prompt	n/a	reading maintenance standings bahrain\n
745.13	0.135	1490260	keystroke	r	n/a
745.46	0.09	1490920	keystroke	e	n/a
745.67	0.09	1491340	keystroke	a	n/a
745.895	0.075	1491790	keystroke	d	n/a
746.03	0.076	1492060	keystroke	i	n/a
746.21	0.18	1492420	keystroke	n	n/a
746.345	0.091	1492690	keystroke	g	n/a
746.45	0.12	1492900	keystroke	Key.space	n/a
746.66	0.15	1493320	keystroke	m	n/a
746.795	0.09	1493590	keystroke	a	n/a
747.725	0.0745	1495450	keystroke	i	n/a
748.2945	0.09	1496589	keystroke	n	n/a
748.5495	0.0755	1497099	keystroke	t	n/a
748.7895	0.06	1497579	keystroke	e	n/a
748.94	0.0745	1497880	keystroke	n	n/a
749	0.0895	1498000	keystroke	e	n/a
