onset	duration	sample	value	key	prompt_text
1.2245	15.0325	2449	prompt	n/a	the quick brown fox jumps over a lazy dog\n
8.141	0.0005	16282	keystroke_t	t	n/a
8.141	0.071	16282	keystroke_h	h	n/a
8.272	0.135	16544	keystroke_e	e	n/a
8.5275	0.1195	17055	keystroke_Key.space	Key.space	n/a
8.6775	0.12	17355	keystroke_q	q	n/a
8.8425	0.09	17685	keystroke_u	u	n/a
8.8875	0.105	17775	keystroke_i	i	n/a
9.1275	0.12	18255	keystroke_c	c	n/a
9.4425	0.104	18885	keystroke_k	k	n/a
9.5475	0.09	19095	keystroke_Key.space	Key.space	n/a
9.7425	0.09	19485	keystroke_b	b	n/a
10.0875	0.0895	20175	keystroke_r	r	n/a
10.192	0.1355	20384	keystroke_o	o	n/a
10.3875	0.105	20775	keystroke_w	w	n/a
10.5825	0.06	21165	keystroke_n	n	n/a
10.7025	0.105	21405	keystroke_Key.space	Key.space	n/a
10.8675	0.105	21735	keystroke_f	f	n/a
11.1225	0.12	22245	keystroke_o	o	n/a
11.5115	0.136	23023	keystroke_x	x	n/a
11.6775	0.09	23355	keystroke_Key.space	Key.space	n/a
11.8425	0.09	23685	keystroke_j	j	n/a
12.0225	0.0455	24045	keystroke_u	u	n/a
12.1875	0.12	24375	keystroke_m	m	n/a
12.2925	0.12	24585	keystroke_p	p	n/a
12.3975	0.105	24795	keystroke_s	s	n/a
12.4865	0.105	24973	keystroke_Key.space	Key.space	n/a
12.6685	0.074	25337	keystroke_o	o	n/a
12.9515	0.091	25903	keystroke_v	v	n/a
13.1015	0.136	26203	keystroke_e	e	n/a
13.2225	0.12	26445	keystroke_r	r	n/a
13.5065	0.1205	27013	keystroke_Key.space	Key.space	n/a
13.702	0.136	27404	keystroke_a	a	n/a
13.822	0.075	27644	keystroke_v	v	n/a
13.912	0.09	27824	keystroke_Key.space	Key.space	n/a
14.017	0.09	28034	keystroke_a	a	n/a
14.362	0.06	28724	keystroke_Key.backspace	Key.backspace	n/a
14.482	0.0755	28964	keystroke_Key.backspace	Key.backspace	n/a
14.6175	0.09	29235	keystroke_Key.backspace	Key.backspace	n/a
14.7075	0.15	29415	keystroke_Key.space	Key.space	n/a
14.8725	0.15	29745	keystroke_l	l	n/a
15.0075	0.06	30015	keystroke_a	a	n/a
15.142	0.1355	30284	keystroke_z	z	n/a
15.3975	0.119	30795	keystroke_y	y	n/a
15.5315	0.105	31063	keystroke_Key.space	Key.space	n/a
15.7125	0.134	31425	keystroke_d	d	n/a
15.7265	0.136	31453	keystroke_o	o	n/a
15.9665	0.105	31933	keystroke_g	g	n/a
16.1615	0.09	32323	keystroke_Key.enter	Key.enter	n/a
16.2635	7.942	32527	prompt	n/a	antique letter beaver packages\n
17.3775	0.135	34755	keystroke_a	a	n/a
17.4825	0.06	34965	keystroke_n	n	n/a
17.9015	0.075	35803	keystroke_t	t	n/a
18.772	0.09	37544	keystroke_i	i	n/a
18.937	0.1055	37874	keystroke_q	q	n/a
19.0725	0.104	38145	keystroke_u	u	n/a
19.252	0.1205	38504	keystroke_e	e	n/a
19.4325	0.12	38865	keystroke_Key.space	Key.space	n/a
19.5675	0.135	39135	keystroke_l	l	n/a
19.8525	0.135	39705	keystroke_e	e	n/a
20.0175	0.045	40035	keystroke_t	t	n/a
20.1675	0.075	40335	keystroke_t	t	n/a
20.3025	0.195	40605	keystroke_e	e	n/a
20.4375	0.09	40875	keystroke_r	r	n/a
20.5275	0.105	41055	keystroke_Key.space	Key.space	n/a
21.0975	0.09	42195	keystroke_e	e	n/a
21.502	0.09	43004	keystroke_Key.backspace	Key.backspace	n/a
21.577	0.075	43154	keystroke_b	b	n/a
21.727	0.15	43454	keystroke_e	e	n/a
21.892	0.106	43784	keystroke_a	a	n/a
22.2075	0.06	44415	keystroke_v	v	n/a
22.3425	0.1795	44685	keystroke_e	e	n/a
22.4775	0.0745	44955	keystroke_r	r	n/a
22.597	0.105	45194	keystroke_Key.space	Key.space	n/a
22.792	0.12	45584	keystroke_p	p	n/a
22.882	0.105	45764	keystroke_a	a	n/a
23.197	0.12	46394	keystroke_c	c	n/a
23.302	0.105	46604	keystroke_k	k	n/a
23.512	0.12	47024	keystroke_a	a	n/a
23.662	0.0595	47324	keystroke_g	g	n/a
23.7525	0.09	47505	keystroke_e	e	n/a
23.9325	0.105	47865	keystroke_s	s	n/a
24.0825	0.12	48165	keystroke_Key.enter	Key.enter	n/a
24.21	8.636	48420	prompt	n/a	safari allocated plates sheet\n
24.7125	0.0905	49425	keystroke_a	a	n/a
25.012	0.075	50024	keystroke_Key.backspace	Key.backspace	n/a
25.027	0.136	50054	keystroke_s	s	n/a
25.177	0.12	50354	keystroke_a	a	n/a
25.4325	0.09	50865	keystroke_f	f	n/a
25.5675	0.135	51135	keystroke_e	e	n/a
25.7325	0.06	51465	keystroke_r	r	n/a
26.1225	0.105	52245	keystroke_i	i	n/a
26.3775	0.12	52755	keystroke_Key.space	Key.space	n/a
26.5575	0.135	53115	keystroke_a	a	n/a
26.6475	0.06	53295	keystroke_l	l	n/a
26.7825	0.075	53565	keystroke_l	l	n/a
26.9775	0.09	53955	keystroke_o	o	n/a
27.0975	0.15	54195	keystroke_c	c	n/a
27.2475	0.09	54495	keystroke_a	a	n/a
27.547	0.105	55094	keystroke_e	e	n/a
28.132	0.075	56264	keystroke_Key.backspace	Key.backspace	n/a
28.192	0.105	56384	keystroke_t	t	n/a
28.357	0.105	56714	keystroke_e	e	n/a
28.582	0.105	57164	keystroke_d	d	n/a
28.717	0.135	57434	keystroke_Key.space	Key.space	n/a
29.1975	0.105	58395	keystroke_p	p	n/a
29.3925	0.135	58785	keystroke_l	l	n/a
29.5875	0.0895	59175	keystroke_a	a	n/a
30.007	0.06	60014	keystroke_t	t	n/a
30.142	0.09	60284	keystroke_e	e	n/a
30.337	0.1205	60674	keystroke_s	s	n/a
30.4425	0.09	60885	keystroke_Key.space	Key.space	n/a
30.6525	0.105	61305	keystroke_h	h	n/a
30.9375	0.06	61875	keystroke_Key.backspace	Key.backspace	n/a
31.0275	0.105	62055	keystroke_s	s	n/a
31.1775	0.09	62355	keystroke_h	h	n/a
31.2525	0.0905	62505	keystroke_e	e	n/a
31.417	0.091	62834	keystroke_e	e	n/a
31.597	0.1205	63194	keystroke_t	t	n/a
32.7375	0.105	65475	keystroke_Key.enter	Key.enter	n/a
32.852	9.833	65704	prompt	n/a	wars profiles ciao ports\n
33.2775	0.105	66555	keystroke_s	s	n/a
33.5325	0.09	67065	keystroke_Key.backspace	Key.backspace	n/a
33.5625	0.12	67125	keystroke_w	w	n/a
33.6975	0.075	67395	keystroke_a	a	n/a
33.8625	0.06	67725	keystroke_r	r	n/a
34.0425	0.105	68085	keystroke_s	s	n/a
34.1625	0.09	68325	keystroke_Key.space	Key.space	n/a
34.4625	0.105	68925	keystroke_p	p	n/a
34.5975	0.09	69195	keystroke_r	r	n/a
34.6875	0.075	69375	keystroke_o	o	n/a
34.7925	0.105	69585	keystroke_f	f	n/a
34.8825	0.105	69765	keystroke_i	i	n/a
35.0175	0.06	70035	keystroke_e	e	n/a
35.0625	0.135	70125	keystroke_l	l	n/a
35.2275	0.135	70455	keystroke_s	s	n/a
35.3625	0.135	70725	keystroke_Key.space	Key.space	n/a
35.5725	0.135	71145	keystroke_c	c	n/a
35.6925	0.09	71385	keystroke_i	i	n/a
35.8275	0.075	71655	keystroke_a	a	n/a
35.9475	0.105	71895	keystroke_o	o	n/a
36.0975	0.12	72195	keystroke_Key.space	Key.space	n/a
36.4275	0.09	72855	keystroke_p	p	n/a
36.5325	0.075	73065	keystroke_a	a	n/a
36.5775	0.15	73155	keystroke_o	o	n/a
37.0125	0.075	74025	keystroke_Key.backspace	Key.backspace	n/a
37.1465	0.076	74293	keystroke_Key.backspace	Key.backspace	n/a
37.3425	0.105	74685	keystroke_o	o	n/a
37.4775	0.09	74955	keystroke_r	r	n/a
37.6725	0.105	75345	keystroke_t	t	n/a
38.092	0.09	76184	keystroke_Key.backspace	Key.backspace	n/a
38.242	0.075	76484	keystroke_Key.backspace	Key.backspace	n/a
38.377	0.09	76754	keystroke_Key.backspace	Key.backspace	n/a
38.527	0.06	77054	keystroke_Key.backspace	Key.backspace	n/a
38.662	0.06	77324	keystroke_Key.backspace	Key.backspace	n/a
38.797	0.075	77594	keystroke_Key.backspace	Key.backspace	n/a
38.932	0.075	77864	keystroke_Key.backspace	Key.backspace	n/a
39.082	0.06	78164	keystroke_Key.backspace	Key.backspace	n/a
39.232	0.045	78464	keystroke_Key.backspace	Key.backspace	n/a
39.352	0.0755	78704	keystroke_Key.backspace	Key.backspace	n/a
39.5025	0.075	79005	keystroke_Key.backspace	Key.backspace	n/a
39.6375	0.09	79275	keystroke_Key.backspace	Key.backspace	n/a
39.7875	0.075	79575	keystroke_Key.backspace	Key.backspace	n/a
40.0125	0.105	80025	keystroke_l	l	n/a
40.0875	0.09	80175	keystroke_e	e	n/a
40.2675	0.135	80535	keystroke_s	s	n/a
40.3875	0.105	80775	keystroke_Key.space	Key.space	n/a
40.8825	0.12	81765	keystroke_c	c	n/a
40.9875	0.12	81975	keystroke_i	i	n/a
41.0925	0.075	82185	keystroke_a	a	n/a
41.4525	0.09	82905	keystroke_o	o	n/a
41.6025	0.09	83205	keystroke_Key.space	Key.space	n/a
41.9025	0.075	83805	keystroke_p	p	n/a
42.0225	0.18	84045	keystroke_o	o	n/a
42.1275	0.09	84255	keystroke_r	r	n/a
42.3075	0.06	84615	keystroke_t	t	n/a
42.4725	0.1045	84945	keystroke_s	s	n/a
42.592	0.09	85184	keystroke_Key.enter	Key.enter	n/a
42.69	18.07	85380	prompt	n/a	installing aggregate mightn't firefox\n
43.358	0.149	86716	keystroke_i	i	n/a
43.463	0.104	86926	keystroke_n	n	n/a
43.838	0.104	87676	keystroke_s	s	n/a
44.033	0.09	88066	keystroke_t	t	n/a
44.197	0.106	88394	keystroke_a	a	n/a
44.288	0.059	88576	keystroke_l	l	n/a
44.408	0.105	88816	keystroke_l	l	n/a
44.557	0.151	89114	keystroke_i	i	n/a
44.663	0.09	89326	keystroke_n	n	n/a
44.722	0.121	89444	keystroke_g	g	n/a
44.827	0.12	89654	keystroke_Key.space	Key.space	n/a
44.993	0.135	89986	keystroke_a	a	n/a
45.203	0.075	90406	keystroke_g	g	n/a
45.383	0.06	90766	keystroke_g	g	n/a
45.548	0.1195	91096	keystroke_r	r	n/a
45.6525	0.12	91305	keystroke_e	e	n/a
45.8925	0.12	91785	keystroke_m	m	n/a
46.1925	0.075	92385	keystroke_a	a	n/a
46.372	0.061	92744	keystroke_t	t	n/a
46.492	0.136	92984	keystroke_e	e	n/a
46.612	0.12	93224	keystroke_Key.space	Key.space	n/a
46.792	0.105	93584	keystroke_i	i	n/a
47.077	0.045	94154	keystroke_Key.backspace	Key.backspace	n/a
47.2875	0.09	94575	keystroke_m	m	n/a
47.4225	0.105	94845	keystroke_i	i	n/a
47.5875	0.09	95175	keystroke_g	g	n/a
47.6785	0.104	95357	keystroke_h	h	n/a
47.7975	0.09	95595	keystroke_t	t	n/a
48.0975	0.12	96195	keystroke_n	n	n/a
48.6225	0.135	97245	keystroke_'	'	n/a
48.9825	0.105	97965	keystroke_t	t	n/a
49.7775	0.12	99555	keystroke_Key.space	Key.space	n/a
49.8825	0.12	99765	keystroke_f	f	n/a
50.2575	0.105	100515	keystroke_i	i	n/a
50.3475	0.135	100695	keystroke_r	r	n/a
50.4975	0.12	100995	keystroke_e	e	n/a
50.9775	0.105	101955	keystroke_f	f	n/a
51.0975	0.105	102195	keystroke_o	o	n/a
51.3075	0.12	102615	keystroke_x	x	n/a
56.2875	0.09	112575	keystroke_Key.right	Key.right	n/a
56.6775	0.135	113355	keystroke_Key.left	Key.left	n/a
57.0525	0.075	114105	keystroke_Key.backspace	Key.backspace	n/a
58.7175	0.0895	117435	keystroke_g	g	n/a
60.6825	0.075	121365	keystroke_Key.enter	Key.enter	n/a
60.7665	10.3585	121533	prompt	n/a	julie adjust brooklyn notified\n
61.4925	0.06	122985	keystroke_j	j	n/a
61.6425	0.105	123285	keystroke_u	u	n/a
61.8675	0.15	123735	keystroke_l	l	n/a
61.9575	0.12	123915	keystroke_i	i	n/a
62.1975	0.15	124395	keystroke_e	e	n/a
62.3625	0.135	124725	keystroke_Key.space	Key.space	n/a
62.5575	0.12	125115	keystroke_a	a	n/a
62.6925	0.12	125385	keystroke_d	d	n/a
62.8875	0.105	125775	keystroke_m	m	n/a
63.3525	0.075	126705	keystroke_Key.backspace	Key.backspace	n/a
63.5625	0.075	127125	keystroke_Key.backspace	Key.backspace	n/a
64.0575	0.12	128115	keystroke_d	d	n/a
64.2525	0.0895	128505	keystroke_j	j	n/a
64.418	0.105	128836	keystroke_u	u	n/a
64.537	0.091	129074	keystroke_s	s	n/a
64.747	0.12	129494	keystroke_t	t	n/a
64.942	0.12	129884	keystroke_Key.space	Key.space	n/a
65.198	0.06	130396	keystroke_b	b	n/a
65.4075	0.105	130815	keystroke_r	r	n/a
65.5725	0.12	131145	keystroke_o	o	n/a
66.053	0.09	132106	keystroke_o	o	n/a
66.218	0.105	132436	keystroke_k	k	n/a
66.308	0.135	132616	keystroke_e	e	n/a
66.967	0.09	133934	keystroke_Key.backspace	Key.backspace	n/a
67.208	0.105	134416	keystroke_l	l	n/a
67.3575	0.105	134715	keystroke_y	y	n/a
67.5525	0.06	135105	keystroke_n	n	n/a
67.7475	0.12	135495	keystroke_Key.space	Key.space	n/a
68.0025	0.09	136005	keystroke_f	f	n/a
68.288	0.089	136576	keystroke_Key.backspace	Key.backspace	n/a
68.528	0.089	137056	keystroke_n	n	n/a
68.588	0.134	137176	keystroke_o	o	n/a
68.888	0.1045	137776	keystroke_t	t	n/a
69.5325	0.09	139065	keystroke_i	i	n/a
69.7575	0.15	139515	keystroke_f	f	n/a
69.8925	0.09	139785	keystroke_i	i	n/a
70.0575	0.105	140115	keystroke_e	e	n/a
70.2675	0.09	140535	keystroke_d	d	n/a
71.0025	0.12	142005	keystroke_Key.enter	Key.enter	n/a
71.1295	8.56	142259	prompt	n/a	examining short thereby fifty\n
71.6775	0.105	143355	keystroke_e	e	n/a
72.157	0.105	144314	keystroke_x	x	n/a
72.353	0.089	144706	keystroke_a	a	n/a
72.428	0.089	144856	keystroke_m	m	n/a
72.652	0.1355	145304	keystroke_i	i	n/a
72.7425	0.075	145485	keystroke_n	n	n/a
72.8925	0.09	145785	keystroke_g	g	n/a
72.9675	0.135	145935	keystroke_i	i	n/a
73.0875	0.09	146175	keystroke_n	n	n/a
73.2975	0.075	146595	keystroke_g	g	n/a
73.5375	0.06	147075	keystroke_Key.backspace	Key.backspace	n/a
73.6725	0.075	147345	keystroke_Key.backspace	Key.backspace	n/a
73.8075	0.075	147615	keystroke_Key.backspace	Key.backspace	n/a
73.9575	0.06	147915	keystroke_Key.backspace	Key.backspace	n/a
74.1075	0.075	148215	keystroke_Key.backspace	Key.backspace	n/a
74.932	0.06	149864	keystroke_n	n	n/a
75.097	0.1055	150194	keystroke_i	i	n/a
75.157	0.1505	150314	keystroke_n	n	n/a
75.337	0.105	150674	keystroke_g	g	n/a
75.547	0.0905	151094	keystroke_Key.space	Key.space	n/a
75.937	0.105	151874	keystroke_s	s	n/a
76.027	0.12	152054	keystroke_h	h	n/a
76.102	0.12	152204	keystroke_o	o	n/a
76.207	0.09	152414	keystroke_r	r	n/a
76.432	0.09	152864	keystroke_t	t	n/a
76.582	0.09	153164	keystroke_Key.space	Key.space	n/a
76.822	0.075	153644	keystroke_t	t	n/a
76.957	0.135	153914	keystroke_h	h	n/a
77.002	0.165	154004	keystroke_e	e	n/a
77.137	0.135	154274	keystroke_r	r	n/a
77.242	0.12	154484	keystroke_e	e	n/a
77.542	0.06	155084	keystroke_b	b	n/a
77.752	0.09	155504	keystroke_y	y	n/a
77.932	0.12	155864	keystroke_Key.space	Key.space	n/a
78.172	0.105	156344	keystroke_f	f	n/a
78.307	0.09	156614	keystroke_i	i	n/a
78.457	0.105	156914	keystroke_t	t	n/a
78.787	0.06	157574	keystroke_Key.backspace	Key.backspace	n/a
78.848	0.1345	157696	keystroke_f	f	n/a
79.1025	0.105	158205	keystroke_t	t	n/a
79.4025	0.105	158805	keystroke_y	y	n/a
79.5675	0.12	159135	keystroke_Key.enter	Key.enter	n/a
79.6975	10.402	159395	prompt	n/a	isolation international cloth plymouth\n
80.1975	0.12	160395	keystroke_i	i	n/a
80.3625	0.135	160725	keystroke_s	s	n/a
80.5125	0.06	161025	keystroke_o	o	n/a
80.6775	0.105	161355	keystroke_l	l	n/a
80.7975	0.075	161595	keystroke_a	a	n/a
80.9775	0.06	161955	keystroke_t	t	n/a
80.9925	0.225	161985	keystroke_i	i	n/a
81.0525	0.135	162105	keystroke_o	o	n/a
81.1575	0.075	162315	keystroke_n	n	n/a
81.2475	0.09	162495	keystroke_Key.space	Key.space	n/a
81.3975	0.12	162795	keystroke_i	i	n/a
81.4575	0.075	162915	keystroke_n	n	n/a
81.6525	0.105	163305	keystroke_t	t	n/a
82.3425	0.15	164685	keystroke_e	e	n/a
82.5375	0.06	165075	keystroke_r	r	n/a
82.6575	0.075	165315	keystroke_n	n	n/a
82.7625	0.105	165525	keystroke_a	a	n/a
82.9575	0.105	165915	keystroke_i	i	n/a
83.4525	0.105	166905	keystroke_t	t	n/a
83.6025	0.12	167205	keystroke_o	o	n/a
83.7525	0.06	167505	keystroke_n	n	n/a
84.1125	0.06	168225	keystroke_Key.backspace	Key.backspace	n/a
84.2325	0.075	168465	keystroke_Key.backspace	Key.backspace	n/a
84.3825	0.06	168765	keystroke_Key.backspace	Key.backspace	n/a
84.5325	0.03	169065	keystroke_Key.backspace	Key.backspace	n/a
84.6075	0.105	169215	keystroke_t	t	n/a
84.7425	0.225	169485	keystroke_i	i	n/a
84.8025	0.18	169605	keystroke_o	o	n/a
84.9225	0.135	169845	keystroke_n	n	n/a
85.433	0.1345	170866	keystroke_a	a	n/a
85.6125	0.15	171225	keystroke_l	l	n/a
85.7925	0.105	171585	keystroke_Key.space	Key.space	n/a
86.0775	0.12	172155	keystroke_c	c	n/a
86.3475	0.075	172695	keystroke_l	l	n/a
86.5275	0.09	173055	keystroke_o	o	n/a
86.6325	0.12	173265	keystroke_t	t	n/a
86.7975	0.075	173595	keystroke_h	h	n/a
86.8875	0.135	173775	keystroke_Key.space	Key.space	n/a
87.1425	0.105	174285	keystroke_p	p	n/a
87.5175	0.105	175035	keystroke_y	y	n/a
87.7425	0.105	175485	keystroke_l	l	n/a
88.0875	0.045	176175	keystroke_Key.backspace	Key.backspace	n/a
88.2225	0.06	176445	keystroke_Key.backspace	Key.backspace	n/a
88.4175	0.09	176835	keystroke_l	l	n/a
88.5085	0.104	177017	keystroke_y	y	n/a
89.107	0.105	178214	keystroke_m	m	n/a
89.228	0.075	178456	keystroke_o	o	n/a
89.452	0.076	178904	keystroke_u	u	n/a
89.692	0.076	179384	keystroke_t	t	n/a
89.753	0.104	179506	keystroke_h	h	n/a
90.007	0.09	180014	keystroke_Key.enter	Key.enter	n/a
90.1045	5.5155	180209	prompt	n/a	carry asian birth oracle\n
90.7125	0.15	181425	keystroke_c	c	n/a
90.8325	0.105	181665	keystroke_a	a	n/a
91.0425	0.045	182085	keystroke_r	r	n/a
91.1925	0.06	182385	keystroke_r	r	n/a
91.4175	0.075	182835	keystroke_y	y	n/a
91.5075	0.09	183015	keystroke_Key.space	Key.space	n/a
91.7175	0.12	183435	keystroke_a	a	n/a
91.8975	0.105	183795	keystroke_s	s	n/a
91.9875	0.09	183975	keystroke_i	i	n/a
92.1375	0.09	184275	keystroke_a	a	n/a
92.4075	0.105	184815	keystroke_n	n	n/a
92.6025	0.12	185205	keystroke_Key.space	Key.space	n/a
92.9175	0.0895	185835	keystroke_b	b	n/a
93.052	0.12	186104	keystroke_i	i	n/a
93.158	0.089	186316	keystroke_r	r	n/a
93.352	0.09	186704	keystroke_t	t	n/a
93.787	0.075	187574	keystroke_h	h	n/a
94.0725	0.105	188145	keystroke_Key.space	Key.space	n/a
94.2975	0.105	188595	keystroke_o	o	n/a
94.4175	0.09	188835	keystroke_r	r	n/a
94.7475	0.12	189495	keystroke_a	a	n/a
94.9125	0.105	189825	keystroke_c	c	n/a
95.1075	0.15	190215	keystroke_l	l	n/a
95.1975	0.105	190395	keystroke_e	e	n/a
95.4675	0.15	190935	keystroke_Key.enter	Key.enter	n/a
95.6255	11.183	191251	prompt	n/a	regarded urge mortgages facility\n
96.292	0.105	192584	keystroke_r	r	n/a
96.458	0.104	192916	keystroke_e	e	n/a
96.637	0.105	193274	keystroke_g	g	n/a
97.012	0.09	194024	keystroke_a	a	n/a
97.207	0.075	194414	keystroke_r	r	n/a
97.417	0.09	194834	keystroke_d	d	n/a
97.582	0.091	195164	keystroke_e	e	n/a
97.792	0.12	195584	keystroke_d	d	n/a
97.927	0.09	195854	keystroke_Key.space	Key.space	n/a
98.228	0.075	196456	keystroke_u	u	n/a
98.317	0.0755	196634	keystroke_r	r	n/a
98.5125	0.06	197025	keystroke_g	g	n/a
98.7075	0.105	197415	keystroke_e	e	n/a
98.8275	0.105	197655	keystroke_Key.space	Key.space	n/a
99.0975	0.105	198195	keystroke_m	m	n/a
99.3225	0.135	198645	keystroke_o	o	n/a
99.3825	0.12	198765	keystroke_n	n	n/a
99.7125	0.075	199425	keystroke_r	r	n/a
100.7325	0.06	201465	keystroke_Key.backspace	Key.backspace	n/a
100.8675	0.075	201735	keystroke_Key.backspace	Key.backspace	n/a
101.2725	0.105	202545	keystroke_r	r	n/a
101.7675	0.075	203535	keystroke_t	t	n/a
102.0375	0.12	204075	keystroke_a	a	n/a
102.3375	0.09	204675	keystroke_Key.backspace	Key.backspace	n/a
102.5025	0.075	205005	keystroke_g	g	n/a
102.907	0.09	205814	keystroke_a	a	n/a
103.117	0.075	206234	keystroke_g	g	n/a
103.237	0.09	206474	keystroke_e	e	n/a
103.447	0.135	206894	keystroke_s	s	n/a
103.567	0.105	207134	keystroke_Key.space	Key.space	n/a
103.912	0.075	207824	keystroke_f	f	n/a
104.1375	0.06	208275	keystroke_a	a	n/a
104.3775	0.105	208755	keystroke_c	c	n/a
104.5875	0.09	209175	keystroke_i	i	n/a
105.1575	0.15	210315	keystroke_l	l	n/a
105.8175	0.105	211635	keystroke_i	i	n/a
106.0575	0.105	212115	keystroke_t	t	n/a
106.3125	0.09	212625	keystroke_y	y	n/a
106.6875	0.119	213375	keystroke_Key.enter	Key.enter	n/a
106.814	8.906	213628	prompt	n/a	counts televisions timing pleasant\n
107.5575	0.135	215115	keystroke_c	c	n/a
107.6165	0.136	215233	keystroke_o	o	n/a
107.7075	0.1045	215415	keystroke_n	n	n/a
108.4575	0.0895	216915	keystroke_Key.backspace	Key.backspace	n/a
108.653	0.0435	217306	keystroke_u	u	n/a
108.8465	0.09	217693	keystroke_n	n	n/a
108.9515	0.061	217903	keystroke_t	t	n/a
109.207	0.105	218414	keystroke_s	s	n/a
109.342	0.09	218684	keystroke_Key.space	Key.space	n/a
109.777	0.105	219554	keystroke_t	t	n/a
109.927	0.09	219854	keystroke_e	e	n/a
110.077	0.135	220154	keystroke_l	l	n/a
110.167	0.105	220334	keystroke_e	e	n/a
110.3925	0.045	220785	keystroke_v	v	n/a
110.7375	0.06	221475	keystroke_i	i	n/a
110.8125	0.12	221625	keystroke_s	s	n/a
111.0075	0.24	222015	keystroke_i	i	n/a
111.0825	0.135	222165	keystroke_o	o	n/a
111.1725	0.105	222345	keystroke_n	n	n/a
111.2925	0.105	222585	keystroke_s	s	n/a
111.5325	0.105	223065	keystroke_Key.space	Key.space	n/a
111.8475	0.09	223695	keystroke_t	t	n/a
111.9075	0.135	223815	keystroke_i	i	n/a
112.0275	0.12	224055	keystroke_m	m	n/a
112.1925	0.165	224385	keystroke_i	i	n/a
112.2675	0.135	224535	keystroke_n	n	n/a
112.4035	0.104	224807	keystroke_g	g	n/a
112.5525	0.12	225105	keystroke_Key.space	Key.space	n/a
113.182	0.09	226364	keystroke_p	p	n/a
113.422	0.105	226844	keystroke_l	l	n/a
113.512	0.121	227024	keystroke_e	e	n/a
113.692	0.165	227384	keystroke_a	a	n/a
113.767	0.15	227534	keystroke_s	s	n/a
114.052	0.06	228104	keystroke_e	e	n/a
114.367	0.12	228734	keystroke_Key.backspace	Key.backspace	n/a
114.623	0.105	229246	keystroke_a	a	n/a
114.757	0.075	229514	keystroke_n	n	n/a
115.1775	0.105	230355	keystroke_t	t	n/a
115.6115	0.105	231223	keystroke_Key.enter	Key.enter	n/a
115.726	14.573	231452	prompt	n/a	navigation assembly iceland syndicate\n
117.9105	0.001	235821	keystroke_n	n	n/a
117.9825	0.18	235965	keystroke_a	a	n/a
118.1325	0.045	236265	keystroke_v	v	n/a
119.0625	0.105	238125	keystroke_i	i	n/a
119.3625	0.075	238725	keystroke_g	g	n/a
119.5575	0.045	239115	keystroke_a	a	n/a
119.7225	0.075	239445	keystroke_t	t	n/a
119.7825	0.24	239565	keystroke_i	i	n/a
119.8275	0.15	239655	keystroke_o	o	n/a
119.9175	0.12	239835	keystroke_n	n	n/a
120.577	0.075	241154	keystroke_Key.space	Key.space	n/a
120.892	0.135	241784	keystroke_a	a	n/a
120.998	0.074	241996	keystroke_s	s	n/a
121.177	0.09	242354	keystroke_s	s	n/a
121.4325	0.105	242865	keystroke_e	e	n/a
121.5385	0.119	243077	keystroke_m	m	n/a
122.0325	0.075	244065	keystroke_b	b	n/a
122.1525	0.135	244305	keystroke_l	l	n/a
122.317	0.105	244634	keystroke_y	y	n/a
122.662	0.12	245324	keystroke_Key.space	Key.space	n/a
122.977	0.105	245954	keystroke_i	i	n/a
123.097	0.09	246194	keystroke_s	s	n/a
123.247	0.135	246494	keystroke_c	c	n/a
123.607	0.075	247214	keystroke_Key.backspace	Key.backspace	n/a
123.742	0.09	247484	keystroke_Key.backspace	Key.backspace	n/a
123.802	0.12	247604	keystroke_c	c	n/a
124.012	0.09	248024	keystroke_e	e	n/a
124.1925	0.135	248385	keystroke_l	l	n/a
124.3865	0.12	248773	keystroke_a	a	n/a
124.4925	0.075	248985	keystroke_n	n	n/a
124.5825	0.105	249165	keystroke_d	d	n/a
124.7025	0.104	249405	keystroke_Key.space	Key.space	n/a
125.3325	0.105	250665	keystroke_s	s	n/a
126.9675	0.105	253935	keystroke_y	y	n/a
127.4625	0.075	254925	keystroke_n	n	n/a
127.8525	0.135	255705	keystroke_d	d	n/a
128.3475	0.12	256695	keystroke_i	i	n/a
129.127	0.09	258254	keystroke_a	a	n/a
129.397	0.075	258794	keystroke_Key.backspace	Key.backspace	n/a
129.458	0.119	258916	keystroke_c	c	n/a
129.592	0.09	259184	keystroke_a	a	n/a
129.757	0.09	259514	keystroke_t	t	n/a
129.922	0.135	259844	keystroke_e	e	n/a
130.192	0.1045	260384	keystroke_Key.enter	Key.enter	n/a
130.3045	12.7745	260609	prompt	n/a	choose possibilities edmonton staffing\n
130.9265	0.076	261853	keystroke_c	c	n/a
131.0165	0.105	262033	keystroke_o	o	n/a
131.4665	0.06	262933	keystroke_Key.backspace	Key.backspace	n/a
131.6625	0.12	263325	keystroke_h	h	n/a
131.7975	0.09	263595	keystroke_o	o	n/a
131.9925	0.075	263985	keystroke_o	o	n/a
132.1575	0.105	264315	keystroke_s	s	n/a
132.4125	0.12	264825	keystroke_e	e	n/a
132.5625	0.12	265125	keystroke_Key.space	Key.space	n/a
132.6375	0.09	265275	keystroke_p	p	n/a
132.8775	0.09	265755	keystroke_o	o	n/a
133.0875	0.06	266175	keystroke_s	s	n/a
133.2975	0.105	266595	keystroke_s	s	n/a
133.4625	0.105	266925	keystroke_i	i	n/a
133.6725	0.075	267345	keystroke_b	b	n/a
133.7925	0.135	267585	keystroke_l	l	n/a
134.0325	0.105	268065	keystroke_i	i	n/a
134.6775	0.105	269355	keystroke_t	t	n/a
135.0525	0.06	270105	keystroke_Key.backspace	Key.backspace	n/a
135.2025	0.075	270405	keystroke_Key.backspace	Key.backspace	n/a
135.3975	0.09	270795	keystroke_i	i	n/a
135.7125	0.03	271425	keystroke_Key.backspace	Key.backspace	n/a
135.8325	0.06	271665	keystroke_Key.backspace	Key.backspace	n/a
136.0875	0.105	272175	keystroke_i	i	n/a
136.2525	0.195	272505	keystroke_l	l	n/a
136.3575	0.15	272715	keystroke_i	i	n/a
136.6125	0.12	273225	keystroke_t	t	n/a
137.2275	0.105	274455	keystroke_i	i	n/a
137.3025	0.09	274605	keystroke_e	e	n/a
137.4975	0.119	274995	keystroke_s	s	n/a
137.6615	0.105	275323	keystroke_Key.space	Key.space	n/a
137.9315	0.105	275863	keystroke_e	e	n/a
138.5015	0.121	277003	keystroke_d	d	n/a
138.907	0.09	277814	keystroke_m	m	n/a
139.072	0.135	278144	keystroke_o	o	n/a
139.177	0.12	278354	keystroke_n	n	n/a
139.492	0.135	278984	keystroke_o	o	n/a
139.897	0.06	279794	keystroke_Key.backspace	Key.backspace	n/a
140.002	0.075	280004	keystroke_t	t	n/a
140.092	0.12	280184	keystroke_o	o	n/a
140.167	0.105	280334	keystroke_n	n	n/a
140.632	0.075	281264	keystroke_Key.space	Key.space	n/a
140.887	0.105	281774	keystroke_s	s	n/a
141.097	0.12	282194	keystroke_t	t	n/a
141.322	0.135	282644	keystroke_a	a	n/a
141.442	0.045	282884	keystroke_f	f	n/a
141.592	0.075	283184	keystroke_f	f	n/a
141.712	0.18	283424	keystroke_i	i	n/a
141.817	0.15	283634	keystroke_n	n	n/a
141.982	0.105	283964	keystroke_g	g	n/a
142.972	0.105	285944	keystroke_Key.enter	Key.enter	n/a
143.0835	8.1405	286167	prompt	n/a	jane versions exhibit dispatched\n
143.7975	0.015	287595	keystroke_j	j	n/a
143.8425	0.09	287685	keystroke_a	a	n/a
143.9775	0.105	287955	keystroke_n	n	n/a
144.0675	0.135	288135	keystroke_e	e	n/a
144.2175	0.104	288435	keystroke_Key.space	Key.space	n/a
144.6525	0.044	289305	keystroke_v	v	n/a
144.7425	0.119	289485	keystroke_e	e	n/a
144.9065	0.091	289813	keystroke_r	r	n/a
145.1175	0.12	290235	keystroke_s	s	n/a
145.2525	0.195	290505	keystroke_i	i	n/a
145.2975	0.135	290595	keystroke_o	o	n/a
145.3875	0.105	290775	keystroke_n	n	n/a
145.5975	0.12	291195	keystroke_s	s	n/a
145.7325	0.104	291465	keystroke_Key.space	Key.space	n/a
145.9575	0.09	291915	keystroke_e	e	n/a
146.2275	0.105	292455	keystroke_x	x	n/a
146.4525	0.12	292905	keystroke_h	h	n/a
146.6625	0.12	293325	keystroke_i	i	n/a
146.8865	0.031	293773	keystroke_t	t	n/a
147.2175	0.06	294435	keystroke_Key.backspace	Key.backspace	n/a
147.3825	0.075	294765	keystroke_b	b	n/a
147.4275	0.12	294855	keystroke_i	i	n/a
147.6075	0.0895	295215	keystroke_t	t	n/a
148.147	0.0755	296294	keystroke_Key.space	Key.space	n/a
148.3875	0.18	296775	keystroke_d	d	n/a
148.5975	0.105	297195	keystroke_i	i	n/a
148.6725	0.09	297345	keystroke_s	s	n/a
148.8375	0.15	297675	keystroke_c	c	n/a
149.3775	0.075	298755	keystroke_Key.backspace	Key.backspace	n/a
149.722	0.12	299444	keystroke_p	p	n/a
150.052	0.105	300104	keystroke_a	a	n/a
150.262	0.105	300524	keystroke_t	t	n/a
150.577	0.09	301154	keystroke_c	c	n/a
150.682	0.135	301364	keystroke_h	h	n/a
150.788	0.059	301576	keystroke_e	e	n/a
150.922	0.12	301844	keystroke_d	d	n/a
151.117	0.105	302234	keystroke_Key.enter	Key.enter	n/a
151.229	6.04	302458	prompt	n/a	provinces jacket leave metres\n
151.868	0.104	303736	keystroke_p	p	n/a
152.047	0.106	304094	keystroke_r	r	n/a
152.167	0.076	304334	keystroke_o	o	n/a
152.302	0.1205	304604	keystroke_v	v	n/a
152.4365	0.09	304873	keystroke_i	i	n/a
152.6925	0.089	305385	keystroke_n	n	n/a
152.8565	0.105	305713	keystroke_c	c	n/a
153.0815	0.075	306163	keystroke_e	e	n/a
153.3215	0.1055	306643	keystroke_s	s	n/a
153.502	0.09	307004	keystroke_Key.space	Key.space	n/a
153.712	0.12	307424	keystroke_j	j	n/a
153.892	0.12	307784	keystroke_a	a	n/a
154.102	0.09	308204	keystroke_c	c	n/a
154.207	0.135	308414	keystroke_k	k	n/a
154.642	0.12	309284	keystroke_e	e	n/a
154.867	0.09	309734	keystroke_t	t	n/a
155.002	0.165	310004	keystroke_Key.space	Key.space	n/a
155.122	0.15	310244	keystroke_l	l	n/a
155.257	0.135	310514	keystroke_e	e	n/a
155.4075	0.1045	310815	keystroke_a	a	n/a
155.527	0.045	311054	keystroke_v	v	n/a
155.692	0.1355	311384	keystroke_e	e	n/a
155.8425	0.119	311685	keystroke_Key.space	Key.space	n/a
156.0675	0.12	312135	keystroke_m	m	n/a
156.2175	0.12	312435	keystroke_e	e	n/a
156.5025	0.09	313005	keystroke_t	t	n/a
156.7125	0.105	313425	keystroke_r	r	n/a
156.8025	0.135	313605	keystroke_e	e	n/a
157.1175	0.15	314235	keystroke_Key.enter	Key.enter	n/a
157.274	8.4545	314548	prompt	n/a	statistics choose internet istanbul\n
157.957	0.12	315914	keystroke_s	s	n/a
158.332	0.09	316664	keystroke_t	t	n/a
158.497	0.12	316994	keystroke_a	a	n/a
158.722	0.075	317444	keystroke_t	t	n/a
158.917	0.09	317834	keystroke_i	i	n/a
159.2625	0.105	318525	keystroke_s	s	n/a
159.5015	0.091	319003	keystroke_t	t	n/a
159.6225	0.104	319245	keystroke_i	i	n/a
159.7565	0.12	319513	keystroke_c	c	n/a
160.0715	0.076	320143	keystroke_s	s	n/a
160.5365	0.09	321073	keystroke_Key.space	Key.space	n/a
160.7175	0.119	321435	keystroke_s	s	n/a
161.0165	0.075	322033	keystroke_Key.backspace	Key.backspace	n/a
161.1365	0.106	322273	keystroke_c	c	n/a
161.3015	0.135	322603	keystroke_h	h	n/a
161.5265	0.091	323053	keystroke_o	o	n/a
161.7675	0.119	323535	keystroke_o	o	n/a
161.9025	0.1045	323805	keystroke_s	s	n/a
162.112	0.12	324224	keystroke_e	e	n/a
162.307	0.1195	324614	keystroke_Key.space	Key.space	n/a
162.4875	0.15	324975	keystroke_i	i	n/a
162.5925	0.105	325185	keystroke_n	n	n/a
162.7725	0.089	325545	keystroke_t	t	n/a
162.9075	0.15	325815	keystroke_e	e	n/a
163.0275	0.105	326055	keystroke_r	r	n/a
163.1175	0.105	326235	keystroke_n	n	n/a
163.2375	0.105	326475	keystroke_e	e	n/a
163.4475	0.135	326895	keystroke_t	t	n/a
163.6865	0.0905	327373	keystroke_Key.space	Key.space	n/a
163.897	0.15	327794	keystroke_i	i	n/a
164.048	0.149	328096	keystroke_s	s	n/a
164.332	0.075	328664	keystroke_t	t	n/a
164.632	0.09	329264	keystroke_a	a	n/a
164.707	0.0595	329414	keystroke_n	n	n/a
165.0215	0.06	330043	keystroke_b	b	n/a
165.112	0.1045	330224	keystroke_u	u	n/a
165.3215	0.121	330643	keystroke_l	l	n/a
165.6365	0.09	331273	keystroke_Key.enter	Key.enter	n/a
165.735	10.809	331470	prompt	n/a	yukon rate intermediate contacts\n
166.5525	0.104	333105	keystroke_y	y	n/a
166.7165	0.105	333433	keystroke_u	u	n/a
167.0915	0.18	334183	keystroke_k	k	n/a
167.2565	0.105	334513	keystroke_o	o	n/a
167.3015	0.135	334603	keystroke_n	n	n/a
168.382	0.1195	336764	keystroke_Key.space	Key.space	n/a
168.6515	0.075	337303	keystroke_r	r	n/a
168.8315	0.105	337663	keystroke_a	a	n/a
169.0125	0.089	338025	keystroke_t	t	n/a
169.1925	0.089	338385	keystroke_e	e	n/a
169.2825	0.104	338565	keystroke_Key.space	Key.space	n/a
169.4315	0.151	338863	keystroke_i	i	n/a
169.5375	0.105	339075	keystroke_n	n	n/a
169.7615	0.091	339523	keystroke_t	t	n/a
170.1675	0.12	340335	keystroke_e	e	n/a
170.3175	0.09	340635	keystroke_r	r	n/a
170.5125	0.09	341025	keystroke_m	m	n/a
170.7225	0.12	341445	keystroke_e	e	n/a
170.9775	0.105	341955	keystroke_d	d	n/a
171.1275	0.105	342255	keystroke_i	i	n/a
171.4725	0.06	342945	keystroke_a	a	n/a
171.6375	0.075	343275	keystroke_t	t	n/a
171.8175	0.105	343635	keystroke_e	e	n/a
172.1925	0.12	344385	keystroke_Key.space	Key.space	n/a
172.4325	0.135	344865	keystroke_c	c	n/a
172.5525	0.12	345105	keystroke_o	o	n/a
172.6575	0.09	345315	keystroke_n	n	n/a
172.8075	0.075	345615	keystroke_t	t	n/a
172.9875	0.075	345975	keystroke_r	r	n/a
173.1675	0.09	346335	keystroke_a	a	n/a
173.3025	0.12	346605	keystroke_c	c	n/a
173.7675	0.059	347535	keystroke_t	t	n/a
173.9315	0.12	347863	keystroke_s	s	n/a
174.892	0.075	349784	keystroke_Key.backspace	Key.backspace	n/a
175.027	0.21	350054	keystroke_Key.backspace	Key.backspace	n/a
175.312	0.075	350624	keystroke_Key.backspace	Key.backspace	n/a
175.447	0.06	350894	keystroke_Key.backspace	Key.backspace	n/a
175.597	0.075	351194	keystroke_Key.backspace	Key.backspace	n/a
175.747	0.105	351494	keystroke_a	a	n/a
175.882	0.12	351764	keystroke_c	c	n/a
176.1225	0.059	352245	keystroke_t	t	n/a
176.2865	0.106	352573	keystroke_s	s	n/a
176.4365	0.105	352873	keystroke_Key.enter	Key.enter	n/a
176.5505	7.164	353101	prompt	n/a	named paper bookmark ipaq\n
177.2325	0.06	354465	keystroke_n	n	n/a
177.3225	0.06	354645	keystroke_a	a	n/a
177.4125	0.105	354825	keystroke_m	m	n/a
177.5315	0.061	355063	keystroke_e	e	n/a
177.7265	0.106	355453	keystroke_d	d	n/a
177.8175	0.105	355635	keystroke_Key.space	Key.space	n/a
178.1625	0.12	356325	keystroke_p	p	n/a
178.3425	0.15	356685	keystroke_a	a	n/a
178.5075	0.12	357015	keystroke_p	p	n/a
178.6115	0.12	357223	keystroke_e	e	n/a
178.7775	0.104	357555	keystroke_r	r	n/a
178.9115	0.106	357823	keystroke_Key.space	Key.space	n/a
179.2125	0.06	358425	keystroke_b	b	n/a
179.2875	0.09	358575	keystroke_o	o	n/a
179.4375	0.135	358875	keystroke_o	o	n/a
179.5875	0.105	359175	keystroke_k	k	n/a
180.0975	0.104	360195	keystroke_m	m	n/a
180.2175	0.059	360435	keystroke_a	a	n/a
180.4275	0.09	360855	keystroke_r	r	n/a
180.6815	0.075	361363	keystroke_k	k	n/a
180.8465	0.105	361693	keystroke_Key.space	Key.space	n/a
181.1615	0.135	362323	keystroke_i	i	n/a
181.3865	0.105	362773	keystroke_q	q	n/a
181.7915	0.135	363583	keystroke_a	a	n/a
182.3015	0.105	364603	keystroke_Key.backspace	Key.backspace	n/a
182.467	0.0745	364934	keystroke_Key.backspace	Key.backspace	n/a
182.6915	0.12	365383	keystroke_p	p	n/a
182.7975	0.104	365595	keystroke_a	a	n/a
183.0365	0.09	366073	keystroke_q	q	n/a
183.6065	0.105	367213	keystroke_Key.enter	Key.enter	n/a
183.723	11.046	367446	prompt	n/a	ethics biography noble innovation\n
184.2815	0.105	368563	keystroke_e	e	n/a
184.5365	0.06	369073	keystroke_t	t	n/a
184.6115	0.12	369223	keystroke_h	h	n/a
184.7475	0.089	369495	keystroke_i	i	n/a
184.8515	0.105	369703	keystroke_c	c	n/a
185.0315	0.105	370063	keystroke_s	s	n/a
185.1365	0.105	370273	keystroke_Key.space	Key.space	n/a
185.4215	0.105	370843	keystroke_b	b	n/a
185.6765	0.075	371353	keystroke_r	r	n/a
185.8265	0.03	371653	keystroke_i	i	n/a
186.1115	0.12	372223	keystroke_o	o	n/a
186.6365	0.045	373273	keystroke_Key.backspace	Key.backspace	n/a
186.7565	0.09	373513	keystroke_Key.backspace	Key.backspace	n/a
186.8765	0.09	373753	keystroke_Key.backspace	Key.backspace	n/a
187.2815	0.061	374563	keystroke_i	i	n/a
187.4615	0.09	374923	keystroke_o	o	n/a
187.7465	0.09	375493	keystroke_g	g	n/a
187.9715	0.105	375943	keystroke_r	r	n/a
188.197	0.12	376394	keystroke_a	a	n/a
188.587	0.12	377174	keystroke_p	p	n/a
188.872	0.075	377744	keystroke_y	y	n/a
189.337	0.06	378674	keystroke_Key.backspace	Key.backspace	n/a
189.412	0.12	378824	keystroke_g	g	n/a
189.922	0.06	379844	keystroke_y	y	n/a
190.206	0.061	380412	keystroke_Key.backspace	Key.backspace	n/a
190.342	0.06	380684	keystroke_Key.backspace	Key.backspace	n/a
190.522	0.1045	381044	keystroke_h	h	n/a
190.642	0.09	381284	keystroke_y	y	n/a
191.107	0.12	382214	keystroke_Key.space	Key.space	n/a
191.332	0.105	382664	keystroke_n	n	n/a
191.422	0.09	382844	keystroke_o	o	n/a
191.542	0.1205	383084	keystroke_b	b	n/a
191.6765	0.105	383353	keystroke_l	l	n/a
192.0975	0.12	384195	keystroke_e	e	n/a
192.2015	0.15	384403	keystroke_Key.space	Key.space	n/a
192.3375	0.135	384675	keystroke_i	i	n/a
192.4125	0.105	384825	keystroke_n	n	n/a
192.7125	0.075	385425	keystroke_n	n	n/a
192.9675	0.089	385935	keystroke_o	o	n/a
193.1915	0.121	386383	keystroke_v	v	n/a
193.3575	0.09	386715	keystroke_a	a	n/a
193.6125	0.21	387225	keystroke_i	i	n/a
193.6275	0.03	387255	keystroke_t	t	n/a
193.6725	0.105	387345	keystroke_o	o	n/a
193.7015	0.151	387403	keystroke_n	n	n/a
193.9275	0.104	387855	keystroke_s	s	n/a
194.4375	0.029	388875	keystroke_Key.backspace	Key.backspace	n/a
194.6915	0.075	389383	keystroke_Key.enter	Key.enter	n/a
194.7745	6.595	389549	prompt	n/a	seeks these're varying oclc\n
195.4275	0.105	390855	keystroke_s	s	n/a
195.6375	0.0145	391275	keystroke_e	e	n/a
195.757	0.06	391514	keystroke_e	e	n/a
195.832	0.135	391664	keystroke_k	k	n/a
195.937	0.12	391874	keystroke_s	s	n/a
196.042	0.09	392084	keystroke_Key.space	Key.space	n/a
196.507	0.09	393014	keystroke_t	t	n/a
196.627	0.105	393254	keystroke_h	h	n/a
196.672	0.12	393344	keystroke_e	e	n/a
196.777	0.135	393554	keystroke_r	r	n/a
196.882	0.105	393764	keystroke_e	e	n/a
197.122	0.105	394244	keystroke_'	'	n/a
197.677	0.0905	395354	keystroke_r	r	n/a
197.8415	0.12	395683	keystroke_e	e	n/a
197.9765	0.0905	395953	keystroke_Key.space	Key.space	n/a
198.112	0.135	396224	keystroke_v	v	n/a
198.277	0.12	396554	keystroke_a	a	n/a
198.547	0.12	397094	keystroke_r	r	n/a
198.862	0.1505	397724	keystroke_l	l	n/a
198.997	0.105	397994	keystroke_y	y	n/a
199.402	0.06	398804	keystroke_Key.backspace	Key.backspace	n/a
199.522	0.075	399044	keystroke_Key.backspace	Key.backspace	n/a
199.612	0.12	399224	keystroke_y	y	n/a
199.777	0.165	399554	keystroke_i	i	n/a
199.882	0.12	399764	keystroke_n	n	n/a
200.003	0.104	400006	keystroke_g	g	n/a
200.152	0.12	400304	keystroke_Key.space	Key.space	n/a
200.407	0.12	400814	keystroke_o	o	n/a
200.557	0.12	401114	keystroke_c	c	n/a
200.827	0.1495	401654	keystroke_l	l	n/a
200.9915	0.0905	401983	keystroke_c	c	n/a
201.2465	0.1205	402493	keystroke_Key.enter	Key.enter	n/a
201.3755	6.5635	402751	prompt	n/a	lounge sprint verde developers\n
201.9075	0.0895	403815	keystroke_l	l	n/a
202.147	0.105	404294	keystroke_o	o	n/a
202.312	0.105	404624	keystroke_u	u	n/a
202.552	0.075	405104	keystroke_n	n	n/a
202.852	0.045	405704	keystroke_g	g	n/a
203.002	0.1345	406004	keystroke_e	e	n/a
203.1515	0.135	406303	keystroke_Key.space	Key.space	n/a
203.3015	0.105	406603	keystroke_s	s	n/a
203.4515	0.09	406903	keystroke_p	p	n/a
203.6015	0.12	407203	keystroke_r	r	n/a
203.7065	0.15	407413	keystroke_i	i	n/a
203.8115	0.105	407623	keystroke_n	n	n/a
203.9465	0.105	407893	keystroke_t	t	n/a
204.1415	0.12	408283	keystroke_Key.space	Key.space	n/a
204.3515	0.09	408703	keystroke_v	v	n/a
204.5915	0.105	409183	keystroke_e	e	n/a
204.7715	0.076	409543	keystroke_r	r	n/a
204.9665	0.09	409933	keystroke_d	d	n/a
205.1615	0.106	410323	keystroke_e	e	n/a
205.297	0.1045	410594	keystroke_Key.space	Key.space	n/a
205.5375	0.09	411075	keystroke_d	d	n/a
205.7325	0.1045	411465	keystroke_e	e	n/a
206.002	0.075	412004	keystroke_v	v	n/a
206.257	0.105	412514	keystroke_e	e	n/a
206.557	0.015	413114	keystroke_l	l	n/a
206.662	0.21	413324	keystroke_o	o	n/a
206.842	0.105	413684	keystroke_p	p	n/a
206.932	0.15	413864	keystroke_e	e	n/a
207.052	0.075	414104	keystroke_r	r	n/a
207.262	0.105	414524	keystroke_s	s	n/a
207.817	0.12	415634	keystroke_Key.enter	Key.enter	n/a
207.9425	8.8015	415885	prompt	n/a	synthesis webmasters topics earl\n
208.4615	0.106	416923	keystroke_s	s	n/a
208.7465	0.075	417493	keystroke_y	y	n/a
209.2565	0.09	418513	keystroke_n	n	n/a
209.4215	0.105	418843	keystroke_t	t	n/a
209.5715	0.075	419143	keystroke_h	h	n/a
209.7215	0.09	419443	keystroke_e	e	n/a
209.9015	0.076	419803	keystroke_s	s	n/a
210.022	0.1045	420044	keystroke_e	e	n/a
210.3965	0.06	420793	keystroke_Key.backspace	Key.backspace	n/a
210.5925	0.089	421185	keystroke_i	i	n/a
210.7115	0.1055	421423	keystroke_s	s	n/a
211.207	0.12	422414	keystroke_Key.space	Key.space	n/a
211.522	0.105	423044	keystroke_w	w	n/a
211.792	0.09	423584	keystroke_e	e	n/a
211.987	0.105	423974	keystroke_b	b	n/a
212.407	0.12	424814	keystroke_m	m	n/a
212.512	0.135	425024	keystroke_a	a	n/a
212.662	0.12	425324	keystroke_s	s	n/a
212.887	0.09	425774	keystroke_t	t	n/a
213.037	0.15	426074	keystroke_e	e	n/a
213.142	0.075	426284	keystroke_r	r	n/a
213.337	0.09	426674	keystroke_s	s	n/a
213.442	0.09	426884	keystroke_Key.space	Key.space	n/a
213.682	0.075	427364	keystroke_t	t	n/a
213.847	0.12	427694	keystroke_o	o	n/a
214.747	0.0895	429494	keystroke_p	p	n/a
214.9415	0.09	429883	keystroke_i	i	n/a
215.2115	0.12	430423	keystroke_c	c	n/a
215.3915	0.1205	430783	keystroke_s	s	n/a
215.632	0.089	431264	keystroke_Key.space	Key.space	n/a
215.872	0.09	431744	keystroke_e	e	n/a
216.112	0.105	432224	keystroke_a	a	n/a
216.307	0.075	432614	keystroke_r	r	n/a
216.397	0.135	432794	keystroke_l	l	n/a
216.637	0.105	433274	keystroke_Key.enter	Key.enter	n/a
216.749	7.7495	433498	prompt	n/a	drivers reference relates speaking\n
217.267	0.06	434534	keystroke_d	d	n/a
217.447	0.075	434894	keystroke_r	r	n/a
217.552	0.105	435104	keystroke_i	i	n/a
217.627	0.075	435254	keystroke_v	v	n/a
217.747	0.12	435494	keystroke_e	e	n/a
217.852	0.075	435704	keystroke_r	r	n/a
218.017	0.105	436034	keystroke_s	s	n/a
218.137	0.06	436274	keystroke_Key.space	Key.space	n/a
218.287	0.105	436574	keystroke_r	r	n/a
218.407	0.09	436814	keystroke_e	e	n/a
218.572	0.045	437144	keystroke_v	v	n/a
218.737	0.0905	437474	keystroke_e	e	n/a
219.157	0.075	438314	keystroke_Key.backspace	Key.backspace	n/a
219.292	0.09	438584	keystroke_Key.backspace	Key.backspace	n/a
219.397	0.12	438794	keystroke_f	f	n/a
219.487	0.15	438974	keystroke_e	e	n/a
219.637	0.12	439274	keystroke_r	r	n/a
219.727	0.105	439454	keystroke_e	e	n/a
219.9225	0.1045	439845	keystroke_n	n	n/a
220.042	0.09	440084	keystroke_c	c	n/a
220.252	0.09	440504	keystroke_e	e	n/a
220.372	0.12	440744	keystroke_Key.space	Key.space	n/a
220.822	0.09	441644	keystroke_r	r	n/a
220.927	0.09	441854	keystroke_e	e	n/a
221.062	0.165	442124	keystroke_l	l	n/a
221.167	0.075	442334	keystroke_a	a	n/a
221.287	0.09	442574	keystroke_t	t	n/a
221.392	0.09	442784	keystroke_e	e	n/a
221.557	0.12	443114	keystroke_s	s	n/a
221.647	0.105	443294	keystroke_Key.space	Key.space	n/a
221.827	0.105	443654	keystroke_s	s	n/a
222.007	0.105	444014	keystroke_e	e	n/a
222.142	0.12	444284	keystroke_p	p	n/a
222.5465	0.061	445093	keystroke_Key.backspace	Key.backspace	n/a
222.6815	0.075	445363	keystroke_Key.backspace	Key.backspace	n/a
222.892	0.135	445784	keystroke_p	p	n/a
223.042	0.09	446084	keystroke_a	a	n/a
223.357	0.075	446714	keystroke_Key.backspace	Key.backspace	n/a
223.447	0.09	446894	keystroke_e	e	n/a
223.567	0.12	447134	keystroke_a	a	n/a
223.672	0.09	447344	keystroke_k	k	n/a
223.852	0.15	447704	keystroke_i	i	n/a
223.927	0.12	447854	keystroke_n	n	n/a
224.017	0.105	448034	keystroke_g	g	n/a
224.377	0.12	448754	keystroke_Key.enter	Key.enter	n/a
224.5035	8.0945	449007	prompt	n/a	petersburg trans toxic trademark\n
225.1575	0.075	450315	keystroke_p	p	n/a
225.292	0.12	450584	keystroke_e	e	n/a
225.532	0.06	451064	keystroke_t	t	n/a
225.652	0.135	451304	keystroke_e	e	n/a
225.757	0.09	451514	keystroke_r	r	n/a
225.9665	0.15	451933	keystroke_s	s	n/a
226.4465	0.09	452893	keystroke_b	b	n/a
226.5375	0.1195	453075	keystroke_u	u	n/a
226.717	0.105	453434	keystroke_r	r	n/a
226.942	0.12	453884	keystroke_g	g	n/a
227.257	0.105	454514	keystroke_Key.space	Key.space	n/a
227.632	0.06	455264	keystroke_t	t	n/a
228.082	0.06	456164	keystroke_r	r	n/a
228.247	0.105	456494	keystroke_a	a	n/a
228.337	0.105	456674	keystroke_n	n	n/a
228.457	0.105	456914	keystroke_s	s	n/a
228.742	0.105	457484	keystroke_Key.space	Key.space	n/a
229.147	0.09	458294	keystroke_t	t	n/a
229.342	0.105	458684	keystroke_o	o	n/a
229.522	0.075	459044	keystroke_x	x	n/a
229.987	0.135	459974	keystroke_i	i	n/a
230.062	0.12	460124	keystroke_c	c	n/a
230.302	0.105	460604	keystroke_Key.space	Key.space	n/a
230.632	0.09	461264	keystroke_t	t	n/a
231.007	0.09	462014	keystroke_r	r	n/a
231.202	0.105	462404	keystroke_a	a	n/a
231.352	0.09	462704	keystroke_d	d	n/a
231.532	0.105	463064	keystroke_e	e	n/a
231.667	0.135	463334	keystroke_m	m	n/a
231.817	0.045	463634	keystroke_a	a	n/a
231.967	0.12	463934	keystroke_r	r	n/a
232.027	0.1655	464054	keystroke_k	k	n/a
232.462	0.135	464924	keystroke_Key.enter	Key.enter	n/a
232.6035	5.681	465207	prompt	n/a	rapids crude star heater\n
233.3025	0.074	466605	keystroke_r	r	n/a
233.4825	0.119	466965	keystroke_a	a	n/a
233.5865	0.076	467173	keystroke_p	p	n/a
233.7225	0.134	467445	keystroke_i	i	n/a
233.8425	0.089	467685	keystroke_d	d	n/a
233.9475	0.119	467895	keystroke_s	s	n/a
234.1115	0.12	468223	keystroke_Key.space	Key.space	n/a
234.3515	0.105	468703	keystroke_c	c	n/a
234.7565	0.075	469513	keystroke_r	r	n/a
235.0115	0.09	470023	keystroke_u	u	n/a
235.1465	0.09	470293	keystroke_d	d	n/a
235.342	0.1045	470684	keystroke_e	e	n/a
235.476	0.12	470952	keystroke_Key.space	Key.space	n/a
235.747	0.03	471494	keystroke_t	t	n/a
236.031	0.076	472062	keystroke_Key.backspace	Key.backspace	n/a
236.136	0.091	472272	keystroke_s	s	n/a
236.287	0.0745	472574	keystroke_t	t	n/a
236.4665	0.076	472933	keystroke_a	a	n/a
236.6315	0.12	473263	keystroke_r	r	n/a
237.0665	0.09	474133	keystroke_Key.space	Key.space	n/a
237.3515	0.09	474703	keystroke_h	h	n/a
237.4125	0.089	474825	keystroke_e	e	n/a
237.5465	0.105	475093	keystroke_a	a	n/a
237.7725	0.074	475545	keystroke_t	t	n/a
237.8925	0.179	475785	keystroke_e	e	n/a
238.0115	0.105	476023	keystroke_r	r	n/a
238.1765	0.105	476353	keystroke_Key.enter	Key.enter	n/a
238.289	7.5995	476578	prompt	n/a	myrtle stats tabs concept\n
238.8825	0.12	477765	keystroke_m	m	n/a
239.2865	0.106	478573	keystroke_y	y	n/a
239.5265	0.061	479053	keystroke_t	t	n/a
240.157	0.09	480314	keystroke_Key.backspace	Key.backspace	n/a
240.277	0.105	480554	keystroke_r	r	n/a
240.502	0.105	481004	keystroke_t	t	n/a
240.742	0.105	481484	keystroke_l	l	n/a
241.567	0.12	483134	keystroke_e	e	n/a
241.747	0.135	483494	keystroke_Key.space	Key.space	n/a
242.032	0.105	484064	keystroke_s	s	n/a
242.227	0.075	484454	keystroke_t	t	n/a
242.407	0.075	484814	keystroke_a	a	n/a
242.467	0.09	484934	keystroke_t	t	n/a
242.6625	0.119	485325	keystroke_s	s	n/a
243.022	0.105	486044	keystroke_Key.space	Key.space	n/a
243.442	0.075	486884	keystroke_t	t	n/a
243.622	0.12	487244	keystroke_a	a	n/a
243.772	0.045	487544	keystroke_b	b	n/a
244.132	0.075	488264	keystroke_s	s	n/a
244.297	0.12	488594	keystroke_Key.space	Key.space	n/a
244.537	0.09	489074	keystroke_c	c	n/a
244.627	0.0895	489254	keystroke_o	o	n/a
244.6865	0.105	489373	keystroke_n	n	n/a
244.852	0.0895	489704	keystroke_c	c	n/a
245.0765	0.0455	490153	keystroke_e	e	n/a
245.122	0.1195	490244	keystroke_p	p	n/a
245.6165	0.075	491233	keystroke_t	t	n/a
245.7815	0.105	491563	keystroke_Key.enter	Key.enter	n/a
245.8935	8.5155	491787	prompt	n/a	popular wolf discipline routing\n
246.4115	0.075	492823	keystroke_p	p	n/a
246.5915	0.12	493183	keystroke_o	o	n/a
247.3865	0.09	494773	keystroke_p	p	n/a
247.5965	0.09	495193	keystroke_u	u	n/a
247.8065	0.075	495613	keystroke_l	l	n/a
247.9125	0.089	495825	keystroke_a	a	n/a
248.1065	0.09	496213	keystroke_t	t	n/a
248.1215	0.24	496243	keystroke_i	i	n/a
248.1665	0.15	496333	keystroke_o	o	n/a
248.2565	0.135	496513	keystroke_n	n	n/a
248.6315	0.105	497263	keystroke_Key.space	Key.space	n/a
248.8115	0.105	497623	keystroke_w	w	n/a
249.5615	0.075	499123	keystroke_o	o	n/a
249.7265	0.106	499453	keystroke_l	l	n/a
249.7865	0.12	499573	keystroke_f	f	n/a
249.9665	0.09	499933	keystroke_Key.space	Key.space	n/a
250.8515	0.105	501703	keystroke_d	d	n/a
250.9865	0.106	501973	keystroke_i	i	n/a
251.1365	0.105	502273	keystroke_s	s	n/a
251.5265	0.106	503053	keystroke_c	c	n/a
251.6465	0.12	503293	keystroke_i	i	n/a
251.8865	0.09	503773	keystroke_p	p	n/a
252.3375	0.119	504675	keystroke_l	l	n/a
252.4275	0.1645	504855	keystroke_i	i	n/a
252.5165	0.0905	505033	keystroke_n	n	n/a
252.862	0.12	505724	keystroke_e	e	n/a
253.027	0.105	506054	keystroke_Key.space	Key.space	n/a
253.267	0.09	506534	keystroke_r	r	n/a
253.372	0.09	506744	keystroke_o	o	n/a
253.537	0.12	507074	keystroke_u	u	n/a
253.702	0.12	507404	keystroke_t	t	n/a
253.837	0.15	507674	keystroke_i	i	n/a
253.912	0.135	507824	keystroke_n	n	n/a
254.032	0.105	508064	keystroke_g	g	n/a
254.317	0.09	508634	keystroke_Key.enter	Key.enter	n/a
254.4155	7.8385	508831	prompt	n/a	researchers invalid standards waves\n
254.977	0.075	509954	keystroke_r	r	n/a
255.082	0.09	510164	keystroke_e	e	n/a
255.277	0.105	510554	keystroke_a	a	n/a
255.892	0.09	511784	keystroke_Key.backspace	Key.backspace	n/a
256.147	0.09	512294	keystroke_s	s	n/a
256.327	0.105	512654	keystroke_e	e	n/a
256.567	0.03	513134	keystroke_a	a	n/a
256.852	0.075	513704	keystroke_r	r	n/a
257.092	0.105	514184	keystroke_c	c	n/a
257.212	0.105	514424	keystroke_h	h	n/a
257.302	0.12	514604	keystroke_e	e	n/a
257.407	0.075	514814	keystroke_r	r	n/a
257.587	0.12	515174	keystroke_s	s	n/a
257.722	0.06	515444	keystroke_Key.space	Key.space	n/a
257.872	0.105	515744	keystroke_i	i	n/a
257.962	0.09	515924	keystroke_n	n	n/a
258.067	0.09	516134	keystroke_v	v	n/a
258.187	0.105	516374	keystroke_a	a	n/a
258.262	0.15	516524	keystroke_l	l	n/a
258.382	0.105	516764	keystroke_i	i	n/a
258.457	0.12	516914	keystroke_d	d	n/a
259.462	0.12	518924	keystroke_Key.space	Key.space	n/a
259.627	0.135	519254	keystroke_s	s	n/a
259.852	0.09	519704	keystroke_t	t	n/a
260.062	0.09	520124	keystroke_a	a	n/a
260.212	0.105	520424	keystroke_n	n	n/a
260.362	0.12	520724	keystroke_d	d	n/a
260.527	0.105	521054	keystroke_a	a	n/a
260.692	0.09	521384	keystroke_r	r	n/a
260.902	0.09	521804	keystroke_d	d	n/a
261.007	0.105	522014	keystroke_s	s	n/a
261.157	0.105	522314	keystroke_Key.space	Key.space	n/a
261.337	0.09	522674	keystroke_w	w	n/a
261.5765	0.0745	523153	keystroke_a	a	n/a
261.787	0.059	523574	keystroke_v	v	n/a
261.891	0.091	523782	keystroke_e	e	n/a
262.026	0.1205	524052	keystroke_s	s	n/a
262.1475	0.104	524295	keystroke_Key.enter	Key.enter	n/a
262.259	7.645	524518	prompt	n/a	double titled goods indianapolis\n
262.732	0.104	525464	keystroke_d	d	n/a
262.881	0.105	525762	keystroke_o	o	n/a
263.001	0.09	526002	keystroke_u	u	n/a
263.106	0.0755	526212	keystroke_b	b	n/a
263.2125	0.1185	526425	keystroke_l	l	n/a
263.3615	0.1505	526723	keystroke_e	e	n/a
263.4965	0.1195	526993	keystroke_Key.space	Key.space	n/a
264.007	0.059	528014	keystroke_t	t	n/a
264.232	0.075	528464	keystroke_i	i	n/a
264.366	0.105	528732	keystroke_t	t	n/a
264.442	0.135	528884	keystroke_l	l	n/a
264.562	0.105	529124	keystroke_e	e	n/a
264.787	0.09	529574	keystroke_d	d	n/a
264.936	0.151	529872	keystroke_Key.space	Key.space	n/a
265.582	0.105	531164	keystroke_g	g	n/a
265.672	0.044	531344	keystroke_o	o	n/a
265.807	0.105	531614	keystroke_o	o	n/a
265.896	0.091	531792	keystroke_d	d	n/a
266.032	0.12	532064	keystroke_s	s	n/a
266.212	0.12	532424	keystroke_Key.space	Key.space	n/a
266.572	0.09	533144	keystroke_i	i	n/a
266.646	0.076	533292	keystroke_n	n	n/a
266.902	0.12	533804	keystroke_d	d	n/a
267.037	0.12	534074	keystroke_i	i	n/a
267.142	0.12	534284	keystroke_a	a	n/a
267.263	0.074	534526	keystroke_n	n	n/a
267.592	0.075	535184	keystroke_o	o	n/a
267.922	0.045	535844	keystroke_Key.backspace	Key.backspace	n/a
267.997	0.09	535994	keystroke_a	a	n/a
268.192	0.135	536384	keystroke_p	p	n/a
268.432	0.075	536864	keystroke_o	o	n/a
268.627	0.18	537254	keystroke_l	l	n/a
268.732	0.15	537464	keystroke_i	i	n/a
268.942	0.105	537884	keystroke_s	s	n/a
269.782	0.12	539564	keystroke_Key.enter	Key.enter	n/a
269.9085	18.4755	539817	prompt	n/a	throughout fired accomplished miscellaneous\n
270.517	0.09	541034	keystroke_f	f	n/a
270.667	0.105	541334	keystroke_o	o	n/a
270.952	0.045	541904	keystroke_Key.backspace	Key.backspace	n/a
271.087	0.09	542174	keystroke_r	r	n/a
271.162	0.135	542324	keystroke_h	h	n/a
271.222	0.15	542444	keystroke_o	o	n/a
271.5965	0.0605	543193	keystroke_Key.backspace	Key.backspace	n/a
271.732	0.075	543464	keystroke_Key.backspace	Key.backspace	n/a
271.837	0.075	543674	keystroke_Key.backspace	Key.backspace	n/a
272.002	0.06	544004	keystroke_Key.backspace	Key.backspace	n/a
272.257	0.09	544514	keystroke_t	t	n/a
272.812	0.09	545624	keystroke_h	h	n/a
273.067	0.105	546134	keystroke_r	r	n/a
273.142	0.105	546284	keystroke_o	o	n/a
273.262	0.09	546524	keystroke_u	u	n/a
273.382	0.06	546764	keystroke_g	g	n/a
273.487	0.105	546974	keystroke_h	h	n/a
273.607	0.105	547214	keystroke_t	t	n/a
274.042	0.12	548084	keystroke_o	o	n/a
274.162	0.105	548324	keystroke_u	u	n/a
274.282	0.135	548564	keystroke_t	t	n/a
274.612	0.105	549224	keystroke_Key.space	Key.space	n/a
274.837	0.09	549674	keystroke_f	f	n/a
275.032	0.09	550064	keystroke_r	r	n/a
275.137	0.15	550274	keystroke_i	i	n/a
275.617	0.06	551234	keystroke_Key.backspace	Key.backspace	n/a
275.737	0.075	551474	keystroke_Key.backspace	Key.backspace	n/a
275.917	0.1045	551834	keystroke_r	r	n/a
275.932	0.1045	551864	keystroke_i	i	n/a
276.1715	0.105	552343	keystroke_e	e	n/a
276.5165	0.09	553033	keystroke_Key.backspace	Key.backspace	n/a
276.6965	0.06	553393	keystroke_Key.backspace	Key.backspace	n/a
276.8015	0.09	553603	keystroke_Key.backspace	Key.backspace	n/a
280.03	0.027	560060	keystroke_Key.backspace	Key.backspace	n/a
280.117	0.09	560234	keystroke_Key.backspace	Key.backspace	n/a
280.237	0.105	560474	keystroke_Key.backspace	Key.backspace	n/a
280.417	0.06	560834	keystroke_Key.backspace	Key.backspace	n/a
280.552	0.06	561104	keystroke_Key.backspace	Key.backspace	n/a
280.807	0.105	561614	keystroke_Key.backspace	Key.backspace	n/a
281.152	0.105	562304	keystroke_o	o	n/a
281.272	0.12	562544	keystroke_u	u	n/a
281.407	0.09	562814	keystroke_t	t	n/a
281.647	0.105	563294	keystroke_Key.space	Key.space	n/a
281.962	0.12	563924	keystroke_f	f	n/a
282.097	0.135	564194	keystroke_i	i	n/a
282.172	0.105	564344	keystroke_r	r	n/a
282.337	0.09	564674	keystroke_e	e	n/a
282.532	0.105	565064	keystroke_d	d	n/a
282.607	0.1195	565214	keystroke_Key.space	Key.space	n/a
282.7715	0.136	565543	keystroke_a	a	n/a
283.0115	0.075	566023	keystroke_c	c	n/a
283.3115	0.06	566623	keystroke_c	c	n/a
283.4165	0.1805	566833	keystroke_o	o	n/a
283.552	0.15	567104	keystroke_m	m	n/a
283.732	0.09	567464	keystroke_p	p	n/a
283.927	0.15	567854	keystroke_l	l	n/a
284.032	0.135	568064	keystroke_i	i	n/a
284.317	0.09	568634	keystroke_s	s	n/a
284.452	0.09	568904	keystroke_h	h	n/a
284.527	0.105	569054	keystroke_e	e	n/a
284.737	0.105	569474	keystroke_d	d	n/a
284.992	0.105	569984	keystroke_Key.space	Key.space	n/a
285.592	0.09	571184	keystroke_m	m	n/a
285.772	0.09	571544	keystroke_i	i	n/a
285.892	0.1045	571784	keystroke_s	s	n/a
286.1765	0.106	572353	keystroke_c	c	n/a
286.4025	0.089	572805	keystroke_e	e	n/a
286.5225	0.074	573045	keystroke_l	l	n/a
286.6715	0.136	573343	keystroke_l	l	n/a
286.9125	0.12	573825	keystroke_a	a	n/a
287.0625	0.104	574125	keystroke_n	n	n/a
287.1525	0.12	574305	keystroke_c	c	n/a
287.587	0.09	575174	keystroke_e	e	n/a
287.797	0.135	575594	keystroke_o	o	n/a
287.962	0.12	575924	keystroke_u	u	n/a
288.082	0.09	576164	keystroke_s	s	n/a
288.292	0.09	576584	keystroke_Key.enter	Key.enter	n/a
288.394	10.2945	576788	prompt	n/a	tray halifax nomination italic\n
289.027	0.105	578054	keystroke_t	t	n/a
289.177	0.105	578354	keystroke_h	h	n/a
289.627	0.06	579254	keystroke_Key.backspace	Key.backspace	n/a
289.762	0.09	579524	keystroke_r	r	n/a
289.927	0.1195	579854	keystroke_a	a	n/a
290.122	0.0895	580244	keystroke_y	y	n/a
290.5115	0.12	581023	keystroke_Key.space	Key.space	n/a
290.8415	0.105	581683	keystroke_h	h	n/a
291.0365	0.1355	582073	keystroke_a	a	n/a
291.247	0.135	582494	keystroke_l	l	n/a
291.322	0.12	582644	keystroke_i	i	n/a
291.592	0.09	583184	keystroke_f	f	n/a
291.937	0.1045	583874	keystroke_a	a	n/a
292.1165	0.12	584233	keystroke_x	x	n/a
292.371	0.0905	584742	keystroke_Key.space	Key.space	n/a
295.135	0.057	590270	keystroke_n	n	n/a
295.162	0.12	590324	keystroke_o	o	n/a
295.402	0.075	590804	keystroke_m	m	n/a
295.507	0.12	591014	keystroke_i	i	n/a
295.612	0.12	591224	keystroke_n	n	n/a
295.942	0.09	591884	keystroke_a	a	n/a
296.137	0.105	592274	keystroke_t	t	n/a
296.197	0.2695	592394	keystroke_i	i	n/a
296.257	0.1645	592514	keystroke_o	o	n/a
296.332	0.1495	592664	keystroke_n	n	n/a
296.9165	0.09	593833	keystroke_Key.space	Key.space	n/a
297.2015	0.105	594403	keystroke_i	i	n/a
297.3825	0.104	594765	keystroke_t	t	n/a
297.7115	0.076	595423	keystroke_a	a	n/a
297.8165	0.136	595633	keystroke_l	l	n/a
297.9215	0.136	595843	keystroke_i	i	n/a
298.3725	0.135	596745	keystroke_c	c	n/a
298.5665	0.12	597133	keystroke_Key.enter	Key.enter	n/a
298.693	5.5005	597386	prompt	n/a	ranks andrea logo dryer\n
299.3615	0.046	598723	keystroke_r	r	n/a
299.5115	0.091	599023	keystroke_a	a	n/a
299.6025	0.1495	599205	keystroke_n	n	n/a
299.6775	0.1495	599355	keystroke_k	k	n/a
300.037	0.105	600074	keystroke_s	s	n/a
300.172	0.105	600344	keystroke_Key.space	Key.space	n/a
300.4415	0.1055	600883	keystroke_a	a	n/a
300.637	0.1045	601274	keystroke_n	n	n/a
300.8015	0.1205	601603	keystroke_d	d	n/a
301.0265	0.075	602053	keystroke_r	r	n/a
301.1915	0.0905	602383	keystroke_e	e	n/a
301.4165	0.121	602833	keystroke_a	a	n/a
301.5665	0.12	603133	keystroke_Key.space	Key.space	n/a
301.7615	0.091	603523	keystroke_l	l	n/a
301.9565	0.09	603913	keystroke_o	o	n/a
302.0475	0.104	604095	keystroke_g	g	n/a
302.227	0.12	604454	keystroke_o	o	n/a
302.617	0.1195	605234	keystroke_Key.space	Key.space	n/a
302.9615	0.12	605923	keystroke_d	d	n/a
303.1565	0.105	606313	keystroke_r	r	n/a
303.4265	0.105	606853	keystroke_y	y	n/a
303.7265	0.12	607453	keystroke_e	e	n/a
303.8765	0.09	607753	keystroke_r	r	n/a
304.1015	0.09	608203	keystroke_Key.enter	Key.enter	n/a
304.1995	8.4395	608399	prompt	n/a	rings explicitly metallic that\n
304.8815	0.075	609763	keystroke_r	r	n/a
304.9415	0.12	609883	keystroke_i	i	n/a
305.0315	0.09	610063	keystroke_n	n	n/a
305.0765	0.075	610153	keystroke_g	g	n/a
305.2865	0.09	610573	keystroke_s	s	n/a
305.3915	0.075	610783	keystroke_Key.space	Key.space	n/a
305.5565	0.09	611113	keystroke_e	e	n/a
305.7675	0.104	611535	keystroke_x	x	n/a
306.2015	0.105	612403	keystroke_p	p	n/a
307.221	0.106	614442	keystroke_l	l	n/a
307.522	0.0745	615044	keystroke_i	i	n/a
307.9115	0.1205	615823	keystroke_c	c	n/a
308.467	0.135	616934	keystroke_i	i	n/a
308.9465	0.1055	617893	keystroke_t	t	n/a
309.202	0.045	618404	keystroke_i	i	n/a
309.592	0.075	619184	keystroke_Key.backspace	Key.backspace	n/a
309.802	0.105	619604	keystroke_l	l	n/a
309.967	0.105	619934	keystroke_y	y	n/a
310.327	0.135	620654	keystroke_Key.space	Key.space	n/a
310.552	0.135	621104	keystroke_m	m	n/a
310.672	0.105	621344	keystroke_e	e	n/a
310.912	0.075	621824	keystroke_t	t	n/a
311.107	0.12	622214	keystroke_a	a	n/a
311.242	0.06	622484	keystroke_l	l	n/a
311.377	0.09	622754	keystroke_l	l	n/a
311.542	0.135	623084	keystroke_i	i	n/a
311.662	0.12	623324	keystroke_c	c	n/a
311.842	0.105	623684	keystroke_Key.space	Key.space	n/a
312.067	0.09	624134	keystroke_t	t	n/a
312.187	0.105	624374	keystroke_h	h	n/a
312.262	0.09	624524	keystroke_a	a	n/a
312.353	0.104	624706	keystroke_t	t	n/a
312.5165	0.12	625033	keystroke_Key.enter	Key.enter	n/a
312.6505	10.774	625301	prompt	n/a	grenada radios baskets scientific\n
313.2525	0.074	626505	keystroke_g	g	n/a
313.5065	0.12	627013	keystroke_r	r	n/a
313.8065	0.105	627613	keystroke_e	e	n/a
313.9865	0.06	627973	keystroke_n	n	n/a
314.1515	0.15	628303	keystroke_d	d	n/a
314.3165	0.12	628633	keystroke_a	a	n/a
314.5115	0.151	629023	keystroke_d	d	n/a
314.6915	0.12	629383	keystroke_a	a	n/a
314.9315	0.105	629863	keystroke_Key.space	Key.space	n/a
315.5465	0.075	631093	keystroke_Key.backspace	Key.backspace	n/a
315.6965	0.09	631393	keystroke_Key.backspace	Key.backspace	n/a
315.8015	0.12	631603	keystroke_Key.backspace	Key.backspace	n/a
315.9815	0.075	631963	keystroke_Key.backspace	Key.backspace	n/a
316.1315	0.075	632263	keystroke_Key.backspace	Key.backspace	n/a
316.9565	0.105	633913	keystroke_a	a	n/a
317.1215	0.15	634243	keystroke_d	d	n/a
317.2865	0.12	634573	keystroke_a	a	n/a
317.4365	0.12	634873	keystroke_Key.space	Key.space	n/a
317.7365	0.03	635473	keystroke_r	r	n/a
317.9015	0.105	635803	keystroke_a	a	n/a
318.0515	0.12	636103	keystroke_d	d	n/a
318.1865	0.12	636373	keystroke_i	i	n/a
318.2765	0.12	636553	keystroke_o	o	n/a
318.8915	0.105	637783	keystroke_s	s	n/a
319.0715	0.09	638143	keystroke_Key.space	Key.space	n/a
319.2965	0.09	638593	keystroke_b	b	n/a
319.5215	0.135	639043	keystroke_a	a	n/a
319.6415	0.105	639283	keystroke_s	s	n/a
319.7915	0.135	639583	keystroke_k	k	n/a
319.8965	0.105	639793	keystroke_e	e	n/a
320.0615	0.075	640123	keystroke_t	t	n/a
320.2265	0.135	640453	keystroke_s	s	n/a
320.3765	0.09	640753	keystroke_Key.space	Key.space	n/a
320.5715	0.105	641143	keystroke_s	s	n/a
320.7965	0.12	641593	keystroke_c	c	n/a
320.9915	0.135	641983	keystroke_i	i	n/a
321.3215	0.135	642643	keystroke_e	e	n/a
321.5915	0.09	643183	keystroke_n	n	n/a
322.2815	0.105	644563	keystroke_t	t	n/a
322.5515	0.0895	645103	keystroke_i	i	n/a
322.671	0.1055	645342	keystroke_f	f	n/a
322.7915	0.1205	645583	keystroke_i	i	n/a
322.957	0.12	645914	keystroke_c	c	n/a
323.317	0.104	646634	keystroke_Key.enter	Key.enter	n/a
323.4295	11.859	646859	prompt	n/a	cottages bandwidth knock tribute\n
324.262	0.12	648524	keystroke_c	c	n/a
324.396	0.075	648792	keystroke_o	o	n/a
324.576	0.06	649152	keystroke_g	g	n/a
324.951	0.075	649902	keystroke_Key.backspace	Key.backspace	n/a
325.042	0.06	650084	keystroke_t	t	n/a
325.191	0.075	650382	keystroke_t	t	n/a
325.416	0.105	650832	keystroke_a	a	n/a
325.536	0.06	651072	keystroke_g	g	n/a
325.716	0.091	651432	keystroke_e	e	n/a
325.926	0.12	651852	keystroke_s	s	n/a
326.047	0.089	652094	keystroke_Key.space	Key.space	n/a
326.271	0.061	652542	keystroke_b	b	n/a
326.392	0.135	652784	keystroke_a	a	n/a
326.5415	0.075	653083	keystroke_n	n	n/a
326.6765	0.09	653353	keystroke_t	t	n/a
327.0965	0.075	654193	keystroke_Key.backspace	Key.backspace	n/a
327.1865	0.1195	654373	keystroke_d	d	n/a
327.366	0.105	654732	keystroke_w	w	n/a
327.456	0.105	654912	keystroke_i	i	n/a
327.5915	0.09	655183	keystroke_t	t	n/a
327.7115	0.12	655423	keystroke_h	h	n/a
329.0315	0.045	658063	keystroke_Key.backspace	Key.backspace	n/a
329.1515	0.075	658303	keystroke_Key.backspace	Key.backspace	n/a
330.1115	0.075	660223	keystroke_d	d	n/a
330.3215	0.09	660643	keystroke_t	t	n/a
330.427	0.135	660854	keystroke_h	h	n/a
330.577	0.12	661154	keystroke_Key.space	Key.space	n/a
331.132	0.15	662264	keystroke_k	k	n/a
331.267	0.12	662534	keystroke_n	n	n/a
331.357	0.12	662714	keystroke_o	o	n/a
331.522	0.135	663044	keystroke_c	c	n/a
331.822	0.135	663644	keystroke_k	k	n/a
332.002	0.105	664004	keystroke_Key.space	Key.space	n/a
332.692	0.12	665384	keystroke_t	t	n/a
332.947	0.075	665894	keystroke_r	r	n/a
333.082	0.09	666164	keystroke_i	i	n/a
333.382	0.015	666764	keystroke_e	e	n/a
333.667	0.09	667334	keystroke_Key.backspace	Key.backspace	n/a
333.817	0.105	667634	keystroke_b	b	n/a
334.341	0.106	668682	keystroke_u	u	n/a
334.552	0.105	669104	keystroke_t	t	n/a
334.687	0.105	669374	keystroke_e	e	n/a
335.152	0.134	670304	keystroke_Key.enter	Key.enter	n/a
335.293	5.9355	670586	prompt	n/a	audit croatia began shut\n
335.916	0.091	671832	keystroke_a	a	n/a
336.112	0.09	672224	keystroke_u	u	n/a
336.217	0.105	672434	keystroke_d	d	n/a
336.352	0.12	672704	keystroke_i	i	n/a
336.517	0.105	673034	keystroke_t	t	n/a
336.862	0.12	673724	keystroke_Key.space	Key.space	n/a
337.102	0.135	674204	keystroke_c	c	n/a
337.402	0.105	674804	keystroke_r	r	n/a
337.612	0.09	675224	keystroke_o	o	n/a
337.867	0.105	675734	keystroke_a	a	n/a
338.092	0.09	676184	keystroke_t	t	n/a
338.302	0.135	676604	keystroke_i	i	n/a
338.467	0.12	676934	keystroke_a	a	n/a
338.706	0.09	677412	keystroke_Key.space	Key.space	n/a
339.021	0.076	678042	keystroke_b	b	n/a
339.201	0.075	678402	keystroke_e	e	n/a
339.351	0.045	678702	keystroke_g	g	n/a
339.622	0.014	679244	keystroke_a	a	n/a
340.026	0.075	680052	keystroke_n	n	n/a
340.176	0.105	680352	keystroke_Key.space	Key.space	n/a
340.537	0.104	681074	keystroke_s	s	n/a
340.672	0.075	681344	keystroke_h	h	n/a
340.8365	0.09	681673	keystroke_u	u	n/a
340.9415	0.09	681883	keystroke_t	t	n/a
341.1065	0.12	682213	keystroke_Key.enter	Key.enter	n/a
341.233	13.346	682466	prompt	n/a	classified perform police cards\n
341.8865	0.1205	683773	keystroke_c	c	n/a
342.037	0.15	684074	keystroke_l	l	n/a
342.142	0.104	684284	keystroke_a	a	n/a
342.202	0.104	684404	keystroke_s	s	n/a
342.382	0.09	684764	keystroke_s	s	n/a
342.802	0.105	685604	keystroke_f	f	n/a
342.922	0.105	685844	keystroke_i	i	n/a
343.012	0.105	686024	keystroke_e	e	n/a
343.222	0.075	686444	keystroke_d	d	n/a
343.327	0.105	686654	keystroke_Key.space	Key.space	n/a
343.657	0.105	687314	keystroke_p	p	n/a
343.762	0.135	687524	keystroke_e	e	n/a
343.882	0.075	687764	keystroke_r	r	n/a
344.077	0.075	688154	keystroke_f	f	n/a
344.182	0.09	688364	keystroke_o	o	n/a
344.302	0.075	688604	keystroke_r	r	n/a
344.392	0.075	688784	keystroke_m	m	n/a
347.1215	0.12	694243	keystroke_Key.left	Key.left	n/a
348.1865	0.09	696373	keystroke_i	i	n/a
348.8765	0.435	697753	keystroke_Key.right	Key.right	n/a
349.4315	0.09	698863	keystroke_Key.right	Key.right	n/a
349.5815	0.075	699163	keystroke_Key.right	Key.right	n/a
349.7315	0.06	699463	keystroke_Key.right	Key.right	n/a
349.8665	0.075	699733	keystroke_Key.right	Key.right	n/a
350.0015	0.075	700003	keystroke_Key.right	Key.right	n/a
350.1515	0.075	700303	keystroke_Key.right	Key.right	n/a
350.3015	0.06	700603	keystroke_Key.right	Key.right	n/a
350.5265	0.015	701053	keystroke_Key.right	Key.right	n/a
350.5865	0.075	701173	keystroke_Key.right	Key.right	n/a
350.7515	0.075	701503	keystroke_Key.right	Key.right	n/a
350.9015	0.075	701803	keystroke_Key.right	Key.right	n/a
351.0365	0.09	702073	keystroke_Key.right	Key.right	n/a
351.2015	0.075	702403	keystroke_Key.right	Key.right	n/a
351.6515	0.105	703303	keystroke_Key.space	Key.space	n/a
352.102	0.12	704204	keystroke_p	p	n/a
352.251	0.09	704502	keystroke_o	o	n/a
352.416	0.12	704832	keystroke_l	l	n/a
352.506	0.105	705012	keystroke_i	i	n/a
352.582	0.104	705164	keystroke_c	c	n/a
353.166	0.12	706332	keystroke_e	e	n/a
353.4665	0.12	706933	keystroke_Key.space	Key.space	n/a
353.7815	0.12	707563	keystroke_c	c	n/a
353.8865	0.09	707773	keystroke_a	a	n/a
354.0515	0.075	708103	keystroke_r	r	n/a
354.1865	0.135	708373	keystroke_d	d	n/a
354.3065	0.12	708613	keystroke_s	s	n/a
354.4865	0.09	708973	keystroke_Key.enter	Key.enter	n/a
354.586	6.8025	709172	prompt	n/a	namely reseller winter farm\n
355.1315	0.09	710263	keystroke_n	n	n/a
355.2065	0.121	710413	keystroke_a	a	n/a
355.3415	0.09	710683	keystroke_m	m	n/a
355.4615	0.165	710923	keystroke_l	l	n/a
355.6115	0.12	711223	keystroke_e	e	n/a
355.8815	0.06	711763	keystroke_Key.backspace	Key.backspace	n/a
355.9715	0.165	711943	keystroke_Key.backspace	Key.backspace	n/a
356.3765	0.105	712753	keystroke_e	e	n/a
356.4965	0.135	712993	keystroke_l	l	n/a
356.7365	0.135	713473	keystroke_y	y	n/a
356.9765	0.09	713953	keystroke_Key.space	Key.space	n/a
357.2465	0.076	714493	keystroke_r	r	n/a
357.3065	0.106	714613	keystroke_e	e	n/a
357.5015	0.106	715003	keystroke_s	s	n/a
357.7415	0.09	715483	keystroke_e	e	n/a
357.9375	0.075	715875	keystroke_l	l	n/a
358.0725	0.104	716145	keystroke_l	l	n/a
358.2065	0.151	716413	keystroke_e	e	n/a
358.4465	0.09	716893	keystroke_r	r	n/a
358.6265	0.12	717253	keystroke_Key.space	Key.space	n/a
358.8665	0.09	717733	keystroke_w	w	n/a
358.9415	0.105	717883	keystroke_i	i	n/a
359.0315	0.1205	718063	keystroke_n	n	n/a
359.1665	0.0905	718333	keystroke_d	d	n/a
359.4815	0.09	718963	keystroke_Key.backspace	Key.backspace	n/a
359.5865	0.075	719173	keystroke_t	t	n/a
359.7065	0.195	719413	keystroke_e	e	n/a
359.8415	0.105	719683	keystroke_r	r	n/a
359.9315	0.12	719863	keystroke_Key.space	Key.space	n/a
360.0665	0.09	720133	keystroke_f	f	n/a
360.3665	0.09	720733	keystroke_r	r	n/a
360.6515	0.075	721303	keystroke_Key.backspace	Key.backspace	n/a
360.7415	0.09	721483	keystroke_a	a	n/a
360.9215	0.105	721843	keystroke_r	r	n/a
361.0565	0.105	722113	keystroke_m	m	n/a
361.2815	0.105	722563	keystroke_Key.enter	Key.enter	n/a
361.3935	7.076	722787	prompt	n/a	diversity weddings bumper ratings\n
362.137	0.1195	724274	keystroke_d	d	n/a
362.2415	0.12	724483	keystroke_i	i	n/a
362.3915	0.09	724783	keystroke_v	v	n/a
362.5715	0.12	725143	keystroke_e	e	n/a
362.6315	0.09	725263	keystroke_r	r	n/a
362.8265	0.09	725653	keystroke_s	s	n/a
363.4415	0.105	726883	keystroke_i	i	n/a
363.6515	0.1205	727303	keystroke_t	t	n/a
363.907	0.09	727814	keystroke_y	y	n/a
364.132	0.105	728264	keystroke_Key.space	Key.space	n/a
364.402	0.075	728804	keystroke_w	w	n/a
364.522	0.105	729044	keystroke_e	e	n/a
364.717	0.105	729434	keystroke_d	d	n/a
364.957	0.09	729914	keystroke_d	d	n/a
365.092	0.18	730184	keystroke_i	i	n/a
365.182	0.12	730364	keystroke_n	n	n/a
365.287	0.105	730574	keystroke_g	g	n/a
365.511	0.136	731022	keystroke_s	s	n/a
365.662	0.06	731324	keystroke_Key.space	Key.space	n/a
365.947	0.075	731894	keystroke_b	b	n/a
366.082	0.075	732164	keystroke_u	u	n/a
366.307	0.105	732614	keystroke_m	m	n/a
366.487	0.12	732974	keystroke_p	p	n/a
366.622	0.12	733244	keystroke_e	e	n/a
366.757	0.105	733514	keystroke_r	r	n/a
366.997	0.105	733994	keystroke_Key.space	Key.space	n/a
367.267	0.06	734534	keystroke_r	r	n/a
367.431	0.121	734862	keystroke_a	a	n/a
367.6715	0.09	735343	keystroke_t	t	n/a
367.8065	0.1355	735613	keystroke_i	i	n/a
367.927	0.105	735854	keystroke_n	n	n/a
368.002	0.075	736004	keystroke_g	g	n/a
368.197	0.105	736394	keystroke_s	s	n/a
368.361	0.106	736722	keystroke_Key.enter	Key.enter	n/a
368.4745	5.979	736949	prompt	n/a	feel stars comfort made\n
369.082	0.104	738164	keystroke_f	f	n/a
369.157	0.104	738314	keystroke_e	e	n/a
369.397	0.075	738794	keystroke_l	l	n/a
369.816	0.061	739632	keystroke_Key.backspace	Key.backspace	n/a
369.922	0.105	739844	keystroke_e	e	n/a
370.027	0.105	740054	keystroke_l	l	n/a
370.116	0.12	740232	keystroke_Key.space	Key.space	n/a
370.222	0.1195	740444	keystroke_s	s	n/a
370.4165	0.09	740833	keystroke_t	t	n/a
370.5965	0.075	741193	keystroke_a	a	n/a
370.7015	0.075	741403	keystroke_r	r	n/a
371.8715	0.105	743743	keystroke_s	s	n/a
372.0215	0.12	744043	keystroke_Key.space	Key.space	n/a
372.2315	0.12	744463	keystroke_c	c	n/a
372.2915	0.15	744583	keystroke_o	o	n/a
372.3965	0.12	744793	keystroke_m	m	n/a
372.667	0.089	745334	keystroke_f	f	n/a
372.772	0.134	745544	keystroke_o	o	n/a
372.891	0.0755	745782	keystroke_r	r	n/a
373.0865	0.09	746173	keystroke_t	t	n/a
373.2215	0.09	746443	keystroke_Key.space	Key.space	n/a
373.5215	0.105	747043	keystroke_m	m	n/a
373.6415	0.1205	747283	keystroke_a	a	n/a
373.731	0.105	747462	keystroke_d	d	n/a
373.942	0.089	747884	keystroke_e	e	n/a
374.301	0.151	748602	keystroke_Key.enter	Key.enter	n/a
374.46	7.3135	748920	prompt	n/a	witch cardiff charms racial\n
375.037	0.105	750074	keystroke_w	w	n/a
375.172	0.135	750344	keystroke_i	i	n/a
375.336	0.091	750672	keystroke_t	t	n/a
375.667	0.119	751334	keystroke_c	c	n/a
375.817	0.09	751634	keystroke_h	h	n/a
375.922	0.089	751844	keystroke_Key.space	Key.space	n/a
376.282	0.135	752564	keystroke_c	c	n/a
376.402	0.09	752804	keystroke_a	a	n/a
376.597	0.075	753194	keystroke_r	r	n/a
376.882	0.12	753764	keystroke_d	d	n/a
377.272	0.12	754544	keystroke_i	i	n/a
377.422	0.105	754844	keystroke_f	f	n/a
377.632	0.104	755264	keystroke_f	f	n/a
378.0515	0.105	756103	keystroke_Key.space	Key.space	n/a
378.7715	0.105	757543	keystroke_c	c	n/a
378.9065	0.12	757813	keystroke_h	h	n/a
378.9965	0.105	757993	keystroke_a	a	n/a
379.2065	0.075	758413	keystroke_r	r	n/a
380.0315	0.15	760063	keystroke_m	m	n/a
380.1665	0.135	760333	keystroke_s	s	n/a
380.3615	0.12	760723	keystroke_Key.space	Key.space	n/a
380.7215	0.03	761443	keystroke_r	r	n/a
380.8565	0.09	761713	keystroke_a	a	n/a
381.0815	0.105	762163	keystroke_c	c	n/a
381.2315	0.105	762463	keystroke_i	i	n/a
381.3815	0.105	762763	keystroke_a	a	n/a
381.4565	0.105	762913	keystroke_l	l	n/a
381.6515	0.12	763303	keystroke_Key.enter	Key.enter	n/a
381.7795	6.819	763559	prompt	n/a	spank display specify shield\n
382.327	0.06	764654	keystroke_a	a	n/a
382.597	0.075	765194	keystroke_Key.backspace	Key.backspace	n/a
382.642	0.105	765284	keystroke_s	s	n/a
382.807	0.1195	765614	keystroke_p	p	n/a
382.957	0.12	765914	keystroke_a	a	n/a
383.107	0.135	766214	keystroke_n	n	n/a
383.212	0.12	766424	keystroke_k	k	n/a
383.617	0.105	767234	keystroke_Key.space	Key.space	n/a
383.872	0.105	767744	keystroke_d	d	n/a
383.977	0.105	767954	keystroke_i	i	n/a
384.052	0.09	768104	keystroke_s	s	n/a
384.232	0.105	768464	keystroke_p	p	n/a
384.427	0.135	768854	keystroke_l	l	n/a
384.547	0.075	769094	keystroke_a	a	n/a
384.817	0.09	769634	keystroke_y	y	n/a
385.057	0.105	770114	keystroke_Key.space	Key.space	n/a
385.297	0.09	770594	keystroke_s	s	n/a
385.462	0.105	770924	keystroke_p	p	n/a
385.642	0.09	771284	keystroke_e	e	n/a
385.852	0.105	771704	keystroke_c	c	n/a
386.077	0.075	772154	keystroke_i	i	n/a
386.617	0.09	773234	keystroke_f	f	n/a
386.872	0.105	773744	keystroke_y	y	n/a
387.082	0.09	774164	keystroke_Key.space	Key.space	n/a
387.322	0.135	774644	keystroke_s	s	n/a
387.487	0.15	774974	keystroke_h	h	n/a
387.562	0.09	775124	keystroke_i	i	n/a
387.832	0.105	775664	keystroke_e	e	n/a
387.982	0.09	775964	keystroke_l	l	n/a
388.057	0.12	776114	keystroke_d	d	n/a
388.477	0.12	776954	keystroke_Key.enter	Key.enter	n/a
388.6035	13.12	777207	prompt	n/a	niagara analog explosion humanities\n
389.242	0.12	778484	keystroke_n	n	n/a
389.482	0.135	778964	keystroke_i	i	n/a
389.8425	0.1195	779685	keystroke_a	a	n/a
390.112	0.075	780224	keystroke_g	g	n/a
390.4415	0.105	780883	keystroke_a	a	n/a
390.6815	0.075	781363	keystroke_r	r	n/a
390.8765	0.135	781753	keystroke_a	a	n/a
391.0265	0.135	782053	keystroke_Key.space	Key.space	n/a
391.4015	0.105	782803	keystroke_g	g	n/a
391.6565	0.105	783313	keystroke_Key.backspace	Key.backspace	n/a
391.7765	0.105	783553	keystroke_a	a	n/a
391.8965	0.135	783793	keystroke_n	n	n/a
392.3465	0.12	784693	keystroke_a	a	n/a
392.7515	0.09	785503	keystroke_g	g	n/a
393.0215	0.06	786043	keystroke_Key.backspace	Key.backspace	n/a
393.202	0.074	786404	keystroke_l	l	n/a
393.366	0.106	786732	keystroke_o	o	n/a
393.501	0.121	787002	keystroke_g	g	n/a
394.0565	0.09	788113	keystroke_Key.space	Key.space	n/a
394.2215	0.09	788443	keystroke_e	e	n/a
394.461	0.135	788922	keystroke_x	x	n/a
394.611	0.09	789222	keystroke_p	p	n/a
394.792	0.089	789584	keystroke_l	l	n/a
394.956	0.105	789912	keystroke_o	o	n/a
395.077	0.105	790154	keystroke_s	s	n/a
395.227	0.134	790454	keystroke_i	i	n/a
395.467	0.075	790934	keystroke_n	n	n/a
395.691	0.091	791382	keystroke_o	o	n/a
395.947	0.044	791894	keystroke_Key.backspace	Key.backspace	n/a
396.051	0.075	792102	keystroke_Key.backspace	Key.backspace	n/a
396.262	0.105	792524	keystroke_o	o	n/a
396.322	0.105	792644	keystroke_n	n	n/a
396.516	0.076	793032	keystroke_Key.space	Key.space	n/a
396.817	0.075	793634	keystroke_h	h	n/a
396.997	0.059	793994	keystroke_u	u	n/a
397.236	0.091	794472	keystroke_m	m	n/a
397.987	0.089	795974	keystroke_n	n	n/a
398.317	0.059	796634	keystroke_Key.backspace	Key.backspace	n/a
398.452	0.12	796904	keystroke_a	a	n/a
398.572	0.09	797144	keystroke_n	n	n/a
398.797	0.105	797594	keystroke_i	i	n/a
399.336	0.06	798672	keystroke_Key.backspace	Key.backspace	n/a
399.801	0.105	799602	keystroke_i	i	n/a
400.087	0.105	800174	keystroke_t	t	n/a
400.312	0.1045	800624	keystroke_i	i	n/a
400.4465	0.09	800893	keystroke_e	e	n/a
400.6265	0.105	801253	keystroke_s	s	n/a
401.6465	0.075	803293	keystroke_Key.enter	Key.enter	n/a
401.729	8.3045	803458	prompt	n/a	tokyo rhythm home programs\n
402.8915	0.09	805783	keystroke_t	t	n/a
402.9665	0.12	805933	keystroke_o	o	n/a
403.2515	0.135	806503	keystroke_k	k	n/a
403.5965	0.09	807193	keystroke_y	y	n/a
403.8215	0.12	807643	keystroke_o	o	n/a
404.0015	0.105	808003	keystroke_Key.space	Key.space	n/a
404.3765	0.09	808753	keystroke_r	r	n/a
404.9315	0.12	809863	keystroke_y	y	n/a
405.4415	0.075	810883	keystroke_Key.backspace	Key.backspace	n/a
405.6515	0.09	811303	keystroke_h	h	n/a
405.7565	0.12	811513	keystroke_y	y	n/a
406.1015	0.09	812203	keystroke_t	t	n/a
406.2365	0.135	812473	keystroke_h	h	n/a
406.3565	0.105	812713	keystroke_e	e	n/a
406.7165	0.06	813433	keystroke_Key.backspace	Key.backspace	n/a
406.9115	0.075	813823	keystroke_m	m	n/a
407.0015	0.105	814003	keystroke_Key.space	Key.space	n/a
407.3015	0.075	814603	keystroke_h	h	n/a
407.3615	0.135	814723	keystroke_o	o	n/a
407.5265	0.1045	815053	keystroke_m	m	n/a
407.976	0.135	815952	keystroke_e	e	n/a
408.141	0.105	816282	keystroke_Key.space	Key.space	n/a
408.396	0.09	816792	keystroke_p	p	n/a
408.561	0.105	817122	keystroke_r	r	n/a
408.681	0.075	817362	keystroke_o	o	n/a
408.816	0.075	817632	keystroke_g	g	n/a
409.057	0.105	818114	keystroke_r	r	n/a
409.267	0.12	818534	keystroke_a	a	n/a
409.417	0.134	818834	keystroke_m	m	n/a
409.522	0.12	819044	keystroke_s	s	n/a
409.896	0.135	819792	keystroke_Key.enter	Key.enter	n/a
410.038	7.69	820076	prompt	n/a	you lauren hypothetical slope\n
410.6615	0.105	821323	keystroke_y	y	n/a
410.7675	0.149	821535	keystroke_o	o	n/a
410.8565	0.105	821713	keystroke_u	u	n/a
410.9315	0.105	821863	keystroke_Key.space	Key.space	n/a
411.0815	0.15	822163	keystroke_l	l	n/a
411.2015	0.105	822403	keystroke_a	a	n/a
411.892	0.1345	823784	keystroke_u	u	n/a
412.6715	0.075	825343	keystroke_r	r	n/a
412.8665	0.075	825733	keystroke_e	e	n/a
412.9565	0.105	825913	keystroke_n	n	n/a
413.1065	0.075	826213	keystroke_Key.space	Key.space	n/a
413.3165	0.09	826633	keystroke_h	h	n/a
413.4965	0.09	826993	keystroke_y	y	n/a
413.706	0.091	827412	keystroke_p	p	n/a
413.992	0.089	827984	keystroke_o	o	n/a
414.3365	0.135	828673	keystroke_t	t	n/a
414.6215	0.09	829243	keystroke_h	h	n/a
414.8315	0.105	829663	keystroke_e	e	n/a
415.1765	0.09	830353	keystroke_t	t	n/a
415.3115	0.12	830623	keystroke_i	i	n/a
415.4765	0.135	830953	keystroke_c	c	n/a
415.5965	0.12	831193	keystroke_a	a	n/a
415.7015	0.105	831403	keystroke_l	l	n/a
415.8665	0.105	831733	keystroke_Key.space	Key.space	n/a
416.0165	0.1205	832033	keystroke_s	s	n/a
416.242	0.12	832484	keystroke_l	l	n/a
416.437	0.15	832874	keystroke_o	o	n/a
416.617	0.135	833234	keystroke_p	p	n/a
416.872	0.12	833744	keystroke_e	e	n/a
417.621	0.105	835242	keystroke_Key.enter	Key.enter	n/a
417.734	13.7645	835468	prompt	n/a	richardson gorgeous concern wouldn't\n
418.432	0.09	836864	keystroke_r	r	n/a
418.551	0.15	837102	keystroke_i	i	n/a
418.732	0.119	837464	keystroke_c	c	n/a
418.881	0.105	837762	keystroke_h	h	n/a
419.227	0.09	838454	keystroke_a	a	n/a
419.392	0.089	838784	keystroke_r	r	n/a
419.587	0.135	839174	keystroke_d	d	n/a
419.827	0.09	839654	keystroke_s	s	n/a
419.931	0.1505	839862	keystroke_o	o	n/a
420.037	0.1045	840074	keystroke_n	n	n/a
420.1865	0.075	840373	keystroke_Key.space	Key.space	n/a
420.4265	0.105	840853	keystroke_g	g	n/a
420.9665	0.105	841933	keystroke_o	o	n/a
421.1465	0.09	842293	keystroke_r	r	n/a
421.4015	0.03	842803	keystroke_g	g	n/a
422.4215	0.105	844843	keystroke_e	e	n/a
422.7665	0.09	845533	keystroke_o	o	n/a
422.9165	0.105	845833	keystroke_u	u	n/a
423.0525	0.104	846105	keystroke_s	s	n/a
423.2465	0.105	846493	keystroke_Key.space	Key.space	n/a
423.4115	0.15	846823	keystroke_c	c	n/a
423.5465	0.135	847093	keystroke_a	a	n/a
423.8465	0.075	847693	keystroke_Key.backspace	Key.backspace	n/a
424.0265	0.105	848053	keystroke_o	o	n/a
424.1015	0.136	848203	keystroke_n	n	n/a
424.2375	0.074	848475	keystroke_c	c	n/a
424.4315	0.12	848863	keystroke_e	e	n/a
424.5815	0.09	849163	keystroke_r	r	n/a
424.7315	0.076	849463	keystroke_n	n	n/a
425.0915	0.105	850183	keystroke_Key.space	Key.space	n/a
425.5415	0.105	851083	keystroke_w	w	n/a
425.6315	0.135	851263	keystroke_h	h	n/a
425.7065	0.121	851413	keystroke_o	o	n/a
425.8565	0.12	851713	keystroke_u	u	n/a
425.9615	0.12	851923	keystroke_l	l	n/a
426.097	0.1045	852194	keystroke_d	d	n/a
426.5765	0.045	853153	keystroke_Key.backspace	Key.backspace	n/a
426.6965	0.075	853393	keystroke_Key.backspace	Key.backspace	n/a
426.8315	0.09	853663	keystroke_Key.backspace	Key.backspace	n/a
427.6715	0.045	855343	keystroke_Key.backspace	Key.backspace	n/a
427.7915	0.06	855583	keystroke_Key.backspace	Key.backspace	n/a
428.0015	0.12	856003	keystroke_o	o	n/a
428.1515	0.09	856303	keystroke_u	u	n/a
428.3315	0.105	856663	keystroke_l	l	n/a
428.4665	0.12	856933	keystroke_d	d	n/a
428.6165	0.075	857233	keystroke_'	'	n/a
429.2615	0.06	858523	keystroke_t	t	n/a
429.562	0.0445	859124	keystroke_Key.backspace	Key.backspace	n/a
429.7565	0.105	859513	keystroke_n	n	n/a
430.1165	0.09	860233	keystroke_Key.backspace	Key.backspace	n/a
430.297	0.09	860594	keystroke_Key.backspace	Key.backspace	n/a
430.507	0.09	861014	keystroke_n	n	n/a
430.732	0.105	861464	keystroke_'	'	n/a
431.002	0.09	862004	keystroke_t	t	n/a
431.406	0.091	862812	keystroke_Key.enter	Key.enter	n/a
431.503	13.195	863006	prompt	n/a	modification running avenue biodiversity\n
432.142	0.105	864284	keystroke_b	b	n/a
432.262	0.12	864524	keystroke_o	o	n/a
432.427	0.12	864854	keystroke_d	d	n/a
432.562	0.09	865124	keystroke_i	i	n/a
432.757	0.105	865514	keystroke_f	f	n/a
432.862	0.09	865724	keystroke_i	i	n/a
432.997	0.135	865994	keystroke_c	c	n/a
433.147	0.09	866294	keystroke_a	a	n/a
433.356	0.046	866712	keystroke_t	t	n/a
433.506	0.331	867012	keystroke_Key.backspace	Key.backspace	n/a
433.926	0.075	867852	keystroke_Key.backspace	Key.backspace	n/a
434.062	0.089	868124	keystroke_Key.backspace	Key.backspace	n/a
434.212	0.0595	868424	keystroke_Key.backspace	Key.backspace	n/a
434.3465	0.075	868693	keystroke_Key.backspace	Key.backspace	n/a
434.4815	0.09	868963	keystroke_Key.backspace	Key.backspace	n/a
434.6315	0.06	869263	keystroke_Key.backspace	Key.backspace	n/a
434.7665	0.06	869533	keystroke_Key.backspace	Key.backspace	n/a
434.9165	0.075	869833	keystroke_Key.backspace	Key.backspace	n/a
435.1115	0.12	870223	keystroke_m	m	n/a
435.2465	0.09	870493	keystroke_o	o	n/a
435.8915	0.12	871783	keystroke_d	d	n/a
436.0415	0.105	872083	keystroke_i	i	n/a
436.1915	0.105	872383	keystroke_f	f	n/a
436.3565	0.12	872713	keystroke_i	i	n/a
436.5065	0.135	873013	keystroke_c	c	n/a
436.6425	0.074	873285	keystroke_a	a	n/a
436.8215	0.075	873643	keystroke_t	t	n/a
436.8515	0.27	873703	keystroke_i	i	n/a
436.9115	0.15	873823	keystroke_o	o	n/a
437.0015	0.135	874003	keystroke_n	n	n/a
437.7065	0.09	875413	keystroke_Key.space	Key.space	n/a
437.9765	0.105	875953	keystroke_r	r	n/a
438.0965	0.0755	876193	keystroke_u	u	n/a
438.292	0.045	876584	keystroke_n	n	n/a
438.427	0.06	876854	keystroke_n	n	n/a
438.562	0.135	877124	keystroke_i	i	n/a
438.637	0.105	877274	keystroke_n	n	n/a
438.817	0.105	877634	keystroke_g	g	n/a
438.937	0.09	877874	keystroke_Key.space	Key.space	n/a
439.356	0.091	878712	keystroke_a	a	n/a
439.582	0.09	879164	keystroke_v	v	n/a
439.942	0.105	879884	keystroke_e	e	n/a
440.227	0.09	880454	keystroke_n	n	n/a
440.467	0.09	880934	keystroke_u	u	n/a
440.7815	0.105	881563	keystroke_e	e	n/a
441.832	0.1045	883664	keystroke_Key.space	Key.space	n/a
442.2065	0.09	884413	keystroke_b	b	n/a
442.5065	0.105	885013	keystroke_i	i	n/a
442.7015	0.105	885403	keystroke_o	o	n/a
442.9565	0.12	885913	keystroke_d	d	n/a
443.1065	0.12	886213	keystroke_i	i	n/a
443.3165	0.09	886633	keystroke_v	v	n/a
443.4665	0.15	886933	keystroke_e	e	n/a
443.6015	0.09	887203	keystroke_r	r	n/a
443.8265	0.0895	887653	keystroke_s	s	n/a
443.946	0.15	887892	keystroke_i	i	n/a
444.097	0.134	888194	keystroke_t	t	n/a
444.367	0.089	888734	keystroke_y	y	n/a
444.591	0.105	889182	keystroke_Key.enter	Key.enter	n/a
444.703	9.056	889406	prompt	n/a	colleagues revised horse jeff\n
445.252	0.09	890504	keystroke_a	a	n/a
445.521	0.06	891042	keystroke_Key.backspace	Key.backspace	n/a
445.567	0.104	891134	keystroke_c	c	n/a
445.716	0.075	891432	keystroke_o	o	n/a
445.942	0.06	891884	keystroke_l	l	n/a
446.106	0.075	892212	keystroke_l	l	n/a
446.301	0.03	892602	keystroke_l	l	n/a
446.526	0.06	893052	keystroke_e	e	n/a
447.186	0.06	894372	keystroke_Key.backspace	Key.backspace	n/a
447.321	0.075	894642	keystroke_Key.backspace	Key.backspace	n/a
447.637	0.105	895274	keystroke_e	e	n/a
447.996	0.091	895992	keystroke_g	g	n/a
448.446	0.06	896892	keystroke_Key.backspace	Key.backspace	n/a
448.537	0.149	897074	keystroke_a	a	n/a
448.701	0.046	897402	keystroke_g	g	n/a
449.3465	0.09	898693	keystroke_u	u	n/a
449.4215	0.09	898843	keystroke_e	e	n/a
449.6015	0.135	899203	keystroke_s	s	n/a
449.7515	0.105	899503	keystroke_Key.space	Key.space	n/a
450.1415	0.09	900283	keystroke_r	r	n/a
450.3665	0.09	900733	keystroke_e	e	n/a
450.5915	0.105	901183	keystroke_v	v	n/a
450.7715	0.105	901543	keystroke_i	i	n/a
450.9815	0.09	901963	keystroke_s	s	n/a
451.1465	0.075	902293	keystroke_e	e	n/a
451.3265	0.1205	902653	keystroke_d	d	n/a
451.462	0.089	902924	keystroke_Key.space	Key.space	n/a
451.882	0.09	903764	keystroke_h	h	n/a
451.957	0.1495	903914	keystroke_o	o	n/a
452.3765	0.06	904753	keystroke_r	r	n/a
452.5865	0.09	905173	keystroke_s	s	n/a
452.7365	0.105	905473	keystroke_e	e	n/a
452.8265	0.105	905653	keystroke_Key.space	Key.space	n/a
453.1115	0.12	906223	keystroke_j	j	n/a
453.2915	0.1205	906583	keystroke_e	e	n/a
453.397	0.075	906794	keystroke_f	f	n/a
453.546	0.076	907092	keystroke_f	f	n/a
453.652	0.104	907304	keystroke_Key.enter	Key.enter	n/a
453.7635	8.2295	907527	prompt	n/a	assets keeping gmbh grand\n
454.251	0.136	908502	keystroke_a	a	n/a
454.402	0.09	908804	keystroke_s	s	n/a
454.581	0.09	909162	keystroke_s	s	n/a
454.762	0.075	909524	keystroke_e	e	n/a
455.826	0.045	911652	keystroke_t	t	n/a
456.006	0.106	912012	keystroke_s	s	n/a
456.096	0.105	912192	keystroke_Key.space	Key.space	n/a
456.276	0.1505	912552	keystroke_k	k	n/a
456.382	0.0745	912764	keystroke_e	e	n/a
456.5315	0.075	913063	keystroke_e	e	n/a
456.5915	0.12	913183	keystroke_p	p	n/a
456.817	0.12	913634	keystroke_i	i	n/a
456.892	0.089	913784	keystroke_n	n	n/a
457.777	0.119	915554	keystroke_g	g	n/a
457.912	0.105	915824	keystroke_Key.space	Key.space	n/a
458.451	0.12	916902	keystroke_g	g	n/a
458.662	0.12	917324	keystroke_m	m	n/a
459.112	0.089	918224	keystroke_b	b	n/a
459.682	0.119	919364	keystroke_h	h	n/a
459.846	0.105	919692	keystroke_Key.space	Key.space	n/a
460.056	0.075	920112	keystroke_g	g	n/a
460.237	0.06	920474	keystroke_r	r	n/a
460.401	0.12	920802	keystroke_a	a	n/a
460.566	0.12	921132	keystroke_n	n	n/a
460.701	0.0905	921402	keystroke_d	d	n/a
461.9015	0.09	923803	keystroke_Key.enter	Key.enter	n/a
461.9985	10.99	923997	prompt	n/a	diagnostic guestbook giving controlling\n
462.8465	0.135	925693	keystroke_d	d	n/a
463.0265	0.045	926053	keystroke_i	i	n/a
463.3265	0.135	926653	keystroke_a	a	n/a
464.121	0.106	928242	keystroke_g	g	n/a
464.437	0.12	928874	keystroke_n	n	n/a
464.6615	0.075	929323	keystroke_o	o	n/a
464.8265	0.105	929653	keystroke_s	s	n/a
464.9615	0.075	929923	keystroke_i	i	n/a
465.0815	0.105	930163	keystroke_t	t	n/a
465.5765	0.105	931153	keystroke_c	c	n/a
467.2265	0.06	934453	keystroke_Key.backspace	Key.backspace	n/a
467.3615	0.06	934723	keystroke_Key.backspace	Key.backspace	n/a
467.5265	0.03	935053	keystroke_Key.backspace	Key.backspace	n/a
467.7515	0.12	935503	keystroke_t	t	n/a
467.8565	0.12	935713	keystroke_i	i	n/a
468.0515	0.12	936103	keystroke_c	c	n/a
468.3665	0.105	936733	keystroke_Key.space	Key.space	n/a
468.6815	0.105	937363	keystroke_g	g	n/a
468.9815	0.105	937963	keystroke_u	u	n/a
469.1015	0.075	938203	keystroke_e	e	n/a
469.2815	0.09	938563	keystroke_s	s	n/a
469.4765	0.091	938953	keystroke_t	t	n/a
469.6865	0.09	939373	keystroke_b	b	n/a
469.7615	0.09	939523	keystroke_o	o	n/a
469.9265	0.15	939853	keystroke_o	o	n/a
470.0015	0.135	940003	keystroke_k	k	n/a
470.1515	0.09	940303	keystroke_Key.space	Key.space	n/a
470.3465	0.09	940693	keystroke_g	g	n/a
470.4515	0.105	940903	keystroke_i	i	n/a
470.5415	0.105	941083	keystroke_v	v	n/a
470.6615	0.165	941323	keystroke_i	i	n/a
470.7665	0.105	941533	keystroke_n	n	n/a
470.8715	0.15	941743	keystroke_g	g	n/a
471.0515	0.105	942103	keystroke_Key.space	Key.space	n/a
471.3665	0.12	942733	keystroke_c	c	n/a
471.4725	0.119	942945	keystroke_o	o	n/a
471.5465	0.121	943093	keystroke_n	n	n/a
471.7265	0.105	943453	keystroke_t	t	n/a
471.9515	0.105	943903	keystroke_r	r	n/a
472.0415	0.06	944083	keystroke_o	o	n/a
472.1925	0.089	944385	keystroke_l	l	n/a
472.3415	0.1205	944683	keystroke_l	l	n/a
472.5515	0.15	945103	keystroke_i	i	n/a
472.6265	0.105	945253	keystroke_n	n	n/a
472.7165	0.105	945433	keystroke_g	g	n/a
472.8815	0.105	945763	keystroke_Key.enter	Key.enter	n/a
472.995	5.798	945990	prompt	n/a	follow panel fighters has\n
473.6465	0.105	947293	keystroke_f	f	n/a
473.7215	0.105	947443	keystroke_l	l	n/a
473.9015	0.075	947803	keystroke_o	o	n/a
474.0665	0.09	948133	keystroke_o	o	n/a
474.3215	0.075	948643	keystroke_Key.backspace	Key.backspace	n/a
474.4415	0.075	948883	keystroke_Key.backspace	Key.backspace	n/a
474.5765	0.09	949153	keystroke_Key.backspace	Key.backspace	n/a
474.8165	0.09	949633	keystroke_o	o	n/a
474.9965	0.06	949993	keystroke_l	l	n/a
475.1315	0.09	950263	keystroke_l	l	n/a
475.2965	0.105	950593	keystroke_o	o	n/a
475.4615	0.15	950923	keystroke_w	w	n/a
475.6265	0.09	951253	keystroke_Key.space	Key.space	n/a
475.9115	0.105	951823	keystroke_p	p	n/a
476.0925	0.119	952185	keystroke_a	a	n/a
476.1965	0.075	952393	keystroke_n	n	n/a
476.3465	0.12	952693	keystroke_e	e	n/a
476.4825	0.12	952965	keystroke_l	l	n/a
476.5865	0.09	953173	keystroke_Key.space	Key.space	n/a
476.7965	0.09	953593	keystroke_f	f	n/a
476.9165	0.12	953833	keystroke_i	i	n/a
477.0965	0.09	954193	keystroke_g	g	n/a
477.2015	0.075	954403	keystroke_h	h	n/a
477.5465	0.075	955093	keystroke_t	t	n/a
477.6665	0.135	955333	keystroke_e	e	n/a
477.7715	0.105	955543	keystroke_r	r	n/a
478.0115	0.105	956023	keystroke_s	s	n/a
478.1315	0.06	956263	keystroke_Key.space	Key.space	n/a
478.3865	0.105	956773	keystroke_h	h	n/a
478.4315	0.135	956863	keystroke_a	a	n/a
478.5215	0.105	957043	keystroke_s	s	n/a
478.6865	0.105	957373	keystroke_Key.enter	Key.enter	n/a
478.7975	10.406	957595	prompt	n/a	consumers clearly carriers hoping\n
479.3765	0.135	958753	keystroke_c	c	n/a
479.4815	0.105	958963	keystroke_o	o	n/a
479.857	0.089	959714	keystroke_u	u	n/a
480.381	0.06	960762	keystroke_Key.backspace	Key.backspace	n/a
480.591	0.076	961182	keystroke_n	n	n/a
480.832	0.089	961664	keystroke_s	s	n/a
480.982	0.09	961964	keystroke_u	u	n/a
481.221	0.091	962442	keystroke_m	m	n/a
481.312	0.12	962624	keystroke_e	e	n/a
481.446	0.061	962892	keystroke_r	r	n/a
481.612	0.12	963224	keystroke_s	s	n/a
481.716	0.135	963432	keystroke_Key.space	Key.space	n/a
481.987	0.03	963974	keystroke_c	c	n/a
482.032	0.15	964064	keystroke_l	l	n/a
482.617	0.105	965234	keystroke_e	e	n/a
482.767	0.074	965534	keystroke_a	a	n/a
482.947	0.09	965894	keystroke_r	r	n/a
483.021	0.136	966042	keystroke_l	l	n/a
483.321	0.121	966642	keystroke_y	y	n/a
483.876	0.106	967752	keystroke_Key.space	Key.space	n/a
484.252	0.12	968504	keystroke_c	c	n/a
484.357	0.075	968714	keystroke_a	a	n/a
484.552	0.074	969104	keystroke_r	r	n/a
484.686	0.105	969372	keystroke_r	r	n/a
484.836	0.12	969672	keystroke_i	i	n/a
484.941	0.06	969882	keystroke_e	e	n/a
485.076	0.135	970152	keystroke_s	s	n/a
485.316	0.091	970632	keystroke_Key.space	Key.space	n/a
485.676	0.075	971352	keystroke_Key.backspace	Key.backspace	n/a
485.811	0.09	971622	keystroke_Key.backspace	Key.backspace	n/a
485.946	0.09	971892	keystroke_Key.backspace	Key.backspace	n/a
486.111	0.09	972222	keystroke_Key.backspace	Key.backspace	n/a
487.191	0.105	974382	keystroke_i	i	n/a
487.312	0.1345	974624	keystroke_e	e	n/a
487.4315	0.09	974863	keystroke_r	r	n/a
487.6415	0.12	975283	keystroke_s	s	n/a
487.7765	0.12	975553	keystroke_Key.space	Key.space	n/a
488.2415	0.1345	976483	keystroke_h	h	n/a
488.3165	0.2255	976633	keystroke_o	o	n/a
488.482	0.12	976964	keystroke_p	p	n/a
488.676	0.211	977352	keystroke_i	i	n/a
488.796	0.12	977592	keystroke_n	n	n/a
488.901	0.09	977802	keystroke_g	g	n/a
489.082	0.119	978164	keystroke_Key.enter	Key.enter	n/a
489.2115	6.8615	978423	prompt	n/a	assessment alberta viewers form\n
489.907	0.135	979814	keystroke_a	a	n/a
490.057	0.075	980114	keystroke_s	s	n/a
490.221	0.09	980442	keystroke_s	s	n/a
490.491	0.015	980982	keystroke_e	e	n/a
490.567	0.075	981134	keystroke_s	s	n/a
490.732	0.09	981464	keystroke_s	s	n/a
490.881	0.106	981762	keystroke_m	m	n/a
490.971	0.076	981942	keystroke_e	e	n/a
491.077	0.105	982154	keystroke_n	n	n/a
491.152	0.105	982304	keystroke_t	t	n/a
491.271	0.105	982542	keystroke_Key.space	Key.space	n/a
491.482	0.105	982964	keystroke_a	a	n/a
491.706	0.136	983412	keystroke_l	l	n/a
491.856	0.106	983712	keystroke_b	b	n/a
492.082	0.15	984164	keystroke_e	e	n/a
492.246	0.121	984492	keystroke_r	r	n/a
492.726	0.061	985452	keystroke_t	t	n/a
492.891	0.105	985782	keystroke_a	a	n/a
493.026	0.061	986052	keystroke_Key.space	Key.space	n/a
493.132	0.12	986264	keystroke_v	v	n/a
493.267	0.135	986534	keystroke_i	i	n/a
493.387	0.12	986774	keystroke_e	e	n/a
493.552	0.044	987104	keystroke_r	r	n/a
494.271	0.075	988542	keystroke_Key.backspace	Key.backspace	n/a
494.332	0.075	988664	keystroke_w	w	n/a
494.421	0.18	988842	keystroke_e	e	n/a
494.587	0.12	989174	keystroke_r	r	n/a
494.856	0.12	989712	keystroke_s	s	n/a
495.036	0.105	990072	keystroke_Key.space	Key.space	n/a
495.216	0.09	990432	keystroke_f	f	n/a
495.411	0.075	990822	keystroke_o	o	n/a
495.546	0.075	991092	keystroke_r	r	n/a
495.636	0.105	991272	keystroke_m	m	n/a
495.936	0.135	991872	keystroke_Key.enter	Key.enter	n/a
496.0785	6.145	992157	prompt	n/a	common worse requested intake\n
496.687	0.105	993374	keystroke_c	c	n/a
496.776	0.1355	993552	keystroke_o	o	n/a
496.9265	0.045	993853	keystroke_m	m	n/a
497.0615	0.09	994123	keystroke_m	m	n/a
497.1665	0.135	994333	keystroke_a	a	n/a
497.2715	0.12	994543	keystroke_n	n	n/a
497.3765	0.09	994753	keystroke_Key.space	Key.space	n/a
497.5565	0.09	995113	keystroke_o	o	n/a
497.6315	0.045	995263	keystroke_v	v	n/a
497.8715	0.075	995743	keystroke_Key.backspace	Key.backspace	n/a
497.9915	0.06	995983	keystroke_Key.backspace	Key.backspace	n/a
498.1265	0.09	996253	keystroke_w	w	n/a
498.1865	0.12	996373	keystroke_o	o	n/a
498.8765	0.09	997753	keystroke_r	r	n/a
499.0715	0.105	998143	keystroke_s	s	n/a
499.2215	0.09	998443	keystroke_e	e	n/a
499.3415	0.09	998683	keystroke_Key.space	Key.space	n/a
499.4765	0.12	998953	keystroke_r	r	n/a
499.6115	0.105	999223	keystroke_e	e	n/a
499.8065	0.075	999613	keystroke_q	q	n/a
499.9565	0.09	999913	keystroke_u	u	n/a
500.0015	0.165	1000003	keystroke_e	e	n/a
500.1365	0.06	1000273	keystroke_s	s	n/a
500.2565	0.165	1000513	keystroke_t	t	n/a
500.4065	0.1055	1000813	keystroke_e	e	n/a
500.6165	0.105	1001233	keystroke_d	d	n/a
500.7365	0.09	1001473	keystroke_Key.space	Key.space	n/a
501.2015	0.135	1002403	keystroke_i	i	n/a
501.2915	0.09	1002583	keystroke_n	n	n/a
501.4115	0.075	1002823	keystroke_t	t	n/a
501.5915	0.105	1003183	keystroke_a	a	n/a
501.8165	0.135	1003633	keystroke_k	k	n/a
501.922	0.1195	1003844	keystroke_e	e	n/a
502.1165	0.105	1004233	keystroke_Key.enter	Key.enter	n/a
502.228	9.18	1004456	prompt	n/a	levitra indicators genetics monster\n
502.8965	0.105	1005793	keystroke_l	l	n/a
503.1365	0.105	1006273	keystroke_e	e	n/a
503.512	0.119	1007024	keystroke_v	v	n/a
503.692	0.134	1007384	keystroke_i	i	n/a
504.007	0.09	1008014	keystroke_t	t	n/a
504.202	0.06	1008404	keystroke_r	r	n/a
504.396	0.105	1008792	keystroke_a	a	n/a
504.576	0.09	1009152	keystroke_Key.space	Key.space	n/a
504.816	0.135	1009632	keystroke_i	i	n/a
504.907	0.105	1009814	keystroke_n	n	n/a
506.512	0.134	1013024	keystroke_d	d	n/a
506.676	0.136	1013352	keystroke_i	i	n/a
506.961	0.121	1013922	keystroke_c	c	n/a
507.096	0.091	1014192	keystroke_a	a	n/a
507.426	0.09	1014852	keystroke_t	t	n/a
507.591	0.105	1015182	keystroke_o	o	n/a
507.712	0.0895	1015424	keystroke_r	r	n/a
507.9815	0.105	1015963	keystroke_s	s	n/a
508.1015	0.06	1016203	keystroke_Key.space	Key.space	n/a
508.4015	0.09	1016803	keystroke_g	g	n/a
508.6415	0.105	1017283	keystroke_e	e	n/a
508.7615	0.105	1017523	keystroke_n	n	n/a
509.0465	0.09	1018093	keystroke_e	e	n/a
509.2565	0.045	1018513	keystroke_t	t	n/a
509.4215	0.105	1018843	keystroke_i	i	n/a
509.5415	0.105	1019083	keystroke_c	c	n/a
509.7215	0.12	1019443	keystroke_s	s	n/a
509.9315	0.09	1019863	keystroke_Key.space	Key.space	n/a
510.2315	0.075	1020463	keystroke_m	m	n/a
510.3365	0.15	1020673	keystroke_o	o	n/a
510.4265	0.105	1020853	keystroke_n	n	n/a
510.6965	0.105	1021393	keystroke_s	s	n/a
510.8765	0.09	1021753	keystroke_t	t	n/a
511.0115	0.165	1022023	keystroke_e	e	n/a
511.1315	0.12	1022263	keystroke_r	r	n/a
511.2965	0.105	1022593	keystroke_Key.enter	Key.enter	n/a
511.408	6.2205	1022816	prompt	n/a	appeals briefs cited intl\n
511.9865	0.12	1023973	keystroke_a	a	n/a
512.226	0.1055	1024452	keystroke_p	p	n/a
512.541	0.105	1025082	keystroke_p	p	n/a
512.766	0.105	1025532	keystroke_e	e	n/a
512.9315	0.1205	1025863	keystroke_a	a	n/a
513.052	0.105	1026104	keystroke_l	l	n/a
513.171	0.136	1026342	keystroke_s	s	n/a
513.337	0.089	1026674	keystroke_Key.space	Key.space	n/a
513.652	0.06	1027304	keystroke_b	b	n/a
513.861	0.105	1027722	keystroke_r	r	n/a
514.087	0.105	1028174	keystroke_i	i	n/a
514.147	0.119	1028294	keystroke_e	e	n/a
514.4165	0.12	1028833	keystroke_f	f	n/a
514.6565	0.105	1029313	keystroke_s	s	n/a
514.8065	0.09	1029613	keystroke_Key.space	Key.space	n/a
515.3015	0.135	1030603	keystroke_c	c	n/a
515.4965	0.12	1030993	keystroke_i	i	n/a
515.8265	0.09	1031653	keystroke_t	t	n/a
516.3515	0.075	1032703	keystroke_e	e	n/a
516.5615	0.06	1033123	keystroke_d	d	n/a
516.6665	0.105	1033333	keystroke_Key.space	Key.space	n/a
516.8315	0.15	1033663	keystroke_i	i	n/a
516.9515	0.09	1033903	keystroke_n	n	n/a
517.1465	0.09	1034293	keystroke_t	t	n/a
517.3265	0.105	1034653	keystroke_l	l	n/a
517.5365	0.09	1035073	keystroke_Key.enter	Key.enter	n/a
517.633	5.6205	1035266	prompt	n/a	overseas officers screen tony\n
518.2115	0.12	1036423	keystroke_o	o	n/a
518.3465	0.075	1036693	keystroke_v	v	n/a
518.4515	0.135	1036903	keystroke_e	e	n/a
518.5565	0.075	1037113	keystroke_r	r	n/a
518.7065	0.105	1037413	keystroke_s	s	n/a
518.8565	0.105	1037713	keystroke_e	e	n/a
519.0215	0.165	1038043	keystroke_a	a	n/a
519.0965	0.135	1038193	keystroke_s	s	n/a
519.2165	0.09	1038433	keystroke_Key.space	Key.space	n/a
519.4415	0.135	1038883	keystroke_o	o	n/a
519.5615	0.06	1039123	keystroke_f	f	n/a
519.7265	0.075	1039453	keystroke_f	f	n/a
519.8165	0.09	1039633	keystroke_i	i	n/a
519.9515	0.12	1039903	keystroke_c	c	n/a
520.2215	0.12	1040443	keystroke_e	e	n/a
520.3715	0.045	1040743	keystroke_r	r	n/a
520.5215	0.12	1041043	keystroke_s	s	n/a
520.6415	0.09	1041283	keystroke_Key.space	Key.space	n/a
520.7915	0.09	1041583	keystroke_s	s	n/a
520.9415	0.09	1041883	keystroke_e	e	n/a
521.2415	0.09	1042483	keystroke_Key.backspace	Key.backspace	n/a
521.3165	0.105	1042633	keystroke_c	c	n/a
521.5265	0.105	1043053	keystroke_r	r	n/a
521.6165	0.075	1043233	keystroke_e	e	n/a
521.7815	0.105	1043563	keystroke_e	e	n/a
521.9315	0.105	1043863	keystroke_n	n	n/a
522.2615	0.09	1044523	keystroke_Key.space	Key.space	n/a
522.457	0.1195	1044914	keystroke_t	t	n/a
522.5615	0.09	1045123	keystroke_o	o	n/a
522.7115	0.09	1045423	keystroke_n	n	n/a
522.921	0.105	1045842	keystroke_y	y	n/a
523.146	0.105	1046292	keystroke_Key.enter	Key.enter	n/a
523.259	7.1345	1046518	prompt	n/a	stops salvation rally torture\n
523.807	0.105	1047614	keystroke_s	s	n/a
524.061	0.06	1048122	keystroke_t	t	n/a
524.106	0.21	1048212	keystroke_o	o	n/a
524.227	0.119	1048454	keystroke_p	p	n/a
524.361	0.106	1048722	keystroke_s	s	n/a
524.496	0.09	1048992	keystroke_Key.space	Key.space	n/a
524.856	0.121	1049712	keystroke_s	s	n/a
525.052	0.134	1050104	keystroke_a	a	n/a
525.306	0.06	1050612	keystroke_l	l	n/a
525.861	0.09	1051722	keystroke_v	v	n/a
525.996	0.106	1051992	keystroke_a	a	n/a
526.236	0.075	1052472	keystroke_t	t	n/a
526.281	0.24	1052562	keystroke_i	i	n/a
526.341	0.15	1052682	keystroke_o	o	n/a
526.416	0.135	1052832	keystroke_n	n	n/a
526.971	0.075	1053942	keystroke_Key.space	Key.space	n/a
527.286	0.045	1054572	keystroke_r	r	n/a
527.466	0.06	1054932	keystroke_a	a	n/a
527.527	0.044	1055054	keystroke_l	l	n/a
527.662	0.104	1055324	keystroke_l	l	n/a
527.782	0.12	1055564	keystroke_y	y	n/a
527.916	0.105	1055832	keystroke_Key.space	Key.space	n/a
528.231	0.09	1056462	keystroke_t	t	n/a
528.351	0.09	1056702	keystroke_o	o	n/a
528.591	0.105	1057182	keystroke_r	r	n/a
528.951	0.105	1057902	keystroke_t	t	n/a
529.146	0.09	1058292	keystroke_u	u	n/a
529.206	0.12	1058412	keystroke_e	e	n/a
529.5065	0.09	1059013	keystroke_Key.backspace	Key.backspace	n/a
529.6265	0.135	1059253	keystroke_r	r	n/a
529.7165	0.15	1059433	keystroke_e	e	n/a
530.2715	0.12	1060543	keystroke_Key.enter	Key.enter	n/a
530.399	10.1045	1060798	prompt	n/a	algorithms source commodity briefing\n
531.0515	0.12	1062103	keystroke_a	a	n/a
531.1865	0.105	1062373	keystroke_l	l	n/a
531.6365	0.12	1063273	keystroke_g	g	n/a
531.8165	0.12	1063633	keystroke_o	o	n/a
532.1165	0.105	1064233	keystroke_t	t	n/a
532.6715	0.09	1065343	keystroke_Key.backspace	Key.backspace	n/a
532.8965	0.105	1065793	keystroke_r	r	n/a
533.4365	0.105	1066873	keystroke_i	i	n/a
533.6465	0.105	1067293	keystroke_t	t	n/a
534.2165	0.09	1068433	keystroke_h	h	n/a
534.4415	0.09	1068883	keystroke_m	m	n/a
534.5165	0.12	1069033	keystroke_s	s	n/a
534.6815	0.135	1069363	keystroke_Key.space	Key.space	n/a
534.8915	0.075	1069783	keystroke_s	s	n/a
535.0265	0.105	1070053	keystroke_o	o	n/a
535.1765	0.105	1070353	keystroke_u	u	n/a
535.3115	0.09	1070623	keystroke_r	r	n/a
535.5665	0.075	1071133	keystroke_c	c	n/a
535.7615	0.09	1071523	keystroke_e	e	n/a
535.8815	0.12	1071763	keystroke_Key.space	Key.space	n/a
536.5265	0.12	1073053	keystroke_c	c	n/a
536.6015	0.135	1073203	keystroke_o	o	n/a
536.7215	0.045	1073443	keystroke_m	m	n/a
536.8415	0.0905	1073683	keystroke_m	m	n/a
537.366	0.105	1074732	keystroke_o	o	n/a
537.577	0.134	1075154	keystroke_d	d	n/a
537.816	0.105	1075632	keystroke_i	i	n/a
538.041	0.076	1076082	keystroke_t	t	n/a
538.266	0.075	1076532	keystroke_y	y	n/a
538.356	0.105	1076712	keystroke_Key.space	Key.space	n/a
538.611	0.105	1077222	keystroke_b	b	n/a
538.836	0.06	1077672	keystroke_r	r	n/a
539.166	0.105	1078332	keystroke_i	i	n/a
539.256	0.105	1078512	keystroke_e	e	n/a
539.391	0.0755	1078782	keystroke_f	f	n/a
539.436	0.195	1078872	keystroke_i	i	n/a
539.541	0.105	1079082	keystroke_n	n	n/a
539.676	0.12	1079352	keystroke_g	g	n/a
540.381	0.12	1080762	keystroke_Key.enter	Key.enter	n/a
540.508	14.186	1081016	prompt	n/a	harvey improvements smell brunei\n
541.0715	0.09	1082143	keystroke_h	h	n/a
541.1315	0.135	1082263	keystroke_a	a	n/a
541.2215	0.105	1082443	keystroke_v	v	n/a
541.3865	0.15	1082773	keystroke_e	e	n/a
542.2115	0.045	1084423	keystroke_Key.backspace	Key.backspace	n/a
542.3465	0.075	1084693	keystroke_Key.backspace	Key.backspace	n/a
542.8415	0.075	1085683	keystroke_r	r	n/a
543.0365	0.09	1086073	keystroke_v	v	n/a
543.1715	0.12	1086343	keystroke_e	e	n/a
543.3815	0.105	1086763	keystroke_y	y	n/a
543.5015	0.105	1087003	keystroke_Key.space	Key.space	n/a
543.6365	0.195	1087273	keystroke_i	i	n/a
