onset	duration	sample	value	key	prompt_text
0.02	0.1355	40	keystroke	Key.enter	n/a
0.221	18.887	442	prompt	n/a	the quick brown fox jumps over a lazy dog\n
1.911	0.1205	3822	keystroke	t	n/a
2.0455	0.121	4091	keystroke	h	n/a
2.1805	0.1055	4361	keystroke	e	n/a
2.3305	0.105	4661	keystroke	Key.space	n/a
3.4265	0.0895	6853	keystroke	q	n/a
3.636	0.1055	7272	keystroke	u	n/a
3.8615	0.119	7723	keystroke	i	n/a
4.0415	0.135	8083	keystroke	c	n/a
4.2515	0.12	8503	keystroke	k	n/a
4.506	0.12	9012	keystroke	Key.space	n/a
4.956	0.09	9912	keystroke	b	n/a
5.6165	0.1505	11233	keystroke	r	n/a
5.811	0.135	11622	keystroke	o	n/a
5.931	0.1205	11862	keystroke	w	n/a
6.0965	0.105	12193	keystroke	n	n/a
6.3515	0.09	12703	keystroke	Key.space	n/a
8.0795	0.1495	16159	keystroke	f	n/a
8.3045	0.135	16609	keystroke	o	n/a
8.5895	0.1355	17179	keystroke	x	n/a
8.8145	0.12	17629	keystroke	Key.space	n/a
9.1005	0.12	18201	keystroke	j	n/a
9.8805	0.0595	19761	keystroke	u	n/a
10.18	0.1205	20360	keystroke	m	n/a
10.465	0.1195	20930	keystroke	p	n/a
10.6595	0.12	21319	keystroke	s	n/a
10.8245	0.121	21649	keystroke	Key.space	n/a
11.0205	0.1655	22041	keystroke	o	n/a
11.9195	0.12	23839	keystroke	v	n/a
12.2645	0.15	24529	keystroke	e	n/a
12.5645	0.15	25129	keystroke	r	n/a
12.8345	0.12	25669	keystroke	Key.space	n/a
13.0895	0.1355	26179	keystroke	a	n/a
13.2995	0.12	26599	keystroke	Key.space	n/a
13.795	0.1645	27590	keystroke	l	n/a
13.975	0.105	27950	keystroke	a	n/a
14.4395	0.045	28879	keystroke	z	n/a
14.605	0.21	29210	keystroke	y	n/a
14.785	0.105	29570	keystroke	Key.space	n/a
15.04	0.12	30080	keystroke	d	n/a
15.205	0.135	30410	keystroke	o	n/a
15.6255	0.1645	31251	keystroke	g	n/a
19.0175	0.0875	38035	keystroke	Key.enter	n/a
19.114	14.3485	38228	prompt	n/a	playstation puzzles duck rank\n
20.1555	0.1045	40311	keystroke	p	n/a
20.4405	0.15	40881	keystroke	l	n/a
20.6205	0.1195	41241	keystroke	a	n/a
20.83	0.1205	41660	keystroke	y	n/a
21.025	0.12	42050	keystroke	s	n/a
21.325	0.12	42650	keystroke	a	n/a
21.925	0.135	43850	keystroke	Key.backspace	n/a
22.135	0.1355	44270	keystroke	t	n/a
22.33	0.12	44660	keystroke	a	n/a
22.51	0.12	45020	keystroke	t	n/a
22.675	0.2545	45350	keystroke	i	n/a
22.78	0.1655	45560	keystroke	o	n/a
22.8705	0.135	45741	keystroke	n	n/a
23.3505	0.09	46701	keystroke	Key.space	n/a
23.6805	0.15	47361	keystroke	p	n/a
23.9805	0.105	47961	keystroke	u	n/a
25.375	0.105	50750	keystroke	s	n/a
25.9455	0.1195	51891	keystroke	Key.backspace	n/a
26.1705	0.135	52341	keystroke	z	n/a
26.4105	0.105	52821	keystroke	z	n/a
27.1605	0.15	54321	keystroke	l	n/a
27.4005	0.09	54801	keystroke	e	n/a
27.9255	0.105	55851	keystroke	s	n/a
28.2555	0.12	56511	keystroke	Key.space	n/a
28.8405	0.105	57681	keystroke	d	n/a
29.515	0.135	59030	keystroke	u	n/a
29.725	0.105	59450	keystroke	c	n/a
30.145	0.12	60290	keystroke	i	n/a
31.2255	0.105	62451	keystroke	Key.backspace	n/a
31.6005	0.12	63201	keystroke	k	n/a
31.8705	0.12	63741	keystroke	Key.space	n/a
32.1255	0.225	64251	keystroke	r	n/a
32.3055	0.105	64611	keystroke	a	n/a
32.3805	0.105	64761	keystroke	n	n/a
32.6505	0.12	65301	keystroke	k	n/a
33.34	0.12	66680	keystroke	Key.enter	n/a
33.4695	12.4875	66939	prompt	n/a	luther switching warehouse officially\n
34.63	0.135	69260	keystroke	l	n/a
34.975	0.12	69950	keystroke	u	n/a
35.26	0.15	70520	keystroke	t	n/a
35.455	0.195	70910	keystroke	h	n/a
35.71	0.21	71420	keystroke	e	n/a
35.86	0.1355	71720	keystroke	r	n/a
36.6695	0.105	73339	keystroke	Key.space	n/a
36.9095	0.135	73819	keystroke	s	n/a
37.2245	0.12	74449	keystroke	w	n/a
37.4345	0.136	74869	keystroke	i	n/a
37.66	0.135	75320	keystroke	t	n/a
38.23	0.0905	76460	keystroke	c	n/a
38.38	0.1355	76760	keystroke	h	n/a
38.575	0.195	77150	keystroke	i	n/a
38.7255	0.195	77451	keystroke	n	n/a
38.95	0.15	77900	keystroke	g	n/a
39.46	0.1055	78920	keystroke	Key.space	n/a
40.06	0.15	80120	keystroke	w	n/a
40.27	0.165	80540	keystroke	a	n/a
40.45	0.18	80900	keystroke	r	n/a
40.7505	0.09	81501	keystroke	e	n/a
41.1705	0.135	82341	keystroke	h	n/a
41.3655	0.21	82731	keystroke	o	n/a
41.5305	0.225	83061	keystroke	u	n/a
41.7705	0.105	83541	keystroke	s	n/a
42.0555	0.105	84111	keystroke	e	n/a
42.3855	0.1195	84771	keystroke	Key.space	n/a
42.6255	0.15	85251	keystroke	o	n/a
43.1205	0.105	86241	keystroke	f	n/a
43.3305	0.09	86661	keystroke	f	n/a
43.4805	0.135	86961	keystroke	i	n/a
43.6905	0.1195	87381	keystroke	c	n/a
43.855	0.1205	87710	keystroke	i	n/a
44.185	0.1355	88370	keystroke	a	n/a
44.395	0.09	88790	keystroke	l	n/a
44.5755	0.1045	89151	keystroke	l	n/a
44.9505	0.12	89901	keystroke	y	n/a
45.835	0.1205	91670	keystroke	Key.enter	n/a
45.962	9.97	91924	prompt	n/a	company climate mail samples\n
47.005	0.1205	94010	keystroke	c	n/a
47.2755	0.1345	94551	keystroke	o	n/a
47.59	0.1205	95180	keystroke	m	n/a
47.9345	0.106	95869	keystroke	p	n/a
48.1595	0.15	96319	keystroke	a	n/a
48.2955	0.105	96591	keystroke	n	n/a
48.7455	0.18	97491	keystroke	y	n/a
48.955	0.0905	97910	keystroke	Key.space	n/a
49.39	0.135	98780	keystroke	c	n/a
49.5715	0.134	99143	keystroke	l	n/a
49.8405	0.105	99681	keystroke	i	n/a
50.0805	0.165	100161	keystroke	m	n/a
50.2905	0.12	100581	keystroke	a	n/a
50.6055	0.12	101211	keystroke	t	n/a
50.8305	0.105	101661	keystroke	e	n/a
51.445	0.06	102890	keystroke	Key.space	n/a
51.76	0.1355	103520	keystroke	m	n/a
51.97	0.106	103940	keystroke	a	n/a
52.3155	0.0895	104631	keystroke	i	n/a
52.7945	0.1355	105589	keystroke	l	n/a
53.29	0.1055	106580	keystroke	Key.space	n/a
53.6505	0.1195	107301	keystroke	s	n/a
53.951	0.089	107902	keystroke	a	n/a
54.1905	0.09	108381	keystroke	m	n/a
54.5955	0.105	109191	keystroke	p	n/a
55.0155	0.135	110031	keystroke	l	n/a
55.165	0.136	110330	keystroke	e	n/a
55.33	0.1355	110660	keystroke	s	n/a
55.81	0.1205	111620	keystroke	Key.enter	n/a
55.9365	12.4155	111873	prompt	n/a	picked rebecca proper debug\n
56.9345	0.106	113869	keystroke	p	n/a
57.1155	0.105	114231	keystroke	i	n/a
57.3105	0.1195	114621	keystroke	c	n/a
57.505	0.105	115010	keystroke	k	n/a
57.7605	0.0745	115521	keystroke	e	n/a
58.076	0.104	116152	keystroke	d	n/a
58.3455	0.0895	116691	keystroke	Key.space	n/a
58.8405	0.1645	117681	keystroke	r	n/a
59.035	0.12	118070	keystroke	e	n/a
60.3405	0.105	120681	keystroke	b	n/a
60.626	0.0895	121252	keystroke	e	n/a
61.2105	0.09	122421	keystroke	c	n/a
61.3905	0.075	122781	keystroke	c	n/a
61.7805	0.12	123561	keystroke	a	n/a
61.9745	0.135	123949	keystroke	Key.space	n/a
62.275	0.1655	124550	keystroke	p	n/a
62.695	0.105	125390	keystroke	r	n/a
62.965	0.1805	125930	keystroke	o	n/a
63.6095	0.136	127219	keystroke	p	n/a
64.4055	0.12	128811	keystroke	e	n/a
64.7955	0.15	129591	keystroke	r	n/a
65.11	0.15	130220	keystroke	Key.space	n/a
65.395	0.12	130790	keystroke	d	n/a
65.6955	0.0895	131391	keystroke	e	n/a
66.0705	0.1345	132141	keystroke	b	n/a
66.415	0.1195	132830	keystroke	u	n/a
66.8655	0.105	133731	keystroke	g	n/a
68.2445	0.105	136489	keystroke	Key.enter	n/a
68.355	13.8865	136710	prompt	n/a	modifications greater logos articles\n
70.5565	0.044	141113	keystroke	m	n/a
70.8095	0.091	141619	keystroke	o	n/a
70.9305	0.105	141861	keystroke	d	n/a
71.0505	0.09	142101	keystroke	i	n/a
71.6205	0.09	143241	keystroke	v	n/a
71.7855	0.12	143571	keystroke	i	n/a
72.6095	0.075	145219	keystroke	Key.backspace	n/a
72.7755	0.104	145551	keystroke	Key.backspace	n/a
73.0455	0.1345	146091	keystroke	f	n/a
73.2255	0.12	146451	keystroke	i	n/a
73.54	0.1055	147080	keystroke	c	n/a
73.8405	0.0895	147681	keystroke	a	n/a
74.1105	0.12	148221	keystroke	t	n/a
74.2455	0.195	148491	keystroke	i	n/a
74.3055	0.15	148611	keystroke	o	n/a
74.3805	0.15	148761	keystroke	n	n/a
74.5905	0.12	149181	keystroke	s	n/a
74.8455	0.105	149691	keystroke	Key.space	n/a
75.2955	0.15	150591	keystroke	g	n/a
75.7005	0.15	151401	keystroke	r	n/a
75.88	0.1955	151760	keystroke	e	n/a
76.091	0.1345	152182	keystroke	a	n/a
76.3005	0.105	152601	keystroke	t	n/a
76.84	0.1505	153680	keystroke	e	n/a
77.0505	0.1195	154101	keystroke	r	n/a
77.3955	0.15	154791	keystroke	Key.space	n/a
77.86	0.1355	155720	keystroke	l	n/a
78.16	0.106	156320	keystroke	o	n/a
78.28	0.0905	156560	keystroke	g	n/a
78.4005	0.1345	156801	keystroke	o	n/a
78.7455	0.1045	157491	keystroke	s	n/a
79.0305	0.134	158061	keystroke	Key.space	n/a
79.6305	0.135	159261	keystroke	a	n/a
79.8705	0.15	159741	keystroke	r	n/a
80.5155	0.12	161031	keystroke	t	n/a
80.6955	0.105	161391	keystroke	i	n/a
81.0405	0.12	162081	keystroke	c	n/a
81.31	0.12	162620	keystroke	l	n/a
81.505	0.105	163010	keystroke	e	n/a
81.775	0.12	163550	keystroke	s	n/a
82.105	0.135	164210	keystroke	Key.enter	n/a
82.2455	9.312	164491	prompt	n/a	conversion gale strong argued\n
83.2755	0.12	166551	keystroke	c	n/a
83.4255	0.075	166851	keystroke	o	n/a
83.471	0.1795	166942	keystroke	n	n/a
84.0705	0.045	168141	keystroke	v	n/a
84.416	0.0895	168832	keystroke	e	n/a
84.4605	0.15	168921	keystroke	r	n/a
85.0755	0.1045	170151	keystroke	s	n/a
85.225	0.2405	170450	keystroke	i	n/a
85.3755	0.1045	170751	keystroke	o	n/a
85.4355	0.135	170871	keystroke	n	n/a
85.8405	0.105	171681	keystroke	Key.space	n/a
86.2005	0.09	172401	keystroke	g	n/a
86.4255	0.12	172851	keystroke	a	n/a
86.6205	0.135	173241	keystroke	l	n/a
86.8155	0.09	173631	keystroke	e	n/a
86.9805	0.105	173961	keystroke	Key.space	n/a
87.2055	0.12	174411	keystroke	s	n/a
87.5205	0.12	175041	keystroke	t	n/a
87.8055	0.0605	175611	keystroke	r	n/a
88.3595	0.225	176719	keystroke	o	n/a
88.6005	0.179	177201	keystroke	n	n/a
88.8405	0.089	177681	keystroke	g	n/a
89.17	0.12	178340	keystroke	Key.space	n/a
89.545	0.135	179090	keystroke	a	n/a
89.785	0.1055	179570	keystroke	r	n/a
90.146	0.12	180292	keystroke	g	n/a
90.34	0.12	180680	keystroke	u	n/a
90.4755	0.1045	180951	keystroke	e	n/a
90.7755	0.1045	181551	keystroke	d	n/a
91.4055	0.149	182811	keystroke	Key.enter	n/a
91.565	8.482	183130	prompt	n/a	matters waves typing memphis\n
92.4555	0.12	184911	keystroke	m	n/a
92.6655	0.1195	185331	keystroke	a	n/a
92.95	0.06	185900	keystroke	t	n/a
93.1305	0.104	186261	keystroke	t	n/a
93.4595	0.195	186919	keystroke	e	n/a
93.6095	0.121	187219	keystroke	r	n/a
93.8795	0.121	187759	keystroke	s	n/a
94.1795	0.105	188359	keystroke	Key.space	n/a
94.4055	0.179	188811	keystroke	w	n/a
94.5395	0.136	189079	keystroke	a	n/a
95.0655	0.089	190131	keystroke	v	n/a
95.3805	0.12	190761	keystroke	e	n/a
95.5305	0.12	191061	keystroke	Key.space	n/a
96.0405	0.03	192081	keystroke	y	n/a
96.4905	0.0745	192981	keystroke	Key.backspace	n/a
96.6255	0.1045	193251	keystroke	t	n/a
96.7905	0.1195	193581	keystroke	y	n/a
97.0605	0.105	194121	keystroke	p	n/a
97.2855	0.18	194571	keystroke	i	n/a
97.4505	0.105	194901	keystroke	n	n/a
97.5405	0.135	195081	keystroke	g	n/a
97.8405	0.105	195681	keystroke	Key.space	n/a
98.3655	0.12	196731	keystroke	m	n/a
98.5305	0.06	197061	keystroke	e	n/a
98.6355	0.09	197271	keystroke	m	n/a
98.935	0.1055	197870	keystroke	p	n/a
99.1455	0.135	198291	keystroke	h	n/a
99.2655	0.165	198531	keystroke	i	n/a
99.4455	0.075	198891	keystroke	s	n/a
99.94	0.1055	199880	keystroke	Key.enter	n/a
100.0515	11.996	200103	prompt	n/a	vehicle equation requiring movements\n
101.26	0.06	202520	keystroke	v	n/a
101.545	0.105	203090	keystroke	e	n/a
101.7405	0.15	203481	keystroke	h	n/a
101.905	0.15	203810	keystroke	i	n/a
102.1755	0.1345	204351	keystroke	c	n/a
102.3405	0.1345	204681	keystroke	l	n/a
102.58	0.105	205160	keystroke	e	n/a
102.82	0.105	205640	keystroke	Key.space	n/a
103.2255	0.1195	206451	keystroke	e	n/a
103.8555	0.105	207711	keystroke	q	n/a
104.1555	0.12	208311	keystroke	u	n/a
104.3805	0.105	208761	keystroke	a	n/a
104.6655	0.045	209331	keystroke	t	n/a
104.7255	0.255	209451	keystroke	i	n/a
104.8155	0.15	209631	keystroke	o	n/a
104.9055	0.15	209811	keystroke	n	n/a
105.5655	0.135	211131	keystroke	Key.space	n/a
105.8805	0.165	211761	keystroke	r	n/a
106.1055	0.12	212211	keystroke	e	n/a
106.4355	0.105	212871	keystroke	q	n/a
106.5855	0.1195	213171	keystroke	u	n/a
106.855	0.1205	213710	keystroke	i	n/a
106.9905	0.09	213981	keystroke	r	n/a
107.1255	0.105	214251	keystroke	i	n/a
107.2155	0.15	214431	keystroke	n	n/a
107.6505	0.0895	215301	keystroke	g	n/a
108.0405	0.15	216081	keystroke	Key.space	n/a
108.5345	0.106	217069	keystroke	m	n/a
108.821	0.0895	217642	keystroke	o	n/a
109.015	0.06	218030	keystroke	v	n/a
109.3605	0.105	218721	keystroke	e	n/a
109.5705	0.105	219141	keystroke	m	n/a
109.6905	0.09	219381	keystroke	e	n/a
109.796	0.1045	219592	keystroke	n	n/a
109.9605	0.105	219921	keystroke	t	n/a
110.2755	0.1045	220551	keystroke	s	n/a
111.8955	0.15	223791	keystroke	Key.enter	n/a
112.0505	7.122	224101	prompt	n/a	bacon what crude trial\n
113.261	0.1195	226522	keystroke	b	n/a
113.5605	0.09	227121	keystroke	a	n/a
113.8755	0.105	227751	keystroke	c	n/a
114.0105	0.18	228021	keystroke	o	n/a
114.1155	0.15	228231	keystroke	n	n/a
114.5655	0.075	229131	keystroke	Key.space	n/a
114.85	0.1355	229700	keystroke	w	n/a
115.0155	0.1645	230031	keystroke	h	n/a
115.1205	0.12	230241	keystroke	a	n/a
115.2695	0.1055	230539	keystroke	t	n/a
115.435	0.1055	230870	keystroke	Key.space	n/a
116.036	0.1195	232072	keystroke	c	n/a
116.4855	0.135	232971	keystroke	r	n/a
116.696	0.1045	233392	keystroke	u	n/a
116.9205	0.12	233841	keystroke	d	n/a
117.1755	0.09	234351	keystroke	e	n/a
117.4005	0.12	234801	keystroke	Key.space	n/a
117.761	0.134	235522	keystroke	t	n/a
118.0905	0.06	236181	keystroke	r	n/a
118.2705	0.1505	236541	keystroke	i	n/a
118.4955	0.0755	236991	keystroke	a	n/a
118.6905	0.165	237381	keystroke	l	n/a
119.0805	0.09	238161	keystroke	Key.enter	n/a
119.177	11.126	238354	prompt	n/a	tight holy constitutes carbon\n
120.175	0.165	240350	keystroke	t	n/a
120.4905	0.1645	240981	keystroke	i	n/a
120.896	0.15	241792	keystroke	g	n/a
121.211	0.119	242422	keystroke	h	n/a
121.555	0.166	243110	keystroke	t	n/a
121.9155	0.1195	243831	keystroke	Key.space	n/a
122.261	0.119	244522	keystroke	h	n/a
122.455	0.105	244910	keystroke	o	n/a
122.695	0.1205	245390	keystroke	l	n/a
123.1005	0.15	246201	keystroke	y	n/a
123.1905	0.135	246381	keystroke	Key.space	n/a
123.566	0.1195	247132	keystroke	c	n/a
123.7005	0.15	247401	keystroke	o	n/a
123.8655	0.135	247731	keystroke	n	n/a
124.361	0.0435	248722	keystroke	s	n/a
124.646	0.12	249292	keystroke	t	n/a
124.796	0.1495	249592	keystroke	i	n/a
125.2905	0.105	250581	keystroke	t	n/a
125.5605	0.12	251121	keystroke	u	n/a
126.041	0.1345	252082	keystroke	t	n/a
126.3855	0.06	252771	keystroke	e	n/a
126.8055	0.12	253611	keystroke	s	n/a
127.3305	0.105	254661	keystroke	Key.space	n/a
127.811	0.1035	255622	keystroke	c	n/a
128.1555	0.135	256311	keystroke	a	n/a
128.2605	0.135	256521	keystroke	r	n/a
129.175	0.0905	258350	keystroke	b	n/a
129.461	0.1495	258922	keystroke	o	n/a
129.6855	0.15	259371	keystroke	n	n/a
130.1355	0.1645	260271	keystroke	Key.enter	n/a
130.308	8.3485	260616	prompt	n/a	clean http wind virgin\n
131.2005	0.1205	262401	keystroke	c	n/a
131.4705	0.1495	262941	keystroke	l	n/a
131.5755	0.1655	263151	keystroke	e	n/a
131.725	0.1205	263450	keystroke	a	n/a
131.905	0.091	263810	keystroke	n	n/a
132.1295	0.091	264259	keystroke	Key.space	n/a
132.4755	0.12	264951	keystroke	t	n/a
133.7045	0.1205	267409	keystroke	Key.backspace	n/a
134.366	0.1345	268732	keystroke	h	n/a
134.6055	0.06	269211	keystroke	t	n/a
134.7255	0.1205	269451	keystroke	t	n/a
134.9055	0.135	269811	keystroke	p	n/a
135.4305	0.12	270861	keystroke	Key.space	n/a
135.6555	0.12	271311	keystroke	w	n/a
135.7605	0.135	271521	keystroke	i	n/a
135.8505	0.135	271701	keystroke	n	n/a
136.0455	0.135	272091	keystroke	d	n/a
136.2255	0.09	272451	keystroke	Key.space	n/a
136.7655	0.12	273531	keystroke	v	n/a
137.0055	0.12	274011	keystroke	i	n/a
137.2755	0.09	274551	keystroke	r	n/a
137.5905	0.135	275181	keystroke	g	n/a
137.8005	0.15	275601	keystroke	i	n/a
137.921	0.1195	275842	keystroke	n	n/a
138.5205	0.135	277041	keystroke	Key.enter	n/a
138.6605	8.8765	277321	prompt	n/a	integrated prize muze updates\n
139.3905	0.21	278781	keystroke	i	n/a
139.5255	0.1955	279051	keystroke	n	n/a
139.7505	0.12	279501	keystroke	t	n/a
140.0355	0.105	280071	keystroke	e	n/a
140.3355	0.03	280671	keystroke	g	n/a
140.605	0.18	281210	keystroke	r	n/a
140.755	0.1355	281510	keystroke	a	n/a
140.9655	0.15	281931	keystroke	t	n/a
141.22	0.105	282440	keystroke	e	n/a
141.506	0.105	283012	keystroke	d	n/a
141.6855	0.075	283371	keystroke	Key.space	n/a
141.85	0.121	283700	keystroke	p	n/a
142.195	0.135	284390	keystroke	r	n/a
142.345	0.106	284690	keystroke	i	n/a
142.6	0.135	285200	keystroke	z	n/a
142.93	0.1355	285860	keystroke	e	n/a
143.14	0.09	286280	keystroke	Key.space	n/a
143.5305	0.09	287061	keystroke	m	n/a
143.8755	0.12	287751	keystroke	u	n/a
144.1155	0.12	288231	keystroke	z	n/a
144.4305	0.12	288861	keystroke	e	n/a
144.6705	0.09	289341	keystroke	Key.space	n/a
145.495	0.1205	290990	keystroke	u	n/a
145.6605	0.1195	291321	keystroke	p	n/a
145.975	0.1205	291950	keystroke	d	n/a
146.2455	0.12	292491	keystroke	a	n/a
146.4405	0.165	292881	keystroke	t	n/a
146.6505	0.105	293301	keystroke	e	n/a
146.7705	0.135	293541	keystroke	s	n/a
147.3855	0.15	294771	keystroke	Key.enter	n/a
147.5415	9.475	295083	prompt	n/a	pray compiled choices father\n
148.465	0.135	296930	keystroke	p	n/a
148.75	0.18	297500	keystroke	r	n/a
148.9155	0.1205	297831	keystroke	a	n/a
149.08	0.12	298160	keystroke	y	n/a
149.59	0.105	299180	keystroke	Key.space	n/a
150.0105	0.1195	300021	keystroke	c	n/a
150.175	0.105	300350	keystroke	o	n/a
150.475	0.1355	300950	keystroke	m	n/a
150.88	0.135	301760	keystroke	p	n/a
151.3605	0.1045	302721	keystroke	i	n/a
151.6905	0.1645	303381	keystroke	l	n/a
151.8405	0.045	303681	keystroke	e	n/a
152.1855	0.1505	304371	keystroke	d	n/a
152.4555	0.09	304911	keystroke	Key.space	n/a
153.1155	0.15	306231	keystroke	c	n/a
153.2955	0.1355	306591	keystroke	h	n/a
153.4605	0.15	306921	keystroke	o	n/a
153.8355	0.225	307671	keystroke	i	n/a
154.0455	0.135	308091	keystroke	c	n/a
154.405	0.12	308810	keystroke	e	n/a
154.6755	0.105	309351	keystroke	s	n/a
154.9155	0.12	309831	keystroke	Key.space	n/a
155.2755	0.12	310551	keystroke	f	n/a
155.6505	0.1045	311301	keystroke	a	n/a
155.9355	0.0895	311871	keystroke	t	n/a
156.1	0.09	312200	keystroke	h	n/a
156.2345	0.1505	312469	keystroke	e	n/a
156.3105	0.164	312621	keystroke	r	n/a
156.8795	0.135	313759	keystroke	Key.enter	n/a
157.021	11.201	314042	prompt	n/a	villas feat austin voting\n
157.9905	0.1205	315981	keystroke	v	n/a
158.1855	0.105	316371	keystroke	i	n/a
158.5595	0.061	317119	keystroke	l	n/a
158.6955	0.12	317391	keystroke	l	n/a
158.9045	0.106	317809	keystroke	a	n/a
159.19	0.1055	318380	keystroke	s	n/a
159.43	0.0745	318860	keystroke	Key.space	n/a
159.8205	0.104	319641	keystroke	r	n/a
160.1795	0.135	320359	keystroke	e	n/a
160.6895	0.0605	321379	keystroke	Key.backspace	n/a
160.8245	0.0755	321649	keystroke	Key.backspace	n/a
161.6505	0.135	323301	keystroke	f	n/a
161.921	0.1335	323842	keystroke	e	n/a
162.145	0.1055	324290	keystroke	a	n/a
162.415	0.0905	324830	keystroke	t	n/a
163.1655	0.12	326331	keystroke	Key.space	n/a
163.4505	0.104	326901	keystroke	a	n/a
163.6605	0.1205	327321	keystroke	u	n/a
163.8555	0.1055	327711	keystroke	s	n/a
164.6955	0.12	329391	keystroke	t	n/a
164.906	0.2395	329812	keystroke	i	n/a
165.1005	0.12	330201	keystroke	n	n/a
165.4455	0.06	330891	keystroke	Key.space	n/a
166.4355	0.135	332871	keystroke	v	n/a
166.7205	0.12	333441	keystroke	o	n/a
167.081	0.134	334162	keystroke	t	n/a
167.2305	0.1495	334461	keystroke	i	n/a
167.3205	0.1795	334641	keystroke	n	n/a
167.455	0.075	334910	keystroke	g	n/a
168.1	0.1205	336200	keystroke	Key.enter	n/a
168.226	9.491	336452	prompt	n/a	norm foot resulting terminals\n
169.3455	0.1795	338691	keystroke	n	n/a
169.54	0.046	339080	keystroke	o	n/a
169.6	0.105	339200	keystroke	r	n/a
169.765	0.1055	339530	keystroke	m	n/a
170.0655	0.075	340131	keystroke	Key.space	n/a
170.4105	0.1195	340821	keystroke	f	n/a
170.65	0.075	341300	keystroke	o	n/a
170.8	0.12	341600	keystroke	o	n/a
171.205	0.1355	342410	keystroke	t	n/a
171.43	0.12	342860	keystroke	Key.space	n/a
171.82	0.1505	343640	keystroke	r	n/a
172.0605	0.1055	344121	keystroke	e	n/a
172.3155	0.135	344631	keystroke	s	n/a
172.4955	0.075	344991	keystroke	u	n/a
172.825	0.165	345650	keystroke	l	n/a
173.05	0.1205	346100	keystroke	t	n/a
173.2455	0.1955	346491	keystroke	i	n/a
173.3955	0.195	346791	keystroke	n	n/a
174.3405	0.12	348681	keystroke	g	n/a
174.85	0.1205	349700	keystroke	Key.space	n/a
175.1955	0.09	350391	keystroke	t	n/a
175.4805	0.18	350961	keystroke	e	n/a
175.6305	0.12	351261	keystroke	r	n/a
175.8255	0.12	351651	keystroke	m	n/a
176.1555	0.165	352311	keystroke	i	n/a
176.2755	0.15	352551	keystroke	n	n/a
176.4545	0.106	352909	keystroke	a	n/a
176.6205	0.1345	353241	keystroke	l	n/a
176.7395	0.1205	353479	keystroke	s	n/a
177.5655	0.15	355131	keystroke	Key.enter	n/a
177.7215	13.825	355443	prompt	n/a	poly sheffield regulations garcia\n
178.5705	0.12	357141	keystroke	p	n/a
178.7655	0.12	357531	keystroke	o	n/a
179.005	0.1205	358010	keystroke	l	n/a
179.3505	0.18	358701	keystroke	y	n/a
179.4705	0.165	358941	keystroke	Key.space	n/a
180.3255	0.12	360651	keystroke	s	n/a
180.4905	0.12	360981	keystroke	h	n/a
180.7155	0.09	361431	keystroke	e	n/a
181.615	0.09	363230	keystroke	f	n/a
181.781	0.134	363562	keystroke	f	n/a
181.93	0.12	363860	keystroke	i	n/a
182.0655	0.09	364131	keystroke	e	n/a
182.2155	0.135	364431	keystroke	l	n/a
182.3955	0.105	364791	keystroke	d	n/a
183.0405	0.1345	366081	keystroke	Key.space	n/a
183.3105	0.1645	366621	keystroke	r	n/a
183.4455	0.1345	366891	keystroke	e	n/a
183.73	0.135	367460	keystroke	g	n/a
183.9405	0.1045	367881	keystroke	u	n/a
184.1205	0.1195	368241	keystroke	a	n/a
184.3	0.135	368600	keystroke	l	n/a
184.9305	0.0745	369861	keystroke	Key.backspace	n/a
185.0655	0.0895	370131	keystroke	Key.backspace	n/a
185.3655	0.2395	370731	keystroke	l	n/a
185.47	0.1205	370940	keystroke	a	n/a
185.65	0.1055	371300	keystroke	t	n/a
185.8605	0.15	371721	keystroke	i	n/a
185.875	0.15	371750	keystroke	o	n/a
185.9655	0.15	371931	keystroke	n	n/a
186.25	0.1355	372500	keystroke	s	n/a
187.0305	0.105	374061	keystroke	Key.space	n/a
187.556	0.1345	375112	keystroke	g	n/a
188.2155	0.12	376431	keystroke	a	n/a
188.425	0.0905	376850	keystroke	r	n/a
188.9055	0.1055	377811	keystroke	c	n/a
189.025	0.1355	378050	keystroke	i	n/a
189.2055	0.1045	378411	keystroke	a	n/a
191.4725	0.0725	382945	keystroke	Key.enter	n/a
191.551	11.0065	383102	prompt	n/a	speed teen angeles arctic\n
192.5955	0.12	385191	keystroke	s	n/a
192.745	0.105	385490	keystroke	p	n/a
192.895	0.075	385790	keystroke	e	n/a
193.03	0.1055	386060	keystroke	e	n/a
193.3	0.105	386600	keystroke	d	n/a
193.4655	0.09	386931	keystroke	Key.space	n/a
193.706	0.135	387412	keystroke	t	n/a
193.931	0.089	387862	keystroke	e	n/a
194.11	0.1055	388220	keystroke	e	n/a
194.23	0.105	388460	keystroke	n	n/a
194.5155	0.09	389031	keystroke	Key.space	n/a
194.9355	0.105	389871	keystroke	a	n/a
195.1305	0.135	390261	keystroke	n	n/a
196.0155	0.09	392031	keystroke	g	n/a
196.1655	0.105	392331	keystroke	e	n/a
196.3455	0.135	392691	keystroke	l	n/a
196.4055	0.105	392811	keystroke	e	n/a
196.7505	0.12	393501	keystroke	s	n/a
197.0205	0.105	394041	keystroke	Key.space	n/a
197.5905	0.12	395181	keystroke	a	n/a
197.8305	0.12	395661	keystroke	r	n/a
198.2805	0.12	396561	keystroke	c	n/a
198.6855	0.105	397371	keystroke	t	n/a
198.9255	0.1055	397851	keystroke	i	n/a
199.2405	0.135	398481	keystroke	c	n/a
200.1105	0.135	400221	keystroke	Key.space	n/a
201.2955	0.12	402591	keystroke	Key.backspace	n/a
202.4655	0.09	404931	keystroke	Key.enter	n/a
202.564	16.298	405128	prompt	n/a	journalists warranties warranty funk\n
208.107	0.043	416214	keystroke	j	n/a
208.27	0.195	416540	keystroke	o	n/a
208.3905	0.1795	416781	keystroke	u	n/a
208.541	0.135	417082	keystroke	r	n/a
208.796	0.1195	417592	keystroke	n	n/a
209.0205	0.135	418041	keystroke	a	n/a
209.2465	0.119	418493	keystroke	l	n/a
209.5155	0.15	419031	keystroke	i	n/a
209.6355	0.135	419271	keystroke	s	n/a
209.9205	0.075	419841	keystroke	t	n/a
210.356	0.0895	420712	keystroke	s	n/a
210.6405	0.1205	421281	keystroke	Key.space	n/a
211.091	0.179	422182	keystroke	w	n/a
211.241	0.15	422482	keystroke	a	n/a
211.406	0.1345	422812	keystroke	r	n/a
211.63	0.1655	423260	keystroke	r	n/a
211.7655	0.1205	423531	keystroke	a	n/a
211.916	0.135	423832	keystroke	n	n/a
212.141	0.104	424282	keystroke	t	n/a
212.801	0.165	425602	keystroke	i	n/a
213.04	0.105	426080	keystroke	e	n/a
213.3105	0.105	426621	keystroke	s	n/a
213.6555	0.105	427311	keystroke	Key.space	n/a
213.9555	0.165	427911	keystroke	w	n/a
214.0905	0.1505	428181	keystroke	a	n/a
214.316	0.0895	428632	keystroke	r	n/a
214.526	0.1495	429052	keystroke	r	n/a
214.6905	0.105	429381	keystroke	a	n/a
214.8705	0.105	429741	keystroke	n	n/a
215.6495	0.121	431299	keystroke	t	n/a
215.8905	0.12	431781	keystroke	y	n/a
216.1155	0.135	432231	keystroke	Key.space	n/a
216.3555	0.12	432711	keystroke	f	n/a
216.506	0.0895	433012	keystroke	u	n/a
216.7605	0.075	433521	keystroke	n	n/a
216.97	0.105	433940	keystroke	k	n/a
218.7255	0.1345	437451	keystroke	Key.enter	n/a
218.8675	11.8595	437735	prompt	n/a	hottest impose commissioners indication\n
219.79	0.105	439580	keystroke	h	n/a
220.045	0.15	440090	keystroke	o	n/a
220.345	0.12	440690	keystroke	t	n/a
220.525	0.1355	441050	keystroke	t	n/a
220.7655	0.1195	441531	keystroke	e	n/a
220.99	0.135	441980	keystroke	s	n/a
221.3805	0.15	442761	keystroke	t	n/a
221.8155	0.1345	443631	keystroke	Key.space	n/a
222.2055	0.12	444411	keystroke	i	n/a
222.475	0.1355	444950	keystroke	m	n/a
222.775	0.12	445550	keystroke	p	n/a
222.97	0.18	445940	keystroke	o	n/a
223.1355	0.1045	446271	keystroke	s	n/a
223.3905	0.1055	446781	keystroke	e	n/a
223.6905	0.1045	447381	keystroke	Key.space	n/a
224.35	0.15	448700	keystroke	c	n/a
224.515	0.0905	449030	keystroke	o	n/a
224.7995	0.226	449599	keystroke	m	n/a
225.4005	0.09	450801	keystroke	m	n/a
225.6845	0.121	451369	keystroke	i	n/a
225.7895	0.106	451579	keystroke	s	n/a
225.985	0.1055	451970	keystroke	s	n/a
226.2555	0.2695	452511	keystroke	i	n/a
226.4055	0.135	452811	keystroke	o	n/a
226.495	0.1655	452990	keystroke	n	n/a
227.155	0.225	454310	keystroke	e	n/a
227.3655	0.15	454731	keystroke	r	n/a
227.875	0.135	455750	keystroke	s	n/a
228.1905	0.0145	456381	keystroke	Key.space	n/a
228.34	0.1205	456680	keystroke	i	n/a
228.4155	0.1795	456831	keystroke	n	n/a
228.7	0.12	457400	keystroke	d	n/a
228.8655	0.119	457731	keystroke	i	n/a
229.1195	0.105	458239	keystroke	c	n/a
229.495	0.075	458990	keystroke	a	n/a
229.735	0.09	459470	keystroke	t	n/a
229.855	0.21	459710	keystroke	i	n/a
229.93	0.1505	459860	keystroke	o	n/a
230.005	0.1805	460010	keystroke	n	n/a
230.5905	0.135	461181	keystroke	Key.enter	n/a
230.731	8.7705	461462	prompt	n/a	shoes candy guinea stamp\n
231.73	0.1355	463460	keystroke	s	n/a
231.8945	0.151	463789	keystroke	h	n/a
232.0595	0.226	464119	keystroke	o	n/a
232.3295	0.09	464659	keystroke	e	n/a
232.5705	0.15	465141	keystroke	s	n/a
232.765	0.0895	465530	keystroke	Key.space	n/a
233.3495	0.15	466699	keystroke	c	n/a
233.7255	0.059	467451	keystroke	a	n/a
234.0855	0.075	468171	keystroke	n	n/a
234.3705	0.104	468741	keystroke	d	n/a
234.5205	0.149	469041	keystroke	y	n/a
234.6995	0.136	469399	keystroke	Key.space	n/a
235.3755	0.15	470751	keystroke	g	n/a
235.5845	0.106	471169	keystroke	u	n/a
235.8405	0.119	471681	keystroke	i	n/a
236.32	0.1205	472640	keystroke	n	n/a
236.47	0.1205	472940	keystroke	e	n/a
236.665	0.135	473330	keystroke	a	n/a
236.9505	0.12	473901	keystroke	Key.space	n/a
237.4755	0.119	474951	keystroke	s	n/a
237.7905	0.12	475581	keystroke	t	n/a
237.8945	0.1205	475789	keystroke	a	n/a
238.1055	0.089	476211	keystroke	m	n/a
238.435	0.135	476870	keystroke	p	n/a
239.3645	0.135	478729	keystroke	Key.enter	n/a
239.505	11.502	479010	prompt	n/a	gift german receptor association\n
240.5955	0.135	481191	keystroke	g	n/a
240.97	0.0155	481940	keystroke	i	n/a
241.1055	0.15	482211	keystroke	f	n/a
241.495	0.135	482990	keystroke	t	n/a
241.825	0.105	483650	keystroke	Key.space	n/a
242.5305	0.15	485061	keystroke	g	n/a
242.8605	0.18	485721	keystroke	e	n/a
242.9955	0.1645	485991	keystroke	r	n/a
243.2655	0.1045	486531	keystroke	m	n/a
243.445	0.1055	486890	keystroke	a	n/a
243.5805	0.0895	487161	keystroke	n	n/a
244.1795	0.135	488359	keystroke	Key.space	n/a
244.6305	0.18	489261	keystroke	r	n/a
244.975	0.0905	489950	keystroke	e	n/a
245.4405	0.12	490881	keystroke	c	n/a
245.7705	0.0895	491541	keystroke	e	n/a
245.965	0.1355	491930	keystroke	p	n/a
246.2055	0.12	492411	keystroke	t	n/a
246.445	0.1355	492890	keystroke	o	n/a
246.5955	0.045	493191	keystroke	r	n/a
247.1355	0.09	494271	keystroke	Key.space	n/a
247.5255	0.105	495051	keystroke	a	n/a
247.7955	0.0895	495591	keystroke	s	n/a
247.975	0.076	495950	keystroke	s	n/a
248.065	0.1045	496130	keystroke	o	n/a
248.3055	0.119	496611	keystroke	c	n/a
248.3955	0.135	496791	keystroke	i	n/a
248.636	0.0885	497272	keystroke	a	n/a
248.8745	0.166	497749	keystroke	i	n/a
248.9205	0.1345	497841	keystroke	o	n/a
249.4	0.09	498800	keystroke	Key.backspace	n/a
249.565	0.135	499130	keystroke	Key.backspace	n/a
249.865	0.105	499730	keystroke	t	n/a
250.015	0.2105	500030	keystroke	i	n/a
250.12	0.1205	500240	keystroke	o	n/a
250.18	0.1355	500360	keystroke	n	n/a
250.8845	0.12	501769	keystroke	Key.enter	n/a
251.011	16.3765	502022	prompt	n/a	herself stockings resolutions gonna\n
253.992	0.058	507984	keystroke	h	n/a
254.095	0.1805	508190	keystroke	e	n/a
254.29	0.15	508580	keystroke	r	n/a
254.6055	0.119	509211	keystroke	s	n/a
254.7855	0.089	509571	keystroke	e	n/a
254.935	0.105	509870	keystroke	l	n/a
255.07	0.12	510140	keystroke	f	n/a
255.265	0.105	510530	keystroke	Key.space	n/a
255.565	0.12	511130	keystroke	s	n/a
256.331	0.1345	512662	keystroke	t	n/a
256.4955	0.09	512991	keystroke	o	n/a
256.7805	0.135	513561	keystroke	c	n/a
256.9455	0.09	513891	keystroke	k	n/a
257.1405	0.12	514281	keystroke	i	n/a
257.2455	0.165	514491	keystroke	n	n/a
257.3355	0.15	514671	keystroke	g	n/a
257.6655	0.135	515331	keystroke	s	n/a
258.3995	0.135	516799	keystroke	Key.space	n/a
259.09	0.135	518180	keystroke	r	n/a
259.6155	0.135	519231	keystroke	e	n/a
259.9155	0.135	519831	keystroke	s	n/a
260.0805	0.09	520161	keystroke	o	n/a
260.3355	0.12	520671	keystroke	l	n/a
260.5905	0.105	521181	keystroke	u	n/a
260.86	0.0455	521720	keystroke	g	n/a
260.8755	0.06	521751	keystroke	t	n/a
260.9505	0.225	521901	keystroke	i	n/a
261.055	0.135	522110	keystroke	o	n/a
261.145	0.1055	522290	keystroke	n	n/a
261.7305	0.075	523461	keystroke	Key.backspace	n/a
261.985	0.075	523970	keystroke	Key.backspace	n/a
262.1805	0.0745	524361	keystroke	Key.backspace	n/a
262.36	0.075	524720	keystroke	Key.backspace	n/a
262.72	0.09	525440	keystroke	Key.backspace	n/a
263.0355	0.089	526071	keystroke	t	n/a
263.515	0.2855	527030	keystroke	i	n/a
263.6945	0.1505	527389	keystroke	o	n/a
263.7695	0.1505	527539	keystroke	n	n/a
264.07	0.15	528140	keystroke	s	n/a
264.31	0.12	528620	keystroke	Key.space	n/a
264.79	0.1645	529580	keystroke	g	n/a
265.2105	0.1045	530421	keystroke	o	n/a
265.465	0.06	530930	keystroke	n	n/a
265.6	0.09	531200	keystroke	n	n/a
265.885	0.135	531770	keystroke	a	n/a
267.2655	0.12	534531	keystroke	Key.enter	n/a
267.3915	18.6255	534783	prompt	n/a	allowed launch vegetarian appeal\n
269.17	0.1055	538340	keystroke	a	n/a
269.4705	0.06	538941	keystroke	l	n/a
269.5905	0.12	539181	keystroke	l	n/a
269.8305	0.1195	539661	keystroke	o	n/a
269.935	0.135	539870	keystroke	w	n/a
270.2055	0.09	540411	keystroke	e	n/a
270.4755	0.135	540951	keystroke	d	n/a
270.6555	0.135	541311	keystroke	Key.space	n/a
271.2255	0.165	542451	keystroke	l	n/a
271.4205	0.135	542841	keystroke	a	n/a
271.6155	0.105	543231	keystroke	u	n/a
271.87	0.12	543740	keystroke	n	n/a
272.095	0.12	544190	keystroke	c	n/a
272.26	0.105	544520	keystroke	h	n/a
280.5575	0.0735	561115	keystroke	Key.space	n/a
280.9455	0.12	561891	keystroke	v	n/a
281.321	0.1045	562642	keystroke	e	n/a
281.681	0.18	563362	keystroke	g	n/a
281.9805	0.1495	563961	keystroke	e	n/a
282.385	0.15	564770	keystroke	t	n/a
282.595	0.21	565190	keystroke	a	n/a
282.82	0.151	565640	keystroke	r	n/a
283.24	0.1505	566480	keystroke	i	n/a
283.4055	0.1505	566811	keystroke	a	n/a
283.5405	0.1055	567081	keystroke	n	n/a
283.961	0.1195	567922	keystroke	Key.space	n/a
284.4405	0.075	568881	keystroke	a	n/a
284.6055	0.06	569211	keystroke	p	n/a
284.7405	0.12	569481	keystroke	p	n/a
284.8905	0.15	569781	keystroke	e	n/a
285.0555	0.135	570111	keystroke	a	n/a
285.2355	0.1355	570471	keystroke	l	n/a
285.895	0.12	571790	keystroke	Key.enter	n/a
286.0215	11.261	572043	prompt	n/a	beth reducing demand trim\n
287.0655	0.12	574131	keystroke	b	n/a
287.3805	0.09	574761	keystroke	e	n/a
287.665	0.1055	575330	keystroke	t	n/a
287.8905	0.09	575781	keystroke	h	n/a
288.4905	0.1205	576981	keystroke	Key.space	n/a
288.8055	0.165	577611	keystroke	r	n/a
288.956	0.134	577912	keystroke	e	n/a
289.301	0.104	578602	keystroke	d	n/a
289.436	0.104	578872	keystroke	u	n/a
289.8105	0.18	579621	keystroke	c	n/a
289.9755	0.195	579951	keystroke	i	n/a
290.1855	0.165	580371	keystroke	n	n/a
290.3355	0.135	580671	keystroke	g	n/a
291.0855	0.105	582171	keystroke	Key.space	n/a
291.386	0.1345	582772	keystroke	d	n/a
291.6855	0.075	583371	keystroke	e	n/a
291.9255	0.165	583851	keystroke	m	n/a
292.2855	0.015	584571	keystroke	a	n/a
292.3155	0.0905	584631	keystroke	n	n/a
292.6155	0.12	585231	keystroke	d	n/a
293.126	0.09	586252	keystroke	Key.space	n/a
293.621	0.15	587242	keystroke	t	n/a
293.8905	0.1355	587781	keystroke	r	n/a
294.0705	0.12	588141	keystroke	i	n/a
294.3705	0.105	588741	keystroke	m	n/a
297.1925	0.088	594385	keystroke	Key.enter	n/a
297.2865	11.8305	594573	prompt	n/a	laboratory previously junction silence\n
298.451	0.2095	596902	keystroke	l	n/a
298.646	0.1345	597292	keystroke	a	n/a
298.9155	0.1355	597831	keystroke	b	n/a
299.096	0.1495	598192	keystroke	o	n/a
299.4105	0.0605	598821	keystroke	r	n/a
299.966	0.015	599932	keystroke	a	n/a
300.2655	0.12	600531	keystroke	t	n/a
300.4605	0.12	600921	keystroke	o	n/a
300.5355	0.1205	601071	keystroke	r	n/a
300.7605	0.0905	601521	keystroke	y	n/a
301.1055	0.12	602211	keystroke	Key.space	n/a
301.556	0.15	603112	keystroke	p	n/a
301.706	0.179	603412	keystroke	r	n/a
301.84	0.15	603680	keystroke	e	n/a
302.186	0.135	604372	keystroke	v	n/a
302.381	0.09	604762	keystroke	i	n/a
302.531	0.165	605062	keystroke	o	n/a
302.651	0.1795	605302	keystroke	u	n/a
302.8605	0.105	605721	keystroke	s	n/a
303.04	0.1055	606080	keystroke	l	n/a
303.326	0.135	606652	keystroke	y	n/a
303.5055	0.135	607011	keystroke	Key.space	n/a
303.926	0.105	607852	keystroke	j	n/a
304.181	0.1045	608362	keystroke	u	n/a
304.4505	0.075	608901	keystroke	n	n/a
304.601	0.1345	609202	keystroke	c	n/a
305.006	0.0895	610012	keystroke	t	n/a
305.0805	0.24	610161	keystroke	i	n/a
305.201	0.1205	610402	keystroke	o	n/a
305.2605	0.1505	610521	keystroke	n	n/a
305.876	0.105	611752	keystroke	Key.space	n/a
306.311	0.135	612622	keystroke	s	n/a
306.461	0.075	612922	keystroke	i	n/a
306.671	0.135	613342	keystroke	l	n/a
306.896	0.135	613792	keystroke	n	n/a
307.4355	0.105	614871	keystroke	Key.backspace	n/a
307.601	0.105	615202	keystroke	e	n/a
307.7955	0.1055	615591	keystroke	n	n/a
308.081	0.1045	616162	keystroke	c	n/a
308.3955	0.105	616791	keystroke	e	n/a
308.9955	0.12	617991	keystroke	Key.enter	n/a
309.12	13.917	618240	prompt	n/a	petersburg it manufacturing labeled\n
310.0905	0.135	620181	keystroke	p	n/a
310.2405	0.135	620481	keystroke	e	n/a
310.601	0.1345	621202	keystroke	t	n/a
310.856	0.165	621712	keystroke	e	n/a
310.9605	0.1345	621921	keystroke	r	n/a
311.261	0.135	622522	keystroke	s	n/a
312.055	0.076	624110	keystroke	b	n/a
312.356	0.12	624712	keystroke	u	n/a
312.581	0.105	625162	keystroke	r	n/a
312.865	0.105	625730	keystroke	g	n/a
313.39	0.12	626780	keystroke	Key.space	n/a
313.615	0.1505	627230	keystroke	i	n/a
313.7355	0.12	627471	keystroke	f	n/a
314.5305	0.1345	629061	keystroke	Key.backspace	n/a
314.8755	0.075	629751	keystroke	Key.backspace	n/a
315.5815	0.164	631163	keystroke	i	n/a
316.3605	0.1355	632721	keystroke	t	n/a
316.766	0.1195	633532	keystroke	Key.space	n/a
317.126	0.12	634252	keystroke	m	n/a
317.291	0.12	634582	keystroke	a	n/a
317.396	0.09	634792	keystroke	n	n/a
317.7105	0.0905	635421	keystroke	u	n/a
318.0855	0.1355	636171	keystroke	f	n/a
318.356	0.0745	636712	keystroke	a	n/a
318.701	0.1205	637402	keystroke	c	n/a
319.106	0.1195	638212	keystroke	t	n/a
319.3305	0.1205	638661	keystroke	u	n/a
319.4655	0.075	638931	keystroke	r	n/a
319.6005	0.12	639201	keystroke	i	n/a
319.7355	0.135	639471	keystroke	n	n/a
319.826	0.105	639652	keystroke	g	n/a
320.2155	0.1055	640431	keystroke	Key.space	n/a
320.8005	0.21	641601	keystroke	l	n/a
320.92	0.1055	641840	keystroke	a	n/a
321.521	0.1045	643042	keystroke	b	n/a
321.821	0.0895	643642	keystroke	e	n/a
322.0605	0.1355	644121	keystroke	l	n/a
322.1655	0.1055	644331	keystroke	e	n/a
322.4655	0.12	644931	keystroke	d	n/a
322.931	0.1045	645862	keystroke	Key.enter	n/a
323.0405	29.0975	646081	prompt	n/a	cheers molecules kansas shareholders\n
334.123	0.073	668246	keystroke	c	n/a
334.2565	0.1345	668513	keystroke	h	n/a
334.9165	0.105	669833	keystroke	e	n/a
335.1105	0.166	670221	keystroke	e	n/a
335.3215	0.1495	670643	keystroke	r	n/a
335.6515	0.1345	671303	keystroke	s	n/a
336.0715	0.12	672143	keystroke	Key.space	n/a
336.5065	0.134	673013	keystroke	m	n/a
336.836	0.0905	673672	keystroke	o	n/a
337.0915	0.1645	674183	keystroke	l	n/a
337.2715	0.0895	674543	keystroke	e	n/a
337.751	0.165	675502	keystroke	c	n/a
337.931	0.075	675862	keystroke	u	n/a
338.171	0.165	676342	keystroke	l	n/a
338.3215	0.12	676643	keystroke	e	n/a
339.4165	0.1195	678833	keystroke	s	n/a
339.656	0.075	679312	keystroke	Key.space	n/a
340.046	0.1655	680092	keystroke	k	n/a
340.361	0.0905	680722	keystroke	a	n/a
340.5265	0.1045	681053	keystroke	n	n/a
340.766	0.1355	681532	keystroke	s	n/a
341.0065	0.029	682013	keystroke	a	n/a
341.4565	0.165	682913	keystroke	s	n/a
341.7855	0.106	683571	keystroke	Key.space	n/a
342.176	0.1205	684352	keystroke	s	n/a
342.4165	0.135	684833	keystroke	h	n/a
342.686	0.15	685372	keystroke	a	n/a
342.8215	0.135	685643	keystroke	r	n/a
342.9565	0.1045	685913	keystroke	e	n/a
343.286	0.1055	686572	keystroke	h	n/a
343.4065	0.1195	686813	keystroke	o	n/a
343.677	0.149	687354	keystroke	l	n/a
343.796	0.12	687592	keystroke	d	n/a
344.1415	0.0905	688283	keystroke	e	n/a
344.247	0.1045	688494	keystroke	r	n/a
344.5015	0.1495	689003	keystroke	s	n/a
352.063	0.073	704126	keystroke	Key.enter	n/a
352.1455	13.058	704291	prompt	n/a	she's kennedy group mess\n
353.037	0.149	706074	keystroke	s	n/a
353.2165	0.1945	706433	keystroke	h	n/a
353.352	0.12	706704	keystroke	e	n/a
354.552	0.1645	709104	keystroke	'	n/a
354.8815	0.1495	709763	keystroke	s	n/a
355.2715	0.1045	710543	keystroke	Key.space	n/a
355.677	0.18	711354	keystroke	k	n/a
355.872	0.089	711744	keystroke	e	n/a
356.022	0.075	712044	keystroke	n	n/a
356.141	0.1055	712282	keystroke	e	n/a
356.861	0.075	713722	keystroke	Key.backspace	n/a
357.102	0.1195	714204	keystroke	n	n/a
357.237	0.105	714474	keystroke	e	n/a
357.536	0.15	715072	keystroke	d	n/a
357.761	0.181	715522	keystroke	y	n/a
357.9265	0.1345	715853	keystroke	Key.space	n/a
358.662	0.18	717324	keystroke	g	n/a
359.022	0.1645	718044	keystroke	r	n/a
359.1875	0.1635	718375	keystroke	o	n/a
359.291	0.18	718582	keystroke	u	n/a
359.456	0.1505	718912	keystroke	p	n/a
359.786	0.105	719572	keystroke	Key.space	n/a
360.117	0.135	720234	keystroke	m	n/a
360.281	0.1205	720562	keystroke	e	n/a
360.5215	0.1055	721043	keystroke	s	n/a
360.7165	0.075	721433	keystroke	s	n/a
365.0685	0.133	730137	keystroke	Key.enter	n/a
365.207	9.9715	730414	prompt	n/a	mineral female noise actively\n
366.0715	0.135	732143	keystroke	m	n/a
366.372	0.195	732744	keystroke	i	n/a
366.506	0.196	733012	keystroke	n	n/a
366.9415	0.2105	733883	keystroke	e	n/a
367.122	0.2395	734244	keystroke	r	n/a
367.602	0.15	735204	keystroke	a	n/a
367.797	0.134	735594	keystroke	l	n/a
367.961	0.136	735922	keystroke	Key.space	n/a
368.217	0.119	736434	keystroke	f	n/a
368.366	0.12	736732	keystroke	e	n/a
368.532	0.12	737064	keystroke	m	n/a
368.6975	0.1045	737395	keystroke	a	n/a
369.0865	0.15	738173	keystroke	l	n/a
369.252	0.1195	738504	keystroke	e	n/a
369.4615	0.0905	738923	keystroke	Key.space	n/a
369.777	0.1345	739554	keystroke	n	n/a
369.927	0.1945	739854	keystroke	o	n/a
370.077	0.1945	740154	keystroke	i	n/a
370.2865	0.0305	740573	keystroke	i	n/a
370.6315	0.12	741263	keystroke	s	n/a
371.0665	0.0755	742133	keystroke	Key.backspace	n/a
371.232	0.09	742464	keystroke	Key.backspace	n/a
371.337	0.105	742674	keystroke	s	n/a
371.592	0.12	743184	keystroke	e	n/a
371.831	0.091	743662	keystroke	Key.space	n/a
372.552	0.104	745104	keystroke	a	n/a
372.881	0.121	745762	keystroke	c	n/a
373.256	0.121	746512	keystroke	t	n/a
373.467	0.119	746934	keystroke	i	n/a
373.706	0.121	747412	keystroke	v	n/a
373.961	0.12	747922	keystroke	e	n/a
374.127	0.134	748254	keystroke	l	n/a
374.486	0.105	748972	keystroke	y	n/a
375.057	0.12	750114	keystroke	Key.enter	n/a
375.1825	11.7855	750365	prompt	n/a	aberdeen discounts dubai letter\n
375.957	0.075	751914	keystroke	a	n/a
376.542	0.06	753084	keystroke	b	n/a
376.827	0.1645	753654	keystroke	e	n/a
376.961	0.1205	753922	keystroke	r	n/a
377.3065	0.1055	754613	keystroke	d	n/a
377.562	0.1045	755124	keystroke	e	n/a
377.862	0.09	755724	keystroke	e	n/a
378.0865	0.1055	756173	keystroke	n	n/a
378.4015	0.09	756803	keystroke	Key.space	n/a
378.8515	0.1045	757703	keystroke	d	n/a
378.986	0.12	757972	keystroke	i	n/a
379.1215	0.0895	758243	keystroke	s	n/a
379.4215	0.105	758843	keystroke	c	n/a
379.511	0.15	759022	keystroke	o	n/a
379.602	0.12	759204	keystroke	u	n/a
379.886	0.136	759772	keystroke	n	n/a
380.022	0.075	760044	keystroke	t	n/a
380.322	0.135	760644	keystroke	s	n/a
380.502	0.105	761004	keystroke	Key.space	n/a
380.787	0.135	761574	keystroke	d	n/a
380.9515	0.1045	761903	keystroke	u	n/a
381.311	0.15	762622	keystroke	b	n/a
381.597	0.105	763194	keystroke	a	n/a
381.717	0.12	763434	keystroke	i	n/a
382.227	0.104	764454	keystroke	Key.space	n/a
382.497	0.165	764994	keystroke	l	n/a
382.602	0.105	765204	keystroke	e	n/a
382.9765	0.165	765953	keystroke	t	n/a
383.337	0.1195	766674	keystroke	t	n/a
383.6515	0.1955	767303	keystroke	e	n/a
383.802	0.1345	767604	keystroke	r	n/a
386.893	0.074	773786	keystroke	Key.enter	n/a
386.9715	8.34	773943	prompt	n/a	may itself freedom tyler\n
388.017	0.15	776034	keystroke	m	n/a
388.3165	0.105	776633	keystroke	a	n/a
389.0965	0.105	778193	keystroke	y	n/a
389.3065	0.1205	778613	keystroke	Key.space	n/a
389.5615	0.1355	779123	keystroke	i	n/a
389.7415	0.1505	779483	keystroke	t	n/a
390.1615	0.09	780323	keystroke	s	n/a
390.3265	0.105	780653	keystroke	e	n/a
390.4765	0.1655	780953	keystroke	l	n/a
390.642	0.15	781284	keystroke	f	n/a
391.031	0.1055	782062	keystroke	Key.space	n/a
391.3165	0.09	782633	keystroke	f	n/a
391.631	0.15	783262	keystroke	r	n/a
391.766	0.1205	783532	keystroke	e	n/a
391.991	0.106	783982	keystroke	e	n/a
392.292	0.1345	784584	keystroke	d	n/a
392.531	0.1205	785062	keystroke	o	n/a
392.816	0.106	785632	keystroke	m	n/a
393.042	0.09	786084	keystroke	Key.space	n/a
393.342	0.134	786684	keystroke	t	n/a
393.596	0.1055	787192	keystroke	y	n/a
394.031	0.1355	788062	keystroke	l	n/a
394.181	0.181	788362	keystroke	e	n/a
394.406	0.15	788812	keystroke	r	n/a
395.156	0.1505	790312	keystroke	Key.enter	n/a
395.317	7.3565	790634	prompt	n/a	times layer vermont fastest\n
396.1175	0.089	792235	keystroke	t	n/a
396.2075	0.0895	792415	keystroke	i	n/a
396.3565	0.135	792713	keystroke	m	n/a
396.4315	0.121	792863	keystroke	e	n/a
396.5965	0.1505	793193	keystroke	s	n/a
396.8515	0.09	793703	keystroke	Key.space	n/a
397.1815	0.15	794363	keystroke	l	n/a
397.3315	0.12	794663	keystroke	a	n/a
397.542	0.15	795084	keystroke	y	n/a
397.7065	0.1655	795413	keystroke	e	n/a
397.842	0.1645	795684	keystroke	r	n/a
398.2315	0.09	796463	keystroke	Key.space	n/a
398.8765	0.0905	797753	keystroke	v	n/a
399.2515	0.1355	798503	keystroke	e	n/a
399.3565	0.12	798713	keystroke	r	n/a
399.597	0.09	799194	keystroke	m	n/a
399.836	0.1805	799672	keystroke	o	n/a
400.0015	0.12	800003	keystroke	n	n/a
400.317	0.1345	800634	keystroke	t	n/a
400.5565	0.0905	801113	keystroke	Key.space	n/a
400.7815	0.09	801563	keystroke	f	n/a
401.0515	0.0905	802103	keystroke	a	n/a
401.2915	0.105	802583	keystroke	s	n/a
401.5765	0.105	803153	keystroke	t	n/a
401.7565	0.105	803513	keystroke	e	n/a
402.0265	0.06	804053	keystroke	s	n/a
402.2365	0.09	804473	keystroke	t	n/a
402.5515	0.1205	805103	keystroke	Key.enter	n/a
402.678	9.955	805356	prompt	n/a	senior manuals develops adware\n
403.482	0.1045	806964	keystroke	s	n/a
403.7065	0.1055	807413	keystroke	e	n/a
403.8715	0.105	807743	keystroke	n	n/a
404.1115	0.195	808223	keystroke	i	n/a
404.2765	0.105	808553	keystroke	o	n/a
404.3665	0.12	808733	keystroke	r	n/a
404.831	0.09	809662	keystroke	Key.space	n/a
405.206	0.136	810412	keystroke	m	n/a
405.432	0.105	810864	keystroke	a	n/a
405.581	0.0455	811162	keystroke	n	n/a
405.821	0.091	811642	keystroke	u	n/a
405.942	0.089	811884	keystroke	a	n/a
406.122	0.089	812244	keystroke	l	n/a
406.242	0.105	812484	keystroke	s	n/a
406.4515	0.075	812903	keystroke	Key.space	n/a
406.797	0.075	813594	keystroke	d	n/a
407.021	0.0755	814042	keystroke	e	n/a
407.3065	0.12	814613	keystroke	v	n/a
407.5015	0.1055	815003	keystroke	e	n/a
407.636	0.121	815272	keystroke	l	n/a
407.8915	0.1055	815783	keystroke	o	n/a
408.056	0.105	816112	keystroke	p	n/a
408.191	0.135	816382	keystroke	s	n/a
409.1365	0.075	818273	keystroke	Key.space	n/a
409.6475	0.044	819295	keystroke	a	n/a
409.7815	0.1055	819563	keystroke	d	n/a
410.097	0.0895	820194	keystroke	w	n/a
410.2015	0.1355	820403	keystroke	a	n/a
410.3215	0.15	820643	keystroke	r	n/a
410.5165	0.1055	821033	keystroke	e	n/a
412.5115	0.12	825023	keystroke	Key.enter	n/a
412.637	10.046	825274	prompt	n/a	changing circulation employ feat\n
413.817	0.15	827634	keystroke	c	n/a
414.012	0.105	828024	keystroke	h	n/a
414.1765	0.1045	828353	keystroke	a	n/a
414.297	0.105	828594	keystroke	n	n/a
414.506	0.075	829012	keystroke	g	n/a
414.596	0.151	829192	keystroke	i	n/a
414.7015	0.1655	829403	keystroke	n	n/a
415.1515	0.1345	830303	keystroke	g	n/a
415.467	0.0595	830934	keystroke	Key.space	n/a
415.9925	0.119	831985	keystroke	c	n/a
416.1565	0.1655	832313	keystroke	i	n/a
416.3965	0.1205	832793	keystroke	r	n/a
416.817	0.1495	833634	keystroke	c	n/a
416.9515	0.0895	833903	keystroke	u	n/a
417.2215	0.1505	834443	keystroke	l	n/a
417.356	0.121	834712	keystroke	a	n/a
417.522	0.105	835044	keystroke	t	n/a
417.656	0.166	835312	keystroke	i	n/a
417.7165	0.1195	835433	keystroke	o	n/a
417.777	0.135	835554	keystroke	n	n/a
418.0765	0.105	836153	keystroke	Key.space	n/a
418.347	0.1045	836694	keystroke	e	n/a
418.767	0.1195	837534	keystroke	m	n/a
419.1115	0.1055	838223	keystroke	p	n/a
419.3815	0.1055	838763	keystroke	l	n/a
419.6825	0.089	839365	keystroke	o	n/a
419.8015	0.1205	839603	keystroke	y	n/a
420.2965	0.09	840593	keystroke	Key.space	n/a
421.482	0.12	842964	keystroke	f	n/a
421.737	0.15	843474	keystroke	e	n/a
421.917	0.12	843834	keystroke	a	n/a
422.142	0.105	844284	keystroke	t	n/a
422.562	0.12	845124	keystroke	Key.enter	n/a
422.687	15.041	845374	prompt	n/a	password entertaining assessment dimensional\n
423.552	0.15	847104	keystroke	p	n/a
423.822	0.09	847644	keystroke	a	n/a
424.0765	0.075	848153	keystroke	s	n/a
424.2565	0.075	848513	keystroke	s	n/a
424.6015	0.105	849203	keystroke	w	n/a
424.8115	0.12	849623	keystroke	o	n/a
424.9465	0.105	849893	keystroke	r	n/a
425.306	0.166	850612	keystroke	d	n/a
425.6065	0.09	851213	keystroke	Key.space	n/a
425.8765	0.09	851753	keystroke	e	n/a
425.997	0.1345	851994	keystroke	n	n/a
426.192	0.225	852384	keystroke	t	n/a
426.536	0.211	853072	keystroke	e	n/a
426.672	0.1645	853344	keystroke	r	n/a
427.122	0.0745	854244	keystroke	n	n/a
427.632	0.09	855264	keystroke	Key.backspace	n/a
427.767	0.12	855534	keystroke	t	n/a
427.917	0.1195	855834	keystroke	a	n/a
428.0965	0.165	856193	keystroke	i	n/a
428.2315	0.12	856463	keystroke	n	n/a
428.4865	0.1355	856973	keystroke	i	n/a
428.5765	0.135	857153	keystroke	n	n/a
428.7265	0.06	857453	keystroke	g	n/a
429.281	0.1205	858562	keystroke	Key.space	n/a
429.747	0.0745	859494	keystroke	a	n/a
429.987	0.0745	859974	keystroke	s	n/a
430.1515	0.06	860303	keystroke	s	n/a
430.346	0.106	860692	keystroke	e	n/a
430.7515	0.075	861503	keystroke	s	n/a
430.931	0.075	861862	keystroke	s	n/a
431.2765	0.1205	862553	keystroke	m	n/a
431.3975	0.104	862795	keystroke	e	n/a
431.5915	0.1055	863183	keystroke	n	n/a
431.7715	0.06	863543	keystroke	t	n/a
432.056	0.1055	864112	keystroke	Key.space	n/a
432.7315	0.12	865463	keystroke	d	n/a
432.8815	0.12	865763	keystroke	i	n/a
433.1515	0.09	866303	keystroke	m	n/a
433.2565	0.1055	866513	keystroke	e	n/a
433.3765	0.1205	866753	keystroke	n	n/a
434.2165	0.135	868433	keystroke	s	n/a
434.457	0.1195	868914	keystroke	i	n/a
434.6365	0.1805	869273	keystroke	i	n/a
434.7115	0.1645	869423	keystroke	o	n/a
434.772	0.134	869544	keystroke	n	n/a
435.522	0.0745	871044	keystroke	Key.backspace	n/a
435.687	0.044	871374	keystroke	Key.backspace	n/a
435.822	0.075	871644	keystroke	Key.backspace	n/a
436.197	0.134	872394	keystroke	o	n/a
436.347	0.134	872694	keystroke	n	n/a
436.616	0.121	873232	keystroke	a	n/a
436.812	0.149	873624	keystroke	l	n/a
437.606	0.12	875212	keystroke	Key.enter	n/a
437.732	25.992	875464	prompt	n/a	upgrading swedish language appreciated\n
438.8665	0.135	877733	keystroke	u	n/a
439.0915	0.12	878183	keystroke	p	n/a
439.242	0.12	878484	keystroke	d	n/a
439.722	0.1495	879444	keystroke	r	n/a
440.0365	0.105	880073	keystroke	a	n/a
442.8415	0.135	885683	keystroke	Key.backspace	n/a
443.141	0.0905	886282	keystroke	Key.backspace	n/a
443.5165	0.105	887033	keystroke	Key.backspace	n/a
444.2365	0.105	888473	keystroke	g	n/a
444.5215	0.1795	889043	keystroke	r	n/a
444.686	0.09	889372	keystroke	a	n/a
444.9415	0.12	889883	keystroke	d	n/a
445.107	0.1495	890214	keystroke	i	n/a
445.272	0.1345	890544	keystroke	n	n/a
445.4365	0.1205	890873	keystroke	g	n/a
445.7215	0.0905	891443	keystroke	Key.space	n/a
446.007	0.06	892014	keystroke	s	n/a
446.262	0.105	892524	keystroke	w	n/a
446.502	0.104	893004	keystroke	e	n/a
446.847	0.0895	893694	keystroke	d	n/a
447.011	0.121	894022	keystroke	i	n/a
447.146	0.0905	894292	keystroke	s	n/a
447.2815	0.12	894563	keystroke	h	n/a
447.5965	0.09	895193	keystroke	Key.space	n/a
447.912	0.1495	895824	keystroke	l	n/a
448.122	0.09	896244	keystroke	a	n/a
448.2865	0.1055	896573	keystroke	n	n/a
448.6465	0.12	897293	keystroke	u	n/a
448.856	0.105	897712	keystroke	a	n/a
449.366	0.09	898732	keystroke	e	n/a
449.951	0.045	899902	keystroke	Key.backspace	n/a
450.011	0.075	900022	keystroke	g	n/a
450.296	0.105	900592	keystroke	e	n/a
450.7765	0.1045	901553	keystroke	Key.space	n/a
452.696	0.09	905392	keystroke	Key.backspace	n/a
452.9815	0.105	905963	keystroke	Key.backspace	n/a
453.2365	0.105	906473	keystroke	Key.backspace	n/a
453.5365	0.09	907073	keystroke	Key.backspace	n/a
454.3315	0.075	908663	keystroke	Key.backspace	n/a
458.1885	0.088	916377	keystroke	g	n/a
458.3815	0.12	916763	keystroke	u	n/a
458.5915	0.165	917183	keystroke	a	n/a
458.8315	0.135	917663	keystroke	g	n/a
459.0865	0.105	918173	keystroke	e	n/a
459.326	0.105	918652	keystroke	Key.space	n/a
459.9115	0.075	919823	keystroke	a	n/a
460.1965	0.0905	920393	keystroke	p	n/a
460.376	0.135	920752	keystroke	p	n/a
460.631	0.1205	921262	keystroke	r	n/a
460.9915	0.0895	921983	keystroke	e	n/a
461.6665	0.075	923333	keystroke	c	n/a
461.787	0.119	923574	keystroke	i	n/a
462.026	0.106	924052	keystroke	a	n/a
462.281	0.136	924562	keystroke	t	n/a
462.582	0.0595	925164	keystroke	e	n/a
462.8215	0.09	925643	keystroke	d	n/a
463.586	0.1355	927172	keystroke	Key.enter	n/a
463.7305	18.128	927461	prompt	n/a	boston chelsea corrected infants\n
471.6285	0.073	943257	keystroke	b	n/a
471.8065	0.1355	943613	keystroke	o	n/a
472.017	0.1195	944034	keystroke	s	n/a
472.3765	0.106	944753	keystroke	t	n/a
472.6015	0.166	945203	keystroke	o	n/a
472.7975	0.149	945595	keystroke	n	n/a
473.1865	0.1055	946373	keystroke	Key.space	n/a
473.6215	0.135	947243	keystroke	c	n/a
473.787	0.1205	947574	keystroke	h	n/a
474.042	0.0895	948084	keystroke	e	n/a
474.2515	0.1505	948503	keystroke	l	n/a
474.447	0.105	948894	keystroke	s	n/a
474.6875	0.1485	949375	keystroke	e	n/a
474.851	0.135	949702	keystroke	a	n/a
475.4065	0.0755	950813	keystroke	Key.space	n/a
476.4865	0.15	952973	keystroke	c	n/a
476.8015	0.06	953603	keystroke	o	n/a
477.297	0.06	954594	keystroke	r	n/a
477.6575	0.1345	955315	keystroke	r	n/a
477.957	0.075	955914	keystroke	e	n/a
478.257	0.135	956514	keystroke	c	n/a
478.6465	0.121	957293	keystroke	t	n/a
478.9015	0.045	957803	keystroke	e	n/a
479.247	0.105	958494	keystroke	d	n/a
479.502	0.12	959004	keystroke	Key.space	n/a
479.787	0.135	959574	keystroke	i	n/a
480.012	0.1055	960024	keystroke	n	n/a
480.132	0.1355	960264	keystroke	f	n/a
480.402	0.09	960804	keystroke	a	n/a
480.642	0.15	961284	keystroke	n	n/a
480.8375	0.1045	961675	keystroke	t	n/a
481.1525	0.134	962305	keystroke	s	n/a
481.7065	0.1505	963413	keystroke	Key.enter	n/a
481.8645	11.874	963729	prompt	n/a	schemes contractor glossary window\n
483.057	0.0745	966114	keystroke	s	n/a
483.4765	0.075	966953	keystroke	c	n/a
483.7465	0.1205	967493	keystroke	h	n/a
484.0315	0.12	968063	keystroke	e	n/a
484.332	0.1195	968664	keystroke	m	n/a
484.5115	0.09	969023	keystroke	e	n/a
484.842	0.0445	969684	keystroke	s	n/a
485.112	0.12	970224	keystroke	Key.space	n/a
485.7115	0.1505	971423	keystroke	c	n/a
485.9065	0.165	971813	keystroke	o	n/a
486.0265	0.166	972053	keystroke	n	n/a
486.357	0.045	972714	keystroke	t	n/a
486.717	0.1495	973434	keystroke	r	n/a
486.927	0.1045	973854	keystroke	a	n/a
487.332	0.09	974664	keystroke	c	n/a
487.722	0.105	975444	keystroke	t	n/a
487.962	0.12	975924	keystroke	o	n/a
488.172	0.09	976344	keystroke	r	n/a
488.577	0.105	977154	keystroke	Key.space	n/a
489.057	0.135	978114	keystroke	g	n/a
489.3715	0.12	978743	keystroke	l	n/a
489.6115	0.1055	979223	keystroke	o	n/a
489.7925	0.075	979585	keystroke	s	n/a
489.9715	0.075	979943	keystroke	s	n/a
490.2115	0.105	980423	keystroke	a	n/a
490.3465	0.121	980693	keystroke	r	n/a
490.617	0.0595	981234	keystroke	y	n/a
490.8715	0.1205	981743	keystroke	Key.space	n/a
491.1715	0.105	982343	keystroke	w	n/a
491.667	0.165	983334	keystroke	i	n/a
491.817	0.15	983634	keystroke	n	n/a
492.027	0.0905	984054	keystroke	d	n/a
492.162	0.105	984324	keystroke	o	n/a
492.432	0.09	984864	keystroke	w	n/a
493.632	0.1045	987264	keystroke	Key.enter	n/a
493.7415	13.017	987483	prompt	n/a	firmware particle villa accessories\n
497.128	0.089	994256	keystroke	f	n/a
497.292	0.12	994584	keystroke	i	n/a
497.442	0.06	994884	keystroke	r	n/a
497.562	0.09	995124	keystroke	m	n/a
497.832	0.135	995664	keystroke	w	n/a
497.922	0.15	995844	keystroke	a	n/a
498.042	0.15	996084	keystroke	r	n/a
498.252	0.105	996504	keystroke	e	n/a
499.002	0.09	998004	keystroke	Key.space	n/a
499.3015	0.1655	998603	keystroke	p	n/a
499.5115	0.15	999023	keystroke	a	n/a
499.8715	0.15	999743	keystroke	r	n/a
500.1575	0.119	1000315	keystroke	t	n/a
500.3965	0.076	1000793	keystroke	i	n/a
500.637	0.0745	1001274	keystroke	c	n/a
500.892	0.105	1001784	keystroke	l	n/a
501.057	0.1045	1002114	keystroke	e	n/a
501.2665	0.09	1002533	keystroke	Key.space	n/a
501.6415	0.105	1003283	keystroke	v	n/a
501.8215	0.105	1003643	keystroke	i	n/a
502.1815	0.09	1004363	keystroke	l	n/a
502.3465	0.15	1004693	keystroke	l	n/a
502.512	0.15	1005024	keystroke	a	n/a
502.7815	0.12	1005563	keystroke	Key.space	n/a
502.9915	0.105	1005983	keystroke	a	n/a
503.382	0.0895	1006764	keystroke	c	n/a
503.5465	0.075	1007093	keystroke	c	n/a
503.9065	0.106	1007813	keystroke	e	n/a
504.1615	0.076	1008323	keystroke	s	n/a
504.3575	0.0595	1008715	keystroke	s	n/a
504.897	0.12	1009794	keystroke	o	n/a
505.107	0.06	1010214	keystroke	r	n/a
505.257	0.089	1010514	keystroke	i	n/a
505.362	0.09	1010724	keystroke	e	n/a
505.5575	0.1035	1011115	keystroke	s	n/a
506.622	0.135	1013244	keystroke	Key.enter	n/a
506.7625	14.2155	1013525	prompt	n/a	furthermore examinations lauderdale wing\n
507.657	0.0295	1015314	keystroke	f	n/a
507.8215	0.1205	1015643	keystroke	u	n/a
508.017	0.09	1016034	keystroke	r	n/a
508.2715	0.075	1016543	keystroke	t	n/a
508.3915	0.105	1016783	keystroke	h	n/a
508.527	0.18	1017054	keystroke	e	n/a
508.6465	0.135	1017293	keystroke	r	n/a
509.037	0.075	1018074	keystroke	m	n/a
509.262	0.1195	1018524	keystroke	o	n/a
509.337	0.1495	1018674	keystroke	r	n/a
509.457	0.1495	1018914	keystroke	e	n/a
510.2815	0.1355	1020563	keystroke	Key.space	n/a
510.4765	0.1055	1020953	keystroke	e	n/a
510.837	0.12	1021674	keystroke	x	n/a
511.1965	0.09	1022393	keystroke	a	n/a
511.392	0.075	1022784	keystroke	m	n/a
511.527	0.075	1023054	keystroke	a	n/a
512.232	0.0595	1024464	keystroke	Key.backspace	n/a
512.682	0.0895	1025364	keystroke	i	n/a
512.8765	0.135	1025753	keystroke	n	n/a
513.0875	0.105	1026175	keystroke	a	n/a
513.3875	0.0895	1026775	keystroke	t	n/a
513.5665	0.21	1027133	keystroke	i	n/a
513.6715	0.12	1027343	keystroke	o	n/a
513.7465	0.136	1027493	keystroke	n	n/a
514.0025	0.105	1028005	keystroke	s	n/a
514.3765	0.105	1028753	keystroke	Key.space	n/a
514.8715	0.06	1029743	keystroke	l	n/a
515.037	0.1045	1030074	keystroke	a	n/a
515.3075	0.1045	1030615	keystroke	u	n/a
515.7415	0.105	1031483	keystroke	r	n/a
516.7915	0.12	1033583	keystroke	Key.backspace	n/a
517.077	0.09	1034154	keystroke	d	n/a
517.4065	0.135	1034813	keystroke	e	n/a
517.5115	0.12	1035023	keystroke	r	n/a
518.022	0.09	1036044	keystroke	d	n/a
518.352	0.09	1036704	keystroke	a	n/a
518.9375	0.12	1037875	keystroke	l	n/a
519.1325	0.105	1038265	keystroke	e	n/a
519.3865	0.09	1038773	keystroke	Key.space	n/a
519.612	0.1205	1039224	keystroke	w	n/a
519.717	0.15	1039434	keystroke	i	n/a
519.852	0.1495	1039704	keystroke	n	n/a
520.482	0.1205	1040964	keystroke	g	n/a
520.857	0.1195	1041714	keystroke	Key.enter	n/a
520.981	24.762	1041962	prompt	n/a	appropriations crisis knowledgestorm trips\n
521.982	0.105	1043964	keystroke	a	n/a
522.2815	0.09	1044563	keystroke	p	n/a
522.462	0.105	1044924	keystroke	p	n/a
522.852	0.075	1045704	keystroke	r	n/a
523.001	0.106	1046002	keystroke	o	n/a
524.2165	0.1205	1048433	keystroke	p	n/a
524.6075	0.089	1049215	keystroke	r	n/a
524.757	0.1195	1049514	keystroke	i	n/a
524.892	0.1195	1049784	keystroke	a	n/a
525.6715	0.136	1051343	keystroke	t	n/a
525.867	0.2545	1051734	keystroke	i	n/a
526.0615	0.166	1052123	keystroke	n	n/a
526.722	0.0895	1053444	keystroke	Key.backspace	n/a
526.962	0.135	1053924	keystroke	o	n/a
527.067	0.1355	1054134	keystroke	n	n/a
527.232	0.09	1054464	keystroke	s	n/a
527.682	0.1045	1055364	keystroke	Key.space	n/a
528.1625	0.1195	1056325	keystroke	c	n/a
528.582	0.119	1057164	keystroke	r	n/a
528.821	0.121	1057642	keystroke	i	n/a
529.167	0.1045	1058334	keystroke	s	n/a
529.5415	0.1205	1059083	keystroke	i	n/a
529.7815	0.12	1059563	keystroke	s	n/a
531.777	0.12	1063554	keystroke	Key.space	n/a
534.4045	0.072	1068809	keystroke	k	n/a
534.6575	0.119	1069315	keystroke	n	n/a
534.8815	0.136	1069763	keystroke	o	n/a
535.0175	0.1345	1070035	keystroke	w	n/a
535.242	0.12	1070484	keystroke	l	n/a
535.377	0.075	1070754	keystroke	e	n/a
535.767	0.1045	1071534	keystroke	e	n/a
536.5465	0.1055	1073093	keystroke	Key.backspace	n/a
538.107	0.0895	1076214	keystroke	d	n/a
538.4965	0.135	1076993	keystroke	g	n/a
538.7665	0.105	1077533	keystroke	e	n/a
539.607	0.0895	1079214	keystroke	s	n/a
540.072	0.1655	1080144	keystroke	t	n/a
540.3115	0.106	1080623	keystroke	o	n/a
540.4025	0.089	1080805	keystroke	r	n/a
540.6565	0.09	1081313	keystroke	m	n/a
541.002	0.15	1082004	keystroke	Key.space	n/a
541.4815	0.12	1082963	keystroke	t	n/a
541.8875	0.0895	1083775	keystroke	r	n/a
544.3335	0.058	1088667	keystroke	i	n/a
544.6175	0.1195	1089235	keystroke	p	n/a
544.9015	0.12	1089803	keystroke	s	n/a
545.5915	0.15	1091183	keystroke	Key.enter	n/a
545.747	11.1715	1091494	prompt	n/a	ranks pregnant formatting hypothetical\n
546.8365	0.1955	1093673	keystroke	r	n/a
547.017	0.105	1094034	keystroke	a	n/a
547.137	0.075	1094274	keystroke	n	n/a
547.332	0.1195	1094664	keystroke	k	n/a
547.4375	0.119	1094875	keystroke	s	n/a
547.6915	0.06	1095383	keystroke	Key.space	n/a
547.932	0.1195	1095864	keystroke	p	n/a
548.157	0.15	1096314	keystroke	r	n/a
548.3215	0.105	1096643	keystroke	e	n/a
548.8915	0.1205	1097783	keystroke	g	n/a
549.252	0.09	1098504	keystroke	n	n/a
549.387	0.0905	1098774	keystroke	a	n/a
549.507	0.105	1099014	keystroke	n	n/a
550.107	0.1205	1100214	keystroke	t	n/a
550.557	0.105	1101114	keystroke	Key.space	n/a
551.037	0.0895	1102074	keystroke	f	n/a
551.2165	0.121	1102433	keystroke	o	n/a
551.3815	0.0905	1102763	keystroke	r	n/a
551.517	0.12	1103034	keystroke	m	n/a
551.6525	0.135	1103305	keystroke	a	n/a
551.817	0.105	1103634	keystroke	t	n/a
552.042	0.09	1104084	keystroke	t	n/a
552.162	0.165	1104324	keystroke	i	n/a
552.282	0.165	1104564	keystroke	n	n/a
552.4325	0.0895	1104865	keystroke	g	n/a
552.762	0.09	1105524	keystroke	Key.space	n/a
553.317	0.105	1106634	keystroke	h	n/a
553.617	0.15	1107234	keystroke	y	n/a
553.977	0.1045	1107954	keystroke	p	n/a
554.2165	0.0905	1108433	keystroke	o	n/a
554.637	0.1205	1109274	keystroke	t	n/a
554.8915	0.1205	1109783	keystroke	h	n/a
555.027	0.0755	1110054	keystroke	e	n/a
555.5375	0.104	1111075	keystroke	t	n/a
555.702	0.0895	1111404	keystroke	i	n/a
556.032	0.1055	1112064	keystroke	c	n/a
556.3325	0.105	1112665	keystroke	a	n/a
556.5415	0.105	1113083	keystroke	l	n/a
556.8415	0.075	1113683	keystroke	Key.enter	n/a
556.923	11.3805	1113846	prompt	n/a	valid concrete bizrate unable\n
557.982	0.1045	1115964	keystroke	v	n/a
558.4765	0.061	1116953	keystroke	l	n/a
558.957	0.074	1117914	keystroke	Key.backspace	n/a
559.077	0.105	1118154	keystroke	a	n/a
559.2575	0.105	1118515	keystroke	l	n/a
559.497	0.075	1118994	keystroke	i	n/a
559.617	0.12	1119234	keystroke	d	n/a
559.827	0.06	1119654	keystroke	Key.space	n/a
560.292	0.105	1120584	keystroke	c	n/a
560.367	0.18	1120734	keystroke	o	n/a
560.4875	0.15	1120975	keystroke	n	n/a
560.817	0.12	1121634	keystroke	c	n/a
561.207	0.15	1122414	keystroke	r	n/a
561.4465	0.12	1122893	keystroke	e	n/a
561.732	0.1355	1123464	keystroke	t	n/a
561.9125	0.119	1123825	keystroke	e	n/a
562.2265	0.136	1124453	keystroke	Key.space	n/a
562.7815	0.15	1125563	keystroke	b	n/a
563.0375	0.1045	1126075	keystroke	i	n/a
563.4875	0.1045	1126975	keystroke	z	n/a
563.817	0.15	1127634	keystroke	r	n/a
563.9825	0.1195	1127965	keystroke	a	n/a
564.252	0.12	1128504	keystroke	t	n/a
564.567	0.1045	1129134	keystroke	e	n/a
565.227	0.1945	1130454	keystroke	Key.space	n/a
565.437	0.1045	1130874	keystroke	u	n/a
565.707	0.0895	1131414	keystroke	n	n/a
565.8715	0.121	1131743	keystroke	a	n/a
566.517	0.105	1133034	keystroke	b	n/a
566.727	0.06	1133454	keystroke	l	n/a
566.952	0.1645	1133904	keystroke	e	n/a
568.1665	0.1355	1136333	keystroke	Key.enter	n/a
568.307	7.8265	1136614	prompt	n/a	clone you've dual flavor\n
569.202	0.1645	1138404	keystroke	c	n/a
569.457	0.1345	1138914	keystroke	l	n/a
569.6965	0.09	1139393	keystroke	o	n/a
569.9825	0.149	1139965	keystroke	n	n/a
570.1465	0.09	1140293	keystroke	e	n/a
570.807	0.2395	1141614	keystroke	Key.space	n/a
571.1515	0.136	1142303	keystroke	y	n/a
571.3915	0.1205	1142783	keystroke	o	n/a
571.4375	0.119	1142875	keystroke	u	n/a
571.7375	0.104	1143475	keystroke	'	n/a
572.2915	0.075	1144583	keystroke	v	n/a
572.6215	0.0905	1145243	keystroke	e	n/a
572.8315	0.1055	1145663	keystroke	Key.space	n/a
573.132	0.12	1146264	keystroke	d	n/a
573.2665	0.105	1146533	keystroke	u	n/a
573.447	0.1045	1146894	keystroke	a	n/a
573.687	0.135	1147374	keystroke	l	n/a
573.942	0.09	1147884	keystroke	Key.space	n/a
574.152	0.09	1148304	keystroke	f	n/a
574.377	0.135	1148754	keystroke	l	n/a
574.497	0.0755	1148994	keystroke	a	n/a
574.8865	0.0905	1149773	keystroke	v	n/a
575.577	0.105	1151154	keystroke	o	n/a
575.6965	0.0905	1151393	keystroke	r	n/a
576.0415	0.0905	1152083	keystroke	Key.enter	n/a
576.1375	10.631	1152275	prompt	n/a	chancellor horn levitra recorders\n
577.137	0.135	1154274	keystroke	c	n/a
577.377	0.0755	1154754	keystroke	h	n/a
577.557	0.075	1155114	keystroke	a	n/a
577.707	0.105	1155414	keystroke	n	n/a
577.9915	0.105	1155983	keystroke	c	n/a
578.2765	0.075	1156553	keystroke	e	n/a
578.487	0.0605	1156974	keystroke	l	n/a
578.6365	0.105	1157273	keystroke	l	n/a
578.8775	0.105	1157755	keystroke	o	n/a
579.027	0.135	1158054	keystroke	r	n/a
579.387	0.105	1158774	keystroke	Key.space	n/a
579.8375	0.164	1159675	keystroke	h	n/a
580.017	0.12	1160034	keystroke	o	n/a
580.1815	0.1055	1160363	keystroke	r	n/a
580.331	0.09	1160662	keystroke	n	n/a
580.917	0.09	1161834	keystroke	Key.space	n/a
581.217	0.18	1162434	keystroke	l	n/a
581.352	0.105	1162704	keystroke	e	n/a
581.742	0.075	1163484	keystroke	v	n/a
581.863	0.119	1163726	keystroke	i	n/a
582.1315	0.09	1164263	keystroke	t	n/a
582.4165	0.1355	1164833	keystroke	r	n/a
582.5525	0.105	1165105	keystroke	a	n/a
582.9265	0.12	1165853	keystroke	Key.space	n/a
583.3165	0.1505	1166633	keystroke	r	n/a
583.6165	0.0605	1167233	keystroke	e	n/a
583.9615	0.09	1167923	keystroke	c	n/a
584.1265	0.1205	1168253	keystroke	o	n/a
584.787	0.12	1169574	keystroke	r	n/a
585.1465	0.075	1170293	keystroke	d	n/a
585.4465	0.135	1170893	keystroke	e	n/a
585.5965	0.06	1171193	keystroke	r	n/a
586.2715	0.1205	1172543	keystroke	s	n/a
586.647	0.119	1173294	keystroke	Key.enter	n/a
586.772	11.3665	1173544	prompt	n/a	involving master vulnerable acid\n
587.9965	0.135	1175993	keystroke	i	n/a
588.1615	0.165	1176323	keystroke	n	n/a
588.627	0.135	1177254	keystroke	v	n/a
588.852	0.105	1177704	keystroke	o	n/a
589.137	0.165	1178274	keystroke	l	n/a
589.437	0.12	1178874	keystroke	v	n/a
589.632	0.18	1179264	keystroke	i	n/a
589.812	0.15	1179624	keystroke	n	n/a
589.962	0.1355	1179924	keystroke	g	n/a
590.577	0.105	1181154	keystroke	Key.space	n/a
590.9815	0.136	1181963	keystroke	m	n/a
591.207	0.1055	1182414	keystroke	a	n/a
591.462	0.1195	1182924	keystroke	s	n/a
591.7925	0.105	1183585	keystroke	t	n/a
592.0615	0.15	1184123	keystroke	e	n/a
592.1375	0.164	1184275	keystroke	r	n/a
592.6615	0.075	1185323	keystroke	Key.space	n/a
593.3525	0.12	1186705	keystroke	v	n/a
593.5175	0.09	1187035	keystroke	u	n/a
593.907	0.135	1187814	keystroke	l	n/a
594.1175	0.105	1188235	keystroke	n	n/a
594.341	0.18	1188682	keystroke	e	n/a
594.507	0.105	1189014	keystroke	r	n/a
594.7325	0.09	1189465	keystroke	a	n/a
595.0625	0.0895	1190125	keystroke	b	n/a
595.242	0.135	1190484	keystroke	l	n/a
595.437	0.135	1190874	keystroke	e	n/a
595.752	0.075	1191504	keystroke	Key.space	n/a
596.322	0.03	1192644	keystroke	a	n/a
596.742	0.15	1193484	keystroke	c	n/a
596.952	0.12	1193904	keystroke	i	n/a
597.447	0.06	1194894	keystroke	d	n/a
598.002	0.135	1196004	keystroke	Key.enter	n/a
598.143	15.4165	1196286	prompt	n/a	regards hobby background encryption\n
599.1725	0.1495	1198345	keystroke	r	n/a
599.367	0.1345	1198734	keystroke	e	n/a
599.622	0.09	1199244	keystroke	g	n/a
599.817	0.165	1199634	keystroke	a	n/a
599.952	0.105	1199904	keystroke	r	n/a
600.567	0.015	1201134	keystroke	d	n/a
600.702	0.105	1201404	keystroke	s	n/a
601.2865	0.105	1202573	keystroke	Key.space	n/a
601.6165	0.105	1203233	keystroke	h	n/a
601.8275	0.105	1203655	keystroke	o	n/a
602.1115	0.135	1204223	keystroke	b	n/a
602.3515	0.106	1204703	keystroke	b	n/a
602.532	0.165	1205064	keystroke	y	n/a
602.7115	0.12	1205423	keystroke	Key.space	n/a
603.402	0.15	1206804	keystroke	b	n/a
603.777	0.12	1207554	keystroke	a	n/a
604.152	0.0905	1208304	keystroke	c	n/a
605.577	0.105	1211154	keystroke	k	n/a
606.117	0.135	1212234	keystroke	g	n/a
606.417	0.12	1212834	keystroke	r	n/a
606.5825	0.1795	1213165	keystroke	o	n/a
606.837	0.0745	1213674	keystroke	u	n/a
607.272	0.12	1214544	keystroke	n	n/a
607.497	0.105	1214994	keystroke	d	n/a
607.767	0.09	1215534	keystroke	Key.space	n/a
608.322	0.12	1216644	keystroke	c	n/a
609.3115	0.0755	1218623	keystroke	Key.backspace	n/a
609.4325	0.0895	1218865	keystroke	e	n/a
609.612	0.1045	1219224	keystroke	n	n/a
610.1515	0.075	1220303	keystroke	c	n/a
611.682	0.1505	1223364	keystroke	r	n/a
611.892	0.1195	1223784	keystroke	y	n/a
612.2365	0.121	1224473	keystroke	p	n/a
612.4915	0.12	1224983	keystroke	t	n/a
612.6415	0.27	1225283	keystroke	i	n/a
612.7315	0.195	1225463	keystroke	o	n/a
612.8515	0.165	1225703	keystroke	n	n/a
613.422	0.135	1226844	keystroke	Key.enter	n/a
613.564	10.2545	1227128	prompt	n/a	adequate closing gardening ampland\n
614.5615	0.105	1229123	keystroke	a	n/a
614.847	0.105	1229694	keystroke	d	n/a
615.087	0.09	1230174	keystroke	e	n/a
615.342	0.105	1230684	keystroke	q	n/a
615.567	0.105	1231134	keystroke	u	n/a
615.7325	0.1645	1231465	keystroke	a	n/a
615.927	0.165	1231854	keystroke	t	n/a
616.182	0.1345	1232364	keystroke	e	n/a
616.602	0.0895	1233204	keystroke	Key.space	n/a
617.0825	0.15	1234165	keystroke	c	n/a
617.2915	0.106	1234583	keystroke	l	n/a
617.5325	0.09	1235065	keystroke	o	n/a
617.6075	0.104	1235215	keystroke	s	n/a
617.7715	0.135	1235543	keystroke	i	n/a
617.8925	0.119	1235785	keystroke	n	n/a
617.9975	0.1195	1235995	keystroke	g	n/a
618.342	0.105	1236684	keystroke	Key.space	n/a
619.1525	0.1345	1238305	keystroke	g	n/a
619.3915	0.18	1238783	keystroke	a	n/a
619.5725	0.134	1239145	keystroke	r	n/a
620.0075	0.09	1240015	keystroke	d	n/a
620.2465	0.0905	1240493	keystroke	e	n/a
620.382	0.0755	1240764	keystroke	n	n/a
620.547	0.24	1241094	keystroke	i	n/a
620.682	0.15	1241364	keystroke	n	n/a
620.847	0.135	1241694	keystroke	g	n/a
621.372	0.09	1242744	keystroke	Key.space	n/a
622.0025	0.105	1244005	keystroke	a	n/a
622.227	0.09	1244454	keystroke	m	n/a
622.542	0.075	1245084	keystroke	p	n/a
622.857	0.105	1245714	keystroke	l	n/a
622.977	0.09	1245954	keystroke	a	n/a
623.112	0.09	1246224	keystroke	n	n/a
623.277	0.1055	1246554	keystroke	d	n/a
623.682	0.135	1247364	keystroke	Key.enter	n/a
623.823	13.645	1247646	prompt	n/a	reseller botswana gravity accounts\n
624.762	0.135	1249524	keystroke	r	n/a
625.017	0.0745	1250034	keystroke	e	n/a
625.2575	0.089	1250515	keystroke	s	n/a
625.4075	0.1195	1250815	keystroke	e	n/a
625.7515	0.076	1251503	keystroke	l	n/a
625.9165	0.1355	1251833	keystroke	l	n/a
626.0525	0.164	1252105	keystroke	e	n/a
626.1715	0.136	1252343	keystroke	r	n/a
626.5915	0.075	1253183	keystroke	Key.space	n/a
627.477	0.1205	1254954	keystroke	b	n/a
627.7165	0.1205	1255433	keystroke	o	n/a
628.0175	0.119	1256035	keystroke	t	n/a
628.4065	0.0905	1256813	keystroke	s	n/a
628.707	0.1355	1257414	keystroke	w	n/a
628.8275	0.12	1257655	keystroke	a	n/a
629.1715	0.0305	1258343	keystroke	n	n/a
629.3075	0.06	1258615	keystroke	n	n/a
629.4865	0.105	1258973	keystroke	a	n/a
630.5665	0.0905	1261133	keystroke	Key.backspace	n/a
630.7765	0.0605	1261553	keystroke	Key.backspace	n/a
631.2575	0.1195	1262515	keystroke	a	n/a
632.307	0.135	1264614	keystroke	Key.space	n/a
632.847	0.15	1265694	keystroke	g	n/a
633.177	0.1645	1266354	keystroke	r	n/a
633.3275	0.1045	1266655	keystroke	a	n/a
633.627	0.135	1267254	keystroke	v	n/a
633.8065	0.165	1267613	keystroke	i	n/a
634.0025	0.119	1268005	keystroke	t	n/a
634.212	0.135	1268424	keystroke	y	n/a
634.3315	0.135	1268663	keystroke	Key.space	n/a
634.542	0.1055	1269084	keystroke	a	n/a
634.9465	0.045	1269893	keystroke	c	n/a
635.0815	0.09	1270163	keystroke	c	n/a
635.2915	0.1355	1270583	keystroke	u	n/a
635.8015	0.0755	1271603	keystroke	Key.backspace	n/a
636.072	0.1495	1272144	keystroke	o	n/a
636.177	0.1195	1272354	keystroke	u	n/a
636.4915	0.091	1272983	keystroke	n	n/a
636.6415	0.0905	1273283	keystroke	t	n/a
636.9565	0.0905	1273913	keystroke	s	n/a
637.332	0.135	1274664	keystroke	Key.enter	n/a
637.473	9.2205	1274946	prompt	n/a	biological doom shortly holidays\n
638.517	0.075	1277034	keystroke	b	n/a
638.697	0.075	1277394	keystroke	i	n/a
639.2075	0.059	1278415	keystroke	o	n/a
639.5065	0.0755	1279013	keystroke	l	n/a
639.7615	0.1355	1279523	keystroke	o	n/a
639.9115	0.105	1279823	keystroke	g	n/a
640.0465	0.12	1280093	keystroke	i	n/a
640.3915	0.12	1280783	keystroke	c	n/a
640.677	0.0895	1281354	keystroke	a	n/a
640.797	0.135	1281594	keystroke	l	n/a
640.9765	0.12	1281953	keystroke	Key.space	n/a
641.2015	0.1205	1282403	keystroke	d	n/a
641.3515	0.075	1282703	keystroke	o	n/a
641.5315	0.121	1283063	keystroke	o	n/a
641.8465	0.1055	1283693	keystroke	m	n/a
642.1015	0.1055	1284203	keystroke	Key.space	n/a
642.372	0.105	1284744	keystroke	s	n/a
642.492	0.0905	1284984	keystroke	h	n/a
642.627	0.15	1285254	keystroke	o	n/a
642.762	0.105	1285524	keystroke	r	n/a
643.0325	0.1195	1286065	keystroke	t	n/a
643.347	0.1355	1286694	keystroke	l	n/a
643.7075	0.165	1287415	keystroke	y	n/a
643.827	0.165	1287654	keystroke	Key.space	n/a
644.487	0.09	1288974	keystroke	h	n/a
644.652	0.105	1289304	keystroke	o	n/a
644.9515	0.15	1289903	keystroke	l	n/a
645.2365	0.1355	1290473	keystroke	i	n/a
645.4325	0.119	1290865	keystroke	d	n/a
645.7165	0.091	1291433	keystroke	a	n/a
645.9115	0.105	1291823	keystroke	y	n/a
646.077	0.12	1292154	keystroke	s	n/a
646.587	0.105	1293174	keystroke	Key.enter	n/a
646.697	9.1465	1293394	prompt	n/a	coding turkish entrance appear\n
647.652	0.12	1295304	keystroke	c	n/a
647.832	0.06	1295664	keystroke	o	n/a
648.057	0.105	1296114	keystroke	d	n/a
648.177	0.195	1296354	keystroke	i	n/a
648.327	0.135	1296654	keystroke	n	n/a
648.4325	0.1345	1296865	keystroke	g	n/a
648.657	0.03	1297314	keystroke	Key.space	n/a
649.017	0.135	1298034	keystroke	t	n/a
649.212	0.09	1298424	keystroke	u	n/a
649.332	0.09	1298664	keystroke	r	n/a
649.707	0.0895	1299414	keystroke	k	n/a
649.9325	0.1045	1299865	keystroke	i	n/a
650.052	0.135	1300104	keystroke	s	n/a
650.232	0.09	1300464	keystroke	h	n/a
650.562	0.09	1301124	keystroke	Key.space	n/a
650.817	0.105	1301634	keystroke	e	n/a
650.952	0.135	1301904	keystroke	n	n/a
651.3115	0.105	1302623	keystroke	t	n/a
651.5515	0.18	1303103	keystroke	r	n/a
651.7165	0.12	1303433	keystroke	a	n/a
651.8825	0.075	1303765	keystroke	n	n/a
652.182	0.0755	1304364	keystroke	c	n/a
652.527	0.105	1305054	keystroke	e	n/a
652.7825	0.119	1305565	keystroke	Key.space	n/a
653.097	0.1045	1306194	keystroke	a	n/a
653.382	0.075	1306764	keystroke	p	n/a
653.5325	0.105	1307065	keystroke	p	n/a
653.682	0.195	1307364	keystroke	e	n/a
654.2515	0.076	1308503	keystroke	a	n/a
654.7025	0.1195	1309405	keystroke	r	n/a
655.737	0.104	1311474	keystroke	Key.enter	n/a
655.8475	7.8565	1311695	prompt	n/a	benefit employed tells socket\n
656.6525	0.1345	1313305	keystroke	b	n/a
656.921	0.091	1313842	keystroke	e	n/a
657.057	0.105	1314114	keystroke	n	n/a
657.1475	0.089	1314295	keystroke	e	n/a
657.4025	0.135	1314805	keystroke	f	n/a
657.5375	0.104	1315075	keystroke	i	n/a
657.7475	0.105	1315495	keystroke	t	n/a
657.911	0.105	1315822	keystroke	Key.space	n/a
658.5275	0.1045	1317055	keystroke	e	n/a
658.737	0.045	1317474	keystroke	m	n/a
659.0215	0.1055	1318043	keystroke	p	n/a
659.322	0.0895	1318644	keystroke	l	n/a
659.727	0.1345	1319454	keystroke	o	n/a
660.057	0.18	1320114	keystroke	y	n/a
660.357	0.0605	1320714	keystroke	e	n/a
660.597	0.135	1321194	keystroke	d	n/a
660.777	0.075	1321554	keystroke	Key.space	n/a
661.1815	0.121	1322363	keystroke	t	n/a
661.3915	0.09	1322783	keystroke	e	n/a
661.5865	0.075	1323173	keystroke	l	n/a
661.7365	0.0905	1323473	keystroke	l	n/a
661.857	0.1045	1323714	keystroke	s	n/a
661.9915	0.0905	1323983	keystroke	Key.space	n/a
662.127	0.0895	1324254	keystroke	s	n/a
662.2765	0.1055	1324553	keystroke	o	n/a
662.472	0.1055	1324944	keystroke	c	n/a
662.7275	0.09	1325455	keystroke	k	n/a
662.9225	0.0895	1325845	keystroke	e	n/a
663.2665	0.12	1326533	keystroke	t	n/a
663.5965	0.105	1327193	keystroke	Key.enter	n/a
663.707	9.9115	1327414	prompt	n/a	unable establishing ctrl thailand\n
664.4975	0.089	1328995	keystroke	u	n/a
664.752	0.0895	1329504	keystroke	n	n/a
664.857	0.12	1329714	keystroke	a	n/a
665.367	0.135	1330734	keystroke	b	n/a
665.577	0.12	1331154	keystroke	l	n/a
665.698	0.089	1331396	keystroke	e	n/a
665.892	0.105	1331784	keystroke	Key.space	n/a
666.3125	0.06	1332625	keystroke	e	n/a
666.5525	0.1045	1333105	keystroke	s	n/a
666.852	0.135	1333704	keystroke	t	n/a
667.032	0.09	1334064	keystroke	a	n/a
667.392	0.06	1334784	keystroke	b	n/a
667.857	0.105	1335714	keystroke	l	n/a
668.0975	0.104	1336195	keystroke	i	n/a
668.1865	0.075	1336373	keystroke	s	n/a
668.2915	0.09	1336583	keystroke	h	n/a
668.3965	0.1355	1336793	keystroke	i	n/a
668.502	0.105	1337004	keystroke	n	n/a
668.6365	0.136	1337273	keystroke	g	n/a
668.817	0.09	1337634	keystroke	Key.space	n/a
669.132	0.12	1338264	keystroke	c	n/a
669.5665	0.12	1339133	keystroke	t	n/a
669.8525	0.105	1339705	keystroke	r	n/a
670.2425	0.135	1340485	keystroke	l	n/a
670.557	0.0755	1341114	keystroke	Key.space	n/a
670.977	0.12	1341954	keystroke	t	n/a
671.187	0.135	1342374	keystroke	h	n/a
671.337	0.105	1342674	keystroke	a	n/a
671.607	0.075	1343214	keystroke	i	n/a
671.862	0.12	1343724	keystroke	l	n/a
671.997	0.075	1343994	keystroke	a	n/a
672.087	0.1055	1344174	keystroke	n	n/a
672.282	0.12	1344564	keystroke	d	n/a
673.482	0.135	1346964	keystroke	Key.enter	n/a
673.6225	10.541	1347245	prompt	n/a	agriculture friday caught apollo\n
674.4725	0.104	1348945	keystroke	a	n/a
674.907	0.12	1349814	keystroke	g	n/a
675.192	0.075	1350384	keystroke	r	n/a
675.327	0.105	1350654	keystroke	i	n/a
675.8225	0.1495	1351645	keystroke	c	n/a
675.957	0.09	1351914	keystroke	u	n/a
676.3025	0.1195	1352605	keystroke	l	n/a
676.437	0.06	1352874	keystroke	t	n/a
676.6615	0.1055	1353323	keystroke	u	n/a
676.7515	0.135	1353503	keystroke	r	n/a
676.872	0.135	1353744	keystroke	e	n/a
677.2465	0.1055	1354493	keystroke	Key.space	n/a
677.682	0.0745	1355364	keystroke	f	n/a
677.982	0.135	1355964	keystroke	r	n/a
678.147	0.12	1356294	keystroke	i	n/a
678.582	0.105	1357164	keystroke	d	n/a
678.7925	0.1195	1357585	keystroke	a	n/a
678.957	0.1645	1357914	keystroke	y	n/a
679.1065	0.105	1358213	keystroke	Key.space	n/a
679.407	0.0905	1358814	keystroke	c	n/a
679.692	0.074	1359384	keystroke	a	n/a
679.797	0.105	1359594	keystroke	u	n/a
679.992	0.09	1359984	keystroke	g	n/a
680.127	0.09	1360254	keystroke	h	n/a
680.276	0.0755	1360552	keystroke	t	n/a
680.442	0.0445	1360884	keystroke	Key.space	n/a
680.6065	0.12	1361213	keystroke	a	n/a
680.877	0.105	1361754	keystroke	p	n/a
681.132	0.105	1362264	keystroke	o	n/a
681.387	0.105	1362774	keystroke	l	n/a
681.702	0.031	1363404	keystroke	o	n/a
682.3015	0.09	1364603	keystroke	Key.backspace	n/a
682.6175	0.165	1365235	keystroke	l	n/a
682.9315	0.105	1365863	keystroke	o	n/a
684.027	0.135	1368054	keystroke	Key.enter	n/a
684.168	8.651	1368336	prompt	n/a	national paul more analyzed\n
684.9865	0.1205	1369973	keystroke	a	n/a
685.257	0.105	1370514	keystroke	n	n/a
685.797	0.09	1371594	keystroke	Key.backspace	n/a
685.962	0.09	1371924	keystroke	Key.backspace	n/a
686.5175	0.0895	1373035	keystroke	n	n/a
686.637	0.09	1373274	keystroke	a	n/a
686.892	0.12	1373784	keystroke	t	n/a
686.952	0.2095	1373904	keystroke	i	n/a
687.042	0.1495	1374084	keystroke	o	n/a
687.132	0.105	1374264	keystroke	n	n/a
687.267	0.105	1374534	keystroke	a	n/a
687.462	0.12	1374924	keystroke	l	n/a
687.732	0.075	1375464	keystroke	Key.space	n/a
688.137	0.15	1376274	keystroke	p	n/a
688.332	0.105	1376664	keystroke	a	n/a
688.467	0.09	1376934	keystroke	u	n/a
688.7825	0.1645	1377565	keystroke	l	n/a
689.007	0.105	1378014	keystroke	Key.space	n/a
689.2775	0.0895	1378555	keystroke	m	n/a
689.592	0.135	1379184	keystroke	o	n/a
689.712	0.1795	1379424	keystroke	r	n/a
689.8465	0.1655	1379693	keystroke	e	n/a
690.072	0.075	1380144	keystroke	Key.space	n/a
690.327	0.105	1380654	keystroke	a	n/a
690.492	0.0605	1380984	keystroke	n	n/a
690.612	0.09	1381224	keystroke	a	n/a
690.777	0.12	1381554	keystroke	l	n/a
691.167	0.09	1382334	keystroke	y	n/a
691.7225	0.12	1383445	keystroke	z	n/a
691.962	0.1055	1383924	keystroke	e	n/a
692.2475	0.105	1384495	keystroke	d	n/a
692.711	0.106	1385422	keystroke	Key.enter	n/a
692.822	13.1215	1385644	prompt	n/a	diseases procurement amongst calculation\n
693.672	0.075	1387344	keystroke	d	n/a
693.777	0.105	1387554	keystroke	i	n/a
694.122	0.1045	1388244	keystroke	s	n/a
694.3915	0.195	1388783	keystroke	e	n/a
694.602	0.075	1389204	keystroke	a	n/a
694.8415	0.1205	1389683	keystroke	s	n/a
695.1415	0.1205	1390283	keystroke	e	n/a
695.427	0.105	1390854	keystroke	s	n/a
695.622	0.075	1391244	keystroke	Key.space	n/a
696.042	0.15	1392084	keystroke	p	n/a
696.2075	0.0595	1392415	keystroke	r	n/a
696.312	0.105	1392624	keystroke	o	n/a
696.657	0.12	1393314	keystroke	c	n/a
696.792	0.105	1393584	keystroke	u	n/a
697.0325	0.15	1394065	keystroke	r	n/a
697.2875	0.074	1394575	keystroke	m	n/a
697.3925	0.075	1394785	keystroke	e	n/a
697.872	0.06	1395744	keystroke	Key.backspace	n/a
698.022	0.0745	1396044	keystroke	Key.backspace	n/a
698.1275	0.089	1396255	keystroke	e	n/a
698.3365	0.106	1396673	keystroke	m	n/a
698.907	0.135	1397814	keystroke	e	n/a
699.0725	0.0895	1398145	keystroke	n	n/a
699.237	0.105	1398474	keystroke	t	n/a
699.537	0.1055	1399074	keystroke	Key.space	n/a
700.092	0.105	1400184	keystroke	a	n/a
700.347	0.105	1400694	keystroke	m	n/a
700.5575	0.1495	1401115	keystroke	o	n/a
700.6165	0.181	1401233	keystroke	n	n/a
700.812	0.075	1401624	keystroke	g	n/a
701.037	0.105	1402074	keystroke	s	n/a
701.3675	0.1045	1402735	keystroke	t	n/a
701.8915	0.1355	1403783	keystroke	Key.space	n/a
702.117	0.09	1404234	keystroke	c	n/a
702.447	0.09	1404894	keystroke	a	n/a
702.567	0.135	1405134	keystroke	l	n/a
703.032	0.0755	1406064	keystroke	c	n/a
703.2125	0.075	1406425	keystroke	u	n/a
703.6025	0.105	1407205	keystroke	l	n/a
703.6625	0.105	1407325	keystroke	a	n/a
703.932	0.075	1407864	keystroke	t	n/a
704.007	0.15	1408014	keystroke	i	n/a
704.052	0.15	1408104	keystroke	o	n/a
704.187	0.12	1408374	keystroke	n	n/a
704.322	0.12	1408644	keystroke	s	n/a
705.447	0.075	1410894	keystroke	Key.backspace	n/a
705.8525	0.089	1411705	keystroke	Key.enter	n/a
705.9475	14.4265	1411895	prompt	n/a	making debt resulting efficient\n
707.007	0.105	1414014	keystroke	m	n/a
707.157	0.0905	1414314	keystroke	a	n/a
707.292	0.09	1414584	keystroke	k	n/a
707.5165	0.151	1415033	keystroke	i	n/a
707.6375	0.135	1415275	keystroke	n	n/a
707.7425	0.119	1415485	keystroke	g	n/a
707.907	0.0905	1415814	keystroke	Key.space	n/a
708.1925	0.105	1416385	keystroke	d	n/a
708.4165	0.106	1416833	keystroke	e	n/a
708.7625	0.0895	1417525	keystroke	b	n/a
709.1665	0.1355	1418333	keystroke	t	n/a
709.3915	0.0905	1418783	keystroke	Key.space	n/a
709.6765	0.151	1419353	keystroke	r	n/a
709.8115	0.136	1419623	keystroke	e	n/a
710.307	0.1355	1420614	keystroke	s	n/a
710.4865	0.091	1420973	keystroke	u	n/a
710.8615	0.075	1421723	keystroke	l	n/a
711.0275	0.06	1422055	keystroke	t	n/a
711.1475	0.2545	1422295	keystroke	i	n/a
711.3575	0.15	1422715	keystroke	n	n/a
711.4625	0.105	1422925	keystroke	g	n/a
712.017	0.0905	1424034	keystroke	Key.space	n/a
712.3915	0.105	1424783	keystroke	e	n/a
712.7225	0.0595	1425445	keystroke	f	n/a
712.962	0.015	1425924	keystroke	f	n/a
713.097	0.06	1426194	keystroke	i	n/a
713.307	0.105	1426614	keystroke	c	n/a
713.667	0.09	1427334	keystroke	e	n/a
713.8025	0.1345	1427605	keystroke	i	n/a
714.342	0.045	1428684	keystroke	=	n/a
714.477	0.0755	1428954	keystroke	=	n/a
714.7175	0.0895	1429435	keystroke	i	n/a
715.1365	0.09	1430273	keystroke	Key.backspace	n/a
715.3615	0.045	1430723	keystroke	Key.backspace	n/a
715.5415	0.031	1431083	keystroke	Key.backspace	n/a
715.6775	0.059	1431355	keystroke	Key.backspace	n/a
715.8715	0.0605	1431743	keystroke	Key.backspace	n/a
716.7275	0.104	1433455	keystroke	i	n/a
716.8915	0.0455	1433783	keystroke	e	n/a
716.982	0.1355	1433964	keystroke	n	n/a
717.4775	0.104	1434955	keystroke	c	n/a
717.6865	0.075	1435373	keystroke	y	n/a
718.8865	0.1055	1437773	keystroke	Key.backspace	n/a
719.1865	0.106	1438373	keystroke	t	n/a
720.297	0.0755	1440594	keystroke	Key.enter	n/a
720.3795	21.759	1440759	prompt	n/a	galaxy silent young provided\n
722.082	0.1355	1444164	keystroke	g	n/a
722.292	0.0895	1444584	keystroke	a	n/a
722.442	0.1355	1444884	keystroke	l	n/a
722.5615	0.091	1445123	keystroke	a	n/a
722.8775	0.1495	1445755	keystroke	z	n/a
723.0565	0.1355	1446113	keystroke	y	n/a
723.582	0.135	1447164	keystroke	Key.space	n/a
723.7475	0.119	1447495	keystroke	s	n/a
724.0915	0.12	1448183	keystroke	i	n/a
724.3775	0.15	1448755	keystroke	l	n/a
724.5125	0.1045	1449025	keystroke	e	n/a
724.647	0.09	1449294	keystroke	n	n/a
724.767	0.1205	1449534	keystroke	t	n/a
724.9165	0.12	1449833	keystroke	Key.space	n/a
725.1275	0.1645	1450255	keystroke	y	n/a
725.3525	0.1195	1450705	keystroke	o	n/a
725.413	0.1045	1450826	keystroke	u	n/a
725.652	0.135	1451304	keystroke	n	n/a
725.787	0.12	1451574	keystroke	g	n/a
726.252	0.09	1452504	keystroke	Key.space	n/a
726.5675	0.1345	1453135	keystroke	p	n/a
726.747	0.12	1453494	keystroke	r	n/a
726.8525	0.1195	1453705	keystroke	o	n/a
727.2725	0.089	1454545	keystroke	v	n/a
727.3775	0.1195	1454755	keystroke	i	n/a
727.797	0.1345	1455594	keystroke	d	n/a
730.3485	0.0435	1460697	keystroke	Key.backspace	n/a
730.5565	0.0605	1461113	keystroke	Key.backspace	n/a
730.8115	0.09	1461623	keystroke	Key.backspace	n/a
731.0515	0.0905	1462103	keystroke	Key.backspace	n/a
731.3065	0.075	1462613	keystroke	Key.backspace	n/a
731.547	0.075	1463094	keystroke	Key.backspace	n/a
731.787	0.075	1463574	keystroke	Key.backspace	n/a
732.0415	0.09	1464083	keystroke	Key.backspace	n/a
732.297	0.1055	1464594	keystroke	Key.backspace	n/a
732.5665	0.075	1465133	keystroke	Key.backspace	n/a
732.822	0.0895	1465644	keystroke	Key.backspace	n/a
733.0615	0.09	1466123	keystroke	Key.backspace	n/a
733.317	0.09	1466634	keystroke	Key.backspace	n/a
733.602	0.075	1467204	keystroke	Key.backspace	n/a
733.887	0.0905	1467774	keystroke	Key.backspace	n/a
734.1725	0.075	1468345	keystroke	Key.backspace	n/a
734.4115	0.09	1468823	keystroke	Key.backspace	n/a
734.6815	0.075	1469363	keystroke	Key.backspace	n/a
734.9065	0.075	1469813	keystroke	Key.backspace	n/a
735.1315	0.075	1470263	keystroke	Key.backspace	n/a
735.372	0.1045	1470744	keystroke	Key.backspace	n/a
735.672	0.075	1471344	keystroke	Key.backspace	n/a
735.9425	0.105	1471885	keystroke	x	n/a
736.647	0.09	1473294	keystroke	y	n/a
736.827	0.12	1473654	keystroke	Key.space	n/a
737.307	0.105	1474614	keystroke	s	n/a
737.472	0.0905	1474944	keystroke	i	n/a
737.712	0.12	1475424	keystroke	l	n/a
737.848	0.1045	1475696	keystroke	e	n/a
737.937	0.105	1475874	keystroke	n	n/a
738.087	0.105	1476174	keystroke	t	n/a
738.2525	0.1045	1476505	keystroke	Key.space	n/a
738.522	0.15	1477044	keystroke	y	n/a
738.8075	0.06	1477615	keystroke	o	n/a
738.8215	0.09	1477643	keystroke	u	n/a
739.0475	0.119	1478095	keystroke	n	n/a
739.1525	0.15	1478305	keystroke	g	n/a
739.4815	0.106	1478963	keystroke	Key.space	n/a
739.842	0.1505	1479684	keystroke	p	n/a
740.0525	0.135	1480105	keystroke	r	n/a
740.217	0.1205	1480434	keystroke	o	n/a
740.5025	0.12	1481005	keystroke	v	n/a
740.6825	0.09	1481365	keystroke	i	n/a
741.0125	0.074	1482025	keystroke	d	n/a
741.2675	0.045	1482535	keystroke	e	n/a
741.5525	0.075	1483105	keystroke	d	n/a
742.0475	0.089	1484095	keystroke	Key.enter	n/a
742.143	11.0205	1484286	prompt	n/a	cited resume prevent loans\n
743.082	0.12	1486164	keystroke	c	n/a
743.277	0.105	1486554	keystroke	i	n/a
743.607	0.09	1487214	keystroke	t	n/a
743.832	0.09	1487664	keystroke	e	n/a
744.117	0.09	1488234	keystroke	d	n/a
744.312	0.0905	1488624	keystroke	Key.space	n/a
744.7925	0.15	1489585	keystroke	r	n/a
744.9115	0.1055	1489823	keystroke	e	n/a
745.2275	0.104	1490455	keystroke	s	n/a
745.408	0.0885	1490816	keystroke	u	n/a
745.692	0.105	1491384	keystroke	m	n/a
745.842	0.09	1491684	keystroke	e	n/a
746.322	0.09	1492644	keystroke	Key.space	n/a
746.607	0.1205	1493214	keystroke	p	n/a
746.892	0.135	1493784	keystroke	r	n/a
747.237	0.0905	1494474	keystroke	e	n/a
747.597	0.1055	1495194	keystroke	v	n/a
747.8525	0.1045	1495705	keystroke	e	n/a
748.0775	0.0745	1496155	keystroke	n	n/a
748.287	0.015	1496574	keystroke	t	n/a
750.704	0.028	1501408	keystroke	Key.space	n/a
751.0465	0.1355	1502093	keystroke	l	n/a
751.302	0.09	1502604	keystroke	o	n/a
751.4965	0.09	1502993	keystroke	a	n/a
751.6465	0.106	1503293	keystroke	n	n/a
752.652	0.1045	1505304	keystroke	s	n/a
753.0415	0.1205	1506083	keystroke	Key.enter	n/a
753.167	11.173	1506334	prompt	n/a	plants output military dentists\n
754.1815	0.105	1508363	keystroke	p	n/a
754.527	0.135	1509054	keystroke	l	n/a
754.797	0.1055	1509594	keystroke	a	n/a
754.962	0.105	1509924	keystroke	n	n/a
755.3825	0.12	1510765	keystroke	t	n/a
755.8325	0.09	1511665	keystroke	s	n/a
756.4025	0.104	1512805	keystroke	Key.space	n/a
756.6565	0.196	1513313	keystroke	o	n/a
756.927	0.1205	1513854	keystroke	u	n/a
757.1225	0.09	1514245	keystroke	t	n/a
757.392	0.135	1514784	keystroke	p	n/a
757.5425	0.1345	1515085	keystroke	u	n/a
757.8115	0.1205	1515623	keystroke	t	n/a
758.007	0.105	1516014	keystroke	Key.space	n/a
758.427	0.105	1516854	keystroke	m	n/a
758.697	0.105	1517394	keystroke	i	n/a
758.9675	0.1195	1517935	keystroke	l	n/a
759.207	0.12	1518414	keystroke	i	n/a
759.387	0.135	1518774	keystroke	t	n/a
759.612	0.12	1519224	keystroke	a	n/a
759.7775	0.0745	1519555	keystroke	r	n/a
759.942	0.15	1519884	keystroke	y	n/a
760.6025	0.1345	1521205	keystroke	Key.space	n/a
760.857	0.1055	1521714	keystroke	d	n/a
761.0815	0.075	1522163	keystroke	e	n/a
761.1865	0.1055	1522373	keystroke	n	n/a
761.547	0.0895	1523094	keystroke	i	n/a
761.9515	0.09	1523903	keystroke	Key.backspace	n/a
762.0725	0.0745	1524145	keystroke	t	n/a
762.2225	0.1195	1524445	keystroke	i	n/a
762.387	0.12	1524774	keystroke	s	n/a
762.732	0.09	1525464	keystroke	t	n/a
763.0015	0.136	1526003	keystroke	s	n/a
764.2475	0.09	1528495	keystroke	Key.enter	n/a
764.35	11.344	1528700	prompt	n/a	specially hepatitis afterwards sight\n
765.1315	0.1205	1530263	keystroke	s	n/a
765.372	0.105	1530744	keystroke	p	n/a
765.4925	0.089	1530985	keystroke	e	n/a
765.8065	0.1205	1531613	keystroke	c	n/a
765.9415	0.106	1531883	keystroke	i	n/a
766.2115	0.1055	1532423	keystroke	a	n/a
766.377	0.0905	1532754	keystroke	l	n/a
766.527	0.12	1533054	keystroke	l	n/a
766.8565	0.1805	1533713	keystroke	y	n/a
766.962	0.165	1533924	keystroke	Key.space	n/a
767.3975	0.0895	1534795	keystroke	h	n/a
767.547	0.105	1535094	keystroke	e	n/a
768.087	0.105	1536174	keystroke	p	n/a
768.267	0.105	1536534	keystroke	a	n/a
768.536	0.106	1537072	keystroke	t	n/a
768.657	0.135	1537314	keystroke	i	n/a
769.092	0.0895	1538184	keystroke	t	n/a
769.2115	0.0905	1538423	keystroke	i	n/a
769.4675	0.135	1538935	keystroke	s	n/a
769.8565	0.09	1539713	keystroke	Key.space	n/a
770.397	0.105	1540794	keystroke	a	n/a
770.697	0.15	1541394	keystroke	f	n/a
771.072	0.105	1542144	keystroke	t	n/a
771.4175	0.164	1542835	keystroke	e	n/a
771.537	0.1055	1543074	keystroke	r	n/a
772.122	0.1205	1544244	keystroke	w	n/a
772.332	0.1495	1544664	keystroke	a	n/a
772.752	0.1495	1545504	keystroke	r	n/a
773.2025	0.135	1546405	keystroke	d	n/a
773.4725	0.09	1546945	keystroke	s	n/a
773.952	0.1195	1547904	keystroke	Key.space	n/a
774.327	0.1205	1548654	keystroke	s	n/a
774.4625	0.135	1548925	keystroke	i	n/a
774.6425	0.119	1549285	keystroke	g	n/a
774.7775	0.104	1549555	keystroke	h	n/a
775.0325	0.104	1550065	keystroke	t	n/a
775.5425	0.15	1551085	keystroke	Key.enter	n/a
775.6975	8.951	1551395	prompt	n/a	imperial jeff rational beef\n
776.562	0.15	1553124	keystroke	i	n/a
776.817	0.06	1553634	keystroke	n	n/a
777.432	0.09	1554864	keystroke	Key.backspace	n/a
777.6875	0.0895	1555375	keystroke	m	n/a
778.002	0.1505	1556004	keystroke	p	n/a
778.212	0.1805	1556424	keystroke	e	n/a
778.3625	0.1495	1556725	keystroke	r	n/a
778.497	0.105	1556994	keystroke	i	n/a
778.7215	0.106	1557443	keystroke	a	n/a
778.8865	0.091	1557773	keystroke	l	n/a
779.1875	0.105	1558375	keystroke	Key.space	n/a
779.4565	0.121	1558913	keystroke	j	n/a
779.5615	0.091	1559123	keystroke	e	n/a
780.0865	0.0905	1560173	keystroke	f	n/a
780.282	0.105	1560564	keystroke	f	n/a
780.612	0.075	1561224	keystroke	Key.space	n/a
781.0475	0.1945	1562095	keystroke	r	n/a
781.227	0.1205	1562454	keystroke	a	n/a
781.467	0.1205	1562934	keystroke	t	n/a
781.632	0.18	1563264	keystroke	i	n/a
781.722	0.135	1563444	keystroke	o	n/a
781.7975	0.1045	1563595	keystroke	n	n/a
781.9175	0.1045	1563835	keystroke	a	n/a
782.0675	0.12	1564135	keystroke	l	n/a
782.3065	0.106	1564613	keystroke	Key.space	n/a
783.327	0.1055	1566654	keystroke	b	n/a
783.6125	0.09	1567225	keystroke	e	n/a
783.8075	0.09	1567615	keystroke	e	n/a
784.0015	0.166	1568003	keystroke	f	n/a
784.4975	0.15	1568995	keystroke	Key.enter	n/a
784.6525	14.126	1569305	prompt	n/a	directory anger nursing dame\n
785.592	0.09	1571184	keystroke	d	n/a
785.727	0.12	1571454	keystroke	i	n/a
785.997	0.151	1571994	keystroke	r	n/a
786.117	0.135	1572234	keystroke	e	n/a
786.5675	0.089	1573135	keystroke	c	n/a
787.0175	0.119	1574035	keystroke	t	n/a
787.2115	0.1355	1574423	keystroke	o	n/a
787.3315	0.03	1574663	keystroke	r	n/a
787.707	0.151	1575414	keystroke	y	n/a
787.917	0.15	1575834	keystroke	Key.space	n/a
788.3225	0.1345	1576645	keystroke	a	n/a
788.472	0.135	1576944	keystroke	n	n/a
789.207	0.1055	1578414	keystroke	n	n/a
789.4025	0.105	1578805	keystroke	g	n/a
789.9425	0.0595	1579885	keystroke	Key.backspace	n/a
790.1365	0.0905	1580273	keystroke	Key.backspace	n/a
790.3025	0.104	1580605	keystroke	g	n/a
790.5425	0.194	1581085	keystroke	e	n/a
790.7065	0.121	1581413	keystroke	r	n/a
791.2465	0.1205	1582493	keystroke	Key.space	n/a
791.7715	0.075	1583543	keystroke	n	n/a
792.102	0.105	1584204	keystroke	u	n/a
792.402	0.1205	1584804	keystroke	r	n/a
792.7475	0.089	1585495	keystroke	s	n/a
792.852	0.165	1585704	keystroke	i	n/a
792.972	0.165	1585944	keystroke	n	n/a
793.167	0.105	1586334	keystroke	g	n/a
793.587	0.045	1587174	keystroke	Key.space	n/a
794.1725	0.12	1588345	keystroke	d	n/a
794.4565	0.076	1588913	keystroke	a	n/a
794.6525	0.105	1589305	keystroke	m	n/a
794.8475	0.0595	1589695	keystroke	e	n/a
798.7335	0.044	1597467	keystroke	Key.enter	n/a
798.7825	15.1165	1597565	prompt	n/a	exact threshold term conditions\n
801.6295	0.0275	1603259	keystroke	e	n/a
801.9425	0.105	1603885	keystroke	x	n/a
802.302	0.0905	1604604	keystroke	a	n/a
802.827	0.09	1605654	keystroke	c	n/a
803.202	0.1205	1606404	keystroke	t	n/a
803.8925	0.1345	1607785	keystroke	Key.space	n/a
804.2975	0.12	1608595	keystroke	t	n/a
804.492	0.15	1608984	keystroke	h	n/a
804.612	0.12	1609224	keystroke	r	n/a
804.807	0.1205	1609614	keystroke	e	n/a
805.0475	0.074	1610095	keystroke	s	n/a
805.3175	0.105	1610635	keystroke	h	n/a
805.4975	0.09	1610995	keystroke	o	n/a
805.7675	0.1345	1611535	keystroke	l	n/a
806.052	0.1055	1612104	keystroke	d	n/a
806.3225	0.074	1612645	keystroke	Key.space	n/a
806.7725	0.12	1613545	keystroke	t	n/a
807.0275	0.1795	1614055	keystroke	e	n/a
807.1475	0.1345	1614295	keystroke	r	n/a
807.357	0.1055	1614714	keystroke	m	n/a
807.6425	0.0895	1615285	keystroke	Key.space	n/a
807.957	0.12	1615914	keystroke	c	n/a
808.0475	0.165	1616095	keystroke	o	n/a
808.197	0.1205	1616394	keystroke	n	n/a
808.3925	0.1345	1616785	keystroke	d	n/a
808.482	0.0755	1616964	keystroke	i	n/a
809.1265	0.1205	1618253	keystroke	t	n/a
809.292	0.285	1618584	keystroke	i	n/a
809.4125	0.18	1618825	keystroke	o	n/a
809.532	0.136	1619064	keystroke	n	n/a
809.982	0.12	1619964	keystroke	s	n/a
813.8245	0.073	1627649	keystroke	Key.enter	n/a
813.904	10.63	1627808	prompt	n/a	bradley arctic wins utah\n
814.7825	0.15	1629565	keystroke	b	n/a
815.2315	0.136	1630463	keystroke	r	n/a
815.4125	0.119	1630825	keystroke	a	n/a
815.8175	0.09	1631635	keystroke	d	n/a
816.732	0.1505	1633464	keystroke	l	n/a
816.8825	0.12	1633765	keystroke	e	n/a
817.1825	0.165	1634365	keystroke	y	n/a
817.3625	0.1345	1634725	keystroke	Key.space	n/a
818.6525	0.09	1637305	keystroke	c	n/a
819.4025	0.105	1638805	keystroke	a	n/a
819.6875	0.0445	1639375	keystroke	Key.backspace	n/a
819.9725	0.0895	1639945	keystroke	Key.backspace	n/a
820.182	0.12	1640364	keystroke	a	n/a
820.3475	0.1495	1640695	keystroke	r	n/a
820.7675	0.105	1641535	keystroke	c	n/a
821.113	0.105	1642226	keystroke	t	n/a
821.247	0.105	1642494	keystroke	i	n/a
821.502	0.135	1643004	keystroke	c	n/a
821.787	0.0755	1643574	keystroke	Key.space	n/a
822.2675	0.1345	1644535	keystroke	w	n/a
822.418	0.164	1644836	keystroke	i	n/a
822.552	0.135	1645104	keystroke	n	n/a
822.7175	0.12	1645435	keystroke	s	n/a
822.987	0.0755	1645974	keystroke	Key.space	n/a
823.393	0.1045	1646786	keystroke	u	n/a
823.693	0.1045	1647386	keystroke	t	n/a
823.8425	0.1195	1647685	keystroke	a	n/a
824.007	0.12	1648014	keystroke	h	n/a
824.4125	0.12	1648825	keystroke	Key.enter	n/a
824.5385	8.8005	1649077	prompt	n/a	oval weapon are occurrence\n
825.4925	0.12	1650985	keystroke	o	n/a
825.8675	0.1495	1651735	keystroke	v	n/a
826.183	0.074	1652366	keystroke	a	n/a
826.2725	0.1345	1652545	keystroke	l	n/a
826.512	0.06	1653024	keystroke	Key.space	n/a
826.782	0.1805	1653564	keystroke	w	n/a
826.9475	0.12	1653895	keystroke	a	n/a
827.5925	0.059	1655185	keystroke	Key.backspace	n/a
827.6975	0.165	1655395	keystroke	e	n/a
827.8475	0.15	1655695	keystroke	a	n/a
828.537	0.12	1657074	keystroke	p	n/a
828.7775	0.1795	1657555	keystroke	o	n/a
828.8975	0.09	1657795	keystroke	n	n/a
829.2565	0.091	1658513	keystroke	Key.space	n/a
829.5575	0.1345	1659115	keystroke	a	n/a
829.677	0.18	1659354	keystroke	r	n/a
829.8725	0.1345	1659745	keystroke	e	n/a
830.0225	0.0895	1660045	keystroke	Key.space	n/a
830.6225	0.0445	1661245	keystroke	o	n/a
830.817	0.0595	1661634	keystroke	c	n/a
830.9815	0.091	1661963	keystroke	c	n/a
831.1625	0.119	1662325	keystroke	u	n/a
831.4315	0.091	1662863	keystroke	r	n/a
831.7165	0.016	1663433	keystroke	r	n/a
831.8065	0.121	1663613	keystroke	e	n/a
831.972	0.1055	1663944	keystroke	n	n/a
832.3025	0.104	1664605	keystroke	c	n/a
832.6325	0.1495	1665265	keystroke	e	n/a
833.2025	0.135	1666405	keystroke	Key.enter	n/a
833.343	16.871	1666686	prompt	n/a	illinois accepted enrollment remedy\n
835.1375	0.075	1670275	keystroke	i	n/a
835.5425	0.12	1671085	keystroke	l	n/a
835.7225	0.12	1671445	keystroke	l	n/a
836.217	0.15	1672434	keystroke	i	n/a
837.3425	0.105	1674685	keystroke	n	n/a
837.6265	0.1955	1675253	keystroke	o	n/a
837.7625	0.164	1675525	keystroke	i	n/a
838.093	0.1195	1676186	keystroke	s	n/a
838.2865	0.076	1676573	keystroke	Key.space	n/a
838.7975	0.09	1677595	keystroke	a	n/a
839.1125	0.09	1678225	keystroke	c	n/a
839.2775	0.09	1678555	keystroke	c	n/a
839.5625	0.135	1679125	keystroke	e	n/a
839.8025	0.18	1679605	keystroke	p	n/a
839.9515	0.181	1679903	keystroke	t	n/a
840.282	0.105	1680564	keystroke	e	n/a
840.5675	0.1045	1681135	keystroke	d	n/a
840.7175	0.1045	1681435	keystroke	Key.space	n/a
841.2415	0.12	1682483	keystroke	e	n/a
841.4375	0.075	1682875	keystroke	n	n/a
841.7825	0.164	1683565	keystroke	r	n/a
841.992	0.0755	1683984	keystroke	o	n/a
842.4725	0.09	1684945	keystroke	l	n/a
842.6375	0.1345	1685275	keystroke	l	n/a
842.922	0.09	1685844	keystroke	m	n/a
843.043	0.104	1686086	keystroke	e	n/a
843.177	0.09	1686354	keystroke	n	n/a
843.3125	0.1195	1686625	keystroke	t	n/a
843.507	0.06	1687014	keystroke	Key.space	n/a
844.422	0.1945	1688844	keystroke	r	n/a
844.6025	0.135	1689205	keystroke	e	n/a
844.9925	0.12	1689985	keystroke	d	n/a
845.577	0.09	1691154	keystroke	Key.backspace	n/a
845.877	0.1055	1691754	keystroke	n	n/a
846.072	0.075	1692144	keystroke	e	n/a
846.4025	0.06	1692805	keystroke	d	n/a
846.6425	0.1795	1693285	keystroke	y	n/a
847.497	0.105	1694994	keystroke	Key.backspace	n/a
847.737	0.0755	1695474	keystroke	Key.backspace	n/a
847.947	0.075	1695894	keystroke	Key.backspace	n/a
848.157	0.09	1696314	keystroke	Key.backspace	n/a
848.997	0.105	1697994	keystroke	m	n/a
849.1325	0.0895	1698265	keystroke	e	n/a
849.387	0.09	1698774	keystroke	d	n/a
849.5375	0.1055	1699075	keystroke	y	n/a
850.092	0.12	1700184	keystroke	Key.enter	n/a
850.2215	9.2475	1700443	prompt	n/a	unless disclaimers organize enables\n
851.0215	0.0755	1702043	keystroke	u	n/a
851.2765	0.075	1702553	keystroke	n	n/a
851.4875	0.134	1702975	keystroke	l	n/a
851.5925	0.089	1703185	keystroke	e	n/a
851.8015	0.075	1703603	keystroke	s	n/a
851.9815	0.0905	1703963	keystroke	s	n/a
852.1315	0.105	1704263	keystroke	Key.space	n/a
852.5675	0.12	1705135	keystroke	d	n/a
852.7175	0.09	1705435	keystroke	i	n/a
852.8225	0.09	1705645	keystroke	s	n/a
853.122	0.0905	1706244	keystroke	c	n/a
853.272	0.135	1706544	keystroke	l	n/a
853.572	0.09	1707144	keystroke	a	n/a
853.7225	0.104	1707445	keystroke	i	n/a
853.9765	0.105	1707953	keystroke	m	n/a
854.2015	0.1205	1708403	keystroke	e	n/a
854.2925	0.12	1708585	keystroke	r	n/a
854.5625	0.1495	1709125	keystroke	s	n/a
854.9825	0.119	1709965	keystroke	Key.space	n/a
855.2225	0.179	1710445	keystroke	o	n/a
855.3875	0.104	1710775	keystroke	r	n/a
855.6425	0.134	1711285	keystroke	g	n/a
855.822	0.1045	1711644	keystroke	a	n/a
855.897	0.1355	1711794	keystroke	n	n/a
856.0625	0.119	1712125	keystroke	i	n/a
856.4375	0.105	1712875	keystroke	z	n/a
856.6925	0.135	1713385	keystroke	e	n/a
856.947	0.0595	1713894	keystroke	Key.space	n/a
857.2625	0.1045	1714525	keystroke	e	n/a
857.4275	0.104	1714855	keystroke	n	n/a
857.6815	0.136	1715363	keystroke	a	n/a
858.147	0.1655	1716294	keystroke	b	n/a
858.4765	0.136	1716953	keystroke	l	n/a
858.6425	0.104	1717285	keystroke	e	n/a
858.9425	0.119	1717885	keystroke	s	n/a
859.3625	0.104	1718725	keystroke	Key.enter	n/a
859.473	8.696	1718946	prompt	n/a	current situation claims taken\n
860.4125	0.045	1720825	keystroke	c	n/a
860.7425	0.0895	1721485	keystroke	u	n/a
861.207	0.045	1722414	keystroke	r	n/a
