onset	duration	sample	value	key	prompt_text
1.991	11.511	3982	prompt	n/a	the quick brown fox jumps over a lazy dog\n
3.7685	0.092	7537	keystroke_t	t	n/a
3.7915	0.071	7583	keystroke_h	h	n/a
3.9535	0.138	7907	keystroke_e	e	n/a
4.0445	0.138	8089	keystroke_Key.space	Key.space	n/a
4.325	0.1145	8650	keystroke_q	q	n/a
4.4635	0.092	8927	keystroke_u	u	n/a
4.6585	0.07	9317	keystroke_i	i	n/a
4.7815	0.136	9563	keystroke_c	c	n/a
4.8725	0.09	9745	keystroke_k	k	n/a
5.0555	0.1385	10111	keystroke_Key.space	Key.space	n/a
5.8635	0.093	11727	keystroke_b	b	n/a
5.9885	0.0905	11977	keystroke_r	r	n/a
6.101	0.091	12202	keystroke_o	o	n/a
6.214	0.14	12428	keystroke_w	w	n/a
6.33	0.071	12660	keystroke_n	n	n/a
6.4875	0.114	12975	keystroke_Key.space	Key.space	n/a
6.6575	0.0915	13315	keystroke_f	f	n/a
6.7805	0.1135	13561	keystroke_o	o	n/a
7.731	0.139	15462	keystroke_x	x	n/a
7.9095	0.137	15819	keystroke_Key.space	Key.space	n/a
8.1965	0.092	16393	keystroke_j	j	n/a
8.3935	0.069	16787	keystroke_u	u	n/a
8.7095	0.093	17419	keystroke_p	p	n/a
8.8335	0.092	17667	keystroke_s	s	n/a
8.9825	0.2035	17965	keystroke_Key.space	Key.space	n/a
9.142	0.112	18284	keystroke_o	o	n/a
9.231	0.091	18462	keystroke_v	v	n/a
9.4045	0.092	18809	keystroke_e	e	n/a
9.5735	0.094	19147	keystroke_r	r	n/a
9.6695	0.115	19339	keystroke_Key.space	Key.space	n/a
9.7615	0.1595	19523	keystroke_a	a	n/a
9.872	0.1165	19744	keystroke_Key.space	Key.space	n/a
10.4385	0.142	20877	keystroke_l	l	n/a
10.646	0.093	21292	keystroke_z	z	n/a
11.821	0.093	23642	keystroke_Key.backspace	Key.backspace	n/a
12.015	0.091	24030	keystroke_a	a	n/a
12.246	0.114	24492	keystroke_z	z	n/a
12.461	0.095	24922	keystroke_y	y	n/a
12.532	0.138	25064	keystroke_Key.space	Key.space	n/a
12.769	0.137	25538	keystroke_d	d	n/a
12.907	0.112	25814	keystroke_o	o	n/a
13.144	0.116	26288	keystroke_g	g	n/a
13.407	0.092	26814	keystroke_Key.enter	Key.enter	n/a
13.5065	7.243	27013	prompt	n/a	confidence value alerts medicare\n
14.3615	0.116	28723	keystroke_c	c	n/a
14.4785	0.067	28957	keystroke_o	o	n/a
14.6195	0.0915	29239	keystroke_n	n	n/a
14.817	0.139	29634	keystroke_f	f	n/a
14.932	0.116	29864	keystroke_i	i	n/a
15.091	0.068	30182	keystroke_d	d	n/a
15.268	0.114	30536	keystroke_e	e	n/a
15.404	0.0675	30808	keystroke_n	n	n/a
15.494	0.1175	30988	keystroke_c	c	n/a
15.5635	0.117	31127	keystroke_e	e	n/a
15.6815	0.136	31363	keystroke_Key.space	Key.space	n/a
16.417	0.115	32834	keystroke_v	v	n/a
16.486	0.138	32972	keystroke_a	a	n/a
16.646	0.094	33292	keystroke_l	l	n/a
16.878	0.091	33756	keystroke_u	u	n/a
16.991	0.092	33982	keystroke_e	e	n/a
17.106	0.115	34212	keystroke_Key.space	Key.space	n/a
17.5695	0.116	35139	keystroke_a	a	n/a
17.6875	0.111	35375	keystroke_l	l	n/a
17.8435	0.067	35687	keystroke_r	r	n/a
18.361	0.114	36722	keystroke_Key.backspace	Key.backspace	n/a
18.4985	0.093	36997	keystroke_e	e	n/a
18.6755	0.1395	37351	keystroke_r	r	n/a
18.9225	0.094	37845	keystroke_t	t	n/a
19.1405	0.1155	38281	keystroke_s	s	n/a
19.278	0.137	38556	keystroke_Key.space	Key.space	n/a
19.5965	0.116	39193	keystroke_m	m	n/a
19.7365	0.069	39473	keystroke_e	e	n/a
19.9075	0.115	39815	keystroke_d	d	n/a
19.9985	0.116	39997	keystroke_i	i	n/a
20.0905	0.117	40181	keystroke_c	c	n/a
20.2085	0.092	40417	keystroke_a	a	n/a
20.3335	0.093	40667	keystroke_r	r	n/a
20.5165	0.139	41033	keystroke_e	e	n/a
20.6565	0.091	41313	keystroke_Key.enter	Key.enter	n/a
20.753	11.1305	41506	prompt	n/a	connection personal trace provinces\n
21.471	0.115	42942	keystroke_c	c	n/a
21.587	0.07	43174	keystroke_o	o	n/a
21.737	0.07	43474	keystroke_n	n	n/a
21.882	0.092	43764	keystroke_n	n	n/a
21.951	0.069	43902	keystroke_e	e	n/a
22.146	0.112	44292	keystroke_c	c	n/a
22.35	0.1185	44700	keystroke_t	t	n/a
22.397	0.0935	44794	keystroke_i	i	n/a
22.5705	0.048	45141	keystroke_o	o	n/a
22.728	0.092	45456	keystroke_n	n	n/a
22.914	0.14	45828	keystroke_Key.space	Key.space	n/a
22.983	0.1375	45966	keystroke_p	p	n/a
23.1215	0.09	46243	keystroke_e	e	n/a
23.2635	0.091	46527	keystroke_r	r	n/a
23.453	0.114	46906	keystroke_s	s	n/a
23.59	0.047	47180	keystroke_o	o	n/a
23.725	0.07	47450	keystroke_m	m	n/a
23.796	0.113	47592	keystroke_a	a	n/a
23.91	0.069	47820	keystroke_;	;	n/a
24.01	0.115	48020	keystroke_Key.space	Key.space	n/a
24.413	0.0915	48826	keystroke_Key.backspace	Key.backspace	n/a
24.5595	0.07	49119	keystroke_Key.backspace	Key.backspace	n/a
24.711	0.0695	49422	keystroke_Key.backspace	Key.backspace	n/a
24.8355	0.092	49671	keystroke_Key.backspace	Key.backspace	n/a
25.1375	0.069	50275	keystroke_n	n	n/a
25.2665	0.136	50533	keystroke_a	a	n/a
25.3795	0.068	50759	keystroke_;	;	n/a
25.5245	0.117	51049	keystroke_Key.space	Key.space	n/a
25.7145	0.071	51429	keystroke_r	r	n/a
25.9975	0.0695	51995	keystroke_Key.backspace	Key.backspace	n/a
26.142	0.069	52284	keystroke_Key.backspace	Key.backspace	n/a
26.281	0.09	52562	keystroke_Key.backspace	Key.backspace	n/a
26.539	0.0695	53078	keystroke_l	l	n/a
26.748	0.0905	53496	keystroke_Key.space	Key.space	n/a
26.9955	0.048	53991	keystroke_t	t	n/a
27.145	0.115	54290	keystroke_r	r	n/a
27.261	0.1545	54522	keystroke_a	a	n/a
27.3925	0.138	54785	keystroke_c	c	n/a
27.4835	0.14	54967	keystroke_e	e	n/a
27.6445	0.0925	55289	keystroke_Key.space	Key.space	n/a
28.441	0.1595	56882	keystroke_p	p	n/a
28.6815	0.1145	57363	keystroke_r	r	n/a
28.866	0.135	57732	keystroke_i	i	n/a
29.002	0.091	58004	keystroke_v	v	n/a
29.925	0.069	59850	keystroke_Key.backspace	Key.backspace	n/a
30.059	0.1165	60118	keystroke_Key.backspace	Key.backspace	n/a
30.8145	0.115	61629	keystroke_o	o	n/a
31.0915	0.069	62183	keystroke_v	v	n/a
31.1615	0.0675	62323	keystroke_i	i	n/a
31.312	0.092	62624	keystroke_n	n	n/a
31.405	0.092	62810	keystroke_c	c	n/a
31.4495	0.0945	62899	keystroke_e	e	n/a
31.658	0.118	63316	keystroke_s	s	n/a
31.813	0.069	63626	keystroke_Key.enter	Key.enter	n/a
31.888	12.779	63776	prompt	n/a	tone greatest semiconductor tracker\n
32.9115	0.069	65823	keystroke_t	t	n/a
32.9815	0.068	65963	keystroke_o	o	n/a
33.1385	0.071	66277	keystroke_n	n	n/a
33.2105	0.112	66421	keystroke_e	e	n/a
33.3445	0.0915	66689	keystroke_Key.space	Key.space	n/a
33.458	0.0915	66916	keystroke_g	g	n/a
33.6445	0.1145	67289	keystroke_r	r	n/a
33.876	0.1595	67752	keystroke_e	e	n/a
34.0765	0.1625	68153	keystroke_a	a	n/a
34.2605	0.18	68521	keystroke_t	t	n/a
34.5165	0.1145	69033	keystroke_e	e	n/a
34.755	0.094	69510	keystroke_s	s	n/a
35	0.138	70000	keystroke_t	t	n/a
35.303	0.134	70606	keystroke_Key.space	Key.space	n/a
35.703	0.096	71406	keystroke_s	s	n/a
35.863	0.138	71726	keystroke_e	e	n/a
36.023	0.0915	72046	keystroke_m	m	n/a
36.1955	0.1145	72391	keystroke_o	o	n/a
36.828	0.1125	73656	keystroke_Key.backspace	Key.backspace	n/a
37.769	0.114	75538	keystroke_i	i	n/a
38.871	0.136	77742	keystroke_c	c	n/a
38.982	0.1185	77964	keystroke_o	o	n/a
39.1965	0.116	78393	keystroke_n	n	n/a
39.6125	0.1165	79225	keystroke_d	d	n/a
40.133	0.1335	80266	keystroke_u	u	n/a
40.2675	0.07	80535	keystroke_c	c	n/a
40.5635	0.114	81127	keystroke_t	t	n/a
40.7495	0.114	81499	keystroke_o	o	n/a
41.296	0.113	82592	keystroke_r	r	n/a
41.807	0.158	83614	keystroke_Key.space	Key.space	n/a
42.211	0.113	84422	keystroke_t	t	n/a
42.409	0.093	84818	keystroke_r	r	n/a
42.525	0.138	85050	keystroke_a	a	n/a
42.796	0.1175	85592	keystroke_n	n	n/a
43.4575	0.114	86915	keystroke_Key.backspace	Key.backspace	n/a
43.6375	0.161	87275	keystroke_c	c	n/a
43.7295	0.137	87459	keystroke_e	e	n/a
43.8675	0.09	87735	keystroke_k	k	n/a
43.9895	0.092	87979	keystroke_e	e	n/a
44.1755	0.093	88351	keystroke_r	r	n/a
44.3475	0.09	88695	keystroke_Key.space	Key.space	n/a
44.5505	0.115	89101	keystroke_Key.enter	Key.enter	n/a
44.6705	13.9515	89341	prompt	n/a	doors spice ipod retreat\n
51.2335	0.1145	102467	keystroke_d	d	n/a
51.399	0.024	102798	keystroke_o	o	n/a
51.545	0.093	103090	keystroke_p	p	n/a
51.639	0.089	103278	keystroke_r	r	n/a
51.8525	0.116	103705	keystroke_s	s	n/a
52.039	0.0685	104078	keystroke_Key.backspace	Key.backspace	n/a
52.1725	0.071	104345	keystroke_Key.backspace	Key.backspace	n/a
52.3055	0.0945	104611	keystroke_Key.backspace	Key.backspace	n/a
52.927	0.0705	105854	keystroke_o	o	n/a
53.0325	0.091	106065	keystroke_r	r	n/a
53.2125	0.1375	106425	keystroke_s	s	n/a
53.327	0.1145	106654	keystroke_Key.space	Key.space	n/a
53.4435	0.1595	106887	keystroke_s	s	n/a
53.579	0.094	107158	keystroke_p	p	n/a
53.768	0.116	107536	keystroke_i	i	n/a
54.11	0.1605	108220	keystroke_c	c	n/a
54.224	0.1635	108448	keystroke_e	e	n/a
54.3625	0.1165	108725	keystroke_Key.space	Key.space	n/a
55.176	0.092	110352	keystroke_i	i	n/a
55.353	0.0685	110706	keystroke_p	p	n/a
55.5705	0.045	111141	keystroke_o	o	n/a
55.6775	0.113	111355	keystroke_d	d	n/a
55.7915	0.114	111583	keystroke_Key.space	Key.space	n/a
56.075	0.114	112150	keystroke_r	r	n/a
56.27	0.116	112540	keystroke_e	e	n/a
56.469	0.0905	112938	keystroke_t	t	n/a
56.6325	0.117	113265	keystroke_e	e	n/a
56.8455	0.115	113691	keystroke_r	r	n/a
57.157	0.092	114314	keystroke_Key.backspace	Key.backspace	n/a
57.298	0.1155	114596	keystroke_Key.backspace	Key.backspace	n/a
57.4145	0.09	114829	keystroke_r	r	n/a
57.5825	0.116	115165	keystroke_e	e	n/a
57.6745	0.138	115349	keystroke_a	a	n/a
57.7875	0.1125	115575	keystroke_t	t	n/a
58.461	0.159	116922	keystroke_Key.enter	Key.enter	n/a
58.627	11.542	117254	prompt	n/a	minimize intention change worst\n
59.506	0.114	119012	keystroke_m	m	n/a
59.697	0.069	119394	keystroke_i	i	n/a
59.846	0.0685	119692	keystroke_n	n	n/a
59.9855	0.07	119971	keystroke_i	i	n/a
60.1525	0.07	120305	keystroke_m	m	n/a
60.281	0.1835	120562	keystroke_z	z	n/a
60.4405	0.141	120881	keystroke_e	e	n/a
60.6195	0.113	121239	keystroke_Key.space	Key.space	n/a
61.112	0.093	122224	keystroke_i	i	n/a
61.2685	0.07	122537	keystroke_n	n	n/a
61.38	0.114	122760	keystroke_t	t	n/a
62.344	0.0695	124688	keystroke_Key.backspace	Key.backspace	n/a
62.5005	0.07	125001	keystroke_Key.backspace	Key.backspace	n/a
62.6505	0.09	125301	keystroke_Key.backspace	Key.backspace	n/a
62.799	0.046	125598	keystroke_Key.backspace	Key.backspace	n/a
62.877	0.092	125754	keystroke_Key.backspace	Key.backspace	n/a
63.0565	0.117	126113	keystroke_Key.backspace	Key.backspace	n/a
63.664	0.139	127328	keystroke_i	i	n/a
63.9305	0.1855	127861	keystroke_z	z	n/a
64.137	0.16	128274	keystroke_e	e	n/a
64.348	0.1405	128696	keystroke_Key.space	Key.space	n/a
64.4635	0.093	128927	keystroke_i	i	n/a
64.6375	0.0685	129275	keystroke_n	n	n/a
64.757	0.091	129514	keystroke_t	t	n/a
65.413	0.114	130826	keystroke_e	e	n/a
65.5285	0.067	131057	keystroke_n	n	n/a
65.66	0.139	131320	keystroke_t	t	n/a
65.751	0.094	131502	keystroke_i	i	n/a
65.973	0.0465	131946	keystroke_o	o	n/a
66.1385	0.047	132277	keystroke_n	n	n/a
66.3155	0.137	132631	keystroke_Key.space	Key.space	n/a
67.0795	0.118	134159	keystroke_c	c	n/a
67.1995	0.089	134399	keystroke_h	h	n/a
67.3215	0.1365	134643	keystroke_a	a	n/a
67.434	0.069	134868	keystroke_n	n	n/a
67.479	0.093	134958	keystroke_g	g	n/a
67.656	0.1145	135312	keystroke_e	e	n/a
67.7715	0.1325	135543	keystroke_Key.space	Key.space	n/a
68.2485	0.112	136497	keystroke_w	w	n/a
68.3835	0.068	136767	keystroke_o	o	n/a
68.4745	0.091	136949	keystroke_r	r	n/a
68.6305	0.0915	137261	keystroke_k	k	n/a
68.815	0.2305	137630	keystroke_s	s	n/a
68.9765	0.117	137953	keystroke_e	e	n/a
69.339	0.069	138678	keystroke_Key.backspace	Key.backspace	n/a
69.491	0.069	138982	keystroke_Key.backspace	Key.backspace	n/a
69.643	0.092	139286	keystroke_Key.backspace	Key.backspace	n/a
69.735	0.184	139470	keystroke_s	s	n/a
69.92	0.1335	139840	keystroke_t	t	n/a
70.0745	0.093	140149	keystroke_Key.enter	Key.enter	n/a
70.173	6.629	140346	prompt	n/a	staffing licensed in twist\n
71.0005	0.089	142001	keystroke_s	s	n/a
71.199	0.092	142398	keystroke_t	t	n/a
71.292	0.114	142584	keystroke_a	a	n/a
71.451	0.07	142902	keystroke_f	f	n/a
71.5955	0.093	143191	keystroke_f	f	n/a
71.7105	0.091	143421	keystroke_i	i	n/a
71.8655	0.0715	143731	keystroke_n	n	n/a
71.961	0.093	143922	keystroke_g	g	n/a
72.055	0.1325	144110	keystroke_Key.space	Key.space	n/a
72.2565	0.1345	144513	keystroke_l	l	n/a
72.516	0.136	145032	keystroke_i	i	n/a
72.737	0.1155	145474	keystroke_c	c	n/a
72.7825	0.139	145565	keystroke_e	e	n/a
73.331	0.1145	146662	keystroke_n	n	n/a
73.5775	0.16	147155	keystroke_s	s	n/a
73.6675	0.1145	147335	keystroke_e	e	n/a
74.2435	0.1165	148487	keystroke_d	d	n/a
74.424	0.158	148848	keystroke_Key.space	Key.space	n/a
74.536	0.115	149072	keystroke_i	i	n/a
74.702	0.1375	149404	keystroke_n	n	n/a
74.794	0.1365	149588	keystroke_Key.space	Key.space	n/a
74.9075	0.1135	149815	keystroke_t	t	n/a
75.105	0.141	150210	keystroke_w	w	n/a
75.323	0.1355	150646	keystroke_e	e	n/a
76.0595	0.135	152119	keystroke_Key.backspace	Key.backspace	n/a
76.332	0.1125	152664	keystroke_i	i	n/a
76.4465	0.091	152893	keystroke_s	s	n/a
76.6185	0.114	153237	keystroke_t	t	n/a
76.7335	0.0665	153467	keystroke_Key.enter	Key.enter	n/a
76.8065	8.7255	153613	prompt	n/a	ordered singing adware arrivals\n
77.734	0.1395	155468	keystroke_o	o	n/a
77.8955	0.113	155791	keystroke_r	r	n/a
78.3615	0.067	156723	keystroke_Key.backspace	Key.backspace	n/a
78.4835	0.1125	156967	keystroke_Key.backspace	Key.backspace	n/a
79.078	0.1135	158156	keystroke_o	o	n/a
79.55	0.118	159100	keystroke_r	r	n/a
79.762	0.0675	159524	keystroke_d	d	n/a
79.9315	0.1135	159863	keystroke_e	e	n/a
80.112	0.092	160224	keystroke_r	r	n/a
80.287	0.0695	160574	keystroke_e	e	n/a
80.4515	0.094	160903	keystroke_d	d	n/a
80.5915	0.071	161183	keystroke_Key.space	Key.space	n/a
80.6855	0.1155	161371	keystroke_s	s	n/a
80.802	0.067	161604	keystroke_i	i	n/a
80.9565	0.094	161913	keystroke_n	n	n/a
81.0725	0.115	162145	keystroke_g	g	n/a
81.1885	0.0655	162377	keystroke_i	i	n/a
81.323	0.0685	162646	keystroke_n	n	n/a
81.4265	0.094	162853	keystroke_g	g	n/a
81.5435	0.115	163087	keystroke_Key.space	Key.space	n/a
82.2345	0.137	164469	keystroke_a	a	n/a
82.469	0.139	164938	keystroke_d	d	n/a
82.7555	0.091	165511	keystroke_w	w	n/a
82.8995	0.09	165799	keystroke_a	a	n/a
83.071	0.115	166142	keystroke_r	r	n/a
83.284	0.1365	166568	keystroke_e	e	n/a
83.4425	0.137	166885	keystroke_Key.space	Key.space	n/a
84.0315	0.134	168063	keystroke_a	a	n/a
84.369	0.138	168738	keystroke_r	r	n/a
84.5675	0.1375	169135	keystroke_r	r	n/a
84.739	0.093	169478	keystroke_i	i	n/a
84.833	0.1375	169666	keystroke_v	v	n/a
84.9465	0.113	169893	keystroke_a	a	n/a
85.0815	0.1135	170163	keystroke_l	l	n/a
85.28	0.137	170560	keystroke_s	s	n/a
85.439	0.091	170878	keystroke_Key.enter	Key.enter	n/a
85.5365	10.8255	171073	prompt	n/a	runs dumb tower embassy\n
86.4585	0.091	172917	keystroke_r	r	n/a
86.7215	0.092	173443	keystroke_u	u	n/a
86.903	0.071	173806	keystroke_n	n	n/a
87.02	0.092	174040	keystroke_d	d	n/a
87.1615	0.14	174323	keystroke_s	s	n/a
87.3565	0.115	174713	keystroke_Key.space	Key.space	n/a
87.965	0.092	175930	keystroke_d	d	n/a
88.381	0.091	176762	keystroke_Key.backspace	Key.backspace	n/a
88.5575	0.046	177115	keystroke_Key.backspace	Key.backspace	n/a
88.7185	0.045	177437	keystroke_Key.backspace	Key.backspace	n/a
88.827	0.094	177654	keystroke_Key.backspace	Key.backspace	n/a
88.9785	0.135	177957	keystroke_s	s	n/a
89.1145	0.138	178229	keystroke_Key.space	Key.space	n/a
89.2745	0.1185	178549	keystroke_d	d	n/a
89.369	0.091	178738	keystroke_u	u	n/a
90.6375	0.092	181275	keystroke_m	m	n/a
90.8725	0.0705	181745	keystroke_b	b	n/a
91.051	0.113	182102	keystroke_Key.space	Key.space	n/a
91.8675	0.116	183735	keystroke_t	t	n/a
92.0375	0.1375	184075	keystroke_o	o	n/a
92.1515	0.1355	184303	keystroke_w	w	n/a
92.264	0.164	184528	keystroke_e	e	n/a
92.5095	0.113	185019	keystroke_r	r	n/a
92.6715	0.138	185343	keystroke_Key.space	Key.space	n/a
93.3265	0.1155	186653	keystroke_e	e	n/a
93.477	0.139	186954	keystroke_m	m	n/a
93.7715	0.115	187543	keystroke_b	b	n/a
93.8875	0.067	187775	keystroke_a	a	n/a
94.0735	0.0905	188147	keystroke_s	s	n/a
94.253	0.1825	188506	keystroke_s	s	n/a
94.6345	0.092	189269	keystroke_y	y	n/a
94.935	0.136	189870	keystroke_'	'	n/a
96.001	0.09	192002	keystroke_Key.backspace	Key.backspace	n/a
96.2695	0.091	192539	keystroke_Key.enter	Key.enter	n/a
96.365	12.2135	192730	prompt	n/a	southeast script date counters\n
96.5435	0.1135	193087	keystroke_Key.space	Key.space	n/a
97.292	0.1155	194584	keystroke_s	s	n/a
97.4835	0.2055	194967	keystroke_o	o	n/a
97.6195	0.0925	195239	keystroke_u	u	n/a
97.764	0.0895	195528	keystroke_t	t	n/a
97.9455	0.112	195891	keystroke_e	e	n/a
98.198	0.1145	196396	keystroke_s	s	n/a
98.3875	0.139	196775	keystroke_t	t	n/a
98.6035	0.1375	197207	keystroke_Key.space	Key.space	n/a
98.9265	0.092	197853	keystroke_Key.backspace	Key.backspace	n/a
99.0975	0.07	198195	keystroke_Key.backspace	Key.backspace	n/a
99.247	0.115	198494	keystroke_Key.backspace	Key.backspace	n/a
99.409	0.0925	198818	keystroke_Key.backspace	Key.backspace	n/a
100.0715	0.113	200143	keystroke_h	h	n/a
100.2075	0.1355	200415	keystroke_e	e	n/a
100.44	0.161	200880	keystroke_a	a	n/a
100.7895	0.113	201579	keystroke_s	s	n/a
100.993	0.091	201986	keystroke_t	t	n/a
101.114	0.1375	202228	keystroke_Key.space	Key.space	n/a
101.5385	0.1165	203077	keystroke_s	s	n/a
102.489	0.1585	204978	keystroke_c	c	n/a
103.5225	0.1355	207045	keystroke_r	r	n/a
103.8555	0.092	207711	keystroke_p	p	n/a
104.3605	0.116	208721	keystroke_Key.backspace	Key.backspace	n/a
104.977	0.0685	209954	keystroke_i	i	n/a
105.1575	0.115	210315	keystroke_p	p	n/a
105.3185	0.0905	210637	keystroke_t	t	n/a
105.43	0.16	210860	keystroke_Key.space	Key.space	n/a
106.308	0.094	212616	keystroke_d	d	n/a
106.466	0.1615	212932	keystroke_a	a	n/a
106.7635	0.1135	213527	keystroke_e	e	n/a
106.907	0.137	213814	keystroke_Key.space	Key.space	n/a
107.2775	0.0935	214555	keystroke_c	c	n/a
107.393	0.138	214786	keystroke_o	o	n/a
107.532	0.0675	215064	keystroke_u	u	n/a
107.7885	0.089	215577	keystroke_t	t	n/a
108	0.113	216000	keystroke_e	e	n/a
108.183	0.069	216366	keystroke_r	r	n/a
108.3465	0.1165	216693	keystroke_s	s	n/a
108.484	0.093	216968	keystroke_Key.enter	Key.enter	n/a
108.582	8.9905	217164	prompt	n/a	additions crops silent database\n
109.507	0.1375	219014	keystroke_a	a	n/a
109.7275	0.093	219455	keystroke_d	d	n/a
109.884	0.138	219768	keystroke_d	d	n/a
109.997	0.118	219994	keystroke_i	i	n/a
110.15	0.1145	220300	keystroke_t	t	n/a
110.2195	0.0895	220439	keystroke_i	i	n/a
110.3865	0.0905	220773	keystroke_o	o	n/a
110.577	0.046	221154	keystroke_n	n	n/a
110.9995	0.1325	221999	keystroke_Key.space	Key.space	n/a
111.268	0.116	222536	keystroke_c	c	n/a
111.4545	0.141	222909	keystroke_r	r	n/a
111.5965	0.093	223193	keystroke_i	i	n/a
111.804	0.113	223608	keystroke_p	p	n/a
111.988	0.0925	223976	keystroke_s	s	n/a
112.2505	0.0915	224501	keystroke_Key.backspace	Key.backspace	n/a
112.399	0.07	224798	keystroke_Key.backspace	Key.backspace	n/a
112.529	0.095	225058	keystroke_Key.backspace	Key.backspace	n/a
112.952	0.093	225904	keystroke_o	o	n/a
113.115	0.091	226230	keystroke_p	p	n/a
113.2285	0.1145	226457	keystroke_s	s	n/a
113.344	0.135	226688	keystroke_Key.space	Key.space	n/a
113.8515	0.112	227703	keystroke_s	s	n/a
113.9945	0.091	227989	keystroke_i	i	n/a
114.184	0.115	228368	keystroke_l	l	n/a
114.274	0.094	228548	keystroke_e	e	n/a
115.6415	0.09	231283	keystroke_n	n	n/a
115.815	0.091	231630	keystroke_t	t	n/a
115.973	0.093	231946	keystroke_Key.space	Key.space	n/a
116.3675	0.1155	232735	keystroke_d	d	n/a
116.515	0.136	233030	keystroke_a	a	n/a
116.674	0.0695	233348	keystroke_t	t	n/a
116.8275	0.137	233655	keystroke_a	a	n/a
117.0275	0.0895	234055	keystroke_b	b	n/a
117.165	0.1805	234330	keystroke_s	s	n/a
117.255	0.1365	234510	keystroke_e	e	n/a
117.4335	0.137	234867	keystroke_Key.enter	Key.enter	n/a
117.576	9.371	235152	prompt	n/a	tear entry telecom anymore\n
118.8245	0.1145	237649	keystroke_t	t	n/a
119.063	0.093	238126	keystroke_e	e	n/a
119.2625	0.136	238525	keystroke_a	a	n/a
119.3995	0.092	238799	keystroke_r	r	n/a
119.568	0.117	239136	keystroke_Key.space	Key.space	n/a
119.707	0.1115	239414	keystroke_e	e	n/a
119.8195	0.067	239639	keystroke_n	n	n/a
119.9515	0.068	239903	keystroke_t	t	n/a
120.127	0.1165	240254	keystroke_r	r	n/a
120.2655	0.092	240531	keystroke_y	y	n/a
120.3795	0.113	240759	keystroke_Key.space	Key.space	n/a
120.9955	0.09	241991	keystroke_t	t	n/a
121.1815	0.1155	242363	keystroke_e	e	n/a
121.298	0.112	242596	keystroke_l	l	n/a
121.411	0.1115	242822	keystroke_e	e	n/a
121.6135	0.1375	243227	keystroke_c	c	n/a
121.752	0.067	243504	keystroke_o	o	n/a
121.89	0.091	243780	keystroke_m	m	n/a
122.035	0.0915	244070	keystroke_e	e	n/a
122.1555	0.095	244311	keystroke_Key.space	Key.space	n/a
122.2985	0.114	244597	keystroke_a	a	n/a
122.4495	0.0705	244899	keystroke_n	n	n/a
122.7565	0.071	245513	keystroke_Key.backspace	Key.backspace	n/a
122.9125	0.069	245825	keystroke_Key.backspace	Key.backspace	n/a
123.0415	0.1155	246083	keystroke_Key.backspace	Key.backspace	n/a
123.219	0.092	246438	keystroke_Key.space	Key.space	n/a
123.333	0.1375	246666	keystroke_a	a	n/a
123.4935	0.068	246987	keystroke_n	n	n/a
123.779	0.07	247558	keystroke_Key.backspace	Key.backspace	n/a
123.936	0.0885	247872	keystroke_Key.backspace	Key.backspace	n/a
124.092	0.1125	248184	keystroke_Key.backspace	Key.backspace	n/a
124.2815	0.1135	248563	keystroke_Key.space	Key.space	n/a
124.371	0.183	248742	keystroke_a	a	n/a
124.7865	0.09	249573	keystroke_Key.backspace	Key.backspace	n/a
124.9515	0.0695	249903	keystroke_Key.backspace	Key.backspace	n/a
125.081	0.116	250162	keystroke_Key.backspace	Key.backspace	n/a
125.218	0.0925	250436	keystroke_Key.space	Key.space	n/a
125.3115	0.135	250623	keystroke_a	a	n/a
125.4995	0.093	250999	keystroke_n	n	n/a
125.765	0.093	251530	keystroke_y	y	n/a
126.294	0.114	252588	keystroke_m	m	n/a
126.446	0.093	252892	keystroke_o	o	n/a
126.515	0.0925	253030	keystroke_r	r	n/a
126.6925	0.139	253385	keystroke_e	e	n/a
126.8325	0.113	253665	keystroke_Key.enter	Key.enter	n/a
126.95	8.5465	253900	prompt	n/a	plugin bang abstracts humor\n
128.1005	0.068	256201	keystroke_p	p	n/a
128.2725	0.091	256545	keystroke_l	l	n/a
129.041	0.0935	258082	keystroke_u	u	n/a
129.2475	0.0905	258495	keystroke_g	g	n/a
129.374	0.093	258748	keystroke_i	i	n/a
129.592	0.092	259184	keystroke_n	n	n/a
129.7775	0.137	259555	keystroke_Key.space	Key.space	n/a
130.0195	0.0955	260039	keystroke_b	b	n/a
130.137	0.069	260274	keystroke_a	a	n/a
130.912	0.092	261824	keystroke_n	n	n/a
131.125	0.091	262250	keystroke_g	g	n/a
131.291	0.1365	262582	keystroke_Key.space	Key.space	n/a
131.654	0.115	263308	keystroke_a	a	n/a
131.9505	0.114	263901	keystroke_b	b	n/a
132.1095	0.091	264219	keystroke_s	s	n/a
132.297	0.09	264594	keystroke_t	t	n/a
132.468	0.1135	264936	keystroke_r	r	n/a
132.5825	0.135	265165	keystroke_a	a	n/a
132.7545	0.118	265509	keystroke_c	c	n/a
132.967	0.091	265934	keystroke_t	t	n/a
133.166	0.1155	266332	keystroke_s	s	n/a
133.3115	0.136	266623	keystroke_Key.space	Key.space	n/a
133.5865	0.0905	267173	keystroke_h	h	n/a
133.772	0.069	267544	keystroke_u	u	n/a
133.961	0.0705	267922	keystroke_m	m	n/a
134.1835	0.1145	268367	keystroke_r	r	n/a
134.7715	0.072	269543	keystroke_Key.backspace	Key.backspace	n/a
135.0735	0.115	270147	keystroke_o	o	n/a
135.246	0.115	270492	keystroke_r	r	n/a
135.384	0.111	270768	keystroke_Key.enter	Key.enter	n/a
135.499	13.35	270998	prompt	n/a	installations andale phoenix emma\n
136.2975	0.114	272595	keystroke_i	i	n/a
136.4915	0.1125	272983	keystroke_n	n	n/a
136.635	0.068	273270	keystroke_s	s	n/a
136.806	0.1135	273612	keystroke_t	t	n/a
136.897	0.1345	273794	keystroke_a	a	n/a
137.0085	0.046	274017	keystroke_l	l	n/a
137.6495	0.093	275299	keystroke_Key.backspace	Key.backspace	n/a
138.117	0.0465	276234	keystroke_l	l	n/a
138.2445	0.0935	276489	keystroke_l	l	n/a
138.359	0.115	276718	keystroke_a	a	n/a
138.514	0.0925	277028	keystroke_t	t	n/a
138.5605	0.07	277121	keystroke_i	i	n/a
138.7185	0.07	277437	keystroke_o	o	n/a
138.8265	0.093	277653	keystroke_n	n	n/a
138.97	0.09	277940	keystroke_s	s	n/a
139.083	0.1135	278166	keystroke_Key.space	Key.space	n/a
139.2695	0.138	278539	keystroke_a	a	n/a
139.4415	0.0895	278883	keystroke_n	n	n/a
139.586	0.092	279172	keystroke_d	d	n/a
139.68	0.1105	279360	keystroke_a	a	n/a
139.9595	0.138	279919	keystroke_l	l	n/a
140.1595	0.1125	280319	keystroke_e	e	n/a
140.6925	0.115	281385	keystroke_Key.backspace	Key.backspace	n/a
141.3035	0.115	282607	keystroke_e	e	n/a
141.546	0.161	283092	keystroke_Key.space	Key.space	n/a
142.1155	0.0915	284231	keystroke_Key.backspace	Key.backspace	n/a
142.272	0.092	284544	keystroke_Key.backspace	Key.backspace	n/a
143.052	0.1135	286104	keystroke_e	e	n/a
143.2505	0.115	286501	keystroke_Key.space	Key.space	n/a
143.838	0.1385	287676	keystroke_p	p	n/a
144.1375	0.0935	288275	keystroke_h	h	n/a
144.3015	0.091	288603	keystroke_o	o	n/a
144.472	0.116	288944	keystroke_e	e	n/a
144.687	0.07	289374	keystroke_n	n	n/a
144.8505	0.117	289701	keystroke_i	i	n/a
144.9895	0.1125	289979	keystroke_z	z	n/a
145.311	0.1365	290622	keystroke_Key.space	Key.space	n/a
145.6865	0.0685	291373	keystroke_Key.backspace	Key.backspace	n/a
145.83	0.113	291660	keystroke_Key.backspace	Key.backspace	n/a
146.7545	0.158	293509	keystroke_x	x	n/a
147.3275	0.116	294655	keystroke_Key.space	Key.space	n/a
147.622	0.116	295244	keystroke_e	e	n/a
147.825	0.07	295650	keystroke_m	m	n/a
147.9605	0.116	295921	keystroke_m	m	n/a
148.1655	0.1125	296331	keystroke_a	a	n/a
148.7115	0.1355	297423	keystroke_Key.enter	Key.enter	n/a
148.8525	12.7325	297705	prompt	n/a	gentle northeast corners facts\n
149.801	0.0915	299602	keystroke_g	g	n/a
149.9675	0.115	299935	keystroke_e	e	n/a
150.1045	0.092	300209	keystroke_n	n	n/a
150.257	0.025	300514	keystroke_t	t	n/a
150.402	0.092	300804	keystroke_e	e	n/a
150.596	0.1585	301192	keystroke_Key.space	Key.space	n/a
150.9265	0.0715	301853	keystroke_n	n	n/a
151.068	0.114	302136	keystroke_o	o	n/a
151.217	0.0685	302434	keystroke_r	r	n/a
151.3855	0.091	302771	keystroke_t	t	n/a
151.4515	0.118	302903	keystroke_h	h	n/a
151.662	0.182	303324	keystroke_e	e	n/a
151.908	0.0475	303816	keystroke_a	a	n/a
152.0195	0.183	304039	keystroke_s	s	n/a
152.2525	0.1365	304505	keystroke_t	t	n/a
152.8445	0.115	305689	keystroke_Key.space	Key.space	n/a
153.0795	0.117	306159	keystroke_n	n	n/a
153.252	0.159	306504	keystroke_o	o	n/a
153.412	0.111	306824	keystroke_r	r	n/a
153.622	0.1125	307244	keystroke_c	c	n/a
153.7355	0.136	307471	keystroke_e	e	n/a
154.274	0.0905	308548	keystroke_Key.backspace	Key.backspace	n/a
154.4425	0.07	308885	keystroke_Key.backspace	Key.backspace	n/a
154.6085	0.07	309217	keystroke_Key.backspace	Key.backspace	n/a
154.747	0.113	309494	keystroke_Key.backspace	Key.backspace	n/a
155.1525	0.135	310305	keystroke_Key.backspace	Key.backspace	n/a
155.4125	0.1145	310825	keystroke_c	c	n/a
155.528	0.113	311056	keystroke_o	o	n/a
155.664	0.09	311328	keystroke_r	r	n/a
155.9725	0.117	311945	keystroke_n	n	n/a
156.0915	0.1095	312183	keystroke_e	e	n/a
156.267	0.115	312534	keystroke_r	r	n/a
156.4695	0.115	312939	keystroke_s	s	n/a
156.6065	0.1145	313213	keystroke_Key.space	Key.space	n/a
157.0565	0.1835	314113	keystroke_a	a	n/a
157.272	0.094	314544	keystroke_c	c	n/a
157.318	0.139	314636	keystroke_e	e	n/a
157.7795	0.0895	315559	keystroke_Key.backspace	Key.backspace	n/a
157.94	0.068	315880	keystroke_Key.backspace	Key.backspace	n/a
158.098	0.0915	316196	keystroke_Key.backspace	Key.backspace	n/a
158.2485	0.093	316497	keystroke_Key.backspace	Key.backspace	n/a
158.3645	0.069	316729	keystroke_f	f	n/a
158.4085	0.1615	316817	keystroke_a	a	n/a
158.7735	0.07	317547	keystroke_Key.backspace	Key.backspace	n/a
158.9315	0.07	317863	keystroke_Key.backspace	Key.backspace	n/a
159.0915	0.0925	318183	keystroke_Key.space	Key.space	n/a
159.185	0.136	318370	keystroke_f	f	n/a
159.356	0.1385	318712	keystroke_a	a	n/a
159.6215	0.092	319243	keystroke_c	c	n/a
159.824	0.114	319648	keystroke_t	t	n/a
160.053	0.1375	320106	keystroke_s	s	n/a
161.426	0.1575	322852	keystroke_Key.enter	Key.enter	n/a
161.5875	23.005	323175	prompt	n/a	massachusetts improvements admin superb\n
162.6165	0.137	325233	keystroke_m	m	n/a
162.7545	0.0925	325509	keystroke_a	a	n/a
162.96	0.118	325920	keystroke_c	c	n/a
163.4385	0.0925	326877	keystroke_Key.backspace	Key.backspace	n/a
163.788	0.1345	327576	keystroke_Key.backspace	Key.backspace	n/a
164.394	0.112	328788	keystroke_a	a	n/a
164.6295	0.091	329259	keystroke_s	s	n/a
164.7875	0.1155	329575	keystroke_s	s	n/a
164.933	0.138	329866	keystroke_a	a	n/a
165.1365	0.114	330273	keystroke_c	c	n/a
165.3365	0.1125	330673	keystroke_h	h	n/a
167.15	0.1345	334300	keystroke_u	u	n/a
167.6565	0.205	335313	keystroke_s	s	n/a
167.8135	0.071	335627	keystroke_e	e	n/a
168.769	0.092	337538	keystroke_t	t	n/a
168.949	0.1145	337898	keystroke_t	t	n/a
169.407	0.112	338814	keystroke_s	s	n/a
169.6495	0.138	339299	keystroke_Key.space	Key.space	n/a
169.8995	0.1125	339799	keystroke_u	u	n/a
170.4075	0.114	340815	keystroke_Key.backspace	Key.backspace	n/a
170.6125	0.1175	341225	keystroke_Key.backspace	Key.backspace	n/a
170.887	0.1175	341774	keystroke_Key.backspace	Key.backspace	n/a
173.331	0.114	346662	keystroke_s	s	n/a
173.52	0.1375	347040	keystroke_Key.space	Key.space	n/a
174.2465	0.116	348493	keystroke_i	i	n/a
174.483	0.069	348966	keystroke_m	m	n/a
174.691	0.1145	349382	keystroke_p	p	n/a
175.213	0.093	350426	keystroke_r	r	n/a
175.381	0.1345	350762	keystroke_o	o	n/a
175.916	0.117	351832	keystroke_v	v	n/a
176.4215	0.0905	352843	keystroke_e	e	n/a
176.604	0.159	353208	keystroke_m	m	n/a
177.0785	0.1585	354157	keystroke_e	e	n/a
177.317	0.136	354634	keystroke_n	n	n/a
177.5665	0.069	355133	keystroke_t	t	n/a
177.8245	0.1375	355649	keystroke_s	s	n/a
178.082	0.1615	356164	keystroke_Key.space	Key.space	n/a
178.704	0.1405	357408	keystroke_a	a	n/a
178.9345	0.092	357869	keystroke_d	d	n/a
179.0035	0.092	358007	keystroke_m	m	n/a
179.157	0.096	358314	keystroke_i	i	n/a
179.341	0.115	358682	keystroke_n	n	n/a
179.5285	0.136	359057	keystroke_Key.space	Key.space	n/a
180.216	0.095	360432	keystroke_s	s	n/a
180.369	0.113	360738	keystroke_u	u	n/a
180.6665	0.115	361333	keystroke_p	p	n/a
181.4335	0.091	362867	keystroke_b	b	n/a
181.605	0.114	363210	keystroke_e	e	n/a
182.316	0.093	364632	keystroke_Key.backspace	Key.backspace	n/a
182.5085	0.069	365017	keystroke_Key.backspace	Key.backspace	n/a
183.64	0.094	367280	keystroke_e	e	n/a
183.8345	0.091	367669	keystroke_r	r	n/a
184.248	0.137	368496	keystroke_b	b	n/a
184.4975	0.0935	368995	keystroke_Key.enter	Key.enter	n/a
184.596	6.9055	369192	prompt	n/a	salmon featured pensions gulf\n
185.297	0.116	370594	keystroke_s	s	n/a
185.436	0.1355	370872	keystroke_a	a	n/a
185.5945	0.093	371189	keystroke_l	l	n/a
185.7725	0.0925	371545	keystroke_m	m	n/a
185.958	0.069	371916	keystroke_o	o	n/a
186.144	0.068	372288	keystroke_n	n	n/a
186.3145	0.16	372629	keystroke_Key.space	Key.space	n/a
187.028	0.113	374056	keystroke_f	f	n/a
187.172	0.094	374344	keystroke_e	e	n/a
187.241	0.2065	374482	keystroke_a	a	n/a
187.4225	0.114	374845	keystroke_t	t	n/a
187.6035	0.1165	375207	keystroke_u	u	n/a
187.721	0.091	375442	keystroke_r	r	n/a
187.9	0.094	375800	keystroke_e	e	n/a
188.086	0.1135	376172	keystroke_d	d	n/a
188.1765	0.184	376353	keystroke_Key.space	Key.space	n/a
188.7515	0.14	377503	keystroke_p	p	n/a
188.9135	0.089	377827	keystroke_e	e	n/a
189.0875	0.0955	378175	keystroke_n	n	n/a
189.3	0.092	378600	keystroke_s	s	n/a
189.346	0.093	378692	keystroke_i	i	n/a
189.5065	0.094	379013	keystroke_o	o	n/a
189.6675	0.07	379335	keystroke_n	n	n/a
189.7605	0.092	379521	keystroke_s	s	n/a
189.853	0.135	379706	keystroke_Key.space	Key.space	n/a
190.538	0.092	381076	keystroke_g	g	n/a
190.732	0.092	381464	keystroke_u	u	n/a
190.9665	0.092	381933	keystroke_l	l	n/a
191.166	0.091	382332	keystroke_f	f	n/a
191.364	0.136	382728	keystroke_Key.enter	Key.enter	n/a
191.504	8.5195	383008	prompt	n/a	basement blades duration isle\n
192.3145	0.094	384629	keystroke_b	b	n/a
192.4305	0.07	384861	keystroke_a	a	n/a
192.5015	0.1575	385003	keystroke_s	s	n/a
192.59	0.091	385180	keystroke_e	e	n/a
192.703	0.069	385406	keystroke_m	m	n/a
192.806	0.1395	385612	keystroke_e	e	n/a
192.8975	0.071	385795	keystroke_n	n	n/a
193.0405	0.116	386081	keystroke_t	t	n/a
193.1325	0.138	386265	keystroke_Key.space	Key.space	n/a
193.6755	0.068	387351	keystroke_b	b	n/a
193.8465	0.139	387693	keystroke_l	l	n/a
193.9865	0.1375	387973	keystroke_a	a	n/a
194.299	0.0915	388598	keystroke_d	d	n/a
194.4905	0.093	388981	keystroke_e	e	n/a
194.7005	0.1365	389401	keystroke_s	s	n/a
195.067	0.1155	390134	keystroke_Key.space	Key.space	n/a
195.3165	0.093	390633	keystroke_d	d	n/a
195.4515	0.0925	390903	keystroke_u	u	n/a
195.583	0.115	391166	keystroke_r	r	n/a
195.699	0.1805	391398	keystroke_a	a	n/a
195.8115	0.137	391623	keystroke_t	t	n/a
195.9495	0.09	391899	keystroke_i	i	n/a
196.1	0.113	392200	keystroke_o	o	n/a
196.3	0.069	392600	keystroke_n	n	n/a
196.4945	0.137	392989	keystroke_Key.space	Key.space	n/a
197.577	0.0905	395154	keystroke_i	i	n/a
198.084	0.09	396168	keystroke_s	s	n/a
198.4425	0.114	396885	keystroke_;	;	n/a
199.2675	0.1155	398535	keystroke_Key.backspace	Key.backspace	n/a
199.658	0.0655	399316	keystroke_l	l	n/a
199.7485	0.183	399497	keystroke_s	s	n/a
199.8395	0.115	399679	keystroke_e	e	n/a
199.9555	0.067	399911	keystroke_Key.enter	Key.enter	n/a
200.028	14.649	400056	prompt	n/a	trash workforce verify maldives\n
200.903	0.116	401806	keystroke_t	t	n/a
201.0775	0.115	402155	keystroke_a	a	n/a
201.2715	0.116	402543	keystroke_s	s	n/a
201.409	0.115	402818	keystroke_h	h	n/a
201.602	0.1165	403204	keystroke_w	w	n/a
201.7195	0.112	403439	keystroke_o	o	n/a
201.8525	0.092	403705	keystroke_r	r	n/a
202.4395	0.117	404879	keystroke_k	k	n/a
202.7085	0.095	405417	keystroke_f	f	n/a
202.895	0.159	405790	keystroke_o	o	n/a
203.056	0.088	406112	keystroke_r	r	n/a
203.2505	0.117	406501	keystroke_c	c	n/a
203.3425	0.182	406685	keystroke_e	e	n/a
203.764	0.1795	407528	keystroke_Key.backspace	Key.backspace	n/a
204.0365	0.092	408073	keystroke_Key.backspace	Key.backspace	n/a
204.2455	0.0705	408491	keystroke_Key.backspace	Key.backspace	n/a
204.421	0.069	408842	keystroke_Key.backspace	Key.backspace	n/a
204.573	0.07	409146	keystroke_Key.backspace	Key.backspace	n/a
204.7405	0.09	409481	keystroke_Key.backspace	Key.backspace	n/a
204.9015	0.092	409803	keystroke_Key.backspace	Key.backspace	n/a
205.071	0.069	410142	keystroke_Key.backspace	Key.backspace	n/a
205.226	0.068	410452	keystroke_Key.backspace	Key.backspace	n/a
205.3725	0.092	410745	keystroke_Key.backspace	Key.backspace	n/a
205.5495	0.09	411099	keystroke_Key.backspace	Key.backspace	n/a
205.7035	0.1125	411407	keystroke_Key.backspace	Key.backspace	n/a
206.2755	0.1335	412551	keystroke_r	r	n/a
206.46	0.14	412920	keystroke_a	a	n/a
206.692	0.1135	413384	keystroke_s	s	n/a
206.8065	0.066	413613	keystroke_h	h	n/a
208.009	0.1365	416018	keystroke_Key.space	Key.space	n/a
208.2515	0.136	416503	keystroke_w	w	n/a
208.3885	0.1105	416777	keystroke_o	o	n/a
208.523	0.115	417046	keystroke_r	r	n/a
208.639	0.156	417278	keystroke_k	k	n/a
208.8795	0.181	417759	keystroke_f	f	n/a
209.1135	0.1355	418227	keystroke_o	o	n/a
210.186	0.1155	420372	keystroke_r	r	n/a
210.4035	0.163	420807	keystroke_c	c	n/a
210.4965	0.1635	420993	keystroke_e	e	n/a
210.661	0.3165	421322	keystroke_Key.space	Key.space	n/a
211.408	0.114	422816	keystroke_v	v	n/a
211.615	0.1125	423230	keystroke_e	e	n/a
211.8215	0.093	423643	keystroke_r	r	n/a
211.9155	0.1355	423831	keystroke_i	i	n/a
212.153	0.1385	424306	keystroke_f	f	n/a
212.267	0.1165	424534	keystroke_y	y	n/a
212.576	0.158	425152	keystroke_Key.space	Key.space	n/a
213.399	0.093	426798	keystroke_m	m	n/a
213.513	0.1145	427026	keystroke_a	a	n/a
213.6285	0.115	427257	keystroke_l	l	n/a
213.8035	0.1145	427607	keystroke_d	d	n/a
213.94	0.14	427880	keystroke_i	i	n/a
214.081	0.089	428162	keystroke_v	v	n/a
214.2525	0.094	428505	keystroke_e	e	n/a
214.4465	0.113	428893	keystroke_s	s	n/a
214.5825	0.0925	429165	keystroke_Key.enter	Key.enter	n/a
214.68	12.707	429360	prompt	n/a	flex blessed hockey anymore\n
215.8015	0.047	431603	keystroke_f	f	n/a
216.116	0.069	432232	keystroke_l	l	n/a
216.186	0.113	432372	keystroke_e	e	n/a
216.4555	0.1385	432911	keystroke_z	z	n/a
216.681	0.1395	433362	keystroke_Key.space	Key.space	n/a
217.1	0.069	434200	keystroke_Key.backspace	Key.backspace	n/a
217.245	0.092	434490	keystroke_Key.backspace	Key.backspace	n/a
217.4145	0.09	434829	keystroke_x	x	n/a
217.4155	0.066	434831	keystroke_z	z	n/a
218.0695	0.071	436139	keystroke_Key.backspace	Key.backspace	n/a
218.2255	0.092	436451	keystroke_Key.backspace	Key.backspace	n/a
218.724	0.1155	437448	keystroke_Key.space	Key.space	n/a
219.7345	0.1135	439469	keystroke_Key.backspace	Key.backspace	n/a
219.943	0.113	439886	keystroke_x	x	n/a
220.525	0.137	441050	keystroke_Key.space	Key.space	n/a
220.9325	0.069	441865	keystroke_b	b	n/a
221.6865	0.138	443373	keystroke_l	l	n/a
221.899	0.114	443798	keystroke_e	e	n/a
222.141	0.067	444282	keystroke_s	s	n/a
222.2855	0.18	444571	keystroke_s	s	n/a
222.4665	0.09	444933	keystroke_e	e	n/a
222.67	0.091	445340	keystroke_d	d	n/a
222.785	0.138	445570	keystroke_Key.space	Key.space	n/a
223.396	0.112	446792	keystroke_h	h	n/a
223.554	0.1365	447108	keystroke_o	o	n/a
223.7135	0.091	447427	keystroke_c	c	n/a
223.8465	0.136	447693	keystroke_k	k	n/a
223.9585	0.1135	447917	keystroke_e	e	n/a
224.156	0.091	448312	keystroke_y	y	n/a
224.296	0.138	448592	keystroke_Key.space	Key.space	n/a
224.953	0.136	449906	keystroke_a	a	n/a
225.1115	0.115	450223	keystroke_n	n	n/a
225.3515	0.113	450703	keystroke_y	y	n/a
225.754	0.0905	451508	keystroke_o	o	n/a
226.354	0.115	452708	keystroke_Key.backspace	Key.backspace	n/a
226.6395	0.094	453279	keystroke_m	m	n/a
226.808	0.09	453616	keystroke_o	o	n/a
226.9495	0.091	453899	keystroke_r	r	n/a
227.1375	0.137	454275	keystroke_e	e	n/a
227.2965	0.0885	454593	keystroke_Key.enter	Key.enter	n/a
227.3895	10.9055	454779	prompt	n/a	waterproof opens bulk conference\n
228.344	0.1395	456688	keystroke_w	w	n/a
228.4585	0.187	456917	keystroke_a	a	n/a
228.6465	0.0665	457293	keystroke_t	t	n/a
228.813	0.0915	457626	keystroke_e	e	n/a
228.988	0.1115	457976	keystroke_r	r	n/a
229.2815	0.1375	458563	keystroke_p	p	n/a
229.451	0.114	458902	keystroke_r	r	n/a
229.588	0.138	459176	keystroke_o	o	n/a
229.826	0.089	459652	keystroke_f	f	n/a
230.002	0.093	460004	keystroke_f	f	n/a
230.1995	0.162	460399	keystroke_Key.space	Key.space	n/a
230.748	0.0735	461496	keystroke_Key.backspace	Key.backspace	n/a
231.0275	0.067	462055	keystroke_Key.backspace	Key.backspace	n/a
231.1995	0.1135	462399	keystroke_Key.backspace	Key.backspace	n/a
232.024	0.09	464048	keystroke_o	o	n/a
232.137	0.1385	464274	keystroke_f	f	n/a
232.2765	0.112	464553	keystroke_Key.space	Key.space	n/a
232.924	0.0915	465848	keystroke_o	o	n/a
233.0975	0.09	466195	keystroke_p	p	n/a
233.2255	0.1135	466451	keystroke_e	e	n/a
233.34	0.045	466680	keystroke_n	n	n/a
233.486	0.113	466972	keystroke_s	s	n/a
233.621	0.1365	467242	keystroke_Key.space	Key.space	n/a
234.261	0.0955	468522	keystroke_b	b	n/a
234.52	0.072	469040	keystroke_u	u	n/a
234.692	0.1175	469384	keystroke_l	l	n/a
234.9935	0.135	469987	keystroke_k	k	n/a
235.15	0.136	470300	keystroke_Key.space	Key.space	n/a
235.341	0.0905	470682	keystroke_c	c	n/a
235.4075	0.069	470815	keystroke_o	o	n/a
235.5665	0.091	471133	keystroke_n	n	n/a
235.8	0.093	471600	keystroke_f	f	n/a
236.0665	0.092	472133	keystroke_r	r	n/a
236.7905	0.072	473581	keystroke_Key.backspace	Key.backspace	n/a
236.9245	0.114	473849	keystroke_e	e	n/a
237.1315	0.0685	474263	keystroke_r	r	n/a
237.307	0.115	474614	keystroke_e	e	n/a
237.444	0.024	474888	keystroke_n	n	n/a
237.8725	0.1625	475745	keystroke_c	c	n/a
237.987	0.162	475974	keystroke_e	e	n/a
238.199	0.0935	476398	keystroke_Key.enter	Key.enter	n/a
238.2975	10.47	476595	prompt	n/a	liability toxic enclosure briefly\n
239.6675	0.089	479335	keystroke_l	l	n/a
239.8065	0.115	479613	keystroke_i	i	n/a
239.9445	0.1145	479889	keystroke_a	a	n/a
240.035	0.07	480070	keystroke_b	b	n/a
240.176	0.094	480352	keystroke_i	i	n/a
240.3555	0.183	480711	keystroke_l	l	n/a
240.5145	0.138	481029	keystroke_i	i	n/a
240.824	0.117	481648	keystroke_t	t	n/a
240.942	0.0895	481884	keystroke_y	y	n/a
241.0935	0.135	482187	keystroke_Key.space	Key.space	n/a
242.0045	0.091	484009	keystroke_t	t	n/a
242.201	0.115	484402	keystroke_o	o	n/a
242.6995	0.115	485399	keystroke_x	x	n/a
242.8845	0.09	485769	keystroke_i	i	n/a
243.841	0.138	487682	keystroke_c	c	n/a
244.1725	0.159	488345	keystroke_Key.space	Key.space	n/a
244.4385	0.116	488877	keystroke_e	e	n/a
244.752	0.1175	489504	keystroke_n	n	n/a
245.0955	0.116	490191	keystroke_c	c	n/a
245.233	0.0915	490466	keystroke_l	l	n/a
245.4245	0.0685	490849	keystroke_o	o	n/a
245.527	0.138	491054	keystroke_s	s	n/a
245.7575	0.116	491515	keystroke_u	u	n/a
245.9195	0.092	491839	keystroke_r	r	n/a
246.11	0.117	492220	keystroke_e	e	n/a
246.201	0.138	492402	keystroke_Key.space	Key.space	n/a
246.9115	0.136	493823	keystroke_b	b	n/a
247.1155	0.0905	494231	keystroke_r	r	n/a
247.228	0.114	494456	keystroke_i	i	n/a
247.363	0.093	494726	keystroke_e	e	n/a
247.57	0.0935	495140	keystroke_f	f	n/a
247.6405	0.114	495281	keystroke_l	l	n/a
247.8945	0.093	495789	keystroke_y	y	n/a
248.051	0.089	496102	keystroke_Key.space	Key.space	n/a
248.6755	0.09	497351	keystroke_Key.enter	Key.enter	n/a
248.7705	12.7835	497541	prompt	n/a	rates grocery sampling mesh\n
254.6685	0.114	509337	keystroke_r	r	n/a
254.8055	0.1375	509611	keystroke_a	a	n/a
254.896	0.117	509792	keystroke_t	t	n/a
255.0925	0.091	510185	keystroke_e	e	n/a
255.272	0.115	510544	keystroke_s	s	n/a
255.389	0.1355	510778	keystroke_Key.space	Key.space	n/a
256.1805	0.093	512361	keystroke_g	g	n/a
256.3335	0.141	512667	keystroke_r	r	n/a
256.4495	0.1145	512899	keystroke_o	o	n/a
256.586	0.138	513172	keystroke_c	c	n/a
256.677	0.137	513354	keystroke_e	e	n/a
256.9005	0.115	513801	keystroke_r	r	n/a
257.0895	0.07	514179	keystroke_y	y	n/a
257.411	0.136	514822	keystroke_Key.space	Key.space	n/a
258.6205	0.16	517241	keystroke_s	s	n/a
258.802	0.1825	517604	keystroke_a	a	n/a
259.375	0.118	518750	keystroke_m	m	n/a
259.5755	0.091	519151	keystroke_p	p	n/a
259.7385	0.093	519477	keystroke_l	l	n/a
259.96	0.094	519920	keystroke_i	i	n/a
260.1105	0.092	520221	keystroke_n	n	n/a
260.2345	0.1125	520469	keystroke_g	g	n/a
260.324	0.139	520648	keystroke_Key.space	Key.space	n/a
260.7325	0.1375	521465	keystroke_m	m	n/a
260.91	0.092	521820	keystroke_e	e	n/a
261.115	0.1135	522230	keystroke_s	s	n/a
261.206	0.0685	522412	keystroke_h	h	n/a
261.4585	0.093	522917	keystroke_Key.enter	Key.enter	n/a
261.557	13.7195	523114	prompt	n/a	terrorist radar largest downloads\n
262.446	0.1185	524892	keystroke_t	t	n/a
262.6725	0.094	525345	keystroke_e	e	n/a
262.839	0.069	525678	keystroke_r	r	n/a
263.003	0.069	526006	keystroke_r	r	n/a
263.2115	0.115	526423	keystroke_r	r	n/a
263.3485	0.115	526697	keystroke_i	i	n/a
263.822	0.09	527644	keystroke_Key.backspace	Key.backspace	n/a
264.6865	0.095	529373	keystroke_o	o	n/a
264.956	0.113	529912	keystroke_r	r	n/a
265.1	0.072	530200	keystroke_i	i	n/a
265.217	0.1795	530434	keystroke_s	s	n/a
265.3985	0.159	530797	keystroke_Key.space	Key.space	n/a
265.949	0.0895	531898	keystroke_Key.backspace	Key.backspace	n/a
266.0905	0.115	532181	keystroke_t	t	n/a
266.1825	0.18	532365	keystroke_Key.space	Key.space	n/a
266.3635	0.1125	532727	keystroke_r	r	n/a
266.498	0.139	532996	keystroke_a	a	n/a
266.706	0.0915	533412	keystroke_d	d	n/a
266.9025	0.115	533805	keystroke_a	a	n/a
267.1095	0.1365	534219	keystroke_Key.space	Key.space	n/a
268.606	0.09	537212	keystroke_Key.backspace	Key.backspace	n/a
268.84	0.1355	537680	keystroke_r	r	n/a
269.0395	0.14	538079	keystroke_Key.space	Key.space	n/a
269.333	0.179	538666	keystroke_l	l	n/a
269.562	0.1365	539124	keystroke_a	a	n/a
269.9815	0.115	539963	keystroke_r	r	n/a
270.2365	0.115	540473	keystroke_g	g	n/a
270.8225	0.093	541645	keystroke_e	e	n/a
271.0335	0.0695	542067	keystroke_s	s	n/a
271.218	0.1125	542436	keystroke_t	t	n/a
271.3955	0.115	542791	keystroke_Key.space	Key.space	n/a
272.0245	0.091	544049	keystroke_d	d	n/a
272.1385	0.092	544277	keystroke_o	o	n/a
272.2525	0.112	544505	keystroke_w	w	n/a
272.3665	0.0655	544733	keystroke_n	n	n/a
272.536	0.095	545072	keystroke_l	l	n/a
273.9375	0.1155	547875	keystroke_o	o	n/a
274.075	0.142	548150	keystroke_a	a	n/a
274.3885	0.094	548777	keystroke_d	d	n/a
274.5945	0.112	549189	keystroke_s	s	n/a
274.744	0.161	549488	keystroke_Key.space	Key.space	n/a
275.1585	0.116	550317	keystroke_Key.enter	Key.enter	n/a
275.2805	8.1115	550561	prompt	n/a	study careful giving plastic\n
275.9685	0.115	551937	keystroke_s	s	n/a
276.1715	0.114	552343	keystroke_t	t	n/a
276.3095	0.0925	552619	keystroke_u	u	n/a
276.447	0.0925	552894	keystroke_d	d	n/a
276.5615	0.094	553123	keystroke_y	y	n/a
276.6555	0.09	553311	keystroke_Key.space	Key.space	n/a
276.839	0.114	553678	keystroke_c	c	n/a
276.929	0.095	553858	keystroke_a	a	n/a
277.026	0.065	554052	keystroke_r	r	n/a
277.1965	0.097	554393	keystroke_e	e	n/a
277.3615	0.114	554723	keystroke_f	f	n/a
277.518	0.093	555036	keystroke_u	u	n/a
278.9685	0.1615	557937	keystroke_l	l	n/a
279.083	0.139	558166	keystroke_Key.space	Key.space	n/a
279.267	0.117	558534	keystroke_g	g	n/a
279.385	0.0895	558770	keystroke_i	i	n/a
279.6295	0.09	559259	keystroke_i	i	n/a
279.813	0.047	559626	keystroke_n	n	n/a
280.1525	0.114	560305	keystroke_Key.backspace	Key.backspace	n/a
280.581	0.116	561162	keystroke_Key.backspace	Key.backspace	n/a
280.8405	0.136	561681	keystroke_v	v	n/a
281.0085	0.0915	562017	keystroke_i	i	n/a
281.204	0.045	562408	keystroke_n	n	n/a
281.275	0.1145	562550	keystroke_g	g	n/a
281.3665	0.137	562733	keystroke_Key.space	Key.space	n/a
282.2045	0.094	564409	keystroke_p	p	n/a
282.3915	0.1165	564783	keystroke_l	l	n/a
282.484	0.069	564968	keystroke_a	a	n/a
282.636	0.135	565272	keystroke_s	s	n/a
282.8915	0.092	565783	keystroke_t	t	n/a
282.9845	0.092	565969	keystroke_i	i	n/a
283.1355	0.1145	566271	keystroke_c	c	n/a
283.297	0.093	566594	keystroke_Key.enter	Key.enter	n/a
283.3965	13.0325	566793	prompt	n/a	buzz faced limited birmingham\n
285.0715	0.092	570143	keystroke_b	b	n/a
285.2975	0.0925	570595	keystroke_u	u	n/a
285.556	0.115	571112	keystroke_z	z	n/a
285.7455	0.135	571491	keystroke_z	z	n/a
285.8815	0.1365	571763	keystroke_Key.space	Key.space	n/a
286.275	0.1405	572550	keystroke_f	f	n/a
286.5105	0.1365	573021	keystroke_a	a	n/a
287.0675	0.137	574135	keystroke_c	c	n/a
287.2435	0.118	574487	keystroke_e	e	n/a
287.461	0.113	574922	keystroke_d	d	n/a
287.575	0.1825	575150	keystroke_Key.space	Key.space	n/a
287.712	0.0685	575424	keystroke_i	i	n/a
288.196	0.115	576392	keystroke_Key.backspace	Key.backspace	n/a
288.5075	0.0925	577015	keystroke_l	l	n/a
288.727	0.068	577454	keystroke_i	i	n/a
288.8735	0.09	577747	keystroke_m	m	n/a
288.9845	0.091	577969	keystroke_i	i	n/a
289.0765	0.0675	578153	keystroke_t	t	n/a
289.236	0.093	578472	keystroke_e	e	n/a
289.417	0.116	578834	keystroke_d	d	n/a
289.508	0.1375	579016	keystroke_Key.space	Key.space	n/a
290.5405	0.115	581081	keystroke_b	b	n/a
290.875	0.116	581750	keystroke_i	i	n/a
291.035	0.1375	582070	keystroke_r	r	n/a
291.2485	0.116	582497	keystroke_m	m	n/a
291.67	0.091	583340	keystroke_n	n	n/a
292.2895	0.115	584579	keystroke_Key.backspace	Key.backspace	n/a
293.1005	0.091	586201	keystroke_i	i	n/a
294.3545	0.1395	588709	keystroke_m	m	n/a
295.1045	0.1145	590209	keystroke_Key.backspace	Key.backspace	n/a
295.399	0.0905	590798	keystroke_n	n	n/a
295.5585	0.114	591117	keystroke_g	g	n/a
295.6735	0.111	591347	keystroke_h	h	n/a
295.887	0.1385	591774	keystroke_a	a	n/a
296.0265	0.0665	592053	keystroke_m	m	n/a
296.3105	0.117	592621	keystroke_Key.enter	Key.enter	n/a
296.4315	10.1955	592863	prompt	n/a	situated amended honey pattern\n
297.294	0.115	594588	keystroke_s	s	n/a
297.431	0.116	594862	keystroke_i	i	n/a
298.01	0.069	596020	keystroke_t	t	n/a
298.3385	0.092	596677	keystroke_u	u	n/a
298.5145	0.071	597029	keystroke_a	a	n/a
298.5615	0.071	597123	keystroke_t	t	n/a
298.732	0.092	597464	keystroke_e	e	n/a
298.954	0.0915	597908	keystroke_d	d	n/a
299.0685	0.139	598137	keystroke_Key.space	Key.space	n/a
299.8245	0.138	599649	keystroke_a	a	n/a
299.9635	0.114	599927	keystroke_m	m	n/a
300.177	0.116	600354	keystroke_d	d	n/a
300.6625	0.115	601325	keystroke_Key.backspace	Key.backspace	n/a
300.988	0.1145	601976	keystroke_e	e	n/a
301.1245	0.0915	602249	keystroke_n	n	n/a
301.281	0.092	602562	keystroke_d	d	n/a
301.488	0.1145	602976	keystroke_e	e	n/a
301.7065	0.139	603413	keystroke_d	d	n/a
301.939	0.137	603878	keystroke_Key.space	Key.space	n/a
302.2735	0.1155	604547	keystroke_h	h	n/a
302.43	0.114	604860	keystroke_o	o	n/a
302.8635	0.113	605727	keystroke_m	m	n/a
303.5355	0.138	607071	keystroke_Key.backspace	Key.backspace	n/a
303.871	0.095	607742	keystroke_n	n	n/a
304.1045	0.1835	608209	keystroke_e	e	n/a
304.31	0.069	608620	keystroke_y	y	n/a
304.446	0.1145	608892	keystroke_Key.space	Key.space	n/a
304.8115	0.1635	609623	keystroke_p	p	n/a
304.976	0.09	609952	keystroke_a	a	n/a
305.11	0.09	610220	keystroke_t	t	n/a
305.3255	0.136	610651	keystroke_t	t	n/a
305.5365	0.1145	611073	keystroke_e	e	n/a
305.713	0.115	611426	keystroke_r	r	n/a
305.878	0.0905	611756	keystroke_n	n	n/a
306.4885	0.137	612977	keystroke_Key.enter	Key.enter	n/a
306.63	11.4075	613260	prompt	n/a	functions alot ordering sensitive\n
307.565	0.116	615130	keystroke_f	f	n/a
308.2025	0.0945	616405	keystroke_u	u	n/a
308.402	0.092	616804	keystroke_n	n	n/a
308.516	0.05	617032	keystroke_c	c	n/a
308.7165	0.117	617433	keystroke_t	t	n/a
308.8115	0.092	617623	keystroke_i	i	n/a
308.97	0.092	617940	keystroke_o	o	n/a
309.159	0.067	618318	keystroke_n	n	n/a
309.27	0.1145	618540	keystroke_s	s	n/a
309.4065	0.114	618813	keystroke_Key.space	Key.space	n/a
310.056	0.1145	620112	keystroke_a	a	n/a
310.1925	0.07	620385	keystroke_l	l	n/a
310.3585	0.072	620717	keystroke_o	o	n/a
310.48	0.091	620960	keystroke_t	t	n/a
310.572	0.158	621144	keystroke_Key.space	Key.space	n/a
310.64	0.158	621280	keystroke_o	o	n/a
310.799	0.09	621598	keystroke_r	r	n/a
310.9755	0.092	621951	keystroke_d	d	n/a
311.1615	0.093	622323	keystroke_e	e	n/a
311.341	0.139	622682	keystroke_r	r	n/a
311.455	0.069	622910	keystroke_i	i	n/a
311.623	0.0705	623246	keystroke_n	n	n/a
311.7155	0.092	623431	keystroke_g	g	n/a
311.7825	0.113	623565	keystroke_Key.space	Key.space	n/a
312.066	0.255	624132	keystroke_s	s	n/a
312.23	0.115	624460	keystroke_e	e	n/a
312.7275	0.1145	625455	keystroke_n	n	n/a
312.914	0.113	625828	keystroke_i	i	n/a
313.05	0.093	626100	keystroke_s	s	n/a
313.144	0.1565	626288	keystroke_i	i	n/a
313.2315	0.159	626463	keystroke_s	s	n/a
313.4345	0.1815	626869	keystroke_t	t	n/a
314.0305	0.07	628061	keystroke_Key.backspace	Key.backspace	n/a
314.1975	0.046	628395	keystroke_Key.backspace	Key.backspace	n/a
314.3075	0.0925	628615	keystroke_Key.backspace	Key.backspace	n/a
314.481	0.071	628962	keystroke_Key.backspace	Key.backspace	n/a
314.617	0.091	629234	keystroke_Key.backspace	Key.backspace	n/a
314.778	0.093	629556	keystroke_Key.backspace	Key.backspace	n/a
315.48	0.092	630960	keystroke_n	n	n/a
315.6535	0.114	631307	keystroke_s	s	n/a
315.7425	0.117	631485	keystroke_i	i	n/a
317.2815	0.116	634563	keystroke_t	t	n/a
317.3735	0.1355	634747	keystroke_i	i	n/a
317.571	0.072	635142	keystroke_v	v	n/a
317.749	0.115	635498	keystroke_e	e	n/a
317.9225	0.113	635845	keystroke_Key.enter	Key.enter	n/a
318.042	12.323	636084	prompt	n/a	frontpage reno amplifier newport\n
319.4795	0.091	638959	keystroke_r	r	n/a
319.6215	0.091	639243	keystroke_o	o	n/a
319.79	0.092	639580	keystroke_n	n	n/a
319.812	0.092	639624	keystroke_t	t	n/a
320.012	0.1595	640024	keystroke_p	p	n/a
320.1725	0.158	640345	keystroke_a	a	n/a
320.3315	0.065	640663	keystroke_g	g	n/a
320.505	0.136	641010	keystroke_e	e	n/a
320.663	0.1605	641326	keystroke_Key.space	Key.space	n/a
322.281	0.09	644562	keystroke_f	f	n/a
322.46	0.1155	644920	keystroke_r	r	n/a
322.5765	0.089	645153	keystroke_o	o	n/a
322.7425	0.071	645485	keystroke_n	n	n/a
322.8145	0.066	645629	keystroke_t	t	n/a
322.956	0.159	645912	keystroke_p	p	n/a
323.116	0.1815	646232	keystroke_a	a	n/a
323.2985	0.068	646597	keystroke_g	g	n/a
323.4605	0.113	646921	keystroke_e	e	n/a
323.961	0.1165	647922	keystroke_Key.space	Key.space	n/a
324.1925	0.092	648385	keystroke_r	r	n/a
324.3825	0.1395	648765	keystroke_e	e	n/a
324.523	0.091	649046	keystroke_n	n	n/a
324.727	0.1125	649454	keystroke_o	o	n/a
325.154	0.115	650308	keystroke_Key.space	Key.space	n/a
325.341	0.115	650682	keystroke_a	a	n/a
325.457	0.0895	650914	keystroke_m	m	n/a
325.6125	0.091	651225	keystroke_p	p	n/a
326.3085	0.117	652617	keystroke_l	l	n/a
326.5355	0.095	653071	keystroke_i	i	n/a
326.7105	0.0965	653421	keystroke_f	f	n/a
326.782	0.117	653564	keystroke_i	i	n/a
326.921	0.115	653842	keystroke_e	e	n/a
327.2535	0.136	654507	keystroke_d	d	n/a
327.76	0.1135	655520	keystroke_Key.backspace	Key.backspace	n/a
327.9135	0.092	655827	keystroke_r	r	n/a
328.0885	0.137	656177	keystroke_Key.space	Key.space	n/a
329.208	0.1385	658416	keystroke_n	n	n/a
329.3475	0.16	658695	keystroke_e	e	n/a
329.3915	0.185	658783	keystroke_w	w	n/a
329.5775	0.112	659155	keystroke_p	p	n/a
329.752	0.118	659504	keystroke_o	o	n/a
329.899	0.094	659798	keystroke_r	r	n/a
330.095	0.0915	660190	keystroke_t	t	n/a
330.2705	0.093	660541	keystroke_Key.enter	Key.enter	n/a
330.369	13.7375	660738	prompt	n/a	nationally units veterans scholarship\n
331.3115	0.1395	662623	keystroke_n	n	n/a
331.473	0.092	662946	keystroke_a	a	n/a
331.624	0.093	663248	keystroke_t	t	n/a
331.694	0.0915	663388	keystroke_i	i	n/a
331.8845	0.072	663769	keystroke_a	a	n/a
331.9575	0.091	663915	keystroke_o	o	n/a
332.153	0.069	664306	keystroke_k	k	n/a
332.6955	0.116	665391	keystroke_Key.backspace	Key.backspace	n/a
332.963	0.138	665926	keystroke_Key.backspace	Key.backspace	n/a
333.2925	0.068	666585	keystroke_Key.backspace	Key.backspace	n/a
334.1035	0.115	668207	keystroke_o	o	n/a
334.3125	0.0705	668625	keystroke_n	n	n/a
334.451	0.091	668902	keystroke_a	a	n/a
334.564	0.069	669128	keystroke_l	l	n/a
334.693	0.1145	669386	keystroke_l	l	n/a
334.8085	0.114	669617	keystroke_y	y	n/a
334.9445	0.135	669889	keystroke_Key.space	Key.space	n/a
336.021	0.046	672042	keystroke_i	i	n/a
336.164	0.093	672328	keystroke_n	n	n/a
336.3845	0.1145	672769	keystroke_u	u	n/a
336.521	0.092	673042	keystroke_t	t	n/a
336.748	0.1155	673496	keystroke_s	s	n/a
336.9475	0.069	673895	keystroke_Key.backspace	Key.backspace	n/a
337.0985	0.0925	674197	keystroke_Key.backspace	Key.backspace	n/a
337.262	0.07	674524	keystroke_Key.backspace	Key.backspace	n/a
337.408	0.1585	674816	keystroke_Key.backspace	Key.backspace	n/a
337.7755	0.1115	675551	keystroke_Key.backspace	Key.backspace	n/a
338.249	0.0905	676498	keystroke_u	u	n/a
338.4115	0.092	676823	keystroke_n	n	n/a
338.5345	0.091	677069	keystroke_i	i	n/a
338.6475	0.1135	677295	keystroke_t	t	n/a
338.912	0.072	677824	keystroke_s	s	n/a
338.958	0.1135	677916	keystroke_Key.space	Key.space	n/a
339.749	0.091	679498	keystroke_v	v	n/a
339.9545	0.092	679909	keystroke_e	e	n/a
340.523	0.093	681046	keystroke_t	t	n/a
340.7405	0.116	681481	keystroke_e	e	n/a
340.9425	0.0905	681885	keystroke_r	r	n/a
341.108	0.116	682216	keystroke_a	a	n/a
341.199	0.092	682398	keystroke_n	n	n/a
341.3865	0.091	682773	keystroke_s	s	n/a
341.4995	0.116	682999	keystroke_Key.space	Key.space	n/a
341.936	0.114	683872	keystroke_s	s	n/a
342.1605	0.138	684321	keystroke_c	c	n/a
342.2755	0.071	684551	keystroke_h	h	n/a
342.466	0.093	684932	keystroke_o	o	n/a
342.632	0.138	685264	keystroke_l	l	n/a
342.7915	0.07	685583	keystroke_a	a	n/a
342.8825	0.0925	685765	keystroke_r	r	n/a
343.229	0.0465	686458	keystroke_s	s	n/a
343.3135	0.1585	686627	keystroke_h	h	n/a
343.403	0.138	686806	keystroke_i	i	n/a
343.665	0.1155	687330	keystroke_p	p	n/a
343.9915	0.1125	687983	keystroke_Key.enter	Key.enter	n/a
344.11	11.009	688220	prompt	n/a	improvements out offshore closest\n
347.4595	0.07	694919	keystroke_i	i	n/a
347.6475	0.071	695295	keystroke_m	m	n/a
347.854	0.091	695708	keystroke_p	p	n/a
347.967	0.136	695934	keystroke_r	r	n/a
348.079	0.1145	696158	keystroke_o	o	n/a
348.2355	0.092	696471	keystroke_v	v	n/a
348.4175	0.069	696835	keystroke_e	e	n/a
348.5085	0.115	697017	keystroke_m	m	n/a
348.6245	0.136	697249	keystroke_e	e	n/a
348.6905	0.095	697381	keystroke_n	n	n/a
348.852	0.115	697704	keystroke_t	t	n/a
349.087	0.1125	698174	keystroke_s	s	n/a
349.2005	0.114	698401	keystroke_Key.space	Key.space	n/a
349.578	0.117	699156	keystroke_o	o	n/a
349.749	0.072	699498	keystroke_u	u	n/a
349.796	0.1155	699592	keystroke_t	t	n/a
349.9345	0.1625	699869	keystroke_Key.space	Key.space	n/a
350.003	0.139	700006	keystroke_o	o	n/a
350.173	0.0935	700346	keystroke_f	f	n/a
350.2675	0.137	700535	keystroke_Key.space	Key.space	n/a
350.795	0.138	701590	keystroke_o	o	n/a
351.004	0.0905	702008	keystroke_f	f	n/a
351.1675	0.09	702335	keystroke_f	f	n/a
351.393	0.136	702786	keystroke_s	s	n/a
351.608	0.089	703216	keystroke_h	h	n/a
351.7635	0.115	703527	keystroke_o	o	n/a
352.0235	0.093	704047	keystroke_r	r	n/a
352.211	0.115	704422	keystroke_e	e	n/a
352.365	0.1375	704730	keystroke_Key.space	Key.space	n/a
352.8465	0.0925	705693	keystroke_l	l	n/a
353.228	0.1145	706456	keystroke_Key.backspace	Key.backspace	n/a
353.4205	0.091	706841	keystroke_c	c	n/a
353.5335	0.069	707067	keystroke_l	l	n/a
353.683	0.1385	707366	keystroke_o	o	n/a
353.7955	0.186	707591	keystroke_s	s	n/a
353.8885	0.14	707777	keystroke_e	e	n/a
354.554	0.0925	709108	keystroke_s	s	n/a
354.7975	0.135	709595	keystroke_t	t	n/a
354.999	0.118	709998	keystroke_Key.enter	Key.enter	n/a
355.123	11.265	710246	prompt	n/a	carolina borough plus guilty\n
356.034	0.093	712068	keystroke_c	c	n/a
356.081	0.1145	712162	keystroke_a	a	n/a
356.1965	0.135	712393	keystroke_r	r	n/a
356.4105	0.0925	712821	keystroke_o	o	n/a
356.587	0.093	713174	keystroke_l	l	n/a
356.778	0.069	713556	keystroke_i	i	n/a
356.9395	0.07	713879	keystroke_n	n	n/a
357.0815	0.116	714163	keystroke_a	a	n/a
357.1735	0.1145	714347	keystroke_Key.space	Key.space	n/a
357.7025	0.071	715405	keystroke_b	b	n/a
357.8935	0.1385	715787	keystroke_o	o	n/a
358.054	0.095	716108	keystroke_r	r	n/a
358.18	0.1835	716360	keystroke_o	o	n/a
358.4245	0.094	716849	keystroke_u	u	n/a
358.5755	0.1125	717151	keystroke_g	g	n/a
358.711	0.07	717422	keystroke_h	h	n/a
360.6015	0.141	721203	keystroke_r	r	n/a
360.7435	0.1565	721487	keystroke_o	o	n/a
360.8095	0.1135	721619	keystroke_u	u	n/a
361.005	0.115	722010	keystroke_g	g	n/a
361.121	0.066	722242	keystroke_h	h	n/a
361.3415	0.16	722683	keystroke_Key.space	Key.space	n/a
362.0305	0.137	724061	keystroke_p	p	n/a
362.2495	0.116	724499	keystroke_l	l	n/a
362.7925	0.091	725585	keystroke_u	u	n/a
362.9795	0.1385	725959	keystroke_Key.space	Key.space	n/a
363.7015	0.1135	727403	keystroke_Key.backspace	Key.backspace	n/a
363.942	0.113	727884	keystroke_s	s	n/a
364.078	0.1375	728156	keystroke_Key.space	Key.space	n/a
364.69	0.1165	729380	keystroke_g	g	n/a
364.8665	0.115	729733	keystroke_u	u	n/a
365.0715	0.071	730143	keystroke_i	i	n/a
365.247	0.117	730494	keystroke_l	l	n/a
365.468	0.137	730936	keystroke_i	i	n/a
365.636	0.115	731272	keystroke_t	t	n/a
365.788	0.092	731576	keystroke_y	y	n/a
366.0685	0.116	732137	keystroke_Key.space	Key.space	n/a
366.2755	0.111	732551	keystroke_Key.enter	Key.enter	n/a
366.3915	15.6445	732783	prompt	n/a	initiative applications reno inventory\n
367.4165	0.115	734833	keystroke_i	i	n/a
367.5725	0.094	735145	keystroke_n	n	n/a
367.6885	0.112	735377	keystroke_i	i	n/a
367.8245	0.138	735649	keystroke_t	t	n/a
367.8915	0.21	735783	keystroke_i	i	n/a
368.0535	0.1175	736107	keystroke_a	a	n/a
368.0775	0.1395	736155	keystroke_t	t	n/a
368.299	0.09	736598	keystroke_e	e	n/a
368.421	0.1145	736842	keystroke_Key.space	Key.space	n/a
368.5845	0.138	737169	keystroke_a	a	n/a
368.7235	0.2255	737447	keystroke_p	p	n/a
369.1025	0.0465	738205	keystroke_l	l	n/a
369.4315	0.072	738863	keystroke_Key.backspace	Key.backspace	n/a
369.5925	0.069	739185	keystroke_Key.backspace	Key.backspace	n/a
369.917	0.093	739834	keystroke_Key.backspace	Key.backspace	n/a
370.099	0.0935	740198	keystroke_Key.backspace	Key.backspace	n/a
370.3495	0.092	740699	keystroke_Key.backspace	Key.backspace	n/a
371.8055	0.09	743611	keystroke_i	i	n/a
371.9425	0.092	743885	keystroke_v	v	n/a
372.118	0.118	744236	keystroke_e	e	n/a
372.238	0.134	744476	keystroke_Key.space	Key.space	n/a
372.394	0.0915	744788	keystroke_p	p	n/a
372.6015	0.046	745203	keystroke_l	l	n/a
372.7175	0.069	745435	keystroke_l	l	n/a
372.849	0.091	745698	keystroke_l	l	n/a
372.99	0.116	745980	keystroke_c	c	n/a
373.058	0.115	746116	keystroke_a	a	n/a
373.1945	0.069	746389	keystroke_i	i	n/a
374.3295	0.0695	748659	keystroke_Key.backspace	Key.backspace	n/a
374.668	0.1145	749336	keystroke_Key.backspace	Key.backspace	n/a
374.8855	0.113	749771	keystroke_a	a	n/a
375.0645	0.092	750129	keystroke_p	p	n/a
375.205	0.096	750410	keystroke_p	p	n/a
375.39	0.069	750780	keystroke_l	l	n/a
375.573	0.071	751146	keystroke_i	i	n/a
375.6655	0.046	751331	keystroke_c	c	n/a
375.7125	0.09	751425	keystroke_a	a	n/a
375.8465	0.092	751693	keystroke_t	t	n/a
375.8915	0.07	751783	keystroke_i	i	n/a
376.044	0.09	752088	keystroke_o	o	n/a
376.203	0.071	752406	keystroke_n	n	n/a
376.315	0.1165	752630	keystroke_s	s	n/a
376.4325	0.114	752865	keystroke_Key.space	Key.space	n/a
376.5975	0.091	753195	keystroke_r	r	n/a
376.776	0.091	753552	keystroke_e	e	n/a
377.4285	0.07	754857	keystroke_n	n	n/a
377.578	0.115	755156	keystroke_o	o	n/a
377.751	0.116	755502	keystroke_Key.space	Key.space	n/a
378.545	0.114	757090	keystroke_i	i	n/a
378.7475	0.115	757495	keystroke_n	n	n/a
378.9085	0.095	757817	keystroke_v	v	n/a
379.114	0.093	758228	keystroke_e	e	n/a
379.229	0.117	758458	keystroke_n	n	n/a
379.4765	0.069	758953	keystroke_t	t	n/a
379.724	0.115	759448	keystroke_r	r	n/a
379.815	0.0915	759630	keystroke_y	y	n/a
380.399	0.096	760798	keystroke_Key.backspace	Key.backspace	n/a
380.6645	0.116	761329	keystroke_Key.backspace	Key.backspace	n/a
381.143	0.092	762286	keystroke_o	o	n/a
381.4825	0.07	762965	keystroke_r	r	n/a
381.6175	0.0905	763235	keystroke_y	y	n/a
381.965	0.069	763930	keystroke_Key.enter	Key.enter	n/a
382.039	7.3115	764078	prompt	n/a	acids sean tops remark\n
382.747	0.1155	765494	keystroke_a	a	n/a
382.9215	0.114	765843	keystroke_c	c	n/a
383.316	0.113	766632	keystroke_d	d	n/a
383.532	0.0925	767064	keystroke_s	s	n/a
383.7645	0.092	767529	keystroke_Key.backspace	Key.backspace	n/a
383.9135	0.1155	767827	keystroke_Key.backspace	Key.backspace	n/a
384.6285	0.0915	769257	keystroke_i	i	n/a
384.742	0.069	769484	keystroke_d	d	n/a
384.938	0.1605	769876	keystroke_s	s	n/a
385.029	0.1155	770058	keystroke_Key.space	Key.space	n/a
385.2005	0.186	770401	keystroke_s	s	n/a
385.3395	0.114	770679	keystroke_e	e	n/a
385.5345	0.1355	771069	keystroke_a	a	n/a
385.783	0.093	771566	keystroke_d	d	n/a
386.644	0.0695	773288	keystroke_Key.backspace	Key.backspace	n/a
386.9275	0.068	773855	keystroke_n	n	n/a
387.08	0.09	774160	keystroke_Key.space	Key.space	n/a
387.218	0.115	774436	keystroke_t	t	n/a
387.286	0.117	774572	keystroke_o	o	n/a
387.4495	0.137	774899	keystroke_p	p	n/a
387.6265	0.092	775253	keystroke_s	s	n/a
388.122	0.134	776244	keystroke_Key.space	Key.space	n/a
388.3555	0.09	776711	keystroke_r	r	n/a
388.5295	0.1125	777059	keystroke_e	e	n/a
388.674	0.115	777348	keystroke_m	m	n/a
388.81	0.116	777620	keystroke_a	a	n/a
388.927	0.1135	777854	keystroke_r	r	n/a
389.0415	0.045	778083	keystroke_k	k	n/a
389.2345	0.1145	778469	keystroke_Key.enter	Key.enter	n/a
389.353	11.3105	778706	prompt	n/a	socks choices plain privacy\n
390.151	0.1155	780302	keystroke_s	s	n/a
390.3885	0.1135	780777	keystroke_c	c	n/a
390.523	0.069	781046	keystroke_k	k	n/a
390.831	0.0915	781662	keystroke_Key.backspace	Key.backspace	n/a
390.9775	0.093	781955	keystroke_Key.backspace	Key.backspace	n/a
391.647	0.0925	783294	keystroke_o	o	n/a
391.7705	0.113	783541	keystroke_c	c	n/a
392.1	0.093	784200	keystroke_k	k	n/a
392.235	0.093	784470	keystroke_s	s	n/a
392.365	0.1395	784730	keystroke_Key.space	Key.space	n/a
393.038	0.117	786076	keystroke_c	c	n/a
393.3245	0.094	786649	keystroke_o	o	n/a
393.4855	0.0915	786971	keystroke_i	i	n/a
393.672	0.092	787344	keystroke_c	c	n/a
393.696	0.157	787392	keystroke_e	e	n/a
393.9985	0.091	787997	keystroke_s	s	n/a
394.326	0.07	788652	keystroke_Key.backspace	Key.backspace	n/a
394.489	0.07	788978	keystroke_Key.backspace	Key.backspace	n/a
394.655	0.068	789310	keystroke_Key.backspace	Key.backspace	n/a
394.7855	0.095	789571	keystroke_Key.backspace	Key.backspace	n/a
394.97	0.0465	789940	keystroke_Key.backspace	Key.backspace	n/a
395.6495	0.069	791299	keystroke_h	h	n/a
395.8095	0.0705	791619	keystroke_o	o	n/a
395.97	0.091	791940	keystroke_i	i	n/a
396.099	0.094	792198	keystroke_c	c	n/a
396.147	0.115	792294	keystroke_e	e	n/a
396.3715	0.1145	792743	keystroke_s	s	n/a
396.508	0.137	793016	keystroke_Key.space	Key.space	n/a
396.9805	0.1365	793961	keystroke_p	p	n/a
397.196	0.112	794392	keystroke_l	l	n/a
397.349	0.094	794698	keystroke_a	a	n/a
397.7135	0.093	795427	keystroke_i	i	n/a
397.916	0.047	795832	keystroke_n	n	n/a
398.234	0.1135	796468	keystroke_Key.space	Key.space	n/a
399.1025	0.115	798205	keystroke_p	p	n/a
399.2855	0.1165	798571	keystroke_r	r	n/a
399.3305	0.1415	798661	keystroke_i	i	n/a
399.606	0.114	799212	keystroke_v	v	n/a
399.7415	0.115	799483	keystroke_a	a	n/a
399.9675	0.117	799935	keystroke_c	c	n/a
400.1605	0.092	800321	keystroke_y	y	n/a
400.5715	0.09	801143	keystroke_Key.enter	Key.enter	n/a
400.6665	7.6035	801333	prompt	n/a	cuisine semi departments sterling\n
401.452	0.072	802904	keystroke_c	c	n/a
401.577	0.093	803154	keystroke_u	u	n/a
401.762	0.1125	803524	keystroke_i	i	n/a
401.8975	0.112	803795	keystroke_s	s	n/a
402.0315	0.112	804063	keystroke_i	i	n/a
402.242	0.07	804484	keystroke_n	n	n/a
402.336	0.114	804672	keystroke_e	e	n/a
402.472	0.1155	804944	keystroke_Key.space	Key.space	n/a
403.148	0.2285	806296	keystroke_s	s	n/a
403.286	0.1365	806572	keystroke_e	e	n/a
403.4235	0.115	806847	keystroke_m	m	n/a
403.8795	0.1125	807759	keystroke_i	i	n/a
404.1315	0.16	808263	keystroke_Key.space	Key.space	n/a
404.3435	0.069	808687	keystroke_d	d	n/a
404.5095	0.1345	809019	keystroke_e	e	n/a
404.687	0.163	809374	keystroke_p	p	n/a
404.803	0.1825	809606	keystroke_a	a	n/a
404.9615	0.091	809923	keystroke_r	r	n/a
405.1675	0.093	810335	keystroke_t	t	n/a
405.317	0.092	810634	keystroke_m	m	n/a
405.442	0.117	810884	keystroke_e	e	n/a
405.56	0.0435	811120	keystroke_n	n	n/a
405.6785	0.113	811357	keystroke_t	t	n/a
405.9435	0.1355	811887	keystroke_s	s	n/a
406.248	0.1605	812496	keystroke_Key.space	Key.space	n/a
406.771	0.159	813542	keystroke_s	s	n/a
407.1155	0.112	814231	keystroke_t	t	n/a
407.3245	0.069	814649	keystroke_e	e	n/a
407.4775	0.1155	814955	keystroke_r	r	n/a
407.594	0.092	815188	keystroke_l	l	n/a
407.793	0.072	815586	keystroke_i	i	n/a
407.9175	0.072	815835	keystroke_n	n	n/a
408.0395	0.115	816079	keystroke_g	g	n/a
408.1555	0.113	816311	keystroke_Key.enter	Key.enter	n/a
408.273	11.8875	816546	prompt	n/a	copyrighted brought forum shirts\n
409.041	0.1385	818082	keystroke_c	c	n/a
409.3665	0.0925	818733	keystroke_o	o	n/a
409.537	0.094	819074	keystroke_p	p	n/a
409.8215	0.09	819643	keystroke_y	y	n/a
410.0525	0.117	820105	keystroke_i	i	n/a
410.19	0.115	820380	keystroke_r	r	n/a
410.563	0.0695	821126	keystroke_Key.backspace	Key.backspace	n/a
410.6995	0.093	821399	keystroke_Key.backspace	Key.backspace	n/a
410.7935	0.1335	821587	keystroke_r	r	n/a
410.95	0.096	821900	keystroke_i	i	n/a
411.098	0.093	822196	keystroke_g	g	n/a
411.192	0.0665	822384	keystroke_h	h	n/a
411.313	0.1135	822626	keystroke_t	t	n/a
412.6115	0.091	825223	keystroke_e	e	n/a
412.8145	0.1155	825629	keystroke_d	d	n/a
413.029	0.16	826058	keystroke_Key.space	Key.space	n/a
413.7	0.138	827400	keystroke_b	b	n/a
414.0185	0.115	828037	keystroke_r	r	n/a
414.0625	0.208	828125	keystroke_o	o	n/a
414.2235	0.07	828447	keystroke_u	u	n/a
414.335	0.091	828670	keystroke_g	g	n/a
414.515	0.113	829030	keystroke_h	h	n/a
415.243	0.094	830486	keystroke_t	t	n/a
415.4115	0.1365	830823	keystroke_Key.space	Key.space	n/a
415.591	0.091	831182	keystroke_f	f	n/a
415.683	0.112	831366	keystroke_o	o	n/a
415.839	0.1135	831678	keystroke_r	r	n/a
415.9845	0.09	831969	keystroke_m	m	n/a
416.584	0.092	833168	keystroke_Key.backspace	Key.backspace	n/a
416.7425	0.115	833485	keystroke_r	r	n/a
416.98	0.115	833960	keystroke_u	u	n/a
417.4955	0.0695	834991	keystroke_Key.backspace	Key.backspace	n/a
417.638	0.116	835276	keystroke_Key.backspace	Key.backspace	n/a
417.877	0.0905	835754	keystroke_u	u	n/a
418.1155	0.071	836231	keystroke_m	m	n/a
418.397	0.114	836794	keystroke_Key.space	Key.space	n/a
419.131	0.118	838262	keystroke_s	s	n/a
419.25	0.113	838500	keystroke_h	h	n/a
419.293	0.1595	838586	keystroke_i	i	n/a
419.475	0.0915	838950	keystroke_r	r	n/a
419.6415	0.093	839283	keystroke_t	t	n/a
419.861	0.115	839722	keystroke_s	s	n/a
420.02	0.1385	840040	keystroke_Key.enter	Key.enter	n/a
420.163	12.4185	840326	prompt	n/a	compound errors identifying wide\n
420.879	0.1135	841758	keystroke_c	c	n/a
420.9935	0.111	841987	keystroke_o	o	n/a
421.1865	0.069	842373	keystroke_m	m	n/a
422.082	0.116	844164	keystroke_p	p	n/a
422.4325	0.093	844865	keystroke_u	u	n/a
422.7465	0.0945	845493	keystroke_n	n	n/a
423.164	0.1355	846328	keystroke_d	d	n/a
423.665	0.095	847330	keystroke_Key.backspace	Key.backspace	n/a
423.824	0.09	847648	keystroke_Key.backspace	Key.backspace	n/a
424.1155	0.134	848231	keystroke_Key.backspace	Key.backspace	n/a
424.7205	0.114	849441	keystroke_o	o	n/a
424.8945	0.071	849789	keystroke_u	u	n/a
425.103	0.067	850206	keystroke_n	n	n/a
425.218	0.116	850436	keystroke_d	d	n/a
425.357	0.1145	850714	keystroke_Key.space	Key.space	n/a
426.058	0.114	852116	keystroke_e	e	n/a
426.2605	0.091	852521	keystroke_r	r	n/a
426.4175	0.1145	852835	keystroke_r	r	n/a
426.534	0.112	853068	keystroke_o	o	n/a
426.647	0.091	853294	keystroke_r	r	n/a
426.841	0.1145	853682	keystroke_s	s	n/a
427.0155	0.14	854031	keystroke_Key.space	Key.space	n/a
427.6235	0.115	855247	keystroke_i	i	n/a
427.7725	0.045	855545	keystroke_d	d	n/a
427.9345	0.1125	855869	keystroke_e	e	n/a
428.024	0.091	856048	keystroke_n	n	n/a
428.235	0.092	856470	keystroke_t	t	n/a
428.349	0.1575	856698	keystroke_i	i	n/a
428.5355	0.071	857071	keystroke_f	f	n/a
428.6575	0.089	857315	keystroke_y	y	n/a
428.844	0.068	857688	keystroke_i	i	n/a
428.987	0.091	857974	keystroke_n	n	n/a
429.117	0.0685	858234	keystroke_g	g	n/a
429.2085	0.115	858417	keystroke_Key.space	Key.space	n/a
429.85	0.1135	859700	keystroke_s	s	n/a
429.9855	0.093	859971	keystroke_i	i	n/a
430.1005	0.046	860201	keystroke_d	d	n/a
430.258	0.1135	860516	keystroke_e	e	n/a
430.8455	0.07	861691	keystroke_Key.backspace	Key.backspace	n/a
430.9915	0.1125	861983	keystroke_Key.backspace	Key.backspace	n/a
431.139	0.092	862278	keystroke_Key.backspace	Key.backspace	n/a
431.6015	0.114	863203	keystroke_Key.backspace	Key.backspace	n/a
431.864	0.14	863728	keystroke_w	w	n/a
432.066	0.092	864132	keystroke_i	i	n/a
432.19	0.0685	864380	keystroke_d	d	n/a
432.3715	0.139	864743	keystroke_e	e	n/a
432.4855	0.095	864971	keystroke_Key.enter	Key.enter	n/a
432.586	24.008	865172	prompt	n/a	warnings maternity charleston reported\n
433.3115	0.1185	866623	keystroke_w	w	n/a
433.405	0.163	866810	keystroke_a	a	n/a
433.523	0.136	867046	keystroke_r	r	n/a
433.689	0.0665	867378	keystroke_n	n	n/a
433.846	0.067	867692	keystroke_i	i	n/a
434.001	0.072	868002	keystroke_n	n	n/a
434.048	0.1135	868096	keystroke_g	g	n/a
434.2675	0.117	868535	keystroke_s	s	n/a
434.3855	0.1125	868771	keystroke_Key.space	Key.space	n/a
434.658	0.159	869316	keystroke_m	m	n/a
434.748	0.2285	869496	keystroke_a	a	n/a
434.886	0.1135	869772	keystroke_t	t	n/a
435.0985	0.071	870197	keystroke_e	e	n/a
435.25	0.116	870500	keystroke_r	r	n/a
435.8645	0.0915	871729	keystroke_n	n	n/a
436.017	0.162	872034	keystroke_i	i	n/a
436.246	0.1145	872492	keystroke_t	t	n/a
436.4105	0.095	872821	keystroke_y	y	n/a
436.5275	0.116	873055	keystroke_Key.space	Key.space	n/a
436.975	0.114	873950	keystroke_c	c	n/a
437.0645	0.115	874129	keystroke_h	h	n/a
437.2115	0.113	874423	keystroke_a	a	n/a
437.3465	0.092	874693	keystroke_r	r	n/a
437.4605	0.1345	874921	keystroke_l	l	n/a
437.8025	0.186	875605	keystroke_s	s	n/a
438.24	0.137	876480	keystroke_Key.backspace	Key.backspace	n/a
438.407	0.092	876814	keystroke_e	e	n/a
438.6135	0.137	877227	keystroke_s	s	n/a
438.8475	0.1155	877695	keystroke_l	l	n/a
439.015	0.113	878030	keystroke_t	t	n/a
439.196	0.1155	878392	keystroke_o	o	n/a
439.4895	0.089	878979	keystroke_n	n	n/a
439.6865	0.1145	879373	keystroke_Key.space	Key.space	n/a
440.1425	0.114	880285	keystroke_r	r	n/a
440.3305	0.113	880661	keystroke_e	e	n/a
440.4185	0.0915	880837	keystroke_p	p	n/a
440.552	0.115	881104	keystroke_o	o	n/a
440.668	0.067	881336	keystroke_r	r	n/a
440.817	0.1165	881634	keystroke_t	t	n/a
441.0235	0.092	882047	keystroke_e	e	n/a
441.2025	0.1125	882405	keystroke_d	d	n/a
443.725	0.093	887450	keystroke_Key.left	Key.left	n/a
443.9	0.0695	887800	keystroke_Key.left	Key.left	n/a
444.0605	0.07	888121	keystroke_Key.left	Key.left	n/a
444.2095	0.093	888419	keystroke_Key.left	Key.left	n/a
444.37	0.071	888740	keystroke_Key.left	Key.left	n/a
444.526	0.091	889052	keystroke_Key.left	Key.left	n/a
445.5655	0.09	891131	keystroke_Key.right	Key.right	n/a
445.7315	0.091	891463	keystroke_Key.right	Key.right	n/a
446.647	0.115	893294	keystroke_Key.backspace	Key.backspace	n/a
447.6635	0.137	895327	keystroke_Key.left	Key.left	n/a
448.63	0.113	897260	keystroke_l	l	n/a
448.745	0.09	897490	keystroke_Key.right	Key.right	n/a
448.913	0.1375	897826	keystroke_Key.right	Key.right	n/a
451.8835	0.116	903767	keystroke_Key.left	Key.left	n/a
452.091	0.067	904182	keystroke_Key.left	Key.left	n/a
452.266	0.071	904532	keystroke_Key.left	Key.left	n/a
452.372	0.2035	904744	keystroke_Key.left	Key.left	n/a
454.7905	0.07	909581	keystroke_Key.right	Key.right	n/a
454.9685	0.094	909937	keystroke_Key.right	Key.right	n/a
455.145	0.091	910290	keystroke_Key.right	Key.right	n/a
455.5415	0.115	911083	keystroke_Key.left	Key.left	n/a
456.19	0.0915	912380	keystroke_Key.backspace	Key.backspace	n/a
456.5	0.092	913000	keystroke_Key.enter	Key.enter	n/a
456.5975	11.689	913195	prompt	n/a	starring columnists biotechnology use\n
457.5035	0.089	915007	keystroke_s	s	n/a
458.7545	0.093	917509	keystroke_t	t	n/a
458.9425	0.1155	917885	keystroke_a	a	n/a
458.9885	0.0955	917977	keystroke_r	r	n/a
459.176	0.156	918352	keystroke_r	r	n/a
459.369	0.0925	918738	keystroke_i	i	n/a
459.6685	0.068	919337	keystroke_g	g	n/a
459.7375	0.1105	919475	keystroke_Key.space	Key.space	n/a
460.1315	0.092	920263	keystroke_Key.backspace	Key.backspace	n/a
460.2935	0.112	920587	keystroke_Key.backspace	Key.backspace	n/a
460.862	0.0935	921724	keystroke_n	n	n/a
461.1455	0.113	922291	keystroke_g	g	n/a
461.2925	0.1155	922585	keystroke_Key.space	Key.space	n/a
461.447	0.09	922894	keystroke_c	c	n/a
461.538	0.069	923076	keystroke_o	o	n/a
461.6915	0.115	923383	keystroke_l	l	n/a
461.9835	0.092	923967	keystroke_u	u	n/a
462.313	0.07	924626	keystroke_m	m	n/a
462.4645	0.092	924929	keystroke_n	n	n/a
462.5885	0.116	925177	keystroke_i	i	n/a
463.019	0.117	926038	keystroke_s	s	n/a
463.248	0.1135	926496	keystroke_t	t	n/a
463.3835	0.138	926767	keystroke_Key.space	Key.space	n/a
464.7175	0.116	929435	keystroke_b	b	n/a
464.879	0.117	929758	keystroke_i	i	n/a
465.2315	0.137	930463	keystroke_o	o	n/a
465.4625	0.092	930925	keystroke_t	t	n/a
465.649	0.114	931298	keystroke_e	e	n/a
465.8425	0.135	931685	keystroke_c	c	n/a
465.9545	0.112	931909	keystroke_h	h	n/a
466.166	0.067	932332	keystroke_n	n	n/a
466.407	0.116	932814	keystroke_o	o	n/a
466.5955	0.092	933191	keystroke_l	l	n/a
466.7775	0.117	933555	keystroke_o	o	n/a
466.9475	0.1355	933895	keystroke_g	g	n/a
467.084	0.139	934168	keystroke_y	y	n/a
467.199	0.1145	934398	keystroke_Key.space	Key.space	n/a
467.844	0.118	935688	keystroke_u	u	n/a
467.962	0.1585	935924	keystroke_s	s	n/a
468.0495	0.119	936099	keystroke_e	e	n/a
468.1905	0.095	936381	keystroke_Key.enter	Key.enter	n/a
468.29	17.92	936580	prompt	n/a	cooling upgrade columns theology\n
468.9905	0.095	937981	keystroke_c	c	n/a
469.1075	0.0915	938215	keystroke_o	o	n/a
469.29	0.071	938580	keystroke_l	l	n/a
469.405	0.092	938810	keystroke_l	l	n/a
469.6095	0.091	939219	keystroke_i	i	n/a
469.7995	0.071	939599	keystroke_n	n	n/a
469.8725	0.1125	939745	keystroke_g	g	n/a
469.986	0.135	939972	keystroke_Key.space	Key.space	n/a
470.3155	0.136	940631	keystroke_u	u	n/a
470.6385	0.1395	941277	keystroke_p	p	n/a
471.1395	0.095	942279	keystroke_g	g	n/a
471.3505	0.0925	942701	keystroke_r	r	n/a
471.464	0.116	942928	keystroke_a	a	n/a
471.639	0.07	943278	keystroke_d	d	n/a
471.8105	0.116	943621	keystroke_e	e	n/a
471.9265	0.135	943853	keystroke_Key.space	Key.space	n/a
472.234	0.136	944468	keystroke_c	c	n/a
472.392	0.0915	944784	keystroke_o	o	n/a
472.5465	0.1135	945093	keystroke_m	m	n/a
472.942	0.1375	945884	keystroke_l	l	n/a
473.2045	0.0915	946409	keystroke_u	u	n/a
473.404	0.0705	946808	keystroke_m	m	n/a
473.5485	0.116	947097	keystroke_n	n	n/a
473.7115	0.0925	947423	keystroke_s	s	n/a
473.834	0.138	947668	keystroke_Key.space	Key.space	n/a
474.1235	0.094	948247	keystroke_t	t	n/a
474.1915	0.117	948383	keystroke_h	h	n/a
474.3985	0.1125	948797	keystroke_e	e	n/a
474.512	0.135	949024	keystroke_o	o	n/a
474.705	0.091	949410	keystroke_r	r	n/a
474.9275	0.114	949855	keystroke_l	l	n/a
475.1245	0.091	950249	keystroke_o	o	n/a
475.41	0.068	950820	keystroke_Key.backspace	Key.backspace	n/a
475.562	0.1575	951124	keystroke_Key.backspace	Key.backspace	n/a
475.8185	0.115	951637	keystroke_Key.backspace	Key.backspace	n/a
476.4695	0.068	952939	keystroke_l	l	n/a
476.6145	0.115	953229	keystroke_o	o	n/a
476.8285	0.1375	953657	keystroke_g	g	n/a
477.047	0.093	954094	keystroke_y	y	n/a
477.2785	0.139	954557	keystroke_Key.space	Key.space	n/a
479.4975	0.046	958995	keystroke_Key.left	Key.left	n/a
479.787	0.07	959574	keystroke_Key.left	Key.left	n/a
479.94	0.0865	959880	keystroke_Key.left	Key.left	n/a
480.1665	0.09	960333	keystroke_Key.left	Key.left	n/a
481.122	0.095	962244	keystroke_Key.backspace	Key.backspace	n/a
483.632	0.092	967264	keystroke_Key.right	Key.right	n/a
483.8135	0.093	967627	keystroke_Key.right	Key.right	n/a
483.9735	0.094	967947	keystroke_Key.right	Key.right	n/a
484.7015	0.116	969403	keystroke_Key.backspace	Key.backspace	n/a
485.194	0.1155	970388	keystroke_o	o	n/a
486.1165	0.092	972233	keystroke_Key.enter	Key.enter	n/a
486.2125	11.014	972425	prompt	n/a	informal rogers productivity bosnia\n
487.1445	0.0915	974289	keystroke_i	i	n/a
487.306	0.072	974612	keystroke_n	n	n/a
487.422	0.069	974844	keystroke_f	f	n/a
487.467	0.048	974934	keystroke_o	o	n/a
487.571	0.1125	975142	keystroke_r	r	n/a
487.6365	0.072	975273	keystroke_m	m	n/a
487.7295	0.0695	975459	keystroke_a	a	n/a
487.801	0.134	975602	keystroke_t	t	n/a
487.9835	0.113	975967	keystroke_l	l	n/a
488.4875	0.07	976975	keystroke_Key.backspace	Key.backspace	n/a
488.6195	0.094	977239	keystroke_Key.backspace	Key.backspace	n/a
488.858	0.092	977716	keystroke_l	l	n/a
489.045	0.1165	978090	keystroke_Key.space	Key.space	n/a
489.9085	0.117	979817	keystroke_r	r	n/a
490.0265	0.114	980053	keystroke_o	o	n/a
490.1415	0.09	980283	keystroke_g	g	n/a
490.3045	0.1145	980609	keystroke_e	e	n/a
490.477	0.114	980954	keystroke_r	r	n/a
490.666	0.1365	981332	keystroke_s	s	n/a
490.8035	0.133	981607	keystroke_Key.space	Key.space	n/a
491.6955	0.137	983391	keystroke_p	p	n/a
491.866	0.119	983732	keystroke_r	r	n/a
491.938	0.1365	983876	keystroke_o	o	n/a
492.2685	0.117	984537	keystroke_d	d	n/a
492.46	0.116	984920	keystroke_u	u	n/a
492.551	0.093	985102	keystroke_c	c	n/a
492.8385	0.113	985677	keystroke_t	t	n/a
492.9525	0.114	985905	keystroke_i	i	n/a
494.6145	0.09	989229	keystroke_v	v	n/a
494.726	0.116	989452	keystroke_i	i	n/a
494.93	0.114	989860	keystroke_t	t	n/a
495.02	0.093	990040	keystroke_y	y	n/a
495.1515	0.114	990303	keystroke_Key.space	Key.space	n/a
496.2055	0.0885	992411	keystroke_b	b	n/a
496.462	0.113	992924	keystroke_o	o	n/a
496.637	0.1135	993274	keystroke_s	s	n/a
496.7515	0.045	993503	keystroke_n	n	n/a
496.8735	0.069	993747	keystroke_i	i	n/a
496.9875	0.0895	993975	keystroke_a	a	n/a
497.133	0.092	994266	keystroke_Key.enter	Key.enter	n/a
497.229	8.1275	994458	prompt	n/a	roads costs teachers extending\n
498.2255	0.113	996451	keystroke_r	r	n/a
498.3605	0.114	996721	keystroke_o	o	n/a
498.4755	0.0675	996951	keystroke_a	a	n/a
498.666	0.09	997332	keystroke_d	d	n/a
498.862	0.1145	997724	keystroke_s	s	n/a
499.0085	0.136	998017	keystroke_Key.space	Key.space	n/a
499.2355	0.1135	998471	keystroke_c	c	n/a
499.35	0.14	998700	keystroke_o	o	n/a
500.06	0.091	1000120	keystroke_s	s	n/a
500.29	0.0915	1000580	keystroke_t	t	n/a
500.5475	0.093	1001095	keystroke_s	s	n/a
500.6615	0.1175	1001323	keystroke_Key.space	Key.space	n/a
501.3825	0.1145	1002765	keystroke_t	t	n/a
501.581	0.115	1003162	keystroke_e	e	n/a
501.72	0.1595	1003440	keystroke_a	a	n/a
501.8545	0.1165	1003709	keystroke_c	c	n/a
501.972	0.111	1003944	keystroke_h	h	n/a
502.084	0.09	1004168	keystroke_e	e	n/a
502.246	0.0915	1004492	keystroke_r	r	n/a
502.4385	0.097	1004877	keystroke_s	s	n/a
502.5355	0.1575	1005071	keystroke_Key.space	Key.space	n/a
502.716	0.116	1005432	keystroke_e	e	n/a
502.958	0.1365	1005916	keystroke_x	x	n/a
503.489	0.116	1006978	keystroke_e	e	n/a
504.0005	0.114	1008001	keystroke_Key.backspace	Key.backspace	n/a
504.1725	0.0905	1008345	keystroke_t	t	n/a
504.354	0.092	1008708	keystroke_e	e	n/a
504.468	0.046	1008936	keystroke_n	n	n/a
504.573	0.1155	1009146	keystroke_d	d	n/a
504.6895	0.067	1009379	keystroke_i	i	n/a
504.8435	0.093	1009687	keystroke_n	n	n/a
504.9385	0.0905	1009877	keystroke_g	g	n/a
505.1	0.163	1010200	keystroke_Key.space	Key.space	n/a
505.215	0.14	1010430	keystroke_Key.enter	Key.enter	n/a
505.3595	28.6855	1010719	prompt	n/a	britannica packaging attitude merely\n
506.7905	0.115	1013581	keystroke_b	b	n/a
507.297	0.0905	1014594	keystroke_r	r	n/a
507.4595	0.117	1014919	keystroke_i	i	n/a
507.6385	0.113	1015277	keystroke_t	t	n/a
507.93	0.1365	1015860	keystroke_a	a	n/a
508.0895	0.046	1016179	keystroke_n	n	n/a
508.215	0.093	1016430	keystroke_n	n	n/a
508.396	0.137	1016792	keystroke_i	i	n/a
508.6315	0.138	1017263	keystroke_c	c	n/a
508.7455	0.114	1017491	keystroke_a	a	n/a
509.6185	0.1375	1019237	keystroke_Key.space	Key.space	n/a
509.878	0.139	1019756	keystroke_p	p	n/a
510.018	0.1345	1020036	keystroke_a	a	n/a
510.1535	0.135	1020307	keystroke_c	c	n/a
510.2895	0.091	1020579	keystroke_k	k	n/a
510.423	0.092	1020846	keystroke_a	a	n/a
510.638	0.116	1021276	keystroke_g	g	n/a
510.755	0.0655	1021510	keystroke_i	i	n/a
510.9265	0.044	1021853	keystroke_n	n	n/a
511.0175	0.092	1022035	keystroke_g	g	n/a
511.1305	0.0935	1022261	keystroke_Key.space	Key.space	n/a
511.515	0.1345	1023030	keystroke_a	a	n/a
511.7115	0.068	1023423	keystroke_t	t	n/a
511.8515	0.1145	1023703	keystroke_t	t	n/a
511.988	0.136	1023976	keystroke_i	i	n/a
512.125	0.068	1024250	keystroke_t	t	n/a
512.217	0.1335	1024434	keystroke_i	i	n/a
512.3725	0.047	1024745	keystroke_t	t	n/a
512.5755	0.117	1025151	keystroke_u	u	n/a
512.728	0.092	1025456	keystroke_d	d	n/a
512.922	0.138	1025844	keystroke_e	e	n/a
513.036	0.1375	1026072	keystroke_Key.space	Key.space	n/a
513.9715	0.138	1027943	keystroke_m	m	n/a
514.1315	0.093	1028263	keystroke_e	e	n/a
514.295	0.07	1028590	keystroke_r	r	n/a
514.466	0.112	1028932	keystroke_e	e	n/a
514.599	0.0945	1029198	keystroke_l	l	n/a
514.817	0.091	1029634	keystroke_y	y	n/a
516.782	0.069	1033564	keystroke_Key.ctrl_r	Key.ctrl_r	n/a
516.96	0.069	1033920	keystroke_Key.ctrl_r	Key.ctrl_r	n/a
518.6945	0.089	1037389	keystroke_Key.left	Key.left	n/a
518.8355	0.094	1037671	keystroke_Key.left	Key.left	n/a
518.9905	0.1135	1037981	keystroke_Key.left	Key.left	n/a
519.829	0.094	1039658	keystroke_Key.backspace	Key.backspace	n/a
521.1405	0.115	1042281	keystroke_Key.right	Key.right	n/a
521.345	0.111	1042690	keystroke_Key.right	Key.right	n/a
521.505	0.093	1043010	keystroke_Key.right	Key.right	n/a
521.688	0.0905	1043376	keystroke_Key.right	Key.right	n/a
521.9005	0.092	1043801	keystroke_Key.right	Key.right	n/a
522.0645	0.0895	1044129	keystroke_Key.right	Key.right	n/a
522.226	0.092	1044452	keystroke_Key.right	Key.right	n/a
522.384	0.1145	1044768	keystroke_Key.right	Key.right	n/a
523.3745	0.091	1046749	keystroke_t	t	n/a
523.5675	0.069	1047135	keystroke_i	i	n/a
523.701	0.094	1047402	keystroke_t	t	n/a
523.771	0.091	1047542	keystroke_i	i	n/a
524.001	0.091	1048002	keystroke_u	u	n/a
524.046	0.0935	1048092	keystroke_d	d	n/a
524.2485	0.117	1048497	keystroke_e	e	n/a
524.4015	0.1555	1048803	keystroke_Key.space	Key.space	n/a
524.745	0.066	1049490	keystroke_Key.print_screen	Key.print_screen	n/a
524.9045	0.069	1049809	keystroke_Key.print_screen	Key.print_screen	n/a
525.0525	0.068	1050105	keystroke_Key.print_screen	Key.print_screen	n/a
525.2025	0.0685	1050405	keystroke_Key.print_screen	Key.print_screen	n/a
525.362	0.068	1050724	keystroke_Key.print_screen	Key.print_screen	n/a
525.5275	0.0885	1051055	keystroke_Key.print_screen	Key.print_screen	n/a
527.574	0.069	1055148	keystroke_Key.delete	Key.delete	n/a
527.723	0.069	1055446	keystroke_Key.delete	Key.delete	n/a
527.8895	0.071	1055779	keystroke_Key.delete	Key.delete	n/a
528.0355	0.069	1056071	keystroke_Key.delete	Key.delete	n/a
528.1905	0.0685	1056381	keystroke_Key.delete	Key.delete	n/a
528.348	0.068	1056696	keystroke_Key.delete	Key.delete	n/a
528.509	0.069	1057018	keystroke_Key.delete	Key.delete	n/a
528.6665	0.092	1057333	keystroke_Key.delete	Key.delete	n/a
530.065	0.0715	1060130	keystroke_Key.left	Key.left	n/a
530.2265	0.09	1060453	keystroke_Key.left	Key.left	n/a
530.4055	0.0715	1060811	keystroke_Key.left	Key.left	n/a
530.565	0.092	1061130	keystroke_Key.left	Key.left	n/a
530.733	0.071	1061466	keystroke_Key.left	Key.left	n/a
530.8925	0.091	1061785	keystroke_Key.left	Key.left	n/a
531.537	0.091	1063074	keystroke_Key.right	Key.right	n/a
531.707	0.0925	1063414	keystroke_Key.right	Key.right	n/a
532.967	0.092	1065934	keystroke_Key.backspace	Key.backspace	n/a
533.948	0.0945	1067896	keystroke_Key.enter	Key.enter	n/a
534.0475	13.5935	1068095	prompt	n/a	voip broadway cancer convinced\n
535.8335	0.1375	1071667	keystroke_v	v	n/a
536.3905	0.068	1072781	keystroke_o	o	n/a
536.5835	0.092	1073167	keystroke_i	i	n/a
536.819	0.116	1073638	keystroke_p	p	n/a
537.1145	0.16	1074229	keystroke_Key.space	Key.space	n/a
538.1875	0.094	1076375	keystroke_b	b	n/a
538.3115	0.114	1076623	keystroke_r	r	n/a
538.4265	0.1355	1076853	keystroke_o	o	n/a
538.585	0.071	1077170	keystroke_w	w	n/a
538.657	0.135	1077314	keystroke_a	a	n/a
538.8765	0.117	1077753	keystroke_d	d	n/a
539.1775	0.0445	1078355	keystroke_w	w	n/a
540.406	0.072	1080812	keystroke_Key.backspace	Key.backspace	n/a
540.408	0.024	1080816	keystroke_\	\	n/a
540.553	0.069	1081106	keystroke_Key.backspace	Key.backspace	n/a
540.7005	0.09	1081401	keystroke_Key.backspace	Key.backspace	n/a
540.8385	0.093	1081677	keystroke_Key.backspace	Key.backspace	n/a
541.0125	0.0915	1082025	keystroke_Key.backspace	Key.backspace	n/a
541.4925	0.139	1082985	keystroke_a	a	n/a
541.7575	0.0905	1083515	keystroke_d	d	n/a
541.941	0.113	1083882	keystroke_w	w	n/a
542.104	0.1585	1084208	keystroke_a	a	n/a
542.2845	0.068	1084569	keystroke_y	y	n/a
542.4285	0.116	1084857	keystroke_Key.space	Key.space	n/a
543.0995	0.136	1086199	keystroke_c	c	n/a
543.1905	0.115	1086381	keystroke_a	a	n/a
543.3275	0.1155	1086655	keystroke_n	n	n/a
543.417	0.167	1086834	keystroke_c	c	n/a
543.489	0.162	1086978	keystroke_e	e	n/a
543.673	0.116	1087346	keystroke_n	n	n/a
544.4145	0.07	1088829	keystroke_Key.backspace	Key.backspace	n/a
544.5715	0.092	1089143	keystroke_Key.backspace	Key.backspace	n/a
545.096	0.0675	1090192	keystroke_e	e	n/a
545.2655	0.091	1090531	keystroke_r	r	n/a
545.4065	0.1155	1090813	keystroke_Key.space	Key.space	n/a
545.579	0.137	1091158	keystroke_c	c	n/a
545.69	0.07	1091380	keystroke_o	o	n/a
545.8515	0.0685	1091703	keystroke_n	n	n/a
546.612	0.0925	1093224	keystroke_v	v	n/a
546.7055	0.0895	1093411	keystroke_i	i	n/a
546.883	0.047	1093766	keystroke_n	n	n/a
546.931	0.094	1093862	keystroke_c	c	n/a
546.979	0.1135	1093958	keystroke_e	e	n/a
547.1925	0.115	1094385	keystroke_s	s	n/a
547.526	0.113	1095052	keystroke_Key.enter	Key.enter	n/a
547.644	16.6165	1095288	prompt	n/a	condition preparing hung describes\n
548.544	0.0965	1097088	keystroke_c	c	n/a
548.6415	0.068	1097283	keystroke_o	o	n/a
548.7995	0.071	1097599	keystroke_n	n	n/a
548.9135	0.0705	1097827	keystroke_d	d	n/a
548.9855	0.0915	1097971	keystroke_i	i	n/a
549.341	0.1125	1098682	keystroke_t	t	n/a
549.4545	0.069	1098909	keystroke_i	i	n/a
549.6015	0.095	1099203	keystroke_o	o	n/a
549.782	0.0675	1099564	keystroke_n	n	n/a
549.9965	0.118	1099993	keystroke_Key.space	Key.space	n/a
550.499	0.1585	1100998	keystroke_p	p	n/a
550.6105	0.092	1101221	keystroke_r	r	n/a
550.7955	0.112	1101591	keystroke_e	e	n/a
550.999	0.138	1101998	keystroke_a	a	n/a
551.167	0.137	1102334	keystroke_r	r	n/a
551.5755	0.046	1103151	keystroke_]	]	n/a
552.074	0.0905	1104148	keystroke_Key.backspace	Key.backspace	n/a
552.2295	0.091	1104459	keystroke_Key.backspace	Key.backspace	n/a
552.3905	0.092	1104781	keystroke_Key.backspace	Key.backspace	n/a
553.0345	0.069	1106069	keystroke_[	[	n/a
553.1435	0.137	1106287	keystroke_a	a	n/a
553.552	0.069	1107104	keystroke_Key.backspace	Key.backspace	n/a
553.6925	0.095	1107385	keystroke_Key.backspace	Key.backspace	n/a
554.359	0.094	1108718	keystroke_p	p	n/a
554.428	0.092	1108856	keystroke_a	a	n/a
554.545	0.1135	1109090	keystroke_r	r	n/a
554.7025	0.071	1109405	keystroke_i	i	n/a
554.8645	0.07	1109729	keystroke_n	n	n/a
554.974	0.094	1109948	keystroke_g	g	n/a
555.09	0.112	1110180	keystroke_Key.space	Key.space	n/a
556.1095	0.092	1112219	keystroke_h	h	n/a
556.2825	0.071	1112565	keystroke_u	u	n/a
556.4705	0.0895	1112941	keystroke_n	n	n/a
556.582	0.092	1113164	keystroke_d	d	n/a
556.6505	0.1185	1113301	keystroke_Key.space	Key.space	n/a
556.81	0.089	1113620	keystroke_d	d	n/a
557.0075	0.118	1114015	keystroke_e	e	n/a
557.2215	0.1135	1114443	keystroke_s	s	n/a
557.424	0.091	1114848	keystroke_c	c	n/a
558.162	0.116	1116324	keystroke_r	r	n/a
558.4235	0.134	1116847	keystroke_i	i	n/a
558.5815	0.091	1117163	keystroke_v	v	n/a
558.984	0.092	1117968	keystroke_Key.backspace	Key.backspace	n/a
559.1165	0.071	1118233	keystroke_b	b	n/a
559.3035	0.09	1118607	keystroke_e	e	n/a
559.498	0.115	1118996	keystroke_s	s	n/a
559.778	0.1595	1119556	keystroke_Key.ctrl_r	Key.ctrl_r	n/a
563.473	0.091	1126946	keystroke_Key.backspace	Key.backspace	n/a
563.606	0.1125	1127212	keystroke_Key.backspace	Key.backspace	n/a
563.7655	0.117	1127531	keystroke_g	g	n/a
563.9575	0.117	1127915	keystroke_Key.space	Key.space	n/a
564.166	0.092	1128332	keystroke_Key.enter	Key.enter	n/a
564.2635	12.625	1128527	prompt	n/a	adipex prints acknowledged occurred\n
565.3835	0.138	1130767	keystroke_a	a	n/a
565.6255	0.1155	1131251	keystroke_d	d	n/a
565.7625	0.092	1131525	keystroke_i	i	n/a
566.0025	0.1125	1132005	keystroke_p	p	n/a
566.232	0.114	1132464	keystroke_l	l	n/a
566.961	0.115	1133922	keystroke_e	e	n/a
567.3945	0.1365	1134789	keystroke_x	x	n/a
567.77	0.1345	1135540	keystroke_Key.space	Key.space	n/a
568.1435	0.1395	1136287	keystroke_p	p	n/a
568.401	0.116	1136802	keystroke_r	r	n/a
568.493	0.07	1136986	keystroke_i	i	n/a
568.6585	0.091	1137317	keystroke_n	n	n/a
568.771	0.07	1137542	keystroke_t	t	n/a
568.987	0.1145	1137974	keystroke_s	s	n/a
569.1405	0.139	1138281	keystroke_Key.space	Key.space	n/a
569.3895	0.1155	1138779	keystroke_a	a	n/a
569.581	0.115	1139162	keystroke_c	c	n/a
569.817	0.0695	1139634	keystroke_k	k	n/a
570.1175	0.116	1140235	keystroke_n	n	n/a
570.307	0.114	1140614	keystroke_o	o	n/a
571.12	0.1595	1142240	keystroke_w	w	n/a
571.605	0.114	1143210	keystroke_l	l	n/a
571.9715	0.136	1143943	keystroke_e	e	n/a
572.1875	0.118	1144375	keystroke_d	d	n/a
573.443	0.0905	1146886	keystroke_g	g	n/a
573.6015	0.089	1147203	keystroke_e	e	n/a
573.7875	0.1145	1147575	keystroke_d	d	n/a
573.924	0.16	1147848	keystroke_Key.space	Key.space	n/a
574.3055	0.141	1148611	keystroke_o	o	n/a
574.4685	0.07	1148937	keystroke_c	c	n/a
574.633	0.089	1149266	keystroke_c	c	n/a
575.2865	0.1145	1150573	keystroke_u	u	n/a
575.423	0.07	1150846	keystroke_r	r	n/a
575.574	0.136	1151148	keystroke_r	r	n/a
575.8135	0.073	1151627	keystroke_e	e	n/a
575.9895	0.092	1151979	keystroke_d	d	n/a
576.795	0.092	1153590	keystroke_Key.enter	Key.enter	n/a
576.8925	13.015	1153785	prompt	n/a	tribunal explosion conventions cocktail\n
577.743	0.093	1155486	keystroke_t	t	n/a
577.927	0.113	1155854	keystroke_r	r	n/a
578.1375	0.1175	1156275	keystroke_i	i	n/a
578.3515	0.092	1156703	keystroke_b	b	n/a
578.516	0.07	1157032	keystroke_u	u	n/a
578.703	0.092	1157406	keystroke_n	n	n/a
578.899	0.0955	1157798	keystroke_a	a	n/a
579.0165	0.091	1158033	keystroke_l	l	n/a
579.1805	0.092	1158361	keystroke_Key.space	Key.space	n/a
580.366	0.1335	1160732	keystroke_e	e	n/a
580.6905	0.112	1161381	keystroke_x	x	n/a
580.856	0.091	1161712	keystroke_p	p	n/a
581.033	0.1125	1162066	keystroke_l	l	n/a
581.1965	0.12	1162393	keystroke_o	o	n/a
581.3625	0.114	1162725	keystroke_s	s	n/a
581.4785	0.0675	1162957	keystroke_i	i	n/a
581.634	0.093	1163268	keystroke_o	o	n/a
581.811	0.069	1163622	keystroke_n	n	n/a
582.0095	0.137	1164019	keystroke_Key.space	Key.space	n/a
582.6385	0.115	1165277	keystroke_o	o	n/a
582.8375	0.093	1165675	keystroke_n	n	n/a
583.5255	0.093	1167051	keystroke_Key.backspace	Key.backspace	n/a
583.6765	0.092	1167353	keystroke_Key.backspace	Key.backspace	n/a
583.8045	0.116	1167609	keystroke_c	c	n/a
583.97	0.07	1167940	keystroke_o	o	n/a
584.118	0.093	1168236	keystroke_n	n	n/a
584.792	0.093	1169584	keystroke_v	v	n/a
585.2305	0.094	1170461	keystroke_e	e	n/a
585.3465	0.115	1170693	keystroke_n	n	n/a
585.484	0.135	1170968	keystroke_t	t	n/a
585.596	0.093	1171192	keystroke_i	i	n/a
585.753	0.116	1171506	keystroke_o	o	n/a
585.9195	0.091	1171839	keystroke_n	n	n/a
586.0325	0.115	1172065	keystroke_s	s	n/a
586.1485	0.1345	1172297	keystroke_Key.space	Key.space	n/a
586.39	0.0945	1172780	keystroke_c	c	n/a
586.538	0.1135	1173076	keystroke_o	o	n/a
587.117	0.138	1174234	keystroke_c	c	n/a
587.308	0.025	1174616	keystroke_k	k	n/a
587.4925	0.114	1174985	keystroke_t	t	n/a
587.6285	0.157	1175257	keystroke_a	a	n/a
587.827	0.114	1175654	keystroke_l	l	n/a
588.8945	0.1795	1177789	keystroke_Key.backspace	Key.backspace	n/a
589.365	0.0915	1178730	keystroke_i	i	n/a
589.5595	0.091	1179119	keystroke_l	l	n/a
589.814	0.091	1179628	keystroke_Key.enter	Key.enter	n/a
589.913	13.2805	1179826	prompt	n/a	china affect atom geek\n
591.3325	0.0925	1182665	keystroke_c	c	n/a
591.517	0.1145	1183034	keystroke_h	h	n/a
591.7875	0.092	1183575	keystroke_i	i	n/a
591.9835	0.115	1183967	keystroke_n	n	n/a
592.464	0.1135	1184928	keystroke_a	a	n/a
592.6365	0.092	1185273	keystroke_Key.space	Key.space	n/a
594.003	0.1635	1188006	keystroke_a	a	n/a
594.2905	0.047	1188581	keystroke_g	g	n/a
594.4445	0.0915	1188889	keystroke_f	f	n/a
594.49	0.136	1188980	keystroke_e	e	n/a
594.764	0.1145	1189528	keystroke_c	c	n/a
594.9935	0.1135	1189987	keystroke_t	t	n/a
595.18	0.1365	1190360	keystroke_Key.space	Key.space	n/a
595.4485	0.136	1190897	keystroke_a	a	n/a
595.6295	0.1345	1191259	keystroke_t	t	n/a
596.7515	0.0905	1193503	keystroke_o	o	n/a
596.949	0.115	1193898	keystroke_m	m	n/a
597.085	0.092	1194170	keystroke_Key.space	Key.space	n/a
597.855	0.069	1195710	keystroke_g	g	n/a
598.0095	0.091	1196019	keystroke_e	e	n/a
598.1765	0.137	1196353	keystroke_e	e	n/a
598.3155	0.0885	1196631	keystroke_k	k	n/a
599.6965	0.093	1199393	keystroke_Key.ctrl_r	Key.ctrl_r	n/a
599.847	0.093	1199694	keystroke_Key.ctrl_r	Key.ctrl_r	n/a
601.2975	0.09	1202595	keystroke_Key.left	Key.left	n/a
601.47	0.071	1202940	keystroke_Key.left	Key.left	n/a
602.294	0.115	1204588	keystroke_Key.right	Key.right	n/a
602.598	0.0905	1205196	keystroke_Key.backspace	Key.backspace	n/a
602.8695	0.1135	1205739	keystroke_f	f	n/a
603.123	0.069	1206246	keystroke_Key.enter	Key.enter	n/a
603.1995	14.6055	1206399	prompt	n/a	environments perfect hereby myself\n
605.5265	0.1145	1211053	keystroke_e	e	n/a
605.723	0.1395	1211446	keystroke_n	n	n/a
606.0245	0.09	1212049	keystroke_v	v	n/a
606.168	0.069	1212336	keystroke_i	i	n/a
606.279	0.115	1212558	keystroke_r	r	n/a
606.395	0.067	1212790	keystroke_o	o	n/a
606.5265	0.072	1213053	keystroke_n	n	n/a
606.6825	0.138	1213365	keystroke_e	e	n/a
606.6835	0.092	1213367	keystroke_m	m	n/a
606.8885	0.0685	1213777	keystroke_n	n	n/a
606.958	0.09	1213916	keystroke_t	t	n/a
607.161	0.117	1214322	keystroke_s	s	n/a
607.229	0.1155	1214458	keystroke_Key.space	Key.space	n/a
607.4765	0.069	1214953	keystroke_Key.backspace	Key.backspace	n/a
607.6425	0.0465	1215285	keystroke_Key.backspace	Key.backspace	n/a
607.773	0.07	1215546	keystroke_Key.backspace	Key.backspace	n/a
607.91	0.07	1215820	keystroke_Key.backspace	Key.backspace	n/a
608.042	0.0695	1216084	keystroke_Key.backspace	Key.backspace	n/a
608.1695	0.115	1216339	keystroke_Key.backspace	Key.backspace	n/a
608.634	0.069	1217268	keystroke_m	m	n/a
608.751	0.1115	1217502	keystroke_e	e	n/a
608.8375	0.072	1217675	keystroke_n	n	n/a
608.9535	0.115	1217907	keystroke_t	t	n/a
609.1485	0.1395	1218297	keystroke_s	s	n/a
609.242	0.136	1218484	keystroke_Key.space	Key.space	n/a
610.173	0.139	1220346	keystroke_p	p	n/a
610.313	0.0905	1220626	keystroke_e	e	n/a
610.4925	0.113	1220985	keystroke_r	r	n/a
610.7065	0.0915	1221413	keystroke_f	f	n/a
610.821	0.116	1221642	keystroke_e	e	n/a
611.044	0.093	1222088	keystroke_c	c	n/a
611.2895	0.114	1222579	keystroke_t	t	n/a
611.4555	0.1585	1222911	keystroke_Key.space	Key.space	n/a
611.937	0.1365	1223874	keystroke_h	h	n/a
612.0745	0.113	1224149	keystroke_e	e	n/a
612.2585	0.093	1224517	keystroke_r	r	n/a
612.457	0.093	1224914	keystroke_e	e	n/a
612.627	0.1135	1225254	keystroke_b	b	n/a
612.9055	0.092	1225811	keystroke_y	y	n/a
613.4965	0.136	1226993	keystroke_Key.space	Key.space	n/a
613.7655	0.1355	1227531	keystroke_m	m	n/a
614.165	0.183	1228330	keystroke_s	s	n/a
614.234	0.137	1228468	keystroke_e	e	n/a
614.408	0.07	1228816	keystroke_l	l	n/a
614.8455	0.0685	1229691	keystroke_Key.backspace	Key.backspace	n/a
615.002	0.092	1230004	keystroke_Key.backspace	Key.backspace	n/a
615.239	0.0945	1230478	keystroke_Key.backspace	Key.backspace	n/a
615.991	0.0935	1231982	keystroke_y	y	n/a
616.1275	0.14	1232255	keystroke_s	s	n/a
616.2185	0.072	1232437	keystroke_e	e	n/a
616.553	0.093	1233106	keystroke_;	;	n/a
617.145	0.114	1234290	keystroke_Key.backspace	Key.backspace	n/a
617.464	0.0925	1234928	keystroke_l	l	n/a
617.6165	0.075	1235233	keystroke_f	f	n/a
617.7345	0.068	1235469	keystroke_Key.enter	Key.enter	n/a
617.808	16.9985	1235616	prompt	n/a	quickly suspended basics perry\n
619.657	0.116	1239314	keystroke_q	q	n/a
619.774	0.0905	1239548	keystroke_u	u	n/a
619.9435	0.093	1239887	keystroke_i	i	n/a
620.1405	0.1145	1240281	keystroke_c	c	n/a
620.277	0.068	1240554	keystroke_k	k	n/a
620.474	0.069	1240948	keystroke_;	;	n/a
620.628	0.117	1241256	keystroke_y	y	n/a
621.198	0.071	1242396	keystroke_Key.backspace	Key.backspace	n/a
621.305	0.09	1242610	keystroke_Key.backspace	Key.backspace	n/a
621.8805	0.0935	1243761	keystroke_l	l	n/a
622.1925	0.139	1244385	keystroke_u	u	n/a
622.2835	0.117	1244567	keystroke_Key.space	Key.space	n/a
622.4385	0.091	1244877	keystroke_s	s	n/a
622.5515	0.0895	1245103	keystroke_u	u	n/a
622.662	0.115	1245324	keystroke_s	s	n/a
622.946	0.1135	1245892	keystroke_p	p	n/a
623.0895	0.069	1246179	keystroke_e	e	n/a
623.3745	0.0935	1246749	keystroke_n	n	n/a
623.538	0.0925	1247076	keystroke_d	d	n/a
623.7445	0.0905	1247489	keystroke_e	e	n/a
623.941	0.115	1247882	keystroke_d	d	n/a
624.056	0.138	1248112	keystroke_Key.space	Key.space	n/a
625.386	0.116	1250772	keystroke_b	b	n/a
625.503	0.089	1251006	keystroke_a	a	n/a
625.645	0.114	1251290	keystroke_s	s	n/a
625.761	0.0895	1251522	keystroke_i	i	n/a
625.8735	0.091	1251747	keystroke_s	s	n/a
626.0395	0.1155	1252079	keystroke_Key.space	Key.space	n/a
626.906	0.1155	1253812	keystroke_p	p	n/a
627.0225	0.089	1254045	keystroke_e	e	n/a
627.2215	0.092	1254443	keystroke_r	r	n/a
627.382	0.138	1254764	keystroke_r	r	n/a
627.497	0.069	1254994	keystroke_y	y	n/a
628.365	0.3825	1256730	keystroke_Key.ctrl_r	Key.ctrl_r	n/a
628.8305	0.0685	1257661	keystroke_Key.ctrl_r	Key.ctrl_r	n/a
631.041	0.2015	1262082	keystroke_Key.left	Key.left	n/a
631.3185	0.114	1262637	keystroke_Key.left	Key.left	n/a
631.4965	0.09	1262993	keystroke_Key.left	Key.left	n/a
631.65	0.069	1263300	keystroke_Key.left	Key.left	n/a
631.796	0.092	1263592	keystroke_Key.left	Key.left	n/a
631.962	0.0695	1263924	keystroke_Key.left	Key.left	n/a
632.2085	0.113	1264417	keystroke_Key.right	Key.right	n/a
632.408	0.093	1264816	keystroke_Key.right	Key.right	n/a
632.579	0.113	1265158	keystroke_Key.right	Key.right	n/a
632.7525	0.092	1265505	keystroke_Key.right	Key.right	n/a
632.9195	0.09	1265839	keystroke_Key.right	Key.right	n/a
633.0695	0.1155	1266139	keystroke_Key.right	Key.right	n/a
633.258	0.091	1266516	keystroke_Key.right	Key.right	n/a
634.022	0.07	1268044	keystroke_Key.backspace	Key.backspace	n/a
634.5015	0.05	1269003	keystroke_y	y	n/a
634.759	0.046	1269518	keystroke_Key.enter	Key.enter	n/a
634.81	12.2195	1269620	prompt	n/a	coaches boxing terror requested\n
