onset	duration	sample	value	key	prompt_text
19.1015	10.2275	38203	prompt	n/a	the quick brown fox jumps over a lazy dog\n
20.7485	0	41497	keystroke_t	t	n/a
21.0165	0.06	42033	keystroke_h	h	n/a
21.1965	0.045	42393	keystroke_e	e	n/a
21.3615	0.06	42723	keystroke_Key.space	Key.space	n/a
21.6465	0.03	43293	keystroke_q	q	n/a
21.9015	0.06	43803	keystroke_u	u	n/a
22.0815	0.06	44163	keystroke_i	i	n/a
22.2015	0.09	44403	keystroke_c	c	n/a
22.3515	0.15	44703	keystroke_k	k	n/a
22.4415	0.12	44883	keystroke_Key.space	Key.space	n/a
22.6965	0.075	45393	keystroke_b	b	n/a
22.8315	0.06	45663	keystroke_r	r	n/a
22.9215	0.075	45843	keystroke_o	o	n/a
23.1465	0.06	46293	keystroke_w	w	n/a
23.2815	0.15	46563	keystroke_n	n	n/a
23.4015	0.105	46803	keystroke_Key.space	Key.space	n/a
23.5665	0.09	47133	keystroke_f	f	n/a
23.6715	0.075	47343	keystroke_o	o	n/a
23.8965	0.075	47793	keystroke_x	x	n/a
24.0165	0.075	48033	keystroke_Key.space	Key.space	n/a
24.1515	0.075	48303	keystroke_j	j	n/a
24.3315	0.06	48663	keystroke_u	u	n/a
24.4665	0.075	48933	keystroke_m	m	n/a
24.6315	0.09	49263	keystroke_p	p	n/a
24.7515	0.075	49503	keystroke_s	s	n/a
24.8865	0.06	49773	keystroke_Key.space	Key.space	n/a
25.0215	0.075	50043	keystroke_o	o	n/a
25.831	0.045	51662	keystroke_v	v	n/a
26.087	0.1195	52174	keystroke_e	e	n/a
26.147	0.1195	52294	keystroke_r	r	n/a
26.3265	0.0755	52653	keystroke_Key.space	Key.space	n/a
26.4765	0.075	52953	keystroke_a	a	n/a
26.597	0.074	53194	keystroke_Key.space	Key.space	n/a
26.777	0.09	53554	keystroke_l	l	n/a
26.852	0.075	53704	keystroke_a	a	n/a
27.107	0.06	54214	keystroke_z	z	n/a
27.317	0.135	54634	keystroke_y	y	n/a
27.407	0.12	54814	keystroke_Key.space	Key.space	n/a
27.691	0.075	55382	keystroke_d	d	n/a
27.782	0.075	55564	keystroke_o	o	n/a
27.917	0.075	55834	keystroke_g	g	n/a
29.2515	0.075	58503	keystroke_Key.enter	Key.enter	n/a
29.337	13.8595	58674	prompt	n/a	fits pools america yield\n
30.2715	0.06	60543	keystroke_f	f	n/a
30.4065	0.075	60813	keystroke_i	i	n/a
30.5565	0.045	61113	keystroke_t	t	n/a
30.7065	0.09	61413	keystroke_s	s	n/a
30.8715	0.0745	61743	keystroke_Key.space	Key.space	n/a
31.231	0.061	62462	keystroke_o	o	n/a
31.426	0.061	62852	keystroke_i	i	n/a
31.561	0.076	63122	keystroke_i	i	n/a
32.6715	0.06	65343	keystroke_Key.backspace	Key.backspace	n/a
32.987	0.06	65974	keystroke_Key.backspace	Key.backspace	n/a
33.332	0.06	66664	keystroke_Key.backspace	Key.backspace	n/a
33.9315	0.06	67863	keystroke_p	p	n/a
34.0965	0.06	68193	keystroke_o	o	n/a
34.2165	0.06	68433	keystroke_o	o	n/a
34.3815	0.06	68763	keystroke_l	l	n/a
34.5315	0.075	69063	keystroke_s	s	n/a
34.7415	0.075	69483	keystroke_Key.space	Key.space	n/a
35.012	0.074	70024	keystroke_a	a	n/a
35.147	0.089	70294	keystroke_m	m	n/a
35.341	0.105	70682	keystroke_e	e	n/a
35.416	0.105	70832	keystroke_r	r	n/a
35.597	0.089	71194	keystroke_i	i	n/a
35.7315	0.0745	71463	keystroke_c	c	n/a
35.8815	0.09	71763	keystroke_a	a	n/a
36.0465	0.0595	72093	keystroke_Key.space	Key.space	n/a
36.376	0.0605	72752	keystroke_y	y	n/a
36.6615	0.03	73323	keystroke_e	e	n/a
38.162	0.075	76324	keystroke_i	i	n/a
39.1215	0.06	78243	keystroke_Key.backspace	Key.backspace	n/a
39.4815	0.045	78963	keystroke_Key.backspace	Key.backspace	n/a
40.4565	0.06	80913	keystroke_i	i	n/a
40.6215	0.075	81243	keystroke_e	e	n/a
40.8015	0.09	81603	keystroke_l	l	n/a
40.9215	0.1055	81843	keystroke_d	d	n/a
43.1735	0.013	86347	keystroke_Key.enter	Key.enter	n/a
43.2005	8.9125	86401	prompt	n/a	helpful bond alberta juan\n
44.072	0.06	88144	keystroke_h	h	n/a
44.147	0.075	88294	keystroke_e	e	n/a
44.311	0.061	88622	keystroke_l	l	n/a
44.837	0.12	89674	keystroke_p	p	n/a
45.047	0.105	90094	keystroke_f	f	n/a
45.272	0.06	90544	keystroke_u	u	n/a
45.512	0.06	91024	keystroke_l	l	n/a
45.781	0.06	91562	keystroke_Key.space	Key.space	n/a
46.141	0.046	92282	keystroke_b	b	n/a
46.306	0.061	92612	keystroke_o	o	n/a
47.1315	0.0905	94263	keystroke_n	n	n/a
47.236	0.076	94472	keystroke_d	d	n/a
47.462	0.075	94924	keystroke_Key.space	Key.space	n/a
48.317	0.09	96634	keystroke_a	a	n/a
48.512	0.045	97024	keystroke_l	l	n/a
48.767	0.06	97534	keystroke_b	b	n/a
48.917	0.09	97834	keystroke_e	e	n/a
48.962	0.09	97924	keystroke_r	r	n/a
49.172	0.06	98344	keystroke_t	t	n/a
49.337	0.075	98674	keystroke_a	a	n/a
49.517	0.075	99034	keystroke_Key.space	Key.space	n/a
50.327	0.0605	100654	keystroke_j	j	n/a
50.5065	0.06	101013	keystroke_u	u	n/a
50.6265	0.09	101253	keystroke_a	a	n/a
50.8665	0.075	101733	keystroke_n	n	n/a
52.052	0.06	104104	keystroke_Key.enter	Key.enter	n/a
52.117	11.081	104234	prompt	n/a	aggressive sciences isn't sheffield\n
53.012	0.044	106024	keystroke_a	a	n/a
53.221	0.06	106442	keystroke_g	g	n/a
53.371	0.06	106742	keystroke_g	g	n/a
53.461	0.106	106922	keystroke_r	r	n/a
53.686	0.061	107372	keystroke_e	e	n/a
53.972	0.0595	107944	keystroke_s	s	n/a
54.1215	0.06	108243	keystroke_s	s	n/a
54.2415	0.075	108483	keystroke_i	i	n/a
54.4365	0.075	108873	keystroke_v	v	n/a
54.6165	0.075	109233	keystroke_e	e	n/a
54.7965	0.06	109593	keystroke_Key.space	Key.space	n/a
55.1415	0.06	110283	keystroke_s	s	n/a
55.3065	0.09	110613	keystroke_c	c	n/a
55.4415	0.075	110883	keystroke_i	i	n/a
55.5465	0.0605	111093	keystroke_e	e	n/a
55.667	0.089	111334	keystroke_n	n	n/a
55.771	0.12	111542	keystroke_c	c	n/a
55.846	0.105	111692	keystroke_e	e	n/a
56.131	0.045	112262	keystroke_s	s	n/a
56.371	0.06	112742	keystroke_Key.space	Key.space	n/a
56.551	0.045	113102	keystroke_i	i	n/a
56.731	0.06	113462	keystroke_n	n	n/a
57.737	0.045	115474	keystroke_Key.backspace	Key.backspace	n/a
57.992	0.0895	115984	keystroke_s	s	n/a
58.337	0.06	116674	keystroke_n	n	n/a
58.847	0.105	117694	keystroke_'	'	n/a
58.922	0.06	117844	keystroke_t	t	n/a
59.507	0.12	119014	keystroke_Key.space	Key.space	n/a
59.912	0.06	119824	keystroke_s	s	n/a
60.062	0.06	120124	keystroke_h	h	n/a
60.137	0.06	120274	keystroke_e	e	n/a
60.332	0.06	120664	keystroke_f	f	n/a
60.497	0.045	120994	keystroke_f	f	n/a
60.661	0.076	121322	keystroke_i	i	n/a
61.456	0.075	122912	keystroke_e	e	n/a
61.786	0.09	123572	keystroke_l	l	n/a
62.0565	0.06	124113	keystroke_d	d	n/a
63.136	0.06	126272	keystroke_Key.enter	Key.enter	n/a
63.201	8.967	126402	prompt	n/a	specialists installed chemical functions\n
64.1865	0.045	128373	keystroke_s	s	n/a
64.351	0.06	128702	keystroke_p	p	n/a
64.441	0.06	128882	keystroke_e	e	n/a
65.1315	0.045	130263	keystroke_c	c	n/a
65.5365	0.06	131073	keystroke_i	i	n/a
65.6565	0.06	131313	keystroke_a	a	n/a
65.747	0.0745	131494	keystroke_l	l	n/a
65.9415	0.06	131883	keystroke_i	i	n/a
66.0315	0.09	132063	keystroke_s	s	n/a
66.2865	0.06	132573	keystroke_t	t	n/a
66.4065	0.09	132813	keystroke_s	s	n/a
66.5865	0.06	133173	keystroke_Key.space	Key.space	n/a
66.9915	0.06	133983	keystroke_i	i	n/a
67.1565	0.075	134313	keystroke_n	n	n/a
67.2465	0.09	134493	keystroke_s	s	n/a
67.4415	0.06	134883	keystroke_t	t	n/a
67.5165	0.06	135033	keystroke_a	a	n/a
67.7715	0.06	135543	keystroke_l	l	n/a
67.9065	0.075	135813	keystroke_l	l	n/a
68.0265	0.135	136053	keystroke_e	e	n/a
68.0865	0.165	136173	keystroke_d	d	n/a
68.3265	0.075	136653	keystroke_Key.space	Key.space	n/a
68.5815	0.105	137163	keystroke_c	c	n/a
68.7615	0.06	137523	keystroke_h	h	n/a
68.8515	0.06	137703	keystroke_e	e	n/a
69.0315	0.075	138063	keystroke_m	m	n/a
69.1815	0.09	138363	keystroke_i	i	n/a
69.3015	0.09	138603	keystroke_c	c	n/a
69.4965	0.06	138993	keystroke_a	a	n/a
69.5865	0.18	139173	keystroke_l	l	n/a
69.7215	0.135	139443	keystroke_Key.space	Key.space	n/a
70.3365	0.075	140673	keystroke_f	f	n/a
70.4715	0.06	140943	keystroke_u	u	n/a
70.6515	0.075	141303	keystroke_n	n	n/a
70.7115	0.09	141423	keystroke_c	c	n/a
70.9515	0.0745	141903	keystroke_t	t	n/a
71.057	0.059	142114	keystroke_i	i	n/a
71.222	0.045	142444	keystroke_o	o	n/a
71.341	0.106	142682	keystroke_n	n	n/a
71.431	0.0755	142862	keystroke_s	s	n/a
72.092	0.0745	144184	keystroke_Key.enter	Key.enter	n/a
72.171	6.6425	144342	prompt	n/a	underground fist pads smoke\n
72.991	0.046	145982	keystroke_u	u	n/a
73.141	0.075	146282	keystroke_n	n	n/a
73.292	0.0895	146584	keystroke_d	d	n/a
73.3815	0.135	146763	keystroke_e	e	n/a
73.4865	0.09	146973	keystroke_r	r	n/a
73.6815	0.075	147363	keystroke_g	g	n/a
73.8165	0.075	147633	keystroke_r	r	n/a
73.936	0.12	147872	keystroke_o	o	n/a
74.041	0.09	148082	keystroke_u	u	n/a
74.251	0.06	148502	keystroke_n	n	n/a
74.326	0.09	148652	keystroke_d	d	n/a
74.4915	0.0595	148983	keystroke_Key.space	Key.space	n/a
75.091	0.091	150182	keystroke_f	f	n/a
75.227	0.074	150454	keystroke_i	i	n/a
75.362	0.075	150724	keystroke_s	s	n/a
75.556	0.076	151112	keystroke_t	t	n/a
75.676	0.06	151352	keystroke_Key.space	Key.space	n/a
75.8265	0.075	151653	keystroke_p	p	n/a
75.9315	0.06	151863	keystroke_a	a	n/a
76.0365	0.15	152073	keystroke_d	d	n/a
76.2315	0.09	152463	keystroke_s	s	n/a
76.4115	0.075	152823	keystroke_Key.space	Key.space	n/a
76.9515	0.045	153903	keystroke_s	s	n/a
77.0565	0.09	154113	keystroke_m	m	n/a
77.2665	0.045	154533	keystroke_o	o	n/a
78.091	0.075	156182	keystroke_k	k	n/a
78.211	0.06	156422	keystroke_e	e	n/a
78.751	0.06	157502	keystroke_Key.enter	Key.enter	n/a
78.817	9.6805	157634	prompt	n/a	camping nutritional others courtesy\n
79.637	0.044	159274	keystroke_c	c	n/a
79.786	0.06	159572	keystroke_a	a	n/a
79.936	0.06	159872	keystroke_m	m	n/a
80.116	0.06	160232	keystroke_p	p	n/a
80.311	0.06	160622	keystroke_i	i	n/a
80.476	0.06	160952	keystroke_n	n	n/a
80.551	0.06	161102	keystroke_g	g	n/a
80.656	0.075	161312	keystroke_Key.space	Key.space	n/a
81.3615	0.075	162723	keystroke_n	n	n/a
81.6015	0.06	163203	keystroke_u	u	n/a
82.0365	0.06	164073	keystroke_t	t	n/a
82.2165	0.06	164433	keystroke_r	r	n/a
82.3965	0.06	164793	keystroke_i	i	n/a
82.5915	0.045	165183	keystroke_t	t	n/a
82.6815	0.075	165363	keystroke_i	i	n/a
82.907	0.075	165814	keystroke_o	o	n/a
83.116	0.06	166232	keystroke_n	n	n/a
83.237	0.0595	166474	keystroke_a	a	n/a
83.3565	0.075	166713	keystroke_l	l	n/a
83.6115	0.06	167223	keystroke_Key.space	Key.space	n/a
84.5115	0.09	169023	keystroke_o	o	n/a
84.6315	0.0445	169263	keystroke_t	t	n/a
84.7215	0.075	169443	keystroke_h	h	n/a
84.8115	0.09	169623	keystroke_e	e	n/a
84.8715	0.105	169743	keystroke_r	r	n/a
85.0965	0.075	170193	keystroke_s	s	n/a
85.2615	0.06	170523	keystroke_Key.space	Key.space	n/a
85.4715	0.09	170943	keystroke_c	c	n/a
85.5915	0.105	171183	keystroke_o	o	n/a
85.6515	0.105	171303	keystroke_u	u	n/a
85.8615	0.045	171723	keystroke_t	t	n/a
86.7915	0.06	173583	keystroke_Key.backspace	Key.backspace	n/a
86.9715	0.06	173943	keystroke_r	r	n/a
87.1365	0.06	174273	keystroke_t	t	n/a
87.3015	0.06	174603	keystroke_e	e	n/a
87.4665	0.09	174933	keystroke_s	s	n/a
87.6465	0.06	175293	keystroke_y	y	n/a
88.396	0.09	176792	keystroke_Key.enter	Key.enter	n/a
88.505	8.503	177010	prompt	n/a	shirts communicate holds feeds\n
89.5215	0.075	179043	keystroke_s	s	n/a
89.7165	0.06	179433	keystroke_h	h	n/a
90.1365	0.075	180273	keystroke_i	i	n/a
90.331	0.046	180662	keystroke_r	r	n/a
90.436	0.075	180872	keystroke_t	t	n/a
90.647	0.104	181294	keystroke_s	s	n/a
90.826	0.0905	181652	keystroke_Key.space	Key.space	n/a
91.4415	0.06	182883	keystroke_c	c	n/a
91.5315	0.06	183063	keystroke_o	o	n/a
91.6965	0.06	183393	keystroke_m	m	n/a
91.8315	0.075	183663	keystroke_m	m	n/a
92.0115	0.06	184023	keystroke_u	u	n/a
92.1465	0.075	184293	keystroke_n	n	n/a
92.2815	0.075	184563	keystroke_i	i	n/a
92.4165	0.06	184833	keystroke_c	c	n/a
92.5965	0.045	185193	keystroke_a	a	n/a
92.911	0.106	185822	keystroke_t	t	n/a
92.987	0.104	185974	keystroke_e	e	n/a
93.196	0.09	186392	keystroke_Key.space	Key.space	n/a
93.8115	0.06	187623	keystroke_h	h	n/a
94.0215	0.075	188043	keystroke_o	o	n/a
94.2165	0.06	188433	keystroke_l	l	n/a
95.072	0.104	190144	keystroke_d	d	n/a
95.116	0.135	190232	keystroke_s	s	n/a
95.311	0.09	190622	keystroke_Key.space	Key.space	n/a
95.476	0.076	190952	keystroke_f	f	n/a
95.536	0.09	191072	keystroke_e	e	n/a
95.746	0.06	191492	keystroke_e	e	n/a
95.941	0.045	191882	keystroke_d	d	n/a
96.136	0.075	192272	keystroke_s	s	n/a
96.932	0.0745	193864	keystroke_Key.enter	Key.enter	n/a
97.0115	11.5695	194023	prompt	n/a	signature completing bandwidth quantity\n
98.2815	0.075	196563	keystroke_s	s	n/a
98.4615	0.06	196923	keystroke_i	i	n/a
98.5965	0.075	197193	keystroke_g	g	n/a
98.6865	0.075	197373	keystroke_n	n	n/a
98.8365	0.06	197673	keystroke_a	a	n/a
99.032	0.06	198064	keystroke_t	t	n/a
99.152	0.075	198304	keystroke_u	u	n/a
99.241	0.09	198482	keystroke_r	r	n/a
99.302	0.119	198604	keystroke_e	e	n/a
99.511	0.045	199022	keystroke_Key.space	Key.space	n/a
99.991	0.061	199982	keystroke_c	c	n/a
100.096	0.061	200192	keystroke_o	o	n/a
100.921	0.0755	201842	keystroke_m	m	n/a
101.6265	0.06	203253	keystroke_p	p	n/a
101.8065	0.075	203613	keystroke_l	l	n/a
101.9715	0.045	203943	keystroke_e	e	n/a
102.1815	0.075	204363	keystroke_t	t	n/a
102.2715	0.06	204543	keystroke_i	i	n/a
102.4215	0.075	204843	keystroke_n	n	n/a
102.5115	0.105	205023	keystroke_g	g	n/a
102.676	0.09	205352	keystroke_Key.space	Key.space	n/a
103.4415	0.075	206883	keystroke_b	b	n/a
103.7115	0.075	207423	keystroke_a	a	n/a
103.8615	0.06	207723	keystroke_n	n	n/a
103.9665	0.06	207933	keystroke_d	d	n/a
104.2365	0.06	208473	keystroke_w	w	n/a
104.4465	0.075	208893	keystroke_i	i	n/a
104.7315	0.075	209463	keystroke_d	d	n/a
104.9565	0.09	209913	keystroke_t	t	n/a
105.0615	0.09	210123	keystroke_h	h	n/a
105.2265	0.09	210453	keystroke_Key.space	Key.space	n/a
106.336	0.075	212672	keystroke_q	q	n/a
106.486	0.06	212972	keystroke_u	u	n/a
106.666	0.06	213332	keystroke_a	a	n/a
106.846	0.09	213692	keystroke_n	n	n/a
107.356	0.075	214712	keystroke_t	t	n/a
107.506	0.075	215012	keystroke_i	i	n/a
107.626	0.06	215252	keystroke_t	t	n/a
107.791	0.06	215582	keystroke_y	y	n/a
108.4965	0.075	216993	keystroke_Key.enter	Key.enter	n/a
108.5855	12.955	217171	prompt	n/a	informational proposals reaction appreciate\n
109.5015	0.0595	219003	keystroke_i	i	n/a
109.666	0.075	219332	keystroke_n	n	n/a
109.801	0.075	219602	keystroke_f	f	n/a
109.921	0.075	219842	keystroke_o	o	n/a
109.996	0.075	219992	keystroke_r	r	n/a
110.1165	0.09	220233	keystroke_m	m	n/a
110.2215	0.06	220443	keystroke_a	a	n/a
110.402	0.075	220804	keystroke_t	t	n/a
110.477	0.06	220954	keystroke_i	i	n/a
110.627	0.03	221254	keystroke_o	o	n/a
111.272	0.09	222544	keystroke_n	n	n/a
112.351	0.09	224702	keystroke_a	a	n/a
112.532	0.059	225064	keystroke_l	l	n/a
112.891	0.06	225782	keystroke_Key.space	Key.space	n/a
115.0835	0.043	230167	keystroke_p	p	n/a
115.1415	0.015	230283	keystroke_r	r	n/a
115.1865	0.06	230373	keystroke_o	o	n/a
115.3665	0.06	230733	keystroke_p	p	n/a
115.5465	0.045	231093	keystroke_o	o	n/a
115.7715	0.075	231543	keystroke_s	s	n/a
115.9815	0.06	231963	keystroke_a	a	n/a
116.1315	0.075	232263	keystroke_l	l	n/a
116.2365	0.09	232473	keystroke_s	s	n/a
117.496	0.06	234992	keystroke_Key.space	Key.space	n/a
117.692	0.075	235384	keystroke_r	r	n/a
117.751	0.06	235502	keystroke_e	e	n/a
117.887	0.09	235774	keystroke_a	a	n/a
118.112	0.075	236224	keystroke_c	c	n/a
118.307	0.089	236614	keystroke_t	t	n/a
118.442	0.045	236884	keystroke_i	i	n/a
118.561	0.075	237122	keystroke_o	o	n/a
118.727	0.134	237454	keystroke_n	n	n/a
118.876	0.06	237752	keystroke_Key.space	Key.space	n/a
119.206	0.09	238412	keystroke_a	a	n/a
119.596	0.045	239192	keystroke_p	p	n/a
119.701	0.06	239402	keystroke_p	p	n/a
119.791	0.12	239582	keystroke_r	r	n/a
119.896	0.09	239792	keystroke_e	e	n/a
120.181	0.03	240362	keystroke_c	c	n/a
120.316	0.045	240632	keystroke_i	i	n/a
120.436	0.075	240872	keystroke_a	a	n/a
120.661	0.076	241322	keystroke_t	t	n/a
120.707	0.09	241414	keystroke_e	e	n/a
121.441	0.09	242882	keystroke_Key.enter	Key.enter	n/a
121.545	11.2165	243090	prompt	n/a	instructors confirmed nursery wild\n
122.3265	0.075	244653	keystroke_i	i	n/a
122.5065	0.075	245013	keystroke_n	n	n/a
122.6115	0.075	245223	keystroke_s	s	n/a
122.8365	0.06	245673	keystroke_t	t	n/a
123.016	0.045	246032	keystroke_r	r	n/a
123.211	0.06	246422	keystroke_u	u	n/a
123.376	0.075	246752	keystroke_c	c	n/a
123.631	0.045	247262	keystroke_t	t	n/a
123.946	0.06	247892	keystroke_o	o	n/a
124.171	0.075	248342	keystroke_r	r	n/a
124.411	0.09	248822	keystroke_s	s	n/a
124.666	0.06	249332	keystroke_Key.space	Key.space	n/a
125.191	0.076	250382	keystroke_c	c	n/a
125.281	0.06	250562	keystroke_o	o	n/a
125.447	0.074	250894	keystroke_n	n	n/a
125.537	0.059	251074	keystroke_f	f	n/a
125.656	0.06	251312	keystroke_i	i	n/a
125.746	0.075	251492	keystroke_r	r	n/a
125.836	0.105	251672	keystroke_m	m	n/a
126.031	0.06	252062	keystroke_e	e	n/a
126.181	0.105	252362	keystroke_d	d	n/a
126.376	0.045	252752	keystroke_Key.space	Key.space	n/a
127.0215	0.0595	254043	keystroke_n	n	n/a
127.141	0.136	254282	keystroke_e	e	n/a
127.232	0.09	254464	keystroke_r	r	n/a
128.371	0.06	256742	keystroke_Key.backspace	Key.backspace	n/a
128.851	0.06	257702	keystroke_Key.backspace	Key.backspace	n/a
129.676	0.075	259352	keystroke_u	u	n/a
129.811	0.075	259622	keystroke_r	r	n/a
130.021	0.075	260042	keystroke_s	s	n/a
130.186	0.06	260372	keystroke_e	e	n/a
130.351	0.06	260702	keystroke_r	r	n/a
130.5465	0.0445	261093	keystroke_y	y	n/a
130.7565	0.09	261513	keystroke_Key.space	Key.space	n/a
131.6715	0.075	263343	keystroke_w	w	n/a
131.8215	0.06	263643	keystroke_i	i	n/a
132.0015	0.075	264003	keystroke_l	l	n/a
132.1065	0.105	264213	keystroke_d	d	n/a
132.6765	0.075	265353	keystroke_Key.enter	Key.enter	n/a
132.768	8.033	265536	prompt	n/a	highly owen intervals backup\n
133.771	0.0605	267542	keystroke_h	h	n/a
133.877	0.09	267754	keystroke_i	i	n/a
134.057	0.06	268114	keystroke_g	g	n/a
134.192	0.06	268384	keystroke_h	h	n/a
134.387	0.075	268774	keystroke_l	l	n/a
134.627	0.12	269254	keystroke_y	y	n/a
134.702	0.119	269404	keystroke_Key.space	Key.space	n/a
134.927	0.09	269854	keystroke_o	o	n/a
135.632	0.045	271264	keystroke_w	w	n/a
135.797	0.075	271594	keystroke_e	e	n/a
135.932	0.1345	271864	keystroke_n	n	n/a
136.0515	0.075	272103	keystroke_Key.space	Key.space	n/a
136.606	0.06	273212	keystroke_i	i	n/a
136.846	0.015	273692	keystroke_n	n	n/a
136.891	0.075	273782	keystroke_t	t	n/a
137.086	0.135	274172	keystroke_e	e	n/a
137.161	0.12	274322	keystroke_r	r	n/a
137.431	0.06	274862	keystroke_v	v	n/a
137.626	0.075	275252	keystroke_a	a	n/a
137.7615	0.075	275523	keystroke_l	l	n/a
137.8515	0.1045	275703	keystroke_s	s	n/a
138.1365	0.0745	276273	keystroke_Key.space	Key.space	n/a
138.691	0.045	277382	keystroke_b	b	n/a
138.766	0.06	277532	keystroke_a	a	n/a
139.006	0.075	278012	keystroke_c	c	n/a
139.126	0.075	278252	keystroke_k	k	n/a
139.501	0.06	279002	keystroke_u	u	n/a
139.711	0.075	279422	keystroke_p	p	n/a
140.7165	0.075	281433	keystroke_Key.enter	Key.enter	n/a
140.805	7.3375	281610	prompt	n/a	content translate suppliers wanna\n
141.5565	0.075	283113	keystroke_c	c	n/a
141.6615	0.075	283323	keystroke_o	o	n/a
141.8115	0.09	283623	keystroke_n	n	n/a
141.9165	0.06	283833	keystroke_t	t	n/a
142.0665	0.06	284133	keystroke_e	e	n/a
142.2015	0.075	284403	keystroke_n	n	n/a
142.3365	0.06	284673	keystroke_t	t	n/a
142.4415	0.09	284883	keystroke_Key.space	Key.space	n/a
142.5915	0.06	285183	keystroke_t	t	n/a
142.876	0.06	285752	keystroke_r	r	n/a
143.086	0.06	286172	keystroke_a	a	n/a
143.251	0.075	286502	keystroke_n	n	n/a
143.356	0.075	286712	keystroke_s	s	n/a
143.536	0.075	287072	keystroke_l	l	n/a
143.656	0.03	287312	keystroke_a	a	n/a
143.851	0.06	287702	keystroke_t	t	n/a
143.926	0.105	287852	keystroke_e	e	n/a
144.1815	0.0595	288363	keystroke_Key.space	Key.space	n/a
144.917	0.09	289834	keystroke_s	s	n/a
145.052	0.075	290104	keystroke_u	u	n/a
145.336	0.031	290672	keystroke_p	p	n/a
145.457	0.044	290914	keystroke_p	p	n/a
145.6965	0.06	291393	keystroke_l	l	n/a
145.8915	0.06	291783	keystroke_i	i	n/a
146.0865	0.075	292173	keystroke_e	e	n/a
146.1915	0.105	292383	keystroke_r	r	n/a
146.4165	0.09	292833	keystroke_s	s	n/a
146.5815	0.0745	293163	keystroke_Key.space	Key.space	n/a
147.016	0.105	294032	keystroke_w	w	n/a
147.076	0.105	294152	keystroke_a	a	n/a
147.301	0.03	294602	keystroke_n	n	n/a
147.406	0.06	294812	keystroke_n	n	n/a
147.481	0.06	294962	keystroke_a	a	n/a
148.0665	0.075	296133	keystroke_Key.enter	Key.enter	n/a
148.146	16.2665	296292	prompt	n/a	journalists static enables guestbook\n
149.281	0.06	298562	keystroke_j	j	n/a
149.431	0.135	298862	keystroke_o	o	n/a
149.506	0.09	299012	keystroke_u	u	n/a
149.716	0.075	299432	keystroke_n	n	n/a
150.1665	0.015	300333	keystroke_r	r	n/a
152.086	0.06	304172	keystroke_Key.backspace	Key.backspace	n/a
152.671	0.03	305342	keystroke_Key.backspace	Key.backspace	n/a
153.271	0.075	306542	keystroke_r	r	n/a
153.451	0.045	306902	keystroke_n	n	n/a
153.556	0.09	307112	keystroke_a	a	n/a
153.691	0.0905	307382	keystroke_l	l	n/a
153.9015	0.075	307803	keystroke_i	i	n/a
154.0215	0.075	308043	keystroke_s	s	n/a
154.2765	0.06	308553	keystroke_t	t	n/a
154.486	0.045	308972	keystroke_s	s	n/a
154.666	0.075	309332	keystroke_Key.space	Key.space	n/a
155.5065	0.045	311013	keystroke_s	s	n/a
155.7915	0.045	311583	keystroke_t	t	n/a
155.8965	0.06	311793	keystroke_a	a	n/a
156.3465	0.075	312693	keystroke_t	t	n/a
156.4815	0.075	312963	keystroke_i	i	n/a
156.9915	0.09	313983	keystroke_Key.space	Key.space	n/a
158.5815	0.045	317163	keystroke_Key.backspace	Key.backspace	n/a
159.031	0.075	318062	keystroke_c	c	n/a
159.3615	0.06	318723	keystroke_Key.space	Key.space	n/a
160.0965	0.075	320193	keystroke_e	e	n/a
160.2915	0.06	320583	keystroke_n	n	n/a
160.4115	0.09	320823	keystroke_a	a	n/a
160.6665	0.0595	321333	keystroke_b	b	n/a
160.876	0.075	321752	keystroke_l	l	n/a
160.952	0.0745	321904	keystroke_e	e	n/a
161.1315	0.09	322263	keystroke_s	s	n/a
161.3115	0.06	322623	keystroke_Key.space	Key.space	n/a
162.0915	0.06	324183	keystroke_g	g	n/a
162.2265	0.075	324453	keystroke_u	u	n/a
162.3165	0.045	324633	keystroke_e	e	n/a
162.4965	0.075	324993	keystroke_s	s	n/a
162.5865	0.075	325173	keystroke_t	t	n/a
162.8265	0.075	325653	keystroke_b	b	n/a
163.0965	0.045	326193	keystroke_o	o	n/a
163.2015	0.12	326403	keystroke_o	o	n/a
163.2915	0.09	326583	keystroke_k	k	n/a
164.3105	0.09	328621	keystroke_Key.enter	Key.enter	n/a
164.419	6.4785	328838	prompt	n/a	cold stereo complaint trout\n
165.451	0.075	330902	keystroke_c	c	n/a
165.571	0.075	331142	keystroke_o	o	n/a
165.751	0.06	331502	keystroke_l	l	n/a
165.856	0.12	331712	keystroke_d	d	n/a
166.036	0.06	332072	keystroke_Key.space	Key.space	n/a
166.201	0.09	332402	keystroke_s	s	n/a
166.471	0.06	332942	keystroke_t	t	n/a
166.576	0.1355	333152	keystroke_e	e	n/a
166.666	0.1355	333332	keystroke_r	r	n/a
166.8465	0.075	333693	keystroke_e	e	n/a
167.1315	0.075	334263	keystroke_o	o	n/a
167.4165	0.075	334833	keystroke_Key.space	Key.space	n/a
167.8665	0.075	335733	keystroke_c	c	n/a
167.9415	0.135	335883	keystroke_o	o	n/a
168.0315	0.105	336063	keystroke_m	m	n/a
168.1965	0.06	336393	keystroke_p	p	n/a
168.3465	0.075	336693	keystroke_l	l	n/a
168.4515	0.06	336903	keystroke_a	a	n/a
168.6015	0.045	337203	keystroke_i	i	n/a
168.766	0.075	337532	keystroke_n	n	n/a
168.871	0.075	337742	keystroke_t	t	n/a
169.096	0.045	338192	keystroke_Key.space	Key.space	n/a
169.636	0.03	339272	keystroke_t	t	n/a
169.816	0.03	339632	keystroke_r	r	n/a
169.891	0.105	339782	keystroke_o	o	n/a
169.966	0.105	339932	keystroke_u	u	n/a
170.161	0.075	340322	keystroke_t	t	n/a
170.821	0.075	341642	keystroke_Key.enter	Key.enter	n/a
170.901	9.7545	341802	prompt	n/a	nowhere franklin public rwanda\n
171.886	0.06	343772	keystroke_n	n	n/a
172.051	0.075	344102	keystroke_o	o	n/a
172.201	0.075	344402	keystroke_w	w	n/a
172.321	0.06	344642	keystroke_h	h	n/a
172.411	0.105	344822	keystroke_e	e	n/a
172.471	0.165	344942	keystroke_r	r	n/a
172.606	0.105	345212	keystroke_e	e	n/a
172.816	0.06	345632	keystroke_Key.space	Key.space	n/a
173.386	0.075	346772	keystroke_f	f	n/a
173.476	0.105	346952	keystroke_r	r	n/a
173.716	0.075	347432	keystroke_a	a	n/a
173.866	0.06	347732	keystroke_n	n	n/a
174.001	0.075	348002	keystroke_k	k	n/a
174.1965	0.045	348393	keystroke_l	l	n/a
174.3315	0.075	348663	keystroke_i	i	n/a
174.5265	0.12	349053	keystroke_n	n	n/a
174.6315	0.075	349263	keystroke_Key.space	Key.space	n/a
175.2465	0.06	350493	keystroke_p	p	n/a
175.486	0.06	350972	keystroke_u	u	n/a
175.666	0.06	351332	keystroke_b	b	n/a
175.876	0.06	351752	keystroke_l	l	n/a
176.041	0.06	352082	keystroke_i	i	n/a
176.251	0.105	352502	keystroke_c	c	n/a
176.401	0.09	352802	keystroke_Key.space	Key.space	n/a
176.641	0.09	353282	keystroke_w	w	n/a
176.701	0.045	353402	keystroke_a	a	n/a
177.7355	0.0455	355471	keystroke_Key.backspace	Key.backspace	n/a
178.156	0.06	356312	keystroke_Key.backspace	Key.backspace	n/a
178.7265	0.045	357453	keystroke_r	r	n/a
179.1015	0.075	358203	keystroke_w	w	n/a
179.2665	0.105	358533	keystroke_a	a	n/a
179.5065	0.059	359013	keystroke_n	n	n/a
179.716	0.135	359432	keystroke_d	d	n/a
179.821	0.09	359642	keystroke_a	a	n/a
180.556	0.09	361112	keystroke_Key.enter	Key.enter	n/a
180.6595	8.831	361319	prompt	n/a	terrorist nightmare ellis inspiration\n
181.516	0.075	363032	keystroke_t	t	n/a
181.666	0.075	363332	keystroke_e	e	n/a
181.831	0.06	363662	keystroke_r	r	n/a
181.996	0.045	363992	keystroke_r	r	n/a
182.131	0.075	364262	keystroke_o	o	n/a
182.296	0.075	364592	keystroke_r	r	n/a
182.476	0.075	364952	keystroke_i	i	n/a
182.836	0.075	365672	keystroke_s	s	n/a
182.956	0.105	365912	keystroke_t	t	n/a
183.196	0.105	366392	keystroke_Key.space	Key.space	n/a
183.7955	0.045	367591	keystroke_n	n	n/a
183.9455	0.075	367891	keystroke_i	i	n/a
184.0355	0.06	368071	keystroke_g	g	n/a
184.1405	0.06	368281	keystroke_h	h	n/a
184.2155	0.061	368431	keystroke_t	t	n/a
184.3955	0.09	368791	keystroke_m	m	n/a
184.5315	0.074	369063	keystroke_a	a	n/a
184.681	0.09	369362	keystroke_r	r	n/a
184.846	0.075	369692	keystroke_e	e	n/a
185.0105	0.0755	370021	keystroke_Key.space	Key.space	n/a
185.191	0.075	370382	keystroke_e	e	n/a
185.341	0.09	370682	keystroke_l	l	n/a
185.611	0.0595	371222	keystroke_l	l	n/a
185.836	0.0445	371672	keystroke_i	i	n/a
186.166	0.105	372332	keystroke_s	s	n/a
186.6455	0.076	373291	keystroke_Key.space	Key.space	n/a
187.0665	0.059	374133	keystroke_i	i	n/a
187.2155	0.0755	374431	keystroke_n	n	n/a
187.336	0.075	374672	keystroke_s	s	n/a
187.531	0.06	375062	keystroke_p	p	n/a
187.711	0.075	375422	keystroke_i	i	n/a
187.936	0.045	375872	keystroke_r	r	n/a
188.191	0.075	376382	keystroke_a	a	n/a
188.431	0.06	376862	keystroke_t	t	n/a
188.596	0.075	377192	keystroke_i	i	n/a
188.731	0.06	377462	keystroke_o	o	n/a
188.896	0.075	377792	keystroke_n	n	n/a
189.4055	0.075	378811	keystroke_Key.enter	Key.enter	n/a
189.4945	10.061	378989	prompt	n/a	cindy roughly chronicle tunnel\n
190.231	0.075	380462	keystroke_c	c	n/a
190.291	0.045	380582	keystroke_i	i	n/a
190.426	0.075	380852	keystroke_n	n	n/a
190.516	0.1045	381032	keystroke_d	d	n/a
190.6815	0.135	381363	keystroke_y	y	n/a
190.7715	0.12	381543	keystroke_Key.space	Key.space	n/a
190.9815	0.0745	381963	keystroke_r	r	n/a
191.086	0.12	382172	keystroke_o	o	n/a
191.191	0.06	382382	keystroke_u	u	n/a
191.296	0.06	382592	keystroke_g	g	n/a
191.371	0.12	382742	keystroke_h	h	n/a
191.521	0.105	383042	keystroke_Key.space	Key.space	n/a
192.586	0.075	385172	keystroke_Key.backspace	Key.backspace	n/a
193.666	0.075	387332	keystroke_l	l	n/a
193.951	0.135	387902	keystroke_y	y	n/a
194.041	0.12	388082	keystroke_Key.space	Key.space	n/a
194.836	0.045	389672	keystroke_c	c	n/a
194.926	0.075	389852	keystroke_h	h	n/a
195.046	0.075	390092	keystroke_r	r	n/a
195.166	0.075	390332	keystroke_o	o	n/a
195.331	0.075	390662	keystroke_n	n	n/a
195.481	0.075	390962	keystroke_i	i	n/a
195.661	0.09	391322	keystroke_c	c	n/a
195.886	0.075	391772	keystroke_a	a	n/a
196.861	0.045	393722	keystroke_Key.backspace	Key.backspace	n/a
197.236	0.06	394472	keystroke_l	l	n/a
197.3855	0.076	394771	keystroke_e	e	n/a
197.5655	0.075	395131	keystroke_Key.space	Key.space	n/a
198.3765	0.06	396753	keystroke_t	t	n/a
198.4815	0.075	396963	keystroke_u	u	n/a
198.6465	0.075	397293	keystroke_n	n	n/a
198.7955	0.061	397591	keystroke_n	n	n/a
198.9015	0.074	397803	keystroke_e	e	n/a
199.051	0.075	398102	keystroke_l	l	n/a
199.471	0.075	398942	keystroke_Key.enter	Key.enter	n/a
199.562	6.5255	399124	prompt	n/a	starter getting party sheep\n
200.5065	0.075	401013	keystroke_s	s	n/a
200.7465	0.06	401493	keystroke_t	t	n/a
200.8515	0.06	401703	keystroke_a	a	n/a
201.0015	0.06	402003	keystroke_r	r	n/a
201.1515	0.06	402303	keystroke_t	t	n/a
201.3315	0.06	402663	keystroke_e	e	n/a
201.511	0.09	403022	keystroke_r	r	n/a
201.721	0.075	403442	keystroke_Key.space	Key.space	n/a
202.246	0.06	404492	keystroke_g	g	n/a
202.321	0.06	404642	keystroke_e	e	n/a
202.516	0.0755	405032	keystroke_t	t	n/a
202.6665	0.075	405333	keystroke_t	t	n/a
202.7565	0.045	405513	keystroke_i	i	n/a
202.8755	0.091	405751	keystroke_n	n	n/a
202.9955	0.06	405991	keystroke_g	g	n/a
203.1005	0.06	406201	keystroke_Key.space	Key.space	n/a
203.2655	0.076	406531	keystroke_p	p	n/a
203.4605	0.075	406921	keystroke_a	a	n/a
203.6405	0.075	407281	keystroke_r	r	n/a
203.8055	0.075	407611	keystroke_t	t	n/a
204.0005	0.135	408001	keystroke_y	y	n/a
204.1365	0.0895	408273	keystroke_Key.space	Key.space	n/a
204.781	0.15	409562	keystroke_s	s	n/a
204.991	0.0605	409982	keystroke_h	h	n/a
205.1265	0.03	410253	keystroke_e	e	n/a
205.2465	0.045	410493	keystroke_e	e	n/a
205.366	0.075	410732	keystroke_p	p	n/a
206.0255	0.06	412051	keystroke_Key.enter	Key.enter	n/a
206.09	7.392	412180	prompt	n/a	headline grounds cruises cornwall\n
207.0155	0.06	414031	keystroke_h	h	n/a
207.1055	0.06	414211	keystroke_e	e	n/a
207.2105	0.12	414421	keystroke_a	a	n/a
207.3005	0.135	414601	keystroke_d	d	n/a
207.4505	0.06	414901	keystroke_l	l	n/a
207.6155	0.076	415231	keystroke_i	i	n/a
207.7505	0.09	415501	keystroke_n	n	n/a
207.8705	0.06	415741	keystroke_e	e	n/a
208.0065	0.074	416013	keystroke_Key.space	Key.space	n/a
208.546	0.075	417092	keystroke_g	g	n/a
208.622	0.0885	417244	keystroke_r	r	n/a
208.7405	0.12	417481	keystroke_o	o	n/a
208.8305	0.105	417661	keystroke_u	u	n/a
209.0555	0.09	418111	keystroke_n	n	n/a
209.1755	0.09	418351	keystroke_d	d	n/a
209.3405	0.105	418681	keystroke_s	s	n/a
209.4905	0.06	418981	keystroke_Key.space	Key.space	n/a
210.1655	0.06	420331	keystroke_c	c	n/a
210.3305	0.075	420661	keystroke_r	r	n/a
210.4655	0.06	420931	keystroke_u	u	n/a
210.661	0.0445	421322	keystroke_i	i	n/a
210.7205	0.075	421441	keystroke_s	s	n/a
210.901	0.045	421802	keystroke_e	e	n/a
211.081	0.075	422162	keystroke_s	s	n/a
211.411	0.09	422822	keystroke_Key.space	Key.space	n/a
211.936	0.045	423872	keystroke_c	c	n/a
212.041	0.105	424082	keystroke_o	o	n/a
212.236	0.045	424472	keystroke_r	r	n/a
212.296	0.09	424592	keystroke_n	n	n/a
212.641	0.15	425282	keystroke_w	w	n/a
212.746	0.105	425492	keystroke_a	a	n/a
212.896	0.06	425792	keystroke_l	l	n/a
213.0305	0.0605	426061	keystroke_l	l	n/a
213.4055	0.075	426811	keystroke_Key.enter	Key.enter	n/a
213.4855	8.2735	426971	prompt	n/a	emily opera beliefs doing\n
214.3055	0.075	428611	keystroke_e	e	n/a
214.4405	0.09	428881	keystroke_m	m	n/a
214.5905	0.0755	429181	keystroke_i	i	n/a
214.7715	0.0745	429543	keystroke_l	l	n/a
215.0855	0.135	430171	keystroke_y	y	n/a
215.2055	0.105	430411	keystroke_Key.space	Key.space	n/a
215.9555	0.06	431911	keystroke_o	o	n/a
216.1955	0.06	432391	keystroke_e	e	n/a
217.111	0.075	434222	keystroke_Key.backspace	Key.backspace	n/a
217.486	0.075	434972	keystroke_p	p	n/a
217.621	0.135	435242	keystroke_e	e	n/a
217.726	0.075	435452	keystroke_r	r	n/a
218.056	0.045	436112	keystroke_a	a	n/a
218.176	0.12	436352	keystroke_Key.space	Key.space	n/a
218.911	0.06	437822	keystroke_b	b	n/a
219.016	0.075	438032	keystroke_e	e	n/a
219.1665	0.075	438333	keystroke_l	l	n/a
219.375	0.0465	438750	keystroke_i	i	n/a
219.571	0.0755	439142	keystroke_e	e	n/a
219.8105	0.091	439621	keystroke_f	f	n/a
220.111	0.075	440222	keystroke_s	s	n/a
220.2305	0.091	440461	keystroke_Key.space	Key.space	n/a
220.966	0.1045	441932	keystroke_d	d	n/a
221.0855	0.075	442171	keystroke_o	o	n/a
221.1155	0.09	442231	keystroke_i	i	n/a
221.3105	0.075	442621	keystroke_n	n	n/a
221.4005	0.075	442801	keystroke_g	g	n/a
221.6705	0.0755	443341	keystroke_Key.enter	Key.enter	n/a
221.7635	6.689	443527	prompt	n/a	checks different issued feels\n
222.541	0.075	445082	keystroke_c	c	n/a
222.661	0.06	445322	keystroke_h	h	n/a
222.751	0.06	445502	keystroke_e	e	n/a
222.961	0.15	445922	keystroke_c	c	n/a
223.126	0.03	446252	keystroke_k	k	n/a
223.606	0.105	447212	keystroke_s	s	n/a
223.876	0.09	447752	keystroke_Key.space	Key.space	n/a
224.311	0.075	448622	keystroke_d	d	n/a
224.431	0.06	448862	keystroke_i	i	n/a
224.521	0.045	449042	keystroke_f	f	n/a
224.656	0.06	449312	keystroke_f	f	n/a
224.791	0.075	449582	keystroke_e	e	n/a
224.821	0.135	449642	keystroke_r	r	n/a
224.941	0.09	449882	keystroke_e	e	n/a
225.091	0.075	450182	keystroke_n	n	n/a
225.196	0.075	450392	keystroke_t	t	n/a
225.376	0.075	450752	keystroke_Key.space	Key.space	n/a
225.571	0.075	451142	keystroke_i	i	n/a
225.766	0.06	451532	keystroke_s	s	n/a
225.916	0.0745	451832	keystroke_s	s	n/a
226.0205	0.06	452041	keystroke_u	u	n/a
226.2755	0.03	452551	keystroke_e	e	n/a
226.4405	0.105	452881	keystroke_d	d	n/a
226.6055	0.061	453211	keystroke_Key.space	Key.space	n/a
226.8165	0.045	453633	keystroke_f	f	n/a
226.9665	0.045	453933	keystroke_e	e	n/a
227.116	0.045	454232	keystroke_e	e	n/a
227.206	0.09	454412	keystroke_l	l	n/a
227.341	0.09	454682	keystroke_s	s	n/a
228.376	0.075	456752	keystroke_Key.enter	Key.enter	n/a
228.456	7.009	456912	prompt	n/a	penn reserves dental invite\n
229.321	0.06	458642	keystroke_p	p	n/a
229.426	0.06	458852	keystroke_e	e	n/a
229.576	0.045	459152	keystroke_n	n	n/a
229.711	0.105	459422	keystroke_n	n	n/a
229.801	0.09	459602	keystroke_Key.space	Key.space	n/a
229.996	0.0755	459992	keystroke_r	r	n/a
230.026	0.1055	460052	keystroke_e	e	n/a
230.251	0.075	460502	keystroke_s	s	n/a
230.4315	0.045	460863	keystroke_e	e	n/a
230.5965	0.0745	461193	keystroke_r	r	n/a
231.541	0.075	463082	keystroke_v	v	n/a
231.661	0.06	463322	keystroke_e	e	n/a
231.856	0.06	463712	keystroke_s	s	n/a
231.991	0.045	463982	keystroke_Key.space	Key.space	n/a
233.191	0.1045	466382	keystroke_d	d	n/a
233.2505	0.09	466501	keystroke_e	e	n/a
233.371	0.09	466742	keystroke_n	n	n/a
233.491	0.0595	466982	keystroke_t	t	n/a
233.6555	0.075	467311	keystroke_a	a	n/a
233.7455	0.1805	467491	keystroke_l	l	n/a
233.9265	0.1045	467853	keystroke_Key.space	Key.space	n/a
234.151	0.075	468302	keystroke_i	i	n/a
234.316	0.075	468632	keystroke_n	n	n/a
234.616	0.0745	469232	keystroke_v	v	n/a
234.7505	0.075	469501	keystroke_i	i	n/a
234.9155	0.075	469831	keystroke_t	t	n/a
235.081	0.0745	470162	keystroke_e	e	n/a
235.3655	0.0905	470731	keystroke_Key.enter	Key.enter	n/a
235.4695	10.061	470939	prompt	n/a	buyer understand responses clubs\n
236.461	0.045	472922	keystroke_b	b	n/a
236.566	0.12	473132	keystroke_u	u	n/a
236.686	0.09	473372	keystroke_y	y	n/a
236.881	0.12	473762	keystroke_e	e	n/a
236.926	0.135	473852	keystroke_r	r	n/a
237.091	0.1055	474182	keystroke_Key.space	Key.space	n/a
237.3915	0.045	474783	keystroke_u	u	n/a
237.5565	0.075	475113	keystroke_n	n	n/a
237.7065	0.12	475413	keystroke_d	d	n/a
237.7815	0.165	475563	keystroke_e	e	n/a
237.9465	0.105	475893	keystroke_r	r	n/a
238.1265	0.075	476253	keystroke_s	s	n/a
238.8765	0.06	477753	keystroke_t	t	n/a
239.0565	0.06	478113	keystroke_a	a	n/a
239.3115	0.105	478623	keystroke_d	d	n/a
240.2855	0.06	480571	keystroke_Key.backspace	Key.backspace	n/a
241.0065	0.06	482013	keystroke_n	n	n/a
241.1115	0.0895	482223	keystroke_d	d	n/a
241.2465	0.0745	482493	keystroke_Key.space	Key.space	n/a
242.086	0.075	484172	keystroke_r	r	n/a
242.116	0.105	484232	keystroke_e	e	n/a
242.341	0.09	484682	keystroke_s	s	n/a
242.5355	0.105	485071	keystroke_p	p	n/a
242.7005	0.091	485401	keystroke_o	o	n/a
242.9255	0.0755	485851	keystroke_n	n	n/a
243.076	0.06	486152	keystroke_s	s	n/a
243.301	0.06	486602	keystroke_e	e	n/a
243.511	0.06	487022	keystroke_s	s	n/a
243.706	0.075	487412	keystroke_Key.space	Key.space	n/a
244.546	0.075	489092	keystroke_c	c	n/a
244.651	0.09	489302	keystroke_l	l	n/a
244.861	0.06	489722	keystroke_u	u	n/a
245.056	0.045	490112	keystroke_b	b	n/a
245.086	0.12	490172	keystroke_s	s	n/a
245.416	0.105	490832	keystroke_Key.enter	Key.enter	n/a
245.535	9.597	491070	prompt	n/a	last manga equality oops\n
246.316	0.075	492632	keystroke_l	l	n/a
246.4215	0.1195	492843	keystroke_a	a	n/a
246.481	0.12	492962	keystroke_s	s	n/a
246.751	0.06	493502	keystroke_t	t	n/a
247.0365	0.105	494073	keystroke_Key.space	Key.space	n/a
247.2165	0.09	494433	keystroke_m	m	n/a
247.3365	0.075	494673	keystroke_a	a	n/a
247.4265	0.0745	494853	keystroke_n	n	n/a
247.621	0.06	495242	keystroke_g	g	n/a
247.741	0.0445	495482	keystroke_e	e	n/a
248.5665	0.045	497133	keystroke_Key.backspace	Key.backspace	n/a
248.716	0.075	497432	keystroke_a	a	n/a
249.4665	0.09	498933	keystroke_Key.space	Key.space	n/a
249.6465	0.045	499293	keystroke_e	e	n/a
250.036	0.06	500072	keystroke_q	q	n/a
250.156	0.075	500312	keystroke_u	u	n/a
251.3855	0.09	502771	keystroke_a	a	n/a
251.6255	0.09	503251	keystroke_l	l	n/a
251.8805	0.045	503761	keystroke_i	i	n/a
252.3755	0.045	504751	keystroke_t	t	n/a
252.5855	0.12	505171	keystroke_y	y	n/a
252.7205	0.12	505441	keystroke_Key.space	Key.space	n/a
253.4715	0.089	506943	keystroke_o	o	n/a
253.9215	0.045	507843	keystroke_o	o	n/a
254.1615	0.075	508323	keystroke_p	p	n/a
254.701	0.045	509402	keystroke_s	s	n/a
255.046	0.075	510092	keystroke_Key.enter	Key.enter	n/a
255.137	12.1585	510274	prompt	n/a	snowboard processes economics fought\n
256.8915	0.075	513783	keystroke_s	s	n/a
257.0115	0.06	514023	keystroke_n	n	n/a
257.1915	0.06	514383	keystroke_o	o	n/a
257.2965	0.075	514593	keystroke_w	w	n/a
257.5065	0.06	515013	keystroke_b	b	n/a
257.6715	0.075	515343	keystroke_o	o	n/a
257.7615	0.075	515523	keystroke_a	a	n/a
258.0015	0.015	516003	keystroke_r	r	n/a
258.1065	0.105	516213	keystroke_d	d	n/a
258.3165	0.075	516633	keystroke_Key.space	Key.space	n/a
258.5115	0.075	517023	keystroke_p	p	n/a
258.7065	0.075	517413	keystroke_r	r	n/a
258.8415	0.075	517683	keystroke_o	o	n/a
259.2915	0.075	518583	keystroke_c	c	n/a
259.4115	0.09	518823	keystroke_e	e	n/a
259.6365	0.045	519273	keystroke_s	s	n/a
259.7715	0.045	519543	keystroke_s	s	n/a
259.9365	0.045	519873	keystroke_e	e	n/a
260.1015	0.06	520203	keystroke_s	s	n/a
260.3565	0.0595	520713	keystroke_Key.space	Key.space	n/a
260.536	0.06	521072	keystroke_e	e	n/a
260.8055	0.09	521611	keystroke_c	c	n/a
260.9855	0.06	521971	keystroke_o	o	n/a
261.2105	0.076	522421	keystroke_n	n	n/a
261.4355	0.075	522871	keystroke_o	o	n/a
261.6315	0.075	523263	keystroke_m	m	n/a
261.7815	0.075	523563	keystroke_i	i	n/a
261.9615	0.075	523923	keystroke_c	c	n/a
262.1415	0.06	524283	keystroke_a	a	n/a
264.5435	0	529087	keystroke_Key.backspace	Key.backspace	n/a
264.7515	0.09	529503	keystroke_s	s	n/a
265.1855	0.09	530371	keystroke_Key.space	Key.space	n/a
266.0105	0.045	532021	keystroke_f	f	n/a
266.0865	0.119	532173	keystroke_o	o	n/a
266.1755	0.105	532351	keystroke_u	u	n/a
266.401	0.09	532802	keystroke_g	g	n/a
266.566	0.075	533132	keystroke_h	h	n/a
266.686	0.075	533372	keystroke_t	t	n/a
267.211	0.075	534422	keystroke_Key.enter	Key.enter	n/a
267.2995	8.051	534599	prompt	n/a	reason stand introduce architecture\n
268.111	0.075	536222	keystroke_r	r	n/a
268.156	0.075	536312	keystroke_e	e	n/a
268.336	0.12	536672	keystroke_a	a	n/a
268.441	0.105	536882	keystroke_s	s	n/a
268.576	0.075	537152	keystroke_o	o	n/a
268.741	0.15	537482	keystroke_n	n	n/a
268.846	0.105	537692	keystroke_Key.space	Key.space	n/a
268.996	0.105	537992	keystroke_s	s	n/a
269.266	0.075	538532	keystroke_t	t	n/a
269.371	0.045	538742	keystroke_a	a	n/a
269.506	0.09	539012	keystroke_n	n	n/a
269.626	0.06	539252	keystroke_d	d	n/a
269.776	0.075	539552	keystroke_Key.space	Key.space	n/a
270.166	0.06	540332	keystroke_i	i	n/a
270.301	0.075	540602	keystroke_n	n	n/a
270.421	0.06	540842	keystroke_t	t	n/a
270.586	0.06	541172	keystroke_r	r	n/a
270.706	0.075	541412	keystroke_o	o	n/a
270.9465	0.075	541893	keystroke_d	d	n/a
271.0055	0.075	542011	keystroke_u	u	n/a
271.1705	0.151	542341	keystroke_c	c	n/a
271.2915	0.104	542583	keystroke_e	e	n/a
271.4705	0.075	542941	keystroke_Key.space	Key.space	n/a
272.1155	0.06	544231	keystroke_a	a	n/a
272.8665	0.03	545733	keystroke_r	r	n/a
273.091	0.075	546182	keystroke_c	c	n/a
273.196	0.06	546392	keystroke_h	h	n/a
273.3605	0.075	546721	keystroke_i	i	n/a
273.5405	0.06	547081	keystroke_t	t	n/a
273.7055	0.075	547411	keystroke_e	e	n/a
273.9455	0.045	547891	keystroke_c	c	n/a
274.1105	0.09	548221	keystroke_t	t	n/a
274.3055	0.06	548611	keystroke_u	u	n/a
274.6205	0.1205	549241	keystroke_r	r	n/a
274.696	0.12	549392	keystroke_e	e	n/a
275.2665	0.075	550533	keystroke_Key.enter	Key.enter	n/a
275.355	10.751	550710	prompt	n/a	eminem legislature scores liberty\n
276.1515	0.06	552303	keystroke_e	e	n/a
276.931	0.0895	553862	keystroke_n	n	n/a
277.7555	0.061	555511	keystroke_Key.backspace	Key.backspace	n/a
278.1455	0.076	556291	keystroke_m	m	n/a
278.3265	0.075	556653	keystroke_i	i	n/a
278.5505	0.09	557101	keystroke_n	n	n/a
278.7455	0.06	557491	keystroke_e	e	n/a
278.9105	0.0905	557821	keystroke_m	m	n/a
279.4815	0.075	558963	keystroke_Key.space	Key.space	n/a
280.1115	0.09	560223	keystroke_l	l	n/a
280.2155	0.075	560431	keystroke_e	e	n/a
280.6055	0.075	561211	keystroke_g	g	n/a
280.7855	0.06	561571	keystroke_i	i	n/a
280.9365	0.0745	561873	keystroke_s	s	n/a
281.161	0.06	562322	keystroke_l	l	n/a
281.296	0.06	562592	keystroke_a	a	n/a
281.506	0.06	563012	keystroke_t	t	n/a
281.641	0.06	563282	keystroke_u	u	n/a
281.731	0.12	563462	keystroke_r	r	n/a
281.836	0.104	563672	keystroke_e	e	n/a
282.031	0.075	564062	keystroke_Key.space	Key.space	n/a
282.9305	0.06	565861	keystroke_s	s	n/a
283.0955	0.09	566191	keystroke_c	c	n/a
283.2305	0.09	566461	keystroke_o	o	n/a
283.4255	0.06	566851	keystroke_r	r	n/a
283.5005	0.075	567001	keystroke_e	e	n/a
283.7255	0.075	567451	keystroke_s	s	n/a
283.8905	0.06	567781	keystroke_Key.space	Key.space	n/a
284.0555	0.06	568111	keystroke_l	l	n/a
284.2205	0.075	568441	keystroke_i	i	n/a
284.4905	0.06	568981	keystroke_b	b	n/a
284.641	0.135	569282	keystroke_e	e	n/a
284.746	0.09	569492	keystroke_r	r	n/a
284.956	0.075	569912	keystroke_t	t	n/a
285.601	0.06	571202	keystroke_y	y	n/a
285.9905	0.105	571981	keystroke_Key.enter	Key.enter	n/a
286.112	6.2255	572224	prompt	n/a	scheme wake kitty frankfurt\n
286.951	0.075	573902	keystroke_s	s	n/a
287.146	0.075	574292	keystroke_c	c	n/a
287.251	0.0595	574502	keystroke_h	h	n/a
287.3255	0.075	574651	keystroke_e	e	n/a
287.5055	0.09	575011	keystroke_m	m	n/a
287.6105	0.0755	575221	keystroke_e	e	n/a
287.791	0.075	575582	keystroke_Key.space	Key.space	n/a
287.971	0.12	575942	keystroke_w	w	n/a
288.061	0.12	576122	keystroke_a	a	n/a
288.331	0.075	576662	keystroke_k	k	n/a
288.451	0.105	576902	keystroke_e	e	n/a
288.616	0.09	577232	keystroke_Key.space	Key.space	n/a
288.856	0.06	577712	keystroke_k	k	n/a
289.006	0.06	578012	keystroke_i	i	n/a
289.171	0.06	578342	keystroke_t	t	n/a
289.336	0.06	578672	keystroke_t	t	n/a
289.456	0.15	578912	keystroke_y	y	n/a
289.561	0.135	579122	keystroke_Key.space	Key.space	n/a
290.3705	0.06	580741	keystroke_f	f	n/a
290.5205	0.09	581041	keystroke_r	r	n/a
290.6405	0.105	581281	keystroke_a	a	n/a
290.8205	0.06	581641	keystroke_n	n	n/a
290.9855	0.075	581971	keystroke_k	k	n/a
291.2855	0.09	582571	keystroke_f	f	n/a
291.3905	0.06	582781	keystroke_u	u	n/a
291.4955	0.075	582991	keystroke_r	r	n/a
291.6755	0.075	583351	keystroke_t	t	n/a
292.2605	0.075	584521	keystroke_Key.enter	Key.enter	n/a
292.3405	9.2595	584681	prompt	n/a	northern contains insurance indicate\n
293.941	0.06	587882	keystroke_n	n	n/a
294.076	0.09	588152	keystroke_o	o	n/a
294.391	0.075	588782	keystroke_r	r	n/a
294.571	0.075	589142	keystroke_t	t	n/a
294.6905	0.06	589381	keystroke_h	h	n/a
294.7955	0.135	589591	keystroke_e	e	n/a
294.9905	0.075	589981	keystroke_r	r	n/a
295.2005	0.09	590401	keystroke_n	n	n/a
295.4855	0.06	590971	keystroke_Key.space	Key.space	n/a
296.1905	0.06	592381	keystroke_c	c	n/a
296.2515	0.059	592503	keystroke_o	o	n/a
296.4755	0.09	592951	keystroke_n	n	n/a
296.5955	0.075	593191	keystroke_t	t	n/a
296.836	0.075	593672	keystroke_a	a	n/a
296.926	0.045	593852	keystroke_i	i	n/a
297.076	0.075	594152	keystroke_n	n	n/a
297.211	0.06	594422	keystroke_s	s	n/a
297.331	0.06	594662	keystroke_Key.space	Key.space	n/a
297.766	0.075	595532	keystroke_i	i	n/a
297.931	0.09	595862	keystroke_n	n	n/a
298.111	0.075	596222	keystroke_s	s	n/a
298.2305	0.09	596461	keystroke_u	u	n/a
298.3955	0.075	596791	keystroke_r	r	n/a
298.6355	0.075	597271	keystroke_a	a	n/a
298.7855	0.075	597571	keystroke_n	n	n/a
298.9505	0.105	597901	keystroke_c	c	n/a
299.0255	0.105	598051	keystroke_e	e	n/a
299.2205	0.075	598441	keystroke_Key.space	Key.space	n/a
299.6705	0.075	599341	keystroke_i	i	n/a
299.8355	0.09	599671	keystroke_n	n	n/a
300.3455	0.0605	600691	keystroke_d	d	n/a
300.556	0.0745	601112	keystroke_i	i	n/a
300.7505	0.06	601501	keystroke_c	c	n/a
300.946	0.03	601892	keystroke_a	a	n/a
301.111	0.075	602222	keystroke_t	t	n/a
301.216	0.075	602432	keystroke_e	e	n/a
301.516	0.075	603032	keystroke_Key.enter	Key.enter	n/a
301.6035	7.444	603207	prompt	n/a	ruled angle moved faith\n
302.4155	0.09	604831	keystroke_r	r	n/a
302.6405	0.06	605281	keystroke_u	u	n/a
302.8205	0.09	605641	keystroke_l	l	n/a
302.9255	0.0455	605851	keystroke_e	e	n/a
303.151	0.09	606302	keystroke_d	d	n/a
303.286	0.09	606572	keystroke_Key.space	Key.space	n/a
303.511	0.06	607022	keystroke_a	a	n/a
303.7055	0.075	607411	keystroke_n	n	n/a
304.0205	0.06	608041	keystroke_g	g	n/a
304.1855	0.06	608371	keystroke_l	l	n/a
304.2755	0.06	608551	keystroke_e	e	n/a
304.6355	0.09	609271	keystroke_d	d	n/a
306.3155	0.0755	612631	keystroke_Key.backspace	Key.backspace	n/a
306.8555	0.075	613711	keystroke_Key.space	Key.space	n/a
307.126	0.075	614252	keystroke_m	m	n/a
307.306	0.105	614612	keystroke_o	o	n/a
307.441	0.045	614882	keystroke_v	v	n/a
307.606	0.045	615212	keystroke_e	e	n/a
307.7705	0.06	615541	keystroke_d	d	n/a
307.8905	0.075	615781	keystroke_Key.space	Key.space	n/a
308.0105	0.06	616021	keystroke_f	f	n/a
308.1305	0.09	616261	keystroke_a	a	n/a
308.2805	0.09	616561	keystroke_i	i	n/a
308.4305	0.075	616861	keystroke_t	t	n/a
308.5205	0.075	617041	keystroke_h	h	n/a
308.9705	0.075	617941	keystroke_Key.enter	Key.enter	n/a
309.051	7.175	618102	prompt	n/a	networks bare tricks surely\n
310.1255	0.015	620251	keystroke_n	n	n/a
310.1555	0.075	620311	keystroke_e	e	n/a
310.3055	0.09	620611	keystroke_t	t	n/a
310.5905	0.0755	621181	keystroke_w	w	n/a
310.7555	0.045	621511	keystroke_o	o	n/a
310.9055	0.06	621811	keystroke_r	r	n/a
310.996	0.075	621992	keystroke_k	k	n/a
311.4755	0.075	622951	keystroke_s	s	n/a
311.6405	0.075	623281	keystroke_Key.space	Key.space	n/a
312.1055	0.06	624211	keystroke_b	b	n/a
312.1955	0.06	624391	keystroke_a	a	n/a
312.3455	0.105	624691	keystroke_r	r	n/a
312.4205	0.09	624841	keystroke_e	e	n/a
312.5555	0.06	625111	keystroke_Key.space	Key.space	n/a
313.0665	0.06	626133	keystroke_t	t	n/a
313.2755	0.075	626551	keystroke_r	r	n/a
313.4105	0.076	626821	keystroke_i	i	n/a
313.906	0.075	627812	keystroke_c	c	n/a
314.026	0.09	628052	keystroke_k	k	n/a
314.161	0.075	628322	keystroke_s	s	n/a
314.311	0.075	628622	keystroke_Key.space	Key.space	n/a
314.821	0.075	629642	keystroke_s	s	n/a
315.03	0.061	630060	keystroke_u	u	n/a
315.166	0.105	630332	keystroke_r	r	n/a
315.241	0.105	630482	keystroke_e	e	n/a
315.481	0.075	630962	keystroke_l	l	n/a
315.751	0.045	631502	keystroke_y	y	n/a
316.17	0.046	632340	keystroke_Key.enter	Key.enter	n/a
316.23	8.8305	632460	prompt	n/a	represented animated healthy funded\n
317.416	0.1045	634832	keystroke_r	r	n/a
317.4905	0.105	634981	keystroke_e	e	n/a
317.7755	0.075	635551	keystroke_p	p	n/a
317.9105	0.09	635821	keystroke_r	r	n/a
317.9555	0.12	635911	keystroke_e	e	n/a
318.2405	0.06	636481	keystroke_s	s	n/a
318.3905	0.06	636781	keystroke_e	e	n/a
318.5255	0.075	637051	keystroke_n	n	n/a
318.6305	0.075	637261	keystroke_t	t	n/a
318.7505	0.075	637501	keystroke_e	e	n/a
318.9605	0.075	637921	keystroke_d	d	n/a
319.1255	0.09	638251	keystroke_Key.space	Key.space	n/a
319.3955	0.09	638791	keystroke_a	a	n/a
319.5305	0.075	639061	keystroke_n	n	n/a
319.7105	0.06	639421	keystroke_i	i	n/a
319.8755	0.09	639751	keystroke_m	m	n/a
319.9955	0.075	639991	keystroke_a	a	n/a
320.2205	0.075	640441	keystroke_t	t	n/a
320.3255	0.09	640651	keystroke_e	e	n/a
320.5055	0.105	641011	keystroke_d	d	n/a
320.701	0.06	641402	keystroke_Key.space	Key.space	n/a
321.106	0.06	642212	keystroke_h	h	n/a
321.196	0.0595	642392	keystroke_e	e	n/a
321.3455	0.075	642691	keystroke_a	a	n/a
321.4505	0.075	642901	keystroke_l	l	n/a
321.7955	0.06	643591	keystroke_t	t	n/a
321.9605	0.045	643921	keystroke_h	h	n/a
322.1555	0.09	644311	keystroke_y	y	n/a
322.2905	0.105	644581	keystroke_Key.space	Key.space	n/a
322.8455	0.06	645691	keystroke_f	f	n/a
322.9505	0.075	645901	keystroke_u	u	n/a
323.1755	0.09	646351	keystroke_n	n	n/a
323.3105	0.1055	646621	keystroke_d	d	n/a
323.3855	0.135	646771	keystroke_e	e	n/a
323.5055	0.105	647011	keystroke_d	d	n/a
325.021	0.03	650042	keystroke_Key.enter	Key.enter	n/a
325.065	8.4325	650130	prompt	n/a	detailed checking champion adventures\n
325.8605	0.075	651721	keystroke_d	d	n/a
325.8905	0.105	651781	keystroke_e	e	n/a
326.1305	0.075	652261	keystroke_t	t	n/a
326.3405	0.06	652681	keystroke_a	a	n/a
326.4605	0.075	652921	keystroke_i	i	n/a
326.6405	0.075	653281	keystroke_l	l	n/a
326.7005	0.075	653401	keystroke_e	e	n/a
326.9405	0.09	653881	keystroke_d	d	n/a
327.1055	0.075	654211	keystroke_Key.space	Key.space	n/a
327.5255	0.075	655051	keystroke_c	c	n/a
327.6455	0.06	655291	keystroke_h	h	n/a
327.7505	0.06	655501	keystroke_e	e	n/a
327.9605	0.105	655921	keystroke_c	c	n/a
328.0955	0.075	656191	keystroke_k	k	n/a
328.306	0.0595	656612	keystroke_i	i	n/a
328.4705	0.06	656941	keystroke_n	n	n/a
328.5905	0.045	657181	keystroke_g	g	n/a
328.9805	0.06	657961	keystroke_Key.space	Key.space	n/a
329.7005	0.015	659401	keystroke_c	c	n/a
329.7455	0.06	659491	keystroke_h	h	n/a
329.8505	0.09	659701	keystroke_a	a	n/a
330.0155	0.06	660031	keystroke_m	m	n/a
330.2405	0.09	660481	keystroke_p	p	n/a
330.6005	0.06	661201	keystroke_i	i	n/a
330.7655	0.045	661531	keystroke_o	o	n/a
330.931	0.135	661862	keystroke_n	n	n/a
331.036	0.09	662072	keystroke_Key.space	Key.space	n/a
331.516	0.06	663032	keystroke_a	a	n/a
331.711	0.075	663422	keystroke_d	d	n/a
331.951	0.06	663902	keystroke_v	v	n/a
332.116	0.06	664232	keystroke_e	e	n/a
332.236	0.075	664472	keystroke_n	n	n/a
332.356	0.075	664712	keystroke_t	t	n/a
332.52	0.045	665040	keystroke_u	u	n/a
332.67	0.106	665340	keystroke_r	r	n/a
332.716	0.119	665432	keystroke_e	e	n/a
333.1055	0.09	666211	keystroke_s	s	n/a
333.4055	0.09	666811	keystroke_Key.enter	Key.enter	n/a
333.5005	8.915	667001	prompt	n/a	closely filed vegetation receive\n
334.381	0.09	668762	keystroke_c	c	n/a
334.531	0.06	669062	keystroke_l	l	n/a
334.696	0.075	669392	keystroke_o	o	n/a
334.801	0.06	669602	keystroke_s	s	n/a
334.98	0.0755	669960	keystroke_e	e	n/a
335.1305	0.045	670261	keystroke_l	l	n/a
335.3705	0.15	670741	keystroke_y	y	n/a
335.5055	0.105	671011	keystroke_Key.space	Key.space	n/a
336.2255	0.09	672451	keystroke_f	f	n/a
336.3755	0.075	672751	keystroke_i	i	n/a
336.5855	0.075	673171	keystroke_l	l	n/a
336.6755	0.075	673351	keystroke_e	e	n/a
336.8855	0.105	673771	keystroke_d	d	n/a
337.0505	0.09	674101	keystroke_Key.space	Key.space	n/a
337.3205	0.09	674641	keystroke_v	v	n/a
337.5155	0.075	675031	keystroke_e	e	n/a
337.7105	0.0755	675421	keystroke_g	g	n/a
338.281	0.09	676562	keystroke_e	e	n/a
338.821	0.0745	677642	keystroke_t	t	n/a
339.0155	0.0755	678031	keystroke_a	a	n/a
339.211	0.075	678422	keystroke_t	t	n/a
339.316	0.06	678632	keystroke_i	i	n/a
339.436	0.075	678872	keystroke_o	o	n/a
339.616	0.15	679232	keystroke_n	n	n/a
339.736	0.105	679472	keystroke_Key.space	Key.space	n/a
340.0505	0.1055	680101	keystroke_r	r	n/a
340.126	0.1195	680252	keystroke_e	e	n/a
340.456	0.12	680912	keystroke_c	c	n/a
340.561	0.105	681122	keystroke_e	e	n/a
340.7555	0.075	681511	keystroke_i	i	n/a
340.9205	0.06	681841	keystroke_v	v	n/a
341.071	0.06	682142	keystroke_e	e	n/a
342.331	0.0745	684662	keystroke_Key.enter	Key.enter	n/a
342.42	11.455	684840	prompt	n/a	alabama broad positive habitat\n
343.2605	0.075	686521	keystroke_a	a	n/a
343.426	0.0745	686852	keystroke_l	l	n/a
343.5305	0.075	687061	keystroke_a	a	n/a
343.8305	0.06	687661	keystroke_b	b	n/a
343.9505	0.06	687901	keystroke_a	a	n/a
344.0705	0.09	688141	keystroke_m	m	n/a
344.2055	0.06	688411	keystroke_a	a	n/a
344.4905	0.06	688981	keystroke_Key.space	Key.space	n/a
345.1505	0.075	690301	keystroke_b	b	n/a
345.2855	0.075	690571	keystroke_r	r	n/a
345.3755	0.0755	690751	keystroke_o	o	n/a
345.5105	0.105	691021	keystroke_a	a	n/a
345.676	0.1345	691352	keystroke_d	d	n/a
345.8705	0.0605	691741	keystroke_Key.space	Key.space	n/a
346.606	0.1045	693212	keystroke_p	p	n/a
346.6805	0.135	693361	keystroke_o	o	n/a
346.8455	0.06	693691	keystroke_s	s	n/a
346.9655	0.075	693931	keystroke_i	i	n/a
347.1605	0.075	694321	keystroke_t	t	n/a
347.2655	0.06	694531	keystroke_i	i	n/a
347.5955	0.075	695191	keystroke_e	e	n/a
347.7755	0.0755	695551	keystroke_Key.space	Key.space	n/a
348.496	0.06	696992	keystroke_h	h	n/a
348.616	0.075	697232	keystroke_a	a	n/a
348.736	0.075	697472	keystroke_b	b	n/a
348.946	0.075	697892	keystroke_i	i	n/a
349.081	0.06	698162	keystroke_t	t	n/a
349.291	0.075	698582	keystroke_a	a	n/a
349.471	0.075	698942	keystroke_t	t	n/a
353.838	0.028	707676	keystroke_Key.enter	Key.enter	n/a
353.879	18.641	707758	prompt	n/a	aluminium baking dragon trans\n
355.1405	0.075	710281	keystroke_a	a	n/a
355.4255	0.0755	710851	keystroke_l	l	n/a
355.651	0.075	711302	keystroke_u	u	n/a
355.831	0.09	711662	keystroke_m	m	n/a
356.026	0.075	712052	keystroke_i	i	n/a
356.191	0.075	712382	keystroke_n	n	n/a
360.4835	0.001	720967	keystroke_i	i	n/a
360.5855	0.06	721171	keystroke_u	u	n/a
360.736	0.09	721472	keystroke_m	m	n/a
360.9755	0.075	721951	keystroke_Key.space	Key.space	n/a
367.593	0.001	735186	keystroke_b	b	n/a
367.636	0.045	735272	keystroke_a	a	n/a
367.7715	0.059	735543	keystroke_k	k	n/a
367.9065	0.075	735813	keystroke_i	i	n/a
368.0565	0.09	736113	keystroke_n	n	n/a
368.2365	0.045	736473	keystroke_g	g	n/a
368.3265	0.075	736653	keystroke_Key.space	Key.space	n/a
369.106	0.06	738212	keystroke_d	d	n/a
369.271	0.075	738542	keystroke_r	r	n/a
369.4055	0.0905	738811	keystroke_a	a	n/a
369.5855	0.045	739171	keystroke_g	g	n/a
369.7805	0.06	739561	keystroke_o	o	n/a
369.9605	0.15	739921	keystroke_n	n	n/a
370.1105	0.105	740221	keystroke_Key.space	Key.space	n/a
370.6055	0.0305	741211	keystroke_t	t	n/a
370.816	0.06	741632	keystroke_r	r	n/a
370.996	0.075	741992	keystroke_a	a	n/a
371.1465	0.09	742293	keystroke_n	n	n/a
371.3565	0.09	742713	keystroke_s	s	n/a
372.4515	0.06	744903	keystroke_Key.enter	Key.enter	n/a
372.5245	9.3425	745049	prompt	n/a	adams omissions statement panasonic\n
373.231	0.075	746462	keystroke_a	a	n/a
373.6055	0.105	747211	keystroke_d	d	n/a
373.6805	0.121	747361	keystroke_a	a	n/a
373.8905	0.09	747781	keystroke_m	m	n/a
374.0265	0.089	748053	keystroke_s	s	n/a
374.2505	0.031	748501	keystroke_Key.space	Key.space	n/a
374.3415	0.045	748683	keystroke_Key.space	Key.space	n/a
375.481	0.105	750962	keystroke_Key.backspace	Key.backspace	n/a
376.2605	0.0605	752521	keystroke_o	o	n/a
376.441	0.06	752882	keystroke_m	m	n/a
376.771	0.045	753542	keystroke_i	i	n/a
376.921	0.045	753842	keystroke_s	s	n/a
377.071	0.06	754142	keystroke_s	s	n/a
377.221	0.06	754442	keystroke_i	i	n/a
377.356	0.06	754712	keystroke_o	o	n/a
377.521	0.075	755042	keystroke_n	n	n/a
377.641	0.06	755282	keystroke_s	s	n/a
377.761	0.075	755522	keystroke_Key.space	Key.space	n/a
377.971	0.06	755942	keystroke_s	s	n/a
378.226	0.06	756452	keystroke_t	t	n/a
378.391	0.045	756782	keystroke_a	a	n/a
378.526	0.0755	757052	keystroke_t	t	n/a
378.5705	0.09	757141	keystroke_e	e	n/a
378.7215	0.075	757443	keystroke_m	m	n/a
378.8115	0.0745	757623	keystroke_e	e	n/a
378.901	0.06	757802	keystroke_n	n	n/a
379.036	0.045	758072	keystroke_t	t	n/a
379.141	0.045	758282	keystroke_Key.space	Key.space	n/a
379.321	0.06	758642	keystroke_p	p	n/a
379.441	0.045	758882	keystroke_r	r	n/a
380.131	0.045	760262	keystroke_Key.backspace	Key.backspace	n/a
380.236	0.075	760472	keystroke_a	a	n/a
380.491	0.06	760982	keystroke_n	n	n/a
380.581	0.075	761162	keystroke_a	a	n/a
380.806	0.06	761612	keystroke_s	s	n/a
380.881	0.09	761762	keystroke_o	o	n/a
381.076	0.075	762152	keystroke_n	n	n/a
381.226	0.06	762452	keystroke_i	i	n/a
381.316	0.0905	762632	keystroke_c	c	n/a
381.7665	0.09	763533	keystroke_Key.enter	Key.enter	n/a
381.8755	7.722	763751	prompt	n/a	motors quarter interface human\n
383.2665	0.075	766533	keystroke_m	m	n/a
383.4165	0.075	766833	keystroke_o	o	n/a
383.5505	0.045	767101	keystroke_t	t	n/a
383.6565	0.075	767313	keystroke_o	o	n/a
383.7915	0.075	767583	keystroke_r	r	n/a
384.3005	0.12	768601	keystroke_s	s	n/a
384.4505	0.09	768901	keystroke_Key.space	Key.space	n/a
385.396	0.045	770792	keystroke_q	q	n/a
385.531	0.075	771062	keystroke_u	u	n/a
385.666	0.06	771332	keystroke_a	a	n/a
385.861	0.06	771722	keystroke_r	r	n/a
386.011	0.075	772022	keystroke_t	t	n/a
386.176	0.135	772352	keystroke_e	e	n/a
386.281	0.105	772562	keystroke_r	r	n/a
386.506	0.075	773012	keystroke_Key.space	Key.space	n/a
387.0455	0.06	774091	keystroke_i	i	n/a
387.1805	0.105	774361	keystroke_n	n	n/a
387.3305	0.075	774661	keystroke_t	t	n/a
387.5105	0.09	775021	keystroke_e	e	n/a
387.5555	0.135	775111	keystroke_r	r	n/a
387.8405	0.06	775681	keystroke_f	f	n/a
387.9455	0.106	775891	keystroke_a	a	n/a
388.1705	0.1205	776341	keystroke_c	c	n/a
388.231	0.12	776462	keystroke_e	e	n/a
388.411	0.06	776822	keystroke_Key.space	Key.space	n/a
388.576	0.06	777152	keystroke_h	h	n/a
388.711	0.06	777422	keystroke_u	u	n/a
388.891	0.075	777782	keystroke_m	m	n/a
388.981	0.105	777962	keystroke_a	a	n/a
389.101	0.075	778202	keystroke_n	n	n/a
389.521	0.0755	779042	keystroke_Key.enter	Key.enter	n/a
389.6015	7.091	779203	prompt	n/a	lightweight retained trio counting\n
390.511	0.06	781022	keystroke_l	l	n/a
390.706	0.045	781412	keystroke_i	i	n/a
390.946	0.06	781892	keystroke_g	g	n/a
391.1115	0.0445	782223	keystroke_h	h	n/a
391.201	0.075	782402	keystroke_t	t	n/a
391.411	0.0905	782822	keystroke_w	w	n/a
391.561	0.0905	783122	keystroke_e	e	n/a
391.696	0.075	783392	keystroke_i	i	n/a
391.831	0.09	783662	keystroke_g	g	n/a
391.936	0.06	783872	keystroke_h	h	n/a
392.026	0.105	784052	keystroke_t	t	n/a
392.161	0.075	784322	keystroke_Key.space	Key.space	n/a
392.941	0.12	785882	keystroke_r	r	n/a
393.016	0.12	786032	keystroke_e	e	n/a
393.256	0.06	786512	keystroke_t	t	n/a
393.421	0.075	786842	keystroke_a	a	n/a
393.526	0.045	787052	keystroke_i	i	n/a
393.676	0.075	787352	keystroke_n	n	n/a
393.811	0.135	787622	keystroke_e	e	n/a
393.886	0.15	787772	keystroke_d	d	n/a
394.081	0.06	788162	keystroke_Key.space	Key.space	n/a
394.681	0.03	789362	keystroke_t	t	n/a
394.816	0.06	789632	keystroke_r	r	n/a
394.936	0.075	789872	keystroke_i	i	n/a
395.146	0.12	790292	keystroke_o	o	n/a
395.296	0.105	790592	keystroke_Key.space	Key.space	n/a
395.476	0.105	790952	keystroke_c	c	n/a
395.596	0.105	791192	keystroke_o	o	n/a
395.686	0.06	791372	keystroke_u	u	n/a
395.866	0.075	791732	keystroke_n	n	n/a
396.001	0.045	792002	keystroke_t	t	n/a
396.091	0.045	792182	keystroke_i	i	n/a
396.211	0.075	792422	keystroke_n	n	n/a
396.301	0.0755	792602	keystroke_g	g	n/a
396.6315	0.06	793263	keystroke_Key.enter	Key.enter	n/a
396.695	12.7415	793390	prompt	n/a	investigate graphic water least\n
397.5755	0.06	795151	keystroke_i	i	n/a
397.7555	0.075	795511	keystroke_n	n	n/a
398.0105	0.075	796021	keystroke_v	v	n/a
398.1005	0.075	796201	keystroke_e	e	n/a
398.3255	0.045	796651	keystroke_s	s	n/a
398.5205	0.061	797041	keystroke_t	t	n/a
398.626	0.075	797252	keystroke_i	i	n/a
398.7465	0.0745	797493	keystroke_g	g	n/a
398.941	0.0605	797882	keystroke_a	a	n/a
399.136	0.105	798272	keystroke_t	t	n/a
399.226	0.075	798452	keystroke_e	e	n/a
399.406	0.075	798812	keystroke_Key.space	Key.space	n/a
399.961	0.06	799922	keystroke_p	p	n/a
401.311	0.06	802622	keystroke_Key.backspace	Key.backspace	n/a
401.836	0.06	803672	keystroke_g	g	n/a
402.016	0.09	804032	keystroke_r	r	n/a
402.286	0.075	804572	keystroke_a	a	n/a
402.541	0.075	805082	keystroke_p	p	n/a
402.766	0.045	805532	keystroke_h	h	n/a
402.871	0.075	805742	keystroke_i	i	n/a
403.6665	0.06	807333	keystroke_c	c	n/a
403.8005	0.075	807601	keystroke_Key.space	Key.space	n/a
404.821	0.135	809642	keystroke_w	w	n/a
404.941	0.06	809882	keystroke_a	a	n/a
405.151	0.09	810302	keystroke_t	t	n/a
405.316	0.15	810632	keystroke_e	e	n/a
405.346	0.045	810692	keystroke_r	r	n/a
405.481	0.045	810962	keystroke_r	r	n/a
406.351	0.06	812702	keystroke_Key.backspace	Key.backspace	n/a
406.6655	0.09	813331	keystroke_Key.space	Key.space	n/a
406.9055	0.076	813811	keystroke_l	l	n/a
406.9815	0.06	813963	keystroke_e	e	n/a
407.1465	0.119	814293	keystroke_a	a	n/a
407.2205	0.1355	814441	keystroke_s	s	n/a
407.521	0.075	815042	keystroke_t	t	n/a
409.336	0.09	818672	keystroke_Key.enter	Key.enter	n/a
409.4405	7.4195	818881	prompt	n/a	placed gene truth senate\n
410.341	0.105	820682	keystroke_p	p	n/a
410.416	0.12	820832	keystroke_l	l	n/a
410.551	0.075	821102	keystroke_a	a	n/a
410.776	0.105	821552	keystroke_c	c	n/a
410.821	0.12	821642	keystroke_e	e	n/a
411.076	0.105	822152	keystroke_d	d	n/a
411.241	0.075	822482	keystroke_Key.space	Key.space	n/a
411.9615	0.06	823923	keystroke_g	g	n/a
412.0955	0.076	824191	keystroke_e	e	n/a
412.2165	0.075	824433	keystroke_n	n	n/a
412.3065	0.06	824613	keystroke_e	e	n/a
412.5155	0.046	825031	keystroke_Key.space	Key.space	n/a
412.8915	0.045	825783	keystroke_t	t	n/a
413.0565	0.044	826113	keystroke_r	r	n/a
413.4465	0.06	826893	keystroke_u	u	n/a
413.5515	0.074	827103	keystroke_t	t	n/a
413.6715	0.09	827343	keystroke_h	h	n/a
413.7155	0.1205	827431	keystroke_Key.space	Key.space	n/a
414.901	0.075	829802	keystroke_s	s	n/a
415.141	0.09	830282	keystroke_e	e	n/a
415.336	0.105	830672	keystroke_n	n	n/a
415.6065	0.06	831213	keystroke_a	a	n/a
415.8615	0.09	831723	keystroke_t	t	n/a
415.9665	0.09	831933	keystroke_e	e	n/a
416.7915	0.059	833583	keystroke_Key.enter	Key.enter	n/a
416.8645	9.521	833729	prompt	n/a	rendered lawn ampland spokesman\n
417.6605	0.09	835321	keystroke_r	r	n/a
417.7205	0.105	835441	keystroke_e	e	n/a
417.9305	0.076	835861	keystroke_n	n	n/a
418.0515	0.105	836103	keystroke_d	d	n/a
418.0955	0.121	836191	keystroke_e	e	n/a
418.2605	0.105	836521	keystroke_r	r	n/a
418.3515	0.089	836703	keystroke_e	e	n/a
418.6215	0.044	837243	keystroke_d	d	n/a
418.8155	0.06	837631	keystroke_Key.space	Key.space	n/a
419.3405	0.045	838681	keystroke_l	l	n/a
419.4305	0.075	838861	keystroke_a	a	n/a
419.8205	0.075	839641	keystroke_w	w	n/a
419.9405	0.165	839881	keystroke_n	n	n/a
420.0755	0.09	840151	keystroke_Key.space	Key.space	n/a
420.796	0.03	841592	keystroke_a	a	n/a
420.9615	0.075	841923	keystroke_m	m	n/a
421.2615	0.06	842523	keystroke_p	p	n/a
421.4865	0.059	842973	keystroke_l	l	n/a
421.6365	0.045	843273	keystroke_a	a	n/a
421.7565	0.075	843513	keystroke_n	n	n/a
421.8615	0.104	843723	keystroke_d	d	n/a
422.1905	0.0755	844381	keystroke_Key.space	Key.space	n/a
423.391	0.06	846782	keystroke_s	s	n/a
423.6455	0.06	847291	keystroke_p	p	n/a
423.8255	0.075	847651	keystroke_o	o	n/a
424.0205	0.06	848041	keystroke_k	k	n/a
424.2005	0.06	848401	keystroke_e	e	n/a
424.9655	0.09	849931	keystroke_s	s	n/a
425.3555	0.075	850711	keystroke_m	m	n/a
425.4605	0.09	850921	keystroke_a	a	n/a
425.5815	0.074	851163	keystroke_n	n	n/a
426.301	0.075	852602	keystroke_Key.enter	Key.enter	n/a
426.3895	13.247	852779	prompt	n/a	toshiba passengers cleaner harvest\n
427.6055	0.06	855211	keystroke_t	t	n/a
427.7405	0.06	855481	keystroke_o	o	n/a
427.9215	0.044	855843	keystroke_s	s	n/a
428.026	0.06	856052	keystroke_h	h	n/a
428.206	0.06	856412	keystroke_i	i	n/a
429.271	0.06	858542	keystroke_b	b	n/a
429.376	0.075	858752	keystroke_a	a	n/a
429.526	0.09	859052	keystroke_Key.space	Key.space	n/a
430.126	0.045	860252	keystroke_p	p	n/a
430.231	0.06	860462	keystroke_a	a	n/a
430.396	0.0745	860792	keystroke_s	s	n/a
430.5455	0.105	861091	keystroke_s	s	n/a
430.6205	0.105	861241	keystroke_a	a	n/a
432.1355	0.06	864271	keystroke_Key.backspace	Key.backspace	n/a
432.5705	0.0905	865141	keystroke_e	e	n/a
432.7505	0.06	865501	keystroke_n	n	n/a
432.8555	0.075	865711	keystroke_g	g	n/a
433.0205	0.105	866041	keystroke_e	e	n/a
433.1705	0.075	866341	keystroke_r	r	n/a
433.3955	0.105	866791	keystroke_s	s	n/a
433.6055	0.06	867211	keystroke_Key.space	Key.space	n/a
434.236	0.0755	868472	keystroke_c	c	n/a
434.3705	0.075	868741	keystroke_l	l	n/a
434.4315	0.075	868863	keystroke_e	e	n/a
434.6105	0.12	869221	keystroke_a	a	n/a
434.7155	0.105	869431	keystroke_r	r	n/a
434.8655	0.045	869731	keystroke_n	n	n/a
435.721	0.06	871442	keystroke_Key.backspace	Key.backspace	n/a
436.081	0.06	872162	keystroke_Key.backspace	Key.backspace	n/a
436.741	0.06	873482	keystroke_n	n	n/a
436.936	0.06	873872	keystroke_e	e	n/a
437.086	0.075	874172	keystroke_r	r	n/a
437.206	0.09	874412	keystroke_Key.space	Key.space	n/a
437.821	0.06	875642	keystroke_h	h	n/a
437.911	0.075	875822	keystroke_a	a	n/a
438.061	0.09	876122	keystroke_r	r	n/a
438.331	0.06	876662	keystroke_v	v	n/a
438.466	0.075	876932	keystroke_e	e	n/a
438.661	0.075	877322	keystroke_s	s	n/a
438.841	0.06	877682	keystroke_t	t	n/a
439.5605	0.06	879121	keystroke_Key.enter	Key.enter	n/a
439.6435	9.4125	879287	prompt	n/a	manufacture declaration lake supplement\n
441.7835	0.013	883567	keystroke_m	m	n/a
441.8115	0.09	883623	keystroke_a	a	n/a
441.9465	0.075	883893	keystroke_n	n	n/a
442.1115	0.06	884223	keystroke_u	u	n/a
442.4405	0.061	884881	keystroke_f	f	n/a
442.5915	0.075	885183	keystroke_a	a	n/a
442.7865	0.09	885573	keystroke_c	c	n/a
442.9965	0.074	885993	keystroke_t	t	n/a
443.1015	0.059	886203	keystroke_u	u	n/a
443.2065	0.105	886413	keystroke_r	r	n/a
443.2655	0.12	886531	keystroke_e	e	n/a
443.5055	0.045	887011	keystroke_Key.space	Key.space	n/a
444.0305	0.091	888061	keystroke_d	d	n/a
444.1055	0.075	888211	keystroke_e	e	n/a
444.3005	0.075	888601	keystroke_c	c	n/a
444.4955	0.075	888991	keystroke_l	l	n/a
444.6455	0.075	889291	keystroke_a	a	n/a
444.8105	0.091	889621	keystroke_r	r	n/a
444.9165	0.09	889833	keystroke_a	a	n/a
445.1255	0.075	890251	keystroke_t	t	n/a
445.2305	0.046	890461	keystroke_i	i	n/a
445.3665	0.06	890733	keystroke_o	o	n/a
445.5315	0.1945	891063	keystroke_n	n	n/a
445.6805	0.0905	891361	keystroke_Key.space	Key.space	n/a
445.951	0.075	891902	keystroke_l	l	n/a
446.056	0.06	892112	keystroke_a	a	n/a
446.371	0.06	892742	keystroke_k	k	n/a
446.491	0.06	892982	keystroke_e	e	n/a
446.611	0.1195	893222	keystroke_Key.space	Key.space	n/a
446.7615	0.059	893523	keystroke_s	s	n/a
446.8355	0.075	893671	keystroke_u	u	n/a
447.0455	0.06	894091	keystroke_p	p	n/a
447.1805	0.06	894361	keystroke_p	p	n/a
447.3305	0.075	894661	keystroke_l	l	n/a
447.6455	0.09	895291	keystroke_e	e	n/a
447.7805	0.075	895561	keystroke_m	m	n/a
447.8705	0.105	895741	keystroke_e	e	n/a
447.9905	0.075	895981	keystroke_n	n	n/a
448.1105	0.09	896221	keystroke_t	t	n/a
448.9805	0.06	897961	keystroke_Key.enter	Key.enter	n/a
449.064	9.537	898128	prompt	n/a	autos substantially elite bolivia\n
449.8205	0.06	899641	keystroke_a	a	n/a
450.0155	0.06	900031	keystroke_u	u	n/a
450.406	0.0745	900812	keystroke_t	t	n/a
450.4955	0.091	900991	keystroke_o	o	n/a
450.7815	0.06	901563	keystroke_s	s	n/a
450.8865	0.09	901773	keystroke_Key.space	Key.space	n/a
451.2915	0.075	902583	keystroke_s	s	n/a
451.4565	0.06	902913	keystroke_u	u	n/a
451.6365	0.09	903273	keystroke_b	b	n/a
452.0865	0.074	904173	keystroke_s	s	n/a
452.3715	0.075	904743	keystroke_t	t	n/a
452.5515	0.075	905103	keystroke_a	a	n/a
452.7015	0.089	905403	keystroke_n	n	n/a
452.9405	0.06	905881	keystroke_t	t	n/a
453.0455	0.06	906091	keystroke_i	i	n/a
453.1655	0.09	906331	keystroke_a	a	n/a
453.4505	0.06	906901	keystroke_l	l	n/a
453.5855	0.076	907171	keystroke_l	l	n/a
454.0805	0.09	908161	keystroke_y	y	n/a
454.1855	0.105	908371	keystroke_Key.space	Key.space	n/a
454.8905	0.06	909781	keystroke_e	e	n/a
455.0405	0.075	910081	keystroke_l	l	n/a
455.2355	0.06	910471	keystroke_i	i	n/a
455.4305	0.06	910861	keystroke_t	t	n/a
455.5505	0.09	911101	keystroke_e	e	n/a
455.7305	0.06	911461	keystroke_Key.space	Key.space	n/a
456.4055	0.09	912811	keystroke_b	b	n/a
456.736	0.075	913472	keystroke_o	o	n/a
456.9755	0.06	913951	keystroke_l	l	n/a
457.3215	0.06	914643	keystroke_i	i	n/a
457.6955	0.0605	915391	keystroke_v	v	n/a
457.786	0.06	915572	keystroke_i	i	n/a
458.056	0.075	916112	keystroke_a	a	n/a
458.521	0.06	917042	keystroke_Key.enter	Key.enter	n/a
458.6095	6.543	917219	prompt	n/a	go remarkable awesome wheat\n
459.751	0.06	919502	keystroke_g	g	n/a
459.856	0.15	919712	keystroke_o	o	n/a
459.961	0.12	919922	keystroke_Key.space	Key.space	n/a
460.216	0.105	920432	keystroke_r	r	n/a
460.291	0.105	920582	keystroke_e	e	n/a
460.516	0.09	921032	keystroke_m	m	n/a
460.651	0.075	921302	keystroke_a	a	n/a
460.786	0.105	921572	keystroke_r	r	n/a
461.0105	0.06	922021	keystroke_k	k	n/a
461.1305	0.105	922261	keystroke_a	a	n/a
461.3405	0.045	922681	keystroke_b	b	n/a
461.5805	0.075	923161	keystroke_l	l	n/a
461.7005	0.12	923401	keystroke_e	e	n/a
461.8505	0.075	923701	keystroke_Key.space	Key.space	n/a
462.4055	0.075	924811	keystroke_a	a	n/a
462.5855	0.09	925171	keystroke_w	w	n/a
462.7355	0.105	925471	keystroke_e	e	n/a
463.0805	0.075	926161	keystroke_s	s	n/a
463.1855	0.0755	926371	keystroke_o	o	n/a
463.351	0.09	926702	keystroke_m	m	n/a
463.456	0.09	926912	keystroke_e	e	n/a
463.621	0.075	927242	keystroke_Key.space	Key.space	n/a
464.086	0.0895	928172	keystroke_w	w	n/a
464.251	0.075	928502	keystroke_h	h	n/a
464.341	0.06	928682	keystroke_e	e	n/a
464.596	0.045	929192	keystroke_a	a	n/a
464.761	0.09	929522	keystroke_t	t	n/a
465.061	0.09	930122	keystroke_Key.enter	Key.enter	n/a
465.1555	6.4015	930311	prompt	n/a	launches maybe visual messages\n
466.261	0.06	932522	keystroke_l	l	n/a
466.366	0.075	932732	keystroke_a	a	n/a
466.486	0.06	932972	keystroke_u	u	n/a
466.681	0.06	933362	keystroke_n	n	n/a
466.906	0.06	933812	keystroke_c	c	n/a
466.981	0.06	933962	keystroke_h	h	n/a
467.086	0.06	934172	keystroke_e	e	n/a
467.3105	0.09	934621	keystroke_s	s	n/a
467.4605	0.09	934921	keystroke_Key.space	Key.space	n/a
467.7155	0.075	935431	keystroke_m	m	n/a
467.8505	0.075	935701	keystroke_a	a	n/a
468.1205	0.06	936241	keystroke_y	y	n/a
468.3305	0.045	936661	keystroke_b	b	n/a
468.3905	0.06	936781	keystroke_e	e	n/a
468.5255	0.06	937051	keystroke_Key.space	Key.space	n/a
468.7055	0.06	937411	keystroke_v	v	n/a
468.7955	0.06	937591	keystroke_i	i	n/a
468.9605	0.075	937921	keystroke_s	s	n/a
469.1705	0.045	938341	keystroke_u	u	n/a
469.3205	0.075	938641	keystroke_a	a	n/a
469.5155	0.09	939031	keystroke_l	l	n/a
469.6655	0.09	939331	keystroke_Key.space	Key.space	n/a
470.011	0.059	940022	keystroke_m	m	n/a
470.146	0.06	940292	keystroke_e	e	n/a
470.341	0.059	940682	keystroke_s	s	n/a
470.491	0.105	940982	keystroke_s	s	n/a
470.566	0.12	941132	keystroke_a	a	n/a
470.896	0.06	941792	keystroke_g	g	n/a
471.001	0.075	942002	keystroke_e	e	n/a
471.196	0.06	942392	keystroke_s	s	n/a
471.511	0.045	943022	keystroke_Key.enter	Key.enter	n/a
471.5615	7.6385	943123	prompt	n/a	programming text update stylish\n
472.456	0.045	944912	keystroke_p	p	n/a
472.576	0.075	945152	keystroke_r	r	n/a
472.726	0.075	945452	keystroke_o	o	n/a
472.996	0.06	945992	keystroke_g	g	n/a
473.041	0.09	946082	keystroke_r	r	n/a
473.311	0.075	946622	keystroke_a	a	n/a
473.431	0.06	946862	keystroke_m	m	n/a
473.566	0.06	947132	keystroke_m	m	n/a
473.701	0.075	947402	keystroke_i	i	n/a
473.836	0.09	947672	keystroke_n	n	n/a
473.986	0.06	947972	keystroke_g	g	n/a
474.136	0.09	948272	keystroke_Key.space	Key.space	n/a
474.811	0.075	949622	keystroke_t	t	n/a
474.931	0.075	949862	keystroke_e	e	n/a
475.351	0.075	950702	keystroke_x	x	n/a
475.576	0.1045	951152	keystroke_t	t	n/a
475.7255	0.045	951451	keystroke_Key.space	Key.space	n/a
475.8305	0.076	951661	keystroke_u	u	n/a
476.0265	0.09	952053	keystroke_p	p	n/a
476.1455	0.166	952291	keystroke_d	d	n/a
476.2505	0.12	952501	keystroke_a	a	n/a
476.5205	0.105	953041	keystroke_t	t	n/a
476.5965	0.0895	953193	keystroke_e	e	n/a
476.8055	0.075	953611	keystroke_Key.space	Key.space	n/a
477.3455	0.09	954691	keystroke_s	s	n/a
477.6005	0.075	955201	keystroke_t	t	n/a
477.8705	0.06	955741	keystroke_y	y	n/a
478.216	0.075	956432	keystroke_l	l	n/a
478.396	0.075	956792	keystroke_i	i	n/a
478.576	0.09	957152	keystroke_s	s	n/a
478.666	0.06	957332	keystroke_h	h	n/a
479.116	0.075	958232	keystroke_Key.enter	Key.enter	n/a
479.204	8.848	958408	prompt	n/a	trigger worldwide varies stamps\n
480.286	0.12	960572	keystroke_t	t	n/a
480.421	0.06	960842	keystroke_r	r	n/a
480.571	0.075	961142	keystroke_i	i	n/a
480.736	0.075	961472	keystroke_g	g	n/a
480.9005	0.06	961801	keystroke_g	g	n/a
481.0655	0.12	962131	keystroke_e	e	n/a
481.2005	0.09	962401	keystroke_r	r	n/a
481.3355	0.105	962671	keystroke_Key.space	Key.space	n/a
481.5155	0.105	963031	keystroke_w	w	n/a
481.6805	0.075	963361	keystroke_o	o	n/a
482.041	0.075	964082	keystroke_r	r	n/a
482.221	0.06	964442	keystroke_l	l	n/a
482.386	0.075	964772	keystroke_d	d	n/a
482.581	0.075	965162	keystroke_w	w	n/a
482.686	0.06	965372	keystroke_i	i	n/a
482.866	0.1045	965732	keystroke_d	d	n/a
482.926	0.1195	965852	keystroke_e	e	n/a
483.1205	0.09	966241	keystroke_Key.space	Key.space	n/a
484.0355	0.075	968071	keystroke_v	v	n/a
484.2455	0.075	968491	keystroke_a	a	n/a
485.191	0.075	970382	keystroke_r	r	n/a
485.6855	0.075	971371	keystroke_i	i	n/a
485.8055	0.075	971611	keystroke_e	e	n/a
486.0455	0.06	972091	keystroke_s	s	n/a
486.1805	0.06	972361	keystroke_Key.space	Key.space	n/a
486.7505	0.06	973501	keystroke_s	s	n/a
486.9455	0.061	973891	keystroke_t	t	n/a
487.1255	0.075	974251	keystroke_a	a	n/a
487.3355	0.075	974671	keystroke_m	m	n/a
487.5005	0.06	975001	keystroke_p	p	n/a
487.6955	0.09	975391	keystroke_s	s	n/a
487.9955	0.0455	975991	keystroke_Key.enter	Key.enter	n/a
488.0565	8.3675	976113	prompt	n/a	road presidential detection pathology\n
489.151	0.0595	978302	keystroke_r	r	n/a
489.2405	0.075	978481	keystroke_o	o	n/a
489.331	0.09	978662	keystroke_a	a	n/a
489.5405	0.105	979081	keystroke_d	d	n/a
489.661	0.0895	979322	keystroke_Key.space	Key.space	n/a
489.886	0.06	979772	keystroke_p	p	n/a
489.9605	0.105	979921	keystroke_r	r	n/a
490.0205	0.09	980041	keystroke_e	e	n/a
490.2455	0.075	980491	keystroke_s	s	n/a
490.4555	0.06	980911	keystroke_i	i	n/a
490.9205	0.105	981841	keystroke_d	d	n/a
490.9955	0.09	981991	keystroke_e	e	n/a
491.2205	0.06	982441	keystroke_n	n	n/a
491.2955	0.045	982591	keystroke_t	t	n/a
491.4455	0.045	982891	keystroke_i	i	n/a
491.5355	0.075	983071	keystroke_a	a	n/a
491.7005	0.15	983401	keystroke_l	l	n/a
491.8355	0.12	983671	keystroke_Key.space	Key.space	n/a
492.6005	0.09	985201	keystroke_d	d	n/a
492.6605	0.12	985321	keystroke_e	e	n/a
492.8855	0.075	985771	keystroke_t	t	n/a
493.0205	0.105	986041	keystroke_e	e	n/a
493.3205	0.075	986641	keystroke_c	c	n/a
493.5455	0.075	987091	keystroke_t	t	n/a
493.7255	0.0445	987451	keystroke_i	i	n/a
493.846	0.074	987692	keystroke_o	o	n/a
494.01	0.135	988020	keystroke_n	n	n/a
494.13	0.09	988260	keystroke_Key.space	Key.space	n/a
494.58	0.046	989160	keystroke_p	p	n/a
494.8055	0.0455	989611	keystroke_a	a	n/a
494.9865	0.074	989973	keystroke_t	t	n/a
495.0755	0.06	990151	keystroke_h	h	n/a
495.2555	0.06	990511	keystroke_o	o	n/a
495.4355	0.045	990871	keystroke_l	l	n/a
495.5555	0.075	991111	keystroke_o	o	n/a
495.6905	0.09	991381	keystroke_g	g	n/a
495.8105	0.075	991621	keystroke_y	y	n/a
496.3205	0.09	992641	keystroke_Key.enter	Key.enter	n/a
496.4295	14.632	992859	prompt	n/a	therapeutic mitchell somewhat arrested\n
497.2355	0.045	994471	keystroke_t	t	n/a
497.3255	0.06	994651	keystroke_h	h	n/a
497.4005	0.12	994801	keystroke_e	e	n/a
497.4905	0.12	994981	keystroke_r	r	n/a
497.7455	0.075	995491	keystroke_a	a	n/a
497.9705	0.075	995941	keystroke_p	p	n/a
499.5455	0.075	999091	keystroke_e	e	n/a
499.7255	0.075	999451	keystroke_u	u	n/a
499.9655	0.0755	999931	keystroke_t	t	n/a
500.101	0.09	1000202	keystroke_i	i	n/a
500.296	0.06	1000592	keystroke_c	c	n/a
500.371	0.09	1000742	keystroke_Key.space	Key.space	n/a
501.196	0.075	1002392	keystroke_m	m	n/a
501.376	0.075	1002752	keystroke_i	i	n/a
501.511	0.06	1003022	keystroke_t	t	n/a
501.766	0.075	1003532	keystroke_c	c	n/a
501.886	0.06	1003772	keystroke_h	h	n/a
503.2805	0.09	1006561	keystroke_e	e	n/a
503.4905	0.06	1006981	keystroke_l	l	n/a
503.6405	0.06	1007281	keystroke_l	l	n/a
504.0905	0.09	1008181	keystroke_Key.space	Key.space	n/a
505.021	0.089	1010042	keystroke_s	s	n/a
505.185	0.135	1010370	keystroke_o	o	n/a
505.336	0.074	1010672	keystroke_m	m	n/a
505.4555	0.0605	1010911	keystroke_e	e	n/a
505.681	0.059	1011362	keystroke_w	w	n/a
505.8	0.061	1011600	keystroke_h	h	n/a
506.085	0.075	1012170	keystroke_a	a	n/a
506.2055	0.12	1012411	keystroke_t	t	n/a
506.595	0.045	1013190	keystroke_Key.space	Key.space	n/a
507.676	0.06	1015352	keystroke_a	a	n/a
508.606	0.0445	1017212	keystroke_r	r	n/a
508.756	0.075	1017512	keystroke_r	r	n/a
508.846	0.105	1017692	keystroke_e	e	n/a
509.266	0.18	1018532	keystroke_s	s	n/a
510.1955	0.06	1020391	keystroke_t	t	n/a
510.3755	0.075	1020751	keystroke_e	e	n/a
510.5555	0.09	1021111	keystroke_d	d	n/a
511.0205	0.03	1022041	keystroke_Key.enter	Key.enter	n/a
511.066	13.1195	1022132	prompt	n/a	inquire very conclude restructuring\n
511.8905	0.031	1023781	keystroke_i	i	n/a
512.0555	0.076	1024111	keystroke_n	n	n/a
512.3705	0.075	1024741	keystroke_q	q	n/a
512.5355	0.045	1025071	keystroke_u	u	n/a
512.6705	0.06	1025341	keystroke_i	i	n/a
513.0755	0.105	1026151	keystroke_r	r	n/a
513.4505	0.09	1026901	keystroke_e	e	n/a
513.931	0.075	1027862	keystroke_Key.space	Key.space	n/a
514.501	0.06	1029002	keystroke_v	v	n/a
514.591	0.135	1029182	keystroke_e	e	n/a
514.666	0.12	1029332	keystroke_r	r	n/a
514.816	0.12	1029632	keystroke_y	y	n/a
514.89	0.121	1029780	keystroke_Key.space	Key.space	n/a
515.101	0.075	1030202	keystroke_c	c	n/a
515.191	0.045	1030382	keystroke_o	o	n/a
515.371	0.09	1030742	keystroke_n	n	n/a
515.566	0.075	1031132	keystroke_c	c	n/a
515.671	0.075	1031342	keystroke_l	l	n/a
515.896	0.075	1031792	keystroke_y	y	n/a
516.046	0.075	1032092	keystroke_e	e	n/a
516.871	0.06	1033742	keystroke_Key.backspace	Key.backspace	n/a
517.096	0.06	1034192	keystroke_Key.backspace	Key.backspace	n/a
517.741	0.075	1035482	keystroke_u	u	n/a
517.831	0.135	1035662	keystroke_d	d	n/a
517.936	0.105	1035872	keystroke_e	e	n/a
518.145	0.09	1036290	keystroke_Key.space	Key.space	n/a
518.715	0.0905	1037430	keystroke_r	r	n/a
518.775	0.09	1037550	keystroke_e	e	n/a
519.0155	0.105	1038031	keystroke_s	s	n/a
519.3005	0.045	1038601	keystroke_t	t	n/a
519.4655	0.09	1038931	keystroke_r	r	n/a
519.6905	0.06	1039381	keystroke_u	u	n/a
519.8855	0.09	1039771	keystroke_c	c	n/a
520.1255	0.06	1040251	keystroke_t	t	n/a
520.5605	0.03	1041121	keystroke_u	u	n/a
520.9055	0.015	1041811	keystroke_i	i	n/a
522.241	0.045	1044482	keystroke_Key.backspace	Key.backspace	n/a
522.646	0.075	1045292	keystroke_r	r	n/a
523.051	0.06	1046102	keystroke_i	i	n/a
523.216	0.075	1046432	keystroke_n	n	n/a
523.351	0.09	1046702	keystroke_g	g	n/a
524.101	0.075	1048202	keystroke_Key.enter	Key.enter	n/a
524.1895	12.1305	1048379	prompt	n/a	radios aware retrieve communications\n
526.2775	0.001	1052555	keystroke_r	r	n/a
526.3805	0.09	1052761	keystroke_a	a	n/a
526.5755	0.12	1053151	keystroke_d	d	n/a
526.7255	0.045	1053451	keystroke_i	i	n/a
526.876	0.06	1053752	keystroke_o	o	n/a
526.966	0.09	1053932	keystroke_s	s	n/a
527.101	0.075	1054202	keystroke_Key.space	Key.space	n/a
527.251	0.075	1054502	keystroke_a	a	n/a
527.476	0.12	1054952	keystroke_w	w	n/a
527.566	0.105	1055132	keystroke_a	a	n/a
527.761	0.09	1055522	keystroke_r	r	n/a
527.836	0.09	1055672	keystroke_e	e	n/a
528.016	0.075	1056032	keystroke_Key.space	Key.space	n/a
528.166	0.09	1056332	keystroke_r	r	n/a
528.241	0.09	1056482	keystroke_e	e	n/a
528.511	0.075	1057022	keystroke_t	t	n/a
529.276	0.06	1058552	keystroke_r	r	n/a
529.441	0.045	1058882	keystroke_i	i	n/a
529.666	0.03	1059332	keystroke_e	e	n/a
529.951	0.09	1059902	keystroke_v	v	n/a
530.056	0.12	1060112	keystroke_e	e	n/a
530.311	0.075	1060622	keystroke_Key.space	Key.space	n/a
531.0005	0.075	1062001	keystroke_o	o	n/a
531.1805	0.075	1062361	keystroke_m	m	n/a
531.3155	0.0755	1062631	keystroke_m	m	n/a
532.201	0.045	1064402	keystroke_Key.backspace	Key.backspace	n/a
532.441	0.06	1064882	keystroke_Key.backspace	Key.backspace	n/a
532.9055	0.06	1065811	keystroke_Key.backspace	Key.backspace	n/a
533.251	0.06	1066502	keystroke_c	c	n/a
533.506	0.105	1067012	keystroke_o	o	n/a
533.731	0.045	1067462	keystroke_m	m	n/a
533.851	0.075	1067702	keystroke_m	m	n/a
534.046	0.06	1068092	keystroke_u	u	n/a
534.211	0.045	1068422	keystroke_n	n	n/a
534.346	0.06	1068692	keystroke_i	i	n/a
534.451	0.09	1068902	keystroke_c	c	n/a
534.661	0.0145	1069322	keystroke_a	a	n/a
535.0805	0.075	1070161	keystroke_t	t	n/a
535.2455	0.045	1070491	keystroke_i	i	n/a
535.3805	0.06	1070761	keystroke_o	o	n/a
535.5155	0.105	1071031	keystroke_n	n	n/a
535.6655	0.075	1071331	keystroke_s	s	n/a
536.2505	0.06	1072501	keystroke_Key.enter	Key.enter	n/a
536.324	13.151	1072648	prompt	n/a	building pockets feof eleven\n
538.291	0.0595	1076582	keystroke_b	b	n/a
538.441	0.0595	1076882	keystroke_u	u	n/a
538.6205	0.06	1077241	keystroke_i	i	n/a
538.8305	0.0605	1077661	keystroke_l	l	n/a
538.9055	0.105	1077811	keystroke_d	d	n/a
539.0705	0.045	1078141	keystroke_i	i	n/a
539.1905	0.075	1078381	keystroke_n	n	n/a
539.3255	0.075	1078651	keystroke_g	g	n/a
539.4155	0.075	1078831	keystroke_Key.space	Key.space	n/a
539.9705	0.075	1079941	keystroke_o	o	n/a
540.1955	0.09	1080391	keystroke_c	c	n/a
540.3155	0.09	1080631	keystroke_k	k	n/a
540.5405	0.06	1081081	keystroke_e	e	n/a
540.7355	0.06	1081471	keystroke_t	t	n/a
540.9	0.076	1081800	keystroke_s	s	n/a
541.036	0.075	1082072	keystroke_Key.space	Key.space	n/a
541.9505	0.06	1083901	keystroke_Key.backspace	Key.backspace	n/a
542.2805	0.06	1084561	keystroke_Key.backspace	Key.backspace	n/a
542.6105	0.06	1085221	keystroke_Key.backspace	Key.backspace	n/a
542.9255	0.075	1085851	keystroke_Key.backspace	Key.backspace	n/a
543.2255	0.075	1086451	keystroke_Key.backspace	Key.backspace	n/a
543.5255	0.06	1087051	keystroke_Key.backspace	Key.backspace	n/a
543.8255	0.06	1087651	keystroke_Key.backspace	Key.backspace	n/a
544.5005	0.075	1089001	keystroke_p	p	n/a
544.6955	0.06	1089391	keystroke_o	o	n/a
544.8605	0.075	1089721	keystroke_c	c	n/a
544.9955	0.075	1089991	keystroke_k	k	n/a
545.1005	0.075	1090201	keystroke_e	e	n/a
545.2805	0.075	1090561	keystroke_t	t	n/a
545.4305	0.09	1090861	keystroke_s	s	n/a
545.5955	0.075	1091191	keystroke_Key.space	Key.space	n/a
546.7505	0.075	1093501	keystroke_f	f	n/a
546.9305	0.0755	1093861	keystroke_o	o	n/a
547.036	0.06	1094072	keystroke_e	e	n/a
547.186	0.105	1094372	keystroke_f	f	n/a
547.381	0.075	1094762	keystroke_Key.space	Key.space	n/a
547.861	0.075	1095722	keystroke_e	e	n/a
547.996	0.12	1095992	keystroke_l	l	n/a
548.071	0.075	1096142	keystroke_e	e	n/a
548.341	0.075	1096682	keystroke_v	v	n/a
548.746	0.06	1097492	keystroke_e	e	n/a
548.866	0.075	1097732	keystroke_n	n	n/a
549.361	0.105	1098722	keystroke_Key.enter	Key.enter	n/a
549.479	13.4215	1098958	prompt	n/a	road nashville refrigerator federation\n
550.546	0.06	1101092	keystroke_r	r	n/a
550.651	0.075	1101302	keystroke_o	o	n/a
550.756	0.12	1101512	keystroke_a	a	n/a
550.891	0.1195	1101782	keystroke_d	d	n/a
551.0405	0.09	1102081	keystroke_Key.space	Key.space	n/a
551.2355	0.09	1102471	keystroke_n	n	n/a
551.3255	0.1505	1102651	keystroke_a	a	n/a
551.401	0.15	1102802	keystroke_s	s	n/a
551.956	0.075	1103912	keystroke_h	h	n/a
552.241	0.075	1104482	keystroke_v	v	n/a
552.436	0.075	1104872	keystroke_i	i	n/a
552.631	0.0445	1105262	keystroke_l	l	n/a
552.7505	0.075	1105501	keystroke_l	l	n/a
552.8405	0.075	1105681	keystroke_e	e	n/a
553.0205	0.0745	1106041	keystroke_Key.space	Key.space	n/a
553.291	0.119	1106582	keystroke_r	r	n/a
553.381	0.105	1106762	keystroke_e	e	n/a
553.621	0.06	1107242	keystroke_f	f	n/a
553.83	0.106	1107660	keystroke_r	r	n/a
553.95	0.09	1107900	keystroke_e	e	n/a
555.541	0.09	1111082	keystroke_Key.backspace	Key.backspace	n/a
556.006	0.06	1112012	keystroke_i	i	n/a
557.5205	0.06	1115041	keystroke_g	g	n/a
557.6705	0.12	1115341	keystroke_e	e	n/a
557.7605	0.105	1115521	keystroke_r	r	n/a
557.9855	0.09	1115971	keystroke_a	a	n/a
558.2855	0.06	1116571	keystroke_t	t	n/a
558.4355	0.075	1116871	keystroke_o	o	n/a
558.5405	0.0905	1117081	keystroke_r	r	n/a
560.3105	0.09	1120621	keystroke_Key.space	Key.space	n/a
560.806	0.06	1121612	keystroke_f	f	n/a
560.941	0.1195	1121882	keystroke_e	e	n/a
561.286	0.09	1122572	keystroke_d	d	n/a
561.391	0.1045	1122782	keystroke_e	e	n/a
561.5705	0.09	1123141	keystroke_r	r	n/a
561.7955	0.075	1123591	keystroke_a	a	n/a
562.0055	0.0605	1124011	keystroke_t	t	n/a
562.125	0.061	1124250	keystroke_i	i	n/a
562.246	0.075	1124492	keystroke_o	o	n/a
562.426	0.06	1124852	keystroke_n	n	n/a
562.816	0.075	1125632	keystroke_Key.enter	Key.enter	n/a
562.9055	9.9545	1125811	prompt	n/a	valuable warming sympathy turning\n
565.293	0.001	1130586	keystroke_v	v	n/a
565.411	0.0595	1130822	keystroke_a	a	n/a
565.7255	0.06	1131451	keystroke_l	l	n/a
566.0105	0.045	1132021	keystroke_u	u	n/a
566.1755	0.075	1132351	keystroke_a	a	n/a
566.3255	0.06	1132651	keystroke_b	b	n/a
566.521	0.045	1133042	keystroke_l	l	n/a
566.581	0.0745	1133162	keystroke_e	e	n/a
566.716	0.09	1133432	keystroke_Key.space	Key.space	n/a
567.091	0.165	1134182	keystroke_w	w	n/a
567.196	0.105	1134392	keystroke_a	a	n/a
567.466	0.06	1134932	keystroke_r	r	n/a
567.646	0.075	1135292	keystroke_m	m	n/a
567.841	0.045	1135682	keystroke_i	i	n/a
567.946	0.09	1135892	keystroke_n	n	n/a
568.066	0.0745	1136132	keystroke_g	g	n/a
568.201	0.06	1136402	keystroke_Key.space	Key.space	n/a
568.951	0.045	1137902	keystroke_s	s	n/a
569.251	0.045	1138502	keystroke_y	y	n/a
569.566	0.0745	1139132	keystroke_m	m	n/a
569.7905	0.075	1139581	keystroke_p	p	n/a
569.986	0.075	1139972	keystroke_a	a	n/a
570.1805	0.0605	1140361	keystroke_t	t	n/a
570.346	0.075	1140692	keystroke_h	h	n/a
570.481	0.12	1140962	keystroke_y	y	n/a
570.586	0.1195	1141172	keystroke_Key.space	Key.space	n/a
571.141	0.075	1142282	keystroke_t	t	n/a
571.261	0.06	1142522	keystroke_u	u	n/a
571.366	0.09	1142732	keystroke_r	r	n/a
571.5605	0.045	1143121	keystroke_n	n	n/a
571.6655	0.075	1143331	keystroke_i	i	n/a
571.8605	0.06	1143721	keystroke_n	n	n/a
571.9655	0.09	1143931	keystroke_g	g	n/a
572.7905	0.06	1145581	keystroke_Key.enter	Key.enter	n/a
572.864	7.263	1145728	prompt	n/a	video indonesia further find\n
573.751	0.06	1147502	keystroke_v	v	n/a
573.856	0.075	1147712	keystroke_i	i	n/a
573.976	0.12	1147952	keystroke_d	d	n/a
574.036	0.15	1148072	keystroke_e	e	n/a
574.201	0.15	1148402	keystroke_o	o	n/a
574.336	0.075	1148672	keystroke_Key.space	Key.space	n/a
574.501	0.06	1149002	keystroke_i	i	n/a
574.726	0.045	1149452	keystroke_n	n	n/a
574.846	0.075	1149692	keystroke_d	d	n/a
575.056	0.06	1150112	keystroke_o	o	n/a
575.701	0.045	1151402	keystroke_n	n	n/a
575.776	0.075	1151552	keystroke_e	e	n/a
576.031	0.135	1152062	keystroke_s	s	n/a
576.255	0.061	1152510	keystroke_i	i	n/a
576.5405	0.09	1153081	keystroke_a	a	n/a
576.7655	0.075	1153531	keystroke_Key.space	Key.space	n/a
577.606	0.075	1155212	keystroke_f	f	n/a
577.756	0.06	1155512	keystroke_u	u	n/a
578.0255	0.075	1156051	keystroke_r	r	n/a
578.2055	0.06	1156411	keystroke_t	t	n/a
578.3255	0.075	1156651	keystroke_h	h	n/a
578.4155	0.12	1156831	keystroke_e	e	n/a
578.4905	0.135	1156981	keystroke_r	r	n/a
578.6705	0.075	1157341	keystroke_Key.space	Key.space	n/a
579.2855	0.06	1158571	keystroke_f	f	n/a
579.4955	0.045	1158991	keystroke_i	i	n/a
579.6455	0.075	1159291	keystroke_n	n	n/a
579.7355	0.105	1159471	keystroke_d	d	n/a
580.0355	0.09	1160071	keystroke_Key.enter	Key.enter	n/a
580.1315	8.0885	1160263	prompt	n/a	offerings relying consecutive wider\n
580.921	0.075	1161842	keystroke_o	o	n/a
581.1455	0.06	1162291	keystroke_f	f	n/a
581.2655	0.06	1162531	keystroke_f	f	n/a
581.4005	0.105	1162801	keystroke_e	e	n/a
581.4605	0.12	1162921	keystroke_r	r	n/a
581.821	0.059	1163642	keystroke_i	i	n/a
582.031	0.045	1164062	keystroke_n	n	n/a
582.121	0.09	1164242	keystroke_g	g	n/a
582.376	0.09	1164752	keystroke_s	s	n/a
582.585	0.076	1165170	keystroke_Key.space	Key.space	n/a
583.1705	0.105	1166341	keystroke_r	r	n/a
583.2455	0.105	1166491	keystroke_e	e	n/a
583.4855	0.045	1166971	keystroke_l	l	n/a
583.6955	0.075	1167391	keystroke_y	y	n/a
583.8305	0.06	1167661	keystroke_i	i	n/a
583.9965	0.059	1167993	keystroke_n	n	n/a
584.1005	0.075	1168201	keystroke_g	g	n/a
584.2055	0.075	1168411	keystroke_Key.space	Key.space	n/a
584.821	0.075	1169642	keystroke_c	c	n/a
584.926	0.12	1169852	keystroke_o	o	n/a
585.016	0.105	1170032	keystroke_n	n	n/a
585.226	0.075	1170452	keystroke_s	s	n/a
585.391	0.075	1170782	keystroke_e	e	n/a
585.616	0.06	1171232	keystroke_c	c	n/a
585.706	0.06	1171412	keystroke_u	u	n/a
585.901	0.029	1171802	keystroke_t	t	n/a
585.991	0.06	1171982	keystroke_i	i	n/a
586.215	0.046	1172430	keystroke_v	v	n/a
586.38	0.061	1172760	keystroke_e	e	n/a
586.53	0.06	1173060	keystroke_Key.space	Key.space	n/a
586.6805	0.12	1173361	keystroke_w	w	n/a
587.0255	0.075	1174051	keystroke_i	i	n/a
587.476	0.105	1174952	keystroke_d	d	n/a
587.551	0.12	1175102	keystroke_e	e	n/a
587.776	0.075	1175552	keystroke_r	r	n/a
588.136	0.075	1176272	keystroke_Key.enter	Key.enter	n/a
588.224	10.017	1176448	prompt	n/a	individual regulation magnificent surgery\n
588.946	0.06	1177892	keystroke_i	i	n/a
589.111	0.06	1178222	keystroke_n	n	n/a
589.216	0.105	1178432	keystroke_d	d	n/a
589.351	0.045	1178702	keystroke_i	i	n/a
589.786	0.075	1179572	keystroke_v	v	n/a
590.596	0.0595	1181192	keystroke_i	i	n/a
590.836	0.075	1181672	keystroke_d	d	n/a
591.046	0.06	1182092	keystroke_u	u	n/a
591.166	0.09	1182332	keystroke_a	a	n/a
591.286	0.1795	1182572	keystroke_l	l	n/a
591.4205	0.105	1182841	keystroke_Key.space	Key.space	n/a
591.8555	0.105	1183711	keystroke_r	r	n/a
591.9755	0.06	1183951	keystroke_e	e	n/a
592.2905	0.075	1184581	keystroke_g	g	n/a
592.4105	0.075	1184821	keystroke_u	u	n/a
592.6205	0.06	1185241	keystroke_l	l	n/a
592.6955	0.075	1185391	keystroke_a	a	n/a
592.9055	0.075	1185811	keystroke_t	t	n/a
592.9655	0.075	1185931	keystroke_i	i	n/a
593.0855	0.075	1186171	keystroke_o	o	n/a
593.2505	0.15	1186501	keystroke_n	n	n/a
593.6255	0.12	1187251	keystroke_Key.space	Key.space	n/a
594.5705	0.06	1189141	keystroke_m	m	n/a
594.675	0.0605	1189350	keystroke_a	a	n/a
594.9305	0.0895	1189861	keystroke_g	g	n/a
595.1705	0.015	1190341	keystroke_n	n	n/a
595.2305	0.0745	1190461	keystroke_i	i	n/a
595.3655	0.0605	1190731	keystroke_f	f	n/a
595.441	0.075	1190882	keystroke_i	i	n/a
595.846	0.09	1191692	keystroke_c	c	n/a
595.951	0.09	1191902	keystroke_e	e	n/a
596.086	0.105	1192172	keystroke_n	n	n/a
596.206	0.09	1192412	keystroke_t	t	n/a
596.341	0.075	1192682	keystroke_Key.space	Key.space	n/a
596.611	0.075	1193222	keystroke_s	s	n/a
596.926	0.06	1193852	keystroke_u	u	n/a
597.046	0.09	1194092	keystroke_r	r	n/a
597.241	0.06	1194482	keystroke_g	g	n/a
597.406	0.135	1194812	keystroke_e	e	n/a
597.526	0.09	1195052	keystroke_r	r	n/a
597.736	0.075	1195472	keystroke_y	y	n/a
598.156	0.075	1196312	keystroke_Key.enter	Key.enter	n/a
598.246	13.0735	1196492	prompt	n/a	talent prostate thumbs violation\n
599.101	0.06	1198202	keystroke_t	t	n/a
599.281	0.075	1198562	keystroke_a	a	n/a
599.401	0.075	1198802	keystroke_l	l	n/a
599.505	0.075	1199010	keystroke_e	e	n/a
599.73	0.075	1199460	keystroke_n	n	n/a
599.895	0.045	1199790	keystroke_t	t	n/a
600	0.105	1200000	keystroke_Key.space	Key.space	n/a
600.255	0.06	1200510	keystroke_p	p	n/a
600.7655	0.045	1201531	keystroke_r	r	n/a
600.9305	0.06	1201861	keystroke_o	o	n/a
601.2005	0.06	1202401	keystroke_s	s	n/a
601.3955	0.075	1202791	keystroke_t	t	n/a
601.5905	0.06	1203181	keystroke_a	a	n/a
601.7555	0.09	1203511	keystroke_t	t	n/a
601.8305	0.09	1203661	keystroke_e	e	n/a
602.1005	0.075	1204201	keystroke_Key.space	Key.space	n/a
602.431	0.06	1204862	keystroke_t	t	n/a
602.521	0.06	1205042	keystroke_h	h	n/a
602.8505	0.045	1205701	keystroke_u	u	n/a
603.0605	0.075	1206121	keystroke_m	m	n/a
603.2705	0.06	1206541	keystroke_b	b	n/a
603.3755	0.09	1206751	keystroke_s	s	n/a
603.6605	0.09	1207321	keystroke_Key.space	Key.space	n/a
603.8255	0.075	1207651	keystroke_v	v	n/a
603.9455	0.06	1207891	keystroke_i	i	n/a
604.1105	0.06	1208221	keystroke_o	o	n/a
604.38	0.0755	1208760	keystroke_e	e	n/a
605.6405	0.06	1211281	keystroke_Key.backspace	Key.backspace	n/a
606.0305	0.075	1212061	keystroke_l	l	n/a
606.1505	0.06	1212301	keystroke_e	e	n/a
606.3755	0.075	1212751	keystroke_n	n	n/a
606.5105	0.135	1213021	keystroke_c	c	n/a
606.6005	0.075	1213201	keystroke_e	e	n/a
608.22	0.06	1216440	keystroke_Key.backspace	Key.backspace	n/a
608.58	0.045	1217160	keystroke_Key.backspace	Key.backspace	n/a
608.91	0.06	1217820	keystroke_Key.backspace	Key.backspace	n/a
609.3	0.075	1218600	keystroke_Key.backspace	Key.backspace	n/a
609.946	0.074	1219892	keystroke_a	a	n/a
610.186	0.09	1220372	keystroke_t	t	n/a
610.306	0.06	1220612	keystroke_i	i	n/a
610.455	0.061	1220910	keystroke_o	o	n/a
610.605	0.075	1221210	keystroke_n	n	n/a
611.235	0.075	1222470	keystroke_Key.enter	Key.enter	n/a
611.3235	6.626	1222647	prompt	n/a	its parcel segment sight\n
612.3	0.06	1224600	keystroke_i	i	n/a
612.39	0.06	1224780	keystroke_t	t	n/a
612.555	0.075	1225110	keystroke_s	s	n/a
612.6905	0.045	1225381	keystroke_Key.space	Key.space	n/a
612.8405	0.075	1225681	keystroke_p	p	n/a
612.9005	0.09	1225801	keystroke_a	a	n/a
613.0205	0.09	1226041	keystroke_r	r	n/a
613.396	0.12	1226792	keystroke_c	c	n/a
613.471	0.12	1226942	keystroke_e	e	n/a
613.636	0.09	1227272	keystroke_l	l	n/a
613.891	0.12	1227782	keystroke_Key.space	Key.space	n/a
614.341	0.045	1228682	keystroke_d	d	n/a
615.436	0.045	1230872	keystroke_Key.backspace	Key.backspace	n/a
615.616	0.045	1231232	keystroke_s	s	n/a
615.796	0.06	1231592	keystroke_e	e	n/a
615.99	0.091	1231980	keystroke_g	g	n/a
616.185	0.09	1232370	keystroke_m	m	n/a
616.29	0.061	1232580	keystroke_e	e	n/a
616.38	0.061	1232760	keystroke_n	n	n/a
616.456	0.074	1232912	keystroke_t	t	n/a
616.635	0.0605	1233270	keystroke_Key.space	Key.space	n/a
617.1305	0.075	1234261	keystroke_s	s	n/a
617.2355	0.06	1234471	keystroke_i	i	n/a
617.3855	0.06	1234771	keystroke_g	g	n/a
617.4605	0.075	1234921	keystroke_h	h	n/a
617.5505	0.075	1235101	keystroke_t	t	n/a
617.8655	0.075	1235731	keystroke_Key.enter	Key.enter	n/a
617.9535	8.2685	1235907	prompt	n/a	jackets councils morning webmasters\n
619.0805	0.045	1238161	keystroke_j	j	n/a
619.1555	0.075	1238311	keystroke_a	a	n/a
619.3355	0.09	1238671	keystroke_c	c	n/a
619.4705	0.06	1238941	keystroke_k	k	n/a
619.5905	0.075	1239181	keystroke_e	e	n/a
619.8005	0.06	1239601	keystroke_t	t	n/a
619.935	0.0905	1239870	keystroke_s	s	n/a
620.1005	0.09	1240201	keystroke_Key.space	Key.space	n/a
620.4155	0.09	1240831	keystroke_c	c	n/a
620.565	0.0605	1241130	keystroke_o	o	n/a
620.7305	0.075	1241461	keystroke_u	u	n/a
620.9255	0.06	1241851	keystroke_n	n	n/a
621.0005	0.12	1242001	keystroke_c	c	n/a
621.1355	0.075	1242271	keystroke_i	i	n/a
621.3305	0.06	1242661	keystroke_l	l	n/a
621.4355	0.09	1242871	keystroke_s	s	n/a
621.6005	0.075	1243201	keystroke_Key.space	Key.space	n/a
621.9155	0.075	1243831	keystroke_m	m	n/a
622.0805	0.06	1244161	keystroke_o	o	n/a
622.2155	0.0605	1244431	keystroke_r	r	n/a
622.3655	0.075	1244731	keystroke_n	n	n/a
622.5005	0.045	1245001	keystroke_i	i	n/a
622.6055	0.09	1245211	keystroke_n	n	n/a
622.6955	0.09	1245391	keystroke_g	g	n/a
622.8305	0.09	1245661	keystroke_Key.space	Key.space	n/a
623.5955	0.1345	1247191	keystroke_w	w	n/a
623.685	0.135	1247370	keystroke_e	e	n/a
623.91	0.075	1247820	keystroke_b	b	n/a
624.2255	0.075	1248451	keystroke_m	m	n/a
624.3305	0.09	1248661	keystroke_a	a	n/a
624.3755	0.12	1248751	keystroke_s	s	n/a
624.6455	0.0595	1249291	keystroke_t	t	n/a
624.795	0.105	1249590	keystroke_e	e	n/a
624.855	0.135	1249710	keystroke_r	r	n/a
625.29	0.075	1250580	keystroke_s	s	n/a
626.16	0.06	1252320	keystroke_Key.enter	Key.enter	n/a
626.225	7.3415	1252450	prompt	n/a	unlikely acrobat needed parent\n
627.1655	0.045	1254331	keystroke_u	u	n/a
627.3005	0.075	1254601	keystroke_n	n	n/a
627.5255	0.045	1255051	keystroke_l	l	n/a
627.6905	0.06	1255381	keystroke_i	i	n/a
627.8405	0.075	1255681	keystroke_k	k	n/a
627.9455	0.06	1255891	keystroke_e	e	n/a
628.0655	0.06	1256131	keystroke_l	l	n/a
628.3055	0.12	1256611	keystroke_y	y	n/a
628.3805	0.15	1256761	keystroke_Key.space	Key.space	n/a
628.95	0.075	1257900	keystroke_a	a	n/a
629.19	0.045	1258380	keystroke_c	c	n/a
629.355	0.075	1258710	keystroke_r	r	n/a
629.7455	0.075	1259491	keystroke_o	o	n/a
629.9705	0.075	1259941	keystroke_b	b	n/a
630.0905	0.075	1260181	keystroke_a	a	n/a
630.4055	0.045	1260811	keystroke_t	t	n/a
630.5555	0.09	1261111	keystroke_Key.space	Key.space	n/a
631.051	0.045	1262102	keystroke_n	n	n/a
631.11	0.076	1262220	keystroke_e	e	n/a
631.261	0.15	1262522	keystroke_e	e	n/a
631.396	0.134	1262792	keystroke_d	d	n/a
631.576	0.075	1263152	keystroke_e	e	n/a
631.636	0.105	1263272	keystroke_d	d	n/a
631.801	0.089	1263602	keystroke_Key.space	Key.space	n/a
632.505	0.075	1265010	keystroke_p	p	n/a
632.61	0.075	1265220	keystroke_a	a	n/a
632.79	0.075	1265580	keystroke_r	r	n/a
632.9705	0.075	1265941	keystroke_e	e	n/a
633.1205	0.075	1266241	keystroke_n	n	n/a
633.2105	0.075	1266421	keystroke_t	t	n/a
633.4955	0.06	1266991	keystroke_Key.enter	Key.enter	n/a
633.5705	8.2295	1267141	prompt	n/a	plate richard began hist\n
634.5605	0.1045	1269121	keystroke_p	p	n/a
634.6205	0.1045	1269241	keystroke_l	l	n/a
634.77	0.075	1269540	keystroke_a	a	n/a
635.056	0.09	1270112	keystroke_t	t	n/a
635.131	0.09	1270262	keystroke_e	e	n/a
635.311	0.09	1270622	keystroke_Key.space	Key.space	n/a
635.476	0.075	1270952	keystroke_r	r	n/a
635.581	0.074	1271162	keystroke_i	i	n/a
635.866	0.09	1271732	keystroke_c	c	n/a
636.001	0.075	1272002	keystroke_h	h	n/a
636.106	0.09	1272212	keystroke_a	a	n/a
636.271	0.06	1272542	keystroke_r	r	n/a
636.451	0.105	1272902	keystroke_d	d	n/a
636.616	0.0895	1273232	keystroke_Key.space	Key.space	n/a
637.0505	0.06	1274101	keystroke_b	b	n/a
637.1405	0.0755	1274281	keystroke_e	e	n/a
637.38	0.075	1274760	keystroke_g	g	n/a
637.531	0.075	1275062	keystroke_a	a	n/a
637.6655	0.135	1275331	keystroke_n	n	n/a
637.7705	0.105	1275541	keystroke_Key.space	Key.space	n/a
637.9805	0.0745	1275961	keystroke_h	h	n/a
638.1755	0.0595	1276351	keystroke_i	i	n/a
638.6555	0.075	1277311	keystroke_s	s	n/a
638.9855	0.075	1277971	keystroke_t	t	n/a
639.9755	0.06	1279951	keystroke_'	'	n/a
641.1455	0.09	1282291	keystroke_Key.backspace	Key.backspace	n/a
641.7305	0.0595	1283461	keystroke_Key.enter	Key.enter	n/a
641.8035	6.3335	1283607	prompt	n/a	world lions equally parker\n
642.7505	0.12	1285501	keystroke_w	w	n/a
642.8855	0.075	1285771	keystroke_o	o	n/a
643.111	0.06	1286222	keystroke_r	r	n/a
643.231	0.06	1286462	keystroke_l	l	n/a
643.321	0.105	1286642	keystroke_d	d	n/a
643.456	0.09	1286912	keystroke_Key.space	Key.space	n/a
643.651	0.075	1287302	keystroke_l	l	n/a
643.801	0.075	1287602	keystroke_i	i	n/a
643.951	0.09	1287902	keystroke_o	o	n/a
644.146	0.09	1288292	keystroke_n	n	n/a
644.251	0.0895	1288502	keystroke_s	s	n/a
644.3855	0.075	1288771	keystroke_Key.space	Key.space	n/a
644.6255	0.06	1289251	keystroke_e	e	n/a
645.4955	0.09	1290991	keystroke_q	q	n/a
645.6755	0.06	1291351	keystroke_u	u	n/a
645.9005	0.075	1291801	keystroke_a	a	n/a
646.0355	0.045	1292071	keystroke_l	l	n/a
646.1705	0.06	1292341	keystroke_l	l	n/a
646.3655	0.15	1292731	keystroke_y	y	n/a
646.4405	0.15	1292881	keystroke_Key.space	Key.space	n/a
646.7405	0.075	1293481	keystroke_p	p	n/a
646.8605	0.09	1293721	keystroke_a	a	n/a
647.2655	0.075	1294531	keystroke_r	r	n/a
647.5055	0.075	1295011	keystroke_k	k	n/a
647.5955	0.135	1295191	keystroke_e	e	n/a
647.6855	0.135	1295371	keystroke_r	r	n/a
648.0755	0.06	1296151	keystroke_Key.enter	Key.enter	n/a
648.1395	8.512	1296279	prompt	n/a	driver various retired myself\n
649.1855	0.075	1298371	keystroke_d	d	n/a
649.3355	0.09	1298671	keystroke_r	r	n/a
649.4555	0.09	1298911	keystroke_i	i	n/a
649.5605	0.09	1299121	keystroke_v	v	n/a
649.7405	0.12	1299481	keystroke_e	e	n/a
649.8605	0.12	1299721	keystroke_r	r	n/a
650.0555	0.09	1300111	keystroke_Key.space	Key.space	n/a
650.416	0.089	1300832	keystroke_c	c	n/a
650.9405	0.045	1301881	keystroke_v	v	n/a
651.675	0.06	1303350	keystroke_Key.backspace	Key.backspace	n/a
651.945	0.06	1303890	keystroke_Key.backspace	Key.backspace	n/a
652.125	0.075	1304250	keystroke_v	v	n/a
652.32	0.09	1304640	keystroke_a	a	n/a
652.8	0.06	1305600	keystroke_r	r	n/a
652.995	0.03	1305990	keystroke_i	i	n/a
653.13	0.06	1306260	keystroke_o	o	n/a
653.31	0.045	1306620	keystroke_u	u	n/a
653.385	0.09	1306770	keystroke_s	s	n/a
653.49	0.105	1306980	keystroke_Key.space	Key.space	n/a
654.0605	0.12	1308121	keystroke_r	r	n/a
654.1355	0.12	1308271	keystroke_e	e	n/a
