onset	duration	sample	value	key	prompt_text
4.462	16.213	8924	prompt	n/a	the quick brown fox jumps over a lazy dog\n
6.132	0.001	12264	keystroke_t	t	n/a
6.16	0.12	12320	keystroke_h	h	n/a
6.325	0.135	12650	keystroke_e	e	n/a
6.49	0.135	12980	keystroke_Key.space	Key.space	n/a
7.12	0.165	14240	keystroke_Key.caps_lock	Key.caps_lock	n/a
8.2595	0.0605	16519	keystroke_Key.backspace	Key.backspace	n/a
8.425	0.075	16850	keystroke_Key.backspace	Key.backspace	n/a
8.62	0.06	17240	keystroke_Key.backspace	Key.backspace	n/a
8.8	0.06	17600	keystroke_Key.backspace	Key.backspace	n/a
8.98	0.075	17960	keystroke_Key.backspace	Key.backspace	n/a
9.235	0.105	18470	keystroke_t	t	n/a
9.355	0.09	18710	keystroke_h	h	n/a
9.52	0.1505	19040	keystroke_e	e	n/a
9.6555	0.12	19311	keystroke_Key.space	Key.space	n/a
10.2105	0.1645	20421	keystroke_q	q	n/a
10.795	0.105	21590	keystroke_i	i	n/a
11.14	0.15	22280	keystroke_c	c	n/a
11.305	0.075	22610	keystroke_k	k	n/a
11.77	0.06	23540	keystroke_Key.backspace	Key.backspace	n/a
12.115	0.075	24230	keystroke_Key.backspace	Key.backspace	n/a
12.31	0.09	24620	keystroke_Key.backspace	Key.backspace	n/a
12.565	0.105	25130	keystroke_u	u	n/a
12.805	0.105	25610	keystroke_i	i	n/a
13.03	0.15	26060	keystroke_c	c	n/a
13.195	0.0895	26390	keystroke_k	k	n/a
13.4195	0.09	26839	keystroke_Key.space	Key.space	n/a
13.8095	0.075	27619	keystroke_b	b	n/a
14.035	0.135	28070	keystroke_r	r	n/a
14.14	0.15	28280	keystroke_o	o	n/a
14.275	0.135	28550	keystroke_w	w	n/a
14.455	0.165	28910	keystroke_n	n	n/a
14.575	0.135	29150	keystroke_Key.space	Key.space	n/a
14.875	0.135	29750	keystroke_f	f	n/a
15.22	0.09	30440	keystroke_o	o	n/a
15.865	0.135	31730	keystroke_x	x	n/a
16.3	0.09	32600	keystroke_Key.space	Key.space	n/a
16.675	0.015	33350	keystroke_j	j	n/a
16.75	0.12	33500	keystroke_u	u	n/a
17.02	0.105	34040	keystroke_m	m	n/a
17.14	0.105	34280	keystroke_p	p	n/a
17.365	0.15	34730	keystroke_s	s	n/a
17.515	0.105	35030	keystroke_Key.space	Key.space	n/a
17.65	0.135	35300	keystroke_o	o	n/a
17.875	0.105	35750	keystroke_v	v	n/a
18.115	0.21	36230	keystroke_e	e	n/a
18.28	0.105	36560	keystroke_r	r	n/a
18.4005	0.1345	36801	keystroke_Key.space	Key.space	n/a
18.67	0.12	37340	keystroke_a	a	n/a
18.76	0.105	37520	keystroke_Key.space	Key.space	n/a
19	0.12	38000	keystroke_l	l	n/a
19.09	0.135	38180	keystroke_a	a	n/a
19.3905	0.12	38781	keystroke_z	z	n/a
19.5555	0.15	39111	keystroke_y	y	n/a
19.6755	0.105	39351	keystroke_Key.space	Key.space	n/a
20.0505	0.15	40101	keystroke_d	d	n/a
20.1705	0.134	40341	keystroke_o	o	n/a
20.3955	0.119	40791	keystroke_g	g	n/a
20.5895	0.075	41179	keystroke_Key.enter	Key.enter	n/a
20.6805	8.746	41361	prompt	n/a	chip affect secretary recovery\n
21.6255	0.119	43251	keystroke_c	c	n/a
21.7295	0.211	43459	keystroke_h	h	n/a
21.8345	0.12	43669	keystroke_i	i	n/a
22.5995	0.121	45199	keystroke_p	p	n/a
23.0345	0.12	46069	keystroke_Key.space	Key.space	n/a
23.4245	0.136	46849	keystroke_a	a	n/a
23.6495	0.06	47299	keystroke_d	d	n/a
24.0695	0.075	48139	keystroke_Key.backspace	Key.backspace	n/a
24.1605	0.0895	48321	keystroke_f	f	n/a
24.3545	0.165	48709	keystroke_f	f	n/a
24.4745	0.121	48949	keystroke_e	e	n/a
24.7595	0.135	49519	keystroke_c	c	n/a
25.0445	0.135	50089	keystroke_t	t	n/a
25.2545	0.09	50509	keystroke_Key.space	Key.space	n/a
25.4495	0.135	50899	keystroke_s	s	n/a
25.5545	0.15	51109	keystroke_e	e	n/a
25.8995	0.12	51799	keystroke_c	c	n/a
26.1545	0.12	52309	keystroke_r	r	n/a
26.2445	0.136	52489	keystroke_e	e	n/a
26.4545	0.15	52909	keystroke_t	t	n/a
26.6195	0.09	53239	keystroke_a	a	n/a
26.9795	0.106	53959	keystroke_r	r	n/a
27.2195	0.105	54439	keystroke_y	y	n/a
27.5495	0.105	55099	keystroke_Key.space	Key.space	n/a
27.8195	0.105	55639	keystroke_r	r	n/a
27.8795	0.105	55759	keystroke_e	e	n/a
28.1505	0.15	56301	keystroke_c	c	n/a
28.3305	0.15	56661	keystroke_o	o	n/a
28.6005	0.105	57201	keystroke_v	v	n/a
28.7655	0.21	57531	keystroke_e	e	n/a
28.9005	0.15	57801	keystroke_r	r	n/a
29.0655	0.105	58131	keystroke_y	y	n/a
29.3195	0.106	58639	keystroke_Key.enter	Key.enter	n/a
29.4295	7.182	58859	prompt	n/a	ascii perl slot edmonton\n
30.0545	0.12	60109	keystroke_a	a	n/a
30.5955	0.134	61191	keystroke_s	s	n/a
30.9095	0.135	61819	keystroke_c	c	n/a
31.1645	0.105	62329	keystroke_i	i	n/a
31.3895	0.165	62779	keystroke_i	i	n/a
31.5095	0.105	63019	keystroke_Key.space	Key.space	n/a
31.7045	0.121	63409	keystroke_p	p	n/a
31.8545	0.195	63709	keystroke_e	e	n/a
31.9905	0.149	63981	keystroke_r	r	n/a
32.2605	0.164	64521	keystroke_l	l	n/a
32.3945	0.12	64789	keystroke_Key.space	Key.space	n/a
32.6495	0.15	65299	keystroke_s	s	n/a
33.5345	0.045	67069	keystroke_l	l	n/a
33.8945	0.09	67789	keystroke_o	o	n/a
34.1645	0.09	68329	keystroke_t	t	n/a
34.4795	0.135	68959	keystroke_Key.space	Key.space	n/a
34.8545	0.12	69709	keystroke_e	e	n/a
35.1545	0.12	70309	keystroke_d	d	n/a
35.4695	0.165	70939	keystroke_m	m	n/a
35.5895	0.1955	71179	keystroke_o	o	n/a
35.77	0.151	71540	keystroke_n	n	n/a
35.905	0.12	71810	keystroke_t	t	n/a
36.01	0.135	72020	keystroke_o	o	n/a
36.265	0.105	72530	keystroke_n	n	n/a
36.49	0.12	72980	keystroke_Key.enter	Key.enter	n/a
36.6145	8.322	73229	prompt	n/a	default strips warning increasing\n
37.33	0.135	74660	keystroke_d	d	n/a
37.6	0.105	75200	keystroke_e	e	n/a
37.855	0.09	75710	keystroke_r	r	n/a
38.2	0.09	76400	keystroke_Key.backspace	Key.backspace	n/a
38.275	0.165	76550	keystroke_f	f	n/a
38.455	0.105	76910	keystroke_a	a	n/a
38.605	0.12	77210	keystroke_u	u	n/a
38.995	0.105	77990	keystroke_l	l	n/a
39.19	0.12	78380	keystroke_t	t	n/a
39.355	0.09	78710	keystroke_Key.space	Key.space	n/a
39.535	0.135	79070	keystroke_s	s	n/a
39.805	0.105	79610	keystroke_t	t	n/a
40.03	0.105	80060	keystroke_r	r	n/a
40.18	0.12	80360	keystroke_i	i	n/a
40.42	0.09	80840	keystroke_p	p	n/a
40.6	0.12	81200	keystroke_s	s	n/a
40.7505	0.1045	81501	keystroke_Key.space	Key.space	n/a
41.35	0.15	82700	keystroke_w	w	n/a
41.395	0.15	82790	keystroke_a	a	n/a
41.53	0.09	83060	keystroke_r	r	n/a
41.755	0.15	83510	keystroke_n	n	n/a
41.875	0.21	83750	keystroke_i	i	n/a
42.01	0.12	84020	keystroke_n	n	n/a
42.505	0.12	85010	keystroke_g	g	n/a
42.7	0.105	85400	keystroke_Key.space	Key.space	n/a
42.94	0.18	85880	keystroke_i	i	n/a
43.075	0.15	86150	keystroke_n	n	n/a
43.3	0.105	86600	keystroke_c	c	n/a
43.555	0.15	87110	keystroke_r	r	n/a
43.63	0.135	87260	keystroke_e	e	n/a
43.87	0.165	87740	keystroke_a	a	n/a
44.095	0.105	88190	keystroke_s	s	n/a
44.365	0.135	88730	keystroke_i	i	n/a
44.545	0.15	89090	keystroke_n	n	n/a
44.68	0.12	89360	keystroke_g	g	n/a
44.83	0.105	89660	keystroke_Key.enter	Key.enter	n/a
44.9395	8.4425	89879	prompt	n/a	yamaha decor presents factors\n
45.595	0.15	91190	keystroke_y	y	n/a
45.76	0.135	91520	keystroke_a	a	n/a
46	0.135	92000	keystroke_m	m	n/a
46.225	0.105	92450	keystroke_a	a	n/a
46.495	0.105	92990	keystroke_h	h	n/a
47.14	0.12	94280	keystroke_a	a	n/a
47.38	0.09	94760	keystroke_Key.space	Key.space	n/a
47.59	0.12	95180	keystroke_d	d	n/a
47.8	0.105	95600	keystroke_e	e	n/a
48.04	0.15	96080	keystroke_c	c	n/a
48.16	0.135	96320	keystroke_o	o	n/a
48.34	0.12	96680	keystroke_r	r	n/a
48.895	0.105	97790	keystroke_Key.space	Key.space	n/a
49.42	0.09	98840	keystroke_p	p	n/a
49.54	0.135	99080	keystroke_r	r	n/a
49.615	0.135	99230	keystroke_e	e	n/a
49.87	0.135	99740	keystroke_s	s	n/a
50.05	0.12	100100	keystroke_e	e	n/a
50.185	0.12	100370	keystroke_n	n	n/a
50.29	0.105	100580	keystroke_t	t	n/a
50.53	0.12	101060	keystroke_s	s	n/a
50.74	0.105	101480	keystroke_Key.space	Key.space	n/a
51.025	0.165	102050	keystroke_f	f	n/a
51.175	0.135	102350	keystroke_a	a	n/a
51.43	0.12	102860	keystroke_c	c	n/a
51.79	0.12	103580	keystroke_t	t	n/a
52.03	0.1205	104060	keystroke_o	o	n/a
52.1805	0.135	104361	keystroke_s	s	n/a
52.5405	0.09	105081	keystroke_Key.backspace	Key.backspace	n/a
52.6305	0.12	105261	keystroke_r	r	n/a
52.8705	0.12	105741	keystroke_s	s	n/a
53.2755	0.105	106551	keystroke_Key.enter	Key.enter	n/a
53.3855	7.4285	106771	prompt	n/a	honda align yields font\n
54.1155	0.134	108231	keystroke_h	h	n/a
54.2505	0.15	108501	keystroke_o	o	n/a
54.5055	0.12	109011	keystroke_n	n	n/a
54.6405	0.135	109281	keystroke_d	d	n/a
54.8645	0.12	109729	keystroke_a	a	n/a
55.2845	0.12	110569	keystroke_Key.space	Key.space	n/a
55.7495	0.091	111499	keystroke_a	a	n/a
55.8695	0.225	111739	keystroke_l	l	n/a
56.0345	0.12	112069	keystroke_i	i	n/a
56.3495	0.135	112699	keystroke_g	g	n/a
56.5295	0.105	113059	keystroke_n	n	n/a
56.9645	0.09	113929	keystroke_Key.space	Key.space	n/a
57.2945	0.121	114589	keystroke_y	y	n/a
57.5795	0.06	115159	keystroke_i	i	n/a
57.9545	0.121	115909	keystroke_e	e	n/a
58.315	0.12	116630	keystroke_l	l	n/a
58.51	0.135	117020	keystroke_d	d	n/a
58.75	0.12	117500	keystroke_s	s	n/a
58.855	0.105	117710	keystroke_Key.space	Key.space	n/a
59.08	0.135	118160	keystroke_f	f	n/a
59.215	0.15	118430	keystroke_o	o	n/a
59.4255	0.075	118851	keystroke_r	r	n/a
59.7405	0.09	119481	keystroke_Key.backspace	Key.backspace	n/a
60.0105	0.135	120021	keystroke_n	n	n/a
60.1605	0.15	120321	keystroke_t	t	n/a
60.6705	0.1345	121341	keystroke_Key.enter	Key.enter	n/a
60.818	7.594	121636	prompt	n/a	congo gilbert munich sequence\n
61.75	0.105	123500	keystroke_c	c	n/a
61.795	0.135	123590	keystroke_o	o	n/a
61.96	0.135	123920	keystroke_n	n	n/a
62.11	0.165	124220	keystroke_g	g	n/a
62.29	0.135	124580	keystroke_o	o	n/a
62.53	0.105	125060	keystroke_Key.space	Key.space	n/a
62.845	0.15	125690	keystroke_g	g	n/a
62.95	0.105	125900	keystroke_i	i	n/a
63.19	0.09	126380	keystroke_l	l	n/a
63.34	0.105	126680	keystroke_b	b	n/a
63.595	0.135	127190	keystroke_e	e	n/a
63.655	0.12	127310	keystroke_r	r	n/a
63.895	0.105	127790	keystroke_t	t	n/a
64.135	0.105	128270	keystroke_Key.space	Key.space	n/a
64.285	0.105	128570	keystroke_n	n	n/a
64.6	0.09	129200	keystroke_Key.backspace	Key.backspace	n/a
64.87	0.12	129740	keystroke_m	m	n/a
65.14	0.105	130280	keystroke_u	u	n/a
65.38	0.18	130760	keystroke_n	n	n/a
65.47	0.12	130940	keystroke_i	i	n/a
65.7255	0.1645	131451	keystroke_c	c	n/a
65.875	0.18	131750	keystroke_h	h	n/a
66.04	0.12	132080	keystroke_Key.space	Key.space	n/a
66.295	0.195	132590	keystroke_s	s	n/a
66.43	0.12	132860	keystroke_e	e	n/a
66.685	0.135	133370	keystroke_q	q	n/a
66.865	0.15	133730	keystroke_u	u	n/a
67.21	0.06	134420	keystroke_e	e	n/a
67.6	0.135	135200	keystroke_n	n	n/a
67.765	0.12	135530	keystroke_c	c	n/a
68.05	0.12	136100	keystroke_e	e	n/a
68.29	0.12	136580	keystroke_Key.enter	Key.enter	n/a
68.4165	7.0975	136833	prompt	n/a	struggle tunes bunch herself\n
69.0995	0.15	138199	keystroke_s	s	n/a
69.2645	0.105	138529	keystroke_t	t	n/a
69.475	0.1195	138950	keystroke_r	r	n/a
69.6845	0.105	139369	keystroke_u	u	n/a
69.8795	0.105	139759	keystroke_g	g	n/a
70.075	0.105	140150	keystroke_g	g	n/a
70.2405	0.12	140481	keystroke_l	l	n/a
70.3455	0.135	140691	keystroke_e	e	n/a
70.5555	0.105	141111	keystroke_Key.space	Key.space	n/a
70.8705	0.134	141741	keystroke_t	t	n/a
71.0495	0.105	142099	keystroke_u	u	n/a
71.3345	0.106	142669	keystroke_n	n	n/a
71.7695	0.12	143539	keystroke_e	e	n/a
72.0555	0.134	144111	keystroke_s	s	n/a
72.3395	0.12	144679	keystroke_Key.space	Key.space	n/a
72.625	0.15	145250	keystroke_b	b	n/a
72.76	0.105	145520	keystroke_u	u	n/a
73.015	0.12	146030	keystroke_n	n	n/a
73.36	0.135	146720	keystroke_c	c	n/a
73.51	0.135	147020	keystroke_h	h	n/a
73.645	0.12	147290	keystroke_Key.space	Key.space	n/a
73.885	0.12	147770	keystroke_h	h	n/a
73.975	0.24	147950	keystroke_e	e	n/a
74.2	0.12	148400	keystroke_r	r	n/a
74.59	0.165	149180	keystroke_s	s	n/a
74.74	0.135	149480	keystroke_e	e	n/a
74.92	0.135	149840	keystroke_l	l	n/a
75.07	0.15	150140	keystroke_f	f	n/a
75.37	0.135	150740	keystroke_Key.enter	Key.enter	n/a
75.5225	9.366	151045	prompt	n/a	preparation lightweight cardiff may\n
76.2245	0.09	152449	keystroke_p	p	n/a
76.3445	0.1805	152689	keystroke_r	r	n/a
76.4645	0.18	152929	keystroke_e	e	n/a
76.7195	0.105	153439	keystroke_p	p	n/a
76.8695	0.15	153739	keystroke_a	a	n/a
76.9895	0.12	153979	keystroke_r	r	n/a
77.2295	0.15	154459	keystroke_a	a	n/a
77.3645	0.18	154729	keystroke_t	t	n/a
77.4695	0.285	154939	keystroke_i	i	n/a
77.5895	0.18	155179	keystroke_o	o	n/a
77.7245	0.225	155449	keystroke_n	n	n/a
77.9345	0.135	155869	keystroke_Key.space	Key.space	n/a
78.0995	0.165	156199	keystroke_l	l	n/a
78.2195	0.12	156439	keystroke_i	i	n/a
78.3995	0.15	156799	keystroke_g	g	n/a
78.5045	0.12	157009	keystroke_h	h	n/a
78.6695	0.135	157339	keystroke_t	t	n/a
78.9545	0.1805	157909	keystroke_w	w	n/a
79.18	0.045	158360	keystroke_i	i	n/a
79.57	0.09	159140	keystroke_Key.backspace	Key.backspace	n/a
79.675	0.165	159350	keystroke_e	e	n/a
80.185	0.105	160370	keystroke_i	i	n/a
80.41	0.135	160820	keystroke_g	g	n/a
80.53	0.09	161060	keystroke_h	h	n/a
80.695	0.135	161390	keystroke_t	t	n/a
80.965	0.12	161930	keystroke_Key.space	Key.space	n/a
81.4455	0.149	162891	keystroke_c	c	n/a
81.6545	0.18	163309	keystroke_a	a	n/a
81.8645	0.136	163729	keystroke_r	r	n/a
82.1345	0.151	164269	keystroke_d	d	n/a
82.4795	0.12	164959	keystroke_i	i	n/a
82.6605	0.149	165321	keystroke_f	f	n/a
82.8995	0.15	165799	keystroke_f	f	n/a
83.44	0.12	166880	keystroke_Key.space	Key.space	n/a
83.875	0.15	167750	keystroke_m	m	n/a
83.995	0.135	167990	keystroke_a	a	n/a
84.22	0.105	168440	keystroke_y	y	n/a
84.79	0.09	169580	keystroke_Key.enter	Key.enter	n/a
84.8925	13.7815	169785	prompt	n/a	legislature past nonprofit trauma\n
85.54	0.105	171080	keystroke_l	l	n/a
85.645	0.135	171290	keystroke_e	e	n/a
85.87	0.135	171740	keystroke_g	g	n/a
85.975	0.12	171950	keystroke_i	i	n/a
86.14	0.1355	172280	keystroke_s	s	n/a
86.2905	0.09	172581	keystroke_t	t	n/a
86.8905	0.12	173781	keystroke_l	l	n/a
87.7145	0.18	175429	keystroke_a	a	n/a
87.8645	0.135	175729	keystroke_t	t	n/a
88.0905	0.314	176181	keystroke_i	i	n/a
88.2245	0.165	176449	keystroke_o	o	n/a
88.3445	0.105	176689	keystroke_n	n	n/a
88.8245	0.075	177649	keystroke_Key.backspace	Key.backspace	n/a
88.9895	0.105	177979	keystroke_Key.backspace	Key.backspace	n/a
89.3795	0.06	178759	keystroke_Key.backspace	Key.backspace	n/a
89.62	0.0745	179240	keystroke_u	u	n/a
90.0995	0.196	180199	keystroke_r	r	n/a
90.2345	0.121	180469	keystroke_e	e	n/a
93.0275	0.057	186055	keystroke_Key.space	Key.space	n/a
93.3705	0.09	186741	keystroke_p	p	n/a
93.5205	0.255	187041	keystroke_a	a	n/a
93.7145	0.181	187429	keystroke_s	s	n/a
93.9255	0.149	187851	keystroke_t	t	n/a
94.2095	0.12	188419	keystroke_Key.space	Key.space	n/a
94.5555	0.179	189111	keystroke_n	n	n/a
94.7195	0.18	189439	keystroke_o	o	n/a
94.9295	0.135	189859	keystroke_n	n	n/a
95.1545	0.09	190309	keystroke_p	p	n/a
95.2745	0.136	190549	keystroke_r	r	n/a
95.3955	0.119	190791	keystroke_o	o	n/a
95.6795	0.151	191359	keystroke_f	f	n/a
95.8145	0.135	191629	keystroke_i	i	n/a
96.0545	0.151	192109	keystroke_t	t	n/a
96.2645	0.135	192529	keystroke_Key.space	Key.space	n/a
96.5805	0.119	193161	keystroke_t	t	n/a
96.8045	0.12	193609	keystroke_r	r	n/a
97.0595	0.12	194119	keystroke_u	u	n/a
97.5095	0.105	195019	keystroke_Key.backspace	Key.backspace	n/a
97.6755	0.179	195351	keystroke_a	a	n/a
97.8695	0.135	195739	keystroke_u	u	n/a
98.1845	0.135	196369	keystroke_m	m	n/a
98.3045	0.135	196609	keystroke_a	a	n/a
98.5745	0.09	197149	keystroke_Key.enter	Key.enter	n/a
98.6785	5.538	197357	prompt	n/a	ballet trust brothers rover\n
99.3395	0.165	198679	keystroke_b	b	n/a
99.4905	0.134	198981	keystroke_a	a	n/a
99.6545	0.105	199309	keystroke_l	l	n/a
99.8495	0.135	199699	keystroke_l	l	n/a
99.9095	0.225	199819	keystroke_e	e	n/a
100.0745	0.18	200149	keystroke_t	t	n/a
100.2395	0.12	200479	keystroke_Key.space	Key.space	n/a
100.3895	0.12	200779	keystroke_t	t	n/a
100.5845	0.15	201169	keystroke_r	r	n/a
100.7195	0.135	201439	keystroke_u	u	n/a
100.9295	0.18	201859	keystroke_s	s	n/a
101.0505	0.179	202101	keystroke_t	t	n/a
101.2445	0.105	202489	keystroke_Key.space	Key.space	n/a
101.4695	0.105	202939	keystroke_b	b	n/a
101.6795	0.15	203359	keystroke_r	r	n/a
101.7845	0.105	203569	keystroke_o	o	n/a
102.0545	0.135	204109	keystroke_t	t	n/a
102.1595	0.105	204319	keystroke_h	h	n/a
102.2945	0.18	204589	keystroke_e	e	n/a
102.3995	0.1355	204799	keystroke_r	r	n/a
102.6245	0.165	205249	keystroke_s	s	n/a
102.7745	0.09	205549	keystroke_Key.space	Key.space	n/a
103.0595	0.12	206119	keystroke_r	r	n/a
103.1495	0.075	206299	keystroke_o	o	n/a
103.3445	0.15	206689	keystroke_v	v	n/a
103.4955	0.194	206991	keystroke_e	e	n/a
103.6445	0.15	207289	keystroke_r	r	n/a
104.0645	0.15	208129	keystroke_Key.enter	Key.enter	n/a
104.219	8.1645	208438	prompt	n/a	manual monkey swim boutique\n
104.8895	0.12	209779	keystroke_m	m	n/a
104.9945	0.15	209989	keystroke_a	a	n/a
105.1895	0.06	210379	keystroke_u	u	n/a
105.5345	0.075	211069	keystroke_Key.backspace	Key.backspace	n/a
105.7595	0.12	211519	keystroke_n	n	n/a
105.9995	0.1355	211999	keystroke_u	u	n/a
106.1795	0.12	212359	keystroke_a	a	n/a
106.4645	0.12	212929	keystroke_l	l	n/a
106.7345	0.09	213469	keystroke_Key.space	Key.space	n/a
107.0645	0.165	214129	keystroke_m	m	n/a
107.1845	0.135	214369	keystroke_o	o	n/a
107.3645	0.105	214729	keystroke_n	n	n/a
107.5595	0.12	215119	keystroke_k	k	n/a
107.7695	0.15	215539	keystroke_e	e	n/a
108.0095	0.12	216019	keystroke_y	y	n/a
108.1445	0.135	216289	keystroke_Key.space	Key.space	n/a
108.3845	0.12	216769	keystroke_s	s	n/a
108.6245	0.15	217249	keystroke_w	w	n/a
108.8345	0.135	217669	keystroke_i	i	n/a
109.1195	0.15	218239	keystroke_m	m	n/a
109.3895	0.105	218779	keystroke_Key.space	Key.space	n/a
109.7345	0.165	219469	keystroke_b	b	n/a
109.9145	0.18	219829	keystroke_o	o	n/a
110.0195	0.12	220039	keystroke_u	u	n/a
110.3345	0.15	220669	keystroke_t	t	n/a
110.4995	0.09	220999	keystroke_i	i	n/a
110.905	0.12	221810	keystroke_q	q	n/a
111.1	0.135	222200	keystroke_u	u	n/a
111.31	0.12	222620	keystroke_i	i	n/a
111.49	0.15	222980	keystroke_r	r	n/a
111.85	0.12	223700	keystroke_Key.backspace	Key.backspace	n/a
111.97	0.1345	223940	keystroke_e	e	n/a
112.2545	0.12	224509	keystroke_Key.enter	Key.enter	n/a
112.3885	9.8055	224777	prompt	n/a	juice conversations grip express\n
113.7545	0.075	227509	keystroke_j	j	n/a
113.9345	0.135	227869	keystroke_u	u	n/a
114.1445	0.135	228289	keystroke_i	i	n/a
114.3395	0.135	228679	keystroke_c	c	n/a
114.7895	0.135	229579	keystroke_e	e	n/a
115.2845	0.135	230569	keystroke_Key.space	Key.space	n/a
115.6445	0.165	231289	keystroke_c	c	n/a
115.7495	0.12	231499	keystroke_o	o	n/a
115.8995	0.075	231799	keystroke_n	n	n/a
116.0495	0.15	232099	keystroke_v	v	n/a
116.2895	0.2255	232579	keystroke_e	e	n/a
116.4395	0.135	232879	keystroke_r	r	n/a
116.6945	0.225	233389	keystroke_s	s	n/a
116.8445	0.165	233689	keystroke_t	t	n/a
117.0245	0.12	234049	keystroke_a	a	n/a
117.4895	0.045	234979	keystroke_Key.backspace	Key.backspace	n/a
118.1645	0.075	236329	keystroke_Key.backspace	Key.backspace	n/a
118.2695	0.165	236539	keystroke_a	a	n/a
118.4045	0.165	236809	keystroke_t	t	n/a
118.4795	0.345	236959	keystroke_i	i	n/a
118.5845	0.21	237169	keystroke_o	o	n/a
118.7495	0.135	237499	keystroke_n	n	n/a
119.2595	0.18	238519	keystroke_s	s	n/a
119.4545	0.12	238909	keystroke_Key.space	Key.space	n/a
119.6645	0.12	239329	keystroke_g	g	n/a
119.8895	0.135	239779	keystroke_r	r	n/a
119.9945	0.105	239989	keystroke_i	i	n/a
120.2645	0.105	240529	keystroke_p	p	n/a
120.4145	0.105	240829	keystroke_Key.space	Key.space	n/a
120.6845	0.105	241369	keystroke_e	e	n/a
120.9395	0.135	241879	keystroke_x	x	n/a
121.1345	0.105	242269	keystroke_p	p	n/a
121.2545	0.135	242509	keystroke_r	r	n/a
121.3445	0.12	242689	keystroke_e	e	n/a
121.5695	0.105	243139	keystroke_s	s	n/a
121.7645	0.15	243529	keystroke_s	s	n/a
122.0495	0.135	244099	keystroke_Key.enter	Key.enter	n/a
122.201	5.895	244402	prompt	n/a	fighter polls licensed trader\n
123.0545	0.015	246109	keystroke_f	f	n/a
123.0845	0.09	246169	keystroke_i	i	n/a
123.1895	0.12	246379	keystroke_g	g	n/a
123.2945	0.135	246589	keystroke_h	h	n/a
123.4145	0.135	246829	keystroke_t	t	n/a
123.5945	0.15	247189	keystroke_e	e	n/a
123.6995	0.135	247399	keystroke_r	r	n/a
123.8645	0.12	247729	keystroke_Key.space	Key.space	n/a
124.0895	0.105	248179	keystroke_p	p	n/a
124.2995	0.105	248599	keystroke_o	o	n/a
124.5845	0.075	249169	keystroke_l	l	n/a
124.7495	0.105	249499	keystroke_l	l	n/a
124.8845	0.15	249769	keystroke_s	s	n/a
125.0495	0.12	250099	keystroke_Key.space	Key.space	n/a
125.3495	0.15	250699	keystroke_l	l	n/a
125.4395	0.105	250879	keystroke_i	i	n/a
125.6345	0.09	251269	keystroke_c	c	n/a
125.8745	0.12	251749	keystroke_e	e	n/a
125.9795	0.12	251959	keystroke_n	n	n/a
126.16	0.1795	252320	keystroke_s	s	n/a
126.295	0.1195	252590	keystroke_e	e	n/a
126.5495	0.105	253099	keystroke_d	d	n/a
126.6395	0.12	253279	keystroke_Key.space	Key.space	n/a
126.88	0.105	253760	keystroke_t	t	n/a
127.075	0.1495	254150	keystroke_r	r	n/a
127.1945	0.09	254389	keystroke_a	a	n/a
127.4045	0.105	254809	keystroke_d	d	n/a
127.5995	0.1505	255199	keystroke_e	e	n/a
127.69	0.15	255380	keystroke_r	r	n/a
127.96	0.135	255920	keystroke_Key.enter	Key.enter	n/a
128.0995	8.0745	256199	prompt	n/a	motorcycles line specs chairs\n
128.785	0.15	257570	keystroke_m	m	n/a
128.89	0.12	257780	keystroke_o	o	n/a
129.055	0.105	258110	keystroke_t	t	n/a
129.715	0.105	259430	keystroke_o	o	n/a
129.865	0.12	259730	keystroke_r	r	n/a
130.225	0.06	260450	keystroke_c	c	n/a
130.3	0.09	260600	keystroke_y	y	n/a
130.555	0.135	261110	keystroke_c	c	n/a
130.66	0.12	261320	keystroke_l	l	n/a
130.87	0.12	261740	keystroke_e	e	n/a
131.29	0.135	262580	keystroke_Key.space	Key.space	n/a
131.485	0.195	262970	keystroke_l	l	n/a
131.62	0.195	263240	keystroke_i	i	n/a
131.77	0.09	263540	keystroke_n	n	n/a
131.89	0.15	263780	keystroke_e	e	n/a
132.025	0.12	264050	keystroke_Key.space	Key.space	n/a
132.565	0.18	265130	keystroke_s	s	n/a
133.075	0.135	266150	keystroke_p	p	n/a
133.255	0.12	266510	keystroke_e	e	n/a
133.525	0.105	267050	keystroke_c	c	n/a
133.765	0.18	267530	keystroke_s	s	n/a
133.975	0.09	267950	keystroke_Key.space	Key.space	n/a
134.275	0.12	268550	keystroke_c	c	n/a
134.365	0.105	268730	keystroke_h	h	n/a
134.71	0.06	269420	keystroke_a	a	n/a
135.31	0.12	270620	keystroke_i	i	n/a
135.55	0.105	271100	keystroke_n	n	n/a
136.06	0.105	272120	keystroke_Key.enter	Key.enter	n/a
136.1785	7.1645	272357	prompt	n/a	recycling our arctic airline\n
136.81	0.15	273620	keystroke_r	r	n/a
136.9	0.12	273800	keystroke_e	e	n/a
137.155	0.135	274310	keystroke_c	c	n/a
137.35	0.12	274700	keystroke_y	y	n/a
137.695	0.12	275390	keystroke_c	c	n/a
137.86	0.12	275720	keystroke_l	l	n/a
138.025	0.12	276050	keystroke_i	i	n/a
138.235	0.12	276470	keystroke_n	n	n/a
138.385	0.18	276770	keystroke_g	g	n/a
138.52	0.09	277040	keystroke_Key.space	Key.space	n/a
138.745	0.195	277490	keystroke_o	o	n/a
138.865	0.135	277730	keystroke_u	u	n/a
139.06	0.12	278120	keystroke_r	r	n/a
139.21	0.105	278420	keystroke_Key.space	Key.space	n/a
139.465	0.164	278930	keystroke_a	a	n/a
139.615	0.135	279230	keystroke_r	r	n/a
140.2	0.104	280400	keystroke_c	c	n/a
140.425	0.15	280850	keystroke_t	t	n/a
140.56	0.12	281120	keystroke_i	i	n/a
141.234	0.136	282468	keystroke_c	c	n/a
141.459	0.105	282918	keystroke_Key.space	Key.space	n/a
141.67	0.15	283340	keystroke_a	a	n/a
141.79	0.119	283580	keystroke_i	i	n/a
142.03	0.165	284060	keystroke_r	r	n/a
142.509	0.21	285018	keystroke_l	l	n/a
142.66	0.195	285320	keystroke_i	i	n/a
142.84	0.15	285680	keystroke_n	n	n/a
143.05	0.135	286100	keystroke_e	e	n/a
143.245	0.089	286490	keystroke_Key.enter	Key.enter	n/a
143.352	9.3815	286704	prompt	n/a	restaurants appointed sports errors\n
143.98	0.134	287960	keystroke_r	r	n/a
144.069	0.12	288138	keystroke_e	e	n/a
144.324	0.165	288648	keystroke_s	s	n/a
144.474	0.135	288948	keystroke_t	t	n/a
144.714	0.151	289428	keystroke_a	a	n/a
144.895	0.09	289790	keystroke_u	u	n/a
145.465	0.165	290930	keystroke_r	r	n/a
145.615	0.12	291230	keystroke_a	a	n/a
145.78	0.135	291560	keystroke_n	n	n/a
145.855	0.09	291710	keystroke_t	t	n/a
146.2145	0.105	292429	keystroke_s	s	n/a
146.7245	0.09	293449	keystroke_Key.space	Key.space	n/a
147.0845	0.135	294169	keystroke_a	a	n/a
147.2195	0.12	294439	keystroke_p	p	n/a
147.4445	0.12	294889	keystroke_p	p	n/a
147.6395	0.225	295279	keystroke_o	o	n/a
147.7445	0.195	295489	keystroke_i	i	n/a
147.9545	0.15	295909	keystroke_n	n	n/a
148.1345	0.12	296269	keystroke_t	t	n/a
148.3595	0.105	296719	keystroke_e	e	n/a
148.5845	0.15	297169	keystroke_d	d	n/a
148.8245	0.15	297649	keystroke_Key.space	Key.space	n/a
149.3795	0.09	298759	keystroke_a	a	n/a
149.7245	0.075	299449	keystroke_Key.backspace	Key.backspace	n/a
149.8145	0.15	299629	keystroke_s	s	n/a
149.995	0.15	299990	keystroke_p	p	n/a
150.235	0.15	300470	keystroke_o	o	n/a
150.325	0.12	300650	keystroke_r	r	n/a
150.535	0.135	301070	keystroke_t	t	n/a
150.775	0.135	301550	keystroke_s	s	n/a
151.09	0.105	302180	keystroke_Key.space	Key.space	n/a
151.315	0.21	302630	keystroke_e	e	n/a
151.48	0.105	302960	keystroke_r	r	n/a
151.675	0.12	303350	keystroke_r	r	n/a
151.825	0.135	303650	keystroke_o	o	n/a
151.975	0.12	303950	keystroke_r	r	n/a
152.305	0.135	304610	keystroke_s	s	n/a
152.605	0.12	305210	keystroke_Key.enter	Key.enter	n/a
152.7375	8.951	305475	prompt	n/a	ozone visitors criticism finest\n
153.775	0.15	307550	keystroke_o	o	n/a
154.06	0.135	308120	keystroke_z	z	n/a
154.24	0.15	308480	keystroke_o	o	n/a
154.465	0.135	308930	keystroke_n	n	n/a
154.66	0.15	309320	keystroke_e	e	n/a
154.825	0.09	309650	keystroke_Key.space	Key.space	n/a
155.065	0.15	310130	keystroke_v	v	n/a
155.155	0.105	310310	keystroke_i	i	n/a
155.365	0.105	310730	keystroke_s	s	n/a
155.44	0.105	310880	keystroke_i	i	n/a
155.59	0.1345	311180	keystroke_t	t	n/a
156.0695	0.135	312139	keystroke_o	o	n/a
156.2795	0.105	312559	keystroke_r	r	n/a
156.5945	0.135	313189	keystroke_s	s	n/a
156.6995	0.12	313399	keystroke_Key.space	Key.space	n/a
157.4645	0.12	314929	keystroke_c	c	n/a
157.7645	0.12	315529	keystroke_r	r	n/a
157.9445	0.135	315889	keystroke_i	i	n/a
158.1395	0.135	316279	keystroke_t	t	n/a
158.2895	0.12	316579	keystroke_i	i	n/a
158.4695	0.12	316939	keystroke_s	s	n/a
158.8145	0.09	317629	keystroke_Key.backspace	Key.backspace	n/a
158.9495	0.135	317899	keystroke_c	c	n/a
159.0995	0.135	318199	keystroke_i	i	n/a
159.3095	0.135	318619	keystroke_s	s	n/a
159.6395	0.105	319279	keystroke_m	m	n/a
159.9245	0.12	319849	keystroke_Key.space	Key.space	n/a
160.2245	0.165	320449	keystroke_f	f	n/a
160.3145	0.135	320629	keystroke_i	i	n/a
160.4645	0.15	320929	keystroke_n	n	n/a
160.6295	0.12	321259	keystroke_e	e	n/a
160.8545	0.165	321709	keystroke_s	s	n/a
161.3495	0.135	322699	keystroke_t	t	n/a
161.5595	0.12	323119	keystroke_Key.enter	Key.enter	n/a
161.694	8.1395	323388	prompt	n/a	reveals swimming rotary coins\n
162.2795	0.135	324559	keystroke_r	r	n/a
162.3695	0.105	324739	keystroke_e	e	n/a
162.6245	0.165	325249	keystroke_v	v	n/a
162.7595	0.195	325519	keystroke_e	e	n/a
162.9395	0.135	325879	keystroke_w	w	n/a
163.4645	0.09	326929	keystroke_Key.backspace	Key.backspace	n/a
163.5845	0.12	327169	keystroke_a	a	n/a
163.7495	0.15	327499	keystroke_l	l	n/a
164.0945	0.12	328189	keystroke_s	s	n/a
164.35	0.12	328700	keystroke_Key.space	Key.space	n/a
164.605	0.135	329210	keystroke_s	s	n/a
164.965	0.119	329930	keystroke_w	w	n/a
165.07	0.135	330140	keystroke_i	i	n/a
166.074	0.076	332148	keystroke_m	m	n/a
166.285	0.104	332570	keystroke_m	m	n/a
166.344	0.226	332688	keystroke_i	i	n/a
166.525	0.1345	333050	keystroke_n	n	n/a
166.6595	0.135	333319	keystroke_g	g	n/a
166.9145	0.12	333829	keystroke_Key.space	Key.space	n/a
167.1995	0.135	334399	keystroke_r	r	n/a
167.3645	0.12	334729	keystroke_o	o	n/a
167.5445	0.12	335089	keystroke_t	t	n/a
167.7845	0.105	335569	keystroke_a	a	n/a
167.8145	0.15	335629	keystroke_r	r	n/a
168.1895	0.105	336379	keystroke_y	y	n/a
168.5645	0.12	337129	keystroke_Key.space	Key.space	n/a
168.8345	0.15	337669	keystroke_c	c	n/a
168.9245	0.15	337849	keystroke_o	o	n/a
169.1045	0.135	338209	keystroke_i	i	n/a
169.2995	0.135	338599	keystroke_n	n	n/a
169.5545	0.1805	339109	keystroke_s	s	n/a
169.75	0.075	339500	keystroke_Key.enter	Key.enter	n/a
169.839	8.545	339678	prompt	n/a	reason costa categories prohibited\n
170.575	0.18	341150	keystroke_r	r	n/a
170.665	0.135	341330	keystroke_e	e	n/a
170.875	0.21	341750	keystroke_a	a	n/a
171.07	0.165	342140	keystroke_s	s	n/a
171.22	0.195	342440	keystroke_o	o	n/a
171.385	0.195	342770	keystroke_n	n	n/a
171.52	0.15	343040	keystroke_Key.space	Key.space	n/a
171.745	0.12	343490	keystroke_c	c	n/a
171.805	0.105	343610	keystroke_o	o	n/a
172	0.24	344000	keystroke_s	s	n/a
172.165	0.15	344330	keystroke_t	t	n/a
172.405	0.105	344810	keystroke_a	a	n/a
172.525	0.12	345050	keystroke_Key.space	Key.space	n/a
172.825	0.12	345650	keystroke_c	c	n/a
173.02	0.165	346040	keystroke_a	a	n/a
173.17	0.105	346340	keystroke_t	t	n/a
173.335	0.1045	346670	keystroke_e	e	n/a
173.5745	0.135	347149	keystroke_g	g	n/a
173.6795	0.135	347359	keystroke_o	o	n/a
173.8595	0.106	347719	keystroke_r	r	n/a
174.0545	0.105	348109	keystroke_i	i	n/a
174.3995	0.105	348799	keystroke_e	e	n/a
174.6395	0.15	349279	keystroke_s	s	n/a
174.8795	0.09	349759	keystroke_Key.space	Key.space	n/a
175.1645	0.105	350329	keystroke_p	p	n/a
175.2995	0.105	350599	keystroke_r	r	n/a
175.4495	0.075	350899	keystroke_o	o	n/a
175.9145	0.06	351829	keystroke_Key.backspace	Key.backspace	n/a
176.484	0.09	352968	keystroke_o	o	n/a
176.71	0.134	353420	keystroke_h	h	n/a
176.904	0.135	353808	keystroke_i	i	n/a
177.084	0.15	354168	keystroke_b	b	n/a
177.235	0.089	354470	keystroke_i	i	n/a
177.384	0.15	354768	keystroke_t	t	n/a
177.624	0.09	355248	keystroke_e	e	n/a
177.849	0.135	355698	keystroke_d	d	n/a
178.269	0.105	356538	keystroke_Key.enter	Key.enter	n/a
178.3875	9.446	356775	prompt	n/a	mediawiki adopted guyana enter\n
179.049	0.1355	358098	keystroke_m	m	n/a
179.169	0.12	358338	keystroke_e	e	n/a
179.409	0.135	358818	keystroke_d	d	n/a
179.529	0.135	359058	keystroke_i	i	n/a
179.994	0.12	359988	keystroke_a	a	n/a
180.3695	0.1045	360739	keystroke_w	w	n/a
180.549	0.121	361098	keystroke_i	i	n/a
180.97	0.105	361940	keystroke_k	k	n/a
181.21	0.09	362420	keystroke_i	i	n/a
181.6	0.075	363200	keystroke_Key.space	Key.space	n/a
181.855	0.135	363710	keystroke_a	a	n/a
182.065	0.15	364130	keystroke_d	d	n/a
182.275	0.135	364550	keystroke_o	o	n/a
182.725	0.12	365450	keystroke_p	p	n/a
182.995	0.105	365990	keystroke_t	t	n/a
183.235	0.135	366470	keystroke_e	e	n/a
183.505	0.12	367010	keystroke_d	d	n/a
183.64	0.105	367280	keystroke_Key.space	Key.space	n/a
184.195	0.165	368390	keystroke_g	g	n/a
184.39	0.105	368780	keystroke_y	y	n/a
184.765	0.105	369530	keystroke_u	u	n/a
185.08	0.075	370160	keystroke_Key.backspace	Key.backspace	n/a
185.23	0.12	370460	keystroke_Key.backspace	Key.backspace	n/a
185.485	0.135	370970	keystroke_u	u	n/a
185.74	0.12	371480	keystroke_y	y	n/a
185.965	0.135	371930	keystroke_a	a	n/a
186.085	0.12	372170	keystroke_n	n	n/a
186.355	0.12	372710	keystroke_a	a	n/a
186.535	0.12	373070	keystroke_Key.space	Key.space	n/a
186.94	0.165	373880	keystroke_e	e	n/a
187.06	0.105	374120	keystroke_n	n	n/a
187.18	0.105	374360	keystroke_t	t	n/a
187.3	0.195	374600	keystroke_e	e	n/a
187.45	0.135	374900	keystroke_r	r	n/a
187.69	0.135	375380	keystroke_Key.enter	Key.enter	n/a
187.8375	5.7635	375675	prompt	n/a	updating sigma jesus onto\n
188.545	0.12	377090	keystroke_u	u	n/a
188.74	0.15	377480	keystroke_p	p	n/a
188.905	0.135	377810	keystroke_d	d	n/a
189.1	0.165	378200	keystroke_a	a	n/a
189.22	0.105	378440	keystroke_t	t	n/a
189.355	0.165	378710	keystroke_i	i	n/a
189.535	0.105	379070	keystroke_n	n	n/a
189.67	0.1345	379340	keystroke_g	g	n/a
189.8795	0.12	379759	keystroke_Key.space	Key.space	n/a
190.1495	0.12	380299	keystroke_s	s	n/a
190.4495	0.12	380899	keystroke_i	i	n/a
190.6445	0.15	381289	keystroke_g	g	n/a
190.9295	0.135	381859	keystroke_m	m	n/a
191.1095	0.18	382219	keystroke_a	a	n/a
191.3645	0.09	382729	keystroke_Key.space	Key.space	n/a
191.5595	0.135	383119	keystroke_j	j	n/a
191.6645	0.105	383329	keystroke_e	e	n/a
191.8745	0.18	383749	keystroke_s	s	n/a
191.9945	0.165	383989	keystroke_u	u	n/a
192.2195	0.15	384439	keystroke_s	s	n/a
192.3845	0.09	384769	keystroke_Key.space	Key.space	n/a
192.6695	0.18	385339	keystroke_o	o	n/a
192.8195	0.165	385639	keystroke_n	n	n/a
193.0295	0.18	386059	keystroke_t	t	n/a
193.1495	0.12	386299	keystroke_o	o	n/a
193.4345	0.165	386869	keystroke_Key.enter	Key.enter	n/a
193.61	5.811	387220	prompt	n/a	belkin grain joint trivia\n
194.2295	0.12	388459	keystroke_b	b	n/a
194.4695	0.12	388939	keystroke_e	e	n/a
194.6495	0.135	389299	keystroke_l	l	n/a
194.8745	0.12	389749	keystroke_k	k	n/a
195.1145	0.165	390229	keystroke_i	i	n/a
195.2495	0.135	390499	keystroke_n	n	n/a
195.5345	0.12	391069	keystroke_Key.space	Key.space	n/a
195.8495	0.105	391699	keystroke_g	g	n/a
196.0745	0.18	392149	keystroke_r	r	n/a
196.2245	0.105	392449	keystroke_a	a	n/a
196.3595	0.2255	392719	keystroke_i	i	n/a
196.5395	0.18	393079	keystroke_n	n	n/a
196.6745	0.165	393349	keystroke_Key.space	Key.space	n/a
196.9445	0.12	393889	keystroke_j	j	n/a
197.0795	0.165	394159	keystroke_o	o	n/a
197.2295	0.165	394459	keystroke_i	i	n/a
197.5295	0.09	395059	keystroke_n	n	n/a
197.7695	0.12	395539	keystroke_t	t	n/a
197.9795	0.075	395959	keystroke_Key.space	Key.space	n/a
198.2645	0.105	396529	keystroke_t	t	n/a
198.4745	0.12	396949	keystroke_r	r	n/a
198.6095	0.105	397219	keystroke_i	i	n/a
198.8045	0.18	397609	keystroke_v	v	n/a
198.9245	0.105	397849	keystroke_i	i	n/a
199.0895	0.165	398179	keystroke_a	a	n/a
199.3295	0.09	398659	keystroke_Key.enter	Key.enter	n/a
199.4235	8.42	398847	prompt	n/a	distributed request tribe pride\n
200.0945	0.15	400189	keystroke_d	d	n/a
200.2895	0.12	400579	keystroke_i	i	n/a
200.4245	0.18	400849	keystroke_s	s	n/a
200.5595	0.12	401119	keystroke_t	t	n/a
200.7845	0.12	401569	keystroke_r	r	n/a
201.2645	0.045	402529	keystroke_u	u	n/a
201.5645	0.09	403129	keystroke_Key.backspace	Key.backspace	n/a
201.8345	0.135	403669	keystroke_i	i	n/a
201.9845	0.15	403969	keystroke_b	b	n/a
202.1195	0.12	404239	keystroke_u	u	n/a
202.2845	0.15	404569	keystroke_t	t	n/a
202.4645	0.165	404929	keystroke_e	e	n/a
202.7495	0.15	405499	keystroke_d	d	n/a
202.8545	0.15	405709	keystroke_Key.space	Key.space	n/a
203.0345	0.12	406069	keystroke_r	r	n/a
203.0945	0.135	406189	keystroke_e	e	n/a
203.3345	0.165	406669	keystroke_q	q	n/a
203.4545	0.135	406909	keystroke_u	u	n/a
203.679	0.0905	407358	keystroke_e	e	n/a
203.844	0.18	407688	keystroke_s	s	n/a
203.979	0.135	407958	keystroke_t	t	n/a
204.234	0.135	408468	keystroke_Key.space	Key.space	n/a
205.0295	0.105	410059	keystroke_t	t	n/a
205.2395	0.135	410479	keystroke_r	r	n/a
205.3755	0.119	410751	keystroke_i	i	n/a
205.6895	0.105	411379	keystroke_b	b	n/a
205.9295	0.135	411859	keystroke_e	e	n/a
206.0195	0.15	412039	keystroke_Key.space	Key.space	n/a
206.2895	0.075	412579	keystroke_p	p	n/a
206.3655	0.104	412731	keystroke_r	r	n/a
206.5295	0.135	413059	keystroke_i	i	n/a
206.7545	0.06	413509	keystroke_c	c	n/a
207.0995	0.105	414199	keystroke_Key.backspace	Key.backspace	n/a
207.2055	0.119	414411	keystroke_d	d	n/a
207.4445	0.12	414889	keystroke_e	e	n/a
207.6995	0.135	415399	keystroke_Key.enter	Key.enter	n/a
207.8475	7.9155	415695	prompt	n/a	those're lifetime jack lose\n
208.4345	0.15	416869	keystroke_t	t	n/a
208.5395	0.165	417079	keystroke_h	h	n/a
208.6895	0.135	417379	keystroke_o	o	n/a
209.5445	0.225	419089	keystroke_s	s	n/a
209.6795	0.135	419359	keystroke_e	e	n/a
210.2495	0.075	420499	keystroke_'	'	n/a
211.0595	0.195	422119	keystroke_r	r	n/a
211.1645	0.15	422329	keystroke_e	e	n/a
211.5695	0.105	423139	keystroke_Key.space	Key.space	n/a
212.0645	0.21	424129	keystroke_l	l	n/a
212.1845	0.135	424369	keystroke_i	i	n/a
212.3645	0.195	424729	keystroke_f	f	n/a
212.4845	0.12	424969	keystroke_e	e	n/a
212.7545	0.12	425509	keystroke_t	t	n/a
212.8745	0.09	425749	keystroke_i	i	n/a
213.1595	0.165	426319	keystroke_m	m	n/a
213.2645	0.15	426529	keystroke_e	e	n/a
213.4445	0.09	426889	keystroke_Key.space	Key.space	n/a
213.6695	0.15	427339	keystroke_j	j	n/a
213.7895	0.15	427579	keystroke_a	a	n/a
214.4195	0.18	428839	keystroke_c	c	n/a
214.6445	0.18	429289	keystroke_k	k	n/a
214.7945	0.15	429589	keystroke_Key.space	Key.space	n/a
214.9895	0.135	429979	keystroke_l	l	n/a
215.2145	0.15	430429	keystroke_o	o	n/a
215.2745	0.21	430549	keystroke_s	s	n/a
215.4245	0.15	430849	keystroke_e	e	n/a
215.6195	0.135	431239	keystroke_Key.enter	Key.enter	n/a
215.768	10.901	431536	prompt	n/a	openings recently intention financing\n
216.4295	0.24	432859	keystroke_o	o	n/a
216.6395	0.12	433279	keystroke_p	p	n/a
217.1945	0.15	434389	keystroke_e	e	n/a
217.4045	0.165	434809	keystroke_n	n	n/a
217.5245	0.21	435049	keystroke_i	i	n/a
217.7195	0.105	435439	keystroke_n	n	n/a
217.8845	0.12	435769	keystroke_g	g	n/a
218.1395	0.135	436279	keystroke_s	s	n/a
218.26	0.1045	436520	keystroke_Key.space	Key.space	n/a
218.4695	0.12	436939	keystroke_r	r	n/a
218.5445	0.105	437089	keystroke_e	e	n/a
218.8295	0.03	437659	keystroke_c	c	n/a
219.1	0.12	438200	keystroke_e	e	n/a
219.34	0.15	438680	keystroke_n	n	n/a
219.46	0.105	438920	keystroke_t	t	n/a
220.39	0.09	440780	keystroke_l	l	n/a
220.705	0.12	441410	keystroke_y	y	n/a
220.84	0.15	441680	keystroke_Key.space	Key.space	n/a
221.035	0.15	442070	keystroke_i	i	n/a
221.17	0.135	442340	keystroke_n	n	n/a
221.26	0.12	442520	keystroke_t	t	n/a
221.455	0.165	442910	keystroke_e	e	n/a
221.605	0.105	443210	keystroke_n	n	n/a
221.77	0.12	443540	keystroke_t	t	n/a
221.905	0.254	443810	keystroke_i	i	n/a
222.04	0.195	444080	keystroke_o	o	n/a
222.175	0.21	444350	keystroke_n	n	n/a
222.4	0.119	444800	keystroke_Key.space	Key.space	n/a
222.595	0.15	445190	keystroke_f	f	n/a
222.7	0.105	445400	keystroke_i	i	n/a
222.775	0.135	445550	keystroke_n	n	n/a
222.925	0.12	445850	keystroke_a	a	n/a
223.075	0.135	446150	keystroke_n	n	n/a
223.3	0.135	446600	keystroke_c	c	n/a
223.615	0.015	447230	keystroke_y	y	n/a
223.945	0.15	447890	keystroke_Key.backspace	Key.backspace	n/a
224.23	0.12	448460	keystroke_Key.backspace	Key.backspace	n/a
225.52	0.135	451040	keystroke_c	c	n/a
225.624	0.18	451248	keystroke_i	i	n/a
225.775	0.119	451550	keystroke_n	n	n/a
225.91	0.15	451820	keystroke_g	g	n/a
226.539	0.12	453078	keystroke_Key.enter	Key.enter	n/a
226.6735	8.17	453347	prompt	n/a	limited publisher compared consists\n
227.394	0.225	454788	keystroke_l	l	n/a
227.544	0.136	455088	keystroke_i	i	n/a
227.784	0.195	455568	keystroke_m	m	n/a
227.889	0.15	455778	keystroke_i	i	n/a
228.069	0.151	456138	keystroke_t	t	n/a
228.325	0.134	456650	keystroke_e	e	n/a
228.579	0.121	457158	keystroke_d	d	n/a
228.789	0.135	457578	keystroke_Key.space	Key.space	n/a
229.119	0.211	458238	keystroke_p	p	n/a
229.239	0.135	458478	keystroke_u	u	n/a
229.689	0.135	459378	keystroke_b	b	n/a
229.809	0.195	459618	keystroke_l	l	n/a
229.974	0.105	459948	keystroke_i	i	n/a
230.2595	0.165	460519	keystroke_s	s	n/a
230.4095	0.09	460819	keystroke_h	h	n/a
230.5595	0.18	461119	keystroke_e	e	n/a
230.664	0.1655	461328	keystroke_r	r	n/a
230.8745	0.135	461749	keystroke_Key.space	Key.space	n/a
231.1295	0.165	462259	keystroke_c	c	n/a
231.2645	0.12	462529	keystroke_o	o	n/a
231.4445	0.135	462889	keystroke_m	m	n/a
231.5645	0.165	463129	keystroke_p	p	n/a
231.6845	0.18	463369	keystroke_a	a	n/a
231.8645	0.165	463729	keystroke_r	r	n/a
231.9545	0.12	463909	keystroke_e	e	n/a
232.7195	0.09	465439	keystroke_d	d	n/a
232.8545	0.12	465709	keystroke_Key.space	Key.space	n/a
233.1545	0.12	466309	keystroke_c	c	n/a
233.2595	0.135	466519	keystroke_o	o	n/a
233.4545	0.105	466909	keystroke_n	n	n/a
233.6195	0.165	467239	keystroke_s	s	n/a
233.7545	0.105	467509	keystroke_i	i	n/a
233.9645	0.165	467929	keystroke_s	s	n/a
234.1145	0.135	468229	keystroke_t	t	n/a
234.399	0.165	468798	keystroke_s	s	n/a
234.699	0.135	469398	keystroke_Key.enter	Key.enter	n/a
234.8475	8.5905	469695	prompt	n/a	compiled consultant blank advisory\n
235.524	0.15	471048	keystroke_c	c	n/a
235.659	0.135	471318	keystroke_o	o	n/a
235.929	0.1205	471858	keystroke_m	m	n/a
236.2895	0.12	472579	keystroke_p	p	n/a
236.4845	0.135	472969	keystroke_i	i	n/a
236.7395	0.105	473479	keystroke_l	l	n/a
236.8595	0.105	473719	keystroke_e	e	n/a
237.1145	0.12	474229	keystroke_d	d	n/a
237.2195	0.09	474439	keystroke_Key.space	Key.space	n/a
237.445	0.1195	474890	keystroke_c	c	n/a
237.5495	0.12	475099	keystroke_o	o	n/a
237.7295	0.135	475459	keystroke_n	n	n/a
237.9545	0.15	475909	keystroke_s	s	n/a
238.1055	0.089	476211	keystroke_u	u	n/a
238.3445	0.105	476689	keystroke_l	l	n/a
238.4045	0.135	476809	keystroke_t	t	n/a
238.6295	0.135	477259	keystroke_a	a	n/a
238.7655	0.089	477531	keystroke_n	n	n/a
239.1845	0.135	478369	keystroke_d	d	n/a
239.6495	0.09	479299	keystroke_Key.backspace	Key.backspace	n/a
239.7845	0.15	479569	keystroke_t	t	n/a
240.0095	0.15	480019	keystroke_Key.space	Key.space	n/a
240.4595	0.15	480919	keystroke_b	b	n/a
240.5945	0.135	481189	keystroke_l	l	n/a
240.7145	0.135	481429	keystroke_a	a	n/a
240.8645	0.1355	481729	keystroke_n	n	n/a
241.12	0.075	482240	keystroke_k	k	n/a
241.36	0.12	482720	keystroke_Key.space	Key.space	n/a
241.66	0.135	483320	keystroke_a	a	n/a
241.855	0.105	483710	keystroke_d	d	n/a
242.095	0.135	484190	keystroke_v	v	n/a
242.215	0.12	484430	keystroke_i	i	n/a
242.454	0.136	484908	keystroke_s	s	n/a
242.6945	0.09	485389	keystroke_o	o	n/a
242.7995	0.12	485599	keystroke_r	r	n/a
242.9945	0.135	485989	keystroke_y	y	n/a
243.3545	0.075	486709	keystroke_Key.enter	Key.enter	n/a
243.444	11.7695	486888	prompt	n/a	zshops hollow myself apparel\n
244.2845	0.135	488569	keystroke_z	z	n/a
244.5845	0.105	489169	keystroke_a	a	n/a
244.8095	0.135	489619	keystroke_h	h	n/a
245.2595	0.075	490519	keystroke_Key.backspace	Key.backspace	n/a
245.4695	0.075	490939	keystroke_Key.backspace	Key.backspace	n/a
245.9345	0.165	491869	keystroke_s	s	n/a
246.0545	0.15	492109	keystroke_h	h	n/a
246.2495	0.15	492499	keystroke_o	o	n/a
246.4595	0.12	492919	keystroke_p	p	n/a
246.9545	0.105	493909	keystroke_t	t	n/a
247.5095	0.135	495019	keystroke_Key.backspace	Key.backspace	n/a
247.8095	0.15	495619	keystroke_s	s	n/a
248.4545	0.105	496909	keystroke_Key.space	Key.space	n/a
248.8295	0.165	497659	keystroke_h	h	n/a
248.9645	0.12	497929	keystroke_o	o	n/a
249.2345	0.06	498469	keystroke_w	w	n/a
249.6545	0.075	499309	keystroke_Key.backspace	Key.backspace	n/a
249.909	0.09	499818	keystroke_l	l	n/a
250.104	0.09	500208	keystroke_l	l	n/a
250.299	0.135	500598	keystroke_o	o	n/a
250.404	0.12	500808	keystroke_w	w	n/a
250.9595	0.12	501919	keystroke_Key.space	Key.space	n/a
251.2595	0.135	502519	keystroke_m	m	n/a
251.5295	0.12	503059	keystroke_y	y	n/a
251.6795	0.165	503359	keystroke_s	s	n/a
252.2195	0.135	504439	keystroke_e	e	n/a
252.3695	0.1205	504739	keystroke_l	l	n/a
252.535	0.12	505070	keystroke_f	f	n/a
252.925	0.105	505850	keystroke_Key.space	Key.space	n/a
253.255	0.12	506510	keystroke_a	a	n/a
253.495	0.03	506990	keystroke_p	p	n/a
253.645	0.105	507290	keystroke_p	p	n/a
253.705	0.165	507410	keystroke_a	a	n/a
253.825	0.15	507650	keystroke_r	r	n/a
254.005	0.075	508010	keystroke_a	a	n/a
254.44	0.075	508880	keystroke_Key.backspace	Key.backspace	n/a
254.515	0.12	509030	keystroke_e	e	n/a
254.83	0.105	509660	keystroke_l	l	n/a
255.1	0.105	510200	keystroke_Key.enter	Key.enter	n/a
255.217	9.447	510434	prompt	n/a	bios compound electrical sectors\n
255.91	0.15	511820	keystroke_b	b	n/a
256.135	0.105	512270	keystroke_i	i	n/a
256.345	0.135	512690	keystroke_o	o	n/a
256.615	0.15	513230	keystroke_s	s	n/a
256.75	0.104	513500	keystroke_Key.space	Key.space	n/a
257.005	0.135	514010	keystroke_c	c	n/a
257.08	0.12	514160	keystroke_o	o	n/a
257.245	0.12	514490	keystroke_m	m	n/a
257.38	0.1795	514760	keystroke_p	p	n/a
257.5145	0.12	515029	keystroke_u	u	n/a
257.8145	0.09	515629	keystroke_n	n	n/a
258.1895	0.09	516379	keystroke_Key.backspace	Key.backspace	n/a
258.3545	0.09	516709	keystroke_Key.backspace	Key.backspace	n/a
258.6095	0.165	517219	keystroke_o	o	n/a
259.1345	0.075	518269	keystroke_u	u	n/a
259.4495	0.075	518899	keystroke_n	n	n/a
259.7045	0.135	519409	keystroke_d	d	n/a
259.9445	0.12	519889	keystroke_Key.space	Key.space	n/a
260.2295	0.12	520459	keystroke_e	e	n/a
260.4395	0.09	520879	keystroke_l	l	n/a
260.5295	0.105	521059	keystroke_e	e	n/a
260.7845	0.105	521569	keystroke_c	c	n/a
260.9945	0.12	521989	keystroke_t	t	n/a
261.1895	0.135	522379	keystroke_r	r	n/a
261.2795	0.12	522559	keystroke_i	i	n/a
261.5045	0.105	523009	keystroke_c	c	n/a
261.6995	0.135	523399	keystroke_a	a	n/a
261.8195	0.21	523639	keystroke_l	l	n/a
261.9545	0.135	523909	keystroke_Key.space	Key.space	n/a
262.2095	0.18	524419	keystroke_s	s	n/a
262.3595	0.105	524719	keystroke_e	e	n/a
262.5995	0.12	525199	keystroke_c	c	n/a
262.8545	0.135	525709	keystroke_o	o	n/a
263.4395	0.09	526879	keystroke_Key.backspace	Key.backspace	n/a
263.5445	0.135	527089	keystroke_t	t	n/a
263.7095	0.135	527419	keystroke_o	o	n/a
263.8595	0.105	527719	keystroke_r	r	n/a
264.2795	0.12	528559	keystroke_s	s	n/a
264.5645	0.09	529129	keystroke_Key.enter	Key.enter	n/a
264.6685	10.8695	529337	prompt	n/a	furnished between kurt subscription\n
265.2545	0.18	530509	keystroke_f	f	n/a
265.4195	0.135	530839	keystroke_u	u	n/a
265.5995	0.15	531199	keystroke_r	r	n/a
265.7345	0.15	531469	keystroke_n	n	n/a
265.8245	0.135	531649	keystroke_i	i	n/a
266.0795	0.12	532159	keystroke_s	s	n/a
266.3195	0.045	532639	keystroke_t	t	n/a
266.9645	0.105	533929	keystroke_Key.backspace	Key.backspace	n/a
267.2795	0.09	534559	keystroke_h	h	n/a
267.3995	0.12	534799	keystroke_e	e	n/a
267.6395	0.15	535279	keystroke_d	d	n/a
267.8345	0.135	535669	keystroke_Key.space	Key.space	n/a
268.4495	0.105	536899	keystroke_b	b	n/a
268.6745	0.15	537349	keystroke_e	e	n/a
268.8695	0.15	537739	keystroke_t	t	n/a
269.1995	0.15	538399	keystroke_w	w	n/a
269.7245	0.105	539449	keystroke_e	e	n/a
269.92	0.15	539840	keystroke_e	e	n/a
270.13	0.195	540260	keystroke_n	n	n/a
270.28	0.165	540560	keystroke_Key.space	Key.space	n/a
270.625	0.135	541250	keystroke_k	k	n/a
271.12	0.09	542240	keystroke_u	u	n/a
271.39	0.105	542780	keystroke_r	r	n/a
271.63	0.105	543260	keystroke_t	t	n/a
271.869	0.105	543738	keystroke_Key.space	Key.space	n/a
272.095	0.135	544190	keystroke_s	s	n/a
272.2	0.12	544400	keystroke_u	u	n/a
272.424	0.061	544848	keystroke_b	b	n/a
273.024	0.165	546048	keystroke_s	s	n/a
273.715	0.135	547430	keystroke_c	c	n/a
273.97	0.15	547940	keystroke_r	r	n/a
274.104	0.1505	548208	keystroke_i	i	n/a
274.345	0.135	548690	keystroke_p	p	n/a
274.524	0.15	549048	keystroke_t	t	n/a
274.644	0.226	549288	keystroke_i	i	n/a
274.794	0.211	549588	keystroke_o	o	n/a
274.96	0.105	549920	keystroke_n	n	n/a
275.424	0.105	550848	keystroke_Key.enter	Key.enter	n/a
275.542	7.871	551084	prompt	n/a	lung placing collaborative interact\n
276.114	0.1505	552228	keystroke_l	l	n/a
276.2795	0.12	552559	keystroke_u	u	n/a
276.5495	0.12	553099	keystroke_n	n	n/a
276.8495	0.135	553699	keystroke_g	g	n/a
277.0295	0.105	554059	keystroke_Key.space	Key.space	n/a
277.314	0.12	554628	keystroke_p	p	n/a
277.539	0.135	555078	keystroke_l	l	n/a
277.644	0.12	555288	keystroke_a	a	n/a
277.899	0.15	555798	keystroke_c	c	n/a
278.424	0.135	556848	keystroke_i	i	n/a
278.604	0.135	557208	keystroke_n	n	n/a
278.814	0.15	557628	keystroke_g	g	n/a
278.949	0.12	557898	keystroke_Key.space	Key.space	n/a
279.414	0.15	558828	keystroke_c	c	n/a
279.549	0.105	559098	keystroke_o	o	n/a
279.819	0.06	559638	keystroke_l	l	n/a
279.999	0.12	559998	keystroke_l	l	n/a
280.089	0.09	560178	keystroke_a	a	n/a
280.344	0.135	560688	keystroke_b	b	n/a
280.449	0.105	560898	keystroke_o	o	n/a
280.644	0.21	561288	keystroke_r	r	n/a
280.794	0.18	561588	keystroke_a	a	n/a
280.974	0.15	561948	keystroke_t	t	n/a
281.095	0.134	562190	keystroke_i	i	n/a
281.319	0.18	562638	keystroke_v	v	n/a
281.514	0.165	563028	keystroke_e	e	n/a
281.6495	0.1495	563299	keystroke_Key.space	Key.space	n/a
281.769	0.165	563538	keystroke_i	i	n/a
281.904	0.12	563808	keystroke_n	n	n/a
281.994	0.135	563988	keystroke_t	t	n/a
282.174	0.1505	564348	keystroke_e	e	n/a
282.2645	0.15	564529	keystroke_r	r	n/a
282.4745	0.135	564949	keystroke_a	a	n/a
282.7895	0.105	565579	keystroke_c	c	n/a
283.059	0.1505	566118	keystroke_t	t	n/a
283.2695	0.135	566539	keystroke_Key.enter	Key.enter	n/a
283.419	19.389	566838	prompt	n/a	military beastality cartridges reno\n
284.0645	0.165	568129	keystroke_m	m	n/a
284.1995	0.12	568399	keystroke_i	i	n/a
284.3945	0.195	568789	keystroke_l	l	n/a
284.4995	0.12	568999	keystroke_i	i	n/a
284.6795	0.105	569359	keystroke_t	t	n/a
284.8745	0.195	569749	keystroke_a	a	n/a
285.0545	0.12	570109	keystroke_r	r	n/a
285.3545	0.18	570709	keystroke_y	y	n/a
285.5495	0.135	571099	keystroke_Key.space	Key.space	n/a
285.8945	0.12	571789	keystroke_l	l	n/a
286.2395	0.12	572479	keystroke_Key.backspace	Key.backspace	n/a
286.3745	0.09	572749	keystroke_b	b	n/a
286.6145	0.105	573229	keystroke_e	e	n/a
286.7795	0.195	573559	keystroke_a	a	n/a
286.9895	0.135	573979	keystroke_s	s	n/a
287.1695	0.15	574339	keystroke_t	t	n/a
287.5895	0.135	575179	keystroke_a	a	n/a
288.0245	0.045	576049	keystroke_l	l	n/a
289.2695	0.105	578539	keystroke_Key.backspace	Key.backspace	n/a
289.5395	0.09	579079	keystroke_Key.backspace	Key.backspace	n/a
289.7645	0.075	579529	keystroke_Key.backspace	Key.backspace	n/a
290.7395	0.09	581479	keystroke_t	t	n/a
291.3995	0.15	582799	keystroke_a	a	n/a
294.0415	0.1175	588083	keystroke_l	l	n/a
294.114	0.121	588228	keystroke_i	i	n/a
294.3245	0.15	588649	keystroke_t	t	n/a
294.4595	0.105	588919	keystroke_y	y	n/a
295.4195	0.12	590839	keystroke_c	c	n/a
295.6445	0.165	591289	keystroke_a	a	n/a
295.7795	0.12	591559	keystroke_r	r	n/a
296.3045	0.09	592609	keystroke_Key.backspace	Key.backspace	n/a
296.4995	0.18	592999	keystroke_Key.backspace	Key.backspace	n/a
296.6345	0.165	593269	keystroke_Key.space	Key.space	n/a
297.1145	0.075	594229	keystroke_Key.backspace	Key.backspace	n/a
297.2945	0.135	594589	keystroke_Key.backspace	Key.backspace	n/a
297.3995	0.15	594799	keystroke_Key.space	Key.space	n/a
297.6845	0.12	595369	keystroke_c	c	n/a
297.8945	0.135	595789	keystroke_a	a	n/a
297.9845	0.12	595969	keystroke_r	r	n/a
298.2845	0.135	596569	keystroke_t	t	n/a
298.4945	0.09	596989	keystroke_i	i	n/a
298.9895	0.06	597979	keystroke_Key.backspace	Key.backspace	n/a
299.1245	0.135	598249	keystroke_r	r	n/a
299.7845	0.075	599569	keystroke_i	i	n/a
300.3245	0.105	600649	keystroke_d	d	n/a
300.5645	0.135	601129	keystroke_g	g	n/a
300.7745	0.12	601549	keystroke_e	e	n/a
301.0295	0.12	602059	keystroke_s	s	n/a
301.4345	0.075	602869	keystroke_Key.space	Key.space	n/a
301.5695	0.12	603139	keystroke_r	r	n/a
301.6445	0.12	603289	keystroke_e	e	n/a
301.8395	0.165	603679	keystroke_n	n	n/a
301.9445	0.135	603889	keystroke_o	o	n/a
302.6795	0.12	605359	keystroke_Key.enter	Key.enter	n/a
302.812	10.196	605624	prompt	n/a	that robot engaging loads\n
303.6845	0.015	607369	keystroke_r	r	n/a
304.1495	0.12	608299	keystroke_Key.backspace	Key.backspace	n/a
304.2245	0.15	608449	keystroke_t	t	n/a
304.4045	0.12	608809	keystroke_h	h	n/a
304.5395	0.105	609079	keystroke_a	a	n/a
304.7195	0.075	609439	keystroke_n	n	n/a
305.0795	0.105	610159	keystroke_Key.backspace	Key.backspace	n/a
305.1695	0.12	610339	keystroke_t	t	n/a
305.4395	0.12	610879	keystroke_Key.space	Key.space	n/a
305.7095	0.165	611419	keystroke_r	r	n/a
305.8145	0.12	611629	keystroke_o	o	n/a
306.3695	0.135	612739	keystroke_b	b	n/a
306.5195	0.105	613039	keystroke_o	o	n/a
306.6845	0.12	613369	keystroke_t	t	n/a
307.1945	0.12	614389	keystroke_Key.space	Key.space	n/a
307.899	0.135	615798	keystroke_e	e	n/a
308.049	0.045	616098	keystroke_n	n	n/a
308.7095	0.1355	617419	keystroke_g	g	n/a
308.89	0.135	617780	keystroke_a	a	n/a
309.385	0.105	618770	keystroke_n	n	n/a
309.52	0.15	619040	keystroke_g	g	n/a
309.684	0.0905	619368	keystroke_i	i	n/a
309.9245	0.075	619849	keystroke_n	n	n/a
310.0445	0.135	620089	keystroke_g	g	n/a
310.4945	0.105	620989	keystroke_Key.space	Key.space	n/a
311.0495	0.09	622099	keystroke_l	l	n/a
311.2745	0.105	622549	keystroke_o	o	n/a
311.5595	0.105	623119	keystroke_a	a	n/a
311.7995	0.12	623599	keystroke_d	d	n/a
312.0245	0.12	624049	keystroke_s	s	n/a
312.9095	0.09	625819	keystroke_Key.enter	Key.enter	n/a
313.013	12.4905	626026	prompt	n/a	moore briefing knew provinces\n
313.9445	0.15	627889	keystroke_m	m	n/a
314.0345	0.15	628069	keystroke_o	o	n/a
314.2445	0.135	628489	keystroke_o	o	n/a
314.3645	0.225	628729	keystroke_r	r	n/a
314.5595	0.15	629119	keystroke_e	e	n/a
314.7395	0.135	629479	keystroke_Key.space	Key.space	n/a
315.0395	0.105	630079	keystroke_b	b	n/a
315.1595	0.09	630319	keystroke_i	i	n/a
315.5345	0.09	631069	keystroke_Key.backspace	Key.backspace	n/a
315.6245	0.135	631249	keystroke_r	r	n/a
315.7895	0.09	631579	keystroke_i	i	n/a
315.9095	0.12	631819	keystroke_e	e	n/a
316.45	0.149	632900	keystroke_f	f	n/a
318.0545	0.105	636109	keystroke_i	i	n/a
318.2345	0.09	636469	keystroke_n	n	n/a
318.6545	0.135	637309	keystroke_g	g	n/a
318.9845	0.12	637969	keystroke_Key.space	Key.space	n/a
319.2995	0.165	638599	keystroke_k	k	n/a
319.4495	0.135	638899	keystroke_n	n	n/a
319.4495	0.18	638899	keystroke_e	e	n/a
319.6595	0.15	639319	keystroke_w	w	n/a
320.1995	0.075	640399	keystroke_Key.backspace	Key.backspace	n/a
320.3795	0.09	640759	keystroke_Key.backspace	Key.backspace	n/a
320.5445	0.09	641089	keystroke_Key.backspace	Key.backspace	n/a
320.7545	0.135	641509	keystroke_n	n	n/a
320.8445	0.15	641689	keystroke_e	e	n/a
320.9345	0.12	641869	keystroke_w	w	n/a
321.5045	0.12	643009	keystroke_Key.space	Key.space	n/a
321.7595	0.105	643519	keystroke_p	p	n/a
321.8945	0.12	643789	keystroke_r	r	n/a
321.999	0.0905	643998	keystroke_o	o	n/a
322.4645	0.06	644929	keystroke_i	i	n/a
322.9445	0.09	645889	keystroke_Key.backspace	Key.backspace	n/a
323.4245	0.135	646849	keystroke_v	v	n/a
323.4995	0.105	646999	keystroke_i	i	n/a
323.7995	0.12	647599	keystroke_n	n	n/a
324.5795	0.09	649159	keystroke_c	c	n/a
324.8045	0.12	649609	keystroke_e	e	n/a
324.9995	0.165	649999	keystroke_s	s	n/a
325.3895	0.105	650779	keystroke_Key.enter	Key.enter	n/a
325.5075	14.426	651015	prompt	n/a	secondary subscriptions strengths knife\n
325.6595	0.18	651319	keystroke_l	l	n/a
326.0645	0.045	652129	keystroke_l	l	n/a
326.1845	0.18	652369	keystroke_s	s	n/a
326.3345	0.09	652669	keystroke_e	e	n/a
326.559	0.135	653118	keystroke_c	c	n/a
326.664	0.09	653328	keystroke_o	o	n/a
326.994	0.075	653988	keystroke_Key.backspace	Key.backspace	n/a
327.174	0.075	654348	keystroke_Key.backspace	Key.backspace	n/a
327.369	0.06	654738	keystroke_Key.backspace	Key.backspace	n/a
327.549	0.06	655098	keystroke_Key.backspace	Key.backspace	n/a
327.729	0.06	655458	keystroke_Key.backspace	Key.backspace	n/a
327.894	0.09	655788	keystroke_Key.backspace	Key.backspace	n/a
328	0.134	656000	keystroke_s	s	n/a
328.419	0.09	656838	keystroke_e	e	n/a
328.659	0.135	657318	keystroke_c	c	n/a
328.809	0.135	657618	keystroke_o	o	n/a
328.989	0.135	657978	keystroke_n	n	n/a
329.094	0.135	658188	keystroke_d	d	n/a
329.334	0.12	658668	keystroke_a	a	n/a
329.409	0.15	658818	keystroke_r	r	n/a
329.664	0.075	659328	keystroke_y	y	n/a
330.174	0.105	660348	keystroke_Key.space	Key.space	n/a
330.639	0.15	661278	keystroke_s	s	n/a
330.729	0.1055	661458	keystroke_u	u	n/a
330.954	0.09	661908	keystroke_b	b	n/a
331.194	0.135	662388	keystroke_s	s	n/a
331.629	0.135	663258	keystroke_c	c	n/a
331.869	0.15	663738	keystroke_r	r	n/a
332.004	0.09	664008	keystroke_i	i	n/a
332.214	0.09	664428	keystroke_p	p	n/a
332.334	0.135	664668	keystroke_t	t	n/a
332.454	0.27	664908	keystroke_i	i	n/a
332.559	0.18	665118	keystroke_o	o	n/a
332.679	0.15	665358	keystroke_n	n	n/a
332.979	0.165	665958	keystroke_s	s	n/a
333.174	0.12	666348	keystroke_Key.space	Key.space	n/a
333.459	0.135	666918	keystroke_s	s	n/a
333.579	0.105	667158	keystroke_t	t	n/a
333.789	0.15	667578	keystroke_r	r	n/a
334.029	0.105	668058	keystroke_n	n	n/a
334.644	0.12	669288	keystroke_Key.backspace	Key.backspace	n/a
334.794	0.12	669588	keystroke_e	e	n/a
334.944	0.09	669888	keystroke_n	n	n/a
335.739	0.135	671478	keystroke_g	g	n/a
336.384	0.135	672768	keystroke_t	t	n/a
336.489	0.12	672978	keystroke_h	h	n/a
336.669	0.09	673338	keystroke_e	e	n/a
337.029	0.135	674058	keystroke_Key.backspace	Key.backspace	n/a
337.149	0.12	674298	keystroke_s	s	n/a
337.569	0.12	675138	keystroke_Key.space	Key.space	n/a
338.169	0.06	676338	keystroke_n	n	n/a
338.469	0.105	676938	keystroke_Key.backspace	Key.backspace	n/a
338.739	0.15	677478	keystroke_k	k	n/a
338.904	0.165	677808	keystroke_n	n	n/a
339.099	0.135	678198	keystroke_i	i	n/a
339.429	0.2405	678858	keystroke_f	f	n/a
339.5495	0.15	679099	keystroke_e	e	n/a
339.7745	0.15	679549	keystroke_Key.enter	Key.enter	n/a
339.9375	7.84	679875	prompt	n/a	happened examine government anne\n
340.6295	0.135	681259	keystroke_h	h	n/a
340.7195	0.15	681439	keystroke_a	a	n/a
340.8845	0.09	681769	keystroke_p	p	n/a
341.0495	0.135	682099	keystroke_p	p	n/a
341.1545	0.15	682309	keystroke_e	e	n/a
341.3195	0.105	682639	keystroke_n	n	n/a
341.4395	0.12	682879	keystroke_e	e	n/a
341.7095	0.09	683419	keystroke_d	d	n/a
341.9045	0.135	683809	keystroke_Key.space	Key.space	n/a
342.1745	0.105	684349	keystroke_e	e	n/a
342.4145	0.18	684829	keystroke_x	x	n/a
342.5795	0.195	685159	keystroke_a	a	n/a
342.7595	0.12	685519	keystroke_m	m	n/a
343.5395	0.12	687079	keystroke_i	i	n/a
343.7945	0.135	687589	keystroke_n	n	n/a
344.0645	0.135	688129	keystroke_e	e	n/a
344.2295	0.12	688459	keystroke_Key.space	Key.space	n/a
344.5145	0.135	689029	keystroke_g	g	n/a
344.6795	0.105	689359	keystroke_o	o	n/a
345.0545	0.105	690109	keystroke_v	v	n/a
345.2495	0.15	690499	keystroke_e	e	n/a
345.3395	0.135	690679	keystroke_r	r	n/a
345.5195	0.12	691039	keystroke_n	n	n/a
345.7745	0.135	691549	keystroke_m	m	n/a
345.8645	0.135	691729	keystroke_e	e	n/a
346.0295	0.12	692059	keystroke_n	n	n/a
346.1345	0.105	692269	keystroke_t	t	n/a
346.5995	0.12	693199	keystroke_Key.space	Key.space	n/a
347.0945	0.105	694189	keystroke_a	a	n/a
347.1845	0.09	694369	keystroke_n	n	n/a
347.3495	0.12	694699	keystroke_n	n	n/a
347.5145	0.135	695029	keystroke_e	e	n/a
347.6645	0.105	695329	keystroke_Key.enter	Key.enter	n/a
347.7815	6.649	695563	prompt	n/a	motivation parental char sync\n
348.5045	0.12	697009	keystroke_m	m	n/a
348.5645	0.135	697129	keystroke_o	o	n/a
348.7895	0.15	697579	keystroke_t	t	n/a
348.9245	0.09	697849	keystroke_i	i	n/a
349.4945	0.135	698989	keystroke_v	v	n/a
349.6145	0.105	699229	keystroke_a	a	n/a
349.7645	0.15	699529	keystroke_t	t	n/a
349.8395	0.3	699679	keystroke_i	i	n/a
349.9895	0.135	699979	keystroke_o	o	n/a
350.0795	0.12	700159	keystroke_n	n	n/a
350.4395	0.105	700879	keystroke_Key.space	Key.space	n/a
350.9345	0.075	701869	keystroke_p	p	n/a
351.0245	0.135	702049	keystroke_a	a	n/a
351.2045	0.195	702409	keystroke_r	r	n/a
351.3095	0.135	702619	keystroke_e	e	n/a
351.4745	0.09	702949	keystroke_n	n	n/a
351.5795	0.105	703159	keystroke_t	t	n/a
351.7445	0.12	703489	keystroke_a	a	n/a
351.8795	0.12	703759	keystroke_l	l	n/a
352.1195	0.075	704239	keystroke_Key.space	Key.space	n/a
352.4795	0.15	704959	keystroke_c	c	n/a
352.5995	0.105	705199	keystroke_h	h	n/a
352.7345	0.18	705469	keystroke_a	a	n/a
352.8695	0.105	705739	keystroke_r	r	n/a
353.1695	0.12	706339	keystroke_Key.space	Key.space	n/a
353.514	0.15	707028	keystroke_s	s	n/a
353.634	0.105	707268	keystroke_y	y	n/a
353.949	0.12	707898	keystroke_n	n	n/a
354.174	0.105	708348	keystroke_c	c	n/a
354.339	0.09	708678	keystroke_Key.enter	Key.enter	n/a
354.4345	10.9535	708869	prompt	n/a	according weblog sunday westminster\n
355.059	0.09	710118	keystroke_a	a	n/a
355.269	0.09	710538	keystroke_c	c	n/a
355.464	0.105	710928	keystroke_c	c	n/a
355.554	0.12	711108	keystroke_o	o	n/a
355.704	0.12	711408	keystroke_r	r	n/a
356.049	0.105	712098	keystroke_d	d	n/a
356.259	0.105	712518	keystroke_i	i	n/a
356.469	0.105	712938	keystroke_n	n	n/a
356.634	0.15	713268	keystroke_g	g	n/a
356.754	0.135	713508	keystroke_Key.space	Key.space	n/a
356.994	0.195	713988	keystroke_w	w	n/a
357.144	0.12	714288	keystroke_e	e	n/a
357.429	0.12	714858	keystroke_b	b	n/a
357.834	0.105	715668	keystroke_l	l	n/a
358.044	0.135	716088	keystroke_o	o	n/a
358.194	0.075	716388	keystroke_b	b	n/a
358.614	0.09	717228	keystroke_Key.backspace	Key.backspace	n/a
358.734	0.15	717468	keystroke_g	g	n/a
358.869	0.15	717738	keystroke_Key.space	Key.space	n/a
359.259	0.18	718518	keystroke_s	s	n/a
359.349	0.135	718698	keystroke_u	u	n/a
359.664	0.105	719328	keystroke_m	m	n/a
360.234	0.09	720468	keystroke_Key.backspace	Key.backspace	n/a
360.459	0.135	720918	keystroke_n	n	n/a
360.519	0.15	721038	keystroke_d	d	n/a
360.744	0.12	721488	keystroke_a	a	n/a
360.894	0.135	721788	keystroke_y	y	n/a
361.104	0.12	722208	keystroke_Key.space	Key.space	n/a
361.404	0.195	722808	keystroke_s	s	n/a
361.554	0.105	723108	keystroke_e	e	n/a
362.094	0.06	724188	keystroke_Key.backspace	Key.backspace	n/a
362.289	0.09	724578	keystroke_Key.backspace	Key.backspace	n/a
362.394	0.195	724788	keystroke_w	w	n/a
362.784	0.12	725568	keystroke_e	e	n/a
363.084	0.165	726168	keystroke_s	s	n/a
363.249	0.135	726498	keystroke_t	t	n/a
363.699	0.165	727398	keystroke_m	m	n/a
363.834	0.165	727668	keystroke_i	i	n/a
363.984	0.135	727968	keystroke_n	n	n/a
364.5095	0.15	729019	keystroke_s	s	n/a
364.6895	0.12	729379	keystroke_t	t	n/a
364.8695	0.165	729739	keystroke_e	e	n/a
365.0045	0.105	730009	keystroke_r	r	n/a
365.2445	0.135	730489	keystroke_Key.enter	Key.enter	n/a
365.392	6.0035	730784	prompt	n/a	chain adventures tissue pages\n
366.2045	0.165	732409	keystroke_c	c	n/a
366.3245	0.135	732649	keystroke_h	h	n/a
366.4895	0.135	732979	keystroke_a	a	n/a
366.5945	0.135	733189	keystroke_i	i	n/a
366.8195	0.105	733639	keystroke_n	n	n/a
367.0445	0.105	734089	keystroke_Key.space	Key.space	n/a
367.2245	0.12	734449	keystroke_a	a	n/a
367.4045	0.12	734809	keystroke_d	d	n/a
367.6295	0.09	735259	keystroke_v	v	n/a
367.7945	0.135	735589	keystroke_e	e	n/a
367.9145	0.105	735829	keystroke_n	n	n/a
368.0345	0.105	736069	keystroke_t	t	n/a
368.1695	0.135	736339	keystroke_u	u	n/a
368.3045	0.15	736609	keystroke_r	r	n/a
368.4095	0.105	736819	keystroke_e	e	n/a
368.6495	0.165	737299	keystroke_s	s	n/a
368.7995	0.12	737599	keystroke_Key.space	Key.space	n/a
369.0695	0.135	738139	keystroke_t	t	n/a
369.1745	0.135	738349	keystroke_i	i	n/a
369.4295	0.09	738859	keystroke_s	s	n/a
369.6095	0.15	739219	keystroke_s	s	n/a
369.7445	0.135	739489	keystroke_u	u	n/a
369.8945	0.12	739789	keystroke_e	e	n/a
370.0595	0.135	740119	keystroke_Key.space	Key.space	n/a
370.314	0.12	740628	keystroke_p	p	n/a
370.464	0.135	740928	keystroke_a	a	n/a
370.614	0.15	741228	keystroke_g	g	n/a
370.779	0.105	741558	keystroke_e	e	n/a
370.974	0.165	741948	keystroke_s	s	n/a
371.274	0.12	742548	keystroke_Key.enter	Key.enter	n/a
371.398	7.97	742796	prompt	n/a	streets estimate payments trunk\n
372.039	0.135	744078	keystroke_s	s	n/a
372.159	0.105	744318	keystroke_t	t	n/a
372.369	0.15	744738	keystroke_r	r	n/a
372.474	0.12	744948	keystroke_e	e	n/a
372.789	0.075	745578	keystroke_e	e	n/a
372.804	0.12	745608	keystroke_t	t	n/a
373.029	0.165	746058	keystroke_s	s	n/a
373.164	0.135	746328	keystroke_Key.space	Key.space	n/a
373.374	0.12	746748	keystroke_e	e	n/a
373.614	0.135	747228	keystroke_s	s	n/a
373.764	0.135	747528	keystroke_t	t	n/a
373.929	0.135	747858	keystroke_i	i	n/a
374.139	0.075	748278	keystroke_v	v	n/a
374.454	0.09	748908	keystroke_=	=	n/a
374.9635	0.075	749927	keystroke_Key.backspace	Key.backspace	n/a
375.1285	0.1205	750257	keystroke_Key.backspace	Key.backspace	n/a
375.459	0.135	750918	keystroke_m	m	n/a
375.595	0.134	751190	keystroke_a	a	n/a
375.804	0.18	751608	keystroke_t	t	n/a
375.954	0.12	751908	keystroke_e	e	n/a
376.194	0.105	752388	keystroke_Key.space	Key.space	n/a
376.479	0.135	752958	keystroke_p	p	n/a
376.584	0.12	753168	keystroke_a	a	n/a
376.734	0.165	753468	keystroke_y	y	n/a
377.049	0.12	754098	keystroke_m	m	n/a
377.184	0.135	754368	keystroke_e	e	n/a
377.289	0.135	754578	keystroke_n	n	n/a
377.454	0.12	754908	keystroke_t	t	n/a
377.769	0.09	755538	keystroke_s	s	n/a
377.979	0.105	755958	keystroke_Key.space	Key.space	n/a
378.174	0.105	756348	keystroke_t	t	n/a
378.384	0.135	756768	keystroke_r	r	n/a
378.52	0.089	757040	keystroke_u	u	n/a
378.789	0.09	757578	keystroke_n	n	n/a
378.9995	0.12	757999	keystroke_k	k	n/a
379.2395	0.119	758479	keystroke_Key.enter	Key.enter	n/a
379.372	10.3155	758744	prompt	n/a	chest poetry hypothetical drawing\n
380.0645	0.09	760129	keystroke_c	c	n/a
380.1835	0.136	760367	keystroke_h	h	n/a
380.3645	0.105	760729	keystroke_e	e	n/a
380.6045	0.15	761209	keystroke_c	c	n/a
380.7845	0.09	761569	keystroke_k	k	n/a
381.2195	0.09	762439	keystroke_Key.backspace	Key.backspace	n/a
381.3995	0.12	762799	keystroke_Key.backspace	Key.backspace	n/a
381.4445	0.21	762889	keystroke_s	s	n/a
381.6235	0.135	763247	keystroke_t	t	n/a
381.9545	0.075	763909	keystroke_Key.space	Key.space	n/a
382.2395	0.12	764479	keystroke_h	h	n/a
382.5095	0.135	765019	keystroke_y	y	n/a
382.7195	0.134	765439	keystroke_p	p	n/a
382.9745	0.135	765949	keystroke_o	o	n/a
383.2745	0.134	766549	keystroke_t	t	n/a
383.4235	0.105	766847	keystroke_h	h	n/a
383.6045	0.12	767209	keystroke_e	e	n/a
384.3085	0.12	768617	keystroke_t	t	n/a
384.4435	0.075	768887	keystroke_i	i	n/a
384.6835	0.1055	769367	keystroke_c	c	n/a
384.729	0.075	769458	keystroke_k	k	n/a
385.104	0.075	770208	keystroke_Key.backspace	Key.backspace	n/a
385.284	0.045	770568	keystroke_Key.backspace	Key.backspace	n/a
385.899	0.135	771798	keystroke_c	c	n/a
386.0945	0.15	772189	keystroke_a	a	n/a
386.2445	0.21	772489	keystroke_l	l	n/a
386.3495	0.165	772699	keystroke_Key.space	Key.space	n/a
386.6195	0.165	773239	keystroke_d	d	n/a
386.8145	0.18	773629	keystroke_r	r	n/a
386.9795	0.12	773959	keystroke_a	a	n/a
387.2195	0.21	774439	keystroke_w	w	n/a
387.3695	0.12	774739	keystroke_a	a	n/a
387.9545	0.03	775909	keystroke_i	i	n/a
388.2845	0.09	776569	keystroke_Key.backspace	Key.backspace	n/a
388.6895	0.09	777379	keystroke_Key.backspace	Key.backspace	n/a
388.9595	0.18	777919	keystroke_i	i	n/a
389.1245	0.12	778249	keystroke_n	n	n/a
389.3045	0.165	778609	keystroke_g	g	n/a
389.5895	0.09	779179	keystroke_Key.enter	Key.enter	n/a
389.6915	9.4165	779383	prompt	n/a	yourself prominent westminster analysts\n
390.4295	0.135	780859	keystroke_y	y	n/a
390.5795	0.165	781159	keystroke_o	o	n/a
390.6845	0.12	781369	keystroke_u	u	n/a
390.7895	0.12	781579	keystroke_r	r	n/a
391.0295	0.195	782059	keystroke_s	s	n/a
391.1495	0.135	782299	keystroke_e	e	n/a
391.3445	0.105	782689	keystroke_l	l	n/a
391.4795	0.09	782959	keystroke_f	f	n/a
391.8845	0.105	783769	keystroke_Key.space	Key.space	n/a
392.3495	0.105	784699	keystroke_p	p	n/a
392.5445	0.15	785089	keystroke_r	r	n/a
392.6795	0.105	785359	keystroke_o	o	n/a
393.0845	0.15	786169	keystroke_m	m	n/a
393.1745	0.105	786349	keystroke_i	i	n/a
393.3995	0.165	786799	keystroke_n	n	n/a
393.5195	0.09	787039	keystroke_i	i	n/a
393.8795	0.105	787759	keystroke_Key.backspace	Key.backspace	n/a
393.9695	0.135	787939	keystroke_e	e	n/a
394.1795	0.105	788359	keystroke_n	n	n/a
394.3445	0.135	788689	keystroke_t	t	n/a
394.5245	0.09	789049	keystroke_Key.space	Key.space	n/a
394.929	0.18	789858	keystroke_w	w	n/a
395.064	0.12	790128	keystroke_e	e	n/a
395.289	0.15	790578	keystroke_s	s	n/a
395.424	0.105	790848	keystroke_t	t	n/a
395.889	0.15	791778	keystroke_m	m	n/a
396.024	0.1495	792048	keystroke_i	i	n/a
396.1435	0.135	792287	keystroke_n	n	n/a
396.2935	0.15	792587	keystroke_s	s	n/a
396.4285	0.15	792857	keystroke_t	t	n/a
396.5935	0.21	793187	keystroke_e	e	n/a
396.7435	0.15	793487	keystroke_r	r	n/a
396.895	0.119	793790	keystroke_Key.space	Key.space	n/a
397.0435	0.135	794087	keystroke_a	a	n/a
397.1635	0.1205	794327	keystroke_n	n	n/a
397.359	0.105	794718	keystroke_a	a	n/a
397.644	0.1045	795288	keystroke_l	l	n/a
397.869	0.105	795738	keystroke_y	y	n/a
398.0035	0.2105	796007	keystroke_s	s	n/a
398.1685	0.151	796337	keystroke_t	t	n/a
398.4995	0.224	796999	keystroke_s	s	n/a
399.0385	0.06	798077	keystroke_Key.enter	Key.enter	n/a
399.1195	10.459	798239	prompt	n/a	kong inches christianity performance\n
400.06	0.15	800120	keystroke_k	k	n/a
400.24	0.1495	800480	keystroke_n	n	n/a
401.064	0.015	802128	keystroke_Key.backspace	Key.backspace	n/a
401.244	0.135	802488	keystroke_o	o	n/a
401.424	0.12	802848	keystroke_n	n	n/a
401.604	0.15	803208	keystroke_g	g	n/a
401.979	0.12	803958	keystroke_Key.space	Key.space	n/a
402.129	0.135	804258	keystroke_i	i	n/a
402.234	0.12	804468	keystroke_n	n	n/a
402.504	0.03	805008	keystroke_c	c	n/a
402.594	0.075	805188	keystroke_h	h	n/a
402.804	0.105	805608	keystroke_e	e	n/a
403.059	0.12	806118	keystroke_s	s	n/a
403.299	0.105	806598	keystroke_Key.space	Key.space	n/a
403.5695	0.1195	807139	keystroke_c	c	n/a
403.704	0.09	807408	keystroke_h	h	n/a
403.899	0.105	807798	keystroke_r	r	n/a
404.034	0.09	808068	keystroke_i	i	n/a
404.169	0.15	808338	keystroke_s	s	n/a
404.334	0.15	808668	keystroke_t	t	n/a
404.454	0.09	808908	keystroke_i	i	n/a
404.619	0.105	809238	keystroke_a	a	n/a
404.769	0.105	809538	keystroke_n	n	n/a
405.069	0.09	810138	keystroke_t	t	n/a
405.474	0.09	810948	keystroke_Key.backspace	Key.backspace	n/a
405.714	0.12	811428	keystroke_i	i	n/a
405.819	0.195	811638	keystroke_t	t	n/a
405.999	0.12	811998	keystroke_y	y	n/a
406.434	0.12	812868	keystroke_Key.space	Key.space	n/a
406.93	0.104	813860	keystroke_p	p	n/a
407.019	0.181	814038	keystroke_e	e	n/a
407.14	0.105	814280	keystroke_r	r	n/a
407.485	0.075	814970	keystroke_f	f	n/a
407.754	0.09	815508	keystroke_o	o	n/a
407.905	0.074	815810	keystroke_r	r	n/a
408.069	0.106	816138	keystroke_m	m	n/a
408.249	0.105	816498	keystroke_a	a	n/a
408.429	0.075	816858	keystroke_n	n	n/a
408.609	0.135	817218	keystroke_c	c	n/a
408.969	0.105	817938	keystroke_e	e	n/a
409.494	0.075	818988	keystroke_Key.enter	Key.enter	n/a
409.5825	10.4655	819165	prompt	n/a	economic porcelain bikes abstracts\n
410.709	0.075	821418	keystroke_e	e	n/a
410.934	0.135	821868	keystroke_c	c	n/a
411.07	0.134	822140	keystroke_o	o	n/a
411.249	0.165	822498	keystroke_n	n	n/a
411.399	0.15	822798	keystroke_o	o	n/a
411.609	0.195	823218	keystroke_m	m	n/a
411.729	0.135	823458	keystroke_i	i	n/a
412.134	0.135	824268	keystroke_c	c	n/a
412.494	0.105	824988	keystroke_Key.space	Key.space	n/a
412.794	0.12	825588	keystroke_p	p	n/a
413.004	0.12	826008	keystroke_o	o	n/a
413.139	0.135	826278	keystroke_r	r	n/a
413.919	0.12	827838	keystroke_c	c	n/a
414.174	0.135	828348	keystroke_e	e	n/a
414.279	0.15	828558	keystroke_l	l	n/a
414.444	0.12	828888	keystroke_a	a	n/a
414.594	0.105	829188	keystroke_i	i	n/a
414.849	0.105	829698	keystroke_n	n	n/a
415.524	0.12	831048	keystroke_Key.space	Key.space	n/a
416.259	0.105	832518	keystroke_b	b	n/a
416.349	0.105	832698	keystroke_i	i	n/a
416.589	0.12	833178	keystroke_k	k	n/a
416.694	0.105	833388	keystroke_e	e	n/a
416.949	0.15	833898	keystroke_s	s	n/a
417.234	0.135	834468	keystroke_Key.space	Key.space	n/a
417.534	0.12	835068	keystroke_a	a	n/a
417.909	0.12	835818	keystroke_b	b	n/a
418.164	0.1205	836328	keystroke_s	s	n/a
418.3745	0.105	836749	keystroke_t	t	n/a
418.5695	0.15	837139	keystroke_r	r	n/a
418.7045	0.105	837409	keystroke_a	a	n/a
418.9745	0.135	837949	keystroke_c	c	n/a
419.2895	0.135	838579	keystroke_t	t	n/a
419.5145	0.165	839029	keystroke_s	s	n/a
419.9195	0.12	839839	keystroke_Key.enter	Key.enter	n/a
420.06	6.6105	840120	prompt	n/a	extension killing licking acids\n
420.6395	0.09	841279	keystroke_e	e	n/a
421.1345	0.135	842269	keystroke_x	x	n/a
421.3885	0.1205	842777	keystroke_t	t	n/a
421.57	0.134	843140	keystroke_e	e	n/a
421.6895	0.1505	843379	keystroke_n	n	n/a
421.854	0.165	843708	keystroke_s	s	n/a
421.9595	0.2855	843919	keystroke_i	i	n/a
422.095	0.164	844190	keystroke_o	o	n/a
422.215	0.239	844430	keystroke_n	n	n/a
422.439	0.15	844878	keystroke_Key.space	Key.space	n/a
422.605	0.12	845210	keystroke_k	k	n/a
422.83	0.104	845660	keystroke_i	i	n/a
423.054	0.06	846108	keystroke_l	l	n/a
423.219	0.135	846438	keystroke_l	l	n/a
423.279	0.241	846558	keystroke_i	i	n/a
423.429	0.12	846858	keystroke_n	n	n/a
423.579	0.165	847158	keystroke_g	g	n/a
423.714	0.105	847428	keystroke_Key.space	Key.space	n/a
423.939	0.165	847878	keystroke_l	l	n/a
424.029	0.136	848058	keystroke_i	i	n/a
424.284	0.165	848568	keystroke_c	c	n/a
424.375	0.119	848750	keystroke_k	k	n/a
424.6	0.149	849200	keystroke_i	i	n/a
424.734	0.135	849468	keystroke_n	n	n/a
424.854	0.135	849708	keystroke_g	g	n/a
425.049	0.12	850098	keystroke_Key.space	Key.space	n/a
425.349	0.105	850698	keystroke_a	a	n/a
425.62	0.119	851240	keystroke_c	c	n/a
425.904	0.195	851808	keystroke_i	i	n/a
426.084	0.12	852168	keystroke_d	d	n/a
426.3095	0.135	852619	keystroke_s	s	n/a
426.5345	0.135	853069	keystroke_Key.enter	Key.enter	n/a
426.6735	10.1745	853347	prompt	n/a	relax obituaries documentation tracker\n
427.4195	0.18	854839	keystroke_r	r	n/a
427.5245	0.135	855049	keystroke_e	e	n/a
427.9145	0.105	855829	keystroke_l	l	n/a
428.0795	0.135	856159	keystroke_a	a	n/a
428.7995	0.12	857599	keystroke_x	x	n/a
429.4445	0.12	858889	keystroke_Key.space	Key.space	n/a
429.9545	0.135	859909	keystroke_o	o	n/a
430.4345	0.09	860869	keystroke_b	b	n/a
430.5995	0.12	861199	keystroke_i	i	n/a
430.7945	0.15	861589	keystroke_t	t	n/a
430.9295	0.15	861859	keystroke_u	u	n/a
431.2445	0.15	862489	keystroke_a	a	n/a
431.3945	0.12	862789	keystroke_r	r	n/a
431.6195	0.12	863239	keystroke_i	i	n/a
431.8295	0.09	863659	keystroke_e	e	n/a
432.0695	0.105	864139	keystroke_s	s	n/a
432.4445	0.105	864889	keystroke_Key.space	Key.space	n/a
432.7895	0.105	865579	keystroke_d	d	n/a
433.0595	0.06	866119	keystroke_o	o	n/a
433.2695	0.12	866539	keystroke_c	c	n/a
433.4045	0.09	866809	keystroke_u	u	n/a
433.6595	0.105	867319	keystroke_m	m	n/a
433.7945	0.09	867589	keystroke_e	e	n/a
434.2145	0.12	868429	keystroke_n	n	n/a
434.3645	0.135	868729	keystroke_t	t	n/a
434.6045	0.105	869209	keystroke_a	a	n/a
434.6945	0.15	869389	keystroke_t	t	n/a
434.8145	0.345	869629	keystroke_i	i	n/a
434.9945	0.12	869989	keystroke_o	o	n/a
435.0845	0.18	870169	keystroke_n	n	n/a
435.3245	0.12	870649	keystroke_Key.space	Key.space	n/a
435.5195	0.105	871039	keystroke_t	t	n/a
435.7145	0.165	871429	keystroke_r	r	n/a
435.8645	0.09	871729	keystroke_a	a	n/a
436.0895	0.135	872179	keystroke_c	c	n/a
436.1645	0.105	872329	keystroke_k	k	n/a
436.3595	0.1645	872719	keystroke_e	e	n/a
436.4495	0.1645	872899	keystroke_r	r	n/a
436.704	0.135	873408	keystroke_Key.enter	Key.enter	n/a
436.852	6.409	873704	prompt	n/a	greater otherwise pocket fool\n
437.469	0.165	874938	keystroke_g	g	n/a
437.754	0.12	875508	keystroke_r	r	n/a
437.799	0.135	875598	keystroke_e	e	n/a
438.009	0.106	876018	keystroke_a	a	n/a
438.039	0.165	876078	keystroke_t	t	n/a
438.2495	0.2095	876499	keystroke_e	e	n/a
438.414	0.12	876828	keystroke_r	r	n/a
438.579	0.15	877158	keystroke_Key.space	Key.space	n/a
438.804	0.15	877608	keystroke_o	o	n/a
438.955	0.134	877910	keystroke_t	t	n/a
439.104	0.09	878208	keystroke_h	h	n/a
439.179	0.165	878358	keystroke_e	e	n/a
439.269	0.135	878538	keystroke_r	r	n/a
439.524	0.105	879048	keystroke_s	s	n/a
439.884	0.105	879768	keystroke_Key.backspace	Key.backspace	n/a
440.004	0.135	880008	keystroke_w	w	n/a
440.169	0.09	880338	keystroke_i	i	n/a
440.529	0.195	881058	keystroke_s	s	n/a
440.664	0.135	881328	keystroke_e	e	n/a
440.829	0.12	881658	keystroke_Key.space	Key.space	n/a
441.069	0.135	882138	keystroke_p	p	n/a
441.309	0.105	882618	keystroke_o	o	n/a
441.594	0.165	883188	keystroke_c	c	n/a
441.714	0.09	883428	keystroke_k	k	n/a
441.864	0.2405	883728	keystroke_e	e	n/a
442.0295	0.165	884059	keystroke_t	t	n/a
442.1795	0.105	884359	keystroke_Key.space	Key.space	n/a
442.4195	0.135	884839	keystroke_f	f	n/a
442.5245	0.075	885049	keystroke_o	o	n/a
442.7195	0.06	885439	keystroke_o	o	n/a
442.9145	0.09	885829	keystroke_l	l	n/a
443.1245	0.135	886249	keystroke_Key.enter	Key.enter	n/a
443.2645	9.8585	886529	prompt	n/a	simultaneously kiss district saudi\n
443.9045	0.165	887809	keystroke_s	s	n/a
444.2795	0.09	888559	keystroke_u	u	n/a
444.6695	0.075	889339	keystroke_Key.backspace	Key.backspace	n/a
444.9395	0.105	889879	keystroke_i	i	n/a
445.1495	0.12	890299	keystroke_m	m	n/a
445.4345	0.105	890869	keystroke_u	u	n/a
445.7045	0.09	891409	keystroke_l	l	n/a
445.9145	0.15	891829	keystroke_t	t	n/a
446.1695	0.12	892339	keystroke_a	a	n/a
446.3045	0.135	892609	keystroke_n	n	n/a
446.4995	0.135	892999	keystroke_e	e	n/a
447.1145	0.105	894229	keystroke_o	o	n/a
447.8045	0.105	895609	keystroke_u	u	n/a
448.0145	0.12	896029	keystroke_s	s	n/a
448.1645	0.1355	896329	keystroke_l	l	n/a
448.494	0.105	896988	keystroke_y	y	n/a
448.674	0.135	897348	keystroke_Key.space	Key.space	n/a
448.839	0.105	897678	keystroke_k	k	n/a
449.064	0.09	898128	keystroke_i	i	n/a
449.244	0.12	898488	keystroke_s	s	n/a
449.469	0.12	898938	keystroke_s	s	n/a
449.559	0.12	899118	keystroke_Key.space	Key.space	n/a
449.754	0.135	899508	keystroke_d	d	n/a
449.829	0.12	899658	keystroke_i	i	n/a
449.994	0.15	899988	keystroke_s	s	n/a
450.114	0.091	900228	keystroke_t	t	n/a
450.309	0.12	900618	keystroke_r	r	n/a
450.504	0.105	901008	keystroke_i	i	n/a
450.774	0.135	901548	keystroke_c	c	n/a
451.374	0.12	902748	keystroke_t	t	n/a
451.644	0.12	903288	keystroke_Key.space	Key.space	n/a
451.944	0.21	903888	keystroke_s	s	n/a
452.139	0.15	904278	keystroke_a	a	n/a
452.319	0.12	904638	keystroke_u	u	n/a
452.649	0.135	905298	keystroke_d	d	n/a
452.754	0.105	905508	keystroke_i	i	n/a
453.009	0.105	906018	keystroke_Key.enter	Key.enter	n/a
453.127	7.8105	906254	prompt	n/a	loose periods toxic places\n
453.864	0.045	907728	keystroke_l	l	n/a
454.014	0.06	908028	keystroke_o	o	n/a
454.194	0.12	908388	keystroke_o	o	n/a
454.344	0.225	908688	keystroke_s	s	n/a
454.509	0.135	909018	keystroke_e	e	n/a
454.659	0.135	909318	keystroke_Key.space	Key.space	n/a
454.869	0.12	909738	keystroke_p	p	n/a
455.004	0.15	910008	keystroke_e	e	n/a
455.334	0.15	910668	keystroke_r	r	n/a
455.499	0.15	910998	keystroke_i	i	n/a
455.814	0.12	911628	keystroke_o	o	n/a
456.099	0.12	912198	keystroke_d	d	n/a
456.354	0.135	912708	keystroke_s	s	n/a
456.834	0.075	913668	keystroke_Key.space	Key.space	n/a
457.1495	0.135	914299	keystroke_t	t	n/a
457.2545	0.09	914509	keystroke_o	o	n/a
458.0045	0.135	916009	keystroke_x	x	n/a
458.3345	0.12	916669	keystroke_i	i	n/a
458.7695	0.15	917539	keystroke_c	c	n/a
459.2345	0.105	918469	keystroke_Key.space	Key.space	n/a
459.6095	0.12	919219	keystroke_p	p	n/a
459.8345	0.135	919669	keystroke_l	l	n/a
459.9245	0.12	919849	keystroke_a	a	n/a
460.1495	0.12	920299	keystroke_c	c	n/a
460.4045	0.12	920809	keystroke_e	e	n/a
460.6445	0.135	921289	keystroke_s	s	n/a
460.8095	0.12	921619	keystroke_Key.enter	Key.enter	n/a
460.9415	6.2745	921883	prompt	n/a	comply vitamins volume the\n
461.529	0.165	923058	keystroke_c	c	n/a
461.649	0.105	923298	keystroke_o	o	n/a
461.814	0.12	923628	keystroke_m	m	n/a
461.919	0.135	923838	keystroke_p	p	n/a
462.144	0.12	924288	keystroke_l	l	n/a
462.399	0.165	924798	keystroke_y	y	n/a
462.504	0.12	925008	keystroke_Key.space	Key.space	n/a
462.864	0.165	925728	keystroke_v	v	n/a
462.984	0.105	925968	keystroke_i	i	n/a
463.269	0.18	926538	keystroke_t	t	n/a
463.45	0.119	926900	keystroke_a	a	n/a
463.689	0.18	927378	keystroke_m	m	n/a
463.854	0.15	927708	keystroke_i	i	n/a
463.989	0.135	927978	keystroke_n	n	n/a
464.469	0.135	928938	keystroke_s	s	n/a
464.769	0.12	929538	keystroke_Key.space	Key.space	n/a
465.159	0.18	930318	keystroke_v	v	n/a
465.324	0.09	930648	keystroke_o	o	n/a
465.549	0.12	931098	keystroke_l	l	n/a
465.67	0.059	931340	keystroke_u	u	n/a
466.164	0.12	932328	keystroke_m	m	n/a
466.314	0.12	932628	keystroke_e	e	n/a
466.539	0.12	933078	keystroke_Key.space	Key.space	n/a
466.674	0.135	933348	keystroke_t	t	n/a
466.794	0.12	933588	keystroke_h	h	n/a
466.914	0.12	933828	keystroke_e	e	n/a
467.079	0.135	934158	keystroke_Key.enter	Key.enter	n/a
467.218	7.445	934436	prompt	n/a	connect strong beach discount\n
467.874	0.15	935748	keystroke_c	c	n/a
467.994	0.09	935988	keystroke_o	o	n/a
468.159	0.09	936318	keystroke_n	n	n/a
468.369	0.075	936738	keystroke_n	n	n/a
468.414	0.09	936828	keystroke_e	e	n/a
468.654	0.09	937308	keystroke_c	c	n/a
468.939	0.135	937878	keystroke_t	t	n/a
469.059	0.12	938118	keystroke_Key.space	Key.space	n/a
469.299	0.135	938598	keystroke_s	s	n/a
469.479	0.09	938958	keystroke_t	t	n/a
469.689	0.105	939378	keystroke_r	r	n/a
469.809	0.165	939618	keystroke_o	o	n/a
470.019	0.135	940038	keystroke_m	m	n/a
470.409	0.09	940818	keystroke_Key.backspace	Key.backspace	n/a
470.6645	0.12	941329	keystroke_n	n	n/a
470.7995	0.12	941599	keystroke_g	g	n/a
470.9045	0.105	941809	keystroke_Key.space	Key.space	n/a
471.1445	0.105	942289	keystroke_b	b	n/a
471.3395	0.135	942679	keystroke_e	e	n/a
471.5045	0.12	943009	keystroke_a	a	n/a
471.6845	0.09	943369	keystroke_n	n	n/a
471.9845	0.09	943969	keystroke_Key.backspace	Key.backspace	n/a
472.0595	0.15	944119	keystroke_c	c	n/a
472.2845	0.105	944569	keystroke_h	h	n/a
472.6445	0.12	945289	keystroke_Key.space	Key.space	n/a
472.9295	0.12	945859	keystroke_d	d	n/a
473.0645	0.09	946129	keystroke_i	i	n/a
473.2145	0.12	946429	keystroke_s	s	n/a
473.6195	0.105	947239	keystroke_c	c	n/a
473.8445	0.195	947689	keystroke_o	o	n/a
473.9495	0.105	947899	keystroke_u	u	n/a
474.2045	0.135	948409	keystroke_n	n	n/a
474.3245	0.12	948649	keystroke_t	t	n/a
474.5195	0.135	949039	keystroke_Key.enter	Key.enter	n/a
474.667	9.7615	949334	prompt	n/a	handling join researcher ricky\n
475.2995	0.135	950599	keystroke_h	h	n/a
475.4495	0.15	950899	keystroke_a	a	n/a
475.5545	0.135	951109	keystroke_n	n	n/a
475.7345	0.15	951469	keystroke_g	g	n/a
476.3945	0.075	952789	keystroke_Key.backspace	Key.backspace	n/a
476.5745	0.135	953149	keystroke_d	d	n/a
476.7095	0.195	953419	keystroke_l	l	n/a
476.8445	0.15	953689	keystroke_i	i	n/a
477.0545	0.15	954109	keystroke_n	n	n/a
477.2195	0.12	954439	keystroke_g	g	n/a
477.7595	0.105	955519	keystroke_Key.space	Key.space	n/a
477.9845	0.21	955969	keystroke_j	j	n/a
478.1345	0.18	956269	keystroke_o	o	n/a
478.4495	0.135	956899	keystroke_i	i	n/a
478.7195	0.12	957439	keystroke_n	n	n/a
479.3045	0.135	958609	keystroke_Key.space	Key.space	n/a
479.6195	0.165	959239	keystroke_r	r	n/a
479.7245	0.12	959449	keystroke_e	e	n/a
479.9345	0.135	959869	keystroke_e	e	n/a
480.1295	0.15	960259	keystroke_a	a	n/a
480.2495	0.135	960499	keystroke_r	r	n/a
480.5645	0.075	961129	keystroke_Key.backspace	Key.backspace	n/a
480.7595	0.075	961519	keystroke_Key.backspace	Key.backspace	n/a
480.9395	0.12	961879	keystroke_Key.backspace	Key.backspace	n/a
481.0445	0.24	962089	keystroke_s	s	n/a
481.1795	0.225	962359	keystroke_e	e	n/a
481.3895	0.09	962779	keystroke_r	r	n/a
481.7935	0.105	963587	keystroke_Key.backspace	Key.backspace	n/a
481.9295	0.149	963859	keystroke_a	a	n/a
482.0495	0.119	964099	keystroke_r	r	n/a
482.514	0.15	965028	keystroke_c	c	n/a
482.679	0.135	965358	keystroke_h	h	n/a
482.844	0.21	965688	keystroke_e	e	n/a
482.994	0.135	965988	keystroke_r	r	n/a
483.144	0.15	966288	keystroke_Key.space	Key.space	n/a
483.384	0.12	966768	keystroke_r	r	n/a
483.474	0.12	966948	keystroke_i	i	n/a
483.699	0.135	967398	keystroke_c	c	n/a
483.849	0.075	967698	keystroke_k	k	n/a
484.074	0.105	968148	keystroke_y	y	n/a
484.3145	0.1045	968629	keystroke_Key.enter	Key.enter	n/a
484.4335	12.7295	968867	prompt	n/a	firewall activists francis mailed\n
485.1995	0.1495	970399	keystroke_r	r	n/a
485.859	0.075	971718	keystroke_Key.backspace	Key.backspace	n/a
485.9645	0.165	971929	keystroke_f	f	n/a
486.1145	0.1045	972229	keystroke_i	i	n/a
486.249	0.135	972498	keystroke_r	r	n/a
486.534	0.105	973068	keystroke_e	e	n/a
486.924	0.195	973848	keystroke_w	w	n/a
487.089	0.15	974178	keystroke_a	a	n/a
487.374	0.09	974748	keystroke_l	l	n/a
487.584	0.18	975168	keystroke_l	l	n/a
487.674	0.15	975348	keystroke_Key.space	Key.space	n/a
488.019	0.15	976038	keystroke_a	a	n/a
488.259	0.12	976518	keystroke_c	c	n/a
488.694	0.135	977388	keystroke_t	t	n/a
488.859	0.105	977718	keystroke_i	i	n/a
489.069	0.12	978138	keystroke_v	v	n/a
489.174	0.105	978348	keystroke_i	i	n/a
489.369	0.135	978738	keystroke_s	s	n/a
490.194	0.105	980388	keystroke_Key.backspace	Key.backspace	n/a
490.434	0.12	980868	keystroke_t	t	n/a
490.524	0.12	981048	keystroke_i	i	n/a
491.469	0.075	982938	keystroke_Key.backspace	Key.backspace	n/a
491.679	0.075	983358	keystroke_Key.backspace	Key.backspace	n/a
492.939	0.195	985878	keystroke_s	s	n/a
493.104	0.15	986208	keystroke_t	t	n/a
493.464	0.12	986928	keystroke_s	s	n/a
493.719	0.12	987438	keystroke_Key.space	Key.space	n/a
493.989	0.105	987978	keystroke_f	f	n/a
494.199	0.18	988398	keystroke_r	r	n/a
494.394	0.105	988788	keystroke_a	a	n/a
494.514	0.105	989028	keystroke_n	n	n/a
494.724	0.15	989448	keystroke_c	c	n/a
494.859	0.105	989718	keystroke_i	i	n/a
495.039	0.18	990078	keystroke_s	s	n/a
495.219	0.105	990438	keystroke_Key.space	Key.space	n/a
495.519	0.15	991038	keystroke_m	m	n/a
495.684	0.105	991368	keystroke_a	a	n/a
495.759	0.09	991518	keystroke_i	i	n/a
495.969	0.105	991938	keystroke_l	l	n/a
496.149	0.06	992298	keystroke_e	e	n/a
496.359	0.1045	992718	keystroke_d	d	n/a
497.0635	0.09	994127	keystroke_Key.enter	Key.enter	n/a
497.167	9.626	994334	prompt	n/a	patents significant sponsored mounted\n
497.8585	0.135	995717	keystroke_p	p	n/a
498.0085	0.12	996017	keystroke_a	a	n/a
498.1885	0.15	996377	keystroke_t	t	n/a
498.3235	0.121	996647	keystroke_e	e	n/a
498.4885	0.135	996977	keystroke_n	n	n/a
498.6685	0.135	997337	keystroke_t	t	n/a
498.9235	0.135	997847	keystroke_s	s	n/a
499.2985	0.15	998597	keystroke_Key.space	Key.space	n/a
499.6135	0.151	999227	keystroke_f	f	n/a
500.0635	0.09	1000127	keystroke_Key.backspace	Key.backspace	n/a
500.2285	0.1655	1000457	keystroke_s	s	n/a
500.3485	0.12	1000697	keystroke_i	i	n/a
500.5735	0.1205	1001147	keystroke_g	g	n/a
500.709	0.165	1001418	keystroke_n	n	n/a
500.859	0.12	1001718	keystroke_i	i	n/a
501.174	0.135	1002348	keystroke_f	f	n/a
501.279	0.105	1002558	keystroke_i	i	n/a
501.489	0.105	1002978	keystroke_c	c	n/a
501.699	0.12	1003398	keystroke_a	a	n/a
501.879	0.09	1003758	keystroke_n	n	n/a
502.044	0.12	1004088	keystroke_t	t	n/a
502.194	0.135	1004388	keystroke_Key.space	Key.space	n/a
502.599	0.165	1005198	keystroke_s	s	n/a
502.734	0.105	1005468	keystroke_p	p	n/a
502.959	0.135	1005918	keystroke_o	o	n/a
503.109	0.12	1006218	keystroke_n	n	n/a
503.244	0.15	1006488	keystroke_s	s	n/a
503.649	0.12	1007298	keystroke_o	o	n/a
503.859	0.105	1007718	keystroke_r	r	n/a
504.234	0.09	1008468	keystroke_e	e	n/a
504.489	0.135	1008978	keystroke_d	d	n/a
504.699	0.105	1009398	keystroke_Key.space	Key.space	n/a
504.984	0.135	1009968	keystroke_m	m	n/a
505.179	0.225	1010358	keystroke_o	o	n/a
505.314	0.12	1010628	keystroke_u	u	n/a
505.584	0.12	1011168	keystroke_n	n	n/a
505.674	0.135	1011348	keystroke_t	t	n/a
505.914	0.105	1011828	keystroke_e	e	n/a
506.199	0.105	1012398	keystroke_d	d	n/a
506.679	0.105	1013358	keystroke_Key.enter	Key.enter	n/a
506.797	7.3535	1013594	prompt	n/a	joining slow reel projection\n
507.519	0.165	1015038	keystroke_j	j	n/a
507.639	0.225	1015278	keystroke_o	o	n/a
507.774	0.165	1015548	keystroke_i	i	n/a
507.999	0.12	1015998	keystroke_n	n	n/a
508.269	0.21	1016538	keystroke_i	i	n/a
508.404	0.135	1016808	keystroke_n	n	n/a
509.184	0.12	1018368	keystroke_g	g	n/a
509.529	0.12	1019058	keystroke_Key.space	Key.space	n/a
509.934	0.1795	1019868	keystroke_s	s	n/a
510.099	0.0755	1020198	keystroke_l	l	n/a
510.3095	0.119	1020619	keystroke_o	o	n/a
510.4435	0.135	1020887	keystroke_w	w	n/a
510.9685	0.1055	1021937	keystroke_Key.space	Key.space	n/a
511.299	0.135	1022598	keystroke_r	r	n/a
511.374	0.15	1022748	keystroke_e	e	n/a
511.614	0.105	1023228	keystroke_e	e	n/a
511.809	0.165	1023618	keystroke_l	l	n/a
511.975	0.119	1023950	keystroke_Key.space	Key.space	n/a
512.229	0.135	1024458	keystroke_p	p	n/a
512.394	0.135	1024788	keystroke_r	r	n/a
512.514	0.09	1025028	keystroke_o	o	n/a
512.724	0.15	1025448	keystroke_j	j	n/a
512.859	0.09	1025718	keystroke_e	e	n/a
513.0845	0.1195	1026169	keystroke_c	c	n/a
513.309	0.135	1026618	keystroke_t	t	n/a
513.429	0.3	1026858	keystroke_i	i	n/a
513.564	0.255	1027128	keystroke_o	o	n/a
513.759	0.135	1027518	keystroke_n	n	n/a
514.029	0.12	1028058	keystroke_Key.enter	Key.enter	n/a
514.153	9.38	1028306	prompt	n/a	see somalia researcher firefox\n
514.7495	0.15	1029499	keystroke_s	s	n/a
514.8695	0.12	1029739	keystroke_e	e	n/a
515.0645	0.135	1030129	keystroke_e	e	n/a
515.1545	0.135	1030309	keystroke_Key.space	Key.space	n/a
515.4695	0.135	1030939	keystroke_s	s	n/a
515.5895	0.165	1031179	keystroke_o	o	n/a
516.3545	0.135	1032709	keystroke_m	m	n/a
516.5645	0.12	1033129	keystroke_a	a	n/a
517.2245	0.21	1034449	keystroke_l	l	n/a
517.3895	0.135	1034779	keystroke_i	i	n/a
518.0345	0.15	1036069	keystroke_a	a	n/a
518.3945	0.135	1036789	keystroke_Key.space	Key.space	n/a
518.6345	0.135	1037269	keystroke_r	r	n/a
518.7095	0.135	1037419	keystroke_e	e	n/a
519.5195	0.165	1039039	keystroke_s	s	n/a
519.6395	0.15	1039279	keystroke_e	e	n/a
519.9095	0.12	1039819	keystroke_a	a	n/a
519.9245	0.135	1039849	keystroke_r	r	n/a
520.6595	0.135	1041319	keystroke_c	c	n/a
520.7795	0.12	1041559	keystroke_h	h	n/a
520.9445	0.1795	1041889	keystroke_e	e	n/a
521.049	0.135	1042098	keystroke_r	r	n/a
521.499	0.12	1042998	keystroke_Key.space	Key.space	n/a
521.829	0.135	1043658	keystroke_f	f	n/a
521.979	0.12	1043958	keystroke_i	i	n/a
522.159	0.195	1044318	keystroke_r	r	n/a
522.339	0.09	1044678	keystroke_e	e	n/a
522.639	0.135	1045278	keystroke_f	f	n/a
522.759	0.12	1045518	keystroke_o	o	n/a
523.194	0.09	1046388	keystroke_x	x	n/a
523.419	0.105	1046838	keystroke_Key.enter	Key.enter	n/a
523.537	7.7505	1047074	prompt	n/a	levels scale quickly comparisons\n
524.1695	0.105	1048339	keystroke_l	l	n/a
524.2895	0.045	1048579	keystroke_e	e	n/a
524.4545	0.12	1048909	keystroke_v	v	n/a
524.5595	0.165	1049119	keystroke_e	e	n/a
524.7395	0.09	1049479	keystroke_l	l	n/a
524.9045	0.135	1049809	keystroke_s	s	n/a
525.1445	0.12	1050289	keystroke_Key.space	Key.space	n/a
525.3845	0.12	1050769	keystroke_s	s	n/a
525.6095	0.105	1051219	keystroke_c	c	n/a
525.8495	0.135	1051699	keystroke_a	a	n/a
526.0145	0.105	1052029	keystroke_l	l	n/a
526.1945	0.09	1052389	keystroke_e	e	n/a
526.959	0.135	1053918	keystroke_Key.space	Key.space	n/a
527.379	0.135	1054758	keystroke_q	q	n/a
527.529	0.195	1055058	keystroke_u	u	n/a
527.694	0.105	1055388	keystroke_i	i	n/a
527.889	0.135	1055778	keystroke_c	c	n/a
528.009	0.09	1056018	keystroke_k	k	n/a
528.699	0.075	1057398	keystroke_l	l	n/a
528.954	0.165	1057908	keystroke_y	y	n/a
529.089	0.135	1058178	keystroke_Key.space	Key.space	n/a
529.299	0.135	1058598	keystroke_c	c	n/a
529.389	0.105	1058778	keystroke_o	o	n/a
529.539	0.18	1059078	keystroke_m	m	n/a
529.704	0.15	1059408	keystroke_p	p	n/a
529.824	0.135	1059648	keystroke_a	a	n/a
529.914	0.135	1059828	keystroke_r	r	n/a
530.064	0.105	1060128	keystroke_i	i	n/a
530.259	0.15	1060518	keystroke_s	s	n/a
530.379	0.165	1060758	keystroke_o	o	n/a
530.529	0.105	1061058	keystroke_n	n	n/a
530.679	0.15	1061358	keystroke_s	s	n/a
531.174	0.105	1062348	keystroke_Key.enter	Key.enter	n/a
531.293	6.5275	1062586	prompt	n/a	grey junction blond surfing\n
531.894	0.12	1063788	keystroke_g	g	n/a
532.209	0.09	1064418	keystroke_r	r	n/a
532.7645	0.1345	1065529	keystroke_e	e	n/a
532.914	0.105	1065828	keystroke_y	y	n/a
533.289	0.12	1066578	keystroke_Key.space	Key.space	n/a
533.514	0.1205	1067028	keystroke_j	j	n/a
533.739	0.0905	1067478	keystroke_u	u	n/a
533.979	0.09	1067958	keystroke_n	n	n/a
534.5045	0.045	1069009	keystroke_c	c	n/a
534.6695	0.165	1069339	keystroke_t	t	n/a
534.7595	0.33	1069519	keystroke_i	i	n/a
534.8795	0.195	1069759	keystroke_o	o	n/a
534.9845	0.21	1069969	keystroke_n	n	n/a
535.1795	0.165	1070359	keystroke_Key.space	Key.space	n/a
535.4195	0.1495	1070839	keystroke_b	b	n/a
535.5245	0.1495	1071049	keystroke_l	l	n/a
535.764	0.135	1071528	keystroke_o	o	n/a
535.944	0.1205	1071888	keystroke_n	n	n/a
536.1095	0.12	1072219	keystroke_d	d	n/a
536.2445	0.135	1072489	keystroke_Key.space	Key.space	n/a
536.5295	0.18	1073059	keystroke_s	s	n/a
536.6495	0.09	1073299	keystroke_u	u	n/a
536.7545	0.135	1073509	keystroke_r	r	n/a
537.1145	0.15	1074229	keystroke_f	f	n/a
537.2195	0.135	1074439	keystroke_i	i	n/a
537.3845	0.12	1074769	keystroke_n	n	n/a
537.5195	0.135	1075039	keystroke_g	g	n/a
537.7145	0.105	1075429	keystroke_Key.enter	Key.enter	n/a
537.8245	6.176	1075649	prompt	n/a	major docs animals buried\n
538.4495	0.135	1076899	keystroke_m	m	n/a
538.5995	0.15	1077199	keystroke_a	a	n/a
538.7345	0.015	1077469	keystroke_k	k	n/a
539.0495	0.105	1078099	keystroke_Key.backspace	Key.backspace	n/a
539.2895	0.18	1078579	keystroke_j	j	n/a
539.3795	0.135	1078759	keystroke_o	o	n/a
539.5445	0.18	1079089	keystroke_r	r	n/a
539.6795	0.12	1079359	keystroke_Key.space	Key.space	n/a
539.9945	0.12	1079989	keystroke_d	d	n/a
540.0695	0.135	1080139	keystroke_o	o	n/a
540.2935	0.09	1080587	keystroke_c	c	n/a
540.5335	0.15	1081067	keystroke_s	s	n/a
540.7135	0.12	1081427	keystroke_Key.space	Key.space	n/a
540.9685	0.15	1081937	keystroke_a	a	n/a
541.0885	0.12	1082177	keystroke_n	n	n/a
541.2835	0.12	1082567	keystroke_i	i	n/a
541.5835	0.105	1083167	keystroke_m	m	n/a
541.8545	0.12	1083709	keystroke_a	a	n/a
542.0185	0.09	1084037	keystroke_l	l	n/a
542.4245	0.149	1084849	keystroke_s	s	n/a
542.6335	0.105	1085267	keystroke_Key.space	Key.space	n/a
542.8885	0.135	1085777	keystroke_b	b	n/a
542.9935	0.135	1085987	keystroke_u	u	n/a
543.2035	0.135	1086407	keystroke_r	r	n/a
543.3235	0.135	1086647	keystroke_i	i	n/a
543.4435	0.12	1086887	keystroke_e	e	n/a
543.6835	0.15	1087367	keystroke_d	d	n/a
543.8485	0.15	1087697	keystroke_Key.enter	Key.enter	n/a
544.0035	8.12	1088007	prompt	n/a	nottingham vampire kinda messenger\n
544.8985	0.105	1089797	keystroke_n	n	n/a
545.1535	0.12	1090307	keystroke_o	o	n/a
545.3485	0.105	1090697	keystroke_t	t	n/a
545.5285	0.15	1091057	keystroke_t	t	n/a
545.6185	0.135	1091237	keystroke_i	i	n/a
545.7385	0.12	1091477	keystroke_n	n	n/a
545.8885	0.135	1091777	keystroke_g	g	n/a
546.1135	0.12	1092227	keystroke_h	h	n/a
546.2035	0.15	1092407	keystroke_a	a	n/a
546.5035	0.165	1093007	keystroke_m	m	n/a
546.6535	0.135	1093307	keystroke_Key.space	Key.space	n/a
546.9685	0.195	1093937	keystroke_v	v	n/a
547.0885	0.135	1094177	keystroke_a	a	n/a
547.3435	0.12	1094687	keystroke_m	m	n/a
547.5685	0.105	1095137	keystroke_p	p	n/a
547.8235	0.15	1095647	keystroke_i	i	n/a
548.1235	0.225	1096247	keystroke_r	r	n/a
548.3035	0.15	1096607	keystroke_e	e	n/a
548.4985	0.105	1096997	keystroke_Key.space	Key.space	n/a
548.7085	0.105	1097417	keystroke_k	k	n/a
548.9035	0.195	1097807	keystroke_i	i	n/a
548.9935	0.135	1097987	keystroke_n	n	n/a
549.1735	0.135	1098347	keystroke_d	d	n/a
549.4285	0.09	1098857	keystroke_a	a	n/a
549.5035	0.105	1099007	keystroke_Key.space	Key.space	n/a
549.7135	0.12	1099427	keystroke_m	m	n/a
549.8185	0.105	1099637	keystroke_e	e	n/a
550.0585	0.045	1100117	keystroke_s	s	n/a
550.2235	0.18	1100447	keystroke_s	s	n/a
550.3435	0.105	1100687	keystroke_e	e	n/a
550.584	0.105	1101168	keystroke_g	g	n/a
550.974	0.0745	1101948	keystroke_Key.backspace	Key.backspace	n/a
551.2145	0.089	1102429	keystroke_n	n	n/a
551.3045	0.105	1102609	keystroke_g	g	n/a
551.4685	0.18	1102937	keystroke_e	e	n/a
551.6045	0.119	1103209	keystroke_r	r	n/a
551.9635	0.15	1103927	keystroke_Key.enter	Key.enter	n/a
552.128	7.4205	1104256	prompt	n/a	anymore dell handbook cabinet\n
552.7445	0.135	1105489	keystroke_a	a	n/a
552.8645	0.09	1105729	keystroke_n	n	n/a
553.1045	0.075	1106209	keystroke_y	y	n/a
553.3595	0.195	1106719	keystroke_m	m	n/a
553.5095	0.135	1107019	keystroke_o	o	n/a
553.6595	0.15	1107319	keystroke_r	r	n/a
553.72	0.1495	1107440	keystroke_e	e	n/a
553.9445	0.12	1107889	keystroke_Key.space	Key.space	n/a
554.1995	0.09	1108399	keystroke_d	d	n/a
554.3945	0.12	1108789	keystroke_e	e	n/a
554.5295	0.0745	1109059	keystroke_l	l	n/a
554.709	0.165	1109418	keystroke_l	l	n/a
554.799	0.18	1109598	keystroke_Key.space	Key.space	n/a
555.009	0.135	1110018	keystroke_h	h	n/a
555.099	0.165	1110198	keystroke_a	a	n/a
555.279	0.075	1110558	keystroke_n	n	n/a
555.384	0.12	1110768	keystroke_d	d	n/a
555.999	0.18	1111998	keystroke_b	b	n/a
556.134	0.09	1112268	keystroke_o	o	n/a
556.314	0.135	1112628	keystroke_o	o	n/a
556.614	0.06	1113228	keystroke_k	k	n/a
557.139	0.09	1114278	keystroke_Key.space	Key.space	n/a
557.3935	0.1205	1114787	keystroke_c	c	n/a
557.589	0.15	1115178	keystroke_a	a	n/a
557.814	0.135	1115628	keystroke_b	b	n/a
557.979	0.09	1115958	keystroke_i	i	n/a
558.1885	0.12	1116377	keystroke_n	n	n/a
558.3535	0.09	1116707	keystroke_a	a	n/a
558.8035	0.075	1117607	keystroke_Key.backspace	Key.backspace	n/a
559.0285	0.195	1118057	keystroke_e	e	n/a
559.1785	0.165	1118357	keystroke_t	t	n/a
559.4035	0.135	1118807	keystroke_Key.enter	Key.enter	n/a
559.5525	8.35	1119105	prompt	n/a	blend rapids opposition decide\n
560.3035	0.135	1120607	keystroke_b	b	n/a
560.4535	0.12	1120907	keystroke_l	l	n/a
560.6035	0.135	1121207	keystroke_e	e	n/a
560.8135	0.09	1121627	keystroke_m	m	n/a
561.2935	0.105	1122587	keystroke_Key.backspace	Key.backspace	n/a
561.5635	0.105	1123127	keystroke_n	n	n/a
561.6985	0.1505	1123397	keystroke_d	d	n/a
561.909	0.0895	1123818	keystroke_Key.space	Key.space	n/a
562.1345	0.2245	1124269	keystroke_r	r	n/a
562.314	0.135	1124628	keystroke_a	a	n/a
562.479	0.12	1124958	keystroke_p	p	n/a
562.674	0.135	1125348	keystroke_i	i	n/a
562.869	0.12	1125738	keystroke_d	d	n/a
563.109	0.135	1126218	keystroke_s	s	n/a
563.259	0.12	1126518	keystroke_Key.space	Key.space	n/a
563.529	0.15	1127058	keystroke_o	o	n/a
563.709	0.105	1127418	keystroke_p	p	n/a
563.919	0.09	1127838	keystroke_p	p	n/a
564.429	0.105	1128858	keystroke_o	o	n/a
564.714	0.03	1129428	keystroke_p	p	n/a
565.059	0.09	1130118	keystroke_Key.backspace	Key.backspace	n/a
565.284	0.12	1130568	keystroke_s	s	n/a
565.374	0.12	1130748	keystroke_i	i	n/a
565.569	0.15	1131138	keystroke_t	t	n/a
565.629	0.285	1131258	keystroke_i	i	n/a
565.719	0.18	1131438	keystroke_o	o	n/a
565.824	0.135	1131648	keystroke_n	n	n/a
566.319	0.09	1132638	keystroke_Key.space	Key.space	n/a
566.529	0.105	1133058	keystroke_d	d	n/a
566.724	0.105	1133448	keystroke_e	e	n/a
566.949	0.15	1133898	keystroke_c	c	n/a
567.129	0.09	1134258	keystroke_i	i	n/a
567.339	0.12	1134678	keystroke_d	d	n/a
567.549	0.135	1135098	keystroke_e	e	n/a
567.789	0.105	1135578	keystroke_Key.enter	Key.enter	n/a
567.9065	6.716	1135813	prompt	n/a	hamilton texts glow beds\n
568.6145	0.09	1137229	keystroke_h	h	n/a
568.7195	0.134	1137439	keystroke_a	a	n/a
568.8695	0.149	1137739	keystroke_m	m	n/a
568.9895	0.06	1137979	keystroke_o	o	n/a
569.6035	0.06	1139207	keystroke_Key.backspace	Key.backspace	n/a
569.8285	0.075	1139657	keystroke_i	i	n/a
570.0245	0.104	1140049	keystroke_l	l	n/a
570.1135	0.135	1140227	keystroke_t	t	n/a
570.2635	0.12	1140527	keystroke_o	o	n/a
570.5335	0.18	1141067	keystroke_n	n	n/a
570.6385	0.15	1141277	keystroke_Key.space	Key.space	n/a
570.9085	0.105	1141817	keystroke_t	t	n/a
571.0595	0.104	1142119	keystroke_e	e	n/a
571.3435	0.1055	1142687	keystroke_x	x	n/a
571.7035	0.12	1143407	keystroke_t	t	n/a
571.9585	0.1505	1143917	keystroke_s	s	n/a
572.2895	0.105	1144579	keystroke_Key.space	Key.space	n/a
572.6945	0.105	1145389	keystroke_g	g	n/a
572.7695	0.09	1145539	keystroke_l	l	n/a
572.9795	0.135	1145959	keystroke_o	o	n/a
573.1595	0.135	1146319	keystroke_w	w	n/a
573.3095	0.12	1146619	keystroke_Key.space	Key.space	n/a
573.6245	0.105	1147249	keystroke_b	b	n/a
573.8495	0.09	1147699	keystroke_e	e	n/a
574.0595	0.135	1148119	keystroke_d	d	n/a
574.2235	0.151	1148447	keystroke_s	s	n/a
574.4945	0.119	1148989	keystroke_Key.enter	Key.enter	n/a
574.64	7.7005	1149280	prompt	n/a	those're covers manner restore\n
575.2735	0.136	1150547	keystroke_t	t	n/a
575.4235	0.121	1150847	keystroke_h	h	n/a
576.0685	0.18	1152137	keystroke_s	s	n/a
576.3835	0.09	1152767	keystroke_Key.backspace	Key.backspace	n/a
576.6385	0.135	1153277	keystroke_o	o	n/a
576.6985	0.2105	1153397	keystroke_s	s	n/a
576.8185	0.1505	1153637	keystroke_e	e	n/a
577.089	0.135	1154178	keystroke_'	'	n/a
577.494	0.165	1154988	keystroke_r	r	n/a
577.585	0.134	1155170	keystroke_e	e	n/a
578.034	0.105	1156068	keystroke_Key.space	Key.space	n/a
578.799	0.09	1157598	keystroke_c	c	n/a
578.874	0.105	1157748	keystroke_o	o	n/a
578.994	0.12	1157988	keystroke_v	v	n/a
579.1585	0.21	1158317	keystroke_e	e	n/a
579.3085	0.12	1158617	keystroke_r	r	n/a
579.5185	0.1365	1159037	keystroke_s	s	n/a
579.669	0.12	1159338	keystroke_Key.space	Key.space	n/a
579.924	0.105	1159848	keystroke_m	m	n/a
580.044	0.105	1160088	keystroke_a	a	n/a
580.15	0.074	1160300	keystroke_n	n	n/a
580.329	0.09	1160658	keystroke_n	n	n/a
580.404	0.165	1160808	keystroke_e	e	n/a
580.494	0.15	1160988	keystroke_r	r	n/a
580.645	0.104	1161290	keystroke_Key.space	Key.space	n/a
580.824	0.12	1161648	keystroke_r	r	n/a
580.884	0.12	1161768	keystroke_e	e	n/a
581.124	0.135	1162248	keystroke_s	s	n/a
581.469	0.12	1162938	keystroke_t	t	n/a
581.619	0.15	1163238	keystroke_o	o	n/a
581.829	0.195	1163658	keystroke_r	r	n/a
581.949	0.15	1163898	keystroke_e	e	n/a
582.234	0.1055	1164468	keystroke_Key.enter	Key.enter	n/a
582.344	7.984	1164688	prompt	n/a	indicates receive moreover destinations\n
583.0445	0.105	1166089	keystroke_i	i	n/a
583.2245	0.105	1166449	keystroke_n	n	n/a
583.3445	0.165	1166689	keystroke_d	d	n/a
583.4645	0.09	1166929	keystroke_i	i	n/a
583.6295	0.15	1167259	keystroke_c	c	n/a
583.8245	0.105	1167649	keystroke_a	a	n/a
583.9145	0.195	1167829	keystroke_t	t	n/a
