onset	duration	sample	value	key	prompt_text
15.8555	39.2255	31711	prompt	n/a	the quick brown fox jumps over a lazy dog\n
42.541	0.027	85082	keystroke_t	t	n/a
42.583	0.105	85166	keystroke_h	h	n/a
42.719	0.104	85438	keystroke_e	e	n/a
42.808	0.105	85616	keystroke_Key.space	Key.space	n/a
43.7985	0.0905	87597	keystroke_q	q	n/a
44.0235	0.1055	88047	keystroke_u	u	n/a
44.279	0.1195	88558	keystroke_i	i	n/a
44.504	0.12	89008	keystroke_c	c	n/a
44.774	0.15	89548	keystroke_k	k	n/a
45.073	0.121	90146	keystroke_Key.space	Key.space	n/a
45.8385	0.09	91677	keystroke_b	b	n/a
46.258	0.046	92516	keystroke_r	r	n/a
46.393	0.136	92786	keystroke_o	o	n/a
46.513	0.136	93026	keystroke_w	w	n/a
46.7085	0.1205	93417	keystroke_n	n	n/a
46.949	0.12	93898	keystroke_Key.space	Key.space	n/a
47.249	0.09	94498	keystroke_f	f	n/a
47.534	0.12	95068	keystroke_o	o	n/a
47.924	0.105	95848	keystroke_x	x	n/a
48.134	0.09	96268	keystroke_Key.space	Key.space	n/a
48.8235	0.09	97647	keystroke_j	j	n/a
49.079	0.1045	98158	keystroke_u	u	n/a
49.408	0.105	98816	keystroke_m	m	n/a
49.633	0.135	99266	keystroke_p	p	n/a
49.783	0.105	99566	keystroke_s	s	n/a
50.069	0.135	100138	keystroke_Key.space	Key.space	n/a
50.189	0.1645	100378	keystroke_o	o	n/a
50.6085	0.075	101217	keystroke_v	v	n/a
50.9385	0.165	101877	keystroke_e	e	n/a
51.0885	0.1355	102177	keystroke_r	r	n/a
51.2535	0.12	102507	keystroke_Key.space	Key.space	n/a
51.4335	0.1355	102867	keystroke_a	a	n/a
51.554	0.1495	103108	keystroke_Key.space	Key.space	n/a
52.019	0.135	104038	keystroke_l	l	n/a
52.4535	0.12	104907	keystroke_a	a	n/a
52.814	0.09	105628	keystroke_z	z	n/a
53.204	0.1955	106408	keystroke_y	y	n/a
53.3685	0.15	106737	keystroke_Key.space	Key.space	n/a
53.7135	0.135	107427	keystroke_d	d	n/a
53.8635	0.12	107727	keystroke_o	o	n/a
54.1935	0.1355	108387	keystroke_g	g	n/a
54.988	0.091	109976	keystroke_Key.enter	Key.enter	n/a
55.085	9.4755	110170	prompt	n/a	altered claire poison bodies\n
56.129	0.09	112258	keystroke_a	a	n/a
56.414	0.1495	112828	keystroke_l	l	n/a
56.654	0.135	113308	keystroke_t	t	n/a
56.939	0.1795	113878	keystroke_e	e	n/a
57.0585	0.15	114117	keystroke_r	r	n/a
57.554	0.075	115108	keystroke_e	e	n/a
57.883	0.0905	115766	keystroke_d	d	n/a
58.1535	0.1345	116307	keystroke_Key.space	Key.space	n/a
58.574	0.12	117148	keystroke_c	c	n/a
58.904	0.165	117808	keystroke_l	l	n/a
59.0995	0.1045	118199	keystroke_a	a	n/a
59.294	0.135	118588	keystroke_i	i	n/a
59.444	0.135	118888	keystroke_r	r	n/a
59.564	0.15	119128	keystroke_e	e	n/a
59.924	0.105	119848	keystroke_Key.space	Key.space	n/a
60.149	0.09	120298	keystroke_p	p	n/a
60.329	0.1345	120658	keystroke_o	o	n/a
60.4485	0.15	120897	keystroke_i	i	n/a
60.914	0.105	121828	keystroke_s	s	n/a
61.6635	0.1355	123327	keystroke_o	o	n/a
61.979	0.12	123958	keystroke_n	n	n/a
62.264	0.1045	124528	keystroke_Key.space	Key.space	n/a
62.804	0.12	125608	keystroke_b	b	n/a
63.0135	0.1355	126027	keystroke_o	o	n/a
63.329	0.1345	126658	keystroke_d	d	n/a
63.6135	0.12	127227	keystroke_i	i	n/a
63.7935	0.1355	127587	keystroke_e	e	n/a
64.079	0.12	128158	keystroke_s	s	n/a
64.424	0.135	128848	keystroke_Key.enter	Key.enter	n/a
64.564	7.3165	129128	prompt	n/a	rats shut immune tires\n
65.594	0.165	131188	keystroke_r	r	n/a
65.7885	0.12	131577	keystroke_a	a	n/a
65.9835	0.1205	131967	keystroke_t	t	n/a
66.283	0.105	132566	keystroke_s	s	n/a
66.5535	0.12	133107	keystroke_Key.space	Key.space	n/a
66.779	0.1345	133558	keystroke_s	s	n/a
66.9435	0.0755	133887	keystroke_h	h	n/a
67.1835	0.075	134367	keystroke_u	u	n/a
67.409	0.045	134818	keystroke_t	t	n/a
67.649	0.1345	135298	keystroke_Key.space	Key.space	n/a
68.1435	0.1055	136287	keystroke_i	i	n/a
68.4735	0.0595	136947	keystroke_m	m	n/a
68.5635	0.1195	137127	keystroke_m	m	n/a
69.0735	0.0895	138147	keystroke_u	u	n/a
69.3435	0.1505	138687	keystroke_n	n	n/a
69.5985	0.1055	139197	keystroke_e	e	n/a
69.944	0.104	139888	keystroke_Key.space	Key.space	n/a
70.349	0.105	140698	keystroke_t	t	n/a
70.499	0.135	140998	keystroke_i	i	n/a
70.649	0.105	141298	keystroke_r	r	n/a
71.264	0.06	142528	keystroke_e	e	n/a
71.429	0.1195	142858	keystroke_s	s	n/a
71.774	0.105	143548	keystroke_Key.enter	Key.enter	n/a
71.884	10.946	143768	prompt	n/a	developing cold hearts catch\n
72.959	0.105	145918	keystroke_d	d	n/a
73.244	0.075	146488	keystroke_e	e	n/a
73.559	0.12	147118	keystroke_v	v	n/a
73.799	0.105	147598	keystroke_e	e	n/a
73.9485	0.09	147897	keystroke_l	l	n/a
74.188	0.105	148376	keystroke_o	o	n/a
74.459	0.09	148918	keystroke_p	p	n/a
74.699	0.195	149398	keystroke_i	i	n/a
74.909	0.1195	149818	keystroke_n	n	n/a
75.0435	0.045	150087	keystroke_g	g	n/a
75.314	0.0895	150628	keystroke_Key.space	Key.space	n/a
76.004	0.1345	152008	keystroke_c	c	n/a
76.1835	0.09	152367	keystroke_o	o	n/a
76.454	0.12	152908	keystroke_l	l	n/a
76.679	0.15	153358	keystroke_d	d	n/a
76.919	0.0895	153838	keystroke_Key.space	Key.space	n/a
77.144	0.1195	154288	keystroke_h	h	n/a
77.4735	0.1955	154947	keystroke_a	a	n/a
78.269	0.1195	156538	keystroke_Key.backspace	Key.backspace	n/a
78.464	0.1345	156928	keystroke_e	e	n/a
78.6135	0.135	157227	keystroke_a	a	n/a
78.719	0.0745	157438	keystroke_r	r	n/a
79.2285	0.1045	158457	keystroke_t	t	n/a
79.633	0.136	159266	keystroke_s	s	n/a
79.9335	0.105	159867	keystroke_Key.space	Key.space	n/a
80.5035	0.105	161007	keystroke_c	c	n/a
80.849	0.1345	161698	keystroke_a	a	n/a
81.149	0.105	162298	keystroke_t	t	n/a
81.613	0.076	163226	keystroke_c	c	n/a
81.944	0.1345	163888	keystroke_h	h	n/a
82.7235	0.1045	165447	keystroke_Key.enter	Key.enter	n/a
82.834	16.632	165668	prompt	n/a	hourly calcium trailers oklahoma\n
83.699	0.12	167398	keystroke_h	h	n/a
83.939	0.24	167878	keystroke_o	o	n/a
84.119	0.15	168238	keystroke_u	u	n/a
84.329	0.135	168658	keystroke_r	r	n/a
84.554	0.165	169108	keystroke_l	l	n/a
84.989	0.135	169978	keystroke_y	y	n/a
85.184	0.135	170368	keystroke_Key.space	Key.space	n/a
85.544	0.1045	171088	keystroke_c	c	n/a
85.919	0.12	171838	keystroke_a	a	n/a
86.174	0.1345	172348	keystroke_l	l	n/a
86.714	0.0895	173428	keystroke_c	c	n/a
87.1935	0.135	174387	keystroke_i	i	n/a
87.5985	0.135	175197	keystroke_u	u	n/a
88.0795	0.12	176159	keystroke_m	m	n/a
88.408	0.09	176816	keystroke_Key.space	Key.space	n/a
88.694	0.134	177388	keystroke_t	t	n/a
88.963	0.1355	177926	keystroke_r	r	n/a
89.0995	0.134	178199	keystroke_a	a	n/a
89.5035	0.09	179007	keystroke_i	i	n/a
89.8785	0.1205	179757	keystroke_l	l	n/a
90.0585	0.1655	180117	keystroke_e	e	n/a
90.193	0.1505	180386	keystroke_r	r	n/a
90.449	0.1045	180898	keystroke_s	s	n/a
90.6735	0.0905	181347	keystroke_Key.space	Key.space	n/a
91.049	0.105	182098	keystroke_o	o	n/a
91.379	0.135	182758	keystroke_k	k	n/a
92.714	0.15	185428	keystroke_l	l	n/a
92.969	0.12	185938	keystroke_a	a	n/a
94.139	0.135	188278	keystroke_h	h	n/a
94.319	0.135	188638	keystroke_o	o	n/a
94.619	0.15	189238	keystroke_m	m	n/a
94.844	0.105	189688	keystroke_a	a	n/a
99.3455	0.118	198691	keystroke_Key.enter	Key.enter	n/a
99.471	16.33	198942	prompt	n/a	iraqi crest glad columbus\n
100.334	0.1945	200668	keystroke_i	i	n/a
100.7085	0.12	201417	keystroke_r	r	n/a
100.9785	0.121	201957	keystroke_a	a	n/a
101.909	0.0745	203818	keystroke_q	q	n/a
102.2535	0.09	204507	keystroke_u	u	n/a
103.124	0.0745	206248	keystroke_Key.backspace	Key.backspace	n/a
103.424	0.1645	206848	keystroke_i	i	n/a
103.949	0.12	207898	keystroke_Key.space	Key.space	n/a
105.3285	0.09	210657	keystroke_c	c	n/a
105.7935	0.1505	211587	keystroke_r	r	n/a
106.019	0.1195	212038	keystroke_e	e	n/a
106.289	0.105	212578	keystroke_s	s	n/a
106.604	0.135	213208	keystroke_t	t	n/a
106.889	0.105	213778	keystroke_Key.space	Key.space	n/a
107.3995	0.1495	214799	keystroke_g	g	n/a
107.7595	0.1495	215519	keystroke_l	l	n/a
107.894	0.0745	215788	keystroke_a	a	n/a
108.1935	0.1355	216387	keystroke_d	d	n/a
108.404	0.135	216808	keystroke_Key.space	Key.space	n/a
108.779	0.15	217558	keystroke_c	c	n/a
109.019	0.075	218038	keystroke_o	o	n/a
109.424	0.15	218848	keystroke_l	l	n/a
109.844	0.12	219688	keystroke_u	u	n/a
110.189	0.105	220378	keystroke_m	m	n/a
110.939	0.12	221878	keystroke_b	b	n/a
111.134	0.12	222268	keystroke_u	u	n/a
111.359	0.12	222718	keystroke_s	s	n/a
115.785	0.014	231570	keystroke_Key.enter	Key.enter	n/a
115.807	11.654	231614	prompt	n/a	improvements determination supporting clan\n
117.1785	0.15	234357	keystroke_i	i	n/a
117.494	0.1195	234988	keystroke_m	m	n/a
117.7485	0.151	235497	keystroke_p	p	n/a
118.0035	0.12	236007	keystroke_r	r	n/a
118.1685	0.135	236337	keystroke_o	o	n/a
118.4695	0.0895	236939	keystroke_v	v	n/a
118.679	0.12	237358	keystroke_e	e	n/a
118.919	0.12	237838	keystroke_m	m	n/a
119.114	0.105	238228	keystroke_e	e	n/a
119.324	0.105	238648	keystroke_n	n	n/a
119.564	0.09	239128	keystroke_t	t	n/a
119.894	0.105	239788	keystroke_s	s	n/a
120.1785	0.09	240357	keystroke_Key.space	Key.space	n/a
120.539	0.105	241078	keystroke_d	d	n/a
120.824	0.1045	241648	keystroke_e	e	n/a
121.139	0.075	242278	keystroke_t	t	n/a
121.3485	0.1655	242697	keystroke_e	e	n/a
121.4835	0.136	242967	keystroke_r	r	n/a
121.7535	0.1055	243507	keystroke_m	m	n/a
121.994	0.15	243988	keystroke_i	i	n/a
122.1285	0.166	244257	keystroke_n	n	n/a
122.369	0.1655	244738	keystroke_a	a	n/a
122.504	0.12	245008	keystroke_t	t	n/a
122.683	0.196	245366	keystroke_i	i	n/a
122.743	0.181	245486	keystroke_o	o	n/a
122.864	0.15	245728	keystroke_n	n	n/a
123.553	0.105	247106	keystroke_Key.space	Key.space	n/a
123.839	0.105	247678	keystroke_s	s	n/a
124.079	0.12	248158	keystroke_u	u	n/a
124.244	0.105	248488	keystroke_p	p	n/a
124.439	0.12	248878	keystroke_p	p	n/a
124.679	0.165	249358	keystroke_o	o	n/a
124.814	0.1055	249628	keystroke_r	r	n/a
125.069	0.0905	250138	keystroke_t	t	n/a
125.234	0.1655	250468	keystroke_i	i	n/a
125.384	0.165	250768	keystroke_n	n	n/a
125.534	0.09	251068	keystroke_g	g	n/a
125.849	0.0755	251698	keystroke_Key.space	Key.space	n/a
126.374	0.12	252748	keystroke_c	c	n/a
126.614	0.119	253228	keystroke_l	l	n/a
126.869	0.0895	253738	keystroke_a	a	n/a
127.0645	0.105	254129	keystroke_n	n	n/a
127.3935	0.06	254787	keystroke_Key.enter	Key.enter	n/a
127.464	12.325	254928	prompt	n/a	christina teen searched armstrong\n
128.504	0.105	257008	keystroke_c	c	n/a
128.699	0.12	257398	keystroke_h	h	n/a
129.044	0.165	258088	keystroke_r	r	n/a
129.344	0.12	258688	keystroke_i	i	n/a
129.524	0.09	259048	keystroke_s	s	n/a
129.839	0.1045	259678	keystroke_t	t	n/a
129.9885	0.1505	259977	keystroke_i	i	n/a
130.124	0.179	260248	keystroke_n	n	n/a
130.334	0.105	260668	keystroke_a	a	n/a
130.694	0.075	261388	keystroke_Key.space	Key.space	n/a
131.099	0.0905	262198	keystroke_t	t	n/a
131.444	0.135	262888	keystroke_e	e	n/a
131.774	0.09	263548	keystroke_e	e	n/a
132.059	0.1195	264118	keystroke_n	n	n/a
132.989	0.105	265978	keystroke_Key.space	Key.space	n/a
133.9485	0.0905	267897	keystroke_s	s	n/a
134.294	0.18	268588	keystroke_e	e	n/a
134.489	0.18	268978	keystroke_a	a	n/a
134.654	0.0595	269308	keystroke_r	r	n/a
135.2095	0.1495	270419	keystroke_c	c	n/a
135.419	0.12	270838	keystroke_h	h	n/a
135.6445	0.075	271289	keystroke_e	e	n/a
136.213	0.1505	272426	keystroke_d	d	n/a
136.5435	0.09	273087	keystroke_Key.space	Key.space	n/a
136.8895	0.1495	273779	keystroke_a	a	n/a
137.129	0.09	274258	keystroke_r	r	n/a
137.414	0.135	274828	keystroke_m	m	n/a
137.6995	0.0895	275399	keystroke_s	s	n/a
138.014	0.0895	276028	keystroke_t	t	n/a
138.2395	0.1195	276479	keystroke_r	r	n/a
138.509	0.165	277018	keystroke_o	o	n/a
138.689	0.165	277378	keystroke_n	n	n/a
138.914	0.09	277828	keystroke_g	g	n/a
139.694	0.089	279388	keystroke_Key.enter	Key.enter	n/a
139.792	17.5585	279584	prompt	n/a	novels distinguished recommendations register\n
141.0595	0.119	282119	keystroke_n	n	n/a
141.3285	0.15	282657	keystroke_o	o	n/a
141.5835	0.091	283167	keystroke_v	v	n/a
141.8245	0.104	283649	keystroke_e	e	n/a
142.0195	0.134	284039	keystroke_l	l	n/a
142.259	0.1195	284518	keystroke_s	s	n/a
142.9335	0.151	285867	keystroke_Key.space	Key.space	n/a
143.203	0.105	286406	keystroke_d	d	n/a
143.413	0.12	286826	keystroke_i	i	n/a
143.624	0.09	287248	keystroke_s	s	n/a
143.999	0.03	287998	keystroke_t	t	n/a
144.328	0.15	288656	keystroke_i	i	n/a
144.6585	0.135	289317	keystroke_n	n	n/a
145.214	0.0895	290428	keystroke_u	u	n/a
145.828	0.106	291656	keystroke_Key.backspace	Key.backspace	n/a
146.054	0.12	292108	keystroke_g	g	n/a
146.324	0.105	292648	keystroke_u	u	n/a
146.579	0.105	293158	keystroke_i	i	n/a
146.789	0.105	293578	keystroke_s	s	n/a
147.074	0.105	294148	keystroke_h	h	n/a
147.299	0.0905	294598	keystroke_e	e	n/a
147.644	0.135	295288	keystroke_d	d	n/a
147.974	0.09	295948	keystroke_Key.space	Key.space	n/a
148.394	0.15	296788	keystroke_r	r	n/a
148.5895	0.1195	297179	keystroke_e	e	n/a
148.9935	0.1055	297987	keystroke_c	c	n/a
149.2185	0.075	298437	keystroke_o	o	n/a
149.5335	0.06	299067	keystroke_m	m	n/a
149.6685	0.09	299337	keystroke_m	m	n/a
149.8335	0.1055	299667	keystroke_e	e	n/a
149.999	0.0905	299998	keystroke_n	n	n/a
150.209	0.1055	300418	keystroke_d	d	n/a
150.509	0.135	301018	keystroke_a	a	n/a
150.689	0.09	301378	keystroke_t	t	n/a
150.854	0.195	301708	keystroke_i	i	n/a
150.944	0.15	301888	keystroke_o	o	n/a
151.064	0.12	302128	keystroke_n	n	n/a
151.199	0.105	302398	keystroke_s	s	n/a
151.859	0.135	303718	keystroke_Key.space	Key.space	n/a
152.399	0.165	304798	keystroke_r	r	n/a
152.609	0.1355	305218	keystroke_e	e	n/a
153.029	0.105	306058	keystroke_i	i	n/a
153.209	0.12	306418	keystroke_s	s	n/a
153.509	0.09	307018	keystroke_t	t	n/a
154.1685	0.105	308337	keystroke_Key.backspace	Key.backspace	n/a
154.4085	0.045	308817	keystroke_Key.backspace	Key.backspace	n/a
154.589	0.0895	309178	keystroke_Key.backspace	Key.backspace	n/a
154.9335	0.12	309867	keystroke_g	g	n/a
155.1285	0.105	310257	keystroke_i	i	n/a
155.369	0.1055	310738	keystroke_s	s	n/a
155.6985	0.091	311397	keystroke_t	t	n/a
155.9835	0.1655	311967	keystroke_e	e	n/a
156.5685	0.045	313137	keystroke_r	r	n/a
157.214	0.135	314428	keystroke_Key.enter	Key.enter	n/a
157.354	18.042	314708	prompt	n/a	enhanced notification gadgets summaries\n
158.3695	0.1045	316739	keystroke_e	e	n/a
158.594	0.09	317188	keystroke_n	n	n/a
158.954	0.1055	317908	keystroke_h	h	n/a
159.179	0.1055	318358	keystroke_a	a	n/a
159.344	0.12	318688	keystroke_n	n	n/a
159.659	0.09	319318	keystroke_c	c	n/a
159.974	0.09	319948	keystroke_e	e	n/a
160.709	0.1195	321418	keystroke_d	d	n/a
161.444	0.075	322888	keystroke_Key.space	Key.space	n/a
161.669	0.12	323338	keystroke_n	n	n/a
162.029	0.015	324058	keystroke_o	o	n/a
162.149	0.12	324298	keystroke_t	t	n/a
162.404	0.12	324808	keystroke_i	i	n/a
163.2445	0.1045	326489	keystroke_i	i	n/a
163.949	0.12	327898	keystroke_Key.backspace	Key.backspace	n/a
164.1435	0.136	328287	keystroke_f	f	n/a
164.3245	0.12	328649	keystroke_i	i	n/a
164.5945	0.089	329189	keystroke_c	c	n/a
164.8945	0.09	329789	keystroke_a	a	n/a
165.164	0.03	330328	keystroke_t	t	n/a
165.209	0.2695	330418	keystroke_i	i	n/a
165.3585	0.1805	330717	keystroke_o	o	n/a
165.509	0.1345	331018	keystroke_n	n	n/a
165.6285	0.1055	331257	keystroke_s	s	n/a
166.1835	0.135	332367	keystroke_Key.space	Key.space	n/a
166.709	0.0755	333418	keystroke_g	g	n/a
166.859	0.1345	333718	keystroke_a	a	n/a
167.2935	0.135	334587	keystroke_t	t	n/a
167.9835	0.135	335967	keystroke_Key.backspace	Key.backspace	n/a
168.1645	0.15	336329	keystroke_d	d	n/a
168.7645	0.1195	337529	keystroke_e	e	n/a
169.259	0.15	338518	keystroke_Key.backspace	Key.backspace	n/a
170.1445	0.1345	340289	keystroke_g	g	n/a
170.4135	0.12	340827	keystroke_e	e	n/a
170.8335	0.1055	341667	keystroke_t	t	n/a
171.1495	0.149	342299	keystroke_s	s	n/a
172.079	0.12	344158	keystroke_Key.space	Key.space	n/a
172.364	0.135	344728	keystroke_s	s	n/a
172.724	0.075	345448	keystroke_u	u	n/a
173.144	0.075	346288	keystroke_m	m	n/a
173.309	0.0895	346618	keystroke_m	m	n/a
173.5645	0.1495	347129	keystroke_a	a	n/a
173.759	0.12	347518	keystroke_r	r	n/a
173.969	0.15	347938	keystroke_i	i	n/a
174.134	0.09	348268	keystroke_e	e	n/a
174.4035	0.12	348807	keystroke_s	s	n/a
175.2435	0.15	350487	keystroke_Key.enter	Key.enter	n/a
175.3995	8.3065	350799	prompt	n/a	looks belle vast tags\n
176.9535	0.121	353907	keystroke_l	l	n/a
177.2995	0.06	354599	keystroke_o	o	n/a
177.4645	0.06	354929	keystroke_o	o	n/a
177.704	0.15	355408	keystroke_k	k	n/a
177.839	0.105	355678	keystroke_s	s	n/a
178.034	0.09	356068	keystroke_Key.space	Key.space	n/a
178.6795	0.09	357359	keystroke_b	b	n/a
178.889	0.12	357778	keystroke_e	e	n/a
179.129	0.06	358258	keystroke_l	l	n/a
179.309	0.09	358618	keystroke_l	l	n/a
179.639	0.1055	359278	keystroke_e	e	n/a
179.939	0.135	359878	keystroke_Key.space	Key.space	n/a
180.4635	0.075	360927	keystroke_v	v	n/a
180.7935	0.03	361587	keystroke_a	a	n/a
181.0335	0.12	362067	keystroke_s	s	n/a
181.424	0.12	362848	keystroke_t	t	n/a
181.634	0.135	363268	keystroke_Key.space	Key.space	n/a
182.174	0.165	364348	keystroke_t	t	n/a
182.4445	0.1045	364889	keystroke_a	a	n/a
182.729	0.105	365458	keystroke_g	g	n/a
183.044	0.135	366088	keystroke_s	s	n/a
183.599	0.105	367198	keystroke_Key.enter	Key.enter	n/a
183.709	10.512	367418	prompt	n/a	enabling sauce mild property\n
184.409	0.1195	368818	keystroke_e	e	n/a
184.649	0.1355	369298	keystroke_n	n	n/a
184.8445	0.104	369689	keystroke_a	a	n/a
185.189	0.1055	370378	keystroke_b	b	n/a
185.399	0.1205	370798	keystroke_l	l	n/a
185.669	0.105	371338	keystroke_i	i	n/a
185.909	0.135	371818	keystroke_n	n	n/a
186.1495	0.105	372299	keystroke_g	g	n/a
186.4345	0.119	372869	keystroke_Key.space	Key.space	n/a
186.7195	0.1195	373439	keystroke_s	s	n/a
187.109	0.105	374218	keystroke_a	a	n/a
187.289	0.135	374578	keystroke_u	u	n/a
187.529	0.12	375058	keystroke_s	s	n/a
188.0095	0.1045	376019	keystroke_Key.backspace	Key.backspace	n/a
188.294	0.12	376588	keystroke_c	c	n/a
188.624	0.09	377248	keystroke_e	e	n/a
188.9085	0.09	377817	keystroke_Key.space	Key.space	n/a
189.2995	0.15	378599	keystroke_m	m	n/a
189.5395	0.1045	379079	keystroke_i	i	n/a
189.8085	0.12	379617	keystroke_l	l	n/a
190.0635	0.091	380127	keystroke_d	d	n/a
190.3035	0.075	380607	keystroke_Key.space	Key.space	n/a
190.5145	0.105	381029	keystroke_p	p	n/a
190.7695	0.1345	381539	keystroke_o	o	n/a
190.9645	0.1045	381929	keystroke_r	r	n/a
191.684	0.09	383368	keystroke_Key.backspace	Key.backspace	n/a
191.954	0.09	383908	keystroke_Key.backspace	Key.backspace	n/a
192.2995	0.1195	384599	keystroke_r	r	n/a
192.554	0.1055	385108	keystroke_o	o	n/a
192.7795	0.1045	385559	keystroke_p	p	n/a
193.0045	0.165	386009	keystroke_e	e	n/a
193.1695	0.1345	386339	keystroke_r	r	n/a
193.4695	0.0595	386939	keystroke_t	t	n/a
193.709	0.1055	387418	keystroke_y	y	n/a
194.129	0.0905	388258	keystroke_Key.enter	Key.enter	n/a
194.225	10.6455	388450	prompt	n/a	poems ma'am regards academics\n
195.434	0.135	390868	keystroke_p	p	n/a
195.6145	0.134	391229	keystroke_e	e	n/a
196.514	0.075	393028	keystroke_Key.backspace	Key.backspace	n/a
196.799	0.12	393598	keystroke_o	o	n/a
196.9645	0.1195	393929	keystroke_e	e	n/a
197.1595	0.1045	394319	keystroke_m	m	n/a
197.3695	0.1045	394739	keystroke_s	s	n/a
197.714	0.1055	395428	keystroke_Key.space	Key.space	n/a
198.044	0.135	396088	keystroke_m	m	n/a
198.2095	0.1195	396419	keystroke_a	a	n/a
198.509	0.15	397018	keystroke_'	'	n/a
198.824	0.1205	397648	keystroke_a	a	n/a
199.1545	0.105	398309	keystroke_m	m	n/a
199.5145	0.105	399029	keystroke_Key.space	Key.space	n/a
200.0095	0.15	400019	keystroke_r	r	n/a
200.2345	0.15	400469	keystroke_e	e	n/a
200.4895	0.105	400979	keystroke_g	g	n/a
200.7295	0.1345	401459	keystroke_a	a	n/a
200.879	0.045	401758	keystroke_r	r	n/a
201.224	0.105	402448	keystroke_d	d	n/a
201.4645	0.105	402929	keystroke_s	s	n/a
201.674	0.1205	403348	keystroke_Key.space	Key.space	n/a
201.9285	0.076	403857	keystroke_a	a	n/a
202.214	0.1055	404428	keystroke_c	c	n/a
202.484	0.09	404968	keystroke_a	a	n/a
202.7695	0.1195	405539	keystroke_d	d	n/a
203.3095	0.089	406619	keystroke_e	e	n/a
203.549	0.0905	407098	keystroke_m	m	n/a
203.8195	0.1195	407639	keystroke_i	i	n/a
204.059	0.1055	408118	keystroke_c	c	n/a
204.3895	0.075	408779	keystroke_s	s	n/a
204.7485	0.121	409497	keystroke_Key.enter	Key.enter	n/a
204.8735	11.427	409747	prompt	n/a	feedback baker petite there'd\n
205.9785	0.091	411957	keystroke_f	f	n/a
206.2185	0.105	412437	keystroke_e	e	n/a
206.444	0.09	412888	keystroke_e	e	n/a
207.1495	0.105	414299	keystroke_d	d	n/a
208.259	0.0895	416518	keystroke_b	b	n/a
208.5435	0.06	417087	keystroke_a	a	n/a
208.8885	0.135	417777	keystroke_c	c	n/a
209.2345	0.075	418469	keystroke_k	k	n/a
209.669	0.1045	419338	keystroke_Key.space	Key.space	n/a
209.9385	0.121	419877	keystroke_b	b	n/a
210.209	0.0895	420418	keystroke_a	a	n/a
210.404	0.1205	420808	keystroke_k	k	n/a
210.5995	0.164	421199	keystroke_e	e	n/a
210.794	0.1495	421588	keystroke_r	r	n/a
211.0485	0.105	422097	keystroke_Key.space	Key.space	n/a
211.499	0.1355	422998	keystroke_p	p	n/a
211.6945	0.134	423389	keystroke_e	e	n/a
212.0535	0.075	424107	keystroke_t	t	n/a
212.2945	0.134	424589	keystroke_i	i	n/a
212.4585	0.09	424917	keystroke_t	t	n/a
212.7595	0.105	425519	keystroke_e	e	n/a
213.1635	0.12	426327	keystroke_Key.space	Key.space	n/a
213.584	0.105	427168	keystroke_t	t	n/a
213.8385	0.1205	427677	keystroke_h	h	n/a
214.0935	0.15	428187	keystroke_e	e	n/a
214.634	0.135	429268	keystroke_r	r	n/a
214.9795	0.1045	429959	keystroke_e	e	n/a
215.3395	0.1645	430679	keystroke_'	'	n/a
215.819	0.15	431638	keystroke_s	s	n/a
216.164	0.135	432328	keystroke_Key.enter	Key.enter	n/a
216.304	15.162	432608	prompt	n/a	purposes nutritional minority scholarships\n
217.1985	0.15	434397	keystroke_p	p	n/a
217.4835	0.1055	434967	keystroke_u	u	n/a
217.709	0.12	435418	keystroke_r	r	n/a
217.9635	0.135	435927	keystroke_p	p	n/a
218.2485	0.12	436497	keystroke_o	o	n/a
218.459	0.1195	436918	keystroke_s	s	n/a
218.7145	0.089	437429	keystroke_e	e	n/a
218.969	0.12	437938	keystroke_s	s	n/a
219.2235	0.09	438447	keystroke_Key.space	Key.space	n/a
219.764	0.1205	439528	keystroke_n	n	n/a
220.1235	0.1205	440247	keystroke_u	u	n/a
220.334	0.1045	440668	keystroke_t	t	n/a
220.5735	0.075	441147	keystroke_r	r	n/a
220.7235	0.09	441447	keystroke_i	i	n/a
221.069	0.0895	442138	keystroke_t	t	n/a
221.2035	0.225	442407	keystroke_i	i	n/a
221.339	0.1655	442678	keystroke_o	o	n/a
221.4595	0.15	442919	keystroke_n	n	n/a
221.6545	0.105	443309	keystroke_a	a	n/a
221.834	0.0905	443668	keystroke_l	l	n/a
222.299	0.09	444598	keystroke_Key.space	Key.space	n/a
222.944	0.1045	445888	keystroke_m	m	n/a
223.2435	0.1505	446487	keystroke_i	i	n/a
223.424	0.135	446848	keystroke_n	n	n/a
223.619	0.135	447238	keystroke_o	o	n/a
223.814	0.135	447628	keystroke_r	r	n/a
223.979	0.135	447958	keystroke_i	i	n/a
224.159	0.105	448318	keystroke_t	t	n/a
224.354	0.105	448708	keystroke_y	y	n/a
224.9235	0.105	449847	keystroke_Key.space	Key.space	n/a
225.0735	0.1205	450147	keystroke_s	s	n/a
225.4335	0.1205	450867	keystroke_c	c	n/a
225.5835	0.1055	451167	keystroke_h	h	n/a
225.719	0.0895	451438	keystroke_o	o	n/a
225.974	0.045	451948	keystroke_l	l	n/a
226.1985	0.15	452397	keystroke_o	o	n/a
226.3645	0.134	452729	keystroke_r	r	n/a
226.7095	0.1345	453419	keystroke_s	s	n/a
226.9785	0.0905	453957	keystroke_h	h	n/a
228.2985	0.075	456597	keystroke_Key.backspace	Key.backspace	n/a
228.5385	0.076	457077	keystroke_Key.backspace	Key.backspace	n/a
228.8235	0.091	457647	keystroke_Key.backspace	Key.backspace	n/a
229.2295	0.105	458459	keystroke_Key.backspace	Key.backspace	n/a
229.6195	0.1195	459239	keystroke_a	a	n/a
229.784	0.12	459568	keystroke_r	r	n/a
230.114	0.105	460228	keystroke_s	s	n/a
230.249	0.12	460498	keystroke_h	h	n/a
230.399	0.1655	460798	keystroke_i	i	n/a
230.5795	0.119	461159	keystroke_p	p	n/a
230.8335	0.1355	461667	keystroke_s	s	n/a
231.3585	0.105	462717	keystroke_Key.enter	Key.enter	n/a
231.4705	11.41	462941	prompt	n/a	england expressions subsection targets\n
232.3485	0.106	464697	keystroke_e	e	n/a
232.634	0.1355	465268	keystroke_n	n	n/a
232.8735	0.0605	465747	keystroke_g	g	n/a
233.0835	0.106	466167	keystroke_l	l	n/a
233.2195	0.104	466439	keystroke_a	a	n/a
233.3835	0.06	466767	keystroke_n	n	n/a
233.5345	0.119	467069	keystroke_d	d	n/a
233.7735	0.0905	467547	keystroke_Key.space	Key.space	n/a
234.1345	0.1195	468269	keystroke_e	e	n/a
234.5985	0.1055	469197	keystroke_x	x	n/a
234.8235	0.1205	469647	keystroke_p	p	n/a
235.2735	0.165	470547	keystroke_r	r	n/a
235.4535	0.106	470907	keystroke_e	e	n/a
235.709	0.0745	471418	keystroke_s	s	n/a
235.9045	0.075	471809	keystroke_s	s	n/a
236.084	0.225	472168	keystroke_i	i	n/a
236.2035	0.151	472407	keystroke_o	o	n/a
236.2645	0.165	472529	keystroke_n	n	n/a
236.459	0.105	472918	keystroke_s	s	n/a
236.894	0.105	473788	keystroke_Key.space	Key.space	n/a
237.254	0.12	474508	keystroke_s	s	n/a
237.479	0.135	474958	keystroke_u	u	n/a
237.674	0.1055	475348	keystroke_b	b	n/a
238.049	0.105	476098	keystroke_s	s	n/a
238.259	0.075	476518	keystroke_e	e	n/a
238.574	0.105	477148	keystroke_c	c	n/a
238.979	0.105	477958	keystroke_t	t	n/a
239.114	0.24	478228	keystroke_i	i	n/a
239.234	0.15	478468	keystroke_o	o	n/a
239.294	0.165	478588	keystroke_n	n	n/a
239.744	0.12	479488	keystroke_Key.space	Key.space	n/a
240.1485	0.1205	480297	keystroke_t	t	n/a
240.344	0.135	480688	keystroke_a	a	n/a
240.9595	0.1495	481919	keystroke_r	r	n/a
241.3035	0.061	482607	keystroke_g	g	n/a
241.4845	0.149	482969	keystroke_e	e	n/a
241.7245	0.1045	483449	keystroke_t	t	n/a
242.0235	0.1355	484047	keystroke_s	s	n/a
242.7735	0.106	485547	keystroke_Key.enter	Key.enter	n/a
242.8865	14.874	485773	prompt	n/a	effectiveness waiting spyware henderson\n
243.6445	0.104	487289	keystroke_e	e	n/a
243.9295	0.0595	487859	keystroke_f	f	n/a
244.0945	0.075	488189	keystroke_f	f	n/a
244.2285	0.105	488457	keystroke_e	e	n/a
244.559	0.1195	489118	keystroke_c	c	n/a
244.964	0.1045	489928	keystroke_t	t	n/a
245.1735	0.15	490347	keystroke_i	i	n/a
245.4595	0.104	490919	keystroke_v	v	n/a
245.6985	0.1205	491397	keystroke_e	e	n/a
246.0295	0.1195	492059	keystroke_n	n	n/a
246.2545	0.119	492509	keystroke_e	e	n/a
246.5395	0.09	493079	keystroke_s	s	n/a
246.7485	0.075	493497	keystroke_s	s	n/a
247.0785	0.1355	494157	keystroke_Key.space	Key.space	n/a
247.454	0.135	494908	keystroke_w	w	n/a
248.024	0.12	496048	keystroke_a	a	n/a
248.294	0.1495	496588	keystroke_i	i	n/a
248.519	0.1355	497038	keystroke_t	t	n/a
248.789	0.1345	497578	keystroke_i	i	n/a
249.0735	0.135	498147	keystroke_n	n	n/a
249.2845	0.089	498569	keystroke_g	g	n/a
249.584	0.06	499168	keystroke_Key.space	Key.space	n/a
249.8695	0.09	499739	keystroke_s	s	n/a
250.1095	0.1195	500219	keystroke_p	p	n/a
250.379	0.105	500758	keystroke_y	y	n/a
250.7235	0.1655	501447	keystroke_w	w	n/a
250.9945	0.165	501989	keystroke_a	a	n/a
251.2345	0.135	502469	keystroke_r	r	n/a
251.5345	0.105	503069	keystroke_e	e	n/a
251.8345	0.135	503669	keystroke_Key.space	Key.space	n/a
252.209	0.135	504418	keystroke_t	t	n/a
252.944	0.1655	505888	keystroke_Key.backspace	Key.backspace	n/a
253.259	0.0895	506518	keystroke_h	h	n/a
253.544	0.1045	507088	keystroke_e	e	n/a
253.7845	0.105	507569	keystroke_n	n	n/a
254.069	0.09	508138	keystroke_d	d	n/a
254.3985	0.091	508797	keystroke_e	e	n/a
254.669	0.1205	509338	keystroke_r	r	n/a
254.9985	0.091	509997	keystroke_s	s	n/a
255.2545	0.165	510509	keystroke_o	o	n/a
255.4795	0.12	510959	keystroke_n	n	n/a
257.701	0.058	515402	keystroke_Key.enter	Key.enter	n/a
257.765	9.8055	515530	prompt	n/a	prince talking drink diagnostic\n
258.7045	0.119	517409	keystroke_p	p	n/a
258.9145	0.134	517829	keystroke_r	r	n/a
259.0945	0.135	518189	keystroke_i	i	n/a
259.2445	0.135	518489	keystroke_n	n	n/a
259.4235	0.106	518847	keystroke_c	c	n/a
259.739	0.105	519478	keystroke_e	e	n/a
259.9345	0.1195	519869	keystroke_Key.space	Key.space	n/a
260.1595	0.1345	520319	keystroke_t	t	n/a
260.3845	0.1345	520769	keystroke_a	a	n/a
260.8645	0.1045	521729	keystroke_l	l	n/a
261.0595	0.1195	522119	keystroke_k	k	n/a
261.3145	0.165	522629	keystroke_i	i	n/a
261.494	0.135	522988	keystroke_n	n	n/a
262.1395	0.0745	524279	keystroke_g	g	n/a
262.394	0.09	524788	keystroke_Key.space	Key.space	n/a
262.844	0.1205	525688	keystroke_d	d	n/a
263.159	0.09	526318	keystroke_r	r	n/a
263.3095	0.1495	526619	keystroke_i	i	n/a
263.444	0.1205	526888	keystroke_n	n	n/a
263.699	0.105	527398	keystroke_k	k	n/a
263.999	0.06	527998	keystroke_Key.space	Key.space	n/a
264.5395	0.089	529079	keystroke_d	d	n/a
264.659	0.1055	529318	keystroke_i	i	n/a
264.9735	0.09	529947	keystroke_a	a	n/a
265.2895	0.089	530579	keystroke_g	g	n/a
265.7995	0.105	531599	keystroke_n	n	n/a
266.0245	0.165	532049	keystroke_o	o	n/a
266.2645	0.105	532529	keystroke_s	s	n/a
266.6095	0.0895	533219	keystroke_t	t	n/a
266.7595	0.12	533519	keystroke_i	i	n/a
267.119	0.105	534238	keystroke_c	c	n/a
267.4785	0.0905	534957	keystroke_Key.enter	Key.enter	n/a
267.5735	10.482	535147	prompt	n/a	hydraulic showed issues limiting\n
268.529	0.09	537058	keystroke_h	h	n/a
268.769	0.1355	537538	keystroke_y	y	n/a
269.024	0.1355	538048	keystroke_d	d	n/a
269.294	0.1205	538588	keystroke_r	r	n/a
269.474	0.105	538948	keystroke_a	a	n/a
269.729	0.0905	539458	keystroke_u	u	n/a
270.089	0.12	540178	keystroke_l	l	n/a
270.3145	0.1195	540629	keystroke_i	i	n/a
270.5845	0.1345	541169	keystroke_c	c	n/a
270.8395	0.0745	541679	keystroke_Key.space	Key.space	n/a
271.0795	0.1345	542159	keystroke_s	s	n/a
271.3345	0.0595	542669	keystroke_h	h	n/a
271.469	0.1205	542938	keystroke_o	o	n/a
271.6495	0.135	543299	keystroke_w	w	n/a
271.919	0.075	543838	keystroke_e	e	n/a
272.2045	0.0745	544409	keystroke_d	d	n/a
272.3235	0.1055	544647	keystroke_Key.space	Key.space	n/a
272.579	0.1195	545158	keystroke_i	i	n/a
272.7895	0.059	545579	keystroke_s	s	n/a
272.9685	0.075	545937	keystroke_s	s	n/a
273.2095	0.1045	546419	keystroke_e	e	n/a
273.8235	0.09	547647	keystroke_Key.backspace	Key.backspace	n/a
274.0345	0.1045	548069	keystroke_u	u	n/a
274.2145	0.1345	548429	keystroke_e	e	n/a
274.5145	0.1195	549029	keystroke_s	s	n/a
274.7545	0.0745	549509	keystroke_Key.space	Key.space	n/a
275.174	0.1055	550348	keystroke_l	l	n/a
275.444	0.105	550888	keystroke_i	i	n/a
275.759	0.09	551518	keystroke_m	m	n/a
276.0295	0.105	552059	keystroke_i	i	n/a
276.3285	0.105	552657	keystroke_t	t	n/a
276.5395	0.12	553079	keystroke_i	i	n/a
276.6745	0.165	553349	keystroke_n	n	n/a
277.3945	0.12	554789	keystroke_g	g	n/a
277.9485	0.105	555897	keystroke_Key.enter	Key.enter	n/a
278.058	10.5275	556116	prompt	n/a	crisis novels choice months\n
279.2395	0.06	558479	keystroke_c	c	n/a
279.5395	0.104	559079	keystroke_r	r	n/a
279.749	0.12	559498	keystroke_i	i	n/a
279.974	0.105	559948	keystroke_s	s	n/a
280.2145	0.09	560429	keystroke_i	i	n/a
280.5145	0.104	561029	keystroke_s	s	n/a
280.919	0.105	561838	keystroke_Key.space	Key.space	n/a
281.2045	0.135	562409	keystroke_n	n	n/a
281.5045	0.15	563009	keystroke_o	o	n/a
281.8195	0.12	563639	keystroke_v	v	n/a
282.0295	0.119	564059	keystroke_e	e	n/a
282.1935	0.091	564387	keystroke_l	l	n/a
282.4195	0.09	564839	keystroke_s	s	n/a
282.6745	0.089	565349	keystroke_Key.space	Key.space	n/a
283.0345	0.045	566069	keystroke_d	d	n/a
283.559	0.09	567118	keystroke_Key.backspace	Key.backspace	n/a
283.7545	0.1045	567509	keystroke_c	c	n/a
283.9935	0.075	567987	keystroke_h	h	n/a
284.234	0.075	568468	keystroke_o	o	n/a
284.3985	0.12	568797	keystroke_i	i	n/a
284.7595	0.105	569519	keystroke_c	c	n/a
285.1345	0.075	570269	keystroke_e	e	n/a
285.3295	0.06	570659	keystroke_Key.space	Key.space	n/a
285.6295	0.135	571259	keystroke_m	m	n/a
285.8995	0.135	571799	keystroke_o	o	n/a
286.1695	0.135	572339	keystroke_n	n	n/a
286.4095	0.105	572819	keystroke_t	t	n/a
286.8745	0.12	573749	keystroke_h	h	n/a
287.1295	0.12	574259	keystroke_s	s	n/a
288.4795	0.1045	576959	keystroke_Key.enter	Key.enter	n/a
288.588	11.608	577176	prompt	n/a	automation millions alphabetical property\n
289.5735	0.136	579147	keystroke_a	a	n/a
289.7835	0.106	579567	keystroke_u	u	n/a
289.9935	0.09	579987	keystroke_t	t	n/a
290.0985	0.075	580197	keystroke_o	o	n/a
290.2935	0.105	580587	keystroke_m	m	n/a
290.4145	0.149	580829	keystroke_a	a	n/a
290.5485	0.135	581097	keystroke_t	t	n/a
290.6685	0.18	581337	keystroke_i	i	n/a
290.7595	0.12	581519	keystroke_o	o	n/a
290.8185	0.09	581637	keystroke_n	n	n/a
291.0735	0.06	582147	keystroke_Key.space	Key.space	n/a
291.3435	0.091	582687	keystroke_m	m	n/a
291.5845	0.075	583169	keystroke_i	i	n/a
291.8395	0.045	583679	keystroke_l	l	n/a
291.9435	0.121	583887	keystroke_l	l	n/a
292.2295	0.21	584459	keystroke_i	i	n/a
292.3485	0.15	584697	keystroke_o	o	n/a
292.4695	0.1195	584939	keystroke_n	n	n/a
292.6185	0.105	585237	keystroke_s	s	n/a
292.784	0.1055	585568	keystroke_Key.space	Key.space	n/a
293.234	0.105	586468	keystroke_a	a	n/a
293.4435	0.121	586887	keystroke_p	p	n/a
293.714	0.0895	587428	keystroke_h	h	n/a
293.9545	0.12	587909	keystroke_a	a	n/a
294.659	0.0155	589318	keystroke_Key.backspace	Key.backspace	n/a
294.9895	0.044	589979	keystroke_Key.backspace	Key.backspace	n/a
295.1695	0.06	590339	keystroke_Key.backspace	Key.backspace	n/a
295.4995	0.135	590999	keystroke_l	l	n/a
295.7845	0.0895	591569	keystroke_p	p	n/a
295.979	0.12	591958	keystroke_h	h	n/a
296.144	0.1205	592288	keystroke_a	a	n/a
296.6095	0.045	593219	keystroke_b	b	n/a
296.7295	0.1355	593459	keystroke_e	e	n/a
297.0745	0.105	594149	keystroke_t	t	n/a
297.2095	0.105	594419	keystroke_i	i	n/a
297.4945	0.104	594989	keystroke_c	c	n/a
297.8085	0.076	595617	keystroke_a	a	n/a
297.9595	0.12	595919	keystroke_l	l	n/a
298.1685	0.15	596337	keystroke_Key.space	Key.space	n/a
298.3485	0.121	596697	keystroke_p	p	n/a
298.4845	0.119	596969	keystroke_r	r	n/a
298.6645	0.104	597329	keystroke_o	o	n/a
298.9185	0.09	597837	keystroke_p	p	n/a
299.0395	0.164	598079	keystroke_e	e	n/a
299.1745	0.12	598349	keystroke_r	r	n/a
299.4595	0.059	598919	keystroke_t	t	n/a
299.6545	0.075	599309	keystroke_y	y	n/a
300.1345	0.059	600269	keystroke_Key.enter	Key.enter	n/a
300.1985	8.893	600397	prompt	n/a	village do travis fans\n
301.0945	0.105	602189	keystroke_v	v	n/a
301.2595	0.089	602519	keystroke_i	i	n/a
301.5445	0.015	603089	keystroke_l	l	n/a
301.6495	0.0745	603299	keystroke_l	l	n/a
301.919	0.0905	603838	keystroke_a	a	n/a
302.144	0.0905	604288	keystroke_g	g	n/a
302.3095	0.12	604619	keystroke_e	e	n/a
302.519	0.075	605038	keystroke_Key.space	Key.space	n/a
302.7895	0.1045	605579	keystroke_d	d	n/a
302.9395	0.15	605879	keystroke_o	o	n/a
303.074	0.12	606148	keystroke_Key.space	Key.space	n/a
303.359	0.09	606718	keystroke_t	t	n/a
303.584	0.15	607168	keystroke_r	r	n/a
303.719	0.09	607438	keystroke_a	a	n/a
303.9145	0.0895	607829	keystroke_i	i	n/a
304.1095	0.045	608219	keystroke_v	v	n/a
304.2595	0.06	608519	keystroke_i	i	n/a
304.4235	0.075	608847	keystroke_s	s	n/a
304.934	0.0595	609868	keystroke_Key.backspace	Key.backspace	n/a
305.459	0.045	610918	keystroke_Key.backspace	Key.backspace	n/a
306.419	0.06	612838	keystroke_Key.backspace	Key.backspace	n/a
306.9435	0.091	613887	keystroke_Key.backspace	Key.backspace	n/a
307.274	0.0305	614548	keystroke_v	v	n/a
307.454	0.105	614908	keystroke_i	i	n/a
307.649	0.0905	615298	keystroke_s	s	n/a
307.844	0.075	615688	keystroke_Key.space	Key.space	n/a
307.994	0.12	615988	keystroke_f	f	n/a
308.2185	0.1055	616437	keystroke_a	a	n/a
308.294	0.09	616588	keystroke_n	n	n/a
308.594	0.09	617188	keystroke_s	s	n/a
308.9985	0.09	617997	keystroke_Key.enter	Key.enter	n/a
309.095	9.6255	618190	prompt	n/a	emacs pockets harris perfectly\n
309.9735	0.106	619947	keystroke_e	e	n/a
310.2295	0.075	620459	keystroke_m	m	n/a
310.3645	0.0745	620729	keystroke_a	a	n/a
310.664	0.1045	621328	keystroke_c	c	n/a
311.1435	0.121	622287	keystroke_s	s	n/a
311.3845	0.075	622769	keystroke_Key.space	Key.space	n/a
311.5645	0.1045	623129	keystroke_p	p	n/a
311.819	0.0905	623638	keystroke_o	o	n/a
312.1645	0.105	624329	keystroke_c	c	n/a
312.3745	0.09	624749	keystroke_k	k	n/a
312.5835	0.0905	625167	keystroke_e	e	n/a
312.8685	0.075	625737	keystroke_t	t	n/a
313.1685	0.105	626337	keystroke_s	s	n/a
313.4685	0.0605	626937	keystroke_Key.space	Key.space	n/a
313.7545	0.089	627509	keystroke_h	h	n/a
313.994	0.18	627988	keystroke_a	a	n/a
314.2045	0.105	628409	keystroke_r	r	n/a
314.399	0.09	628798	keystroke_r	r	n/a
314.594	0.1055	629188	keystroke_i	i	n/a
314.8485	0.091	629697	keystroke_s	s	n/a
315.0595	0.059	630119	keystroke_Key.space	Key.space	n/a
315.599	0.165	631198	keystroke_p	p	n/a
315.7795	0.1495	631559	keystroke_e	e	n/a
315.9145	0.1495	631829	keystroke_r	r	n/a
316.304	0.105	632608	keystroke_f	f	n/a
316.5295	0.105	633059	keystroke_e	e	n/a
316.9335	0.121	633867	keystroke_c	c	n/a
317.3695	0.045	634739	keystroke_t	t	n/a
317.5795	0.12	635159	keystroke_l	l	n/a
317.9545	0.09	635909	keystroke_y	y	n/a
318.599	0.12	637198	keystroke_Key.enter	Key.enter	n/a
318.7235	11.803	637447	prompt	n/a	finally population proteins highland\n
319.544	0.105	639088	keystroke_f	f	n/a
319.754	0.165	639508	keystroke_i	i	n/a
319.9345	0.1045	639869	keystroke_n	n	n/a
320.0985	0.1055	640197	keystroke_a	a	n/a
320.264	0.0605	640528	keystroke_l	l	n/a
320.384	0.1055	640768	keystroke_l	l	n/a
320.7585	0.135	641517	keystroke_y	y	n/a
320.8635	0.0905	641727	keystroke_Key.space	Key.space	n/a
321.0595	0.135	642119	keystroke_p	p	n/a
321.434	0.0305	642868	keystroke_o	o	n/a
321.9735	0.0905	643947	keystroke_p	p	n/a
322.6785	0.09	645357	keystroke_u	u	n/a
323.039	0.1045	646078	keystroke_l	l	n/a
323.2495	0.1345	646499	keystroke_a	a	n/a
323.414	0.1045	646828	keystroke_t	t	n/a
323.579	0.1045	647158	keystroke_i	i	n/a
323.7595	0.135	647519	keystroke_o	o	n/a
323.9685	0.121	647937	keystroke_n	n	n/a
324.2085	0.1055	648417	keystroke_s	s	n/a
324.464	0.09	648928	keystroke_Key.space	Key.space	n/a
324.689	0.1205	649378	keystroke_p	p	n/a
324.899	0.105	649798	keystroke_r	r	n/a
325.049	0.1195	650098	keystroke_o	o	n/a
325.364	0.0595	650728	keystroke_t	t	n/a
325.889	0.1195	651778	keystroke_e	e	n/a
326.0545	0.119	652109	keystroke_i	i	n/a
326.369	0.09	652738	keystroke_n	n	n/a
326.6245	0.15	653249	keystroke_s	s	n/a
326.8045	0.0745	653609	keystroke_Key.space	Key.space	n/a
327.029	0.105	654058	keystroke_h	h	n/a
327.194	0.15	654388	keystroke_i	i	n/a
327.359	0.09	654718	keystroke_g	g	n/a
327.479	0.105	654958	keystroke_h	h	n/a
327.8995	0.135	655799	keystroke_l	l	n/a
328.139	0.075	656278	keystroke_a	a	n/a
328.2295	0.0595	656459	keystroke_n	n	n/a
328.394	0.105	656788	keystroke_d	d	n/a
330.4195	0.1045	660839	keystroke_Key.enter	Key.enter	n/a
330.5295	8.996	661059	prompt	n/a	returns epic successful harris\n
331.484	0.1205	662968	keystroke_e	e	n/a
332.0395	0.09	664079	keystroke_Key.backspace	Key.backspace	n/a
332.249	0.105	664498	keystroke_r	r	n/a
332.4595	0.1205	664919	keystroke_e	e	n/a
332.744	0.1205	665488	keystroke_t	t	n/a
332.9545	0.089	665909	keystroke_u	u	n/a
333.0895	0.12	666179	keystroke_r	r	n/a
333.2685	0.106	666537	keystroke_n	n	n/a
333.4795	0.105	666959	keystroke_s	s	n/a
333.704	0.105	667408	keystroke_Key.space	Key.space	n/a
333.9445	0.1495	667889	keystroke_e	e	n/a
334.214	0.0905	668428	keystroke_p	p	n/a
334.4085	0.1205	668817	keystroke_i	i	n/a
334.544	0.135	669088	keystroke_c	c	n/a
334.844	0.12	669688	keystroke_Key.space	Key.space	n/a
335.3095	0.1345	670619	keystroke_s	s	n/a
335.534	0.105	671068	keystroke_u	u	n/a
335.7445	0.09	671489	keystroke_c	c	n/a
335.8935	0.105	671787	keystroke_c	c	n/a
336.1935	0.1205	672387	keystroke_e	e	n/a
336.5835	0.091	673167	keystroke_s	s	n/a
336.7795	0.089	673559	keystroke_s	s	n/a
337.1235	0.1505	674247	keystroke_f	f	n/a
337.349	0.075	674698	keystroke_u	u	n/a
337.634	0.15	675268	keystroke_l	l	n/a
337.874	0.09	675748	keystroke_Key.space	Key.space	n/a
338.084	0.1205	676168	keystroke_h	h	n/a
338.3235	0.1355	676647	keystroke_a	a	n/a
338.519	0.0905	677038	keystroke_r	r	n/a
338.714	0.075	677428	keystroke_r	r	n/a
338.8045	0.105	677609	keystroke_i	i	n/a
339.0435	0.105	678087	keystroke_s	s	n/a
339.4045	0.119	678809	keystroke_Key.enter	Key.enter	n/a
339.5295	11.396	679059	prompt	n/a	swimming manufacturers trans riding\n
340.4685	0.105	680937	keystroke_w	w	n/a
341.0385	0.091	682077	keystroke_Key.backspace	Key.backspace	n/a
341.2345	0.105	682469	keystroke_s	s	n/a
341.489	0.0905	682978	keystroke_w	w	n/a
341.6235	0.075	683247	keystroke_i	i	n/a
341.969	0.0605	683938	keystroke_m	m	n/a
342.1045	0.09	684209	keystroke_m	m	n/a
342.3595	0.119	684719	keystroke_i	i	n/a
342.4645	0.12	684929	keystroke_n	n	n/a
342.5695	0.119	685139	keystroke_g	g	n/a
342.7795	0.089	685559	keystroke_Key.space	Key.space	n/a
343.3495	0.09	686699	keystroke_m	m	n/a
343.6045	0.06	687209	keystroke_a	a	n/a
343.6795	0.059	687359	keystroke_n	n	n/a
344.0095	0.06	688019	keystroke_u	u	n/a
344.264	0.075	688528	keystroke_f	f	n/a
344.4745	0.1345	688949	keystroke_a	a	n/a
344.894	0.075	689788	keystroke_c	c	n/a
345.2685	0.12	690537	keystroke_t	t	n/a
345.494	0.0745	690988	keystroke_u	u	n/a
345.614	0.1045	691228	keystroke_r	r	n/a
346.0645	0.135	692129	keystroke_e	e	n/a
346.2585	0.135	692517	keystroke_r	r	n/a
346.6345	0.12	693269	keystroke_s	s	n/a
346.874	0.09	693748	keystroke_Key.space	Key.space	n/a
347.564	0.1045	695128	keystroke_t	t	n/a
347.8035	0.165	695607	keystroke_r	r	n/a
347.939	0.12	695878	keystroke_a	a	n/a
348.0885	0.105	696177	keystroke_n	n	n/a
348.299	0.1195	696598	keystroke_s	s	n/a
348.5235	0.061	697047	keystroke_Key.space	Key.space	n/a
348.8995	0.09	697799	keystroke_r	r	n/a
349.0345	0.105	698069	keystroke_i	i	n/a
349.2445	0.12	698489	keystroke_d	d	n/a
349.3485	0.136	698697	keystroke_i	i	n/a
349.5735	0.136	699147	keystroke_n	n	n/a
350.384	0.12	700768	keystroke_g	g	n/a
350.849	0.0755	701698	keystroke_Key.enter	Key.enter	n/a
350.93	10.3155	701860	prompt	n/a	outreach till municipal alto\n
351.9295	0.179	703859	keystroke_o	o	n/a
352.049	0.1505	704098	keystroke_u	u	n/a
352.214	0.0895	704428	keystroke_t	t	n/a
352.4685	0.091	704937	keystroke_r	r	n/a
352.574	0.135	705148	keystroke_e	e	n/a
352.724	0.075	705448	keystroke_a	a	n/a
353.0685	0.075	706137	keystroke_h	h	n/a
354.5385	0.075	709077	keystroke_Key.backspace	Key.backspace	n/a
355.1685	0.106	710337	keystroke_c	c	n/a
355.4095	0.075	710819	keystroke_h	h	n/a
356.174	0.135	712348	keystroke_Key.space	Key.space	n/a
356.4595	0.1495	712919	keystroke_t	t	n/a
356.594	0.075	713188	keystroke_i	i	n/a
356.849	0.06	713698	keystroke_l	l	n/a
356.9845	0.09	713969	keystroke_l	l	n/a
357.3885	0.075	714777	keystroke_Key.space	Key.space	n/a
357.8685	0.105	715737	keystroke_m	m	n/a
358.2295	0.089	716459	keystroke_u	u	n/a
358.4685	0.12	716937	keystroke_n	n	n/a
358.559	0.09	717118	keystroke_i	i	n/a
358.8435	0.1055	717687	keystroke_c	c	n/a
358.9495	0.1045	717899	keystroke_i	i	n/a
359.2635	0.075	718527	keystroke_p	p	n/a
359.4135	0.06	718827	keystroke_a	a	n/a
359.624	0.1505	719248	keystroke_l	l	n/a
359.8635	0.09	719727	keystroke_Key.space	Key.space	n/a
360.2385	0.1055	720477	keystroke_a	a	n/a
360.359	0.165	720718	keystroke_l	l	n/a
360.539	0.12	721078	keystroke_t	t	n/a
360.689	0.105	721378	keystroke_o	o	n/a
361.199	0.045	722398	keystroke_Key.enter	Key.enter	n/a
361.2485	8.577	722497	prompt	n/a	richard theories diseases examine\n
362.039	0.12	724078	keystroke_r	r	n/a
362.189	0.0905	724378	keystroke_i	i	n/a
362.3995	0.105	724799	keystroke_c	c	n/a
362.4895	0.105	724979	keystroke_h	h	n/a
362.7295	0.09	725459	keystroke_a	a	n/a
362.7745	0.135	725549	keystroke_r	r	n/a
363.1345	0.1195	726269	keystroke_d	d	n/a
363.314	0.09	726628	keystroke_Key.space	Key.space	n/a
363.629	0.075	727258	keystroke_t	t	n/a
363.899	0.0895	727798	keystroke_h	h	n/a
364.8595	0.1045	729719	keystroke_e	e	n/a
365.054	0.1055	730108	keystroke_o	o	n/a
365.2345	0.0895	730469	keystroke_r	r	n/a
365.339	0.1205	730678	keystroke_i	i	n/a
365.46	0.089	730920	keystroke_e	e	n/a
365.714	0.1355	731428	keystroke_s	s	n/a
365.894	0.0745	731788	keystroke_Key.space	Key.space	n/a
366.1935	0.105	732387	keystroke_d	d	n/a
366.3295	0.105	732659	keystroke_i	i	n/a
366.6745	0.06	733349	keystroke_s	s	n/a
366.8095	0.2095	733619	keystroke_e	e	n/a
366.9745	0.1195	733949	keystroke_a	a	n/a
367.274	0.12	734548	keystroke_s	s	n/a
367.439	0.1205	734878	keystroke_e	e	n/a
367.604	0.09	735208	keystroke_s	s	n/a
368.039	0.1045	736078	keystroke_Key.space	Key.space	n/a
368.2635	0.0905	736527	keystroke_e	e	n/a
368.6245	0.105	737249	keystroke_x	x	n/a
368.9095	0.09	737819	keystroke_a	a	n/a
369.0295	0.075	738059	keystroke_m	m	n/a
369.2095	0.164	738419	keystroke_i	i	n/a
369.3595	0.105	738719	keystroke_n	n	n/a
369.4195	0.12	738839	keystroke_e	e	n/a
369.7345	0.089	739469	keystroke_Key.enter	Key.enter	n/a
369.8295	10.1515	739659	prompt	n/a	puppy defeat unto meanwhile\n
370.7245	0.12	741449	keystroke_p	p	n/a
370.8745	0.03	741749	keystroke_p	p	n/a
370.8895	0.09	741779	keystroke_u	u	n/a
371.0995	0.075	742199	keystroke_p	p	n/a
371.2495	0.075	742499	keystroke_p	p	n/a
371.8495	0.105	743699	keystroke_Key.backspace	Key.backspace	n/a
372.1935	0.0605	744387	keystroke_Key.backspace	Key.backspace	n/a
372.464	0.09	744928	keystroke_Key.backspace	Key.backspace	n/a
372.794	0.075	745588	keystroke_Key.backspace	Key.backspace	n/a
373.0345	0.0895	746069	keystroke_u	u	n/a
373.289	0.0605	746578	keystroke_p	p	n/a
373.409	0.1195	746818	keystroke_p	p	n/a
373.6635	0.165	747327	keystroke_y	y	n/a
373.784	0.15	747568	keystroke_Key.space	Key.space	n/a
374.2345	0.12	748469	keystroke_f	f	n/a
374.7135	0.12	749427	keystroke_Key.backspace	Key.backspace	n/a
374.8195	0.105	749639	keystroke_d	d	n/a
375.0745	0.119	750149	keystroke_e	e	n/a
375.4795	0.089	750959	keystroke_f	f	n/a
375.6895	0.134	751379	keystroke_e	e	n/a
375.8095	0.164	751619	keystroke_a	a	n/a
375.9885	0.121	751977	keystroke_t	t	n/a
376.4095	0.09	752819	keystroke_Key.space	Key.space	n/a
376.6495	0.075	753299	keystroke_u	u	n/a
376.8745	0.089	753749	keystroke_n	n	n/a
377.0395	0.105	754079	keystroke_t	t	n/a
377.1445	0.15	754289	keystroke_o	o	n/a
377.279	0.075	754558	keystroke_Key.space	Key.space	n/a
377.5935	0.12	755187	keystroke_m	m	n/a
377.8795	0.119	755759	keystroke_e	e	n/a
378.0745	0.105	756149	keystroke_a	a	n/a
378.2095	0.075	756419	keystroke_n	n	n/a
378.8545	0.1195	757709	keystroke_w	w	n/a
378.989	0.105	757978	keystroke_h	h	n/a
379.1245	0.1045	758249	keystroke_i	i	n/a
379.3495	0.105	758699	keystroke_l	l	n/a
379.514	0.075	759028	keystroke_e	e	n/a
379.874	0.1055	759748	keystroke_Key.enter	Key.enter	n/a
379.984	8.367	759968	prompt	n/a	answers repair published station\n
380.9985	0.121	761997	keystroke_a	a	n/a
381.1635	0.105	762327	keystroke_n	n	n/a
381.3595	0.045	762719	keystroke_s	s	n/a
381.6445	0.165	763289	keystroke_w	w	n/a
381.794	0.195	763588	keystroke_e	e	n/a
381.959	0.1205	763918	keystroke_r	r	n/a
382.319	0.105	764638	keystroke_s	s	n/a
382.889	0.12	765778	keystroke_Key.space	Key.space	n/a
383.1885	0.136	766377	keystroke_r	r	n/a
383.3095	0.1195	766619	keystroke_e	e	n/a
383.474	0.12	766948	keystroke_p	p	n/a
383.6995	0.1345	767399	keystroke_a	a	n/a
383.864	0.105	767728	keystroke_i	i	n/a
383.984	0.1205	767968	keystroke_r	r	n/a
384.1795	0.105	768359	keystroke_Key.space	Key.space	n/a
384.569	0.12	769138	keystroke_p	p	n/a
384.7485	0.09	769497	keystroke_u	u	n/a
385.0785	0.09	770157	keystroke_b	b	n/a
385.304	0.12	770608	keystroke_l	l	n/a
385.4845	0.134	770969	keystroke_i	i	n/a
385.6035	0.106	771207	keystroke_s	s	n/a
385.7385	0.091	771477	keystroke_h	h	n/a
385.8435	0.061	771687	keystroke_e	e	n/a
386.0845	0.1045	772169	keystroke_d	d	n/a
386.219	0.075	772438	keystroke_Key.space	Key.space	n/a
386.849	0.0445	773698	keystroke_s	s	n/a
387.0885	0.105	774177	keystroke_t	t	n/a
387.2245	0.15	774449	keystroke_a	a	n/a
387.3595	0.104	774719	keystroke_t	t	n/a
387.4795	0.2095	774959	keystroke_i	i	n/a
387.584	0.12	775168	keystroke_o	o	n/a
387.659	0.1505	775318	keystroke_n	n	n/a
388.244	0.1055	776488	keystroke_Key.enter	Key.enter	n/a
388.3545	8.2765	776709	prompt	n/a	ruled attempted diversity soup\n
389.2495	0.119	778499	keystroke_r	r	n/a
389.3845	0.075	778769	keystroke_u	u	n/a
389.6245	0.15	779249	keystroke_l	l	n/a
389.7595	0.06	779519	keystroke_e	e	n/a
389.9995	0.105	779999	keystroke_d	d	n/a
390.134	0.09	780268	keystroke_Key.space	Key.space	n/a
390.419	0.0905	780838	keystroke_a	a	n/a
390.614	0.075	781228	keystroke_t	t	n/a
390.809	0.0755	781618	keystroke_t	t	n/a
391.0045	0.105	782009	keystroke_e	e	n/a
391.139	0.12	782278	keystroke_m	m	n/a
391.394	0.09	782788	keystroke_p	p	n/a
391.5295	0.09	783059	keystroke_t	t	n/a
391.739	0.1055	783478	keystroke_e	e	n/a
392.1595	0.089	784319	keystroke_Key.space	Key.space	n/a
392.9545	0.075	785909	keystroke_Key.backspace	Key.backspace	n/a
393.1345	0.105	786269	keystroke_d	d	n/a
393.3745	0.075	786749	keystroke_Key.space	Key.space	n/a
393.8245	0.12	787649	keystroke_d	d	n/a
393.9595	0.1195	787919	keystroke_i	i	n/a
394.1845	0.06	788369	keystroke_v	v	n/a
394.469	0.135	788938	keystroke_e	e	n/a
394.559	0.1205	789118	keystroke_r	r	n/a
394.814	0.0905	789628	keystroke_s	s	n/a
394.889	0.1355	789778	keystroke_i	i	n/a
395.1295	0.0895	790259	keystroke_t	t	n/a
395.309	0.12	790618	keystroke_y	y	n/a
395.43	0.089	790860	keystroke_Key.space	Key.space	n/a
395.6995	0.1505	791399	keystroke_s	s	n/a
395.864	0.1655	791728	keystroke_o	o	n/a
395.984	0.1795	791968	keystroke_u	u	n/a
396.1495	0.105	792299	keystroke_p	p	n/a
396.5245	0.105	793049	keystroke_Key.enter	Key.enter	n/a
396.6345	13.031	793269	prompt	n/a	correction artwork accomplish hewlett\n
397.649	0.0895	795298	keystroke_c	c	n/a
397.7835	0.0755	795567	keystroke_o	o	n/a
398.414	0.105	796828	keystroke_r	r	n/a
398.6245	0.1195	797249	keystroke_r	r	n/a
398.7745	0.0895	797549	keystroke_e	e	n/a
399.059	0.09	798118	keystroke_c	c	n/a
399.4185	0.075	798837	keystroke_t	t	n/a
399.4945	0.225	798989	keystroke_i	i	n/a
399.5995	0.164	799199	keystroke_o	o	n/a
399.6895	0.135	799379	keystroke_n	n	n/a
400.2135	0.0905	800427	keystroke_Key.space	Key.space	n/a
400.4995	0.15	800999	keystroke_a	a	n/a
400.634	0.1345	801268	keystroke_r	r	n/a
400.9045	0.0445	801809	keystroke_t	t	n/a
401.0685	0.0755	802137	keystroke_o	o	n/a
401.084	0.105	802168	keystroke_w	w	n/a
401.2495	0.1045	802499	keystroke_r	r	n/a
401.384	0.075	802768	keystroke_k	k	n/a
402.3735	0.09	804747	keystroke_Key.backspace	Key.backspace	n/a
402.5985	0.045	805197	keystroke_Key.backspace	Key.backspace	n/a
402.7635	0.06	805527	keystroke_Key.backspace	Key.backspace	n/a
403.154	0.0895	806308	keystroke_Key.backspace	Key.backspace	n/a
403.409	0.0905	806818	keystroke_w	w	n/a
403.5135	0.105	807027	keystroke_o	o	n/a
403.6045	0.075	807209	keystroke_r	r	n/a
403.7085	0.09	807417	keystroke_k	k	n/a
404.309	0.0905	808618	keystroke_Key.space	Key.space	n/a
404.5335	0.106	809067	keystroke_a	a	n/a
404.9095	0.104	809819	keystroke_c	c	n/a
405.1185	0.1205	810237	keystroke_c	c	n/a
405.284	0.12	810568	keystroke_o	o	n/a
405.539	0.12	811078	keystroke_m	m	n/a
405.764	0.105	811528	keystroke_p	p	n/a
406.0195	0.1195	812039	keystroke_l	l	n/a
406.229	0.105	812458	keystroke_i	i	n/a
406.349	0.09	812698	keystroke_s	s	n/a
406.469	0.06	812938	keystroke_h	h	n/a
406.739	0.0905	813478	keystroke_Key.space	Key.space	n/a
407.0995	0.105	814199	keystroke_h	h	n/a
407.1885	0.106	814377	keystroke_e	e	n/a
407.4295	0.135	814859	keystroke_w	w	n/a
407.8045	0.12	815609	keystroke_l	l	n/a
407.9845	0.12	815969	keystroke_e	e	n/a
408.2695	0.09	816539	keystroke_t	t	n/a
408.4645	0.09	816929	keystroke_t	t	n/a
409.559	0.105	819118	keystroke_Key.enter	Key.enter	n/a
409.6695	7.316	819339	prompt	n/a	score construct that temple\n
410.864	0.0905	821728	keystroke_s	s	n/a
411.104	0.12	822208	keystroke_c	c	n/a
411.299	0.12	822598	keystroke_o	o	n/a
411.509	0.135	823018	keystroke_r	r	n/a
411.614	0.135	823228	keystroke_e	e	n/a
411.884	0.06	823768	keystroke_Key.space	Key.space	n/a
412.754	0.1195	825508	keystroke_c	c	n/a
412.8595	0.165	825719	keystroke_o	o	n/a
413.009	0.1345	826018	keystroke_n	n	n/a
413.0545	0.12	826109	keystroke_s	s	n/a
413.3245	0.0595	826649	keystroke_t	t	n/a
413.5185	0.075	827037	keystroke_r	r	n/a
413.6545	0.075	827309	keystroke_u	u	n/a
413.8635	0.105	827727	keystroke_c	c	n/a
414.2235	0.0905	828447	keystroke_t	t	n/a
414.4795	0.0445	828959	keystroke_Key.space	Key.space	n/a
414.7945	0.09	829589	keystroke_t	t	n/a
414.9135	0.091	829827	keystroke_h	h	n/a
415.0045	0.135	830009	keystroke_a	a	n/a
415.0645	0.12	830129	keystroke_t	t	n/a
415.1995	0.075	830399	keystroke_Key.space	Key.space	n/a
415.5435	0.091	831087	keystroke_t	t	n/a
415.7995	0.075	831599	keystroke_e	e	n/a
416.009	0.0455	832018	keystroke_m	m	n/a
416.1885	0.121	832377	keystroke_p	p	n/a
416.474	0.09	832948	keystroke_l	l	n/a
416.579	0.105	833158	keystroke_e	e	n/a
416.9095	0.0745	833819	keystroke_Key.enter	Key.enter	n/a
416.989	8.2915	833978	prompt	n/a	parental adams illegal wake\n
417.8845	0.135	835769	keystroke_p	p	n/a
418.0495	0.165	836099	keystroke_a	a	n/a
418.1695	0.135	836339	keystroke_r	r	n/a
418.3195	0.105	836639	keystroke_e	e	n/a
418.4395	0.0895	836879	keystroke_n	n	n/a
418.5895	0.12	837179	keystroke_t	t	n/a
418.7245	0.1495	837449	keystroke_a	a	n/a
418.9195	0.1195	837839	keystroke_l	l	n/a
419.0995	0.1195	838199	keystroke_Key.space	Key.space	n/a
419.7295	0.1045	839459	keystroke_a	a	n/a
419.9995	0.119	839999	keystroke_d	d	n/a
420.2095	0.089	840419	keystroke_a	a	n/a
420.374	0.0755	840748	keystroke_m	m	n/a
420.4795	0.12	840959	keystroke_s	s	n/a
420.674	0.09	841348	keystroke_Key.space	Key.space	n/a
421.1695	0.1195	842339	keystroke_i	i	n/a
421.634	0.075	843268	keystroke_l	l	n/a
421.7995	0.0895	843599	keystroke_l	l	n/a
422.009	0.09	844018	keystroke_e	e	n/a
422.309	0.105	844618	keystroke_g	g	n/a
422.504	0.105	845008	keystroke_a	a	n/a
422.669	0.12	845338	keystroke_l	l	n/a
422.804	0.15	845608	keystroke_Key.space	Key.space	n/a
423.854	0.225	847708	keystroke_w	w	n/a
424.049	0.0755	848098	keystroke_a	a	n/a
424.5885	0.1205	849177	keystroke_k	k	n/a
424.724	0.1205	849448	keystroke_e	e	n/a
425.1735	0.105	850347	keystroke_Key.enter	Key.enter	n/a
425.2835	10.707	850567	prompt	n/a	terms baskets seekers photography\n
426.764	0.135	853528	keystroke_t	t	n/a
427.034	0.1655	854068	keystroke_e	e	n/a
427.1095	0.18	854219	keystroke_r	r	n/a
427.3195	0.09	854639	keystroke_m	m	n/a
427.544	0.1055	855088	keystroke_s	s	n/a
427.844	0.09	855688	keystroke_Key.space	Key.space	n/a
428.459	0.105	856918	keystroke_b	b	n/a
428.684	0.09	857368	keystroke_a	a	n/a
428.924	0.09	857848	keystroke_s	s	n/a
429.4495	0.1345	858899	keystroke_k	k	n/a
429.6885	0.091	859377	keystroke_e	e	n/a
430.0945	0.089	860189	keystroke_t	t	n/a
430.3635	0.1205	860727	keystroke_s	s	n/a
430.6635	0.1205	861327	keystroke_Key.space	Key.space	n/a
431.1145	0.104	862229	keystroke_s	s	n/a
431.3545	0.059	862709	keystroke_e	e	n/a
431.534	0.0905	863068	keystroke_e	e	n/a
431.7595	0.104	863519	keystroke_k	k	n/a
431.909	0.15	863818	keystroke_e	e	n/a
432.1945	0.09	864389	keystroke_r	r	n/a
432.4945	0.105	864989	keystroke_s	s	n/a
432.6295	0.1045	865259	keystroke_Key.space	Key.space	n/a
432.8995	0.105	865799	keystroke_p	p	n/a
433.0635	0.15	866127	keystroke_h	h	n/a
433.349	0.0745	866698	keystroke_o	o	n/a
433.724	0.0895	867448	keystroke_t	t	n/a
433.8745	0.1195	867749	keystroke_o	o	n/a
434.384	0.1045	868768	keystroke_g	g	n/a
434.684	0.12	869368	keystroke_r	r	n/a
434.789	0.12	869578	keystroke_a	a	n/a
434.984	0.0905	869968	keystroke_p	p	n/a
435.149	0.1055	870298	keystroke_h	h	n/a
435.4195	0.0895	870839	keystroke_y	y	n/a
435.8985	0.09	871797	keystroke_Key.enter	Key.enter	n/a
435.9935	13.392	871987	prompt	n/a	noble archived ebony under\n
436.874	0.1205	873748	keystroke_r	r	n/a
437.4745	0.0445	874949	keystroke_Key.backspace	Key.backspace	n/a
437.624	0.1055	875248	keystroke_n	n	n/a
437.789	0.1495	875578	keystroke_o	o	n/a
438.0735	0.0755	876147	keystroke_b	b	n/a
438.2695	0.09	876539	keystroke_l	l	n/a
438.3435	0.136	876687	keystroke_e	e	n/a
438.734	0.075	877468	keystroke_Key.space	Key.space	n/a
439.0195	0.15	878039	keystroke_a	a	n/a
439.1835	0.1355	878367	keystroke_r	r	n/a
439.5745	0.12	879149	keystroke_c	c	n/a
439.739	0.09	879478	keystroke_h	h	n/a
439.814	0.195	879628	keystroke_i	i	n/a
440.024	0.09	880048	keystroke_e	e	n/a
440.444	0.12	880888	keystroke_v	v	n/a
440.729	0.09	881458	keystroke_e	e	n/a
441.029	0.0755	882058	keystroke_d	d	n/a
441.2995	0.1195	882599	keystroke_Key.space	Key.space	n/a
442.574	0.135	885148	keystroke_Key.backspace	Key.backspace	n/a
442.9635	0.075	885927	keystroke_Key.backspace	Key.backspace	n/a
443.384	0.105	886768	keystroke_Key.backspace	Key.backspace	n/a
443.774	0.135	887548	keystroke_Key.backspace	Key.backspace	n/a
444.1635	0.12	888327	keystroke_Key.backspace	Key.backspace	n/a
444.4345	0.104	888869	keystroke_v	v	n/a
444.6585	0.0905	889317	keystroke_e	e	n/a
444.9145	0.1195	889829	keystroke_d	d	n/a
445.0485	0.09	890097	keystroke_Key.space	Key.space	n/a
445.4385	0.12	890877	keystroke_e	e	n/a
445.7385	0.091	891477	keystroke_b	b	n/a
445.8885	0.15	891777	keystroke_o	o	n/a
446.0545	0.0745	892109	keystroke_n	n	n/a
446.3835	0.21	892767	keystroke_y	y	n/a
446.5635	0.1055	893127	keystroke_Key.space	Key.space	n/a
446.9845	0.045	893969	keystroke_u	u	n/a
447.1795	0.1045	894359	keystroke_n	n	n/a
447.329	0.09	894658	keystroke_d	d	n/a
447.599	0.135	895198	keystroke_e	e	n/a
447.6745	0.1645	895349	keystroke_r	r	n/a
449.279	0.105	898558	keystroke_Key.enter	Key.enter	n/a
449.3915	6.654	898783	prompt	n/a	katie line juan columns\n
450.4345	0.165	900869	keystroke_k	k	n/a
450.5845	0.0895	901169	keystroke_a	a	n/a
450.7795	0.1045	901559	keystroke_t	t	n/a
450.899	0.15	901798	keystroke_i	i	n/a
451.0635	0.1055	902127	keystroke_e	e	n/a
451.604	0.105	903208	keystroke_Key.space	Key.space	n/a
451.9945	0.1195	903989	keystroke_l	l	n/a
452.234	0.15	904468	keystroke_i	i	n/a
452.384	0.1205	904768	keystroke_n	n	n/a
452.4745	0.1345	904949	keystroke_e	e	n/a
452.669	0.075	905338	keystroke_Key.space	Key.space	n/a
453.089	0.0905	906178	keystroke_j	j	n/a
453.3445	0.1195	906689	keystroke_u	u	n/a
453.599	0.135	907198	keystroke_a	a	n/a
453.749	0.06	907498	keystroke_n	n	n/a
453.884	0.12	907768	keystroke_Key.space	Key.space	n/a
454.469	0.1055	908938	keystroke_c	c	n/a
454.5435	0.106	909087	keystroke_o	o	n/a
454.8135	0.135	909627	keystroke_l	l	n/a
455.1435	0.0755	910287	keystroke_u	u	n/a
455.3685	0.0905	910737	keystroke_m	m	n/a
455.5795	0.075	911159	keystroke_n	n	n/a
455.6835	0.1205	911367	keystroke_s	s	n/a
455.969	0.0745	911938	keystroke_Key.enter	Key.enter	n/a
456.0485	10.782	912097	prompt	n/a	mysterious perception precipitation techno\n
456.9895	0.09	913979	keystroke_m	m	n/a
457.334	0.0755	914668	keystroke_y	y	n/a
457.4235	0.121	914847	keystroke_s	s	n/a
457.6635	0.121	915327	keystroke_t	t	n/a
457.9045	0.134	915809	keystroke_e	e	n/a
457.9935	0.12	915987	keystroke_r	r	n/a
458.129	0.1045	916258	keystroke_i	i	n/a
458.3835	0.196	916767	keystroke_o	o	n/a
458.5335	0.091	917067	keystroke_u	u	n/a
458.669	0.15	917338	keystroke_s	s	n/a
459.149	0.1055	918298	keystroke_Key.space	Key.space	n/a
459.4635	0.1055	918927	keystroke_p	p	n/a
459.5835	0.121	919167	keystroke_e	e	n/a
459.6595	0.135	919319	keystroke_r	r	n/a
460.3045	0.1195	920609	keystroke_c	c	n/a
460.6045	0.075	921209	keystroke_e	e	n/a
460.7395	0.1045	921479	keystroke_p	p	n/a
460.9945	0.0745	921989	keystroke_t	t	n/a
461.084	0.1805	922168	keystroke_i	i	n/a
461.1585	0.135	922317	keystroke_o	o	n/a
461.2495	0.105	922499	keystroke_n	n	n/a
461.9085	0.121	923817	keystroke_Key.space	Key.space	n/a
462.1335	0.1055	924267	keystroke_p	p	n/a
462.299	0.135	924598	keystroke_r	r	n/a
462.4495	0.1045	924899	keystroke_e	e	n/a
462.764	0.105	925528	keystroke_c	c	n/a
462.839	0.15	925678	keystroke_i	i	n/a
463.139	0.0905	926278	keystroke_p	p	n/a
463.319	0.105	926638	keystroke_i	i	n/a
463.754	0.0905	927508	keystroke_t	t	n/a
463.934	0.1055	927868	keystroke_a	a	n/a
464.054	0.1355	928108	keystroke_t	t	n/a
464.1745	0.2095	928349	keystroke_i	i	n/a
464.2485	0.1805	928497	keystroke_o	o	n/a
464.369	0.1055	928738	keystroke_n	n	n/a
465.0295	0.089	930059	keystroke_Key.space	Key.space	n/a
465.3895	0.105	930779	keystroke_t	t	n/a
465.5395	0.119	931079	keystroke_e	e	n/a
465.8385	0.106	931677	keystroke_c	c	n/a
465.9895	0.104	931979	keystroke_h	h	n/a
466.2295	0.15	932459	keystroke_n	n	n/a
466.3635	0.105	932727	keystroke_o	o	n/a
466.7245	0.1045	933449	keystroke_Key.enter	Key.enter	n/a
466.8335	16.977	933667	prompt	n/a	receive trigger animated linear\n
468.089	0.1355	936178	keystroke_r	r	n/a
468.2545	0.104	936509	keystroke_e	e	n/a
468.5835	0.121	937167	keystroke_c	c	n/a
468.7795	0.12	937559	keystroke_i	i	n/a
468.9145	0.09	937829	keystroke_e	e	n/a
469.2595	0.15	938519	keystroke_v	v	n/a
469.3945	0.135	938789	keystroke_e	e	n/a
469.6045	0.12	939209	keystroke_Key.space	Key.space	n/a
469.874	0.105	939748	keystroke_t	t	n/a
471.7485	0.105	943497	keystroke_Key.backspace	Key.backspace	n/a
472.0485	0.1205	944097	keystroke_Key.backspace	Key.backspace	n/a
472.409	0.12	944818	keystroke_Key.backspace	Key.backspace	n/a
472.859	0.105	945718	keystroke_Key.backspace	Key.backspace	n/a
473.219	0.105	946438	keystroke_Key.backspace	Key.backspace	n/a
473.654	0.09	947308	keystroke_Key.backspace	Key.backspace	n/a
473.939	0.12	947878	keystroke_e	e	n/a
474.149	0.09	948298	keystroke_i	i	n/a
474.4045	0.12	948809	keystroke_v	v	n/a
474.5085	0.135	949017	keystroke_e	e	n/a
474.7485	0.106	949497	keystroke_Key.space	Key.space	n/a
476.219	0.105	952438	keystroke_t	t	n/a
476.4585	0.121	952917	keystroke_r	r	n/a
476.6085	0.12	953217	keystroke_i	i	n/a
477.044	0.0895	954088	keystroke_g	g	n/a
477.254	0.195	954508	keystroke_e	e	n/a
477.4035	0.165	954807	keystroke_r	r	n/a
478.1385	0.12	956277	keystroke_Key.backspace	Key.backspace	n/a
478.5735	0.105	957147	keystroke_Key.backspace	Key.backspace	n/a
478.8585	0.1355	957717	keystroke_g	g	n/a
479.084	0.1955	958168	keystroke_e	e	n/a
479.2185	0.181	958437	keystroke_r	r	n/a
479.4435	0.12	958887	keystroke_Key.space	Key.space	n/a
479.8485	0.1205	959697	keystroke_a	a	n/a
480.0435	0.106	960087	keystroke_n	n	n/a
480.224	0.12	960448	keystroke_i	i	n/a
480.464	0.12	960928	keystroke_m	m	n/a
480.614	0.135	961228	keystroke_a	a	n/a
480.734	0.105	961468	keystroke_t	t	n/a
481.034	0.1055	962068	keystroke_e	e	n/a
481.4245	0.134	962849	keystroke_d	d	n/a
481.6335	0.121	963267	keystroke_Key.space	Key.space	n/a
482.0245	0.09	964049	keystroke_l	l	n/a
482.2635	0.106	964527	keystroke_i	i	n/a
482.4445	0.15	964889	keystroke_n	n	n/a
482.6545	0.12	965309	keystroke_e	e	n/a
482.9545	0.165	965909	keystroke_a	a	n/a
483.3295	0.09	966659	keystroke_r	r	n/a
483.704	0.105	967408	keystroke_Key.enter	Key.enter	n/a
483.8145	5.981	967629	prompt	n/a	senegal serve band miller\n
484.754	0.075	969508	keystroke_s	s	n/a
484.904	0.105	969808	keystroke_e	e	n/a
485.069	0.075	970138	keystroke_n	n	n/a
485.114	0.12	970228	keystroke_e	e	n/a
485.459	0.1505	970918	keystroke_g	g	n/a
485.5945	0.105	971189	keystroke_a	a	n/a
485.7445	0.12	971489	keystroke_l	l	n/a
485.984	0.0905	971968	keystroke_Key.space	Key.space	n/a
486.209	0.0905	972418	keystroke_s	s	n/a
486.314	0.195	972628	keystroke_e	e	n/a
486.464	0.1355	972928	keystroke_r	r	n/a
486.839	0.105	973678	keystroke_v	v	n/a
487.019	0.06	974038	keystroke_e	e	n/a
487.3495	0.1045	974699	keystroke_Key.space	Key.space	n/a
487.6495	0.1645	975299	keystroke_b	b	n/a
487.844	0.0755	975688	keystroke_a	a	n/a
487.934	0.105	975868	keystroke_n	n	n/a
488.129	0.075	976258	keystroke_d	d	n/a
488.249	0.06	976498	keystroke_Key.space	Key.space	n/a
488.549	0.0895	977098	keystroke_m	m	n/a
488.82	0.074	977640	keystroke_i	i	n/a
489.104	0.015	978208	keystroke_l	l	n/a
489.1935	0.121	978387	keystroke_l	l	n/a
489.3585	0.12	978717	keystroke_e	e	n/a
489.449	0.1505	978898	keystroke_r	r	n/a
489.674	0.1205	979348	keystroke_Key.enter	Key.enter	n/a
489.7995	16.856	979599	prompt	n/a	recorders divine discounted exam\n
490.949	0.1355	981898	keystroke_r	r	n/a
491.0995	0.224	982199	keystroke_e	e	n/a
491.3085	0.06	982617	keystroke_r	r	n/a
491.9235	0.0905	983847	keystroke_Key.backspace	Key.backspace	n/a
492.1335	0.1055	984267	keystroke_c	c	n/a
492.344	0.1205	984688	keystroke_o	o	n/a
492.509	0.105	985018	keystroke_r	r	n/a
492.839	0.09	985678	keystroke_d	d	n/a
493.079	0.135	986158	keystroke_e	e	n/a
493.184	0.105	986368	keystroke_r	r	n/a
493.409	0.09	986818	keystroke_s	s	n/a
493.769	0.12	987538	keystroke_Key.space	Key.space	n/a
494.219	0.075	988438	keystroke_f	f	n/a
494.429	0.09	988858	keystroke_i	i	n/a
494.759	0.12	989518	keystroke_i	i	n/a
495.299	0.0895	990598	keystroke_Key.backspace	Key.backspace	n/a
495.6585	0.075	991317	keystroke_Key.backspace	Key.backspace	n/a
495.9585	0.075	991917	keystroke_Key.backspace	Key.backspace	n/a
496.3945	0.12	992789	keystroke_d	d	n/a
496.589	0.1195	993178	keystroke_i	i	n/a
498.8105	0.001	997621	keystroke_v	v	n/a
498.8985	0.136	997797	keystroke_i	i	n/a
499.0195	0.164	998039	keystroke_n	n	n/a
499.229	0.045	998458	keystroke_e	e	n/a
499.784	0.1055	999568	keystroke_Key.space	Key.space	n/a
500.354	0.105	1000708	keystroke_d	d	n/a
500.5045	0.104	1001009	keystroke_i	i	n/a
500.6245	0.1045	1001249	keystroke_s	s	n/a
501.0445	0.12	1002089	keystroke_c	c	n/a
501.179	0.18	1002358	keystroke_o	o	n/a
501.314	0.1505	1002628	keystroke_u	u	n/a
501.569	0.075	1003138	keystroke_t	t	n/a
501.629	0.12	1003258	keystroke_n	n	n/a
501.9145	0.075	1003829	keystroke_e	e	n/a
502.439	0.06	1004878	keystroke_d	d	n/a
503.249	0.09	1006498	keystroke_Key.backspace	Key.backspace	n/a
503.5935	0.09	1007187	keystroke_Key.backspace	Key.backspace	n/a
503.849	0.075	1007698	keystroke_Key.backspace	Key.backspace	n/a
504.224	0.06	1008448	keystroke_Key.backspace	Key.backspace	n/a
504.449	0.09	1008898	keystroke_n	n	n/a
504.599	0.075	1009198	keystroke_t	t	n/a
504.809	0.09	1009618	keystroke_e	e	n/a
505.154	0.12	1010308	keystroke_d	d	n/a
505.349	0.09	1010698	keystroke_Key.space	Key.space	n/a
505.559	0.09	1011118	keystroke_e	e	n/a
505.889	0.075	1011778	keystroke_x	x	n/a
506.2045	0.089	1012409	keystroke_a	a	n/a
506.3395	0.105	1012679	keystroke_m	m	n/a
506.5495	0.104	1013099	keystroke_Key.enter	Key.enter	n/a
506.659	9.4465	1013318	prompt	n/a	housewares contrary rates roads\n
507.4945	0.135	1014989	keystroke_h	h	n/a
507.719	0.225	1015438	keystroke_o	o	n/a
507.839	0.18	1015678	keystroke_u	u	n/a
508.034	0.1655	1016068	keystroke_s	s	n/a
508.169	0.1805	1016338	keystroke_e	e	n/a
508.7545	0.179	1017509	keystroke_w	w	n/a
508.8595	0.179	1017719	keystroke_a	a	n/a
508.9795	0.165	1017959	keystroke_r	r	n/a
509.1595	0.135	1018319	keystroke_e	e	n/a
509.3095	0.135	1018619	keystroke_s	s	n/a
509.8495	0.119	1019699	keystroke_Key.space	Key.space	n/a
510.224	0.12	1020448	keystroke_c	c	n/a
510.329	0.1655	1020658	keystroke_o	o	n/a
510.509	0.195	1021018	keystroke_n	n	n/a
510.659	0.09	1021318	keystroke_t	t	n/a
510.899	0.1345	1021798	keystroke_r	r	n/a
511.0195	0.12	1022039	keystroke_a	a	n/a
511.2585	0.105	1022517	keystroke_r	r	n/a
511.559	0.165	1023118	keystroke_y	y	n/a
511.709	0.1045	1023418	keystroke_Key.space	Key.space	n/a
512.0245	0.12	1024049	keystroke_t	t	n/a
512.6985	0.12	1025397	keystroke_Key.backspace	Key.backspace	n/a
512.9695	0.135	1025939	keystroke_r	r	n/a
513.1645	0.105	1026329	keystroke_a	a	n/a
513.3895	0.105	1026779	keystroke_t	t	n/a
513.5995	0.105	1027199	keystroke_e	e	n/a
513.8245	0.105	1027649	keystroke_s	s	n/a
513.9445	0.075	1027889	keystroke_Key.space	Key.space	n/a
514.244	0.105	1028488	keystroke_r	r	n/a
514.409	0.15	1028818	keystroke_o	o	n/a
515.2195	0.119	1030439	keystroke_a	a	n/a
515.5935	0.105	1031187	keystroke_d	d	n/a
515.7285	0.135	1031457	keystroke_s	s	n/a
516.0135	0.0905	1032027	keystroke_Key.enter	Key.enter	n/a
516.109	12.342	1032218	prompt	n/a	photographic gays clocks anatomy\n
516.929	0.1055	1033858	keystroke_p	p	n/a
517.0945	0.1345	1034189	keystroke_h	h	n/a
517.229	0.1355	1034458	keystroke_o	o	n/a
517.4085	0.106	1034817	keystroke_t	t	n/a
517.5295	0.105	1035059	keystroke_o	o	n/a
517.7835	0.106	1035567	keystroke_g	g	n/a
518.0545	0.104	1036109	keystroke_r	r	n/a
518.1595	0.1045	1036319	keystroke_a	a	n/a
518.294	0.135	1036588	keystroke_p	p	n/a
518.519	0.12	1037038	keystroke_h	h	n/a
518.999	0.09	1037998	keystroke_i	i	n/a
519.254	0.135	1038508	keystroke_c	c	n/a
519.584	0.06	1039168	keystroke_Key.space	Key.space	n/a
519.929	0.105	1039858	keystroke_g	g	n/a
520.154	0.12	1040308	keystroke_a	a	n/a
520.394	0.09	1040788	keystroke_y	y	n/a
520.559	0.135	1041118	keystroke_s	s	n/a
520.709	0.06	1041418	keystroke_Key.space	Key.space	n/a
521.054	0.135	1042108	keystroke_c	c	n/a
521.234	0.105	1042468	keystroke_l	l	n/a
521.459	0.0895	1042918	keystroke_o	o	n/a
522.0595	0.1195	1044119	keystroke_c	c	n/a
522.239	0.105	1044478	keystroke_k	k	n/a
522.584	0.015	1045168	keystroke_s	s	n/a
522.779	0.09	1045558	keystroke_Key.space	Key.space	n/a
523.304	0.105	1046608	keystroke_a	a	n/a
523.679	0.09	1047358	keystroke_n	n	n/a
523.829	0.1195	1047658	keystroke_a	a	n/a
524.2335	0.105	1048467	keystroke_t	t	n/a
524.4745	0.09	1048949	keystroke_a	a	n/a
525.1335	0.09	1050267	keystroke_Key.backspace	Key.backspace	n/a
525.419	0.1055	1050838	keystroke_o	o	n/a
525.944	0.12	1051888	keystroke_m	m	n/a
526.754	0.135	1053508	keystroke_y	y	n/a
528.3135	0.135	1056627	keystroke_Key.enter	Key.enter	n/a
528.456	27.1445	1056912	prompt	n/a	intense politics palestinian owned\n
529.3785	0.1355	1058757	keystroke_i	i	n/a
529.5585	0.1055	1059117	keystroke_n	n	n/a
530.369	0.0155	1060738	keystroke_n	n	n/a
530.429	0.0895	1060858	keystroke_t	t	n/a
530.714	0.135	1061428	keystroke_e	e	n/a
531.164	0.06	1062328	keystroke_Key.backspace	Key.backspace	n/a
531.404	0.09	1062808	keystroke_Key.backspace	Key.backspace	n/a
531.7635	0.0905	1063527	keystroke_Key.backspace	Key.backspace	n/a
532.4995	0.1195	1064999	keystroke_n	n	n/a
533.4135	0.105	1066827	keystroke_Key.backspace	Key.backspace	n/a
533.8185	0.105	1067637	keystroke_t	t	n/a
534.0435	0.106	1068087	keystroke_e	e	n/a
534.194	0.1205	1068388	keystroke_n	n	n/a
534.3595	0.1645	1068719	keystroke_s	s	n/a
534.5395	0.164	1069079	keystroke_e	e	n/a
534.794	0.12	1069588	keystroke_Key.space	Key.space	n/a
535.4845	0.135	1070969	keystroke_p	p	n/a
535.754	0.12	1071508	keystroke_o	o	n/a
536.009	0.12	1072018	keystroke_l	l	n/a
536.249	0.0755	1072498	keystroke_o	o	n/a
536.4145	0.12	1072829	keystroke_g	g	n/a
536.924	0.09	1073848	keystroke_Key.backspace	Key.backspace	n/a
537.1645	0.0745	1074329	keystroke_t	t	n/a
537.254	0.1045	1074508	keystroke_i	i	n/a
537.7645	0.089	1075529	keystroke_c	c	n/a
538.0035	0.121	1076007	keystroke_s	s	n/a
538.2885	0.105	1076577	keystroke_Key.space	Key.space	n/a
538.4835	0.151	1076967	keystroke_p	p	n/a
538.7085	0.166	1077417	keystroke_a	a	n/a
539.6245	0.104	1079249	keystroke_Key.backspace	Key.backspace	n/a
540.0445	0.12	1080089	keystroke_Key.backspace	Key.backspace	n/a
540.464	0.0755	1080928	keystroke_Key.backspace	Key.backspace	n/a
540.7945	0.0895	1081589	keystroke_Key.backspace	Key.backspace	n/a
541.199	0.105	1082398	keystroke_Key.backspace	Key.backspace	n/a
541.574	0.0905	1083148	keystroke_Key.backspace	Key.backspace	n/a
541.964	0.1045	1083928	keystroke_Key.backspace	Key.backspace	n/a
542.4285	0.0455	1084857	keystroke_Key.backspace	Key.backspace	n/a
542.6685	0.1205	1085337	keystroke_i	i	n/a
542.9235	0.0755	1085847	keystroke_t	t	n/a
543.0445	0.089	1086089	keystroke_i	i	n/a
543.569	0.075	1087138	keystroke_c	c	n/a
543.8535	0.1655	1087707	keystroke_s	s	n/a
544.1535	0.0755	1088307	keystroke_Key.space	Key.space	n/a
544.469	0.15	1088938	keystroke_p	p	n/a
544.634	0.12	1089268	keystroke_a	a	n/a
544.964	0.255	1089928	keystroke_l	l	n/a
545.099	0.15	1090198	keystroke_e	e	n/a
545.309	0.1495	1090618	keystroke_s	s	n/a
545.9695	0.075	1091939	keystroke_t	t	n/a
546.1335	0.1055	1092267	keystroke_i	i	n/a
546.8835	0.1055	1093767	keystroke_n	n	n/a
547.1535	0.121	1094307	keystroke_i	i	n/a
547.3035	0.105	1094607	keystroke_a	a	n/a
547.4235	0.075	1094847	keystroke_n	n	n/a
547.6785	0.09	1095357	keystroke_Key.space	Key.space	n/a
548.864	0.105	1097728	keystroke_Key.backspace	Key.backspace	n/a
549.149	0.0895	1098298	keystroke_Key.backspace	Key.backspace	n/a
549.4035	0.075	1098807	keystroke_Key.backspace	Key.backspace	n/a
552.436	0.073	1104872	keystroke_a	a	n/a
552.599	0.09	1105198	keystroke_n	n	n/a
552.899	0.105	1105798	keystroke_Key.space	Key.space	n/a
553.919	0.15	1107838	keystroke_o	o	n/a
554.114	0.1645	1108228	keystroke_w	w	n/a
554.354	0.12	1108708	keystroke_n	n	n/a
554.534	0.12	1109068	keystroke_e	e	n/a
554.849	0.075	1109698	keystroke_d	d	n/a
555.479	0.12	1110958	keystroke_Key.enter	Key.enter	n/a
555.6045	14.456	1111209	prompt	n/a	prague justice downloadable editorial\n
556.544	0.12	1113088	keystroke_p	p	n/a
556.8445	0.18	1113689	keystroke_r	r	n/a
557.039	0.105	1114078	keystroke_a	a	n/a
557.4595	0.0895	1114919	keystroke_u	u	n/a
558.4935	0.135	1116987	keystroke_Key.backspace	Key.backspace	n/a
558.794	0.12	1117588	keystroke_g	g	n/a
559.0485	0.1055	1118097	keystroke_u	u	n/a
559.199	0.1955	1118398	keystroke_e	e	n/a
559.5435	0.1205	1119087	keystroke_Key.space	Key.space	n/a
560.0685	0.105	1120137	keystroke_j	j	n/a
560.3385	0.1205	1120677	keystroke_u	u	n/a
560.534	0.06	1121068	keystroke_s	s	n/a
560.9685	0.135	1121937	keystroke_t	t	n/a
561.1335	0.1055	1122267	keystroke_i	i	n/a
561.449	0.1045	1122898	keystroke_c	c	n/a
561.764	0.12	1123528	keystroke_e	e	n/a
561.944	0.1045	1123888	keystroke_Key.space	Key.space	n/a
562.394	0.045	1124788	keystroke_d	d	n/a
562.4995	0.0895	1124999	keystroke_o	o	n/a
562.649	0.1645	1125298	keystroke_w	w	n/a
562.799	0.075	1125598	keystroke_n	n	n/a
563.039	0.105	1126078	keystroke_l	l	n/a
563.2645	0.119	1126529	keystroke_o	o	n/a
563.4285	0.105	1126857	keystroke_a	a	n/a
563.774	0.1345	1127548	keystroke_d	d	n/a
564.074	0.09	1128148	keystroke_a	a	n/a
564.374	0.105	1128748	keystroke_b	b	n/a
564.539	0.105	1129078	keystroke_l	l	n/a
564.674	0.12	1129348	keystroke_e	e	n/a
565.049	0.1045	1130098	keystroke_Key.space	Key.space	n/a
565.4835	0.1055	1130967	keystroke_d	d	n/a
565.7685	0.075	1131537	keystroke_e	e	n/a
566.444	0.135	1132888	keystroke_Key.backspace	Key.backspace	n/a
566.804	0.135	1133608	keystroke_Key.backspace	Key.backspace	n/a
567.029	0.12	1134058	keystroke_e	e	n/a
567.314	0.135	1134628	keystroke_d	d	n/a
567.4645	0.0895	1134929	keystroke_i	i	n/a
567.749	0.105	1135498	keystroke_t	t	n/a
568.4545	0.134	1136909	keystroke_o	o	n/a
568.739	0.12	1137478	keystroke_r	r	n/a
568.9785	0.105	1137957	keystroke_i	i	n/a
569.1895	0.135	1138379	keystroke_a	a	n/a
569.384	0.105	1138768	keystroke_l	l	n/a
569.984	0.075	1139968	keystroke_Key.enter	Key.enter	n/a
570.064	27.2525	1140128	prompt	n/a	theta available excerpt jefferson\n
571.004	0.105	1142008	keystroke_t	t	n/a
571.244	0.09	1142488	keystroke_h	h	n/a
571.319	0.12	1142638	keystroke_e	e	n/a
571.5595	0.0895	1143119	keystroke_t	t	n/a
571.6495	0.15	1143299	keystroke_a	a	n/a
571.934	0.1045	1143868	keystroke_Key.space	Key.space	n/a
572.384	0.1195	1144768	keystroke_a	a	n/a
572.7745	0.09	1145549	keystroke_v	v	n/a
573.0445	0.045	1146089	keystroke_a	a	n/a
573.1645	0.105	1146329	keystroke_l	l	n/a
573.5245	0.075	1147049	keystroke_i	i	n/a
573.7795	0.1195	1147559	keystroke_l	l	n/a
573.9135	0.105	1147827	keystroke_a	a	n/a
574.199	0.105	1148398	keystroke_b	b	n/a
574.379	0.12	1148758	keystroke_l	l	n/a
574.529	0.135	1149058	keystroke_e	e	n/a
577.485	0.014	1154970	keystroke_Key.backspace	Key.backspace	n/a
577.844	0.075	1155688	keystroke_Key.backspace	Key.backspace	n/a
578.2185	0.1055	1156437	keystroke_Key.backspace	Key.backspace	n/a
578.6235	0.105	1157247	keystroke_Key.backspace	Key.backspace	n/a
578.984	0.105	1157968	keystroke_Key.backspace	Key.backspace	n/a
579.374	0.105	1158748	keystroke_Key.backspace	Key.backspace	n/a
579.719	0.105	1159438	keystroke_Key.backspace	Key.backspace	n/a
579.989	0.1055	1159978	keystroke_i	i	n/a
580.304	0.1355	1160608	keystroke_l	l	n/a
580.514	0.09	1161028	keystroke_a	a	n/a
580.754	0.1355	1161508	keystroke_l	l	n/a
581.114	0.15	1162228	keystroke_b	b	n/a
581.654	0.135	1163308	keystroke_e	e	n/a
581.939	0.105	1163878	keystroke_l	l	n/a
582.629	0.015	1165258	keystroke_Key.backspace	Key.backspace	n/a
582.794	0.075	1165588	keystroke_Key.backspace	Key.backspace	n/a
583.0645	0.1045	1166129	keystroke_l	l	n/a
583.199	0.09	1166398	keystroke_e	e	n/a
583.409	0.105	1166818	keystroke_Key.space	Key.space	n/a
588.12	0.0445	1176240	keystroke_Key.backspace	Key.backspace	n/a
588.434	0.105	1176868	keystroke_Key.backspace	Key.backspace	n/a
588.764	0.09	1177528	keystroke_Key.backspace	Key.backspace	n/a
589.0645	0.105	1178129	keystroke_Key.backspace	Key.backspace	n/a
589.3785	0.075	1178757	keystroke_Key.backspace	Key.backspace	n/a
590.1445	0.09	1180289	keystroke_b	b	n/a
590.3395	0.135	1180679	keystroke_l	l	n/a
590.429	0.1355	1180858	keystroke_e	e	n/a
590.6095	0.165	1181219	keystroke_Key.space	Key.space	n/a
591.1945	0.09	1182389	keystroke_e	e	n/a
591.5095	0.12	1183019	keystroke_x	x	n/a
591.8385	0.196	1183677	keystroke_e	e	n/a
592.0195	0.134	1184039	keystroke_r	r	n/a
592.7085	0.0905	1185417	keystroke_Key.backspace	Key.backspace	n/a
593.0085	0.106	1186017	keystroke_Key.backspace	Key.backspace	n/a
593.3695	0.1345	1186739	keystroke_c	c	n/a
593.759	0.195	1187518	keystroke_e	e	n/a
593.924	0.1655	1187848	keystroke_r	r	n/a
594.4945	0.1045	1188989	keystroke_p	p	n/a
594.6735	0.1505	1189347	keystroke_t	t	n/a
594.944	0.135	1189888	keystroke_Key.space	Key.space	n/a
595.2435	0.09	1190487	keystroke_j	j	n/a
595.4535	0.15	1190907	keystroke_e	e	n/a
595.8595	0.105	1191719	keystroke_f	f	n/a
596.0385	0.09	1192077	keystroke_f	f	n/a
596.2345	0.164	1192469	keystroke_e	e	n/a
596.3395	0.1345	1192679	keystroke_r	r	n/a
596.5945	0.1495	1193189	keystroke_s	s	n/a
596.7145	0.1795	1193429	keystroke_o	o	n/a
596.8635	0.106	1193727	keystroke_n	n	n/a
597.2385	0.076	1194477	keystroke_Key.enter	Key.enter	n/a
597.32	9.326	1194640	prompt	n/a	tour encountered tribes cache\n
598.47	0.149	1196940	keystroke_t	t	n/a
598.634	0.2245	1197268	keystroke_o	o	n/a
598.7095	0.194	1197419	keystroke_u	u	n/a
598.8895	0.12	1197779	keystroke_r	r	n/a
599.3985	0.1205	1198797	keystroke_Key.space	Key.space	n/a
599.6685	0.166	1199337	keystroke_e	e	n/a
599.8945	0.135	1199789	keystroke_n	n	n/a
600.2095	0.135	1200419	keystroke_c	c	n/a
600.284	0.1945	1200568	keystroke_o	o	n/a
600.4345	0.105	1200869	keystroke_u	u	n/a
600.7035	0.135	1201407	keystroke_n	n	n/a
600.7785	0.1205	1201557	keystroke_t	t	n/a
600.974	0.1655	1201948	keystroke_e	e	n/a
601.1085	0.136	1202217	keystroke_r	r	n/a
601.26	0.0735	1202520	keystroke_e	e	n/a
601.7095	0.104	1203419	keystroke_d	d	n/a
601.9035	0.1205	1203807	keystroke_Key.space	Key.space	n/a
602.2785	0.106	1204557	keystroke_t	t	n/a
602.5195	0.0895	1205039	keystroke_r	r	n/a
602.5945	0.1195	1205189	keystroke_i	i	n/a
602.879	0.09	1205758	keystroke_b	b	n/a
603.0595	0.1195	1206119	keystroke_e	e	n/a
603.209	0.165	1206418	keystroke_s	s	n/a
603.404	0.09	1206808	keystroke_Key.space	Key.space	n/a
603.7345	0.135	1207469	keystroke_c	c	n/a
604.0645	0.105	1208129	keystroke_a	a	n/a
604.274	0.1355	1208548	keystroke_s	s	n/a
604.3945	0.1195	1208789	keystroke_h	h	n/a
605.114	0.105	1210228	keystroke_Key.backspace	Key.backspace	n/a
605.3695	0.09	1210739	keystroke_Key.backspace	Key.backspace	n/a
605.669	0.1205	1211338	keystroke_c	c	n/a
605.7745	0.12	1211549	keystroke_h	h	n/a
606.134	0.1355	1212268	keystroke_e	e	n/a
606.539	0.105	1213078	keystroke_Key.enter	Key.enter	n/a
606.652	11.019	1213304	prompt	n/a	republican limitations educational monsters\n
607.6195	0.134	1215239	keystroke_r	r	n/a
607.7685	0.136	1215537	keystroke_e	e	n/a
608.2345	0.1195	1216469	keystroke_p	p	n/a
608.399	0.1045	1216798	keystroke_u	u	n/a
608.6985	0.091	1217397	keystroke_b	b	n/a
608.9545	0.135	1217909	keystroke_l	l	n/a
609.1645	0.165	1218329	keystroke_i	i	n/a
609.3445	0.105	1218689	keystroke_c	c	n/a
609.6445	0.135	1219289	keystroke_a	a	n/a
609.7495	0.06	1219499	keystroke_n	n	n/a
609.9595	0.105	1219919	keystroke_Key.space	Key.space	n/a
610.5295	0.12	1221059	keystroke_l	l	n/a
610.769	0.1205	1221538	keystroke_i	i	n/a
611.04	0.1045	1222080	keystroke_m	m	n/a
611.295	0.1645	1222590	keystroke_i	i	n/a
611.5485	0.091	1223097	keystroke_t	t	n/a
611.6995	0.15	1223399	keystroke_a	a	n/a
611.7895	0.12	1223579	keystroke_t	t	n/a
611.8645	0.195	1223729	keystroke_i	i	n/a
611.9545	0.15	1223909	keystroke_o	o	n/a
612.0145	0.15	1224029	keystroke_n	n	n/a
612.1785	0.136	1224357	keystroke_s	s	n/a
612.8395	0.105	1225679	keystroke_Key.space	Key.space	n/a
613.0485	0.105	1226097	keystroke_e	e	n/a
613.305	0.1195	1226610	keystroke_d	d	n/a
613.409	0.106	1226818	keystroke_u	u	n/a
613.6345	0.135	1227269	keystroke_c	c	n/a
614.0085	0.12	1228017	keystroke_a	a	n/a
614.1595	0.09	1228319	keystroke_t	t	n/a
614.2645	0.225	1228529	keystroke_i	i	n/a
614.3695	0.1795	1228739	keystroke_o	o	n/a
614.504	0.15	1229008	keystroke_n	n	n/a
614.669	0.12	1229338	keystroke_a	a	n/a
614.804	0.12	1229608	keystroke_l	l	n/a
615.074	0.105	1230148	keystroke_Key.space	Key.space	n/a
615.5695	0.12	1231139	keystroke_m	m	n/a
615.794	0.18	1231588	keystroke_o	o	n/a
615.914	0.135	1231828	keystroke_n	n	n/a
616.095	0.134	1232190	keystroke_s	s	n/a
616.454	0.12	1232908	keystroke_t	t	n/a
616.6195	0.1955	1233239	keystroke_e	e	n/a
616.754	0.136	1233508	keystroke_r	r	n/a
616.949	0.105	1233898	keystroke_s	s	n/a
617.5945	0.0745	1235189	keystroke_Key.enter	Key.enter	n/a
617.6745	12.6265	1235349	prompt	n/a	pregnant viking moderate helicopter\n
618.5535	0.181	1237107	keystroke_p	p	n/a
618.674	0.1205	1237348	keystroke_r	r	n/a
618.7645	0.149	1237529	keystroke_e	e	n/a
618.9895	0.119	1237979	keystroke_g	g	n/a
619.2585	0.0905	1238517	keystroke_n	n	n/a
619.3785	0.12	1238757	keystroke_a	a	n/a
619.485	0.1185	1238970	keystroke_n	n	n/a
619.7545	0.1195	1239509	keystroke_t	t	n/a
620.024	0.0745	1240048	keystroke_Key.space	Key.space	n/a
620.5945	0.1045	1241189	keystroke_v	v	n/a
620.729	0.1355	1241458	keystroke_i	i	n/a
621.0445	0.09	1242089	keystroke_k	k	n/a
621.239	0.15	1242478	keystroke_i	i	n/a
621.36	0.15	1242720	keystroke_n	n	n/a
621.479	0.12	1242958	keystroke_g	g	n/a
622.034	0.0455	1244068	keystroke_Key.space	Key.space	n/a
622.3795	0.135	1244759	keystroke_m	m	n/a
623.6095	0.09	1247219	keystroke_o	o	n/a
623.8345	0.105	1247669	keystroke_d	d	n/a
624.1335	0.136	1248267	keystroke_e	e	n/a
624.7945	0.165	1249589	keystroke_r	r	n/a
624.9745	0.18	1249949	keystroke_a	a	n/a
625.1395	0.135	1250279	keystroke_t	t	n/a
625.2895	0.135	1250579	keystroke_e	e	n/a
625.7095	0.06	1251419	keystroke_Key.space	Key.space	n/a
626.0245	0.12	1252049	keystroke_h	h	n/a
626.2195	0.15	1252439	keystroke_e	e	n/a
626.3995	0.12	1252799	keystroke_l	l	n/a
626.9095	0.165	1253819	keystroke_i	i	n/a
627.524	0.1205	1255048	keystroke_c	c	n/a
627.72	0.149	1255440	keystroke_o	o	n/a
627.9445	0.1345	1255889	keystroke_p	p	n/a
628.395	0.134	1256790	keystroke_t	t	n/a
628.589	0.21	1257178	keystroke_e	e	n/a
628.7395	0.1495	1257479	keystroke_r	r	n/a
630.179	0.12	1260358	keystroke_Key.enter	Key.enter	n/a
630.304	9.6715	1260608	prompt	n/a	bottom incorporate deny nobody\n
631.3945	0.0895	1262789	keystroke_b	b	n/a
631.604	0.1195	1263208	keystroke_o	o	n/a
631.8445	0.09	1263689	keystroke_t	t	n/a
631.9945	0.12	1263989	keystroke_t	t	n/a
632.1285	0.061	1264257	keystroke_o	o	n/a
632.279	0.12	1264558	keystroke_m	m	n/a
632.564	0.075	1265128	keystroke_Key.space	Key.space	n/a
632.8945	0.18	1265789	keystroke_i	i	n/a
633.0445	0.1345	1266089	keystroke_n	n	n/a
633.314	0.151	1266628	keystroke_c	c	n/a
633.404	0.15	1266808	keystroke_o	o	n/a
633.7345	0.1505	1267469	keystroke_r	r	n/a
634.3645	0.105	1268729	keystroke_p	p	n/a
634.5445	0.225	1269089	keystroke_o	o	n/a
634.7395	0.195	1269479	keystroke_r	r	n/a
634.9645	0.1645	1269929	keystroke_a	a	n/a
635.114	0.1355	1270228	keystroke_t	t	n/a
635.234	0.1355	1270468	keystroke_e	e	n/a
635.729	0.105	1271458	keystroke_Key.space	Key.space	n/a
636.359	0.1055	1272718	keystroke_d	d	n/a
636.5845	0.1195	1273169	keystroke_e	e	n/a
636.735	0.075	1273470	keystroke_n	n	n/a
637.0345	0.1945	1274069	keystroke_y	y	n/a
637.1695	0.1045	1274339	keystroke_Key.space	Key.space	n/a
637.4235	0.1355	1274847	keystroke_n	n	n/a
637.5145	0.1945	1275029	keystroke_o	o	n/a
637.829	0.105	1275658	keystroke_b	b	n/a
637.979	0.1655	1275958	keystroke_o	o	n/a
638.2195	0.134	1276439	keystroke_d	d	n/a
638.3845	0.089	1276769	keystroke_y	y	n/a
639.8395	0.134	1279679	keystroke_Key.enter	Key.enter	n/a
639.9795	12.7165	1279959	prompt	n/a	bristol theology outside towards\n
641.0245	0.135	1282049	keystroke_b	b	n/a
641.5045	0.09	1283009	keystroke_r	r	n/a
641.6385	0.165	1283277	keystroke_i	i	n/a
641.7745	0.1355	1283549	keystroke_s	s	n/a
642.0285	0.075	1284057	keystroke_t	t	n/a
642.1345	0.105	1284269	keystroke_o	o	n/a
642.3595	0.15	1284719	keystroke_l	l	n/a
642.7195	0.0895	1285439	keystroke_Key.space	Key.space	n/a
643.2745	0.045	1286549	keystroke_t	t	n/a
643.3495	0.075	1286699	keystroke_h	h	n/a
643.4095	0.12	1286819	keystroke_e	e	n/a
643.5445	0.12	1287089	keystroke_o	o	n/a
643.8895	0.089	1287779	keystroke_l	l	n/a
644.085	0.1195	1288170	keystroke_o	o	n/a
644.22	0.0745	1288440	keystroke_g	g	n/a
644.369	0.105	1288738	keystroke_y	y	n/a
644.984	0.105	1289968	keystroke_Key.space	Key.space	n/a
645.179	0.33	1290358	keystroke_o	o	n/a
645.374	0.1495	1290748	keystroke_u	u	n/a
645.5245	0.119	1291049	keystroke_t	t	n/a
645.9145	0.06	1291829	keystroke_s	s	n/a
645.9895	0.18	1291979	keystroke_i	i	n/a
646.6945	0.12	1293389	keystroke_d	d	n/a
647.009	0.09	1294018	keystroke_e	e	n/a
647.999	0.105	1295998	keystroke_t	t	n/a
648.119	0.18	1296238	keystroke_o	o	n/a
648.2395	0.269	1296479	keystroke_w	w	n/a
648.449	0.0745	1296898	keystroke_a	a	n/a
648.9445	0.104	1297889	keystroke_Key.backspace	Key.backspace	n/a
649.1985	0.09	1298397	keystroke_Key.backspace	Key.backspace	n/a
649.4235	0.105	1298847	keystroke_Key.backspace	Key.backspace	n/a
649.9785	0.075	1299957	keystroke_Key.backspace	Key.backspace	n/a
650.1735	0.12	1300347	keystroke_Key.space	Key.space	n/a
650.549	0.1655	1301098	keystroke_t	t	n/a
650.789	0.135	1301578	keystroke_o	o	n/a
650.925	0.2095	1301850	keystroke_w	w	n/a
651.0595	0.1645	1302119	keystroke_a	a	n/a
651.149	0.1205	1302298	keystroke_r	r	n/a
651.524	0.0905	1303048	keystroke_d	d	n/a
651.599	0.1795	1303198	keystroke_s	s	n/a
652.5745	0.12	1305149	keystroke_Key.enter	Key.enter	n/a
652.6995	16.9615	1305399	prompt	n/a	background monitoring banners so\n
653.7145	0.105	1307429	keystroke_b	b	n/a
653.8495	0.105	1307699	keystroke_a	a	n/a
654.1945	0.089	1308389	keystroke_c	c	n/a
654.3745	0.105	1308749	keystroke_i	i	n/a
654.7645	0.135	1309529	keystroke_g	g	n/a
655.2745	0.075	1310549	keystroke_Key.backspace	Key.backspace	n/a
655.4545	0.075	1310909	keystroke_Key.backspace	Key.backspace	n/a
656.2795	0.1495	1312559	keystroke_k	k	n/a
656.6545	0.09	1313309	keystroke_g	g	n/a
656.9545	0.1195	1313909	keystroke_r	r	n/a
657.059	0.2255	1314118	keystroke_o	o	n/a
657.269	0.045	1314538	keystroke_j	j	n/a
657.285	0.014	1314570	keystroke_u	u	n/a
657.4795	0.1195	1314959	keystroke_n	n	n/a
658.049	0.0605	1316098	keystroke_Key.backspace	Key.backspace	n/a
658.1985	0.09	1316397	keystroke_Key.backspace	Key.backspace	n/a
658.574	0.0745	1317148	keystroke_Key.backspace	Key.backspace	n/a
659.2195	0.09	1318439	keystroke_u	u	n/a
659.4595	0.12	1318919	keystroke_n	n	n/a
659.6245	0.12	1319249	keystroke_d	d	n/a
660.1795	0.105	1320359	keystroke_Key.space	Key.space	n/a
660.5695	0.105	1321139	keystroke_m	m	n/a
660.8095	0.165	1321619	keystroke_o	o	n/a
661.0345	0.135	1322069	keystroke_n	n	n/a
661.26	0.1345	1322520	keystroke_i	i	n/a
661.5445	0.135	1323089	keystroke_t	t	n/a
661.6645	0.18	1323329	keystroke_o	o	n/a
661.8145	0.12	1323629	keystroke_r	r	n/a
662.0535	0.12	1324107	keystroke_y	y	n/a
662.49	0.15	1324980	keystroke_i	i	n/a
662.654	0.06	1325308	keystroke_n	n	n/a
662.699	0.1205	1325398	keystroke_g	g	n/a
662.8785	0.0905	1325757	keystroke_Key.space	Key.space	n/a
663.1945	0.119	1326389	keystroke_b	b	n/a
663.929	0.075	1327858	keystroke_Key.backspace	Key.backspace	n/a
664.124	0.0455	1328248	keystroke_Key.backspace	Key.backspace	n/a
664.3485	0.0905	1328697	keystroke_Key.backspace	Key.backspace	n/a
664.6785	0.075	1329357	keystroke_Key.backspace	Key.backspace	n/a
664.919	0.0595	1329838	keystroke_Key.backspace	Key.backspace	n/a
665.534	0.06	1331068	keystroke_Key.backspace	Key.backspace	n/a
665.8345	0.15	1331669	keystroke_i	i	n/a
666.029	0.1505	1332058	keystroke_n	n	n/a
666.224	0.15	1332448	keystroke_g	g	n/a
666.464	0.075	1332928	keystroke_Key.space	Key.space	n/a
666.959	0.1055	1333918	keystroke_b	b	n/a
667.2145	0.1345	1334429	keystroke_a	a	n/a
667.484	0.075	1334968	keystroke_n	n	n/a
667.694	0.105	1335388	keystroke_n	n	n/a
667.919	0.1655	1335838	keystroke_e	e	n/a
668.024	0.1505	1336048	keystroke_r	r	n/a
668.31	0.1495	1336620	keystroke_s	s	n/a
668.5195	0.12	1337039	keystroke_Key.space	Key.space	n/a
668.8195	0.12	1337639	keystroke_s	s	n/a
668.9845	0.12	1337969	keystroke_o	o	n/a
669.5395	0.12	1339079	keystroke_Key.enter	Key.enter	n/a
669.665	10.6765	1339330	prompt	n/a	mile visited donald ability\n
670.6195	0.105	1341239	keystroke_m	m	n/a
670.8895	0.075	1341779	keystroke_i	i	n/a
671.4445	0.1205	1342889	keystroke_l	l	n/a
671.579	0.165	1343158	keystroke_e	e	n/a
671.819	0.135	1343638	keystroke_Key.space	Key.space	n/a
672.4495	0.0905	1344899	keystroke_v	v	n/a
672.6745	0.15	1345349	keystroke_i	i	n/a
672.8695	0.15	1345739	keystroke_s	s	n/a
673.0495	0.135	1346099	keystroke_i	i	n/a
673.3195	0.15	1346639	keystroke_t	t	n/a
673.6195	0.12	1347239	keystroke_e	e	n/a
673.9345	0.165	1347869	keystroke_d	d	n/a
674.1295	0.09	1348259	keystroke_Key.space	Key.space	n/a
674.6095	0.135	1349219	keystroke_d	d	n/a
674.7745	0.12	1349549	keystroke_o	o	n/a
674.9845	0.15	1349969	keystroke_n	n	n/a
675.2545	0.105	1350509	keystroke_a	a	n/a
675.4195	0.12	1350839	keystroke_l	l	n/a
675.7345	0.18	1351469	keystroke_d	d	n/a
676.259	0.1355	1352518	keystroke_Key.space	Key.space	n/a
676.53	0.1495	1353060	keystroke_a	a	n/a
677.0095	0.1205	1354019	keystroke_b	b	n/a
677.5195	0.09	1355039	keystroke_i	i	n/a
677.8345	0.15	1355669	keystroke_l	l	n/a
678.1495	0.1805	1356299	keystroke_i	i	n/a
678.42	0.135	1356840	keystroke_t	t	n/a
678.69	0.104	1357380	keystroke_y	y	n/a
680.2195	0.12	1360439	keystroke_Key.enter	Key.enter	n/a
680.3455	8.56	1360691	prompt	n/a	lion assist talks called\n
681.5395	0.105	1363079	keystroke_l	l	n/a
681.7495	0.2095	1363499	keystroke_i	i	n/a
681.8845	0.1805	1363769	keystroke_o	o	n/a
682.034	0.1205	1364068	keystroke_n	n	n/a
682.3045	0.1045	1364609	keystroke_Key.space	Key.space	n/a
682.634	0.121	1365268	keystroke_a	a	n/a
682.949	0.045	1365898	keystroke_s	s	n/a
683.084	0.075	1366168	keystroke_s	s	n/a
683.174	0.0905	1366348	keystroke_i	i	n/a
683.324	0.105	1366648	keystroke_s	s	n/a
683.7295	0.1355	1367459	keystroke_t	t	n/a
684.6295	0.135	1369259	keystroke_Key.space	Key.space	n/a
685.0795	0.1495	1370159	keystroke_t	t	n/a
685.244	0.12	1370488	keystroke_a	a	n/a
685.4245	0.12	1370849	keystroke_l	l	n/a
685.6345	0.12	1371269	keystroke_k	k	n/a
685.784	0.165	1371568	keystroke_s	s	n/a
686.084	0.105	1372168	keystroke_Key.space	Key.space	n/a
686.475	0.119	1372950	keystroke_c	c	n/a
686.774	0.0905	1373548	keystroke_a	a	n/a
686.9545	0.0895	1373909	keystroke_l	l	n/a
687.119	0.12	1374238	keystroke_l	l	n/a
687.2995	0.09	1374599	keystroke_e	e	n/a
687.5995	0.0905	1375199	keystroke_d	d	n/a
687.765	0.1195	1375530	keystroke_Key.space	Key.space	n/a
688.469	0.09	1376938	keystroke_Key.backspace	Key.backspace	n/a
688.784	0.1205	1377568	keystroke_Key.enter	Key.enter	n/a
688.9085	5.9675	1377817	prompt	n/a	blah her stud clearing\n
689.999	0.091	1379998	keystroke_b	b	n/a
690.2845	0.1795	1380569	keystroke_l	l	n/a
690.419	0.12	1380838	keystroke_a	a	n/a
690.69	0.105	1381380	keystroke_h	h	n/a
690.8395	0.1045	1381679	keystroke_Key.space	Key.space	n/a
691.0645	0.12	1382129	keystroke_h	h	n/a
691.169	0.1655	1382338	keystroke_e	e	n/a
691.274	0.15	1382548	keystroke_r	r	n/a
691.439	0.06	1382878	keystroke_Key.space	Key.space	n/a
691.649	0.1055	1383298	keystroke_s	s	n/a
691.9345	0.045	1383869	keystroke_t	t	n/a
692.054	0.09	1384108	keystroke_u	u	n/a
692.249	0.1355	1384498	keystroke_d	d	n/a
692.414	0.0745	1384828	keystroke_Key.space	Key.space	n/a
692.7585	0.1355	1385517	keystroke_c	c	n/a
692.94	0.12	1385880	keystroke_l	l	n/a
693.18	0.21	1386360	keystroke_e	e	n/a
693.8695	0.18	1387739	keystroke_a	a	n/a
694.079	0.1055	1388158	keystroke_r	r	n/a
694.2595	0.18	1388519	keystroke_i	i	n/a
694.4095	0.1645	1388819	keystroke_n	n	n/a
694.559	0.09	1389118	keystroke_g	g	n/a
694.8145	0.0595	1389629	keystroke_Key.enter	Key.enter	n/a
694.8795	16.2265	1389759	prompt	n/a	lights fuji forestry dictionaries\n
695.9245	0.075	1391849	keystroke_o	o	n/a
695.9545	0.06	1391909	keystroke_l	l	n/a
696.134	0.151	1392268	keystroke_i	i	n/a
696.255	0.075	1392510	keystroke_g	g	n/a
696.3595	0.12	1392719	keystroke_h	h	n/a
696.509	0.06	1393018	keystroke_t	t	n/a
697.709	0.09	1395418	keystroke_Key.backspace	Key.backspace	n/a
697.9345	0.0445	1395869	keystroke_Key.backspace	Key.backspace	n/a
698.114	0.0755	1396228	keystroke_Key.backspace	Key.backspace	n/a
698.324	0.0605	1396648	keystroke_Key.backspace	Key.backspace	n/a
698.474	0.075	1396948	keystroke_Key.backspace	Key.backspace	n/a
698.624	0.09	1397248	keystroke_Key.backspace	Key.backspace	n/a
698.8345	0.09	1397669	keystroke_Key.backspace	Key.backspace	n/a
699.719	0.136	1399438	keystroke_l	l	n/a
699.974	0.1655	1399948	keystroke_i	i	n/a
700.169	0.1355	1400338	keystroke_g	g	n/a
700.335	0.15	1400670	keystroke_h	h	n/a
700.5	0.1045	1401000	keystroke_t	t	n/a
700.515	0.029	1401030	keystroke_g	g	n/a
700.769	0.15	1401538	keystroke_s	s	n/a
701.49	0.089	1402980	keystroke_Key.backspace	Key.backspace	n/a
701.729	0.076	1403458	keystroke_Key.backspace	Key.backspace	n/a
702.075	0.149	1404150	keystroke_s	s	n/a
702.2845	0.1055	1404569	keystroke_Key.space	Key.space	n/a
702.599	0.1355	1405198	keystroke_f	f	n/a
702.8545	0.1195	1405709	keystroke_u	u	n/a
703.1995	0.0905	1406399	keystroke_j	j	n/a
703.4245	0.09	1406849	keystroke_i	i	n/a
703.7245	0.075	1407449	keystroke_Key.space	Key.space	n/a
704.0695	0.1655	1408139	keystroke_f	f	n/a
704.2795	0.15	1408559	keystroke_o	o	n/a
704.49	0.1195	1408980	keystroke_r	r	n/a
704.5795	0.15	1409159	keystroke_e	e	n/a
704.8045	0.1345	1409609	keystroke_s	s	n/a
705.24	0.119	1410480	keystroke_t	t	n/a
705.539	0.105	1411078	keystroke_r	r	n/a
706.019	0.12	1412038	keystroke_y	y	n/a
706.304	0.1045	1412608	keystroke_Key.space	Key.space	n/a
707.1295	0.0145	1414259	keystroke_d	d	n/a
707.174	0.091	1414348	keystroke_i	i	n/a
707.3845	0.105	1414769	keystroke_c	c	n/a
707.744	0.1205	1415488	keystroke_t	t	n/a
707.849	0.2255	1415698	keystroke_i	i	n/a
707.9845	0.165	1415969	keystroke_o	o	n/a
708.09	0.1495	1416180	keystroke_n	n	n/a
708.2995	0.135	1416599	keystroke_a	a	n/a
709.5595	0.135	1419119	keystroke_r	r	n/a
709.7395	0.12	1419479	keystroke_i	i	n/a
709.89	0.0745	1419780	keystroke_e	e	n/a
710.3395	0.165	1420679	keystroke_s	s	n/a
710.969	0.1355	1421938	keystroke_Key.enter	Key.enter	n/a
711.1095	10.2865	1422219	prompt	n/a	modules functioning expensive western\n
712.1245	0.1055	1424249	keystroke_m	m	n/a
712.4095	0.105	1424819	keystroke_o	o	n/a
712.5445	0.105	1425089	keystroke_d	d	n/a
712.6795	0.09	1425359	keystroke_u	u	n/a
712.9345	0.135	1425869	keystroke_l	l	n/a
713.0545	0.105	1426109	keystroke_e	e	n/a
713.2345	0.12	1426469	keystroke_s	s	n/a
713.3845	0.12	1426769	keystroke_Key.space	Key.space	n/a
713.7295	0.135	1427459	keystroke_f	f	n/a
713.9995	0.09	1427999	keystroke_u	u	n/a
714.2695	0.09	1428539	keystroke_n	n	n/a
714.4795	0.1205	1428959	keystroke_c	c	n/a
714.884	0.075	1429768	keystroke_t	t	n/a
715.0045	0.2395	1430009	keystroke_i	i	n/a
715.1095	0.18	1430219	keystroke_o	o	n/a
715.199	0.18	1430398	keystroke_n	n	n/a
715.439	0.1355	1430878	keystroke_i	i	n/a
715.6495	0.12	1431299	keystroke_n	n	n/a
715.9495	0.09	1431899	keystroke_g	g	n/a
716.2345	0.12	1432469	keystroke_Key.space	Key.space	n/a
716.744	0.09	1433488	keystroke_e	e	n/a
717.044	0.1355	1434088	keystroke_x	x	n/a
717.224	0.1355	1434448	keystroke_p	p	n/a
717.435	0.0885	1434870	keystroke_e	e	n/a
717.6145	0.12	1435229	keystroke_n	n	n/a
717.765	0.074	1435530	keystroke_s	s	n/a
717.885	0.12	1435770	keystroke_i	i	n/a
718.1985	0.1055	1436397	keystroke_v	v	n/a
718.4395	0.1345	1436879	keystroke_e	e	n/a
718.994	0.0905	1437988	keystroke_Key.space	Key.space	n/a
719.369	0.105	1438738	keystroke_w	w	n/a
719.6545	0.1355	1439309	keystroke_e	e	n/a
719.925	0.1045	1439850	keystroke_s	s	n/a
720.1945	0.105	1440389	keystroke_t	t	n/a
720.4045	0.225	1440809	keystroke_e	e	n/a
720.584	0.105	1441168	keystroke_r	r	n/a
720.8095	0.1195	1441619	keystroke_n	n	n/a
721.289	0.105	1442578	keystroke_Key.enter	Key.enter	n/a
721.4015	8.379	1442803	prompt	n/a	entire profile coast ratio\n
722.174	0.15	1444348	keystroke_e	e	n/a
722.3395	0.1495	1444679	keystroke_n	n	n/a
722.565	0.0745	1445130	keystroke_t	t	n/a
722.6695	0.09	1445339	keystroke_i	i	n/a
722.8045	0.195	1445609	keystroke_e	e	n/a
723.4795	0.09	1446959	keystroke_Key.backspace	Key.backspace	n/a
723.5845	0.12	1447169	keystroke_r	r	n/a
723.6745	0.15	1447349	keystroke_e	e	n/a
723.8695	0.105	1447739	keystroke_Key.space	Key.space	n/a
724.1095	0.135	1448219	keystroke_p	p	n/a
724.3645	0.12	1448729	keystroke_r	r	n/a
724.5135	0.121	1449027	keystroke_o	o	n/a
724.7545	0.09	1449509	keystroke_f	f	n/a
724.8445	0.075	1449689	keystroke_i	i	n/a
725.0545	0.135	1450109	keystroke_l	l	n/a
725.1445	0.135	1450289	keystroke_e	e	n/a
725.519	0.12	1451038	keystroke_Key.space	Key.space	n/a
726.075	0.1485	1452150	keystroke_c	c	n/a
726.24	0.1495	1452480	keystroke_o	o	n/a
726.5245	0.15	1453049	keystroke_a	a	n/a
726.7795	0.1205	1453559	keystroke_s	s	n/a
727.079	0.105	1454158	keystroke_t	t	n/a
727.185	0.119	1454370	keystroke_Key.space	Key.space	n/a
727.394	0.15	1454788	keystroke_r	r	n/a
727.529	0.165	1455058	keystroke_a	a	n/a
727.7845	0.12	1455569	keystroke_t	t	n/a
728.744	0.225	1457488	keystroke_i	i	n/a
728.909	0.1805	1457818	keystroke_o	o	n/a
729.644	0.135	1459288	keystroke_Key.enter	Key.enter	n/a
729.792	13.5945	1459584	prompt	n/a	tions question morgan considering\n
731.339	0.105	1462678	keystroke_t	t	n/a
731.4595	0.2245	1462919	keystroke_i	i	n/a
731.5795	0.1805	1463159	keystroke_o	o	n/a
731.669	0.1805	1463338	keystroke_n	n	n/a
731.9245	0.1195	1463849	keystroke_s	s	n/a
732.6895	0.0295	1465379	keystroke_Key.space	Key.space	n/a
733.7695	0.015	1467539	keystroke_q	q	n/a
734.549	0.1505	1469098	keystroke_u	u	n/a
734.7145	0.1195	1469429	keystroke_e	e	n/a
734.969	0.1355	1469938	keystroke_s	s	n/a
735.4345	0.255	1470869	keystroke_i	i	n/a
735.749	0.286	1471498	keystroke_o	o	n/a
736.0045	0.1645	1472009	keystroke_n	n	n/a
736.7995	0.09	1473599	keystroke_Key.backspace	Key.backspace	n/a
737.0845	0.09	1474169	keystroke_Key.backspace	Key.backspace	n/a
737.3245	0.09	1474649	keystroke_Key.backspace	Key.backspace	n/a
737.6095	0.09	1475219	keystroke_t	t	n/a
737.775	0.2095	1475550	keystroke_i	i	n/a
737.924	0.18	1475848	keystroke_o	o	n/a
738.059	0.0755	1476118	keystroke_n	n	n/a
738.3595	0.0895	1476719	keystroke_Key.space	Key.space	n/a
738.72	0.104	1477440	keystroke_m	m	n/a
738.929	0.271	1477858	keystroke_o	o	n/a
739.0645	0.09	1478129	keystroke_r	r	n/a
739.3345	0.165	1478669	keystroke_g	g	n/a
739.5295	0.135	1479059	keystroke_a	a	n/a
739.71	0.0895	1479420	keystroke_n	n	n/a
740.0845	0.09	1480169	keystroke_Key.space	Key.space	n/a
740.3995	0.165	1480799	keystroke_c	c	n/a
740.5195	0.15	1481039	keystroke_o	o	n/a
740.6845	0.12	1481369	keystroke_n	n	n/a
740.8495	0.105	1481699	keystroke_s	s	n/a
741.0145	0.105	1482029	keystroke_i	i	n/a
741.6895	0.18	1483379	keystroke_d	d	n/a
742.1985	0.166	1484397	keystroke_e	e	n/a
742.3495	0.15	1484699	keystroke_r	r	n/a
742.5295	0.135	1485059	keystroke_i	i	n/a
742.6495	0.165	1485299	keystroke_n	n	n/a
742.7845	0.075	1485569	keystroke_g	g	n/a
743.2645	0.12	1486529	keystroke_Key.enter	Key.enter	n/a
743.3905	13.8705	1486781	prompt	n/a	punishment hadn't holocaust fragrance\n
744.3595	0.1645	1488719	keystroke_p	p	n/a
744.5095	0.12	1489019	keystroke_u	u	n/a
744.7945	0.135	1489589	keystroke_n	n	n/a
744.8985	0.15	1489797	keystroke_i	i	n/a
745.035	0.1045	1490070	keystroke_s	s	n/a
745.3645	0.09	1490729	keystroke_m	m	n/a
745.4695	0.105	1490939	keystroke_e	e	n/a
745.5595	0.089	1491119	keystroke_n	n	n/a
745.739	0.1055	1491478	keystroke_t	t	n/a
746.474	0.12	1492948	keystroke_Key.backspace	Key.backspace	n/a
746.804	0.09	1493608	keystroke_Key.backspace	Key.backspace	n/a
747.074	0.12	1494148	keystroke_Key.backspace	Key.backspace	n/a
747.3595	0.0895	1494719	keystroke_Key.backspace	Key.backspace	n/a
747.8845	0.045	1495769	keystroke_h	h	n/a
748.1245	0.09	1496249	keystroke_m	m	n/a
748.2295	0.0895	1496459	keystroke_e	e	n/a
748.3345	0.0755	1496669	keystroke_n	n	n/a
748.469	0.075	1496938	keystroke_t	t	n/a
748.904	0.12	1497808	keystroke_Key.space	Key.space	n/a
749.4895	0.1045	1498979	keystroke_h	h	n/a
749.609	0.1055	1499218	keystroke_a	a	n/a
749.879	0.1055	1499758	keystroke_d	d	n/a
749.9545	0.15	1499909	keystroke_n	n	n/a
750.0895	0.135	1500179	keystroke_'	'	n/a
750.2545	0.105	1500509	keystroke_t	t	n/a
750.5245	0.09	1501049	keystroke_Key.space	Key.space	n/a
751.2745	0.105	1502549	keystroke_h	h	n/a
751.4695	0.135	1502939	keystroke_o	o	n/a
751.769	0.1205	1503538	keystroke_l	l	n/a
752.009	0.12	1504018	keystroke_o	o	n/a
752.3395	0.1045	1504679	keystroke_c	c	n/a
752.6545	0.1045	1505309	keystroke_a	a	n/a
752.8345	0.105	1505669	keystroke_u	u	n/a
752.955	0.1495	1505910	keystroke_s	s	n/a
753.4795	0.09	1506959	keystroke_t	t	n/a
