onset	duration	sample	value	key	prompt_text
0.0065	0.105	13	keystroke	Key.enter	n/a
0.161	39.2185	322	prompt	n/a	the quick brown fox jumps over a lazy dog\n
2.3035	0.0885	4607	keystroke	t	n/a
2.4215	0.1955	4843	keystroke	h	n/a
2.6625	0.1345	5325	keystroke	e	n/a
10.4625	0.133	20925	keystroke	Key.space	n/a
11.4505	0.1495	22901	keystroke	q	n/a
11.96	0.15	23920	keystroke	u	n/a
12.245	0.165	24490	keystroke	i	n/a
12.5	0.15	25000	keystroke	c	n/a
12.755	0.1795	25510	keystroke	k	n/a
26.107	0.0735	52214	keystroke	Key.space	n/a
26.6005	0.09	53201	keystroke	b	n/a
26.9905	0.105	53981	keystroke	r	n/a
27.201	0.165	54402	keystroke	i	n/a
27.29	0.135	54580	keystroke	w	n/a
27.471	0.104	54942	keystroke	b	n/a
28.0855	0.015	56171	keystroke	=	n/a
28.8055	0.105	57611	keystroke	Key.backspace	n/a
29.0455	0.075	58091	keystroke	Key.backspace	n/a
29.2405	0.12	58481	keystroke	Key.backspace	n/a
29.6155	0.12	59231	keystroke	Key.backspace	n/a
30.44	0.135	60880	keystroke	o	n/a
30.5905	0.1345	61181	keystroke	w	n/a
30.935	0.12	61870	keystroke	n	n/a
31.2205	0.0895	62441	keystroke	Key.space	n/a
31.385	0.136	62770	keystroke	f	n/a
31.5655	0.1355	63131	keystroke	o	n/a
32.151	0.12	64302	keystroke	x	n/a
32.3595	0.0905	64719	keystroke	Key.space	n/a
32.781	0.104	65562	keystroke	j	n/a
33.0205	0.105	66041	keystroke	u	n/a
33.305	0.1205	66610	keystroke	m	n/a
33.56	0.15	67120	keystroke	p	n/a
33.7405	0.135	67481	keystroke	s	n/a
33.9945	0.1505	67989	keystroke	Key.space	n/a
34.191	0.2095	68382	keystroke	o	n/a
34.4905	0.09	68981	keystroke	v	n/a
34.8355	0.18	69671	keystroke	e	n/a
34.9855	0.165	69971	keystroke	r	n/a
35.2405	0.1195	70481	keystroke	Key.space	n/a
35.405	0.15	70810	keystroke	a	n/a
35.6005	0.1045	71201	keystroke	Key.space	n/a
35.9305	0.225	71861	keystroke	l	n/a
36.0805	0.136	72161	keystroke	a	n/a
36.426	0.1645	72852	keystroke	z	n/a
36.696	0.1945	73392	keystroke	y	n/a
36.8905	0.1345	73781	keystroke	Key.space	n/a
37.205	0.1355	74410	keystroke	d	n/a
37.355	0.121	74710	keystroke	o	n/a
37.58	0.075	75160	keystroke	g	n/a
37.5955	0.0305	75191	keystroke	t	n/a
38.405	0.105	76810	keystroke	Key.backspace	n/a
39.2455	0.1045	78491	keystroke	Key.enter	n/a
39.4005	11.9815	78801	prompt	n/a	annoying setup montana herbs\n
40.2955	0.12	80591	keystroke	a	n/a
40.4595	0.0915	80919	keystroke	n	n/a
40.6845	0.075	81369	keystroke	n	n/a
41.2705	0.015	82541	keystroke	y	n/a
41.8845	0.1055	83769	keystroke	Key.backspace	n/a
42.2005	0.1495	84401	keystroke	o	n/a
42.441	0.135	84882	keystroke	y	n/a
42.7405	0.165	85481	keystroke	i	n/a
42.8905	0.18	85781	keystroke	n	n/a
43.0855	0.15	86171	keystroke	g	n/a
43.2505	0.105	86501	keystroke	Key.space	n/a
43.5355	0.0745	87071	keystroke	s	n/a
43.73	0.1205	87460	keystroke	e	n/a
44.016	0.135	88032	keystroke	t	n/a
44.4955	0.0895	88991	keystroke	u	n/a
44.63	0.1355	89260	keystroke	p	n/a
44.9005	0.1045	89801	keystroke	Key.space	n/a
45.3205	0.1345	90641	keystroke	m	n/a
45.5455	0.1505	91091	keystroke	o	n/a
45.65	0.18	91300	keystroke	n	n/a
45.966	0.119	91932	keystroke	t	n/a
46.16	0.1355	92320	keystroke	a	n/a
46.356	0.12	92712	keystroke	n	n/a
46.46	0.136	92920	keystroke	a	n/a
47.0755	0.09	94151	keystroke	Key.space	n/a
47.3005	0.225	94601	keystroke	h	n/a
47.4805	0.18	94961	keystroke	e	n/a
47.601	0.15	95202	keystroke	r	n/a
48.5605	0.1195	97121	keystroke	m	n/a
49.1155	0.1345	98231	keystroke	Key.backspace	n/a
50.061	0.1195	100122	keystroke	b	n/a
50.405	0.1355	100810	keystroke	s	n/a
51.26	0.12	102520	keystroke	Key.enter	n/a
51.3855	17.622	102771	prompt	n/a	write warcraft accommodations applicable\n
52.686	0.119	105372	keystroke	w	n/a
52.8955	0.1345	105791	keystroke	r	n/a
53.06	0.1805	106120	keystroke	i	n/a
53.286	0.149	106572	keystroke	t	n/a
53.5705	0.1355	107141	keystroke	e	n/a
53.826	0.075	107652	keystroke	Key.space	n/a
54.11	0.196	108220	keystroke	w	n/a
54.321	0.209	108642	keystroke	a	n/a
54.486	0.194	108972	keystroke	r	n/a
55.3105	0.1195	110621	keystroke	c	n/a
55.731	0.165	111462	keystroke	r	n/a
55.9405	0.1205	111881	keystroke	a	n/a
56.586	0.1345	113172	keystroke	f	n/a
57.0805	0.1345	114161	keystroke	t	n/a
58.221	0.1495	116442	keystroke	Key.space	n/a
58.5055	0.105	117011	keystroke	a	n/a
59.871	0.104	119742	keystroke	c	n/a
60.1255	0.1355	120251	keystroke	c	n/a
61.565	0.165	123130	keystroke	o	n/a
61.896	0.1495	123792	keystroke	m	n/a
62.1505	0.165	124301	keystroke	o	n/a
62.4805	0.105	124961	keystroke	d	n/a
62.7655	0.12	125531	keystroke	a	n/a
63.0055	0.12	126011	keystroke	t	n/a
63.2005	0.225	126401	keystroke	i	n/a
63.3205	0.135	126641	keystroke	o	n/a
63.3805	0.195	126761	keystroke	n	n/a
63.6805	0.15	127361	keystroke	s	n/a
65.721	0.119	131442	keystroke	Key.space	n/a
66.0805	0.15	132161	keystroke	a	n/a
66.38	0.1045	132760	keystroke	p	n/a
66.5755	0.12	133151	keystroke	p	n/a
66.9355	0.1655	133871	keystroke	l	n/a
67.371	0.0135	134742	keystroke	i	n/a
67.415	0.1195	134830	keystroke	c	n/a
67.7755	0.134	135551	keystroke	a	n/a
68.121	0.0895	136242	keystroke	b	n/a
68.3755	0.1795	136751	keystroke	l	n/a
68.5705	0.1345	137141	keystroke	e	n/a
68.885	0.12	137770	keystroke	Key.enter	n/a
69.0115	11.291	138023	prompt	n/a	she speeches finished battlefield\n
69.9205	0.1345	139841	keystroke	s	n/a
70.115	0.105	140230	keystroke	h	n/a
70.235	0.105	140470	keystroke	e	n/a
70.3705	0.105	140741	keystroke	Key.space	n/a
70.6255	0.12	141251	keystroke	s	n/a
71.03	0.1205	142060	keystroke	p	n/a
71.2405	0.12	142481	keystroke	e	n/a
71.5255	0.1045	143051	keystroke	e	n/a
71.96	0.12	143920	keystroke	c	n/a
72.1255	0.1345	144251	keystroke	h	n/a
72.3955	0.105	144791	keystroke	e	n/a
72.6505	0.09	145301	keystroke	s	n/a
72.8455	0.105	145691	keystroke	Key.space	n/a
73.0705	0.15	146141	keystroke	f	n/a
73.2805	0.075	146561	keystroke	i	n/a
73.611	0.1795	147222	keystroke	n	n/a
73.76	0.135	147520	keystroke	i	n/a
73.925	0.135	147850	keystroke	s	n/a
74.105	0.166	148210	keystroke	h	n/a
74.255	0.105	148510	keystroke	e	n/a
74.601	0.119	149202	keystroke	d	n/a
75.0505	0.12	150101	keystroke	Key.space	n/a
75.3805	0.105	150761	keystroke	b	n/a
75.7105	0.105	151421	keystroke	a	n/a
76.2055	0.075	152411	keystroke	t	n/a
76.3705	0.105	152741	keystroke	t	n/a
77.0155	0.1945	154031	keystroke	l	n/a
77.24	0.121	154480	keystroke	e	n/a
77.6	0.1205	155200	keystroke	f	n/a
77.885	0.1655	155770	keystroke	i	n/a
79.0405	0.105	158081	keystroke	e	n/a
79.4155	0.1645	158831	keystroke	l	n/a
79.7905	0.105	159581	keystroke	d	n/a
80.12	0.18	160240	keystroke	Key.enter	n/a
80.3065	15.101	160613	prompt	n/a	haiti piano conferencing indexes\n
81.305	0.1955	162610	keystroke	h	n/a
81.68	0.1355	163360	keystroke	a	n/a
81.83	0.1955	163660	keystroke	i	n/a
82.13	0.12	164260	keystroke	t	n/a
82.4905	0.135	164981	keystroke	i	n/a
82.7905	0.164	165581	keystroke	Key.space	n/a
83.046	0.1495	166092	keystroke	p	n/a
83.2705	0.18	166541	keystroke	i	n/a
83.51	0.136	167020	keystroke	a	n/a
83.72	0.18	167440	keystroke	n	n/a
83.9455	0.1645	167891	keystroke	o	n/a
84.3505	0.12	168701	keystroke	Key.space	n/a
84.7705	0.134	169541	keystroke	c	n/a
84.92	0.1195	169840	keystroke	o	n/a
85.026	0.1035	170052	keystroke	n	n/a
85.445	0.1205	170890	keystroke	f	n/a
85.955	0.15	171910	keystroke	e	n/a
86.885	0.135	173770	keystroke	r	n/a
87.1705	0.135	174341	keystroke	e	n/a
87.4095	0.15	174819	keystroke	n	n/a
87.7395	0.136	175479	keystroke	c	n/a
87.9205	0.15	175841	keystroke	i	n/a
88.0555	0.165	176111	keystroke	n	n/a
89.0905	0.1045	178181	keystroke	g	n/a
89.345	0.135	178690	keystroke	Key.space	n/a
89.7205	0.18	179441	keystroke	i	n/a
89.8555	0.2095	179711	keystroke	n	n/a
90.2455	0.135	180491	keystroke	e	n/a
90.6505	0.1495	181301	keystroke	x	n/a
91.07	0.12	182140	keystroke	e	n/a
91.97	0.1055	183940	keystroke	Key.backspace	n/a
92.1505	0.12	184301	keystroke	Key.backspace	n/a
92.615	0.1355	185230	keystroke	Key.backspace	n/a
92.9	0.105	185800	keystroke	d	n/a
93.245	0.09	186490	keystroke	e	n/a
93.86	0.12	187720	keystroke	x	n/a
94.2805	0.135	188561	keystroke	e	n/a
94.5505	0.0745	189101	keystroke	s	n/a
95.2545	0.1505	190509	keystroke	Key.enter	n/a
95.4115	14.696	190823	prompt	n/a	advert latitude approx electronic\n
96.335	0.09	192670	keystroke	a	n/a
96.6355	0.135	193271	keystroke	d	n/a
96.9505	0.135	193901	keystroke	v	n/a
97.3255	0.21	194651	keystroke	e	n/a
97.4905	0.165	194981	keystroke	r	n/a
97.8655	0.1195	195731	keystroke	t	n/a
98.3755	0.105	196751	keystroke	Key.space	n/a
98.675	0.195	197350	keystroke	l	n/a
98.8245	0.1205	197649	keystroke	a	n/a
99.0655	0.1345	198131	keystroke	t	n/a
99.3345	0.1955	198669	keystroke	i	n/a
99.5755	0.15	199151	keystroke	t	n/a
99.9355	0.179	199871	keystroke	u	n/a
100.6395	0.12	201279	keystroke	d	n/a
100.9855	0.105	201971	keystroke	e	n/a
101.2545	0.1355	202509	keystroke	Key.space	n/a
101.6155	0.119	203231	keystroke	a	n/a
101.9595	0.121	203919	keystroke	p	n/a
102.1555	0.135	204311	keystroke	p	n/a
102.65	0.135	205300	keystroke	r	n/a
102.8605	0.1505	205721	keystroke	o	n/a
103.2955	0.15	206591	keystroke	x	n/a
104.525	0.1205	209050	keystroke	Key.space	n/a
104.8105	0.15	209621	keystroke	e	n/a
105.1555	0.15	210311	keystroke	l	n/a
105.3355	0.09	210671	keystroke	e	n/a
105.6955	0.105	211391	keystroke	c	n/a
106.2355	0.15	212471	keystroke	t	n/a
106.5655	0.12	213131	keystroke	r	n/a
106.8055	0.15	213611	keystroke	o	n/a
106.9255	0.21	213851	keystroke	n	n/a
107.1505	0.21	214301	keystroke	i	n/a
107.4955	0.12	214991	keystroke	c	n/a
110.047	0.058	220094	keystroke	Key.enter	n/a
110.1125	10.929	220225	prompt	n/a	hearing snapshot sandra transportation\n
111.2905	0.1795	222581	keystroke	h	n/a
111.53	0.165	223060	keystroke	e	n/a
111.71	0.1505	223420	keystroke	a	n/a
111.8155	0.15	223631	keystroke	r	n/a
112.04	0.15	224080	keystroke	i	n/a
112.146	0.134	224292	keystroke	n	n/a
112.25	0.15	224500	keystroke	g	n/a
112.4895	0.09	224979	keystroke	Key.space	n/a
112.82	0.105	225640	keystroke	s	n/a
113.1655	0.164	226331	keystroke	n	n/a
113.3605	0.1345	226721	keystroke	a	n/a
113.5545	0.136	227109	keystroke	p	n/a
113.75	0.1205	227500	keystroke	s	n/a
113.915	0.18	227830	keystroke	h	n/a
114.14	0.225	228280	keystroke	o	n/a
114.605	0.15	229210	keystroke	t	n/a
114.89	0.15	229780	keystroke	Key.space	n/a
115.16	0.12	230320	keystroke	s	n/a
115.43	0.12	230860	keystroke	a	n/a
115.5655	0.1345	231131	keystroke	n	n/a
115.82	0.12	231640	keystroke	d	n/a
116.21	0.195	232420	keystroke	r	n/a
116.48	0.0905	232960	keystroke	a	n/a
116.945	0.1345	233890	keystroke	Key.space	n/a
117.35	0.15	234700	keystroke	t	n/a
117.725	0.1505	235450	keystroke	r	n/a
117.9805	0.12	235961	keystroke	a	n/a
118.2195	0.121	236439	keystroke	n	n/a
118.3695	0.12	236739	keystroke	s	n/a
118.5955	0.12	237191	keystroke	p	n/a
118.745	0.2555	237490	keystroke	o	n/a
118.925	0.1355	237850	keystroke	r	n/a
119.225	0.12	238450	keystroke	t	n/a
119.421	0.134	238842	keystroke	a	n/a
119.6	0.046	239200	keystroke	t	n/a
119.6605	0.1945	239321	keystroke	i	n/a
119.705	0.1655	239410	keystroke	o	n/a
119.7955	0.18	239591	keystroke	n	n/a
120.875	0.165	241750	keystroke	Key.enter	n/a
121.0465	8.3955	242093	prompt	n/a	urgent bras summer paperbacks\n
122.1655	0.1795	244331	keystroke	u	n/a
122.315	0.1505	244630	keystroke	r	n/a
122.6605	0.105	245321	keystroke	g	n/a
122.7955	0.1345	245591	keystroke	e	n/a
122.9605	0.1645	245921	keystroke	n	n/a
123.11	0.135	246220	keystroke	t	n/a
123.32	0.135	246640	keystroke	Key.space	n/a
123.59	0.135	247180	keystroke	b	n/a
123.95	0.1795	247900	keystroke	r	n/a
124.1305	0.12	248261	keystroke	a	n/a
124.4455	0.12	248891	keystroke	s	n/a
124.6405	0.105	249281	keystroke	Key.space	n/a
124.9405	0.1345	249881	keystroke	s	n/a
125.1655	0.1045	250331	keystroke	u	n/a
125.5105	0.0895	251021	keystroke	m	n/a
125.6605	0.12	251321	keystroke	m	n/a
125.81	0.2105	251620	keystroke	e	n/a
125.9605	0.18	251921	keystroke	r	n/a
126.1855	0.12	252371	keystroke	Key.space	n/a
126.4405	0.135	252881	keystroke	p	n/a
126.6655	0.12	253331	keystroke	a	n/a
126.8305	0.18	253661	keystroke	p	n/a
127.0255	0.225	254051	keystroke	e	n/a
127.1755	0.15	254351	keystroke	r	n/a
127.7605	0.105	255521	keystroke	b	n/a
128.0295	0.075	256059	keystroke	a	n/a
128.36	0.09	256720	keystroke	c	n/a
128.63	0.12	257260	keystroke	k	n/a
128.9155	0.105	257831	keystroke	s	n/a
129.3055	0.135	258611	keystroke	Key.enter	n/a
129.4465	27.2055	258893	prompt	n/a	apartment coleman against hypothetical\n
130.355	0.0905	260710	keystroke	a	n/a
130.625	0.15	261250	keystroke	p	n/a
130.79	0.21	261580	keystroke	a	n/a
131.735	0.12	263470	keystroke	r	n/a
132.0355	0.075	264071	keystroke	t	n/a
132.2305	0.149	264461	keystroke	m	n/a
132.6205	0.1055	265241	keystroke	e	n/a
132.7405	0.1505	265481	keystroke	n	n/a
132.92	0.12	265840	keystroke	t	n/a
133.1595	0.0905	266319	keystroke	Key.space	n/a
133.5045	0.136	267009	keystroke	c	n/a
133.5805	0.075	267161	keystroke	o	n/a
134.3745	0.18	268749	keystroke	l	n/a
134.5255	0.104	269051	keystroke	e	n/a
134.7205	0.134	269441	keystroke	m	n/a
134.871	0.134	269742	keystroke	a	n/a
135.021	0.104	270042	keystroke	n	n/a
135.5155	0.105	271031	keystroke	Key.space	n/a
135.8	0.1355	271600	keystroke	a	n/a
136.1005	0.045	272201	keystroke	g	n/a
136.4305	0.105	272861	keystroke	a	n/a
136.5955	0.1795	273191	keystroke	i	n/a
136.73	0.195	273460	keystroke	n	n/a
136.91	0.136	273820	keystroke	s	n/a
137.33	0.12	274660	keystroke	Key.space	n/a
137.6155	0.1345	275231	keystroke	h	n/a
137.99	0.1505	275980	keystroke	y	n/a
138.2155	0.15	276431	keystroke	p	n/a
138.7705	0.165	277541	keystroke	o	n/a
139.0855	0.135	278171	keystroke	t	n/a
139.37	0.166	278740	keystroke	h	n/a
139.551	0.134	279102	keystroke	e	n/a
140.21	0.135	280420	keystroke	t	n/a
140.36	0.12	280720	keystroke	i	n/a
140.765	0.1205	281530	keystroke	c	n/a
141.3345	0.12	282669	keystroke	a	n/a
142.0855	0.135	284171	keystroke	l	n/a
143.2705	0.135	286541	keystroke	Key.backspace	n/a
143.5405	0.12	287081	keystroke	Key.backspace	n/a
143.8245	0.105	287649	keystroke	Key.backspace	n/a
144.14	0.135	288280	keystroke	Key.backspace	n/a
144.47	0.12	288940	keystroke	Key.backspace	n/a
144.785	0.135	289570	keystroke	Key.backspace	n/a
145.1155	0.1195	290231	keystroke	Key.backspace	n/a
145.445	0.135	290890	keystroke	Key.backspace	n/a
145.76	0.135	291520	keystroke	Key.backspace	n/a
146.09	0.1205	292180	keystroke	Key.backspace	n/a
146.4495	0.15	292899	keystroke	Key.backspace	n/a
146.8095	0.135	293619	keystroke	Key.backspace	n/a
147.1245	0.1505	294249	keystroke	Key.backspace	n/a
147.965	0.12	295930	keystroke	t	n/a
148.28	0.105	296560	keystroke	Key.space	n/a
148.55	0.1495	297100	keystroke	h	n/a
148.8795	0.15	297759	keystroke	y	n/a
149.0455	0.15	298091	keystroke	p	n/a
149.3745	0.15	298749	keystroke	o	n/a
151.205	0.12	302410	keystroke	Key.backspace	n/a
151.565	0.09	303130	keystroke	Key.backspace	n/a
151.895	0.09	303790	keystroke	Key.backspace	n/a
152.1955	0.1045	304391	keystroke	Key.backspace	n/a
152.555	0.15	305110	keystroke	Key.backspace	n/a
153.1855	0.0745	306371	keystroke	Key.backspace	n/a
153.8	0.12	307600	keystroke	h	n/a
154.1145	0.121	308229	keystroke	e	n/a
154.5645	0.135	309129	keystroke	t	n/a
154.7895	0.106	309579	keystroke	i	n/a
155.09	0.1345	310180	keystroke	c	n/a
155.4795	0.12	310959	keystroke	a	n/a
155.7795	0.106	311559	keystroke	l	n/a
156.5155	0.134	313031	keystroke	Key.enter	n/a
156.657	7.4195	313314	prompt	n/a	females flat flex equal\n
157.5955	0.105	315191	keystroke	f	n/a
157.836	0.1345	315672	keystroke	e	n/a
158.0605	0.135	316121	keystroke	m	n/a
158.225	0.1205	316450	keystroke	a	n/a
158.39	0.1655	316780	keystroke	l	n/a
158.5705	0.1045	317141	keystroke	e	n/a
158.8705	0.075	317741	keystroke	s	n/a
159.2	0.1205	318400	keystroke	Key.space	n/a
159.4545	0.121	318909	keystroke	f	n/a
159.7105	0.18	319421	keystroke	l	n/a
159.8605	0.12	319721	keystroke	a	n/a
160.1005	0.089	320201	keystroke	t	n/a
160.3395	0.091	320679	keystroke	Key.space	n/a
160.7755	0.09	321551	keystroke	f	n/a
161.0005	0.105	322001	keystroke	l	n/a
161.1355	0.09	322271	keystroke	e	n/a
161.6905	0.135	323381	keystroke	x	n/a
161.9455	0.075	323891	keystroke	Key.space	n/a
162.2	0.12	324400	keystroke	e	n/a
162.56	0.105	325120	keystroke	q	n/a
162.7995	0.1205	325599	keystroke	u	n/a
163.055	0.1195	326110	keystroke	a	n/a
163.2355	0.164	326471	keystroke	l	n/a
163.9405	0.134	327881	keystroke	Key.enter	n/a
164.081	9.85	328162	prompt	n/a	aren't confusion houses residents\n
164.9895	0.136	329979	keystroke	a	n/a
165.185	0.1805	330370	keystroke	r	n/a
165.4405	0.1195	330881	keystroke	e	n/a
165.6645	0.1655	331329	keystroke	n	n/a
165.965	0.135	331930	keystroke	'	n/a
166.25	0.105	332500	keystroke	t	n/a
166.565	0.1205	333130	keystroke	Key.space	n/a
166.88	0.1355	333760	keystroke	c	n/a
167.03	0.1505	334060	keystroke	o	n/a
167.135	0.1355	334270	keystroke	n	n/a
167.4795	0.15	334959	keystroke	f	n/a
167.7045	0.091	335409	keystroke	u	n/a
167.885	0.12	335770	keystroke	s	n/a
168.05	0.225	336100	keystroke	i	n/a
168.11	0.195	336220	keystroke	o	n/a
168.23	0.1805	336460	keystroke	n	n/a
168.77	0.0905	337540	keystroke	Key.space	n/a
168.9955	0.1345	337991	keystroke	h	n/a
169.2205	0.2245	338441	keystroke	o	n/a
169.595	0.12	339190	keystroke	u	n/a
169.8205	0.1045	339641	keystroke	s	n/a
170	0.24	340000	keystroke	e	n/a
170.285	0.1045	340570	keystroke	s	n/a
170.69	0.1045	341380	keystroke	Key.space	n/a
171.185	0.18	342370	keystroke	r	n/a
171.3795	0.106	342759	keystroke	e	n/a
171.5895	0.09	343179	keystroke	s	n/a
171.695	0.1355	343390	keystroke	i	n/a
171.9795	0.136	343959	keystroke	d	n/a
172.2495	0.1355	344499	keystroke	e	n/a
172.415	0.1805	344830	keystroke	n	n/a
172.5505	0.104	345101	keystroke	t	n/a
172.9105	0.119	345821	keystroke	s	n/a
173.78	0.15	347560	keystroke	Key.enter	n/a
173.9405	9.6065	347881	prompt	n/a	spare otherwise latin spokesman\n
175.01	0.12	350020	keystroke	s	n/a
175.22	0.1495	350440	keystroke	p	n/a
175.4595	0.18	350919	keystroke	a	n/a
175.6105	0.194	351221	keystroke	r	n/a
175.7595	0.151	351519	keystroke	e	n/a
175.9845	0.1055	351969	keystroke	Key.space	n/a
176.2245	0.15	352449	keystroke	o	n/a
176.4495	0.1205	352899	keystroke	t	n/a
176.5995	0.1655	353199	keystroke	h	n/a
176.7495	0.18	353499	keystroke	e	n/a
176.87	0.12	353740	keystroke	r	n/a
177.1545	0.075	354309	keystroke	w	n/a
177.2895	0.165	354579	keystroke	i	n/a
177.6795	0.1055	355359	keystroke	s	n/a
177.92	0.1345	355840	keystroke	e	n/a
178.2645	0.105	356529	keystroke	Key.space	n/a
178.61	0.195	357220	keystroke	l	n/a
178.7145	0.1205	357429	keystroke	a	n/a
178.9695	0.105	357939	keystroke	t	n/a
179.1345	0.1805	358269	keystroke	i	n/a
179.3745	0.135	358749	keystroke	n	n/a
179.7195	0.105	359439	keystroke	Key.space	n/a
179.96	0.135	359920	keystroke	s	n/a
180.7245	0.106	361449	keystroke	p	n/a
180.965	0.1355	361930	keystroke	o	n/a
181.565	0.2245	363130	keystroke	k	n/a
181.835	0.15	363670	keystroke	e	n/a
182.255	0.135	364510	keystroke	s	n/a
182.585	0.12	365170	keystroke	m	n/a
182.8105	0.1345	365621	keystroke	a	n/a
183.02	0.1195	366040	keystroke	n	n/a
183.4245	0.1205	366849	keystroke	Key.enter	n/a
183.5505	11.906	367101	prompt	n/a	applicable thumbnails tree bands\n
184.3405	0.149	368681	keystroke	a	n/a
184.7145	0.0905	369429	keystroke	p	n/a
184.8495	0.1205	369699	keystroke	p	n/a
185.4055	0.134	370811	keystroke	l	n/a
185.6455	0.119	371291	keystroke	i	n/a
185.8095	0.12	371619	keystroke	c	n/a
186.365	0.15	372730	keystroke	a	n/a
186.8895	0.15	373779	keystroke	b	n/a
187.1895	0.135	374379	keystroke	l	n/a
187.43	0.1345	374860	keystroke	e	n/a
187.6845	0.1055	375369	keystroke	Key.space	n/a
188.045	0.075	376090	keystroke	t	n/a
188.075	0.09	376150	keystroke	g	n/a
188.795	0.1045	377590	keystroke	Key.backspace	n/a
189.02	0.1045	378040	keystroke	h	n/a
189.2895	0.075	378579	keystroke	u	n/a
189.5745	0.105	379149	keystroke	m	n/a
189.9795	0.106	379959	keystroke	b	n/a
190.325	0.12	380650	keystroke	n	n/a
190.9095	0.121	381819	keystroke	a	n/a
191.135	0.0745	382270	keystroke	i	n/a
191.3745	0.135	382749	keystroke	l	n/a
191.6745	0.136	383349	keystroke	s	n/a
192.29	0.12	384580	keystroke	Key.space	n/a
192.53	0.15	385060	keystroke	t	n/a
192.845	0.12	385690	keystroke	r	n/a
193.16	0.075	386320	keystroke	e	n/a
193.3705	0.1045	386741	keystroke	e	n/a
193.61	0.0895	387220	keystroke	Key.space	n/a
193.9845	0.105	387969	keystroke	b	n/a
194.2245	0.09	388449	keystroke	a	n/a
194.435	0.1055	388870	keystroke	n	n/a
194.675	0.1045	389350	keystroke	d	n/a
194.885	0.135	389770	keystroke	s	n/a
195.304	0.15	390608	keystroke	Key.enter	n/a
195.461	12.1905	390922	prompt	n/a	papers securities consumers variations\n
196.37	0.225	392740	keystroke	p	n/a
196.6245	0.1205	393249	keystroke	a	n/a
196.9245	0.15	393849	keystroke	p	n/a
197.1495	0.21	394299	keystroke	e	n/a
197.315	0.1495	394630	keystroke	r	n/a
197.645	0.12	395290	keystroke	s	n/a
198.02	0.12	396040	keystroke	Key.space	n/a
198.4405	0.089	396881	keystroke	s	n/a
198.6495	0.1055	397299	keystroke	e	n/a
199.2355	0.135	398471	keystroke	c	n/a
199.4755	0.105	398951	keystroke	u	n/a
199.7455	0.135	399491	keystroke	r	n/a
199.94	0.09	399880	keystroke	i	n/a
200.5995	0.12	401199	keystroke	t	n/a
200.7795	0.1055	401559	keystroke	i	n/a
200.945	0.225	401890	keystroke	e	n/a
201.3205	0.089	402641	keystroke	s	n/a
201.7405	0.1045	403481	keystroke	Key.space	n/a
202.115	0.135	404230	keystroke	c	n/a
202.2805	0.1645	404561	keystroke	o	n/a
202.43	0.1045	404860	keystroke	n	n/a
202.5355	0.1345	405071	keystroke	s	n/a
202.7745	0.091	405549	keystroke	u	n/a
203.0595	0.1505	406119	keystroke	m	n/a
203.1645	0.1505	406329	keystroke	e	n/a
203.27	0.15	406540	keystroke	r	n/a
203.5695	0.1205	407139	keystroke	s	n/a
203.87	0.105	407740	keystroke	Key.space	n/a
205.0095	0.015	410019	keystroke	v	n/a
205.3095	0.135	410619	keystroke	a	n/a
205.5195	0.136	411039	keystroke	r	n/a
205.7455	0.1495	411491	keystroke	i	n/a
205.8355	0.164	411671	keystroke	a	n/a
206.0145	0.1205	412029	keystroke	t	n/a
206.1495	0.21	412299	keystroke	i	n/a
206.2095	0.225	412419	keystroke	o	n/a
206.3155	0.194	412631	keystroke	n	n/a
206.5555	0.119	413111	keystroke	s	n/a
207.5295	0.12	415059	keystroke	Key.enter	n/a
207.655	11.4565	415310	prompt	n/a	accurately collectible garbage it\n
208.5495	0.091	417099	keystroke	a	n/a
208.8505	0.089	417701	keystroke	c	n/a
209.045	0.1055	418090	keystroke	c	n/a
209.1955	0.194	418391	keystroke	u	n/a
209.5255	0.179	419051	keystroke	r	n/a
209.72	0.135	419440	keystroke	a	n/a
209.9905	0.119	419981	keystroke	t	n/a
210.3195	0.15	420639	keystroke	e	n/a
210.6195	0.166	421239	keystroke	l	n/a
211.0555	0.18	422111	keystroke	y	n/a
211.1895	0.151	422379	keystroke	Key.space	n/a
211.5805	0.1645	423161	keystroke	c	n/a
211.7745	0.0905	423549	keystroke	o	n/a
212.09	0.255	424180	keystroke	l	n/a
212.7655	0.134	425531	keystroke	l	n/a
212.945	0.1195	425890	keystroke	e	n/a
213.2895	0.1355	426579	keystroke	c	n/a
213.7405	0.1495	427481	keystroke	t	n/a
214.01	0.1195	428020	keystroke	i	n/a
214.355	0.135	428710	keystroke	b	n/a
214.9545	0.135	429909	keystroke	l	n/a
215.1045	0.1355	430209	keystroke	e	n/a
215.4045	0.12	430809	keystroke	Key.space	n/a
215.705	0.1195	431410	keystroke	g	n/a
215.945	0.2095	431890	keystroke	a	n/a
216.1245	0.1355	432249	keystroke	r	n/a
216.68	0.105	433360	keystroke	b	n/a
216.95	0.105	433900	keystroke	a	n/a
217.2055	0.1195	434411	keystroke	g	n/a
217.37	0.135	434740	keystroke	e	n/a
217.67	0.135	435340	keystroke	Key.space	n/a
217.895	0.195	435790	keystroke	i	n/a
218.075	0.135	436150	keystroke	t	n/a
218.9745	0.135	437949	keystroke	Key.enter	n/a
219.115	9.252	438230	prompt	n/a	annual products andale clicking\n
219.9955	0.06	439991	keystroke	a	n/a
220.2055	0.074	440411	keystroke	n	n/a
220.3695	0.0905	440739	keystroke	n	n/a
220.7145	0.091	441429	keystroke	u	n/a
220.8655	0.1495	441731	keystroke	a	n/a
221.0595	0.1505	442119	keystroke	l	n/a
221.3145	0.135	442629	keystroke	Key.space	n/a
221.6895	0.135	443379	keystroke	p	n/a
221.9155	0.1195	443831	keystroke	r	n/a
222.0505	0.1495	444101	keystroke	o	n/a
222.3355	0.1345	444671	keystroke	d	n/a
222.515	0.135	445030	keystroke	u	n/a
222.725	0.1355	445450	keystroke	c	n/a
223.1605	0.1195	446321	keystroke	t	n/a
223.4905	0.15	446981	keystroke	s	n/a
223.835	0.12	447670	keystroke	Key.space	n/a
224.1655	0.1195	448331	keystroke	a	n/a
224.345	0.1355	448690	keystroke	n	n/a
224.54	0.1345	449080	keystroke	d	n/a
224.8545	0.106	449709	keystroke	a	n/a
225.0355	0.15	450071	keystroke	l	n/a
225.1555	0.135	450311	keystroke	e	n/a
225.44	0.105	450880	keystroke	Key.space	n/a
225.7105	0.1345	451421	keystroke	c	n/a
226.4445	0.15	452889	keystroke	l	n/a
226.6995	0.12	453399	keystroke	i	n/a
226.9695	0.1205	453939	keystroke	c	n/a
227.2245	0.105	454449	keystroke	k	n/a
227.51	0.1355	455020	keystroke	i	n/a
227.7195	0.18	455439	keystroke	n	n/a
227.915	0.1045	455830	keystroke	g	n/a
228.2445	0.1205	456489	keystroke	Key.enter	n/a
228.3715	19.165	456743	prompt	n/a	portion motorcycle oriental schedules\n
229.2195	0.105	458439	keystroke	p	n/a
229.6845	0.165	459369	keystroke	o	n/a
229.835	0.0895	459670	keystroke	r	n/a
230.0905	0.1195	460181	keystroke	t	n/a
230.2395	0.1655	460479	keystroke	i	n/a
230.3155	0.1345	460631	keystroke	o	n/a
230.36	0.165	460720	keystroke	n	n/a
231.065	0.105	462130	keystroke	Key.space	n/a
231.3355	0.1345	462671	keystroke	m	n/a
231.575	0.1805	463150	keystroke	o	n/a
231.71	0.135	463420	keystroke	r	n/a
231.9655	0.0895	463931	keystroke	t	n/a
232.145	0.105	464290	keystroke	o	n/a
232.3695	0.09	464739	keystroke	r	n/a
232.91	0.135	465820	keystroke	c	n/a
233.1055	0.1195	466211	keystroke	y	n/a
233.42	0.12	466840	keystroke	c	n/a
233.6	0.165	467200	keystroke	l	n/a
233.795	0.12	467590	keystroke	e	n/a
234.0195	0.09	468039	keystroke	Key.space	n/a
234.4395	0.15	468879	keystroke	o	n/a
237.066	0.029	474132	keystroke	Key.backspace	n/a
237.274	0.091	474548	keystroke	Key.backspace	n/a
237.499	0.046	474998	keystroke	Key.backspace	n/a
237.6795	0.0755	475359	keystroke	Key.backspace	n/a
237.8895	0.06	475779	keystroke	Key.backspace	n/a
238.0695	0.0605	476139	keystroke	Key.backspace	n/a
238.235	0.0745	476470	keystroke	Key.backspace	n/a
238.445	0.1045	476890	keystroke	Key.backspace	n/a
238.6695	0.09	477339	keystroke	Key.backspace	n/a
238.8495	0.0905	477699	keystroke	Key.backspace	n/a
239.2695	0.1355	478539	keystroke	Key.backspace	n/a
239.63	0.1645	479260	keystroke	t	n/a
239.8395	0.1645	479679	keystroke	o	n/a
239.99	0.134	479980	keystroke	r	n/a
240.38	0.1195	480760	keystroke	s	n/a
240.8445	0.135	481689	keystroke	Key.backspace	n/a
240.9655	0.164	481931	keystroke	c	n/a
241.1595	0.15	482319	keystroke	y	n/a
241.505	0.1645	483010	keystroke	c	n/a
241.7295	0.181	483459	keystroke	l	n/a
241.924	0.15	483848	keystroke	e	n/a
242.45	0.105	484900	keystroke	Key.space	n/a
242.7195	0.18	485439	keystroke	o	n/a
242.8555	0.1795	485711	keystroke	r	n/a
243.0795	0.135	486159	keystroke	i	n/a
243.155	0.1195	486310	keystroke	e	n/a
243.2895	0.166	486579	keystroke	n	n/a
243.3955	0.149	486791	keystroke	t	n/a
243.59	0.1195	487180	keystroke	a	n/a
243.7395	0.135	487479	keystroke	l	n/a
244.009	0.106	488018	keystroke	Key.space	n/a
244.355	0.0895	488710	keystroke	s	n/a
244.9095	0.0895	489819	keystroke	c	n/a
245.1655	0.1345	490331	keystroke	h	n/a
245.479	0.075	490958	keystroke	e	n/a
245.7805	0.1195	491561	keystroke	d	n/a
245.9605	0.1045	491921	keystroke	u	n/a
246.23	0.2105	492460	keystroke	l	n/a
246.335	0.135	492670	keystroke	e	n/a
246.6195	0.075	493239	keystroke	s	n/a
247.4	0.135	494800	keystroke	Key.enter	n/a
247.54	17.2165	495080	prompt	n/a	headlines upgrade retailers smith\n
248.5995	0.06	497199	keystroke	h	n/a
248.975	0.195	497950	keystroke	e	n/a
249.2	0.015	498400	keystroke	a	n/a
250.145	0.045	500290	keystroke	d	n/a
250.34	0.0895	500680	keystroke	l	n/a
250.5945	0.1655	501189	keystroke	i	n/a
250.7445	0.1495	501489	keystroke	n	n/a
250.94	0.075	501880	keystroke	e	n/a
251.405	0.15	502810	keystroke	s	n/a
251.659	0.151	503318	keystroke	Key.space	n/a
252.005	0.135	504010	keystroke	u	n/a
252.29	0.135	504580	keystroke	p	n/a
252.665	0.12	505330	keystroke	d	n/a
253.0555	0.1345	506111	keystroke	r	n/a
253.25	0.1355	506500	keystroke	a	n/a
253.609	0.106	507218	keystroke	d	n/a
253.865	0.105	507730	keystroke	e	n/a
254.044	0.15	508088	keystroke	Key.space	n/a
254.36	0.105	508720	keystroke	r	n/a
255.395	0.135	510790	keystroke	Key.backspace	n/a
255.725	0.075	511450	keystroke	Key.backspace	n/a
255.9645	0.045	511929	keystroke	Key.backspace	n/a
256.1445	0.045	512289	keystroke	Key.backspace	n/a
256.3095	0.06	512619	keystroke	Key.backspace	n/a
256.535	0.0895	513070	keystroke	Key.backspace	n/a
257.15	0.0895	514300	keystroke	Key.backspace	n/a
257.751	0.1035	515502	keystroke	g	n/a
258.08	0.15	516160	keystroke	r	n/a
258.29	0.12	516580	keystroke	a	n/a
259.25	0.0895	518500	keystroke	d	n/a
259.5945	0.1505	519189	keystroke	e	n/a
260.4945	0.12	520989	keystroke	Key.space	n/a
261.1245	0.1505	522249	keystroke	r	n/a
261.3945	0.121	522789	keystroke	e	n/a
261.724	0.15	523448	keystroke	t	n/a
261.8895	0.1055	523779	keystroke	a	n/a
262.099	0.106	524198	keystroke	i	n/a
262.355	0.1645	524710	keystroke	l	n/a
262.49	0.1645	524980	keystroke	e	n/a
262.6105	0.134	525221	keystroke	r	n/a
262.9395	0.12	525879	keystroke	s	n/a
263.2095	0.1195	526419	keystroke	Key.space	n/a
263.449	0.1365	526898	keystroke	s	n/a
263.69	0.1055	527380	keystroke	m	n/a
263.944	0.121	527888	keystroke	i	n/a
264.124	0.106	528248	keystroke	t	n/a
264.3195	0.1355	528639	keystroke	h	n/a
264.665	0.0895	529330	keystroke	Key.enter	n/a
264.7605	10.8705	529521	prompt	n/a	reads decisions minnesota figured\n
266.09	0.1045	532180	keystroke	r	n/a
266.36	0.1345	532720	keystroke	e	n/a
266.6445	0.105	533289	keystroke	a	n/a
266.99	0.1045	533980	keystroke	d	n/a
267.1845	0.12	534369	keystroke	s	n/a
267.455	0.15	534910	keystroke	Key.space	n/a
267.7845	0.1055	535569	keystroke	d	n/a
268.0395	0.091	536079	keystroke	e	n/a
268.3695	0.105	536739	keystroke	c	n/a
268.505	0.1345	537010	keystroke	i	n/a
268.6695	0.1355	537339	keystroke	s	n/a
268.8195	0.166	537639	keystroke	i	n/a
268.8805	0.1795	537761	keystroke	o	n/a
269.015	0.1345	538030	keystroke	n	n/a
269.2995	0.1355	538599	keystroke	s	n/a
269.6445	0.1205	539289	keystroke	Key.space	n/a
270.0055	0.1345	540011	keystroke	m	n/a
270.3495	0.136	540699	keystroke	i	n/a
270.5455	0.0895	541091	keystroke	n	n/a
270.6945	0.105	541389	keystroke	n	n/a
270.8745	0.121	541749	keystroke	e	n/a
271.4295	0.136	542859	keystroke	o	n/a
271.955	0.1345	543910	keystroke	Key.backspace	n/a
272.135	0.105	544270	keystroke	s	n/a
272.2995	0.1505	544599	keystroke	o	n/a
272.66	0.165	545320	keystroke	t	n/a
272.96	0.0445	545920	keystroke	a	n/a
273.3795	0.1055	546759	keystroke	Key.space	n/a
273.755	0.1055	547510	keystroke	f	n/a
273.949	0.166	547898	keystroke	i	n/a
274.25	0.105	548500	keystroke	g	n/a
274.46	0.27	548920	keystroke	u	n/a
274.624	0.165	549248	keystroke	r	n/a
274.819	0.15	549638	keystroke	e	n/a
275.1945	0.1055	550389	keystroke	d	n/a
275.495	0.135	550990	keystroke	Key.enter	n/a
275.6365	11.4545	551273	prompt	n/a	suffered holiday smart enjoyed\n
276.574	0.12	553148	keystroke	s	n/a
276.815	0.12	553630	keystroke	u	n/a
277.19	0.104	554380	keystroke	f	n/a
277.399	0.09	554798	keystroke	f	n/a
277.684	0.136	555368	keystroke	e	n/a
277.97	0.09	555940	keystroke	r	n/a
278.539	0.1805	557078	keystroke	e	n/a
279.1995	0.15	558399	keystroke	d	n/a
279.59	0.119	559180	keystroke	Key.space	n/a
279.8	0.15	559600	keystroke	h	n/a
281.0745	0.12	562149	keystroke	o	n/a
281.3	0.135	562600	keystroke	l	n/a
281.5695	0.18	563139	keystroke	i	n/a
281.7495	0.12	563499	keystroke	d	n/a
282.05	0.135	564100	keystroke	a	n/a
282.3945	0.18	564789	keystroke	y	n/a
282.6345	0.1205	565269	keystroke	Key.space	n/a
282.8295	0.1505	565659	keystroke	s	n/a
283.144	0.136	566288	keystroke	m	n/a
283.355	0.1655	566710	keystroke	a	n/a
283.505	0.164	567010	keystroke	r	n/a
283.8355	0.1045	567671	keystroke	t	n/a
284.315	0.1195	568630	keystroke	Key.space	n/a
284.555	0.1495	569110	keystroke	e	n/a
284.7795	0.075	569559	keystroke	n	n/a
285.2745	0.135	570549	keystroke	j	n/a
285.4995	0.1655	570999	keystroke	o	n/a
285.785	0.165	571570	keystroke	y	n/a
286.009	0.0905	572018	keystroke	e	n/a
286.3395	0.15	572679	keystroke	d	n/a
286.9695	0.1205	573939	keystroke	Key.enter	n/a
287.094	9.7485	574188	prompt	n/a	councils mega bailey tried\n
288.2295	0.1505	576459	keystroke	c	n/a
288.455	0.1645	576910	keystroke	o	n/a
288.5895	0.135	577179	keystroke	u	n/a
288.935	0.1205	577870	keystroke	n	n/a
289.2645	0.1355	578529	keystroke	c	n/a
289.43	0.105	578860	keystroke	i	n/a
289.85	0.15	579700	keystroke	l	n/a
290.045	0.135	580090	keystroke	s	n/a
290.4495	0.0905	580899	keystroke	Key.space	n/a
290.7945	0.1205	581589	keystroke	m	n/a
290.9595	0.135	581919	keystroke	e	n/a
291.2605	0.09	582521	keystroke	g	n/a
291.6195	0.105	583239	keystroke	a	n/a
292.055	0.12	584110	keystroke	Key.space	n/a
292.385	0.134	584770	keystroke	b	n/a
292.669	0.121	585338	keystroke	a	n/a
292.91	0.09	585820	keystroke	i	n/a
293.21	0.18	586420	keystroke	l	n/a
293.48	0.105	586960	keystroke	e	n/a
293.78	0.195	587560	keystroke	y	n/a
293.945	0.1345	587890	keystroke	Key.space	n/a
294.5745	0.135	589149	keystroke	t	n/a
294.86	0.0895	589720	keystroke	r	n/a
295.1145	0.105	590229	keystroke	i	n/a
295.3545	0.075	590709	keystroke	e	n/a
295.7755	0.134	591551	keystroke	d	n/a
296.69	0.15	593380	keystroke	Key.enter	n/a
296.851	13.8655	593702	prompt	n/a	verify nevertheless scuba suggest\n
301.132	0.043	602264	keystroke	v	n/a
301.415	0.1795	602830	keystroke	e	n/a
301.6695	0.151	603339	keystroke	r	n/a
301.985	0.225	603970	keystroke	i	n/a
302.195	0.12	604390	keystroke	f	n/a
302.435	0.195	604870	keystroke	y	n/a
302.87	0.1345	605740	keystroke	Key.space	n/a
303.2295	0.1655	606459	keystroke	n	n/a
303.38	0.105	606760	keystroke	e	n/a
303.755	0.12	607510	keystroke	v	n/a
304.055	0.165	608110	keystroke	e	n/a
304.5495	0.12	609099	keystroke	r	n/a
304.8355	0.119	609671	keystroke	t	n/a
305.0295	0.15	610059	keystroke	h	n/a
305.2245	0.165	610449	keystroke	e	n/a
305.6	0.18	611200	keystroke	l	n/a
305.7645	0.12	611529	keystroke	e	n/a
306.065	0.06	612130	keystroke	s	n/a
306.245	0.1345	612490	keystroke	s	n/a
306.53	0.119	613060	keystroke	Key.space	n/a
306.769	0.1205	613538	keystroke	s	n/a
307.205	0.1345	614410	keystroke	c	n/a
307.3845	0.151	614769	keystroke	u	n/a
307.7295	0.1205	615459	keystroke	b	n/a
308.1645	0.135	616329	keystroke	a	n/a
308.4345	0.1205	616869	keystroke	Key.space	n/a
308.6605	0.1195	617321	keystroke	s	n/a
308.855	0.1345	617710	keystroke	u	n/a
309.1695	0.09	618339	keystroke	g	n/a
309.4095	0.076	618819	keystroke	g	n/a
309.6195	0.12	619239	keystroke	e	n/a
309.8595	0.12	619719	keystroke	s	n/a
310.1745	0.15	620349	keystroke	t	n/a
310.5645	0.15	621129	keystroke	Key.enter	n/a
310.721	11.17	621442	prompt	n/a	comfort lover quantity prospects\n
311.72	0.1345	623440	keystroke	c	n/a
311.9	0.1495	623800	keystroke	o	n/a
312.23	0.12	624460	keystroke	m	n/a
312.605	0.104	625210	keystroke	f	n/a
312.785	0.18	625570	keystroke	o	n/a
312.995	0.135	625990	keystroke	r	n/a
313.294	0.121	626588	keystroke	t	n/a
313.805	0.1045	627610	keystroke	Key.space	n/a
314.21	0.1795	628420	keystroke	l	n/a
314.525	0.15	629050	keystroke	o	n/a
314.75	0.119	629500	keystroke	v	n/a
315.05	0.21	630100	keystroke	e	n/a
315.2	0.18	630400	keystroke	r	n/a
315.53	0.12	631060	keystroke	Key.space	n/a
315.995	0.12	631990	keystroke	q	n/a
316.2355	0.1485	632471	keystroke	u	n/a
316.55	0.119	633100	keystroke	a	n/a
316.7145	0.1205	633429	keystroke	n	n/a
317	0.104	634000	keystroke	t	n/a
317.194	0.136	634388	keystroke	i	n/a
317.4505	0.1485	634901	keystroke	t	n/a
317.779	0.2405	635558	keystroke	y	n/a
318.005	0.1495	636010	keystroke	Key.space	n/a
318.7095	0.1655	637419	keystroke	p	n/a
318.9645	0.1655	637929	keystroke	r	n/a
319.2355	0.134	638471	keystroke	o	n/a
319.5045	0.135	639009	keystroke	s	n/a
319.7445	0.165	639489	keystroke	p	n/a
319.925	0.1055	639850	keystroke	e	n/a
320.315	0.135	640630	keystroke	c	n/a
320.765	0.135	641530	keystroke	t	n/a
321.1105	0.0745	642221	keystroke	s	n/a
321.755	0.134	643510	keystroke	Key.enter	n/a
321.895	13.0015	643790	prompt	n/a	keywords sans louisville scientific\n
322.775	0.15	645550	keystroke	k	n/a
322.91	0.134	645820	keystroke	e	n/a
323.239	0.1505	646478	keystroke	y	n/a
323.6	0.119	647200	keystroke	w	n/a
323.794	0.15	647588	keystroke	o	n/a
323.945	0.135	647890	keystroke	r	n/a
324.425	0.119	648850	keystroke	d	n/a
324.665	0.12	649330	keystroke	s	n/a
324.9645	0.075	649929	keystroke	Key.space	n/a
325.325	0.12	650650	keystroke	s	n/a
325.64	0.045	651280	keystroke	a	n/a
325.7	0.135	651400	keystroke	n	n/a
326.375	0.09	652750	keystroke	s	n/a
326.555	0.105	653110	keystroke	Key.space	n/a
326.9	0.0755	653800	keystroke	l	n/a
327.35	0.224	654700	keystroke	o	n/a
327.649	0.151	655298	keystroke	u	n/a
328.3395	0.12	656679	keystroke	i	n/a
328.55	0.105	657100	keystroke	s	n/a
329.0445	0.1805	658089	keystroke	v	n/a
329.2695	0.1055	658539	keystroke	i	n/a
329.825	0.1195	659650	keystroke	l	n/a
330.02	0.1195	660040	keystroke	l	n/a
330.2	0.1195	660400	keystroke	e	n/a
330.71	0.075	661420	keystroke	Key.space	n/a
330.92	0.105	661840	keystroke	s	n/a
331.25	0.15	662500	keystroke	c	n/a
331.4	0.165	662800	keystroke	i	n/a
332.315	0.1355	664630	keystroke	e	n/a
332.525	0.15	665050	keystroke	n	n/a
332.705	0.135	665410	keystroke	t	n/a
332.975	0.15	665950	keystroke	i	n/a
333.23	0.075	666460	keystroke	f	n/a
333.41	0.2255	666820	keystroke	i	n/a
333.7105	0.1495	667421	keystroke	c	n/a
334.7445	0.15	669489	keystroke	Key.enter	n/a
334.9005	11.576	669801	prompt	n/a	summer planes economy clouds\n
335.7945	0.09	671589	keystroke	s	n/a
336.1395	0.1205	672279	keystroke	u	n/a
336.5145	0.06	673029	keystroke	m	n/a
336.65	0.105	673300	keystroke	m	n/a
336.799	0.181	673598	keystroke	e	n/a
336.9505	0.15	673901	keystroke	r	n/a
337.55	0.119	675100	keystroke	Key.space	n/a
337.955	0.12	675910	keystroke	p	n/a
338.2855	0.179	676571	keystroke	l	n/a
338.4945	0.135	676989	keystroke	a	n/a
338.705	0.1345	677410	keystroke	n	n/a
338.96	0.075	677920	keystroke	e	n/a
339.2	0.165	678400	keystroke	s	n/a
339.77	0.135	679540	keystroke	Key.space	n/a
340.295	0.0445	680590	keystroke	e	n/a
340.685	0.1345	681370	keystroke	c	n/a
341	0.1645	682000	keystroke	o	n/a
341.2695	0.15	682539	keystroke	n	n/a
341.45	0.1195	682900	keystroke	o	n/a
341.7195	0.12	683439	keystroke	m	n/a
342.139	0.18	684278	keystroke	y	n/a
342.3345	0.1505	684669	keystroke	Key.space	n/a
342.905	0.135	685810	keystroke	c	n/a
343.1	0.12	686200	keystroke	l	n/a
343.6255	0.179	687251	keystroke	o	n/a
344.105	0.2395	688210	keystroke	u	n/a
344.3295	0.135	688659	keystroke	d	n/a
344.5995	0.1505	689199	keystroke	s	n/a
346.3395	0.1355	692679	keystroke	Key.enter	n/a
346.4795	13.0615	692959	prompt	n/a	voyuer fall shaped highlighted\n
347.555	0.135	695110	keystroke	v	n/a
347.75	0.1345	695500	keystroke	o	n/a
348.0795	0.1205	696159	keystroke	y	n/a
348.7095	0.166	697419	keystroke	e	n/a
349.1895	0.135	698379	keystroke	Key.backspace	n/a
349.505	0.18	699010	keystroke	u	n/a
349.7	0.195	699400	keystroke	e	n/a
349.82	0.165	699640	keystroke	r	n/a
350.33	0.15	700660	keystroke	Key.space	n/a
350.555	0.1345	701110	keystroke	f	n/a
350.9	0.149	701800	keystroke	a	n/a
351.2005	0.0745	702401	keystroke	l	n/a
351.35	0.15	702700	keystroke	l	n/a
351.7695	0.1355	703539	keystroke	Key.space	n/a
352.085	0.165	704170	keystroke	s	n/a
352.28	0.15	704560	keystroke	h	n/a
352.55	0.135	705100	keystroke	a	n/a
352.8495	0.1355	705699	keystroke	p	n/a
353.0445	0.1055	706089	keystroke	e	n/a
353.3445	0.1355	706689	keystroke	d	n/a
353.5995	0.135	707199	keystroke	Key.space	n/a
354.5145	0.1355	709029	keystroke	h	n/a
354.71	0.1795	709420	keystroke	i	n/a
354.86	0.1345	709720	keystroke	g	n/a
354.98	0.18	709960	keystroke	h	n/a
355.7145	0.1205	711429	keystroke	l	n/a
355.9695	0.225	711939	keystroke	i	n/a
356.48	0.105	712960	keystroke	g	n/a
356.6745	0.181	713349	keystroke	h	n/a
356.9895	0.136	713979	keystroke	t	n/a
357.305	0.1045	714610	keystroke	e	n/a
357.6795	0.0755	715359	keystroke	d	n/a
359.3895	0.1505	718779	keystroke	Key.enter	n/a
359.5445	13.632	719089	prompt	n/a	state dressed plans opposite\n
360.65	0.044	721300	keystroke	s	n/a
360.89	0.15	721780	keystroke	t	n/a
361.115	0.135	722230	keystroke	a	n/a
361.415	0.105	722830	keystroke	t	n/a
361.715	0.12	723430	keystroke	e	n/a
362.0145	0.1355	724029	keystroke	Key.space	n/a
362.2395	0.15	724479	keystroke	s	n/a
362.8695	0.15	725739	keystroke	Key.backspace	n/a
363.05	0.1195	726100	keystroke	d	n/a
363.545	0.1495	727090	keystroke	r	n/a
363.785	0.09	727570	keystroke	e	n/a
367.5965	0.0135	735193	keystroke	s	n/a
367.715	0.12	735430	keystroke	s	n/a
367.9555	0.089	735911	keystroke	e	n/a
368.2395	0.1355	736479	keystroke	d	n/a
368.4945	0.1355	736989	keystroke	Key.space	n/a
368.8395	0.15	737679	keystroke	p	n/a
369.185	0.2105	738370	keystroke	l	n/a
369.38	0.15	738760	keystroke	a	n/a
369.74	0.15	739480	keystroke	n	n/a
370.0995	0.1505	740199	keystroke	s	n/a
370.2795	0.1205	740559	keystroke	Key.space	n/a
370.535	0.1495	741070	keystroke	o	n/a
370.8045	0.1055	741609	keystroke	p	n/a
370.985	0.075	741970	keystroke	p	n/a
371.105	0.2395	742210	keystroke	o	n/a
371.3895	0.1055	742779	keystroke	s	n/a
372.0055	0.254	744011	keystroke	i	n/a
372.185	0.135	744370	keystroke	t	n/a
372.485	0.09	744970	keystroke	e	n/a
373.04	0.134	746080	keystroke	Key.enter	n/a
373.179	10.7975	746358	prompt	n/a	given saint ebony prescribed\n
374.255	0.15	748510	keystroke	g	n/a
374.464	0.151	748928	keystroke	i	n/a
374.674	0.1355	749348	keystroke	v	n/a
374.8395	0.15	749679	keystroke	e	n/a
374.9905	0.09	749981	keystroke	n	n/a
375.2295	0.12	750459	keystroke	Key.space	n/a
375.3945	0.1355	750789	keystroke	s	n/a
375.6945	0.135	751389	keystroke	a	n/a
376.534	0.1515	753068	keystroke	i	n/a
376.7145	0.1955	753429	keystroke	n	n/a
377.15	0.15	754300	keystroke	t	n/a
377.36	0.1195	754720	keystroke	Key.space	n/a
377.795	0.105	755590	keystroke	e	n/a
378.665	0.075	757330	keystroke	b	n/a
378.83	0.18	757660	keystroke	o	n/a
379.325	0.1055	758650	keystroke	n	n/a
379.7145	0.27	759429	keystroke	y	n/a
379.9395	0.15	759879	keystroke	Key.space	n/a
380.705	0.1495	761410	keystroke	p	n/a
380.975	0.1645	761950	keystroke	r	n/a
381.155	0.165	762310	keystroke	e	n/a
381.3955	0.0745	762791	keystroke	s	n/a
381.71	0.134	763420	keystroke	c	n/a
382.114	0.1205	764228	keystroke	r	n/a
382.339	0.166	764678	keystroke	i	n/a
382.745	0.119	765490	keystroke	v	n/a
383.075	0.1045	766150	keystroke	e	n/a
383.375	0.1345	766750	keystroke	d	n/a
383.854	0.12	767708	keystroke	Key.enter	n/a
383.9815	19.45	767963	prompt	n/a	miss frank thomson societies\n
385.1445	0.105	770289	keystroke	m	n/a
385.3845	0.165	770769	keystroke	i	n/a
385.5345	0.06	771069	keystroke	s	n/a
385.67	0.1355	771340	keystroke	s	n/a
386.3745	0.1345	772749	keystroke	Key.space	n/a
390.816	0.089	781632	keystroke	f	n/a
391.0695	0.135	782139	keystroke	r	n/a
391.2645	0.1355	782529	keystroke	a	n/a
391.4445	0.12	782889	keystroke	n	n/a
391.6845	0.1205	783369	keystroke	k	n/a
391.955	0.105	783910	keystroke	Key.space	n/a
392.255	0.18	784510	keystroke	t	n/a
392.5705	0.1345	785141	keystroke	h	n/a
392.795	0.135	785590	keystroke	o	n/a
393.11	0.09	786220	keystroke	m	n/a
393.6045	0.1205	787209	keystroke	s	n/a
393.92	0.1945	787840	keystroke	o	n/a
394.13	0.1195	788260	keystroke	n	n/a
394.4145	0.09	788829	keystroke	Key.space	n/a
395.045	0.135	790090	keystroke	c	n/a
395.314	0.1205	790628	keystroke	o	n/a
396.4695	0.12	792939	keystroke	Key.backspace	n/a
397.0095	0.1345	794019	keystroke	Key.backspace	n/a
397.43	0.1205	794860	keystroke	s	n/a
397.669	0.061	795338	keystroke	o	n/a
398.1195	0.0755	796239	keystroke	c	n/a
398.3	0.105	796600	keystroke	i	n/a
398.555	0.1345	797110	keystroke	e	n/a
398.9145	0.1355	797829	keystroke	t	n/a
399.4255	0.164	798851	keystroke	i	n/a
399.575	0.1195	799150	keystroke	e	n/a
399.7995	0.12	799599	keystroke	s	n/a
403.326	0.104	806652	keystroke	Key.enter	n/a
403.435	16.6615	806870	prompt	n/a	testament common phone displayed\n
409.477	0.028	818954	keystroke	t	n/a
409.7155	0.09	819431	keystroke	e	n/a
409.985	0.075	819970	keystroke	s	n/a
410.3455	0.1195	820691	keystroke	t	n/a
410.5405	0.149	821081	keystroke	a	n/a
410.8845	0.1805	821769	keystroke	m	n/a
411.0805	0.1045	822161	keystroke	e	n/a
411.2	0.135	822400	keystroke	n	n/a
411.3505	0.1045	822701	keystroke	t	n/a
411.6345	0.105	823269	keystroke	Key.space	n/a
412.0845	0.136	824169	keystroke	c	n/a
412.2805	0.12	824561	keystroke	o	n/a
412.5955	0.285	825191	keystroke	m	n/a
413.18	0.12	826360	keystroke	m	n/a
413.4505	0.1795	826901	keystroke	o	n/a
413.6	0.135	827200	keystroke	n	n/a
413.9455	0.12	827891	keystroke	Key.space	n/a
414.545	0.1505	829090	keystroke	p	n/a
414.7555	0.135	829511	keystroke	h	n/a
414.9645	0.136	829929	keystroke	o	n/a
415.085	0.165	830170	keystroke	n	n/a
415.31	0.1055	830620	keystroke	e	n/a
415.565	0.105	831130	keystroke	Key.space	n/a
416	0.1205	832000	keystroke	d	n/a
416.24	0.1355	832480	keystroke	i	n/a
416.435	0.1205	832870	keystroke	s	n/a
416.645	0.1205	833290	keystroke	p	n/a
416.975	0.195	833950	keystroke	l	n/a
417.185	0.1055	834370	keystroke	a	n/a
417.47	0.1505	834940	keystroke	y	n/a
417.605	0.105	835210	keystroke	e	n/a
417.95	0.105	835900	keystroke	d	n/a
419.9595	0.1355	839919	keystroke	Key.enter	n/a
420.103	8.4535	840206	prompt	n/a	filing bomb fatal reply\n
420.86	0.1505	841720	keystroke	f	n/a
421.0845	0.121	842169	keystroke	i	n/a
421.3845	0.135	842769	keystroke	l	n/a
421.6095	0.18	843219	keystroke	i	n/a
421.7755	0.1195	843551	keystroke	n	n/a
421.85	0.135	843700	keystroke	g	n/a
422.075	0.105	844150	keystroke	Key.space	n/a
422.8095	0.136	845619	keystroke	b	n/a
423.1095	0.165	846219	keystroke	o	n/a
423.4705	0.135	846941	keystroke	m	n/a
423.725	0.135	847450	keystroke	b	n/a
424.295	0.09	848590	keystroke	Key.space	n/a
424.5955	0.1345	849191	keystroke	f	n/a
424.91	0.12	849820	keystroke	a	n/a
425.15	0.1205	850300	keystroke	t	n/a
425.2855	0.135	850571	keystroke	a	n/a
425.5705	0.165	851141	keystroke	l	n/a
425.8545	0.1355	851709	keystroke	Key.space	n/a
426.2155	0.135	852431	keystroke	r	n/a
426.41	0.105	852820	keystroke	e	n/a
426.905	0.12	853810	keystroke	p	n/a
427.22	0.135	854440	keystroke	l	n/a
427.595	0.135	855190	keystroke	y	n/a
428.405	0.15	856810	keystroke	Key.enter	n/a
428.5605	12.761	857121	prompt	n/a	attendance newsletters mono nashville\n
429.56	0.1055	859120	keystroke	a	n/a
429.9345	0.046	859869	keystroke	t	n/a
430.13	0.0905	860260	keystroke	t	n/a
430.685	0.1355	861370	keystroke	e	n/a
430.91	0.15	861820	keystroke	n	n/a
431.195	0.135	862390	keystroke	d	n/a
431.51	0.12	863020	keystroke	a	n/a
431.705	0.135	863410	keystroke	n	n/a
432.0205	0.119	864041	keystroke	c	n/a
432.4255	0.1645	864851	keystroke	e	n/a
432.7255	0.1045	865451	keystroke	Key.space	n/a
432.9955	0.165	865991	keystroke	n	n/a
433.1295	0.195	866259	keystroke	e	n/a
433.2955	0.12	866591	keystroke	w	n/a
433.625	0.1345	867250	keystroke	s	n/a
433.9255	0.165	867851	keystroke	l	n/a
434.1055	0.104	868211	keystroke	e	n/a
434.4205	0.0595	868841	keystroke	t	n/a
434.5995	0.1205	869199	keystroke	t	n/a
434.855	0.15	869710	keystroke	e	n/a
434.96	0.1205	869920	keystroke	r	n/a
435.26	0.12	870520	keystroke	s	n/a
435.725	0.135	871450	keystroke	Key.space	n/a
436.2955	0.15	872591	keystroke	m	n/a
436.5955	0.195	873191	keystroke	o	n/a
436.745	0.165	873490	keystroke	n	n/a
436.88	0.1205	873760	keystroke	o	n/a
437.39	0.12	874780	keystroke	Key.space	n/a
437.8105	0.1345	875621	keystroke	n	n/a
438.05	0.105	876100	keystroke	a	n/a
438.2905	0.0595	876581	keystroke	s	n/a
438.41	0.12	876820	keystroke	h	n/a
439.115	0.09	878230	keystroke	v	n/a
439.5645	0.12	879129	keystroke	i	n/a
439.88	0.105	879760	keystroke	l	n/a
440.03	0.15	880060	keystroke	l	n/a
440.3155	0.0895	880631	keystroke	e	n/a
441.1995	0.12	882399	keystroke	Key.enter	n/a
441.327	16.525	882654	prompt	n/a	anatomy files increasingly experiment\n
442.3705	0.0745	884741	keystroke	a	n/a
442.7445	0.1205	885489	keystroke	n	n/a
442.94	0.12	885880	keystroke	a	n/a
443.2995	0.106	886599	keystroke	t	n/a
443.4645	0.1505	886929	keystroke	o	n/a
444.485	0.12	888970	keystroke	m	n/a
444.995	0.1505	889990	keystroke	y	n/a
445.805	0.18	891610	keystroke	Key.space	n/a
446	0.15	892000	keystroke	f	n/a
446.21	0.1055	892420	keystroke	i	n/a
446.495	0.18	892990	keystroke	l	n/a
446.66	0.09	893320	keystroke	e	n/a
446.975	0.12	893950	keystroke	s	n/a
447.8445	0.12	895689	keystroke	Key.space	n/a
448.13	0.165	896260	keystroke	i	n/a
448.2645	0.1655	896529	keystroke	n	n/a
448.6105	0.1345	897221	keystroke	c	n/a
449.09	0.165	898180	keystroke	r	n/a
449.3	0.1645	898600	keystroke	e	n/a
449.495	0.0895	898990	keystroke	a	n/a
449.735	0.09	899470	keystroke	s	n/a
449.8845	0.1955	899769	keystroke	i	n/a
450.0655	0.21	900131	keystroke	n	n/a
450.2445	0.061	900489	keystroke	g	n/a
450.7555	0.134	901511	keystroke	l	n/a
451.1595	0.1955	902319	keystroke	y	n/a
451.295	0.1345	902590	keystroke	Key.space	n/a
451.58	0.1045	903160	keystroke	e	n/a
452.24	0.18	904480	keystroke	x	n/a
452.691	0.119	905382	keystroke	p	n/a
452.96	0.21	905920	keystroke	e	n/a
453.1255	0.15	906251	keystroke	r	n/a
453.335	0.12	906670	keystroke	i	n/a
454.22	0.135	908440	keystroke	m	n/a
454.4	0.1495	908800	keystroke	e	n/a
454.595	0.15	909190	keystroke	n	n/a
454.835	0.09	909670	keystroke	t	n/a
457.8215	0.028	915643	keystroke	Key.enter	n/a
457.855	11.8615	915710	prompt	n/a	mayor laundry lock connectivity\n
458.87	0.15	917740	keystroke	m	n/a
459.065	0.135	918130	keystroke	a	n/a
459.4255	0.134	918851	keystroke	y	n/a
459.68	0.1045	919360	keystroke	o	n/a
459.7995	0.121	919599	keystroke	r	n/a
460.3545	0.0905	920709	keystroke	Key.space	n/a
460.7155	0.194	921431	keystroke	l	n/a
461.045	0.135	922090	keystroke	a	n/a
461.3005	0.089	922601	keystroke	u	n/a
461.5845	0.1355	923169	keystroke	n	n/a
461.8095	0.105	923619	keystroke	d	n/a
462.1405	0.15	924281	keystroke	r	n/a
462.5455	0.165	925091	keystroke	y	n/a
462.875	0.105	925750	keystroke	Key.space	n/a
463.19	0.165	926380	keystroke	l	n/a
463.4755	0.1195	926951	keystroke	o	n/a
463.67	0.15	927340	keystroke	c	n/a
463.91	0.1655	927820	keystroke	k	n/a
464.39	0.1045	928780	keystroke	Key.space	n/a
464.8095	0.12	929619	keystroke	n	n/a
465.2905	0.119	930581	keystroke	Key.backspace	n/a
465.4255	0.134	930851	keystroke	c	n/a
465.7105	0.135	931421	keystroke	o	n/a
465.9655	0.0895	931931	keystroke	n	n/a
466.1	0.105	932200	keystroke	n	n/a
466.385	0.135	932770	keystroke	e	n/a
467.075	0.105	934150	keystroke	c	n/a
467.6595	0.135	935319	keystroke	t	n/a
467.9295	0.1655	935859	keystroke	i	n/a
468.2295	0.135	936459	keystroke	v	n/a
468.4245	0.1505	936849	keystroke	i	n/a
468.8005	0.135	937601	keystroke	t	n/a
469.07	0.1345	938140	keystroke	y	n/a
469.595	0.12	939190	keystroke	Key.enter	n/a
469.72	11.5765	939440	prompt	n/a	dealers services motivated tsunami\n
470.8245	0.2405	941649	keystroke	d	n/a
471.0795	0.0905	942159	keystroke	e	n/a
471.1845	0.105	942369	keystroke	a	n/a
471.3495	0.151	942699	keystroke	l	n/a
471.5145	0.1505	943029	keystroke	e	n/a
471.62	0.15	943240	keystroke	r	n/a
471.905	0.1205	943810	keystroke	s	n/a
472.2645	0.105	944529	keystroke	Key.space	n/a
472.6255	0.075	945251	keystroke	s	n/a
472.8205	0.1645	945641	keystroke	e	n/a
473.2705	0.089	946541	keystroke	r	n/a
473.6445	0.135	947289	keystroke	v	n/a
474.1545	0.18	948309	keystroke	i	n/a
474.3505	0.1195	948701	keystroke	c	n/a
475.145	0.0895	950290	keystroke	e	n/a
475.4005	0.0895	950801	keystroke	s	n/a
475.58	0.105	951160	keystroke	Key.space	n/a
475.925	0.12	951850	keystroke	m	n/a
476.135	0.135	952270	keystroke	o	n/a
476.285	0.1195	952570	keystroke	t	n/a
476.4505	0.1195	952901	keystroke	i	n/a
476.87	0.105	953740	keystroke	v	n/a
477.14	0.1195	954280	keystroke	a	n/a
477.3045	0.15	954609	keystroke	t	n/a
477.5595	0.091	955119	keystroke	e	n/a
477.815	0.105	955630	keystroke	d	n/a
477.995	0.0745	955990	keystroke	Key.space	n/a
478.415	0.075	956830	keystroke	t	n/a
478.655	0.12	957310	keystroke	s	n/a
478.8505	0.1195	957701	keystroke	u	n/a
480.0505	0.1195	960101	keystroke	n	n/a
480.32	0.195	960640	keystroke	a	n/a
480.56	0.12	961120	keystroke	m	n/a
480.83	0.105	961660	keystroke	i	n/a
481.175	0.12	962350	keystroke	Key.enter	n/a
481.3	13.211	962600	prompt	n/a	thanks craps campbell namibia\n
482.3455	0.1945	964691	keystroke	t	n/a
482.6295	0.15	965259	keystroke	h	n/a
482.84	0.1195	965680	keystroke	a	n/a
482.99	0.1195	965980	keystroke	n	n/a
483.1845	0.12	966369	keystroke	k	n/a
483.32	0.1055	966640	keystroke	s	n/a
483.6045	0.1205	967209	keystroke	Key.space	n/a
484.01	0.135	968020	keystroke	c	n/a
484.4445	0.165	968889	keystroke	r	n/a
484.6705	0.089	969341	keystroke	a	n/a
484.865	0.1505	969730	keystroke	p	n/a
485.0905	0.119	970181	keystroke	s	n/a
485.3445	0.0905	970689	keystroke	Key.space	n/a
485.8095	0.1205	971619	keystroke	c	n/a
486.245	0.1055	972490	keystroke	a	n/a
486.5155	0.1195	973031	keystroke	m	n/a
486.86	0.12	973720	keystroke	p	n/a
487.4155	0.0895	974831	keystroke	b	n/a
487.685	0.105	975370	keystroke	e	n/a
487.97	0.09	975940	keystroke	l	n/a
488.09	0.15	976180	keystroke	l	n/a
488.5845	0.1055	977169	keystroke	Key.space	n/a
488.96	0.1055	977920	keystroke	n	n/a
489.2295	0.0905	978459	keystroke	a	n/a
490.295	0.0595	980590	keystroke	m	n/a
490.459	0.105	980918	keystroke	b	n/a
491.269	0.076	982538	keystroke	Key.backspace	n/a
491.4795	0.1205	982959	keystroke	i	n/a
492.6645	0.105	985329	keystroke	b	n/a
492.89	0.1945	985780	keystroke	i	n/a
493.115	0.15	986230	keystroke	a	n/a
494.3595	0.15	988719	keystroke	Key.enter	n/a
494.514	7.9325	989028	prompt	n/a	cure defines to've core\n
495.5455	0.134	991091	keystroke	c	n/a
495.7095	0.2245	991419	keystroke	u	n/a
495.95	0.1655	991900	keystroke	r	n/a
496.1295	0.15	992259	keystroke	e	n/a
496.355	0.135	992710	keystroke	Key.space	n/a
496.94	0.105	993880	keystroke	d	n/a
497.165	0.12	994330	keystroke	e	n/a
497.4345	0.136	994869	keystroke	f	n/a
497.6305	0.15	995261	keystroke	i	n/a
497.7655	0.15	995531	keystroke	n	n/a
497.8695	0.106	995739	keystroke	e	n/a
498.3195	0.1055	996639	keystroke	s	n/a
498.5745	0.105	997149	keystroke	Key.space	n/a
498.9045	0.105	997809	keystroke	t	n/a
499.0255	0.134	998051	keystroke	o	n/a
499.3705	0.12	998741	keystroke	'	n/a
499.6845	0.091	999369	keystroke	v	n/a
499.9545	0.105	999909	keystroke	e	n/a
500.15	0.0895	1000300	keystroke	Key.space	n/a
500.5695	0.0455	1001139	keystroke	c	n/a
500.6295	0.15	1001259	keystroke	o	n/a
501.0045	0.1205	1002009	keystroke	r	n/a
501.275	0.1345	1002550	keystroke	e	n/a
502.31	0.135	1004620	keystroke	Key.enter	n/a
502.45	11.6515	1004900	prompt	n/a	documents officers fitting accommodate\n
503.4805	0.135	1006961	keystroke	d	n/a
503.6455	0.134	1007291	keystroke	o	n/a
503.885	0.15	1007770	keystroke	c	n/a
504.3645	0.09	1008729	keystroke	u	n/a
504.6795	0.1355	1009359	keystroke	m	n/a
504.8155	0.119	1009631	keystroke	e	n/a
504.9045	0.135	1009809	keystroke	n	n/a
505.0545	0.0905	1010109	keystroke	t	n/a
505.4145	0.0305	1010829	keystroke	s	n/a
505.745	0.105	1011490	keystroke	Key.space	n/a
505.925	0.21	1011850	keystroke	o	n/a
506.15	0.045	1012300	keystroke	f	n/a
506.3	0.105	1012600	keystroke	f	n/a
506.705	0.21	1013410	keystroke	i	n/a
506.93	0.12	1013860	keystroke	c	n/a
507.305	0.12	1014610	keystroke	e	n/a
507.41	0.105	1014820	keystroke	r	n/a
507.68	0.135	1015360	keystroke	s	n/a
508.04	0.09	1016080	keystroke	Key.space	n/a
508.28	0.165	1016560	keystroke	f	n/a
508.505	0.12	1017010	keystroke	i	n/a
508.835	0.045	1017670	keystroke	t	n/a
508.97	0.105	1017940	keystroke	t	n/a
509.12	0.135	1018240	keystroke	i	n/a
509.226	0.164	1018452	keystroke	n	n/a
509.375	0.09	1018750	keystroke	g	n/a
509.99	0.09	1019980	keystroke	Key.space	n/a
510.665	0.045	1021330	keystroke	a	n/a
510.98	0.09	1021960	keystroke	c	n/a
511.13	0.105	1022260	keystroke	c	n/a
511.325	0.15	1022650	keystroke	o	n/a
511.8955	0.0745	1023791	keystroke	m	n/a
512.0455	0.1195	1024091	keystroke	m	n/a
512.345	0.12	1024690	keystroke	o	n/a
512.6155	0.0895	1025231	keystroke	d	n/a
512.944	0.121	1025888	keystroke	a	n/a
513.215	0.06	1026430	keystroke	t	n/a
513.53	0.09	1027060	keystroke	e	n/a
513.9795	0.1205	1027959	keystroke	Key.enter	n/a
514.113	24.3635	1028226	prompt	n/a	tucson strength pennsylvania injection\n
515.135	0.1195	1030270	keystroke	t	n/a
515.4055	0.134	1030811	keystroke	u	n/a
515.9	0.105	1031800	keystroke	c	n/a
516.17	0.12	1032340	keystroke	s	n/a
516.515	0.21	1033030	keystroke	o	n/a
516.7255	0.179	1033451	keystroke	n	n/a
517.415	0.1045	1034830	keystroke	Key.space	n/a
517.6705	0.134	1035341	keystroke	s	n/a
518.0595	0.12	1036119	keystroke	t	n/a
518.7795	0.075	1037559	keystroke	r	n/a
519.275	0.1045	1038550	keystroke	e	n/a
519.5155	0.2245	1039031	keystroke	n	n/a
520.684	0.121	1041368	keystroke	g	n/a
520.9255	0.1795	1041851	keystroke	h	n/a
521.225	0.09	1042450	keystroke	t	n/a
527.196	0.044	1054392	keystroke	Key.backspace	n/a
527.33	0.12	1054660	keystroke	Key.backspace	n/a
527.555	0.1205	1055110	keystroke	t	n/a
527.7955	0.075	1055591	keystroke	h	n/a
528.9345	0.12	1057869	keystroke	Key.space	n/a
529.4145	0.1355	1058829	keystroke	p	n/a
529.6845	0.135	1059369	keystroke	e	n/a
529.925	0.075	1059850	keystroke	n	n/a
530.0605	0.1045	1060121	keystroke	n	n/a
530.3295	0.12	1060659	keystroke	s	n/a
530.525	0.1355	1061050	keystroke	y	n/a
531.785	0.18	1063570	keystroke	l	n/a
532.085	0.15	1064170	keystroke	v	n/a
532.745	0.1195	1065490	keystroke	a	n/a
533.06	0.0895	1066120	keystroke	n	n/a
533.315	0.135	1066630	keystroke	i	n/a
533.6145	0.165	1067229	keystroke	a	n/a
533.9295	0.105	1067859	keystroke	Key.space	n/a
534.305	0.15	1068610	keystroke	i	n/a
535.2205	0.1345	1070441	keystroke	n	n/a
535.67	0.1355	1071340	keystroke	j	n/a
535.925	0.09	1071850	keystroke	e	n/a
536.255	0.12	1072510	keystroke	c	n/a
536.72	0.1055	1073440	keystroke	t	n/a
536.945	0.225	1073890	keystroke	i	n/a
537.2	0.09	1074400	keystroke	o	n/a
537.32	0.165	1074640	keystroke	n	n/a
538.3545	0.1205	1076709	keystroke	Key.enter	n/a
538.481	12.5205	1076962	prompt	n/a	jeff huge convertible secondary\n
539.5095	0.225	1079019	keystroke	j	n/a
539.7495	0.1055	1079499	keystroke	e	n/a
540.035	0.09	1080070	keystroke	f	n/a
540.485	0.09	1080970	keystroke	f	n/a
540.725	0.09	1081450	keystroke	Key.space	n/a
541.1455	0.075	1082291	keystroke	h	n/a
541.4155	0.12	1082831	keystroke	u	n/a
541.8355	0.1795	1083671	keystroke	g	n/a
542.09	0.15	1084180	keystroke	e	n/a
542.39	0.105	1084780	keystroke	Key.space	n/a
542.81	0.1505	1085620	keystroke	c	n/a
543.065	0.165	1086130	keystroke	o	n/a
543.215	0.18	1086430	keystroke	n	n/a
543.4405	0.0895	1086881	keystroke	f	n/a
543.98	0.1495	1087960	keystroke	Key.backspace	n/a
544.76	0.09	1089520	keystroke	v	n/a
545.12	0.195	1090240	keystroke	e	n/a
545.27	0.165	1090540	keystroke	r	n/a
545.63	0.12	1091260	keystroke	t	n/a
546.185	0.15	1092370	keystroke	i	n/a
546.74	0.09	1093480	keystroke	b	n/a
547.055	0.15	1094110	keystroke	l	n/a
547.34	0.105	1094680	keystroke	e	n/a
547.7	0.12	1095400	keystroke	Key.space	n/a
548.0455	0.089	1096091	keystroke	s	n/a
548.2705	0.089	1096541	keystroke	e	n/a
548.6145	0.09	1097229	keystroke	c	n/a
548.8855	0.164	1097771	keystroke	o	n/a
549.0955	0.15	1098191	keystroke	n	n/a
549.305	0.1055	1098610	keystroke	d	n/a
549.665	0.12	1099330	keystroke	a	n/a
549.89	0.0895	1099780	keystroke	r	n/a
550.115	0.1805	1100230	keystroke	y	n/a
550.8655	0.134	1101731	keystroke	Key.enter	n/a
551.006	18.5805	1102012	prompt	n/a	bookstore memphis corporation installation\n
552.0955	0.0295	1104191	keystroke	b	n/a
552.3795	0.091	1104759	keystroke	o	n/a
552.56	0.105	1105120	keystroke	o	n/a
552.8605	0.164	1105721	keystroke	k	n/a
553.0555	0.135	1106111	keystroke	s	n/a
553.4905	0.119	1106981	keystroke	t	n/a
553.7145	0.151	1107429	keystroke	o	n/a
553.8505	0.12	1107701	keystroke	r	n/a
553.9855	0.135	1107971	keystroke	e	n/a
554.4345	0.12	1108869	keystroke	Key.space	n/a
554.99	0.165	1109980	keystroke	m	n/a
555.185	0.045	1110370	keystroke	e	n/a
555.305	0.12	1110610	keystroke	m	n/a
555.875	0.1045	1111750	keystroke	p	n/a
556.16	0.15	1112320	keystroke	h	n/a
556.3995	0.1205	1112799	keystroke	i	n/a
556.595	0.1195	1113190	keystroke	s	n/a
557.2245	0.09	1114449	keystroke	Key.space	n/a
559.987	0.0735	1119974	keystroke	c	n/a
560.9	0.165	1121800	keystroke	o	n/a
561.275	0.135	1122550	keystroke	r	n/a
561.695	0.135	1123390	keystroke	p	n/a
561.935	0.18	1123870	keystroke	o	n/a
562.13	0.15	1124260	keystroke	r	n/a
563.0145	0.12	1126029	keystroke	a	n/a
563.3305	0.075	1126661	keystroke	t	n/a
563.5405	0.195	1127081	keystroke	i	n/a
563.6605	0.134	1127321	keystroke	o	n/a
563.7495	0.196	1127499	keystroke	n	n/a
564.35	0.105	1128700	keystroke	Key.space	n/a
564.5745	0.15	1129149	keystroke	i	n/a
564.7095	0.24	1129419	keystroke	n	n/a
564.8295	0.106	1129659	keystroke	s	n/a
565.0995	0.105	1130199	keystroke	t	n/a
565.2795	0.12	1130559	keystroke	a	n/a
565.6695	0.09	1131339	keystroke	l	n/a
565.835	0.1645	1131670	keystroke	l	n/a
565.9845	0.12	1131969	keystroke	a	n/a
566.1795	0.12	1132359	keystroke	t	n/a
566.27	0.2545	1132540	keystroke	i	n/a
566.3745	0.18	1132749	keystroke	o	n/a
566.4495	0.2105	1132899	keystroke	n	n/a
569.512	0.073	1139024	keystroke	Key.enter	n/a
569.5945	10.5225	1139189	prompt	n/a	effectively restoration command fetish\n
570.47	0.09	1140940	keystroke	e	n/a
570.74	0.045	1141480	keystroke	f	n/a
570.875	0.12	1141750	keystroke	f	n/a
571.01	0.135	1142020	keystroke	e	n/a
571.37	0.12	1142740	keystroke	c	n/a
571.9105	0.135	1143821	keystroke	t	n/a
572.1505	0.165	1144301	keystroke	i	n/a
572.3905	0.135	1144781	keystroke	v	n/a
572.6155	0.135	1145231	keystroke	e	n/a
572.8105	0.179	1145621	keystroke	l	n/a
573.2145	0.195	1146429	keystroke	y	n/a
573.32	0.1795	1146640	keystroke	Key.space	n/a
573.7705	0.1645	1147541	keystroke	r	n/a
573.965	0.105	1147930	keystroke	e	n/a
574.175	0.12	1148350	keystroke	s	n/a
574.625	0.12	1149250	keystroke	t	n/a
574.775	0.15	1149550	keystroke	o	n/a
574.895	0.1495	1149790	keystroke	r	n/a
575.0595	0.151	1150119	keystroke	a	n/a
575.2845	0.12	1150569	keystroke	t	n/a
575.39	0.1795	1150780	keystroke	i	n/a
575.4345	0.195	1150869	keystroke	o	n/a
575.6155	0.105	1151231	keystroke	n	n/a
575.915	0.12	1151830	keystroke	Key.space	n/a
576.35	0.135	1152700	keystroke	c	n/a
576.53	0.09	1153060	keystroke	o	n/a
576.845	0.045	1153690	keystroke	m	n/a
577.115	0.03	1154230	keystroke	m	n/a
577.16	0.135	1154320	keystroke	a	n/a
577.28	0.12	1154560	keystroke	n	n/a
577.49	0.15	1154980	keystroke	d	n/a
577.73	0.09	1155460	keystroke	Key.space	n/a
578.5105	0.089	1157021	keystroke	f	n/a
578.75	0.12	1157500	keystroke	e	n/a
578.975	0.105	1157950	keystroke	t	n/a
579.185	0.1355	1158370	keystroke	i	n/a
579.335	0.1045	1158670	keystroke	s	n/a
579.4405	0.1195	1158881	keystroke	h	n/a
580.025	0.09	1160050	keystroke	Key.enter	n/a
580.12	10.377	1160240	prompt	n/a	tower consumer merchants curriculum\n
581.1045	0.121	1162209	keystroke	t	n/a
581.27	0.1345	1162540	keystroke	o	n/a
581.36	0.1355	1162720	keystroke	w	n/a
581.7345	0.195	1163469	keystroke	e	n/a
581.8405	0.15	1163681	keystroke	r	n/a
582.0495	0.091	1164099	keystroke	Key.space	n/a
582.395	0.135	1164790	keystroke	c	n/a
582.515	0.1955	1165030	keystroke	o	n/a
582.7255	0.06	1165451	keystroke	n	n/a
582.7855	0.135	1165571	keystroke	s	n/a
583.0095	0.091	1166019	keystroke	u	n/a
583.3245	0.046	1166649	keystroke	m	n/a
583.3995	0.18	1166799	keystroke	e	n/a
583.5055	0.149	1167011	keystroke	r	n/a
584.015	0.12	1168030	keystroke	Key.space	n/a
584.945	0.1195	1169890	keystroke	m	n/a
585.0805	0.119	1170161	keystroke	e	n/a
585.17	0.1195	1170340	keystroke	r	n/a
585.5745	0.1205	1171149	keystroke	c	n/a
585.7105	0.119	1171421	keystroke	h	n/a
585.95	0.1055	1171900	keystroke	a	n/a
586.0705	0.194	1172141	keystroke	n	n/a
586.2795	0.1655	1172559	keystroke	t	n/a
586.715	0.09	1173430	keystroke	s	n/a
587.4495	0.0905	1174899	keystroke	Key.space	n/a
587.8245	0.105	1175649	keystroke	c	n/a
587.9895	0.12	1175979	keystroke	u	n/a
588.29	0.045	1176580	keystroke	r	n/a
588.4545	0.0905	1176909	keystroke	r	n/a
588.59	0.12	1177180	keystroke	i	n/a
588.815	0.09	1177630	keystroke	c	n/a
588.95	0.075	1177900	keystroke	u	n/a
589.205	0.1355	1178410	keystroke	l	n/a
589.536	0.119	1179072	keystroke	u	n/a
589.835	0.1205	1179670	keystroke	m	n/a
590.3905	0.104	1180781	keystroke	Key.enter	n/a
590.501	10.66	1181002	prompt	n/a	execute abilities interact apartment\n
591.395	0.1055	1182790	keystroke	e	n/a
591.7555	0.09	1183511	keystroke	x	n/a
592.0405	0.075	1184081	keystroke	e	n/a
592.355	0.1195	1184710	keystroke	c	n/a
592.535	0.135	1185070	keystroke	u	n/a
592.8045	0.1655	1185609	keystroke	t	n/a
593.015	0.135	1186030	keystroke	e	n/a
593.315	0.12	1186630	keystroke	Key.space	n/a
593.825	0.12	1187650	keystroke	a	n/a
594.065	0.105	1188130	keystroke	b	n/a
594.2595	0.091	1188519	keystroke	i	n/a
594.5755	0.135	1189151	keystroke	l	n/a
594.8305	0.1195	1189661	keystroke	i	n/a
595.025	0.1205	1190050	keystroke	t	n/a
595.265	0.12	1190530	keystroke	i	n/a
595.415	0.105	1190830	keystroke	e	n/a
595.64	0.135	1191280	keystroke	s	n/a
596.045	0.075	1192090	keystroke	Key.space	n/a
596.345	0.15	1192690	keystroke	i	n/a
596.5405	0.1495	1193081	keystroke	n	n/a
596.96	0.075	1193920	keystroke	t	n/a
597.215	0.21	1194430	keystroke	e	n/a
597.38	0.135	1194760	keystroke	r	n/a
597.7695	0.091	1195539	keystroke	a	n/a
598.07	0.09	1196140	keystroke	c	n/a
598.49	0.105	1196980	keystroke	t	n/a
598.7295	0.12	1197459	keystroke	Key.space	n/a
598.9545	0.1055	1197909	keystroke	a	n/a
599.1795	0.1805	1198359	keystroke	p	n/a
599.3745	0.135	1198749	keystroke	a	n/a
599.4945	0.165	1198989	keystroke	r	n/a
599.825	0.09	1199650	keystroke	t	n/a
600.125	0.1355	1200250	keystroke	m	n/a
600.35	0.09	1200700	keystroke	e	n/a
600.455	0.12	1200910	keystroke	n	n/a
600.62	0.075	1201240	keystroke	t	n/a
601.055	0.1045	1202110	keystroke	Key.enter	n/a
601.166	11.621	1202332	prompt	n/a	orientation reveal building nvidia\n
602.0455	0.105	1204091	keystroke	o	n/a
602.1645	0.1055	1204329	keystroke	r	n/a
602.2995	0.105	1204599	keystroke	i	n/a
602.315	0.1495	1204630	keystroke	e	n/a
602.8245	0.1205	1205649	keystroke	n	n/a
602.9905	0.1045	1205981	keystroke	t	n/a
603.1705	0.134	1206341	keystroke	a	n/a
603.3345	0.09	1206669	keystroke	t	n/a
603.4095	0.226	1206819	keystroke	i	n/a
603.4995	0.1505	1206999	keystroke	o	n/a
603.59	0.1495	1207180	keystroke	n	n/a
604.0545	0.105	1208109	keystroke	Key.space	n/a
604.5345	0.15	1209069	keystroke	r	n/a
604.7445	0.105	1209489	keystroke	e	n/a
605.0595	0.105	1210119	keystroke	v	n/a
605.2395	0.12	1210479	keystroke	e	n/a
605.42	0.1045	1210840	keystroke	a	n/a
605.6295	0.121	1211259	keystroke	l	n/a
605.885	0.1205	1211770	keystroke	Key.space	n/a
606.1245	0.075	1212249	keystroke	v	n/a
606.2895	0.105	1212579	keystroke	u	n/a
606.5155	0.074	1213031	keystroke	i	n/a
607.04	0.09	1214080	keystroke	Key.backspace	n/a
607.28	0.105	1214560	keystroke	Key.backspace	n/a
607.55	0.09	1215100	keystroke	Key.backspace	n/a
608.18	0.09	1216360	keystroke	b	n/a
608.405	0.105	1216810	keystroke	u	n/a
608.615	0.1055	1217230	keystroke	i	n/a
608.8545	0.15	1217709	keystroke	l	n/a
609.02	0.1045	1218040	keystroke	d	n/a
609.1545	0.1355	1218309	keystroke	i	n/a
609.26	0.165	1218520	keystroke	n	n/a
609.44	0.0905	1218880	keystroke	g	n/a
609.62	0.0895	1219240	keystroke	Key.space	n/a
610.13	0.1055	1220260	keystroke	n	n/a
610.5495	0.12	1221099	keystroke	v	n/a
610.745	0.1195	1221490	keystroke	i	n/a
611.255	0.09	1222510	keystroke	d	n/a
611.48	0.105	1222960	keystroke	i	n/a
611.8405	0.1045	1223681	keystroke	a	n/a
612.68	0.105	1225360	keystroke	Key.enter	n/a
612.7905	9.341	1225581	prompt	n/a	euros dakota home flexibility\n
613.685	0.135	1227370	keystroke	e	n/a
613.9995	0.15	1227999	keystroke	u	n/a
614.2995	0.105	1228599	keystroke	r	n/a
614.4955	0.1045	1228991	keystroke	o	n/a
614.7655	0.1045	1229531	keystroke	s	n/a
615.02	0.105	1230040	keystroke	Key.space	n/a
615.3805	0.1045	1230761	keystroke	d	n/a
615.62	0.09	1231240	keystroke	a	n/a
615.905	0.105	1231810	keystroke	k	n/a
616.145	0.105	1232290	keystroke	o	n/a
616.385	0.0895	1232770	keystroke	t	n/a
616.6245	0.075	1233249	keystroke	a	n/a
616.9095	0.0895	1233819	keystroke	Key.space	n/a
617.405	0.105	1234810	keystroke	h	n/a
617.57	0.15	1235140	keystroke	o	n/a
617.8545	0.12	1235709	keystroke	m	n/a
617.99	0.075	1235980	keystroke	e	n/a
618.3345	0.0755	1236669	keystroke	Key.space	n/a
618.515	0.105	1237030	keystroke	f	n/a
618.7545	0.12	1237509	keystroke	l	n/a
618.86	0.0745	1237720	keystroke	e	n/a
619.22	0.1045	1238440	keystroke	x	n/a
619.4745	0.06	1238949	keystroke	i	n/a
620.045	0.12	1240090	keystroke	b	n/a
620.3	0.075	1240600	keystroke	i	n/a
620.7345	0.061	1241469	keystroke	l	n/a
620.9295	0.105	1241859	keystroke	i	n/a
621.14	0.1055	1242280	keystroke	t	n/a
621.3645	0.1055	1242729	keystroke	y	n/a
622.0245	0.105	1244049	keystroke	Key.enter	n/a
622.1355	13.196	1244271	prompt	n/a	sticker checkout imports mcdonald\n
623.165	0.105	1246330	keystroke	s	n/a
623.465	0.09	1246930	keystroke	t	n/a
623.69	0.105	1247380	keystroke	i	n/a
623.93	0.12	1247860	keystroke	c	n/a
624.185	0.0895	1248370	keystroke	k	n/a
624.3505	0.1495	1248701	keystroke	e	n/a
624.485	0.1055	1248970	keystroke	r	n/a
624.77	0.09	1249540	keystroke	Key.space	n/a
625.535	0.15	1251070	keystroke	c	n/a
625.775	0.12	1251550	keystroke	h	n/a
626	0.0605	1252000	keystroke	e	n/a
626.33	0.135	1252660	keystroke	c	n/a
626.525	0.105	1253050	keystroke	k	n/a
626.795	0.18	1253590	keystroke	o	n/a
626.96	0.1505	1253920	keystroke	u	n/a
627.23	0.09	1254460	keystroke	t	n/a
627.56	0.105	1255120	keystroke	Key.space	n/a
628.0405	0.1345	1256081	keystroke	i	n/a
628.415	0.1205	1256830	keystroke	m	n/a
628.715	0.0755	1257430	keystroke	p	n/a
628.895	0.2095	1257790	keystroke	o	n/a
629.045	0.1045	1258090	keystroke	r	n/a
629.3155	0.104	1258631	keystroke	t	n/a
629.66	0.1055	1259320	keystroke	s	n/a
629.9145	0.135	1259829	keystroke	Key.space	n/a
630.3505	0.12	1260701	keystroke	m	n/a
630.6205	0.105	1261241	keystroke	c	n/a
630.9505	0.09	1261901	keystroke	d	n/a
631.0695	0.165	1262139	keystroke	o	n/a
631.2645	0.18	1262529	keystroke	n	n/a
631.5195	0.12	1263039	keystroke	a	n/a
631.6995	0.1655	1263399	keystroke	l	n/a
632.015	0.1045	1264030	keystroke	d	n/a
635.2875	0.042	1270575	keystroke	Key.enter	n/a
635.3355	10.6315	1270671	prompt	n/a	auto internationally deviant frontpage\n
636.3655	0.075	1272731	keystroke	a	n/a
636.53	0.135	1273060	keystroke	u	n/a
636.785	0.12	1273570	keystroke	t	n/a
636.95	0.15	1273900	keystroke	o	n/a
637.085	0.105	1274170	keystroke	Key.space	n/a
637.3405	0.1345	1274681	keystroke	i	n/a
637.4605	0.194	1274921	keystroke	n	n/a
637.64	0.1045	1275280	keystroke	t	n/a
638.0445	0.1655	1276089	keystroke	e	n/a
638.135	0.1645	1276270	keystroke	r	n/a
638.285	0.1345	1276570	keystroke	n	n/a
638.4945	0.12	1276989	keystroke	a	n/a
639.065	0.1345	1278130	keystroke	t	n/a
639.2895	0.2405	1278579	keystroke	i	n/a
639.41	0.1345	1278820	keystroke	o	n/a
639.515	0.165	1279030	keystroke	n	n/a
639.7545	0.1355	1279509	keystroke	a	n/a
639.9655	0.075	1279931	keystroke	l	n/a
640.0995	0.1205	1280199	keystroke	l	n/a
640.61	0.075	1281220	keystroke	y	n/a
640.7	0.12	1281400	keystroke	Key.space	n/a
641.03	0.12	1282060	keystroke	d	n/a
641.315	0.0905	1282630	keystroke	e	n/a
641.795	0.15	1283590	keystroke	v	n/a
641.975	0.12	1283950	keystroke	i	n/a
642.3055	0.1045	1284611	keystroke	a	n/a
642.455	0.135	1284910	keystroke	n	n/a
642.68	0.1355	1285360	keystroke	t	n/a
642.9645	0.091	1285929	keystroke	Key.space	n/a
643.3405	0.1045	1286681	keystroke	f	n/a
643.6555	0.119	1287311	keystroke	r	n/a
643.8495	0.165	1287699	keystroke	o	n/a
643.985	0.195	1287970	keystroke	n	n/a
644.21	0.1205	1288420	keystroke	t	n/a
644.87	0.135	1289740	keystroke	p	n/a
645.08	0.1355	1290160	keystroke	a	n/a
645.3195	0.135	1290639	keystroke	g	n/a
645.4695	0.105	1290939	keystroke	e	n/a
645.86	0.1055	1291720	keystroke	Key.enter	n/a
645.971	16.0455	1291942	prompt	n/a	empirical households macintosh plasma\n
646.8655	0.1195	1293731	keystroke	e	n/a
647.075	0.105	1294150	keystroke	m	n/a
647.42	0.105	1294840	keystroke	p	n/a
647.585	0.1345	1295170	keystroke	i	n/a
647.7495	0.105	1295499	keystroke	r	n/a
647.9145	0.12	1295829	keystroke	i	n/a
648.2605	0.1045	1296521	keystroke	c	n/a
648.56	0.105	1297120	keystroke	a	n/a
648.74	0.135	1297480	keystroke	l	n/a
648.98	0.09	1297960	keystroke	Key.space	n/a
649.16	0.135	1298320	keystroke	h	n/a
649.34	0.21	1298680	keystroke	o	n/a
649.475	0.15	1298950	keystroke	u	n/a
649.685	0.105	1299370	keystroke	s	n/a
649.835	0.1345	1299670	keystroke	e	n/a
650.36	0.12	1300720	keystroke	h	n/a
650.7195	0.09	1301439	keystroke	o	n/a
650.9455	0.149	1301891	keystroke	l	n/a
651.3655	0.1195	1302731	keystroke	d	n/a
651.6055	0.1045	1303211	keystroke	s	n/a
651.9795	0.075	1303959	keystroke	Key.space	n/a
652.6395	0.135	1305279	keystroke	m	n/a
653.1045	0.09	1306209	keystroke	a	n/a
653.4495	0.1505	1306899	keystroke	c	n/a
653.7645	0.15	1307529	keystroke	i	n/a
653.9295	0.165	1307859	keystroke	n	n/a
654.2	0.105	1308400	keystroke	t	n/a
654.32	0.15	1308640	keystroke	o	n/a
654.545	0.134	1309090	keystroke	s	n/a
654.755	0.12	1309510	keystroke	h	n/a
655.279	0.1055	1310558	keystroke	Key.space	n/a
655.535	0.135	1311070	keystroke	p	n/a
657.065	0.135	1314130	keystroke	l	n/a
657.38	0.09	1314760	keystroke	a	n/a
657.665	0.075	1315330	keystroke	s	n/a
657.755	0.105	1315510	keystroke	s	n/a
658.64	0.075	1317280	keystroke	Key.backspace	n/a
658.985	0.12	1317970	keystroke	m	n/a
659.225	0.09	1318450	keystroke	a	n/a
661.9565	0.0585	1323913	keystroke	Key.enter	n/a
662.0205	7.5715	1324041	prompt	n/a	ribbon life ages safari\n
663.005	0.135	1326010	keystroke	r	n/a
663.2	0.15	1326400	keystroke	i	n/a
663.4855	0.0895	1326971	keystroke	v	n/a
664.115	0.1045	1328230	keystroke	Key.backspace	n/a
664.235	0.12	1328470	keystroke	b	n/a
664.49	0.09	1328980	keystroke	b	n/a
664.625	0.18	1329250	keystroke	o	n/a
664.79	0.105	1329580	keystroke	n	n/a
665.12	0.089	1330240	keystroke	Key.space	n/a
665.495	0.135	1330990	keystroke	l	n/a
665.765	0.2705	1331530	keystroke	i	n/a
665.9145	0.165	1331829	keystroke	f	n/a
666.065	0.1345	1332130	keystroke	e	n/a
666.275	0.075	1332550	keystroke	Key.space	n/a
666.56	0.105	1333120	keystroke	a	n/a
666.8	0.075	1333600	keystroke	g	n/a
666.89	0.105	1333780	keystroke	e	n/a
667.205	0.105	1334410	keystroke	s	n/a
667.61	0.105	1335220	keystroke	Key.space	n/a
667.97	0.135	1335940	keystroke	s	n/a
668.255	0.1055	1336510	keystroke	a	n/a
668.525	0.09	1337050	keystroke	f	n/a
668.735	0.15	1337470	keystroke	a	n/a
668.885	0.1195	1337770	keystroke	r	n/a
669.0645	0.1355	1338129	keystroke	i	n/a
669.4695	0.1205	1338939	keystroke	Key.enter	n/a
669.5955	10.151	1339191	prompt	n/a	contacted store witch causes\n
670.46	0.1345	1340920	keystroke	c	n/a
670.8805	0.15	1341761	keystroke	o	n/a
671.06	0.1655	1342120	keystroke	n	n/a
671.2255	0.135	1342451	keystroke	t	n/a
671.405	0.1055	1342810	keystroke	a	n/a
671.885	0.0895	1343770	keystroke	c	n/a
672.26	0.12	1344520	keystroke	t	n/a
672.845	0.09	1345690	keystroke	e	n/a
673.175	0.1195	1346350	keystroke	d	n/a
673.3995	0.12	1346799	keystroke	Key.space	n/a
673.5645	0.12	1347129	keystroke	s	n/a
673.8955	0.089	1347791	keystroke	t	n/a
674.18	0.15	1348360	keystroke	o	n/a
674.285	0.15	1348570	keystroke	r	n/a
674.42	0.15	1348840	keystroke	e	n/a
674.705	0.09	1349410	keystroke	Key.space	n/a
675.02	0.09	1350040	keystroke	w	n/a
675.275	0.165	1350550	keystroke	i	n/a
675.5	0.12	1351000	keystroke	t	n/a
675.7105	0.1495	1351421	keystroke	h	n/a
676.385	0.09	1352770	keystroke	Key.backspace	n/a
676.6105	0.119	1353221	keystroke	c	n/a
676.8645	0.0905	1353729	keystroke	h	n/a
677.39	0.09	1354780	keystroke	Key.space	n/a
677.8845	0.0455	1355769	keystroke	c	n/a
678.2145	0.1055	1356429	keystroke	a	n/a
678.4105	0.104	1356821	keystroke	u	n/a
678.6195	0.106	1357239	keystroke	s	n/a
678.845	0.12	1357690	keystroke	e	n/a
679.1305	0.1045	1358261	keystroke	s	n/a
679.61	0.1345	1359220	keystroke	Key.enter	n/a
679.751	15.6855	1359502	prompt	n/a	indians beach albany ridge\n
680.6445	0.12	1361289	keystroke	i	n/a
680.8245	0.15	1361649	keystroke	n	n/a
681.0495	0.1355	1362099	keystroke	d	n/a
681.1695	0.0605	1362339	keystroke	i	n/a
681.545	0.09	1363090	keystroke	a	n/a
681.62	0.105	1363240	keystroke	n	n/a
682.085	0.12	1364170	keystroke	s	n/a
682.415	0.12	1364830	keystroke	Key.space	n/a
682.79	0.075	1365580	keystroke	b	n/a
684.845	0.12	1369690	keystroke	e	n/a
685.025	0.12	1370050	keystroke	a	n/a
685.4755	0.1045	1370951	keystroke	c	n/a
685.76	0.15	1371520	keystroke	h	n/a
686.4195	0.105	1372839	keystroke	Key.space	n/a
686.7195	0.12	1373439	keystroke	a	n/a
686.99	0.1795	1373980	keystroke	l	n/a
687.3495	0.091	1374699	keystroke	b	n/a
687.53	0.12	1375060	keystroke	a	n/a
687.74	0.09	1375480	keystroke	n	n/a
688.1905	0.104	1376381	keystroke	y	n/a
688.4445	0.105	1376889	keystroke	Key.space	n/a
688.7745	0.1355	1377549	keystroke	r	n/a
689.0005	0.134	1378001	keystroke	i	n/a
689.7355	0.12	1379471	keystroke	d	n/a
690.0495	0.135	1380099	keystroke	g	n/a
690.3045	0.06	1380609	keystroke	e	n/a
695.3775	0.057	1390755	keystroke	Key.enter	n/a
695.4445	13.042	1390889	prompt	n/a	status workflow customize messages\n
696.47	0.12	1392940	keystroke	s	n/a
696.83	0.135	1393660	keystroke	t	n/a
697.01	0.15	1394020	keystroke	a	n/a
697.1905	0.12	1394381	keystroke	t	n/a
697.4595	0.121	1394919	keystroke	u	n/a
697.6245	0.1355	1395249	keystroke	s	n/a
697.88	0.0745	1395760	keystroke	Key.space	n/a
698.1805	0.1345	1396361	keystroke	w	n/a
698.3605	0.1345	1396721	keystroke	o	n/a
698.51	0.135	1397020	keystroke	r	n/a
698.75	0.105	1397500	keystroke	k	n/a
699.065	0.015	1398130	keystroke	f	n/a
699.14	0.075	1398280	keystroke	o	n/a
700.28	0.075	1400560	keystroke	Key.backspace	n/a
700.565	0.15	1401130	keystroke	l	n/a
700.835	0.1655	1401670	keystroke	o	n/a
701.001	0.104	1402002	keystroke	w	n/a
701.45	0.12	1402900	keystroke	Key.space	n/a
702.05	0.135	1404100	keystroke	c	n/a
702.245	0.09	1404490	keystroke	u	n/a
702.4255	0.105	1404851	keystroke	s	n/a
702.8	0.12	1405600	keystroke	t	n/a
702.965	0.12	1405930	keystroke	o	n/a
703.2355	0.1205	1406471	keystroke	m	n/a
703.4755	0.1495	1406951	keystroke	i	n/a
703.775	0.165	1407550	keystroke	z	n/a
704.135	0.135	1408270	keystroke	e	n/a
704.435	0.105	1408870	keystroke	Key.space	n/a
705.0505	0.135	1410101	keystroke	c	n/a
705.6195	0.105	1411239	keystroke	Key.backspace	n/a
705.9645	0.121	1411929	keystroke	m	n/a
706.2195	0.075	1412439	keystroke	e	n/a
706.6705	0.075	1413341	keystroke	s	n/a
706.8505	0.105	1413701	keystroke	s	n/a
707.0905	0.105	1414181	keystroke	a	n/a
707.3305	0.1645	1414661	keystroke	g	n/a
707.48	0.1205	1414960	keystroke	e	n/a
707.6605	0.12	1415321	keystroke	s	n/a
708.395	0.0905	1416790	keystroke	Key.enter	n/a
708.4905	8.322	1416981	prompt	n/a	many relate chess complications\n
709.37	0.15	1418740	keystroke	m	n/a
709.5655	0.12	1419131	keystroke	a	n/a
709.6695	0.076	1419339	keystroke	n	n/a
710.2255	0.059	1420451	keystroke	y	n/a
710.825	0.1505	1421650	keystroke	Key.space	n/a
711.035	0.1505	1422070	keystroke	r	n/a
711.2005	0.135	1422401	keystroke	e	n/a
711.38	0.1945	1422760	keystroke	l	n/a
711.5445	0.15	1423089	keystroke	a	n/a
711.665	0.1355	1423330	keystroke	t	n/a
711.8745	0.106	1423749	keystroke	e	n/a
712.0845	0.121	1424169	keystroke	Key.space	n/a
712.5205	0.12	1425041	keystroke	c	n/a
712.6855	0.15	1425371	keystroke	h	n/a
712.88	0.1055	1425760	keystroke	e	n/a
713.09	0.09	1426180	keystroke	s	n/a
713.2855	0.1045	1426571	keystroke	s	n/a
713.4805	0.0595	1426961	keystroke	Key.space	n/a
713.75	0.12	1427500	keystroke	c	n/a
713.84	0.075	1427680	keystroke	o	n/a
714.1255	0.1045	1428251	keystroke	m	n/a
714.4555	0.075	1428911	keystroke	p	n/a
714.74	0.121	1429480	keystroke	l	n/a
714.965	0.1655	1429930	keystroke	i	n/a
715.1605	0.0895	1430321	keystroke	c	n/a
715.4745	0.1205	1430949	keystroke	a	n/a
715.7005	0.1345	1431401	keystroke	t	n/a
715.82	0.15	1431640	keystroke	i	n/a
715.865	0.1655	1431730	keystroke	o	n/a
715.955	0.165	1431910	keystroke	n	n/a
716.331	0.089	1432662	keystroke	s	n/a
716.7055	0.105	1433411	keystroke	Key.enter	n/a
716.817	11.395	1433634	prompt	n/a	citysearch lexus ruth quiz\n
718.01	0.1205	1436020	keystroke	c	n/a
718.115	0.1055	1436230	keystroke	i	n/a
718.4595	0.121	1436919	keystroke	t	n/a
718.6695	0.15	1437339	keystroke	y	n/a
719.6445	0.15	1439289	keystroke	s	n/a
719.96	0.2545	1439920	keystroke	e	n/a
720.1555	0.195	1440311	keystroke	a	n/a
720.56	0.0905	1441120	keystroke	r	n/a
720.965	0.12	1441930	keystroke	c	n/a
721.145	0.1805	1442290	keystroke	h	n/a
721.34	0.105	1442680	keystroke	Key.space	n/a
721.685	0.1655	1443370	keystroke	l	n/a
721.865	0.12	1443730	keystroke	e	n/a
723.065	0.105	1446130	keystroke	x	n/a
723.4255	0.135	1446851	keystroke	u	n/a
723.6055	0.1345	1447211	keystroke	s	n/a
723.9505	0.105	1447901	keystroke	Key.space	n/a
724.4155	0.135	1448831	keystroke	r	n/a
724.6555	0.12	1449311	keystroke	u	n/a
724.8355	0.1345	1449671	keystroke	t	n/a
725	0.1645	1450000	keystroke	h	n/a
725.1945	0.12	1450389	keystroke	Key.space	n/a
725.6755	0.119	1451351	keystroke	q	n/a
725.9005	0.1055	1451801	keystroke	u	n/a
726.245	0.21	1452490	keystroke	i	n/a
726.8605	0.135	1453721	keystroke	z	n/a
728.195	0.015	1456390	keystroke	Key.enter	n/a
728.2155	10.212	1456431	prompt	n/a	issues beach copyright republicans\n
729.185	0.135	1458370	keystroke	i	n/a
729.3805	0.0745	1458761	keystroke	s	n/a
729.5605	0.1045	1459121	keystroke	s	n/a
729.7555	0.1345	1459511	keystroke	u	n/a
729.8755	0.135	1459751	keystroke	e	n/a
730.025	0.1505	1460050	keystroke	s	n/a
730.4005	0.1195	1460801	keystroke	Key.space	n/a
730.9105	0.1045	1461821	keystroke	b	n/a
731.1505	0.1645	1462301	keystroke	e	n/a
731.3305	0.1195	1462661	keystroke	a	n/a
731.6755	0.1195	1463351	keystroke	c	n/a
731.825	0.165	1463650	keystroke	h	n/a
731.975	0.09	1463950	keystroke	Key.space	n/a
732.3805	0.1645	1464761	keystroke	c	n/a
732.5755	0.135	1465151	keystroke	o	n/a
732.785	0.135	1465570	keystroke	p	n/a
732.995	0.15	1465990	keystroke	y	n/a
733.58	0.1205	1467160	keystroke	r	n/a
733.715	0.15	1467430	keystroke	i	n/a
733.9105	0.06	1467821	keystroke	g	n/a
734.255	0.1505	1468510	keystroke	h	n/a
734.36	0.135	1468720	keystroke	t	n/a
735.035	0.105	1470070	keystroke	Key.space	n/a
735.35	0.1505	1470700	keystroke	r	n/a
735.5005	0.1345	1471001	keystroke	e	n/a
735.74	0.165	1471480	keystroke	p	n/a
735.905	0.165	1471810	keystroke	u	n/a
736.58	0.1055	1473160	keystroke	b	n/a
736.8355	0.1045	1473671	keystroke	l	n/a
737.12	0.0905	1474240	keystroke	i	n/a
737.315	0.09	1474630	keystroke	c	n/a
737.615	0.09	1475230	keystroke	a	n/a
737.7505	0.12	1475501	keystroke	n	n/a
737.8855	0.1045	1475771	keystroke	s	n/a
738.335	0.0905	1476670	keystroke	Key.enter	n/a
738.431	11.7255	1476862	prompt	n/a	venue political customs republic\n
739.7745	0.09	1479549	keystroke	v	n/a
739.9855	0.104	1479971	keystroke	e	n/a
740.1045	0.09	1480209	keystroke	n	n/a
740.4195	0.0455	1480839	keystroke	u	n/a
740.4945	0.15	1480989	keystroke	e	n/a
740.7195	0.09	1481439	keystroke	Key.space	n/a
741.2005	0.134	1482401	keystroke	p	n/a
741.4705	0.105	1482941	keystroke	o	n/a
741.9505	0.135	1483901	keystroke	l	n/a
742.22	0.135	1484440	keystroke	i	n/a
742.475	0.075	1484950	keystroke	t	n/a
742.52	0.1055	1485040	keystroke	i	n/a
743.135	0.0905	1486270	keystroke	c	n/a
743.4055	0.09	1486811	keystroke	a	n/a
743.525	0.1805	1487050	keystroke	l	n/a
744.14	0.105	1488280	keystroke	Key.space	n/a
744.4105	0.1645	1488821	keystroke	c	n/a
744.59	0.0905	1489180	keystroke	u	n/a
744.8005	0.1345	1489601	keystroke	s	n/a
744.995	0.12	1489990	keystroke	o	n/a
745.67	0.09	1491340	keystroke	Key.backspace	n/a
745.82	0.0905	1491640	keystroke	t	n/a
745.985	0.12	1491970	keystroke	o	n/a
746.195	0.06	1492390	keystroke	m	n/a
746.345	0.075	1492690	keystroke	s	n/a
746.72	0.12	1493440	keystroke	Key.space	n/a
747.14	0.1205	1494280	keystroke	r	n/a
747.29	0.105	1494580	keystroke	e	n/a
747.515	0.15	1495030	keystroke	p	n/a
747.665	0.1355	1495330	keystroke	u	n/a
748.0395	0.105	1496079	keystroke	b	n/a
748.2805	0.149	1496561	keystroke	l	n/a
748.5355	0.15	1497071	keystroke	i	n/a
748.715	0.135	1497430	keystroke	c	n/a
750.0355	0.1195	1500071	keystroke	Key.enter	n/a
750.16	11.5165	1500320	prompt	n/a	comfortable personally sources hello\n
751.0105	0.1195	1502021	keystroke	c	n/a
751.145	0.0905	1502290	keystroke	o	n/a
751.4	0.105	1502800	keystroke	m	n/a
751.8055	0.0745	1503611	keystroke	f	n/a
751.9245	0.1805	1503849	keystroke	o	n/a
752.0895	0.136	1504179	keystroke	r	n/a
752.631	0.134	1505262	keystroke	t	n/a
752.8855	0.075	1505771	keystroke	a	n/a
753.185	0.1195	1506370	keystroke	b	n/a
753.68	0.1645	1507360	keystroke	l	n/a
753.8595	0.121	1507719	keystroke	e	n/a
754.25	0.12	1508500	keystroke	Key.space	n/a
754.715	0.1805	1509430	keystroke	p	n/a
754.91	0.105	1509820	keystroke	e	n/a
754.955	0.15	1509910	keystroke	r	n/a
755.2555	0.105	1510511	keystroke	s	n/a
755.3895	0.136	1510779	keystroke	o	n/a
755.8555	0.1345	1511711	keystroke	n	n/a
756.17	0.12	1512340	keystroke	a	n/a
756.32	0.0895	1512640	keystroke	l	n/a
756.4695	0.1205	1512939	keystroke	l	n/a
756.86	0.195	1513720	keystroke	y	n/a
756.965	0.165	1513930	keystroke	Key.space	n/a
757.25	0.135	1514500	keystroke	s	n/a
757.4	0.2545	1514800	keystroke	o	n/a
757.535	0.195	1515070	keystroke	u	n/a
757.7895	0.0905	1515579	keystroke	r	n/a
758.2395	0.105	1516479	keystroke	c	n/a
758.57	0.165	1517140	keystroke	e	n/a
758.75	0.12	1517500	keystroke	s	n/a
758.93	0.12	1517860	keystroke	Key.space	n/a
759.185	0.135	1518370	keystroke	h	n/a
759.335	0.15	1518670	keystroke	e	n/a
759.635	0.3	1519270	keystroke	l	n/a
760.265	0.15	1520530	keystroke	l	n/a
760.595	0.18	1521190	keystroke	o	n/a
761.555	0.12	1523110	keystroke	Key.enter	n/a
761.6795	11.922	1523359	prompt	n/a	older advantage effort beverage\n
762.665	0.12	1525330	keystroke	o	n/a
762.935	0.165	1525870	keystroke	l	n/a
763.085	0.105	1526170	keystroke	d	n/a
763.355	0.15	1526710	keystroke	e	n/a
763.475	0.1055	1526950	keystroke	r	n/a
763.64	0.1045	1527280	keystroke	Key.space	n/a
764.3755	0.12	1528751	keystroke	a	n/a
764.8995	0.1055	1529799	keystroke	d	n/a
765.3645	0.091	1530729	keystroke	v	n/a
765.605	0.135	1531210	keystroke	a	n/a
765.875	0.135	1531750	keystroke	n	n/a
766.07	0.15	1532140	keystroke	t	n/a
766.25	0.135	1532500	keystroke	a	n/a
766.505	0.135	1533010	keystroke	g	n/a
766.625	0.1205	1533250	keystroke	e	n/a
766.895	0.15	1533790	keystroke	Key.space	n/a
767.4645	0.105	1534929	keystroke	e	n/a
767.7195	0.075	1535439	keystroke	f	n/a
767.9145	0.075	1535829	keystroke	f	n/a
768.0645	0.1955	1536129	keystroke	o	n/a
768.2745	0.06	1536549	keystroke	r	n/a
768.59	0.12	1537180	keystroke	t	n/a
769.19	0.12	1538380	keystroke	Key.space	n/a
769.85	0.1055	1539700	keystroke	b	n/a
770.09	0.105	1540180	keystroke	e	n/a
770.555	0.0895	1541110	keystroke	v	n/a
770.885	0.15	1541770	keystroke	e	n/a
771.0195	0.135	1542039	keystroke	r	n/a
771.2455	0.105	1542491	keystroke	a	n/a
771.56	0.12	1543120	keystroke	g	n/a
771.7255	0.1195	1543451	keystroke	e	n/a
773.45	0.15	1546900	keystroke	Key.enter	n/a
773.606	11.1405	1547212	prompt	n/a	properties tucson mrna boston\n
774.5895	0.18	1549179	keystroke	p	n/a
774.83	0.1655	1549660	keystroke	r	n/a
774.9645	0.1205	1549929	keystroke	o	n/a
775.1145	0.1655	1550229	keystroke	p	n/a
775.3095	0.166	1550619	keystroke	e	n/a
775.4445	0.106	1550889	keystroke	r	n/a
775.73	0.0595	1551460	keystroke	t	n/a
775.85	0.1195	1551700	keystroke	i	n/a
775.9395	0.1505	1551879	keystroke	e	n/a
776.405	0.09	1552810	keystroke	s	n/a
776.75	0.105	1553500	keystroke	Key.space	n/a
777.1695	0.1055	1554339	keystroke	t	n/a
777.3945	0.151	1554789	keystroke	u	n/a
777.6195	0.12	1555239	keystroke	s	n/a
778.0105	0.1195	1556021	keystroke	c	n/a
778.25	0.1955	1556500	keystroke	o	n/a
778.985	0.1205	1557970	keystroke	n	n/a
779.345	0.075	1558690	keystroke	Key.space	n/a
780.5895	0.166	1561179	keystroke	m	n/a
780.8605	0.1195	1561721	keystroke	r	n/a
781.1305	0.1645	1562261	keystroke	n	n/a
781.355	0.12	1562710	keystroke	a	n/a
781.58	0.09	1563160	keystroke	Key.space	n/a
781.82	0.0745	1563640	keystroke	b	n/a
781.9245	0.12	1563849	keystroke	o	n/a
782.1645	0.1205	1564329	keystroke	s	n/a
782.54	0.105	1565080	keystroke	t	n/a
782.705	0.1955	1565410	keystroke	o	n/a
782.825	0.18	1565650	keystroke	n	n/a
784.64	0.105	1569280	keystroke	Key.enter	n/a
784.7505	10.256	1569501	prompt	n/a	motors agrees engineer push\n
786.635	0.105	1573270	keystroke	m	n/a
786.8745	0.195	1573749	keystroke	o	n/a
786.9955	0.119	1573991	keystroke	r	n/a
787.31	0.06	1574620	keystroke	t	n/a
787.82	0.075	1575640	keystroke	Key.backspace	n/a
787.9545	0.0905	1575909	keystroke	Key.backspace	n/a
788.1805	0.1195	1576361	keystroke	t	n/a
788.3895	0.165	1576779	keystroke	o	n/a
788.5395	0.121	1577079	keystroke	r	n/a
788.9155	0.1195	1577831	keystroke	s	n/a
789.1095	0.105	1578219	keystroke	Key.space	n/a
789.5755	0.089	1579151	keystroke	a	n/a
789.77	0.1055	1579540	keystroke	g	n/a
790.0395	0.135	1580079	keystroke	r	n/a
790.2645	0.0605	1580529	keystroke	e	n/a
790.43	0.105	1580860	keystroke	e	n/a
790.685	0.1205	1581370	keystroke	s	n/a
790.94	0.09	1581880	keystroke	Key.space	n/a
791.255	0.12	1582510	keystroke	e	n/a
791.465	0.135	1582930	keystroke	n	n/a
791.66	0.105	1583320	keystroke	g	n/a
791.84	0.195	1583680	keystroke	i	n/a
792.0055	0.1495	1584011	keystroke	n	n/a
792.2	0.075	1584400	keystroke	e	n/a
792.41	0.165	1584820	keystroke	e	n/a
792.6205	0.1195	1585241	keystroke	r	n/a
793.055	0.1195	1586110	keystroke	Key.space	n/a
793.235	0.15	1586470	keystroke	p	n/a
793.37	0.165	1586740	keystroke	u	n/a
793.535	0.15	1587070	keystroke	s	n/a
793.7	0.12	1587400	keystroke	h	n/a
794.87	0.135	1589740	keystroke	Key.enter	n/a
795.0105	10.601	1590021	prompt	n/a	priced picture denmark languages\n
795.9205	0.1345	1591841	keystroke	p	n/a
796.2505	0.119	1592501	keystroke	r	n/a
796.4	0.12	1592800	keystroke	i	n/a
796.67	0.1195	1593340	keystroke	c	n/a
796.9845	0.045	1593969	keystroke	e	n/a
797.42	0.105	1594840	keystroke	d	n/a
797.795	0.12	1595590	keystroke	Key.space	n/a
798.02	0.12	1596040	keystroke	p	n/a
798.245	0.1495	1596490	keystroke	i	n/a
798.47	0.12	1596940	keystroke	c	n/a
798.875	0.1345	1597750	keystroke	t	n/a
799.07	0.1495	1598140	keystroke	u	n/a
799.205	0.1645	1598410	keystroke	r	n/a
799.3395	0.1655	1598679	keystroke	e	n/a
799.655	0.089	1599310	keystroke	Key.space	n/a
800.465	0.105	1600930	keystroke	d	n/a
800.689	0.091	1601378	keystroke	e	n/a
800.84	0.09	1601680	keystroke	n	n/a
801.1255	0.1045	1602251	keystroke	m	n/a
801.275	0.15	1602550	keystroke	a	n/a
801.365	0.1345	1602730	keystroke	r	n/a
801.605	0.105	1603210	keystroke	k	n/a
802.265	0.075	1604530	keystroke	Key.space	n/a
802.58	0.15	1605160	keystroke	l	n/a
802.79	0.105	1605580	keystroke	a	n/a
802.88	0.12	1605760	keystroke	n	n/a
803.105	0.105	1606210	keystroke	g	n/a
803.4345	0.1355	1606869	keystroke	u	n/a
803.585	0.134	1607170	keystroke	a	n/a
803.779	0.121	1607558	keystroke	g	n/a
803.914	0.121	1607828	keystroke	e	n/a
804.095	0.12	1608190	keystroke	s	n/a
805.505	0.105	1611010	keystroke	Key.enter	n/a
805.617	11.019	1611234	prompt	n/a	share resolution witch circuits\n
806.51	0.09	1613020	keystroke	s	n/a
806.69	0.135	1613380	keystroke	h	n/a
806.855	0.0895	1613710	keystroke	a	n/a
806.9305	0.1195	1613861	keystroke	r	n/a
807.0345	0.15	1614069	keystroke	e	n/a
807.2145	0.045	1614429	keystroke	Key.space	n/a
807.5	0.135	1615000	keystroke	r	n/a
807.6505	0.1345	1615301	keystroke	e	n/a
807.8145	0.1355	1615629	keystroke	s	n/a
807.9795	0.0905	1615959	keystroke	o	n/a
808.2495	0.135	1616499	keystroke	l	n/a
808.5495	0.09	1617099	keystroke	u	n/a
808.7145	0.106	1617429	keystroke	t	n/a
808.7895	0.2105	1617579	keystroke	i	n/a
808.9095	0.15	1617819	keystroke	o	n/a
808.955	0.15	1617910	keystroke	n	n/a
809.4195	0.075	1618839	keystroke	Key.space	n/a
810.0205	0.0895	1620041	keystroke	w	n/a
810.56	0.179	1621120	keystroke	i	n/a
810.785	0.059	1621570	keystroke	t	n/a
811.444	0.076	1622888	keystroke	h	n/a
812.27	0.075	1624540	keystroke	Key.backspace	n/a
812.57	0.1195	1625140	keystroke	c	n/a
813.05	0.135	1626100	keystroke	h	n/a
813.3195	0.1055	1626639	keystroke	Key.space	n/a
813.77	0.1355	1627540	keystroke	c	n/a
814.25	0.2545	1628500	keystroke	i	n/a
814.5645	0.1055	1629129	keystroke	r	n/a
815.044	0.1515	1630088	keystroke	c	n/a
815.255	0.105	1630510	keystroke	u	n/a
815.494	0.2115	1630988	keystroke	i	n/a
815.735	0.075	1631470	keystroke	t	n/a
816.02	0.15	1632040	keystroke	s	n/a
816.514	0.1205	1633028	keystroke	Key.enter	n/a
816.64	7.3615	1633280	prompt	n/a	excuse word grants pencil\n
817.339	0.0915	1634678	keystroke	e	n/a
817.6845	0.1655	1635369	keystroke	x	n/a
818.105	0.1195	1636210	keystroke	c	n/a
818.2845	0.135	1636569	keystroke	u	n/a
818.465	0.1945	1636930	keystroke	s	n/a
818.6145	0.1955	1637229	keystroke	e	n/a
818.8695	0.09	1637739	keystroke	Key.space	n/a
819.2295	0.105	1638459	keystroke	w	n/a
819.35	0.1345	1638700	keystroke	o	n/a
819.5005	0.059	1639001	keystroke	r	n/a
819.86	0.165	1639720	keystroke	d	n/a
820.055	0.12	1640110	keystroke	Key.space	n/a
820.49	0.12	1640980	keystroke	g	n/a
820.775	0.1945	1641550	keystroke	r	n/a
820.9395	0.12	1641879	keystroke	a	n/a
821.0595	0.1355	1642119	keystroke	n	n/a
821.18	0.0755	1642360	keystroke	t	n/a
821.5095	0.135	1643019	keystroke	s	n/a
821.6895	0.105	1643379	keystroke	Key.space	n/a
822.0195	0.195	1644039	keystroke	p	n/a
822.2305	0.089	1644461	keystroke	e	n/a
822.3805	0.1195	1644761	keystroke	n	n/a
822.725	0.15	1645450	keystroke	c	n/a
822.86	0.075	1645720	keystroke	i	n/a
823.085	0.15	1646170	keystroke	l	n/a
823.85	0.15	1647700	keystroke	Key.enter	n/a
824.005	9.8365	1648010	prompt	n/a	motors affiliated racial discharge\n
824.9305	0.1195	1649861	keystroke	m	n/a
825.1845	0.15	1650369	keystroke	o	n/a
825.7255	0.105	1651451	keystroke	t	n/a
825.9045	0.1205	1651809	keystroke	o	n/a
825.9945	0.1055	1651989	keystroke	r	n/a
826.2945	0.136	1652589	keystroke	s	n/a
826.8195	0.105	1653639	keystroke	Key.space	n/a
827.0745	0.1055	1654149	keystroke	a	n/a
827.3755	0.089	1654751	keystroke	f	n/a
827.5545	0.09	1655109	keystroke	f	n/a
827.7045	0.105	1655409	keystroke	i	n/a
828.02	0.1645	1656040	keystroke	l	n/a
828.2895	0.2855	1656579	keystroke	i	n/a
828.4555	0.1645	1656911	keystroke	a	n/a
828.6045	0.1505	1657209	keystroke	t	n/a
828.7995	0.0755	1657599	keystroke	e	n/a
829.1595	0.15	1658319	keystroke	d	n/a
829.355	0.1045	1658710	keystroke	Key.space	n/a
829.7145	0.195	1659429	keystroke	r	n/a
829.8945	0.09	1659789	keystroke	a	n/a
830.255	0.135	1660510	keystroke	c	n/a
830.405	0.135	1660810	keystroke	i	n/a
830.645	0.09	1661290	keystroke	a	n/a
830.78	0.18	1661560	keystroke	l	n/a
831.02	0.134	1662040	keystroke	Key.space	n/a
831.2305	0.104	1662461	keystroke	d	n/a
831.3495	0.1505	1662699	keystroke	i	n/a
831.5305	0.1195	1663061	keystroke	s	n/a
831.9345	0.0905	1663869	keystroke	c	n/a
832.1145	0.1955	1664229	keystroke	h	n/a
832.4	0.165	1664800	keystroke	a	n/a
832.55	0.1045	1665100	keystroke	r	n/a
832.895	0.1345	1665790	keystroke	g	n/a
833	0.12	1666000	keystroke	e	n/a
833.7345	0.1045	1667469	keystroke	Key.enter	n/a
833.8445	8.4865	1667689	prompt	n/a	earning executed were nurse\n
835.19	0.15	1670380	keystroke	e	n/a
835.354	0.106	1670708	keystroke	a	n/a
835.414	0.15	1670828	keystroke	r	n/a
835.594	0.091	1671188	keystroke	n	n/a
835.7895	0.1355	1671579	keystroke	i	n/a
835.895	0.1495	1671790	keystroke	n	n/a
836.0295	0.09	1672059	keystroke	g	n/a
836.2395	0.0905	1672479	keystroke	Key.space	n/a
836.69	0.105	1673380	keystroke	e	n/a
837.035	0.135	1674070	keystroke	x	n/a
837.365	0.09	1674730	keystroke	e	n/a
837.665	0.165	1675330	keystroke	c	n/a
837.86	0.105	1675720	keystroke	u	n/a
838.25	0.135	1676500	keystroke	t	n/a
838.505	0.075	1677010	keystroke	e	n/a
838.79	0.075	1677580	keystroke	d	n/a
838.955	0.09	1677910	keystroke	Key.space	n/a
839.5095	0.211	1679019	keystroke	w	n/a
839.8095	0.1655	1679619	keystroke	e	n/a
840.0195	0.135	1680039	keystroke	r	n/a
840.14	0.105	1680280	keystroke	e	n/a
840.4095	0.105	1680819	keystroke	Key.space	n/a
840.7095	0.0905	1681419	keystroke	n	n/a
840.995	0.15	1681990	keystroke	u	n/a
841.13	0.1345	1682260	keystroke	r	n/a
841.43	0.15	1682860	keystroke	s	n/a
841.55	0.1345	1683100	keystroke	e	n/a
842.195	0.135	1684390	keystroke	Key.enter	n/a
842.3345	9.7015	1684669	prompt	n/a	processed shelter creatures partly\n
843.305	0.135	1686610	keystroke	p	n/a
843.485	0.075	1686970	keystroke	r	n/a
843.635	0.1195	1687270	keystroke	o	n/a
843.9645	0.1055	1687929	keystroke	c	n/a
844.28	0.12	1688560	keystroke	e	n/a
844.535	0.105	1689070	keystroke	s	n/a
844.745	0.12	1689490	keystroke	s	n/a
844.955	0.075	1689910	keystroke	e	n/a
845.2095	0.1355	1690419	keystroke	d	n/a
845.4195	0.1205	1690839	keystroke	Key.space	n/a
845.615	0.1195	1691230	keystroke	s	n/a
845.7795	0.1355	1691559	keystroke	h	n/a
845.93	0.075	1691860	keystroke	e	n/a
846.125	0.1645	1692250	keystroke	l	n/a
846.3345	0.136	1692669	keystroke	t	n/a
846.5445	0.1805	1693089	keystroke	e	n/a
846.68	0.135	1693360	keystroke	r	n/a
847.054	0.121	1694108	keystroke	Key.space	n/a
847.564	0.1365	1695128	keystroke	c	n/a
847.9845	0.15	1695969	keystroke	r	n/a
848.15	0.165	1696300	keystroke	e	n/a
848.33	0.1645	1696660	keystroke	a	n/a
848.5095	0.105	1697019	keystroke	t	n/a
848.7345	0.1955	1697469	keystroke	u	n/a
848.8395	0.1355	1697679	keystroke	r	n/a
848.9445	0.1355	1697889	keystroke	e	n/a
849.695	0.1205	1699390	keystroke	s	n/a
849.8595	0.1355	1699719	keystroke	Key.space	n/a
850.1	0.165	1700200	keystroke	p	n/a
850.28	0.1345	1700560	keystroke	a	n/a
850.37	0.135	1700740	keystroke	r	n/a
850.6995	0.06	1701399	keystroke	t	n/a
851.03	0.2245	1702060	keystroke	l	n/a
851.5095	0.135	1703019	keystroke	y	n/a
851.9	0.1345	1703800	keystroke	Key.enter	n/a
852.0395	10.8565	1704079	prompt	n/a	bulgarian million resistant prices\n
853.2045	0.1205	1706409	keystroke	b	n/a
853.4145	0.1055	1706829	keystroke	u	n/a
853.73	0.165	1707460	keystroke	l	n/a
854.0145	0.1055	1708029	keystroke	g	n/a
854.2545	0.165	1708509	keystroke	a	n/a
854.45	0.1345	1708900	keystroke	r	n/a
854.72	0.0745	1709440	keystroke	i	n/a
855.08	0.1795	1710160	keystroke	a	n/a
855.3795	0.09	1710759	keystroke	n	n/a
855.6495	0.09	1711299	keystroke	Key.space	n/a
856.22	0.09	1712440	keystroke	m	n/a
856.535	0.075	1713070	keystroke	i	n/a
856.85	0.09	1713700	keystroke	l	n/a
857.0005	0.1045	1714001	keystroke	l	n/a
857.21	0.255	1714420	keystroke	i	n/a
857.36	0.135	1714720	keystroke	o	n/a
857.435	0.135	1714870	keystroke	n	n/a
857.72	0.09	1715440	keystroke	Key.space	n/a
858.08	0.12	1716160	keystroke	r	n/a
859.025	0.09	1718050	keystroke	e	n/a
859.25	0.1045	1718500	keystroke	s	n/a
859.415	0.1195	1718830	keystroke	i	n/a
859.5495	0.1055	1719099	keystroke	s	n/a
860.345	0.0745	1720690	keystroke	t	n/a
860.5545	0.12	1721109	keystroke	a	n/a
860.72	0.15	1721440	keystroke	n	n/a
860.9	0.105	1721800	keystroke	t	n/a
861.214	0.12	1722428	keystroke	Key.space	n/a
861.4395	0.135	1722879	keystroke	p	n/a
861.605	0.09	1723210	keystroke	r	n/a
861.77	0.225	1723540	keystroke	i	n/a
862.0245	0.1055	1724049	keystroke	c	n/a
862.2945	0.1355	1724589	keystroke	e	n/a
862.505	0.1045	1725010	keystroke	s	n/a
862.805	0.09	1725610	keystroke	Key.enter	n/a
862.899	12.5375	1725798	prompt	n/a	notice thursday copies humanitarian\n
863.8845	0.091	1727769	keystroke	n	n/a
864.0345	0.135	1728069	keystroke	o	n/a
864.1845	0.075	1728369	keystroke	t	n/a
864.3045	0.1205	1728609	keystroke	i	n/a
864.6345	0.12	1729269	keystroke	c	n/a
864.9345	0.105	1729869	keystroke	e	n/a
865.0695	0.12	1730139	keystroke	Key.space	n/a
865.3845	0.09	1730769	keystroke	t	n/a
865.505	0.1045	1731010	keystroke	h	n/a
865.73	0.12	1731460	keystroke	u	n/a
865.8345	0.0905	1731669	keystroke	r	n/a
866.1345	0.09	1732269	keystroke	s	n/a
866.4505	0.089	1732901	keystroke	d	n/a
866.7645	0.12	1733529	keystroke	a	n/a
866.9445	0.195	1733889	keystroke	y	n/a
867.0495	0.135	1734099	keystroke	Key.space	n/a
867.3345	0.1355	1734669	keystroke	c	n/a
867.53	0.1355	1735060	keystroke	o	n/a
867.7995	0.1055	1735599	keystroke	p	n/a
867.9955	0.269	1735991	keystroke	i	n/a
868.0845	0.1955	1736169	keystroke	e	n/a
868.2945	0.1205	1736589	keystroke	s	n/a
868.5345	0.09	1737069	keystroke	Key.space	n/a
868.7895	0.105	1737579	keystroke	h	n/a
869.0305	0.06	1738061	keystroke	u	n/a
869.27	0.03	1738540	keystroke	j	n/a
869.45	0.1195	1738900	keystroke	a	n/a
869.5245	0.1055	1739049	keystroke	n	n/a
870.214	0.0755	1740428	keystroke	Key.backspace	n/a
870.38	0.2245	1740760	keystroke	Key.backspace	n/a
870.92	0.0445	1741840	keystroke	Key.backspace	n/a
871.1455	0.119	1742291	keystroke	m	n/a
871.3395	0.1055	1742679	keystroke	a	n/a
871.4145	0.0905	1742829	keystroke	n	n/a
871.565	0.2695	1743130	keystroke	i	n/a
871.82	0.075	1743640	keystroke	t	n/a
871.985	0.135	1743970	keystroke	a	n/a
872.135	0.09	1744270	keystroke	r	n/a
872.21	0.12	1744420	keystroke	i	n/a
872.405	0.09	1744810	keystroke	a	n/a
872.51	0.135	1745020	keystroke	n	n/a
875.3605	0.074	1750721	keystroke	Key.enter	n/a
875.44	12.0565	1750880	prompt	n/a	definitions sacramento indication exploring\n
876.9495	0.1205	1753899	keystroke	d	n/a
877.235	0.089	1754470	keystroke	e	n/a
877.46	0.135	1754920	keystroke	f	n/a
877.625	0.12	1755250	keystroke	i	n/a
877.76	0.1645	1755520	keystroke	n	n/a
877.85	0.15	1755700	keystroke	i	n/a
878.045	0.105	1756090	keystroke	t	n/a
878.209	0.1805	1756418	keystroke	i	n/a
878.314	0.135	1756628	keystroke	o	n/a
878.374	0.181	1756748	keystroke	n	n/a
878.539	0.12	1757078	keystroke	s	n/a
878.8845	0.1045	1757769	keystroke	Key.space	n/a
879.275	0.1345	1758550	keystroke	s	n/a
879.5445	0.0755	1759089	keystroke	a	n/a
879.8595	0.105	1759719	keystroke	c	n/a
