onset	duration	sample	value	key	prompt_text
7.742	10.2465	15484	prompt	n/a	the quick brown fox jumps over a lazy dog\n
9.0335	0.001	18067	keystroke_t	t	n/a
9.0755	0.075	18151	keystroke_h	h	n/a
9.1655	0.06	18331	keystroke_e	e	n/a
9.3605	0.075	18721	keystroke_Key.space	Key.space	n/a
9.6155	0.075	19231	keystroke_q	q	n/a
9.8255	0.089	19651	keystroke_u	u	n/a
9.8845	0.12	19769	keystroke_i	i	n/a
10.0945	0.075	20189	keystroke_c	c	n/a
10.245	0.075	20490	keystroke_k	k	n/a
10.455	0.075	20910	keystroke_Key.space	Key.space	n/a
10.65	0.105	21300	keystroke_b	b	n/a
10.845	0.06	21690	keystroke_r	r	n/a
10.92	0.12	21840	keystroke_o	o	n/a
11.055	0.075	22110	keystroke_w	w	n/a
11.16	0.15	22320	keystroke_n	n	n/a
11.295	0.105	22590	keystroke_Key.space	Key.space	n/a
12.21	0.06	24420	keystroke_f	f	n/a
12.48	0.0895	24960	keystroke_o	o	n/a
12.6745	0.09	25349	keystroke_x	x	n/a
12.7945	0.105	25589	keystroke_Key.space	Key.space	n/a
13.3195	0.06	26639	keystroke_j	j	n/a
13.4695	0.061	26939	keystroke_u	u	n/a
13.6645	0.09	27329	keystroke_m	m	n/a
13.7995	0.105	27599	keystroke_p	p	n/a
13.95	0.135	27900	keystroke_s	s	n/a
14.2055	0.12	28411	keystroke_Key.space	Key.space	n/a
14.4455	0.09	28891	keystroke_o	o	n/a
14.5955	0.105	29191	keystroke_v	v	n/a
14.7605	0.18	29521	keystroke_e	e	n/a
14.8805	0.09	29761	keystroke_r	r	n/a
14.9855	0.09	29971	keystroke_Key.space	Key.space	n/a
15.1055	0.105	30211	keystroke_a	a	n/a
15.2405	0.0745	30481	keystroke_Key.space	Key.space	n/a
15.435	0.1045	30870	keystroke_l	l	n/a
15.5995	0.12	31199	keystroke_a	a	n/a
15.765	0.1495	31530	keystroke_z	z	n/a
16.02	0.075	32040	keystroke_y	y	n/a
16.245	0.075	32490	keystroke_Key.space	Key.space	n/a
16.71	0.075	33420	keystroke_d	d	n/a
16.815	0.1055	33630	keystroke_o	o	n/a
16.995	0.075	33990	keystroke_g	g	n/a
17.8655	0.12	35731	keystroke_Key.enter	Key.enter	n/a
17.9945	12.5845	35989	prompt	n/a	congress spreading catalogue nearby\n
18.7505	0.09	37501	keystroke_c	c	n/a
18.8855	0.09	37771	keystroke_o	o	n/a
18.9455	0.105	37891	keystroke_n	n	n/a
19.1555	0.075	38311	keystroke_g	g	n/a
19.3505	0.0595	38701	keystroke_r	r	n/a
19.395	0.15	38790	keystroke_e	e	n/a
19.695	0.075	39390	keystroke_s	s	n/a
19.86	0.09	39720	keystroke_s	s	n/a
20.295	0.12	40590	keystroke_Key.space	Key.space	n/a
20.475	0.09	40950	keystroke_s	s	n/a
20.58	0.12	41160	keystroke_p	p	n/a
20.8795	0.195	41759	keystroke_r	r	n/a
21.0595	0.1205	42119	keystroke_e	e	n/a
21.165	0.18	42330	keystroke_a	a	n/a
21.285	0.12	42570	keystroke_d	d	n/a
21.48	0.135	42960	keystroke_i	i	n/a
21.555	0.105	43110	keystroke_n	n	n/a
21.645	0.105	43290	keystroke_g	g	n/a
21.78	0.0905	43560	keystroke_Key.space	Key.space	n/a
22.035	0.1055	44070	keystroke_c	c	n/a
22.2005	0.12	44401	keystroke_a	a	n/a
22.4705	0.075	44941	keystroke_t	t	n/a
22.5755	0.12	45151	keystroke_a	a	n/a
22.8155	0.0895	45631	keystroke_l	l	n/a
23.0405	0.06	46081	keystroke_o	o	n/a
23.76	0.09	47520	keystroke_g	g	n/a
23.911	0.104	47822	keystroke_u	u	n/a
24.045	0.075	48090	keystroke_e	e	n/a
24.825	0.06	49650	keystroke_Key.space	Key.space	n/a
25.155	0.075	50310	keystroke_n	n	n/a
25.215	0.18	50430	keystroke_e	e	n/a
25.335	0.15	50670	keystroke_a	a	n/a
25.41	0.045	50820	keystroke_e	e	n/a
25.456	0.074	50912	keystroke_r	r	n/a
25.9505	0.075	51901	keystroke_b	b	n/a
26.1455	0.06	52291	keystroke_y	y	n/a
27.2255	0.06	54451	keystroke_Key.backspace	Key.backspace	n/a
27.3755	0.075	54751	keystroke_Key.backspace	Key.backspace	n/a
27.5255	0.075	55051	keystroke_Key.backspace	Key.backspace	n/a
28.035	0.09	56070	keystroke_Key.backspace	Key.backspace	n/a
28.32	0.09	56640	keystroke_r	r	n/a
28.935	0.075	57870	keystroke_b	b	n/a
29.115	0.045	58230	keystroke_y	y	n/a
30.51	0.06	61020	keystroke_Key.enter	Key.enter	n/a
30.583	9.604	61166	prompt	n/a	heath done sheriff insights\n
31.5905	0.1055	63181	keystroke_h	h	n/a
31.965	0.105	63930	keystroke_e	e	n/a
32.401	0.089	64802	keystroke_a	a	n/a
32.625	0.09	65250	keystroke_t	t	n/a
33.3905	0.105	66781	keystroke_h	h	n/a
33.5405	0.09	67081	keystroke_Key.space	Key.space	n/a
33.9755	0.105	67951	keystroke_d	d	n/a
34.0955	0.09	68191	keystroke_o	o	n/a
34.1255	0.105	68251	keystroke_n	n	n/a
34.2005	0.105	68401	keystroke_e	e	n/a
34.3355	0.0895	68671	keystroke_Key.space	Key.space	n/a
34.695	0.0905	69390	keystroke_s	s	n/a
34.815	0.09	69630	keystroke_h	h	n/a
35.2955	0.12	70591	keystroke_e	e	n/a
35.5355	0.075	71071	keystroke_r	r	n/a
35.6855	0.0595	71371	keystroke_i	i	n/a
36.03	0.075	72060	keystroke_f	f	n/a
36.21	0.045	72420	keystroke_f	f	n/a
36.54	0.12	73080	keystroke_Key.space	Key.space	n/a
36.825	0.165	73650	keystroke_i	i	n/a
36.93	0.105	73860	keystroke_n	n	n/a
37.08	0.12	74160	keystroke_s	s	n/a
37.185	0.075	74370	keystroke_i	i	n/a
37.366	0.104	74732	keystroke_g	g	n/a
37.485	0.091	74970	keystroke_h	h	n/a
37.77	0.1205	75540	keystroke_t	t	n/a
37.9355	0.105	75871	keystroke_e	e	n/a
39.0755	0.06	78151	keystroke_Key.backspace	Key.backspace	n/a
39.1655	0.09	78331	keystroke_s	s	n/a
40.08	0.105	80160	keystroke_Key.enter	Key.enter	n/a
40.1895	9.3725	80379	prompt	n/a	filters jamie lighter days\n
41.055	0.105	82110	keystroke_f	f	n/a
41.175	0.09	82350	keystroke_i	i	n/a
41.34	0.12	82680	keystroke_l	l	n/a
41.475	0.105	82950	keystroke_t	t	n/a
42.661	0.165	85322	keystroke_e	e	n/a
42.781	0.059	85562	keystroke_r	r	n/a
42.991	0.105	85982	keystroke_s	s	n/a
43.171	0.12	86342	keystroke_Key.space	Key.space	n/a
44.43	0.075	88860	keystroke_j	j	n/a
44.535	0.075	89070	keystroke_a	a	n/a
44.655	0.075	89310	keystroke_m	m	n/a
44.805	0.075	89610	keystroke_i	i	n/a
44.881	0.089	89762	keystroke_e	e	n/a
45.045	0.105	90090	keystroke_Key.space	Key.space	n/a
45.4805	0.135	90961	keystroke_l	l	n/a
45.6005	0.105	91201	keystroke_i	i	n/a
45.7655	0.09	91531	keystroke_g	g	n/a
45.87	0.09	91740	keystroke_h	h	n/a
45.99	0.0755	91980	keystroke_t	t	n/a
46.5305	0.15	93061	keystroke_e	e	n/a
46.6205	0.105	93241	keystroke_r	r	n/a
46.7855	0.105	93571	keystroke_Key.space	Key.space	n/a
47.4605	0.03	94921	keystroke_d	d	n/a
47.4755	0.105	94951	keystroke_a	a	n/a
47.5655	0.09	95131	keystroke_y	y	n/a
47.6255	0.105	95251	keystroke_s	s	n/a
49.5005	0.06	99001	keystroke_Key.enter	Key.enter	n/a
49.565	10.625	99130	prompt	n/a	experiences arrives brain spell\n
50.3405	0.075	100681	keystroke_e	e	n/a
50.8205	0.045	101641	keystroke_x	x	n/a
50.9855	0.09	101971	keystroke_p	p	n/a
51.931	0.135	103862	keystroke_e	e	n/a
52.021	0.12	104042	keystroke_r	r	n/a
52.261	0.12	104522	keystroke_i	i	n/a
52.396	0.075	104792	keystroke_e	e	n/a
52.516	0.105	105032	keystroke_n	n	n/a
52.636	0.15	105272	keystroke_c	c	n/a
52.726	0.09	105452	keystroke_e	e	n/a
52.966	0.09	105932	keystroke_s	s	n/a
53.071	0.105	106142	keystroke_Key.space	Key.space	n/a
53.251	0.1495	106502	keystroke_a	a	n/a
53.5205	0.075	107041	keystroke_r	r	n/a
53.6705	0.105	107341	keystroke_r	r	n/a
53.8055	0.1045	107611	keystroke_i	i	n/a
53.926	0.059	107852	keystroke_e	e	n/a
54.09	0.12	108180	keystroke_v	v	n/a
54.27	0.12	108540	keystroke_e	e	n/a
54.495	0.076	108990	keystroke_s	s	n/a
54.6	0.075	109200	keystroke_Key.space	Key.space	n/a
55.185	0.12	110370	keystroke_Key.backspace	Key.backspace	n/a
55.32	0.0605	110640	keystroke_Key.backspace	Key.backspace	n/a
55.4555	0.075	110911	keystroke_Key.backspace	Key.backspace	n/a
55.5755	0.075	111151	keystroke_Key.backspace	Key.backspace	n/a
55.7255	0.075	111451	keystroke_Key.backspace	Key.backspace	n/a
56.055	0.12	112110	keystroke_v	v	n/a
56.19	0.12	112380	keystroke_e	e	n/a
56.415	0.075	112830	keystroke_s	s	n/a
56.79	0.075	113580	keystroke_Key.space	Key.space	n/a
56.985	0.09	113970	keystroke_b	b	n/a
57.225	0.135	114450	keystroke_r	r	n/a
57.375	0.1055	114750	keystroke_a	a	n/a
57.42	0.1355	114840	keystroke_i	i	n/a
57.496	0.1045	114992	keystroke_n	n	n/a
57.6605	0.09	115321	keystroke_Key.space	Key.space	n/a
58.2455	0.09	116491	keystroke_s	s	n/a
58.2905	0.105	116581	keystroke_p	p	n/a
58.5605	0.06	117121	keystroke_e	e	n/a
59.1155	0.045	118231	keystroke_l	l	n/a
59.2655	0.075	118531	keystroke_l	l	n/a
60.0905	0.09	120181	keystroke_Key.enter	Key.enter	n/a
60.195	15.429	120390	prompt	n/a	dirt souls potato shaft\n
61.5155	0.12	123031	keystroke_d	d	n/a
61.6655	0.09	123331	keystroke_i	i	n/a
61.7855	0.09	123571	keystroke_r	r	n/a
61.9805	0.09	123961	keystroke_t	t	n/a
62.1155	0.09	124231	keystroke_Key.space	Key.space	n/a
62.2955	0.0605	124591	keystroke_s	s	n/a
62.3705	0.09	124741	keystroke_o	o	n/a
62.7755	0.09	125551	keystroke_u	u	n/a
62.9705	0.1055	125941	keystroke_l	l	n/a
63.106	0.12	126212	keystroke_s	s	n/a
63.676	0.075	127352	keystroke_Key.space	Key.space	n/a
63.856	0.075	127712	keystroke_p	p	n/a
64.066	0.089	128132	keystroke_o	o	n/a
64.26	0.09	128520	keystroke_t	t	n/a
64.441	0.165	128882	keystroke_a	a	n/a
64.5755	0.0905	129151	keystroke_t	t	n/a
65.056	0.06	130112	keystroke_o	o	n/a
65.296	0.075	130592	keystroke_Key.space	Key.space	n/a
65.581	0.075	131162	keystroke_s	s	n/a
65.8205	0.06	131641	keystroke_h	h	n/a
65.8955	0.015	131791	keystroke_h	h	n/a
66.616	0.014	133232	keystroke_Key.backspace	Key.backspace	n/a
67.126	0.104	134252	keystroke_a	a	n/a
67.336	0.119	134672	keystroke_f	f	n/a
67.576	0.089	135152	keystroke_t	t	n/a
75.5725	0.043	151145	keystroke_Key.enter	Key.enter	n/a
75.629	10.931	151258	prompt	n/a	stats print blade spoken\n
76.8605	0.09	153721	keystroke_s	s	n/a
77.1305	0.06	154261	keystroke_t	t	n/a
77.3255	0.12	154651	keystroke_a	a	n/a
77.7905	0.12	155581	keystroke_t	t	n/a
78.5705	0.105	157141	keystroke_s	s	n/a
80.8525	0.001	161705	keystroke_Key.space	Key.space	n/a
80.9705	0.075	161941	keystroke_p	p	n/a
81.0755	0.106	162151	keystroke_r	r	n/a
81.2115	0.1195	162423	keystroke_i	i	n/a
81.346	0.12	162692	keystroke_n	n	n/a
81.496	0.12	162992	keystroke_t	t	n/a
81.946	0.075	163892	keystroke_Key.space	Key.space	n/a
82.3805	0.075	164761	keystroke_b	b	n/a
82.5905	0.075	165181	keystroke_l	l	n/a
82.6805	0.1355	165361	keystroke_a	a	n/a
82.8005	0.1205	165601	keystroke_d	d	n/a
82.981	0.12	165962	keystroke_e	e	n/a
83.236	0.105	166472	keystroke_Key.space	Key.space	n/a
83.626	0.105	167252	keystroke_s	s	n/a
83.926	0.135	167852	keystroke_p	p	n/a
84.016	0.075	168032	keystroke_o	o	n/a
84.4055	0.09	168811	keystroke_k	k	n/a
84.5405	0.105	169081	keystroke_e	e	n/a
84.8855	0.09	169771	keystroke_n	n	n/a
86.446	0.105	172892	keystroke_Key.enter	Key.enter	n/a
86.566	14.0935	173132	prompt	n/a	ending selected adjusted cedar\n
87.286	0.105	174572	keystroke_s	s	n/a
87.466	0.045	174932	keystroke_n	n	n/a
88.081	0.06	176162	keystroke_Key.backspace	Key.backspace	n/a
88.231	0.075	176462	keystroke_Key.backspace	Key.backspace	n/a
88.501	0.075	177002	keystroke_e	e	n/a
88.636	0.0745	177272	keystroke_n	n	n/a
89.0855	0.105	178171	keystroke_d	d	n/a
89.2055	0.12	178411	keystroke_i	i	n/a
89.2955	0.075	178591	keystroke_n	n	n/a
89.3855	0.0895	178771	keystroke_g	g	n/a
89.835	0.0905	179670	keystroke_Key.space	Key.space	n/a
90.0305	0.075	180061	keystroke_s	s	n/a
90.2405	0.09	180481	keystroke_e	e	n/a
90.3765	0.104	180753	keystroke_l	l	n/a
90.5705	0.09	181141	keystroke_e	e	n/a
90.6755	0.135	181351	keystroke_v	v	n/a
91.0205	0.151	182041	keystroke_t	t	n/a
91.2755	0.135	182551	keystroke_e	e	n/a
91.3655	0.105	182731	keystroke_d	d	n/a
91.951	0.06	183902	keystroke_Key.backspace	Key.backspace	n/a
92.116	0.045	184232	keystroke_Key.backspace	Key.backspace	n/a
92.251	0.06	184502	keystroke_Key.backspace	Key.backspace	n/a
92.386	0.075	184772	keystroke_Key.backspace	Key.backspace	n/a
92.776	0.105	185552	keystroke_v	v	n/a
93.361	0.075	186722	keystroke_Key.backspace	Key.backspace	n/a
93.706	0.075	187412	keystroke_c	c	n/a
94.006	0.075	188012	keystroke_t	t	n/a
94.216	0.075	188432	keystroke_e	e	n/a
94.3955	0.09	188791	keystroke_d	d	n/a
95.0555	0.06	190111	keystroke_Key.space	Key.space	n/a
96.6005	0.075	193201	keystroke_a	a	n/a
96.9305	0.06	193861	keystroke_d	d	n/a
97.3805	0.09	194761	keystroke_j	j	n/a
97.6055	0.06	195211	keystroke_u	u	n/a
97.6955	0.09	195391	keystroke_s	s	n/a
97.9205	0.075	195841	keystroke_t	t	n/a
98.1155	0.105	196231	keystroke_e	e	n/a
98.1905	0.105	196381	keystroke_d	d	n/a
98.3255	0.06	196651	keystroke_Key.space	Key.space	n/a
99.0155	0.09	198031	keystroke_c	c	n/a
99.2105	0.075	198421	keystroke_e	e	n/a
99.4355	0.12	198871	keystroke_d	d	n/a
99.5105	0.135	199021	keystroke_a	a	n/a
99.6905	0.105	199381	keystroke_r	r	n/a
100.576	0.075	201152	keystroke_Key.enter	Key.enter	n/a
100.6635	5.3435	201327	prompt	n/a	posing sustained cheaper love\n
101.3705	0.12	202741	keystroke_p	p	n/a
101.4305	0.12	202861	keystroke_o	o	n/a
101.5655	0.075	203131	keystroke_s	s	n/a
101.6705	0.12	203341	keystroke_i	i	n/a
101.7455	0.075	203491	keystroke_n	n	n/a
101.8055	0.09	203611	keystroke_g	g	n/a
101.9705	0.06	203941	keystroke_Key.space	Key.space	n/a
102.1655	0.09	204331	keystroke_s	s	n/a
102.2705	0.09	204541	keystroke_u	u	n/a
102.4205	0.135	204841	keystroke_s	s	n/a
102.7355	0.09	205471	keystroke_t	t	n/a
102.886	0.09	205772	keystroke_a	a	n/a
103.006	0.12	206012	keystroke_i	i	n/a
103.111	0.075	206222	keystroke_n	n	n/a
103.456	0.105	206912	keystroke_e	e	n/a
103.516	0.105	207032	keystroke_d	d	n/a
103.681	0.105	207362	keystroke_Key.space	Key.space	n/a
104.086	0.105	208172	keystroke_c	c	n/a
104.206	0.105	208412	keystroke_h	h	n/a
104.296	0.165	208592	keystroke_e	e	n/a
104.401	0.12	208802	keystroke_a	a	n/a
104.536	0.075	209072	keystroke_p	p	n/a
104.641	0.12	209282	keystroke_e	e	n/a
104.701	0.09	209402	keystroke_r	r	n/a
104.851	0.0895	209702	keystroke_Key.space	Key.space	n/a
105.0605	0.091	210121	keystroke_l	l	n/a
105.2555	0.0905	210511	keystroke_o	o	n/a
105.361	0.135	210722	keystroke_v	v	n/a
105.436	0.075	210872	keystroke_e	e	n/a
105.931	0.075	211862	keystroke_Key.enter	Key.enter	n/a
106.01	14.96	212020	prompt	n/a	bingo represented georgia brandon\n
107.641	0.09	215282	keystroke_b	b	n/a
107.926	0.105	215852	keystroke_n	n	n/a
108.046	0.09	216092	keystroke_g	g	n/a
108.211	0.09	216422	keystroke_o	o	n/a
108.691	0.06	217382	keystroke_Key.backspace	Key.backspace	n/a
108.826	0.075	217652	keystroke_Key.backspace	Key.backspace	n/a
109.156	0.0745	218312	keystroke_Key.backspace	Key.backspace	n/a
110.026	0.06	220052	keystroke_i	i	n/a
110.191	0.09	220382	keystroke_n	n	n/a
110.506	0.075	221012	keystroke_g	g	n/a
110.701	0.09	221402	keystroke_o	o	n/a
111.151	0.075	222302	keystroke_Key.space	Key.space	n/a
111.316	0.18	222632	keystroke_r	r	n/a
111.871	0.015	223742	keystroke_p	p	n/a
111.991	0.0895	223982	keystroke_e	e	n/a
112.2455	0.045	224491	keystroke_Key.backspace	Key.backspace	n/a
112.3505	0.075	224701	keystroke_Key.backspace	Key.backspace	n/a
112.4705	0.09	224941	keystroke_e	e	n/a
112.8605	0.09	225721	keystroke_p	p	n/a
113.1455	0.135	226291	keystroke_r	r	n/a
113.2355	0.09	226471	keystroke_e	e	n/a
113.476	0.09	226952	keystroke_s	s	n/a
113.641	0.105	227282	keystroke_e	e	n/a
113.731	0.105	227462	keystroke_n	n	n/a
113.836	0.0905	227672	keystroke_t	t	n/a
114.0465	0.12	228093	keystroke_e	e	n/a
114.1065	0.105	228213	keystroke_d	d	n/a
114.2555	0.105	228511	keystroke_Key.space	Key.space	n/a
114.8565	0.06	229713	keystroke_f	f	n/a
115.2005	0.076	230401	keystroke_Key.backspace	Key.backspace	n/a
115.3355	0.075	230671	keystroke_g	g	n/a
115.5305	0.105	231061	keystroke_e	e	n/a
115.7405	0.06	231481	keystroke_o	o	n/a
115.9055	0.09	231811	keystroke_r	r	n/a
117.1055	0.06	234211	keystroke_g	g	n/a
117.2105	0.075	234421	keystroke_i	i	n/a
117.4205	0.09	234841	keystroke_a	a	n/a
117.8105	0.105	235621	keystroke_Key.space	Key.space	n/a
118.0655	0.075	236131	keystroke_b	b	n/a
118.3505	0.1355	236701	keystroke_r	r	n/a
118.9665	0.105	237933	keystroke_a	a	n/a
119.1005	0.09	238201	keystroke_n	n	n/a
119.9255	0.105	239851	keystroke_d	d	n/a
120.0905	0.12	240181	keystroke_o	o	n/a
120.1805	0.1055	240361	keystroke_n	n	n/a
120.901	0.06	241802	keystroke_Key.enter	Key.enter	n/a
120.9765	14.0055	241953	prompt	n/a	preview magnificent declaration analysts\n
121.8015	0.1045	243603	keystroke_p	p	n/a
121.966	0.135	243932	keystroke_r	r	n/a
122.056	0.12	244112	keystroke_e	e	n/a
122.536	0.105	245072	keystroke_v	v	n/a
122.656	0.09	245312	keystroke_i	i	n/a
122.851	0.045	245702	keystroke_e	e	n/a
122.866	0.06	245732	keystroke_w	w	n/a
123.616	0.075	247232	keystroke_Key.space	Key.space	n/a
123.841	0.135	247682	keystroke_m	m	n/a
123.946	0.09	247892	keystroke_a	a	n/a
124.2165	0.1045	248433	keystroke_g	g	n/a
124.471	0.12	248942	keystroke_n	n	n/a
124.561	0.105	249122	keystroke_i	i	n/a
125.566	0.015	251132	keystroke_f	f	n/a
125.596	0.03	251192	keystroke_i	i	n/a
125.8065	0.105	251613	keystroke_c	c	n/a
125.9865	0.09	251973	keystroke_e	e	n/a
126.0915	0.075	252183	keystroke_n	n	n/a
126.2115	0.09	252423	keystroke_t	t	n/a
126.5555	0.121	253111	keystroke_Key.space	Key.space	n/a
127.816	0.045	255632	keystroke_d	d	n/a
127.831	0.09	255662	keystroke_e	e	n/a
128.056	0.06	256112	keystroke_c	c	n/a
128.191	0.075	256382	keystroke_l	l	n/a
128.281	0.075	256562	keystroke_a	a	n/a
128.641	0.09	257282	keystroke_r	r	n/a
128.791	0.075	257582	keystroke_a	a	n/a
128.956	0.06	257912	keystroke_t	t	n/a
129.061	0.1805	258122	keystroke_i	i	n/a
129.1365	0.09	258273	keystroke_o	o	n/a
129.1965	0.135	258393	keystroke_n	n	n/a
129.3465	0.075	258693	keystroke_Key.space	Key.space	n/a
130.0515	0.12	260103	keystroke_a	a	n/a
130.3965	0.09	260793	keystroke_n	n	n/a
130.5315	0.105	261063	keystroke_a	a	n/a
130.6515	0.09	261303	keystroke_l	l	n/a
130.9665	0.105	261933	keystroke_u	u	n/a
131.1465	0.12	262293	keystroke_s	s	n/a
131.7165	0.06	263433	keystroke_Key.backspace	Key.backspace	n/a
131.8355	0.091	263671	keystroke_Key.backspace	Key.backspace	n/a
132.7805	0.105	265561	keystroke_y	y	n/a
132.9155	0.015	265831	keystroke_s	s	n/a
132.946	0.015	265892	keystroke_t	t	n/a
133.711	0.09	267422	keystroke_s	s	n/a
134.866	0.105	269732	keystroke_Key.enter	Key.enter	n/a
134.987	10.028	269974	prompt	n/a	product evans us navigation\n
135.8705	0.076	271741	keystroke_p	p	n/a
136.0065	0.09	272013	keystroke_r	r	n/a
136.1405	0.075	272281	keystroke_o	o	n/a
136.6215	0.075	273243	keystroke_d	d	n/a
136.7715	0.075	273543	keystroke_u	u	n/a
136.9065	0.12	273813	keystroke_c	c	n/a
137.2665	0.09	274533	keystroke_t	t	n/a
137.866	0.09	275732	keystroke_Key.space	Key.space	n/a
138.226	0.06	276452	keystroke_e	e	n/a
138.376	0.15	276752	keystroke_v	v	n/a
138.931	0.09	277862	keystroke_a	a	n/a
139.066	0.06	278132	keystroke_n	n	n/a
139.141	0.0895	278282	keystroke_s	s	n/a
140.1005	0.075	280201	keystroke_Key.space	Key.space	n/a
140.3105	0.105	280621	keystroke_u	u	n/a
140.4305	0.075	280861	keystroke_s	s	n/a
141.3605	0.105	282721	keystroke_Key.space	Key.space	n/a
142.6355	0.075	285271	keystroke_n	n	n/a
142.7555	0.06	285511	keystroke_a	a	n/a
142.9505	0.076	285901	keystroke_v	v	n/a
143.2065	0.075	286413	keystroke_i	i	n/a
143.431	0.06	286862	keystroke_g	g	n/a
143.581	0.105	287162	keystroke_a	a	n/a
143.746	0.09	287492	keystroke_t	t	n/a
143.9705	0.195	287941	keystroke_i	i	n/a
144.0765	0.165	288153	keystroke_o	o	n/a
144.1815	0.135	288363	keystroke_n	n	n/a
144.991	0.015	289982	keystroke_Key.enter	Key.enter	n/a
145.019	6.7685	290038	prompt	n/a	cleaners bodies hobby marriott\n
146.206	0.105	292412	keystroke_c	c	n/a
146.326	0.075	292652	keystroke_l	l	n/a
146.416	0.165	292832	keystroke_e	e	n/a
146.506	0.12	293012	keystroke_a	a	n/a
146.641	0.09	293282	keystroke_n	n	n/a
146.806	0.12	293612	keystroke_e	e	n/a
146.866	0.09	293732	keystroke_r	r	n/a
147.1355	0.061	294271	keystroke_s	s	n/a
147.2405	0.09	294481	keystroke_Key.space	Key.space	n/a
147.751	0.09	295502	keystroke_b	b	n/a
147.856	0.1055	295712	keystroke_o	o	n/a
148.2615	0.105	296523	keystroke_d	d	n/a
148.4715	0.075	296943	keystroke_i	i	n/a
148.5615	0.074	297123	keystroke_e	e	n/a
148.7565	0.09	297513	keystroke_s	s	n/a
148.8315	0.089	297663	keystroke_Key.space	Key.space	n/a
148.9965	0.12	297993	keystroke_h	h	n/a
149.1315	0.15	298263	keystroke_o	o	n/a
149.3265	0.09	298653	keystroke_b	b	n/a
149.506	0.0895	299012	keystroke_b	b	n/a
149.6555	0.121	299311	keystroke_y	y	n/a
149.8365	0.09	299673	keystroke_Key.space	Key.space	n/a
150.0765	0.09	300153	keystroke_m	m	n/a
150.3615	0.06	300723	keystroke_a	a	n/a
150.5715	0.09	301143	keystroke_r	r	n/a
150.7365	0.09	301473	keystroke_r	r	n/a
150.8115	0.12	301623	keystroke_i	i	n/a
150.9165	0.105	301833	keystroke_o	o	n/a
151.0965	0.09	302193	keystroke_t	t	n/a
151.4715	0.09	302943	keystroke_t	t	n/a
151.7415	0.045	303483	keystroke_Key.enter	Key.enter	n/a
151.7905	9.2745	303581	prompt	n/a	custody diagnosis branch lincoln\n
152.506	0.12	305012	keystroke_c	c	n/a
152.656	0.075	305312	keystroke_u	u	n/a
152.761	0.105	305522	keystroke_s	s	n/a
152.986	0.075	305972	keystroke_t	t	n/a
153.076	0.09	306152	keystroke_o	o	n/a
153.196	0.135	306392	keystroke_d	d	n/a
153.361	0.12	306722	keystroke_y	y	n/a
153.511	0.09	307022	keystroke_Key.space	Key.space	n/a
154.561	0.09	309122	keystroke_d	d	n/a
154.681	0.075	309362	keystroke_i	i	n/a
154.786	0.075	309572	keystroke_a	a	n/a
155.8365	0.09	311673	keystroke_g	g	n/a
156.3915	0.12	312783	keystroke_n	n	n/a
156.4815	0.1345	312963	keystroke_o	o	n/a
156.736	0.105	313472	keystroke_s	s	n/a
156.826	0.075	313652	keystroke_i	i	n/a
156.916	0.075	313832	keystroke_s	s	n/a
157.126	0.09	314252	keystroke_Key.space	Key.space	n/a
157.621	0.12	315242	keystroke_b	b	n/a
157.831	0.105	315662	keystroke_r	r	n/a
157.951	0.135	315902	keystroke_a	a	n/a
158.071	0.12	316142	keystroke_n	n	n/a
158.206	0.12	316412	keystroke_c	c	n/a
158.491	0.015	316982	keystroke_h	h	n/a
159.121	0.105	318242	keystroke_Key.space	Key.space	n/a
159.376	0.15	318752	keystroke_l	l	n/a
159.541	0.165	319082	keystroke_i	i	n/a
159.676	0.135	319352	keystroke_n	n	n/a
159.841	0.12	319682	keystroke_c	c	n/a
159.976	0.09	319952	keystroke_o	o	n/a
160.171	0.09	320342	keystroke_l	l	n/a
160.501	0.09	321002	keystroke_n	n	n/a
160.966	0.09	321932	keystroke_Key.enter	Key.enter	n/a
161.069	12.311	322138	prompt	n/a	membrane screens documentary toxic\n
161.7605	0.015	323521	keystroke_m	m	n/a
161.8055	0.105	323611	keystroke_e	e	n/a
161.9855	0.105	323971	keystroke_m	m	n/a
162.5105	0.09	325021	keystroke_b	b	n/a
162.7055	0.091	325411	keystroke_r	r	n/a
162.8555	0.136	325711	keystroke_a	a	n/a
162.9755	0.075	325951	keystroke_n	n	n/a
163.1555	0.09	326311	keystroke_e	e	n/a
163.2755	0.105	326551	keystroke_Key.space	Key.space	n/a
163.5755	0.105	327151	keystroke_s	s	n/a
163.7405	0.105	327481	keystroke_c	c	n/a
163.9955	0.12	327991	keystroke_r	r	n/a
164.0855	0.09	328171	keystroke_e	e	n/a
164.2805	0.091	328561	keystroke_e	e	n/a
164.4605	0.09	328921	keystroke_n	n	n/a
164.5655	0.091	329131	keystroke_s	s	n/a
164.7455	0.12	329491	keystroke_Key.space	Key.space	n/a
165.2865	0.0895	330573	keystroke_s	s	n/a
165.811	0.075	331622	keystroke_Key.backspace	Key.backspace	n/a
165.871	0.12	331742	keystroke_d	d	n/a
166.036	0.09	332072	keystroke_o	o	n/a
166.291	0.09	332582	keystroke_c	c	n/a
166.411	0.09	332822	keystroke_u	u	n/a
166.771	0.105	333542	keystroke_m	m	n/a
166.891	0.09	333782	keystroke_e	e	n/a
167.041	0.06	334082	keystroke_n	n	n/a
167.191	0.06	334382	keystroke_t	t	n/a
167.656	0.06	335312	keystroke_a	a	n/a
167.701	0.06	335402	keystroke_r	r	n/a
167.8965	0.104	335793	keystroke_y	y	n/a
168.1205	0.06	336241	keystroke_Key.space	Key.space	n/a
168.6755	0.09	337351	keystroke_t	t	n/a
168.7955	0.105	337591	keystroke_o	o	n/a
169.186	0.075	338372	keystroke_c	c	n/a
169.621	0.075	339242	keystroke_Key.backspace	Key.backspace	n/a
169.711	0.105	339422	keystroke_x	x	n/a
169.9515	0.06	339903	keystroke_i	i	n/a
170.1315	0.06	340263	keystroke_s	s	n/a
171.0015	0.075	342003	keystroke_Key.backspace	Key.backspace	n/a
171.376	0.015	342752	keystroke_c	c	n/a
173.3105	0.0605	346621	keystroke_Key.enter	Key.enter	n/a
173.3845	11.0955	346769	prompt	n/a	hitting clock translator advert\n
174.271	0.165	348542	keystroke_h	h	n/a
174.3765	0.0895	348753	keystroke_i	i	n/a
174.4965	0.075	348993	keystroke_t	t	n/a
174.661	0.075	349322	keystroke_t	t	n/a
174.7515	0.1345	349503	keystroke_i	i	n/a
174.841	0.12	349682	keystroke_n	n	n/a
174.946	0.075	349892	keystroke_g	g	n/a
175.066	0.105	350132	keystroke_Key.space	Key.space	n/a
175.4415	0.1045	350883	keystroke_c	c	n/a
175.606	0.06	351212	keystroke_l	l	n/a
175.771	0.075	351542	keystroke_o	o	n/a
175.996	0.12	351992	keystroke_c	c	n/a
176.086	0.1355	352172	keystroke_k	k	n/a
176.2215	0.105	352443	keystroke_Key.space	Key.space	n/a
176.6115	0.12	353223	keystroke_t	t	n/a
176.8515	0.09	353703	keystroke_r	r	n/a
176.9715	0.12	353943	keystroke_a	a	n/a
177.1065	0.12	354213	keystroke_n	n	n/a
177.1815	0.12	354363	keystroke_s	s	n/a
178.0965	0.089	356193	keystroke_l	l	n/a
178.2015	0.075	356403	keystroke_a	a	n/a
178.4255	0.075	356851	keystroke_t	t	n/a
178.5605	0.076	357121	keystroke_o	o	n/a
178.6505	0.09	357301	keystroke_r	r	n/a
179.116	0.105	358232	keystroke_Key.space	Key.space	n/a
179.371	0.105	358742	keystroke_s	s	n/a
179.521	0.09	359042	keystroke_a	a	n/a
179.956	0.06	359912	keystroke_Key.backspace	Key.backspace	n/a
180.076	0.105	360152	keystroke_Key.backspace	Key.backspace	n/a
180.136	0.105	360272	keystroke_d	d	n/a
180.211	0.09	360422	keystroke_a	a	n/a
180.571	0.075	361142	keystroke_v	v	n/a
180.946	0.075	361892	keystroke_Key.backspace	Key.backspace	n/a
181.096	0.06	362192	keystroke_Key.backspace	Key.backspace	n/a
181.246	0.105	362492	keystroke_Key.backspace	Key.backspace	n/a
181.7105	0.12	363421	keystroke_a	a	n/a
181.9505	0.09	363901	keystroke_f	f	n/a
182.671	0.135	365342	keystroke_Key.backspace	Key.backspace	n/a
182.8665	0.0745	365733	keystroke_d	d	n/a
183.0765	0.09	366153	keystroke_v	v	n/a
183.2565	0.1195	366513	keystroke_e	e	n/a
183.3615	0.09	366723	keystroke_r	r	n/a
183.5565	0.09	367113	keystroke_t	t	n/a
184.381	0.09	368762	keystroke_Key.enter	Key.enter	n/a
184.484	12.314	368968	prompt	n/a	cape asbestos australian ethics\n
186.7685	0.087	373537	keystroke_c	c	n/a
186.7805	0.12	373561	keystroke_a	a	n/a
186.9155	0.09	373831	keystroke_p	p	n/a
187.0205	0.0755	374041	keystroke_e	e	n/a
187.141	0.105	374282	keystroke_Key.space	Key.space	n/a
187.321	0.075	374642	keystroke_e	e	n/a
187.621	0.075	375242	keystroke_Key.backspace	Key.backspace	n/a
187.741	0.12	375482	keystroke_a	a	n/a
188.356	0.105	376712	keystroke_s	s	n/a
188.581	0.105	377162	keystroke_b	b	n/a
188.671	0.06	377342	keystroke_e	e	n/a
188.881	0.09	377762	keystroke_s	s	n/a
189.076	0.075	378152	keystroke_t	t	n/a
189.211	0.09	378422	keystroke_o	o	n/a
189.316	0.075	378632	keystroke_r	r	n/a
189.9005	0.06	379801	keystroke_Key.backspace	Key.backspace	n/a
189.976	0.0745	379952	keystroke_s	s	n/a
190.1105	0.1055	380221	keystroke_Key.space	Key.space	n/a
190.756	0.09	381512	keystroke_a	a	n/a
190.861	0.075	381722	keystroke_u	u	n/a
190.966	0.105	381932	keystroke_s	s	n/a
191.2815	0.075	382563	keystroke_t	t	n/a
191.491	0.09	382982	keystroke_r	r	n/a
191.656	0.12	383312	keystroke_a	a	n/a
192.001	0.135	384002	keystroke_l	l	n/a
192.076	0.105	384152	keystroke_i	i	n/a
192.226	0.105	384452	keystroke_a	a	n/a
192.346	0.135	384692	keystroke_n	n	n/a
192.541	0.105	385082	keystroke_Key.space	Key.space	n/a
193.291	0.105	386582	keystroke_e	e	n/a
193.5465	0.0895	387093	keystroke_t	t	n/a
193.6815	0.0895	387363	keystroke_h	h	n/a
193.846	0.105	387692	keystroke_i	i	n/a
194.161	0.09	388322	keystroke_c	c	n/a
194.611	0.09	389222	keystroke_s	s	n/a
196.7885	0	393577	keystroke_Key.enter	Key.enter	n/a
196.8025	9.5925	393605	prompt	n/a	carroll ideas tide sophisticated\n
197.7015	0.135	395403	keystroke_c	c	n/a
197.7765	0.12	395553	keystroke_a	a	n/a
198.0015	0.075	396003	keystroke_r	r	n/a
198.1365	0.09	396273	keystroke_r	r	n/a
198.2715	0.075	396543	keystroke_o	o	n/a
198.4665	0.045	396933	keystroke_l	l	n/a
198.6165	0.09	397233	keystroke_l	l	n/a
198.8565	0.12	397713	keystroke_Key.space	Key.space	n/a
199.1265	0.104	398253	keystroke_i	i	n/a
199.2455	0.075	398491	keystroke_d	d	n/a
200.4305	0.09	400861	keystroke_e	e	n/a
200.5505	0.15	401101	keystroke_a	a	n/a
200.6405	0.105	401281	keystroke_s	s	n/a
200.8205	0.135	401641	keystroke_Key.space	Key.space	n/a
201.226	0.105	402452	keystroke_t	t	n/a
201.316	0.09	402632	keystroke_i	i	n/a
201.451	0.12	402902	keystroke_r	r	n/a
201.616	0.09	403232	keystroke_e	e	n/a
201.9305	0.075	403861	keystroke_Key.backspace	Key.backspace	n/a
202.0655	0.075	404131	keystroke_Key.backspace	Key.backspace	n/a
202.1555	0.105	404311	keystroke_d	d	n/a
202.2155	0.09	404431	keystroke_e	e	n/a
202.8605	0.075	405721	keystroke_Key.space	Key.space	n/a
203.491	0.09	406982	keystroke_s	s	n/a
203.566	0.09	407132	keystroke_o	o	n/a
203.8815	0.059	407763	keystroke_p	p	n/a
204.1515	0.119	408303	keystroke_h	h	n/a
204.2855	0.105	408571	keystroke_i	i	n/a
204.4505	0.105	408901	keystroke_s	s	n/a
204.7505	0.076	409501	keystroke_t	t	n/a
204.9015	0.09	409803	keystroke_i	i	n/a
205.0515	0.15	410103	keystroke_c	c	n/a
205.1565	0.105	410313	keystroke_a	a	n/a
205.3665	0.075	410733	keystroke_t	t	n/a
205.5165	0.075	411033	keystroke_e	e	n/a
205.5765	0.105	411153	keystroke_d	d	n/a
206.3105	0.076	412621	keystroke_Key.enter	Key.enter	n/a
206.4005	7.337	412801	prompt	n/a	audi comparing arthur an\n
207.1355	0.09	414271	keystroke_a	a	n/a
207.2405	0.105	414481	keystroke_u	u	n/a
207.3605	0.091	414721	keystroke_d	d	n/a
207.511	0.0755	415022	keystroke_i	i	n/a
207.6915	0.1045	415383	keystroke_Key.space	Key.space	n/a
208.0665	0.12	416133	keystroke_c	c	n/a
208.6215	0.12	417243	keystroke_o	o	n/a
208.6965	0.12	417393	keystroke_m	m	n/a
208.9065	0.09	417813	keystroke_p	p	n/a
209.0415	0.12	418083	keystroke_a	a	n/a
209.2365	0.105	418473	keystroke_r	r	n/a
209.3565	0.12	418713	keystroke_i	i	n/a
209.4315	0.09	418863	keystroke_n	n	n/a
209.4915	0.09	418983	keystroke_g	g	n/a
209.6265	0.105	419253	keystroke_Key.space	Key.space	n/a
209.971	0.12	419942	keystroke_a	a	n/a
211.0815	0.074	422163	keystroke_r	r	n/a
211.3355	0.075	422671	keystroke_t	t	n/a
211.5005	0.075	423001	keystroke_h	h	n/a
211.726	0.06	423452	keystroke_u	u	n/a
211.9055	0.105	423811	keystroke_r	r	n/a
212.2655	0.105	424531	keystroke_Key.space	Key.space	n/a
212.4455	0.09	424891	keystroke_a	a	n/a
212.5505	0.06	425101	keystroke_n	n	n/a
213.7055	0.03	427411	keystroke_Key.enter	Key.enter	n/a
213.7395	8.585	427479	prompt	n/a	supplements merry spectrum weblogs\n
214.321	0.12	428642	keystroke_s	s	n/a
215.0405	0.075	430081	keystroke_u	u	n/a
215.2655	0.045	430531	keystroke_p	p	n/a
215.4005	0.151	430801	keystroke_p	p	n/a
215.5065	0.1045	431013	keystroke_l	l	n/a
215.656	0.09	431312	keystroke_e	e	n/a
215.866	0.09	431732	keystroke_m	m	n/a
215.971	0.12	431942	keystroke_e	e	n/a
216.076	0.105	432152	keystroke_n	n	n/a
216.166	0.09	432332	keystroke_t	t	n/a
216.421	0.105	432842	keystroke_s	s	n/a
216.571	0.105	433142	keystroke_Key.space	Key.space	n/a
216.9765	0.134	433953	keystroke_m	m	n/a
217.0955	0.09	434191	keystroke_e	e	n/a
217.2155	0.075	434431	keystroke_r	r	n/a
217.3655	0.106	434731	keystroke_r	r	n/a
217.4855	0.121	434971	keystroke_y	y	n/a
217.6505	0.12	435301	keystroke_Key.space	Key.space	n/a
217.8155	0.075	435631	keystroke_s	s	n/a
217.9505	0.105	435901	keystroke_p	p	n/a
218.0705	0.075	436141	keystroke_e	e	n/a
218.2505	0.09	436501	keystroke_c	c	n/a
218.476	0.075	436952	keystroke_t	t	n/a
218.641	0.105	437282	keystroke_r	r	n/a
218.776	0.105	437552	keystroke_u	u	n/a
219.001	0.135	438002	keystroke_m	m	n/a
219.151	0.075	438302	keystroke_Key.space	Key.space	n/a
220.0215	0.09	440043	keystroke_w	w	n/a
220.4105	0.106	440821	keystroke_e	e	n/a
220.7255	0.091	441451	keystroke_b	b	n/a
221.266	0.06	442532	keystroke_l	l	n/a
221.416	0.105	442832	keystroke_o	o	n/a
221.611	0.075	443222	keystroke_g	g	n/a
221.821	0.1055	443642	keystroke_s	s	n/a
222.2115	0.105	444423	keystroke_Key.enter	Key.enter	n/a
222.3285	8.442	444657	prompt	n/a	demo assessed alaska frequency\n
223.036	0.105	446072	keystroke_d	d	n/a
223.096	0.105	446192	keystroke_e	e	n/a
223.261	0.12	446522	keystroke_m	m	n/a
223.426	0.075	446852	keystroke_o	o	n/a
223.576	0.12	447152	keystroke_Key.space	Key.space	n/a
223.9055	0.12	447811	keystroke_a	a	n/a
224.0105	0.061	448021	keystroke_s	s	n/a
224.1615	0.105	448323	keystroke_s	s	n/a
224.3255	0.105	448651	keystroke_e	e	n/a
224.5365	0.09	449073	keystroke_s	s	n/a
224.6555	0.09	449311	keystroke_s	s	n/a
224.8505	0.105	449701	keystroke_e	e	n/a
224.9115	0.119	449823	keystroke_d	d	n/a
225.0455	0.09	450091	keystroke_Key.space	Key.space	n/a
225.1505	0.12	450301	keystroke_a	a	n/a
225.3605	0.075	450721	keystroke_l	l	n/a
225.9005	0.12	451801	keystroke_a	a	n/a
226.1105	0.09	452221	keystroke_s	s	n/a
226.681	0.075	453362	keystroke_k	k	n/a
226.861	0.09	453722	keystroke_a	a	n/a
227.011	0.105	454022	keystroke_Key.space	Key.space	n/a
227.566	0.105	455132	keystroke_f	f	n/a
227.971	0.15	455942	keystroke_r	r	n/a
228.106	0.09	456212	keystroke_e	e	n/a
228.661	0.09	457322	keystroke_q	q	n/a
228.8705	0.075	457741	keystroke_u	u	n/a
229.0215	0.089	458043	keystroke_e	e	n/a
229.2005	0.0755	458401	keystroke_n	n	n/a
229.3665	0.104	458733	keystroke_c	c	n/a
229.6065	0.059	459213	keystroke_y	y	n/a
230.6855	0.075	461371	keystroke_Key.enter	Key.enter	n/a
230.7745	8.8	461549	prompt	n/a	retrieved benchmark down burning\n
231.451	0.135	462902	keystroke_r	r	n/a
231.556	0.09	463112	keystroke_e	e	n/a
231.721	0.09	463442	keystroke_t	t	n/a
232.111	0.075	464222	keystroke_r	r	n/a
232.3055	0.0755	464611	keystroke_i	i	n/a
232.516	0.0895	465032	keystroke_e	e	n/a
232.696	0.1195	465392	keystroke_v	v	n/a
232.831	0.12	465662	keystroke_e	e	n/a
233.1155	0.135	466231	keystroke_d	d	n/a
233.2965	0.09	466593	keystroke_Key.space	Key.space	n/a
233.8955	0.09	467791	keystroke_b	b	n/a
234.0305	0.076	468061	keystroke_e	e	n/a
234.1665	0.089	468333	keystroke_n	n	n/a
234.4355	0.105	468871	keystroke_c	c	n/a
234.5855	0.09	469171	keystroke_h	h	n/a
234.8405	0.12	469681	keystroke_m	m	n/a
234.9455	0.135	469891	keystroke_a	a	n/a
235.1405	0.09	470281	keystroke_r	r	n/a
235.3505	0.09	470701	keystroke_k	k	n/a
235.5155	0.105	471031	keystroke_Key.space	Key.space	n/a
235.7555	0.09	471511	keystroke_d	d	n/a
235.9065	0.09	471813	keystroke_o	o	n/a
235.9815	0.105	471963	keystroke_w	w	n/a
236.1165	0.105	472233	keystroke_n	n	n/a
236.3265	0.075	472653	keystroke_Key.space	Key.space	n/a
236.8515	0.12	473703	keystroke_b	b	n/a
237.0915	0.075	474183	keystroke_r	r	n/a
237.1815	0.075	474363	keystroke_u	u	n/a
237.5105	0.045	475021	keystroke_Key.backspace	Key.backspace	n/a
237.6165	0.06	475233	keystroke_Key.backspace	Key.backspace	n/a
237.8255	0.061	475651	keystroke_u	u	n/a
237.9315	0.075	475863	keystroke_r	r	n/a
238.0365	0.105	476073	keystroke_i	i	n/a
238.1115	0.09	476223	keystroke_n	n	n/a
238.2165	0.075	476433	keystroke_g	g	n/a
239.4905	0.075	478981	keystroke_Key.enter	Key.enter	n/a
239.5785	22.6925	479157	prompt	n/a	costumes organisation perry buffalo\n
242.358	0.0285	484716	keystroke_c	c	n/a
242.3865	0.0895	484773	keystroke_o	o	n/a
242.521	0.105	485042	keystroke_s	s	n/a
242.941	0.075	485882	keystroke_t	t	n/a
243.046	0.09	486092	keystroke_u	u	n/a
243.241	0.12	486482	keystroke_m	m	n/a
243.316	0.105	486632	keystroke_e	e	n/a
243.556	0.075	487112	keystroke_s	s	n/a
244.0055	0.1055	488011	keystroke_Key.space	Key.space	n/a
244.2305	0.1205	488461	keystroke_o	o	n/a
245.116	0.06	490232	keystroke_g	g	n/a
245.296	0.09	490592	keystroke_a	a	n/a
245.401	0.105	490802	keystroke_n	n	n/a
245.746	0.09	491492	keystroke_i	i	n/a
245.881	0.105	491762	keystroke_s	s	n/a
246.166	0.105	492332	keystroke_a	a	n/a
246.406	0.075	492812	keystroke_t	t	n/a
246.511	0.1655	493022	keystroke_i	i	n/a
246.5705	0.136	493141	keystroke_o	o	n/a
246.6615	0.119	493323	keystroke_n	n	n/a
247.141	0.105	494282	keystroke_Key.space	Key.space	n/a
248.1605	0.0605	496321	keystroke_Key.backspace	Key.backspace	n/a
248.326	0.075	496652	keystroke_Key.backspace	Key.backspace	n/a
248.476	0.06	496952	keystroke_Key.backspace	Key.backspace	n/a
248.6265	0.06	497253	keystroke_Key.backspace	Key.backspace	n/a
248.7915	0.045	497583	keystroke_Key.backspace	Key.backspace	n/a
249.211	0.06	498422	keystroke_Key.backspace	Key.backspace	n/a
249.391	0.075	498782	keystroke_Key.backspace	Key.backspace	n/a
249.556	0.09	499112	keystroke_Key.backspace	Key.backspace	n/a
250.801	0.09	501602	keystroke_Key.backspace	Key.backspace	n/a
250.936	0.045	501872	keystroke_Key.backspace	Key.backspace	n/a
251.086	0.075	502172	keystroke_Key.backspace	Key.backspace	n/a
251.206	0.105	502412	keystroke_r	r	n/a
251.686	0.075	503372	keystroke_g	g	n/a
251.821	0.135	503642	keystroke_a	a	n/a
251.941	0.12	503882	keystroke_n	n	n/a
252.136	0.105	504272	keystroke_i	i	n/a
252.226	0.12	504452	keystroke_s	s	n/a
252.8105	0.1055	505621	keystroke_a	a	n/a
253.0505	0.0755	506101	keystroke_t	t	n/a
253.171	0.21	506342	keystroke_i	i	n/a
253.276	0.1195	506552	keystroke_o	o	n/a
253.3655	0.135	506731	keystroke_n	n	n/a
253.891	0.09	507782	keystroke_Key.space	Key.space	n/a
258.468	0.043	516936	keystroke_p	p	n/a
258.6015	0.0745	517203	keystroke_e	e	n/a
258.7815	0.06	517563	keystroke_r	r	n/a
258.9015	0.0895	517803	keystroke_r	r	n/a
259.006	0.105	518012	keystroke_y	y	n/a
259.066	0.12	518132	keystroke_Key.space	Key.space	n/a
259.9065	0.149	519813	keystroke_b	b	n/a
260.0415	0.09	520083	keystroke_u	u	n/a
260.656	0.0905	521312	keystroke_f	f	n/a
260.8065	0.105	521613	keystroke_f	f	n/a
261.631	0.105	523262	keystroke_a	a	n/a
261.736	0.06	523472	keystroke_l	l	n/a
261.9015	0.074	523803	keystroke_o	o	n/a
262.1565	0.104	524313	keystroke_Key.enter	Key.enter	n/a
262.275	5.6275	524550	prompt	n/a	unto story sleeps pending\n
263.1765	0.165	526353	keystroke_i	i	n/a
263.2815	0.134	526563	keystroke_n	n	n/a
263.4305	0.105	526861	keystroke_t	t	n/a
263.5215	0.15	527043	keystroke_o	o	n/a
263.6405	0.12	527281	keystroke_Key.space	Key.space	n/a
264.181	0.1195	528362	keystroke_s	s	n/a
264.4215	0.075	528843	keystroke_t	t	n/a
264.5715	0.03	529143	keystroke_o	o	n/a
264.6465	0.09	529293	keystroke_r	r	n/a
264.8265	0.075	529653	keystroke_y	y	n/a
265.2015	0.075	530403	keystroke_Key.space	Key.space	n/a
265.396	0.1055	530792	keystroke_s	s	n/a
265.5165	0.075	531033	keystroke_l	l	n/a
265.6215	0.075	531243	keystroke_e	e	n/a
265.7715	0.075	531543	keystroke_e	e	n/a
265.8915	0.09	531783	keystroke_p	p	n/a
266.2215	0.105	532443	keystroke_s	s	n/a
266.3415	0.105	532683	keystroke_Key.space	Key.space	n/a
266.6265	0.09	533253	keystroke_p	p	n/a
266.7315	0.105	533463	keystroke_e	e	n/a
266.8515	0.12	533703	keystroke_n	n	n/a
266.9565	0.09	533913	keystroke_d	d	n/a
267.2715	0.105	534543	keystroke_i	i	n/a
267.3465	0.1045	534693	keystroke_n	n	n/a
267.436	0.105	534872	keystroke_g	g	n/a
267.811	0.09	535622	keystroke_Key.enter	Key.enter	n/a
267.9065	9.7985	535813	prompt	n/a	appliance newer holly ride\n
268.546	0.12	537092	keystroke_a	a	n/a
268.651	0.06	537302	keystroke_p	p	n/a
268.816	0.135	537632	keystroke_p	p	n/a
268.861	0.105	537722	keystroke_l	l	n/a
269.086	0.075	538172	keystroke_i	i	n/a
269.5665	0.105	539133	keystroke_a	a	n/a
269.7015	0.09	539403	keystroke_n	n	n/a
269.9415	0.15	539883	keystroke_c	c	n/a
270.0315	0.12	540063	keystroke_e	e	n/a
270.1805	0.106	540361	keystroke_Key.space	Key.space	n/a
270.5415	0.06	541083	keystroke_n	n	n/a
270.8265	0.165	541653	keystroke_e	e	n/a
271.0505	0.151	542101	keystroke_w	w	n/a
271.1715	0.165	542343	keystroke_r	r	n/a
271.2915	0.135	542583	keystroke_e	e	n/a
271.4705	0.12	542941	keystroke_Key.space	Key.space	n/a
272.2355	0.06	544471	keystroke_Key.backspace	Key.backspace	n/a
272.3705	0.09	544741	keystroke_Key.backspace	Key.backspace	n/a
272.5205	0.076	545041	keystroke_Key.backspace	Key.backspace	n/a
272.6715	0.12	545343	keystroke_e	e	n/a
272.7465	0.089	545493	keystroke_r	r	n/a
272.9555	0.105	545911	keystroke_Key.space	Key.space	n/a
273.1065	0.15	546213	keystroke_h	h	n/a
273.2265	0.09	546453	keystroke_o	o	n/a
273.4365	0.075	546873	keystroke_l	l	n/a
273.5715	0.06	547143	keystroke_l	l	n/a
273.7515	0.1345	547503	keystroke_y	y	n/a
273.8565	0.1195	547713	keystroke_Key.space	Key.space	n/a
274.111	0.09	548222	keystroke_r	r	n/a
274.231	0.0745	548462	keystroke_i	i	n/a
274.3505	0.105	548701	keystroke_f	f	n/a
274.8005	0.06	549601	keystroke_Key.backspace	Key.backspace	n/a
274.8755	0.105	549751	keystroke_g	g	n/a
275.4005	0.06	550801	keystroke_Key.backspace	Key.backspace	n/a
275.4455	0.06	550891	keystroke_f	f	n/a
276.6005	0.06	553201	keystroke_Key.backspace	Key.backspace	n/a
276.9315	0.089	553863	keystroke_d	d	n/a
277.2455	0.075	554491	keystroke_e	e	n/a
277.6655	0.03	555331	keystroke_Key.enter	Key.enter	n/a
277.709	7.0755	555418	prompt	n/a	postal estates confirmation trial\n
278.7615	0.075	557523	keystroke_p	p	n/a
278.8065	0.15	557613	keystroke_o	o	n/a
278.9415	0.105	557883	keystroke_s	s	n/a
279.2115	0.06	558423	keystroke_t	t	n/a
279.3165	0.075	558633	keystroke_a	a	n/a
279.4515	0.135	558903	keystroke_l	l	n/a
279.5565	0.12	559113	keystroke_Key.space	Key.space	n/a
279.871	0.06	559742	keystroke_e	e	n/a
280.036	0.1045	560072	keystroke_s	s	n/a
280.3055	0.09	560611	keystroke_t	t	n/a
280.4705	0.12	560941	keystroke_a	a	n/a
280.6805	0.105	561361	keystroke_t	t	n/a
280.7705	0.105	561541	keystroke_e	e	n/a
280.9955	0.09	561991	keystroke_s	s	n/a
281.1155	0.06	562231	keystroke_Key.space	Key.space	n/a
281.3255	0.09	562651	keystroke_c	c	n/a
281.4005	0.105	562801	keystroke_o	o	n/a
281.4605	0.12	562921	keystroke_n	n	n/a
281.986	0.075	563972	keystroke_f	f	n/a
282.091	0.075	564182	keystroke_i	i	n/a
282.166	0.06	564332	keystroke_r	r	n/a
282.301	0.075	564602	keystroke_m	m	n/a
282.346	0.09	564692	keystroke_a	a	n/a
282.6005	0.03	565201	keystroke_t	t	n/a
282.616	0.195	565232	keystroke_i	i	n/a
282.661	0.165	565322	keystroke_o	o	n/a
282.751	0.136	565502	keystroke_n	n	n/a
282.856	0.105	565712	keystroke_Key.space	Key.space	n/a
283.306	0.06	566612	keystroke_t	t	n/a
283.546	0.015	567092	keystroke_r	r	n/a
283.591	0.075	567182	keystroke_i	i	n/a
283.636	0.09	567272	keystroke_a	a	n/a
283.786	0.12	567572	keystroke_l	l	n/a
284.686	0.09	569372	keystroke_Key.enter	Key.enter	n/a
284.789	13.872	569578	prompt	n/a	beginners robertson amendments barn\n
285.4355	0.061	570871	keystroke_b	b	n/a
285.5405	0.09	571081	keystroke_e	e	n/a
285.7505	0.075	571501	keystroke_g	g	n/a
285.8405	0.105	571681	keystroke_i	i	n/a
285.9305	0.045	571861	keystroke_n	n	n/a
286.0515	0.089	572103	keystroke_n	n	n/a
286.2005	0.12	572401	keystroke_e	e	n/a
286.2905	0.105	572581	keystroke_r	r	n/a
286.5465	0.104	573093	keystroke_s	s	n/a
286.8915	0.09	573783	keystroke_Key.space	Key.space	n/a
287.5665	0.075	575133	keystroke_r	r	n/a
287.8065	0.135	575613	keystroke_o	o	n/a
288.0015	0.075	576003	keystroke_b	b	n/a
288.4365	0.15	576873	keystroke_e	e	n/a
288.5415	0.09	577083	keystroke_r	r	n/a
288.7365	0.075	577473	keystroke_t	t	n/a
289.0665	0.09	578133	keystroke_s	s	n/a
289.1415	0.12	578283	keystroke_o	o	n/a
289.1865	0.1645	578373	keystroke_n	n	n/a
289.411	0.075	578822	keystroke_Key.space	Key.space	n/a
290.761	0.12	581522	keystroke_a	a	n/a
291.0615	0.09	582123	keystroke_m	m	n/a
291.3765	0.105	582753	keystroke_e	e	n/a
291.6015	0.105	583203	keystroke_n	n	n/a
291.7215	0.09	583443	keystroke_d	d	n/a
292.636	0.09	585272	keystroke_m	m	n/a
292.741	0.075	585482	keystroke_e	e	n/a
292.846	0.105	585692	keystroke_n	n	n/a
292.952	0.074	585904	keystroke_t	t	n/a
293.146	0.015	586292	keystroke_w	w	n/a
293.191	0.06	586382	keystroke_s	s	n/a
293.281	0.075	586562	keystroke_Key.space	Key.space	n/a
293.476	0.09	586952	keystroke_b	b	n/a
293.611	0.15	587222	keystroke_a	a	n/a
294.7955	0.046	589591	keystroke_Key.backspace	Key.backspace	n/a
294.9605	0.0605	589921	keystroke_Key.backspace	Key.backspace	n/a
295.171	0.06	590342	keystroke_Key.backspace	Key.backspace	n/a
295.411	0.06	590822	keystroke_Key.backspace	Key.backspace	n/a
295.651	0.06	591302	keystroke_Key.backspace	Key.backspace	n/a
295.8915	0.075	591783	keystroke_s	s	n/a
296.8365	0.045	593673	keystroke_Key.space	Key.space	n/a
297.511	0.045	595022	keystroke_b	b	n/a
297.571	0.075	595142	keystroke_a	a	n/a
297.721	0.09	595442	keystroke_r	r	n/a
297.841	0.105	595682	keystroke_n	n	n/a
298.6055	0.045	597211	keystroke_Key.enter	Key.enter	n/a
298.6655	6.887	597331	prompt	n/a	icons relief pmid funded\n
299.5365	0.075	599073	keystroke_i	i	n/a
299.6865	0.12	599373	keystroke_c	c	n/a
299.7915	0.135	599583	keystroke_o	o	n/a
299.8815	0.135	599763	keystroke_n	n	n/a
300.0465	0.1345	600093	keystroke_s	s	n/a
300.211	0.075	600422	keystroke_Key.space	Key.space	n/a
300.556	0.165	601112	keystroke_r	r	n/a
300.661	0.105	601322	keystroke_e	e	n/a
300.796	0.135	601592	keystroke_l	l	n/a
300.886	0.105	601772	keystroke_i	i	n/a
301.111	0.12	602222	keystroke_e	e	n/a
301.861	0.075	603722	keystroke_f	f	n/a
301.966	0.135	603932	keystroke_Key.space	Key.space	n/a
302.581	0.09	605162	keystroke_p	p	n/a
302.776	0.105	605552	keystroke_m	m	n/a
303.001	0.075	606002	keystroke_i	i	n/a
303.091	0.12	606182	keystroke_d	d	n/a
303.496	0.105	606992	keystroke_Key.space	Key.space	n/a
304.3365	0.075	608673	keystroke_f	f	n/a
304.4115	0.135	608823	keystroke_u	u	n/a
304.5165	0.12	609033	keystroke_n	n	n/a
304.6515	0.135	609303	keystroke_d	d	n/a
304.7715	0.105	609543	keystroke_e	e	n/a
304.8465	0.12	609693	keystroke_d	d	n/a
305.4765	0.075	610953	keystroke_Key.enter	Key.enter	n/a
305.5575	12.798	611115	prompt	n/a	toolkit xanax reprints burden\n
306.5565	0.045	613113	keystroke_t	t	n/a
306.6165	0.059	613233	keystroke_o	o	n/a
306.7815	0.105	613563	keystroke_o	o	n/a
306.9165	0.015	613833	keystroke_o	o	n/a
307.0665	0.105	614133	keystroke_l	l	n/a
307.981	0.045	615962	keystroke_Key.backspace	Key.backspace	n/a
308.101	0.09	616202	keystroke_Key.backspace	Key.backspace	n/a
308.416	0.09	616832	keystroke_l	l	n/a
308.791	0.09	617582	keystroke_k	k	n/a
309.001	0.09	618002	keystroke_i	i	n/a
309.136	0.105	618272	keystroke_d	d	n/a
309.826	0.09	619652	keystroke_Key.backspace	Key.backspace	n/a
309.976	0.09	619952	keystroke_t	t	n/a
310.231	0.12	620462	keystroke_Key.space	Key.space	n/a
311.281	0.12	622562	keystroke_x	x	n/a
311.341	0.135	622682	keystroke_a	a	n/a
311.491	0.09	622982	keystroke_n	n	n/a
311.626	0.105	623252	keystroke_a	a	n/a
311.926	0.105	623852	keystroke_x	x	n/a
313.756	0.1205	627512	keystroke_Key.space	Key.space	n/a
314.2065	0.165	628413	keystroke_r	r	n/a
314.3415	0.105	628683	keystroke_e	e	n/a
314.7315	0.09	629463	keystroke_p	p	n/a
314.8215	0.135	629643	keystroke_r	r	n/a
314.9265	0.075	629853	keystroke_e	e	n/a
315.5565	0.15	631113	keystroke_Key.backspace	Key.backspace	n/a
315.7215	0.09	631443	keystroke_i	i	n/a
315.931	0.135	631862	keystroke_n	n	n/a
316.111	0.09	632222	keystroke_t	t	n/a
316.426	0.12	632852	keystroke_s	s	n/a
316.666	0.09	633332	keystroke_Key.space	Key.space	n/a
316.951	0.09	633902	keystroke_b	b	n/a
317.146	0.075	634292	keystroke_u	u	n/a
317.251	0.105	634502	keystroke_r	r	n/a
317.596	0.105	635192	keystroke_d	d	n/a
317.791	0.0605	635582	keystroke_e	e	n/a
317.8665	0.09	635733	keystroke_n	n	n/a
318.2715	0.075	636543	keystroke_Key.enter	Key.enter	n/a
318.3605	10.6605	636721	prompt	n/a	pillow designs translation respond\n
319.0065	0.09	638013	keystroke_p	p	n/a
319.2165	0.0745	638433	keystroke_o	o	n/a
319.4115	0.06	638823	keystroke_l	l	n/a
319.5615	0.045	639123	keystroke_l	l	n/a
319.9665	0.045	639933	keystroke_Key.backspace	Key.backspace	n/a
320.0865	0.075	640173	keystroke_Key.backspace	Key.backspace	n/a
320.4765	0.045	640953	keystroke_Key.backspace	Key.backspace	n/a
320.821	0.06	641642	keystroke_i	i	n/a
321.151	0.075	642302	keystroke_l	l	n/a
321.301	0.075	642602	keystroke_l	l	n/a
321.4665	0.075	642933	keystroke_o	o	n/a
321.6015	0.09	643203	keystroke_w	w	n/a
321.7215	0.105	643443	keystroke_Key.space	Key.space	n/a
321.9615	0.105	643923	keystroke_d	d	n/a
322.0365	0.075	644073	keystroke_e	e	n/a
322.3065	0.075	644613	keystroke_s	s	n/a
322.4865	0.09	644973	keystroke_i	i	n/a
323.1315	0.075	646263	keystroke_g	g	n/a
323.2515	0.09	646503	keystroke_n	n	n/a
323.386	0.0755	646772	keystroke_s	s	n/a
323.6565	0.105	647313	keystroke_Key.space	Key.space	n/a
323.9865	0.105	647973	keystroke_t	t	n/a
324.1965	0.06	648393	keystroke_r	r	n/a
324.3915	0.09	648783	keystroke_a	a	n/a
324.4965	0.135	648993	keystroke_n	n	n/a
324.6165	0.075	649233	keystroke_s	s	n/a
324.8715	0.105	649743	keystroke_l	l	n/a
324.9915	0.105	649983	keystroke_a	a	n/a
325.2315	0.075	650463	keystroke_t	t	n/a
325.3215	0.195	650643	keystroke_i	i	n/a
325.4265	0.165	650853	keystroke_o	o	n/a
325.5305	0.121	651061	keystroke_n	n	n/a
325.7855	0.1055	651571	keystroke_Key.space	Key.space	n/a
326.1615	0.0445	652323	keystroke_p	p	n/a
326.4755	0.0605	652951	keystroke_Key.backspace	Key.backspace	n/a
326.566	0.1205	653132	keystroke_r	r	n/a
326.6265	0.12	653253	keystroke_e	e	n/a
326.9265	0.09	653853	keystroke_s	s	n/a
327.0315	0.075	654063	keystroke_p	p	n/a
327.2265	0.12	654453	keystroke_o	o	n/a
327.3165	0.12	654633	keystroke_n	n	n/a
327.4965	0.09	654993	keystroke_d	d	n/a
327.7215	0.075	655443	keystroke_s	s	n/a
328.681	0.105	657362	keystroke_Key.backspace	Key.backspace	n/a
328.921	0.09	657842	keystroke_Key.enter	Key.enter	n/a
329.026	8.155	658052	prompt	n/a	specialties charlie level marsh\n
329.5665	0.09	659133	keystroke_s	s	n/a
329.7165	0.105	659433	keystroke_p	p	n/a
329.8365	0.0895	659673	keystroke_e	e	n/a
330.031	0.09	660062	keystroke_c	c	n/a
330.106	0.105	660212	keystroke_i	i	n/a
330.241	0.105	660482	keystroke_a	a	n/a
330.406	0.105	660812	keystroke_l	l	n/a
332.431	0.09	664862	keystroke_t	t	n/a
332.566	0.06	665132	keystroke_i	i	n/a
332.671	0.075	665342	keystroke_e	e	n/a
332.836	0.12	665672	keystroke_s	s	n/a
332.971	0.105	665942	keystroke_Key.space	Key.space	n/a
333.301	0.12	666602	keystroke_c	c	n/a
333.406	0.09	666812	keystroke_h	h	n/a
333.481	0.135	666962	keystroke_a	a	n/a
333.646	0.12	667292	keystroke_r	r	n/a
333.781	0.12	667562	keystroke_l	l	n/a
333.841	0.12	667682	keystroke_i	i	n/a
333.931	0.105	667862	keystroke_e	e	n/a
334.066	0.105	668132	keystroke_Key.space	Key.space	n/a
334.276	0.09	668552	keystroke_l	l	n/a
334.336	0.075	668672	keystroke_e	e	n/a
334.486	0.135	668972	keystroke_v	v	n/a
334.606	0.09	669212	keystroke_e	e	n/a
334.726	0.135	669452	keystroke_l	l	n/a
335.011	0.12	670022	keystroke_Key.space	Key.space	n/a
335.521	0.12	671042	keystroke_m	m	n/a
335.656	0.135	671312	keystroke_a	a	n/a
335.776	0.105	671552	keystroke_r	r	n/a
336.031	0.105	672062	keystroke_c	c	n/a
336.5415	0.09	673083	keystroke_Key.backspace	Key.backspace	n/a
336.6465	0.075	673293	keystroke_s	s	n/a
336.7515	0.12	673503	keystroke_h	h	n/a
337.096	0.075	674192	keystroke_Key.enter	Key.enter	n/a
337.1855	7.1725	674371	prompt	n/a	oval homeless supreme processor\n
337.801	0.075	675602	keystroke_o	o	n/a
337.936	0.135	675872	keystroke_v	v	n/a
338.086	0.09	676172	keystroke_a	a	n/a
338.131	0.135	676262	keystroke_l	l	n/a
338.236	0.106	676472	keystroke_Key.space	Key.space	n/a
338.432	0.09	676864	keystroke_o	o	n/a
338.761	0.06	677522	keystroke_Key.backspace	Key.backspace	n/a
338.941	0.106	677882	keystroke_h	h	n/a
339.032	0.179	678064	keystroke_o	o	n/a
339.151	0.12	678302	keystroke_m	m	n/a
339.286	0.09	678572	keystroke_e	e	n/a
339.391	0.075	678782	keystroke_l	l	n/a
339.526	0.075	679052	keystroke_e	e	n/a
339.706	0.075	679412	keystroke_s	s	n/a
339.841	0.075	679682	keystroke_s	s	n/a
339.901	0.105	679802	keystroke_Key.space	Key.space	n/a
340.051	0.075	680102	keystroke_s	s	n/a
340.111	0.105	680222	keystroke_u	u	n/a
340.8615	0.045	681723	keystroke_p	p	n/a
340.9815	0.12	681963	keystroke_r	r	n/a
341.0865	0.105	682173	keystroke_e	e	n/a
341.2515	0.105	682503	keystroke_m	m	n/a
341.3415	0.09	682683	keystroke_e	e	n/a
341.9715	0.09	683943	keystroke_Key.space	Key.space	n/a
342.2115	0.075	684423	keystroke_p	p	n/a
342.3465	0.09	684693	keystroke_r	r	n/a
342.481	0.075	684962	keystroke_o	o	n/a
342.661	0.18	685322	keystroke_c	c	n/a
342.781	0.09	685562	keystroke_e	e	n/a
343.0065	0.045	686013	keystroke_s	s	n/a
343.1265	0.09	686253	keystroke_s	s	n/a
343.2315	0.075	686463	keystroke_o	o	n/a
343.6665	0.105	687333	keystroke_r	r	n/a
344.2665	0.09	688533	keystroke_Key.enter	Key.enter	n/a
344.362	11.6305	688724	prompt	n/a	sitemap geographical bailey profit\n
344.941	0.105	689882	keystroke_s	s	n/a
345.151	0.09	690302	keystroke_i	i	n/a
345.271	0.135	690542	keystroke_t	t	n/a
345.376	0.12	690752	keystroke_e	e	n/a
345.632	0.089	691264	keystroke_m	m	n/a
345.766	0.105	691532	keystroke_a	a	n/a
345.887	0.09	691774	keystroke_p	p	n/a
346.141	0.075	692282	keystroke_Key.space	Key.space	n/a
346.787	0.0745	693574	keystroke_g	g	n/a
346.9215	0.105	693843	keystroke_e	e	n/a
347.0565	0.104	694113	keystroke_o	o	n/a
348.0915	0.105	696183	keystroke_f	f	n/a
348.3165	0.12	696633	keystroke_r	r	n/a
348.7215	0.045	697443	keystroke_Key.backspace	Key.backspace	n/a
348.8565	0.0595	697713	keystroke_Key.backspace	Key.backspace	n/a
349.037	0.045	698074	keystroke_g	g	n/a
349.2015	0.0745	698403	keystroke_r	r	n/a
349.351	0.09	698702	keystroke_a	a	n/a
349.501	0.09	699002	keystroke_p	p	n/a
349.696	0.09	699392	keystroke_h	h	n/a
349.861	0.09	699722	keystroke_i	i	n/a
349.966	0.12	699932	keystroke_c	c	n/a
350.041	0.09	700082	keystroke_a	a	n/a
350.146	0.15	700292	keystroke_l	l	n/a
350.251	0.105	700502	keystroke_Key.space	Key.space	n/a
350.7615	0.045	701523	keystroke_p	p	n/a
351.061	0.06	702122	keystroke_Key.backspace	Key.backspace	n/a
351.271	0.1055	702542	keystroke_b	b	n/a
351.3915	0.105	702783	keystroke_a	a	n/a
351.5115	0.075	703023	keystroke_i	i	n/a
352.5165	0.105	705033	keystroke_l	l	n/a
352.6815	0.075	705363	keystroke_e	e	n/a
352.8915	0.075	705783	keystroke_y	y	n/a
353.0415	0.09	706083	keystroke_Key.space	Key.space	n/a
353.6565	0.09	707313	keystroke_p	p	n/a
353.7765	0.075	707553	keystroke_r	r	n/a
353.8965	0.075	707793	keystroke_o	o	n/a
354.1365	0.045	708273	keystroke_g	g	n/a
354.3015	0.06	708603	keystroke_i	i	n/a
354.5715	0.045	709143	keystroke_Key.backspace	Key.backspace	n/a
354.9315	0.075	709863	keystroke_Key.backspace	Key.backspace	n/a
355.0665	0.09	710133	keystroke_f	f	n/a
355.1715	0.075	710343	keystroke_i	i	n/a
355.2915	0.0895	710583	keystroke_t	t	n/a
355.921	0.06	711842	keystroke_Key.enter	Key.enter	n/a
355.998	13.1195	711996	prompt	n/a	sponsorship polar separately telling\n
356.597	0.089	713194	keystroke_s	s	n/a
357.122	0.074	714244	keystroke_p	p	n/a
357.346	0.09	714692	keystroke_h	h	n/a
357.421	0.165	714842	keystroke_o	o	n/a
357.541	0.136	715082	keystroke_n	n	n/a
357.661	0.121	715322	keystroke_s	s	n/a
357.766	0.105	715532	keystroke_o	o	n/a
357.901	0.105	715802	keystroke_r	r	n/a
358.261	0.135	716522	keystroke_s	s	n/a
358.381	0.1505	716762	keystroke_h	h	n/a
358.4865	0.12	716973	keystroke_i	i	n/a
358.7415	0.0745	717483	keystroke_p	p	n/a
358.906	0.135	717812	keystroke_p	p	n/a
359.026	0.105	718052	keystroke_Key.space	Key.space	n/a
359.191	0.135	718382	keystroke_p	p	n/a
359.776	0.06	719552	keystroke_Key.backspace	Key.backspace	n/a
359.9105	0.061	719821	keystroke_Key.backspace	Key.backspace	n/a
360.0465	0.09	720093	keystroke_Key.backspace	Key.backspace	n/a
360.211	0.09	720422	keystroke_Key.space	Key.space	n/a
360.377	0.135	720754	keystroke_p	p	n/a
360.481	0.12	720962	keystroke_o	o	n/a
360.916	0.105	721832	keystroke_l	l	n/a
361.022	0.09	722044	keystroke_a	a	n/a
361.1715	0.12	722343	keystroke_r	r	n/a
361.6365	0.135	723273	keystroke_Key.space	Key.space	n/a
361.861	0.0905	723722	keystroke_s	s	n/a
362.2665	0.09	724533	keystroke_e	e	n/a
362.4165	0.09	724833	keystroke_p	p	n/a
362.7615	0.15	725523	keystroke_a	a	n/a
363.0765	0.12	726153	keystroke_r	r	n/a
363.3015	0.045	726603	keystroke_a	a	n/a
363.4665	0.12	726933	keystroke_t	t	n/a
363.5565	0.045	727113	keystroke_3	3	n/a
363.6465	0.075	727293	keystroke_e	e	n/a
364.2315	0.06	728463	keystroke_Key.backspace	Key.backspace	n/a
364.3665	0.09	728733	keystroke_Key.backspace	Key.backspace	n/a
364.4865	0.045	728973	keystroke_Key.backspace	Key.backspace	n/a
364.8015	0.105	729603	keystroke_e	e	n/a
365.2215	0.09	730443	keystroke_Key.backspace	Key.backspace	n/a
365.3415	0.105	730683	keystroke_t	t	n/a
365.4615	0.045	730923	keystroke_e	e	n/a
365.761	0.09	731522	keystroke_l	l	n/a
366.001	0.075	732002	keystroke_y	y	n/a
366.6315	0.105	733263	keystroke_Key.space	Key.space	n/a
366.8705	0.136	733741	keystroke_t	t	n/a
366.9765	0.09	733953	keystroke_e	e	n/a
367.0515	0.06	734103	keystroke_l	l	n/a
367.2315	0.09	734463	keystroke_l	l	n/a
367.3665	0.105	734733	keystroke_i	i	n/a
367.876	0.09	735752	keystroke_n	n	n/a
367.981	0.075	735962	keystroke_g	g	n/a
368.986	0.12	737972	keystroke_Key.enter	Key.enter	n/a
369.124	20.6795	738248	prompt	n/a	outlet can't therapy variations\n
372.633	0.0735	745266	keystroke_o	o	n/a
372.634	0.1025	745268	keystroke_u	u	n/a
372.6915	0.09	745383	keystroke_t	t	n/a
373.0215	0.075	746043	keystroke_e	e	n/a
373.3365	0.09	746673	keystroke_t	t	n/a
373.5915	0.135	747183	keystroke_Key.space	Key.space	n/a
374.6715	0.06	749343	keystroke_Key.backspace	Key.backspace	n/a
374.8215	0.06	749643	keystroke_Key.backspace	Key.backspace	n/a
374.9715	0.045	749943	keystroke_Key.backspace	Key.backspace	n/a
375.2115	0.075	750423	keystroke_l	l	n/a
375.3165	0.09	750633	keystroke_e	e	n/a
375.5415	0.1195	751083	keystroke_Key.space	Key.space	n/a
375.722	0.1345	751444	keystroke_c	c	n/a
375.797	0.134	751594	keystroke_a	a	n/a
375.932	0.09	751864	keystroke_n	n	n/a
376.232	0.09	752464	keystroke_'	'	n/a
376.367	0.105	752734	keystroke_t	t	n/a
376.517	0.089	753034	keystroke_Key.space	Key.space	n/a
377.056	0.105	754112	keystroke_t	t	n/a
377.176	0.076	754352	keystroke_h	h	n/a
377.267	0.075	754534	keystroke_e	e	n/a
377.537	0.119	755074	keystroke_r	r	n/a
377.641	0.12	755282	keystroke_a	a	n/a
378.2115	0.06	756423	keystroke_Key.backspace	Key.backspace	n/a
378.3465	0.075	756693	keystroke_Key.backspace	Key.backspace	n/a
378.4965	0.06	756993	keystroke_Key.backspace	Key.backspace	n/a
378.6465	0.045	757293	keystroke_Key.backspace	Key.backspace	n/a
378.7965	0.045	757593	keystroke_Key.backspace	Key.backspace	n/a
378.9465	0.045	757893	keystroke_Key.backspace	Key.backspace	n/a
379.1105	0.045	758221	keystroke_Key.backspace	Key.backspace	n/a
379.261	0.06	758522	keystroke_Key.backspace	Key.backspace	n/a
379.411	0.045	758822	keystroke_Key.backspace	Key.backspace	n/a
379.561	0.045	759122	keystroke_Key.backspace	Key.backspace	n/a
379.711	0.06	759422	keystroke_Key.backspace	Key.backspace	n/a
379.876	0.06	759752	keystroke_Key.backspace	Key.backspace	n/a
380.056	0.075	760112	keystroke_Key.backspace	Key.backspace	n/a
381.331	0.075	762662	keystroke_e	e	n/a
381.526	0.075	763052	keystroke_t	t	n/a
381.616	0.105	763232	keystroke_Key.space	Key.space	n/a
381.797	0.074	763594	keystroke_t	t	n/a
382.231	0.06	764462	keystroke_Key.backspace	Key.backspace	n/a
382.351	0.105	764702	keystroke_c	c	n/a
382.531	0.09	765062	keystroke_a	a	n/a
382.922	0.09	765844	keystroke_b	b	n/a
383.836	0.0755	767672	keystroke_Key.backspace	Key.backspace	n/a
384.1965	0.06	768393	keystroke_n	n	n/a
384.4665	0.075	768933	keystroke_'	'	n/a
384.8265	0.06	769653	keystroke_t	t	n/a
385.0065	0.09	770013	keystroke_Key.space	Key.space	n/a
385.726	0.075	771452	keystroke_t	t	n/a
385.891	0.121	771782	keystroke_h	h	n/a
386.056	0.09	772112	keystroke_e	e	n/a
386.416	0.106	772832	keystroke_r	r	n/a
386.536	0.076	773072	keystroke_a	a	n/a
386.657	0.075	773314	keystroke_p	p	n/a
386.912	0.12	773824	keystroke_y	y	n/a
387.047	0.09	774094	keystroke_Key.space	Key.space	n/a
388.142	0.105	776284	keystroke_v	v	n/a
388.276	0.151	776552	keystroke_a	a	n/a
388.411	0.09	776822	keystroke_r	r	n/a
388.561	0.106	777122	keystroke_i	i	n/a
388.712	0.09	777424	keystroke_a	a	n/a
388.922	0.06	777844	keystroke_t	t	n/a
389.057	0.225	778114	keystroke_i	i	n/a
389.162	0.134	778324	keystroke_o	o	n/a
389.237	0.105	778474	keystroke_n	n	n/a
389.372	0.044	778744	keystroke_s	s	n/a
389.7165	0.075	779433	keystroke_Key.enter	Key.enter	n/a
389.808	7.822	779616	prompt	n/a	library effects meets dealers\n
390.5415	0.135	781083	keystroke_l	l	n/a
390.6315	0.105	781263	keystroke_i	i	n/a
390.8565	0.105	781713	keystroke_b	b	n/a
391.0065	0.15	782013	keystroke_r	r	n/a
391.1415	0.15	782283	keystroke_a	a	n/a
391.2615	0.12	782523	keystroke_r	r	n/a
391.4565	0.1345	782913	keystroke_y	y	n/a
391.576	0.105	783152	keystroke_Key.space	Key.space	n/a
392.1915	0.09	784383	keystroke_e	e	n/a
392.4765	0.045	784953	keystroke_f	f	n/a
392.6115	0.105	785223	keystroke_f	f	n/a
392.7615	0.105	785523	keystroke_e	e	n/a
392.956	0.12	785912	keystroke_c	c	n/a
393.256	0.031	786512	keystroke_t	t	n/a
393.5115	0.105	787023	keystroke_s	s	n/a
393.6615	0.105	787323	keystroke_Key.space	Key.space	n/a
393.9315	0.015	787863	keystroke_m	m	n/a
393.9615	0.045	787923	keystroke_m	m	n/a
394.1415	0.075	788283	keystroke_e	e	n/a
394.5015	0.075	789003	keystroke_Key.backspace	Key.backspace	n/a
394.6515	0.06	789303	keystroke_Key.backspace	Key.backspace	n/a
394.8315	0.075	789663	keystroke_e	e	n/a
395.0115	0.12	790023	keystroke_e	e	n/a
395.1165	0.0745	790233	keystroke_t	t	n/a
395.401	0.09	790802	keystroke_s	s	n/a
395.536	0.12	791072	keystroke_Key.space	Key.space	n/a
395.926	0.135	791852	keystroke_d	d	n/a
395.971	0.21	791942	keystroke_e	e	n/a
396.136	0.15	792272	keystroke_a	a	n/a
396.316	0.09	792632	keystroke_l	l	n/a
396.481	0.12	792962	keystroke_e	e	n/a
396.556	0.09	793112	keystroke_r	r	n/a
396.811	0.105	793622	keystroke_s	s	n/a
397.546	0.075	795092	keystroke_Key.enter	Key.enter	n/a
397.6345	8.786	795269	prompt	n/a	christina myth builders hire\n
398.311	0.0905	796622	keystroke_c	c	n/a
398.4915	0.105	796983	keystroke_h	h	n/a
398.6415	0.105	797283	keystroke_r	r	n/a
398.7615	0.09	797523	keystroke_i	i	n/a
398.8965	0.12	797793	keystroke_s	s	n/a
399.1365	0.09	798273	keystroke_t	t	n/a
399.5715	0.15	799143	keystroke_i	i	n/a
399.6765	0.105	799353	keystroke_n	n	n/a
400.4715	0.105	800943	keystroke_a	a	n/a
400.6965	0.09	801393	keystroke_Key.space	Key.space	n/a
400.9815	0.075	801963	keystroke_m	m	n/a
401.237	0.06	802474	keystroke_y	y	n/a
401.492	0.105	802984	keystroke_t	t	n/a
401.642	0.149	803284	keystroke_h	h	n/a
401.747	0.119	803494	keystroke_Key.space	Key.space	n/a
402.001	0.121	804002	keystroke_b	b	n/a
402.167	0.105	804334	keystroke_u	u	n/a
402.346	0.09	804692	keystroke_i	i	n/a
402.541	0.106	805082	keystroke_l	l	n/a
402.661	0.12	805322	keystroke_d	d	n/a
402.826	0.15	805652	keystroke_e	e	n/a
402.916	0.12	805832	keystroke_r	r	n/a
403.156	0.1205	806312	keystroke_s	s	n/a
403.8015	0.09	807603	keystroke_Key.space	Key.space	n/a
404.0865	0.135	808173	keystroke_h	h	n/a
404.3415	0.045	808683	keystroke_i	i	n/a
404.4015	0.135	808803	keystroke_r	r	n/a
404.5515	0.12	809103	keystroke_e	e	n/a
406.3365	0.075	812673	keystroke_Key.enter	Key.enter	n/a
406.4265	10.299	812853	prompt	n/a	complexity enrollment over michelle\n
407.0265	0.09	814053	keystroke_c	c	n/a
407.1315	0.15	814263	keystroke_o	o	n/a
407.2515	0.09	814503	keystroke_m	m	n/a
407.3865	0.12	814773	keystroke_p	p	n/a
407.4765	0.105	814953	keystroke_l	l	n/a
407.6265	0.075	815253	keystroke_e	e	n/a
407.9715	0.105	815943	keystroke_x	x	n/a
408.4515	0.0445	816903	keystroke_i	i	n/a
408.601	0.06	817202	keystroke_t	t	n/a
409.5165	0.075	819033	keystroke_y	y	n/a
409.7265	0.075	819453	keystroke_Key.space	Key.space	n/a
410.6265	0.045	821253	keystroke_c	c	n/a
411.1665	0.015	822333	keystroke_Key.backspace	Key.backspace	n/a
411.1815	0.015	822363	keystroke_e	e	n/a
411.2265	0.1045	822453	keystroke_n	n	n/a
411.766	0.09	823532	keystroke_r	r	n/a
411.8865	0.09	823773	keystroke_o	o	n/a
412.0665	0.06	824133	keystroke_l	l	n/a
412.1865	0.09	824373	keystroke_l	l	n/a
412.3215	0.075	824643	keystroke_e	e	n/a
412.7265	0.045	825453	keystroke_Key.backspace	Key.backspace	n/a
412.9065	0.09	825813	keystroke_m	m	n/a
413.0265	0.075	826053	keystroke_e	e	n/a
413.2065	0.075	826413	keystroke_n	n	n/a
413.3415	0.09	826683	keystroke_t	t	n/a
413.7165	0.09	827433	keystroke_Key.space	Key.space	n/a
413.9115	0.105	827823	keystroke_o	o	n/a
414.0315	0.12	828063	keystroke_v	v	n/a
414.1365	0.165	828273	keystroke_e	e	n/a
414.2865	0.075	828573	keystroke_r	r	n/a
414.3765	0.09	828753	keystroke_Key.space	Key.space	n/a
415.261	0.09	830522	keystroke_m	m	n/a
415.381	0.075	830762	keystroke_i	i	n/a
415.501	0.121	831002	keystroke_c	c	n/a
415.637	0.075	831274	keystroke_h	h	n/a
415.7715	0.0755	831543	keystroke_e	e	n/a
415.9215	0.06	831843	keystroke_l	l	n/a
416.0565	0.075	832113	keystroke_l	l	n/a
416.1315	0.075	832263	keystroke_e	e	n/a
416.6265	0.09	833253	keystroke_Key.enter	Key.enter	n/a
416.7315	10.974	833463	prompt	n/a	pharmaceuticals define severe lighter\n
417.286	0.091	834572	keystroke_p	p	n/a
417.526	0.09	835052	keystroke_h	h	n/a
417.631	0.135	835262	keystroke_a	a	n/a
417.856	0.105	835712	keystroke_r	r	n/a
418.471	0.105	836942	keystroke_m	m	n/a
418.606	0.075	837212	keystroke_a	a	n/a
419.2515	0.105	838503	keystroke_c	c	n/a
420.107	0.09	840214	keystroke_e	e	n/a
420.227	0.09	840454	keystroke_u	u	n/a
421.066	0.105	842132	keystroke_t	t	n/a
421.216	0.09	842432	keystroke_i	i	n/a
421.636	0.12	843272	keystroke_c	c	n/a
421.891	0.09	843782	keystroke_a	a	n/a
421.966	0.121	843932	keystroke_l	l	n/a
422.147	0.104	844294	keystroke_s	s	n/a
422.896	0.075	845792	keystroke_Key.space	Key.space	n/a
423.271	0.105	846542	keystroke_d	d	n/a
423.331	0.075	846662	keystroke_e	e	n/a
423.871	0.075	847742	keystroke_f	f	n/a
423.976	0.105	847952	keystroke_i	i	n/a
424.066	0.0755	848132	keystroke_n	n	n/a
424.1265	0.09	848253	keystroke_e	e	n/a
424.2915	0.09	848583	keystroke_Key.space	Key.space	n/a
424.8015	0.135	849603	keystroke_s	s	n/a
425.0265	0.06	850053	keystroke_e	e	n/a
425.2365	0.12	850473	keystroke_v	v	n/a
425.4315	0.12	850863	keystroke_e	e	n/a
425.5065	0.135	851013	keystroke_r	r	n/a
425.6265	0.12	851253	keystroke_e	e	n/a
425.8215	0.1045	851643	keystroke_Key.space	Key.space	n/a
426.031	0.12	852062	keystroke_l	l	n/a
426.106	0.105	852212	keystroke_i	i	n/a
426.226	0.075	852452	keystroke_g	g	n/a
426.361	0.106	852722	keystroke_h	h	n/a
426.511	0.046	853022	keystroke_t	t	n/a
426.706	0.105	853412	keystroke_e	e	n/a
426.767	0.105	853534	keystroke_r	r	n/a
427.6215	0.075	855243	keystroke_Key.enter	Key.enter	n/a
427.711	12.339	855422	prompt	n/a	medicines kruger above advantage\n
428.296	0.1205	856592	keystroke_m	m	n/a
428.4915	0.075	856983	keystroke_e	e	n/a
428.6865	0.12	857373	keystroke_d	d	n/a
428.8215	0.045	857643	keystroke_i	i	n/a
428.9715	0.075	857943	keystroke_c	c	n/a
429.1965	0.135	858393	keystroke_i	i	n/a
429.2865	0.105	858573	keystroke_n	n	n/a
429.4215	0.105	858843	keystroke_e	e	n/a
429.6615	0.09	859323	keystroke_s	s	n/a
429.9315	0.03	859863	keystroke_Key.space	Key.space	n/a
431.3715	0.075	862743	keystroke_k	k	n/a
431.6115	0.075	863223	keystroke_r	r	n/a
431.7465	0.075	863493	keystroke_u	u	n/a
432.1365	0.09	864273	keystroke_g	g	n/a
432.2865	0.1345	864573	keystroke_e	e	n/a
432.3615	0.0745	864723	keystroke_r	r	n/a
432.541	0.09	865082	keystroke_Key.space	Key.space	n/a
433.741	0.12	867482	keystroke_a	a	n/a
434.446	0.105	868892	keystroke_b	b	n/a
434.566	0.135	869132	keystroke_o	o	n/a
434.716	0.15	869432	keystroke_v	v	n/a
434.791	0.12	869582	keystroke_e	e	n/a
435.391	0.09	870782	keystroke_Key.space	Key.space	n/a
435.631	0.165	871262	keystroke_a	a	n/a
435.766	0.135	871532	keystroke_d	d	n/a
437.4015	0.105	874803	keystroke_v	v	n/a
437.4915	0.09	874983	keystroke_a	a	n/a
437.6115	0.135	875223	keystroke_n	n	n/a
438.4515	0.075	876903	keystroke_t	t	n/a
438.6465	0.105	877293	keystroke_a	a	n/a
438.811	0.106	877622	keystroke_g	g	n/a
438.871	0.091	877742	keystroke_e	e	n/a
439.981	0.06	879962	keystroke_Key.enter	Key.enter	n/a
440.0545	21.1165	880109	prompt	n/a	reviewer shelter advertising nevertheless\n
440.911	0.091	881822	keystroke_r	r	n/a
440.957	0.104	881914	keystroke_e	e	n/a
441.181	0.1055	882362	keystroke_n	n	n/a
442.4565	0.075	884913	keystroke_Key.backspace	Key.backspace	n/a
442.6965	0.105	885393	keystroke_v	v	n/a
442.8915	0.075	885783	keystroke_i	i	n/a
443.0115	0.135	886023	keystroke_e	e	n/a
443.0865	0.135	886173	keystroke_w	w	n/a
443.9865	0.1655	887973	keystroke_e	e	n/a
444.106	0.106	888212	keystroke_r	r	n/a
444.316	0.105	888632	keystroke_Key.space	Key.space	n/a
445.111	0.091	890222	keystroke_s	s	n/a
445.231	0.105	890462	keystroke_h	h	n/a
445.351	0.075	890702	keystroke_e	e	n/a
445.486	0.09	890972	keystroke_l	l	n/a
445.696	0.105	891392	keystroke_t	t	n/a
445.861	0.12	891722	keystroke_e	e	n/a
445.951	0.105	891902	keystroke_r	r	n/a
446.086	0.105	892172	keystroke_Key.space	Key.space	n/a
446.326	0.12	892652	keystroke_a	a	n/a
446.432	0.119	892864	keystroke_d	d	n/a
447.361	0.0605	894722	keystroke_v	v	n/a
448.7115	0.1195	897423	keystroke_e	e	n/a
448.7715	0.1195	897543	keystroke_r	r	n/a
449.071	0.09	898142	keystroke_t	t	n/a
449.221	0.075	898442	keystroke_i	i	n/a
449.477	0.09	898954	keystroke_s	s	n/a
449.552	0.12	899104	keystroke_i	i	n/a
449.642	0.09	899284	keystroke_n	n	n/a
450.8415	0.06	901683	keystroke_g	g	n/a
451.4715	0.075	902943	keystroke_Key.space	Key.space	n/a
451.6515	0.12	903303	keystroke_n	n	n/a
451.8915	0.09	903783	keystroke_e	e	n/a
452.2365	0.09	904473	keystroke_v	v	n/a
452.4165	0.09	904833	keystroke_e	e	n/a
452.4615	0.105	904923	keystroke_r	r	n/a
452.6715	0.075	905343	keystroke_h	h	n/a
452.7165	0.09	905433	keystroke_t	t	n/a
452.9265	0.06	905853	keystroke_e	e	n/a
453.257	0.0595	906514	keystroke_l	l	n/a
454.3215	0.075	908643	keystroke_Key.backspace	Key.backspace	n/a
454.4715	0.075	908943	keystroke_Key.backspace	Key.backspace	n/a
454.6215	0.075	909243	keystroke_Key.backspace	Key.backspace	n/a
454.7865	0.0745	909573	keystroke_Key.backspace	Key.backspace	n/a
455.116	0.045	910232	keystroke_t	t	n/a
455.476	0.09	910952	keystroke_g	g	n/a
455.6265	0.075	911253	keystroke_e	e	n/a
456.1515	0.045	912303	keystroke_Key.backspace	Key.backspace	n/a
456.3015	0.06	912603	keystroke_Key.backspace	Key.backspace	n/a
456.5115	0.09	913023	keystroke_h	h	n/a
456.6615	0.06	913323	keystroke_e	e	n/a
456.7515	0.105	913503	keystroke_l	l	n/a
457.022	0.045	914044	keystroke_s	s	n/a
457.172	0.075	914344	keystroke_s	s	n/a
459.409	0.012	918818	keystroke_Key.backspace	Key.backspace	n/a
459.526	0.075	919052	keystroke_Key.backspace	Key.backspace	n/a
459.706	0.076	919412	keystroke_e	e	n/a
459.916	0.06	919832	keystroke_s	s	n/a
460.067	0.045	920134	keystroke_s	s	n/a
461.101	0.061	922202	keystroke_Key.enter	Key.enter	n/a
461.175	9.9255	922350	prompt	n/a	memo describe cultural monsters\n
462.1665	0.09	924333	keystroke_m	m	n/a
462.2865	0.075	924573	keystroke_e	e	n/a
462.422	0.09	924844	keystroke_m	m	n/a
462.8865	0.0905	925773	keystroke_o	o	n/a
463.037	0.12	926074	keystroke_Key.space	Key.space	n/a
463.517	0.075	927034	keystroke_s	s	n/a
463.832	0.06	927664	keystroke_Key.backspace	Key.backspace	n/a
463.952	0.105	927904	keystroke_d	d	n/a
463.997	0.09	927994	keystroke_e	e	n/a
464.206	0.076	928412	keystroke_s	s	n/a
464.401	0.151	928802	keystroke_c	c	n/a
464.792	0.089	929584	keystroke_r	r	n/a
464.956	0.06	929912	keystroke_i	i	n/a
465.167	0.09	930334	keystroke_b	b	n/a
466.457	0.074	932914	keystroke_e	e	n/a
466.696	0.075	933392	keystroke_Key.space	Key.space	n/a
467.102	0.119	934204	keystroke_c	c	n/a
467.252	0.074	934504	keystroke_u	u	n/a
467.446	0.091	934892	keystroke_l	l	n/a
467.627	0.09	935254	keystroke_t	t	n/a
467.776	0.076	935552	keystroke_u	u	n/a
467.896	0.135	935792	keystroke_r	r	n/a
468.076	0.135	936152	keystroke_a	a	n/a
468.197	0.1495	936394	keystroke_l	l	n/a
468.301	0.0755	936602	keystroke_Key.space	Key.space	n/a
468.4965	0.12	936993	keystroke_m	m	n/a
468.7065	0.09	937413	keystroke_o	o	n/a
468.7515	0.15	937503	keystroke_n	n	n/a
469.0665	0.09	938133	keystroke_s	s	n/a
469.307	0.075	938614	keystroke_t	t	n/a
469.442	0.135	938884	keystroke_e	e	n/a
469.532	0.105	939064	keystroke_r	r	n/a
469.787	0.105	939574	keystroke_s	s	n/a
470.942	0.149	941884	keystroke_Key.enter	Key.enter	n/a
471.106	14.574	942212	prompt	n/a	burlington commitment radio accreditation\n
471.947	0.075	943894	keystroke_b	b	n/a
472.067	0.09	944134	keystroke_u	u	n/a
472.187	0.09	944374	keystroke_r	r	n/a
472.322	0.135	944644	keystroke_l	l	n/a
472.412	0.12	944824	keystroke_i	i	n/a
472.622	0.12	945244	keystroke_n	n	n/a
472.982	0.12	945964	keystroke_g	g	n/a
473.4765	0.09	946953	keystroke_t	t	n/a
473.5815	0.135	947163	keystroke_o	o	n/a
473.6565	0.165	947313	keystroke_n	n	n/a
473.8065	0.105	947613	keystroke_Key.space	Key.space	n/a
474.0315	0.075	948063	keystroke_c	c	n/a
474.1215	0.075	948243	keystroke_o	o	n/a
477.1235	0.001	954247	keystroke_m	m	n/a
477.2265	0.06	954453	keystroke_m	m	n/a
477.7215	0.09	955443	keystroke_i	i	n/a
477.8715	0.105	955743	keystroke_t	t	n/a
478.1565	0.06	956313	keystroke_m	m	n/a
478.2315	0.12	956463	keystroke_e	e	n/a
478.3665	0.075	956733	keystroke_n	n	n/a
478.4265	0.075	956853	keystroke_t	t	n/a
478.6065	0.06	957213	keystroke_Key.space	Key.space	n/a
478.6965	0.1055	957393	keystroke_r	r	n/a
478.862	0.165	957724	keystroke_a	a	n/a
479.042	0.075	958084	keystroke_d	d	n/a
479.146	0.076	958292	keystroke_i	i	n/a
479.4315	0.075	958863	keystroke_a	a	n/a
479.7915	0.075	959583	keystroke_Key.backspace	Key.backspace	n/a
479.9865	0.09	959973	keystroke_o	o	n/a
480.241	0.075	960482	keystroke_Key.space	Key.space	n/a
480.706	0.136	961412	keystroke_a	a	n/a
480.826	0.09	961652	keystroke_c	c	n/a
480.992	0.089	961984	keystroke_c	c	n/a
481.231	0.136	962462	keystroke_r	r	n/a
481.321	0.09	962642	keystroke_e	e	n/a
481.561	0.09	963122	keystroke_d	d	n/a
481.681	0.061	963362	keystroke_i	i	n/a
484.0245	0	968049	keystroke_t	t	n/a
484.1565	0.09	968313	keystroke_a	a	n/a
484.5315	0.045	969063	keystroke_t	t	n/a
484.6965	0.165	969393	keystroke_i	i	n/a
484.7865	0.12	969573	keystroke_o	o	n/a
484.8765	0.105	969753	keystroke_n	n	n/a
485.5815	0.09	971163	keystroke_Key.enter	Key.enter	n/a
485.6835	9.9265	971367	prompt	n/a	didn't fishing supplier gibson\n
486.436	0.106	972872	keystroke_d	d	n/a
486.587	0.06	973174	keystroke_i	i	n/a
486.632	0.09	973264	keystroke_d	d	n/a
486.812	0.135	973624	keystroke_n	n	n/a
486.932	0.12	973864	keystroke_'	'	n/a
487.052	0.09	974104	keystroke_t	t	n/a
487.217	0.09	974434	keystroke_Key.space	Key.space	n/a
488.0415	0.06	976083	keystroke_f	f	n/a
488.1465	0.09	976293	keystroke_i	i	n/a
488.2665	0.0905	976533	keystroke_s	s	n/a
488.432	0.09	976864	keystroke_h	h	n/a
488.522	0.165	977044	keystroke_i	i	n/a
488.642	0.105	977284	keystroke_n	n	n/a
488.762	0.075	977524	keystroke_g	g	n/a
489.152	0.105	978304	keystroke_Key.space	Key.space	n/a
489.452	0.09	978904	keystroke_s	s	n/a
489.467	0.075	978934	keystroke_u	u	n/a
489.977	0.044	979954	keystroke_p	p	n/a
490.172	0.075	980344	keystroke_l	l	n/a
490.352	0.15	980704	keystroke_l	l	n/a
490.487	0.059	980974	keystroke_i	i	n/a
491.071	0.03	982142	keystroke_Key.backspace	Key.backspace	n/a
491.192	0.06	982384	keystroke_Key.backspace	Key.backspace	n/a
491.311	0.075	982622	keystroke_Key.backspace	Key.backspace	n/a
491.522	0.165	983044	keystroke_p	p	n/a
492.287	0.105	984574	keystroke_l	l	n/a
492.437	0.09	984874	keystroke_i	i	n/a
492.632	0.105	985264	keystroke_e	e	n/a
492.692	0.105	985384	keystroke_r	r	n/a
492.946	0.135	985892	keystroke_Key.space	Key.space	n/a
493.877	0.06	987754	keystroke_g	g	n/a
494.282	0.075	988564	keystroke_i	i	n/a
494.462	0.06	988924	keystroke_b	b	n/a
494.7165	0.09	989433	keystroke_s	s	n/a
494.8215	0.105	989643	keystroke_o	o	n/a
494.8815	0.12	989763	keystroke_n	n	n/a
495.5265	0.075	991053	keystroke_Key.enter	Key.enter	n/a
495.614	7.1665	991228	prompt	n/a	vanilla harder jones mardi\n
497.4765	0.12	994953	keystroke_v	v	n/a
497.5665	0.12	995133	keystroke_a	a	n/a
497.7015	0.09	995403	keystroke_n	n	n/a
497.9715	0.06	995943	keystroke_i	i	n/a
498.1215	0.075	996243	keystroke_l	l	n/a
498.2715	0.105	996543	keystroke_l	l	n/a
498.3615	0.09	996723	keystroke_a	a	n/a
498.5115	0.105	997023	keystroke_Key.space	Key.space	n/a
498.9615	0.135	997923	keystroke_h	h	n/a
499.0515	0.18	998103	keystroke_a	a	n/a
499.2015	0.09	998403	keystroke_r	r	n/a
499.412	0.12	998824	keystroke_d	d	n/a
499.502	0.165	999004	keystroke_e	e	n/a
499.622	0.09	999244	keystroke_r	r	n/a
499.8615	0.12	999723	keystroke_Key.space	Key.space	n/a
500.8665	0.105	1001733	keystroke_j	j	n/a
500.9565	0.1495	1001913	keystroke_o	o	n/a
501.061	0.12	1002122	keystroke_n	n	n/a
501.196	0.075	1002392	keystroke_e	e	n/a
501.3915	0.075	1002783	keystroke_s	s	n/a
501.5565	0.06	1003113	keystroke_Key.space	Key.space	n/a
501.7515	0.1205	1003503	keystroke_m	m	n/a
501.8265	0.1205	1003653	keystroke_a	a	n/a
501.977	0.09	1003954	keystroke_r	r	n/a
502.217	0.075	1004434	keystroke_d	d	n/a
502.322	0.09	1004644	keystroke_i	i	n/a
502.682	0.09	1005364	keystroke_Key.enter	Key.enter	n/a
502.7845	13.046	1005569	prompt	n/a	strange completed elliott geneva\n
503.4615	0.12	1006923	keystroke_s	s	n/a
503.7015	0.06	1007403	keystroke_t	t	n/a
503.8515	0.105	1007703	keystroke_r	r	n/a
503.9715	0.1195	1007943	keystroke_a	a	n/a
504.1215	0.1055	1008243	keystroke_n	n	n/a
504.272	0.12	1008544	keystroke_g	g	n/a
504.377	0.135	1008754	keystroke_e	e	n/a
504.587	0.105	1009174	keystroke_Key.space	Key.space	n/a
504.947	0.09	1009894	keystroke_o	o	n/a
505.277	0.075	1010554	keystroke_Key.backspace	Key.backspace	n/a
505.382	0.1045	1010764	keystroke_c	c	n/a
505.5465	0.075	1011093	keystroke_p	p	n/a
505.6065	0.105	1011213	keystroke_m	m	n/a
506.1765	0.03	1012353	keystroke_Key.backspace	Key.backspace	n/a
506.2665	0.09	1012533	keystroke_Key.backspace	Key.backspace	n/a
506.792	0.119	1013584	keystroke_o	o	n/a
506.866	0.1055	1013732	keystroke_m	m	n/a
507.0165	0.12	1014033	keystroke_p	p	n/a
507.0915	0.12	1014183	keystroke_l	l	n/a
507.2415	0.12	1014483	keystroke_e	e	n/a
507.3915	0.1205	1014783	keystroke_t	t	n/a
507.497	0.195	1014994	keystroke_e	e	n/a
507.707	0.135	1015414	keystroke_d	d	n/a
507.902	0.105	1015804	keystroke_Key.space	Key.space	n/a
508.262	0.03	1016524	keystroke_e	e	n/a
508.8015	0.075	1017603	keystroke_l	l	n/a
509.0115	0.12	1018023	keystroke_l	l	n/a
509.1165	0.075	1018233	keystroke_i	i	n/a
509.2665	0.06	1018533	keystroke_t	t	n/a
509.7015	0.075	1019403	keystroke_Key.backspace	Key.backspace	n/a
509.8515	0.075	1019703	keystroke_Key.backspace	Key.backspace	n/a
511.5315	0.045	1023063	keystroke_i	i	n/a
511.6665	0.105	1023333	keystroke_o	o	n/a
511.8015	0.075	1023603	keystroke_t	t	n/a
511.9665	0.06	1023933	keystroke_t	t	n/a
512.3865	0.09	1024773	keystroke_Key.space	Key.space	n/a
513.332	0.149	1026664	keystroke_g	g	n/a
513.571	0.075	1027142	keystroke_e	e	n/a
513.691	0.076	1027382	keystroke_n	n	n/a
514.1415	0.105	1028283	keystroke_e	e	n/a
514.4565	0.12	1028913	keystroke_c	c	n/a
514.5775	0.104	1029155	keystroke_a	a	n/a
514.9965	0.075	1029993	keystroke_Key.backspace	Key.backspace	n/a
515.1615	0.06	1030323	keystroke_Key.backspace	Key.backspace	n/a
515.2515	0.12	1030503	keystroke_v	v	n/a
515.3415	0.09	1030683	keystroke_a	a	n/a
515.762	0.059	1031524	keystroke_Key.enter	Key.enter	n/a
515.8345	7.0985	1031669	prompt	n/a	combines mali reject cards\n
517.0365	0.15	1034073	keystroke_c	c	n/a
517.2015	0.045	1034403	keystroke_o	o	n/a
517.3665	0.09	1034733	keystroke_m	m	n/a
517.6665	0.06	1035333	keystroke_b	b	n/a
517.8465	0.105	1035693	keystroke_i	i	n/a
517.9365	0.12	1035873	keystroke_n	n	n/a
518.327	0.0895	1036654	keystroke_e	e	n/a
518.552	0.075	1037104	keystroke_s	s	n/a
518.717	0.0745	1037434	keystroke_Key.space	Key.space	n/a
518.8515	0.105	1037703	keystroke_m	m	n/a
518.9715	0.09	1037943	keystroke_a	a	n/a
519.0765	0.18	1038153	keystroke_l	l	n/a
519.2415	0.09	1038483	keystroke_i	i	n/a
519.3765	0.12	1038753	keystroke_Key.space	Key.space	n/a
519.7815	0.15	1039563	keystroke_r	r	n/a
519.8565	0.12	1039713	keystroke_e	e	n/a
520.2465	0.06	1040493	keystroke_j	j	n/a
520.4115	0.045	1040823	keystroke_e	e	n/a
520.5765	0.105	1041153	keystroke_c	c	n/a
520.8015	0.075	1041603	keystroke_t	t	n/a
520.9215	0.1055	1041843	keystroke_Key.space	Key.space	n/a
521.132	0.09	1042264	keystroke_c	c	n/a
521.207	0.12	1042414	keystroke_a	a	n/a
521.387	0.12	1042774	keystroke_r	r	n/a
521.627	0.12	1043254	keystroke_d	d	n/a
521.702	0.12	1043404	keystroke_s	s	n/a
522.8565	0.075	1045713	keystroke_Key.enter	Key.enter	n/a
522.936	8.209	1045872	prompt	n/a	then sleeve infections retain\n
523.5765	0.09	1047153	keystroke_t	t	n/a
523.6815	0.09	1047363	keystroke_h	h	n/a
523.7865	0.075	1047573	keystroke_e	e	n/a
523.9065	0.15	1047813	keystroke_n	n	n/a
524.0265	0.105	1048053	keystroke_Key.space	Key.space	n/a
524.6265	0.105	1049253	keystroke_s	s	n/a
524.7465	0.06	1049493	keystroke_l	l	n/a
524.8665	0.06	1049733	keystroke_e	e	n/a
525.0465	0.0605	1050093	keystroke_e	e	n/a
525.152	0.135	1050304	keystroke_v	v	n/a
525.257	0.09	1050514	keystroke_e	e	n/a
525.377	0.12	1050754	keystroke_Key.space	Key.space	n/a
525.647	0.18	1051294	keystroke_i	i	n/a
525.752	0.135	1051504	keystroke_n	n	n/a
526.307	0.06	1052614	keystroke_f	f	n/a
526.412	0.0895	1052824	keystroke_e	e	n/a
526.5465	0.12	1053093	keystroke_c	c	n/a
526.8765	0.21	1053753	keystroke_i	i	n/a
527.327	0.06	1054654	keystroke_Key.backspace	Key.backspace	n/a
527.402	0.09	1054804	keystroke_t	t	n/a
527.582	0.18	1055164	keystroke_i	i	n/a
527.642	0.135	1055284	keystroke_o	o	n/a
527.732	0.105	1055464	keystroke_n	n	n/a
527.852	0.09	1055704	keystroke_s	s	n/a
528.587	0.12	1057174	keystroke_Key.space	Key.space	n/a
528.857	0.15	1057714	keystroke_r	r	n/a
528.947	0.105	1057894	keystroke_e	e	n/a
529.187	0.06	1058374	keystroke_t	t	n/a
529.5315	0.105	1059063	keystroke_a	a	n/a
529.6215	0.12	1059243	keystroke_i	i	n/a
529.6965	0.105	1059393	keystroke_n	n	n/a
531.062	0.075	1062124	keystroke_Key.enter	Key.enter	n/a
531.1505	8.0795	1062301	prompt	n/a	chemistry finest they ambien\n
531.827	0.105	1063654	keystroke_c	c	n/a
531.947	0.075	1063894	keystroke_h	h	n/a
532.052	0.075	1064104	keystroke_e	e	n/a
532.187	0.09	1064374	keystroke_m	m	n/a
532.382	0.06	1064764	keystroke_i	i	n/a
532.457	0.075	1064914	keystroke_s	s	n/a
532.682	0.06	1065364	keystroke_t	t	n/a
533.5665	0.09	1067133	keystroke_r	r	n/a
533.6715	0.09	1067343	keystroke_y	y	n/a
533.7465	0.105	1067493	keystroke_Key.space	Key.space	n/a
534.917	0.075	1069834	keystroke_f	f	n/a
535.037	0.1195	1070074	keystroke_i	i	n/a
535.1415	0.09	1070283	keystroke_n	n	n/a
535.6965	0.09	1071393	keystroke_e	e	n/a
535.892	0.075	1071784	keystroke_s	s	n/a
536.087	0.09	1072174	keystroke_t	t	n/a
536.207	0.075	1072414	keystroke_Key.space	Key.space	n/a
536.297	0.09	1072594	keystroke_t	t	n/a
536.372	0.105	1072744	keystroke_h	h	n/a
536.462	0.105	1072924	keystroke_e	e	n/a
536.582	0.075	1073164	keystroke_y	y	n/a
536.627	0.105	1073254	keystroke_Key.space	Key.space	n/a
536.792	0.105	1073584	keystroke_a	a	n/a
536.927	0.09	1073854	keystroke_b	b	n/a
537.257	0.045	1074514	keystroke_Key.backspace	Key.backspace	n/a
537.4515	0.075	1074903	keystroke_m	m	n/a
537.7215	0.075	1075443	keystroke_b	b	n/a
538.2315	0.06	1076463	keystroke_i	i	n/a
538.3065	0.09	1076613	keystroke_e	e	n/a
538.4115	0.12	1076823	keystroke_n	n	n/a
539.1465	0.075	1078293	keystroke_Key.enter	Key.enter	n/a
539.2345	15.5805	1078469	prompt	n/a	revisions surface handled why're\n
540.002	0.12	1080004	keystroke_r	r	n/a
540.077	0.105	1080154	keystroke_e	e	n/a
540.287	0.105	1080574	keystroke_v	v	n/a
540.482	0.105	1080964	keystroke_i	i	n/a
540.662	0.105	1081324	keystroke_s	s	n/a
541.3515	0.21	1082703	keystroke_i	i	n/a
541.4715	0.135	1082943	keystroke_o	o	n/a
541.5465	0.135	1083093	keystroke_n	n	n/a
541.6965	0.075	1083393	keystroke_s	s	n/a
541.8465	0.105	1083693	keystroke_Key.space	Key.space	n/a
542.867	0.105	1085734	keystroke_s	s	n/a
542.927	0.09	1085854	keystroke_u	u	n/a
543.152	0.075	1086304	keystroke_r	r	n/a
543.407	0.09	1086814	keystroke_f	f	n/a
543.587	0.105	1087174	keystroke_a	a	n/a
543.647	0.195	1087294	keystroke_c	c	n/a
543.797	0.09	1087594	keystroke_e	e	n/a
543.932	0.09	1087864	keystroke_Key.space	Key.space	n/a
544.142	0.09	1088284	keystroke_h	h	n/a
544.247	0.09	1088494	keystroke_a	a	n/a
544.367	0.09	1088734	keystroke_n	n	n/a
545.342	0.09	1090684	keystroke_f	f	n/a
545.477	0.105	1090954	keystroke_l	l	n/a
545.597	0.045	1091194	keystroke_e	e	n/a
546.137	0.1045	1092274	keystroke_d	d	n/a
546.8415	0.06	1093683	keystroke_Key.backspace	Key.backspace	n/a
546.9915	0.06	1093983	keystroke_Key.backspace	Key.backspace	n/a
547.1415	0.045	1094283	keystroke_Key.backspace	Key.backspace	n/a
547.2465	0.09	1094493	keystroke_Key.backspace	Key.backspace	n/a
548.1615	0.105	1096323	keystroke_d	d	n/a
548.3115	0.09	1096623	keystroke_l	l	n/a
548.5065	0.09	1097013	keystroke_g	g	n/a
548.7165	0.105	1097433	keystroke_e	e	n/a
548.7915	0.105	1097583	keystroke_d	d	n/a
548.9865	0.06	1097973	keystroke_Key.space	Key.space	n/a
550.307	0.0745	1100614	keystroke_Key.backspace	Key.backspace	n/a
550.4715	0.06	1100943	keystroke_Key.backspace	Key.backspace	n/a
550.6215	0.045	1101243	keystroke_Key.backspace	Key.backspace	n/a
550.7715	0.105	1101543	keystroke_Key.backspace	Key.backspace	n/a
551.3115	0.045	1102623	keystroke_e	e	n/a
551.3265	0.09	1102653	keystroke_d	d	n/a
552.2415	0.075	1104483	keystroke_Key.space	Key.space	n/a
552.8565	0.09	1105713	keystroke_w	w	n/a
552.9915	0.09	1105983	keystroke_h	h	n/a
553.2465	0.075	1106493	keystroke_y	y	n/a
553.517	0.09	1107034	keystroke_'	'	n/a
553.652	0.105	1107304	keystroke_r	r	n/a
553.727	0.09	1107454	keystroke_e	e	n/a
554.732	0.075	1109464	keystroke_Key.enter	Key.enter	n/a
554.8195	10.751	1109639	prompt	n/a	lion round lately consistency\n
555.587	0.09	1111174	keystroke_l	l	n/a
555.767	0.18	1111534	keystroke_i	i	n/a
555.872	0.195	1111744	keystroke_o	o	n/a
555.992	0.135	1111984	keystroke_n	n	n/a
556.097	0.12	1112194	keystroke_Key.space	Key.space	n/a
556.3215	0.105	1112643	keystroke_r	r	n/a
556.4115	0.165	1112823	keystroke_o	o	n/a
556.5015	0.135	1113003	keystroke_u	u	n/a
556.5615	0.165	1113123	keystroke_n	n	n/a
557.2515	0.105	1114503	keystroke_d	d	n/a
557.3865	0.075	1114773	keystroke_Key.space	Key.space	n/a
557.5815	0.09	1115163	keystroke_l	l	n/a
558.5415	0.12	1117083	keystroke_a	a	n/a
559.7715	0.12	1119543	keystroke_t	t	n/a
559.8615	0.1205	1119723	keystroke_e	e	n/a
560.1165	0.0905	1120233	keystroke_l	l	n/a
560.3565	0.105	1120713	keystroke_y	y	n/a
560.552	0.1045	1121104	keystroke_Key.space	Key.space	n/a
561.4665	0.12	1122933	keystroke_c	c	n/a
561.6015	0.12	1123203	keystroke_o	o	n/a
561.6765	0.135	1123353	keystroke_n	n	n/a
562.1265	0.105	1124253	keystroke_s	s	n/a
562.2465	0.09	1124493	keystroke_i	i	n/a
562.9065	0.12	1125813	keystroke_s	s	n/a
563.1925	0.149	1126385	keystroke_t	t	n/a
563.3115	0.105	1126623	keystroke_e	e	n/a
563.4615	0.09	1126923	keystroke_n	n	n/a
563.867	0.09	1127734	keystroke_c	c	n/a
564.362	0.09	1128724	keystroke_y	y	n/a
565.4715	0.09	1130943	keystroke_Key.enter	Key.enter	n/a
565.575	8.7725	1131150	prompt	n/a	am shopzilla tony sans\n
566.777	0.105	1133554	keystroke_a	a	n/a
566.822	0.044	1133644	keystroke_m	m	n/a
567.392	0.105	1134784	keystroke_Key.space	Key.space	n/a
567.677	0.105	1135354	keystroke_s	s	n/a
567.812	0.12	1135624	keystroke_h	h	n/a
567.947	0.09	1135894	keystroke_o	o	n/a
568.142	0.09	1136284	keystroke_p	p	n/a
568.427	0.09	1136854	keystroke_s	s	n/a
568.532	0.075	1137064	keystroke_i	i	n/a
568.697	0.06	1137394	keystroke_l	l	n/a
568.847	0.0895	1137694	keystroke_l	l	n/a
568.952	0.0745	1137904	keystroke_a	a	n/a
569.057	0.105	1138114	keystroke_Key.space	Key.space	n/a
569.387	0.06	1138774	keystroke_Key.backspace	Key.backspace	n/a
569.5365	0.045	1139073	keystroke_Key.backspace	Key.backspace	n/a
569.6715	0.045	1139343	keystroke_Key.backspace	Key.backspace	n/a
569.8065	0.06	1139613	keystroke_Key.backspace	Key.backspace	n/a
569.9565	0.09	1139913	keystroke_Key.backspace	Key.backspace	n/a
570.1515	0.06	1140303	keystroke_Key.backspace	Key.backspace	n/a
570.3465	0.09	1140693	keystroke_z	z	n/a
570.4815	0.075	1140963	keystroke_i	i	n/a
570.9615	0.06	1141923	keystroke_l	l	n/a
571.1115	0.075	1142223	keystroke_l	l	n/a
571.2165	0.0905	1142433	keystroke_a	a	n/a
571.337	0.105	1142674	keystroke_Key.space	Key.space	n/a
571.727	0.09	1143454	keystroke_t	t	n/a
571.832	0.105	1143664	keystroke_o	o	n/a
571.907	0.105	1143814	keystroke_n	n	n/a
573.0915	0.075	1146183	keystroke_y	y	n/a
573.3615	0.105	1146723	keystroke_Key.space	Key.space	n/a
573.5715	0.135	1147143	keystroke_s	s	n/a
573.6915	0.09	1147383	keystroke_a	a	n/a
573.8265	0.09	1147653	keystroke_n	n	n/a
573.9315	0.09	1147863	keystroke_s	s	n/a
574.2465	0.09	1148493	keystroke_Key.enter	Key.enter	n/a
574.3515	10.36	1148703	prompt	n/a	politics satellite province acquired\n
574.9815	0.105	1149963	keystroke_p	p	n/a
575.2065	0.075	1150413	keystroke_o	o	n/a
575.4015	0.1345	1150803	keystroke_l	l	n/a
575.5215	0.0895	1151043	keystroke_i	i	n/a
575.686	0.075	1151372	keystroke_t	t	n/a
575.791	0.0905	1151582	keystroke_i	i	n/a
575.9715	0.15	1151943	keystroke_c	c	n/a
576.1065	0.105	1152213	keystroke_s	s	n/a
576.2715	0.12	1152543	keystroke_Key.space	Key.space	n/a
576.5115	0.135	1153023	keystroke_s	s	n/a
576.6315	0.12	1153263	keystroke_a	a	n/a
576.8865	0.09	1153773	keystroke_t	t	n/a
576.9615	0.135	1153923	keystroke_e	e	n/a
577.1415	0.075	1154283	keystroke_l	l	n/a
578.777	0.12	1157554	keystroke_l	l	n/a
578.882	0.105	1157764	keystroke_i	i	n/a
579.137	0.105	1158274	keystroke_t	t	n/a
579.197	0.1345	1158394	keystroke_e	e	n/a
579.392	0.135	1158784	keystroke_Key.space	Key.space	n/a
579.7815	0.0905	1159563	keystroke_p	p	n/a
580.007	0.03	1160014	keystroke_r	r	n/a
580.232	0.12	1160464	keystroke_o	o	n/a
580.382	0.075	1160764	keystroke_c	c	n/a
580.667	0.105	1161334	keystroke_i	i	n/a
580.982	0.0445	1161964	keystroke_Key.backspace	Key.backspace	n/a
581.1165	0.075	1162233	keystroke_Key.backspace	Key.backspace	n/a
581.2365	0.06	1162473	keystroke_v	v	n/a
581.327	0.1195	1162654	keystroke_i	i	n/a
581.4165	0.09	1162833	keystroke_n	n	n/a
581.4915	0.12	1162983	keystroke_c	c	n/a
581.5815	0.09	1163163	keystroke_e	e	n/a
582.2265	0.09	1164453	keystroke_Key.space	Key.space	n/a
582.3765	0.105	1164753	keystroke_a	a	n/a
583.1565	0.105	1166313	keystroke_c	c	n/a
583.697	0.09	1167394	keystroke_q	q	n/a
583.832	0.12	1167664	keystroke_u	u	n/a
583.922	0.105	1167844	keystroke_i	i	n/a
584.042	0.135	1168084	keystroke_r	r	n/a
584.162	0.135	1168324	keystroke_e	e	n/a
584.267	0.135	1168534	keystroke_d	d	n/a
584.627	0.075	1169254	keystroke_Key.enter	Key.enter	n/a
584.716	8.522	1169432	prompt	n/a	match country biological peers\n
585.257	0.12	1170514	keystroke_m	m	n/a
585.332	0.09	1170664	keystroke_a	a	n/a
585.497	0.09	1170994	keystroke_t	t	n/a
585.767	0.105	1171534	keystroke_c	c	n/a
585.886	0.1355	1171772	keystroke_h	h	n/a
586.006	0.1055	1172012	keystroke_Key.space	Key.space	n/a
586.4265	0.135	1172853	keystroke_c	c	n/a
586.5465	0.135	1173093	keystroke_o	o	n/a
586.6665	0.105	1173333	keystroke_u	u	n/a
587.0715	0.076	1174143	keystroke_n	n	n/a
587.2515	0.075	1174503	keystroke_t	t	n/a
587.4315	0.09	1174863	keystroke_r	r	n/a
587.5515	0.105	1175103	keystroke_y	y	n/a
587.7015	0.1355	1175403	keystroke_Key.space	Key.space	n/a
589.007	0.015	1178014	keystroke_b	b	n/a
589.157	0.1645	1178314	keystroke_i	i	n/a
589.2915	0.105	1178583	keystroke_o	o	n/a
589.4865	0.075	1178973	keystroke_l	l	n/a
589.6365	0.09	1179273	keystroke_o	o	n/a
590.3265	0.06	1180653	keystroke_g	g	n/a
590.4315	0.075	1180863	keystroke_i	i	n/a
590.7615	0.12	1181523	keystroke_c	c	n/a
590.8215	0.135	1181643	keystroke_a	a	n/a
590.9265	0.135	1181853	keystroke_l	l	n/a
591.0015	0.12	1182003	keystroke_Key.space	Key.space	n/a
591.1965	0.0905	1182393	keystroke_p	p	n/a
591.317	0.09	1182634	keystroke_e	e	n/a
591.482	0.135	1182964	keystroke_e	e	n/a
591.572	0.105	1183144	keystroke_r	r	n/a
591.917	0.105	1183834	keystroke_s	s	n/a
592.097	0.09	1184194	keystroke_Key.space	Key.space	n/a
592.7565	0.075	1185513	keystroke_Key.backspace	Key.backspace	n/a
593.1615	0.075	1186323	keystroke_Key.enter	Key.enter	n/a
593.241	13.5495	1186482	prompt	n/a	figures editing plumbing girlfriend\n
594.3465	0.09	1188693	keystroke_f	f	n/a
594.4515	0.09	1188903	keystroke_i	i	n/a
594.6315	0.09	1189263	keystroke_g	g	n/a
594.7825	0.09	1189565	keystroke_u	u	n/a
594.8865	0.15	1189773	keystroke_r	r	n/a
595.0065	0.135	1190013	keystroke_e	e	n/a
595.261	0.0905	1190522	keystroke_s	s	n/a
595.441	0.106	1190882	keystroke_Key.space	Key.space	n/a
596.1165	0.075	1192233	keystroke_e	e	n/a
596.2675	0.1195	1192535	keystroke_d	d	n/a
596.522	0.09	1193044	keystroke_i	i	n/a
596.792	0.09	1193584	keystroke_t	t	n/a
596.9115	0.135	1193823	keystroke_i	i	n/a
597.0015	0.105	1194003	keystroke_n	n	n/a
597.0765	0.075	1194153	keystroke_g	g	n/a
597.2115	0.09	1194423	keystroke_Key.space	Key.space	n/a
597.647	0.06	1195294	keystroke_l	l	n/a
598.0365	0.075	1196073	keystroke_Key.backspace	Key.backspace	n/a
598.5765	0.06	1197153	keystroke_p	p	n/a
598.7415	0.075	1197483	keystroke_l	l	n/a
598.997	0.06	1197994	keystroke_u	u	n/a
599.192	0.105	1198384	keystroke_m	m	n/a
599.4465	0.06	1198893	keystroke_b	b	n/a
600.932	0.135	1201864	keystroke_i	i	n/a
601.022	0.074	1202044	keystroke_n	n	n/a
601.082	0.09	1202164	keystroke_g	g	n/a
601.232	0.104	1202464	keystroke_Key.space	Key.space	n/a
601.832	0.0745	1203664	keystroke_g	g	n/a
601.9375	0.074	1203875	keystroke_i	i	n/a
602.0265	0.075	1204053	keystroke_r	r	n/a
602.1465	0.075	1204293	keystroke_l	l	n/a
603.1065	0.06	1206213	keystroke_f	f	n/a
603.2265	0.076	1206453	keystroke_i	i	n/a
603.2875	0.074	1206575	keystroke_r	r	n/a
603.4815	0.091	1206963	keystroke_e	e	n/a
604.232	0.045	1208464	keystroke_Key.backspace	Key.backspace	n/a
604.397	0.015	1208794	keystroke_Key.backspace	Key.backspace	n/a
604.547	0.045	1209094	keystroke_Key.backspace	Key.backspace	n/a
604.967	0.075	1209934	keystroke_r	r	n/a
605.087	0.075	1210174	keystroke_i	i	n/a
605.192	0.09	1210384	keystroke_e	e	n/a
605.297	0.0895	1210594	keystroke_n	n	n/a
605.3565	0.105	1210713	keystroke_d	d	n/a
606.7065	0.075	1213413	keystroke_Key.enter	Key.enter	n/a
606.7945	9.206	1213589	prompt	n/a	familiar harbor repeat enough\n
607.6065	0.09	1215213	keystroke_f	f	n/a
607.7115	0.135	1215423	keystroke_a	a	n/a
607.8315	0.1055	1215663	keystroke_m	m	n/a
608.012	0.105	1216024	keystroke_i	i	n/a
608.162	0.1505	1216324	keystroke_l	l	n/a
608.2815	0.075	1216563	keystroke_i	i	n/a
608.3575	0.194	1216715	keystroke_a	a	n/a
608.5365	0.091	1217073	keystroke_r	r	n/a
608.7015	0.106	1217403	keystroke_Key.space	Key.space	n/a
609.2575	0.089	1218515	keystroke_h	h	n/a
609.3915	0.165	1218783	keystroke_a	a	n/a
609.5265	0.1205	1219053	keystroke_r	r	n/a
609.737	0.075	1219474	keystroke_b	b	n/a
609.932	0.105	1219864	keystroke_o	o	n/a
610.112	0.12	1220224	keystroke_r	r	n/a
610.292	0.105	1220584	keystroke_Key.space	Key.space	n/a
610.637	0.15	1221274	keystroke_r	r	n/a
610.742	0.105	1221484	keystroke_e	e	n/a
610.997	0.09	1221994	keystroke_p	p	n/a
611.222	0.105	1222444	keystroke_e	e	n/a
611.387	0.135	1222774	keystroke_a	a	n/a
611.582	0.105	1223164	keystroke_r	r	n/a
612.062	0.075	1224124	keystroke_Key.backspace	Key.backspace	n/a
612.152	0.1055	1224304	keystroke_t	t	n/a
613.067	0.09	1226134	keystroke_Key.space	Key.space	n/a
613.502	0.075	1227004	keystroke_e	e	n/a
613.592	0.1655	1227184	keystroke_n	n	n/a
613.7425	0.149	1227485	keystroke_o	o	n/a
613.8315	0.121	1227663	keystroke_u	u	n/a
613.9665	0.061	1227933	keystroke_g	g	n/a
614.0715	0.12	1228143	keystroke_h	h	n/a
615.932	0.06	1231864	keystroke_Key.enter	Key.enter	n/a
616.0045	9.6255	1232009	prompt	n/a	characterized spin presently findlaw\n
616.7115	0.105	1233423	keystroke_c	c	n/a
616.8465	0.09	1233693	keystroke_h	h	n/a
616.9665	0.165	1233933	keystroke_a	a	n/a
617.1015	0.12	1234203	keystroke_r	r	n/a
617.2665	0.18	1234533	keystroke_a	a	n/a
617.3865	0.15	1234773	keystroke_c	c	n/a
617.7465	0.075	1235493	keystroke_t	t	n/a
617.9115	0.135	1235823	keystroke_e	e	n/a
617.9865	0.09	1235973	keystroke_r	r	n/a
618.6915	0.075	1237383	keystroke_i	i	n/a
620.1615	0.075	1240323	keystroke_z	z	n/a
620.4165	0.09	1240833	keystroke_e	e	n/a
620.4775	0.104	1240955	keystroke_d	d	n/a
620.5825	0.104	1241165	keystroke_Key.space	Key.space	n/a
620.7465	0.106	1241493	keystroke_s	s	n/a
620.8665	0.091	1241733	keystroke_p	p	n/a
621.1215	0.166	1242243	keystroke_i	i	n/a
621.2115	0.18	1242423	keystroke_n	n	n/a
621.3765	0.12	1242753	keystroke_Key.space	Key.space	n/a
621.6015	0.12	1243203	keystroke_p	p	n/a
621.7665	0.1205	1243533	keystroke_r	r	n/a
621.8415	0.1055	1243683	keystroke_e	e	n/a
622.052	0.105	1244104	keystroke_s	s	n/a
622.247	0.075	1244494	keystroke_e	e	n/a
622.337	0.09	1244674	keystroke_n	n	n/a
622.442	0.075	1244884	keystroke_t	t	n/a
622.592	0.075	1245184	keystroke_l	l	n/a
622.862	0.09	1245724	keystroke_y	y	n/a
623.012	0.09	1246024	keystroke_Key.space	Key.space	n/a
623.8515	0.075	1247703	keystroke_f	f	n/a
623.9415	0.12	1247883	keystroke_i	i	n/a
624.0165	0.12	1248033	keystroke_n	n	n/a
624.1515	0.09	1248303	keystroke_d	d	n/a
624.3165	0.09	1248633	keystroke_l	l	n/a
624.5115	0.135	1249023	keystroke_a	a	n/a
624.6615	0.09	1249323	keystroke_w	w	n/a
625.517	0.105	1251034	keystroke_Key.enter	Key.enter	n/a
625.6345	7.639	1251269	prompt	n/a	barrel planned users cookies\n
626.2815	0.09	1252563	keystroke_b	b	n/a
626.4315	0.09	1252863	keystroke_a	a	n/a
626.5365	0.12	1253073	keystroke_r	r	n/a
626.6865	0.075	1253373	keystroke_e	e	n/a
626.8515	0.075	1253703	keystroke_e	e	n/a
627.032	0.09	1254064	keystroke_l	l	n/a
627.212	0.09	1254424	keystroke_Key.space	Key.space	n/a
627.6325	0.0445	1255265	keystroke_Key.backspace	Key.backspace	n/a
627.767	0.06	1255534	keystroke_Key.backspace	Key.backspace	n/a
627.917	0.06	1255834	keystroke_Key.backspace	Key.backspace	n/a
628.067	0.06	1256134	keystroke_Key.backspace	Key.backspace	n/a
628.187	0.135	1256374	keystroke_r	r	n/a
628.292	0.09	1256584	keystroke_e	e	n/a
629.0125	0.1645	1258025	keystroke_l	l	n/a
629.1625	0.1045	1258325	keystroke_Key.space	Key.space	n/a
629.537	0.105	1259074	keystroke_p	p	n/a
629.702	0.09	1259404	keystroke_l	l	n/a
629.852	0.1195	1259704	keystroke_a	a	n/a
630.0465	0.075	1260093	keystroke_n	n	n/a
630.1965	0.075	1260393	keystroke_n	n	n/a
630.3165	0.09	1260633	keystroke_e	e	n/a
630.3765	0.15	1260753	keystroke_d	d	n/a
630.5565	0.09	1261113	keystroke_Key.space	Key.space	n/a
630.8715	0.06	1261743	keystroke_u	u	n/a
630.9465	0.09	1261893	keystroke_s	s	n/a
631.1415	0.1355	1262283	keystroke_e	e	n/a
631.232	0.09	1262464	keystroke_r	r	n/a
631.442	0.105	1262884	keystroke_s	s	n/a
631.607	0.105	1263214	keystroke_Key.space	Key.space	n/a
631.907	0.105	1263814	keystroke_c	c	n/a
631.997	0.09	1263994	keystroke_o	o	n/a
632.192	0.165	1264384	keystroke_o	o	n/a
632.282	0.12	1264564	keystroke_k	k	n/a
632.4765	0.105	1264953	keystroke_i	i	n/a
632.6115	0.091	1265223	keystroke_e	e	n/a
632.8065	0.09	1265613	keystroke_s	s	n/a
633.1815	0.09	1266363	keystroke_Key.enter	Key.enter	n/a
633.2775	9.243	1266555	prompt	n/a	dealers microwave constitutional connection\n
634.1115	0.151	1268223	keystroke_d	d	n/a
634.2465	0.15	1268493	keystroke_e	e	n/a
634.3515	0.106	1268703	keystroke_a	a	n/a
634.4415	0.105	1268883	keystroke_l	l	n/a
634.6665	0.12	1269333	keystroke_e	e	n/a
634.7415	0.075	1269483	keystroke_r	r	n/a
634.9515	0.12	1269903	keystroke_s	s	n/a
635.1615	0.06	1270323	keystroke_Key.space	Key.space	n/a
635.3565	0.09	1270713	keystroke_m	m	n/a
635.5365	0.06	1271073	keystroke_i	i	n/a
635.6265	0.105	1271253	keystroke_c	c	n/a
636.1215	0.09	1272243	keystroke_r	r	n/a
636.3765	0.09	1272753	keystroke_o	o	n/a
637.022	0.105	1274044	keystroke_w	w	n/a
637.172	0.09	1274344	keystroke_a	a	n/a
637.307	0.12	1274614	keystroke_v	v	n/a
637.382	0.09	1274764	keystroke_e	e	n/a
637.532	0.09	1275064	keystroke_Key.space	Key.space	n/a
637.772	0.1045	1275544	keystroke_c	c	n/a
637.847	0.1195	1275694	keystroke_o	o	n/a
637.9215	0.12	1275843	keystroke_n	n	n/a
638.312	0.105	1276624	keystroke_s	s	n/a
638.552	0.06	1277104	keystroke_t	t	n/a
638.657	0.075	1277314	keystroke_i	i	n/a
638.852	0.06	1277704	keystroke_t	t	n/a
638.972	0.075	1277944	keystroke_i	i	n/a
639.377	0.06	1278754	keystroke_Key.backspace	Key.backspace	n/a
639.587	0.0745	1279174	keystroke_u	u	n/a
639.7365	0.091	1279473	keystroke_t	t	n/a
639.8415	0.24	1279683	keystroke_i	i	n/a
639.9465	0.15	1279893	keystroke_o	o	n/a
640.0215	0.12	1280043	keystroke_n	n	n/a
640.2465	0.105	1280493	keystroke_a	a	n/a
640.3665	0.1055	1280733	keystroke_l	l	n/a
640.652	0.0895	1281304	keystroke_Key.space	Key.space	n/a
641.027	0.09	1282054	keystroke_c	c	n/a
641.102	0.12	1282204	keystroke_o	o	n/a
641.192	0.045	1282384	keystroke_n	n	n/a
641.3265	0.075	1282653	keystroke_n	n	n/a
641.4315	0.075	1282863	keystroke_e	e	n/a
641.5965	0.09	1283193	keystroke_c	c	n/a
641.8815	0.09	1283763	keystroke_t	t	n/a
641.9565	0.225	1283913	keystroke_i	i	n/a
642.0615	0.135	1284123	keystroke_o	o	n/a
642.1365	0.15	1284273	keystroke_n	n	n/a
642.4225	0.0895	1284845	keystroke_Key.enter	Key.enter	n/a
642.525	12.506	1285050	prompt	n/a	occasion batteries donated regime\n
643.142	0.105	1286284	keystroke_o	o	n/a
643.472	0.075	1286944	keystroke_c	c	n/a
643.607	0.1055	1287214	keystroke_c	c	n/a
643.6975	0.15	1287395	keystroke_a	a	n/a
643.8175	0.0895	1287635	keystroke_s	s	n/a
644.987	0.1495	1289974	keystroke_i	i	n/a
645.0775	0.179	1290155	keystroke_o	o	n/a
645.1815	0.136	1290363	keystroke_n	n	n/a
645.3915	0.075	1290783	keystroke_Key.space	Key.space	n/a
645.6165	0.09	1291233	keystroke_b	b	n/a
645.7215	0.091	1291443	keystroke_a	a	n/a
645.917	0.06	1291834	keystroke_t	t	n/a
646.052	0.105	1292104	keystroke_t	t	n/a
646.172	0.135	1292344	keystroke_e	e	n/a
646.262	0.135	1292524	keystroke_r	r	n/a
646.382	0.09	1292764	keystroke_e	e	n/a
646.517	0.075	1293034	keystroke_i	i	n/a
646.667	0.09	1293334	keystroke_e	e	n/a
646.877	0.105	1293754	keystroke_s	s	n/a
647.252	0.045	1294504	keystroke_Key.backspace	Key.backspace	n/a
647.387	0.045	1294774	keystroke_Key.backspace	Key.backspace	n/a
