onset	duration	sample	value	key	prompt_text
12.058	10.608	24116	prompt	n/a	the quick brown fox jumps over a lazy dog\n
13.9505	0.043	27901	keystroke	t	n/a
13.9515	0.087	27903	keystroke	h	n/a
14.0835	0.195	28167	keystroke	e	n/a
14.2185	0.1645	28437	keystroke	Key.space	n/a
14.368	0.166	28736	keystroke	q	n/a
14.608	0.106	29216	keystroke	u	n/a
15.163	0.09	30326	keystroke	i	n/a
15.313	0.165	30626	keystroke	c	n/a
15.463	0.12	30926	keystroke	k	n/a
15.598	0.15	31196	keystroke	Key.space	n/a
15.914	0.014	31828	keystroke	b	n/a
16.049	0.149	32098	keystroke	r	n/a
16.183	0.105	32366	keystroke	o	n/a
16.303	0.1055	32606	keystroke	w	n/a
16.4235	0.075	32847	keystroke	n	n/a
16.5585	0.09	33117	keystroke	Key.space	n/a
16.7085	0.09	33417	keystroke	f	n/a
16.8285	0.105	33657	keystroke	o	n/a
16.9785	0.105	33957	keystroke	x	n/a
17.1285	0.1045	34257	keystroke	Key.space	n/a
17.218	0.105	34436	keystroke	j	n/a
17.413	0.06	34826	keystroke	u	n/a
17.6235	0.0745	35247	keystroke	m	n/a
17.848	0.0155	35696	keystroke	p	n/a
18.298	0.12	36596	keystroke	s	n/a
18.463	0.12	36926	keystroke	Key.space	n/a
18.704	0.135	37408	keystroke	o	n/a
18.779	0.09	37558	keystroke	v	n/a
19.034	0.1795	38068	keystroke	e	n/a
19.1835	0.12	38367	keystroke	r	n/a
20.4585	0.135	40917	keystroke	Key.space	n/a
20.6085	0.15	41217	keystroke	a	n/a
20.7285	0.12	41457	keystroke	Key.space	n/a
21.0885	0.12	42177	keystroke	l	n/a
21.2235	0.105	42447	keystroke	a	n/a
21.4485	0.135	42897	keystroke	z	n/a
21.6435	0.105	43287	keystroke	y	n/a
21.8235	0.105	43647	keystroke	Key.space	n/a
21.9735	0.09	43947	keystroke	d	n/a
22.0785	0.12	44157	keystroke	o	n/a
22.3335	0.09	44667	keystroke	g	n/a
22.588	0.075	45176	keystroke	Key.enter	n/a
22.6705	7.36	45341	prompt	n/a	given initiated provided hardware\n
23.458	0.105	46916	keystroke	g	n/a
23.593	0.12	47186	keystroke	i	n/a
23.758	0.12	47516	keystroke	v	n/a
23.923	0.1205	47846	keystroke	e	n/a
24.0135	0.0755	48027	keystroke	n	n/a
24.134	0.104	48268	keystroke	Key.space	n/a
24.268	0.09	48536	keystroke	i	n/a
24.853	0.075	49706	keystroke	n	n/a
25.078	0.0755	50156	keystroke	i	n/a
25.1985	0.105	50397	keystroke	t	n/a
25.3335	0.195	50667	keystroke	a	n/a
25.4985	0.135	50997	keystroke	t	n/a
25.5885	0.105	51177	keystroke	e	n/a
25.8585	0.1655	51717	keystroke	d	n/a
26.009	0.135	52018	keystroke	Key.space	n/a
26.429	0.12	52858	keystroke	p	n/a
26.5635	0.1355	53127	keystroke	r	n/a
26.684	0.105	53368	keystroke	o	n/a
26.879	0.104	53758	keystroke	v	n/a
27.2685	0.075	54537	keystroke	i	n/a
27.403	0.075	54806	keystroke	d	n/a
27.584	0.074	55168	keystroke	e	n/a
27.778	0.12	55556	keystroke	d	n/a
27.913	0.1205	55826	keystroke	Key.space	n/a
28.1685	0.09	56337	keystroke	h	n/a
28.2735	0.18	56547	keystroke	a	n/a
28.4085	0.12	56817	keystroke	r	n/a
28.693	0.106	57386	keystroke	d	n/a
28.934	0.074	57868	keystroke	w	n/a
29.023	0.1655	58046	keystroke	a	n/a
29.1735	0.1055	58347	keystroke	r	n/a
29.669	0.075	59338	keystroke	e	n/a
29.954	0.074	59908	keystroke	Key.enter	n/a
30.033	9.328	60066	prompt	n/a	inch outer relocation hybrid\n
30.629	0.06	61258	keystroke	i	n/a
30.809	0.06	61618	keystroke	n	n/a
30.9285	0.1505	61857	keystroke	c	n/a
31.094	0.06	62188	keystroke	h	n/a
31.2885	0.015	62577	keystroke	Key.space	n/a
31.394	0.1045	62788	keystroke	o	n/a
31.5735	0.075	63147	keystroke	u	n/a
31.7085	0.105	63417	keystroke	t	n/a
31.9485	0.135	63897	keystroke	e	n/a
32.0535	0.15	64107	keystroke	r	n/a
32.6985	0.105	65397	keystroke	Key.space	n/a
32.8635	0.135	65727	keystroke	r	n/a
33.3735	0.09	66747	keystroke	l	n/a
33.5685	0.09	67137	keystroke	o	n/a
34.6335	0.075	69267	keystroke	Key.backspace	n/a
35.0085	0.075	70017	keystroke	Key.backspace	n/a
35.2935	0.075	70587	keystroke	e	n/a
35.6385	0.075	71277	keystroke	l	n/a
35.8185	0.09	71637	keystroke	o	n/a
36.0135	0.165	72027	keystroke	c	n/a
36.1935	0.165	72387	keystroke	a	n/a
36.4035	0.105	72807	keystroke	t	n/a
36.5385	0.165	73077	keystroke	i	n/a
36.6585	0.18	73317	keystroke	o	n/a
36.7935	0.09	73587	keystroke	n	n/a
37.0635	0.105	74127	keystroke	Key.space	n/a
37.4685	0.075	74937	keystroke	h	n/a
37.6935	0.075	75387	keystroke	y	n/a
38.0085	0.09	76017	keystroke	b	n/a
38.5935	0.09	77187	keystroke	r	n/a
38.7135	0.105	77427	keystroke	i	n/a
38.954	0.075	77908	keystroke	d	n/a
39.254	0.105	78508	keystroke	Key.enter	n/a
39.3655	11.245	78731	prompt	n/a	advertisement descending contribute printed\n
40.064	0.135	80128	keystroke	a	n/a
40.334	0.105	80668	keystroke	d	n/a
40.5885	0.09	81177	keystroke	v	n/a
40.7985	0.15	81597	keystroke	e	n/a
40.9035	0.1195	81807	keystroke	r	n/a
41.1135	0.0445	82227	keystroke	i	n/a
42.4485	0.06	84897	keystroke	Key.backspace	n/a
42.7635	0.105	85527	keystroke	t	n/a
43.0485	0.015	86097	keystroke	i	n/a
43.1085	0.15	86217	keystroke	s	n/a
43.2435	0.105	86487	keystroke	e	n/a
43.4535	0.075	86907	keystroke	m	n/a
43.5585	0.165	87117	keystroke	e	n/a
43.7085	0.06	87417	keystroke	n	n/a
43.8585	0.135	87717	keystroke	t	n/a
44.0835	0.105	88167	keystroke	Key.space	n/a
44.608	0.09	89216	keystroke	d	n/a
44.848	0.075	89696	keystroke	e	n/a
45.133	0.121	90266	keystroke	s	n/a
45.3285	0.1795	90657	keystroke	c	n/a
45.509	0.119	91018	keystroke	e	n/a
45.644	0.089	91288	keystroke	n	n/a
46.183	0.12	92366	keystroke	d	n/a
46.3185	0.09	92637	keystroke	i	n/a
46.5285	0.0745	93057	keystroke	n	n/a
46.619	0.164	93238	keystroke	g	n/a
46.768	0.15	93536	keystroke	Key.space	n/a
47.083	0.121	94166	keystroke	c	n/a
47.384	0.089	94768	keystroke	o	n/a
47.549	0.075	95098	keystroke	n	n/a
47.744	0.1045	95488	keystroke	t	n/a
47.9835	0.09	95967	keystroke	r	n/a
48.089	0.0895	96178	keystroke	i	n/a
48.2835	0.12	96567	keystroke	b	n/a
48.4045	0.074	96809	keystroke	u	n/a
48.599	0.15	97198	keystroke	t	n/a
48.734	0.165	97468	keystroke	e	n/a
48.914	0.135	97828	keystroke	Key.space	n/a
49.3035	0.075	98607	keystroke	p	n/a
49.4385	0.105	98877	keystroke	r	n/a
49.5585	0.09	99117	keystroke	i	n/a
49.7535	0.075	99507	keystroke	n	n/a
49.8135	0.15	99627	keystroke	t	n/a
49.9185	0.135	99837	keystroke	e	n/a
50.1885	0.09	100377	keystroke	d	n/a
50.5185	0.09	101037	keystroke	Key.enter	n/a
50.6135	15.8225	101227	prompt	n/a	generally imaging determining history\n
51.5535	0.1055	103107	keystroke	g	n/a
51.824	0.1495	103648	keystroke	e	n/a
52.1835	0.075	104367	keystroke	n	n/a
52.4085	0.1955	104817	keystroke	e	n/a
52.619	0.09	105238	keystroke	r	n/a
52.919	0.135	105838	keystroke	a	n/a
53.114	0.045	106228	keystroke	l	n/a
53.249	0.075	106498	keystroke	l	n/a
53.459	0.09	106918	keystroke	y	n/a
53.609	0.12	107218	keystroke	Key.space	n/a
53.744	0.075	107488	keystroke	i	n/a
53.984	0.12	107968	keystroke	m	n/a
54.3285	0.15	108657	keystroke	a	n/a
54.539	0.0745	109078	keystroke	g	n/a
54.7185	0.075	109437	keystroke	i	n/a
54.8995	0.074	109799	keystroke	n	n/a
54.9885	0.12	109977	keystroke	g	n/a
55.0935	0.12	110187	keystroke	Key.space	n/a
55.3485	0.105	110697	keystroke	d	n/a
55.6035	0.121	111207	keystroke	e	n/a
55.949	0.12	111898	keystroke	t	n/a
56.084	0.195	112168	keystroke	e	n/a
56.249	0.105	112498	keystroke	r	n/a
56.399	0.075	112798	keystroke	m	n/a
56.5335	0.105	113067	keystroke	i	n/a
56.7435	0.075	113487	keystroke	n	n/a
57.0585	0.12	114117	keystroke	g	n/a
57.284	0.1045	114568	keystroke	Key.space	n/a
58.7835	0.075	117567	keystroke	Key.backspace	n/a
59.6985	0.06	119397	keystroke	Key.backspace	n/a
64.321	0.001	128642	keystroke	i	n/a
64.439	0.075	128878	keystroke	n	n/a
64.7235	0.09	129447	keystroke	g	n/a
64.9335	0.105	129867	keystroke	Key.space	n/a
65.2635	0.075	130527	keystroke	h	n/a
65.5045	0.015	131009	keystroke	i	n/a
65.5345	0.12	131069	keystroke	s	n/a
65.7145	0.09	131429	keystroke	t	n/a
65.8345	0.12	131669	keystroke	o	n/a
65.9545	0.075	131909	keystroke	r	n/a
66.0895	0.075	132179	keystroke	y	n/a
66.3745	0.06	132749	keystroke	Key.enter	n/a
66.439	10.842	132878	prompt	n/a	trinity cheapest employ necessarily\n
67.184	0.09	134368	keystroke	t	n/a
67.694	0.09	135388	keystroke	r	n/a
67.8435	0.075	135687	keystroke	i	n/a
68.0385	0.075	136077	keystroke	n	n/a
68.2035	0.105	136407	keystroke	i	n/a
68.3385	0.09	136677	keystroke	t	n/a
68.4585	0.075	136917	keystroke	y	n/a
68.624	0.12	137248	keystroke	Key.space	n/a
68.909	0.12	137818	keystroke	c	n/a
69.014	0.09	138028	keystroke	h	n/a
69.479	0.0745	138958	keystroke	e	n/a
69.599	0.135	139198	keystroke	a	n/a
69.779	0.09	139558	keystroke	p	n/a
69.914	0.18	139828	keystroke	e	n/a
70.109	0.18	140218	keystroke	s	n/a
70.319	0.135	140638	keystroke	t	n/a
70.499	0.1345	140998	keystroke	Key.space	n/a
70.6945	0.104	141389	keystroke	e	n/a
70.8585	0.1055	141717	keystroke	m	n/a
71.099	0.105	142198	keystroke	p	n/a
71.339	0.105	142678	keystroke	l	n/a
72.059	0.09	144118	keystroke	o	n/a
72.239	0.0745	144478	keystroke	y	n/a
72.3735	0.12	144747	keystroke	Key.space	n/a
72.7485	0.09	145497	keystroke	n	n/a
73.5735	0.151	147147	keystroke	e	n/a
73.8295	0.165	147659	keystroke	c	n/a
74.0235	0.106	148047	keystroke	e	n/a
74.2035	0.105	148407	keystroke	s	n/a
74.384	0.06	148768	keystroke	s	n/a
74.6085	0.1805	149217	keystroke	a	n/a
76.2885	0.0905	152577	keystroke	r	n/a
76.544	0.0745	153088	keystroke	i	n/a
76.6935	0.1055	153387	keystroke	l	n/a
76.8885	0.0605	153777	keystroke	y	n/a
77.189	0.09	154378	keystroke	Key.enter	n/a
77.285	10.0755	154570	prompt	n/a	asks taught industries fireplace\n
77.9395	0.105	155879	keystroke	a	n/a
78.0745	0.119	156149	keystroke	s	n/a
78.2385	0.09	156477	keystroke	k	n/a
78.3735	0.12	156747	keystroke	s	n/a
78.5235	0.135	157047	keystroke	Key.space	n/a
78.8395	0.09	157679	keystroke	t	n/a
79.499	0.135	158998	keystroke	a	n/a
79.679	0.105	159358	keystroke	u	n/a
80.1145	0.074	160229	keystroke	g	n/a
80.2645	0.06	160529	keystroke	h	n/a
80.4885	0.12	160977	keystroke	Key.space	n/a
80.7285	0.075	161457	keystroke	i	n/a
80.9095	0.074	161819	keystroke	n	n/a
81.6135	0.075	163227	keystroke	Key.backspace	n/a
82.049	0.045	164098	keystroke	Key.backspace	n/a
82.6495	0.06	165299	keystroke	Key.backspace	n/a
82.9195	0.089	165839	keystroke	t	n/a
83.159	0.1495	166318	keystroke	Key.space	n/a
83.3695	0.09	166739	keystroke	i	n/a
83.5795	0.075	167159	keystroke	n	n/a
83.8345	0.075	167669	keystroke	d	n/a
83.9995	0.075	167999	keystroke	u	n/a
84.1645	0.15	168329	keystroke	s	n/a
84.3295	0.1045	168659	keystroke	t	n/a
84.5545	0.089	169109	keystroke	r	n/a
84.6735	0.076	169347	keystroke	i	n/a
84.7635	0.18	169527	keystroke	e	n/a
84.9285	0.135	169857	keystroke	s	n/a
85.2285	0.09	170457	keystroke	Key.space	n/a
85.6185	0.135	171237	keystroke	f	n/a
85.8135	0.105	171627	keystroke	i	n/a
85.904	0.1495	171808	keystroke	r	n/a
86.0085	0.12	172017	keystroke	e	n/a
86.4435	0.1055	172887	keystroke	p	n/a
86.654	0.1055	173308	keystroke	l	n/a
86.729	0.1505	173458	keystroke	a	n/a
86.9095	0.195	173819	keystroke	c	n/a
87.089	0.075	174178	keystroke	e	n/a
87.284	0.075	174568	keystroke	Key.enter	n/a
87.3655	9.715	174731	prompt	n/a	we'd've cache generations oscar\n
88.004	0.12	176008	keystroke	w	n/a
88.169	0.09	176338	keystroke	e	n/a
88.8745	0.09	177749	keystroke	'	n/a
89.2795	0.105	178559	keystroke	d	n/a
90.5535	0.09	181107	keystroke	'	n/a
90.8535	0.135	181707	keystroke	v	n/a
91.0785	0.12	182157	keystroke	e	n/a
91.2285	0.1355	182457	keystroke	Key.space	n/a
91.949	0.195	183898	keystroke	c	n/a
92.129	0.135	184258	keystroke	a	n/a
92.474	0.1205	184948	keystroke	c	n/a
92.6095	0.075	185219	keystroke	h	n/a
92.7145	0.12	185429	keystroke	e	n/a
92.8485	0.12	185697	keystroke	Key.space	n/a
93.2845	0.075	186569	keystroke	g	n/a
93.5545	0.104	187109	keystroke	e	n/a
93.6745	0.075	187349	keystroke	n	n/a
93.8095	0.24	187619	keystroke	e	n/a
93.9595	0.105	187919	keystroke	r	n/a
94.169	0.165	188338	keystroke	a	n/a
94.349	0.12	188698	keystroke	t	n/a
94.484	0.165	188968	keystroke	i	n/a
94.5885	0.1805	189177	keystroke	o	n/a
94.769	0.105	189538	keystroke	n	n/a
94.904	0.135	189808	keystroke	s	n/a
95.054	0.15	190108	keystroke	Key.space	n/a
95.7745	0.135	191549	keystroke	o	n/a
96.2545	0.105	192509	keystroke	s	n/a
96.479	0.1505	192958	keystroke	c	n/a
96.6145	0.179	193229	keystroke	a	n/a
96.7935	0.1055	193587	keystroke	r	n/a
97.004	0.075	194008	keystroke	Key.enter	n/a
97.0835	16.557	194167	prompt	n/a	info front pichunter prominent\n
97.664	0.06	195328	keystroke	i	n/a
97.829	0.075	195658	keystroke	n	n/a
97.919	0.12	195838	keystroke	f	n/a
98.054	0.075	196108	keystroke	o	n/a
98.144	0.105	196288	keystroke	Key.space	n/a
98.294	0.105	196588	keystroke	f	n/a
98.504	0.105	197008	keystroke	r	n/a
98.624	0.09	197248	keystroke	o	n/a
98.999	0.075	197998	keystroke	n	n/a
99.134	0.12	198268	keystroke	t	n/a
99.314	0.1495	198628	keystroke	Key.space	n/a
99.7195	0.119	199439	keystroke	p	n/a
100.124	0.06	200248	keystroke	i	n/a
100.3335	0.06	200667	keystroke	n	n/a
100.5585	0.18	201117	keystroke	c	n/a
101.2195	0.09	202439	keystroke	h	n/a
101.4295	0.075	202859	keystroke	u	n/a
101.6395	0.075	203279	keystroke	n	n/a
101.7895	0.18	203579	keystroke	t	n/a
101.9845	0.24	203969	keystroke	e	n/a
102.2245	0.135	204449	keystroke	r	n/a
102.4645	0.12	204929	keystroke	Key.space	n/a
102.6295	0.135	205259	keystroke	p	n/a
103.6045	0.089	207209	keystroke	Key.backspace	n/a
104.0385	0.075	208077	keystroke	Key.backspace	n/a
105.914	0.075	211828	keystroke	Key.backspace	n/a
106.364	0.075	212728	keystroke	Key.backspace	n/a
106.8285	0.075	213657	keystroke	Key.backspace	n/a
107.3395	0.075	214679	keystroke	Key.backspace	n/a
107.8645	0.06	215729	keystroke	Key.backspace	n/a
108.3445	0.075	216689	keystroke	Key.backspace	n/a
108.8535	0.06	217707	keystroke	Key.backspace	n/a
109.3045	0.06	218609	keystroke	Key.backspace	n/a
110.069	0.135	220138	keystroke	c	n/a
110.234	0.09	220468	keystroke	h	n/a
110.654	0.06	221308	keystroke	u	n/a
110.849	0.0745	221698	keystroke	n	n/a
110.9685	0.135	221937	keystroke	t	n/a
111.1185	0.21	222237	keystroke	e	n/a
111.3295	0.119	222659	keystroke	r	n/a
111.5835	0.1205	223167	keystroke	Key.space	n/a
111.8845	0.105	223769	keystroke	p	n/a
112.0945	0.105	224189	keystroke	r	n/a
112.2145	0.105	224429	keystroke	o	n/a
112.4845	0.0745	224969	keystroke	m	n/a
112.619	0.09	225238	keystroke	i	n/a
112.784	0.075	225568	keystroke	n	n/a
112.979	0.135	225958	keystroke	e	n/a
113.129	0.09	226258	keystroke	n	n/a
113.279	0.105	226558	keystroke	t	n/a
113.5635	0.075	227127	keystroke	Key.enter	n/a
113.6435	9.312	227287	prompt	n/a	confident cancer slope jokes\n
114.344	0.135	228688	keystroke	c	n/a
114.4795	0.1195	228959	keystroke	o	n/a
114.6885	0.105	229377	keystroke	n	n/a
115.1995	0.105	230399	keystroke	d	n/a
115.3345	0.09	230669	keystroke	i	n/a
116.5645	0.105	233129	keystroke	Key.backspace	n/a
117.4185	0.045	234837	keystroke	Key.backspace	n/a
117.8995	0.104	235799	keystroke	f	n/a
118.1085	0.09	236217	keystroke	i	n/a
118.2435	0.09	236487	keystroke	d	n/a
118.4385	0.15	236877	keystroke	e	n/a
118.5285	0.09	237057	keystroke	n	n/a
118.694	0.135	237388	keystroke	t	n/a
118.9195	0.12	237839	keystroke	Key.space	n/a
119.3095	0.15	238619	keystroke	c	n/a
119.4595	0.165	238919	keystroke	a	n/a
119.6095	0.075	239219	keystroke	n	n/a
120.0595	0.135	240119	keystroke	c	n/a
120.2095	0.165	240419	keystroke	e	n/a
120.3145	0.195	240629	keystroke	r	n/a
120.4945	0.1645	240989	keystroke	Key.space	n/a
120.689	0.105	241378	keystroke	s	n/a
120.824	0.12	241648	keystroke	l	n/a
121.049	0.135	242098	keystroke	o	n/a
121.169	0.135	242338	keystroke	p	n/a
121.4985	0.12	242997	keystroke	e	n/a
121.6485	0.12	243297	keystroke	Key.space	n/a
121.904	0.0895	243808	keystroke	j	n/a
122.129	0.0895	244258	keystroke	o	n/a
122.3385	0.1355	244677	keystroke	k	n/a
122.459	0.1355	244918	keystroke	e	n/a
122.6395	0.135	245279	keystroke	s	n/a
122.8795	0.075	245759	keystroke	Key.enter	n/a
122.9585	7.692	245917	prompt	n/a	cialis exceed fraction hack\n
123.824	0.12	247648	keystroke	c	n/a
123.989	0.09	247978	keystroke	i	n/a
124.334	0.12	248668	keystroke	a	n/a
124.7845	0.1045	249569	keystroke	l	n/a
124.964	0.075	249928	keystroke	i	n/a
125.084	0.12	250168	keystroke	s	n/a
125.234	0.15	250468	keystroke	Key.space	n/a
125.4895	0.09	250979	keystroke	e	n/a
127.049	0.09	254098	keystroke	x	n/a
127.229	0.135	254458	keystroke	c	n/a
127.439	0.075	254878	keystroke	e	n/a
127.589	0.075	255178	keystroke	e	n/a
127.814	0.165	255628	keystroke	d	n/a
127.964	0.135	255928	keystroke	Key.space	n/a
128.2195	0.12	256439	keystroke	f	n/a
128.4445	0.1195	256889	keystroke	r	n/a
128.549	0.18	257098	keystroke	a	n/a
128.954	0.105	257908	keystroke	c	n/a
129.179	0.135	258358	keystroke	t	n/a
129.299	0.195	258598	keystroke	i	n/a
129.449	0.12	258898	keystroke	o	n/a
129.554	0.12	259108	keystroke	n	n/a
129.675	0.104	259350	keystroke	Key.space	n/a
129.824	0.105	259648	keystroke	h	n/a
129.914	0.135	259828	keystroke	a	n/a
130.109	0.18	260218	keystroke	c	n/a
130.304	0.105	260608	keystroke	k	n/a
130.5895	0.06	261179	keystroke	Key.enter	n/a
130.6535	9.942	261307	prompt	n/a	merchants self disclaimer spray\n
131.3095	0.105	262619	keystroke	m	n/a
131.6995	0.15	263399	keystroke	e	n/a
131.8195	0.105	263639	keystroke	r	n/a
132.1045	0.1645	264209	keystroke	c	n/a
132.2545	0.0745	264509	keystroke	h	n/a
132.374	0.165	264748	keystroke	a	n/a
132.479	0.075	264958	keystroke	n	n/a
132.629	0.09	265258	keystroke	t	n/a
132.824	0.15	265648	keystroke	s	n/a
133.004	0.105	266008	keystroke	Key.space	n/a
133.184	0.135	266368	keystroke	s	n/a
133.334	0.09	266668	keystroke	e	n/a
133.469	0.105	266938	keystroke	l	n/a
133.589	0.1505	267178	keystroke	f	n/a
133.7695	0.1195	267539	keystroke	Key.space	n/a
134.054	0.105	268108	keystroke	d	n/a
134.249	0.09	268498	keystroke	i	n/a
134.384	0.12	268768	keystroke	s	n/a
134.564	0.135	269128	keystroke	c	n/a
135.179	0.105	270358	keystroke	l	n/a
135.404	0.12	270808	keystroke	a	n/a
135.569	0.09	271138	keystroke	m	n/a
136.259	0.09	272518	keystroke	i	n/a
137.579	0.105	275158	keystroke	Key.backspace	n/a
137.9845	0.09	275969	keystroke	Key.backspace	n/a
138.5395	0.06	277079	keystroke	i	n/a
138.6895	0.09	277379	keystroke	m	n/a
138.8245	0.15	277649	keystroke	e	n/a
138.9445	0.15	277889	keystroke	r	n/a
139.1695	0.135	278339	keystroke	Key.space	n/a
139.5445	0.12	279089	keystroke	s	n/a
139.7245	0.105	279449	keystroke	p	n/a
139.9345	0.135	279869	keystroke	r	n/a
140.1145	0.18	280229	keystroke	a	n/a
140.2795	0.075	280559	keystroke	y	n/a
140.5645	0.03	281129	keystroke	Key.enter	n/a
140.5985	6.4175	281197	prompt	n/a	given commodity shade freedom\n
141.2695	0.09	282539	keystroke	g	n/a
141.3745	0.09	282749	keystroke	i	n/a
141.4795	0.12	282959	keystroke	v	n/a
141.6745	0.135	283349	keystroke	e	n/a
141.7945	0.045	283589	keystroke	n	n/a
141.9145	0.105	283829	keystroke	Key.space	n/a
142.3645	0.15	284729	keystroke	c	n/a
142.5295	0.06	285059	keystroke	o	n/a
142.7095	0.06	285419	keystroke	m	n/a
142.8745	0.06	285749	keystroke	m	n/a
143.2485	0.09	286497	keystroke	o	n/a
143.474	0.1055	286948	keystroke	d	n/a
143.6545	0.105	287309	keystroke	i	n/a
143.8195	0.09	287639	keystroke	t	n/a
143.9545	0.074	287909	keystroke	y	n/a
144.1035	0.135	288207	keystroke	Key.space	n/a
144.3445	0.105	288689	keystroke	s	n/a
144.5095	0.0745	289019	keystroke	h	n/a
144.629	0.135	289258	keystroke	a	n/a
144.914	0.09	289828	keystroke	d	n/a
145.109	0.105	290218	keystroke	e	n/a
145.379	0.135	290758	keystroke	Key.space	n/a
145.664	0.12	291328	keystroke	f	n/a
145.904	0.12	291808	keystroke	r	n/a
146.009	0.045	292018	keystroke	e	n/a
146.129	0.105	292258	keystroke	e	n/a
146.339	0.09	292678	keystroke	d	n/a
146.444	0.09	292888	keystroke	o	n/a
146.654	0.075	293308	keystroke	m	n/a
146.94	0.075	293880	keystroke	Key.enter	n/a
147.0195	9.401	294039	prompt	n/a	discussing recommendations playlist warranties\n
147.689	0.105	295378	keystroke	d	n/a
147.884	0.09	295768	keystroke	i	n/a
148.034	0.105	296068	keystroke	s	n/a
148.244	0.135	296488	keystroke	c	n/a
148.364	0.075	296728	keystroke	u	n/a
148.5145	0.075	297029	keystroke	s	n/a
148.6645	0.105	297329	keystroke	s	n/a
148.8145	0.09	297629	keystroke	i	n/a
149.0245	0.075	298049	keystroke	n	n/a
149.1445	0.105	298289	keystroke	g	n/a
149.3395	0.12	298679	keystroke	Key.space	n/a
149.6695	0.12	299339	keystroke	r	n/a
149.8795	0.1345	299759	keystroke	e	n/a
150.1795	0.15	300359	keystroke	c	n/a
150.3595	0.105	300719	keystroke	o	n/a
150.5845	0.06	301169	keystroke	m	n/a
150.7345	0.06	301469	keystroke	m	n/a
150.8545	0.135	301709	keystroke	e	n/a
151.0045	0.06	302009	keystroke	n	n/a
151.2895	0.045	302579	keystroke	d	n/a
151.3495	0.15	302699	keystroke	a	n/a
151.6045	0.09	303209	keystroke	t	n/a
151.7245	0.195	303449	keystroke	i	n/a
151.8745	0.135	303749	keystroke	o	n/a
151.9795	0.135	303959	keystroke	n	n/a
152.1595	0.12	304319	keystroke	s	n/a
152.3995	0.12	304799	keystroke	Key.space	n/a
152.789	0.12	305578	keystroke	p	n/a
153.06	0.089	306120	keystroke	l	n/a
153.209	0.135	306418	keystroke	a	n/a
153.359	0.06	306718	keystroke	y	n/a
153.7195	0.105	307439	keystroke	l	n/a
153.8845	0.09	307769	keystroke	i	n/a
153.9895	0.165	307979	keystroke	s	n/a
154.1695	0.135	308339	keystroke	t	n/a
154.3345	0.15	308669	keystroke	Key.space	n/a
154.6195	0.09	309239	keystroke	w	n/a
154.7695	0.105	309539	keystroke	a	n/a
154.9195	0.09	309839	keystroke	r	n/a
155.1295	0.0595	310259	keystroke	r	n/a
155.399	0.1505	310798	keystroke	a	n/a
155.5645	0.075	311129	keystroke	n	n/a
155.6995	0.09	311399	keystroke	t	n/a
155.8495	0.105	311699	keystroke	i	n/a
155.9545	0.165	311909	keystroke	e	n/a
156.1205	0.104	312241	keystroke	s	n/a
156.3445	0.075	312689	keystroke	Key.enter	n/a
156.424	10.617	312848	prompt	n/a	shoe beside refer outdoors\n
157.3195	0.075	314639	keystroke	s	n/a
157.5145	0.06	315029	keystroke	h	n/a
157.6345	0.12	315269	keystroke	o	n/a
157.8295	0.135	315659	keystroke	e	n/a
158.0245	0.135	316049	keystroke	Key.space	n/a
158.369	0.091	316738	keystroke	b	n/a
158.5945	0.075	317189	keystroke	e	n/a
158.7895	0.105	317579	keystroke	d	n/a
159.524	0.105	319048	keystroke	Key.backspace	n/a
159.734	0.09	319468	keystroke	s	n/a
159.899	0.015	319798	keystroke	o	n/a
160.004	0.09	320008	keystroke	d	n/a
160.8295	0.06	321659	keystroke	Key.backspace	n/a
161.3245	0.045	322649	keystroke	Key.backspace	n/a
161.9695	0.09	323939	keystroke	i	n/a
162.0745	0.09	324149	keystroke	d	n/a
162.2545	0.105	324509	keystroke	e	n/a
162.3895	0.15	324779	keystroke	Key.space	n/a
162.5995	0.135	325199	keystroke	r	n/a
162.6895	0.12	325379	keystroke	e	n/a
162.9745	0.1195	325949	keystroke	f	n/a
163.169	0.165	326338	keystroke	e	n/a
163.259	0.15	326518	keystroke	r	n/a
163.544	0.135	327088	keystroke	Key.space	n/a
163.919	0.12	327838	keystroke	o	n/a
164.0695	0.09	328139	keystroke	u	n/a
164.2195	0.075	328439	keystroke	t	n/a
164.5345	0.075	329069	keystroke	f	n/a
164.6845	0.09	329369	keystroke	o	n/a
165.4045	0.075	330809	keystroke	Key.backspace	n/a
165.8245	0.06	331649	keystroke	Key.backspace	n/a
166.0795	0.105	332159	keystroke	d	n/a
166.2295	0.075	332459	keystroke	o	n/a
166.4095	0.06	332819	keystroke	o	n/a
166.5445	0.105	333089	keystroke	r	n/a
166.7545	0.105	333509	keystroke	s	n/a
166.9645	0.075	333929	keystroke	Key.enter	n/a
167.044	8.172	334088	prompt	n/a	base manga method recipe\n
167.999	0.15	335998	keystroke	b	n/a
168.224	0.135	336448	keystroke	a	n/a
168.419	0.15	336838	keystroke	s	n/a
168.554	0.12	337108	keystroke	e	n/a
168.704	0.135	337408	keystroke	Key.space	n/a
168.854	0.105	337708	keystroke	m	n/a
168.944	0.1505	337888	keystroke	a	n/a
169.0795	0.06	338159	keystroke	n	n/a
169.4995	0.075	338999	keystroke	g	n/a
169.9045	0.15	339809	keystroke	a	n/a
170.1145	0.12	340229	keystroke	Key.space	n/a
170.2945	0.12	340589	keystroke	m	n/a
170.4295	0.135	340859	keystroke	e	n/a
170.8345	0.09	341669	keystroke	t	n/a
170.9845	0.075	341969	keystroke	h	n/a
171.3745	0.105	342749	keystroke	o	n/a
171.4945	0.165	342989	keystroke	d	n/a
171.6595	0.1355	343319	keystroke	Key.space	n/a
171.9445	0.195	343889	keystroke	r	n/a
172.1545	0.12	344309	keystroke	e	n/a
172.4245	0.1645	344849	keystroke	c	n/a
172.619	0.075	345238	keystroke	i	n/a
173.084	0.075	346168	keystroke	p	n/a
173.2345	0.1195	346469	keystroke	t	n/a
174.5095	0.075	349019	keystroke	Key.backspace	n/a
174.8395	0.0895	349679	keystroke	e	n/a
175.154	0.0605	350308	keystroke	Key.enter	n/a
175.2195	6.1315	350439	prompt	n/a	wise stores planes scenes\n
176.0545	0.105	352109	keystroke	w	n/a
176.2045	0.09	352409	keystroke	i	n/a
176.3395	0.15	352679	keystroke	s	n/a
176.4745	0.12	352949	keystroke	e	n/a
176.7295	0.09	353459	keystroke	Key.space	n/a
177.1045	0.1355	354209	keystroke	s	n/a
177.2695	0.135	354539	keystroke	t	n/a
177.4495	0.12	354899	keystroke	o	n/a
177.5995	0.105	355199	keystroke	r	n/a
177.6295	0.165	355259	keystroke	e	n/a
177.8395	0.15	355679	keystroke	s	n/a
178.0045	0.1205	356009	keystroke	Key.space	n/a
178.2	0.105	356400	keystroke	p	n/a
178.38	0.135	356760	keystroke	l	n/a
178.53	0.1195	357060	keystroke	a	n/a
178.6495	0.09	357299	keystroke	n	n/a
178.7545	0.18	357509	keystroke	e	n/a
178.9045	0.151	357809	keystroke	s	n/a
179.1595	0.12	358319	keystroke	Key.space	n/a
179.4295	0.12	358859	keystroke	s	n/a
179.6995	0.15	359399	keystroke	c	n/a
179.9395	0.1345	359879	keystroke	e	n/a
180.119	0.045	360238	keystroke	n	n/a
180.8545	0.0895	361709	keystroke	e	n/a
181.0495	0.1045	362099	keystroke	s	n/a
181.259	0.09	362518	keystroke	Key.enter	n/a
181.354	9.342	362708	prompt	n/a	brochures quad classifieds chess\n
182.129	0.135	364258	keystroke	b	n/a
182.429	0.1205	364858	keystroke	r	n/a
182.939	0.075	365878	keystroke	o	n/a
183.134	0.1505	366268	keystroke	c	n/a
183.299	0.06	366598	keystroke	h	n/a
183.4945	0.06	366989	keystroke	u	n/a
183.6745	0.105	367349	keystroke	r	n/a
183.8695	0.105	367739	keystroke	e	n/a
184.2145	0.12	368429	keystroke	s	n/a
184.3645	0.1355	368729	keystroke	Key.space	n/a
184.7995	0.105	369599	keystroke	q	n/a
185.0095	0.075	370019	keystroke	u	n/a
185.2045	0.1355	370409	keystroke	a	n/a
185.4295	0.15	370859	keystroke	d	n/a
185.6095	0.12	371219	keystroke	Key.space	n/a
185.8045	0.12	371609	keystroke	c	n/a
186.1945	0.105	372389	keystroke	l	n/a
186.3595	0.15	372719	keystroke	a	n/a
186.869	0.075	373738	keystroke	s	n/a
187.064	0.075	374128	keystroke	s	n/a
188.1745	0.075	376349	keystroke	i	n/a
188.4295	0.1045	376859	keystroke	f	n/a
188.595	0.09	377190	keystroke	i	n/a
188.7	0.12	377400	keystroke	e	n/a
188.97	0.09	377940	keystroke	d	n/a
189.164	0.09	378328	keystroke	s	n/a
189.314	0.12	378628	keystroke	Key.space	n/a
189.705	0.12	379410	keystroke	c	n/a
189.87	0.015	379740	keystroke	h	n/a
190.005	0.135	380010	keystroke	e	n/a
190.215	0.09	380430	keystroke	s	n/a
190.35	0.075	380700	keystroke	s	n/a
190.62	0.074	381240	keystroke	Key.enter	n/a
190.7	8.411	381400	prompt	n/a	ozone apparent manual warehouse\n
191.3845	0.105	382769	keystroke	o	n/a
191.9395	0.105	383879	keystroke	z	n/a
192.1195	0.09	384239	keystroke	o	n/a
192.2695	0.105	384539	keystroke	n	n/a
192.3895	0.15	384779	keystroke	e	n/a
192.5695	0.135	385139	keystroke	Key.space	n/a
192.8245	0.135	385649	keystroke	a	n/a
193.0345	0.06	386069	keystroke	p	n/a
193.1845	0.105	386369	keystroke	p	n/a
193.3345	0.165	386669	keystroke	a	n/a
193.4845	0.12	386969	keystroke	r	n/a
193.649	0.165	387298	keystroke	e	n/a
193.799	0.0905	387598	keystroke	n	n/a
193.9495	0.135	387899	keystroke	t	n/a
194.1445	0.12	388289	keystroke	Key.space	n/a
194.3695	0.09	388739	keystroke	m	n/a
194.5195	0.075	389039	keystroke	a	n/a
194.6095	0.09	389219	keystroke	n	n/a
194.8795	0.045	389759	keystroke	u	n/a
195.06	0.135	390120	keystroke	a	n/a
195.225	0.09	390450	keystroke	l	n/a
195.329	0.12	390658	keystroke	Key.space	n/a
196.155	0.105	392310	keystroke	w	n/a
196.305	0.165	392610	keystroke	a	n/a
196.454	0.1205	392908	keystroke	r	n/a
196.53	0.1195	393060	keystroke	e	n/a
196.7395	0.09	393479	keystroke	h	n/a
196.9045	0.06	393809	keystroke	a	n/a
197.61	0.119	395220	keystroke	Key.backspace	n/a
198.375	0.165	396750	keystroke	o	n/a
198.525	0.0745	397050	keystroke	u	n/a
198.6745	0.18	397349	keystroke	s	n/a
198.8095	0.12	397619	keystroke	e	n/a
199.0345	0.075	398069	keystroke	Key.enter	n/a
199.116	16.09	398232	prompt	n/a	accuracy highways ampland jurisdiction\n
199.769	0.15	399538	keystroke	a	n/a
199.979	0.105	399958	keystroke	c	n/a
200.144	0.106	400288	keystroke	c	n/a
200.3695	0.09	400739	keystroke	u	n/a
200.4895	0.1045	400979	keystroke	r	n/a
200.64	0.18	401280	keystroke	a	n/a
200.85	0.165	401700	keystroke	c	n/a
201.105	0.045	402210	keystroke	y	n/a
201.209	0.12	402418	keystroke	Key.space	n/a
201.375	0.09	402750	keystroke	h	n/a
201.524	0.09	403048	keystroke	i	n/a
201.69	0.089	403380	keystroke	g	n/a
201.765	0.059	403530	keystroke	h	n/a
201.945	0.074	403890	keystroke	w	n/a
202.079	0.151	404158	keystroke	a	n/a
202.289	0.076	404578	keystroke	y	n/a
202.455	0.134	404910	keystroke	s	n/a
202.604	0.135	405208	keystroke	Key.space	n/a
202.89	0.164	405780	keystroke	a	n/a
203.07	0.104	406140	keystroke	m	n/a
203.324	0.105	406648	keystroke	p	n/a
204.374	0.075	408748	keystroke	l	n/a
204.51	0.135	409020	keystroke	a	n/a
204.66	0.075	409320	keystroke	n	n/a
204.78	0.1645	409560	keystroke	d	n/a
204.9295	0.135	409859	keystroke	Key.space	n/a
206.085	0.075	412170	keystroke	Key.backspace	n/a
209.852	0.073	419704	keystroke	Key.space	n/a
212.342	0.013	424684	keystroke	j	n/a
212.49	0.0745	424980	keystroke	u	n/a
212.9995	0.12	425999	keystroke	r	n/a
213.1645	0.075	426329	keystroke	i	n/a
213.465	0.12	426930	keystroke	s	n/a
213.975	0.1045	427950	keystroke	d	n/a
214.1095	0.09	428219	keystroke	i	n/a
214.3345	0.135	428669	keystroke	c	n/a
214.5745	0.105	429149	keystroke	t	n/a
214.6195	0.18	429239	keystroke	i	n/a
214.7845	0.12	429569	keystroke	o	n/a
214.8595	0.12	429719	keystroke	n	n/a
215.1445	0.06	430289	keystroke	Key.enter	n/a
215.209	6.7325	430418	prompt	n/a	fate salvation engaged glucose\n
215.775	0.12	431550	keystroke	f	n/a
215.925	0.149	431850	keystroke	a	n/a
216.089	0.106	432178	keystroke	t	n/a
216.21	0.135	432420	keystroke	e	n/a
216.359	0.106	432718	keystroke	Key.space	n/a
216.51	0.1045	433020	keystroke	s	n/a
216.825	0.135	433650	keystroke	a	n/a
217.0495	0.0895	434099	keystroke	l	n/a
217.289	0.15	434578	keystroke	v	n/a
217.454	0.2115	434908	keystroke	a	n/a
217.6945	0.12	435389	keystroke	t	n/a
217.8295	0.18	435659	keystroke	i	n/a
217.9645	0.15	435929	keystroke	o	n/a
218.1005	0.104	436201	keystroke	n	n/a
218.2345	0.105	436469	keystroke	Key.space	n/a
218.4295	0.105	436859	keystroke	e	n/a
218.5045	0.0755	437009	keystroke	n	n/a
218.79	0.075	437580	keystroke	g	n/a
218.97	0.135	437940	keystroke	a	n/a
219.165	0.09	438330	keystroke	g	n/a
219.45	0.105	438900	keystroke	e	n/a
219.705	0.135	439410	keystroke	d	n/a
219.84	0.12	439680	keystroke	Key.space	n/a
220.395	0.09	440790	keystroke	g	n/a
220.665	0.12	441330	keystroke	l	n/a
220.905	0.09	441810	keystroke	u	n/a
221.3095	0.135	442619	keystroke	c	n/a
221.4145	0.09	442829	keystroke	o	n/a
221.5795	0.135	443159	keystroke	s	n/a
221.6845	0.105	443369	keystroke	e	n/a
221.8645	0.075	443729	keystroke	Key.enter	n/a
221.9455	6.9705	443891	prompt	n/a	lung absence dual beautiful\n
222.5695	0.12	445139	keystroke	l	n/a
222.7495	0.075	445499	keystroke	u	n/a
222.9595	0.075	445919	keystroke	n	n/a
223.0945	0.135	446189	keystroke	g	n/a
223.2305	0.134	446461	keystroke	Key.space	n/a
223.4095	0.1805	446819	keystroke	a	n/a
223.7995	0.12	447599	keystroke	b	n/a
224.5195	0.15	449039	keystroke	s	n/a
224.7295	0.12	449459	keystroke	e	n/a
224.925	0.09	449850	keystroke	n	n/a
225.15	0.165	450300	keystroke	c	n/a
225.285	0.135	450570	keystroke	e	n/a
225.435	0.09	450870	keystroke	Key.space	n/a
225.57	0.105	451140	keystroke	d	n/a
225.735	0.09	451470	keystroke	u	n/a
225.9	0.135	451800	keystroke	a	n/a
226.05	0.045	452100	keystroke	l	n/a
226.125	0.12	452250	keystroke	Key.space	n/a
226.635	0.09	453270	keystroke	b	n/a
226.905	0.12	453810	keystroke	e	n/a
227.04	0.15	454080	keystroke	a	n/a
227.205	0.075	454410	keystroke	u	n/a
228	0.12	456000	keystroke	t	n/a
228.15	0.105	456300	keystroke	i	n/a
228.3	0.12	456600	keystroke	f	n/a
228.42	0.09	456840	keystroke	u	n/a
228.57	0.09	457140	keystroke	l	n/a
228.84	0.075	457680	keystroke	Key.enter	n/a
228.919	6.7925	457838	prompt	n/a	whole holds brunette backup\n
229.5445	0.105	459089	keystroke	w	n/a
229.6645	0.075	459329	keystroke	h	n/a
229.8	0.105	459600	keystroke	o	n/a
229.98	0.105	459960	keystroke	l	n/a
230.085	0.15	460170	keystroke	e	n/a
230.235	0.105	460470	keystroke	Key.space	n/a
230.37	0.1055	460740	keystroke	h	n/a
230.5495	0.105	461099	keystroke	o	n/a
230.73	0.105	461460	keystroke	l	n/a
230.805	0.135	461610	keystroke	d	n/a
230.985	0.105	461970	keystroke	s	n/a
231.42	0.09	462840	keystroke	Key.space	n/a
231.825	0.105	463650	keystroke	b	n/a
232.08	0.12	464160	keystroke	r	n/a
232.245	0.06	464490	keystroke	u	n/a
232.44	0.075	464880	keystroke	n	n/a
232.545	0.1355	465090	keystroke	e	n/a
232.755	0.06	465510	keystroke	t	n/a
232.92	0.06	465840	keystroke	t	n/a
233.04	0.18	466080	keystroke	e	n/a
233.235	0.12	466470	keystroke	Key.space	n/a
233.595	0.09	467190	keystroke	b	n/a
233.715	0.165	467430	keystroke	a	n/a
233.895	0.15	467790	keystroke	c	n/a
234.03	0.105	468060	keystroke	k	n/a
234.255	0.15	468510	keystroke	u	n/a
234.435	0.0895	468870	keystroke	p	n/a
235.59	0.12	471180	keystroke	Key.enter	n/a
235.7145	4.947	471429	prompt	n/a	chase dame actions tell\n
236.445	0.15	472890	keystroke	c	n/a
236.67	0.075	473340	keystroke	h	n/a
236.775	0.135	473550	keystroke	a	n/a
236.94	0.195	473880	keystroke	s	n/a
237.105	0.135	474210	keystroke	e	n/a
237.33	0.12	474660	keystroke	Key.space	n/a
237.5845	0.09	475169	keystroke	d	n/a
237.7195	0.15	475439	keystroke	a	n/a
237.8545	0.09	475709	keystroke	m	n/a
237.9595	0.165	475919	keystroke	e	n/a
238.1695	0.135	476339	keystroke	Key.space	n/a
238.4545	0.15	476909	keystroke	a	n/a
238.6495	0.12	477299	keystroke	c	n/a
238.9195	0.15	477839	keystroke	t	n/a
239.0245	0.18	478049	keystroke	i	n/a
239.1595	0.15	478319	keystroke	o	n/a
239.2945	0.12	478589	keystroke	n	n/a
239.4295	0.15	478859	keystroke	s	n/a
239.5805	0.134	479161	keystroke	Key.space	n/a
239.7595	0.181	479519	keystroke	t	n/a
239.9245	0.106	479849	keystroke	e	n/a
240.0455	0.06	480091	keystroke	l	n/a
240.2245	0.061	480449	keystroke	l	n/a
240.5845	0.075	481169	keystroke	Key.enter	n/a
240.664	7.4675	481328	prompt	n/a	affiliates names efficiency wallace\n
241.395	0.15	482790	keystroke	a	n/a
241.8	0.075	483600	keystroke	f	n/a
241.98	0.06	483960	keystroke	f	n/a
242.16	0.06	484320	keystroke	i	n/a
242.325	0.12	484650	keystroke	l	n/a
242.49	0.0905	484980	keystroke	i	n/a
242.895	0.1495	485790	keystroke	a	n/a
243.03	0.1195	486060	keystroke	t	n/a
243.1195	0.165	486239	keystroke	e	n/a
243.3295	0.1355	486659	keystroke	s	n/a
243.48	0.105	486960	keystroke	Key.space	n/a
243.585	0.09	487170	keystroke	n	n/a
243.66	0.165	487320	keystroke	a	n/a
243.795	0.09	487590	keystroke	m	n/a
243.855	0.18	487710	keystroke	e	n/a
244.035	0.2255	488070	keystroke	s	n/a
244.2755	0.12	488551	keystroke	Key.space	n/a
244.4555	0.12	488911	keystroke	e	n/a
244.7105	0.09	489421	keystroke	f	n/a
244.8755	0.1045	489751	keystroke	f	n/a
245.055	0.09	490110	keystroke	i	n/a
245.295	0.135	490590	keystroke	c	n/a
245.46	0.09	490920	keystroke	i	n/a
245.625	0.15	491250	keystroke	e	n/a
245.76	0.075	491520	keystroke	n	n/a
246.165	0.135	492330	keystroke	c	n/a
246.375	0.075	492750	keystroke	y	n/a
246.57	0.09	493140	keystroke	Key.space	n/a
246.81	0.09	493620	keystroke	w	n/a
246.945	0.135	493890	keystroke	a	n/a
247.095	0.06	494190	keystroke	l	n/a
247.245	0.09	494490	keystroke	l	n/a
247.53	0.165	495060	keystroke	a	n/a
247.695	0.165	495390	keystroke	c	n/a
247.845	0.12	495690	keystroke	e	n/a
248.04	0.0905	496080	keystroke	Key.enter	n/a
248.135	5.276	496270	prompt	n/a	dried booking prompt an\n
248.865	0.075	497730	keystroke	d	n/a
249.06	0.12	498120	keystroke	r	n/a
249.225	0.12	498450	keystroke	i	n/a
249.33	0.09	498660	keystroke	e	n/a
249.54	0.165	499080	keystroke	d	n/a
249.75	0.09	499500	keystroke	Key.space	n/a
250.065	0.105	500130	keystroke	b	n/a
250.245	0.045	500490	keystroke	o	n/a
250.38	0.09	500760	keystroke	o	n/a
250.485	0.12	500970	keystroke	k	n/a
250.71	0.105	501420	keystroke	i	n/a
250.89	0.105	501780	keystroke	n	n/a
251.025	0.165	502050	keystroke	g	n/a
251.175	0.135	502350	keystroke	Key.space	n/a
251.5045	0.09	503009	keystroke	p	n/a
251.6995	0.09	503399	keystroke	r	n/a
251.9395	0.09	503879	keystroke	o	n/a
252.1945	0.1055	504389	keystroke	m	n/a
252.495	0.135	504990	keystroke	p	n/a
252.705	0.15	505410	keystroke	t	n/a
252.87	0.12	505740	keystroke	Key.space	n/a
253.005	0.15	506010	keystroke	a	n/a
253.095	0.075	506190	keystroke	n	n/a
253.35	0.06	506700	keystroke	Key.enter	n/a
253.4145	6.522	506829	prompt	n/a	insurance cooper level tuition\n
254.0555	0.075	508111	keystroke	i	n/a
254.2655	0.06	508531	keystroke	n	n/a
254.4155	0.09	508831	keystroke	s	n/a
254.535	0.0905	509070	keystroke	u	n/a
254.7305	0.075	509461	keystroke	r	n/a
254.8505	0.225	509701	keystroke	a	n/a
255.0155	0.075	510031	keystroke	n	n/a
255.1355	0.15	510271	keystroke	c	n/a
255.2555	0.18	510511	keystroke	e	n/a
255.4205	0.12	510841	keystroke	Key.space	n/a
255.6755	0.135	511351	keystroke	c	n/a
255.8705	0.06	511741	keystroke	o	n/a
256.0355	0.075	512071	keystroke	o	n/a
256.2305	0.1045	512461	keystroke	p	n/a
256.335	0.15	512670	keystroke	e	n/a
256.44	0.15	512880	keystroke	r	n/a
256.6505	0.135	513301	keystroke	Key.space	n/a
256.8	0.15	513600	keystroke	l	n/a
256.935	0.1055	513870	keystroke	e	n/a
257.16	0.135	514320	keystroke	v	n/a
257.2805	0.12	514561	keystroke	e	n/a
257.5055	0.0895	515011	keystroke	l	n/a
257.61	0.105	515220	keystroke	Key.space	n/a
257.97	0.105	515940	keystroke	t	n/a
258.21	0.135	516420	keystroke	u	n/a
258.9155	0.09	517831	keystroke	i	n/a
259.215	0.075	518430	keystroke	t	n/a
259.305	0.18	518610	keystroke	i	n/a
259.41	0.18	518820	keystroke	o	n/a
259.56	0.105	519120	keystroke	n	n/a
259.845	0.09	519690	keystroke	Key.enter	n/a
259.939	6.7325	519878	prompt	n/a	wish trail aviation emissions\n
260.6555	0.135	521311	keystroke	w	n/a
260.8505	0.09	521701	keystroke	i	n/a
260.9555	0.12	521911	keystroke	s	n/a
261.0905	0.09	522181	keystroke	h	n/a
261.1955	0.105	522391	keystroke	Key.space	n/a
261.3755	0.105	522751	keystroke	t	n/a
261.6155	0.12	523231	keystroke	r	n/a
261.7205	0.134	523441	keystroke	a	n/a
261.8405	0.12	523681	keystroke	i	n/a
261.9755	0.15	523951	keystroke	l	n/a
262.1545	0.1505	524309	keystroke	Key.space	n/a
262.7995	0.12	525599	keystroke	a	n/a
263.835	0.1205	527670	keystroke	v	n/a
264.0905	0.075	528181	keystroke	i	n/a
264.2255	0.165	528451	keystroke	a	n/a
264.4055	0.1045	528811	keystroke	t	n/a
264.525	0.165	529050	keystroke	i	n/a
264.645	0.15	529290	keystroke	o	n/a
264.765	0.135	529530	keystroke	n	n/a
264.915	0.12	529830	keystroke	Key.space	n/a
265.095	0.105	530190	keystroke	e	n/a
265.26	0.105	530520	keystroke	m	n/a
265.515	0.075	531030	keystroke	i	n/a
265.695	0.09	531390	keystroke	s	n/a
265.86	0.09	531720	keystroke	s	n/a
265.965	0.195	531930	keystroke	i	n/a
266.115	0.135	532230	keystroke	o	n/a
266.235	0.135	532470	keystroke	n	n/a
266.385	0.12	532770	keystroke	s	n/a
266.5795	0.09	533159	keystroke	Key.enter	n/a
266.674	6.6575	533348	prompt	n/a	organisms winning films induced\n
267.3905	0.135	534781	keystroke	o	n/a
267.5705	0.12	535141	keystroke	r	n/a
267.8555	0.12	535711	keystroke	g	n/a
267.9905	0.135	535981	keystroke	a	n/a
268.0955	0.075	536191	keystroke	n	n/a
268.2605	0.075	536521	keystroke	i	n/a
268.5305	0.1045	537061	keystroke	s	n/a
268.68	0.09	537360	keystroke	m	n/a
268.83	0.09	537660	keystroke	s	n/a
269.055	0.105	538110	keystroke	Key.space	n/a
269.235	0.12	538470	keystroke	w	n/a
269.34	0.075	538680	keystroke	i	n/a
269.55	0.03	539100	keystroke	n	n/a
269.67	0.06	539340	keystroke	n	n/a
269.82	0.09	539640	keystroke	i	n/a
270	0.075	540000	keystroke	n	n/a
270.12	0.1205	540240	keystroke	g	n/a
270.2705	0.119	540541	keystroke	Key.space	n/a
270.495	0.105	540990	keystroke	f	n/a
270.615	0.075	541230	keystroke	i	n/a
270.78	0.105	541560	keystroke	l	n/a
271.275	0.075	542550	keystroke	m	n/a
271.395	0.12	542790	keystroke	s	n/a
271.575	0.1495	543150	keystroke	Key.space	n/a
271.9795	0.06	543959	keystroke	i	n/a
272.1755	0.074	544351	keystroke	n	n/a
272.3245	0.12	544649	keystroke	d	n/a
272.4745	0.075	544949	keystroke	u	n/a
272.6705	0.18	545341	keystroke	c	n/a
272.8205	0.09	545641	keystroke	e	n/a
273.0155	0.09	546031	keystroke	d	n/a
273.2405	0.09	546481	keystroke	Key.enter	n/a
273.336	13.586	546672	prompt	n/a	contracting architecture cables perl\n
274.0805	0.15	548161	keystroke	c	n/a
274.2455	0.15	548491	keystroke	o	n/a
274.4105	0.105	548821	keystroke	n	n/a
274.4705	0.089	548941	keystroke	t	n/a
274.695	0.12	549390	keystroke	r	n/a
274.8	0.18	549600	keystroke	a	n/a
275.6105	0.03	551221	keystroke	t	n/a
276.5845	0.06	553169	keystroke	Key.backspace	n/a
276.825	0.12	553650	keystroke	c	n/a
277.11	0.12	554220	keystroke	t	n/a
277.245	0.075	554490	keystroke	i	n/a
277.38	0.105	554760	keystroke	n	n/a
277.485	0.135	554970	keystroke	g	n/a
277.605	0.15	555210	keystroke	Key.space	n/a
277.77	0.195	555540	keystroke	a	n/a
277.98	0.105	555960	keystroke	r	n/a
278.265	0.12	556530	keystroke	c	n/a
278.4	0.06	556800	keystroke	h	n/a
278.5345	0.105	557069	keystroke	i	n/a
278.7755	0.089	557551	keystroke	t	n/a
280.215	0.09	560430	keystroke	e	n/a
280.425	0.1345	560850	keystroke	c	n/a
280.7695	0.0905	561539	keystroke	t	n/a
280.905	0.09	561810	keystroke	u	n/a
281.04	0.135	562080	keystroke	r	n/a
281.145	0.1355	562290	keystroke	e	n/a
281.9855	0.135	563971	keystroke	Key.space	n/a
282.255	0.15	564510	keystroke	a	n/a
282.705	0.075	565410	keystroke	b	n/a
283.485	0.075	566970	keystroke	Key.backspace	n/a
283.815	0.075	567630	keystroke	Key.backspace	n/a
284.6095	0.15	569219	keystroke	c	n/a
284.7905	0.1345	569581	keystroke	a	n/a
285.105	0.12	570210	keystroke	b	n/a
285.255	0.105	570510	keystroke	l	n/a
285.375	0.1805	570750	keystroke	e	n/a
285.5405	0.12	571081	keystroke	s	n/a
285.7655	0.105	571531	keystroke	Key.space	n/a
285.9605	0.105	571921	keystroke	p	n/a
286.1855	0.18	572371	keystroke	e	n/a
286.3805	0.105	572761	keystroke	r	n/a
286.6055	0.09	573211	keystroke	l	n/a
286.8455	0.075	573691	keystroke	Key.enter	n/a
286.927	7.4945	573854	prompt	n/a	treasure liked components certified\n
287.7005	0.105	575401	keystroke	t	n/a
287.9405	0.135	575881	keystroke	r	n/a
288.0305	0.135	576061	keystroke	e	n/a
288.1505	0.135	576301	keystroke	a	n/a
288.3455	0.15	576691	keystroke	s	n/a
288.5105	0.075	577021	keystroke	u	n/a
288.6005	0.135	577201	keystroke	r	n/a
288.7055	0.1345	577411	keystroke	e	n/a
288.8555	0.104	577711	keystroke	Key.space	n/a
289.0055	0.105	578011	keystroke	l	n/a
289.1705	0.074	578341	keystroke	i	n/a
289.3505	0.105	578701	keystroke	k	n/a
289.4705	0.104	578941	keystroke	e	n/a
289.6955	0.149	579391	keystroke	d	n/a
289.8595	0.1205	579719	keystroke	Key.space	n/a
290.25	0.1505	580500	keystroke	c	n/a
290.355	0.1205	580710	keystroke	o	n/a
290.5505	0.12	581101	keystroke	m	n/a
290.7755	0.06	581551	keystroke	p	n/a
290.9105	0.09	581821	keystroke	o	n/a
291.12	0.0905	582240	keystroke	n	n/a
291.255	0.15	582510	keystroke	e	n/a
291.375	0.105	582750	keystroke	n	n/a
291.525	0.105	583050	keystroke	t	n/a
291.7645	0.121	583529	keystroke	s	n/a
292.0195	0.09	584039	keystroke	Key.space	n/a
292.2745	0.135	584549	keystroke	c	n/a
292.4845	0.1655	584969	keystroke	e	n/a
292.56	0.165	585120	keystroke	r	n/a
292.83	0.15	585660	keystroke	t	n/a
292.995	0.06	585990	keystroke	i	n/a
293.205	0.105	586410	keystroke	f	n/a
293.76	0.075	587520	keystroke	i	n/a
293.925	0.075	587850	keystroke	e	n/a
294.12	0.075	588240	keystroke	d	n/a
294.345	0.075	588690	keystroke	Key.enter	n/a
294.4245	6.807	588849	prompt	n/a	award ever cashiers xanax\n
295.0655	0.105	590131	keystroke	a	n/a
295.2755	0.075	590551	keystroke	w	n/a
295.3955	0.165	590791	keystroke	a	n/a
295.6205	0.105	591241	keystroke	r	n/a
295.8745	0.121	591749	keystroke	d	n/a
296.2205	0.105	592441	keystroke	Key.space	n/a
296.4455	0.06	592891	keystroke	e	n/a
296.6255	0.135	593251	keystroke	v	n/a
296.7905	0.195	593581	keystroke	e	n/a
296.9405	0.15	593881	keystroke	r	n/a
297.1055	0.135	594211	keystroke	Key.space	n/a
297.4805	0.135	594961	keystroke	c	n/a
297.6455	0.165	595291	keystroke	a	n/a
297.8405	0.12	595681	keystroke	s	n/a
298.0205	0.06	596041	keystroke	h	n/a
298.1555	0.105	596311	keystroke	i	n/a
298.2905	0.12	596581	keystroke	e	n/a
298.3655	0.105	596731	keystroke	r	n/a
298.59	0.15	597180	keystroke	s	n/a
298.755	0.135	597510	keystroke	Key.space	n/a
299.535	0.105	599070	keystroke	x	n/a
299.745	0.135	599490	keystroke	a	n/a
299.955	0.09	599910	keystroke	n	n/a
300.525	0.105	601050	keystroke	a	n/a
300.825	0.105	601650	keystroke	x	n/a
301.17	0.06	602340	keystroke	Key.enter	n/a
301.235	6.387	602470	prompt	n/a	rangers tables saint sally\n
301.965	0.12	603930	keystroke	r	n/a
302.1	0.195	604200	keystroke	a	n/a
302.235	0.12	604470	keystroke	n	n/a
302.37	0.09	604740	keystroke	g	n/a
302.565	0.15	605130	keystroke	e	n/a
302.64	0.12	605280	keystroke	r	n/a
302.895	0.12	605790	keystroke	s	n/a
303.03	0.12	606060	keystroke	Key.space	n/a
303.165	0.135	606330	keystroke	t	n/a
303.315	0.18	606630	keystroke	a	n/a
303.525	0.12	607050	keystroke	b	n/a
303.675	0.105	607350	keystroke	l	n/a
303.795	0.15	607590	keystroke	e	n/a
304.26	0.135	608520	keystroke	s	n/a
304.44	0.105	608880	keystroke	Key.space	n/a
304.605	0.135	609210	keystroke	s	n/a
305.46	0.1355	610920	keystroke	a	n/a
305.8805	0.074	611761	keystroke	i	n/a
306.0605	0.075	612121	keystroke	n	n/a
306.2555	0.09	612511	keystroke	t	n/a
306.4645	0.09	612929	keystroke	Key.space	n/a
306.6295	0.121	613259	keystroke	s	n/a
306.7955	0.135	613591	keystroke	a	n/a
306.9005	0.075	613801	keystroke	l	n/a
307.0655	0.105	614131	keystroke	l	n/a
307.2755	0.06	614551	keystroke	y	n/a
307.5455	0.075	615091	keystroke	Key.enter	n/a
307.6245	9.5375	615249	prompt	n/a	demonstrate habits activated choosing\n
308.37	0.09	616740	keystroke	d	n/a
308.6255	0.059	617251	keystroke	e	n/a
309.54	0.106	619080	keystroke	m	n/a
309.72	0.135	619440	keystroke	o	n/a
309.96	0.09	619920	keystroke	n	n/a
310.1545	0.1515	620309	keystroke	s	n/a
310.4255	0.074	620851	keystroke	t	n/a
310.635	0.12	621270	keystroke	r	n/a
310.74	0.1955	621480	keystroke	a	n/a
310.8905	0.135	621781	keystroke	t	n/a
311.0105	0.1795	622021	keystroke	e	n/a
311.175	0.135	622350	keystroke	Key.space	n/a
311.385	0.09	622770	keystroke	h	n/a
311.505	0.18	623010	keystroke	a	n/a
311.7	0.135	623400	keystroke	b	n/a
311.85	0.0905	623700	keystroke	i	n/a
312.0305	0.1645	624061	keystroke	t	n/a
312.1795	0.1655	624359	keystroke	Key.space	n/a
312.3	0.195	624600	keystroke	a	n/a
312.7205	0.135	625441	keystroke	c	n/a
312.9755	0.135	625951	keystroke	t	n/a
313.0955	0.09	626191	keystroke	i	n/a
313.83	0.105	627660	keystroke	v	n/a
313.965	0.15	627930	keystroke	a	n/a
314.22	0.18	628440	keystroke	t	n/a
314.52	0.1055	629040	keystroke	e	n/a
314.7745	0.121	629549	keystroke	d	n/a
314.94	0.15	629880	keystroke	Key.space	n/a
315.345	0.15	630690	keystroke	c	n/a
315.48	0.09	630960	keystroke	h	n/a
315.645	0.09	631290	keystroke	o	n/a
316.3355	0.105	632671	keystroke	o	n/a
316.5305	0.105	633061	keystroke	s	n/a
316.6205	0.075	633241	keystroke	i	n/a
316.8005	0.09	633601	keystroke	n	n/a
316.9055	0.09	633811	keystroke	g	n/a
317.1155	0.045	634231	keystroke	Key.enter	n/a
317.1645	7.2875	634329	prompt	n/a	jimmy inclusive how're fighters\n
317.7905	0.105	635581	keystroke	j	n/a
317.9555	0.075	635911	keystroke	i	n/a
318.1505	0.0595	636301	keystroke	m	n/a
318.301	0.059	636602	keystroke	m	n/a
318.5105	0.09	637021	keystroke	y	n/a
318.8555	0.105	637711	keystroke	Key.space	n/a
319.05	0.06	638100	keystroke	i	n/a
319.23	0.045	638460	keystroke	n	n/a
319.47	0.15	638940	keystroke	c	n/a
319.65	0.105	639300	keystroke	l	n/a
319.875	0.06	639750	keystroke	u	n/a
320.1	0.1205	640200	keystroke	s	n/a
320.2505	0.09	640501	keystroke	i	n/a
320.3555	0.12	640711	keystroke	v	n/a
320.5655	0.15	641131	keystroke	e	n/a
320.7305	0.135	641461	keystroke	Key.space	n/a
320.9855	0.09	641971	keystroke	h	n/a
321.1655	0.1045	642331	keystroke	o	n/a
321.66	0.105	643320	keystroke	w	n/a
322.35	0.09	644700	keystroke	'	n/a
322.5905	0.12	645181	keystroke	r	n/a
322.6805	0.165	645361	keystroke	e	n/a
322.8305	0.12	645661	keystroke	Key.space	n/a
323.1455	0.03	646291	keystroke	f	n/a
323.1605	0.06	646321	keystroke	i	n/a
323.2955	0.09	646591	keystroke	g	n/a
323.3855	0.075	646771	keystroke	h	n/a
323.5355	0.135	647071	keystroke	t	n/a
323.7155	0.18	647431	keystroke	e	n/a
323.8355	0.135	647671	keystroke	r	n/a
324.09	0.12	648180	keystroke	s	n/a
324.375	0.075	648750	keystroke	Key.enter	n/a
324.4545	7.9625	648909	prompt	n/a	coupled encouraging ears ensure\n
325.5605	0.165	651121	keystroke	c	n/a
325.7555	0.1355	651511	keystroke	o	n/a
325.906	0.089	651812	keystroke	u	n/a
326.07	0.09	652140	keystroke	p	n/a
326.2355	0.135	652471	keystroke	l	n/a
326.3555	0.105	652711	keystroke	e	n/a
326.5505	0.135	653101	keystroke	d	n/a
326.6855	0.12	653371	keystroke	Key.space	n/a
327.0755	0.105	654151	keystroke	e	n/a
327.4655	0.075	654931	keystroke	n	n/a
327.5855	0.15	655171	keystroke	c	n/a
327.7205	0.15	655441	keystroke	o	n/a
327.8555	0.105	655711	keystroke	u	n/a
328.0955	0.075	656191	keystroke	r	n/a
328.3055	0.18	656611	keystroke	a	n/a
328.4705	0.09	656941	keystroke	g	n/a
328.6355	0.12	657271	keystroke	e	n/a
329.2355	0.045	658471	keystroke	Key.backspace	n/a
329.8805	0.075	659761	keystroke	i	n/a
330.0005	0.135	660001	keystroke	n	n/a
330.1205	0.135	660241	keystroke	g	n/a
330.2105	0.135	660421	keystroke	Key.space	n/a
330.3905	0.3	660781	keystroke	e	n/a
330.5255	0.195	661051	keystroke	a	n/a
330.6755	0.12	661351	keystroke	r	n/a
330.9155	0.12	661831	keystroke	s	n/a
331.0505	0.105	662101	keystroke	Key.space	n/a
331.2305	0.12	662461	keystroke	e	n/a
331.3655	0.075	662731	keystroke	n	n/a
331.7705	0.12	663541	keystroke	s	n/a
331.9205	0.09	663841	keystroke	u	n/a
332.0255	0.105	664051	keystroke	r	n/a
332.1005	0.135	664201	keystroke	e	n/a
332.3255	0.09	664651	keystroke	Key.enter	n/a
332.42	6.282	664840	prompt	n/a	todd keeping reference whereas\n
333.1205	0.09	666241	keystroke	t	n/a
333.2705	0.12	666541	keystroke	o	n/a
333.4655	0.06	666931	keystroke	d	n/a
333.6305	0.075	667261	keystroke	d	n/a
333.8705	0.12	667741	keystroke	Key.space	n/a
334.3355	0.105	668671	keystroke	k	n/a
334.5	0.075	669000	keystroke	e	n/a
334.65	0.09	669300	keystroke	e	n/a
334.875	0.075	669750	keystroke	p	n/a
335.025	0.09	670050	keystroke	i	n/a
335.25	0.0755	670500	keystroke	n	n/a
335.3405	0.15	670681	keystroke	g	n/a
335.4755	0.12	670951	keystroke	Key.space	n/a
335.7755	0.15	671551	keystroke	r	n/a
335.88	0.1355	671760	keystroke	e	n/a
336.136	0.119	672272	keystroke	f	n/a
336.3	0.15	672600	keystroke	e	n/a
336.42	0.165	672840	keystroke	r	n/a
336.6	0.15	673200	keystroke	e	n/a
336.72	0.075	673440	keystroke	n	n/a
336.945	0.21	673890	keystroke	c	n/a
337.125	0.165	674250	keystroke	e	n/a
337.275	0.105	674550	keystroke	Key.space	n/a
337.485	0.135	674970	keystroke	w	n/a
337.65	0.045	675300	keystroke	h	n/a
337.71	0.135	675420	keystroke	e	n/a
337.815	0.165	675630	keystroke	r	n/a
337.95	0.12	675900	keystroke	e	n/a
338.205	0.165	676410	keystroke	a	n/a
338.34	0.135	676680	keystroke	s	n/a
338.6255	0.0745	677251	keystroke	Key.enter	n/a
338.7065	6.8355	677413	prompt	n/a	italy pumps piece revisions\n
339.4055	0.09	678811	keystroke	i	n/a
339.7205	0.09	679441	keystroke	t	n/a
339.9005	0.12	679801	keystroke	a	n/a
339.9905	0.105	679981	keystroke	l	n/a
340.2305	0.0605	680461	keystroke	y	n/a
340.395	0.121	680790	keystroke	Key.space	n/a
340.651	0.105	681302	keystroke	p	n/a
340.861	0.09	681722	keystroke	u	n/a
341.101	0.12	682202	keystroke	m	n/a
341.28	0.105	682560	keystroke	p	n/a
341.685	0.135	683370	keystroke	s	n/a
341.88	0.135	683760	keystroke	Key.space	n/a
342.211	0.134	684422	keystroke	p	n/a
342.57	0.09	685140	keystroke	i	n/a
342.75	0.135	685500	keystroke	e	n/a
343.065	0.165	686130	keystroke	c	n/a
343.215	0.165	686430	keystroke	e	n/a
343.395	0.12	686790	keystroke	Key.space	n/a
343.966	0.165	687932	keystroke	r	n/a
344.1	0.136	688200	keystroke	e	n/a
344.4	0.1655	688800	keystroke	v	n/a
344.5955	0.09	689191	keystroke	i	n/a
344.7605	0.12	689521	keystroke	s	n/a
344.8355	0.18	689671	keystroke	i	n/a
344.9555	0.15	689911	keystroke	o	n/a
345.0905	0.135	690181	keystroke	n	n/a
345.2405	0.105	690481	keystroke	s	n/a
345.4655	0.075	690931	keystroke	Key.enter	n/a
345.545	9.132	691090	prompt	n/a	boom lucia miniature housewives\n
346.4855	0.105	692971	keystroke	b	n/a
346.6505	0.075	693301	keystroke	o	n/a
346.8155	0.075	693631	keystroke	o	n/a
346.9955	0.105	693991	keystroke	m	n/a
347.1305	0.12	694261	keystroke	Key.space	n/a
347.6705	0.12	695341	keystroke	l	n/a
348.0905	0.075	696181	keystroke	u	n/a
348.2705	0.135	696541	keystroke	c	n/a
348.4355	0.075	696871	keystroke	i	n/a
348.885	0.12	697770	keystroke	a	n/a
349.08	0.12	698160	keystroke	Key.space	n/a
349.425	0.075	698850	keystroke	m	n/a
349.665	0.06	699330	keystroke	i	n/a
349.83	0.09	699660	keystroke	n	n/a
350.04	0.06	700080	keystroke	i	n/a
351.3	0.165	702600	keystroke	a	n/a
351.48	0.105	702960	keystroke	t	n/a
351.675	0.105	703350	keystroke	u	n/a
351.796	0.119	703592	keystroke	r	n/a
351.87	0.165	703740	keystroke	e	n/a
351.99	0.15	703980	keystroke	Key.space	n/a
352.215	0.075	704430	keystroke	h	n/a
352.395	0.12	704790	keystroke	o	n/a
352.47	0.09	704940	keystroke	u	n/a
352.665	0.18	705330	keystroke	s	n/a
352.8	0.105	705600	keystroke	e	n/a
353.22	0.1205	706440	keystroke	w	n/a
353.566	0.09	707132	keystroke	i	n/a
353.836	0.135	707672	keystroke	v	n/a
354.046	0.195	708092	keystroke	e	n/a
354.211	0.135	708422	keystroke	s	n/a
354.6	0.075	709200	keystroke	Key.enter	n/a
354.6825	5.7545	709365	prompt	n/a	accent allocated outdoor bell\n
355.275	0.135	710550	keystroke	a	n/a
355.546	0.074	711092	keystroke	c	n/a
355.71	0.075	711420	keystroke	c	n/a
355.9505	0.15	711901	keystroke	e	n/a
356.1155	0.06	712231	keystroke	n	n/a
356.2505	0.135	712501	keystroke	t	n/a
356.4155	0.1345	712831	keystroke	Key.space	n/a
356.58	0.12	713160	keystroke	a	n/a
356.73	0.075	713460	keystroke	l	n/a
356.911	0.089	713822	keystroke	l	n/a
357.09	0.09	714180	keystroke	o	n/a
357.27	0.166	714540	keystroke	c	n/a
357.391	0.195	714782	keystroke	a	n/a
357.616	0.12	715232	keystroke	t	n/a
357.691	0.09	715382	keystroke	e	n/a
357.931	0.135	715862	keystroke	d	n/a
358.0805	0.12	716161	keystroke	Key.space	n/a
358.2305	0.1345	716461	keystroke	o	n/a
358.3505	0.0905	716701	keystroke	u	n/a
358.471	0.089	716942	keystroke	t	n/a
358.68	0.12	717360	keystroke	d	n/a
358.845	0.075	717690	keystroke	o	n/a
358.995	0.1055	717990	keystroke	o	n/a
359.1305	0.135	718261	keystroke	r	n/a
359.2955	0.12	718591	keystroke	Key.space	n/a
359.5655	0.105	719131	keystroke	b	n/a
359.7755	0.105	719551	keystroke	e	n/a
359.9255	0.06	719851	keystroke	l	n/a
360.1505	0.015	720301	keystroke	l	n/a
360.3605	0.075	720721	keystroke	Key.enter	n/a
360.4425	10.7945	720885	prompt	n/a	vulnerable premier euros accent\n
362.763	0.057	725526	keystroke	v	n/a
363.075	0.105	726150	keystroke	u	n/a
364.036	0.12	728072	keystroke	l	n/a
364.306	0.075	728612	keystroke	n	n/a
364.501	0.1495	729002	keystroke	e	n/a
364.6055	0.09	729211	keystroke	r	n/a
364.7555	0.18	729511	keystroke	a	n/a
364.9505	0.105	729901	keystroke	b	n/a
365.0855	0.105	730171	keystroke	l	n/a
365.2055	0.165	730411	keystroke	e	n/a
365.3405	0.12	730681	keystroke	Key.space	n/a
365.5355	0.105	731071	keystroke	p	n/a
365.6855	0.105	731371	keystroke	r	n/a
365.7605	0.105	731521	keystroke	e	n/a
365.8955	0.09	731791	keystroke	m	n/a
366.0605	0.09	732121	keystroke	i	n/a
366.1355	0.1495	732271	keystroke	e	n/a
366.2405	0.1795	732481	keystroke	r	n/a
366.435	0.135	732870	keystroke	Key.space	n/a
367.965	0.105	735930	keystroke	e	n/a
368.341	0.075	736682	keystroke	u	n/a
369.1055	0.105	738211	keystroke	r	n/a
369.3155	0.135	738631	keystroke	o	n/a
369.4505	0.105	738901	keystroke	s	n/a
369.5855	0.1495	739171	keystroke	Key.space	n/a
369.765	0.165	739530	keystroke	a	n/a
370.2	0.12	740400	keystroke	c	n/a
370.485	0.136	740970	keystroke	c	n/a
370.681	0.15	741362	keystroke	e	n/a
370.816	0.06	741632	keystroke	n	n/a
370.966	0.09	741932	keystroke	t	n/a
371.161	0.075	742322	keystroke	Key.enter	n/a
371.24	8.532	742480	prompt	n/a	translated forces bradley pitch\n
371.926	0.09	743852	keystroke	t	n/a
372.136	0.12	744272	keystroke	r	n/a
372.241	0.165	744482	keystroke	a	n/a
373.156	0.075	746312	keystroke	n	n/a
373.501	0.1045	747002	keystroke	s	n/a
373.7705	0.09	747541	keystroke	l	n/a
373.8755	0.195	747751	keystroke	a	n/a
374.0555	0.15	748111	keystroke	t	n/a
374.1605	0.12	748321	keystroke	e	n/a
374.4155	0.1505	748831	keystroke	d	n/a
374.5205	0.1655	749041	keystroke	Key.space	n/a
374.716	0.12	749432	keystroke	f	n/a
374.866	0.0895	749732	keystroke	o	n/a
375.0605	0.105	750121	keystroke	r	n/a
375.3305	0.195	750661	keystroke	c	n/a
375.4955	0.165	750991	keystroke	e	n/a
375.6455	0.12	751291	keystroke	s	n/a
375.7805	0.1195	751561	keystroke	Key.space	n/a
375.975	0.1205	751950	keystroke	b	n/a
376.3205	0.1355	752641	keystroke	r	n/a
376.5005	0.1655	753001	keystroke	a	n/a
376.711	0.12	753422	keystroke	d	n/a
376.951	0.105	753902	keystroke	l	n/a
377.191	0.105	754382	keystroke	e	n/a
377.401	0.075	754802	keystroke	y	n/a
377.58	0.106	755160	keystroke	Key.space	n/a
377.836	0.104	755672	keystroke	p	n/a
378.031	0.09	756062	keystroke	i	n/a
378.84	0.09	757680	keystroke	t	n/a
379.126	0.12	758252	keystroke	c	n/a
379.306	0.075	758612	keystroke	h	n/a
379.6955	0.075	759391	keystroke	Key.enter	n/a
379.774	6.088	759548	prompt	n/a	uses walnut dishes generic\n
380.4005	0.09	760801	keystroke	u	n/a
380.5355	0.165	761071	keystroke	s	n/a
380.6705	0.135	761341	keystroke	e	n/a
380.8355	0.165	761671	keystroke	s	n/a
380.9705	0.165	761941	keystroke	Key.space	n/a
381.1805	0.105	762361	keystroke	w	n/a
381.3755	0.15	762751	keystroke	a	n/a
381.5405	0.09	763081	keystroke	l	n/a
381.7505	0.09	763501	keystroke	n	n/a
382.1405	0.075	764281	keystroke	u	n/a
382.2455	0.135	764491	keystroke	t	n/a
382.3655	0.135	764731	keystroke	Key.space	n/a
382.5755	0.1195	765151	keystroke	d	n/a
382.726	0.089	765452	keystroke	i	n/a
383.175	0.121	766350	keystroke	s	n/a
383.311	0.06	766622	keystroke	h	n/a
383.431	0.135	766862	keystroke	e	n/a
383.671	0.135	767342	keystroke	s	n/a
383.851	0.135	767702	keystroke	Key.space	n/a
384.226	0.09	768452	keystroke	g	n/a
384.4955	0.135	768991	keystroke	e	n/a
384.7655	0.075	769531	keystroke	n	n/a
384.9605	0.2405	769921	keystroke	e	n/a
385.141	0.09	770282	keystroke	r	n/a
385.336	0.09	770672	keystroke	i	n/a
385.531	0.12	771062	keystroke	c	n/a
385.786	0.075	771572	keystroke	Key.enter	n/a
385.8645	7.7075	771729	prompt	n/a	wired preferred attribute delivers\n
386.7455	0.105	773491	keystroke	w	n/a
386.8955	0.12	773791	keystroke	i	n/a
387.0455	0.165	774091	keystroke	r	n/a
387.1655	0.12	774331	keystroke	e	n/a
387.4505	0.135	774901	keystroke	d	n/a
387.6005	0.165	775201	keystroke	Key.space	n/a
388.0505	0.105	776101	keystroke	p	n/a
388.1855	0.135	776371	keystroke	r	n/a
388.2905	0.105	776581	keystroke	e	n/a
388.4705	0.15	776941	keystroke	f	n/a
388.6655	0.15	777331	keystroke	e	n/a
388.7855	0.09	777571	keystroke	r	n/a
388.9655	0.165	777931	keystroke	r	n/a
389.1005	0.105	778201	keystroke	e	n/a
389.3555	0.15	778711	keystroke	d	n/a
389.5205	0.15	779041	keystroke	Key.space	n/a
389.8205	0.18	779641	keystroke	a	n/a
390.0155	0.075	780031	keystroke	t	n/a
390.1805	0.09	780361	keystroke	t	n/a
390.3755	0.135	780751	keystroke	r	n/a
390.4955	0.1055	780991	keystroke	i	n/a
390.721	0.15	781442	keystroke	b	n/a
390.916	0.09	781832	keystroke	u	n/a
391.081	0.165	782162	keystroke	t	n/a
391.231	0.1495	782462	keystroke	e	n/a
391.5455	0.12	783091	keystroke	Key.space	n/a
391.9055	0.135	783811	keystroke	d	n/a
392.2205	0.09	784441	keystroke	e	n/a
392.4155	0.09	784831	keystroke	l	n/a
392.5955	0.09	785191	keystroke	i	n/a
392.7905	0.105	785581	keystroke	v	n/a
393.0005	0.18	786001	keystroke	e	n/a
393.1205	0.09	786241	keystroke	r	n/a
393.3305	0.09	786661	keystroke	s	n/a
393.4655	0.105	786931	keystroke	Key.enter	n/a
393.575	6.432	787150	prompt	n/a	remembered homeland alliance could\n
394.2155	0.135	788431	keystroke	r	n/a
394.3205	0.165	788641	keystroke	e	n/a
394.4705	0.0905	788941	keystroke	m	n/a
394.65	0.135	789300	keystroke	e	n/a
394.725	0.09	789450	keystroke	m	n/a
394.95	0.12	789900	keystroke	b	n/a
395.175	0.24	790350	keystroke	e	n/a
395.4	0.12	790800	keystroke	r	n/a
395.4905	0.135	790981	keystroke	e	n/a
395.79	0.1505	791580	keystroke	d	n/a
395.9255	0.1195	791851	keystroke	Key.space	n/a
396.0905	0.09	792181	keystroke	h	n/a
396.2405	0.1355	792481	keystroke	o	n/a
396.481	0.06	792962	keystroke	m	n/a
396.526	0.1045	793052	keystroke	e	n/a
396.6755	0.105	793351	keystroke	l	n/a
396.7955	0.165	793591	keystroke	a	n/a
396.9755	0.06	793951	keystroke	n	n/a
397.1105	0.18	794221	keystroke	d	n/a
397.3055	0.165	794611	keystroke	Key.space	n/a
397.5905	0.165	795181	keystroke	a	n/a
397.8755	0.09	795751	keystroke	l	n/a
398.0555	0.09	796111	keystroke	l	n/a
398.3255	0.015	796651	keystroke	i	n/a
398.3555	0.18	796711	keystroke	a	n/a
398.5505	0.045	797101	keystroke	n	n/a
398.6705	0.18	797341	keystroke	c	n/a
398.8055	0.15	797611	keystroke	e	n/a
398.9255	0.135	797851	keystroke	Key.space	n/a
399.1205	0.15	798241	keystroke	c	n/a
399.2405	0.165	798481	keystroke	o	n/a
399.3605	0.105	798721	keystroke	u	n/a
399.5405	0.135	799081	keystroke	l	n/a
399.6605	0.09	799321	keystroke	d	n/a
399.9155	0.09	799831	keystroke	Key.enter	n/a
400.0115	7.571	800023	prompt	n/a	brokers machines battery hiring\n
400.6505	0.105	801301	keystroke	b	n/a
401.0705	0.1045	802141	keystroke	r	n/a
401.2505	0.0595	802501	keystroke	o	n/a
401.4455	0.1045	802891	keystroke	k	n/a
401.6105	0.1195	803221	keystroke	e	n/a
401.6855	0.12	803371	keystroke	r	n/a
401.955	0.1205	803910	keystroke	s	n/a
402.1055	0.135	804211	keystroke	Key.space	n/a
402.4955	0.0905	804991	keystroke	m	n/a
402.601	0.134	805202	keystroke	a	n/a
403.036	0.104	806072	keystroke	c	n/a
403.185	0.061	806370	keystroke	h	n/a
403.425	0.06	806850	keystroke	i	n/a
403.575	0.12	807150	keystroke	n	n/a
403.71	0.165	807420	keystroke	e	n/a
403.86	0.135	807720	keystroke	s	n/a
404.235	0.12	808470	keystroke	Key.space	n/a
404.49	0.106	808980	keystroke	b	n/a
404.6555	0.165	809311	keystroke	a	n/a
404.8505	0.0755	809701	keystroke	t	n/a
405.016	0.105	810032	keystroke	t	n/a
405.136	0.195	810272	keystroke	e	n/a
405.271	0.135	810542	keystroke	r	n/a
405.856	0.06	811712	keystroke	y	n/a
406.006	0.1045	812012	keystroke	Key.space	n/a
406.1105	0.105	812221	keystroke	h	n/a
406.2455	0.105	812491	keystroke	i	n/a
406.3655	0.105	812731	keystroke	r	n/a
406.5605	0.15	813121	keystroke	i	n/a
406.7405	0.15	813481	keystroke	n	n/a
406.9055	0.12	813811	keystroke	g	n/a
407.476	0.105	814952	keystroke	Key.enter	n/a
407.586	7.766	815172	prompt	n/a	extends bobby musicians warm\n
408.241	0.06	816482	keystroke	e	n/a
408.451	0.105	816902	keystroke	x	n/a
408.766	0.104	817532	keystroke	t	n/a
408.9	0.15	817800	keystroke	e	n/a
409.0655	0.1195	818131	keystroke	n	n/a
409.215	0.1205	818430	keystroke	d	n/a
409.365	0.136	818730	keystroke	s	n/a
409.53	0.105	819060	keystroke	Key.space	n/a
409.725	0.105	819450	keystroke	b	n/a
409.89	0.09	819780	keystroke	o	n/a
410.16	0.0755	820320	keystroke	b	n/a
410.3105	0.075	820621	keystroke	b	n/a
410.7305	0.12	821461	keystroke	l	n/a
411.3755	0.06	822751	keystroke	Key.backspace	n/a
412.0355	0.06	824071	keystroke	y	n/a
412.2155	0.12	824431	keystroke	Key.space	n/a
412.7105	0.09	825421	keystroke	m	n/a
412.9355	0.06	825871	keystroke	u	n/a
413.1305	0.135	826261	keystroke	s	n/a
413.4155	0.075	826831	keystroke	i	n/a
413.7305	0.15	827461	keystroke	c	n/a
413.8955	0.075	827791	keystroke	i	n/a
414.0305	0.12	828061	keystroke	a	n/a
414.1515	0.074	828303	keystroke	n	n/a
414.3155	0.1205	828631	keystroke	s	n/a
414.481	0.105	828962	keystroke	Key.space	n/a
414.646	0.09	829292	keystroke	w	n/a
414.751	0.165	829502	keystroke	a	n/a
414.901	0.12	829802	keystroke	r	n/a
415.066	0.09	830132	keystroke	m	n/a
415.291	0.06	830582	keystroke	Key.enter	n/a
415.3555	8.4565	830711	prompt	n/a	italiano marked figured principle\n
416.1905	0.091	832381	keystroke	i	n/a
416.551	0.09	833102	keystroke	t	n/a
416.731	0.135	833462	keystroke	a	n/a
416.956	0.1195	833912	keystroke	l	n/a
417.3155	0.105	834631	keystroke	i	n/a
417.5555	0.12	835111	keystroke	a	n/a
417.7055	0.075	835411	keystroke	n	n/a
417.8855	0.09	835771	keystroke	o	n/a
418.0355	0.12	836071	keystroke	Key.space	n/a
418.2455	0.12	836491	keystroke	m	n/a
418.3505	0.18	836701	keystroke	a	n/a
418.5455	0.12	837091	keystroke	r	n/a
419.0555	0.075	838111	keystroke	k	n/a
419.1455	0.105	838291	keystroke	e	n/a
419.4005	0.105	838801	keystroke	d	n/a
419.881	0.1045	839762	keystroke	Key.space	n/a
420.0755	0.12	840151	keystroke	f	n/a
420.2255	0.09	840451	keystroke	i	n/a
420.4655	0.12	840931	keystroke	g	n/a
420.6455	0.075	841291	keystroke	u	n/a
420.8105	0.165	841621	keystroke	r	n/a
420.9305	0.105	841861	keystroke	e	n/a
421.1405	0.1205	842281	keystroke	d	n/a
421.276	0.105	842552	keystroke	Key.space	n/a
421.516	0.105	843032	keystroke	p	n/a
421.741	0.105	843482	keystroke	r	n/a
422.1305	0.09	844261	keystroke	i	n/a
422.5055	0.075	845011	keystroke	n	n/a
422.6555	0.15	845311	keystroke	c	n/a
423.0305	0.12	846061	keystroke	i	n/a
423.2105	0.105	846421	keystroke	p	n/a
423.4205	0.12	846841	keystroke	l	n/a
423.5705	0.09	847141	keystroke	e	n/a
423.7355	0.075	847471	keystroke	Key.enter	n/a
423.8155	10.437	847631	prompt	n/a	length introductory institute separation\n
424.53	0.1355	849060	keystroke	l	n/a
424.6955	0.135	849391	keystroke	e	n/a
424.8455	0.075	849691	keystroke	n	n/a
425.0705	0.12	850141	keystroke	g	n/a
425.6705	0.0905	851341	keystroke	t	n/a
425.806	0.075	851612	keystroke	h	n/a
426.001	0.12	852002	keystroke	Key.space	n/a
426.241	0.075	852482	keystroke	i	n/a
426.421	0.09	852842	keystroke	n	n/a
426.496	0.06	852992	keystroke	t	n/a
426.692	0.089	853384	keystroke	r	n/a
426.796	0.06	853592	keystroke	o	n/a
426.961	0.105	853922	keystroke	d	n/a
427.096	0.075	854192	keystroke	u	n/a
427.531	0.165	855062	keystroke	c	n/a
428.431	0.09	856862	keystroke	t	n/a
428.581	0.12	857162	keystroke	o	n/a
428.686	0.105	857372	keystroke	r	n/a
428.836	0.105	857672	keystroke	y	n/a
429.001	0.09	858002	keystroke	Key.space	n/a
429.136	0.09	858272	keystroke	i	n/a
429.331	0.06	858662	keystroke	n	n/a
429.511	0.135	859022	keystroke	s	n/a
429.751	0.09	859502	keystroke	t	n/a
429.931	0.075	859862	keystroke	i	n/a
430.156	0.09	860312	keystroke	t	n/a
430.351	0.105	860702	keystroke	u	n/a
430.936	0.135	861872	keystroke	t	n/a
431.071	0.12	862142	keystroke	e	n/a
431.401	0.135	862802	keystroke	Key.space	n/a
431.686	0.12	863372	keystroke	s	n/a
431.896	0.0895	863792	keystroke	e	n/a
432.136	0.105	864272	keystroke	p	n/a
432.211	0.21	864422	keystroke	a	n/a
432.436	0.15	864872	keystroke	r	n/a
433.381	0.12	866762	keystroke	a	n/a
433.5455	0.09	867091	keystroke	t	n/a
433.6505	0.15	867301	keystroke	i	n/a
433.7705	0.18	867541	keystroke	o	n/a
433.9205	0.105	867841	keystroke	n	n/a
434.1905	0.06	868381	keystroke	Key.enter	n/a
434.2555	9.627	868511	prompt	n/a	memory shuttle scroll emacs\n
434.866	0.1345	869732	keystroke	m	n/a
435.0755	0.105	870151	keystroke	e	n/a
435.2105	0.091	870421	keystroke	m	n/a
435.3615	0.12	870723	keystroke	o	n/a
435.4965	0.105	870993	keystroke	r	n/a
435.6765	0.09	871353	keystroke	y	n/a
435.8565	0.104	871713	keystroke	Key.space	n/a
436.0365	0.12	872073	keystroke	s	n/a
436.351	0.075	872702	keystroke	h	n/a
436.5605	0.06	873121	keystroke	u	n/a
437.0405	0.075	874081	keystroke	t	n/a
437.2205	0.045	874441	keystroke	t	n/a
437.4305	0.105	874861	keystroke	l	n/a
437.5505	0.135	875101	keystroke	e	n/a
437.7005	0.12	875401	keystroke	Key.space	n/a
437.8805	0.12	875761	keystroke	s	n/a
438.0755	0.12	876151	keystroke	c	n/a
438.3305	0.09	876661	keystroke	r	n/a
438.466	0.0595	876932	keystroke	o	n/a
438.6165	0.09	877233	keystroke	o	n/a
438.8865	0.12	877773	keystroke	l	n/a
439.0205	0.12	878041	keystroke	Key.space	n/a
439.2765	0.105	878553	keystroke	m	n/a
439.9505	0.075	879901	keystroke	Key.backspace	n/a
442.368	0.058	884736	keystroke	e	n/a
442.891	0.075	885782	keystroke	m	n/a
443.116	0.15	886232	keystroke	a	n/a
443.416	0.165	886832	keystroke	c	n/a
443.596	0.105	887192	keystroke	s	n/a
443.791	0.09	887582	keystroke	Key.enter	n/a
443.887	5.8305	887774	prompt	n/a	legally rising reference saudi\n
444.4955	0.1505	888991	keystroke	l	n/a
444.766	0.105	889532	keystroke	e	n/a
444.961	0.09	889922	keystroke	g	n/a
445.096	0.135	890192	keystroke	a	n/a
445.216	0.06	890432	keystroke	l	n/a
445.366	0.105	890732	keystroke	l	n/a
445.591	0.075	891182	keystroke	y	n/a
445.711	0.12	891422	keystroke	Key.space	n/a
445.9505	0.135	891901	keystroke	r	n/a
446.1155	0.09	892231	keystroke	i	n/a
446.2205	0.15	892441	keystroke	s	n/a
446.3105	0.09	892621	keystroke	i	n/a
446.4755	0.1055	892951	keystroke	n	n/a
446.581	0.135	893162	keystroke	g	n/a
446.701	0.135	893402	keystroke	Key.space	n/a
446.926	0.12	893852	keystroke	r	n/a
447.016	0.135	894032	keystroke	e	n/a
447.2715	0.12	894543	keystroke	f	n/a
447.4515	0.18	894903	keystroke	e	n/a
447.5715	0.165	895143	keystroke	r	n/a
447.7215	0.135	895443	keystroke	e	n/a
447.9015	0.045	895803	keystroke	n	n/a
448.3065	0.18	896613	keystroke	c	n/a
448.4265	0.15	896853	keystroke	e	n/a
448.5615	0.135	897123	keystroke	Key.space	n/a
448.7115	0.135	897423	keystroke	s	n/a
448.8615	0.165	897723	keystroke	a	n/a
449.0415	0.09	898083	keystroke	u	n/a
449.1615	0.105	898323	keystroke	d	n/a
449.3565	0.075	898713	keystroke	i	n/a
449.6415	0.075	899283	keystroke	Key.enter	n/a
449.721	12.8065	899442	prompt	n/a	print sailing biotechnology refer\n
450.3915	0.09	900783	keystroke	p	n/a
450.4965	0.12	900993	keystroke	r	n/a
450.5715	0.105	901143	keystroke	i	n/a
450.7665	0.09	901533	keystroke	n	n/a
450.8565	0.15	901713	keystroke	g	n/a
450.9915	0.135	901983	keystroke	Key.space	n/a
451.1715	0.105	902343	keystroke	s	n/a
452.176	0.09	904352	keystroke	Key.backspace	n/a
452.701	0.075	905402	keystroke	Key.backspace	n/a
453.1655	0.06	906331	keystroke	Key.backspace	n/a
453.3755	0.106	906751	keystroke	t	n/a
453.5865	0.135	907173	keystroke	Key.space	n/a
453.8555	0.12	907711	keystroke	s	n/a
454.0205	0.105	908041	keystroke	a	n/a
454.5155	0.09	909031	keystroke	i	n/a
454.6655	0.15	909331	keystroke	l	n/a
454.8305	0.075	909661	keystroke	i	n/a
455.0405	0.09	910081	keystroke	n	n/a
455.1455	0.12	910291	keystroke	g	n/a
455.2805	0.12	910561	keystroke	Key.space	n/a
455.5505	0.135	911101	keystroke	b	n/a
455.881	0.09	911762	keystroke	i	n/a
456.091	0.105	912182	keystroke	o	n/a
456.466	0.1045	912932	keystroke	t	n/a
456.6455	0.12	913291	keystroke	e	n/a
456.9155	0.135	913831	keystroke	c	n/a
457.0805	0.075	914161	keystroke	h	n/a
457.3055	0.075	914611	keystroke	n	n/a
457.4855	0.09	914971	keystroke	o	n/a
458.371	0.09	916742	keystroke	l	n/a
458.581	0.0755	917162	keystroke	n	n/a
459.556	0.075	919112	keystroke	Key.backspace	n/a
460.531	0.105	921062	keystroke	o	n/a
460.711	0.135	921422	keystroke	g	n/a
460.936	0.12	921872	keystroke	y	n/a
461.101	0.15	922202	keystroke	Key.space	n/a
461.296	0.24	922592	keystroke	r	n/a
461.551	0.12	923102	keystroke	e	n/a
461.866	0.12	923732	keystroke	f	n/a
462.061	0.165	924122	keystroke	e	n/a
462.181	0.135	924362	keystroke	r	n/a
462.466	0.06	924932	keystroke	Key.enter	n/a
462.5315	8.351	925063	prompt	n/a	planets demonstrated nail ericsson\n
463.201	0.09	926402	keystroke	p	n/a
463.351	0.12	926702	keystroke	l	n/a
463.456	0.15	926912	keystroke	a	n/a
463.5915	0.0895	927183	keystroke	n	n/a
463.682	0.0895	927364	keystroke	t	n/a
463.951	0.12	927902	keystroke	s	n/a
464.146	0.1205	928292	keystroke	Key.space	n/a
464.476	0.09	928952	keystroke	d	n/a
464.686	0.075	929372	keystroke	e	n/a
464.836	0.1045	929672	keystroke	m	n/a
465.0315	0.12	930063	keystroke	o	n/a
465.1965	0.089	930393	keystroke	n	n/a
465.4355	0.1505	930871	keystroke	s	n/a
465.616	0.0895	931232	keystroke	t	n/a
465.841	0.105	931682	keystroke	r	n/a
465.931	0.18	931862	keystroke	a	n/a
466.066	0.1655	932132	keystroke	t	n/a
466.186	0.1055	932372	keystroke	e	n/a
466.4415	0.12	932883	keystroke	d	n/a
466.5765	0.105	933153	keystroke	Key.space	n/a
466.8165	0.075	933633	keystroke	n	n/a
466.9065	0.12	933813	keystroke	a	n/a
467.0715	0.03	934143	keystroke	i	n/a
467.1765	0.1195	934353	keystroke	l	n/a
467.311	0.15	934622	keystroke	Key.space	n/a
467.971	0.135	935942	keystroke	e	n/a
468.616	0.135	937232	keystroke	r	n/a
468.766	0.06	937532	keystroke	i	n/a
469.771	0.105	939542	keystroke	c	n/a
470.056	0.06	940112	keystroke	s	n/a
470.206	0.09	940412	keystroke	s	n/a
470.431	0.1495	940862	keystroke	o	n/a
470.5955	0.06	941191	keystroke	n	n/a
470.8205	0.06	941641	keystroke	Key.enter	n/a
470.8855	7.512	941771	prompt	n/a	jesse swimming shipped encourage\n
471.4655	0.1205	942931	keystroke	j	n/a
471.676	0.15	943352	keystroke	e	n/a
471.827	0.089	943654	keystroke	s	n/a
472.006	0.135	944012	keystroke	s	n/a
472.126	0.15	944252	keystroke	e	n/a
472.411	0.135	944822	keystroke	Key.space	n/a
472.981	0.165	945962	keystroke	s	n/a
473.506	0.105	947012	keystroke	w	n/a
473.731	0.075	947462	keystroke	i	n/a
473.926	0.03	947852	keystroke	m	n/a
474.061	0.045	948122	keystroke	m	n/a
474.196	0.09	948392	keystroke	i	n/a
474.331	0.12	948662	keystroke	n	n/a
474.466	0.135	948932	keystroke	g	n/a
474.586	0.12	949172	keystroke	Key.space	n/a
474.751	0.12	949502	keystroke	s	n/a
474.916	0.075	949832	keystroke	h	n/a
475.3965	0.12	950793	keystroke	i	n/a
475.6365	0.09	951273	keystroke	p	n/a
475.8465	0.03	951693	keystroke	p	n/a
476.2065	0.089	952413	keystroke	e	n/a
476.4155	0.106	952831	keystroke	d	n/a
476.5355	0.1205	953071	keystroke	Key.space	n/a
476.701	0.135	953402	keystroke	e	n/a
476.866	0.105	953732	keystroke	n	n/a
477.046	0.1495	954092	keystroke	c	n/a
477.121	0.1495	954242	keystroke	o	n/a
477.2555	0.09	954511	keystroke	u	n/a
477.6165	0.09	955233	keystroke	r	n/a
477.7665	0.18	955533	keystroke	a	n/a
477.9315	0.165	955863	keystroke	g	n/a
478.0815	0.15	956163	keystroke	e	n/a
478.3215	0.075	956643	keystroke	Key.enter	n/a
478.4005	8.817	956801	prompt	n/a	masters celebration perform police\n
479.086	0.105	958172	keystroke	m	n/a
479.221	0.12	958442	keystroke	a	n/a
479.386	0.15	958772	keystroke	s	n/a
479.551	0.165	959102	keystroke	t	n/a
479.701	0.09	959402	keystroke	e	n/a
479.9555	0.12	959911	keystroke	r	n/a
480.181	0.135	960362	keystroke	s	n/a
480.331	0.12	960662	keystroke	Key.space	n/a
480.706	0.165	961412	keystroke	c	n/a
480.886	0.105	961772	keystroke	e	n/a
481.021	0.09	962042	keystroke	l	n/a
481.1255	0.135	962251	keystroke	e	n/a
482.761	0.09	965522	keystroke	b	n/a
483.001	0.135	966002	keystroke	r	n/a
483.121	0.21	966242	keystroke	a	n/a
483.346	0.1205	966692	keystroke	t	n/a
483.6315	0.1795	967263	keystroke	i	n/a
483.781	0.15	967562	keystroke	o	n/a
483.9465	0.09	967893	keystroke	n	n/a
484.0515	0.12	968103	keystroke	Key.space	n/a
484.2615	0.09	968523	keystroke	p	n/a
484.4415	0.18	968883	keystroke	e	n/a
484.5765	0.119	969153	keystroke	r	n/a
484.8155	0.061	969631	keystroke	f	n/a
485.0255	0.12	970051	keystroke	o	n/a
485.1755	0.105	970351	keystroke	r	n/a
485.3415	0.12	970683	keystroke	m	n/a
485.4465	0.09	970893	keystroke	Key.space	n/a
485.5815	0.105	971163	keystroke	p	n/a
485.7465	0.105	971493	keystroke	o	n/a
485.9715	0.135	971943	keystroke	l	n/a
486.1065	0.075	972213	keystroke	i	n/a
486.2565	0.2845	972513	keystroke	c	n/a
486.9015	0.105	973803	keystroke	e	n/a
487.1265	0.09	974253	keystroke	Key.enter	n/a
487.2205	11.4725	974441	prompt	n/a	constitution horror near claims\n
488.206	0.135	976412	keystroke	c	n/a
488.356	0.1195	976712	keystroke	o	n/a
488.5055	0.0905	977011	keystroke	n	n/a
488.626	0.12	977252	keystroke	s	n/a
489.076	0.075	978152	keystroke	t	n/a
489.256	0.09	978512	keystroke	i	n/a
489.466	0.06	978932	keystroke	t	n/a
490.126	0.06	980252	keystroke	u	n/a
490.396	0.09	980792	keystroke	t	n/a
490.456	0.225	980912	keystroke	i	n/a
490.606	0.165	981212	keystroke	o	n/a
490.756	0.135	981512	keystroke	n	n/a
491.026	0.09	982052	keystroke	Key.space	n/a
491.281	0.09	982562	keystroke	h	n/a
491.491	0.105	982982	keystroke	o	n/a
492.106	0.09	984212	keystroke	r	n/a
492.286	0.075	984572	keystroke	r	n/a
492.421	0.105	984842	keystroke	o	n/a
492.931	0.105	985862	keystroke	r	n/a
493.096	0.135	986192	keystroke	Key.space	n/a
493.246	0.12	986492	keystroke	n	n/a
493.381	0.2695	986762	keystroke	e	n/a
493.5005	0.136	987001	keystroke	a	n/a
493.6065	0.119	987213	keystroke	r	n/a
493.7555	0.12	987511	keystroke	Key.space	n/a
494.1455	0.151	988291	keystroke	c	n/a
494.3705	0.105	988741	keystroke	l	n/a
494.5805	0.105	989161	keystroke	a	n/a
495.1365	0.105	990273	keystroke	i	n/a
495.3455	0.075	990691	keystroke	n	n/a
495.4805	0.12	990961	keystroke	s	n/a
496.2005	0.0605	992401	keystroke	Key.backspace	n/a
496.561	0.06	993122	keystroke	=	n/a
496.562	0.044	993124	keystroke	Key.backspace	n/a
497.6265	0.045	995253	keystroke	Key.backspace	n/a
498.2115	0.09	996423	keystroke	m	n/a
498.3315	0.12	996663	keystroke	s	n/a
498.6315	0.06	997263	keystroke	Key.enter	n/a
498.6965	11.066	997393	prompt	n/a	lender typically checkout dakota\n
499.6965	0.12	999393	keystroke	l	n/a
499.9365	0.12	999873	keystroke	e	n/a
500.0715	0.075	1000143	keystroke	n	n/a
500.551	0.09	1001102	keystroke	d	n/a
500.731	0.165	1001462	keystroke	e	n/a
500.851	0.105	1001702	keystroke	r	n/a
501.1805	0.12	1002361	keystroke	Key.space	n/a
501.5865	0.0895	1003173	keystroke	t	n/a
502.3965	0.06	1004793	keystroke	y	n/a
502.8165	0.1045	1005633	keystroke	p	n/a
503.356	0.06	1006712	keystroke	i	n/a
503.566	0.15	1007132	keystroke	c	n/a
503.731	0.12	1007462	keystroke	a	n/a
503.866	0.075	1007732	keystroke	l	n/a
504.046	0.105	1008092	keystroke	l	n/a
504.316	0.075	1008632	keystroke	y	n/a
504.511	0.105	1009022	keystroke	Key.space	n/a
504.7815	0.149	1009563	keystroke	c	n/a
504.9455	0.075	1009891	keystroke	h	n/a
505.0655	0.09	1010131	keystroke	e	n/a
505.6355	0.105	1011271	keystroke	c	n/a
506.1005	0.076	1012201	keystroke	k	n/a
506.3255	0.18	1012651	keystroke	o	n/a
506.5215	0.06	1013043	keystroke	u	n/a
506.6565	0.1345	1013313	keystroke	t	n/a
506.8065	0.135	1013613	keystroke	Key.space	n/a
507.1965	0.15	1014393	keystroke	d	n/a
507.3915	0.12	1014783	keystroke	a	n/a
508.5165	0.105	1017033	keystroke	k	n/a
509.0705	0.0755	1018141	keystroke	o	n/a
509.281	0.105	1018562	keystroke	t	n/a
509.401	0.18	1018802	keystroke	a	n/a
509.6865	0.075	1019373	keystroke	Key.enter	n/a
509.765	7.438	1019530	prompt	n/a	rated bedford ieee valves\n
510.496	0.15	1020992	keystroke	r	n/a
510.631	0.18	1021262	keystroke	a	n/a
510.796	0.18	1021592	keystroke	t	n/a
510.916	0.12	1021832	keystroke	e	n/a
511.2165	0.165	1022433	keystroke	d	n/a
511.3815	0.135	1022763	keystroke	Key.space	n/a
511.6515	0.075	1023303	keystroke	b	n/a
511.8615	0.12	1023723	keystroke	e	n/a
512.1015	0.135	1024203	keystroke	d	n/a
512.4015	0.12	1024803	keystroke	f	n/a
512.566	0.12	1025132	keystroke	o	n/a
512.671	0.165	1025342	keystroke	r	n/a
513.121	0.105	1026242	keystroke	d	n/a
513.3615	0.1045	1026723	keystroke	Key.space	n/a
513.6015	0.075	1027203	keystroke	i	n/a
513.8715	0.09	1027743	keystroke	e	n/a
514.0965	0.105	1028193	keystroke	e	n/a
514.6665	0.105	1029333	keystroke	e	n/a
514.8915	0.135	1029783	keystroke	Key.space	n/a
515.3265	0.12	1030653	keystroke	v	n/a
515.6565	0.135	1031313	keystroke	a	n/a
516.1365	0.09	1032273	keystroke	l	n/a
516.4515	0.12	1032903	keystroke	v	n/a
516.6465	0.1795	1033293	keystroke	e	n/a
516.811	0.15	1033622	keystroke	s	n/a
517.126	0.075	1034252	keystroke	Key.enter	n/a
517.206	9.252	1034412	prompt	n/a	knock lows biol biology\n
517.891	0.075	1035782	keystroke	k	n/a
518.071	0.075	1036142	keystroke	n	n/a
518.296	0.075	1036592	keystroke	o	n/a
518.476	0.15	1036952	keystroke	c	n/a
518.671	0.075	1037342	keystroke	k	n/a
518.821	0.12	1037642	keystroke	Key.space	n/a
519.076	0.105	1038152	keystroke	l	n/a
519.301	0.1055	1038602	keystroke	o	n/a
519.4215	0.135	1038843	keystroke	w	n/a
519.9015	0.12	1039803	keystroke	s	n/a
520.0665	0.12	1040133	keystroke	Key.space	n/a
521.3115	0.09	1042623	keystroke	b	n/a
521.881	0.075	1043762	keystroke	i	n/a
522.1365	0.0745	1044273	keystroke	o	n/a
523.0665	0.075	1046133	keystroke	l	n/a
523.2465	0.135	1046493	keystroke	Key.space	n/a
523.606	0.135	1047212	keystroke	b	n/a
524.161	0.18	1048322	keystroke	i	n/a
524.642	0.059	1049284	keystroke	o	n/a
525.1065	0.075	1050213	keystroke	l	n/a
525.4365	0.105	1050873	keystroke	o	n/a
525.7065	0.105	1051413	keystroke	g	n/a
525.9765	0.045	1051953	keystroke	y	n/a
526.3815	0.075	1052763	keystroke	Key.enter	n/a
526.461	6.522	1052922	prompt	n/a	programmers turn bread browse\n
527.131	0.09	1054262	keystroke	p	n/a
527.281	0.135	1054562	keystroke	r	n/a
527.401	0.09	1054802	keystroke	o	n/a
527.6865	0.09	1055373	keystroke	g	n/a
527.8815	0.15	1055763	keystroke	r	n/a
528.0465	0.105	1056093	keystroke	a	n/a
528.0915	0.105	1056183	keystroke	m	n/a
528.556	0.075	1057112	keystroke	m	n/a
528.691	0.15	1057382	keystroke	e	n/a
528.796	0.12	1057592	keystroke	r	n/a
529.036	0.1355	1058072	keystroke	s	n/a
529.1715	0.135	1058343	keystroke	Key.space	n/a
529.3965	0.105	1058793	keystroke	t	n/a
529.7415	0.105	1059483	keystroke	u	n/a
529.8915	0.105	1059783	keystroke	r	n/a
530.0565	0.06	1060113	keystroke	n	n/a
530.2065	0.12	1060413	keystroke	Key.space	n/a
530.5215	0.105	1061043	keystroke	b	n/a
530.7915	0.135	1061583	keystroke	r	n/a
530.8665	0.15	1061733	keystroke	e	n/a
530.9715	0.18	1061943	keystroke	a	n/a
531.1665	0.18	1062333	keystroke	d	n/a
531.3315	0.15	1062663	keystroke	Key.space	n/a
531.5565	0.12	1063113	keystroke	b	n/a
531.811	0.135	1063622	keystroke	r	n/a
532.036	0.105	1064072	keystroke	o	n/a
532.126	0.105	1064252	keystroke	w	n/a
532.396	0.165	1064792	keystroke	s	n/a
532.546	0.0905	1065092	keystroke	e	n/a
532.9065	0.075	1065813	keystroke	Key.enter	n/a
532.987	10.796	1065974	prompt	n/a	rankings christopher challenging bookstore\n
533.7615	0.135	1067523	keystroke	r	n/a
533.9115	0.165	1067823	keystroke	a	n/a
534.0465	0.15	1068093	keystroke	n	n/a
534.1815	0.135	1068363	keystroke	k	n/a
534.406	0.1055	1068812	keystroke	i	n/a
534.9915	0.075	1069983	keystroke	n	n/a
535.1115	0.09	1070223	keystroke	g	n/a
535.3365	0.12	1070673	keystroke	s	n/a
535.4865	0.135	1070973	keystroke	Key.space	n/a
535.7115	0.1495	1071423	keystroke	c	n/a
535.862	0.074	1071724	keystroke	h	n/a
536.071	0.09	1072142	keystroke	r	n/a
536.176	0.06	1072352	keystroke	i	n/a
536.296	0.135	1072592	keystroke	s	n/a
536.9265	0.105	1073853	keystroke	t	n/a
537.466	0.135	1074932	keystroke	o	n/a
538.051	0.09	1076102	keystroke	p	n/a
538.246	0.075	1076492	keystroke	h	n/a
538.456	0.151	1076912	keystroke	e	n/a
538.561	0.15	1077122	keystroke	r	n/a
538.816	0.12	1077632	keystroke	Key.space	n/a
539.041	0.15	1078082	keystroke	c	n/a
539.206	0.075	1078412	keystroke	h	n/a
540.166	0.15	1080332	keystroke	a	n/a
540.511	0.0755	1081022	keystroke	l	n/a
540.6765	0.09	1081353	keystroke	l	n/a
540.8265	0.15	1081653	keystroke	e	n/a
540.9615	0.075	1081923	keystroke	n	n/a
541.1265	0.075	1082253	keystroke	g	n/a
541.2765	0.075	1082553	keystroke	i	n/a
541.4715	0.09	1082943	keystroke	n	n/a
541.5765	0.15	1083153	keystroke	g	n/a
541.7115	0.09	1083423	keystroke	Key.space	n/a
541.8765	0.165	1083753	keystroke	b	n/a
542.2365	0.045	1084473	keystroke	o	n/a
542.3715	0.09	1084743	keystroke	o	n/a
542.5215	0.1195	1085043	keystroke	k	n/a
542.656	0.195	1085312	keystroke	s	n/a
542.881	0.105	1085762	keystroke	t	n/a
543.031	0.15	1086062	keystroke	o	n/a
543.136	0.15	1086272	keystroke	r	n/a
543.256	0.12	1086512	keystroke	e	n/a
543.6915	0.09	1087383	keystroke	Key.enter	n/a
543.7875	5.276	1087575	prompt	n/a	that're seeker slope load\n
544.5465	0.09	1089093	keystroke	t	n/a
544.6965	0.09	1089393	keystroke	h	n/a
544.7565	0.135	1089513	keystroke	a	n/a
544.8765	0.09	1089753	keystroke	t	n/a
545.1165	0.06	1090233	keystroke	'	n/a
545.2815	0.1495	1090563	keystroke	r	n/a
545.416	0.135	1090832	keystroke	e	n/a
545.716	0.135	1091432	keystroke	Key.space	n/a
545.971	0.12	1091942	keystroke	s	n/a
546.106	0.075	1092212	keystroke	e	n/a
546.286	0.075	1092572	keystroke	e	n/a
546.406	0.12	1092812	keystroke	k	n/a
546.541	0.1355	1093082	keystroke	e	n/a
546.661	0.1505	1093322	keystroke	r	n/a
546.8265	0.105	1093653	keystroke	Key.space	n/a
547.0365	0.045	1094073	keystroke	s	n/a
547.1415	0.12	1094283	keystroke	l	n/a
547.3815	0.135	1094763	keystroke	o	n/a
547.5315	0.105	1095063	keystroke	p	n/a
547.6965	0.135	1095393	keystroke	e	n/a
547.9065	0.105	1095813	keystroke	Key.space	n/a
548.1615	0.105	1096323	keystroke	l	n/a
548.3865	0.12	1096773	keystroke	o	n/a
548.4915	0.15	1096983	keystroke	a	n/a
548.6415	0.15	1097283	keystroke	d	n/a
548.9715	0.09	1097943	keystroke	Key.enter	n/a
549.0665	11.5045	1098133	prompt	n/a	novel southampton lingerie candy\n
549.946	0.09	1099892	keystroke	n	n/a
550.111	0.12	1100222	keystroke	o	n/a
550.246	0.105	1100492	keystroke	v	n/a
550.606	0.09	1101212	keystroke	e	n/a
550.877	0.09	1101754	keystroke	l	n/a
550.996	0.121	1101992	keystroke	Key.space	n/a
551.207	0.135	1102414	keystroke	s	n/a
551.327	0.135	1102654	keystroke	o	n/a
551.4315	0.0905	1102863	keystroke	u	n/a
551.7165	0.105	1103433	keystroke	t	n/a
551.8365	0.09	1103673	keystroke	h	n/a
552.1965	0.135	1104393	keystroke	a	n/a
552.3465	0.12	1104693	keystroke	m	n/a
552.5565	0.075	1105113	keystroke	p	n/a
552.7815	0.105	1105563	keystroke	t	n/a
552.9015	0.135	1105803	keystroke	o	n/a
553.1115	0.075	1106223	keystroke	n	n/a
553.3215	0.075	1106643	keystroke	Key.space	n/a
554.311	0.075	1108622	keystroke	i	n/a
554.686	0.06	1109372	keystroke	n	n/a
555.361	0.09	1110722	keystroke	g	n/a
555.586	0.18	1111172	keystroke	e	n/a
555.721	0.12	1111442	keystroke	r	n/a
555.946	0.105	1111892	keystroke	i	n/a
556.066	0.18	1112132	keystroke	e	n/a
556.261	0.15	1112522	keystroke	Key.space	n/a
556.471	0.18	1112942	keystroke	c	n/a
556.606	0.18	1113212	keystroke	a	n/a
556.771	0.075	1113542	keystroke	n	n/a
556.936	0.105	1113872	keystroke	d	n/a
557.881	0.075	1115762	keystroke	y	n/a
560.5685	0	1121137	keystroke	Key.enter	n/a
560.5735	13.3895	1121147	prompt	n/a	participate accessory harassment conclusion\n
561.3465	0.12	1122693	keystroke	p	n/a
561.5715	0.135	1123143	keystroke	r	n/a
562.6515	0.06	1125303	keystroke	Key.backspace	n/a
562.8615	0.15	1125723	keystroke	a	n/a
563.056	0.105	1126112	keystroke	r	n/a
563.6415	0.105	1127283	keystroke	t	n/a
563.8515	0.075	1127703	keystroke	i	n/a
564.0765	0.135	1128153	keystroke	c	n/a
564.2115	0.09	1128423	keystroke	i	n/a
564.4065	0.09	1128813	keystroke	p	n/a
564.6015	0.18	1129203	keystroke	a	n/a
564.7665	0.1045	1129533	keystroke	t	n/a
564.931	0.135	1129862	keystroke	e	n/a
565.111	0.135	1130222	keystroke	Key.space	n/a
565.366	0.135	1130732	keystroke	a	n/a
565.621	0.105	1131242	keystroke	c	n/a
565.831	0.075	1131662	keystroke	c	n/a
566.011	0.12	1132022	keystroke	e	n/a
566.221	0.105	1132442	keystroke	s	n/a
566.401	0.075	1132802	keystroke	s	n/a
566.6115	0.12	1133223	keystroke	o	n/a
566.7465	0.09	1133493	keystroke	r	n/a
566.9265	0.075	1133853	keystroke	y	n/a
567.0615	0.105	1134123	keystroke	Key.space	n/a
567.422	0.075	1134844	keystroke	h	n/a
567.752	0.135	1135504	keystroke	a	n/a
567.947	0.105	1135894	keystroke	r	n/a
568.247	0.09	1136494	keystroke	s	n/a
569.641	0.09	1139282	keystroke	Key.backspace	n/a
569.911	0.135	1139822	keystroke	a	n/a
570.181	0.075	1140362	keystroke	s	n/a
570.376	0.09	1140752	keystroke	s	n/a
570.7215	0.09	1141443	keystroke	m	n/a
570.8415	0.1195	1141683	keystroke	e	n/a
570.962	0.089	1141924	keystroke	n	n/a
571.066	0.165	1142132	keystroke	t	n/a
571.216	0.135	1142432	keystroke	Key.space	n/a
571.5015	0.1345	1143003	keystroke	c	n/a
571.651	0.1055	1143302	keystroke	o	n/a
571.8465	0.09	1143693	keystroke	n	n/a
572.2365	0.135	1144473	keystroke	c	n/a
572.717	0.105	1145434	keystroke	l	n/a
572.882	0.09	1145764	keystroke	u	n/a
573.092	0.15	1146184	keystroke	s	n/a
573.182	0.18	1146364	keystroke	i	n/a
573.317	0.165	1146634	keystroke	o	n/a
573.452	0.105	1146904	keystroke	n	n/a
573.8865	0.075	1147773	keystroke	Key.enter	n/a
573.966	23.742	1147932	prompt	n/a	mustang expenditures theme tables\n
574.9065	0.09	1149813	keystroke	m	n/a
575.1615	0.075	1150323	keystroke	u	n/a
575.7015	0.12	1151403	keystroke	s	n/a
575.9415	0.105	1151883	keystroke	t	n/a
576.0765	0.15	1152153	keystroke	a	n/a
576.2415	0.09	1152483	keystroke	n	n/a
576.691	0.105	1153382	keystroke	g	n/a
576.916	0.135	1153832	keystroke	Key.space	n/a
577.4565	0.0895	1154913	keystroke	e	n/a
577.756	0.105	1155512	keystroke	x	n/a
578.0115	0.09	1156023	keystroke	p	n/a
578.1765	0.18	1156353	keystroke	e	n/a
578.3115	0.105	1156623	keystroke	r	n/a
578.4765	0.075	1156953	keystroke	n	n/a
578.5815	0.12	1157163	keystroke	d	n/a
578.8215	0.105	1157643	keystroke	i	n/a
579.0465	0.09	1158093	keystroke	t	n/a
579.1515	0.105	1158303	keystroke	u	n/a
579.2715	0.135	1158543	keystroke	r	n/a
579.3615	0.15	1158723	keystroke	e	n/a
579.6465	0.12	1159293	keystroke	s	n/a
579.7965	0.105	1159593	keystroke	Key.space	n/a
580.0365	0.105	1160073	keystroke	t	n/a
580.1265	0.075	1160253	keystroke	h	n/a
580.2465	0.15	1160493	keystroke	e	n/a
581.926	0.09	1163852	keystroke	Key.backspace	n/a
582.9915	0.09	1165983	keystroke	Key.backspace	n/a
583.396	0.09	1166792	keystroke	Key.backspace	n/a
583.831	0.075	1167662	keystroke	Key.backspace	n/a
584.536	0.091	1169072	keystroke	Key.backspace	n/a
585.0315	0.09	1170063	keystroke	Key.backspace	n/a
585.601	0.091	1171202	keystroke	Key.backspace	n/a
586.051	0.061	1172102	keystroke	Key.backspace	n/a
586.456	0.09	1172912	keystroke	Key.backspace	n/a
586.936	0.06	1173872	keystroke	Key.backspace	n/a
587.536	0.0605	1175072	keystroke	Key.backspace	n/a
587.9865	0.0605	1175973	keystroke	Key.backspace	n/a
588.3615	0.045	1176723	keystroke	Key.backspace	n/a
590.0865	0.075	1180173	keystroke	n	n/a
590.2815	0.105	1180563	keystroke	d	n/a
590.7615	0.075	1181523	keystroke	i	n/a
591.0315	0.105	1182063	keystroke	t	n/a
591.2115	0.09	1182423	keystroke	u	n/a
591.3165	0.165	1182633	keystroke	r	n/a
591.4365	0.1355	1182873	keystroke	e	n/a
591.7065	0.12	1183413	keystroke	s	n/a
591.8565	0.135	1183713	keystroke	Key.space	n/a
592.2915	0.09	1184583	keystroke	t	n/a
592.3665	0.075	1184733	keystroke	h	n/a
592.4565	0.135	1184913	keystroke	e	n/a
592.6815	0.075	1185363	keystroke	m	n/a
592.8915	0.09	1185783	keystroke	Key.space	n/a
593.731	0.12	1187462	keystroke	t	n/a
593.866	0.165	1187732	keystroke	a	n/a
594.4665	0.1045	1188933	keystroke	Key.backspace	n/a
595.0065	0.075	1190013	keystroke	Key.backspace	n/a
595.5015	0.09	1191003	keystroke	Key.backspace	n/a
595.8315	0.12	1191663	keystroke	e	n/a
596.2065	0.135	1192413	keystroke	Key.space	n/a
596.5515	0.09	1193103	keystroke	t	n/a
596.7015	0.135	1193403	keystroke	a	n/a
596.9115	0.075	1193823	keystroke	b	n/a
597.0015	0.12	1194003	keystroke	l	n/a
597.1365	0.135	1194273	keystroke	e	n/a
597.2565	0.105	1194513	keystroke	s	n/a
597.6165	0.0895	1195233	keystroke	Key.enter	n/a
597.7125	7.5555	1195425	prompt	n/a	badge load aged robot\n
598.501	0.105	1197002	keystroke	b	n/a
598.681	0.12	1197362	keystroke	a	n/a
598.891	0.12	1197782	keystroke	d	n/a
599.2215	0.09	1198443	keystroke	g	n/a
599.3865	0.135	1198773	keystroke	e	n/a
599.5815	0.12	1199163	keystroke	Key.space	n/a
599.9265	0.12	1199853	keystroke	o	n/a
600.1215	0.135	1200243	keystroke	a	n/a
601.262	0.075	1202524	keystroke	Key.backspace	n/a
601.742	0.045	1203484	keystroke	Key.backspace	n/a
602.3115	0.0595	1204623	keystroke	l	n/a
602.4915	0.06	1204983	keystroke	o	n/a
602.5965	0.135	1205193	keystroke	a	n/a
602.7615	0.165	1205523	keystroke	d	n/a
602.9715	0.195	1205943	keystroke	Key.space	n/a
603.5565	0.1805	1207113	keystroke	a	n/a
603.722	0.075	1207444	keystroke	g	n/a
603.872	0.0895	1207744	keystroke	e	n/a
604.0815	0.105	1208163	keystroke	d	n/a
604.1715	0.105	1208343	keystroke	Key.space	n/a
604.3215	0.12	1208643	keystroke	r	n/a
604.4715	0.1505	1208943	keystroke	o	n/a
604.636	0.105	1209272	keystroke	b	n/a
604.786	0.1355	1209572	keystroke	o	n/a
604.9365	0.09	1209873	keystroke	t	n/a
605.1765	0.09	1210353	keystroke	Key.enter	n/a
605.2715	10.7665	1210543	prompt	n/a	junior how'll liverpool layout\n
605.9415	0.135	1211883	keystroke	j	n/a
606.2265	0.06	1212453	keystroke	u	n/a
606.4215	0.075	1212843	keystroke	n	n/a
606.572	0.059	1213144	keystroke	i	n/a
606.751	0.106	1213502	keystroke	o	n/a
606.872	0.15	1213744	keystroke	r	n/a
607.052	0.15	1214104	keystroke	Key.space	n/a
607.397	0.09	1214794	keystroke	h	n/a
607.577	0.105	1215154	keystroke	o	n/a
607.952	0.0895	1215904	keystroke	w	n/a
608.747	0.06	1217494	keystroke	'	n/a
609.122	0.045	1218244	keystroke	l	n/a
609.482	0.075	1218964	keystroke	l	n/a
609.767	0.135	1219534	keystroke	Key.space	n/a
610.2765	0.1055	1220553	keystroke	l	n/a
610.487	0.105	1220974	keystroke	i	n/a
610.682	0.105	1221364	keystroke	v	n/a
610.922	0.105	1221844	keystroke	e	n/a
610.997	0.09	1221994	keystroke	r	n/a
611.192	0.09	1222384	keystroke	p	n/a
611.372	0.075	1222744	keystroke	o	n/a
611.537	0.075	1223074	keystroke	o	n/a
612.092	0.105	1224184	keystroke	l	n/a
612.2565	0.1045	1224513	keystroke	Key.space	n/a
612.452	0.12	1224904	keystroke	l	n/a
612.601	0.135	1225202	keystroke	a	n/a
612.812	0.089	1225624	keystroke	y	n/a
613.4865	0.12	1226973	keystroke	o	n/a
613.6515	0.09	1227303	keystroke	u	n/a
614.4315	0.09	1228863	keystroke	t	n/a
615.9465	0.09	1231893	keystroke	Key.enter	n/a
616.041	7.7375	1232082	prompt	n/a	holdings johns tasks changing\n
616.7115	0.06	1233423	keystroke	h	n/a
616.8765	0.09	1233753	keystroke	o	n/a
617.0715	0.105	1234143	keystroke	l	n/a
617.2215	0.12	1234443	keystroke	d	n/a
617.3265	0.075	1234653	keystroke	i	n/a
617.5215	0.09	1235043	keystroke	n	n/a
617.6415	0.075	1235283	keystroke	g	n/a
617.9565	0.12	1235913	keystroke	s	n/a
618.1515	0.12	1236303	keystroke	Key.space	n/a
618.4965	0.105	1236993	keystroke	j	n/a
618.7065	0.09	1237413	keystroke	o	n/a
619.247	0.075	1238494	keystroke	h	n/a
619.457	0.09	1238914	keystroke	n	n/a
619.667	0.12	1239334	keystroke	s	n/a
619.832	0.1345	1239664	keystroke	Key.space	n/a
620.5215	0.105	1241043	keystroke	t	n/a
620.7015	0.15	1241403	keystroke	a	n/a
620.8665	0.12	1241733	keystroke	s	n/a
621.3615	0.09	1242723	keystroke	k	n/a
621.5565	0.12	1243113	keystroke	s	n/a
621.7665	0.105	1243533	keystroke	Key.space	n/a
622.0065	0.165	1244013	keystroke	c	n/a
622.1415	0.105	1244283	keystroke	h	n/a
622.3065	0.15	1244613	keystroke	a	n/a
622.7715	0.075	1245543	keystroke	n	n/a
622.9665	0.0455	1245933	keystroke	g	n/a
623.027	0.09	1246054	keystroke	i	n/a
623.237	0.09	1246474	keystroke	n	n/a
623.357	0.09	1246714	keystroke	g	n/a
623.702	0.075	1247404	keystroke	Key.enter	n/a
623.782	9.821	1247564	prompt	n/a	immediately harris similarly holdings\n
624.467	0.09	1248934	keystroke	i	n/a
624.692	0.06	1249384	keystroke	m	n/a
624.827	0.06	1249654	keystroke	m	n/a
625.0815	0.075	1250163	keystroke	e	n/a
625.2765	0.09	1250553	keystroke	d	n/a
625.4415	0.075	1250883	keystroke	i	n/a
625.6065	0.195	1251213	keystroke	a	n/a
625.8165	0.09	1251633	keystroke	t	n/a
625.9215	0.135	1251843	keystroke	e	n/a
626.1765	0.105	1252353	keystroke	l	n/a
626.4465	0.06	1252893	keystroke	y	n/a
626.6115	0.105	1253223	keystroke	Key.space	n/a
626.9865	0.075	1253973	keystroke	h	n/a
627.287	0.165	1254574	keystroke	a	n/a
627.482	0.045	1254964	keystroke	r	n/a
627.647	0.075	1255294	keystroke	r	n/a
627.782	0.09	1255564	keystroke	i	n/a
627.917	0.135	1255834	keystroke	s	n/a
628.037	0.15	1256074	keystroke	Key.space	n/a
628.382	0.119	1256764	keystroke	s	n/a
628.576	0.1055	1257152	keystroke	i	n/a
629.791	0.105	1259582	keystroke	m	n/a
630.047	0.075	1260094	keystroke	i	n/a
630.272	0.119	1260544	keystroke	l	n/a
630.437	0.1655	1260874	keystroke	a	n/a
630.5865	0.105	1261173	keystroke	r	n/a
630.8715	0.09	1261743	keystroke	l	n/a
631.0815	0.075	1262163	keystroke	y	n/a
631.3065	0.105	1262613	keystroke	Key.space	n/a
631.7415	0.075	1263483	keystroke	h	n/a
631.8915	0.105	1263783	keystroke	o	n/a
632.1015	0.105	1264203	keystroke	l	n/a
632.2365	0.105	1264473	keystroke	d	n/a
632.3265	0.09	1264653	keystroke	i	n/a
632.537	0.075	1265074	keystroke	n	n/a
632.657	0.06	1265314	keystroke	g	n/a
633.107	0.105	1266214	keystroke	s	n/a
633.5115	0.09	1267023	keystroke	Key.enter	n/a
633.6055	7.633	1267211	prompt	n/a	byte emerald luke passing\n
634.7425	0.119	1269485	keystroke	b	n/a
635.642	0.075	1271284	keystroke	y	n/a
636.017	0.12	1272034	keystroke	t	n/a
636.151	0.136	1272302	keystroke	e	n/a
636.437	0.135	1272874	keystroke	Key.space	n/a
636.662	0.075	1273324	keystroke	e	n/a
636.872	0.105	1273744	keystroke	m	n/a
637.052	0.195	1274104	keystroke	e	n/a
637.187	0.12	1274374	keystroke	r	n/a
637.4265	0.135	1274853	keystroke	a	n/a
637.5465	0.105	1275093	keystroke	l	n/a
637.9065	0.1205	1275813	keystroke	d	n/a
638.102	0.105	1276204	keystroke	Key.space	n/a
638.372	0.12	1276744	keystroke	l	n/a
638.7015	0.12	1277403	keystroke	u	n/a
639.1215	0.09	1278243	keystroke	k	n/a
639.2565	0.1355	1278513	keystroke	e	n/a
639.422	0.15	1278844	keystroke	Key.space	n/a
639.767	0.09	1279534	keystroke	p	n/a
639.902	0.135	1279804	keystroke	a	n/a
640.052	0.12	1280104	keystroke	s	n/a
640.352	0.12	1280704	keystroke	s	n/a
640.577	0.075	1281154	keystroke	i	n/a
640.7715	0.075	1281543	keystroke	n	n/a
640.9065	0.105	1281813	keystroke	g	n/a
641.1765	0.06	1282353	keystroke	Key.enter	n/a
641.2415	6.9265	1282483	prompt	n/a	allied carl descending dear\n
641.8665	0.12	1283733	keystroke	a	n/a
642.0315	0.075	1284063	keystroke	l	n/a
642.1815	0.105	1284363	keystroke	l	n/a
642.3765	0.09	1284753	keystroke	i	n/a
642.4965	0.0905	1284993	keystroke	e	n/a
642.692	0.12	1285384	keystroke	d	n/a
642.827	0.12	1285654	keystroke	Key.space	n/a
643.127	0.135	1286254	keystroke	c	n/a
643.277	0.195	1286554	keystroke	a	n/a
643.442	0.12	1286884	keystroke	r	n/a
643.877	0.09	1287754	keystroke	l	n/a
644.012	0.15	1288024	keystroke	Key.space	n/a
644.7465	0.075	1289493	keystroke	d	n/a
644.9115	0.0755	1289823	keystroke	e	n/a
645.137	0.12	1290274	keystroke	s	n/a
645.362	0.12	1290724	keystroke	c	n/a
645.947	0.165	1291894	keystroke	e	n/a
646.472	0.06	1292944	keystroke	n	n/a
646.6215	0.105	1293243	keystroke	d	n/a
646.7715	0.076	1293543	keystroke	i	n/a
646.9515	0.076	1293903	keystroke	n	n/a
646.9965	0.135	1293993	keystroke	g	n/a
647.1465	0.12	1294293	keystroke	Key.space	n/a
647.4015	0.0755	1294803	keystroke	d	n/a
647.567	0.3	1295134	keystroke	e	n/a
647.672	0.18	1295344	keystroke	a	n/a
647.837	0.135	1295674	keystroke	r	n/a
648.092	0.075	1296184	keystroke	Key.enter	n/a
648.171	13.917	1296342	prompt	n/a	blond huntington gamecube bands\n
649.1715	0.12	1298343	keystroke	b	n/a
649.3815	0.09	1298763	keystroke	l	n/a
649.5915	0.09	1299183	keystroke	o	n/a
649.8015	0.075	1299603	keystroke	n	n/a
649.8915	0.135	1299783	keystroke	d	n/a
650.0115	0.135	1300023	keystroke	Key.space	n/a
650.282	0.075	1300564	keystroke	h	n/a
650.462	0.06	1300924	keystroke	u	n/a
650.687	0.045	1301374	keystroke	n	n/a
650.822	0.075	1301644	keystroke	g	n/a
652.1265	0.105	1304253	keystroke	t	n/a
653.762	0.12	1307524	keystroke	i	n/a
654.992	0.119	1309984	keystroke	Key.backspace	n/a
655.5165	0.075	1311033	keystroke	Key.backspace	n/a
655.8915	0.06	1311783	keystroke	Key.backspace	n/a
656.2225	0.105	1312445	keystroke	t	n/a
656.3415	0.061	1312683	keystroke	i	n/a
656.5215	0.0755	1313043	keystroke	n	n/a
656.657	0.105	1313314	keystroke	g	n/a
657.7975	0.0895	1315595	keystroke	t	n/a
657.992	0.09	1315984	keystroke	o	n/a
658.217	0.06	1316434	keystroke	n	n/a
658.337	0.1045	1316674	keystroke	Key.space	n/a
658.6525	0.104	1317305	keystroke	g	n/a
658.8325	0.149	1317665	keystroke	a	n/a
658.9975	0.06	1317995	keystroke	m	n/a
659.4775	0.135	1318955	keystroke	e	n/a
659.7915	0.105	1319583	keystroke	c	n/a
659.9415	0.106	1319883	keystroke	u	n/a
660.2415	0.12	1320483	keystroke	b	n/a
660.4815	0.15	1320963	keystroke	e	n/a
660.6465	0.15	1321293	keystroke	Key.space	n/a
661.0815	0.1205	1322163	keystroke	b	n/a
661.262	0.1195	1322524	keystroke	a	n/a
661.3665	0.091	1322733	keystroke	n	n/a
661.4415	0.18	1322883	keystroke	d	n/a
661.6375	0.12	1323275	keystroke	s	n/a
662.0115	0.075	1324023	keystroke	Key.enter	n/a
662.0925	6.746	1324185	prompt	n/a	increasing noon spirit freight\n
662.702	0.075	1325404	keystroke	i	n/a
662.882	0.075	1325764	keystroke	n	n/a
663.062	0.12	1326124	keystroke	c	n/a
663.287	0.15	1326574	keystroke	r	n/a
663.392	0.15	1326784	keystroke	e	n/a
663.512	0.18	1327024	keystroke	a	n/a
664.142	0.105	1328284	keystroke	s	n/a
664.262	0.075	1328524	keystroke	i	n/a
664.472	0.06	1328944	keystroke	n	n/a
664.6525	0.1195	1329305	keystroke	g	n/a
664.787	0.135	1329574	keystroke	Key.space	n/a
664.982	0.075	1329964	keystroke	n	n/a
665.162	0.06	1330324	keystroke	o	n/a
665.4025	0.015	1330805	keystroke	o	n/a
665.5825	0.089	1331165	keystroke	n	n/a
665.7625	0.09	1331525	keystroke	Key.space	n/a
666.0025	0.12	1332005	keystroke	s	n/a
666.1675	0.105	1332335	keystroke	p	n/a
666.3775	0.09	1332755	keystroke	i	n/a
666.5265	0.1055	1333053	keystroke	r	n/a
666.812	0.09	1333624	keystroke	i	n/a
666.977	0.165	1333954	keystroke	t	n/a
667.187	0.15	1334374	keystroke	Key.space	n/a
667.5015	0.09	1335003	keystroke	f	n/a
667.7575	0.134	1335515	keystroke	r	n/a
667.9215	0.1055	1335843	keystroke	e	n/a
668.117	0.09	1336234	keystroke	i	n/a
668.282	0.075	1336564	keystroke	g	n/a
668.402	0.075	1336804	keystroke	h	n/a
668.537	0.0895	1337074	keystroke	t	n/a
668.7615	0.075	1337523	keystroke	Key.enter	n/a
668.8415	13.422	1337683	prompt	n/a	accounting recorders technology referred\n
669.602	0.15	1339204	keystroke	a	n/a
669.797	0.09	1339594	keystroke	c	n/a
