onset	duration	sample	value	key	prompt_text
3.6515	9.5055	7303	prompt	n/a	the quick brown fox jumps over a lazy dog\n
5.6265	0.0285	11253	keystroke_t	t	n/a
5.6395	0.074	11279	keystroke_h	h	n/a
5.744	0.075	11488	keystroke_e	e	n/a
5.8635	0.0905	11727	keystroke_Key.space	Key.space	n/a
6.2985	0.1055	12597	keystroke_q	q	n/a
6.3595	0.1195	12719	keystroke_u	u	n/a
6.4635	0.106	12927	keystroke_i	i	n/a
6.599	0.075	13198	keystroke_c	c	n/a
6.6895	0.12	13379	keystroke_k	k	n/a
6.869	0.0595	13738	keystroke_Key.space	Key.space	n/a
7.049	0.0895	14098	keystroke_b	b	n/a
7.1535	0.061	14307	keystroke_r	r	n/a
7.2435	0.091	14487	keystroke_o	o	n/a
7.3485	0.075	14697	keystroke_w	w	n/a
7.6335	0.0765	15267	keystroke_n	n	n/a
7.754	0.09	15508	keystroke_Key.space	Key.space	n/a
7.859	0.075	15718	keystroke_f	f	n/a
7.9785	0.09	15957	keystroke_o	o	n/a
8.174	0.09	16348	keystroke_x	x	n/a
8.339	0.0745	16678	keystroke_Key.space	Key.space	n/a
8.6695	0.074	17339	keystroke_j	j	n/a
8.8795	0.074	17759	keystroke_u	u	n/a
9.2835	0.1205	18567	keystroke_m	m	n/a
9.4495	0.089	18899	keystroke_p	p	n/a
9.5235	0.0755	19047	keystroke_s	s	n/a
9.6435	0.1355	19287	keystroke_Key.space	Key.space	n/a
10.3935	0.0755	20787	keystroke_o	o	n/a
10.499	0.1045	20998	keystroke_v	v	n/a
10.664	0.1495	21328	keystroke_e	e	n/a
10.7235	0.165	21447	keystroke_r	r	n/a
10.8735	0.121	21747	keystroke_Key.space	Key.space	n/a
11.219	0.1045	22438	keystroke_a	a	n/a
11.3835	0.09	22767	keystroke_Key.space	Key.space	n/a
11.5185	0.1205	23037	keystroke_l	l	n/a
11.654	0.075	23308	keystroke_a	a	n/a
11.849	0.1045	23698	keystroke_z	z	n/a
11.924	0.09	23848	keystroke_y	y	n/a
12.044	0.1055	24088	keystroke_Key.space	Key.space	n/a
12.419	0.1195	24838	keystroke_d	d	n/a
12.4795	0.104	24959	keystroke_o	o	n/a
12.599	0.105	25198	keystroke_g	g	n/a
13.079	0.0745	26158	keystroke_Key.enter	Key.enter	n/a
13.1635	8.1825	26327	prompt	n/a	reggae minerals cycle diagnostic\n
13.919	0.1055	27838	keystroke_r	r	n/a
13.9945	0.12	27989	keystroke_e	e	n/a
14.1895	0.089	28379	keystroke_g	g	n/a
14.354	0.1055	28708	keystroke_a	a	n/a
14.8035	0.076	29607	keystroke_Key.backspace	Key.backspace	n/a
14.9245	0.075	29849	keystroke_g	g	n/a
15.0295	0.149	30059	keystroke_a	a	n/a
15.315	0.0745	30630	keystroke_e	e	n/a
15.434	0.09	30868	keystroke_Key.space	Key.space	n/a
15.749	0.0755	31498	keystroke_m	m	n/a
15.899	0.09	31798	keystroke_i	i	n/a
16.0195	0.0895	32039	keystroke_n	n	n/a
16.124	0.1345	32248	keystroke_e	e	n/a
16.2295	0.12	32459	keystroke_r	r	n/a
16.3635	0.1205	32727	keystroke_a	a	n/a
16.499	0.1055	32998	keystroke_l	l	n/a
16.694	0.09	33388	keystroke_s	s	n/a
17.5935	0.0895	35187	keystroke_Key.space	Key.space	n/a
17.773	0.1215	35546	keystroke_c	c	n/a
18.1345	0.09	36269	keystroke_u	u	n/a
18.4185	0.106	36837	keystroke_Key.backspace	Key.backspace	n/a
18.5695	0.075	37139	keystroke_y	y	n/a
18.674	0.1055	37348	keystroke_c	c	n/a
18.7945	0.149	37589	keystroke_l	l	n/a
18.929	0.0745	37858	keystroke_e	e	n/a
19.0935	0.1055	38187	keystroke_Key.space	Key.space	n/a
19.38	0.0895	38760	keystroke_d	d	n/a
19.4995	0.0895	38999	keystroke_i	i	n/a
19.6195	0.105	39239	keystroke_a	a	n/a
20.0235	0.061	40047	keystroke_g	g	n/a
20.2335	0.105	40467	keystroke_n	n	n/a
20.3695	0.089	40739	keystroke_o	o	n/a
20.474	0.0745	40948	keystroke_t	t	n/a
20.6545	0.119	41309	keystroke_s	s	n/a
20.8485	0.0455	41697	keystroke_t	t	n/a
20.924	0.1055	41848	keystroke_i	i	n/a
21.1495	0.0895	42299	keystroke_c	c	n/a
21.269	0.074	42538	keystroke_Key.enter	Key.enter	n/a
21.358	8.5675	42716	prompt	n/a	relevance disclaimers tradition tiffany\n
22.244	0.15	44488	keystroke_r	r	n/a
22.379	0.105	44758	keystroke_e	e	n/a
22.469	0.09	44938	keystroke_l	l	n/a
22.5895	0.1045	45179	keystroke_e	e	n/a
22.7695	0.12	45539	keystroke_v	v	n/a
22.874	0.12	45748	keystroke_a	a	n/a
22.979	0.0755	45958	keystroke_n	n	n/a
23.1895	0.15	46379	keystroke_c	c	n/a
23.294	0.136	46588	keystroke_e	e	n/a
23.4435	0.105	46887	keystroke_Key.space	Key.space	n/a
23.6985	0.0755	47397	keystroke_d	d	n/a
23.849	0.0755	47698	keystroke_i	i	n/a
23.939	0.09	47878	keystroke_s	s	n/a
24.2395	0.09	48479	keystroke_v	v	n/a
24.614	0.0605	49228	keystroke_Key.backspace	Key.backspace	n/a
24.7345	0.105	49469	keystroke_c	c	n/a
24.9145	0.0895	49829	keystroke_l	l	n/a
25.2745	0.105	50549	keystroke_a	a	n/a
25.5595	0.074	51119	keystroke_i	i	n/a
25.7545	0.09	51509	keystroke_m	m	n/a
25.859	0.1355	51718	keystroke_e	e	n/a
25.979	0.1495	51958	keystroke_r	r	n/a
26.1435	0.1055	52287	keystroke_s	s	n/a
26.309	0.1045	52618	keystroke_Key.space	Key.space	n/a
26.6845	0.1645	53369	keystroke_t	t	n/a
26.819	0.1355	53638	keystroke_r	r	n/a
26.9095	0.089	53819	keystroke_a	a	n/a
27.1195	0.074	54239	keystroke_d	d	n/a
27.269	0.0445	54538	keystroke_i	i	n/a
27.3295	0.09	54659	keystroke_t	t	n/a
27.449	0.3155	54898	keystroke_i	i	n/a
27.584	0.165	55168	keystroke_o	o	n/a
27.705	0.1345	55410	keystroke_n	n	n/a
28.0795	0.074	56159	keystroke_Key.space	Key.space	n/a
28.4395	0.075	56879	keystroke_r	r	n/a
28.7685	0.091	57537	keystroke_Key.backspace	Key.backspace	n/a
28.904	0.0455	57808	keystroke_t	t	n/a
29.0085	0.075	58017	keystroke_i	i	n/a
29.204	0.0605	58408	keystroke_f	f	n/a
29.3695	0.075	58739	keystroke_f	f	n/a
29.5195	0.1345	59039	keystroke_a	a	n/a
29.609	0.0905	59218	keystroke_n	n	n/a
29.744	0.0755	59488	keystroke_y	y	n/a
29.834	0.09	59668	keystroke_Key.enter	Key.enter	n/a
29.941	9.9455	59882	prompt	n/a	linux on guns situated\n
30.7045	0.1045	61409	keystroke_l	l	n/a
30.9295	0.09	61859	keystroke_i	i	n/a
31.064	0.0905	62128	keystroke_n	n	n/a
31.274	0.076	62548	keystroke_u	u	n/a
31.4245	0.12	62849	keystroke_x	x	n/a
31.5745	0.059	63149	keystroke_Key.space	Key.space	n/a
32.0835	0.121	64167	keystroke_o	o	n/a
32.1895	0.0895	64379	keystroke_n	n	n/a
32.3095	0.0745	64619	keystroke_Key.space	Key.space	n/a
32.6095	0.1055	65219	keystroke_g	g	n/a
32.8195	0.0895	65639	keystroke_u	u	n/a
33.0285	0.091	66057	keystroke_n	n	n/a
33.1045	0.104	66209	keystroke_s	s	n/a
33.2095	0.104	66419	keystroke_Key.space	Key.space	n/a
33.7645	0.104	67529	keystroke_s	s	n/a
33.929	0.1345	67858	keystroke_i	i	n/a
34.1235	0.106	68247	keystroke_t	t	n/a
34.2445	0.1345	68489	keystroke_a	a	n/a
34.349	0.09	68698	keystroke_t	t	n/a
34.424	0.105	68848	keystroke_u	u	n/a
34.799	0.15	69598	keystroke_e	e	n/a
34.95	0.12	69900	keystroke_s	s	n/a
35.4745	0.0895	70949	keystroke_Key.backspace	Key.backspace	n/a
35.669	0.09	71338	keystroke_Key.backspace	Key.backspace	n/a
36.929	0.105	73858	keystroke_Key.backspace	Key.backspace	n/a
37.064	0.0455	74128	keystroke_Key.backspace	Key.backspace	n/a
37.409	0.09	74818	keystroke_Key.backspace	Key.backspace	n/a
38.07	0.089	76140	keystroke_t	t	n/a
38.2195	0.104	76439	keystroke_u	u	n/a
38.6385	0.0755	77277	keystroke_Key.backspace	Key.backspace	n/a
38.7435	0.121	77487	keystroke_Key.backspace	Key.backspace	n/a
38.9395	0.1205	77879	keystroke_u	u	n/a
39.0445	0.135	78089	keystroke_a	a	n/a
39.1195	0.164	78239	keystroke_t	t	n/a
39.2545	0.119	78509	keystroke_e	e	n/a
39.4645	0.0745	78929	keystroke_d	d	n/a
39.5985	0.0905	79197	keystroke_Key.space	Key.space	n/a
39.7935	0.09	79587	keystroke_Key.enter	Key.enter	n/a
39.8905	10.871	79781	prompt	n/a	inappropriate affects customers fill\n
40.635	0.1335	81270	keystroke_i	i	n/a
40.8435	0.0755	81687	keystroke_n	n	n/a
41.144	0.105	82288	keystroke_a	a	n/a
41.3095	0.09	82619	keystroke_p	p	n/a
41.4895	0.1045	82979	keystroke_p	p	n/a
41.609	0.0905	83218	keystroke_r	r	n/a
41.9395	0.0595	83879	keystroke_o	o	n/a
43.169	0.105	86338	keystroke_Key.backspace	Key.backspace	n/a
43.9345	0.1045	87869	keystroke_o	o	n/a
44.2045	0.105	88409	keystroke_p	p	n/a
44.624	0.105	89248	keystroke_r	r	n/a
44.714	0.105	89428	keystroke_i	i	n/a
45.029	0.135	90058	keystroke_t	t	n/a
45.359	0.09	90718	keystroke_Key.backspace	Key.backspace	n/a
45.451	0.134	90902	keystroke_a	a	n/a
45.539	0.1355	91078	keystroke_t	t	n/a
45.614	0.12	91228	keystroke_e	e	n/a
45.794	0.09	91588	keystroke_Key.space	Key.space	n/a
45.93	0.1045	91860	keystroke_a	a	n/a
46.019	0.105	92038	keystroke_f	f	n/a
46.199	0.12	92398	keystroke_f	f	n/a
46.289	0.165	92578	keystroke_e	e	n/a
46.424	0.136	92848	keystroke_c	c	n/a
46.68	0.134	93360	keystroke_t	t	n/a
46.799	0.1205	93598	keystroke_s	s	n/a
46.904	0.1205	93808	keystroke_Key.space	Key.space	n/a
47.1	0.074	94200	keystroke_s	s	n/a
47.414	0.105	94828	keystroke_Key.backspace	Key.backspace	n/a
47.504	0.1045	95008	keystroke_c	c	n/a
47.6235	0.075	95247	keystroke_u	u	n/a
49.0185	0.136	98037	keystroke_s	s	n/a
49.1095	0.104	98219	keystroke_t	t	n/a
49.169	0.196	98338	keystroke_o	o	n/a
49.2745	0.135	98549	keystroke_m	m	n/a
49.4535	0.151	98907	keystroke_e	e	n/a
49.5295	0.149	99059	keystroke_r	r	n/a
49.6935	0.1205	99387	keystroke_s	s	n/a
49.8295	0.1045	99659	keystroke_Key.space	Key.space	n/a
49.979	0.1055	99958	keystroke_f	f	n/a
50.114	0.0905	100228	keystroke_i	i	n/a
50.3245	0.09	100649	keystroke_l	l	n/a
50.504	0.045	101008	keystroke_l	l	n/a
50.6395	0.1195	101279	keystroke_Key.enter	Key.enter	n/a
50.7705	9.201	101541	prompt	n/a	secretary balance consisting hopkins\n
51.3445	0.1495	102689	keystroke_s	s	n/a
51.479	0.135	102958	keystroke_e	e	n/a
51.8535	0.06	103707	keystroke_c	c	n/a
52.0335	0.0915	104067	keystroke_r	r	n/a
52.2295	0.1645	104459	keystroke_e	e	n/a
52.379	0.12	104758	keystroke_t	t	n/a
52.544	0.12	105088	keystroke_a	a	n/a
52.649	0.09	105298	keystroke_r	r	n/a
52.784	0.09	105568	keystroke_y	y	n/a
52.904	0.075	105808	keystroke_Key.space	Key.space	n/a
53.5935	0.061	107187	keystroke_b	b	n/a
53.6835	0.09	107367	keystroke_a	a	n/a
53.7895	0.089	107579	keystroke_l	l	n/a
53.894	0.075	107788	keystroke_a	a	n/a
53.9995	0.0595	107999	keystroke_n	n	n/a
54.074	0.1355	108148	keystroke_c	c	n/a
54.164	0.12	108328	keystroke_e	e	n/a
54.299	0.09	108598	keystroke_Key.space	Key.space	n/a
54.749	0.1055	109498	keystroke_c	c	n/a
54.8395	0.1345	109679	keystroke_o	o	n/a
54.9295	0.1045	109859	keystroke_n	n	n/a
55.049	0.09	110098	keystroke_s	s	n/a
55.184	0.0745	110368	keystroke_i	i	n/a
55.304	0.2255	110608	keystroke_s	s	n/a
55.4845	0.0895	110969	keystroke_t	t	n/a
55.5445	0.1795	111089	keystroke_i	i	n/a
55.6645	0.119	111329	keystroke_n	n	n/a
55.814	0.075	111628	keystroke_g	g	n/a
55.9785	0.0755	111957	keystroke_Key.space	Key.space	n/a
56.384	0.1055	112768	keystroke_h	h	n/a
56.5935	0.1205	113187	keystroke_o	o	n/a
56.729	0.1055	113458	keystroke_p	p	n/a
56.983	0.076	113966	keystroke_l	l	n/a
57.344	0.09	114688	keystroke_=	=	n/a
57.539	0.0905	115078	keystroke_k	k	n/a
57.704	0.0455	115408	keystroke_u	u	n/a
58.064	0.075	116128	keystroke_Key.backspace	Key.backspace	n/a
58.229	0.06	116458	keystroke_Key.backspace	Key.backspace	n/a
58.364	0.09	116728	keystroke_Key.backspace	Key.backspace	n/a
58.514	0.075	117028	keystroke_Key.backspace	Key.backspace	n/a
59.3245	0.0745	118649	keystroke_k	k	n/a
59.474	0.105	118948	keystroke_i	i	n/a
59.624	0.091	119248	keystroke_n	n	n/a
59.744	0.0745	119488	keystroke_s	s	n/a
59.8485	0.1205	119697	keystroke_Key.enter	Key.enter	n/a
59.978	9.608	119956	prompt	n/a	admission existed earl drilling\n
60.765	0.089	121530	keystroke_a	a	n/a
61.109	0.105	122218	keystroke_d	d	n/a
61.11	0.059	122220	keystroke_m	m	n/a
61.424	0.075	122848	keystroke_Key.backspace	Key.backspace	n/a
61.559	0.09	123118	keystroke_Key.backspace	Key.backspace	n/a
61.619	0.075	123238	keystroke_d	d	n/a
61.8135	0.09	123627	keystroke_m	m	n/a
62.174	0.0305	124348	keystroke_s	s	n/a
62.2495	0.18	124499	keystroke_i	i	n/a
62.863	0.061	125726	keystroke_Key.backspace	Key.backspace	n/a
63.014	0.105	126028	keystroke_Key.backspace	Key.backspace	n/a
63.285	0.074	126570	keystroke_i	i	n/a
63.449	0.1055	126898	keystroke_s	s	n/a
63.6745	0.1495	127349	keystroke_s	s	n/a
64.049	0.255	128098	keystroke_i	i	n/a
64.154	0.18	128308	keystroke_o	o	n/a
64.259	0.165	128518	keystroke_n	n	n/a
64.439	0.105	128878	keystroke_Key.space	Key.space	n/a
65.069	0.075	130138	keystroke_e	e	n/a
65.534	0.135	131068	keystroke_x	x	n/a
65.835	0.104	131670	keystroke_i	i	n/a
66.029	0.15	132058	keystroke_s	s	n/a
66.164	0.15	132328	keystroke_t	t	n/a
66.2695	0.1195	132539	keystroke_e	e	n/a
66.4645	0.1345	132929	keystroke_d	d	n/a
66.659	0.09	133318	keystroke_Key.space	Key.space	n/a
67.004	0.255	134008	keystroke_e	e	n/a
67.094	0.15	134188	keystroke_a	a	n/a
67.229	0.12	134458	keystroke_r	r	n/a
67.3645	0.09	134729	keystroke_l	l	n/a
67.5145	0.134	135029	keystroke_Key.space	Key.space	n/a
67.7085	0.1655	135417	keystroke_d	d	n/a
67.889	0.06	135778	keystroke_i	i	n/a
67.979	0.075	135958	keystroke_r	r	n/a
68.2935	0.06	136587	keystroke_Key.backspace	Key.backspace	n/a
68.4145	0.09	136829	keystroke_Key.backspace	Key.backspace	n/a
68.5345	0.0745	137069	keystroke_r	r	n/a
68.639	0.0755	137278	keystroke_i	i	n/a
68.864	0.0305	137728	keystroke_l	l	n/a
68.984	0.06	137968	keystroke_l	l	n/a
69.1645	0.1345	138329	keystroke_i	i	n/a
69.269	0.075	138538	keystroke_n	n	n/a
69.329	0.075	138658	keystroke_g	g	n/a
69.464	0.1195	138928	keystroke_Key.enter	Key.enter	n/a
69.597	7.1445	139194	prompt	n/a	campus seller relevant petite\n
70.3945	0.1345	140789	keystroke_c	c	n/a
70.514	0.09	141028	keystroke_a	a	n/a
70.619	0.09	141238	keystroke_m	m	n/a
70.7695	0.134	141539	keystroke_p	p	n/a
70.9185	0.105	141837	keystroke_u	u	n/a
71.0395	0.1045	142079	keystroke_s	s	n/a
71.1585	0.09	142317	keystroke_Key.space	Key.space	n/a
71.7585	0.0755	143517	keystroke_s	s	n/a
71.939	0.09	143878	keystroke_e	e	n/a
71.999	0.06	143998	keystroke_l	l	n/a
72.164	0.06	144328	keystroke_l	l	n/a
72.239	0.12	144478	keystroke_e	e	n/a
72.3145	0.105	144629	keystroke_r	r	n/a
72.449	0.105	144898	keystroke_Key.space	Key.space	n/a
72.7345	0.134	145469	keystroke_r	r	n/a
72.8535	0.106	145707	keystroke_e	e	n/a
72.9595	0.09	145919	keystroke_l	l	n/a
73.1395	0.075	146279	keystroke_e	e	n/a
73.3045	0.104	146609	keystroke_v	v	n/a
73.4545	0.1195	146909	keystroke_a	a	n/a
73.589	0.0755	147178	keystroke_n	n	n/a
74.084	0.0755	148168	keystroke_t	t	n/a
74.354	0.15	148708	keystroke_Key.space	Key.space	n/a
75.0735	0.151	150147	keystroke_p	p	n/a
75.2095	0.134	150419	keystroke_e	e	n/a
75.299	0.0905	150598	keystroke_r	r	n/a
75.884	0.15	151768	keystroke_Key.backspace	Key.backspace	n/a
76.169	0.0755	152338	keystroke_t	t	n/a
76.26	0.0745	152520	keystroke_i	i	n/a
76.424	0.075	152848	keystroke_t	t	n/a
76.4845	0.0895	152969	keystroke_e	e	n/a
76.588	0.151	153176	keystroke_Key.enter	Key.enter	n/a
76.7565	6.69	153513	prompt	n/a	america investigations friend solve\n
77.4285	0.106	154857	keystroke_a	a	n/a
77.564	0.0605	155128	keystroke_m	m	n/a
77.6845	0.1345	155369	keystroke_e	e	n/a
77.7595	0.1195	155519	keystroke_r	r	n/a
77.939	0.075	155878	keystroke_i	i	n/a
78.059	0.075	156118	keystroke_c	c	n/a
78.119	0.105	156238	keystroke_a	a	n/a
78.329	0.06	156658	keystroke_Key.space	Key.space	n/a
78.569	0.0745	157138	keystroke_i	i	n/a
78.719	0.06	157438	keystroke_n	n	n/a
79.0645	0.104	158129	keystroke_v	v	n/a
79.184	0.2405	158368	keystroke_e	e	n/a
79.2895	0.18	158579	keystroke_s	s	n/a
79.4095	0.1195	158819	keystroke_t	t	n/a
79.5885	0.09	159177	keystroke_i	i	n/a
79.7085	0.091	159417	keystroke_g	g	n/a
79.814	0.135	159628	keystroke_a	a	n/a
79.904	0.105	159808	keystroke_t	t	n/a
80.024	0.225	160048	keystroke_i	i	n/a
80.13	0.134	160260	keystroke_o	o	n/a
80.219	0.1355	160438	keystroke_n	n	n/a
80.3695	0.089	160739	keystroke_s	s	n/a
80.5035	0.0605	161007	keystroke_Key.space	Key.space	n/a
80.999	0.045	161998	keystroke_g	g	n/a
81.404	0.045	162808	keystroke_Key.backspace	Key.backspace	n/a
81.554	0.1505	163108	keystroke_f	f	n/a
81.5985	0.18	163197	keystroke_r	r	n/a
81.7495	0.12	163499	keystroke_i	i	n/a
81.8995	0.09	163799	keystroke_e	e	n/a
81.9585	0.105	163917	keystroke_n	n	n/a
82.0945	0.104	164189	keystroke_d	d	n/a
82.2435	0.0755	164487	keystroke_Key.space	Key.space	n/a
82.769	0.06	165538	keystroke_s	s	n/a
82.874	0.09	165748	keystroke_o	o	n/a
83.0995	0.075	166199	keystroke_l	l	n/a
83.114	0.105	166228	keystroke_v	v	n/a
83.234	0.165	166468	keystroke_e	e	n/a
83.369	0.075	166738	keystroke_Key.enter	Key.enter	n/a
83.414	0.105	166828	keystroke_r	r	n/a
83.4515	14.964	166903	prompt	n/a	football solaris texts forbes\n
84.764	0.075	169528	keystroke_f	f	n/a
84.854	0.0445	169708	keystroke_o	o	n/a
85.0035	0.12	170007	keystroke_o	o	n/a
85.0785	0.075	170157	keystroke_t	t	n/a
85.349	0.0755	170698	keystroke_b	b	n/a
85.4685	0.061	170937	keystroke_a	a	n/a
85.784	0.12	171568	keystroke_l	l	n/a
85.9935	0.106	171987	keystroke_Key.space	Key.space	n/a
86.2035	0.09	172407	keystroke_l	l	n/a
86.384	0.0905	172768	keystroke_o	o	n/a
86.5785	0.12	173157	keystroke_r	r	n/a
86.999	0.0755	173998	keystroke_Key.backspace	Key.backspace	n/a
87.0755	0.134	174151	keystroke_a	a	n/a
87.1495	0.1195	174299	keystroke_r	r	n/a
87.284	0.075	174568	keystroke_i	i	n/a
87.404	0.09	174808	keystroke_s	s	n/a
87.524	0.12	175048	keystroke_Key.space	Key.space	n/a
87.944	0.135	175888	keystroke_t	t	n/a
88.034	0.1055	176068	keystroke_e	e	n/a
88.244	0.1355	176488	keystroke_c	c	n/a
88.3945	0.075	176789	keystroke_t	t	n/a
88.4995	0.104	176999	keystroke_s	s	n/a
88.9195	0.045	177839	keystroke_Key.backspace	Key.backspace	n/a
89.054	0.075	178108	keystroke_Key.backspace	Key.backspace	n/a
89.474	0.0455	178948	keystroke_Key.backspace	Key.backspace	n/a
89.609	0.12	179218	keystroke_x	x	n/a
89.984	0.1495	179968	keystroke_t	t	n/a
90.194	0.075	180388	keystroke_s	s	n/a
90.344	0.06	180688	keystroke_Key.backspace	Key.backspace	n/a
90.5085	0.0605	181017	keystroke_Key.backspace	Key.backspace	n/a
90.659	0.075	181318	keystroke_Key.backspace	Key.backspace	n/a
90.809	0.06	181618	keystroke_Key.backspace	Key.backspace	n/a
90.9735	0.0605	181947	keystroke_Key.backspace	Key.backspace	n/a
91.109	0.06	182218	keystroke_Key.backspace	Key.backspace	n/a
91.244	0.105	182488	keystroke_Key.backspace	Key.backspace	n/a
91.394	0.075	182788	keystroke_Key.backspace	Key.backspace	n/a
91.589	0.0895	183178	keystroke_Key.backspace	Key.backspace	n/a
91.919	0.12	183838	keystroke_Key.backspace	Key.backspace	n/a
92.354	0.0595	184708	keystroke_Key.backspace	Key.backspace	n/a
92.6085	0.1045	185217	keystroke_Key.backspace	Key.backspace	n/a
93.239	0.179	186478	keystroke_Key.backspace	Key.backspace	n/a
93.509	0.09	187018	keystroke_l	l	n/a
93.7185	0.09	187437	keystroke_Key.space	Key.space	n/a
93.8535	0.1215	187707	keystroke_s	s	n/a
93.9145	0.1045	187829	keystroke_o	o	n/a
94.139	0.0905	188278	keystroke_l	l	n/a
94.7385	0.151	189477	keystroke_a	a	n/a
94.9335	0.091	189867	keystroke_r	r	n/a
95.0385	0.075	190077	keystroke_i	i	n/a
95.1595	0.135	190319	keystroke_s	s	n/a
95.2785	0.1055	190557	keystroke_Key.space	Key.space	n/a
95.789	0.1355	191578	keystroke_t	t	n/a
95.8945	0.12	191789	keystroke_e	e	n/a
96.2085	0.12	192417	keystroke_x	x	n/a
96.4185	0.135	192837	keystroke_t	t	n/a
96.5695	0.12	193139	keystroke_s	s	n/a
97.1535	0.09	194307	keystroke_Key.space	Key.space	n/a
97.4235	0.0755	194847	keystroke_f	f	n/a
97.529	0.105	195058	keystroke_o	o	n/a
97.619	0.09	195238	keystroke_r	r	n/a
97.9035	0.076	195807	keystroke_b	b	n/a
98.009	0.0895	196018	keystroke_e	e	n/a
98.189	0.105	196378	keystroke_s	s	n/a
98.324	0.09	196648	keystroke_Key.enter	Key.enter	n/a
98.4275	5.598	196855	prompt	n/a	injured grab solely walking\n
99.074	0.12	198148	keystroke_i	i	n/a
99.1795	0.1045	198359	keystroke_n	n	n/a
99.434	0.075	198868	keystroke_j	j	n/a
99.5845	0.075	199169	keystroke_u	u	n/a
99.6745	0.1345	199349	keystroke_r	r	n/a
99.7645	0.0895	199529	keystroke_e	e	n/a
99.9745	0.0745	199949	keystroke_d	d	n/a
100.064	0.09	200128	keystroke_Key.space	Key.space	n/a
100.754	0.105	201508	keystroke_g	g	n/a
100.8445	0.0745	201689	keystroke_r	r	n/a
100.874	0.2095	201748	keystroke_a	a	n/a
101.2185	0.09	202437	keystroke_b	b	n/a
101.384	0.1195	202768	keystroke_Key.space	Key.space	n/a
101.6695	0.104	203339	keystroke_s	s	n/a
101.8185	0.091	203637	keystroke_o	o	n/a
102.0145	0.075	204029	keystroke_l	l	n/a
102.1045	0.105	204209	keystroke_e	e	n/a
102.2695	0.1495	204539	keystroke_l	l	n/a
102.419	0.09	204838	keystroke_y	y	n/a
102.6285	0.12	205257	keystroke_Key.space	Key.space	n/a
103.064	0.1355	206128	keystroke_w	w	n/a
103.1835	0.121	206367	keystroke_a	a	n/a
103.2885	0.106	206577	keystroke_l	l	n/a
103.4245	0.075	206849	keystroke_k	k	n/a
103.6045	0.135	207209	keystroke_i	i	n/a
103.7085	0.1215	207417	keystroke_n	n	n/a
103.814	0.075	207628	keystroke_g	g	n/a
103.919	0.1045	207838	keystroke_Key.enter	Key.enter	n/a
104.03	11.6355	208060	prompt	n/a	critical chronicle sold national\n
104.6385	0.12	209277	keystroke_c	c	n/a
104.894	0.0905	209788	keystroke_r	r	n/a
105.014	0.06	210028	keystroke_i	i	n/a
105.119	0.09	210238	keystroke_t	t	n/a
105.269	0.0905	210538	keystroke_i	i	n/a
105.374	0.1045	210748	keystroke_v	v	n/a
105.6885	0.0595	211377	keystroke_Key.backspace	Key.backspace	n/a
105.8095	0.075	211619	keystroke_c	c	n/a
106.4535	0.0905	212907	keystroke_a	a	n/a
106.559	0.09	213118	keystroke_l	l	n/a
106.769	0.105	213538	keystroke_Key.space	Key.space	n/a
107.039	0.075	214078	keystroke_c	c	n/a
107.159	0.075	214318	keystroke_h	h	n/a
107.31	0.0745	214620	keystroke_r	r	n/a
107.5035	0.061	215007	keystroke_o	o	n/a
107.7585	0.076	215517	keystroke_n	n	n/a
107.909	0.075	215818	keystroke_i	i	n/a
107.9985	0.075	215997	keystroke_c	c	n/a
108.0885	0.076	216177	keystroke_a	a	n/a
108.1645	0.0905	216329	keystroke_l	l	n/a
108.4495	0.06	216899	keystroke_e	e	n/a
108.6135	0.06	217227	keystroke_Key.space	Key.space	n/a
108.8085	0.09	217617	keystroke_s	s	n/a
108.9145	0.059	217829	keystroke_o	o	n/a
109.0795	0.09	218159	keystroke_l	l	n/a
109.2285	0.076	218457	keystroke_d	d	n/a
109.3945	0.059	218789	keystroke_Key.space	Key.space	n/a
109.7385	0.076	219477	keystroke_n	n	n/a
109.8295	0.1495	219659	keystroke_a	a	n/a
109.934	0.1055	219868	keystroke_t	t	n/a
110.0245	0.2395	220049	keystroke_i	i	n/a
110.129	0.1205	220258	keystroke_o	o	n/a
110.234	0.12	220468	keystroke_n	n	n/a
110.399	0.105	220798	keystroke_a	a	n/a
110.6085	0.06	221217	keystroke_Key.backspace	Key.backspace	n/a
110.7735	0.045	221547	keystroke_Key.backspace	Key.backspace	n/a
110.8935	0.06	221787	keystroke_Key.backspace	Key.backspace	n/a
111.0285	0.06	222057	keystroke_Key.backspace	Key.backspace	n/a
111.149	0.0595	222298	keystroke_Key.backspace	Key.backspace	n/a
111.2685	0.09	222537	keystroke_Key.backspace	Key.backspace	n/a
111.404	0.0445	222808	keystroke_Key.backspace	Key.backspace	n/a
111.5235	0.0605	223047	keystroke_Key.backspace	Key.backspace	n/a
111.8385	0.0155	223677	keystroke_Key.backspace	Key.backspace	n/a
111.9285	0.06	223857	keystroke_Key.backspace	Key.backspace	n/a
112.0785	0.06	224157	keystroke_Key.backspace	Key.backspace	n/a
112.2135	0.075	224427	keystroke_Key.backspace	Key.backspace	n/a
112.363	0.076	224726	keystroke_Key.backspace	Key.backspace	n/a
112.5735	0.0305	225147	keystroke_Key.backspace	Key.backspace	n/a
112.694	0.0895	225388	keystroke_Key.backspace	Key.backspace	n/a
112.9185	0.0905	225837	keystroke_Key.backspace	Key.backspace	n/a
113.4895	0.0295	226979	keystroke_l	l	n/a
113.5645	0.0745	227129	keystroke_e	e	n/a
113.669	0.1055	227338	keystroke_Key.space	Key.space	n/a
113.8035	0.105	227607	keystroke_s	s	n/a
113.8935	0.075	227787	keystroke_o	o	n/a
114.0885	0.0605	228177	keystroke_l	l	n/a
114.1785	0.075	228357	keystroke_d	d	n/a
114.3745	0.074	228749	keystroke_Key.space	Key.space	n/a
114.644	0.045	229288	keystroke_n	n	n/a
114.719	0.1195	229438	keystroke_a	a	n/a
114.8085	0.105	229617	keystroke_t	t	n/a
114.884	0.1955	229768	keystroke_i	i	n/a
115.0195	0.0895	230039	keystroke_o	o	n/a
115.0645	0.134	230129	keystroke_n	n	n/a
115.2135	0.0755	230427	keystroke_a	a	n/a
115.3035	0.09	230607	keystroke_l	l	n/a
115.5585	0.1055	231117	keystroke_Key.enter	Key.enter	n/a
115.6695	8.397	231339	prompt	n/a	reproduced drugs shopzilla reviews\n
116.4435	0.12	232887	keystroke_r	r	n/a
116.549	0.0895	233098	keystroke_e	e	n/a
116.669	0.09	233338	keystroke_p	p	n/a
116.8935	0.075	233787	keystroke_r	r	n/a
117.0445	0.0595	234089	keystroke_o	o	n/a
117.4645	0.074	234929	keystroke_d	d	n/a
117.5835	0.045	235167	keystroke_u	u	n/a
117.704	0.135	235408	keystroke_c	c	n/a
117.839	0.06	235678	keystroke_e	e	n/a
118.0335	0.0455	236067	keystroke_Key.space	Key.space	n/a
118.499	0.0595	236998	keystroke_Key.backspace	Key.backspace	n/a
118.5735	0.075	237147	keystroke_d	d	n/a
118.7085	0.0905	237417	keystroke_Key.space	Key.space	n/a
119.2645	0.044	238529	keystroke_r	r	n/a
119.5935	0.075	239187	keystroke_Key.backspace	Key.backspace	n/a
119.6835	0.136	239367	keystroke_d	d	n/a
119.7895	0.135	239579	keystroke_r	r	n/a
119.9395	0.074	239879	keystroke_u	u	n/a
120.029	0.1205	240058	keystroke_g	g	n/a
120.194	0.09	240388	keystroke_s	s	n/a
120.3285	0.105	240657	keystroke_Key.space	Key.space	n/a
120.6135	0.106	241227	keystroke_s	s	n/a
121.019	0.09	242038	keystroke_h	h	n/a
121.5895	0.195	243179	keystroke_o	o	n/a
121.7695	0.105	243539	keystroke_p	p	n/a
122.0235	0.136	244047	keystroke_z	z	n/a
122.1445	0.089	244289	keystroke_i	i	n/a
122.3085	0.0905	244617	keystroke_l	l	n/a
122.489	0.089	244978	keystroke_l	l	n/a
122.593	0.091	245186	keystroke_a	a	n/a
122.7585	0.105	245517	keystroke_Key.space	Key.space	n/a
123.0135	0.121	246027	keystroke_r	r	n/a
123.1035	0.121	246207	keystroke_e	e	n/a
123.2995	0.1045	246599	keystroke_v	v	n/a
123.389	0.0755	246778	keystroke_i	i	n/a
123.5095	0.1955	247019	keystroke_e	e	n/a
123.6145	0.1195	247229	keystroke_w	w	n/a
123.853	0.061	247706	keystroke_s	s	n/a
123.9735	0.09	247947	keystroke_Key.enter	Key.enter	n/a
124.0885	6.4735	248177	prompt	n/a	white failure rose journal\n
124.994	0.1045	249988	keystroke_w	w	n/a
125.1135	0.121	250227	keystroke_h	h	n/a
125.2635	0.075	250527	keystroke_i	i	n/a
125.4595	0.1195	250919	keystroke_t	t	n/a
125.549	0.09	251098	keystroke_e	e	n/a
125.7285	0.15	251457	keystroke_Key.space	Key.space	n/a
125.9985	0.135	251997	keystroke_f	f	n/a
126.1185	0.091	252237	keystroke_a	a	n/a
126.284	0.0745	252568	keystroke_i	i	n/a
126.5095	0.104	253019	keystroke_l	l	n/a
126.7645	0.0595	253529	keystroke_u	u	n/a
126.8535	0.136	253707	keystroke_r	r	n/a
126.9435	0.106	253887	keystroke_e	e	n/a
127.1085	0.105	254217	keystroke_Key.space	Key.space	n/a
127.4535	0.045	254907	keystroke_f	f	n/a
127.7535	0.075	255507	keystroke_Key.backspace	Key.backspace	n/a
127.844	0.105	255688	keystroke_r	r	n/a
128.0085	0.106	256017	keystroke_o	o	n/a
128.0995	0.134	256199	keystroke_s	s	n/a
128.1885	0.136	256377	keystroke_e	e	n/a
128.309	0.1345	256618	keystroke_Key.space	Key.space	n/a
128.729	0.09	257458	keystroke_j	j	n/a
128.8645	0.1345	257729	keystroke_o	o	n/a
128.984	0.0905	257968	keystroke_u	u	n/a
129.0895	0.119	258179	keystroke_r	r	n/a
129.2395	0.074	258479	keystroke_n	n	n/a
129.3745	0.09	258749	keystroke_a	a	n/a
129.4645	0.089	258929	keystroke_;	;	n/a
130.0485	0.105	260097	keystroke_Key.backspace	Key.backspace	n/a
130.319	0.0605	260638	keystroke_l	l	n/a
130.4535	0.105	260907	keystroke_Key.enter	Key.enter	n/a
130.5795	14.9055	261159	prompt	n/a	enhancements treated istanbul vulnerability\n
131.234	0.0745	262468	keystroke_e	e	n/a
131.3535	0.0905	262707	keystroke_n	n	n/a
131.534	0.0895	263068	keystroke_c	c	n/a
131.6385	0.075	263277	keystroke_h	h	n/a
131.909	0.044	263818	keystroke_Key.backspace	Key.backspace	n/a
132.059	0.03	264118	keystroke_Key.backspace	Key.backspace	n/a
132.5995	0.044	265199	keystroke_h	h	n/a
132.6895	0.089	265379	keystroke_a	a	n/a
132.794	0.1045	265588	keystroke_n	n	n/a
132.9285	0.165	265857	keystroke_c	c	n/a
133.0945	0.104	266189	keystroke_e	e	n/a
133.439	0.075	266878	keystroke_m	m	n/a
133.5285	0.1205	267057	keystroke_e	e	n/a
133.664	0.06	267328	keystroke_n	n	n/a
133.694	0.135	267388	keystroke_t	t	n/a
133.814	0.12	267628	keystroke_s	s	n/a
133.994	0.06	267988	keystroke_Key.space	Key.space	n/a
134.204	0.165	268408	keystroke_t	t	n/a
134.324	0.225	268648	keystroke_r	r	n/a
134.594	0.09	269188	keystroke_r	r	n/a
134.9395	0.1045	269879	keystroke_Key.backspace	Key.backspace	n/a
135.0285	0.1505	270057	keystroke_a	a	n/a
135.1345	0.134	270269	keystroke_t	t	n/a
135.2235	0.106	270447	keystroke_e	e	n/a
135.6135	0.06	271227	keystroke_Key.backspace	Key.backspace	n/a
135.7635	0.06	271527	keystroke_Key.backspace	Key.backspace	n/a
135.9135	0.105	271827	keystroke_Key.backspace	Key.backspace	n/a
135.9745	0.195	271949	keystroke_e	e	n/a
136.064	0.1505	272128	keystroke_a	a	n/a
136.1395	0.194	272279	keystroke_t	t	n/a
136.3185	0.09	272637	keystroke_e	e	n/a
136.9185	0.0455	273837	keystroke_d	d	n/a
137.0385	0.12	274077	keystroke_Key.space	Key.space	n/a
137.3995	0.074	274799	keystroke_i	i	n/a
137.5035	0.1355	275007	keystroke_s	s	n/a
137.624	0.15	275248	keystroke_t	t	n/a
137.789	0.0755	275578	keystroke_n	n	n/a
137.804	0.09	275608	keystroke_a	a	n/a
138.329	0.06	276658	keystroke_Key.backspace	Key.backspace	n/a
138.479	0.089	276958	keystroke_Key.backspace	Key.backspace	n/a
138.899	0.0895	277798	keystroke_a	a	n/a
138.974	0.0595	277948	keystroke_n	n	n/a
139.784	0.03	279568	keystroke_b	b	n/a
139.889	0.12	279778	keystroke_u	u	n/a
140.024	0.135	280048	keystroke_l	l	n/a
140.234	0.09	280468	keystroke_Key.space	Key.space	n/a
141.2845	0.089	282569	keystroke_v	v	n/a
141.389	0.12	282778	keystroke_u	u	n/a
141.539	0.12	283078	keystroke_l	l	n/a
141.9745	0.075	283949	keystroke_n	n	n/a
142.1245	0.149	284249	keystroke_e	e	n/a
142.1835	0.135	284367	keystroke_r	r	n/a
143.879	0.059	287758	keystroke_a	a	n/a
144.5385	0.105	289077	keystroke_b	b	n/a
144.6735	0.105	289347	keystroke_i	i	n/a
144.8235	0.121	289647	keystroke_l	l	n/a
145.0495	0.0595	290099	keystroke_i	i	n/a
145.154	0.075	290308	keystroke_t	t	n/a
145.303	0.0755	290606	keystroke_y	y	n/a
145.423	0.06	290846	keystroke_Key.enter	Key.enter	n/a
145.5025	5.8925	291005	prompt	n/a	perform bronze american anti\n
146.3235	0.09	292647	keystroke_p	p	n/a
146.4585	0.12	292917	keystroke_r	r	n/a
146.5485	0.09	293097	keystroke_e	e	n/a
146.774	0.06	293548	keystroke_f	f	n/a
146.8485	0.06	293697	keystroke_o	o	n/a
146.9685	0.06	293937	keystroke_r	r	n/a
147.0735	0.1055	294147	keystroke_m	m	n/a
147.299	0.0595	294598	keystroke_Key.space	Key.space	n/a
147.674	0.059	295348	keystroke_b	b	n/a
147.7485	0.075	295497	keystroke_r	r	n/a
147.839	0.1355	295678	keystroke_o	o	n/a
148.0035	0.0755	296007	keystroke_n	n	n/a
148.124	0.105	296248	keystroke_s	s	n/a
148.3935	0.075	296787	keystroke_Key.backspace	Key.backspace	n/a
148.484	0.1045	296968	keystroke_z	z	n/a
148.6195	0.1345	297239	keystroke_e	e	n/a
148.784	0.089	297568	keystroke_Key.space	Key.space	n/a
148.993	0.0605	297986	keystroke_a	a	n/a
149.0685	0.06	298137	keystroke_m	m	n/a
149.2485	0.165	298497	keystroke_e	e	n/a
149.323	0.1055	298646	keystroke_r	r	n/a
149.519	0.06	299038	keystroke_i	i	n/a
149.5935	0.12	299187	keystroke_c	c	n/a
149.6995	0.089	299399	keystroke_a	a	n/a
149.7735	0.09	299547	keystroke_n	n	n/a
149.924	0.1045	299848	keystroke_Key.space	Key.space	n/a
150.1035	0.0755	300207	keystroke_s	s	n/a
150.3745	0.059	300749	keystroke_n	n	n/a
150.5985	0.06	301197	keystroke_Key.backspace	Key.backspace	n/a
150.7635	0.06	301527	keystroke_Key.backspace	Key.backspace	n/a
150.854	0.0895	301708	keystroke_a	a	n/a
150.9285	0.105	301857	keystroke_n	n	n/a
151.0935	0.0755	302187	keystroke_t	t	n/a
151.1535	0.06	302307	keystroke_i	i	n/a
151.3485	0.0455	302697	keystroke_Key.enter	Key.enter	n/a
151.409	8.7015	302818	prompt	n/a	competitors tunes transferred bidding\n
152.174	0.12	304348	keystroke_c	c	n/a
152.279	0.09	304558	keystroke_o	o	n/a
152.4735	0.061	304947	keystroke_m	m	n/a
152.8635	0.1355	305727	keystroke_p	p	n/a
153.0285	0.1345	306057	keystroke_e	e	n/a
153.119	0.135	306238	keystroke_t	t	n/a
153.2845	0.1045	306569	keystroke_i	i	n/a
153.554	0.075	307108	keystroke_t	t	n/a
153.659	0.09	307318	keystroke_i	i	n/a
154.349	0.0895	308698	keystroke_o	o	n/a
154.664	0.044	309328	keystroke_Key.backspace	Key.backspace	n/a
154.783	0.075	309566	keystroke_Key.backspace	Key.backspace	n/a
155.069	0.1195	310138	keystroke_o	o	n/a
155.203	0.136	310406	keystroke_r	r	n/a
155.309	0.12	310618	keystroke_s	s	n/a
155.4735	0.12	310947	keystroke_Key.space	Key.space	n/a
155.9985	0.09	311997	keystroke_t	t	n/a
156.1785	0.045	312357	keystroke_u	u	n/a
156.3435	0.075	312687	keystroke_n	n	n/a
156.404	0.1795	312808	keystroke_e	e	n/a
156.4935	0.105	312987	keystroke_s	s	n/a
156.5995	0.104	313199	keystroke_Key.space	Key.space	n/a
156.869	0.18	313738	keystroke_t	t	n/a
157.019	0.1645	314038	keystroke_r	r	n/a
157.139	0.105	314278	keystroke_a	a	n/a
157.289	0.09	314578	keystroke_n	n	n/a
157.529	0.09	315058	keystroke_s	s	n/a
157.8135	0.0605	315627	keystroke_f	f	n/a
157.9785	0.12	315957	keystroke_e	e	n/a
158.084	0.104	316168	keystroke_r	r	n/a
158.263	0.12	316526	keystroke_r	r	n/a
158.398	0.091	316796	keystroke_e	e	n/a
158.578	0.091	317156	keystroke_d	d	n/a
158.714	0.0895	317428	keystroke_Key.space	Key.space	n/a
159.2235	0.0605	318447	keystroke_b	b	n/a
159.359	0.0905	318718	keystroke_i	i	n/a
159.4785	0.0755	318957	keystroke_d	d	n/a
159.644	0.0755	319288	keystroke_d	d	n/a
159.7035	0.135	319407	keystroke_i	i	n/a
159.809	0.0895	319618	keystroke_n	n	n/a
159.9135	0.075	319827	keystroke_g	g	n/a
160.0035	0.105	320007	keystroke_Key.enter	Key.enter	n/a
160.116	6.879	320232	prompt	n/a	grant secretary album chevy\n
160.904	0.15	321808	keystroke_g	g	n/a
160.963	0.151	321926	keystroke_r	r	n/a
161.068	0.0905	322136	keystroke_a	a	n/a
161.1735	0.09	322347	keystroke_n	n	n/a
161.2785	0.09	322557	keystroke_t	t	n/a
161.3835	0.075	322767	keystroke_Key.space	Key.space	n/a
161.6985	0.075	323397	keystroke_s	s	n/a
162.0135	0.1045	324027	keystroke_e	e	n/a
162.6585	0.075	325317	keystroke_c	c	n/a
162.8685	0.18	325737	keystroke_r	r	n/a
163.0035	0.1655	326007	keystroke_e	e	n/a
163.214	0.105	326428	keystroke_t	t	n/a
163.379	0.1945	326758	keystroke_a	a	n/a
163.633	0.091	327266	keystroke_r	r	n/a
163.829	0.0895	327658	keystroke_y	y	n/a
164.0085	0.106	328017	keystroke_Key.space	Key.space	n/a
165.059	0.12	330118	keystroke_a	a	n/a
165.194	0.1055	330388	keystroke_l	l	n/a
165.4185	0.0745	330837	keystroke_b	b	n/a
165.524	0.089	331048	keystroke_u	u	n/a
165.749	0.0595	331498	keystroke_m	m	n/a
165.9735	0.06	331947	keystroke_Key.space	Key.space	n/a
166.2135	0.1355	332427	keystroke_c	c	n/a
166.349	0.1195	332698	keystroke_h	h	n/a
166.4835	0.075	332967	keystroke_e	e	n/a
166.649	0.089	333298	keystroke_v	v	n/a
166.753	0.076	333506	keystroke_y	y	n/a
166.888	0.1055	333776	keystroke_Key.enter	Key.enter	n/a
167.0025	7.4195	334005	prompt	n/a	army closely regulated evaluation\n
167.638	0.106	335276	keystroke_a	a	n/a
167.7885	0.1205	335577	keystroke_r	r	n/a
167.924	0.09	335848	keystroke_m	m	n/a
168.148	0.075	336296	keystroke_y	y	n/a
168.298	0.1055	336596	keystroke_Key.space	Key.space	n/a
168.644	0.1045	337288	keystroke_c	c	n/a
168.7335	0.075	337467	keystroke_l	l	n/a
168.899	0.0895	337798	keystroke_o	o	n/a
169.019	0.0745	338038	keystroke_s	s	n/a
169.4845	0.104	338969	keystroke_e	e	n/a
169.7535	0.0905	339507	keystroke_l	l	n/a
169.934	0.0895	339868	keystroke_y	y	n/a
170.099	0.1195	340198	keystroke_Key.space	Key.space	n/a
170.5935	0.136	341187	keystroke_r	r	n/a
170.6995	0.104	341399	keystroke_e	e	n/a
170.893	0.091	341786	keystroke_g	g	n/a
171.014	0.105	342028	keystroke_u	u	n/a
171.163	0.121	342326	keystroke_l	l	n/a
171.238	0.136	342476	keystroke_a	a	n/a
171.479	0.135	342958	keystroke_t	t	n/a
171.554	0.12	343108	keystroke_e	e	n/a
171.749	0.075	343498	keystroke_d	d	n/a
171.9435	0.09	343887	keystroke_Key.space	Key.space	n/a
172.199	0.0905	344398	keystroke_e	e	n/a
172.5585	0.06	345117	keystroke_Key.backspace	Key.backspace	n/a
172.949	0.1195	345898	keystroke_e	e	n/a
173.039	0.134	346078	keystroke_v	v	n/a
173.159	0.119	346318	keystroke_a	a	n/a
173.293	0.091	346586	keystroke_l	l	n/a
173.398	0.121	346796	keystroke_u	u	n/a
173.684	0.12	347368	keystroke_a	a	n/a
173.759	0.105	347518	keystroke_t	t	n/a
173.849	0.135	347698	keystroke_i	i	n/a
173.954	0.12	347908	keystroke_o	o	n/a
174.149	0.075	348298	keystroke_n	n	n/a
174.3135	0.1055	348627	keystroke_Key.enter	Key.enter	n/a
174.4345	7.413	348869	prompt	n/a	daniel infants convert nerve\n
175.154	0.12	350308	keystroke_d	d	n/a
175.259	0.075	350518	keystroke_a	a	n/a
175.303	0.105	350606	keystroke_n	n	n/a
175.439	0.06	350878	keystroke_i	i	n/a
175.514	0.075	351028	keystroke_e	e	n/a
175.6495	0.0745	351299	keystroke_l	l	n/a
175.844	0.09	351688	keystroke_Key.space	Key.space	n/a
176.068	0.061	352136	keystroke_d	d	n/a
176.4435	0.06	352887	keystroke_Key.backspace	Key.backspace	n/a
176.654	0.134	353308	keystroke_i	i	n/a
176.773	0.0755	353546	keystroke_n	n	n/a
176.8335	0.0605	353667	keystroke_f	f	n/a
176.924	0.074	353848	keystroke_a	a	n/a
176.999	0.074	353998	keystroke_n	n	n/a
177.209	0.165	354418	keystroke_t	t	n/a
177.3285	0.1055	354657	keystroke_s	s	n/a
177.9735	0.06	355947	keystroke_Key.space	Key.space	n/a
178.454	0.1055	356908	keystroke_c	c	n/a
178.574	0.1195	357148	keystroke_o	o	n/a
178.6945	0.1045	357389	keystroke_n	n	n/a
179.9985	0.0895	359997	keystroke_v	v	n/a
180.1935	0.1355	360387	keystroke_e	e	n/a
180.268	0.121	360536	keystroke_r	r	n/a
180.463	0.1205	360926	keystroke_t	t	n/a
180.629	0.0895	361258	keystroke_Key.space	Key.space	n/a
181.154	0.0595	362308	keystroke_n	n	n/a
181.1985	0.135	362397	keystroke_e	e	n/a
181.3035	0.075	362607	keystroke_r	r	n/a
181.5435	0.1195	363087	keystroke_v	v	n/a
181.6485	0.12	363297	keystroke_e	e	n/a
181.753	0.091	363506	keystroke_Key.enter	Key.enter	n/a
181.903	10.653	363806	prompt	n/a	photographers hook gibraltar acids\n
182.504	0.0895	365008	keystroke_p	p	n/a
182.909	0.0595	365818	keystroke_o	o	n/a
183.8235	0.09	367647	keystroke_Key.backspace	Key.backspace	n/a
184.034	0.06	368068	keystroke_h	h	n/a
184.2595	0.0895	368519	keystroke_o	o	n/a
184.694	0.0895	369388	keystroke_t	t	n/a
184.799	0.075	369598	keystroke_o	o	n/a
185.3235	0.1055	370647	keystroke_g	g	n/a
185.3835	0.12	370767	keystroke_r	r	n/a
185.474	0.12	370948	keystroke_a	a	n/a
185.579	0.0745	371158	keystroke_p	p	n/a
185.713	0.0905	371426	keystroke_h	h	n/a
185.8335	0.15	371667	keystroke_e	e	n/a
185.9385	0.136	371877	keystroke_r	r	n/a
186.0885	0.09	372177	keystroke_s	s	n/a
186.2385	0.075	372477	keystroke_Key.space	Key.space	n/a
187.004	0.089	374008	keystroke_h	h	n/a
187.183	0.06	374366	keystroke_o	o	n/a
187.334	0.1045	374668	keystroke_o	o	n/a
187.484	0.104	374968	keystroke_k	k	n/a
187.8135	0.015	375627	keystroke_Key.space	Key.space	n/a
188.3085	0.045	376617	keystroke_g	g	n/a
188.3985	0.075	376797	keystroke_i	i	n/a
188.653	0.076	377306	keystroke_b	b	n/a
189.523	0.181	379046	keystroke_r	r	n/a
189.629	0.134	379258	keystroke_a	a	n/a
189.808	0.12	379616	keystroke_l	l	n/a
190.634	0.1045	381268	keystroke_t	t	n/a
190.7235	0.135	381447	keystroke_a	a	n/a
190.829	0.105	381658	keystroke_r	r	n/a
191.0535	0.09	382107	keystroke_Key.space	Key.space	n/a
191.7435	0.09	383487	keystroke_a	a	n/a
191.8635	0.105	383727	keystroke_c	c	n/a
191.9525	0.0915	383905	keystroke_i	i	n/a
192.0585	0.1205	384117	keystroke_d	d	n/a
192.133	0.121	384266	keystroke_s	s	n/a
192.4785	0.075	384957	keystroke_Key.enter	Key.enter	n/a
192.5715	7.364	385143	prompt	n/a	headlines arrangement hired wealth\n
193.694	0.074	387388	keystroke_h	h	n/a
193.7985	0.1355	387597	keystroke_e	e	n/a
193.918	0.121	387836	keystroke_a	a	n/a
194.099	0.09	388198	keystroke_d	d	n/a
194.248	0.1205	388496	keystroke_l	l	n/a
194.414	0.089	388828	keystroke_i	i	n/a
194.639	0.09	389278	keystroke_n	n	n/a
194.699	0.18	389398	keystroke_e	e	n/a
194.818	0.121	389636	keystroke_s	s	n/a
194.9535	0.1045	389907	keystroke_Key.space	Key.space	n/a
195.298	0.12	390596	keystroke_a	a	n/a
195.4345	0.074	390869	keystroke_r	r	n/a
195.599	0.1045	391198	keystroke_r	r	n/a
195.8835	0.105	391767	keystroke_a	a	n/a
196.0185	0.09	392037	keystroke_n	n	n/a
196.258	0.061	392516	keystroke_e	e	n/a
196.528	0.0455	393056	keystroke_Key.backspace	Key.backspace	n/a
196.604	0.09	393208	keystroke_g	g	n/a
196.723	0.076	393446	keystroke_e	e	n/a
196.889	0.06	393778	keystroke_m	m	n/a
197.189	0.104	394378	keystroke_e	e	n/a
197.308	0.075	394616	keystroke_n	n	n/a
197.4285	0.0445	394857	keystroke_t	t	n/a
197.6235	0.075	395247	keystroke_Key.space	Key.space	n/a
197.8785	0.105	395757	keystroke_h	h	n/a
198.0585	0.0745	396117	keystroke_i	i	n/a
198.208	0.1215	396416	keystroke_r	r	n/a
198.314	0.09	396628	keystroke_e	e	n/a
198.538	0.075	397076	keystroke_d	d	n/a
198.658	0.0755	397316	keystroke_Key.space	Key.space	n/a
198.794	0.179	397588	keystroke_w	w	n/a
198.9885	0.18	397977	keystroke_e	e	n/a
199.3035	0.105	398607	keystroke_a	a	n/a
199.4535	0.105	398907	keystroke_l	l	n/a
199.5735	0.09	399147	keystroke_t	t	n/a
199.6485	0.1195	399297	keystroke_h	h	n/a
199.888	0.045	399776	keystroke_Key.enter	Key.enter	n/a
199.9435	10.897	399887	prompt	n/a	availability numbers south pdas\n
200.5935	0.1205	401187	keystroke_a	a	n/a
200.7735	0.15	401547	keystroke_v	v	n/a
200.9535	0.09	401907	keystroke_a	a	n/a
201.1785	0.06	402357	keystroke_i	i	n/a
201.9285	0.0605	403857	keystroke_Key.backspace	Key.backspace	n/a
202.634	0.105	405268	keystroke_i	i	n/a
202.844	0.105	405688	keystroke_l	l	n/a
203.714	0.18	407428	keystroke_a	a	n/a
203.908	0.076	407816	keystroke_b	b	n/a
204.059	0.074	408118	keystroke_i	i	n/a
204.5835	0.06	409167	keystroke_t	t	n/a
204.6585	0.105	409317	keystroke_l	l	n/a
204.9735	0.06	409947	keystroke_Key.backspace	Key.backspace	n/a
205.1385	0.075	410277	keystroke_Key.backspace	Key.backspace	n/a
205.439	0.0905	410878	keystroke_l	l	n/a
205.724	0.0595	411448	keystroke_i	i	n/a
205.8585	0.091	411717	keystroke_t	t	n/a
206.1285	0.09	412257	keystroke_y	y	n/a
206.338	0.1205	412676	keystroke_Key.space	Key.space	n/a
206.7585	0.09	413517	keystroke_n	n	n/a
206.953	0.091	413906	keystroke_u	u	n/a
207.208	0.045	414416	keystroke_m	m	n/a
207.3735	0.045	414747	keystroke_b	b	n/a
207.4935	0.225	414987	keystroke_e	e	n/a
207.5985	0.15	415197	keystroke_r	r	n/a
207.7335	0.1205	415467	keystroke_s	s	n/a
207.8985	0.09	415797	keystroke_Key.space	Key.space	n/a
208.1835	0.105	416367	keystroke_s	s	n/a
208.3035	0.135	416607	keystroke_o	o	n/a
208.4535	0.045	416907	keystroke_u	u	n/a
208.544	0.1045	417088	keystroke_t	t	n/a
208.6185	0.105	417237	keystroke_h	h	n/a
208.7535	0.09	417507	keystroke_Key.space	Key.space	n/a
209.353	0.09	418706	keystroke_p	p	n/a
209.488	0.12	418976	keystroke_d	d	n/a
209.578	0.12	419156	keystroke_s	s	n/a
210.359	0.089	420718	keystroke_Key.backspace	Key.backspace	n/a
210.464	0.15	420928	keystroke_a	a	n/a
210.629	0.119	421258	keystroke_s	s	n/a
210.7635	0.075	421527	keystroke_Key.enter	Key.enter	n/a
210.8545	8.236	421709	prompt	n/a	gregory castle gibson vocal\n
212.0535	0.1355	424107	keystroke_g	g	n/a
212.1135	0.12	424227	keystroke_r	r	n/a
212.3085	0.12	424617	keystroke_e	e	n/a
212.4735	0.105	424947	keystroke_g	g	n/a
212.5935	0.1045	425187	keystroke_o	o	n/a
212.729	0.09	425458	keystroke_r	r	n/a
212.879	0.06	425758	keystroke_y	y	n/a
213.088	0.09	426176	keystroke_Key.space	Key.space	n/a
213.3585	0.105	426717	keystroke_Key.backspace	Key.backspace	n/a
213.838	0.09	427676	keystroke_Key.space	Key.space	n/a
213.9435	0.135	427887	keystroke_c	c	n/a
214.0635	0.1055	428127	keystroke_a	a	n/a
214.1235	0.2405	428247	keystroke_s	s	n/a
214.2885	0.1655	428577	keystroke_t	t	n/a
214.4685	0.075	428937	keystroke_e	e	n/a
214.5735	0.09	429147	keystroke_l	l	n/a
215.1135	0.06	430227	keystroke_Key.backspace	Key.backspace	n/a
215.2485	0.075	430497	keystroke_Key.backspace	Key.backspace	n/a
215.4885	0.075	430977	keystroke_l	l	n/a
215.5935	0.075	431187	keystroke_e	e	n/a
215.7135	0.12	431427	keystroke_Key.space	Key.space	n/a
216.0285	0.0595	432057	keystroke_g	g	n/a
216.178	0.0755	432356	keystroke_i	i	n/a
216.3285	0.0595	432657	keystroke_b	b	n/a
216.448	0.091	432896	keystroke_s	s	n/a
216.5395	0.1345	433079	keystroke_o	o	n/a
216.7035	0.1045	433407	keystroke_n	n	n/a
216.8685	0.0745	433737	keystroke_Key.space	Key.space	n/a
217.289	0.0905	434578	keystroke_c	c	n/a
217.394	0.06	434788	keystroke_i	i	n/a
217.8885	0.075	435777	keystroke_Key.backspace	Key.backspace	n/a
218.128	0.0455	436256	keystroke_Key.backspace	Key.backspace	n/a
218.324	0.105	436648	keystroke_v	v	n/a
218.519	0.075	437038	keystroke_o	o	n/a
218.6535	0.165	437307	keystroke_c	c	n/a
218.7585	0.0895	437517	keystroke_a	a	n/a
218.863	0.06	437726	keystroke_l	l	n/a
218.9985	0.09	437997	keystroke_Key.enter	Key.enter	n/a
219.095	7.015	438190	prompt	n/a	lies routers prayer navigate\n
220.304	0.09	440608	keystroke_l	l	n/a
220.573	0.061	441146	keystroke_i	i	n/a
220.663	0.121	441326	keystroke_e	e	n/a
220.724	0.105	441448	keystroke_s	s	n/a
220.8885	0.075	441777	keystroke_Key.space	Key.space	n/a
221.248	0.091	442496	keystroke_r	r	n/a
221.3685	0.1205	442737	keystroke_o	o	n/a
221.519	0.1045	443038	keystroke_u	u	n/a
221.668	0.0905	443336	keystroke_t	t	n/a
221.8185	0.151	443637	keystroke_e	e	n/a
221.984	0.1195	443968	keystroke_r	r	n/a
222.133	0.0905	444266	keystroke_s	s	n/a
222.553	0.06	445106	keystroke_Key.space	Key.space	n/a
222.7635	0.1055	445527	keystroke_p	p	n/a
222.899	0.105	445798	keystroke_r	r	n/a
223.048	0.1055	446096	keystroke_a	a	n/a
223.199	0.06	446398	keystroke_y	y	n/a
223.334	0.12	446668	keystroke_e	e	n/a
223.408	0.106	446816	keystroke_r	r	n/a
223.5885	0.09	447177	keystroke_Key.space	Key.space	n/a
223.9335	0.0755	447867	keystroke_n	n	n/a
224.038	0.091	448076	keystroke_a	a	n/a
224.249	0.075	448498	keystroke_v	v	n/a
224.339	0.09	448678	keystroke_i	i	n/a
224.534	0.09	449068	keystroke_g	g	n/a
224.593	0.136	449186	keystroke_a	a	n/a
225.4335	0.03	450867	keystroke_e	e	n/a
225.7345	0.1185	451469	keystroke_Key.backspace	Key.backspace	n/a
225.839	0.0745	451678	keystroke_t	t	n/a
225.884	0.1195	451768	keystroke_e	e	n/a
226.018	0.0905	452036	keystroke_Key.enter	Key.enter	n/a
226.1165	9.7145	452233	prompt	n/a	pilot australian propose mistakes\n
226.919	0.09	453838	keystroke_p	p	n/a
227.159	0.0895	454318	keystroke_o	o	n/a
227.5485	0.03	455097	keystroke_Key.backspace	Key.backspace	n/a
227.8185	0.075	455637	keystroke_i	i	n/a
227.999	0.1045	455998	keystroke_l	l	n/a
228.1785	0.0755	456357	keystroke_o	o	n/a
228.2835	0.105	456567	keystroke_t	t	n/a
228.4185	0.105	456837	keystroke_Key.space	Key.space	n/a
228.8685	0.06	457737	keystroke_a	a	n/a
229.184	0.044	458368	keystroke_u	u	n/a
229.439	0.134	458878	keystroke_s	s	n/a
229.633	0.1805	459266	keystroke_t	t	n/a
229.768	0.2405	459536	keystroke_r	r	n/a
229.964	0.135	459928	keystroke_a	a	n/a
231.584	0.075	463168	keystroke_l	l	n/a
231.7185	0.0905	463437	keystroke_i	i	n/a
231.824	0.06	463648	keystroke_a	a	n/a
231.929	0.09	463858	keystroke_n	n	n/a
232.0935	0.1045	464187	keystroke_Key.space	Key.space	n/a
232.513	0.0755	465026	keystroke_p	p	n/a
232.6645	0.0895	465329	keystroke_r	r	n/a
232.784	0.075	465568	keystroke_o	o	n/a
232.979	0.0895	465958	keystroke_p	p	n/a
233.204	0.075	466408	keystroke_o	o	n/a
233.324	0.12	466648	keystroke_s	s	n/a
233.384	0.1195	466768	keystroke_e	e	n/a
233.563	0.1055	467126	keystroke_Key.space	Key.space	n/a
234.539	0.075	469078	keystroke_m	m	n/a
234.6885	0.075	469377	keystroke_i	i	n/a
234.809	0.135	469618	keystroke_s	s	n/a
234.899	0.12	469798	keystroke_t	t	n/a
235.064	0.12	470128	keystroke_a	a	n/a
235.169	0.0745	470338	keystroke_k	k	n/a
235.4685	0.15	470937	keystroke_e	e	n/a
235.6335	0.1045	471267	keystroke_s	s	n/a
235.754	0.074	471508	keystroke_Key.enter	Key.enter	n/a
235.8475	8.8485	471695	prompt	n/a	maritime laboratories owned queens\n
236.669	0.09	473338	keystroke_m	m	n/a
236.743	0.1205	473486	keystroke_a	a	n/a
236.833	0.09	473666	keystroke_r	r	n/a
236.9695	0.0735	473939	keystroke_i	i	n/a
237.0585	0.075	474117	keystroke_t	t	n/a
237.1935	0.0895	474387	keystroke_i	i	n/a
237.389	0.1055	474778	keystroke_m	m	n/a
237.5095	0.1195	475019	keystroke_e	e	n/a
237.673	0.09	475346	keystroke_Key.space	Key.space	n/a
237.883	0.091	475766	keystroke_l	l	n/a
238.034	0.089	476068	keystroke_a	a	n/a
238.4535	0.06	476907	keystroke_b	b	n/a
238.559	0.1045	477118	keystroke_o	o	n/a
238.7985	0.09	477597	keystroke_r	r	n/a
239.174	0.09	478348	keystroke_a	a	n/a
239.8935	0.075	479787	keystroke_t	t	n/a
240.029	0.135	480058	keystroke_i	i	n/a
240.568	0.045	481136	keystroke_Key.backspace	Key.backspace	n/a
240.809	0.105	481618	keystroke_o	o	n/a
240.943	0.09	481886	keystroke_r	r	n/a
241.0935	0.0745	482187	keystroke_i	i	n/a
241.198	0.151	482396	keystroke_e	e	n/a
241.289	0.119	482578	keystroke_s	s	n/a
241.499	0.1195	482998	keystroke_Key.space	Key.space	n/a
241.829	0.0595	483658	keystroke_o	o	n/a
241.918	0.121	483836	keystroke_w	w	n/a
242.0695	0.0735	484139	keystroke_n	n	n/a
242.504	0.104	485008	keystroke_d	d	n/a
242.7285	0.135	485457	keystroke_e	e	n/a
242.9685	0.06	485937	keystroke_Key.backspace	Key.backspace	n/a
243.1335	0.075	486267	keystroke_Key.backspace	Key.backspace	n/a
243.2395	0.0745	486479	keystroke_e	e	n/a
243.419	0.075	486838	keystroke_d	d	n/a
243.5385	0.105	487077	keystroke_Key.space	Key.space	n/a
243.884	0.089	487768	keystroke_q	q	n/a
243.989	0.09	487978	keystroke_u	u	n/a
244.123	0.09	488246	keystroke_e	e	n/a
244.289	0.09	488578	keystroke_e	e	n/a
244.409	0.089	488818	keystroke_n	n	n/a
244.514	0.0745	489028	keystroke_s	s	n/a
244.6185	0.075	489237	keystroke_Key.enter	Key.enter	n/a
244.709	9.08	489418	prompt	n/a	cells hostel packs investigator\n
245.3695	0.1345	490739	keystroke_c	c	n/a
245.489	0.105	490978	keystroke_e	e	n/a
245.5645	0.089	491129	keystroke_l	l	n/a
245.7285	0.0745	491457	keystroke_l	l	n/a
245.833	0.06	491666	keystroke_s	s	n/a
245.8785	0.1195	491757	keystroke_Key.space	Key.space	n/a
246.059	0.104	492118	keystroke_h	h	n/a
246.178	0.105	492356	keystroke_o	o	n/a
246.239	0.135	492478	keystroke_s	s	n/a
246.344	0.135	492688	keystroke_t	t	n/a
246.434	0.12	492868	keystroke_e	e	n/a
246.5695	0.0745	493139	keystroke_l	l	n/a
246.703	0.1205	493406	keystroke_Key.space	Key.space	n/a
247.1695	0.0445	494339	keystroke_p	p	n/a
247.2285	0.121	494457	keystroke_a	a	n/a
247.5745	0.089	495149	keystroke_c	c	n/a
247.6485	0.075	495297	keystroke_k	k	n/a
247.784	0.09	495568	keystroke_s	s	n/a
247.9335	0.0605	495867	keystroke_Key.space	Key.space	n/a
248.489	0.09	496978	keystroke_i	i	n/a
248.6235	0.06	497247	keystroke_n	n	n/a
249.1335	0.075	498267	keystroke_e	e	n/a
249.853	0.15	499706	keystroke_s	s	n/a
250.0185	0.15	500037	keystroke_t	t	n/a
250.184	0.0745	500368	keystroke_e	e	n/a
250.423	0.045	500846	keystroke_Key.backspace	Key.backspace	n/a
250.558	0.06	501116	keystroke_Key.backspace	Key.backspace	n/a
250.693	0.0755	501386	keystroke_Key.backspace	Key.backspace	n/a
250.843	0.105	501686	keystroke_Key.backspace	Key.backspace	n/a
251.3085	0.1355	502617	keystroke_v	v	n/a
251.4135	0.181	502827	keystroke_e	e	n/a
251.4885	0.135	502977	keystroke_s	s	n/a
251.654	0.119	503308	keystroke_t	t	n/a
251.878	0.09	503756	keystroke_i	i	n/a
252.074	0.089	504148	keystroke_g	g	n/a
252.1785	0.1205	504357	keystroke_a	a	n/a
252.269	0.075	504538	keystroke_t	t	n/a
252.359	0.119	504718	keystroke_i	i	n/a
252.448	0.151	504896	keystroke_o	o	n/a
252.838	0.0755	505676	keystroke_Key.backspace	Key.backspace	n/a
252.988	0.075	505976	keystroke_Key.backspace	Key.backspace	n/a
253.199	0.105	506398	keystroke_o	o	n/a
253.4385	0.1055	506877	keystroke_r	r	n/a
253.529	0.1045	507058	keystroke_s	s	n/a
253.6935	0.0895	507387	keystroke_Key.enter	Key.enter	n/a
253.795	8.2725	507590	prompt	n/a	logs thread baker fairly\n
254.743	0.09	509486	keystroke_l	l	n/a
255.0435	0.09	510087	keystroke_o	o	n/a
255.1935	0.075	510387	keystroke_g	g	n/a
255.2535	0.1195	510507	keystroke_s	s	n/a
255.418	0.09	510836	keystroke_Key.space	Key.space	n/a
256.0185	0.09	512037	keystroke_t	t	n/a
256.0785	0.09	512157	keystroke_h	h	n/a
256.289	0.135	512578	keystroke_r	r	n/a
256.3785	0.1495	512757	keystroke_e	e	n/a
256.5135	0.1345	513027	keystroke_a	a	n/a
256.633	0.136	513266	keystroke_d	d	n/a
256.798	0.1055	513596	keystroke_Key.space	Key.space	n/a
257.069	0.06	514138	keystroke_n	n	n/a
257.144	0.105	514288	keystroke_a	a	n/a
257.263	0.1195	514526	keystroke_k	k	n/a
257.398	0.151	514796	keystroke_e	e	n/a
257.5035	0.06	515007	keystroke_r	r	n/a
257.653	0.0605	515306	keystroke_Key.backspace	Key.backspace	n/a
257.8035	0.06	515607	keystroke_Key.backspace	Key.backspace	n/a
257.953	0.0605	515906	keystroke_Key.backspace	Key.backspace	n/a
258.0885	0.09	516177	keystroke_Key.backspace	Key.backspace	n/a
258.373	0.0755	516746	keystroke_b	b	n/a
258.674	0.0595	517348	keystroke_Key.backspace	Key.backspace	n/a
258.8085	0.075	517617	keystroke_Key.backspace	Key.backspace	n/a
259.019	0.075	518038	keystroke_b	b	n/a
259.1235	0.1045	518247	keystroke_a	a	n/a
259.243	0.0755	518486	keystroke_k	k	n/a
259.379	0.166	518758	keystroke_e	e	n/a
259.513	0.076	519026	keystroke_r	r	n/a
259.739	0.0745	519478	keystroke_Key.space	Key.space	n/a
260.518	0.091	521036	keystroke_d	d	n/a
260.983	0.09	521966	keystroke_Key.backspace	Key.backspace	n/a
261.089	0.074	522178	keystroke_f	f	n/a
261.164	0.104	522328	keystroke_a	a	n/a
261.2985	0.0745	522597	keystroke_i	i	n/a
261.569	0.06	523138	keystroke_r	r	n/a
261.704	0.0745	523408	keystroke_l	l	n/a
261.809	0.0745	523618	keystroke_y	y	n/a
261.9735	0.09	523947	keystroke_Key.enter	Key.enter	n/a
262.098	15.733	524196	prompt	n/a	peripherals wishes drilling structures\n
262.9195	0.03	525839	keystroke_p	p	n/a
263.114	0.149	526228	keystroke_e	e	n/a
263.248	0.1055	526496	keystroke_r	r	n/a
263.489	0.074	526978	keystroke_o	o	n/a
264.013	0.105	528026	keystroke_Key.backspace	Key.backspace	n/a
264.299	0.09	528598	keystroke_i	i	n/a
264.5085	0.075	529017	keystroke_p	p	n/a
264.6885	0.09	529377	keystroke_h	h	n/a
264.8085	0.0755	529617	keystroke_a	a	n/a
264.9135	0.105	529827	keystroke_l	l	n/a
265.034	0.0755	530068	keystroke_s	s	n/a
265.2435	0.105	530487	keystroke_Key.space	Key.space	n/a
265.7835	0.06	531567	keystroke_Key.backspace	Key.backspace	n/a
265.9335	0.075	531867	keystroke_Key.backspace	Key.backspace	n/a
266.0835	0.075	532167	keystroke_Key.backspace	Key.backspace	n/a
266.2485	0.075	532497	keystroke_Key.backspace	Key.backspace	n/a
266.428	0.0755	532856	keystroke_Key.backspace	Key.backspace	n/a
266.593	0.105	533186	keystroke_Key.backspace	Key.backspace	n/a
267.7785	0.1355	535557	keystroke_p	p	n/a
267.929	0.0595	535858	keystroke_h	h	n/a
268.018	0.15	536036	keystroke_e	e	n/a
268.0775	0.1505	536155	keystroke_r	r	n/a
268.273	0.105	536546	keystroke_a	a	n/a
268.393	0.0755	536786	keystroke_l	l	n/a
268.6785	0.0595	537357	keystroke_s	s	n/a
268.888	0.105	537776	keystroke_Key.space	Key.space	n/a
269.323	0.12	538646	keystroke_w	w	n/a
269.459	0.06	538918	keystroke_i	i	n/a
269.623	0.0905	539246	keystroke_s	s	n/a
269.7735	0.0745	539547	keystroke_h	h	n/a
270.3885	0.0295	540777	keystroke_e	e	n/a
270.434	0.1195	540868	keystroke_s	s	n/a
270.6735	0.0895	541347	keystroke_Key.space	Key.space	n/a
270.8985	0.0895	541797	keystroke_d	d	n/a
271.0635	0.09	542127	keystroke_r	r	n/a
271.1685	0.0605	542337	keystroke_i	i	n/a
271.3935	0.0755	542787	keystroke_l	l	n/a
271.5885	0.06	543177	keystroke_l	l	n/a
271.664	0.0905	543328	keystroke_i	i	n/a
271.799	0.1045	543598	keystroke_i	i	n/a
271.918	0.151	543836	keystroke_n	n	n/a
272.009	0.074	544018	keystroke_g	g	n/a
272.8485	0.075	545697	keystroke_Key.backspace	Key.backspace	n/a
272.9985	0.0755	545997	keystroke_Key.backspace	Key.backspace	n/a
273.1485	0.075	546297	keystroke_Key.backspace	Key.backspace	n/a
273.3135	0.075	546627	keystroke_Key.backspace	Key.backspace	n/a
273.5085	0.0595	547017	keystroke_Key.backspace	Key.backspace	n/a
274.333	0.045	548666	keystroke_l	l	n/a
274.6335	0.165	549267	keystroke_i	i	n/a
274.7835	0.12	549567	keystroke_n	n	n/a
274.9485	0.0455	549897	keystroke_g	g	n/a
275.5335	0.075	551067	keystroke_Key.space	Key.space	n/a
275.9235	0.1655	551847	keystroke_s	s	n/a
276.0745	0.1335	552149	keystroke_t	t	n/a
276.1635	0.1345	552327	keystroke_r	r	n/a
276.4935	0.045	552987	keystroke_u	u	n/a
276.5835	0.09	553167	keystroke_c	c	n/a
276.794	0.06	553588	keystroke_t	t	n/a
276.884	0.089	553768	keystroke_u	u	n/a
277.018	0.1205	554036	keystroke_r	r	n/a
277.109	0.12	554218	keystroke_e	e	n/a
277.604	0.0895	555208	keystroke_s	s	n/a
277.7385	0.0895	555477	keystroke_Key.enter	Key.enter	n/a
277.856	10.2795	555712	prompt	n/a	cape commissioners transcription similarly\n
278.474	0.089	556948	keystroke_c	c	n/a
278.803	0.061	557606	keystroke_a	a	n/a
278.9235	0.0305	557847	keystroke_p	p	n/a
278.999	0.0895	557998	keystroke_e	e	n/a
279.163	0.105	558326	keystroke_Key.space	Key.space	n/a
279.6135	0.0595	559227	keystroke_c	c	n/a
279.6585	0.0895	559317	keystroke_o	o	n/a
279.8535	0.09	559707	keystroke_m	m	n/a
280.0335	0.0595	560067	keystroke_m	m	n/a
280.2585	0.0755	560517	keystroke_i	i	n/a
280.724	0.0595	561448	keystroke_s	s	n/a
280.919	0.149	561838	keystroke_i	i	n/a
281.038	0.1205	562076	keystroke_o	o	n/a
281.143	0.105	562286	keystroke_n	n	n/a
281.369	0.134	562738	keystroke_e	e	n/a
281.534	0.135	563068	keystroke_r	r	n/a
282.1035	0.1805	564207	keystroke_s	s	n/a
282.298	0.03	564596	keystroke_Key.space	Key.space	n/a
282.598	0.1355	565196	keystroke_t	t	n/a
282.6885	0.15	565377	keystroke_r	r	n/a
282.7935	0.0905	565587	keystroke_a	a	n/a
282.944	0.0445	565888	keystroke_n	n	n/a
283.1535	0.06	566307	keystroke_s	s	n/a
283.559	0.104	567118	keystroke_c	c	n/a
283.6935	0.0595	567387	keystroke_i	i	n/a
284.174	0.0895	568348	keystroke_r	r	n/a
284.5335	0.075	569067	keystroke_Key.backspace	Key.backspace	n/a
284.6835	0.075	569367	keystroke_Key.backspace	Key.backspace	n/a
284.804	0.0445	569608	keystroke_r	r	n/a
284.954	0.104	569908	keystroke_i	i	n/a
285.389	0.0895	570778	keystroke_p	p	n/a
285.6425	0.106	571285	keystroke_t	t	n/a
285.779	0.165	571558	keystroke_i	i	n/a
285.914	0.135	571828	keystroke_o	o	n/a
286.214	0.1195	572428	keystroke_n	n	n/a
286.4235	0.105	572847	keystroke_Key.space	Key.space	n/a
286.709	0.0895	573418	keystroke_s	s	n/a
286.8135	0.06	573627	keystroke_i	i	n/a
287.0085	0.06	574017	keystroke_m	m	n/a
287.2035	0.045	574407	keystroke_i	i	n/a
287.3685	0.105	574737	keystroke_l	l	n/a
287.4585	0.1205	574917	keystroke_a	a	n/a
287.564	0.075	575128	keystroke_r	r	n/a
287.654	0.0445	575308	keystroke_i	i	n/a
287.8035	0.09	575607	keystroke_t	t	n/a
287.9685	0.06	575937	keystroke_y	y	n/a
288.0435	0.09	576087	keystroke_Key.enter	Key.enter	n/a
288.152	8.879	576304	prompt	n/a	lewis samoa inclusive outcome\n
288.9285	0.09	577857	keystroke_l	l	n/a
289.049	0.15	578098	keystroke_e	e	n/a
289.1535	0.106	578307	keystroke_w	w	n/a
289.2285	0.09	578457	keystroke_i	i	n/a
289.379	0.074	578758	keystroke_s	s	n/a
289.4985	0.0595	578997	keystroke_Key.space	Key.space	n/a
289.738	0.0605	579476	keystroke_s	s	n/a
289.8285	0.074	579657	keystroke_o	o	n/a
290.1885	0.09	580377	keystroke_m	m	n/a
290.4875	0.0755	580975	keystroke_o	o	n/a
290.6235	0.075	581247	keystroke_a	a	n/a
291.0885	0.045	582177	keystroke_Key.backspace	Key.backspace	n/a
291.2085	0.0745	582417	keystroke_Key.backspace	Key.backspace	n/a
291.3725	0.045	582745	keystroke_Key.backspace	Key.backspace	n/a
291.5235	0.075	583047	keystroke_Key.backspace	Key.backspace	n/a
291.7335	0.0745	583467	keystroke_Key.backspace	Key.backspace	n/a
292.0185	0.09	584037	keystroke_a	a	n/a
292.5585	0.044	585117	keystroke_Key.backspace	Key.backspace	n/a
292.6775	0.151	585355	keystroke_s	s	n/a
292.7985	0.119	585597	keystroke_a	a	n/a
293.0385	0.0595	586077	keystroke_m	m	n/a
293.143	0.09	586286	keystroke_o	o	n/a
293.383	0.105	586766	keystroke_a	a	n/a
293.533	0.09	587066	keystroke_Key.space	Key.space	n/a
294.104	0.104	588208	keystroke_i	i	n/a
294.2535	0.075	588507	keystroke_n	n	n/a
294.3435	0.12	588687	keystroke_c	c	n/a
294.5235	0.0305	589047	keystroke_l	l	n/a
294.7035	0.12	589407	keystroke_u	u	n/a
294.8985	0.1055	589797	keystroke_s	s	n/a
294.9735	0.09	589947	keystroke_i	i	n/a
295.154	0.1045	590308	keystroke_v	v	n/a
295.348	0.0155	590696	keystroke_e	e	n/a
295.438	0.09	590876	keystroke_Key.space	Key.space	n/a
295.708	0.1055	591416	keystroke_o	o	n/a
295.9635	0.09	591927	keystroke_u	u	n/a
296.1725	0.0615	592345	keystroke_t	t	n/a
296.3385	0.075	592677	keystroke_s	s	n/a
296.5485	0.1045	593097	keystroke_o	o	n/a
296.743	0.0755	593486	keystroke_m	m	n/a
296.8185	0.06	593637	keystroke_e	e	n/a
296.9375	0.09	593875	keystroke_Key.enter	Key.enter	n/a
297.052	9.669	594104	prompt	n/a	unix root described scripting\n
298.018	0.06	596036	keystroke_u	u	n/a
298.318	0.045	596636	keystroke_Key.backspace	Key.backspace	n/a
298.798	0.09	597596	keystroke_u	u	n/a
298.9335	0.1195	597867	keystroke_n	n	n/a
299.0985	0.0895	598197	keystroke_i	i	n/a
299.2485	0.1045	598497	keystroke_x	x	n/a
299.368	0.06	598736	keystroke_Key.space	Key.space	n/a
300.2535	0.075	600507	keystroke_t	t	n/a
300.358	0.0755	600716	keystroke_o	o	n/a
300.658	0.0455	601316	keystroke_=	=	n/a
300.823	0.045	601646	keystroke_Key.backspace	Key.backspace	n/a
301.123	0.045	602246	keystroke_Key.backspace	Key.backspace	n/a
301.273	0.09	602546	keystroke_Key.backspace	Key.backspace	n/a
301.469	0.075	602938	keystroke_r	r	n/a
301.558	0.075	603116	keystroke_o	o	n/a
301.7385	0.1045	603477	keystroke_o	o	n/a
301.903	0.091	603806	keystroke_t	t	n/a
302.068	0.091	604136	keystroke_Key.space	Key.space	n/a
302.488	0.0605	604976	keystroke_d	d	n/a
302.6535	0.135	605307	keystroke_e	e	n/a
302.7435	0.15	605487	keystroke_s	s	n/a
302.864	0.12	605728	keystroke_c	c	n/a
303.0435	0.15	606087	keystroke_r	r	n/a
303.1795	0.074	606359	keystroke_i	i	n/a
303.3735	0.075	606747	keystroke_b	b	n/a
303.5085	0.075	607017	keystroke_e	e	n/a
303.688	0.075	607376	keystroke_d	d	n/a
303.793	0.09	607586	keystroke_Key.space	Key.space	n/a
303.9285	0.149	607857	keystroke_s	s	n/a
304.1385	0.09	608277	keystroke_c	c	n/a
304.378	0.09	608756	keystroke_r	r	n/a
304.513	0.091	609026	keystroke_i	i	n/a
304.769	0.06	609538	keystroke_t	t	n/a
304.873	0.1055	609746	keystroke_p	p	n/a
305.2935	0.045	610587	keystroke_Key.backspace	Key.backspace	n/a
305.4735	0.03	610947	keystroke_Key.backspace	Key.backspace	n/a
305.9685	0.075	611937	keystroke_p	p	n/a
306.1485	0.059	612297	keystroke_t	t	n/a
306.2235	0.164	612447	keystroke_i	i	n/a
306.4035	0.074	612807	keystroke_n	n	n/a
306.5085	0.059	613017	keystroke_g	g	n/a
306.6125	0.105	613225	keystroke_Key.enter	Key.enter	n/a
306.7365	12.0295	613473	prompt	n/a	numerical bookstore griffin hyundai\n
307.4695	0.119	614939	keystroke_m	m	n/a
307.9185	0.0895	615837	keystroke_Key.backspace	Key.backspace	n/a
308.129	0.089	616258	keystroke_n	n	n/a
308.3085	0.0755	616617	keystroke_u	u	n/a
308.503	0.0455	617006	keystroke_m	m	n/a
308.563	0.15	617126	keystroke_e	e	n/a
308.6685	0.1055	617337	keystroke_r	r	n/a
308.7585	0.075	617517	keystroke_i	i	n/a
308.8785	0.15	617757	keystroke_c	c	n/a
308.983	0.09	617966	keystroke_a	a	n/a
309.088	0.0755	618176	keystroke_l	l	n/a
309.388	0.0905	618776	keystroke_Key.space	Key.space	n/a
309.704	0.06	619408	keystroke_b	b	n/a
309.8385	0.09	619677	keystroke_o	o	n/a
310.019	0.1035	620038	keystroke_o	o	n/a
310.2275	0.0905	620455	keystroke_k	k	n/a
310.408	0.12	620816	keystroke_s	s	n/a
310.5135	0.09	621027	keystroke_t	t	n/a
310.649	0.045	621298	keystroke_o	o	n/a
310.753	0.0755	621506	keystroke_r	r	n/a
311.788	0.045	623576	keystroke_Key.backspace	Key.backspace	n/a
311.9085	0.0895	623817	keystroke_Key.backspace	Key.backspace	n/a
312.689	0.059	625378	keystroke_o	o	n/a
312.779	0.09	625558	keystroke_r	r	n/a
312.9735	0.0895	625947	keystroke_e	e	n/a
313.213	0.09	626426	keystroke_Key.space	Key.space	n/a
313.7535	0.1195	627507	keystroke_g	g	n/a
313.8435	0.1055	627687	keystroke_r	r	n/a
313.9935	0.0745	627987	keystroke_i	i	n/a
314.3535	0.075	628707	keystroke_f	f	n/a
314.5035	0.076	629007	keystroke_f	f	n/a
314.6535	0.1645	629307	keystroke_i	i	n/a
314.7735	0.1355	629547	keystroke_n	n	n/a
314.983	0.06	629966	keystroke_Key.space	Key.space	n/a
315.6135	0.06	631227	keystroke_h	h	n/a
315.7635	0.0755	631527	keystroke_y	y	n/a
316.7675	0.091	633535	keystroke_u	u	n/a
316.9025	0.136	633805	keystroke_n	n	n/a
317.0535	0.135	634107	keystroke_d	d	n/a
317.2035	0.0755	634407	keystroke_a	a	n/a
317.2485	0.0305	634497	keystroke_u	u	n/a
317.6975	0.075	635395	keystroke_Key.backspace	Key.backspace	n/a
317.9085	0.0305	635817	keystroke_i	i	n/a
318.6735	0.09	637347	keystroke_Key.enter	Key.enter	n/a
318.7815	10.2895	637563	prompt	n/a	championship minutes existing fabric\n
319.708	0.1355	639416	keystroke_c	c	n/a
319.7985	0.0755	639597	keystroke_h	h	n/a
319.9185	0.105	639837	keystroke_a	a	n/a
320.0235	0.075	640047	keystroke_m	m	n/a
320.339	0.105	640678	keystroke_p	p	n/a
320.5635	0.12	641127	keystroke_i	i	n/a
320.7735	0.075	641547	keystroke_o	o	n/a
320.9835	0.06	641967	keystroke_n	n	n/a
321.0735	0.09	642147	keystroke_s	s	n/a
321.2235	0.15	642447	keystroke_h	h	n/a
321.3435	0.1655	642687	keystroke_i	i	n/a
321.5235	0.15	643047	keystroke_p	p	n/a
321.7485	0.1045	643497	keystroke_Key.space	Key.space	n/a
322.0035	0.0745	644007	keystroke_m	m	n/a
322.228	0.045	644456	keystroke_u	u	n/a
322.5285	0.0595	645057	keystroke_Key.backspace	Key.backspace	n/a
322.828	0.0455	645656	keystroke_i	i	n/a
323.054	0.0895	646108	keystroke_n	n	n/a
323.2175	0.046	646435	keystroke_u	u	n/a
323.3835	0.134	646767	keystroke_t	t	n/a
323.5325	0.181	647065	keystroke_e	e	n/a
323.6385	0.12	647277	keystroke_s	s	n/a
323.803	0.09	647606	keystroke_Key.space	Key.space	n/a
324.073	0.0455	648146	keystroke_e	e	n/a
324.2685	0.0895	648537	keystroke_x	x	n/a
324.388	0.0605	648776	keystroke_i	i	n/a
324.553	0.15	649106	keystroke_s	s	n/a
324.689	0.1045	649378	keystroke_t	t	n/a
324.733	0.195	649466	keystroke_i	i	n/a
324.853	0.135	649706	keystroke_n	n	n/a
325.0035	0.0605	650007	keystroke_g	g	n/a
325.139	0.0895	650278	keystroke_Key.space	Key.space	n/a
325.9335	0.0905	651867	keystroke_f	f	n/a
326.219	0.1795	652438	keystroke_a	a	n/a
326.5625	0.061	653125	keystroke_Key.backspace	Key.backspace	n/a
326.713	0.0605	653426	keystroke_Key.backspace	Key.backspace	n/a
326.774	0.164	653548	keystroke_a	a	n/a
326.8935	0.1495	653787	keystroke_b	b	n/a
326.983	0.121	653966	keystroke_r	r	n/a
327.3425	0.061	654685	keystroke_Key.backspace	Key.backspace	n/a
327.4935	0.06	654987	keystroke_Key.backspace	Key.backspace	n/a
327.6585	0.0745	655317	keystroke_Key.backspace	Key.backspace	n/a
328.183	0.09	656366	keystroke_f	f	n/a
328.2885	0.1345	656577	keystroke_a	a	n/a
328.453	0.12	656906	keystroke_b	b	n/a
328.543	0.1205	657086	keystroke_r	r	n/a
328.6485	0.0595	657297	keystroke_i	i	n/a
328.8435	0.09	657687	keystroke_c	c	n/a
328.9935	0.075	657987	keystroke_Key.enter	Key.enter	n/a
329.085	6.6445	658170	prompt	n/a	languages inserted drum goto\n
329.7285	0.09	659457	keystroke_l	l	n/a
329.8335	0.0905	659667	keystroke_a	a	n/a
329.938	0.091	659876	keystroke_n	n	n/a
330.104	0.0895	660208	keystroke_g	g	n/a
330.2685	0.0445	660537	keystroke_u	u	n/a
330.358	0.15	660716	keystroke_a	a	n/a
330.449	0.1645	660898	keystroke_g	g	n/a
330.538	0.181	661076	keystroke_e	e	n/a
330.703	0.091	661406	keystroke_s	s	n/a
330.853	0.09	661706	keystroke_Key.space	Key.space	n/a
331.0035	0.1045	662007	keystroke_i	i	n/a
331.168	0.061	662336	keystroke_n	n	n/a
331.3185	0.1805	662637	keystroke_s	s	n/a
331.4235	0.195	662847	keystroke_e	e	n/a
331.5735	0.134	663147	keystroke_r	r	n/a
331.9925	0.06	663985	keystroke_e	e	n/a
332.3685	0.0745	664737	keystroke_Key.backspace	Key.backspace	n/a
332.4885	0.105	664977	keystroke_y	y	n/a
332.6085	0.1055	665217	keystroke_e	e	n/a
332.938	0.045	665876	keystroke_Key.backspace	Key.backspace	n/a
333.0585	0.09	666117	keystroke_Key.backspace	Key.backspace	n/a
333.178	0.135	666356	keystroke_t	t	n/a
333.3285	0.075	666657	keystroke_e	e	n/a
333.5085	0.075	667017	keystroke_d	d	n/a
333.7935	0.135	667587	keystroke_Key.space	Key.space	n/a
334.3925	0.1955	668785	keystroke_d	d	n/a
334.543	0.105	669086	keystroke_r	r	n/a
334.603	0.1055	669206	keystroke_u	u	n/a
334.8125	0.075	669625	keystroke_m	m	n/a
334.9785	0.075	669957	keystroke_Key.space	Key.space	n/a
335.1135	0.0745	670227	keystroke_g	g	n/a
335.1735	0.0745	670347	keystroke_o	o	n/a
335.3535	0.09	670707	keystroke_t	t	n/a
335.4445	0.074	670889	keystroke_o	o	n/a
335.6235	0.1045	671247	keystroke_Key.enter	Key.enter	n/a
335.733	12.1625	671466	prompt	n/a	policy floppy distributor opposite\n
336.463	0.105	672926	keystroke_p	p	n/a
336.913	0.076	673826	keystroke_o	o	n/a
337.093	0.076	674186	keystroke_l	l	n/a
337.289	0.06	674578	keystroke_i	i	n/a
337.378	0.1055	674756	keystroke_c	c	n/a
337.708	0.106	675416	keystroke_y	y	n/a
337.9185	0.105	675837	keystroke_Key.space	Key.space	n/a
338.353	0.045	676706	keystroke_t	t	n/a
338.6685	0.0595	677337	keystroke_Key.backspace	Key.backspace	n/a
338.819	0.044	677638	keystroke_f	f	n/a
338.908	0.09	677816	keystroke_l	l	n/a
339.118	0.076	678236	keystroke_o	o	n/a
339.298	0.1055	678596	keystroke_o	o	n/a
339.464	0.0745	678928	keystroke_p	p	n/a
339.5985	0.09	679197	keystroke_y	y	n/a
339.7485	0.12	679497	keystroke_Key.space	Key.space	n/a
340.8585	0.06	681717	keystroke_Key.backspace	Key.backspace	n/a
341.0085	0.075	682017	keystroke_Key.backspace	Key.backspace	n/a
341.1735	0.06	682347	keystroke_Key.backspace	Key.backspace	n/a
341.323	0.0905	682646	keystroke_Key.backspace	Key.backspace	n/a
341.6535	0.06	683307	keystroke_p	p	n/a
341.818	0.075	683636	keystroke_p	p	n/a
342.4185	0.06	684837	keystroke_y	y	n/a
342.673	0.12	685346	keystroke_Key.space	Key.space	n/a
342.8835	0.1345	685767	keystroke_d	d	n/a
342.913	0.09	685826	keystroke_i	i	n/a
343.2435	0.0595	686487	keystroke_s	s	n/a
344.6535	0.1345	689307	keystroke_t	t	n/a
344.773	0.06	689546	keystroke_r	r	n/a
345.1185	0.0745	690237	keystroke_i	i	n/a
345.448	0.03	690896	keystroke_b	b	n/a
345.553	0.075	691106	keystroke_u	u	n/a
345.7025	0.076	691405	keystroke_t	t	n/a
345.8085	0.09	691617	keystroke_o	o	n/a
345.9585	0.045	691917	keystroke_r	r	n/a
346.1235	0.0895	692247	keystroke_Key.space	Key.space	n/a
346.378	0.09	692756	keystroke_o	o	n/a
346.558	0.06	693116	keystroke_p	p	n/a
346.738	0.06	693476	keystroke_p	p	n/a
346.903	0.0755	693806	keystroke_o	o	n/a
346.993	0.1205	693986	keystroke_s	s	n/a
347.173	0.0605	694346	keystroke_i	i	n/a
347.443	0.105	694886	keystroke_t	t	n/a
347.743	0.075	695486	keystroke_e	e	n/a
347.848	0.045	695696	keystroke_Key.enter	Key.enter	n/a
347.912	7.0035	695824	prompt	n/a	found portion enabled projects\n
348.689	0.0745	697378	keystroke_f	f	n/a
348.7785	0.1345	697557	keystroke_o	o	n/a
348.8835	0.0905	697767	keystroke_u	u	n/a
349.094	0.0895	698188	keystroke_n	n	n/a
349.198	0.0905	698396	keystroke_d	d	n/a
349.318	0.09	698636	keystroke_Key.space	Key.space	n/a
349.7685	0.09	699537	keystroke_p	p	n/a
349.949	0.0895	699898	keystroke_o	o	n/a
350.1585	0.059	700317	keystroke_r	r	n/a
350.398	0.0895	700796	keystroke_t	t	n/a
350.4725	0.165	700945	keystroke_i	i	n/a
350.5775	0.1355	701155	keystroke_o	o	n/a
350.7875	0.121	701575	keystroke_n	n	n/a
351.0275	0.09	702055	keystroke_Key.space	Key.space	n/a
351.2085	0.105	702417	keystroke_a	a	n/a
351.2835	0.0895	702567	keystroke_n	n	n/a
351.8075	0.046	703615	keystroke_Key.backspace	Key.backspace	n/a
351.9425	0.061	703885	keystroke_Key.backspace	Key.backspace	n/a
352.064	0.0595	704128	keystroke_e	e	n/a
352.1985	0.045	704397	keystroke_n	n	n/a
352.3485	0.06	704697	keystroke_a	a	n/a
352.7835	0.0445	705567	keystroke_b	b	n/a
352.843	0.09	705686	keystroke_l	l	n/a
352.963	0.075	705926	keystroke_e	e	n/a
353.143	0.075	706286	keystroke_d	d	n/a
353.293	0.09	706586	keystroke_Key.space	Key.space	n/a
353.608	0.09	707216	keystroke_p	p	n/a
353.7285	0.0895	707457	keystroke_r	r	n/a
353.863	0.105	707726	keystroke_o	o	n/a
354.208	0.061	708416	keystroke_j	j	n/a
354.314	0.09	708628	keystroke_e	e	n/a
354.4635	0.1345	708927	keystroke_c	c	n/a
354.613	0.075	709226	keystroke_t	t	n/a
354.718	0.075	709436	keystroke_s	s	n/a
354.823	0.09	709646	keystroke_Key.enter	Key.enter	n/a
354.922	7.6435	709844	prompt	n/a	seat stephen ranked medline\n
356.0985	0.135	712197	keystroke_s	s	n/a
356.2185	0.1645	712437	keystroke_e	e	n/a
356.353	0.135	712706	keystroke_a	a	n/a
356.443	0.105	712886	keystroke_t	t	n/a
356.6085	0.1045	713217	keystroke_Key.space	Key.space	n/a
356.908	0.135	713816	keystroke_s	s	n/a
357.088	0.135	714176	keystroke_t	t	n/a
357.388	0.06	714776	keystroke_p	p	n/a
357.868	0.0445	715736	keystroke_Key.backspace	Key.backspace	n/a
357.9285	0.089	715857	keystroke_e	e	n/a
358.1385	0.105	716277	keystroke_p	p	n/a
358.2435	0.09	716487	keystroke_h	h	n/a
358.3635	0.074	716727	keystroke_e	e	n/a
358.423	0.0595	716846	keystroke_n	n	n/a
358.573	0.105	717146	keystroke_Key.space	Key.space	n/a
358.904	0.089	717808	keystroke_r	r	n/a
359.008	0.1055	718016	keystroke_a	a	n/a
359.023	0.06	718046	keystroke_n	n	n/a
359.188	0.076	718376	keystroke_k	k	n/a
359.2785	0.09	718557	keystroke_e	e	n/a
359.473	0.045	718946	keystroke_d	d	n/a
359.578	0.0895	719156	keystroke_Key.space	Key.space	n/a
361.633	0.075	723266	keystroke_m	m	n/a
361.723	0.0605	723446	keystroke_e	e	n/a
361.888	0.105	723776	keystroke_d	d	n/a
362.008	0.09	724016	keystroke_l	l	n/a
362.158	0.1055	724316	keystroke_i	i	n/a
362.293	0.075	724586	keystroke_n	n	n/a
362.3835	0.0745	724767	keystroke_e	e	n/a
362.473	0.09	724946	keystroke_Key.enter	Key.enter	n/a
362.578	7.9975	725156	prompt	n/a	translator participants weddings sphere\n
363.448	0.121	726896	keystroke_t	t	n/a
363.5235	0.135	727047	keystroke_r	r	n/a
363.613	0.105	727226	keystroke_a	a	n/a
363.733	0.06	727466	keystroke_n	n	n/a
363.868	0.105	727736	keystroke_s	s	n/a
363.988	0.09	727976	keystroke_l	l	n/a
364.514	0.134	729028	keystroke_a	a	n/a
364.618	0.121	729236	keystroke_t	t	n/a
364.828	0.091	729656	keystroke_o	o	n/a
364.948	0.061	729896	keystroke_r	r	n/a
365.083	0.076	730166	keystroke_Key.space	Key.space	n/a
365.458	0.09	730916	keystroke_p	p	n/a
365.593	0.1355	731186	keystroke_a	a	n/a
365.668	0.12	731336	keystroke_r	r	n/a
365.8925	0.0905	731785	keystroke_t	t	n/a
366.0275	0.076	732055	keystroke_i	i	n/a
366.163	0.105	732326	keystroke_c	c	n/a
366.328	0.075	732656	keystroke_i	i	n/a
366.5535	0.09	733107	keystroke_p	p	n/a
366.6585	0.18	733317	keystroke_a	a	n/a
366.898	0.0595	733796	keystroke_n	n	n/a
367.0635	0.1195	734127	keystroke_t	t	n/a
367.1685	0.1355	734337	keystroke_s	s	n/a
367.3185	0.089	734637	keystroke_Key.space	Key.space	n/a
367.528	0.0745	735056	keystroke_e	e	n/a
368.0085	0.045	736017	keystroke_Key.backspace	Key.backspace	n/a
368.0985	0.1045	736197	keystroke_w	w	n/a
368.173	0.1205	736346	keystroke_e	e	n/a
368.4135	0.0895	736827	keystroke_d	d	n/a
368.578	0.105	737156	keystroke_d	d	n/a
368.668	0.15	737336	keystroke_i	i	n/a
368.773	0.09	737546	keystroke_n	n	n/a
368.848	0.09	737696	keystroke_g	g	n/a
368.953	0.09	737906	keystroke_s	s	n/a
369.163	0.075	738326	keystroke_Key.space	Key.space	n/a
369.658	0.1195	739316	keystroke_s	s	n/a
369.884	0.0735	739768	keystroke_p	p	n/a
370.0175	0.0605	740035	keystroke_h	h	n/a
370.1835	0.104	740367	keystroke_e	e	n/a
370.2585	0.134	740517	keystroke_r	r	n/a
370.4075	0.076	740815	keystroke_e	e	n/a
370.4675	0.1055	740935	keystroke_Key.enter	Key.enter	n/a
370.586	9.754	741172	prompt	n/a	inner guarantee challenging crawford\n
371.188	0.06	742376	keystroke_i	i	n/a
371.3235	0.075	742647	keystroke_n	n	n/a
371.4885	0.075	742977	keystroke_n	n	n/a
371.5635	0.135	743127	keystroke_e	e	n/a
371.668	0.1205	743336	keystroke_r	r	n/a
371.773	0.0895	743546	keystroke_Key.space	Key.space	n/a
372.6275	0.1055	745255	keystroke_g	g	n/a
372.7175	0.091	745435	keystroke_u	u	n/a
372.853	0.1055	745706	keystroke_a	a	n/a
373.063	0.105	746126	keystroke_r	r	n/a
373.183	0.105	746366	keystroke_a	a	n/a
373.2585	0.09	746517	keystroke_n	n	n/a
373.379	0.104	746758	keystroke_t	t	n/a
373.558	0.09	747116	keystroke_e	e	n/a
373.753	0.0605	747506	keystroke_e	e	n/a
373.933	0.0905	747866	keystroke_Key.space	Key.space	n/a
374.1885	0.03	748377	keystroke_c	c	n/a
374.2035	0.075	748407	keystroke_h	h	n/a
374.3385	0.105	748677	keystroke_a	a	n/a
374.4285	0.075	748857	keystroke_n	n	n/a
374.5785	0.075	749157	keystroke_g	g	n/a
374.7435	0.045	749487	keystroke_l	l	n/a
375.028	0.075	750056	keystroke_Key.backspace	Key.backspace	n/a
375.178	0.06	750356	keystroke_Key.backspace	Key.backspace	n/a
375.4185	0.09	750837	keystroke_l	l	n/a
376.168	0.045	752336	keystroke_Key.backspace	Key.backspace	n/a
376.288	0.09	752576	keystroke_Key.backspace	Key.backspace	n/a
376.588	0.121	753176	keystroke_l	l	n/a
376.8135	0.105	753627	keystroke_l	l	n/a
376.963	0.09	753926	keystroke_e	e	n/a
377.263	0.075	754526	keystroke_n	n	n/a
377.3985	0.0745	754797	keystroke_g	g	n/a
377.518	0.1205	755036	keystroke_i	i	n/a
377.593	0.105	755186	keystroke_n	n	n/a
377.653	0.075	755306	keystroke_g	g	n/a
377.848	0.06	755696	keystroke_Key.space	Key.space	n/a
378.568	0.1205	757136	keystroke_c	c	n/a
378.7485	0.209	757497	keystroke_r	r	n/a
379.078	0.1205	758156	keystroke_a	a	n/a
379.304	0.1035	758608	keystroke_w	w	n/a
379.5885	0.0745	759177	keystroke_f	f	n/a
379.693	0.075	759386	keystroke_o	o	n/a
379.8135	0.075	759627	keystroke_r	r	n/a
379.9935	0.075	759987	keystroke_d	d	n/a
380.248	0.09	760496	keystroke_Key.enter	Key.enter	n/a
380.352	6.108	760704	prompt	n/a	enlarge ones valid buildings\n
380.953	0.0755	761906	keystroke_e	e	n/a
381.2385	0.06	762477	keystroke_n	n	n/a
381.3735	0.119	762747	keystroke_l	l	n/a
381.5075	0.21	763015	keystroke_a	a	n/a
381.7035	0.045	763407	keystroke_r	r	n/a
381.9125	0.09	763825	keystroke_g	g	n/a
382.0035	0.1045	764007	keystroke_e	e	n/a
382.1375	0.1055	764275	keystroke_Key.space	Key.space	n/a
382.3185	0.165	764637	keystroke_o	o	n/a
382.4985	0.105	764997	keystroke_n	n	n/a
382.6175	0.151	765235	keystroke_e	e	n/a
382.738	0.091	765476	keystroke_s	s	n/a
382.8875	0.075	765775	keystroke_Key.space	Key.space	n/a
383.323	0.075	766646	keystroke_c	c	n/a
383.608	0.0745	767216	keystroke_Key.backspace	Key.backspace	n/a
383.7125	0.075	767425	keystroke_v	v	n/a
383.803	0.0745	767606	keystroke_a	a	n/a
383.8625	0.12	767725	keystroke_l	l	n/a
384.058	0.09	768116	keystroke_i	i	n/a
384.2235	0.09	768447	keystroke_d	d	n/a
384.343	0.09	768686	keystroke_Key.space	Key.space	n/a
384.7635	0.075	769527	keystroke_b	b	n/a
384.883	0.135	769766	keystroke_u	u	n/a
384.988	0.0755	769976	keystroke_i	i	n/a
385.183	0.18	770366	keystroke_l	l	n/a
385.438	0.091	770876	keystroke_d	d	n/a
385.543	0.12	771086	keystroke_i	i	n/a
385.693	0.0755	771386	keystroke_n	n	n/a
385.7385	0.0755	771477	keystroke_g	g	n/a
386.203	0.075	772406	keystroke_s	s	n/a
386.368	0.09	772736	keystroke_Key.enter	Key.enter	n/a
386.4635	11.037	772927	prompt	n/a	dolls supply withdrawal bind\n
387.1475	0.0755	774295	keystroke_d	d	n/a
387.2525	0.061	774505	keystroke_o	o	n/a
387.4175	0.0755	774835	keystroke_o	o	n/a
387.6135	0.09	775227	keystroke_l	l	n/a
387.808	0.0755	775616	keystroke_s	s	n/a
387.9735	0.075	775947	keystroke_Key.backspace	Key.backspace	n/a
388.108	0.06	776216	keystroke_Key.backspace	Key.backspace	n/a
388.258	0.06	776516	keystroke_Key.backspace	Key.backspace	n/a
388.4835	0.0745	776967	keystroke_l	l	n/a
388.633	0.0755	777266	keystroke_l	l	n/a
388.753	0.091	777506	keystroke_s	s	n/a
388.888	0.06	777776	keystroke_Key.space	Key.space	n/a
389.0835	0.0595	778167	keystroke_s	s	n/a
389.234	0.074	778468	keystroke_u	u	n/a
389.353	0.12	778706	keystroke_p	p	n/a
389.563	0.06	779126	keystroke_l	l	n/a
389.728	0.06	779456	keystroke_l	l	n/a
389.848	0.06	779696	keystroke_y	y	n/a
390.028	0.0745	780056	keystroke_Key.space	Key.space	n/a
390.9125	0.06	781825	keystroke_Key.backspace	Key.backspace	n/a
391.0475	0.076	782095	keystroke_Key.backspace	Key.backspace	n/a
391.243	0.045	782486	keystroke_Key.backspace	Key.backspace	n/a
391.6635	0.074	783327	keystroke_Key.backspace	Key.backspace	n/a
391.993	0.165	783986	keystroke_p	p	n/a
392.113	0.135	784226	keystroke_l	l	n/a
392.278	0.075	784556	keystroke_y	y	n/a
392.458	0.09	784916	keystroke_Key.space	Key.space	n/a
392.608	0.0895	785216	keystroke_w	w	n/a
392.7425	0.0755	785485	keystroke_i	i	n/a
393.0435	0.075	786087	keystroke_t	t	n/a
393.1335	0.075	786267	keystroke_h	h	n/a
393.4335	0.105	786867	keystroke_d	d	n/a
393.793	0.091	787586	keystroke_r	r	n/a
393.9735	0.165	787947	keystroke_a	a	n/a
394.079	0.1345	788158	keystroke_w	w	n/a
394.2735	0.119	788547	keystroke_a	a	n/a
394.4225	0.091	788845	keystroke_l	l	n/a
394.633	0.09	789266	keystroke_Key.space	Key.space	n/a
395.893	0.06	791786	keystroke_Key.backspace	Key.backspace	n/a
396.2385	0.0745	792477	keystroke_b	b	n/a
396.523	0.045	793046	keystroke_Key.backspace	Key.backspace	n/a
396.8085	0.1195	793617	keystroke_Key.space	Key.space	n/a
397.003	0.0605	794006	keystroke_b	b	n/a
397.0935	0.15	794187	keystroke_i	i	n/a
397.213	0.0905	794426	keystroke_n	n	n/a
397.2885	0.075	794577	keystroke_d	d	n/a
397.4075	0.09	794815	keystroke_Key.enter	Key.enter	n/a
397.511	7.9835	795022	prompt	n/a	nominations cleaner biology diagnostic\n
398.398	0.09	796796	keystroke_n	n	n/a
398.563	0.12	797126	keystroke_o	o	n/a
398.788	0.0605	797576	keystroke_m	m	n/a
398.983	0.091	797966	keystroke_i	i	n/a
399.208	0.075	798416	keystroke_n	n	n/a
399.403	0.0895	798806	keystroke_a	a	n/a
399.4325	0.106	798865	keystroke_t	t	n/a
399.5535	0.165	799107	keystroke_i	i	n/a
399.673	0.1055	799346	keystroke_o	o	n/a
399.7635	0.12	799527	keystroke_n	n	n/a
399.9135	0.105	799827	keystroke_s	s	n/a
400.033	0.09	800066	keystroke_Key.space	Key.space	n/a
400.2435	0.105	800487	keystroke_c	c	n/a
400.3335	0.075	800667	keystroke_l	l	n/a
400.483	0.1205	800966	keystroke_e	e	n/a
400.7525	0.106	801505	keystroke_a	a	n/a
400.8725	0.046	801745	keystroke_n	n	n/a
400.9635	0.1495	801927	keystroke_e	e	n/a
401.0535	0.12	802107	keystroke_r	r	n/a
401.218	0.0895	802436	keystroke_Key.space	Key.space	n/a
401.623	0.045	803246	keystroke_b	b	n/a
401.788	0.1055	803576	keystroke_i	i	n/a
401.9385	0.1045	803877	keystroke_o	o	n/a
402.148	0.0755	804296	keystroke_l	l	n/a
402.3435	0.059	804687	keystroke_o	o	n/a
402.3725	0.09	804745	keystroke_g	g	n/a
402.553	0.0745	805106	keystroke_y	y	n/a
402.7325	0.046	805465	keystroke_Key.space	Key.space	n/a
403.3475	0.136	806695	keystroke_d	d	n/a
403.5435	0.0745	807087	keystroke_i	i	n/a
403.6635	0.1345	807327	keystroke_a	a	n/a
403.9635	0.074	807927	keystroke_g	g	n/a
404.518	0.06	809036	keystroke_n	n	n/a
404.653	0.1045	809306	keystroke_o	o	n/a
404.833	0.1645	809666	keystroke_s	s	n/a
404.983	0.1055	809966	keystroke_t	t	n/a
405.1185	0.09	810237	keystroke_i	i	n/a
405.3135	0.0445	810627	keystroke_c	c	n/a
405.4335	0.0595	810867	keystroke_Key.enter	Key.enter	n/a
405.499	9.551	810998	prompt	n/a	demo somewhere earthquake helicopter\n
406.273	0.075	812546	keystroke_d	d	n/a
406.5875	0.09	813175	keystroke_e	e	n/a
406.6925	0.0605	813385	keystroke_m	m	n/a
406.8735	0.0745	813747	keystroke_o	o	n/a
407.248	0.075	814496	keystroke_Key.space	Key.space	n/a
407.4585	0.0745	814917	keystroke_s	s	n/a
407.578	0.0905	815156	keystroke_o	o	n/a
407.788	0.075	815576	keystroke_m	m	n/a
407.9385	0.1195	815877	keystroke_e	e	n/a
408.134	0.119	816268	keystroke_w	w	n/a
408.193	0.0905	816386	keystroke_h	h	n/a
408.3435	0.15	816687	keystroke_e	e	n/a
408.5085	0.1345	817017	keystroke_r	r	n/a
408.6285	0.1045	817257	keystroke_e	e	n/a
408.808	0.075	817616	keystroke_Key.space	Key.space	n/a
409.348	0.15	818696	keystroke_e	e	n/a
409.453	0.195	818906	keystroke_a	a	n/a
409.603	0.0745	819206	keystroke_r	r	n/a
409.8735	0.105	819747	keystroke_t	t	n/a
409.993	0.1055	819986	keystroke_h	h	n/a
410.3085	0.1195	820617	keystroke_w	w	n/a
410.6675	0.09	821335	keystroke_u	u	n/a
410.8475	0.091	821695	keystroke_a	a	n/a
411.268	0.045	822536	keystroke_Key.backspace	Key.backspace	n/a
411.403	0.06	822806	keystroke_Key.backspace	Key.backspace	n/a
411.553	0.06	823106	keystroke_Key.backspace	Key.backspace	n/a
411.9285	0.09	823857	keystroke_q	q	n/a
412.1835	0.059	824367	keystroke_a	a	n/a
412.2585	0.09	824517	keystroke_u	u	n/a
412.4835	0.0745	824967	keystroke_k	k	n/a
412.588	0.0755	825176	keystroke_e	e	n/a
412.7825	0.09	825565	keystroke_Key.space	Key.space	n/a
413.2175	0.0755	826435	keystroke_h	h	n/a
413.3535	0.089	826707	keystroke_e	e	n/a
413.5025	0.12	827005	keystroke_l	l	n/a
413.7125	0.075	827425	keystroke_i	i	n/a
413.893	0.12	827786	keystroke_c	c	n/a
414.058	0.045	828116	keystroke_o	o	n/a
414.298	0.09	828596	keystroke_p	p	n/a
414.5535	0.074	829107	keystroke_t	t	n/a
414.793	0.1355	829586	keystroke_e	e	n/a
414.8835	0.09	829767	keystroke_r	r	n/a
414.9885	0.0595	829977	keystroke_Key.enter	Key.enter	n/a
415.062	8.898	830124	prompt	n/a	olympus kinda fireplace dates\n
415.8285	0.09	831657	keystroke_o	o	n/a
416.0375	0.091	832075	keystroke_l	l	n/a
416.2625	0.06	832525	keystroke_y	y	n/a
416.4885	0.06	832977	keystroke_m	m	n/a
416.6535	0.075	833307	keystroke_u	u	n/a
417.0885	0.0445	834177	keystroke_Key.backspace	Key.backspace	n/a
417.283	0.105	834566	keystroke_o	o	n/a
417.778	0.105	835556	keystroke_Key.backspace	Key.backspace	n/a
418.183	0.135	836366	keystroke_p	p	n/a
418.4385	0.0595	836877	keystroke_u	u	n/a
418.8885	0.059	837777	keystroke_s	s	n/a
419.0375	0.09	838075	keystroke_Key.space	Key.space	n/a
420.0725	0.091	840145	keystroke_k	k	n/a
420.2525	0.12	840505	keystroke_i	i	n/a
420.838	0.075	841676	keystroke_n	n	n/a
420.9435	0.1045	841887	keystroke_d	d	n/a
421.168	0.12	842336	keystroke_a	a	n/a
421.378	0.09	842756	keystroke_Key.space	Key.space	n/a
421.6785	0.1195	843357	keystroke_f	f	n/a
421.828	0.06	843656	keystroke_i	i	n/a
421.948	0.12	843896	keystroke_r	r	n/a
422.053	0.09	844106	keystroke_e	e	n/a
422.2185	0.09	844437	keystroke_p	p	n/a
422.4435	0.1045	844887	keystroke_l	l	n/a
422.593	0.195	845186	keystroke_a	a	n/a
422.773	0.165	845546	keystroke_c	c	n/a
422.893	0.105	845786	keystroke_e	e	n/a
423.043	0.0755	846086	keystroke_Key.space	Key.space	n/a
423.283	0.12	846566	keystroke_d	d	n/a
423.418	0.165	846836	keystroke_a	a	n/a
423.523	0.18	847046	keystroke_t	t	n/a
423.643	0.18	847286	keystroke_e	e	n/a
423.763	0.105	847526	keystroke_s	s	n/a
423.853	0.105	847706	keystroke_Key.enter	Key.enter	n/a
423.966	8.3795	847932	prompt	n/a	rank button commons coleman\n
424.7385	0.135	849477	keystroke_r	r	n/a
424.8575	0.105	849715	keystroke_a	a	n/a
424.9475	0.105	849895	keystroke_n	n	n/a
425.0675	0.09	850135	keystroke_k	k	n/a
425.2175	0.1505	850435	keystroke_Key.space	Key.space	n/a
425.833	0.09	851666	keystroke_b	b	n/a
425.968	0.105	851936	keystroke_u	u	n/a
426.1635	0.0595	852327	keystroke_t	t	n/a
426.328	0.045	852656	keystroke_o	o	n/a
426.4785	0.0595	852957	keystroke_o	o	n/a
426.643	0.075	853286	keystroke_o	o	n/a
426.853	0.09	853706	keystroke_n	n	n/a
427.288	0.0445	854576	keystroke_Key.backspace	Key.backspace	n/a
427.3475	0.03	854695	keystroke_Key.backspace	Key.backspace	n/a
427.468	0.0745	854936	keystroke_Key.backspace	Key.backspace	n/a
427.648	0.0445	855296	keystroke_Key.backspace	Key.backspace	n/a
427.8585	0.0895	855717	keystroke_t	t	n/a
427.949	0.209	855898	keystroke_o	o	n/a
428.128	0.165	856256	keystroke_n	n	n/a
428.473	0.045	856946	keystroke_Key.space	Key.space	n/a
429.043	0.12	858086	keystroke_c	c	n/a
429.148	0.06	858296	keystroke_o	o	n/a
429.343	0.06	858686	keystroke_m	m	n/a
429.4935	0.0595	858987	keystroke_m	m	n/a
429.6585	0.0745	859317	keystroke_p	p	n/a
430.168	0.06	860336	keystroke_Key.backspace	Key.backspace	n/a
430.438	0.135	860876	keystroke_o	o	n/a
430.603	0.105	861206	keystroke_n	n	n/a
430.753	0.105	861506	keystroke_s	s	n/a
431.0525	0.06	862105	keystroke_Key.space	Key.space	n/a
431.2925	0.0905	862585	keystroke_c	c	n/a
431.3835	0.074	862767	keystroke_o	o	n/a
431.563	0.0745	863126	keystroke_l	l	n/a
431.668	0.0745	863336	keystroke_e	e	n/a
431.923	0.06	863846	keystroke_m	m	n/a
431.998	0.09	863996	keystroke_a	a	n/a
432.1185	0.03	864237	keystroke_n	n	n/a
432.252	0.09	864504	keystroke_Key.enter	Key.enter	n/a
432.358	12.1525	864716	prompt	n/a	bean asin calculators achieving\n
433.3485	0.03	866697	keystroke_b	b	n/a
433.3635	0.105	866727	keystroke_e	e	n/a
433.5135	0.1345	867027	keystroke_a	a	n/a
433.603	0.135	867206	keystroke_s	s	n/a
433.828	0.0745	867656	keystroke_Key.space	Key.space	n/a
433.9925	0.09	867985	keystroke_s	s	n/a
434.293	0.045	868586	keystroke_Key.backspace	Key.backspace	n/a
434.3535	0.149	868707	keystroke_a	a	n/a
434.4435	0.149	868887	keystroke_s	s	n/a
434.5785	0.075	869157	keystroke_i	i	n/a
434.8025	0.06	869605	keystroke_n	n	n/a
434.968	0.104	869936	keystroke_Key.space	Key.space	n/a
435.3585	0.09	870717	keystroke_c	c	n/a
435.433	0.075	870866	keystroke_a	a	n/a
435.5535	0.0895	871107	keystroke_l	l	n/a
435.9885	0.09	871977	keystroke_u	u	n/a
436.588	0.06	873176	keystroke_Key.backspace	Key.backspace	n/a
436.738	0.045	873476	keystroke_Key.backspace	Key.backspace	n/a
436.8725	0.045	873745	keystroke_Key.backspace	Key.backspace	n/a
436.9625	0.075	873925	keystroke_Key.backspace	Key.backspace	n/a
437.083	0.0745	874166	keystroke_Key.backspace	Key.backspace	n/a
437.2175	0.0605	874435	keystroke_Key.backspace	Key.backspace	n/a
437.3525	0.1055	874705	keystroke_Key.backspace	Key.backspace	n/a
437.487	0.061	874974	keystroke_Key.backspace	Key.backspace	n/a
437.622	0.076	875244	keystroke_Key.backspace	Key.backspace	n/a
437.7725	0.06	875545	keystroke_Key.backspace	Key.backspace	n/a
437.9235	0.059	875847	keystroke_Key.backspace	Key.backspace	n/a
438.5675	0.0605	877135	keystroke_n	n	n/a
438.7035	0.105	877407	keystroke_s	s	n/a
438.8525	0.1055	877705	keystroke_Key.space	Key.space	n/a
439.153	0.12	878306	keystroke_a	a	n/a
439.2885	0.1045	878577	keystroke_s	s	n/a
439.408	0.06	878816	keystroke_i	i	n/a
439.7235	0.089	879447	keystroke_n	n	n/a
439.918	0.15	879836	keystroke_Key.space	Key.space	n/a
440.473	0.135	880946	keystroke_c	c	n/a
440.968	0.075	881936	keystroke_a	a	n/a
441.103	0.09	882206	keystroke_l	l	n/a
441.298	0.0905	882596	keystroke_c	c	n/a
441.478	0.075	882956	keystroke_u	u	n/a
441.658	0.105	883316	keystroke_l	l	n/a
441.778	0.12	883556	keystroke_a	a	n/a
441.8685	0.0595	883737	keystroke_t	t	n/a
442.168	0.075	884336	keystroke_o	o	n/a
442.588	0.1045	885176	keystroke_r	r	n/a
442.873	0.105	885746	keystroke_s	s	n/a
443.0675	0.09	886135	keystroke_Key.space	Key.space	n/a
443.2025	0.12	886405	keystroke_a	a	n/a
443.308	0.135	886616	keystroke_c	c	n/a
443.413	0.09	886826	keystroke_h	h	n/a
443.563	0.0595	887126	keystroke_i	i	n/a
443.7125	0.0755	887425	keystroke_e	e	n/a
443.9235	0.0745	887847	keystroke_v	v	n/a
444.088	0.15	888176	keystroke_i	i	n/a
444.193	0.12	888386	keystroke_n	n	n/a
444.298	0.075	888596	keystroke_g	g	n/a
444.4175	0.09	888835	keystroke_Key.enter	Key.enter	n/a
444.5415	6.703	889083	prompt	n/a	contract placing goes machines\n
445.1375	0.09	890275	keystroke_c	c	n/a
445.2125	0.136	890425	keystroke_o	o	n/a
445.3935	0.044	890787	keystroke_n	n	n/a
445.4985	0.119	890997	keystroke_t	t	n/a
445.5725	0.105	891145	keystroke_r	r	n/a
445.6935	0.105	891387	keystroke_a	a	n/a
445.7985	0.1045	891597	keystroke_c	c	n/a
446.0225	0.06	892045	keystroke_t	t	n/a
446.158	0.105	892316	keystroke_Key.space	Key.space	n/a
446.383	0.06	892766	keystroke_p	p	n/a
446.623	0.06	893246	keystroke_l	l	n/a
446.698	0.0905	893396	keystroke_a	a	n/a
447.163	0.0755	894326	keystroke_c	c	n/a
447.268	0.12	894536	keystroke_i	i	n/a
447.343	0.12	894686	keystroke_n	n	n/a
447.478	0.06	894956	keystroke_g	g	n/a
447.628	0.09	895256	keystroke_Key.space	Key.space	n/a
447.9425	0.12	895885	keystroke_f	f	n/a
448.0475	0.091	896095	keystroke_o	o	n/a
448.1975	0.136	896395	keystroke_e	e	n/a
448.2875	0.1355	896575	keystroke_s	s	n/a
448.633	0.06	897266	keystroke_Key.backspace	Key.backspace	n/a
448.783	0.06	897566	keystroke_Key.backspace	Key.backspace	n/a
448.918	0.075	897836	keystroke_Key.backspace	Key.backspace	n/a
449.068	0.09	898136	keystroke_Key.backspace	Key.backspace	n/a
449.203	0.09	898406	keystroke_g	g	n/a
449.338	0.105	898676	keystroke_o	o	n/a
449.458	0.135	898916	keystroke_e	e	n/a
449.518	0.135	899036	keystroke_s	s	n/a
449.698	0.09	899396	keystroke_Key.space	Key.space	n/a
450.2685	0.09	900537	keystroke_m	m	n/a
450.3735	0.105	900747	keystroke_a	a	n/a
450.4935	0.074	900987	keystroke_c	c	n/a
450.5535	0.09	901107	keystroke_h	h	n/a
450.718	0.06	901436	keystroke_i	i	n/a
450.808	0.091	901616	keystroke_n	n	n/a
450.928	0.105	901856	keystroke_e	e	n/a
451.0635	0.0895	902127	keystroke_s	s	n/a
451.168	0.075	902336	keystroke_Key.enter	Key.enter	n/a
451.251	6.7885	902502	prompt	n/a	pick believed period april\n
451.9485	0.0745	903897	keystroke_p	p	n/a
452.428	0.045	904856	keystroke_i	i	n/a
452.489	0.1045	904978	keystroke_c	c	n/a
452.6085	0.089	905217	keystroke_k	k	n/a
452.8025	0.075	905605	keystroke_Key.space	Key.space	n/a
453.3135	0.0605	906627	keystroke_b	b	n/a
453.4185	0.075	906837	keystroke_e	e	n/a
453.613	0.104	907226	keystroke_l	l	n/a
453.7635	0.0595	907527	keystroke_i	i	n/a
453.8385	0.12	907677	keystroke_e	e	n/a
454.018	0.105	908036	keystroke_v	v	n/a
454.138	0.105	908276	keystroke_e	e	n/a
454.348	0.09	908696	keystroke_d	d	n/a
454.6475	0.06	909295	keystroke_Key.space	Key.space	n/a
454.993	0.089	909986	keystroke_p	p	n/a
455.128	0.1355	910256	keystroke_e	e	n/a
455.7575	0.091	911515	keystroke_r	r	n/a
455.968	0.1045	911936	keystroke_i	i	n/a
456.0875	0.121	912175	keystroke_o	o	n/a
456.328	0.0895	912656	keystroke_d	d	n/a
456.718	0.06	913436	keystroke_Key.space	Key.space	n/a
457.003	0.135	914006	keystroke_a	a	n/a
457.228	0.09	914456	keystroke_p	p	n/a
457.333	0.075	914666	keystroke_r	r	n/a
457.5135	0.0895	915027	keystroke_i	i	n/a
457.7825	0.045	915565	keystroke_l	l	n/a
457.9475	0.0905	915895	keystroke_Key.enter	Key.enter	n/a
458.043	8.4425	916086	prompt	n/a	fusion silly genome programmes\n
458.863	0.105	917726	keystroke_f	f	n/a
459.043	0.061	918086	keystroke_u	u	n/a
459.178	0.045	918356	keystroke_s	s	n/a
459.358	0.1055	918716	keystroke_i	i	n/a
459.418	0.135	918836	keystroke_o	o	n/a
459.598	0.06	919196	keystroke_n	n	n/a
459.718	0.09	919436	keystroke_Key.space	Key.space	n/a
459.8525	0.0605	919705	keystroke_a	a	n/a
460.363	0.075	920726	keystroke_Key.backspace	Key.backspace	n/a
460.543	0.075	921086	keystroke_s	s	n/a
460.708	0.0595	921416	keystroke_i	i	n/a
460.9325	0.075	921865	keystroke_l	l	n/a
461.1125	0.06	922225	keystroke_l	l	n/a
461.1875	0.105	922375	keystroke_y	y	n/a
461.4275	0.075	922855	keystroke_Key.space	Key.space	n/a
462.2075	0.106	924415	keystroke_g	g	n/a
462.2685	0.09	924537	keystroke_e	e	n/a
462.3875	0.076	924775	keystroke_n	n	n/a
462.5385	0.09	925077	keystroke_o	o	n/a
462.6735	0.09	925347	keystroke_r	r	n/a
463.1675	0.0455	926335	keystroke_Key.backspace	Key.backspace	n/a
463.4835	0.09	926967	keystroke_m	m	n/a
463.5885	0.06	927177	keystroke_e	e	n/a
463.723	0.105	927446	keystroke_Key.space	Key.space	n/a
464.158	0.0905	928316	keystroke_p	p	n/a
464.2925	0.0905	928585	keystroke_r	r	n/a
464.533	0.1045	929066	keystroke_o	o	n/a
464.9385	0.149	929877	keystroke_g	g	n/a
465.0135	0.149	930027	keystroke_r	r	n/a
465.2825	0.061	930565	keystroke_o	o	n/a
465.643	0.0745	931286	keystroke_Key.backspace	Key.backspace	n/a
465.808	0.09	931616	keystroke_a	a	n/a
465.928	0.045	931856	keystroke_m	m	n/a
466.0785	0.0595	932157	keystroke_m	m	n/a
466.1985	0.1195	932397	keystroke_e	e	n/a
466.273	0.1055	932546	keystroke_s	s	n/a
466.393	0.09	932786	keystroke_Key.enter	Key.enter	n/a
466.5015	6.283	933003	prompt	n/a	chapel beads area resources\n
467.473	0.0295	934946	keystroke_c	c	n/a
467.488	0.06	934976	keystroke_h	h	n/a
467.653	0.0755	935306	keystroke_a	a	n/a
467.8035	0.1045	935607	keystroke_p	p	n/a
468.328	0.1055	936656	keystroke_e	e	n/a
468.463	0.09	936926	keystroke_l	l	n/a
468.6575	0.075	937315	keystroke_Key.space	Key.space	n/a
469.0325	0.045	938065	keystroke_b	b	n/a
469.1225	0.0755	938245	keystroke_e	e	n/a
469.1825	0.181	938365	keystroke_a	a	n/a
469.3935	0.135	938787	keystroke_d	d	n/a
469.4835	0.134	938967	keystroke_s	s	n/a
470.2775	0.165	940555	keystroke_Key.space	Key.space	n/a
470.4575	0.03	940915	keystroke_a	a	n/a
470.7275	0.12	941455	keystroke_r	r	n/a
470.7885	0.134	941577	keystroke_e	e	n/a
470.9075	0.075	941815	keystroke_a	a	n/a
471.043	0.105	942086	keystroke_Key.space	Key.space	n/a
471.508	0.09	943016	keystroke_r	r	n/a
471.553	0.1655	943106	keystroke_e	e	n/a
471.703	0.1045	943406	keystroke_s	s	n/a
471.8385	0.089	943677	keystroke_o	o	n/a
471.973	0.075	943946	keystroke_u	u	n/a
472.0625	0.075	944125	keystroke_r	r	n/a
472.3325	0.12	944665	keystroke_c	c	n/a
472.4075	0.195	944815	keystroke_e	e	n/a
472.5575	0.1195	945115	keystroke_s	s	n/a
472.693	0.089	945386	keystroke_Key.enter	Key.enter	n/a
472.7975	7.2625	945595	prompt	n/a	kirk montreal sides drill\n
473.8475	0.1055	947695	keystroke_k	k	n/a
474.087	0.046	948174	keystroke_i	i	n/a
474.163	0.105	948326	keystroke_r	r	n/a
474.298	0.09	948596	keystroke_k	k	n/a
474.688	0.06	949376	keystroke_Key.space	Key.space	n/a
475.1085	0.044	950217	keystroke_m	m	n/a
475.288	0.105	950576	keystroke_o	o	n/a
475.5585	0.0595	951117	keystroke_n	n	n/a
475.813	0.105	951626	keystroke_t	t	n/a
475.873	0.15	951746	keystroke_r	r	n/a
475.993	0.06	951986	keystroke_a	a	n/a
476.0835	0.12	952167	keystroke_e	e	n/a
476.3085	0.059	952617	keystroke_Key.backspace	Key.backspace	n/a
476.4725	0.0755	952945	keystroke_Key.backspace	Key.backspace	n/a
476.5775	0.136	953155	keystroke_e	e	n/a
476.6825	0.076	953365	keystroke_a	a	n/a
476.7735	0.075	953547	keystroke_l	l	n/a
476.9825	0.105	953965	keystroke_Key.space	Key.space	n/a
477.298	0.12	954596	keystroke_s	s	n/a
477.448	0.0755	954896	keystroke_i	i	n/a
477.5985	0.104	955197	keystroke_d	d	n/a
477.7785	0.1345	955557	keystroke_e	e	n/a
477.853	0.105	955706	keystroke_s	s	n/a
478.6025	0.075	957205	keystroke_Key.space	Key.space	n/a
479.143	0.151	958286	keystroke_d	d	n/a
479.369	0.1045	958738	keystroke_r	r	n/a
479.458	0.0905	958916	keystroke_i	i	n/a
479.623	0.0905	959246	keystroke_l	l	n/a
479.8175	0.03	959635	keystroke_l	l	n/a
479.9675	0.09	959935	keystroke_Key.enter	Key.enter	n/a
480.0635	9.4795	960127	prompt	n/a	blessed holding expect norton\n
481.348	0.0755	962696	keystroke_b	b	n/a
481.498	0.075	962996	keystroke_l	l	n/a
481.708	0.0745	963416	keystroke_e	e	n/a
481.9335	0.09	963867	keystroke_d	d	n/a
482.2325	0.075	964465	keystroke_Key.backspace	Key.backspace	n/a
482.623	0.0605	965246	keystroke_s	s	n/a
482.789	0.119	965578	keystroke_s	s	n/a
482.8925	0.1055	965785	keystroke_e	e	n/a
483.1025	0.091	966205	keystroke_d	d	n/a
483.238	0.0895	966476	keystroke_Key.space	Key.space	n/a
483.643	0.1055	967286	keystroke_h	h	n/a
483.7625	0.091	967525	keystroke_o	o	n/a
483.943	0.0905	967886	keystroke_l	l	n/a
484.048	0.0895	968096	keystroke_d	d	n/a
484.1235	0.149	968247	keystroke_i	i	n/a
484.2875	0.091	968575	keystroke_n	n	n/a
484.348	0.075	968696	keystroke_g	g	n/a
484.4825	0.0905	968965	keystroke_Key.space	Key.space	n/a
484.903	0.0745	969806	keystroke_e	e	n/a
485.1575	0.091	970315	keystroke_x	x	n/a
485.2925	0.105	970585	keystroke_p	p	n/a
485.4425	0.09	970885	keystroke_e	e	n/a
485.5925	0.1055	971185	keystroke_c	c	n/a
485.8635	0.075	971727	keystroke_t	t	n/a
486.0275	0.12	972055	keystroke_Key.space	Key.space	n/a
487.678	0.06	975356	keystroke_n	n	n/a
487.8425	0.075	975685	keystroke_o	o	n/a
488.1885	0.1645	976377	keystroke_r	r	n/a
488.3225	0.105	976645	keystroke_t	t	n/a
488.4585	0.1345	976917	keystroke_o	o	n/a
488.683	0.045	977366	keystroke_n	n	n/a
489.433	0.105	978866	keystroke_Key.enter	Key.enter	n/a
489.5805	9.725	979161	prompt	n/a	death relative penetration season\n
490.1985	0.074	980397	keystroke_d	d	n/a
490.363	0.15	980726	keystroke_e	e	n/a
490.4525	0.1505	980905	keystroke_a	a	n/a
490.573	0.0905	981146	keystroke_t	t	n/a
490.6485	0.075	981297	keystroke_h	h	n/a
490.7975	0.09	981595	keystroke_Key.space	Key.space	n/a
490.9925	0.135	981985	keystroke_r	r	n/a
491.0835	0.135	982167	keystroke_e	e	n/a
491.2335	0.1045	982467	keystroke_l	l	n/a
491.428	0.1205	982856	keystroke_a	a	n/a
491.5335	0.09	983067	keystroke_t	t	n/a
491.6975	0.075	983395	keystroke_i	i	n/a
491.8775	0.121	983755	keystroke_v	v	n/a
492.013	0.1355	984026	keystroke_e	e	n/a
492.208	0.09	984416	keystroke_Key.space	Key.space	n/a
492.7635	0.045	985527	keystroke_p	p	n/a
492.8535	0.15	985707	keystroke_r	r	n/a
492.9585	0.1205	985917	keystroke_e	e	n/a
493.1685	0.044	986337	keystroke_n	n	n/a
493.4375	0.046	986875	keystroke_Key.backspace	Key.backspace	n/a
493.5875	0.0605	987175	keystroke_Key.backspace	Key.backspace	n/a
494.0685	0.09	988137	keystroke_e	e	n/a
494.3835	0.0595	988767	keystroke_Key.backspace	Key.backspace	n/a
494.5475	0.06	989095	keystroke_Key.backspace	Key.backspace	n/a
494.6685	0.089	989337	keystroke_e	e	n/a
494.7735	0.074	989547	keystroke_n	n	n/a
495.058	0.09	990116	keystroke_e	e	n/a
495.2525	0.181	990505	keystroke_t	t	n/a
495.3735	0.165	990747	keystroke_r	r	n/a
495.4785	0.1345	990957	keystroke_a	a	n/a
495.6885	0.1045	991377	keystroke_i	i	n/a
495.7485	0.0895	991497	keystroke_t	t	n/a
495.928	0.21	991856	keystroke_i	i	n/a
496.527	0.061	993054	keystroke_Key.backspace	Key.backspace	n/a
496.693	0.06	993386	keystroke_Key.backspace	Key.backspace	n/a
496.888	0.045	993776	keystroke_Key.backspace	Key.backspace	n/a
497.0985	0.0895	994197	keystroke_t	t	n/a
497.233	0.18	994466	keystroke_i	i	n/a
497.414	0.1045	994828	keystroke_o	o	n/a
497.4585	0.1345	994917	keystroke_n	n	n/a
497.7425	0.0755	995485	keystroke_Key.space	Key.space	n/a
497.9685	0.1045	995937	keystroke_s	s	n/a
498.178	0.135	996356	keystroke_e	e	n/a
498.493	0.18	996986	keystroke_a	a	n/a
498.613	0.15	997226	keystroke_s	s	n/a
498.8685	0.119	997737	keystroke_o	o	n/a
498.9885	0.119	997977	keystroke_n	n	n/a
499.213	0.09	998426	keystroke_Key.enter	Key.enter	n/a
499.3215	6.958	998643	prompt	n/a	touched fixes drives continues\n
499.9475	0.075	999895	keystroke_t	t	n/a
500.0375	0.09	1000075	keystroke_o	o	n/a
500.1425	0.12	1000285	keystroke_u	u	n/a
500.367	0.121	1000734	keystroke_h	h	n/a
500.413	0.105	1000826	keystroke_c	c	n/a
