onset	duration	sample	value	key	prompt_text
2.743	24.357	5486	prompt	n/a	the quick brown fox jumps over a lazy dog\n
14.687	0.105	29374	keystroke_t	t	n/a
14.837	0.09	29674	keystroke_h	h	n/a
15.6315	0.06	31263	keystroke_e	e	n/a
15.7365	0.09	31473	keystroke_Key.space	Key.space	n/a
15.8415	0.075	31683	keystroke_q	q	n/a
15.9465	0.06	31893	keystroke_u	u	n/a
16.0965	0.075	32193	keystroke_i	i	n/a
16.2315	0.075	32463	keystroke_c	c	n/a
16.2915	0.09	32583	keystroke_k	k	n/a
16.4115	0.135	32823	keystroke_Key.space	Key.space	n/a
16.5615	0.1055	33123	keystroke_b	b	n/a
16.696	0.09	33392	keystroke_r	r	n/a
16.801	0.06	33602	keystroke_o	o	n/a
16.9515	0.06	33903	keystroke_w	w	n/a
17.0415	0.1505	34083	keystroke_n	n	n/a
17.1465	0.1195	34293	keystroke_Key.space	Key.space	n/a
18.136	0.06	36272	keystroke_f	f	n/a
18.2115	0.075	36423	keystroke_i	i	n/a
18.3465	0.105	36693	keystroke_x	x	n/a
18.3915	0.105	36783	keystroke_Key.space	Key.space	n/a
18.6015	0.135	37203	keystroke_j	j	n/a
18.8415	0.075	37683	keystroke_u	u	n/a
19.1715	0.075	38343	keystroke_o	o	n/a
19.4115	0.0595	38823	keystroke_Key.space	Key.space	n/a
19.906	0.045	39812	keystroke_Key.backspace	Key.backspace	n/a
19.966	0.045	39932	keystroke_Key.backspace	Key.backspace	n/a
20.086	0.09	40172	keystroke_Key.backspace	Key.backspace	n/a
20.251	0.075	40502	keystroke_Key.backspace	Key.backspace	n/a
20.536	0.015	41072	keystroke_Key.backspace	Key.backspace	n/a
20.671	0.09	41342	keystroke_Key.backspace	Key.backspace	n/a
21.346	0.06	42692	keystroke_Key.backspace	Key.backspace	n/a
21.662	0.045	43324	keystroke_o	o	n/a
21.797	0.075	43594	keystroke_x	x	n/a
21.842	0.12	43684	keystroke_Key.space	Key.space	n/a
22.022	0.075	44044	keystroke_j	j	n/a
22.187	0.075	44374	keystroke_u	u	n/a
22.337	0.105	44674	keystroke_m	m	n/a
22.502	0.045	45004	keystroke_o	o	n/a
22.592	0.09	45184	keystroke_s	s	n/a
22.652	0.09	45304	keystroke_Key.space	Key.space	n/a
23.4465	0.06	46893	keystroke_Key.backspace	Key.backspace	n/a
23.6115	0.0755	47223	keystroke_Key.backspace	Key.backspace	n/a
23.761	0.075	47522	keystroke_Key.backspace	Key.backspace	n/a
24.4065	0.0755	48813	keystroke_p	p	n/a
24.512	0.105	49024	keystroke_s	s	n/a
24.602	0.06	49204	keystroke_Key.space	Key.space	n/a
24.752	0.105	49504	keystroke_o	o	n/a
25.0065	0.09	50013	keystroke_v	v	n/a
25.0815	0.075	50163	keystroke_e	e	n/a
25.2615	0.075	50523	keystroke_r	r	n/a
25.3515	0.09	50703	keystroke_Key.space	Key.space	n/a
25.4565	0.075	50913	keystroke_a	a	n/a
25.5465	0.075	51093	keystroke_Key.space	Key.space	n/a
25.7115	0.045	51423	keystroke_l	l	n/a
25.7865	0.09	51573	keystroke_a	a	n/a
26.0115	0.09	52023	keystroke_z	z	n/a
26.1015	0.06	52203	keystroke_y	y	n/a
26.2215	0.1055	52443	keystroke_Key.space	Key.space	n/a
26.312	0.075	52624	keystroke_d	d	n/a
26.432	0.089	52864	keystroke_o	o	n/a
26.566	0.016	53132	keystroke_g	g	n/a
27.031	0.06	54062	keystroke_Key.enter	Key.enter	n/a
27.1055	5.2525	54211	prompt	n/a	alleged cost green quotations\n
27.901	0.075	55802	keystroke_a	a	n/a
28.036	0.06	56072	keystroke_l	l	n/a
28.186	0.06	56372	keystroke_l	l	n/a
28.3065	0.105	56613	keystroke_e	e	n/a
28.5165	0.06	57033	keystroke_g	g	n/a
28.6065	0.075	57213	keystroke_e	e	n/a
28.7865	0.09	57573	keystroke_d	d	n/a
28.8915	0.0895	57783	keystroke_Key.space	Key.space	n/a
29.041	0.09	58082	keystroke_c	c	n/a
29.116	0.0755	58232	keystroke_o	o	n/a
29.2365	0.09	58473	keystroke_s	s	n/a
29.4465	0.075	58893	keystroke_t	t	n/a
29.566	0.075	59132	keystroke_Key.space	Key.space	n/a
29.747	0.075	59494	keystroke_g	g	n/a
29.881	0.09	59762	keystroke_r	r	n/a
30.076	0.045	60152	keystroke_e	e	n/a
30.181	0.09	60362	keystroke_e	e	n/a
30.272	0.104	60544	keystroke_n	n	n/a
30.331	0.136	60662	keystroke_Key.space	Key.space	n/a
30.557	0.105	61114	keystroke_q	q	n/a
30.737	0.075	61474	keystroke_u	u	n/a
30.947	0.06	61894	keystroke_o	o	n/a
31.262	0.075	62524	keystroke_t	t	n/a
31.382	0.09	62764	keystroke_a	a	n/a
31.652	0.075	63304	keystroke_t	t	n/a
31.787	0.1045	63574	keystroke_i	i	n/a
31.9365	0.18	63873	keystroke_o	o	n/a
31.9515	0.195	63903	keystroke_n	n	n/a
32.1015	0.09	64203	keystroke_s	s	n/a
32.2665	0.09	64533	keystroke_Key.enter	Key.enter	n/a
32.3615	13.4435	64723	prompt	n/a	agrees collect contamination moving\n
33.0765	0.105	66153	keystroke_a	a	n/a
33.406	0.105	66812	keystroke_g	g	n/a
33.526	0.09	67052	keystroke_r	r	n/a
33.721	0.061	67442	keystroke_e	e	n/a
33.886	0.09	67772	keystroke_e	e	n/a
34.111	0.091	68222	keystroke_s	s	n/a
34.216	0.1055	68432	keystroke_Key.space	Key.space	n/a
34.3815	0.0905	68763	keystroke_c	c	n/a
34.487	0.075	68974	keystroke_o	o	n/a
34.667	0.075	69334	keystroke_l	l	n/a
34.847	0.045	69694	keystroke_l	l	n/a
34.862	0.075	69724	keystroke_e	e	n/a
35.072	0.09	70144	keystroke_c	c	n/a
35.177	0.09	70354	keystroke_t	t	n/a
35.297	0.12	70594	keystroke_Key.space	Key.space	n/a
35.792	0.09	71584	keystroke_c	c	n/a
35.912	0.1195	71824	keystroke_o	o	n/a
35.9715	0.15	71943	keystroke_n	n	n/a
36.2865	0.09	72573	keystroke_t	t	n/a
36.9465	0.09	73893	keystroke_m	m	n/a
37.1715	0.1345	74343	keystroke_i	i	n/a
37.2315	0.1645	74463	keystroke_n	n	n/a
37.381	0.12	74762	keystroke_a	a	n/a
37.6665	0.075	75333	keystroke_t	t	n/a
37.7715	0.09	75543	keystroke_i	i	n/a
37.9215	0.135	75843	keystroke_o	o	n/a
38.0115	0.105	76023	keystroke_n	n	n/a
38.1915	0.105	76383	keystroke_Key.space	Key.space	n/a
38.4015	0.1505	76803	keystroke_m	m	n/a
38.4765	0.1355	76953	keystroke_o	o	n/a
38.627	0.1045	77254	keystroke_v	v	n/a
38.7165	0.165	77433	keystroke_i	i	n/a
38.7915	0.15	77583	keystroke_n	n	n/a
38.8825	0.074	77765	keystroke_g	g	n/a
41.0715	0.045	82143	keystroke_Key.backspace	Key.backspace	n/a
41.7765	0.0755	83553	keystroke_t	t	n/a
41.942	0.09	83884	keystroke_a	a	n/a
42.047	0.075	84094	keystroke_m	m	n/a
42.257	0.075	84514	keystroke_i	i	n/a
42.272	0.075	84544	keystroke_u	u	n/a
42.317	0.12	84634	keystroke_n	n	n/a
42.422	0.06	84844	keystroke_a	a	n/a
42.872	0.06	85744	keystroke_Key.backspace	Key.backspace	n/a
43.037	0.075	86074	keystroke_Key.backspace	Key.backspace	n/a
43.427	0.06	86854	keystroke_Key.backspace	Key.backspace	n/a
43.997	0.075	87994	keystroke_n	n	n/a
44.146	0.09	88292	keystroke_a	a	n/a
44.431	0.06	88862	keystroke_t	t	n/a
44.506	0.045	89012	keystroke_i	i	n/a
44.641	0.135	89282	keystroke_o	o	n/a
44.717	0.104	89434	keystroke_n	n	n/a
44.881	0.075	89762	keystroke_Key.space	Key.space	n/a
45.061	0.15	90122	keystroke_m	m	n/a
45.152	0.119	90304	keystroke_o	o	n/a
45.287	0.09	90574	keystroke_v	v	n/a
45.391	0.136	90782	keystroke_i	i	n/a
45.437	0.149	90874	keystroke_n	n	n/a
45.541	0.075	91082	keystroke_g	g	n/a
45.691	0.105	91382	keystroke_Key.enter	Key.enter	n/a
45.8095	20.876	91619	prompt	n/a	surround cooperative chocolate handbook\n
46.622	0.09	93244	keystroke_s	s	n/a
46.772	0.075	93544	keystroke_o	o	n/a
47.087	0.075	94174	keystroke_r	r	n/a
47.267	0.105	94534	keystroke_r	r	n/a
47.357	0.06	94714	keystroke_o	o	n/a
47.492	0.15	94984	keystroke_u	u	n/a
47.597	0.135	95194	keystroke_n	n	n/a
47.672	0.09	95344	keystroke_d	d	n/a
47.792	0.12	95584	keystroke_Key.space	Key.space	n/a
47.972	0.09	95944	keystroke_c	c	n/a
48.107	0.06	96214	keystroke_o	o	n/a
48.257	0.09	96514	keystroke_o	o	n/a
50.957	0.075	101914	keystroke_o	o	n/a
51.152	0.1195	102304	keystroke_u	u	n/a
51.1965	0.165	102393	keystroke_n	n	n/a
51.347	0.06	102694	keystroke_d	d	n/a
51.422	0.1045	102844	keystroke_Key.space	Key.space	n/a
51.586	0.075	103172	keystroke_c	c	n/a
51.722	0.044	103444	keystroke_o	o	n/a
51.856	0.075	103712	keystroke_o	o	n/a
52.067	0.074	104134	keystroke_p	p	n/a
52.231	0.076	104462	keystroke_o	o	n/a
52.367	0.09	104734	keystroke_r	r	n/a
52.921	0.06	105842	keystroke_Key.backspace	Key.backspace	n/a
53.026	0.06	106052	keystroke_e	e	n/a
53.191	0.075	106382	keystroke_r	r	n/a
53.3865	0.0745	106773	keystroke_a	a	n/a
53.641	0.046	107282	keystroke_t	t	n/a
53.702	0.075	107404	keystroke_i	i	n/a
53.972	0.075	107944	keystroke_v	v	n/a
54.092	0.09	108184	keystroke_e	e	n/a
54.242	0.0745	108484	keystroke_Key.space	Key.space	n/a
60.5115	0.09	121023	keystroke_Key.backspace	Key.backspace	n/a
60.7215	0.06	121443	keystroke_e	e	n/a
60.8865	0.075	121773	keystroke_r	r	n/a
61.1115	0.075	122223	keystroke_a	a	n/a
61.3515	0.06	122703	keystroke_t	t	n/a
61.4265	0.075	122853	keystroke_i	i	n/a
61.6515	0.075	123303	keystroke_v	v	n/a
61.7715	0.075	123543	keystroke_e	e	n/a
61.877	0.105	123754	keystroke_Key.space	Key.space	n/a
62.297	0.075	124594	keystroke_c	c	n/a
62.417	0.075	124834	keystroke_h	h	n/a
62.627	0.06	125254	keystroke_o	o	n/a
62.777	0.06	125554	keystroke_c	c	n/a
62.837	0.075	125674	keystroke_o	o	n/a
63.017	0.09	126034	keystroke_l	l	n/a
63.362	0.045	126724	keystroke_Key.backspace	Key.backspace	n/a
63.512	0.045	127024	keystroke_Key.backspace	Key.backspace	n/a
64.127	0.09	128254	keystroke_o	o	n/a
64.277	0.105	128554	keystroke_l	l	n/a
64.442	0.0895	128884	keystroke_a	a	n/a
64.5615	0.09	129123	keystroke_t	t	n/a
64.7415	0.075	129483	keystroke_e	e	n/a
64.7865	0.15	129573	keystroke_Key.space	Key.space	n/a
65.3715	0.075	130743	keystroke_h	h	n/a
65.4915	0.075	130983	keystroke_a	a	n/a
65.5965	0.075	131193	keystroke_n	n	n/a
65.7165	0.075	131433	keystroke_d	d	n/a
65.8065	0.09	131613	keystroke_b	b	n/a
66.1065	0.045	132213	keystroke_o	o	n/a
66.2415	0.1045	132483	keystroke_o	o	n/a
66.406	0.12	132812	keystroke_k	k	n/a
66.601	0.075	133202	keystroke_Key.enter	Key.enter	n/a
66.6895	5.7485	133379	prompt	n/a	acceptance leaf shopzilla shade\n
67.3365	0.0755	134673	keystroke_a	a	n/a
67.607	0.075	135214	keystroke_c	c	n/a
67.7415	0.09	135483	keystroke_c	c	n/a
67.952	0.0745	135904	keystroke_e	e	n/a
68.042	0.075	136084	keystroke_p	p	n/a
68.1915	0.06	136383	keystroke_t	t	n/a
68.402	0.0745	136804	keystroke_a	a	n/a
68.552	0.075	137104	keystroke_n	n	n/a
68.672	0.045	137344	keystroke_c	c	n/a
68.822	0.075	137644	keystroke_e	e	n/a
68.942	0.075	137884	keystroke_Key.space	Key.space	n/a
69.107	0.075	138214	keystroke_l	l	n/a
69.242	0.09	138484	keystroke_e	e	n/a
69.497	0.075	138994	keystroke_a	a	n/a
69.782	0.075	139564	keystroke_f	f	n/a
69.932	0.12	139864	keystroke_Key.space	Key.space	n/a
70.127	0.105	140254	keystroke_s	s	n/a
70.5465	0.105	141093	keystroke_h	h	n/a
70.9515	0.09	141903	keystroke_o	o	n/a
71.1465	0.075	142293	keystroke_p	p	n/a
71.3565	0.09	142713	keystroke_z	z	n/a
71.4915	0.075	142983	keystroke_i	i	n/a
71.6715	0.075	143343	keystroke_l	l	n/a
71.8365	0.075	143673	keystroke_l	l	n/a
72.0165	0.09	144033	keystroke_a	a	n/a
72.377	0.06	144754	keystroke_Key.enter	Key.enter	n/a
72.4415	10.64	144883	prompt	n/a	photograph jake ratios wordpress\n
73.6965	0.12	147393	keystroke_p	p	n/a
73.8915	0.075	147783	keystroke_h	h	n/a
73.9815	0.105	147963	keystroke_o	o	n/a
74.1015	0.0605	148203	keystroke_t	t	n/a
74.492	0.105	148984	keystroke_g	g	n/a
74.627	0.09	149254	keystroke_r	r	n/a
74.867	0.075	149734	keystroke_a	a	n/a
75.017	0.03	150034	keystroke_p	p	n/a
75.527	0.12	151054	keystroke_h	h	n/a
75.677	0.135	151354	keystroke_Key.space	Key.space	n/a
75.917	0.12	151834	keystroke_j	j	n/a
76.322	0.06	152644	keystroke_Key.backspace	Key.backspace	n/a
76.472	0.06	152944	keystroke_Key.backspace	Key.backspace	n/a
76.622	0.105	153244	keystroke_Key.backspace	Key.backspace	n/a
77.0265	0.06	154053	keystroke_Key.backspace	Key.backspace	n/a
77.1765	0.0605	154353	keystroke_Key.backspace	Key.backspace	n/a
77.312	0.105	154624	keystroke_Key.backspace	Key.backspace	n/a
77.687	0.075	155374	keystroke_Key.backspace	Key.backspace	n/a
78.182	0.06	156364	keystroke_o	o	n/a
78.437	0.09	156874	keystroke_g	g	n/a
78.542	0.09	157084	keystroke_r	r	n/a
78.782	0.075	157564	keystroke_a	a	n/a
78.872	0.075	157744	keystroke_p	p	n/a
79.0965	0.18	158193	keystroke_h	h	n/a
79.2775	0.119	158555	keystroke_Key.space	Key.space	n/a
79.4415	0.12	158883	keystroke_j	j	n/a
79.5765	0.105	159153	keystroke_a	a	n/a
80.2215	0.09	160443	keystroke_k	k	n/a
80.3415	0.105	160683	keystroke_e	e	n/a
80.4315	0.09	160863	keystroke_Key.space	Key.space	n/a
80.5815	0.09	161163	keystroke_r	r	n/a
80.8065	0.09	161613	keystroke_a	a	n/a
81.0615	0.06	162123	keystroke_t	t	n/a
81.1515	0.075	162303	keystroke_i	i	n/a
81.3165	0.09	162633	keystroke_o	o	n/a
81.4215	0.06	162843	keystroke_s	s	n/a
81.5115	0.12	163023	keystroke_Key.space	Key.space	n/a
81.6765	0.105	163353	keystroke_w	w	n/a
81.8415	0.075	163683	keystroke_o	o	n/a
81.9615	0.075	163923	keystroke_r	r	n/a
82.1265	0.12	164253	keystroke_d	d	n/a
82.2015	0.105	164403	keystroke_p	p	n/a
82.3515	0.105	164703	keystroke_r	r	n/a
82.5165	0.105	165033	keystroke_e	e	n/a
82.7115	0.09	165423	keystroke_s	s	n/a
82.8765	0.135	165753	keystroke_s	s	n/a
82.9965	0.075	165993	keystroke_Key.enter	Key.enter	n/a
83.086	8.0875	166172	prompt	n/a	afford buyers causes numerous\n
83.6415	0.105	167283	keystroke_a	a	n/a
83.9415	0.045	167883	keystroke_f	f	n/a
84.0915	0.09	168183	keystroke_f	f	n/a
84.752	0.09	169504	keystroke_o	o	n/a
84.857	0.0895	169714	keystroke_r	r	n/a
85.0215	0.105	170043	keystroke_d	d	n/a
85.0665	0.135	170133	keystroke_Key.space	Key.space	n/a
85.3965	0.195	170793	keystroke_b	b	n/a
85.5165	0.135	171033	keystroke_u	u	n/a
85.7415	0.09	171483	keystroke_y	y	n/a
85.8465	0.06	171693	keystroke_e	e	n/a
85.9965	0.105	171993	keystroke_r	r	n/a
86.2215	0.09	172443	keystroke_s	s	n/a
86.3265	0.12	172653	keystroke_Key.space	Key.space	n/a
86.5665	0.0905	173133	keystroke_c	c	n/a
86.792	0.075	173584	keystroke_a	a	n/a
86.897	0.06	173794	keystroke_y	y	n/a
86.912	0.03	173824	keystroke_u	u	n/a
87.002	0.09	174004	keystroke_s	s	n/a
87.182	0.075	174364	keystroke_e	e	n/a
87.827	0.06	175654	keystroke_Key.backspace	Key.backspace	n/a
87.977	0.06	175954	keystroke_Key.backspace	Key.backspace	n/a
88.142	0.09	176284	keystroke_Key.backspace	Key.backspace	n/a
88.352	0.06	176704	keystroke_Key.backspace	Key.backspace	n/a
88.967	0.075	177934	keystroke_u	u	n/a
89.057	0.105	178114	keystroke_s	s	n/a
89.237	0.09	178474	keystroke_e	e	n/a
89.417	0.105	178834	keystroke_s	s	n/a
89.552	0.09	179104	keystroke_Key.space	Key.space	n/a
89.882	0.105	179764	keystroke_n	n	n/a
90.062	0.09	180124	keystroke_u	u	n/a
90.211	0.106	180422	keystroke_m	m	n/a
90.332	0.075	180664	keystroke_e	e	n/a
90.512	0.09	181024	keystroke_r	r	n/a
90.617	0.09	181234	keystroke_o	o	n/a
90.812	0.075	181624	keystroke_u	u	n/a
90.932	0.09	181864	keystroke_s	s	n/a
91.082	0.09	182164	keystroke_Key.enter	Key.enter	n/a
91.1775	13.819	182355	prompt	n/a	compression addressing butterfly assist\n
91.982	0.09	183964	keystroke_c	c	n/a
92.072	0.21	184144	keystroke_o	o	n/a
92.147	0.225	184294	keystroke_m	m	n/a
92.387	0.12	184774	keystroke_p	p	n/a
92.537	0.12	185074	keystroke_r	r	n/a
92.731	0.091	185462	keystroke_e	e	n/a
92.927	0.09	185854	keystroke_s	s	n/a
93.077	0.105	186154	keystroke_s	s	n/a
93.227	0.075	186454	keystroke_i	i	n/a
93.361	0.151	186722	keystroke_o	o	n/a
93.436	0.136	186872	keystroke_n	n	n/a
93.631	0.135	187262	keystroke_Key.space	Key.space	n/a
93.751	0.091	187502	keystroke_a	a	n/a
93.977	0.075	187954	keystroke_d	d	n/a
94.142	0.09	188284	keystroke_r	r	n/a
94.306	0.09	188612	keystroke_e	e	n/a
94.5165	0.06	189033	keystroke_s	s	n/a
94.6215	0.12	189243	keystroke_s	s	n/a
94.7865	0.15	189573	keystroke_i	i	n/a
94.8915	0.135	189783	keystroke_n	n	n/a
95.0415	0.075	190083	keystroke_g	g	n/a
95.1465	0.1055	190293	keystroke_Key.space	Key.space	n/a
95.342	0.18	190684	keystroke_b	b	n/a
95.462	0.165	190924	keystroke_u	u	n/a
98.567	0.075	197134	keystroke_Key.backspace	Key.backspace	n/a
98.732	0.075	197464	keystroke_Key.backspace	Key.backspace	n/a
98.882	0.075	197764	keystroke_Key.backspace	Key.backspace	n/a
99.272	0.09	198544	keystroke_Key.backspace	Key.backspace	n/a
99.557	0.075	199114	keystroke_d	d	n/a
99.737	0.075	199474	keystroke_r	r	n/a
99.887	0.12	199774	keystroke_e	e	n/a
100.1115	0.06	200223	keystroke_s	s	n/a
100.2615	0.09	200523	keystroke_s	s	n/a
100.427	0.135	200854	keystroke_i	i	n/a
100.4865	0.1205	200973	keystroke_n	n	n/a
100.592	0.075	201184	keystroke_g	g	n/a
100.712	0.09	201424	keystroke_Key.space	Key.space	n/a
100.8915	0.18	201783	keystroke_b	b	n/a
100.9965	0.15	201993	keystroke_u	u	n/a
101.5065	0.045	203013	keystroke_t	t	n/a
101.6265	0.105	203253	keystroke_t	t	n/a
101.7615	0.075	203523	keystroke_e	e	n/a
101.9565	0.09	203913	keystroke_r	r	n/a
102.1515	0.075	204303	keystroke_f	f	n/a
102.3015	0.09	204603	keystroke_l	l	n/a
102.4215	0.06	204843	keystroke_y	y	n/a
102.5415	0.12	205083	keystroke_Key.space	Key.space	n/a
102.9465	0.135	205893	keystroke_a	a	n/a
103.6815	0.075	207363	keystroke_s	s	n/a
103.8465	0.105	207693	keystroke_s	s	n/a
103.9365	0.09	207873	keystroke_i	i	n/a
104.1465	0.06	208293	keystroke_t	t	n/a
104.3565	0.075	208713	keystroke_s	s	n/a
104.9265	0.06	209853	keystroke_Key.enter	Key.enter	n/a
105.0085	9.415	210017	prompt	n/a	keeping locator commander address\n
105.8265	0.09	211653	keystroke_k	k	n/a
105.9315	0.06	211863	keystroke_e	e	n/a
106.0665	0.12	212133	keystroke_e	e	n/a
106.2315	0.075	212463	keystroke_p	p	n/a
106.4415	0.12	212883	keystroke_i	i	n/a
106.5015	0.1355	213003	keystroke_n	n	n/a
106.5765	0.105	213153	keystroke_g	g	n/a
106.742	0.1045	213484	keystroke_Key.space	Key.space	n/a
107.0265	0.015	214053	keystroke_l	l	n/a
107.1315	0.075	214263	keystroke_o	o	n/a
107.1465	0.105	214293	keystroke_c	c	n/a
107.402	0.09	214804	keystroke_a	a	n/a
108.1065	0.075	216213	keystroke_t	t	n/a
108.2865	0.105	216573	keystroke_o	o	n/a
108.4365	0.075	216873	keystroke_r	r	n/a
108.556	0.12	217112	keystroke_Key.space	Key.space	n/a
108.811	0.135	217622	keystroke_c	c	n/a
108.931	0.06	217862	keystroke_o	o	n/a
109.156	0.046	218312	keystroke_m	m	n/a
109.261	0.105	218522	keystroke_m	m	n/a
109.426	0.09	218852	keystroke_a	a	n/a
109.501	0.091	219002	keystroke_n	n	n/a
109.651	0.09	219302	keystroke_d	d	n/a
109.831	0.045	219662	keystroke_w	w	n/a
109.846	0.045	219692	keystroke_e	e	n/a
109.996	0.075	219992	keystroke_r	r	n/a
110.086	0.105	220172	keystroke_Key.space	Key.space	n/a
110.461	0.09	220922	keystroke_a	a	n/a
110.611	0.09	221222	keystroke_d	d	n/a
111.061	0.045	222122	keystroke_Key.backspace	Key.backspace	n/a
111.196	0.075	222392	keystroke_Key.backspace	Key.backspace	n/a
111.361	0.03	222722	keystroke_Key.backspace	Key.backspace	n/a
111.4665	0.0445	222933	keystroke_Key.backspace	Key.backspace	n/a
111.586	0.1055	223172	keystroke_Key.backspace	Key.backspace	n/a
111.8415	0.09	223683	keystroke_Key.backspace	Key.backspace	n/a
112.0665	0.09	224133	keystroke_e	e	n/a
112.2615	0.06	224523	keystroke_r	r	n/a
112.3515	0.12	224703	keystroke_Key.space	Key.space	n/a
112.5015	0.075	225003	keystroke_a	a	n/a
112.9965	0.09	225993	keystroke_d	d	n/a
113.3115	0.12	226623	keystroke_d	d	n/a
113.5665	0.0905	227133	keystroke_r	r	n/a
113.7765	0.075	227553	keystroke_e	e	n/a
113.9715	0.06	227943	keystroke_s	s	n/a
114.1215	0.12	228243	keystroke_s	s	n/a
114.3165	0.105	228633	keystroke_Key.enter	Key.enter	n/a
114.426	7.437	228852	prompt	n/a	welding lighter plastic radiation\n
115.1715	0.09	230343	keystroke_w	w	n/a
115.3515	0.09	230703	keystroke_e	e	n/a
115.4565	0.09	230913	keystroke_l	l	n/a
115.5765	0.105	231153	keystroke_d	d	n/a
115.6965	0.135	231393	keystroke_i	i	n/a
115.7715	0.135	231543	keystroke_n	n	n/a
115.8765	0.09	231753	keystroke_g	g	n/a
115.9965	0.09	231993	keystroke_Key.space	Key.space	n/a
116.1465	0.105	232293	keystroke_l	l	n/a
116.3565	0.075	232713	keystroke_i	i	n/a
116.4765	0.075	232953	keystroke_g	g	n/a
116.5965	0.135	233193	keystroke_h	h	n/a
116.7015	0.06	233403	keystroke_t	t	n/a
116.9265	0.12	233853	keystroke_Key.space	Key.space	n/a
117.2865	0.09	234573	keystroke_Key.backspace	Key.backspace	n/a
117.4365	0.075	234873	keystroke_e	e	n/a
117.6015	0.105	235203	keystroke_r	r	n/a
117.6765	0.09	235353	keystroke_Key.space	Key.space	n/a
117.9015	0.165	235803	keystroke_p	p	n/a
118.0215	0.135	236043	keystroke_l	l	n/a
118.1865	0.06	236373	keystroke_a	a	n/a
118.3815	0.09	236763	keystroke_s	s	n/a
118.6215	0.06	237243	keystroke_t	t	n/a
118.7415	0.09	237483	keystroke_i	i	n/a
118.8765	0.09	237753	keystroke_c	c	n/a
118.9515	0.135	237903	keystroke_Key.space	Key.space	n/a
119.2215	0.09	238443	keystroke_r	r	n/a
119.4915	0.06	238983	keystroke_a	a	n/a
119.6865	0.075	239373	keystroke_d	d	n/a
119.7765	0.09	239553	keystroke_i	i	n/a
119.9415	0.06	239883	keystroke_a	a	n/a
120.2715	0.045	240543	keystroke_t	t	n/a
120.3315	0.06	240663	keystroke_i	i	n/a
120.572	0.15	241144	keystroke_n	n	n/a
121.052	0.09	242104	keystroke_Key.backspace	Key.backspace	n/a
121.3965	0.18	242793	keystroke_o	o	n/a
121.5165	0.15	243033	keystroke_n	n	n/a
121.7715	0.09	243543	keystroke_Key.enter	Key.enter	n/a
121.8655	9.3875	243731	prompt	n/a	small uzbekistan intensive inbox\n
122.7615	0.09	245523	keystroke_s	s	n/a
122.8965	0.075	245793	keystroke_m	m	n/a
123.0465	0.075	246093	keystroke_a	a	n/a
123.1965	0.045	246393	keystroke_l	l	n/a
123.3465	0.09	246693	keystroke_l	l	n/a
123.4965	0.12	246993	keystroke_Key.space	Key.space	n/a
124.0665	0.075	248133	keystroke_u	u	n/a
124.3815	0.0905	248763	keystroke_z	z	n/a
124.532	0.09	249064	keystroke_b	b	n/a
124.742	0.06	249484	keystroke_e	e	n/a
126.1215	0.075	252243	keystroke_k	k	n/a
126.2865	0.075	252573	keystroke_i	i	n/a
126.3765	0.06	252753	keystroke_s	s	n/a
126.6165	0.075	253233	keystroke_t	t	n/a
126.9015	0.06	253803	keystroke_a	a	n/a
126.9765	0.135	253953	keystroke_n	n	n/a
127.0815	0.105	254163	keystroke_Key.space	Key.space	n/a
127.2765	0.12	254553	keystroke_i	i	n/a
127.3665	0.105	254733	keystroke_n	n	n/a
127.501	0.076	255002	keystroke_t	t	n/a
127.697	0.09	255394	keystroke_e	e	n/a
127.832	0.09	255664	keystroke_n	n	n/a
127.982	0.075	255964	keystroke_s	s	n/a
128.147	0.074	256294	keystroke_i	i	n/a
128.387	0.09	256774	keystroke_v	v	n/a
128.522	0.075	257044	keystroke_e	e	n/a
128.6415	0.105	257283	keystroke_Key.space	Key.space	n/a
129.0315	0.15	258063	keystroke_i	i	n/a
129.1065	0.15	258213	keystroke_n	n	n/a
130.0365	0.045	260073	keystroke_v	v	n/a
130.0965	0.045	260193	keystroke_o	o	n/a
130.2165	0.09	260433	keystroke_x	x	n/a
131.177	0.075	262354	keystroke_Key.enter	Key.enter	n/a
131.2565	8.907	262513	prompt	n/a	denied reaction turtle bodies\n
131.987	0.09	263974	keystroke_d	d	n/a
132.167	0.09	264334	keystroke_e	e	n/a
132.227	0.135	264454	keystroke_n	n	n/a
132.317	0.15	264634	keystroke_i	i	n/a
132.497	0.09	264994	keystroke_e	e	n/a
132.662	0.105	265324	keystroke_d	d	n/a
132.782	0.105	265564	keystroke_Key.space	Key.space	n/a
132.932	0.09	265864	keystroke_r	r	n/a
133.097	0.105	266194	keystroke_e	e	n/a
133.322	0.075	266644	keystroke_a	a	n/a
133.5615	0.06	267123	keystroke_c	c	n/a
133.7565	0.06	267513	keystroke_t	t	n/a
133.8615	0.09	267723	keystroke_i	i	n/a
134.0265	0.15	268053	keystroke_o	o	n/a
134.102	0.1645	268204	keystroke_n	n	n/a
134.3565	0.135	268713	keystroke_Key.space	Key.space	n/a
134.7315	0.09	269463	keystroke_t	t	n/a
134.8365	0.075	269673	keystroke_u	u	n/a
134.9415	0.09	269883	keystroke_r	r	n/a
135.1365	0.09	270273	keystroke_t	t	n/a
135.2715	0.09	270543	keystroke_l	l	n/a
135.3765	0.075	270753	keystroke_e	e	n/a
135.4815	0.09	270963	keystroke_Key.space	Key.space	n/a
135.6765	0.18	271353	keystroke_b	b	n/a
136.0215	0.105	272043	keystroke_i	i	n/a
136.6515	0.045	273303	keystroke_d	d	n/a
136.7115	0.06	273423	keystroke_u	u	n/a
137.5215	0.075	275043	keystroke_Key.backspace	Key.backspace	n/a
137.6865	0.075	275373	keystroke_Key.backspace	Key.backspace	n/a
137.8665	0.075	275733	keystroke_Key.backspace	Key.backspace	n/a
138.5715	0.09	277143	keystroke_o	o	n/a
138.6915	0.105	277383	keystroke_d	d	n/a
138.7975	0.089	277595	keystroke_i	i	n/a
138.9315	0.075	277863	keystroke_e	e	n/a
139.1115	0.09	278223	keystroke_s	s	n/a
139.2465	0.105	278493	keystroke_Key.space	Key.space	n/a
139.8765	0.225	279753	keystroke_Key.backspace	Key.backspace	n/a
140.1165	0.0455	280233	keystroke_Key.enter	Key.enter	n/a
140.166	10.084	280332	prompt	n/a	hybrid reception examples supplements\n
141.1815	0.06	282363	keystroke_h	h	n/a
141.3315	0.105	282663	keystroke_y	y	n/a
141.4665	0.105	282933	keystroke_b	b	n/a
141.7515	0.09	283503	keystroke_r	r	n/a
141.9015	0.075	283803	keystroke_i	i	n/a
142.2465	0.09	284493	keystroke_d	d	n/a
142.3665	0.09	284733	keystroke_Key.space	Key.space	n/a
142.7865	0.075	285573	keystroke_r	r	n/a
142.9365	0.09	285873	keystroke_e	e	n/a
143.1315	0.09	286263	keystroke_c	c	n/a
143.3265	0.0755	286653	keystroke_e	e	n/a
143.4165	0.06	286833	keystroke_p	p	n/a
143.5965	0.06	287193	keystroke_t	t	n/a
143.7015	0.09	287403	keystroke_i	i	n/a
143.8815	0.15	287763	keystroke_o	o	n/a
143.9415	0.12	287883	keystroke_n	n	n/a
144.1215	0.12	288243	keystroke_Key.space	Key.space	n/a
144.2865	0.075	288573	keystroke_e	e	n/a
144.4965	0.075	288993	keystroke_x	x	n/a
144.6765	0.075	289353	keystroke_a	a	n/a
144.7665	0.09	289533	keystroke_m	m	n/a
144.9615	0.105	289923	keystroke_p	p	n/a
145.0215	0.105	290043	keystroke_l	l	n/a
145.1565	0.09	290313	keystroke_e	e	n/a
145.3365	0.09	290673	keystroke_s	s	n/a
145.4275	0.104	290855	keystroke_Key.space	Key.space	n/a
145.5915	0.09	291183	keystroke_s	s	n/a
145.8015	0.075	291603	keystroke_u	u	n/a
146.0415	0.06	292083	keystroke_o	o	n/a
146.2065	0.075	292413	keystroke_p	p	n/a
147.1515	0.06	294303	keystroke_Key.backspace	Key.backspace	n/a
147.3165	0.06	294633	keystroke_Key.backspace	Key.backspace	n/a
147.4815	0.03	294963	keystroke_Key.backspace	Key.backspace	n/a
148.2015	0.09	296403	keystroke_u	u	n/a
148.5915	0.075	297183	keystroke_p	p	n/a
148.7565	0.09	297513	keystroke_p	p	n/a
148.9665	0.09	297933	keystroke_l	l	n/a
149.1615	0.075	298323	keystroke_e	e	n/a
149.2965	0.075	298593	keystroke_m	m	n/a
149.4015	0.075	298803	keystroke_e	e	n/a
149.5215	0.09	299043	keystroke_n	n	n/a
149.6265	0.075	299253	keystroke_t	t	n/a
149.837	0.0745	299674	keystroke_s	s	n/a
150.1515	0.09	300303	keystroke_Key.enter	Key.enter	n/a
150.254	11.906	300508	prompt	n/a	terrorism although retail economics\n
154.095	0.4975	308190	keystroke_Key.ctrl_l	Key.ctrl_l	n/a
155.584	0.028	311168	keystroke_t	t	n/a
155.672	0.12	311344	keystroke_e	e	n/a
155.927	0.105	311854	keystroke_r	r	n/a
156.107	0.105	312214	keystroke_r	r	n/a
156.257	0.135	312514	keystroke_o	o	n/a
156.467	0.0895	312934	keystroke_r	r	n/a
156.6465	0.075	313293	keystroke_i	i	n/a
156.8415	0.105	313683	keystroke_s	s	n/a
157.0515	0.165	314103	keystroke_m	m	n/a
157.1565	0.15	314313	keystroke_Key.space	Key.space	n/a
157.607	0.09	315214	keystroke_a	a	n/a
157.742	0.09	315484	keystroke_l	l	n/a
157.907	0.075	315814	keystroke_t	t	n/a
157.997	0.09	315994	keystroke_h	h	n/a
158.207	0.075	316414	keystroke_o	o	n/a
158.402	0.075	316804	keystroke_u	u	n/a
158.492	0.1045	316984	keystroke_g	g	n/a
158.5965	0.1655	317193	keystroke_h	h	n/a
158.7025	0.1495	317405	keystroke_Key.space	Key.space	n/a
158.987	0.06	317974	keystroke_r	r	n/a
159.1375	0.0745	318275	keystroke_e	e	n/a
159.3325	0.074	318665	keystroke_t	t	n/a
159.5725	0.075	319145	keystroke_a	a	n/a
159.6475	0.074	319295	keystroke_i	i	n/a
159.8875	0.015	319775	keystroke_l	l	n/a
160.0215	0.105	320043	keystroke_Key.space	Key.space	n/a
160.0665	0.12	320133	keystroke_e	e	n/a
160.2915	0.12	320583	keystroke_c	c	n/a
160.4265	0.1055	320853	keystroke_o	o	n/a
160.577	0.135	321154	keystroke_n	n	n/a
160.727	0.12	321454	keystroke_o	o	n/a
161.3715	0.135	322743	keystroke_m	m	n/a
161.5515	0.091	323103	keystroke_i	i	n/a
161.7475	0.105	323495	keystroke_c	c	n/a
161.9725	0.059	323945	keystroke_s	s	n/a
162.0775	0.075	324155	keystroke_Key.enter	Key.enter	n/a
162.164	9.9795	324328	prompt	n/a	acknowledged cheats silver resumes\n
162.8115	0.075	325623	keystroke_a	a	n/a
163.0825	0.074	326165	keystroke_c	c	n/a
163.2625	0.09	326525	keystroke_k	k	n/a
163.4425	0.12	326885	keystroke_n	n	n/a
164.8965	0.045	329793	keystroke_o	o	n/a
164.9715	0.105	329943	keystroke_w	w	n/a
165.1515	0.075	330303	keystroke_l	l	n/a
165.3015	0.075	330603	keystroke_e	e	n/a
165.4665	0.09	330933	keystroke_d	d	n/a
165.5865	0.075	331173	keystroke_g	g	n/a
165.7065	0.06	331413	keystroke_e	e	n/a
165.8115	0.12	331623	keystroke_Key.space	Key.space	n/a
167.612	0.075	335224	keystroke_Key.backspace	Key.backspace	n/a
167.897	0.06	335794	keystroke_d	d	n/a
168.152	0.0895	336304	keystroke_Key.space	Key.space	n/a
168.542	0.09	337084	keystroke_c	c	n/a
168.647	0.09	337294	keystroke_h	h	n/a
168.767	0.06	337534	keystroke_e	e	n/a
168.962	0.075	337924	keystroke_a	a	n/a
169.052	0.09	338104	keystroke_t	t	n/a
169.172	0.06	338344	keystroke_s	s	n/a
169.247	0.105	338494	keystroke_Key.space	Key.space	n/a
169.8165	0.09	339633	keystroke_s	s	n/a
169.9075	0.09	339815	keystroke_i	i	n/a
170.0715	0.09	340143	keystroke_l	l	n/a
170.3265	0.075	340653	keystroke_v	v	n/a
170.417	0.09	340834	keystroke_e	e	n/a
170.597	0.09	341194	keystroke_r	r	n/a
170.672	0.09	341344	keystroke_Key.space	Key.space	n/a
170.852	0.075	341704	keystroke_r	r	n/a
171.032	0.075	342064	keystroke_e	e	n/a
171.212	0.075	342424	keystroke_s	s	n/a
171.362	0.165	342724	keystroke_u	u	n/a
171.542	0.135	343084	keystroke_m	m	n/a
171.767	0.105	343534	keystroke_e	e	n/a
171.947	0.09	343894	keystroke_s	s	n/a
172.052	0.09	344104	keystroke_Key.enter	Key.enter	n/a
172.1505	8.6325	344301	prompt	n/a	y'all suggesting richmond frozen\n
172.997	0.075	345994	keystroke_y	y	n/a
173.6715	0.075	347343	keystroke_'	'	n/a
173.8525	0.059	347705	keystroke_a	a	n/a
174.0015	0.03	348003	keystroke_l	l	n/a
174.1215	0.105	348243	keystroke_l	l	n/a
174.3165	0.1055	348633	keystroke_Key.space	Key.space	n/a
174.602	0.075	349204	keystroke_s	s	n/a
175.067	0.09	350134	keystroke_u	u	n/a
175.292	0.06	350584	keystroke_g	g	n/a
175.412	0.09	350824	keystroke_g	g	n/a
175.547	0.09	351094	keystroke_e	e	n/a
175.712	0.105	351424	keystroke_s	s	n/a
175.952	0.075	351904	keystroke_t	t	n/a
176.057	0.135	352114	keystroke_i	i	n/a
176.117	0.12	352234	keystroke_n	n	n/a
176.162	0.105	352324	keystroke_g	g	n/a
176.297	0.12	352594	keystroke_Key.space	Key.space	n/a
176.402	0.075	352804	keystroke_r	r	n/a
176.522	0.075	353044	keystroke_i	i	n/a
176.627	0.09	353254	keystroke_c	c	n/a
176.732	0.09	353464	keystroke_h	h	n/a
177.0615	0.09	354123	keystroke_m	m	n/a
177.272	0.15	354544	keystroke_o	o	n/a
177.347	0.15	354694	keystroke_n	n	n/a
177.482	0.06	354964	keystroke_d	d	n/a
177.587	0.135	355174	keystroke_Key.space	Key.space	n/a
177.872	0.03	355744	keystroke_j	j	n/a
178.562	0.015	357124	keystroke_Key.backspace	Key.backspace	n/a
178.682	0.09	357364	keystroke_Key.backspace	Key.backspace	n/a
179.4765	0.09	358953	keystroke_Key.space	Key.space	n/a
179.7315	0.06	359463	keystroke_f	f	n/a
179.8815	0.075	359763	keystroke_r	r	n/a
179.9715	0.09	359943	keystroke_o	o	n/a
180.1365	0.075	360273	keystroke_z	z	n/a
180.3315	0.075	360663	keystroke_e	e	n/a
180.422	0.1045	360844	keystroke_n	n	n/a
180.7215	0.06	361443	keystroke_Key.enter	Key.enter	n/a
180.7855	10.6245	361571	prompt	n/a	searched conclude blackjack earth\n
181.4415	0.0755	362883	keystroke_s	s	n/a
181.607	0.075	363214	keystroke_e	e	n/a
181.787	0.075	363574	keystroke_a	a	n/a
181.892	0.075	363784	keystroke_r	r	n/a
182.027	0.09	364054	keystroke_c	c	n/a
182.147	0.03	364294	keystroke_g	g	n/a
182.252	0.06	364504	keystroke_e	e	n/a
182.402	0.075	364804	keystroke_d	d	n/a
182.507	0.105	365014	keystroke_Key.space	Key.space	n/a
182.927	0.045	365854	keystroke_Key.backspace	Key.backspace	n/a
183.062	0.06	366124	keystroke_Key.backspace	Key.backspace	n/a
183.197	0.06	366394	keystroke_Key.backspace	Key.backspace	n/a
183.332	0.075	366664	keystroke_Key.backspace	Key.backspace	n/a
183.437	0.09	366874	keystroke_Key.backspace	Key.backspace	n/a
184.127	0.075	368254	keystroke_c	c	n/a
184.217	0.075	368434	keystroke_h	h	n/a
184.352	0.045	368704	keystroke_e	e	n/a
184.517	0.075	369034	keystroke_c	c	n/a
184.607	0.09	369214	keystroke_Key.space	Key.space	n/a
184.787	0.075	369574	keystroke_c	c	n/a
184.907	0.1495	369814	keystroke_o	o	n/a
184.9815	0.21	369963	keystroke_n	n	n/a
185.1765	0.045	370353	keystroke_c	c	n/a
185.2065	0.06	370413	keystroke_l	l	n/a
185.4465	0.0755	370893	keystroke_u	u	n/a
185.567	0.105	371134	keystroke_d	d	n/a
185.777	0.06	371554	keystroke_e	e	n/a
185.942	0.09	371884	keystroke_d	d	n/a
186.077	0.09	372154	keystroke_Key.space	Key.space	n/a
187.0215	0.09	374043	keystroke_b	b	n/a
187.1565	0.06	374313	keystroke_l	l	n/a
187.292	0.06	374584	keystroke_a	a	n/a
187.8315	0.06	375663	keystroke_c	c	n/a
187.9665	0.075	375933	keystroke_k	k	n/a
188.1765	0.076	376353	keystroke_j	j	n/a
188.3265	0.0905	376653	keystroke_a	a	n/a
188.5965	0.075	377193	keystroke_c	c	n/a
188.7015	0.105	377403	keystroke_k	k	n/a
188.8665	0.12	377733	keystroke_Key.space	Key.space	n/a
190.3515	0.045	380703	keystroke_e	e	n/a
190.5175	0.089	381035	keystroke_a	a	n/a
190.7715	0.06	381543	keystroke_r	r	n/a
190.9365	0.075	381873	keystroke_t	t	n/a
191.027	0.105	382054	keystroke_h	h	n/a
191.327	0.0745	382654	keystroke_Key.enter	Key.enter	n/a
191.417	7.171	382834	prompt	n/a	plastics lifetime online experts\n
192.287	0.12	384574	keystroke_p	p	n/a
192.347	0.12	384694	keystroke_l	l	n/a
192.467	0.105	384934	keystroke_a	a	n/a
192.707	0.03	385414	keystroke_s	s	n/a
193.9815	0.075	387963	keystroke_t	t	n/a
194.117	0.09	388234	keystroke_i	i	n/a
194.237	0.105	388474	keystroke_c	c	n/a
194.477	0.06	388954	keystroke_s	s	n/a
194.582	0.075	389164	keystroke_Key.space	Key.space	n/a
194.777	0.09	389554	keystroke_l	l	n/a
194.972	0.06	389944	keystroke_i	i	n/a
195.017	0.105	390034	keystroke_f	f	n/a
195.242	0.075	390484	keystroke_e	e	n/a
195.467	0.06	390934	keystroke_t	t	n/a
195.572	0.12	391144	keystroke_i	i	n/a
195.617	0.12	391234	keystroke_m	m	n/a
195.722	0.075	391444	keystroke_e	e	n/a
195.827	0.089	391654	keystroke_Key.space	Key.space	n/a
196.051	0.1055	392102	keystroke_o	o	n/a
196.3515	0.09	392703	keystroke_n	n	n/a
196.5465	0.12	393093	keystroke_l	l	n/a
196.7565	0.1655	393513	keystroke_i	i	n/a
196.832	0.165	393664	keystroke_n	n	n/a
196.982	0.09	393964	keystroke_e	e	n/a
197.117	0.135	394234	keystroke_Key.space	Key.space	n/a
197.387	0.075	394774	keystroke_e	e	n/a
197.5815	0.105	395163	keystroke_x	x	n/a
197.6725	0.059	395345	keystroke_o	o	n/a
197.7925	0.074	395585	keystroke_e	e	n/a
197.9725	0.089	395945	keystroke_r	r	n/a
198.1215	0.105	396243	keystroke_t	t	n/a
198.2415	0.076	396483	keystroke_s	s	n/a
198.512	0.075	397024	keystroke_Key.enter	Key.enter	n/a
198.5925	10.0375	397185	prompt	n/a	updating nutritional jesse bras\n
199.7575	0.09	399515	keystroke_u	u	n/a
199.9675	0.06	399935	keystroke_p	p	n/a
200.0725	0.089	400145	keystroke_d	d	n/a
200.2825	0.059	400565	keystroke_a	a	n/a
200.717	0.045	401434	keystroke_Key.backspace	Key.backspace	n/a
200.852	0.075	401704	keystroke_Key.backspace	Key.backspace	n/a
202.7425	0.075	405485	keystroke_d	d	n/a
202.952	0.075	405904	keystroke_a	a	n/a
203.192	0.0745	406384	keystroke_t	t	n/a
203.327	0.135	406654	keystroke_i	i	n/a
203.357	0.135	406714	keystroke_n	n	n/a
203.432	0.09	406864	keystroke_g	g	n/a
203.582	0.135	407164	keystroke_Key.space	Key.space	n/a
204.317	0.12	408634	keystroke_n	n	n/a
204.542	0.075	409084	keystroke_u	u	n/a
204.752	0.06	409504	keystroke_t	t	n/a
204.902	0.075	409804	keystroke_r	r	n/a
205.007	0.075	410014	keystroke_i	i	n/a
205.292	0.045	410584	keystroke_t	t	n/a
205.397	0.075	410794	keystroke_i	i	n/a
205.5765	0.12	411153	keystroke_o	o	n/a
205.6665	0.195	411333	keystroke_n	n	n/a
205.8015	0.105	411603	keystroke_a	a	n/a
205.8465	0.15	411693	keystroke_l	l	n/a
206.0265	0.105	412053	keystroke_Key.space	Key.space	n/a
206.2065	0.105	412413	keystroke_j	j	n/a
206.3265	0.09	412653	keystroke_e	e	n/a
206.5065	0.06	413013	keystroke_s	s	n/a
206.6415	0.12	413283	keystroke_s	s	n/a
206.9565	0.075	413913	keystroke_e	e	n/a
207.1065	0.12	414213	keystroke_Key.space	Key.space	n/a
207.4665	0.09	414933	keystroke_b	b	n/a
207.5715	0.09	415143	keystroke_r	r	n/a
207.7975	0.089	415595	keystroke_a	a	n/a
207.9915	0.075	415983	keystroke_s	s	n/a
208.577	0.045	417154	keystroke_Key.enter	Key.enter	n/a
208.6335	5.8095	417267	prompt	n/a	loading salem links flashing\n
209.402	0.06	418804	keystroke_l	l	n/a
209.552	0.105	419104	keystroke_o	o	n/a
209.642	0.06	419284	keystroke_a	a	n/a
209.837	0.105	419674	keystroke_d	d	n/a
209.987	0.12	419974	keystroke_i	i	n/a
210.032	0.135	420064	keystroke_n	n	n/a
210.137	0.09	420274	keystroke_g	g	n/a
210.242	0.135	420484	keystroke_Key.space	Key.space	n/a
210.407	0.0895	420814	keystroke_s	s	n/a
210.587	0.09	421174	keystroke_a	a	n/a
210.707	0.075	421414	keystroke_l	l	n/a
210.8265	0.09	421653	keystroke_e	e	n/a
210.9615	0.15	421923	keystroke_m	m	n/a
211.0665	0.135	422133	keystroke_Key.space	Key.space	n/a
211.2615	0.105	422523	keystroke_l	l	n/a
211.5165	0.09	423033	keystroke_i	i	n/a
211.6215	0.225	423243	keystroke_n	n	n/a
211.7265	0.18	423453	keystroke_k	k	n/a
211.9365	0.105	423873	keystroke_s	s	n/a
213.0165	0.105	426033	keystroke_Key.space	Key.space	n/a
213.2265	0.09	426453	keystroke_f	f	n/a
213.3315	0.075	426663	keystroke_l	l	n/a
213.4675	0.089	426935	keystroke_a	a	n/a
213.6475	0.09	427295	keystroke_s	s	n/a
213.7515	0.061	427503	keystroke_h	h	n/a
213.9315	0.15	427863	keystroke_i	i	n/a
214.0225	0.149	428045	keystroke_n	n	n/a
214.1265	0.105	428253	keystroke_g	g	n/a
214.3665	0.0755	428733	keystroke_Key.enter	Key.enter	n/a
214.446	5.2775	428892	prompt	n/a	curtis tree himself casa\n
215.2365	0.045	430473	keystroke_c	c	n/a
215.3415	0.09	430683	keystroke_u	u	n/a
215.4165	0.0905	430833	keystroke_r	r	n/a
215.582	0.105	431164	keystroke_t	t	n/a
215.717	0.105	431434	keystroke_i	i	n/a
215.867	0.075	431734	keystroke_s	s	n/a
215.897	0.105	431794	keystroke_Key.space	Key.space	n/a
216.107	0.075	432214	keystroke_l	l	n/a
216.242	0.075	432484	keystroke_e	e	n/a
216.407	0.105	432814	keystroke_e	e	n/a
216.587	0.1345	433174	keystroke_Key.space	Key.space	n/a
217.067	0.105	434134	keystroke_h	h	n/a
217.2915	0.135	434583	keystroke_i	i	n/a
217.3665	0.165	434733	keystroke_m	m	n/a
217.5165	0.075	435033	keystroke_s	s	n/a
217.6965	0.09	435393	keystroke_e	e	n/a
217.8315	0.075	435663	keystroke_l	l	n/a
218.0115	0.06	436023	keystroke_f	f	n/a
218.1015	0.12	436203	keystroke_Key.space	Key.space	n/a
218.5815	0.1055	437163	keystroke_c	c	n/a
218.671	0.06	437342	keystroke_a	a	n/a
218.866	0.09	437732	keystroke_s	s	n/a
219.031	0.0755	438062	keystroke_a	a	n/a
219.631	0.09	439262	keystroke_Key.enter	Key.enter	n/a
219.7265	9.3865	439453	prompt	n/a	textbooks logical evans hispanic\n
220.6965	0.075	441393	keystroke_t	t	n/a
220.8015	0.075	441603	keystroke_e	e	n/a
220.9815	0.105	441963	keystroke_x	x	n/a
221.0715	0.075	442143	keystroke_t	t	n/a
221.2965	0.075	442593	keystroke_b	b	n/a
221.5665	0.06	443133	keystroke_o	o	n/a
221.7015	0.105	443403	keystroke_o	o	n/a
221.9115	0.09	443823	keystroke_k	k	n/a
222.0615	0.075	444123	keystroke_s	s	n/a
222.1375	0.089	444275	keystroke_Key.space	Key.space	n/a
222.3315	0.0755	444663	keystroke_l	l	n/a
222.4965	0.075	444993	keystroke_o	o	n/a
222.6165	0.09	445233	keystroke_g	g	n/a
222.7365	0.09	445473	keystroke_i	i	n/a
222.8865	0.075	445773	keystroke_c	c	n/a
223.1415	0.06	446283	keystroke_a	a	n/a
223.2465	0.075	446493	keystroke_l	l	n/a
223.4115	0.12	446823	keystroke_Key.space	Key.space	n/a
223.5915	0.09	447183	keystroke_e	e	n/a
223.9665	0.09	447933	keystroke_c	c	n/a
224.612	0.105	449224	keystroke_Key.backspace	Key.backspace	n/a
224.627	0.045	449254	keystroke_=	=	n/a
224.747	0.075	449494	keystroke_v	v	n/a
225.107	0.06	450214	keystroke_Key.backspace	Key.backspace	n/a
225.257	0.06	450514	keystroke_Key.backspace	Key.backspace	n/a
226.007	0.09	452014	keystroke_v	v	n/a
226.142	0.09	452284	keystroke_a	a	n/a
226.247	0.09	452494	keystroke_n	n	n/a
226.367	0.075	452734	keystroke_s	s	n/a
226.442	0.12	452884	keystroke_Key.space	Key.space	n/a
226.982	0.075	453964	keystroke_h	h	n/a
227.222	0.075	454444	keystroke_i	i	n/a
227.357	0.06	454714	keystroke_s	s	n/a
227.447	0.06	454894	keystroke_p	p	n/a
227.597	0.06	455194	keystroke_a	a	n/a
227.702	0.15	455404	keystroke_n	n	n/a
227.777	0.15	455554	keystroke_i	i	n/a
227.927	0.09	455854	keystroke_c	c	n/a
229.052	0.059	458104	keystroke_Key.enter	Key.enter	n/a
229.1155	6.3875	458231	prompt	n/a	us elizabeth diane fujitsu\n
229.982	0.089	459964	keystroke_u	u	n/a
230.102	0.089	460204	keystroke_s	s	n/a
230.176	0.105	460352	keystroke_Key.space	Key.space	n/a
230.341	0.0905	460682	keystroke_e	e	n/a
230.4465	0.0745	460893	keystroke_l	l	n/a
230.6415	0.075	461283	keystroke_i	i	n/a
230.9265	0.075	461853	keystroke_z	z	n/a
231.1065	0.075	462213	keystroke_a	a	n/a
231.2115	0.0895	462423	keystroke_b	b	n/a
231.362	0.0745	462724	keystroke_e	e	n/a
231.5865	0.06	463173	keystroke_t	t	n/a
231.7065	0.135	463413	keystroke_h	h	n/a
231.7815	0.18	463563	keystroke_Key.space	Key.space	n/a
232.2315	0.06	464463	keystroke_d	d	n/a
232.3965	0.12	464793	keystroke_i	i	n/a
232.6365	0.09	465273	keystroke_a	a	n/a
232.8315	0.075	465663	keystroke_n	n	n/a
232.9515	0.061	465903	keystroke_e	e	n/a
233.1165	0.075	466233	keystroke_Key.space	Key.space	n/a
233.8815	0.09	467763	keystroke_f	f	n/a
234.0765	0.105	468153	keystroke_u	u	n/a
234.3165	0.075	468633	keystroke_j	j	n/a
234.4815	0.075	468963	keystroke_i	i	n/a
234.7665	0.06	469533	keystroke_t	t	n/a
235.0065	0.075	470013	keystroke_s	s	n/a
235.1115	0.105	470223	keystroke_u	u	n/a
235.4265	0.075	470853	keystroke_Key.enter	Key.enter	n/a
235.5055	6.283	471011	prompt	n/a	certificate cheap delay sparc\n
236.2365	0.09	472473	keystroke_c	c	n/a
236.4615	0.06	472923	keystroke_e	e	n/a
236.6265	0.075	473253	keystroke_r	r	n/a
236.792	0.075	473584	keystroke_t	t	n/a
236.897	0.09	473794	keystroke_i	i	n/a
237.017	0.075	474034	keystroke_f	f	n/a
237.107	0.09	474214	keystroke_i	i	n/a
237.212	0.075	474424	keystroke_c	c	n/a
237.422	0.09	474844	keystroke_a	a	n/a
237.557	0.09	475114	keystroke_t	t	n/a
237.692	0.06	475384	keystroke_e	e	n/a
237.767	0.15	475534	keystroke_Key.space	Key.space	n/a
238.127	0.09	476254	keystroke_c	c	n/a
238.247	0.09	476494	keystroke_h	h	n/a
238.367	0.09	476734	keystroke_e	e	n/a
238.592	0.075	477184	keystroke_a	a	n/a
238.712	0.105	477424	keystroke_p	p	n/a
238.922	0.135	477844	keystroke_Key.space	Key.space	n/a
239.252	0.075	478504	keystroke_d	d	n/a
239.417	0.075	478834	keystroke_e	e	n/a
239.507	0.09	479014	keystroke_l	l	n/a
239.672	0.075	479344	keystroke_a	a	n/a
239.792	0.105	479584	keystroke_y	y	n/a
239.957	0.18	479914	keystroke_Key.space	Key.space	n/a
240.317	0.0895	480634	keystroke_s	s	n/a
240.4515	0.075	480903	keystroke_p	p	n/a
240.6175	0.089	481235	keystroke_a	a	n/a
240.8575	0.074	481715	keystroke_r	r	n/a
241.367	0.075	482734	keystroke_c	c	n/a
241.727	0.06	483454	keystroke_Key.enter	Key.enter	n/a
241.791	4.872	483582	prompt	n/a	adapters epic need alice\n
242.5065	0.09	485013	keystroke_a	a	n/a
242.7165	0.075	485433	keystroke_d	d	n/a
243.1815	0.06	486363	keystroke_a	a	n/a
243.3015	0.075	486603	keystroke_p	p	n/a
243.5865	0.06	487173	keystroke_t	t	n/a
243.6765	0.075	487353	keystroke_e	e	n/a
243.8415	0.09	487683	keystroke_r	r	n/a
244.0515	0.09	488103	keystroke_s	s	n/a
244.1565	0.09	488313	keystroke_Key.space	Key.space	n/a
244.3365	0.045	488673	keystroke_e	e	n/a
244.4415	0.0605	488883	keystroke_p	p	n/a
244.652	0.06	489304	keystroke_i	i	n/a
244.772	0.075	489544	keystroke_c	c	n/a
244.862	0.105	489724	keystroke_Key.space	Key.space	n/a
245.027	0.09	490054	keystroke_n	n	n/a
245.222	0.045	490444	keystroke_e	e	n/a
245.372	0.09	490744	keystroke_e	e	n/a
245.582	0.09	491164	keystroke_d	d	n/a
245.687	0.09	491374	keystroke_Key.space	Key.space	n/a
245.852	0.06	491704	keystroke_a	a	n/a
245.927	0.09	491854	keystroke_l	l	n/a
246.122	0.09	492244	keystroke_i	i	n/a
246.197	0.075	492394	keystroke_c	c	n/a
246.407	0.06	492814	keystroke_e	e	n/a
246.6015	0.06	493203	keystroke_Key.enter	Key.enter	n/a
246.666	7.827	493332	prompt	n/a	manufacture neutral automobile could\n
247.7415	0.045	495483	keystroke_m	m	n/a
248.1015	0.09	496203	keystroke_a	a	n/a
248.2365	0.09	496473	keystroke_n	n	n/a
248.3415	0.09	496683	keystroke_u	u	n/a
248.537	0.06	497074	keystroke_f	f	n/a
248.732	0.075	497464	keystroke_a	a	n/a
248.927	0.09	497854	keystroke_c	c	n/a
249.122	0.075	498244	keystroke_t	t	n/a
249.227	0.074	498454	keystroke_u	u	n/a
249.316	0.061	498632	keystroke_r	r	n/a
249.467	0.075	498934	keystroke_e	e	n/a
249.617	0.105	499234	keystroke_Key.space	Key.space	n/a
250.067	0.075	500134	keystroke_n	n	n/a
250.217	0.09	500434	keystroke_e	e	n/a
250.4415	0.0755	500883	keystroke_u	u	n/a
250.637	0.09	501274	keystroke_t	t	n/a
250.802	0.09	501604	keystroke_r	r	n/a
251.057	0.06	502114	keystroke_a	a	n/a
251.147	0.09	502294	keystroke_l	l	n/a
251.327	0.09	502654	keystroke_Key.space	Key.space	n/a
251.432	0.075	502864	keystroke_a	a	n/a
251.567	0.105	503134	keystroke_u	u	n/a
251.717	0.06	503434	keystroke_t	t	n/a
251.822	0.105	503644	keystroke_o	o	n/a
251.897	0.135	503794	keystroke_m	m	n/a
252.392	0.075	504784	keystroke_o	o	n/a
252.542	0.075	505084	keystroke_b	b	n/a
252.632	0.075	505264	keystroke_i	i	n/a
252.797	0.09	505594	keystroke_l	l	n/a
252.917	0.09	505834	keystroke_e	e	n/a
252.992	0.135	505984	keystroke_Key.space	Key.space	n/a
253.622	0.075	507244	keystroke_c	c	n/a
253.727	0.075	507454	keystroke_o	o	n/a
253.907	0.0895	507814	keystroke_u	u	n/a
254.1165	0.105	508233	keystroke_l	l	n/a
254.2665	0.06	508533	keystroke_d	d	n/a
254.4165	0.075	508833	keystroke_Key.enter	Key.enter	n/a
254.4955	7.168	508991	prompt	n/a	bermuda guardian ordinary nurses\n
255.3315	0.075	510663	keystroke_b	b	n/a
255.452	0.06	510904	keystroke_e	e	n/a
255.602	0.09	511204	keystroke_r	r	n/a
255.707	0.075	511414	keystroke_m	m	n/a
255.902	0.075	511804	keystroke_u	u	n/a
256.007	0.09	512014	keystroke_d	d	n/a
256.232	0.075	512464	keystroke_a	a	n/a
256.367	0.09	512734	keystroke_Key.space	Key.space	n/a
256.652	0.09	513304	keystroke_g	g	n/a
256.8465	0.076	513693	keystroke_u	u	n/a
256.9515	0.105	513903	keystroke_a	a	n/a
257.1915	0.045	514383	keystroke_r	r	n/a
257.3415	0.09	514683	keystroke_d	d	n/a
257.4465	0.09	514893	keystroke_i	i	n/a
258.6915	0.06	517383	keystroke_a	a	n/a
258.8115	0.12	517623	keystroke_n	n	n/a
258.9015	0.12	517803	keystroke_Key.space	Key.space	n/a
259.3215	0.075	518643	keystroke_o	o	n/a
259.4415	0.09	518883	keystroke_r	r	n/a
259.6065	0.105	519213	keystroke_d	d	n/a
259.6965	0.12	519393	keystroke_i	i	n/a
259.7715	0.135	519543	keystroke_n	n	n/a
259.8915	0.06	519783	keystroke_a	a	n/a
260.1165	0.075	520233	keystroke_r	r	n/a
260.2215	0.105	520443	keystroke_y	y	n/a
260.3865	0.105	520773	keystroke_Key.space	Key.space	n/a
260.5965	0.135	521193	keystroke_n	n	n/a
260.7465	0.12	521493	keystroke_u	u	n/a
260.8675	0.089	521735	keystroke_r	r	n/a
261.0615	0.105	522123	keystroke_s	s	n/a
261.2715	0.075	522543	keystroke_e	e	n/a
261.4365	0.076	522873	keystroke_s	s	n/a
261.5715	0.09	523143	keystroke_Key.enter	Key.enter	n/a
261.667	6.881	523334	prompt	n/a	setting discretion humans aside\n
262.4715	0.105	524943	keystroke_s	s	n/a
262.6365	0.105	525273	keystroke_e	e	n/a
262.9065	0.06	525813	keystroke_t	t	n/a
263.0565	0.09	526113	keystroke_t	t	n/a
263.2065	0.12	526413	keystroke_i	i	n/a
263.2665	0.105	526533	keystroke_n	n	n/a
263.3565	0.045	526713	keystroke_g	g	n/a
263.4765	0.105	526953	keystroke_Key.space	Key.space	n/a
263.8215	0.075	527643	keystroke_d	d	n/a
263.9265	0.09	527853	keystroke_i	i	n/a
264.0765	0.09	528153	keystroke_s	s	n/a
264.5265	0.075	529053	keystroke_c	c	n/a
264.7515	0.075	529503	keystroke_r	r	n/a
264.9315	0.1205	529863	keystroke_e	e	n/a
265.187	0.045	530374	keystroke_t	t	n/a
265.292	0.075	530584	keystroke_i	i	n/a
265.457	0.15	530914	keystroke_o	o	n/a
265.517	0.134	531034	keystroke_n	n	n/a
265.681	0.166	531362	keystroke_Key.space	Key.space	n/a
266.8215	0.09	533643	keystroke_h	h	n/a
267.0765	0.015	534153	keystroke_u	u	n/a
267.2115	0.06	534423	keystroke_m	m	n/a
267.3765	0.075	534753	keystroke_a	a	n/a
267.4815	0.165	534963	keystroke_n	n	n/a
267.5715	0.12	535143	keystroke_Key.space	Key.space	n/a
267.7365	0.09	535473	keystroke_a	a	n/a
267.9465	0.075	535893	keystroke_s	s	n/a
268.0515	0.09	536103	keystroke_i	i	n/a
268.1865	0.09	536373	keystroke_d	d	n/a
268.3515	0.06	536703	keystroke_e	e	n/a
268.4565	0.09	536913	keystroke_Key.enter	Key.enter	n/a
268.552	6.491	537104	prompt	n/a	show curtis remedy retrieved\n
269.1765	0.09	538353	keystroke_s	s	n/a
269.3115	0.105	538623	keystroke_h	h	n/a
269.5515	0.075	539103	keystroke_o	o	n/a
269.6715	0.09	539343	keystroke_w	w	n/a
269.7765	0.12	539553	keystroke_Key.space	Key.space	n/a
269.9415	0.105	539883	keystroke_c	c	n/a
270.0615	0.075	540123	keystroke_u	u	n/a
270.1665	0.075	540333	keystroke_r	r	n/a
270.3465	0.0905	540693	keystroke_t	t	n/a
270.4665	0.09	540933	keystroke_i	i	n/a
270.6165	0.06	541233	keystroke_s	s	n/a
270.6915	0.15	541383	keystroke_Key.space	Key.space	n/a
271.0065	0.06	542013	keystroke_r	r	n/a
271.1715	0.075	542343	keystroke_e	e	n/a
271.2615	0.075	542523	keystroke_m	m	n/a
271.3665	0.09	542733	keystroke_e	e	n/a
271.547	0.0895	543094	keystroke_d	d	n/a
271.6665	0.105	543333	keystroke_y	y	n/a
271.847	0.12	543694	keystroke_Key.space	Key.space	n/a
272.5365	0.09	545073	keystroke_t	t	n/a
273.2115	0.105	546423	keystroke_Key.backspace	Key.backspace	n/a
273.7065	0.075	547413	keystroke_r	r	n/a
273.8715	0.09	547743	keystroke_e	e	n/a
274.0965	0.075	548193	keystroke_t	t	n/a
274.2465	0.09	548493	keystroke_r	r	n/a
274.3515	0.09	548703	keystroke_i	i	n/a
274.487	0.075	548974	keystroke_e	e	n/a
274.622	0.075	549244	keystroke_v	v	n/a
274.712	0.075	549424	keystroke_e	e	n/a
274.862	0.09	549724	keystroke_d	d	n/a
274.967	0.075	549934	keystroke_Key.enter	Key.enter	n/a
275.0455	13.243	550091	prompt	n/a	reducing wisconsin approaches sciences\n
276.107	0.075	552214	keystroke_r	r	n/a
276.287	0.06	552574	keystroke_e	e	n/a
276.452	0.075	552904	keystroke_d	d	n/a
276.587	0.075	553174	keystroke_u	u	n/a
276.7065	0.075	553413	keystroke_c	c	n/a
276.8415	0.15	553683	keystroke_i	i	n/a
276.9315	0.135	553863	keystroke_n	n	n/a
277.1265	0.075	554253	keystroke_g	g	n/a
277.2615	0.105	554523	keystroke_Key.space	Key.space	n/a
277.5615	0.09	555123	keystroke_w	w	n/a
277.7115	0.09	555423	keystroke_i	i	n/a
277.8465	0.09	555693	keystroke_s	s	n/a
278.0415	0.15	556083	keystroke_o	o	n/a
278.1465	0.135	556293	keystroke_n	n	n/a
278.6415	0.06	557283	keystroke_s	s	n/a
278.8365	0.12	557673	keystroke_i	i	n/a
278.8965	0.135	557793	keystroke_n	n	n/a
279.0915	0.12	558183	keystroke_Key.space	Key.space	n/a
279.2265	0.075	558453	keystroke_a	a	n/a
279.3315	0.06	558663	keystroke_p	p	n/a
279.4815	0.09	558963	keystroke_p	p	n/a
279.6315	0.09	559263	keystroke_r	r	n/a
279.7515	0.09	559503	keystroke_o	o	n/a
281.207	0.075	562414	keystroke_Key.backspace	Key.backspace	n/a
281.8365	0.075	563673	keystroke_Key.backspace	Key.backspace	n/a
281.9865	0.075	563973	keystroke_Key.backspace	Key.backspace	n/a
282.662	0.1045	565324	keystroke_c	c	n/a
282.7515	0.165	565503	keystroke_o	o	n/a
282.8415	0.135	565683	keystroke_n	n	n/a
282.9615	0.0605	565923	keystroke_s	s	n/a
283.081	0.166	566162	keystroke_i	i	n/a
283.141	0.135	566282	keystroke_n	n	n/a
283.366	0.105	566732	keystroke_Key.space	Key.space	n/a
283.877	0.089	567754	keystroke_a	a	n/a
284.011	0.061	568022	keystroke_p	p	n/a
284.162	0.09	568324	keystroke_p	p	n/a
284.312	0.075	568624	keystroke_r	r	n/a
284.387	0.09	568774	keystroke_o	o	n/a
284.582	0.06	569164	keystroke_a	a	n/a
284.762	0.09	569524	keystroke_c	c	n/a
284.882	0.06	569764	keystroke_h	h	n/a
285.002	0.075	570004	keystroke_e	e	n/a
285.167	0.09	570334	keystroke_s	s	n/a
285.317	0.0895	570634	keystroke_Key.space	Key.space	n/a
285.6315	0.0905	571263	keystroke_s	s	n/a
285.872	0.075	571744	keystroke_c	c	n/a
286.262	0.075	572524	keystroke_i	i	n/a
286.4865	0.06	572973	keystroke_e	e	n/a
286.5915	0.075	573183	keystroke_n	n	n/a
286.6815	0.09	573363	keystroke_s	s	n/a
286.906	0.061	573812	keystroke_e	e	n/a
287.327	0.059	574654	keystroke_Key.backspace	Key.backspace	n/a
287.4765	0.105	574953	keystroke_Key.backspace	Key.backspace	n/a
287.5825	0.074	575165	keystroke_c	c	n/a
287.8065	0.075	575613	keystroke_e	e	n/a
288.0015	0.075	576003	keystroke_s	s	n/a
288.197	0.09	576394	keystroke_Key.enter	Key.enter	n/a
288.2985	6.71	576597	prompt	n/a	inns printed bunny palestine\n
289.292	0.015	578584	keystroke_u	u	n/a
289.667	0.12	579334	keystroke_Key.backspace	Key.backspace	n/a
289.997	0.045	579994	keystroke_i	i	n/a
290.222	0.06	580444	keystroke_n	n	n/a
290.342	0.0895	580684	keystroke_n	n	n/a
290.4915	0.09	580983	keystroke_s	s	n/a
290.6115	0.1055	581223	keystroke_Key.space	Key.space	n/a
290.927	0.09	581854	keystroke_p	p	n/a
291.047	0.09	582094	keystroke_r	r	n/a
291.167	0.135	582334	keystroke_i	i	n/a
291.257	0.15	582514	keystroke_n	n	n/a
291.332	0.09	582664	keystroke_t	t	n/a
291.542	0.075	583084	keystroke_e	e	n/a
291.722	0.075	583444	keystroke_d	d	n/a
291.812	0.105	583624	keystroke_Key.space	Key.space	n/a
292.247	0.075	584494	keystroke_b	b	n/a
292.337	0.075	584674	keystroke_u	u	n/a
292.532	0.045	585064	keystroke_n	n	n/a
292.682	0.06	585364	keystroke_n	n	n/a
292.757	0.045	585514	keystroke_y	y	n/a
292.847	0.09	585694	keystroke_Key.space	Key.space	n/a
293.2965	0.075	586593	keystroke_p	p	n/a
293.4615	0.105	586923	keystroke_a	a	n/a
293.5515	0.075	587103	keystroke_l	l	n/a
293.7015	0.075	587403	keystroke_e	e	n/a
293.8515	0.075	587703	keystroke_s	s	n/a
294.0765	0.06	588153	keystroke_t	t	n/a
294.1815	0.105	588363	keystroke_i	i	n/a
294.2415	0.135	588483	keystroke_n	n	n/a
294.737	0.105	589474	keystroke_e	e	n/a
294.9615	0.0445	589923	keystroke_Key.enter	Key.enter	n/a
295.0175	7.6105	590035	prompt	n/a	norman martha beautiful disease\n
295.8475	0.075	591695	keystroke_n	n	n/a
295.9675	0.089	591935	keystroke_o	o	n/a
296.0715	0.105	592143	keystroke_r	r	n/a
296.1915	0.09	592383	keystroke_m	m	n/a
296.3415	0.075	592683	keystroke_a	a	n/a
296.4315	0.15	592863	keystroke_n	n	n/a
296.5215	0.105	593043	keystroke_Key.space	Key.space	n/a
296.7315	0.075	593463	keystroke_m	m	n/a
296.8215	0.105	593643	keystroke_a	a	n/a
297.0615	0.075	594123	keystroke_r	r	n/a
297.227	0.075	594454	keystroke_t	t	n/a
297.302	0.105	594604	keystroke_h	h	n/a
297.497	0.075	594994	keystroke_a	a	n/a
297.617	0.105	595234	keystroke_Key.space	Key.space	n/a
297.812	0.105	595624	keystroke_b	b	n/a
297.947	0.075	595894	keystroke_e	e	n/a
298.172	0.09	596344	keystroke_a	a	n/a
298.4115	0.075	596823	keystroke_u	u	n/a
298.4265	0.015	596853	keystroke_y	y	n/a
298.6665	0.075	597333	keystroke_t	t	n/a
298.9815	0.075	597963	keystroke_Key.backspace	Key.backspace	n/a
299.1165	0.105	598233	keystroke_Key.backspace	Key.backspace	n/a
299.2365	0.09	598473	keystroke_t	t	n/a
299.4165	0.06	598833	keystroke_i	i	n/a
299.4915	0.09	598983	keystroke_f	f	n/a
299.6865	0.12	599373	keystroke_u	u	n/a
299.9865	0.165	599973	keystroke_l	l	n/a
300.1965	0.135	600393	keystroke_Key.space	Key.space	n/a
300.6315	0.091	601263	keystroke_d	d	n/a
300.7515	0.06	601503	keystroke_i	i	n/a
300.9175	0.089	601835	keystroke_a	a	n/a
301.1125	0.089	602225	keystroke_s	s	n/a
301.5315	0.045	603063	keystroke_Key.backspace	Key.backspace	n/a
301.6515	0.105	603303	keystroke_Key.backspace	Key.backspace	n/a
301.772	0.06	603544	keystroke_s	s	n/a
301.877	0.105	603754	keystroke_e	e	n/a
302.117	0.045	604234	keystroke_a	a	n/a
302.267	0.09	604534	keystroke_s	s	n/a
302.4315	0.09	604863	keystroke_e	e	n/a
302.5515	0.075	605103	keystroke_Key.enter	Key.enter	n/a
302.631	7.1075	605262	prompt	n/a	journalism drove halo emission\n
303.737	0.074	607474	keystroke_j	j	n/a
303.9915	0.046	607983	keystroke_o	o	n/a
304.172	0.075	608344	keystroke_u	u	n/a
304.5615	0.06	609123	keystroke_Key.backspace	Key.backspace	n/a
304.6965	0.09	609393	keystroke_Key.backspace	Key.backspace	n/a
305.3415	0.18	610683	keystroke_o	o	n/a
305.5365	0.03	611073	keystroke_u	u	n/a
305.5515	0.075	611103	keystroke_r	r	n/a
305.672	0.09	611344	keystroke_n	n	n/a
305.792	0.075	611584	keystroke_a	a	n/a
305.882	0.075	611764	keystroke_l	l	n/a
306.062	0.075	612124	keystroke_i	i	n/a
306.182	0.075	612364	keystroke_s	s	n/a
306.302	0.135	612604	keystroke_m	m	n/a
306.392	0.1045	612784	keystroke_Key.space	Key.space	n/a
306.7065	0.06	613413	keystroke_d	d	n/a
306.8715	0.06	613743	keystroke_r	r	n/a
306.9615	0.075	613923	keystroke_o	o	n/a
307.2015	0.075	614403	keystroke_v	v	n/a
307.3065	0.06	614613	keystroke_e	e	n/a
307.3675	0.1195	614735	keystroke_Key.space	Key.space	n/a
307.5915	0.09	615183	keystroke_h	h	n/a
307.7865	0.075	615573	keystroke_a	a	n/a
307.8915	0.075	615783	keystroke_l	l	n/a
308.0565	0.06	616113	keystroke_o	o	n/a
308.2065	0.12	616413	keystroke_Key.space	Key.space	n/a
308.4615	0.0905	616923	keystroke_e	e	n/a
308.582	0.075	617164	keystroke_m	m	n/a
308.762	0.09	617524	keystroke_i	i	n/a
308.927	0.06	617854	keystroke_s	s	n/a
309.077	0.0895	618154	keystroke_s	s	n/a
309.1965	0.09	618393	keystroke_i	i	n/a
309.3765	0.135	618753	keystroke_o	o	n/a
309.4515	0.135	618903	keystroke_n	n	n/a
309.6315	0.105	619263	keystroke_Key.enter	Key.enter	n/a
309.748	9.741	619496	prompt	n/a	analyzes examine monkey divorce\n
310.517	0.015	621034	keystroke_a	a	n/a
310.547	0.09	621094	keystroke_n	n	n/a
310.652	0.075	621304	keystroke_a	a	n/a
310.801	0.061	621602	keystroke_l	l	n/a
311.012	0.075	622024	keystroke_y	y	n/a
311.117	0.09	622234	keystroke_z	z	n/a
311.3265	0.03	622653	keystroke_e	e	n/a
311.4465	0.09	622893	keystroke_Key.space	Key.space	n/a
311.9715	0.09	623943	keystroke_e	e	n/a
312.2265	0.075	624453	keystroke_x	x	n/a
312.4365	0.06	624873	keystroke_a	a	n/a
312.5565	0.075	625113	keystroke_m	m	n/a
312.7515	0.135	625503	keystroke_i	i	n/a
312.8415	0.12	625683	keystroke_n	n	n/a
312.9165	0.075	625833	keystroke_e	e	n/a
313.0665	0.09	626133	keystroke_Key.space	Key.space	n/a
313.2915	0.09	626583	keystroke_m	m	n/a
313.5315	0.06	627063	keystroke_i	i	n/a
313.5765	0.24	627153	keystroke_n	n	n/a
313.7115	0.1655	627423	keystroke_k	k	n/a
314.2215	0.06	628443	keystroke_e	e	n/a
314.5215	0.045	629043	keystroke_Key.backspace	Key.backspace	n/a
314.6715	0.06	629343	keystroke_Key.backspace	Key.backspace	n/a
314.8215	0.045	629643	keystroke_Key.backspace	Key.backspace	n/a
314.9415	0.105	629883	keystroke_Key.backspace	Key.backspace	n/a
315.542	0.12	631084	keystroke_o	o	n/a
315.602	0.21	631204	keystroke_n	n	n/a
315.752	0.135	631504	keystroke_k	k	n/a
315.932	0.06	631864	keystroke_e	e	n/a
316.037	0.06	632074	keystroke_y	y	n/a
316.157	0.135	632314	keystroke_Key.space	Key.space	n/a
316.307	0.09	632614	keystroke_d	d	n/a
316.531	0.045	633062	keystroke_v	v	n/a
316.966	0.0755	633932	keystroke_Key.backspace	Key.backspace	n/a
317.2815	0.075	634563	keystroke_i	i	n/a
317.3715	0.09	634743	keystroke_v	v	n/a
317.5215	0.09	635043	keystroke_o	o	n/a
317.6565	0.075	635313	keystroke_r	r	n/a
317.8965	0.06	635793	keystroke_s	s	n/a
318.2565	0.105	636513	keystroke_Key.backspace	Key.backspace	n/a
318.6015	0.105	637203	keystroke_c	c	n/a
318.842	0.059	637684	keystroke_e	e	n/a
319.4415	0.045	638883	keystroke_Key.enter	Key.enter	n/a
319.499	17.5695	638998	prompt	n/a	abstract argued upgrading huntington\n
320.3125	0.044	640625	keystroke_a	a	n/a
320.4165	0.0905	640833	keystroke_b	b	n/a
320.582	0.075	641164	keystroke_s	s	n/a
320.912	0.06	641824	keystroke_r	r	n/a
321.062	0.03	642124	keystroke_a	a	n/a
321.272	0.06	642544	keystroke_c	c	n/a
321.347	0.105	642694	keystroke_t	t	n/a
321.512	0.12	643024	keystroke_Key.space	Key.space	n/a
322.412	0.09	644824	keystroke_a	a	n/a
323.117	0.075	646234	keystroke_Key.backspace	Key.backspace	n/a
325.609	0.028	651218	keystroke_Key.backspace	Key.backspace	n/a
325.742	0.09	651484	keystroke_Key.backspace	Key.backspace	n/a
325.907	0.06	651814	keystroke_Key.backspace	Key.backspace	n/a
326.057	0.075	652114	keystroke_Key.backspace	Key.backspace	n/a
326.207	0.09	652414	keystroke_Key.backspace	Key.backspace	n/a
326.8665	0.06	653733	keystroke_t	t	n/a
327.0015	0.0755	654003	keystroke_r	r	n/a
327.107	0.075	654214	keystroke_a	a	n/a
327.347	0.045	654694	keystroke_c	c	n/a
327.437	0.12	654874	keystroke_t	t	n/a
327.617	0.12	655234	keystroke_Key.space	Key.space	n/a
327.782	0.06	655564	keystroke_a	a	n/a
328.217	0.06	656434	keystroke_r	r	n/a
328.4715	0.075	656943	keystroke_g	g	n/a
328.6515	0.075	657303	keystroke_u	u	n/a
328.7865	0.06	657573	keystroke_e	e	n/a
328.9815	0.045	657963	keystroke_d	d	n/a
329.1465	0.09	658293	keystroke_Key.space	Key.space	n/a
329.7015	0.105	659403	keystroke_u	u	n/a
329.9715	0.015	659943	keystroke_o	o	n/a
330.4215	0.0905	660843	keystroke_Key.backspace	Key.backspace	n/a
331.157	0.0595	662314	keystroke_[	[	n/a
331.622	0.09	663244	keystroke_Key.backspace	Key.backspace	n/a
331.967	0.075	663934	keystroke_p	p	n/a
332.282	0.06	664564	keystroke_g	g	n/a
332.417	0.0745	664834	keystroke_r	r	n/a
332.6115	0.09	665223	keystroke_a	a	n/a
332.8215	0.075	665643	keystroke_d	d	n/a
332.9415	0.135	665883	keystroke_i	i	n/a
333.0015	0.135	666003	keystroke_n	n	n/a
333.0915	0.09	666183	keystroke_g	g	n/a
333.2715	0.12	666543	keystroke_Key.space	Key.space	n/a
334.2615	0.075	668523	keystroke_h	h	n/a
334.4415	0.1205	668883	keystroke_u	u	n/a
334.502	0.15	669004	keystroke_n	n	n/a
335.372	0.06	670744	keystroke_t	t	n/a
335.492	0.135	670984	keystroke_i	i	n/a
335.567	0.15	671134	keystroke_n	n	n/a
335.717	0.09	671434	keystroke_g	g	n/a
335.957	0.045	671914	keystroke_t	t	n/a
336.077	0.134	672154	keystroke_o	o	n/a
336.152	0.195	672304	keystroke_n	n	n/a
336.9765	0.0895	673953	keystroke_Key.enter	Key.enter	n/a
337.0785	8.21	674157	prompt	n/a	vocabulary details has beaches\n
338.192	0.074	676384	keystroke_v	v	n/a
338.282	0.089	676564	keystroke_o	o	n/a
338.446	0.091	676892	keystroke_c	c	n/a
338.672	0.075	677344	keystroke_a	a	n/a
338.792	0.12	677584	keystroke_b	b	n/a
339.107	0.045	678214	keystroke_k	k	n/a
339.632	0.09	679264	keystroke_Key.backspace	Key.backspace	n/a
340.007	0.09	680014	keystroke_Key.backspace	Key.backspace	n/a
340.7565	0.046	681513	keystroke_b	b	n/a
340.8465	0.075	681693	keystroke_u	u	n/a
341.0715	0.06	682143	keystroke_l	l	n/a
341.2065	0.075	682413	keystroke_a	a	n/a
341.4315	0.0605	682863	keystroke_r	r	n/a
341.507	0.09	683014	keystroke_y	y	n/a
341.627	0.12	683254	keystroke_Key.space	Key.space	n/a
342.257	0.075	684514	keystroke_d	d	n/a
342.392	0.105	684784	keystroke_e	e	n/a
342.602	0.075	685204	keystroke_t	t	n/a
342.827	0.075	685654	keystroke_a	a	n/a
342.917	0.06	685834	keystroke_i	i	n/a
343.097	0.06	686194	keystroke_l	l	n/a
343.172	0.075	686344	keystroke_s	s	n/a
343.2765	0.105	686553	keystroke_Key.space	Key.space	n/a
343.5465	0.075	687093	keystroke_h	h	n/a
343.6665	0.09	687333	keystroke_a	a	n/a
343.8465	0.105	687693	keystroke_s	s	n/a
343.9665	0.0605	687933	keystroke_Key.space	Key.space	n/a
344.1165	0.09	688233	keystroke_b	b	n/a
344.2215	0.06	688443	keystroke_e	e	n/a
344.4165	0.075	688833	keystroke_a	a	n/a
344.6415	0.075	689283	keystroke_c	c	n/a
344.7015	0.105	689403	keystroke_h	h	n/a
344.8665	0.09	689733	keystroke_e	e	n/a
345.0615	0.075	690123	keystroke_s	s	n/a
345.1815	0.105	690363	keystroke_Key.enter	Key.enter	n/a
345.298	6.32	690596	prompt	n/a	addiction illegal discovery folder\n
345.9315	0.06	691863	keystroke_a	a	n/a
346.1415	0.06	692283	keystroke_d	d	n/a
346.2915	0.075	692583	keystroke_d	d	n/a
346.3965	0.075	692793	keystroke_i	i	n/a
346.5165	0.075	693033	keystroke_c	c	n/a
346.7415	0.075	693483	keystroke_t	t	n/a
346.8315	0.075	693663	keystroke_i	i	n/a
346.9965	0.165	693993	keystroke_o	o	n/a
347.0865	0.12	694173	keystroke_n	n	n/a
347.2815	0.06	694563	keystroke_Key.space	Key.space	n/a
347.4465	0.075	694893	keystroke_i	i	n/a
347.6265	0.06	695253	keystroke_l	l	n/a
347.7615	0.09	695523	keystroke_l	l	n/a
347.9265	0.09	695853	keystroke_e	e	n/a
348.0315	0.075	696063	keystroke_g	g	n/a
348.166	0.09	696332	keystroke_a	a	n/a
348.317	0.119	696634	keystroke_l	l	n/a
348.481	0.12	696962	keystroke_Key.space	Key.space	n/a
348.931	0.091	697862	keystroke_d	d	n/a
349.036	0.075	698072	keystroke_i	i	n/a
349.156	0.061	698312	keystroke_s	s	n/a
349.351	0.09	698702	keystroke_c	c	n/a
349.456	0.06	698912	keystroke_o	o	n/a
349.711	0.09	699422	keystroke_v	v	n/a
349.831	0.075	699662	keystroke_e	e	n/a
349.996	0.09	699992	keystroke_r	r	n/a
350.116	0.075	700232	keystroke_y	y	n/a
350.251	0.12	700502	keystroke_Key.space	Key.space	n/a
350.6865	0.09	701373	keystroke_f	f	n/a
350.8065	0.0755	701613	keystroke_o	o	n/a
350.957	0.09	701914	keystroke_l	l	n/a
351.062	0.105	702124	keystroke_d	d	n/a
351.257	0.09	702514	keystroke_e	e	n/a
351.452	0.06	702904	keystroke_r	r	n/a
351.557	0.06	703114	keystroke_Key.enter	Key.enter	n/a
351.621	8.0675	703242	prompt	n/a	select savage cope algorithm\n
352.397	0.0745	704794	keystroke_s	s	n/a
352.5615	0.075	705123	keystroke_e	e	n/a
352.6665	0.075	705333	keystroke_l	l	n/a
352.7565	0.075	705513	keystroke_e	e	n/a
352.9515	0.09	705903	keystroke_c	c	n/a
353.1615	0.06	706323	keystroke_t	t	n/a
353.2965	0.105	706593	keystroke_Key.space	Key.space	n/a
353.7915	0.09	707583	keystroke_s	s	n/a
353.9865	0.075	707973	keystroke_a	a	n/a
354.1365	0.105	708273	keystroke_v	v	n/a
354.3315	0.075	708663	keystroke_a	a	n/a
354.4515	0.06	708903	keystroke_g	g	n/a
354.6015	0.06	709203	keystroke_e	e	n/a
354.6915	0.105	709383	keystroke_Key.space	Key.space	n/a
355.0965	0.09	710193	keystroke_c	c	n/a
355.3215	0.075	710643	keystroke_o	o	n/a
355.5015	0.06	711003	keystroke_p	p	n/a
355.5765	0.075	711153	keystroke_e	e	n/a
355.6665	0.09	711333	keystroke_Key.space	Key.space	n/a
355.8465	0.06	711693	keystroke_a	a	n/a
355.9215	0.075	711843	keystroke_l	l	n/a
356.3265	0.075	712653	keystroke_g	g	n/a
356.4465	0.09	712893	keystroke_o	o	n/a
356.5815	0.06	713163	keystroke_r	r	n/a
356.7015	0.075	713403	keystroke_i	i	n/a
356.8515	0.06	713703	keystroke_t	t	n/a
357.4065	0.075	714813	keystroke_h	h	n/a
357.5865	0.03	715173	keystroke_y	y	n/a
358.4565	0.12	716913	keystroke_Key.backspace	Key.backspace	n/a
358.8615	0.075	717723	keystroke_m	m	n/a
359.627	0.06	719254	keystroke_Key.enter	Key.enter	n/a
359.6995	6.5135	719399	prompt	n/a	catalyst household speak spider\n
360.587	0.075	721174	keystroke_c	c	n/a
360.707	0.06	721414	keystroke_a	a	n/a
360.797	0.06	721594	keystroke_t	t	n/a
360.902	0.09	721804	keystroke_a	a	n/a
361.067	0.075	722134	keystroke_l	l	n/a
361.322	0.06	722644	keystroke_y	y	n/a
361.427	0.09	722854	keystroke_s	s	n/a
361.682	0.06	723364	keystroke_t	t	n/a
361.802	0.09	723604	keystroke_Key.space	Key.space	n/a
362.2665	0.09	724533	keystroke_h	h	n/a
362.492	0.059	724984	keystroke_o	o	n/a
362.671	0.06	725342	keystroke_u	u	n/a
362.747	0.089	725494	keystroke_s	s	n/a
362.941	0.061	725882	keystroke_e	e	n/a
363.7665	0.09	727533	keystroke_h	h	n/a
363.8865	0.075	727773	keystroke_o	o	n/a
364.0365	0.105	728073	keystroke_l	l	n/a
364.1715	0.075	728343	keystroke_d	d	n/a
364.2615	0.09	728523	keystroke_Key.space	Key.space	n/a
364.3965	0.09	728793	keystroke_s	s	n/a
364.5015	0.06	729003	keystroke_p	p	n/a
364.6065	0.06	729213	keystroke_e	e	n/a
364.7865	0.09	729573	keystroke_a	a	n/a
364.9065	0.105	729813	keystroke_k	k	n/a
364.9965	0.12	729993	keystroke_Key.space	Key.space	n/a
365.1015	0.075	730203	keystroke_s	s	n/a
365.281	0.0755	730562	keystroke_p	p	n/a
365.4915	0.0595	730983	keystroke_i	i	n/a
365.5965	0.075	731193	keystroke_d	d	n/a
365.7915	0.09	731583	keystroke_e	e	n/a
365.9865	0.06	731973	keystroke_r	r	n/a
366.1515	0.06	732303	keystroke_Key.enter	Key.enter	n/a
366.2165	4.6465	732433	prompt	n/a	dude remedies fought remove\n
366.9765	0.06	733953	keystroke_d	d	n/a
367.1115	0.075	734223	keystroke_u	u	n/a
367.2315	0.09	734463	keystroke_d	d	n/a
367.4115	0.075	734823	keystroke_e	e	n/a
367.5465	0.105	735093	keystroke_Key.space	Key.space	n/a
367.8465	0.075	735693	keystroke_r	r	n/a
368.0115	0.075	736023	keystroke_e	e	n/a
368.1015	0.075	736203	keystroke_m	m	n/a
368.2065	0.09	736413	keystroke_e	e	n/a
368.4015	0.0905	736803	keystroke_d	d	n/a
368.507	0.09	737014	keystroke_i	i	n/a
368.612	0.09	737224	keystroke_e	e	n/a
368.762	0.12	737524	keystroke_s	s	n/a
368.867	0.105	737734	keystroke_Key.space	Key.space	n/a
369.047	0.105	738094	keystroke_f	f	n/a
369.137	0.09	738274	keystroke_o	o	n/a
369.332	0.075	738664	keystroke_u	u	n/a
369.452	0.075	738904	keystroke_g	g	n/a
369.542	0.09	739084	keystroke_h	h	n/a
369.647	0.075	739294	keystroke_t	t	n/a
369.737	0.1045	739474	keystroke_Key.space	Key.space	n/a
369.9165	0.075	739833	keystroke_r	r	n/a
370.0815	0.09	740163	keystroke_e	e	n/a
370.1865	0.135	740373	keystroke_m	m	n/a
370.2615	0.18	740523	keystroke_o	o	n/a
370.3965	0.106	740793	keystroke_v	v	n/a
370.6365	0.091	741273	keystroke_e	e	n/a
370.7715	0.09	741543	keystroke_Key.enter	Key.enter	n/a
370.869	7.074	741738	prompt	n/a	garmin upon malta honors\n
371.7015	0.075	743403	keystroke_g	g	n/a
371.8065	0.09	743613	keystroke_a	a	n/a
372.0315	0.06	744063	keystroke_r	r	n/a
372.1065	0.075	744213	keystroke_m	m	n/a
372.3165	0.15	744633	keystroke_i	i	n/a
372.4065	0.12	744813	keystroke_n	n	n/a
372.6015	0.12	745203	keystroke_Key.space	Key.space	n/a
373.1265	0.105	746253	keystroke_u	u	n/a
373.3815	0.09	746763	keystroke_p	p	n/a
373.5765	0.09	747153	keystroke_o	o	n/a
373.8315	0.075	747663	keystroke_n	n	n/a
374.012	0.1045	748024	keystroke_Key.space	Key.space	n/a
374.8965	0.075	749793	keystroke_m	m	n/a
375.0015	0.09	750003	keystroke_a	a	n/a
375.1515	0.075	750303	keystroke_l	l	n/a
375.3465	0.076	750693	keystroke_t	t	n/a
375.5865	0.075	751173	keystroke_a	a	n/a
375.6165	0.09	751233	keystroke_Key.space	Key.space	n/a
375.7965	0.09	751593	keystroke_h	h	n/a
376.0365	0.106	752073	keystroke_o	o	n/a
376.1565	0.18	752313	keystroke_n	n	n/a
376.2765	0.15	752553	keystroke_o	o	n/a
376.4115	0.075	752823	keystroke_r	r	n/a
376.6365	0.075	753273	keystroke_s	s	n/a
377.8815	0.06	755763	keystroke_Key.enter	Key.enter	n/a
377.946	8.3085	755892	prompt	n/a	collaborative treatment alone hobby\n
378.9615	0.075	757923	keystroke_c	c	n/a
379.0965	0.06	758193	keystroke_o	o	n/a
379.2615	0.045	758523	keystroke_l	l	n/a
379.3815	0.075	758763	keystroke_l	l	n/a
379.5315	0.09	759063	keystroke_a	a	n/a
379.6515	0.075	759303	keystroke_b	b	n/a
379.8615	0.06	759723	keystroke_o	o	n/a
379.9515	0.075	759903	keystroke_r	r	n/a
380.1465	0.09	760293	keystroke_a	a	n/a
380.4015	0.0605	760803	keystroke_t	t	n/a
380.477	0.075	760954	keystroke_i	i	n/a
380.702	0.09	761404	keystroke_v	v	n/a
380.837	0.06	761674	keystroke_e	e	n/a
380.972	0.12	761944	keystroke_Key.space	Key.space	n/a
381.407	0.06	762814	keystroke_t	t	n/a
381.572	0.06	763144	keystroke_r	r	n/a
381.767	0.06	763534	keystroke_e	e	n/a
381.9765	0.076	763953	keystroke_a	a	n/a
382.0525	0.075	764105	keystroke_t	t	n/a
382.4115	0.12	764823	keystroke_m	m	n/a
382.5915	0.075	765183	keystroke_e	e	n/a
382.6515	0.09	765303	keystroke_n	n	n/a
382.7865	0.075	765573	keystroke_t	t	n/a
382.8315	0.105	765663	keystroke_Key.space	Key.space	n/a
383.0415	0.09	766083	keystroke_a	a	n/a
383.1165	0.03	766233	keystroke_k	k	n/a
383.2665	0.15	766533	keystroke_o	o	n/a
383.3715	0.165	766743	keystroke_n	n	n/a
383.7765	0.06	767553	keystroke_Key.backspace	Key.backspace	n/a
383.9265	0.075	767853	keystroke_Key.backspace	Key.backspace	n/a
384.0915	0.09	768183	keystroke_Key.backspace	Key.backspace	n/a
384.692	0.06	769384	keystroke_l	l	n/a
384.842	0.15	769684	keystroke_o	o	n/a
384.962	0.12	769924	keystroke_n	n	n/a
385.022	0.075	770044	keystroke_e	e	n/a
385.142	0.09	770284	keystroke_Key.space	Key.space	n/a
385.292	0.09	770584	keystroke_h	h	n/a
385.517	0.045	771034	keystroke_o	o	n/a
385.622	0.06	771244	keystroke_b	b	n/a
385.757	0.12	771514	keystroke_b	b	n/a
385.937	0.075	771874	keystroke_y	y	n/a
386.192	0.06	772384	keystroke_Key.enter	Key.enter	n/a
386.2665	10.112	772533	prompt	n/a	washington relevant shield composer\n
387.1365	0.1055	774273	keystroke_w	w	n/a
387.332	0.075	774664	keystroke_a	a	n/a
387.497	0.09	774994	keystroke_s	s	n/a
387.572	0.09	775144	keystroke_h	h	n/a
387.782	0.165	775564	keystroke_i	i	n/a
387.887	0.15	775774	keystroke_n	n	n/a
388.592	0.09	777184	keystroke_g	g	n/a
389.027	0.09	778054	keystroke_t	t	n/a
389.162	0.165	778324	keystroke_o	o	n/a
389.252	0.12	778504	keystroke_n	n	n/a
389.447	0.135	778894	keystroke_Key.space	Key.space	n/a
389.672	0.075	779344	keystroke_r	r	n/a
389.822	0.09	779644	keystroke_e	e	n/a
389.942	0.09	779884	keystroke_l	l	n/a
390.197	0.075	780394	keystroke_v	v	n/a
390.332	0.06	780664	keystroke_a	a	n/a
390.4815	0.045	780963	keystroke_n	n	n/a
390.6615	0.015	781323	keystroke_t	t	n/a
390.7065	0.12	781413	keystroke_Key.space	Key.space	n/a
391.2615	0.045	782523	keystroke_Key.backspace	Key.backspace	n/a
391.3815	0.09	782763	keystroke_Key.backspace	Key.backspace	n/a
391.5615	0.06	783123	keystroke_Key.backspace	Key.backspace	n/a
391.6965	0.075	783393	keystroke_Key.backspace	Key.backspace	n/a
391.8465	0.075	783693	keystroke_Key.backspace	Key.backspace	n/a
392.1915	0.09	784383	keystroke_e	e	n/a
392.477	0.075	784954	keystroke_v	v	n/a
392.642	0.09	785284	keystroke_a	a	n/a
392.747	0.075	785494	keystroke_n	n	n/a
392.927	0.075	785854	keystroke_t	t	n/a
392.987	0.105	785974	keystroke_Key.space	Key.space	n/a
393.497	0.09	786994	keystroke_s	s	n/a
393.587	0.075	787174	keystroke_h	h	n/a
393.767	0.075	787534	keystroke_i	i	n/a
393.872	0.075	787744	keystroke_e	e	n/a
394.007	0.075	788014	keystroke_l	l	n/a
394.097	0.075	788194	keystroke_d	d	n/a
394.232	0.12	788464	keystroke_Key.space	Key.space	n/a
394.427	0.0895	788854	keystroke_c	c	n/a
394.5015	0.15	789003	keystroke_o	o	n/a
394.5615	0.135	789123	keystroke_m	m	n/a
394.7565	0.09	789513	keystroke_p	p	n/a
394.9515	0.06	789903	keystroke_o	o	n/a
395.0715	0.06	790143	keystroke_s	s	n/a
395.2215	0.105	790443	keystroke_s	s	n/a
395.6415	0.075	791283	keystroke_Key.backspace	Key.backspace	n/a
395.8665	0.105	791733	keystroke_e	e	n/a
396.0765	0.09	792153	keystroke_r	r	n/a
396.317	0.06	792634	keystroke_Key.enter	Key.enter	n/a
396.3885	7.76	792777	prompt	n/a	lips bedford julia template\n
397.397	0.075	794794	keystroke_l	l	n/a
397.577	0.075	795154	keystroke_i	i	n/a
397.787	0.06	795574	keystroke_p	p	n/a
397.937	0.06	795874	keystroke_s	s	n/a
398.057	0.045	796114	keystroke_Key.space	Key.space	n/a
398.4615	0.075	796923	keystroke_b	b	n/a
398.5665	0.105	797133	keystroke_e	e	n/a
398.7315	0.105	797463	keystroke_d	d	n/a
398.9715	0.09	797943	keystroke_f	f	n/a
399.0765	0.06	798153	keystroke_o	o	n/a
399.1815	0.09	798363	keystroke_r	r	n/a
399.3615	0.075	798723	keystroke_d	d	n/a
399.4965	0.09	798993	keystroke_Key.space	Key.space	n/a
400.0065	0.075	800013	keystroke_j	j	n/a
400.1715	0.075	800343	keystroke_u	u	n/a
400.3815	0.09	800763	keystroke_l	l	n/a
400.577	0.075	801154	keystroke_i	i	n/a
400.712	0.09	801424	keystroke_a	a	n/a
400.772	0.12	801544	keystroke_Key.space	Key.space	n/a
401.042	0.075	802084	keystroke_t	t	n/a
401.252	0.09	802504	keystroke_e	e	n/a
401.357	0.09	802714	keystroke_m	m	n/a
402.002	0.09	804004	keystroke_p	p	n/a
402.077	0.075	804154	keystroke_l	l	n/a
403.607	0.06	807214	keystroke_a	a	n/a
403.742	0.075	807484	keystroke_t	t	n/a
403.892	0.075	807784	keystroke_e	e	n/a
404.0865	0.06	808173	keystroke_Key.enter	Key.enter	n/a
404.1585	8.031	808317	prompt	n/a	poll angeles oriental sewing\n
405.0015	0.09	810003	keystroke_p	p	n/a
405.1815	0.075	810363	keystroke_o	o	n/a
405.3615	0.06	810723	keystroke_l	l	n/a
405.5115	0.075	811023	keystroke_l	l	n/a
405.7065	0.09	811413	keystroke_Key.space	Key.space	n/a
405.9165	0.105	811833	keystroke_a	a	n/a
406.0515	0.09	812103	keystroke_n	n	n/a
406.3365	0.06	812673	keystroke_g	g	n/a
406.5315	0.06	813063	keystroke_e	e	n/a
406.6365	0.075	813273	keystroke_l	l	n/a
406.7715	0.09	813543	keystroke_e	e	n/a
406.9665	0.09	813933	keystroke_s	s	n/a
407.1015	0.09	814203	keystroke_Key.space	Key.space	n/a
407.7465	0.09	815493	keystroke_Key.backspace	Key.backspace	n/a
407.9115	0.075	815823	keystroke_Key.backspace	Key.backspace	n/a
408.092	0.0295	816184	keystroke_Key.backspace	Key.backspace	n/a
409.022	0.074	818044	keystroke_e	e	n/a
409.2015	0.0755	818403	keystroke_s	s	n/a
409.277	0.089	818554	keystroke_Key.space	Key.space	n/a
409.652	0.089	819304	keystroke_o	o	n/a
409.756	0.09	819512	keystroke_r	r	n/a
409.892	0.09	819784	keystroke_i	i	n/a
410.042	0.09	820084	keystroke_e	e	n/a
410.147	0.075	820294	keystroke_n	n	n/a
410.267	0.075	820534	keystroke_t	t	n/a
410.537	0.045	821074	keystroke_a	a	n/a
410.611	0.091	821222	keystroke_l	l	n/a
410.762	0.134	821524	keystroke_Key.space	Key.space	n/a
410.881	0.105	821762	keystroke_s	s	n/a
411.182	0.105	822364	keystroke_e	e	n/a
411.392	0.09	822784	keystroke_w	w	n/a
411.646	0.135	823292	keystroke_i	i	n/a
411.706	0.151	823412	keystroke_n	n	n/a
411.917	0.074	823834	keystroke_g	g	n/a
412.126	0.06	824252	keystroke_Key.enter	Key.enter	n/a
412.1995	5.3435	824399	prompt	n/a	ebay rehab pools toilet\n
412.982	0.09	825964	keystroke_e	e	n/a
413.102	0.09	826204	keystroke_b	b	n/a
413.237	0.075	826474	keystroke_a	a	n/a
413.342	0.105	826684	keystroke_y	y	n/a
413.582	0.12	827164	keystroke_Key.space	Key.space	n/a
414.167	0.075	828334	keystroke_r	r	n/a
414.317	0.09	828634	keystroke_e	e	n/a
414.422	0.09	828844	keystroke_h	h	n/a
414.602	0.075	829204	keystroke_a	a	n/a
414.737	0.1795	829474	keystroke_b	b	n/a
414.842	0.15	829684	keystroke_Key.space	Key.space	n/a
415.547	0.015	831094	keystroke_p	p	n/a
415.577	0.015	831154	keystroke_o	o	n/a
415.637	0.075	831274	keystroke_o	o	n/a
415.832	0.135	831664	keystroke_l	l	n/a
416.162	0.06	832324	keystroke_s	s	n/a
416.327	0.075	832654	keystroke_Key.space	Key.space	n/a
416.567	0.075	833134	keystroke_t	t	n/a
416.657	0.075	833314	keystroke_o	o	n/a
416.822	0.075	833644	keystroke_i	i	n/a
417.002	0.06	834004	keystroke_l	l	n/a
417.092	0.09	834184	keystroke_e	e	n/a
417.317	0.06	834634	keystroke_t	t	n/a
417.467	0.075	834934	keystroke_Key.enter	Key.enter	n/a
417.5455	5.4725	835091	prompt	n/a	atlas royalty amazing colony\n
418.277	0.075	836554	keystroke_a	a	n/a
418.547	0.06	837094	keystroke_t	t	n/a
418.652	0.075	837304	keystroke_l	l	n/a
418.787	0.105	837574	keystroke_a	a	n/a
418.997	0.09	837994	keystroke_s	s	n/a
419.147	0.105	838294	keystroke_Key.space	Key.space	n/a
419.447	0.06	838894	keystroke_r	r	n/a
419.552	0.075	839104	keystroke_o	o	n/a
419.777	0.075	839554	keystroke_y	y	n/a
420.002	0.015	840004	keystroke_a	a	n/a
420.032	0.06	840064	keystroke_l	l	n/a
420.257	0.03	840514	keystroke_t	t	n/a
420.3465	0.105	840693	keystroke_y	y	n/a
420.4965	0.1355	840993	keystroke_Key.space	Key.space	n/a
420.647	0.09	841294	keystroke_a	a	n/a
420.767	0.075	841534	keystroke_m	m	n/a
420.887	0.09	841774	keystroke_a	a	n/a
421.082	0.09	842164	keystroke_z	z	n/a
421.217	0.12	842434	keystroke_i	i	n/a
421.277	0.12	842554	keystroke_n	n	n/a
421.412	0.075	842824	keystroke_g	g	n/a
421.547	0.105	843094	keystroke_Key.space	Key.space	n/a
421.907	0.105	843814	keystroke_c	c	n/a
422.012	0.075	844024	keystroke_o	o	n/a
422.177	0.09	844354	keystroke_l	l	n/a
422.327	0.075	844654	keystroke_o	o	n/a
422.492	0.1045	844984	keystroke_n	n	n/a
422.6565	0.06	845313	keystroke_y	y	n/a
422.9415	0.075	845883	keystroke_Key.enter	Key.enter	n/a
423.0215	6.2365	846043	prompt	n/a	prior ethics jungle you'd\n
423.781	0.076	847562	keystroke_p	p	n/a
423.902	0.104	847804	keystroke_r	r	n/a
424.021	0.06	848042	keystroke_i	i	n/a
424.187	0.06	848374	keystroke_o	o	n/a
424.292	0.09	848584	keystroke_r	r	n/a
424.397	0.104	848794	keystroke_Key.space	Key.space	n/a
424.712	0.12	849424	keystroke_e	e	n/a
425.057	0.0895	850114	keystroke_h	h	n/a
425.477	0.06	850954	keystroke_Key.backspace	Key.backspace	n/a
425.642	0.06	851284	keystroke_t	t	n/a
425.762	0.09	851524	keystroke_h	h	n/a
425.957	0.09	851914	keystroke_i	i	n/a
426.062	0.105	852124	keystroke_c	c	n/a
426.302	0.06	852604	keystroke_s	s	n/a
426.422	0.09	852844	keystroke_Key.space	Key.space	n/a
426.871	0.091	853742	keystroke_j	j	n/a
427.066	0.121	854132	keystroke_u	u	n/a
427.111	0.15	854222	keystroke_n	n	n/a
427.291	0.075	854582	keystroke_g	g	n/a
427.411	0.09	854822	keystroke_l	l	n/a
427.532	0.059	855064	keystroke_e	e	n/a
427.6515	0.12	855303	keystroke_Key.space	Key.space	n/a
428.0265	0.06	856053	keystroke_y	y	n/a
428.1015	0.09	856203	keystroke_o	o	n/a
428.2815	0.09	856563	keystroke_u	u	n/a
428.672	0.075	857344	keystroke_'	'	n/a
428.852	0.06	857704	keystroke_d	d	n/a
429.182	0.075	858364	keystroke_Key.enter	Key.enter	n/a
429.262	9.1015	858524	prompt	n/a	bloom facing tender satisfied\n
430.292	0.06	860584	keystroke_b	b	n/a
430.382	0.075	860764	keystroke_l	l	n/a
430.577	0.059	861154	keystroke_o	o	n/a
430.756	0.135	861512	keystroke_o	o	n/a
430.966	0.135	861932	keystroke_m	m	n/a
431.191	0.09	862382	keystroke_Key.space	Key.space	n/a
431.8665	0.09	863733	keystroke_f	f	n/a
432.0015	0.075	864003	keystroke_a	a	n/a
432.2265	0.09	864453	keystroke_c	c	n/a
432.3315	0.105	864663	keystroke_i	i	n/a
432.3915	0.12	864783	keystroke_n	n	n/a
432.4965	0.075	864993	keystroke_g	g	n/a
432.6165	0.105	865233	keystroke_Key.space	Key.space	n/a
433.0215	0.075	866043	keystroke_r	r	n/a
433.2015	0.06	866403	keystroke_e	e	n/a
433.3515	0.09	866703	keystroke_n	n	n/a
433.5765	0.075	867153	keystroke_d	d	n/a
433.7415	0.075	867483	keystroke_e	e	n/a
433.9065	0.075	867813	keystroke_r	r	n/a
434.3565	0.045	868713	keystroke_Key.backspace	Key.backspace	n/a
434.4915	0.06	868983	keystroke_Key.backspace	Key.backspace	n/a
434.6265	0.0605	869253	keystroke_Key.backspace	Key.backspace	n/a
434.837	0.015	869674	keystroke_Key.backspace	Key.backspace	n/a
434.927	0.075	869854	keystroke_Key.backspace	Key.backspace	n/a
435.077	0.06	870154	keystroke_Key.backspace	Key.backspace	n/a
435.662	0.015	871324	keystroke_t	t	n/a
435.797	0.075	871594	keystroke_e	e	n/a
435.917	0.075	871834	keystroke_n	n	n/a
436.022	0.09	872044	keystroke_d	d	n/a
436.172	0.075	872344	keystroke_e	e	n/a
436.352	0.075	872704	keystroke_r	r	n/a
436.457	0.105	872914	keystroke_Key.space	Key.space	n/a
436.907	0.075	873814	keystroke_s	s	n/a
437.072	0.06	874144	keystroke_a	a	n/a
437.297	0.06	874594	keystroke_t	t	n/a
437.372	0.09	874744	keystroke_i	i	n/a
437.522	0.09	875044	keystroke_s	s	n/a
437.732	0.09	875464	keystroke_f	f	n/a
437.837	0.0745	875674	keystroke_i	i	n/a
437.957	0.075	875914	keystroke_e	e	n/a
438.137	0.09	876274	keystroke_d	d	n/a
438.272	0.09	876544	keystroke_Key.enter	Key.enter	n/a
438.3735	9.2035	876747	prompt	n/a	aberdeen schedule lyrics minus\n
439.112	0.09	878224	keystroke_a	a	n/a
439.232	0.09	878464	keystroke_b	b	n/a
439.367	0.075	878734	keystroke_e	e	n/a
439.517	0.09	879034	keystroke_r	r	n/a
439.697	0.06	879394	keystroke_d	d	n/a
439.877	0.075	879754	keystroke_e	e	n/a
440.132	0.015	880264	keystroke_e	e	n/a
440.162	0.12	880324	keystroke_n	n	n/a
440.237	0.12	880474	keystroke_Key.space	Key.space	n/a
440.387	0.09	880774	keystroke_s	s	n/a
440.611	0.06	881222	keystroke_c	c	n/a
440.672	0.105	881344	keystroke_h	h	n/a
440.807	0.0605	881614	keystroke_e	e	n/a
440.9565	0.105	881913	keystroke_d	d	n/a
441.0625	0.059	882125	keystroke_u	u	n/a
441.2865	0.075	882573	keystroke_l	l	n/a
441.4665	0.06	882933	keystroke_e	e	n/a
441.6015	0.12	883203	keystroke_Key.space	Key.space	n/a
442.8915	0.09	885783	keystroke_l	l	n/a
443.1315	0.09	886263	keystroke_y	y	n/a
443.2365	0.075	886473	keystroke_r	r	n/a
443.3415	0.09	886683	keystroke_i	i	n/a
443.4465	0.09	886893	keystroke_c	c	n/a
443.6565	0.06	887313	keystroke_s	s	n/a
443.7915	0.105	887583	keystroke_Key.space	Key.space	n/a
444.0165	0.075	888033	keystroke_m	m	n/a
444.2415	0.18	888483	keystroke_i	i	n/a
444.3315	0.24	888663	keystroke_n	n	n/a
444.5265	0.135	889053	keystroke_u	u	n/a
444.9615	0.105	889923	keystroke_s	s	n/a
447.5745	0.001	895149	keystroke_Key.enter	Key.enter	n/a
447.5865	10.997	895173	prompt	n/a	supervisor configuration accident precision\n
448.3225	0.074	896645	keystroke_s	s	n/a
448.4865	0.075	896973	keystroke_u	u	n/a
448.6975	0.044	897395	keystroke_p	p	n/a
449.0415	0.09	898083	keystroke_v	v	n/a
449.4165	0.06	898833	keystroke_Key.backspace	Key.backspace	n/a
449.9715	0.06	899943	keystroke_e	e	n/a
450.1215	0.09	900243	keystroke_r	r	n/a
450.2565	0.105	900513	keystroke_v	v	n/a
450.5115	0.075	901023	keystroke_i	i	n/a
450.5265	0.046	901053	keystroke_u	u	n/a
450.9165	0.09	901833	keystroke_Key.backspace	Key.backspace	n/a
451.5615	0.105	903123	keystroke_s	s	n/a
451.7265	0.06	903453	keystroke_o	o	n/a
451.8315	0.075	903663	keystroke_r	r	n/a
451.9365	0.105	903873	keystroke_Key.space	Key.space	n/a
452.2515	0.105	904503	keystroke_c	c	n/a
452.3425	0.1645	904685	keystroke_o	o	n/a
452.4315	0.1355	904863	keystroke_n	n	n/a
452.537	0.075	905074	keystroke_f	f	n/a
452.642	0.12	905284	keystroke_i	i	n/a
452.912	0.075	905824	keystroke_g	g	n/a
453.107	0.075	906214	keystroke_u	u	n/a
453.302	0.075	906604	keystroke_a	a	n/a
454.112	0.075	908224	keystroke_Key.backspace	Key.backspace	n/a
454.292	0.075	908584	keystroke_r	r	n/a
454.547	0.075	909094	keystroke_a	a	n/a
454.817	0.06	909634	keystroke_t	t	n/a
454.892	0.075	909784	keystroke_i	i	n/a
455.057	0.165	910114	keystroke_o	o	n/a
455.132	0.105	910264	keystroke_n	n	n/a
455.312	0.12	910624	keystroke_Key.space	Key.space	n/a
455.417	0.075	910834	keystroke_a	a	n/a
455.657	0.045	911314	keystroke_c	c	n/a
455.777	0.12	911554	keystroke_c	c	n/a
455.957	0.045	911914	keystroke_i	i	n/a
456.062	0.045	912124	keystroke_d	d	n/a
456.182	0.09	912364	keystroke_e	e	n/a
456.362	0.075	912724	keystroke_n	n	n/a
456.4815	0.061	912963	keystroke_t	t	n/a
456.6765	0.105	913353	keystroke_Key.space	Key.space	n/a
457.1565	0.09	914313	keystroke_p	p	n/a
457.2925	0.059	914585	keystroke_r	r	n/a
457.4265	0.105	914853	keystroke_e	e	n/a
457.6675	0.089	915335	keystroke_c	c	n/a
457.8165	0.09	915633	keystroke_i	i	n/a
457.9515	0.06	915903	keystroke_s	s	n/a
458.0565	0.075	916113	keystroke_i	i	n/a
458.2215	0.135	916443	keystroke_o	o	n/a
458.2965	0.12	916593	keystroke_n	n	n/a
458.4915	0.09	916983	keystroke_Key.enter	Key.enter	n/a
458.5935	7.2055	917187	prompt	n/a	modify bracket reality integrate\n
459.3915	0.165	918783	keystroke_m	m	n/a
459.4965	0.12	918993	keystroke_o	o	n/a
459.6465	0.06	919293	keystroke_d	d	n/a
459.7515	0.1055	919503	keystroke_i	i	n/a
460.007	0.06	920014	keystroke_f	f	n/a
460.112	0.105	920224	keystroke_y	y	n/a
460.262	0.15	920524	keystroke_Key.space	Key.space	n/a
460.9515	0.06	921903	keystroke_b	b	n/a
461.0725	0.089	922145	keystroke_r	r	n/a
461.2825	0.074	922565	keystroke_a	a	n/a
461.4925	0.074	922985	keystroke_c	c	n/a
461.5815	0.075	923163	keystroke_k	k	n/a
461.7175	0.059	923435	keystroke_e	e	n/a
461.8815	0.075	923763	keystroke_t	t	n/a
462.0165	0.105	924033	keystroke_Key.space	Key.space	n/a
462.9025	0.074	925805	keystroke_r	r	n/a
463.052	0.075	926104	keystroke_e	e	n/a
463.247	0.075	926494	keystroke_a	a	n/a
463.367	0.075	926734	keystroke_l	l	n/a
463.532	0.06	927064	keystroke_i	i	n/a
463.667	0.075	927334	keystroke_t	t	n/a
463.772	0.12	927544	keystroke_y	y	n/a
463.892	0.18	927784	keystroke_Key.space	Key.space	n/a
464.417	0.135	928834	keystroke_i	i	n/a
464.477	0.12	928954	keystroke_n	n	n/a
464.732	0.075	929464	keystroke_t	t	n/a
464.852	0.105	929704	keystroke_e	e	n/a
464.942	0.075	929884	keystroke_g	g	n/a
465.092	0.075	930184	keystroke_r	r	n/a
465.287	0.0905	930574	keystroke_a	a	n/a
465.4075	0.075	930815	keystroke_t	t	n/a
465.5425	0.06	931085	keystroke_e	e	n/a
465.7375	0.059	931475	keystroke_Key.enter	Key.enter	n/a
465.808	7.041	931616	prompt	n/a	replacement beads designated chen\n
466.5775	0.075	933155	keystroke_r	r	n/a
466.7425	0.075	933485	keystroke_e	e	n/a
466.8325	0.119	933665	keystroke_p	p	n/a
466.9225	0.105	933845	keystroke_l	l	n/a
467.0125	0.059	934025	keystroke_a	a	n/a
467.2375	0.09	934475	keystroke_c	c	n/a
467.4325	0.0595	934865	keystroke_e	e	n/a
467.507	0.09	935014	keystroke_m	m	n/a
467.597	0.09	935194	keystroke_e	e	n/a
467.717	0.09	935434	keystroke_n	n	n/a
467.837	0.09	935674	keystroke_t	t	n/a
467.912	0.1195	935824	keystroke_Key.space	Key.space	n/a
468.2115	0.075	936423	keystroke_b	b	n/a
468.3765	0.0755	936753	keystroke_e	e	n/a
468.587	0.09	937174	keystroke_a	a	n/a
468.827	0.045	937654	keystroke_d	d	n/a
468.992	0.075	937984	keystroke_s	s	n/a
469.097	0.09	938194	keystroke_Key.space	Key.space	n/a
469.397	0.0595	938794	keystroke_d	d	n/a
469.547	0.075	939094	keystroke_e	e	n/a
469.727	0.09	939454	keystroke_s	s	n/a
469.967	0.06	939934	keystroke_i	i	n/a
470.9265	0.06	941853	keystroke_g	g	n/a
471.0315	0.09	942063	keystroke_n	n	n/a
471.1965	0.09	942393	keystroke_a	a	n/a
471.3165	0.06	942633	keystroke_t	t	n/a
471.4515	0.075	942903	keystroke_e	e	n/a
471.6165	0.105	943233	keystroke_d	d	n/a
471.7515	0.045	943503	keystroke_Key.space	Key.space	n/a
472.187	0.105	944374	keystroke_c	c	n/a
472.352	0.0745	944704	keystroke_h	h	n/a
472.4415	0.075	944883	keystroke_e	e	n/a
472.5315	0.105	945063	keystroke_n	n	n/a
472.8015	0.045	945603	keystroke_Key.enter	Key.enter	n/a
472.86	7.338	945720	prompt	n/a	prophet management coordinator sphere\n
473.822	0.1495	947644	keystroke_p	p	n/a
473.9865	0.03	947973	keystroke_r	r	n/a
474.0315	0.075	948063	keystroke_o	o	n/a
474.1815	0.075	948363	keystroke_p	p	n/a
474.5865	0.075	949173	keystroke_h	h	n/a
474.6915	0.075	949383	keystroke_e	e	n/a
474.9465	0.06	949893	keystroke_t	t	n/a
475.0215	0.075	950043	keystroke_Key.space	Key.space	n/a
475.1715	0.105	950343	keystroke_m	m	n/a
475.2775	0.074	950555	keystroke_a	a	n/a
475.3815	0.09	950763	keystroke_n	n	n/a
475.4565	0.09	950913	keystroke_a	a	n/a
475.6215	0.09	951243	keystroke_g	g	n/a
475.8015	0.075	951603	keystroke_e	e	n/a
475.9215	0.075	951843	keystroke_m	m	n/a
475.9975	0.0895	951995	keystroke_e	e	n/a
476.117	0.075	952234	keystroke_n	n	n/a
476.252	0.0595	952504	keystroke_t	t	n/a
476.3265	0.12	952653	keystroke_Key.space	Key.space	n/a
476.5225	0.104	953045	keystroke_c	c	n/a
476.6565	0.06	953313	keystroke_o	o	n/a
476.8065	0.09	953613	keystroke_o	o	n/a
476.9865	0.075	953973	keystroke_r	r	n/a
477.1515	0.091	954303	keystroke_d	d	n/a
477.2725	0.12	954545	keystroke_i	i	n/a
477.3465	0.12	954693	keystroke_n	n	n/a
477.4215	0.061	954843	keystroke_a	a	n/a
477.7065	0.06	955413	keystroke_t	t	n/a
477.8115	0.09	955623	keystroke_o	o	n/a
477.9175	0.059	955835	keystroke_r	r	n/a
478.2165	0.105	956433	keystroke_Key.space	Key.space	n/a
478.3065	0.105	956613	keystroke_s	s	n/a
478.4715	0.09	956943	keystroke_p	p	n/a
479.2215	0.075	958443	keystroke_h	h	n/a
479.5815	0.075	959163	keystroke_e	e	n/a
479.7615	0.09	959523	keystroke_r	r	n/a
479.9415	0.09	959883	keystroke_e	e	n/a
480.1215	0.075	960243	keystroke_Key.enter	Key.enter	n/a
480.207	10.552	960414	prompt	n/a	bryan establish prerequisite thick\n
480.9765	0.075	961953	keystroke_b	b	n/a
481.1565	0.09	962313	keystroke_r	r	n/a
481.2615	0.075	962523	keystroke_y	y	n/a
481.4265	0.06	962853	keystroke_a	a	n/a
481.5015	0.165	963003	keystroke_n	n	n/a
481.6215	0.135	963243	keystroke_Key.space	Key.space	n/a
481.8915	0.09	963783	keystroke_e	e	n/a
482.0715	0.075	964143	keystroke_s	s	n/a
482.2965	0.06	964593	keystroke_t	t	n/a
482.492	0.0895	964984	keystroke_a	a	n/a
482.5965	0.1055	965193	keystroke_b	b	n/a
482.8665	0.0905	965733	keystroke_l	l	n/a
483.0625	0.074	966125	keystroke_i	i	n/a
483.2415	0.075	966483	keystroke_s	s	n/a
483.3615	0.121	966723	keystroke_h	h	n/a
483.4665	0.135	966933	keystroke_Key.space	Key.space	n/a
484.487	0.075	968974	keystroke_r	r	n/a
484.637	0.09	969274	keystroke_e	e	n/a
485.297	0.06	970594	keystroke_Key.backspace	Key.backspace	n/a
485.447	0.075	970894	keystroke_Key.backspace	Key.backspace	n/a
485.987	0.075	971974	keystroke_p	p	n/a
486.197	0.09	972394	keystroke_r	r	n/a
486.392	0.09	972784	keystroke_e	e	n/a
487.037	0.075	974074	keystroke_r	r	n/a
487.202	0.09	974404	keystroke_e	e	n/a
487.412	0.075	974824	keystroke_q	q	n/a
487.682	0.075	975364	keystroke_u	u	n/a
487.952	0.09	975904	keystroke_i	i	n/a
488.147	0.075	976294	keystroke_s	s	n/a
488.252	0.075	976504	keystroke_i	i	n/a
488.417	0.06	976834	keystroke_t	t	n/a
488.5815	0.075	977163	keystroke_e	e	n/a
488.7015	0.075	977403	keystroke_Key.space	Key.space	n/a
489.4675	0.074	978935	keystroke_t	t	n/a
489.5565	0.076	979113	keystroke_h	h	n/a
489.7375	0.104	979475	keystroke_i	i	n/a
489.8715	0.06	979743	keystroke_c	c	n/a
489.9465	0.12	979893	keystroke_k	k	n/a
490.712	0.045	981424	keystroke_Key.enter	Key.enter	n/a
490.769	7.024	981538	prompt	n/a	estimates gazette discounted trusts\n
491.492	0.075	982984	keystroke_e	e	n/a
491.642	0.09	983284	keystroke_s	s	n/a
491.867	0.06	983734	keystroke_t	t	n/a
491.957	0.105	983914	keystroke_i	i	n/a
492.002	0.105	984004	keystroke_m	m	n/a
492.122	0.09	984244	keystroke_a	a	n/a
492.272	0.045	984544	keystroke_t	t	n/a
492.347	0.075	984694	keystroke_e	e	n/a
492.512	0.09	985024	keystroke_s	s	n/a
492.647	0.075	985294	keystroke_Key.space	Key.space	n/a
493.262	0.075	986524	keystroke_g	g	n/a
493.6365	0.0455	987273	keystroke_a	a	n/a
493.772	0.09	987544	keystroke_z	z	n/a
493.982	0.075	987964	keystroke_e	e	n/a
494.357	0.0745	988714	keystroke_t	t	n/a
494.5065	0.09	989013	keystroke_t	t	n/a
494.6715	0.09	989343	keystroke_e	e	n/a
494.8215	0.1205	989643	keystroke_Key.space	Key.space	n/a
495.1815	0.09	990363	keystroke_d	d	n/a
495.347	0.075	990694	keystroke_i	i	n/a
495.497	0.075	990994	keystroke_s	s	n/a
495.692	0.09	991384	keystroke_c	c	n/a
495.767	0.09	991534	keystroke_o	o	n/a
495.9615	0.12	991923	keystroke_u	u	n/a
496.0215	0.165	992043	keystroke_n	n	n/a
496.1115	0.09	992223	keystroke_t	t	n/a
496.3065	0.09	992613	keystroke_e	e	n/a
496.4865	0.09	992973	keystroke_d	d	n/a
496.5615	0.09	993123	keystroke_Key.space	Key.space	n/a
496.8765	0.06	993753	keystroke_t	t	n/a
497.027	0.075	994054	keystroke_r	r	n/a
497.132	0.075	994264	keystroke_u	u	n/a
497.237	0.075	994474	keystroke_s	s	n/a
497.342	0.09	994684	keystroke_t	t	n/a
497.447	0.075	994894	keystroke_s	s	n/a
497.717	0.075	995434	keystroke_Key.enter	Key.enter	n/a
497.796	7.7525	995592	prompt	n/a	combining divx resulting fixes\n
498.812	0.06	997624	keystroke_c	c	n/a
498.992	0.15	997984	keystroke_o	o	n/a
499.112	0.105	998224	keystroke_m	m	n/a
499.367	0.0745	998734	keystroke_b	b	n/a
499.4715	0.135	998943	keystroke_i	i	n/a
499.5615	0.105	999123	keystroke_n	n	n/a
499.7715	0.12	999543	keystroke_i	i	n/a
499.8315	0.15	999663	keystroke_n	n	n/a
499.9665	0.06	999933	keystroke_g	g	n/a
500.0865	0.105	1000173	keystroke_Key.space	Key.space	n/a
500.7015	0.06	1001403	keystroke_d	d	n/a
500.7915	0.075	1001583	keystroke_i	i	n/a
500.9565	0.075	1001913	keystroke_v	v	n/a
501.2115	0.06	1002423	keystroke_x	x	n/a
501.3465	0.09	1002693	keystroke_Key.space	Key.space	n/a
501.9915	0.06	1003983	keystroke_r	r	n/a
502.1265	0.0905	1004253	keystroke_e	e	n/a
502.322	0.0745	1004644	keystroke_s	s	n/a
502.4415	0.075	1004883	keystroke_u	u	n/a
502.6365	0.09	1005273	keystroke_l	l	n/a
502.7715	0.045	1005543	keystroke_t	t	n/a
502.8765	0.135	1005753	keystroke_i	i	n/a
502.9515	0.1505	1005903	keystroke_n	n	n/a
503.0715	0.0755	1006143	keystroke_g	g	n/a
503.222	0.135	1006444	keystroke_Key.space	Key.space	n/a
504.722	0.075	1009444	keystroke_f	f	n/a
504.827	0.075	1009654	keystroke_i	i	n/a
504.947	0.105	1009894	keystroke_x	x	n/a
505.172	0.06	1010344	keystroke_e	e	n/a
505.337	0.075	1010674	keystroke_s	s	n/a
505.457	0.09	1010914	keystroke_Key.enter	Key.enter	n/a
505.5575	6.6355	1011115	prompt	n/a	bears alaska membership relate\n
506.402	0.075	1012804	keystroke_b	b	n/a
506.492	0.075	1012984	keystroke_e	e	n/a
506.687	0.09	1013374	keystroke_a	a	n/a
506.792	0.09	1013584	keystroke_r	r	n/a
506.897	0.075	1013794	keystroke_s	s	n/a
507.002	0.105	1014004	keystroke_Key.space	Key.space	n/a
507.167	0.075	1014334	keystroke_a	a	n/a
507.287	0.075	1014574	keystroke_l	l	n/a
507.422	0.09	1014844	keystroke_a	a	n/a
507.632	0.09	1015264	keystroke_s	s	n/a
507.782	0.075	1015564	keystroke_k	k	n/a
507.902	0.075	1015804	keystroke_a	a	n/a
508.007	0.09	1016014	keystroke_Key.space	Key.space	n/a
508.367	0.09	1016734	keystroke_m	m	n/a
508.637	0.06	1017274	keystroke_e	e	n/a
508.741	0.091	1017482	keystroke_m	m	n/a
508.952	0.075	1017904	keystroke_b	b	n/a
509.072	0.075	1018144	keystroke_e	e	n/a
509.222	0.09	1018444	keystroke_r	r	n/a
509.417	0.09	1018834	keystroke_s	s	n/a
509.447	0.09	1018894	keystroke_h	h	n/a
509.657	0.09	1019314	keystroke_i	i	n/a
509.882	0.06	1019764	keystroke_p	p	n/a
510.107	0.105	1020214	keystroke_Key.space	Key.space	n/a
510.437	0.06	1020874	keystroke_r	r	n/a
510.587	0.105	1021174	keystroke_e	e	n/a
510.677	0.089	1021354	keystroke_l	l	n/a
510.826	0.075	1021652	keystroke_a	a	n/a
510.991	0.09	1021982	keystroke_t	t	n/a
511.006	0.031	1022012	keystroke_r	r	n/a
511.126	0.061	1022252	keystroke_e	e	n/a
511.6965	0.075	1023393	keystroke_Key.backspace	Key.backspace	n/a
511.8165	0.0895	1023633	keystroke_Key.backspace	Key.backspace	n/a
511.966	0.09	1023932	keystroke_e	e	n/a
512.101	0.09	1024202	keystroke_Key.enter	Key.enter	n/a
512.197	8.217	1024394	prompt	n/a	july passing occasional installed\n
513.032	0.06	1026064	keystroke_j	j	n/a
513.182	0.075	1026364	keystroke_u	u	n/a
513.392	0.06	1026784	keystroke_l	l	n/a
513.497	0.06	1026994	keystroke_y	y	n/a
513.632	0.105	1027264	keystroke_Key.space	Key.space	n/a
514.622	0.075	1029244	keystroke_p	p	n/a
514.712	0.09	1029424	keystroke_a	a	n/a
514.922	0.06	1029844	keystroke_s	s	n/a
515.057	0.12	1030114	keystroke_s	s	n/a
515.222	0.12	1030444	keystroke_i	i	n/a
515.282	0.135	1030564	keystroke_n	n	n/a
515.432	0.06	1030864	keystroke_g	g	n/a
515.552	0.12	1031104	keystroke_Key.space	Key.space	n/a
516.347	0.075	1032694	keystroke_o	o	n/a
516.527	0.06	1033054	keystroke_c	c	n/a
516.677	0.12	1033354	keystroke_c	c	n/a
517.1865	0.075	1034373	keystroke_a	a	n/a
517.3965	0.075	1034793	keystroke_s	s	n/a
517.5015	0.075	1035003	keystroke_i	i	n/a
517.6965	0.12	1035393	keystroke_o	o	n/a
517.7865	0.165	1035573	keystroke_n	n	n/a
517.9365	0.06	1035873	keystroke_a	a	n/a
517.9815	0.15	1035963	keystroke_l	l	n/a
518.1615	0.12	1036323	keystroke_Key.space	Key.space	n/a
518.686	0.12	1037372	keystroke_i	i	n/a
518.746	0.105	1037492	keystroke_n	n	n/a
519.2265	0.0595	1038453	keystroke_s	s	n/a
519.4515	0.0745	1038903	keystroke_t	t	n/a
519.6915	0.06	1039383	keystroke_a	a	n/a
519.7965	0.075	1039593	keystroke_l	l	n/a
519.9465	0.09	1039893	keystroke_l	l	n/a
520.0515	0.09	1040103	keystroke_e	e	n/a
520.2165	0.105	1040433	keystroke_d	d	n/a
520.3365	0.075	1040673	keystroke_Key.enter	Key.enter	n/a
520.425	8.553	1040850	prompt	n/a	regards eric confirmed thompson\n
521.237	0.06	1042474	keystroke_r	r	n/a
521.402	0.06	1042804	keystroke_e	e	n/a
521.507	0.09	1043014	keystroke_g	g	n/a
521.612	0.075	1043224	keystroke_a	a	n/a
521.852	0.075	1043704	keystroke_r	r	n/a
522.032	0.075	1044064	keystroke_d	d	n/a
522.197	0.09	1044394	keystroke_s	s	n/a
522.317	0.09	1044634	keystroke_Key.space	Key.space	n/a
522.617	0.105	1045234	keystroke_e	e	n/a
522.842	0.075	1045684	keystroke_r	r	n/a
522.962	0.09	1045924	keystroke_i	i	n/a
523.067	0.09	1046134	keystroke_c	c	n/a
523.172	0.09	1046344	keystroke_Key.space	Key.space	n/a
523.292	0.09	1046584	keystroke_c	c	n/a
523.397	0.165	1046794	keystroke_o	o	n/a
523.487	0.18	1046974	keystroke_n	n	n/a
524.087	0.06	1048174	keystroke_f	f	n/a
524.162	0.075	1048324	keystroke_i	i	n/a
524.282	0.075	1048564	keystroke_r	r	n/a
524.402	0.09	1048804	keystroke_m	m	n/a
524.522	0.075	1049044	keystroke_e	e	n/a
524.717	0.089	1049434	keystroke_d	d	n/a
524.896	0.076	1049792	keystroke_Key.space	Key.space	n/a
525.391	0.061	1050782	keystroke_t	t	n/a
525.466	0.09	1050932	keystroke_h	h	n/a
525.661	0.15	1051322	keystroke_o	o	n/a
525.751	0.136	1051502	keystroke_m	m	n/a
525.932	0.06	1051864	keystroke_s	s	n/a
526.4115	0.09	1052823	keystroke_Key.backspace	Key.backspace	n/a
526.6515	0.06	1053303	keystroke_p	p	n/a
526.8015	0.06	1053603	keystroke_s	s	n/a
526.9215	0.12	1053843	keystroke_o	o	n/a
526.9365	0.045	1053873	keystroke_p	p	n/a
526.9815	0.165	1053963	keystroke_n	n	n/a
527.6415	0.06	1055283	keystroke_Key.backspace	Key.backspace	n/a
527.7915	0.06	1055583	keystroke_Key.backspace	Key.backspace	n/a
528.0915	0.045	1056183	keystroke_n	n	n/a
528.9015	0.075	1057803	keystroke_Key.enter	Key.enter	n/a
528.988	5.96	1057976	prompt	n/a	plant notified controls districts\n
529.832	0.105	1059664	keystroke_p	p	n/a
529.876	0.121	1059752	keystroke_l	l	n/a
529.981	0.076	1059962	keystroke_a	a	n/a
530.161	0.091	1060322	keystroke_n	n	n/a
530.297	0.06	1060594	keystroke_t	t	n/a
530.387	0.09	1060774	keystroke_Key.space	Key.space	n/a
530.597	0.18	1061194	keystroke_n	n	n/a
530.657	0.165	1061314	keystroke_o	o	n/a
530.792	0.09	1061584	keystroke_t	t	n/a
530.942	0.075	1061884	keystroke_i	i	n/a
531.032	0.075	1062064	keystroke_f	f	n/a
531.167	0.09	1062334	keystroke_i	i	n/a
531.437	0.09	1062874	keystroke_e	e	n/a
531.647	0.075	1063294	keystroke_d	d	n/a
531.752	0.105	1063504	keystroke_Key.space	Key.space	n/a
532.292	0.09	1064584	keystroke_c	c	n/a
532.397	0.15	1064794	keystroke_o	o	n/a
532.487	0.12	1064974	keystroke_n	n	n/a
532.592	0.06	1065184	keystroke_t	t	n/a
532.742	0.09	1065484	keystroke_r	r	n/a
532.846	0.06	1065692	keystroke_o	o	n/a
532.997	0.089	1065994	keystroke_l	l	n/a
533.117	0.059	1066234	keystroke_s	s	n/a
533.191	0.105	1066382	keystroke_Key.space	Key.space	n/a
533.356	0.075	1066712	keystroke_d	d	n/a
533.446	0.06	1066892	keystroke_i	i	n/a
533.5665	0.075	1067133	keystroke_s	s	n/a
533.8065	0.075	1067613	keystroke_t	t	n/a
533.9565	0.09	1067913	keystroke_r	r	n/a
534.1065	0.075	1068213	keystroke_i	i	n/a
534.1965	0.075	1068393	keystroke_c	c	n/a
534.3915	0.0905	1068783	keystroke_t	t	n/a
534.512	0.06	1069024	keystroke_s	s	n/a
534.872	0.075	1069744	keystroke_Key.enter	Key.enter	n/a
534.9505	14.1885	1069901	prompt	n/a	promoted survey fairly cambridge\n
535.802	0.075	1071604	keystroke_p	p	n/a
535.922	0.09	1071844	keystroke_r	r	n/a
536.042	0.15	1072084	keystroke_o	o	n/a
536.177	0.1795	1072354	keystroke_m	m	n/a
536.2965	0.12	1072593	keystroke_o	o	n/a
536.4015	0.09	1072803	keystroke_t	t	n/a
536.5965	0.075	1073193	keystroke_e	e	n/a
536.7465	0.075	1073493	keystroke_d	d	n/a
