onset	duration	sample	value	key	prompt_text
3.712	12.966	7424	prompt	n/a	the quick brown fox jumps over a lazy dog\n
5.269	0.0425	10538	keystroke	t	n/a
5.27	0.0875	10540	keystroke	h	n/a
10.5385	0.027	21077	keystroke	e	n/a
10.5805	0.075	21161	keystroke	Key.space	n/a
10.911	0.09	21822	keystroke	q	n/a
10.986	0.105	21972	keystroke	u	n/a
11.046	0.09	22092	keystroke	i	n/a
11.256	0.09	22512	keystroke	c	n/a
11.391	0.0305	22782	keystroke	k	n/a
11.4665	0.0455	22933	keystroke	Key.space	n/a
11.767	0.09	23534	keystroke	b	n/a
11.917	0.045	23834	keystroke	r	n/a
11.977	0.075	23954	keystroke	o	n/a
12.097	0.0905	24194	keystroke	w	n/a
12.2025	0.06	24405	keystroke	n	n/a
12.3375	0.074	24675	keystroke	Key.space	n/a
12.4275	0.0745	24855	keystroke	f	n/a
12.532	0.06	25064	keystroke	o	n/a
12.7425	0.06	25485	keystroke	x	n/a
12.8175	0.075	25635	keystroke	Key.space	n/a
13.0425	0.075	26085	keystroke	j	n/a
13.1925	0.075	26385	keystroke	u	n/a
13.403	0.1505	26806	keystroke	m	n/a
13.508	0.0905	27016	keystroke	p	n/a
13.6285	0.105	27257	keystroke	s	n/a
14.0035	0.09	28007	keystroke	Key.space	n/a
14.184	0.104	28368	keystroke	o	n/a
14.304	0.074	28608	keystroke	v	n/a
14.544	0.1045	29088	keystroke	e	n/a
14.573	0.1055	29146	keystroke	r	n/a
14.7085	0.105	29417	keystroke	Key.space	n/a
15.1145	0.104	30229	keystroke	a	n/a
15.2335	0.06	30467	keystroke	Key.space	n/a
15.384	0.1205	30768	keystroke	l	n/a
15.5195	0.1795	31039	keystroke	a	n/a
15.609	0.1355	31218	keystroke	z	n/a
15.8795	0.09	31759	keystroke	y	n/a
15.9845	0.09	31969	keystroke	Key.space	n/a
16.225	0.09	32450	keystroke	d	n/a
16.33	0.075	32660	keystroke	o	n/a
16.45	0.06	32900	keystroke	g	n/a
16.57	0.1055	33140	keystroke	Key.enter	n/a
16.682	6.15	33364	prompt	n/a	enterprise researcher checks storage\n
17.5015	0.09	35003	keystroke	e	n/a
17.6065	0.105	35213	keystroke	n	n/a
17.7115	0.075	35423	keystroke	t	n/a
17.8305	0.1215	35661	keystroke	e	n/a
17.906	0.061	35812	keystroke	r	n/a
18.072	0.1045	36144	keystroke	p	n/a
18.2215	0.09	36443	keystroke	r	n/a
18.3415	0.06	36683	keystroke	i	n/a
18.4765	0.105	36953	keystroke	s	n/a
18.657	0.09	37314	keystroke	e	n/a
18.777	0.09	37554	keystroke	Key.space	n/a
19.032	0.06	38064	keystroke	r	n/a
19.047	0.09	38094	keystroke	e	n/a
19.2425	0.09	38485	keystroke	s	n/a
19.4225	0.075	38845	keystroke	e	n/a
19.558	0.105	39116	keystroke	a	n/a
19.678	0.06	39356	keystroke	r	n/a
19.873	0.0755	39746	keystroke	c	n/a
19.9335	0.06	39867	keystroke	h	n/a
20.0685	0.09	40137	keystroke	e	n/a
20.1135	0.09	40227	keystroke	r	n/a
20.2335	0.075	40467	keystroke	Key.space	n/a
20.5335	0.0905	41067	keystroke	c	n/a
20.609	0.075	41218	keystroke	h	n/a
20.699	0.0895	41398	keystroke	e	n/a
20.759	0.1195	41518	keystroke	c	n/a
20.8635	0.105	41727	keystroke	k	n/a
21.0135	0.12	42027	keystroke	s	n/a
21.1345	0.0895	42269	keystroke	Key.space	n/a
21.584	0.0905	43168	keystroke	s	n/a
21.7795	0.045	43559	keystroke	t	n/a
21.8545	0.105	43709	keystroke	o	n/a
21.9895	0.09	43979	keystroke	r	n/a
22.2	0.075	44400	keystroke	a	n/a
22.38	0.105	44760	keystroke	g	n/a
22.455	0.105	44910	keystroke	e	n/a
22.725	0.105	45450	keystroke	Key.enter	n/a
22.8365	5.594	45673	prompt	n/a	formerly focal morrison wood\n
23.746	0.06	47492	keystroke	f	n/a
23.821	0.09	47642	keystroke	o	n/a
23.896	0.075	47792	keystroke	r	n/a
24.016	0.105	48032	keystroke	m	n/a
24.8415	0.105	49683	keystroke	e	n/a
24.9015	0.0895	49803	keystroke	r	n/a
25.0365	0.09	50073	keystroke	l	n/a
25.2615	0.105	50523	keystroke	y	n/a
25.4265	0.09	50853	keystroke	Key.space	n/a
25.8475	0.06	51695	keystroke	f	n/a
25.9375	0.09	51875	keystroke	o	n/a
26.0575	0.045	52115	keystroke	c	n/a
26.163	0.075	52326	keystroke	a	n/a
26.268	0.1045	52536	keystroke	l	n/a
26.3725	0.06	52745	keystroke	Key.space	n/a
26.5375	0.06	53075	keystroke	m	n/a
26.6725	0.1055	53345	keystroke	o	n/a
26.793	0.06	53586	keystroke	r	n/a
26.9275	0.076	53855	keystroke	r	n/a
27.0325	0.075	54065	keystroke	i	n/a
27.1525	0.09	54305	keystroke	s	n/a
27.2575	0.1505	54515	keystroke	o	n/a
27.348	0.105	54696	keystroke	n	n/a
27.468	0.09	54936	keystroke	Key.space	n/a
27.753	0.1505	55506	keystroke	w	n/a
27.9185	0.03	55837	keystroke	o	n/a
28.0085	0.105	56017	keystroke	o	n/a
28.1285	0.105	56257	keystroke	d	n/a
28.3085	0.1205	56617	keystroke	Key.enter	n/a
28.4335	6.917	56867	prompt	n/a	deeper admitted violin bulletin\n
29.0745	0.12	58149	keystroke	d	n/a
29.2245	0.105	58449	keystroke	e	n/a
29.3895	0.135	58779	keystroke	e	n/a
29.5395	0.1355	59079	keystroke	p	n/a
30.155	0.105	60310	keystroke	e	n/a
30.215	0.09	60430	keystroke	r	n/a
30.32	0.105	60640	keystroke	Key.space	n/a
30.5155	0.09	61031	keystroke	a	n/a
30.9355	0.09	61871	keystroke	d	n/a
31.0855	0.075	62171	keystroke	m	n/a
31.2355	0.0905	62471	keystroke	i	n/a
31.356	0.045	62712	keystroke	t	n/a
31.461	0.105	62922	keystroke	t	n/a
31.581	0.09	63162	keystroke	e	n/a
31.731	0.0905	63462	keystroke	d	n/a
31.8515	0.075	63703	keystroke	Key.space	n/a
32.5265	0.06	65053	keystroke	v	n/a
32.6465	0.151	65293	keystroke	i	n/a
32.7065	0.06	65413	keystroke	o	n/a
32.8865	0.105	65773	keystroke	l	n/a
33.3825	0.1205	66765	keystroke	i	n/a
33.458	0.12	66916	keystroke	n	n/a
33.548	0.09	67096	keystroke	Key.space	n/a
34.073	0.06	68146	keystroke	b	n/a
34.118	0.0895	68236	keystroke	u	n/a
34.328	0.075	68656	keystroke	l	n/a
34.448	0.09	68896	keystroke	l	n/a
34.553	0.1055	69106	keystroke	e	n/a
34.7485	0.045	69497	keystroke	t	n/a
34.8385	0.12	69677	keystroke	i	n/a
34.9135	0.105	69827	keystroke	n	n/a
35.2135	0.135	70427	keystroke	Key.enter	n/a
35.359	5.815	70718	prompt	n/a	stages pictures get oakland\n
35.9635	0.0905	71927	keystroke	s	n/a
36.144	0.06	72288	keystroke	t	n/a
36.189	0.105	72378	keystroke	a	n/a
36.444	0.105	72888	keystroke	g	n/a
36.535	0.074	73070	keystroke	e	n/a
36.7145	0.075	73429	keystroke	s	n/a
36.8195	0.09	73639	keystroke	Key.space	n/a
37.0145	0.106	74029	keystroke	p	n/a
37.1645	0.06	74329	keystroke	r	n/a
37.465	0.09	74930	keystroke	Key.backspace	n/a
37.645	0.0905	75290	keystroke	i	n/a
37.7355	0.09	75471	keystroke	c	n/a
38.111	0.075	76222	keystroke	t	n/a
38.231	0.089	76462	keystroke	u	n/a
38.336	0.12	76672	keystroke	r	n/a
38.426	0.1345	76852	keystroke	e	n/a
38.876	0.0905	77752	keystroke	s	n/a
39.0105	0.09	78021	keystroke	Key.space	n/a
39.2355	0.091	78471	keystroke	g	n/a
39.5815	0.135	79163	keystroke	e	n/a
39.6565	0.105	79313	keystroke	t	n/a
39.7765	0.09	79553	keystroke	Key.space	n/a
40.107	0.12	80214	keystroke	o	n/a
40.242	0.075	80484	keystroke	a	n/a
40.362	0.075	80724	keystroke	k	n/a
40.587	0.0905	81174	keystroke	l	n/a
40.692	0.075	81384	keystroke	a	n/a
40.812	0.105	81624	keystroke	n	n/a
40.902	0.09	81804	keystroke	d	n/a
41.097	0.075	82194	keystroke	Key.enter	n/a
41.1775	6.735	82355	prompt	n/a	wife beam right voyeurweb\n
41.893	0.105	83786	keystroke	w	n/a
42.043	0.075	84086	keystroke	i	n/a
42.2985	0.12	84597	keystroke	f	n/a
42.3585	0.12	84717	keystroke	e	n/a
42.4635	0.105	84927	keystroke	Key.space	n/a
43.2885	0.075	86577	keystroke	b	n/a
43.3335	0.1055	86667	keystroke	e	n/a
43.499	0.09	86998	keystroke	a	n/a
43.589	0.0605	87178	keystroke	m	n/a
43.7545	0.09	87509	keystroke	Key.space	n/a
44.009	0.045	88018	keystroke	r	n/a
44.069	0.1355	88138	keystroke	i	n/a
44.2195	0.09	88439	keystroke	g	n/a
44.3105	0.074	88621	keystroke	h	n/a
44.4145	0.0595	88829	keystroke	t	n/a
44.504	0.09	89008	keystroke	Key.space	n/a
45.0145	0.045	90029	keystroke	v	n/a
45.1795	0.165	90359	keystroke	o	n/a
45.3455	0.074	90691	keystroke	y	n/a
45.57	0.12	91140	keystroke	e	n/a
45.63	0.09	91260	keystroke	r	n/a
46.6355	0.075	93271	keystroke	Key.backspace	n/a
46.8605	0.09	93721	keystroke	u	n/a
46.9655	0.09	93931	keystroke	r	n/a
47.2805	0.12	94561	keystroke	w	n/a
47.461	0.12	94922	keystroke	e	n/a
47.566	0.09	95132	keystroke	b	n/a
47.791	0.12	95582	keystroke	Key.enter	n/a
47.916	5.786	95832	prompt	n/a	trades killing spider clark\n
48.766	0.06	97532	keystroke	t	n/a
48.781	0.165	97562	keystroke	r	n/a
49.081	0.1345	98162	keystroke	a	n/a
49.1555	0.12	98311	keystroke	d	n/a
49.3505	0.075	98701	keystroke	e	n/a
49.5305	0.105	99061	keystroke	s	n/a
49.6205	0.105	99241	keystroke	Key.space	n/a
49.9505	0.045	99901	keystroke	k	n/a
50.1005	0.075	100201	keystroke	i	n/a
50.2955	0.045	100591	keystroke	l	n/a
50.4005	0.075	100801	keystroke	l	n/a
50.6105	0.105	101221	keystroke	i	n/a
50.6555	0.09	101311	keystroke	n	n/a
50.8055	0.09	101611	keystroke	g	n/a
51.0605	0.075	102121	keystroke	Key.space	n/a
51.42	0.09	102840	keystroke	s	n/a
51.63	0.045	103260	keystroke	p	n/a
52.0805	0.09	104161	keystroke	i	n/a
52.3955	0.105	104791	keystroke	d	n/a
52.6055	0.12	105211	keystroke	e	n/a
52.6655	0.075	105331	keystroke	r	n/a
52.7855	0.09	105571	keystroke	Key.space	n/a
52.95	0.105	105900	keystroke	c	n/a
53.07	0.105	106140	keystroke	l	n/a
53.205	0.1205	106410	keystroke	a	n/a
53.28	0.1205	106560	keystroke	r	n/a
53.4305	0.09	106861	keystroke	k	n/a
53.6105	0.09	107221	keystroke	Key.enter	n/a
53.708	8.0025	107416	prompt	n/a	bennett translator commonly restriction\n
54.4195	0.12	108839	keystroke	b	n/a
54.57	0.075	109140	keystroke	e	n/a
54.705	0.06	109410	keystroke	n	n/a
54.81	0.075	109620	keystroke	n	n/a
54.9	0.135	109800	keystroke	e	n/a
55.125	0.135	110250	keystroke	t	n/a
55.32	0.1195	110640	keystroke	t	n/a
56.0695	0.09	112139	keystroke	Key.space	n/a
56.4745	0.105	112949	keystroke	t	n/a
56.5495	0.105	113099	keystroke	r	n/a
56.7445	0.09	113489	keystroke	a	n/a
56.8495	0.105	113699	keystroke	n	n/a
56.9395	0.1045	113879	keystroke	s	n/a
57.089	0.106	114178	keystroke	l	n/a
57.149	0.09	114298	keystroke	a	n/a
57.344	0.075	114688	keystroke	t	n/a
57.5695	0.105	115139	keystroke	o	n/a
57.6895	0.09	115379	keystroke	r	n/a
57.8095	0.09	115619	keystroke	Key.space	n/a
58.0195	0.075	116039	keystroke	c	n/a
58.0795	0.105	116159	keystroke	o	n/a
58.1695	0.165	116339	keystroke	m	n/a
59.249	0.09	118498	keystroke	m	n/a
59.474	0.12	118948	keystroke	o	n/a
59.534	0.106	119068	keystroke	n	n/a
59.7295	0.134	119459	keystroke	l	n/a
59.9685	0.09	119937	keystroke	y	n/a
60.1335	0.105	120267	keystroke	Key.space	n/a
60.2985	0.12	120597	keystroke	r	n/a
60.3885	0.0905	120777	keystroke	e	n/a
60.554	0.075	121108	keystroke	s	n/a
60.719	0.1195	121438	keystroke	t	n/a
60.794	0.0895	121588	keystroke	r	n/a
60.8685	0.091	121737	keystroke	i	n/a
60.9895	0.074	121979	keystroke	c	n/a
61.1995	0.045	122399	keystroke	t	n/a
61.2285	0.091	122457	keystroke	i	n/a
61.2885	0.075	122577	keystroke	o	n/a
61.4385	0.09	122877	keystroke	n	n/a
61.5885	0.12	123177	keystroke	Key.enter	n/a
61.7195	10.5495	123439	prompt	n/a	fork promoted warm seal\n
62.5335	0.075	125067	keystroke	f	n/a
62.5935	0.09	125187	keystroke	o	n/a
62.6985	0.075	125397	keystroke	r	n/a
62.8335	0.0905	125667	keystroke	k	n/a
63.029	0.105	126058	keystroke	Key.space	n/a
63.643	0.09	127286	keystroke	p	n/a
63.748	0.075	127496	keystroke	r	n/a
63.868	0.12	127736	keystroke	o	n/a
63.973	0.075	127946	keystroke	m	n/a
64.063	0.105	128126	keystroke	o	n/a
64.183	0.09	128366	keystroke	t	n/a
64.3035	0.09	128607	keystroke	e	n/a
64.4835	0.09	128967	keystroke	d	n/a
64.5885	0.075	129177	keystroke	Key.space	n/a
65.0685	0.075	130137	keystroke	a	n/a
67.6055	0.013	135211	keystroke	Key.backspace	n/a
69.253	0.09	138506	keystroke	w	n/a
69.433	0.03	138866	keystroke	a	n/a
69.628	0.1195	139256	keystroke	r	n/a
69.883	0.09	139766	keystroke	m	n/a
70.018	0.09	140036	keystroke	Key.space	n/a
70.7675	0.12	141535	keystroke	s	n/a
71.0225	0.12	142045	keystroke	e	n/a
71.1875	0.1045	142375	keystroke	a	n/a
71.9825	0.105	143965	keystroke	l	n/a
72.1775	0.09	144355	keystroke	Key.enter	n/a
72.272	10.0305	144544	prompt	n/a	makes indices gotten certificate\n
73.032	0.0905	146064	keystroke	n	n/a
73.1075	0.105	146215	keystroke	a	n/a
73.3175	0.09	146635	keystroke	k	n/a
73.4225	0.075	146845	keystroke	e	n/a
73.7075	0.09	147415	keystroke	=	n/a
74.6825	0.075	149365	keystroke	Key.backspace	n/a
74.8475	0.045	149695	keystroke	Key.backspace	n/a
74.9675	0.06	149935	keystroke	Key.backspace	n/a
75.1025	0.045	150205	keystroke	Key.backspace	n/a
75.3125	0.09	150625	keystroke	Key.backspace	n/a
75.897	0.075	151794	keystroke	m	n/a
75.987	0.09	151974	keystroke	a	n/a
76.107	0.09	152214	keystroke	k	n/a
76.212	0.06	152424	keystroke	e	n/a
76.392	0.075	152784	keystroke	s	n/a
76.437	0.105	152874	keystroke	Key.space	n/a
76.632	0.075	153264	keystroke	s	n/a
76.9915	0.09	153983	keystroke	Key.backspace	n/a
77.4265	0.1055	154853	keystroke	i	n/a
77.487	0.09	154974	keystroke	n	n/a
77.592	0.09	155184	keystroke	d	n/a
77.697	0.075	155394	keystroke	i	n/a
77.802	0.105	155604	keystroke	c	n/a
77.9215	0.06	155843	keystroke	e	n/a
78.0865	0.075	156173	keystroke	s	n/a
78.1915	0.09	156383	keystroke	Key.space	n/a
78.881	0.075	157762	keystroke	g	n/a
78.971	0.09	157942	keystroke	o	n/a
79.121	0.075	158242	keystroke	t	n/a
79.481	0.075	158962	keystroke	t	n/a
79.7055	0.06	159411	keystroke	e	n/a
79.7805	0.075	159561	keystroke	n	n/a
79.9605	0.075	159921	keystroke	Key.space	n/a
80.111	0.09	160222	keystroke	c	n/a
80.351	0.12	160702	keystroke	e	n/a
80.396	0.09	160792	keystroke	r	n/a
80.576	0.06	161152	keystroke	t	n/a
80.651	0.105	161302	keystroke	i	n/a
80.771	0.075	161542	keystroke	f	n/a
80.861	0.0895	161722	keystroke	i	n/a
81.4465	0.089	162893	keystroke	c	n/a
81.6715	0.074	163343	keystroke	a	n/a
81.8355	0.105	163671	keystroke	t	n/a
81.9255	0.105	163851	keystroke	e	n/a
82.2105	0.09	164421	keystroke	Key.enter	n/a
82.307	7.4345	164614	prompt	n/a	tale host constitution deputy\n
82.9905	0.06	165981	keystroke	t	n/a
83.1405	0.105	166281	keystroke	a	n/a
83.2755	0.105	166551	keystroke	l	n/a
83.4105	0.09	166821	keystroke	e	n/a
83.5155	0.06	167031	keystroke	Key.space	n/a
83.7255	0.105	167451	keystroke	h	n/a
83.8605	0.09	167721	keystroke	o	n/a
83.9805	0.105	167961	keystroke	s	n/a
84.0555	0.075	168111	keystroke	t	n/a
84.1155	0.105	168231	keystroke	Key.space	n/a
84.295	0.105	168590	keystroke	c	n/a
84.37	0.135	168740	keystroke	o	n/a
84.43	0.105	168860	keystroke	n	n/a
84.595	0.105	169190	keystroke	s	n/a
85.1955	0.06	170391	keystroke	t	n/a
85.7055	0.09	171411	keystroke	i	n/a
85.8405	0.09	171681	keystroke	t	n/a
85.9755	0.0745	171951	keystroke	i	n/a
86.17	0.09	172340	keystroke	u	n/a
86.5605	0.075	173121	keystroke	Key.backspace	n/a
87.2055	0.075	174411	keystroke	Key.backspace	n/a
87.5505	0.12	175101	keystroke	u	n/a
87.6555	0.075	175311	keystroke	t	n/a
88.1195	0.105	176239	keystroke	i	n/a
88.1645	0.09	176329	keystroke	o	n/a
88.3445	0.105	176689	keystroke	n	n/a
88.6295	0.105	177259	keystroke	Key.space	n/a
88.8095	0.135	177619	keystroke	d	n/a
89.0045	0.09	178009	keystroke	e	n/a
89.1245	0.105	178249	keystroke	p	n/a
89.2595	0.09	178519	keystroke	u	n/a
89.3645	0.09	178729	keystroke	t	n/a
89.5445	0.06	179089	keystroke	y	n/a
89.6345	0.105	179269	keystroke	Key.enter	n/a
89.745	5.095	179490	prompt	n/a	getting crime range sometimes\n
90.6395	0.09	181279	keystroke	g	n/a
90.7145	0.12	181429	keystroke	e	n/a
90.8495	0.045	181699	keystroke	t	n/a
90.9695	0.09	181939	keystroke	t	n/a
91.0745	0.135	182149	keystroke	i	n/a
91.1345	0.09	182269	keystroke	n	n/a
91.1945	0.06	182389	keystroke	g	n/a
91.2995	0.12	182599	keystroke	Key.space	n/a
91.7945	0.075	183589	keystroke	c	n/a
91.9895	0.06	183979	keystroke	r	n/a
92.8295	0.135	185659	keystroke	i	n/a
92.8895	0.12	185779	keystroke	m	n/a
93.0395	0.105	186079	keystroke	e	n/a
93.0985	0.1055	186197	keystroke	Key.space	n/a
93.249	0.09	186498	keystroke	r	n/a
93.399	0.09	186798	keystroke	a	n/a
93.504	0.09	187008	keystroke	n	n/a
93.654	0.12	187308	keystroke	g	n/a
93.759	0.09	187518	keystroke	e	n/a
93.864	0.09	187728	keystroke	Key.space	n/a
93.9835	0.075	187967	keystroke	s	n/a
94.0735	0.12	188147	keystroke	o	n/a
94.1335	0.09	188267	keystroke	m	n/a
94.2085	0.06	188417	keystroke	e	n/a
94.3135	0.075	188627	keystroke	t	n/a
94.4185	0.105	188837	keystroke	i	n/a
94.4635	0.09	188927	keystroke	m	n/a
94.5385	0.06	189077	keystroke	e	n/a
94.6735	0.105	189347	keystroke	s	n/a
94.7635	0.075	189527	keystroke	Key.enter	n/a
94.8435	5.2005	189687	prompt	n/a	verified table mailed bible\n
95.544	0.075	191088	keystroke	v	n/a
95.814	0.1045	191628	keystroke	e	n/a
95.8735	0.09	191747	keystroke	r	n/a
95.9485	0.09	191897	keystroke	i	n/a
96.0535	0.075	192107	keystroke	f	n/a
96.1135	0.105	192227	keystroke	i	n/a
96.2485	0.09	192497	keystroke	e	n/a
96.3835	0.09	192767	keystroke	d	n/a
96.4885	0.1355	192977	keystroke	Key.space	n/a
96.714	0.045	193428	keystroke	t	n/a
96.879	0.06	193758	keystroke	a	n/a
96.9535	0.0745	193907	keystroke	b	n/a
97.134	0.075	194268	keystroke	l	n/a
97.223	0.0905	194446	keystroke	e	n/a
97.2985	0.075	194597	keystroke	Key.space	n/a
97.4785	0.075	194957	keystroke	m	n/a
97.5835	0.075	195167	keystroke	a	n/a
97.7935	0.0445	195587	keystroke	i	n/a
98.063	0.09	196126	keystroke	l	n/a
98.168	0.06	196336	keystroke	e	n/a
98.2885	0.089	196577	keystroke	d	n/a
98.3475	0.09	196695	keystroke	Key.space	n/a
98.5875	0.0605	197175	keystroke	b	n/a
98.708	0.03	197416	keystroke	l	n/a
99.083	0.045	198166	keystroke	Key.backspace	n/a
99.248	0.075	198496	keystroke	i	n/a
99.353	0.06	198706	keystroke	b	n/a
99.488	0.09	198976	keystroke	l	n/a
99.773	0.12	199546	keystroke	e	n/a
99.968	0.075	199936	keystroke	Key.enter	n/a
100.047	6.1165	200094	prompt	n/a	navigation array dvds cedar\n
100.973	0.09	201946	keystroke	n	n/a
101.258	0.1195	202516	keystroke	a	n/a
101.4225	0.09	202845	keystroke	v	n/a
101.5275	0.09	203055	keystroke	i	n/a
101.6625	0.075	203325	keystroke	g	n/a
101.8275	0.075	203655	keystroke	a	n/a
101.9175	0.075	203835	keystroke	t	n/a
102.0375	0.0745	204075	keystroke	i	n/a
102.067	0.105	204134	keystroke	o	n/a
102.217	0.105	204434	keystroke	n	n/a
102.307	0.09	204614	keystroke	Key.space	n/a
102.592	0.075	205184	keystroke	a	n/a
102.7275	0.09	205455	keystroke	r	n/a
102.908	0.12	205816	keystroke	r	n/a
103.013	0.0745	206026	keystroke	a	n/a
103.2225	0.06	206445	keystroke	y	n/a
103.4175	0.12	206835	keystroke	Key.space	n/a
104.1375	0.12	208275	keystroke	d	n/a
104.2125	0.15	208425	keystroke	v	n/a
104.3325	0.105	208665	keystroke	d	n/a
104.5875	0.12	209175	keystroke	s	n/a
104.7825	0.105	209565	keystroke	Key.space	n/a
105.4725	0.12	210945	keystroke	c	n/a
105.5475	0.105	211095	keystroke	e	n/a
105.6975	0.1345	211395	keystroke	d	n/a
105.877	0.12	211754	keystroke	a	n/a
105.952	0.105	211904	keystroke	r	n/a
106.042	0.12	212084	keystroke	Key.enter	n/a
106.1675	8.4395	212335	prompt	n/a	exam indirect jewellery norway\n
107.182	0.075	214364	keystroke	e	n/a
107.376	0.091	214752	keystroke	x	n/a
107.512	0.09	215024	keystroke	a	n/a
107.647	0.105	215294	keystroke	m	n/a
107.766	0.076	215532	keystroke	Key.space	n/a
108.052	0.134	216104	keystroke	i	n/a
108.112	0.104	216224	keystroke	n	n/a
108.217	0.089	216434	keystroke	d	n/a
108.322	0.104	216644	keystroke	i	n/a
108.666	0.076	217332	keystroke	r	n/a
109.071	0.076	218142	keystroke	Key.backspace	n/a
109.716	0.09	219432	keystroke	r	n/a
109.791	0.09	219582	keystroke	e	n/a
109.9255	0.105	219851	keystroke	c	n/a
110.151	0.0605	220302	keystroke	t	n/a
110.2405	0.105	220481	keystroke	Key.space	n/a
111.0665	0.09	222133	keystroke	j	n/a
111.2615	0.105	222523	keystroke	e	n/a
111.4565	0.1495	222913	keystroke	w	n/a
111.5465	0.1045	223093	keystroke	e	n/a
111.9805	0.12	223961	keystroke	l	n/a
112.1605	0.12	224321	keystroke	l	n/a
112.3255	0.105	224651	keystroke	e	n/a
112.3855	0.105	224771	keystroke	r	n/a
113.391	0.075	226782	keystroke	y	n/a
113.526	0.075	227052	keystroke	Key.space	n/a
113.7055	0.09	227411	keystroke	n	n/a
113.7655	0.09	227531	keystroke	o	n/a
113.8855	0.075	227771	keystroke	r	n/a
114.0505	0.09	228101	keystroke	w	n/a
114.2155	0.075	228431	keystroke	a	n/a
114.3955	0.075	228791	keystroke	y	n/a
114.5005	0.105	229001	keystroke	Key.enter	n/a
114.61	7.601	229220	prompt	n/a	implemented scholarship sparc handles\n
115.64	0.12	231280	keystroke	i	n/a
115.7155	0.0895	231431	keystroke	m	n/a
115.88	0.135	231760	keystroke	p	n/a
115.925	0.12	231850	keystroke	l	n/a
116.06	0.105	232120	keystroke	e	n/a
116.255	0.0755	232510	keystroke	m	n/a
116.3905	0.12	232781	keystroke	e	n/a
116.5855	0.105	233171	keystroke	n	n/a
116.7205	0.12	233441	keystroke	t	n/a
116.8255	0.075	233651	keystroke	e	n/a
117.02	0.09	234040	keystroke	d	n/a
117.125	0.105	234250	keystroke	Key.space	n/a
117.4105	0.105	234821	keystroke	s	n/a
117.6355	0.06	235271	keystroke	c	n/a
117.7105	0.135	235421	keystroke	h	n/a
117.8455	0.06	235691	keystroke	o	n/a
118.0105	0.09	236021	keystroke	l	n/a
118.1455	0.105	236291	keystroke	a	n/a
118.2205	0.09	236441	keystroke	r	n/a
118.4155	0.075	236831	keystroke	s	n/a
118.4755	0.1345	236951	keystroke	h	n/a
118.535	0.09	237070	keystroke	i	n/a
118.745	0.09	237490	keystroke	p	n/a
118.85	0.09	237700	keystroke	Key.space	n/a
120.0795	0.105	240159	keystroke	s	n/a
120.1695	0.09	240339	keystroke	p	n/a
120.2895	0.06	240579	keystroke	a	n/a
120.4245	0.06	240849	keystroke	r	n/a
120.6795	0.045	241359	keystroke	c	n/a
120.7695	0.09	241539	keystroke	Key.space	n/a
121.3095	0.12	242619	keystroke	h	n/a
121.4145	0.075	242829	keystroke	a	n/a
121.5195	0.105	243039	keystroke	n	n/a
121.6095	0.105	243219	keystroke	d	n/a
121.7595	0.09	243519	keystroke	l	n/a
121.9095	0.09	243819	keystroke	e	n/a
121.9545	0.12	243909	keystroke	s	n/a
122.105	0.105	244210	keystroke	Key.enter	n/a
122.2225	6.363	244445	prompt	n/a	estonia pensions forecast kate\n
122.945	0.075	245890	keystroke	e	n/a
123.29	0.075	246580	keystroke	s	n/a
123.47	0.0895	246940	keystroke	t	n/a
123.5445	0.09	247089	keystroke	o	n/a
123.6045	0.1045	247209	keystroke	n	n/a
123.769	0.09	247538	keystroke	i	n/a
123.919	0.09	247838	keystroke	a	n/a
124.024	0.135	248048	keystroke	Key.space	n/a
124.294	0.09	248588	keystroke	p	n/a
124.834	0.045	249668	keystroke	e	n/a
124.909	0.105	249818	keystroke	n	n/a
125.509	0.075	251018	keystroke	s	n/a
125.614	0.135	251228	keystroke	i	n/a
125.689	0.105	251378	keystroke	o	n/a
125.839	0.12	251678	keystroke	n	n/a
126.004	0.105	252008	keystroke	s	n/a
126.169	0.09	252338	keystroke	Key.space	n/a
126.589	0.12	253178	keystroke	f	n/a
126.739	0.105	253478	keystroke	o	n/a
126.874	0.12	253748	keystroke	r	n/a
126.979	0.075	253958	keystroke	e	n/a
127.144	0.105	254288	keystroke	c	n/a
127.339	0.195	254678	keystroke	a	n/a
127.459	0.1195	254918	keystroke	s	n/a
127.6835	0.075	255367	keystroke	t	n/a
127.7885	0.105	255577	keystroke	Key.space	n/a
128.0135	0.09	256027	keystroke	k	n/a
128.1335	0.0905	256267	keystroke	a	n/a
128.284	0.075	256568	keystroke	t	n/a
128.374	0.09	256748	keystroke	e	n/a
128.479	0.105	256958	keystroke	Key.enter	n/a
128.5885	8.6805	257177	prompt	n/a	sustained who'd necessarily comm\n
129.3035	0.09	258607	keystroke	s	n/a
129.423	0.09	258846	keystroke	u	n/a
129.483	0.061	258966	keystroke	s	n/a
129.618	0.091	259236	keystroke	t	n/a
129.754	0.059	259508	keystroke	a	n/a
129.843	0.1355	259686	keystroke	i	n/a
129.919	0.1195	259838	keystroke	n	n/a
130.0235	0.09	260047	keystroke	e	n/a
130.1735	0.09	260347	keystroke	d	n/a
130.2785	0.12	260557	keystroke	Key.space	n/a
130.5335	0.09	261067	keystroke	w	n/a
130.6385	0.105	261277	keystroke	h	n/a
130.7135	0.075	261427	keystroke	o	n/a
131.3885	0.09	262777	keystroke	'	n/a
131.5985	0.09	263197	keystroke	s	n/a
131.8685	0.045	263737	keystroke	Key.space	n/a
132.1385	0.045	264277	keystroke	Key.backspace	n/a
132.2435	0.06	264487	keystroke	Key.backspace	n/a
132.3485	0.075	264697	keystroke	d	n/a
132.453	0.09	264906	keystroke	Key.space	n/a
133.353	0.09	266706	keystroke	n	n/a
133.518	0.105	267036	keystroke	e	n/a
133.6675	0.1655	267335	keystroke	c	n/a
133.7725	0.1055	267545	keystroke	e	n/a
133.998	0.075	267996	keystroke	s	n/a
134.1325	0.105	268265	keystroke	s	n/a
134.298	0.09	268596	keystroke	a	n/a
134.4625	0.0905	268925	keystroke	r	n/a
134.7025	0.075	269405	keystroke	i	n/a
135.0475	0.106	270095	keystroke	l	n/a
135.3175	0.1205	270635	keystroke	t	n/a
135.737	0.09	271474	keystroke	Key.backspace	n/a
135.843	0.06	271686	keystroke	y	n/a
136.007	0.09	272014	keystroke	Key.space	n/a
136.667	0.09	273334	keystroke	c	n/a
136.758	0.119	273516	keystroke	o	n/a
136.832	0.06	273664	keystroke	m	n/a
136.952	0.091	273904	keystroke	m	n/a
137.163	0.1045	274326	keystroke	Key.enter	n/a
137.275	11.105	274550	prompt	n/a	limit horror hometown pills\n
138.0925	0.075	276185	keystroke	l	n/a
138.2875	0.105	276575	keystroke	i	n/a
138.3775	0.135	276755	keystroke	m	n/a
138.4975	0.075	276995	keystroke	i	n/a
138.5575	0.03	277115	keystroke	m	n/a
138.6325	0.09	277265	keystroke	t	n/a
138.7825	0.1345	277565	keystroke	Key.space	n/a
139.472	0.06	278944	keystroke	h	n/a
139.562	0.0755	279124	keystroke	o	n/a
139.7425	0.03	279485	keystroke	o	n/a
140.0875	0.074	280175	keystroke	Key.backspace	n/a
140.3565	0.0755	280713	keystroke	Key.backspace	n/a
140.507	0.045	281014	keystroke	Key.backspace	n/a
140.6415	0.045	281283	keystroke	Key.backspace	n/a
140.7615	0.03	281523	keystroke	Key.backspace	n/a
140.8515	0.03	281703	keystroke	Key.backspace	n/a
140.9565	0.075	281913	keystroke	Key.backspace	n/a
141.1815	0.09	282363	keystroke	t	n/a
141.3165	0.105	282633	keystroke	Key.space	n/a
141.7365	0.06	283473	keystroke	Key.backspace	n/a
141.8565	0.075	283713	keystroke	Key.backspace	n/a
142.2165	0.075	284433	keystroke	i	n/a
142.2925	0.074	284585	keystroke	t	n/a
142.3815	0.105	284763	keystroke	Key.space	n/a
143.7765	0.12	287553	keystroke	h	n/a
143.8965	0.105	287793	keystroke	o	n/a
144.4065	0.06	288813	keystroke	r	n/a
144.5265	0.09	289053	keystroke	r	n/a
144.6615	0.105	289323	keystroke	o	n/a
144.7815	0.06	289563	keystroke	r	n/a
145.0065	0.105	290013	keystroke	Key.space	n/a
145.8765	0.09	291753	keystroke	h	n/a
145.9505	0.136	291901	keystroke	o	n/a
146.0255	0.105	292051	keystroke	m	n/a
146.0715	0.09	292143	keystroke	e	n/a
146.2815	0.09	292563	keystroke	o	n/a
146.625	0.06	293250	keystroke	Key.backspace	n/a
146.715	0.075	293430	keystroke	t	n/a
146.851	0.09	293702	keystroke	o	n/a
146.985	0.105	293970	keystroke	w	n/a
147.1055	0.075	294211	keystroke	n	n/a
147.2695	0.09	294539	keystroke	Key.space	n/a
147.4945	0.12	294989	keystroke	p	n/a
147.5995	0.105	295199	keystroke	i	n/a
147.989	0.09	295978	keystroke	l	n/a
148.109	0.105	296218	keystroke	s	n/a
148.2885	0.09	296577	keystroke	Key.enter	n/a
148.3845	8.2685	296769	prompt	n/a	penetration chrysler banner bull\n
149.098	0.12	298196	keystroke	p	n/a
149.248	0.09	298496	keystroke	e	n/a
149.3525	0.075	298705	keystroke	m	n/a
149.6525	0.0305	299305	keystroke	Key.backspace	n/a
149.863	0.075	299726	keystroke	n	n/a
149.9525	0.075	299905	keystroke	e	n/a
150.357	0.135	300714	keystroke	t	n/a
150.417	0.105	300834	keystroke	r	n/a
150.642	0.105	301284	keystroke	a	n/a
150.717	0.09	301434	keystroke	t	n/a
150.9265	0.2695	301853	keystroke	i	n/a
151.091	0.12	302182	keystroke	o	n/a
151.331	0.09	302662	keystroke	n	n/a
151.526	0.0895	303052	keystroke	Key.space	n/a
152.0055	0.075	304011	keystroke	c	n/a
152.0805	0.12	304161	keystroke	h	n/a
152.2155	0.0595	304431	keystroke	r	n/a
152.5305	0.09	305061	keystroke	y	n/a
152.6655	0.0895	305331	keystroke	s	n/a
152.875	0.09	305750	keystroke	l	n/a
153.055	0.1495	306110	keystroke	e	n/a
153.145	0.1195	306290	keystroke	t	n/a
153.2795	0.09	306559	keystroke	Key.space	n/a
153.819	0.075	307638	keystroke	Key.backspace	n/a
153.954	0.075	307908	keystroke	Key.backspace	n/a
154.4335	0.075	308867	keystroke	r	n/a
154.5085	0.105	309017	keystroke	Key.space	n/a
154.7185	0.1045	309437	keystroke	b	n/a
154.868	0.0895	309736	keystroke	a	n/a
154.9875	0.06	309975	keystroke	n	n/a
155.0925	0.1045	310185	keystroke	n	n/a
155.228	0.089	310456	keystroke	e	n/a
155.272	0.105	310544	keystroke	r	n/a
155.392	0.09	310784	keystroke	Key.space	n/a
155.7375	0.134	311475	keystroke	b	n/a
155.8425	0.075	311685	keystroke	u	n/a
156.0965	0.0595	312193	keystroke	l	n/a
156.216	0.076	312432	keystroke	l	n/a
156.561	0.091	313122	keystroke	Key.enter	n/a
156.6565	10.999	313313	prompt	n/a	turned argument geology surf\n
157.3705	0.0895	314741	keystroke	t	n/a
157.506	0.105	315012	keystroke	u	n/a
157.611	0.104	315222	keystroke	r	n/a
157.73	0.09	315460	keystroke	n	n/a
157.835	0.0745	315670	keystroke	e	n/a
157.9695	0.105	315939	keystroke	d	n/a
158.0895	0.09	316179	keystroke	Key.space	n/a
158.3745	0.1345	316749	keystroke	a	n/a
158.45	0.12	316900	keystroke	r	n/a
158.6895	0.105	317379	keystroke	g	n/a
158.8095	0.075	317619	keystroke	u	n/a
158.9445	0.1345	317889	keystroke	e	n/a
159.0645	0.0595	318129	keystroke	m	n/a
159.259	0.09	318518	keystroke	n	n/a
159.364	0.0895	318728	keystroke	t	n/a
159.439	0.1045	318878	keystroke	Key.space	n/a
159.844	0.06	319688	keystroke	Key.backspace	n/a
159.964	0.075	319928	keystroke	Key.backspace	n/a
160.1135	0.074	320227	keystroke	Key.backspace	n/a
160.2475	0.075	320495	keystroke	Key.backspace	n/a
160.3975	0.12	320795	keystroke	Key.backspace	n/a
160.863	0.089	321726	keystroke	m	n/a
160.967	0.135	321934	keystroke	e	n/a
161.087	0.075	322174	keystroke	n	n/a
161.1775	0.09	322355	keystroke	t	n/a
161.2525	0.1045	322505	keystroke	Key.space	n/a
161.8665	0.0895	323733	keystroke	g	n/a
161.911	0.12	323822	keystroke	e	n/a
162.001	0.075	324002	keystroke	o	n/a
162.181	0.06	324362	keystroke	l	n/a
162.316	0.09	324632	keystroke	o	n/a
162.466	0.0895	324932	keystroke	g	n/a
162.6755	0.075	325351	keystroke	y	n/a
162.8105	0.09	325621	keystroke	Key.space	n/a
163.2455	0.105	326491	keystroke	s	n/a
163.3805	0.105	326761	keystroke	u	n/a
163.5005	0.09	327001	keystroke	r	n/a
163.92	0.075	327840	keystroke	f	n/a
167.642	0.012	335284	keystroke	Key.enter	n/a
167.6585	16.167	335317	prompt	n/a	toyota picture participating harvard\n
168.5985	0.0755	337197	keystroke	t	n/a
168.719	0.09	337438	keystroke	i	n/a
168.854	0.09	337708	keystroke	t	n/a
169.469	0.09	338938	keystroke	Key.backspace	n/a
169.6185	0.09	339237	keystroke	Key.backspace	n/a
170.2495	0.045	340499	keystroke	o	n/a
170.4585	0.075	340917	keystroke	y	n/a
170.5645	0.089	341129	keystroke	o	n/a
170.6695	0.09	341339	keystroke	t	n/a
170.924	0.12	341848	keystroke	a	n/a
171.059	0.09	342118	keystroke	Key.space	n/a
171.269	0.075	342538	keystroke	p	n/a
171.644	0.09	343288	keystroke	i	n/a
171.794	0.075	343588	keystroke	c	n/a
171.944	0.09	343888	keystroke	u	n/a
172.019	0.0455	344038	keystroke	t	n/a
172.349	0.135	344698	keystroke	r	n/a
172.439	0.09	344878	keystroke	e	n/a
172.559	0.12	345118	keystroke	Key.space	n/a
173.249	0.09	346498	keystroke	p	n/a
173.354	0.135	346708	keystroke	a	n/a
173.444	0.09	346888	keystroke	r	n/a
173.639	0.06	347278	keystroke	t	n/a
173.744	0.0755	347488	keystroke	i	n/a
173.8795	0.1045	347759	keystroke	c	n/a
173.969	0.09	347938	keystroke	i	n/a
174.089	0.0905	348178	keystroke	a	n/a
174.149	0.0905	348298	keystroke	p	n/a
174.314	0.075	348628	keystroke	t	n/a
174.434	0.12	348868	keystroke	i	n/a
174.509	0.09	349018	keystroke	n	n/a
174.629	0.045	349258	keystroke	g	n/a
174.734	0.12	349468	keystroke	Key.space	n/a
175.4995	0.09	350999	keystroke	Key.backspace	n/a
175.6645	0.075	351329	keystroke	Key.backspace	n/a
175.8295	0.045	351659	keystroke	Key.backspace	n/a
175.9945	0.045	351989	keystroke	Key.backspace	n/a
176.1145	0.075	352229	keystroke	Key.backspace	n/a
176.2495	0.075	352499	keystroke	Key.backspace	n/a
176.3845	0.075	352769	keystroke	Key.backspace	n/a
176.5195	0.03	353039	keystroke	Key.backspace	n/a
176.6095	0.075	353219	keystroke	Key.backspace	n/a
176.7295	0.075	353459	keystroke	Key.backspace	n/a
176.8495	0.06	353699	keystroke	Key.backspace	n/a
176.9545	0.075	353909	keystroke	Key.backspace	n/a
177.0895	0.06	354179	keystroke	Key.backspace	n/a
177.2245	0.045	354449	keystroke	Key.backspace	n/a
177.3445	0.045	354689	keystroke	Key.backspace	n/a
177.4495	0.075	354899	keystroke	Key.backspace	n/a
177.5695	0.06	355139	keystroke	Key.backspace	n/a
177.689	0.06	355378	keystroke	Key.backspace	n/a
177.9595	0.074	355919	keystroke	Key.backspace	n/a
178.7685	0.0755	357537	keystroke	t	n/a
178.874	0.0745	357748	keystroke	u	n/a
178.9935	0.135	357987	keystroke	r	n/a
179.0985	0.105	358197	keystroke	e	n/a
179.2185	0.0755	358437	keystroke	Key.space	n/a
179.594	0.075	359188	keystroke	p	n/a
179.654	0.12	359308	keystroke	a	n/a
179.729	0.09	359458	keystroke	r	n/a
179.909	0.06	359818	keystroke	t	n/a
179.984	0.09	359968	keystroke	i	n/a
180.1345	0.0295	360269	keystroke	s	n/a
180.464	0.06	360928	keystroke	Key.backspace	n/a
180.614	0.075	361228	keystroke	c	n/a
180.704	0.0755	361408	keystroke	i	n/a
181.3045	0.0895	362609	keystroke	p	n/a
181.379	0.1055	362758	keystroke	a	n/a
181.5745	0.06	363149	keystroke	t	n/a
181.6645	0.0895	363329	keystroke	i	n/a
181.7245	0.0745	363449	keystroke	n	n/a
181.769	0.075	363538	keystroke	g	n/a
181.874	0.09	363748	keystroke	Key.space	n/a
182.5335	0.105	365067	keystroke	h	n/a
182.6235	0.1205	365247	keystroke	a	n/a
182.669	0.12	365338	keystroke	r	n/a
182.9235	0.12	365847	keystroke	v	n/a
183.2545	0.1195	366509	keystroke	a	n/a
183.389	0.075	366778	keystroke	r	n/a
183.5395	0.09	367079	keystroke	d	n/a
183.734	0.09	367468	keystroke	Key.enter	n/a
183.829	9.732	367658	prompt	n/a	annotation published artists performances\n
184.514	0.0895	369028	keystroke	a	n/a
184.6485	0.06	369297	keystroke	n	n/a
184.7535	0.105	369507	keystroke	n	n/a
184.9795	0.0745	369959	keystroke	o	n/a
185.069	0.0755	370138	keystroke	t	n/a
185.189	0.1205	370378	keystroke	a	n/a
185.2645	0.09	370529	keystroke	t	n/a
185.5345	0.105	371069	keystroke	i	n/a
185.6095	0.105	371219	keystroke	o	n/a
185.7895	0.104	371579	keystroke	n	n/a
186.0435	0.091	372087	keystroke	Key.space	n/a
186.4045	0.12	372809	keystroke	p	n/a
186.6445	0.09	373289	keystroke	u	n/a
186.7495	0.09	373499	keystroke	b	n/a
186.8695	0.06	373739	keystroke	l	n/a
187.0345	0.06	374069	keystroke	o	n/a
187.0495	0.06	374099	keystroke	i	n/a
187.1835	0.105	374367	keystroke	s	n/a
187.3035	0.1205	374607	keystroke	h	n/a
187.439	0.06	374878	keystroke	e	n/a
187.574	0.105	375148	keystroke	d	n/a
187.694	0.105	375388	keystroke	Key.space	n/a
188.054	0.075	376108	keystroke	Key.backspace	n/a
188.189	0.075	376378	keystroke	Key.backspace	n/a
188.309	0.075	376618	keystroke	Key.backspace	n/a
188.444	0.06	376888	keystroke	Key.backspace	n/a
188.564	0.015	377128	keystroke	Key.backspace	n/a
188.654	0.075	377308	keystroke	Key.backspace	n/a
188.789	0.06	377578	keystroke	Key.backspace	n/a
189.389	0.075	378778	keystroke	i	n/a
189.494	0.075	378988	keystroke	s	n/a
189.584	0.09	379168	keystroke	h	n/a
189.704	0.09	379408	keystroke	e	n/a
189.854	0.105	379708	keystroke	d	n/a
189.929	0.105	379858	keystroke	Key.space	n/a
190.499	0.075	380998	keystroke	a	n/a
190.649	0.105	381298	keystroke	r	n/a
190.874	0.075	381748	keystroke	t	n/a
191.039	0.105	382078	keystroke	i	n/a
191.159	0.135	382318	keystroke	s	n/a
191.264	0.1055	382528	keystroke	t	n/a
191.4145	0.075	382829	keystroke	s	n/a
191.5795	0.12	383159	keystroke	Key.space	n/a
191.8045	0.105	383609	keystroke	p	n/a
191.8945	0.12	383789	keystroke	e	n/a
191.9695	0.12	383939	keystroke	r	n/a
192.3745	0.075	384749	keystroke	f	n/a
192.5545	0.12	385109	keystroke	o	n/a
192.6595	0.09	385319	keystroke	r	n/a
192.7795	0.09	385559	keystroke	m	n/a
192.8995	0.09	385799	keystroke	a	n/a
193.0045	0.105	386009	keystroke	n	n/a
193.1245	0.135	386249	keystroke	c	n/a
193.1845	0.105	386369	keystroke	e	n/a
193.3795	0.09	386759	keystroke	s	n/a
193.4395	0.12	386879	keystroke	Key.enter	n/a
193.564	5.1115	387128	prompt	n/a	temp third displaying allowance\n
194.444	0.12	388888	keystroke	t	n/a
194.549	0.105	389098	keystroke	e	n/a
194.714	0.12	389428	keystroke	m	n/a
194.879	0.12	389758	keystroke	p	n/a
195.089	0.09	390178	keystroke	Key.space	n/a
195.209	0.135	390418	keystroke	t	n/a
195.269	0.12	390538	keystroke	h	n/a
195.404	0.09	390808	keystroke	i	n/a
195.614	0.075	391228	keystroke	r	n/a
195.779	0.09	391558	keystroke	d	n/a
195.899	0.12	391798	keystroke	Key.space	n/a
196.139	0.09	392278	keystroke	d	n/a
196.259	0.105	392518	keystroke	i	n/a
196.394	0.09	392788	keystroke	s	n/a
196.514	0.135	393028	keystroke	p	n/a
196.574	0.135	393148	keystroke	l	n/a
196.664	0.0905	393328	keystroke	a	n/a
196.8595	0.09	393719	keystroke	y	n/a
196.9645	0.075	393929	keystroke	i	n/a
196.9945	0.105	393989	keystroke	n	n/a
197.0845	0.075	394169	keystroke	g	n/a
197.1895	0.104	394379	keystroke	Key.space	n/a
197.5045	0.089	395009	keystroke	a	n/a
197.6085	0.06	395217	keystroke	l	n/a
197.7295	0.06	395459	keystroke	l	n/a
197.8785	0.091	395757	keystroke	o	n/a
197.9545	0.089	395909	keystroke	w	n/a
198.1345	0.089	396269	keystroke	a	n/a
198.2535	0.0905	396507	keystroke	n	n/a
198.374	0.135	396748	keystroke	c	n/a
198.434	0.105	396868	keystroke	e	n/a
198.584	0.09	397168	keystroke	Key.enter	n/a
198.6785	6.447	397357	prompt	n/a	egypt earrings extremely feeds\n
199.574	0.09	399148	keystroke	e	n/a
199.8585	0.075	399717	keystroke	g	n/a
200.054	0.06	400108	keystroke	y	n/a
200.144	0.0895	400288	keystroke	p	n/a
200.2485	0.091	400497	keystroke	t	n/a
200.3845	0.105	400769	keystroke	Key.space	n/a
200.6995	0.075	401399	keystroke	e	n/a
201.0445	0.09	402089	keystroke	a	n/a
201.1945	0.105	402389	keystroke	r	n/a
201.464	0.045	402928	keystroke	r	n/a
201.629	0.105	403258	keystroke	i	n/a
201.689	0.09	403378	keystroke	n	n/a
201.735	0.074	403470	keystroke	g	n/a
201.9285	0.12	403857	keystroke	s	n/a
202.0635	0.1055	404127	keystroke	Key.space	n/a
202.2895	0.06	404579	keystroke	e	n/a
202.724	0.105	405448	keystroke	x	n/a
203.024	0.15	406048	keystroke	t	n/a
203.114	0.195	406228	keystroke	r	n/a
203.294	0.105	406588	keystroke	e	n/a
203.339	0.15	406678	keystroke	m	n/a
203.429	0.1045	406858	keystroke	e	n/a
203.564	0.0895	407128	keystroke	l	n/a
203.6535	0.09	407307	keystroke	y	n/a
203.7735	0.1055	407547	keystroke	Key.space	n/a
204.494	0.1345	408988	keystroke	f	n/a
204.584	0.075	409168	keystroke	e	n/a
204.719	0.105	409438	keystroke	e	n/a
204.899	0.135	409798	keystroke	d	n/a
204.989	0.105	409978	keystroke	s	n/a
205.035	0.089	410070	keystroke	Key.enter	n/a
205.1335	10.522	410267	prompt	n/a	chinese authors underlying bleeding\n
206.0845	0.059	412169	keystroke	c	n/a
206.1285	0.105	412257	keystroke	h	n/a
206.264	0.15	412528	keystroke	i	n/a
206.324	0.12	412648	keystroke	n	n/a
206.399	0.3	412798	keystroke	e	n/a
206.489	0.135	412978	keystroke	s	n/a
207.3885	0.106	414777	keystroke	e	n/a
207.5385	0.1205	415077	keystroke	Key.space	n/a
207.929	0.09	415858	keystroke	a	n/a
208.064	0.105	416128	keystroke	u	n/a
208.229	0.12	416458	keystroke	t	n/a
208.289	0.12	416578	keystroke	h	n/a
208.394	0.0905	416788	keystroke	o	n/a
208.4995	0.06	416999	keystroke	r	n/a
208.6945	0.105	417389	keystroke	s	n/a
208.829	0.1205	417658	keystroke	Key.space	n/a
209.2645	0.135	418529	keystroke	u	n/a
209.3395	0.105	418679	keystroke	n	n/a
209.4745	0.12	418949	keystroke	d	n/a
209.7745	0.105	419549	keystroke	e	n/a
209.8345	0.075	419669	keystroke	r	n/a
210.0595	0.0745	420119	keystroke	y	n/a
210.149	0.0905	420298	keystroke	l	n/a
210.374	0.09	420748	keystroke	i	n/a
210.419	0.105	420838	keystroke	n	n/a
210.509	0.105	421018	keystroke	g	n/a
210.629	0.12	421258	keystroke	Key.space	n/a
212.039	0.09	424078	keystroke	Key.backspace	n/a
212.204	0.075	424408	keystroke	Key.backspace	n/a
212.354	0.06	424708	keystroke	Key.backspace	n/a
212.489	0.075	424978	keystroke	Key.backspace	n/a
212.624	0.075	425248	keystroke	Key.backspace	n/a
212.939	0.075	425878	keystroke	Key.backspace	n/a
213.569	0.105	427138	keystroke	l	n/a
213.839	0.12	427678	keystroke	i	n/a
213.899	0.09	427798	keystroke	n	n/a
213.974	0.075	427948	keystroke	g	n/a
214.079	0.105	428158	keystroke	Key.space	n/a
214.319	0.105	428638	keystroke	b	n/a
214.4995	0.09	428999	keystroke	l	n/a
214.6645	0.075	429329	keystroke	e	n/a
214.7845	0.105	429569	keystroke	e	n/a
214.9645	0.075	429929	keystroke	d	n/a
215.0545	0.135	430109	keystroke	i	n/a
215.1295	0.075	430259	keystroke	n	n/a
215.2195	0.06	430439	keystroke	g	n/a
215.2945	0.075	430589	keystroke	Key.space	n/a
215.5645	0.09	431129	keystroke	Key.enter	n/a
215.6585	5.2325	431317	prompt	n/a	traveller song luke starts\n
216.5245	0.1495	433049	keystroke	t	n/a
216.5395	0.1045	433079	keystroke	r	n/a
216.839	0.1505	433678	keystroke	a	n/a
217.529	0.105	435058	keystroke	v	n/a
217.724	0.075	435448	keystroke	e	n/a
217.844	0.06	435688	keystroke	l	n/a
217.994	0.105	435988	keystroke	l	n/a
218.159	0.09	436318	keystroke	e	n/a
218.3545	0.075	436709	keystroke	r	n/a
218.4745	0.0895	436949	keystroke	Key.space	n/a
218.699	0.075	437398	keystroke	s	n/a
218.759	0.12	437518	keystroke	o	n/a
218.819	0.1205	437638	keystroke	n	n/a
218.924	0.0755	437848	keystroke	g	n/a
219.0435	0.1055	438087	keystroke	Key.space	n/a
219.24	0.0745	438480	keystroke	l	n/a
219.479	0.09	438958	keystroke	i	n/a
219.689	0.09	439378	keystroke	k	n/a
219.809	0.075	439618	keystroke	e	n/a
219.899	0.105	439798	keystroke	Key.space	n/a
220.019	0.075	440038	keystroke	s	n/a
220.169	0.09	440338	keystroke	t	n/a
220.289	0.12	440578	keystroke	a	n/a
220.364	0.105	440728	keystroke	r	n/a
220.544	0.075	441088	keystroke	t	n/a
220.679	0.12	441358	keystroke	s	n/a
220.784	0.1055	441568	keystroke	Key.enter	n/a
220.8955	7.12	441791	prompt	n/a	greene i mails chad\n
222.044	0.06	444088	keystroke	g	n/a
222.239	0.105	444478	keystroke	r	n/a
222.299	0.075	444598	keystroke	e	n/a
222.464	0.105	444928	keystroke	e	n/a
222.599	0.0905	445198	keystroke	n	n/a
222.6745	0.09	445349	keystroke	e	n/a
222.7795	0.105	445559	keystroke	Key.space	n/a
223.0045	0.09	446009	keystroke	i	n/a
223.184	0.121	446368	keystroke	Key.space	n/a
223.7985	0.12	447597	keystroke	m	n/a
223.9645	0.12	447929	keystroke	a	n/a
224.5785	0.0765	449157	keystroke	i	n/a
224.79	0.074	449580	keystroke	l	n/a
225.225	0.089	450450	keystroke	s	n/a
225.329	0.105	450658	keystroke	Key.space	n/a
225.614	0.09	451228	keystroke	c	n/a
225.69	0.12	451380	keystroke	h	n/a
225.84	0.0745	451680	keystroke	a	n/a
226.0495	0.045	452099	keystroke	g	n/a
226.0785	0.106	452157	keystroke	e	n/a
226.4995	0.06	452999	keystroke	Key.backspace	n/a
226.6195	0.09	453239	keystroke	Key.backspace	n/a
226.6945	0.1345	453389	keystroke	f	n/a
227.2495	0.09	454499	keystroke	Key.backspace	n/a
227.3545	0.2245	454709	keystroke	d	n/a
227.924	0.09	455848	keystroke	Key.enter	n/a
228.022	6.5185	456044	prompt	n/a	manor nonprofit ahead precise\n
229.229	0.06	458458	keystroke	m	n/a
229.4385	0.075	458877	keystroke	a	n/a
229.5735	0.1055	459147	keystroke	n	n/a
229.694	0.105	459388	keystroke	o	n/a
229.874	0.1355	459748	keystroke	r	n/a
230.0545	0.12	460109	keystroke	Key.space	n/a
230.429	0.0905	460858	keystroke	n	n/a
230.4895	0.105	460979	keystroke	o	n/a
230.5795	0.1045	461159	keystroke	n	n/a
230.834	0.075	461668	keystroke	p	n/a
230.939	0.105	461878	keystroke	r	n/a
231.059	0.06	462118	keystroke	o	n/a
231.134	0.075	462268	keystroke	f	n/a
231.284	0.09	462568	keystroke	i	n/a
231.4045	0.09	462809	keystroke	t	n/a
231.5395	0.12	463079	keystroke	Key.space	n/a
232.274	0.105	464548	keystroke	a	n/a
232.394	0.105	464788	keystroke	h	n/a
232.529	0.09	465058	keystroke	e	n/a
232.724	0.105	465448	keystroke	a	n/a
232.784	0.105	465568	keystroke	d	n/a
232.919	0.1205	465838	keystroke	Key.space	n/a
233.294	0.1205	466588	keystroke	p	n/a
233.429	0.1355	466858	keystroke	r	n/a
233.5345	0.105	467069	keystroke	e	n/a
233.7895	0.09	467579	keystroke	c	n/a
233.9095	0.09	467819	keystroke	i	n/a
234.1645	0.105	468329	keystroke	s	n/a
234.329	0.075	468658	keystroke	e	n/a
234.449	0.09	468898	keystroke	Key.enter	n/a
234.543	9.5525	469086	prompt	n/a	qualify cable toxic continuing\n
235.3785	0.105	470757	keystroke	q	n/a
235.4985	0.135	470997	keystroke	u	n/a
235.5885	0.105	471177	keystroke	i	n/a
235.9935	0.06	471987	keystroke	Key.backspace	n/a
236.1285	0.09	472257	keystroke	a	n/a
236.2485	0.12	472497	keystroke	l	n/a
236.8785	0.06	473757	keystroke	i	n/a
236.9835	0.075	473967	keystroke	f	n/a
237.2685	0.09	474537	keystroke	y	n/a
237.4335	0.09	474867	keystroke	Key.space	n/a
237.749	0.135	475498	keystroke	c	n/a
237.869	0.06	475738	keystroke	a	n/a
237.974	0.1045	475948	keystroke	b	n/a
238.139	0.0895	476278	keystroke	l	n/a
238.2435	0.09	476487	keystroke	e	n/a
238.3185	0.09	476637	keystroke	Key.space	n/a
238.4235	0.0605	476847	keystroke	t	n/a
238.499	0.09	476998	keystroke	o	n/a
238.889	0.075	477778	keystroke	x	n/a
238.949	0.1055	477898	keystroke	i	n/a
239.0695	0.09	478139	keystroke	c	n/a
239.1745	0.105	478349	keystroke	Key.space	n/a
239.7435	0.09	479487	keystroke	c	n/a
239.8185	0.12	479637	keystroke	o	n/a
239.8785	0.12	479757	keystroke	n	n/a
240.0585	0.12	480117	keystroke	i	n/a
240.5835	0.09	481167	keystroke	Key.backspace	n/a
240.7335	0.09	481467	keystroke	t	n/a
241.1535	0.105	482307	keystroke	i	n/a
241.1985	0.1205	482397	keystroke	n	n/a
241.409	0.0905	482818	keystroke	u	n/a
242.879	0.105	485758	keystroke	i	n/a
242.924	0.12	485848	keystroke	n	n/a
243.6735	0.105	487347	keystroke	Key.backspace	n/a
243.9135	0.0305	487827	keystroke	g	n/a
244.019	0.075	488038	keystroke	Key.enter	n/a
244.1	7.631	488200	prompt	n/a	preparation yamaha sleeps oman\n
245.069	0.075	490138	keystroke	p	n/a
245.129	0.12	490258	keystroke	r	n/a
245.189	0.1055	490378	keystroke	e	n/a
245.279	0.105	490558	keystroke	p	n/a
245.444	0.135	490888	keystroke	a	n/a
246.509	0.12	493018	keystroke	r	n/a
246.614	0.12	493228	keystroke	a	n/a
246.884	0.09	493768	keystroke	t	n/a
247.019	0.165	494038	keystroke	i	n/a
247.154	0.165	494308	keystroke	o	n/a
247.289	0.135	494578	keystroke	n	n/a
247.409	0.09	494818	keystroke	Key.space	n/a
248.1135	0.075	496227	keystroke	y	n/a
248.1745	0.104	496349	keystroke	a	n/a
248.3545	0.104	496709	keystroke	m	n/a
248.4735	0.09	496947	keystroke	a	n/a
248.6235	0.09	497247	keystroke	h	n/a
248.7595	0.074	497519	keystroke	a	n/a
248.8635	0.12	497727	keystroke	Key.space	n/a
249.344	0.075	498688	keystroke	s	n/a
249.434	0.105	498868	keystroke	l	n/a
249.659	0.0755	499318	keystroke	e	n/a
249.7945	0.1045	499589	keystroke	e	n/a
249.884	0.105	499768	keystroke	p	n/a
250.019	0.105	500038	keystroke	s	n/a
250.1385	0.105	500277	keystroke	Key.space	n/a
251.1595	0.135	502319	keystroke	o	n/a
251.2195	0.104	502439	keystroke	m	n/a
251.3695	0.105	502739	keystroke	a	n/a
251.4895	0.075	502979	keystroke	n	n/a
251.6395	0.09	503279	keystroke	Key.enter	n/a
251.734	5.6965	503468	prompt	n/a	richards postal pale hill\n
252.7195	0.075	505439	keystroke	r	n/a
252.7785	0.0905	505557	keystroke	i	n/a
252.929	0.075	505858	keystroke	c	n/a
253.004	0.06	506008	keystroke	h	n/a
253.079	0.105	506158	keystroke	a	n/a
253.169	0.09	506338	keystroke	r	n/a
253.334	0.165	506668	keystroke	d	n/a
253.439	0.1355	506878	keystroke	s	n/a
253.5895	0.075	507179	keystroke	Key.space	n/a
253.7995	0.09	507599	keystroke	p	n/a
254.0545	0.06	508109	keystroke	i	n/a
254.369	0.09	508738	keystroke	Key.backspace	n/a
254.504	0.12	509008	keystroke	o	n/a
254.639	0.105	509278	keystroke	s	n/a
254.684	0.12	509368	keystroke	t	n/a
255.0585	0.06	510117	keystroke	a	n/a
255.1635	0.105	510327	keystroke	l	n/a
255.3135	0.1055	510627	keystroke	Key.space	n/a
255.509	0.09	511018	keystroke	p	n/a
255.614	0.075	511228	keystroke	a	n/a
255.749	0.045	511498	keystroke	k	n/a
256.049	0.06	512098	keystroke	Key.backspace	n/a
256.289	0.015	512578	keystroke	l	n/a
256.319	0.06	512638	keystroke	e	n/a
256.454	0.105	512908	keystroke	Key.space	n/a
256.724	0.105	513448	keystroke	h	n/a
256.799	0.09	513598	keystroke	i	n/a
257.024	0.0605	514048	keystroke	l	n/a
257.1445	0.09	514289	keystroke	l	n/a
257.2645	0.075	514529	keystroke	Key.space	n/a
257.3545	0.075	514709	keystroke	Key.enter	n/a
257.4405	21.3655	514881	prompt	n/a	queries albuquerque surfaces cosmetic\n
263.4315	0.028	526863	keystroke	q	n/a
263.519	0.12	527038	keystroke	u	n/a
263.624	0.075	527248	keystroke	e	n/a
263.744	0.09	527488	keystroke	u	n/a
263.774	0.09	527548	keystroke	e	n/a
264.869	0.0755	529738	keystroke	r	n/a
266.7895	0.1045	533579	keystroke	Key.backspace	n/a
266.9845	0.1045	533969	keystroke	Key.backspace	n/a
267.719	0.075	535438	keystroke	Key.backspace	n/a
268.679	0.075	537358	keystroke	r	n/a
269.054	0.075	538108	keystroke	i	n/a
269.144	0.135	538288	keystroke	e	n/a
269.219	0.12	538438	keystroke	s	n/a
269.369	0.105	538738	keystroke	Key.space	n/a
269.759	0.105	539518	keystroke	a	n/a
270.119	0.09	540238	keystroke	l	n/a
270.254	0.105	540508	keystroke	b	n/a
270.404	0.106	540808	keystroke	u	n/a
272.2335	0.1055	544467	keystroke	q	n/a
272.369	0.075	544738	keystroke	u	n/a
273.089	0.09	546178	keystroke	e	n/a
273.494	0.09	546988	keystroke	r	n/a
274.604	0.1055	549208	keystroke	q	n/a
274.7245	0.105	549449	keystroke	u	n/a
274.9045	0.09	549809	keystroke	e	n/a
275.0245	0.105	550049	keystroke	Key.space	n/a
275.3845	0.12	550769	keystroke	s	n/a
275.5195	0.09	551039	keystroke	u	n/a
275.6245	0.075	551249	keystroke	r	n/a
275.8345	0.075	551669	keystroke	f	n/a
275.9395	0.105	551879	keystroke	a	n/a
276.0295	0.165	552059	keystroke	c	n/a
276.1495	0.075	552299	keystroke	e	n/a
276.3145	0.09	552629	keystroke	s	n/a
276.3895	0.105	552779	keystroke	Key.space	n/a
276.7485	0.075	553497	keystroke	c	n/a
276.8085	0.12	553617	keystroke	o	n/a
277.125	0.1045	554250	keystroke	s	n/a
277.2895	0.1195	554579	keystroke	m	n/a
277.529	0.105	555058	keystroke	e	n/a
277.694	0.09	555388	keystroke	t	n/a
278.1595	0.105	556319	keystroke	i	n/a
278.2795	0.09	556559	keystroke	c	n/a
278.6995	0.105	557399	keystroke	Key.enter	n/a
278.8165	6.8445	557633	prompt	n/a	bang fairly housewares downloaded\n
279.599	0.09	559198	keystroke	b	n/a
279.674	0.0905	559348	keystroke	a	n/a
279.839	0.12	559678	keystroke	n	n/a
280.064	0.075	560128	keystroke	g	n/a
280.199	0.09	560398	keystroke	Key.space	n/a
280.364	0.0755	560728	keystroke	f	n/a
280.44	0.1045	560880	keystroke	a	n/a
280.5295	0.09	561059	keystroke	i	n/a
280.7395	0.0745	561479	keystroke	l	n/a
280.844	0.1205	561688	keystroke	r	n/a
281.339	0.03	562678	keystroke	Key.backspace	n/a
281.594	0.075	563188	keystroke	Key.backspace	n/a
281.834	0.09	563668	keystroke	r	n/a
281.939	0.12	563878	keystroke	l	n/a
282.134	0.105	564268	keystroke	y	n/a
282.284	0.12	564568	keystroke	Key.space	n/a
282.809	0.12	565618	keystroke	h	n/a
282.974	0.15	565948	keystroke	o	n/a
283.064	0.105	566128	keystroke	u	n/a
283.184	0.09	566368	keystroke	s	n/a
283.214	0.105	566428	keystroke	e	n/a
283.454	0.1355	566908	keystroke	w	n/a
283.544	0.135	567088	keystroke	a	n/a
283.784	0.12	567568	keystroke	r	n/a
283.859	0.09	567718	keystroke	e	n/a
284.069	0.09	568138	keystroke	s	n/a
284.174	0.121	568348	keystroke	Key.space	n/a
284.385	0.12	568770	keystroke	d	n/a
284.46	0.105	568920	keystroke	o	n/a
284.58	0.0895	569160	keystroke	w	n/a
284.6395	0.105	569279	keystroke	n	n/a
284.7895	0.09	569579	keystroke	l	n/a
284.984	0.09	569968	keystroke	o	n/a
285.044	0.12	570088	keystroke	a	n/a
285.119	0.105	570238	keystroke	d	n/a
285.299	0.0595	570598	keystroke	e	n/a
285.4195	0.1055	570839	keystroke	d	n/a
285.54	0.12	571080	keystroke	Key.enter	n/a
285.6635	9.1475	571327	prompt	n/a	someone coating failing audit\n
286.4245	0.09	572849	keystroke	s	n/a
286.4995	0.105	572999	keystroke	o	n/a
286.5445	0.09	573089	keystroke	m	n/a
286.6795	0.12	573359	keystroke	o	n/a
286.7545	0.075	573509	keystroke	n	n/a
286.8445	0.105	573689	keystroke	e	n/a
286.9645	0.075	573929	keystroke	Key.space	n/a
287.489	0.06	574978	keystroke	Key.backspace	n/a
287.609	0.12	575218	keystroke	Key.backspace	n/a
288.284	0.075	576568	keystroke	Key.backspace	n/a
288.419	0.06	576838	keystroke	Key.backspace	n/a
288.569	0.09	577138	keystroke	e	n/a
289.019	0.1355	578038	keystroke	o	n/a
289.0645	0.135	578129	keystroke	n	n/a
289.1845	0.105	578369	keystroke	e	n/a
289.2895	0.09	578579	keystroke	Key.space	n/a
289.9795	0.09	579959	keystroke	c	n/a
290.0395	0.09	580079	keystroke	o	n/a
290.1445	0.105	580289	keystroke	a	n/a
290.2645	0.075	580529	keystroke	t	n/a
290.3545	0.12	580709	keystroke	i	n/a
290.4145	0.09	580829	keystroke	n	n/a
290.4595	0.09	580919	keystroke	g	n/a
290.5945	0.105	581189	keystroke	Key.space	n/a
291.1345	0.075	582269	keystroke	f	n/a
291.1945	0.0895	582389	keystroke	a	n/a
291.2395	0.0895	582479	keystroke	i	n/a
291.464	0.045	582928	keystroke	l	n/a
291.644	0.09	583288	keystroke	i	n/a
291.689	0.06	583378	keystroke	n	n/a
291.735	0.059	583470	keystroke	g	n/a
291.824	0.105	583648	keystroke	Key.space	n/a
292.544	0.105	585088	keystroke	a	n/a
292.619	0.075	585238	keystroke	d	n/a
292.949	0.105	585898	keystroke	u	n/a
293.7595	0.06	587519	keystroke	Key.backspace	n/a
293.8795	0.06	587759	keystroke	Key.backspace	n/a
294.1045	0.12	588209	keystroke	u	n/a
294.2395	0.09	588479	keystroke	d	n/a
294.4345	0.075	588869	keystroke	i	n/a
294.4795	0.105	588959	keystroke	t	n/a
294.7195	0.09	589439	keystroke	Key.enter	n/a
294.8135	7.2275	589627	prompt	n/a	establishment bookmark deviant confirmed\n
295.6645	0.12	591329	keystroke	e	n/a
295.7245	0.105	591449	keystroke	s	n/a
295.9345	0.045	591869	keystroke	t	n/a
296.0395	0.075	592079	keystroke	a	n/a
296.1745	0.075	592349	keystroke	b	n/a
296.3395	0.075	592679	keystroke	l	n/a
296.5345	0.075	593069	keystroke	i	n/a
296.6995	0.09	593399	keystroke	h	n/a
297.0595	0.03	594119	keystroke	Key.backspace	n/a
297.1645	0.09	594329	keystroke	s	n/a
297.27	0.059	594540	keystroke	h	n/a
297.554	0.09	595108	keystroke	m	n/a
297.689	0.1505	595378	keystroke	e	n/a
297.8545	0.015	595709	keystroke	n	n/a
297.8995	0.0755	595799	keystroke	t	n/a
297.99	0.075	595980	keystroke	Key.space	n/a
298.155	0.0895	596310	keystroke	b	n/a
298.35	0.075	596700	keystroke	o	n/a
298.5	0.105	597000	keystroke	o	n/a
298.635	0.0895	597270	keystroke	k	n/a
298.8145	0.09	597629	keystroke	m	n/a
298.9045	0.09	597809	keystroke	a	n/a
299.219	0.09	598438	keystroke	r	n/a
299.339	0.105	598678	keystroke	k	n/a
299.474	0.09	598948	keystroke	Key.space	n/a
299.864	0.105	599728	keystroke	d	n/a
300.03	0.075	600060	keystroke	e	n/a
300.165	0.1045	600330	keystroke	v	n/a
300.2845	0.09	600569	keystroke	i	n/a
300.3895	0.06	600779	keystroke	a	n/a
300.5245	0.06	601049	keystroke	n	n/a
300.5995	0.075	601199	keystroke	t	n/a
300.7195	0.09	601439	keystroke	Key.space	n/a
301.0045	0.075	602009	keystroke	c	n/a
301.0645	0.105	602129	keystroke	o	n/a
301.1245	0.105	602249	keystroke	n	n/a
301.2595	0.09	602519	keystroke	f	n/a
301.3645	0.09	602729	keystroke	i	n/a
301.4695	0.075	602939	keystroke	r	n/a
301.5745	0.1055	603149	keystroke	m	n/a
301.6645	0.075	603329	keystroke	e	n/a
301.7995	0.105	603599	keystroke	d	n/a
301.9345	0.105	603869	keystroke	Key.enter	n/a
302.045	7.526	604090	prompt	n/a	webcams catch monitoring speaker\n
302.804	0.105	605608	keystroke	w	n/a
302.849	0.09	605698	keystroke	e	n/a
302.969	0.09	605938	keystroke	b	n/a
303.179	0.12	606358	keystroke	c	n/a
303.269	0.09	606538	keystroke	a	n/a
303.404	0.105	606808	keystroke	m	n/a
303.719	0.105	607438	keystroke	s	n/a
303.854	0.09	607708	keystroke	Key.space	n/a
305.039	0.09	610078	keystroke	c	n/a
305.099	0.09	610198	keystroke	a	n/a
305.264	0.0755	610528	keystroke	t	n/a
305.4745	0.075	610949	keystroke	c	n/a
305.5945	0.075	611189	keystroke	h	n/a
305.6695	0.09	611339	keystroke	Key.space	n/a
305.8045	0.105	611609	keystroke	m	n/a
305.9395	0.165	611879	keystroke	o	n/a
306.0295	0.135	612059	keystroke	n	n/a
306.2095	0.075	612419	keystroke	i	n/a
306.2995	0.09	612599	keystroke	t	n/a
306.5095	0.09	613019	keystroke	o	n/a
306.6445	0.09	613289	keystroke	r	n/a
306.7495	0.1195	613499	keystroke	i	n/a
306.824	0.075	613648	keystroke	n	n/a
306.884	0.075	613768	keystroke	g	n/a
306.989	0.105	613978	keystroke	Key.space	n/a
307.289	0.075	614578	keystroke	s	n/a
308.1595	0.105	616319	keystroke	p	n/a
308.2345	0.12	616469	keystroke	e	n/a
308.3095	0.105	616619	keystroke	a	n/a
308.459	0.0905	616918	keystroke	k	n/a
308.7	0.105	617400	keystroke	e	n/a
308.73	0.09	617460	keystroke	r	n/a
309.4345	0.1345	618869	keystroke	Key.enter	n/a
309.5755	6.445	619151	prompt	n/a	nottingham commodities brothers genre\n
310.4095	0.105	620819	keystroke	n	n/a
310.4845	0.09	620969	keystroke	o	n/a
310.5895	0.06	621179	keystroke	t	n/a
310.7095	0.09	621419	keystroke	t	n/a
310.9195	0.105	621839	keystroke	i	n/a
310.9645	0.105	621929	keystroke	n	n/a
311.0545	0.075	622109	keystroke	g	n/a
311.2495	0.089	622499	keystroke	h	n/a
311.3695	0.09	622739	keystroke	a	n/a
311.4745	0.105	622949	keystroke	m	n/a
311.6845	0.09	623369	keystroke	Key.space	n/a
311.9695	0.075	623939	keystroke	c	n/a
312.0595	0.105	624119	keystroke	o	n/a
312.1495	0.09	624299	keystroke	m	n/a
312.2995	0.09	624599	keystroke	m	n/a
312.5095	0.075	625019	keystroke	o	n/a
312.66	0.089	625320	keystroke	d	n/a
312.78	0.09	625560	keystroke	i	n/a
312.945	0.06	625890	keystroke	t	n/a
313.034	0.091	626068	keystroke	i	n/a
313.26	0.0745	626520	keystroke	e	n/a
313.4395	0.075	626879	keystroke	s	n/a
313.5745	0.09	627149	keystroke	Key.space	n/a
313.9795	0.09	627959	keystroke	b	n/a
314.0845	0.075	628169	keystroke	r	n/a
314.1595	0.105	628319	keystroke	o	n/a
314.3395	0.09	628679	keystroke	t	n/a
314.3995	0.075	628799	keystroke	h	n/a
314.6245	0.03	629249	keystroke	e	n/a
314.6395	0.06	629279	keystroke	r	n/a
314.7445	0.105	629489	keystroke	s	n/a
314.8345	0.105	629669	keystroke	Key.space	n/a
315.3595	0.09	630719	keystroke	g	n/a
315.4645	0.09	630929	keystroke	e	n/a
315.5695	0.09	631139	keystroke	n	n/a
315.6895	0.105	631379	keystroke	r	n/a
315.7495	0.105	631499	keystroke	e	n/a
315.9445	0.075	631889	keystroke	Key.enter	n/a
316.026	7.4495	632052	prompt	n/a	he've aurora diagram controlled\n
316.7845	0.075	633569	keystroke	h	n/a
316.8745	0.075	633749	keystroke	e	n/a
317.429	0.09	634858	keystroke	;	n/a
317.729	0.1355	635458	keystroke	v	n/a
317.789	0.1055	635578	keystroke	e	n/a
317.9095	0.105	635819	keystroke	Key.space	n/a
318.4045	0.105	636809	keystroke	a	n/a
318.5245	0.0895	637049	keystroke	u	n/a
318.659	0.075	637318	keystroke	r	n/a
318.884	0.105	637768	keystroke	o	n/a
319.049	0.075	638098	keystroke	r	n/a
319.274	0.09	638548	keystroke	a	n/a
319.379	0.105	638758	keystroke	Key.space	n/a
320.624	0.015	641248	keystroke	f	n/a
320.924	0.075	641848	keystroke	Key.backspace	n/a
321.074	0.075	642148	keystroke	d	n/a
321.179	0.09	642358	keystroke	i	n/a
321.374	0.09	642748	keystroke	a	n/a
321.599	0.105	643198	keystroke	g	n/a
321.659	0.105	643318	keystroke	r	n/a
321.854	0.075	643708	keystroke	a	n/a
321.959	0.12	643918	keystroke	m	n/a
322.094	0.045	644188	keystroke	Key.space	n/a
322.4395	0.045	644879	keystroke	c	n/a
322.4685	0.121	644937	keystroke	o	n/a
322.5435	0.1055	645087	keystroke	n	n/a
322.65	0.089	645300	keystroke	t	n/a
322.724	0.075	645448	keystroke	r	n/a
322.754	0.075	645508	keystroke	o	n/a
322.934	0.06	645868	keystroke	l	n/a
323.039	0.075	646078	keystroke	l	n/a
323.099	0.075	646198	keystroke	e	n/a
323.219	0.09	646438	keystroke	d	n/a
323.369	0.105	646738	keystroke	Key.enter	n/a
323.4795	6.7915	646959	prompt	n/a	lawsuit attachments prep alot\n
324.2695	0.075	648539	keystroke	l	n/a
324.3595	0.105	648719	keystroke	a	n/a
324.5545	0.06	649109	keystroke	w	n/a
324.7345	0.09	649469	keystroke	s	n/a
324.854	0.1205	649708	keystroke	u	n/a
324.9445	0.105	649889	keystroke	i	n/a
325.0645	0.075	650129	keystroke	t	n/a
325.1545	0.105	650309	keystroke	Key.space	n/a
325.3945	0.075	650789	keystroke	a	n/a
325.5445	0.045	651089	keystroke	t	n/a
325.6345	0.09	651269	keystroke	t	n/a
325.7695	0.105	651539	keystroke	a	n/a
325.8445	0.105	651689	keystroke	c	n/a
325.9345	0.075	651869	keystroke	h	n/a
326.0545	0.09	652109	keystroke	e	n/a
326.1745	0.1045	652349	keystroke	m	n/a
326.429	0.015	652858	keystroke	t	n/a
326.489	0.09	652978	keystroke	n	n/a
326.594	0.075	653188	keystroke	s	n/a
326.684	0.105	653368	keystroke	Key.space	n/a
327.134	0.06	654268	keystroke	Key.backspace	n/a
327.254	0.06	654508	keystroke	Key.backspace	n/a
327.389	0.045	654778	keystroke	Key.backspace	n/a
327.5095	0.03	655019	keystroke	Key.backspace	n/a
327.9	0.075	655800	keystroke	e	n/a
327.99	0.105	655980	keystroke	n	n/a
328.08	0.06	656160	keystroke	t	n/a
328.245	0.105	656490	keystroke	s	n/a
328.395	0.09	656790	keystroke	Key.space	n/a
328.965	0.045	657930	keystroke	p	n/a
328.995	0.1495	657990	keystroke	r	n/a
329.1595	0.06	658319	keystroke	e	n/a
329.294	0.09	658588	keystroke	p	n/a
329.429	0.12	658858	keystroke	Key.space	n/a
329.7295	0.075	659459	keystroke	a	n/a
329.8345	0.075	659669	keystroke	l	n/a
329.9845	0.09	659969	keystroke	o	n/a
330.0895	0.06	660179	keystroke	t	n/a
330.1795	0.09	660359	keystroke	Key.enter	n/a
330.2735	6.7175	660547	prompt	n/a	peoples owner encryption globe\n
331.004	0.09	662008	keystroke	p	n/a
331.124	0.091	662248	keystroke	e	n/a
331.244	0.24	662488	keystroke	o	n/a
331.335	0.15	662670	keystroke	p	n/a
331.439	0.09	662878	keystroke	l	n/a
331.575	0.09	663150	keystroke	e	n/a
331.9195	0.09	663839	keystroke	s	n/a
332.0545	0.09	664109	keystroke	Key.space	n/a
332.444	0.091	664888	keystroke	o	n/a
332.519	0.0905	665038	keystroke	w	n/a
332.6545	0.105	665309	keystroke	n	n/a
332.8045	0.105	665609	keystroke	e	n/a
332.8645	0.09	665729	keystroke	r	n/a
332.9695	0.1205	665939	keystroke	Key.space	n/a
333.254	0.09	666508	keystroke	e	n/a
333.764	0.09	667528	keystroke	n	n/a
333.944	0.09	667888	keystroke	c	n/a
334.1695	0.06	668339	keystroke	r	n/a
334.469	0.03	668938	keystroke	y	n/a
334.619	0.09	669238	keystroke	p	n/a
334.724	0.06	669448	keystroke	t	n/a
334.829	0.12	669658	keystroke	i	n/a
334.904	0.09	669808	keystroke	o	n/a
335.039	0.105	670078	keystroke	n	n/a
335.159	0.075	670318	keystroke	Key.space	n/a
336.314	0.075	672628	keystroke	g	n/a
336.404	0.09	672808	keystroke	l	n/a
336.614	0.076	673228	keystroke	o	n/a
336.704	0.135	673408	keystroke	b	n/a
336.764	0.105	673528	keystroke	e	n/a
336.899	0.09	673798	keystroke	Key.enter	n/a
337.001	7.655	674002	prompt	n/a	monsters contribute sweden commands\n
337.6195	0.105	675239	keystroke	m	n/a
337.7545	0.12	675509	keystroke	o	n/a
337.8895	0.075	675779	keystroke	s	n/a
338.264	0.045	676528	keystroke	Key.backspace	n/a
338.459	0.12	676918	keystroke	n	n/a
338.534	0.09	677068	keystroke	s	n/a
338.684	0.09	677368	keystroke	t	n/a
338.819	0.105	677638	keystroke	e	n/a
338.894	0.0905	677788	keystroke	r	n/a
339.0145	0.12	678029	keystroke	s	n/a
339.1345	0.06	678269	keystroke	Key.space	n/a
339.329	0.075	678658	keystroke	v	n/a
339.419	0.135	678838	keystroke	o	n/a
339.749	0.015	679498	keystroke	Key.backspace	n/a
339.839	0.075	679678	keystroke	Key.backspace	n/a
340.034	0.06	680068	keystroke	c	n/a
340.184	0.165	680368	keystroke	o	n/a
340.274	0.135	680548	keystroke	n	n/a
340.514	0.105	681028	keystroke	t	n/a
340.559	0.12	681118	keystroke	r	n/a
340.694	0.105	681388	keystroke	i	n/a
340.829	0.105	681658	keystroke	b	n/a
341.039	0.06	682078	keystroke	u	n/a
341.3845	0.135	682769	keystroke	t	n/a
341.4745	0.135	682949	keystroke	e	n/a
341.6545	0.105	683309	keystroke	Key.space	n/a
341.8495	0.09	683699	keystroke	s	n/a
342.0745	0.18	684149	keystroke	w	n/a
342.1945	0.105	684389	keystroke	e	n/a
342.3745	0.0895	684749	keystroke	d	n/a
342.539	0.09	685078	keystroke	e	n/a
342.734	0.045	685468	keystroke	n	n/a
342.974	0.135	685948	keystroke	Key.space	n/a
343.6795	0.09	687359	keystroke	c	n/a
343.7545	0.135	687509	keystroke	o	n/a
343.8145	0.105	687629	keystroke	m	n/a
343.9795	0.105	687959	keystroke	m	n/a
344.0995	0.105	688199	keystroke	a	n/a
344.2195	0.105	688439	keystroke	n	n/a
344.3095	0.12	688619	keystroke	d	n/a
344.3995	0.1345	688799	keystroke	s	n/a
344.564	0.09	689128	keystroke	Key.enter	n/a
344.659	7.797	689318	prompt	n/a	prompt arrangement nano read\n
345.3595	0.075	690719	keystroke	p	n/a
345.5395	0.075	691079	keystroke	r	n/a
345.8095	0.15	691619	keystroke	o	n/a
345.9145	0.135	691829	keystroke	m	n/a
346.4995	0.09	692999	keystroke	p	n/a
346.7545	0.0895	693509	keystroke	t	n/a
346.8885	0.121	693777	keystroke	Key.space	n/a
347.129	0.09	694258	keystroke	a	n/a
347.294	0.1055	694588	keystroke	r	n/a
347.8495	0.09	695699	keystroke	r	n/a
347.9695	0.1205	695939	keystroke	a	n/a
348.119	0.105	696238	keystroke	n	n/a
348.24	0.075	696480	keystroke	g	n/a
348.27	0.12	696540	keystroke	e	n/a
348.495	0.105	696990	keystroke	m	n/a
348.585	0.1035	697170	keystroke	e	n/a
348.7035	0.09	697407	keystroke	n	n/a
348.7795	0.075	697559	keystroke	t	n/a
349.0945	0.09	698189	keystroke	Key.space	n/a
349.3345	0.0745	698669	keystroke	a	n/a
349.424	0.075	698848	keystroke	n	n/a
349.739	0.09	699478	keystroke	a	n/a
350.189	0.075	700378	keystroke	Key.backspace	n/a
350.339	0.075	700678	keystroke	Key.backspace	n/a
350.699	0.075	701398	keystroke	Key.backspace	n/a
350.939	0.075	701878	keystroke	n	n/a
351.029	0.075	702058	keystroke	a	n/a
351.119	0.075	702238	keystroke	n	n/a
351.209	0.0905	702418	keystroke	o	n/a
351.3595	0.105	702719	keystroke	Key.space	n/a
351.899	0.1355	703798	keystroke	r	n/a
351.9445	0.105	703889	keystroke	e	n/a
352.0945	0.12	704189	keystroke	a	n/a
352.1695	0.1195	704339	keystroke	d	n/a
352.319	0.135	704638	keystroke	Key.enter	n/a
352.464	5.872	704928	prompt	n/a	vendors kong formats chick\n
353.2345	0.09	706469	keystroke	w	n/a
353.609	0.105	707218	keystroke	Key.backspace	n/a
353.759	0.12	707518	keystroke	v	n/a
353.804	0.12	707608	keystroke	e	n/a
353.954	0.105	707908	keystroke	n	n/a
354.104	0.12	708208	keystroke	d	n/a
354.344	0.09	708688	keystroke	e	n/a
354.389	0.105	708778	keystroke	r	n/a
354.539	0.09	709078	keystroke	s	n/a
354.644	0.1055	709288	keystroke	Key.space	n/a
355.424	0.061	710848	keystroke	k	n/a
355.619	0.12	711238	keystroke	o	n/a
355.694	0.105	711388	keystroke	n	n/a
355.784	0.076	711568	keystroke	g	n/a
355.889	0.12	711778	keystroke	Key.space	n/a
356.159	0.09	712318	keystroke	f	n/a
356.234	0.09	712468	keystroke	o	n/a
356.354	0.0755	712708	keystroke	r	n/a
356.4445	0.075	712889	keystroke	m	n/a
356.5345	0.105	713069	keystroke	a	n/a
356.6545	0.075	713309	keystroke	t	n/a
356.7595	0.09	713519	keystroke	Key.space	n/a
357.134	0.105	714268	keystroke	c	n/a
357.269	0.1205	714538	keystroke	h	n/a
357.4045	0.105	714809	keystroke	i	n/a
357.4945	0.09	714989	keystroke	c	n/a
357.6295	0.105	715259	keystroke	k	n/a
358.2295	0.105	716459	keystroke	Key.enter	n/a
358.3385	6.102	716677	prompt	n/a	longest manually compared sharp\n
358.9495	0.075	717899	keystroke	l	n/a
359.1445	0.1055	718289	keystroke	o	n/a
359.2045	0.09	718409	keystroke	n	n/a
359.22	0.1045	718440	keystroke	g	n/a
359.3395	0.075	718679	keystroke	e	n/a
359.5195	0.075	719039	keystroke	s	n/a
359.6245	0.09	719249	keystroke	t	n/a
359.7445	0.12	719489	keystroke	Key.space	n/a
359.9545	0.03	719909	keystroke	n	n/a
360.2395	0.06	720479	keystroke	Key.backspace	n/a
360.435	0.075	720870	keystroke	m	n/a
360.525	0.075	721050	keystroke	a	n/a
360.629	0.091	721258	keystroke	n	n/a
360.855	0.105	721710	keystroke	u	n/a
361.035	0.09	722070	keystroke	a	n/a
361.155	0.045	722310	keystroke	l	n/a
361.275	0.074	722550	keystroke	l	n/a
361.454	0.031	722908	keystroke	y	n/a
362.1295	0.075	724259	keystroke	Key.space	n/a
362.2795	0.09	724559	keystroke	c	n/a
362.3245	0.12	724649	keystroke	o	n/a
362.3995	0.09	724799	keystroke	m	n/a
362.5345	0.105	725069	keystroke	p	n/a
362.6095	0.105	725219	keystroke	a	n/a
362.7155	0.149	725431	keystroke	r	n/a
362.8495	0.06	725699	keystroke	e	n/a
362.9695	0.105	725939	keystroke	d	n/a
363.1195	0.105	726239	keystroke	Key.space	n/a
363.3895	0.12	726779	keystroke	s	n/a
363.5245	0.105	727049	keystroke	h	n/a
363.6145	0.12	727229	keystroke	a	n/a
363.7045	0.105	727409	keystroke	r	n/a
364.0795	0.075	728159	keystroke	p	n/a
364.3195	0.12	728639	keystroke	Key.enter	n/a
364.444	4.947	728888	prompt	n/a	active converted hostel bike\n
365.0395	0.15	730079	keystroke	a	n/a
365.1295	0.105	730259	keystroke	c	n/a
365.3695	0.045	730739	keystroke	t	n/a
365.4445	0.105	730889	keystroke	i	n/a
365.5945	0.135	731189	keystroke	v	n/a
365.6695	0.105	731339	keystroke	e	n/a
365.8495	0.135	731699	keystroke	Key.space	n/a
366.5695	0.06	733139	keystroke	c	n/a
366.6595	0.09	733319	keystroke	o	n/a
366.7045	0.105	733409	keystroke	n	n/a
366.7645	0.06	733529	keystroke	v	n/a
366.9295	0.12	733859	keystroke	e	n/a
366.9745	0.09	733949	keystroke	r	n/a
367.1695	0.105	734339	keystroke	t	n/a
367.2445	0.09	734489	keystroke	e	n/a
367.3945	0.09	734789	keystroke	d	n/a
367.544	0.105	735088	keystroke	Key.space	n/a
367.829	0.09	735658	keystroke	h	n/a
367.889	0.09	735778	keystroke	o	n/a
367.964	0.105	735928	keystroke	s	n/a
368.099	0.105	736198	keystroke	t	n/a
368.294	0.09	736588	keystroke	e	n/a
368.414	0.105	736828	keystroke	l	n/a
368.534	0.075	737068	keystroke	Key.space	n/a
368.774	0.105	737548	keystroke	b	n/a
368.864	0.105	737728	keystroke	i	n/a
369.044	0.135	738088	keystroke	k	n/a
369.164	0.105	738328	keystroke	e	n/a
369.284	0.1055	738568	keystroke	Key.enter	n/a
369.3935	8.6525	738787	prompt	n/a	fell scholarship builder quotations\n
370.409	0.046	740818	keystroke	f	n/a
370.725	0.075	741450	keystroke	e	n/a
370.89	0.06	741780	keystroke	l	n/a
371.025	0.09	742050	keystroke	l	n/a
371.115	0.09	742230	keystroke	Key.space	n/a
371.3695	0.1355	742739	keystroke	s	n/a
371.46	0.075	742920	keystroke	c	n/a
371.55	0.0895	743100	keystroke	h	n/a
371.6695	0.075	743339	keystroke	o	n/a
371.8345	0.12	743669	keystroke	l	n/a
371.9695	0.09	743939	keystroke	a	n/a
372.0145	0.09	744029	keystroke	r	n/a
372.2095	0.09	744419	keystroke	s	n/a
372.3145	0.12	744629	keystroke	h	n/a
372.3745	0.105	744749	keystroke	i	n/a
372.6145	0.105	745229	keystroke	p	n/a
372.7345	0.105	745469	keystroke	Key.space	n/a
373.38	0.105	746760	keystroke	b	n/a
373.605	0.105	747210	keystroke	u	n/a
373.695	0.075	747390	keystroke	i	n/a
373.905	0.06	747810	keystroke	l	n/a
373.979	0.1205	747958	keystroke	d	n/a
374.2045	0.09	748409	keystroke	e	n/a
374.2495	0.09	748499	keystroke	r	n/a
374.3395	0.105	748679	keystroke	Key.space	n/a
374.6695	0.15	749339	keystroke	q	n/a
374.8345	0.09	749669	keystroke	u	n/a
375.4045	0.105	750809	keystroke	a	n/a
376.3345	0.09	752669	keystroke	Key.backspace	n/a
376.6495	0.1195	753299	keystroke	o	n/a
376.859	0.03	753718	keystroke	t	n/a
377.204	0.1205	754408	keystroke	a	n/a
377.309	0.0905	754618	keystroke	t	n/a
377.4445	0.12	754889	keystroke	i	n/a
377.5045	0.105	755009	keystroke	o	n/a
377.6845	0.12	755369	keystroke	n	n/a
377.7895	0.105	755579	keystroke	s	n/a
377.9845	0.06	755969	keystroke	Key.enter	n/a
378.0505	6.0705	756101	prompt	n/a	nearby latinas sequence latin\n
378.7195	0.075	757439	keystroke	n	n/a
378.9145	0.075	757829	keystroke	e	n/a
379.1095	0.15	758219	keystroke	a	n/a
379.2295	0.09	758459	keystroke	r	n/a
379.4995	0.105	758999	keystroke	b	n/a
379.7395	0.075	759479	keystroke	y	n/a
379.8745	0.1045	759749	keystroke	Key.space	n/a
380.099	0.12	760198	keystroke	l	n/a
380.204	0.09	760408	keystroke	a	n/a
380.354	0.0755	760708	keystroke	t	n/a
380.4445	0.12	760889	keystroke	i	n/a
380.5195	0.105	761039	keystroke	n	n/a
380.6095	0.09	761219	keystroke	a	n/a
380.819	0.09	761638	keystroke	s	n/a
381.014	0.1205	762028	keystroke	Key.space	n/a
381.2545	0.09	762509	keystroke	s	n/a
382.0345	0.15	764069	keystroke	e	n/a
382.0945	0.12	764189	keystroke	q	n/a
382.3495	0.09	764699	keystroke	u	n/a
382.544	0.09	765088	keystroke	e	n/a
382.664	0.105	765328	keystroke	n	n/a
382.784	0.105	765568	keystroke	c	n/a
382.844	0.12	765688	keystroke	e	n/a
382.949	0.075	765898	keystroke	Key.space	n/a
383.129	0.09	766258	keystroke	l	n/a
383.189	0.105	766378	keystroke	a	n/a
383.369	0.075	766738	keystroke	t	n/a
383.5045	0.075	767009	keystroke	i	n/a
383.5345	0.12	767069	keystroke	n	n/a
384.0295	0.09	768059	keystroke	Key.enter	n/a
384.1245	12.836	768249	prompt	n/a	accomplished movement experiences contributors\n
384.7495	0.1055	769499	keystroke	a	n/a
384.93	0.075	769860	keystroke	c	n/a
385.065	0.09	770130	keystroke	c	n/a
385.14	0.1195	770280	keystroke	o	n/a
385.1995	0.075	770399	keystroke	m	n/a
385.334	0.1505	770668	keystroke	p	n/a
385.4395	0.06	770879	keystroke	k	n/a
385.44	0.0295	770880	keystroke	l	n/a
385.8895	0.09	771779	keystroke	Key.backspace	n/a
386.0545	0.075	772109	keystroke	Key.backspace	n/a
386.7445	0.06	773489	keystroke	l	n/a
386.9395	0.06	773879	keystroke	i	n/a
387.0745	0.06	774149	keystroke	s	n/a
387.345	0.075	774690	keystroke	h	n/a
387.465	0.1045	774930	keystroke	Key.space	n/a
388.1245	0.12	776249	keystroke	m	n/a
388.1995	0.09	776399	keystroke	o	n/a
388.3345	0.09	776669	keystroke	v	n/a
388.3645	0.09	776729	keystroke	e	n/a
388.5145	0.09	777029	keystroke	m	n/a
388.5745	0.075	777149	keystroke	e	n/a
388.7095	0.075	777419	keystroke	n	n/a
388.7695	0.06	777539	keystroke	t	n/a
388.8745	0.075	777749	keystroke	Key.space	n/a
389.2495	0.045	778499	keystroke	e	n/a
389.594	0.12	779188	keystroke	e	n/a
389.73	0.075	779460	keystroke	x	n/a
389.849	0.091	779698	keystroke	o	n/a
390.014	0.091	780028	keystroke	e	n/a
390.3145	0.075	780629	keystroke	Key.backspace	n/a
390.449	0.075	780898	keystroke	Key.backspace	n/a
391.049	0.06	782098	keystroke	Key.backspace	n/a
391.199	0.075	782398	keystroke	Key.backspace	n/a
391.334	0.12	782668	keystroke	c	n/a
391.8145	0.0905	783629	keystroke	Key.backspace	n/a
391.935	0.09	783870	keystroke	x	n/a
392.4745	0.075	784949	keystroke	p	n/a
392.5645	0.12	785129	keystroke	e	n/a
392.6395	0.105	785279	keystroke	r	n/a
392.7295	0.09	785459	keystroke	i	n/a
392.8495	0.105	785699	keystroke	e	n/a
392.9695	0.105	785939	keystroke	n	n/a
393.0755	0.1045	786151	keystroke	c	n/a
393.1045	0.09	786209	keystroke	e	n/a
393.5695	0.135	787139	keystroke	s	n/a
393.7195	0.09	787439	keystroke	Key.space	n/a
394.0195	0.1045	788039	keystroke	c	n/a
394.094	0.12	788188	keystroke	o	n/a
394.169	0.105	788338	keystroke	n	n/a
394.289	0.0905	788578	keystroke	t	n/a
394.334	0.1055	788668	keystroke	r	n/a
394.4695	0.09	788939	keystroke	i	n/a
394.5895	0.06	789179	keystroke	b	n/a
394.7395	0.075	789479	keystroke	u	n/a
396.134	0.105	792268	keystroke	t	n/a
396.359	0.105	792718	keystroke	o	n/a
396.449	0.09	792898	keystroke	r	n/a
396.674	0.105	793348	keystroke	s	n/a
396.869	0.09	793738	keystroke	Key.enter	n/a
396.9635	8.3075	793927	prompt	n/a	respectively defines campbell replies\n
397.6795	0.12	795359	keystroke	r	n/a
397.7545	0.105	795509	keystroke	e	n/a
397.9345	0.09	795869	keystroke	p	n/a
397.9495	0.06	795899	keystroke	s	n/a
398.1295	0.105	796259	keystroke	e	n/a
398.1595	0.105	796319	keystroke	c	n/a
398.3845	0.045	796769	keystroke	t	n/a
398.4145	0.105	796829	keystroke	i	n/a
398.6095	0.09	797219	keystroke	v	n/a
398.6395	0.105	797279	keystroke	e	n/a
398.7745	0.09	797549	keystroke	l	n/a
398.9095	0.09	797819	keystroke	y	n/a
399.0595	0.09	798119	keystroke	Key.space	n/a
399.3745	0.12	798749	keystroke	d	n/a
399.5245	0.135	799049	keystroke	e	n/a
399.5995	0.105	799199	keystroke	f	n/a
399.6895	0.105	799379	keystroke	i	n/a
399.7495	0.12	799499	keystroke	n	n/a
399.8245	0.075	799649	keystroke	e	n/a
399.9745	0.105	799949	keystroke	s	n/a
400.0945	0.09	800189	keystroke	Key.space	n/a
400.3045	0.09	800609	keystroke	c	n/a
400.3645	0.1045	800729	keystroke	o	n/a
400.4245	0.0895	800849	keystroke	m	n/a
400.694	0.015	801388	keystroke	p	n/a
402.1945	0.045	804389	keystroke	Key.backspace	n/a
402.3295	0.03	804659	keystroke	Key.backspace	n/a
402.4345	0.075	804869	keystroke	Key.backspace	n/a
402.7345	0.075	805469	keystroke	a	n/a
403.2145	0.075	806429	keystroke	m	n/a
403.379	0.075	806758	keystroke	p	n/a
403.694	0.105	807388	keystroke	b	n/a
403.814	0.09	807628	keystroke	e	n/a
403.919	0.075	807838	keystroke	l	n/a
404.054	0.045	808108	keystroke	l	n/a
404.084	0.12	808168	keystroke	Key.space	n/a
404.4745	0.105	808949	keystroke	r	n/a
404.5345	0.09	809069	keystroke	e	n/a
404.5945	0.135	809189	keystroke	p	n/a
404.6545	0.105	809309	keystroke	l	n/a
404.865	0.0895	809730	keystroke	i	n/a
404.9395	0.045	809879	keystroke	e	n/a
405.0745	0.09	810149	keystroke	s	n/a
405.1795	0.09	810359	keystroke	Key.enter	n/a
405.277	10.029	810554	prompt	n/a	entered evident talented attempting\n
406.0195	0.09	812039	keystroke	e	n/a
406.2145	0.075	812429	keystroke	n	n/a
406.3345	0.12	812669	keystroke	e	n/a
406.4695	0.09	812939	keystroke	t	n/a
406.6195	0.015	813239	keystroke	e	n/a
406.6495	0.075	813299	keystroke	r	n/a
407.3845	0.06	814769	keystroke	Key.backspace	n/a
407.5045	0.075	815009	keystroke	Key.backspace	n/a
407.6395	0.06	815279	keystroke	Key.backspace	n/a
407.7595	0.105	815519	keystroke	Key.backspace	n/a
407.9095	0.105	815819	keystroke	t	n/a
408.0445	0.12	816089	keystroke	e	n/a
408.1195	0.135	816239	keystroke	r	n/a
408.2395	0.09	816479	keystroke	e	n/a
408.3745	0.105	816749	keystroke	d	n/a
408.4945	0.105	816989	keystroke	Key.space	n/a
408.9895	0.15	817979	keystroke	e	n/a
409.3495	0.09	818699	keystroke	v	n/a
409.4545	0.105	818909	keystroke	i	n/a
409.5745	0.03	819149	keystroke	d	n/a
410.984	0.1205	821968	keystroke	e	n/a
411.1195	0.074	822239	keystroke	n	n/a
411.2085	0.09	822417	keystroke	t	n/a
411.3135	0.0915	822627	keystroke	Key.space	n/a
411.6145	0.075	823229	keystroke	t	n/a
411.7045	0.12	823409	keystroke	a	n/a
411.8395	0.09	823679	keystroke	l	n/a
411.9595	0.09	823919	keystroke	e	n/a
412.0645	0.0895	824129	keystroke	n	n/a
412.155	0.089	824310	keystroke	t	n/a
412.274	0.09	824548	keystroke	e	n/a
412.439	0.09	824878	keystroke	d	n/a
412.544	0.105	825088	keystroke	Key.space	n/a
412.664	0.09	825328	keystroke	a	n/a
412.814	0.015	825628	keystroke	t	n/a
412.964	0.105	825928	keystroke	t	n/a
413.399	0.105	826798	keystroke	e	n/a
413.909	0.075	827818	keystroke	m	n/a
414.074	0.09	828148	keystroke	p	n/a
414.884	0.075	829768	keystroke	t	n/a
414.974	0.12	829948	keystroke	i	n/a
415.034	0.09	830068	keystroke	n	n/a
415.079	0.075	830158	keystroke	g	n/a
415.214	0.09	830428	keystroke	Key.enter	n/a
415.3095	8.7265	830619	prompt	n/a	papers surprising lithuania curves\n
416.369	0.09	832738	keystroke	p	n/a
416.46	0.074	832920	keystroke	a	n/a
416.624	0.075	833248	keystroke	p	n/a
416.744	0.12	833488	keystroke	e	n/a
416.819	0.105	833638	keystroke	r	n/a
417.029	0.105	834058	keystroke	s	n/a
417.164	0.09	834328	keystroke	Key.space	n/a
417.4795	0.09	834959	keystroke	s	n/a
417.5995	0.105	835199	keystroke	u	n/a
417.7495	0.09	835499	keystroke	r	n/a
417.8695	0.12	835739	keystroke	p	n/a
418.2295	0.09	836459	keystroke	r	n/a
418.5895	0.06	837179	keystroke	Key.backspace	n/a
419.2045	0.03	838409	keystroke	r	n/a
419.2945	0.09	838589	keystroke	i	n/a
419.4145	0.105	838829	keystroke	s	n/a
419.5345	0.12	839069	keystroke	i	n/a
419.5945	0.105	839189	keystroke	n	n/a
419.7295	0.09	839459	keystroke	g	n/a
419.8195	0.12	839639	keystroke	Key.space	n/a
420.5245	0.09	841049	keystroke	l	n/a
420.9745	0.09	841949	keystroke	i	n/a
421.0795	0.12	842159	keystroke	t	n/a
421.1395	0.09	842279	keystroke	h	n/a
421.2745	0.0895	842549	keystroke	u	n/a
421.484	0.075	842968	keystroke	a	n/a
421.6495	0.105	843299	keystroke	n	n/a
421.8145	0.105	843629	keystroke	i	n/a
421.9495	0.105	843899	keystroke	a	n/a
422.0995	0.09	844199	keystroke	Key.space	n/a
422.4295	0.105	844859	keystroke	c	n/a
422.5345	0.075	845069	keystroke	u	n/a
422.6695	0.105	845339	keystroke	r	n/a
423.4795	0.12	846959	keystroke	v	n/a
423.5695	0.09	847139	keystroke	e	n/a
423.7795	0.09	847559	keystroke	s	n/a
423.9595	0.0755	847919	keystroke	Key.enter	n/a
424.0385	9.8525	848077	prompt	n/a	testimonials principles international alan\n
424.98	0.09	849960	keystroke	t	n/a
425.13	0.105	850260	keystroke	e	n/a
425.3395	0.09	850679	keystroke	s	n/a
425.4745	0.09	850949	keystroke	t	n/a
425.6995	0.1045	851399	keystroke	i	n/a
425.969	0.075	851938	keystroke	m	n/a
426.1945	0.165	852389	keystroke	o	n/a
426.3445	0.135	852689	keystroke	n	n/a
426.4945	0.075	852989	keystroke	a	n/a
427.139	0.06	854278	keystroke	Key.backspace	n/a
427.6045	0.105	855209	keystroke	a	n/a
428.34	0.1045	856680	keystroke	Key.backspace	n/a
428.8795	0.06	857759	keystroke	i	n/a
428.9545	0.09	857909	keystroke	a	n/a
429.0595	0.075	858119	keystroke	l	n/a
429.1645	0.09	858329	keystroke	s	n/a
429.2695	0.075	858539	keystroke	Key.space	n/a
429.5095	0.075	859019	keystroke	p	n/a
429.8095	0.09	859619	keystroke	r	n/a
429.9295	0.12	859859	keystroke	i	n/a
430.0045	0.105	860009	keystroke	n	n/a
430.1245	0.075	860249	keystroke	c	n/a
430.1845	0.09	860369	keystroke	i	n/a
430.4245	0.18	860849	keystroke	p	n/a
430.4995	0.12	860999	keystroke	l	n/a
430.5895	0.075	861179	keystroke	e	n/a
430.7395	0.105	861479	keystroke	s	n/a
430.8745	0.105	861749	keystroke	Key.space	n/a
431.1295	0.09	862259	keystroke	i	n/a
431.1895	0.1045	862379	keystroke	n	n/a
431.2795	0.0895	862559	keystroke	t	n/a
431.429	0.12	862858	keystroke	e	n/a
431.489	0.09	862978	keystroke	r	n/a
431.58	0.089	863160	keystroke	n	n/a
431.684	0.09	863368	keystroke	a	n/a
431.789	0.075	863578	keystroke	t	n/a
431.909	0.09	863818	keystroke	i	n/a
431.969	0.09	863938	keystroke	o	n/a
432.119	0.09	864238	keystroke	n	n/a
432.239	0.09	864478	keystroke	a	n/a
432.374	0.075	864748	keystroke	l	n/a
432.509	0.09	865018	keystroke	Key.space	n/a
432.779	0.03	865558	keystroke	l	n/a
433.109	0.075	866218	keystroke	Key.backspace	n/a
433.244	0.075	866488	keystroke	a	n/a
433.379	0.075	866758	keystroke	l	n/a
433.439	0.09	866878	keystroke	a	n/a
433.589	0.09	867178	keystroke	n	n/a
433.799	0.09	867598	keystroke	Key.enter	n/a
433.906	6.165	867812	prompt	n/a	stat involved accessing peak\n
434.61	0.075	869220	keystroke	s	n/a
434.775	0.06	869550	keystroke	t	n/a
434.865	0.09	869730	keystroke	a	n/a
434.94	0.075	869880	keystroke	t	n/a
435.314	0.075	870628	keystroke	Key.space	n/a
435.479	0.106	870958	keystroke	i	n/a
435.524	0.105	871048	keystroke	n	n/a
435.809	0.06	871618	keystroke	v	n/a
435.9	0.045	871800	keystroke	o	n/a
436.065	0.06	872130	keystroke	l	n/a
436.11	0.105	872220	keystroke	v	n/a
436.26	0.105	872520	keystroke	e	n/a
436.44	0.105	872880	keystroke	d	n/a
436.574	0.09	873148	keystroke	Key.space	n/a
438.119	0.09	876238	keystroke	a	n/a
438.194	0.09	876388	keystroke	c	n/a
438.3295	0.105	876659	keystroke	c	n/a
438.4195	0.09	876839	keystroke	e	n/a
438.584	0.075	877168	keystroke	s	n/a
438.734	0.105	877468	keystroke	s	n/a
438.959	0.165	877918	keystroke	i	n/a
439.034	0.105	878068	keystroke	n	n/a
439.094	0.105	878188	keystroke	g	n/a
439.229	0.09	878458	keystroke	Key.space	n/a
439.409	0.0905	878818	keystroke	p	n/a
439.4995	0.09	878999	keystroke	e	n/a
439.6645	0.09	879329	keystroke	a	n/a
439.7695	0.105	879539	keystroke	k	n/a
439.9645	0.105	879929	keystroke	Key.enter	n/a
440.0735	12.3575	880147	prompt	n/a	circuit indoor evening never\n
440.7295	0.105	881459	keystroke	c	n/a
441.495	0.06	882990	keystroke	i	n/a
441.54	0.09	883080	keystroke	c	n/a
441.809	0.061	883618	keystroke	u	n/a
441.99	0.1045	883980	keystroke	i	n/a
442.139	0.105	884278	keystroke	t	n/a
442.289	0.105	884578	keystroke	Key.space	n/a
442.7995	0.045	885599	keystroke	i	n/a
442.8145	0.12	885629	keystroke	n	n/a
443.0845	0.105	886169	keystroke	d	n/a
443.2345	0.0895	886469	keystroke	o	n/a
443.384	0.1055	886768	keystroke	o	n/a
443.5795	0.09	887159	keystroke	Key.space	n/a
444.164	0.075	888328	keystroke	Key.backspace	n/a
444.329	0.06	888658	keystroke	Key.backspace	n/a
444.479	0.045	888958	keystroke	Key.backspace	n/a
444.599	0.075	889198	keystroke	Key.backspace	n/a
444.749	0.0755	889498	keystroke	Key.backspace	n/a
444.8995	0.06	889799	keystroke	Key.backspace	n/a
445.0345	0.06	890069	keystroke	Key.backspace	n/a
445.1695	0.0605	890339	keystroke	Key.backspace	n/a
445.305	0.0745	890610	keystroke	Key.backspace	n/a
445.455	0.075	890910	keystroke	Key.backspace	n/a
446.639	0.061	893278	keystroke	Key.backspace	n/a
447.434	0.06	894868	keystroke	r	n/a
447.644	0.075	895288	keystroke	c	n/a
447.9595	0.09	895919	keystroke	u	n/a
448.139	0.105	896278	keystroke	i	n/a
448.274	0.105	896548	keystroke	t	n/a
448.364	0.09	896728	keystroke	Key.space	n/a
448.574	0.12	897148	keystroke	i	n/a
448.634	0.12	897268	keystroke	n	n/a
448.784	0.09	897568	keystroke	d	n/a
448.949	0.045	897898	keystroke	o	n/a
449.054	0.075	898108	keystroke	o	n/a
449.159	0.075	898318	keystroke	r	n/a
449.249	0.106	898498	keystroke	Key.space	n/a
449.6845	0.09	899369	keystroke	e	n/a
449.8345	0.12	899669	keystroke	v	n/a
449.8945	0.09	899789	keystroke	e	n/a
450.014	0.0755	900028	keystroke	n	n/a
450.1495	0.1495	900299	keystroke	i	n/a
450.2245	0.1045	900449	keystroke	n	n/a
450.4195	0.0745	900839	keystroke	g	n/a
451.125	0.12	902250	keystroke	Key.space	n/a
451.3195	0.105	902639	keystroke	n	n/a
451.4095	0.135	902819	keystroke	e	n/a
451.5595	0.045	903119	keystroke	v	n/a
451.9045	0.1345	903809	keystroke	e	n/a
451.979	0.105	903958	keystroke	r	n/a
452.37	0.059	904740	keystroke	Key.enter	n/a
452.4335	7.0175	904867	prompt	n/a	participation muscles radio theology\n
453.149	0.105	906298	keystroke	p	n/a
453.269	0.106	906538	keystroke	a	n/a
453.314	0.105	906628	keystroke	r	n/a
453.525	0.074	907050	keystroke	t	n/a
453.614	0.09	907228	keystroke	i	n/a
453.719	0.105	907438	keystroke	c	n/a
453.794	0.091	907588	keystroke	i	n/a
453.93	0.074	907860	keystroke	a	n/a
454.019	0.075	908038	keystroke	p	n/a
454.17	0.089	908340	keystroke	t	n/a
454.289	0.091	908578	keystroke	i	n/a
454.349	0.105	908698	keystroke	o	n/a
454.484	0.09	908968	keystroke	n	n/a
454.589	0.105	909178	keystroke	Key.space	n/a
455.219	0.09	910438	keystroke	m	n/a
455.414	0.06	910828	keystroke	u	n/a
455.489	0.1205	910978	keystroke	s	n/a
455.6995	0.0595	911399	keystroke	c	n/a
455.894	0.105	911788	keystroke	l	n/a
456.014	0.0605	912028	keystroke	e	n/a
456.1645	0.105	912329	keystroke	s	n/a
456.3445	0.12	912689	keystroke	Key.space	n/a
457.0345	0.09	914069	keystroke	r	n/a
457.1995	0.105	914399	keystroke	a	n/a
457.2595	0.09	914519	keystroke	d	n/a
457.3645	0.1045	914729	keystroke	i	n/a
457.409	0.105	914818	keystroke	o	n/a
457.544	0.09	915088	keystroke	Key.space	n/a
457.874	0.12	915748	keystroke	t	n/a
457.934	0.075	915868	keystroke	h	n/a
458.129	0.105	916258	keystroke	e	n/a
458.264	0.09	916528	keystroke	o	n/a
458.849	0.06	917698	keystroke	l	n/a
459.014	0.075	918028	keystroke	o	n/a
459.0745	0.075	918149	keystroke	g	n/a
459.2545	0.105	918509	keystroke	y	n/a
459.3605	0.089	918721	keystroke	Key.enter	n/a
459.4535	7.6175	918907	prompt	n/a	entrepreneur keeping expedia organic\n
460.17	0.09	920340	keystroke	e	n/a
460.2895	0.1355	920579	keystroke	n	n/a
460.4395	0.12	920879	keystroke	t	n/a
460.47	0.1345	920940	keystroke	r	n/a
460.5895	0.12	921179	keystroke	e	n/a
460.7845	0.135	921569	keystroke	p	n/a
460.9495	0.09	921899	keystroke	e	n/a
462.554	0.09	925108	keystroke	n	n/a
462.809	0.105	925618	keystroke	e	n/a
462.959	0.075	925918	keystroke	u	n/a
463.169	0.1355	926338	keystroke	r	n/a
463.3795	0.09	926759	keystroke	Key.space	n/a
463.5895	0.075	927179	keystroke	k	n/a
463.6945	0.09	927389	keystroke	e	n/a
463.8295	0.1195	927659	keystroke	e	n/a
463.919	0.106	927838	keystroke	p	n/a
464.159	0.09	928318	keystroke	i	n/a
464.189	0.09	928378	keystroke	n	n/a
464.234	0.12	928468	keystroke	g	n/a
464.369	0.12	928738	keystroke	Key.space	n/a
464.534	0.09	929068	keystroke	e	n/a
464.909	0.12	929818	keystroke	x	n/a
465.2995	0.12	930599	keystroke	p	n/a
465.4495	0.075	930899	keystroke	e	n/a
465.614	0.09	931228	keystroke	d	n/a
465.705	0.089	931410	keystroke	i	n/a
465.854	0.09	931708	keystroke	a	n/a
465.974	0.075	931948	keystroke	Key.space	n/a
466.1845	0.075	932369	keystroke	o	n/a
466.2895	0.075	932579	keystroke	r	n/a
466.4695	0.075	932939	keystroke	g	n/a
466.6045	0.0895	933209	keystroke	a	n/a
466.709	0.105	933418	keystroke	n	n/a
466.769	0.09	933538	keystroke	i	n/a
466.86	0.074	933720	keystroke	c	n/a
466.994	0.075	933988	keystroke	Key.enter	n/a
467.0745	8.8165	934149	prompt	n/a	angry mathematics customize what's\n
467.714	0.105	935428	keystroke	a	n/a
467.804	0.09	935608	keystroke	n	n/a
467.939	0.12	935878	keystroke	g	n/a
468.149	0.09	936298	keystroke	r	n/a
468.284	0.09	936568	keystroke	y	n/a
468.449	0.09	936898	keystroke	Key.space	n/a
468.644	0.09	937288	keystroke	m	n/a
468.764	0.105	937528	keystroke	a	n/a
469.1545	0.0895	938309	keystroke	t	n/a
469.199	0.09	938398	keystroke	h	n/a
469.364	0.09	938728	keystroke	e	n/a
469.484	0.105	938968	keystroke	m	n/a
469.559	0.12	939118	keystroke	e	n/a
469.649	0.09	939298	keystroke	t	n/a
470.0845	0.0895	940169	keystroke	Key.backspace	n/a
470.9395	0.09	941879	keystroke	Key.backspace	n/a
471.1045	0.105	942209	keystroke	a	n/a
471.3445	0.06	942689	keystroke	t	n/a
471.5095	0.09	943019	keystroke	i	n/a
471.6295	0.18	943259	keystroke	c	n/a
471.9145	0.09	943829	keystroke	Key.space	n/a
472.215	0.075	944430	keystroke	Key.backspace	n/a
472.335	0.105	944670	keystroke	s	n/a
472.47	0.105	944940	keystroke	Key.space	n/a
472.725	0.06	945450	keystroke	c	n/a
472.8	0.09	945600	keystroke	u	n/a
472.905	0.0595	945810	keystroke	s	n/a
473.0395	0.06	946079	keystroke	t	n/a
473.1145	0.09	946229	keystroke	o	n/a
473.1745	0.09	946349	keystroke	m	n/a
473.325	0.09	946650	keystroke	i	n/a
473.5645	0.105	947129	keystroke	z	n/a
473.8795	0.09	947759	keystroke	e	n/a
473.9995	0.105	947999	keystroke	Key.space	n/a
474.4045	0.09	948809	keystroke	w	n/a
474.5995	0.075	949199	keystroke	h	n/a
474.7195	0.0905	949439	keystroke	a	n/a
474.915	0.03	949830	keystroke	t	n/a
475.349	0.075	950698	keystroke	'	n/a
475.439	0.09	950878	keystroke	s	n/a
475.829	0.061	951658	keystroke	Key.enter	n/a
475.8995	6.0815	951799	prompt	n/a	jpeg feat density scout\n
477.0895	0.09	954179	keystroke	j	n/a
477.1195	0.09	954239	keystroke	p	n/a
477.2245	0.12	954449	keystroke	e	n/a
478.0045	0.105	956009	keystroke	g	n/a
478.2445	0.12	956489	keystroke	Key.space	n/a
478.5145	0.135	957029	keystroke	f	n/a
478.5595	0.12	957119	keystroke	e	n/a
478.7545	0.12	957509	keystroke	a	n/a
478.8595	0.0745	957719	keystroke	t	n/a
478.979	0.09	957958	keystroke	Key.space	n/a
479.1895	0.09	958379	keystroke	d	n/a
479.399	0.075	958798	keystroke	e	n/a
479.519	0.105	959038	keystroke	n	n/a
479.594	0.105	959188	keystroke	s	n/a
479.879	0.076	959758	keystroke	i	n/a
480.105	0.119	960210	keystroke	t	n/a
480.179	0.105	960358	keystroke	y	n/a
480.329	0.12	960658	keystroke	Key.space	n/a
481.245	0.119	962490	keystroke	s	n/a
481.304	0.106	962608	keystroke	c	n/a
481.469	0.135	962938	keystroke	o	n/a
481.559	0.0905	963118	keystroke	u	n/a
481.6645	0.06	963329	keystroke	t	n/a
481.8745	0.105	963749	keystroke	Key.enter	n/a
481.9875	6.1135	963975	prompt	n/a	sizes endless himself varying\n
483.014	0.075	966028	keystroke	s	n/a
483.164	0.075	966328	keystroke	i	n/a
483.27	0.1345	966540	keystroke	z	n/a
483.3895	0.09	966779	keystroke	e	n/a
483.7045	0.105	967409	keystroke	s	n/a
483.9295	0.1055	967859	keystroke	Key.space	n/a
484.14	0.075	968280	keystroke	e	n/a
484.23	0.105	968460	keystroke	n	n/a
484.32	0.0895	968640	keystroke	d	n/a
484.4545	0.09	968909	keystroke	l	n/a
484.5595	0.06	969119	keystroke	e	n/a
484.7395	0.03	969479	keystroke	s	n/a
484.8295	0.1205	969659	keystroke	s	n/a
484.919	0.106	969838	keystroke	Key.space	n/a
485.4145	0.09	970829	keystroke	h	n/a
485.4745	0.0905	970949	keystroke	i	n/a
485.64	0.104	971280	keystroke	m	n/a
485.73	0.074	971460	keystroke	s	n/a
485.9245	0.075	971849	keystroke	e	n/a
486.0295	0.075	972059	keystroke	l	n/a
486.1345	0.105	972269	keystroke	f	n/a
486.2405	0.089	972481	keystroke	Key.space	n/a
487.0495	0.135	974099	keystroke	v	n/a
487.1095	0.135	974219	keystroke	a	n/a
487.3945	0.06	974789	keystroke	r	n/a
487.65	0.0595	975300	keystroke	y	n/a
487.7545	0.12	975509	keystroke	i	n/a
487.8445	0.075	975689	keystroke	n	n/a
487.8595	0.075	975719	keystroke	g	n/a
488.0095	0.09	976019	keystroke	Key.enter	n/a
488.1055	11.1105	976211	prompt	n/a	interpretation veterinary they'd promptly\n
488.849	0.105	977698	keystroke	i	n/a
488.909	0.09	977818	keystroke	n	n/a
488.984	0.09	977968	keystroke	t	n/a
489.119	0.12	978238	keystroke	e	n/a
489.194	0.105	978388	keystroke	r	n/a
489.314	0.12	978628	keystroke	p	n/a
489.449	0.135	978898	keystroke	r	n/a
489.479	0.165	978958	keystroke	e	n/a
489.704	0.0905	979408	keystroke	t	n/a
489.9445	0.1045	979889	keystroke	a	n/a
490.05	0.089	980100	keystroke	t	n/a
490.184	0.09	980368	keystroke	i	n/a
490.214	0.105	980428	keystroke	o	n/a
490.364	0.12	980728	keystroke	n	n/a
490.574	0.09	981148	keystroke	Key.space	n/a
490.9345	0.15	981869	keystroke	v	n/a
491.0245	0.12	982049	keystroke	e	n/a
491.2495	0.0745	982499	keystroke	t	n/a
491.399	0.135	982798	keystroke	e	n/a
491.474	0.12	982948	keystroke	r	n/a
493.3945	0.045	986789	keystroke	i	n/a
493.4095	0.12	986819	keystroke	n	n/a
493.5445	0.15	987089	keystroke	a	n/a
493.6645	0.12	987329	keystroke	r	n/a
494.009	0.06	988018	keystroke	y	n/a
494.174	0.12	988348	keystroke	Key.space	n/a
494.4895	0.105	988979	keystroke	t	n/a
494.5495	0.09	989099	keystroke	h	n/a
494.7295	0.1195	989459	keystroke	e	n/a
494.864	0.06	989728	keystroke	y	n/a
495.3595	0.105	990719	keystroke	'	n/a
495.6295	0.0895	991259	keystroke	d	n/a
495.749	0.075	991498	keystroke	Key.space	n/a
496.3495	0.09	992699	keystroke	p	n/a
496.4405	0.074	992881	keystroke	r	n/a
496.5745	0.1655	993149	keystroke	o	n/a
496.665	0.12	993330	keystroke	m	n/a
496.905	0.09	993810	keystroke	p	n/a
497.145	0.12	994290	keystroke	t	n/a
497.22	0.075	994440	keystroke	y	n/a
498.1645	0.09	996329	keystroke	Key.backspace	n/a
498.4195	0.09	996839	keystroke	l	n/a
498.5245	0.075	997049	keystroke	y	n/a
499.1095	0.105	998219	keystroke	Key.enter	n/a
499.2195	12.5215	998439	prompt	n/a	wouldn't promised attacked calling\n
499.994	0.09	999988	keystroke	w	n/a
500.114	0.105	1000228	keystroke	o	n/a
500.174	0.09	1000348	keystroke	u	n/a
500.3095	0.09	1000619	keystroke	l	n/a
500.4145	0.075	1000829	keystroke	d	n/a
500.5045	0.075	1001009	keystroke	n	n/a
500.6245	0.06	1001249	keystroke	t	n/a
500.819	0.12	1001638	keystroke	Key.space	n/a
501.224	0.075	1002448	keystroke	Key.backspace	n/a
501.359	0.09	1002718	keystroke	Key.backspace	n/a
501.509	0.09	1003018	keystroke	Key.backspace	n/a
503.1445	0.06	1006289	keystroke	n	n/a
503.775	0.09	1007550	keystroke	'	n/a
504.015	0.09	1008030	keystroke	t	n/a
504.12	0.075	1008240	keystroke	Key.space	n/a
504.81	0.075	1009620	keystroke	p	n/a
504.9	0.09	1009800	keystroke	r	n/a
505.05	0.135	1010100	keystroke	m	n/a
505.575	0.09	1011150	keystroke	Key.backspace	n/a
505.83	0.12	1011660	keystroke	o	n/a
505.92	0.09	1011840	keystroke	m	n/a
506.07	0.1045	1012140	keystroke	i	n/a
506.2045	0.135	1012409	keystroke	s	n/a
506.3845	0.075	1012769	keystroke	e	n/a
506.5195	0.1055	1013039	keystroke	d	n/a
506.594	0.121	1013188	keystroke	Key.space	n/a
506.729	0.0905	1013458	keystroke	a	n/a
506.9395	0.09	1013879	keystroke	t	n/a
507.0895	0.12	1014179	keystroke	a	n/a
507.1945	0.1355	1014389	keystroke	c	n/a
507.375	0.105	1014750	keystroke	k	n/a
507.585	0.09	1015170	keystroke	e	n/a
507.944	0.061	1015888	keystroke	Key.backspace	n/a
508.08	0.06	1016160	keystroke	Key.backspace	n/a
508.2	0.075	1016400	keystroke	Key.backspace	n/a
508.32	0.075	1016640	keystroke	Key.backspace	n/a
508.425	0.059	1016850	keystroke	Key.backspace	n/a
508.53	0.09	1017060	keystroke	t	n/a
508.635	0.09	1017270	keystroke	a	n/a
508.905	0.059	1017810	keystroke	Key.backspace	n/a
509.04	0.044	1018080	keystroke	Key.backspace	n/a
509.099	0.076	1018198	keystroke	t	n/a
509.61	0.06	1019220	keystroke	t	n/a
509.819	0.105	1019638	keystroke	a	n/a
509.94	0.105	1019880	keystroke	c	n/a
510.419	0.09	1020838	keystroke	k	n/a
510.524	0.106	1021048	keystroke	e	n/a
510.675	0.105	1021350	keystroke	d	n/a
510.764	0.105	1021528	keystroke	Key.space	n/a
510.929	0.106	1021858	keystroke	c	n/a
510.974	0.12	1021948	keystroke	a	n/a
511.079	0.06	1022158	keystroke	l	n/a
511.214	0.09	1022428	keystroke	l	n/a
511.409	0.09	1022818	keystroke	i	n/a
511.469	0.075	1022938	keystroke	n	n/a
511.514	0.06	1023028	keystroke	g	n/a
511.649	0.09	1023298	keystroke	Key.enter	n/a
511.752	7.774	1023504	prompt	n/a	hadn't fees guam barbados\n
512.5195	0.075	1025039	keystroke	h	n/a
512.5795	0.09	1025159	keystroke	a	n/a
512.7895	0.075	1025579	keystroke	d	n/a
513.4945	0.06	1026989	keystroke	n	n/a
514.0495	0.06	1028099	keystroke	'	n/a
514.2145	0.09	1028429	keystroke	t	n/a
514.334	0.0905	1028668	keystroke	Key.space	n/a
515.4445	0.12	1030889	keystroke	f	n/a
515.5045	0.105	1031009	keystroke	e	n/a
515.6695	0.1045	1031339	keystroke	e	n/a
515.849	0.105	1031698	keystroke	s	n/a
515.955	0.119	1031910	keystroke	Key.space	n/a
516.3145	0.075	1032629	keystroke	g	n/a
516.4345	0.135	1032869	keystroke	u	n/a
516.5545	0.075	1033109	keystroke	a	n/a
516.6595	0.09	1033319	keystroke	m	n/a
516.7645	0.09	1033529	keystroke	Key.space	n/a
517.335	0.09	1034670	keystroke	b	n/a
517.395	0.105	1034790	keystroke	a	n/a
517.575	0.075	1035150	keystroke	b	n/a
517.995	0.0745	1035990	keystroke	Key.backspace	n/a
518.2045	0.075	1036409	keystroke	r	n/a
518.3395	0.09	1036679	keystroke	b	n/a
518.8045	0.15	1037609	keystroke	a	n/a
518.8945	0.105	1037789	keystroke	d	n/a
519.1195	0.105	1038239	keystroke	o	n/a
519.2395	0.1055	1038479	keystroke	s	n/a
519.374	0.151	1038748	keystroke	Key.enter	n/a
519.529	13.422	1039058	prompt	n/a	complications phpbb subcommittee procedures\n
520.3645	0.09	1040729	keystroke	c	n/a
520.3945	0.105	1040789	keystroke	o	n/a
520.4695	0.075	1040939	keystroke	m	n/a
520.6045	0.105	1041209	keystroke	p	n/a
520.6645	0.075	1041329	keystroke	l	n/a
521.265	0.0895	1042530	keystroke	i	n/a
521.3995	0.1205	1042799	keystroke	c	n/a
521.4595	0.1055	1042919	keystroke	a	n/a
521.7	0.075	1043400	keystroke	t	n/a
521.835	0.09	1043670	keystroke	i	n/a
521.88	0.105	1043760	keystroke	o	n/a
522.015	0.09	1044030	keystroke	n	n/a
522.12	0.105	1044240	keystroke	s	n/a
522.21	0.0895	1044420	keystroke	Key.space	n/a
522.7495	0.09	1045499	keystroke	p	n/a
523.2295	0.1045	1046459	keystroke	h	n/a
524.2495	0.045	1048499	keystroke	p	n/a
524.4745	0.075	1048949	keystroke	b	n/a
524.6095	0.075	1049219	keystroke	b	n/a
524.7295	0.105	1049459	keystroke	Key.space	n/a
525.345	0.075	1050690	keystroke	s	n/a
525.465	0.135	1050930	keystroke	u	n/a
525.54	0.105	1051080	keystroke	b	n/a
525.885	0.075	1051770	keystroke	c	n/a
525.96	0.105	1051920	keystroke	o	n/a
526.02	0.105	1052040	keystroke	m	n/a
526.2145	0.0905	1052429	keystroke	i	n/a
526.395	0.045	1052790	keystroke	t	n/a
526.5	0.09	1053000	keystroke	t	n/a
526.695	0.12	1053390	keystroke	i	n/a
526.8	0.075	1053600	keystroke	e	n/a
526.964	0.091	1053928	keystroke	s	n/a
527.114	0.136	1054228	keystroke	s	n/a
527.609	0.075	1055218	keystroke	Key.backspace	n/a
527.759	0.0755	1055518	keystroke	Key.backspace	n/a
527.9545	0.075	1055909	keystroke	Key.backspace	n/a
529.9045	0.0895	1059809	keystroke	Key.backspace	n/a
530.129	0.06	1060258	keystroke	e	n/a
530.2495	0.1045	1060499	keystroke	e	n/a
530.8345	0.075	1061669	keystroke	Key.space	n/a
531.1045	0.105	1062209	keystroke	p	n/a
531.1945	0.09	1062389	keystroke	r	n/a
531.314	0.1055	1062628	keystroke	o	n/a
531.3895	0.135	1062779	keystroke	c	n/a
531.5095	0.075	1063019	keystroke	e	n/a
531.6745	0.09	1063349	keystroke	d	n/a
531.8095	0.09	1063619	keystroke	u	n/a
531.9145	0.105	1063829	keystroke	r	n/a
531.9745	0.06	1063949	keystroke	e	n/a
532.1395	0.09	1064279	keystroke	s	n/a
532.8445	0.105	1065689	keystroke	Key.enter	n/a
532.956	9.9545	1065912	prompt	n/a	footwear acre swaziland antonio\n
533.865	0.074	1067730	keystroke	f	n/a
533.954	0.06	1067908	keystroke	o	n/a
534.074	0.105	1068148	keystroke	o	n/a
534.164	0.075	1068328	keystroke	t	n/a
534.359	0.0905	1068718	keystroke	w	n/a
534.9445	0.075	1069889	keystroke	e	n/a
535.1695	0.1495	1070339	keystroke	a	n/a
535.304	0.075	1070608	keystroke	r	n/a
535.499	0.105	1070998	keystroke	Key.space	n/a
535.619	0.12	1071238	keystroke	a	n/a
535.694	0.12	1071388	keystroke	c	n/a
536.039	0.165	1072078	keystroke	r	n/a
536.129	0.105	1072258	keystroke	e	n/a
536.279	0.105	1072558	keystroke	Key.space	n/a
536.519	0.12	1073038	keystroke	s	n/a
536.744	0.12	1073488	keystroke	q	n/a
537.239	0.105	1074478	keystroke	Key.backspace	n/a
537.449	0.1055	1074898	keystroke	w	n/a
538.1245	0.075	1076249	keystroke	a	n/a
538.5745	0.06	1077149	keystroke	z	n/a
538.6645	0.075	1077329	keystroke	i	n/a
538.8595	0.075	1077719	keystroke	l	n/a
538.9495	0.12	1077899	keystroke	a	n/a
539.1745	0.075	1078349	keystroke	n	n/a
539.264	0.0905	1078528	keystroke	d	n/a
539.3695	0.105	1078739	keystroke	Key.space	n/a
540.1945	0.105	1080389	keystroke	a	n/a
540.3145	0.105	1080629	keystroke	n	n/a
540.5095	0.09	1081019	keystroke	t	n/a
540.5695	0.135	1081139	keystroke	o	n/a
540.6445	0.12	1081289	keystroke	n	n/a
540.8245	0.0895	1081649	keystroke	i	n/a
541.109	0.105	1082218	keystroke	i	n/a
541.169	0.12	1082338	keystroke	o	n/a
541.6495	0.06	1083299	keystroke	Key.backspace	n/a
541.7695	0.09	1083539	keystroke	Key.backspace	n/a
542.1145	0.09	1084229	keystroke	o	n/a
542.8045	0.105	1085609	keystroke	Key.enter	n/a
542.9135	5.157	1085827	prompt	n/a	correction canvas keith collapse\n
543.704	0.0755	1087408	keystroke	c	n/a
543.7795	0.06	1087559	keystroke	o	n/a
543.8995	0.045	1087799	keystroke	r	n/a
544.0195	0.075	1088039	keystroke	r	n/a
544.0495	0.12	1088099	keystroke	e	n/a
544.1995	0.075	1088399	keystroke	c	n/a
544.3945	0.045	1088789	keystroke	t	n/a
544.4545	0.06	1088909	keystroke	i	n/a
544.4845	0.12	1088969	keystroke	o	n/a
544.6195	0.09	1089239	keystroke	n	n/a
544.6945	0.075	1089389	keystroke	Key.space	n/a
544.9045	0.09	1089809	keystroke	c	n/a
544.9795	0.09	1089959	keystroke	a	n/a
545.0395	0.09	1090079	keystroke	n	n/a
545.1445	0.105	1090289	keystroke	v	n/a
545.384	0.135	1090768	keystroke	a	n/a
545.444	0.12	1090888	keystroke	s	n/a
545.624	0.09	1091248	keystroke	Key.space	n/a
545.894	0.135	1091788	keystroke	k	n/a
546.03	0.059	1092060	keystroke	e	n/a
546.194	0.09	1092388	keystroke	i	n/a
546.3595	0.12	1092719	keystroke	t	n/a
546.4345	0.075	1092869	keystroke	h	n/a
546.5695	0.12	1093139	keystroke	Key.space	n/a
546.9895	0.09	1093979	keystroke	c	n/a
547.0945	0.06	1094189	keystroke	o	n/a
547.2595	0.06	1094519	keystroke	l	n/a
547.3795	0.075	1094759	keystroke	l	n/a
547.4695	0.105	1094939	keystroke	a	n/a
547.5895	0.075	1095179	keystroke	p	n/a
547.784	0.06	1095568	keystroke	s	n/a
547.994	0.075	1095988	keystroke	Key.enter	n/a
548.074	5.7715	1096148	prompt	n/a	apartments satisfaction gonna rugs\n
549.0295	0.09	1098059	keystroke	a	n/a
549.1795	0.105	1098359	keystroke	p	n/a
