onset	duration	sample	value	key	prompt_text
1.9875	11.27	3975	prompt	n/a	the quick brown fox jumps over a lazy dog\n
4.973	0.0275	9946	keystroke_t	t	n/a
5.046	0.074	10092	keystroke_h	h	n/a
5.1055	0.135	10211	keystroke_e	e	n/a
5.3005	0.1045	10601	keystroke_Key.space	Key.space	n/a
5.39	0.106	10780	keystroke_q	q	n/a
5.481	0.0445	10962	keystroke_u	u	n/a
5.646	0.075	11292	keystroke_i	i	n/a
5.7505	0.062	11501	keystroke_c	c	n/a
5.8275	0.0755	11655	keystroke_k	k	n/a
5.933	0.149	11866	keystroke_Key.space	Key.space	n/a
6.308	0.076	12616	keystroke_b	b	n/a
6.4135	0.105	12827	keystroke_r	r	n/a
6.504	0.075	13008	keystroke_o	o	n/a
6.6085	0.1205	13217	keystroke_w	w	n/a
6.684	0.09	13368	keystroke_n	n	n/a
6.818	0.0755	13636	keystroke_Key.space	Key.space	n/a
6.864	0.089	13728	keystroke_f	f	n/a
6.9985	0.0755	13997	keystroke_o	o	n/a
7.089	0.1195	14178	keystroke_x	x	n/a
7.1935	0.0905	14387	keystroke_Key.space	Key.space	n/a
7.329	0.1055	14658	keystroke_h	h	n/a
7.419	0.105	14838	keystroke_u	u	n/a
7.599	0.089	15198	keystroke_m	m	n/a
7.7785	0.105	15557	keystroke_p	p	n/a
7.869	0.1045	15738	keystroke_s	s	n/a
7.9885	0.0755	15977	keystroke_Key.space	Key.space	n/a
8.154	0.0595	16308	keystroke_o	o	n/a
8.468	0.0755	16936	keystroke_Key.backspace	Key.backspace	n/a
8.709	0.045	17418	keystroke_Key.backspace	Key.backspace	n/a
8.799	0.0595	17598	keystroke_Key.backspace	Key.backspace	n/a
8.9345	0.1195	17869	keystroke_Key.backspace	Key.backspace	n/a
9.3535	0.0305	18707	keystroke_Key.backspace	Key.backspace	n/a
9.5035	0.075	19007	keystroke_Key.backspace	Key.backspace	n/a
9.6985	0.076	19397	keystroke_Key.backspace	Key.backspace	n/a
10.3445	0.104	20689	keystroke_j	j	n/a
10.524	0.0755	21048	keystroke_u	u	n/a
10.704	0.06	21408	keystroke_m	m	n/a
10.8085	0.1055	21617	keystroke_p	p	n/a
10.989	0.105	21978	keystroke_s	s	n/a
11.1085	0.0755	22217	keystroke_Key.space	Key.space	n/a
11.258	0.121	22516	keystroke_o	o	n/a
11.334	0.074	22668	keystroke_v	v	n/a
11.469	0.135	22938	keystroke_e	e	n/a
11.5435	0.1355	23087	keystroke_r	r	n/a
11.664	0.0595	23328	keystroke_Key.space	Key.space	n/a
11.768	0.0905	23536	keystroke_a	a	n/a
11.8735	0.0745	23747	keystroke_Key.space	Key.space	n/a
11.9935	0.0905	23987	keystroke_l	l	n/a
12.053	0.106	24106	keystroke_a	a	n/a
12.1285	0.105	24257	keystroke_z	z	n/a
12.249	0.089	24498	keystroke_y	y	n/a
12.7735	0.1205	25547	keystroke_Key.space	Key.space	n/a
12.8495	0.0895	25699	keystroke_d	d	n/a
12.9545	0.09	25909	keystroke_o	o	n/a
13.0585	0.0755	26117	keystroke_g	g	n/a
13.1485	0.1045	26297	keystroke_Key.enter	Key.enter	n/a
13.264	10.328	26528	prompt	n/a	prophet enabled click perceived\n
13.974	0.075	27948	keystroke_p	p	n/a
14.0335	0.091	28067	keystroke_r	r	n/a
14.1395	0.0895	28279	keystroke_o	o	n/a
14.3045	0.0735	28609	keystroke_h	h	n/a
14.4845	0.074	28969	keystroke_p	p	n/a
14.694	0.0755	29388	keystroke_h	h	n/a
14.754	0.1195	29508	keystroke_e	e	n/a
14.9335	0.1055	29867	keystroke_t	t	n/a
15.053	0.106	30106	keystroke_Key.space	Key.space	n/a
15.6385	0.0745	31277	keystroke_Key.backspace	Key.backspace	n/a
15.819	0.059	31638	keystroke_Key.backspace	Key.backspace	n/a
15.9835	0.075	31967	keystroke_Key.backspace	Key.backspace	n/a
16.1485	0.076	32297	keystroke_Key.backspace	Key.backspace	n/a
16.3435	0.0755	32687	keystroke_Key.backspace	Key.backspace	n/a
16.569	0.1045	33138	keystroke_Key.backspace	Key.backspace	n/a
16.914	0.105	33828	keystroke_p	p	n/a
17.1845	0.044	34369	keystroke_g	g	n/a
17.199	0.045	34398	keystroke_h	h	n/a
17.274	0.0895	34548	keystroke_e	e	n/a
17.4385	0.12	34877	keystroke_t	t	n/a
17.5735	0.1055	35147	keystroke_Key.space	Key.space	n/a
18.099	0.0595	36198	keystroke_Key.backspace	Key.backspace	n/a
18.264	0.075	36528	keystroke_Key.backspace	Key.backspace	n/a
18.474	0.075	36948	keystroke_Key.backspace	Key.backspace	n/a
18.699	0.105	37398	keystroke_Key.backspace	Key.backspace	n/a
19.0285	0.0605	38057	keystroke_Key.backspace	Key.backspace	n/a
19.7645	0.0595	39529	keystroke_h	h	n/a
19.8095	0.059	39619	keystroke_e	e	n/a
19.9745	0.105	39949	keystroke_t	t	n/a
20.064	0.1345	40128	keystroke_Key.space	Key.space	n/a
20.679	0.12	41358	keystroke_e	e	n/a
20.814	0.1055	41628	keystroke_n	n	n/a
20.934	0.105	41868	keystroke_a	a	n/a
21.0845	0.0735	42169	keystroke_b	b	n/a
21.2795	0.074	42559	keystroke_l	l	n/a
21.3395	0.1485	42679	keystroke_e	e	n/a
21.4435	0.106	42887	keystroke_d	d	n/a
21.504	0.105	43008	keystroke_Key.space	Key.space	n/a
21.7	0.104	43400	keystroke_c	c	n/a
21.7445	0.075	43489	keystroke_l	l	n/a
21.8785	0.075	43757	keystroke_i	i	n/a
21.9995	0.105	43999	keystroke_c	c	n/a
22.0445	0.105	44089	keystroke_k	k	n/a
22.179	0.074	44358	keystroke_Key.space	Key.space	n/a
22.329	0.0755	44658	keystroke_p	p	n/a
22.359	0.1045	44718	keystroke_e	e	n/a
22.419	0.105	44838	keystroke_r	r	n/a
22.689	0.09	45378	keystroke_c	c	n/a
22.7345	0.105	45469	keystroke_e	e	n/a
22.8245	0.105	45649	keystroke_i	i	n/a
22.9735	0.0905	45947	keystroke_v	v	n/a
23.184	0.15	46368	keystroke_e	e	n/a
23.259	0.1195	46518	keystroke_d	d	n/a
23.349	0.09	46698	keystroke_Key.space	Key.space	n/a
23.5135	0.076	47027	keystroke_Key.enter	Key.enter	n/a
23.597	6.4745	47194	prompt	n/a	damaged contract webcam congress\n
24.8945	0.0745	49789	keystroke_d	d	n/a
25.0885	0.0755	50177	keystroke_a	a	n/a
25.209	0.1355	50418	keystroke_m	m	n/a
25.299	0.1055	50598	keystroke_a	a	n/a
25.5985	0.0905	51197	keystroke_g	g	n/a
25.7645	0.1495	51529	keystroke_e	e	n/a
25.8685	0.09	51737	keystroke_d	d	n/a
25.9435	0.106	51887	keystroke_Key.space	Key.space	n/a
26.079	0.09	52158	keystroke_c	c	n/a
26.1395	0.0595	52279	keystroke_o	o	n/a
26.2895	0.1195	52579	keystroke_n	n	n/a
26.3485	0.121	52697	keystroke_t	t	n/a
26.4245	0.12	52849	keystroke_r	r	n/a
26.6935	0.046	53387	keystroke_a	a	n/a
26.8295	0.09	53659	keystroke_c	c	n/a
27.0535	0.1055	54107	keystroke_t	t	n/a
27.1435	0.1055	54287	keystroke_Key.space	Key.space	n/a
27.399	0.15	54798	keystroke_w	w	n/a
27.504	0.12	55008	keystroke_e	e	n/a
27.5785	0.09	55157	keystroke_b	b	n/a
27.804	0.09	55608	keystroke_c	c	n/a
27.909	0.0905	55818	keystroke_a	a	n/a
28.029	0.09	56058	keystroke_m	m	n/a
28.149	0.105	56298	keystroke_Key.space	Key.space	n/a
28.434	0.12	56868	keystroke_c	c	n/a
28.5395	0.0445	57079	keystroke_o	o	n/a
28.674	0.0905	57348	keystroke_n	n	n/a
28.7495	0.075	57499	keystroke_g	g	n/a
29.364	0.09	58728	keystroke_r	r	n/a
29.5135	0.0905	59027	keystroke_e	e	n/a
29.7245	0.0745	59449	keystroke_s	s	n/a
29.889	0.06	59778	keystroke_s	s	n/a
29.994	0.075	59988	keystroke_Key.enter	Key.enter	n/a
30.076	6.3555	60152	prompt	n/a	informative shan't allowance domain\n
30.924	0.105	61848	keystroke_i	i	n/a
31.089	0.1045	62178	keystroke_n	n	n/a
31.179	0.0595	62358	keystroke_f	f	n/a
31.329	0.075	62658	keystroke_r	r	n/a
31.3885	0.045	62777	keystroke_o	o	n/a
31.5085	0.121	63017	keystroke_m	m	n/a
31.5535	0.061	63107	keystroke_a	a	n/a
31.749	0.0755	63498	keystroke_t	t	n/a
31.8545	0.105	63709	keystroke_i	i	n/a
31.9595	0.1495	63919	keystroke_v	v	n/a
32.034	0.1055	64068	keystroke_e	e	n/a
32.1245	0.104	64249	keystroke_Key.space	Key.space	n/a
32.2595	0.074	64519	keystroke_s	s	n/a
32.3185	0.106	64637	keystroke_h	h	n/a
32.4545	0.075	64909	keystroke_a	a	n/a
33.159	0.09	66318	keystroke_n	n	n/a
33.354	0.12	66708	keystroke_'	'	n/a
33.639	0.135	67278	keystroke_t	t	n/a
33.894	0.09	67788	keystroke_Key.space	Key.space	n/a
34.119	0.075	68238	keystroke_a	a	n/a
34.2535	0.091	68507	keystroke_l	l	n/a
34.4195	0.0895	68839	keystroke_l	l	n/a
34.599	0.0755	69198	keystroke_o	o	n/a
34.6745	0.15	69349	keystroke_w	w	n/a
34.7795	0.1045	69559	keystroke_a	a	n/a
34.914	0.0745	69828	keystroke_n	n	n/a
35.0195	0.165	70039	keystroke_c	c	n/a
35.124	0.105	70248	keystroke_e	e	n/a
35.169	0.105	70338	keystroke_Key.space	Key.space	n/a
35.379	0.1495	70758	keystroke_d	d	n/a
35.4835	0.076	70967	keystroke_o	o	n/a
35.664	0.1355	71328	keystroke_m	m	n/a
35.9795	0.1195	71959	keystroke_a	a	n/a
36.039	0.0755	72078	keystroke_i	i	n/a
36.1745	0.0745	72349	keystroke_n	n	n/a
36.3245	0.1045	72649	keystroke_Key.enter	Key.enter	n/a
36.4365	5.919	72873	prompt	n/a	bonus comparative beliefs adjustable\n
37.0895	0.09	74179	keystroke_b	b	n/a
37.2695	0.075	74539	keystroke_o	o	n/a
37.4185	0.091	74837	keystroke_n	n	n/a
37.5535	0.091	75107	keystroke_u	u	n/a
37.6895	0.045	75379	keystroke_s	s	n/a
37.7485	0.0905	75497	keystroke_Key.space	Key.space	n/a
37.8685	0.1055	75737	keystroke_c	c	n/a
37.9285	0.061	75857	keystroke_o	o	n/a
38.0045	0.1045	76009	keystroke_m	m	n/a
38.1835	0.1205	76367	keystroke_p	p	n/a
38.244	0.0905	76488	keystroke_a	a	n/a
38.4545	0.06	76909	keystroke_r	r	n/a
38.5885	0.106	77177	keystroke_a	a	n/a
38.814	0.09	77628	keystroke_t	t	n/a
38.919	0.09	77838	keystroke_i	i	n/a
39.024	0.105	78048	keystroke_v	v	n/a
39.069	0.1205	78138	keystroke_e	e	n/a
39.1435	0.0905	78287	keystroke_Key.space	Key.space	n/a
39.3085	0.09	78617	keystroke_b	b	n/a
39.3845	0.1345	78769	keystroke_e	e	n/a
39.534	0.0605	79068	keystroke_l	l	n/a
40.074	0.315	80148	keystroke_i	i	n/a
40.3735	0.0305	80747	keystroke_e	e	n/a
40.4195	0.014	80839	keystroke_f	f	n/a
40.539	0.09	81078	keystroke_s	s	n/a
40.644	0.12	81288	keystroke_Key.space	Key.space	n/a
40.7945	0.0745	81589	keystroke_a	a	n/a
40.974	0.1205	81948	keystroke_d	d	n/a
41.079	0.12	82158	keystroke_j	j	n/a
41.319	0.105	82638	keystroke_u	u	n/a
41.409	0.09	82818	keystroke_s	s	n/a
41.559	0.105	83118	keystroke_t	t	n/a
41.784	0.1055	83568	keystroke_a	a	n/a
41.874	0.06	83748	keystroke_b	b	n/a
42.024	0.09	84048	keystroke_l	l	n/a
42.114	0.12	84228	keystroke_e	e	n/a
42.249	0.105	84498	keystroke_Key.enter	Key.enter	n/a
42.3595	3.747	84719	prompt	n/a	dial hang storage units\n
43.104	0.12	86208	keystroke_d	d	n/a
43.239	0.075	86478	keystroke_i	i	n/a
43.344	0.12	86688	keystroke_a	a	n/a
43.4195	0.1345	86839	keystroke_l	l	n/a
43.554	0.09	87108	keystroke_Key.space	Key.space	n/a
43.704	0.09	87408	keystroke_h	h	n/a
43.8095	0.09	87619	keystroke_a	a	n/a
43.914	0.09	87828	keystroke_n	n	n/a
44.019	0.075	88038	keystroke_g	g	n/a
44.079	0.105	88158	keystroke_Key.space	Key.space	n/a
44.2285	0.076	88457	keystroke_s	s	n/a
44.3785	0.0755	88757	keystroke_t	t	n/a
44.439	0.105	88878	keystroke_o	o	n/a
44.574	0.075	89148	keystroke_a	a	n/a
44.7685	0.1205	89537	keystroke_g	g	n/a
44.8435	0.166	89687	keystroke_e	e	n/a
44.9035	0.121	89807	keystroke_Key.space	Key.space	n/a
45.1145	0.0745	90229	keystroke_u	u	n/a
45.264	0.09	90528	keystroke_n	n	n/a
45.414	0.12	90828	keystroke_i	i	n/a
45.5495	0.09	91099	keystroke_t	t	n/a
45.8185	0.0905	91637	keystroke_s	s	n/a
46.044	0.06	92088	keystroke_Key.enter	Key.enter	n/a
46.116	6.095	92232	prompt	n/a	thinking bottles amateur salem\n
46.854	0.0745	93708	keystroke_t	t	n/a
46.9135	0.076	93827	keystroke_h	h	n/a
47.0335	0.091	94067	keystroke_i	i	n/a
47.1395	0.045	94279	keystroke_n	n	n/a
47.229	0.0905	94458	keystroke_k	k	n/a
47.3785	0.0905	94757	keystroke_i	i	n/a
47.484	0.121	94968	keystroke_n	n	n/a
47.589	0.12	95178	keystroke_g	g	n/a
47.664	0.135	95328	keystroke_Key.space	Key.space	n/a
47.919	0.06	95838	keystroke_h	h	n/a
48.264	0.06	96528	keystroke_Key.backspace	Key.backspace	n/a
48.489	0.0755	96978	keystroke_b	b	n/a
48.639	0.12	97278	keystroke_o	o	n/a
48.7445	0.0595	97489	keystroke_t	t	n/a
48.879	0.075	97758	keystroke_t	t	n/a
48.969	0.12	97938	keystroke_l	l	n/a
49.074	0.09	98148	keystroke_e	e	n/a
49.284	0.0755	98568	keystroke_s	s	n/a
49.3735	0.105	98747	keystroke_Key.space	Key.space	n/a
49.4795	0.09	98959	keystroke_a	a	n/a
49.6135	0.105	99227	keystroke_m	m	n/a
49.764	0.1055	99528	keystroke_a	a	n/a
50.064	0.09	100128	keystroke_t	t	n/a
50.7535	0.09	101507	keystroke_e	e	n/a
50.889	0.0895	101778	keystroke_u	u	n/a
50.994	0.1055	101988	keystroke_r	r	n/a
51.0835	0.15	102167	keystroke_Key.space	Key.space	n/a
51.2635	0.076	102527	keystroke_s	s	n/a
51.3985	0.0905	102797	keystroke_a	a	n/a
51.504	0.105	103008	keystroke_l	l	n/a
51.654	0.135	103308	keystroke_e	e	n/a
51.8195	0.09	103639	keystroke_m	m	n/a
52.134	0.075	104268	keystroke_Key.enter	Key.enter	n/a
52.216	4.9605	104432	prompt	n/a	accepted suse upgrading hawk\n
52.9145	0.0745	105829	keystroke_a	a	n/a
53.1395	0.074	106279	keystroke_c	c	n/a
53.2735	0.121	106547	keystroke_c	c	n/a
53.349	0.12	106698	keystroke_e	e	n/a
53.4995	0.0745	106999	keystroke_p	p	n/a
53.574	0.075	107148	keystroke_t	t	n/a
53.7095	0.119	107419	keystroke_e	e	n/a
53.7845	0.105	107569	keystroke_d	d	n/a
53.8585	0.105	107717	keystroke_Key.space	Key.space	n/a
54.0085	0.0905	108017	keystroke_s	s	n/a
54.1135	0.1055	108227	keystroke_u	u	n/a
54.804	0.2105	109608	keystroke_s	s	n/a
55.029	0.0145	110058	keystroke_e	e	n/a
55.0585	0.03	110117	keystroke_Key.space	Key.space	n/a
55.1635	0.075	110327	keystroke_u	u	n/a
55.3735	0.076	110747	keystroke_p	p	n/a
55.434	0.1195	110868	keystroke_g	g	n/a
55.494	0.0755	110988	keystroke_r	r	n/a
55.689	0.0755	111378	keystroke_a	a	n/a
55.8545	0.075	111709	keystroke_d	d	n/a
55.9445	0.0745	111889	keystroke_i	i	n/a
56.08	0.1045	112160	keystroke_n	n	n/a
56.1535	0.105	112307	keystroke_g	g	n/a
56.2735	0.09	112547	keystroke_Key.space	Key.space	n/a
56.4845	0.09	112969	keystroke_h	h	n/a
56.5595	0.0745	113119	keystroke_a	a	n/a
56.7095	0.135	113419	keystroke_w	w	n/a
56.8295	0.105	113659	keystroke_k	k	n/a
56.9495	0.1195	113899	keystroke_Key.space	Key.space	n/a
57.0545	0.1195	114109	keystroke_Key.enter	Key.enter	n/a
57.1815	9.354	114363	prompt	n/a	forestry detailed victorian quarter\n
57.744	0.1505	115488	keystroke_f	f	n/a
57.9535	0.105	115907	keystroke_o	o	n/a
58.0435	0.1205	116087	keystroke_r	r	n/a
58.1045	0.104	116209	keystroke_e	e	n/a
58.2695	0.105	116539	keystroke_s	s	n/a
58.5085	0.1055	117017	keystroke_t	t	n/a
58.5985	0.106	117197	keystroke_r	r	n/a
58.764	0.075	117528	keystroke_y	y	n/a
58.9435	0.12	117887	keystroke_Key.space	Key.space	n/a
59.0785	0.151	118157	keystroke_d	d	n/a
59.1685	0.12	118337	keystroke_e	e	n/a
59.3635	0.076	118727	keystroke_t	t	n/a
59.559	0.1045	119118	keystroke_a	a	n/a
59.5885	0.091	119177	keystroke_i	i	n/a
59.7995	0.09	119599	keystroke_l	l	n/a
59.8595	0.165	119719	keystroke_e	e	n/a
59.9645	0.135	119929	keystroke_d	d	n/a
60.054	0.0895	120108	keystroke_Key.space	Key.space	n/a
60.774	0.06	121548	keystroke_v	v	n/a
60.849	0.09	121698	keystroke_i	i	n/a
60.94	0.074	121880	keystroke_c	c	n/a
61.674	0.105	123348	keystroke_t	t	n/a
62.3485	0.075	124697	keystroke_Key.backspace	Key.backspace	n/a
64.0135	0.105	128027	keystroke_t	t	n/a
64.224	0.075	128448	keystroke_o	o	n/a
64.314	0.075	128628	keystroke_r	r	n/a
64.449	0.06	128898	keystroke_i	i	n/a
64.524	0.09	129048	keystroke_a	a	n/a
64.6295	0.1055	129259	keystroke_n	n	n/a
64.8235	0.09	129647	keystroke_Key.space	Key.space	n/a
65.2285	0.105	130457	keystroke_q	q	n/a
65.319	0.1045	130638	keystroke_u	u	n/a
65.4535	0.1355	130907	keystroke_a	a	n/a
65.754	0.1205	131508	keystroke_r	r	n/a
65.9785	0.0755	131957	keystroke_t	t	n/a
66.1445	0.104	132289	keystroke_e	e	n/a
66.2035	0.09	132407	keystroke_r	r	n/a
66.4145	0.119	132829	keystroke_Key.enter	Key.enter	n/a
66.5395	5.711	133079	prompt	n/a	remembered lunch toolkit gathered\n
67.164	0.15	134328	keystroke_r	r	n/a
67.2395	0.135	134479	keystroke_e	e	n/a
67.3885	0.09	134777	keystroke_m	m	n/a
67.4945	0.15	134989	keystroke_e	e	n/a
67.719	0.135	135438	keystroke_m	m	n/a
68.214	0.0905	136428	keystroke_b	b	n/a
68.4235	0.151	136847	keystroke_e	e	n/a
68.6795	0.1045	137359	keystroke_r	r	n/a
68.754	0.105	137508	keystroke_e	e	n/a
68.9195	0.1195	137839	keystroke_d	d	n/a
69.009	0.09	138018	keystroke_Key.space	Key.space	n/a
69.16	0.059	138320	keystroke_l	l	n/a
69.294	0.09	138588	keystroke_u	u	n/a
69.444	0.09	138888	keystroke_n	n	n/a
69.5195	0.1195	139039	keystroke_c	c	n/a
69.654	0.06	139308	keystroke_h	h	n/a
69.7595	0.104	139519	keystroke_Key.space	Key.space	n/a
69.8785	0.091	139757	keystroke_t	t	n/a
69.9845	0.06	139969	keystroke_o	o	n/a
70.119	0.075	140238	keystroke_o	o	n/a
70.284	0.075	140568	keystroke_l	l	n/a
70.479	0.075	140958	keystroke_k	k	n/a
70.6585	0.0905	141317	keystroke_i	i	n/a
70.764	0.1055	141528	keystroke_t	t	n/a
70.854	0.105	141708	keystroke_Key.space	Key.space	n/a
71.034	0.075	142068	keystroke_g	g	n/a
71.229	0.09	142458	keystroke_a	a	n/a
71.439	0.105	142878	keystroke_t	t	n/a
71.589	0.09	143178	keystroke_h	h	n/a
71.634	0.105	143268	keystroke_e	e	n/a
71.7545	0.119	143509	keystroke_r	r	n/a
71.844	0.0745	143688	keystroke_e	e	n/a
71.9945	0.12	143989	keystroke_d	d	n/a
72.1285	0.1205	144257	keystroke_Key.enter	Key.enter	n/a
72.2545	5.366	144509	prompt	n/a	teacher moses furnished richmond\n
72.894	0.1055	145788	keystroke_t	t	n/a
73.014	0.1355	146028	keystroke_e	e	n/a
73.269	0.075	146538	keystroke_a	a	n/a
73.449	0.075	146898	keystroke_c	c	n/a
73.539	0.1045	147078	keystroke_h	h	n/a
73.6295	0.1195	147259	keystroke_e	e	n/a
73.7185	0.1055	147437	keystroke_r	r	n/a
73.779	0.075	147558	keystroke_Key.space	Key.space	n/a
73.9135	0.105	147827	keystroke_m	m	n/a
74.0485	0.105	148097	keystroke_o	o	n/a
74.094	0.0905	148188	keystroke_s	s	n/a
74.289	0.1195	148578	keystroke_e	e	n/a
74.3645	0.105	148729	keystroke_s	s	n/a
74.454	0.1045	148908	keystroke_Key.space	Key.space	n/a
74.619	0.1055	149238	keystroke_f	f	n/a
74.859	0.105	149718	keystroke_u	u	n/a
75.069	0.0905	150138	keystroke_r	r	n/a
75.219	0.0745	150438	keystroke_n	n	n/a
75.369	0.0745	150738	keystroke_i	i	n/a
75.4285	0.1055	150857	keystroke_s	s	n/a
75.579	0.0605	151158	keystroke_h	h	n/a
75.6395	0.1345	151279	keystroke_e	e	n/a
75.714	0.135	151428	keystroke_d	d	n/a
76.089	0.105	152178	keystroke_Key.space	Key.space	n/a
76.359	0.09	152718	keystroke_r	r	n/a
76.464	0.09	152928	keystroke_i	i	n/a
76.5695	0.1045	153139	keystroke_c	c	n/a
76.689	0.045	153378	keystroke_h	h	n/a
76.9145	0.06	153829	keystroke_m	m	n/a
77.0195	0.12	154039	keystroke_o	o	n/a
77.2595	0.075	154519	keystroke_n	n	n/a
77.379	0.1505	154758	keystroke_d	d	n/a
77.514	0.105	155028	keystroke_Key.enter	Key.enter	n/a
77.6255	5.9655	155251	prompt	n/a	assisted fold hartford sentence\n
78.234	0.15	156468	keystroke_a	a	n/a
78.354	0.105	156708	keystroke_s	s	n/a
78.5645	0.0895	157129	keystroke_s	s	n/a
78.714	0.1055	157428	keystroke_i	i	n/a
78.7895	0.1195	157579	keystroke_s	s	n/a
79.0145	0.074	158029	keystroke_t	t	n/a
79.1495	0.119	158299	keystroke_e	e	n/a
79.2245	0.1045	158449	keystroke_d	d	n/a
79.284	0.105	158568	keystroke_Key.space	Key.space	n/a
79.449	0.12	158898	keystroke_f	f	n/a
79.5545	0.105	159109	keystroke_o	o	n/a
79.7645	0.0895	159529	keystroke_l	l	n/a
79.9445	0.1045	159889	keystroke_d	d	n/a
80.004	0.0895	160008	keystroke_Key.space	Key.space	n/a
80.1835	0.09	160367	keystroke_h	h	n/a
80.229	0.09	160458	keystroke_a	a	n/a
80.4235	0.0905	160847	keystroke_r	r	n/a
80.769	0.09	161538	keystroke_t	t	n/a
81.009	0.0605	162018	keystroke_f	f	n/a
81.0995	0.0895	162199	keystroke_o	o	n/a
81.519	0.09	163038	keystroke_r	r	n/a
81.714	0.0905	163428	keystroke_d	d	n/a
81.7735	0.105	163547	keystroke_Key.space	Key.space	n/a
81.939	0.075	163878	keystroke_s	s	n/a
82.1345	0.0895	164269	keystroke_e	e	n/a
82.254	0.1205	164508	keystroke_n	n	n/a
82.4045	0.1045	164809	keystroke_t	t	n/a
83.0645	0.09	166129	keystroke_e	e	n/a
83.1845	0.09	166369	keystroke_n	n	n/a
83.289	0.1045	166578	keystroke_c	c	n/a
83.3495	0.104	166699	keystroke_e	e	n/a
83.4685	0.121	166937	keystroke_Key.enter	Key.enter	n/a
83.5965	5.9795	167193	prompt	n/a	hired realize assumption protected\n
84.3695	0.044	168739	keystroke_h	h	n/a
84.4285	0.1205	168857	keystroke_e	e	n/a
84.804	0.0595	169608	keystroke_Key.backspace	Key.backspace	n/a
85.0295	0.1045	170059	keystroke_i	i	n/a
85.0885	0.106	170177	keystroke_r	r	n/a
85.1635	0.106	170327	keystroke_e	e	n/a
85.3285	0.1355	170657	keystroke_d	d	n/a
85.449	0.09	170898	keystroke_Key.space	Key.space	n/a
85.614	0.1055	171228	keystroke_r	r	n/a
85.674	0.1055	171348	keystroke_e	e	n/a
85.899	0.105	171798	keystroke_a	a	n/a
85.975	0.0745	171950	keystroke_l	l	n/a
86.1245	0.105	172249	keystroke_i	i	n/a
86.2135	0.0755	172427	keystroke_z	z	n/a
86.4245	0.09	172849	keystroke_e	e	n/a
86.5295	0.119	173059	keystroke_Key.space	Key.space	n/a
86.7095	0.09	173419	keystroke_a	a	n/a
87.0235	0.0755	174047	keystroke_s	s	n/a
87.2035	0.105	174407	keystroke_s	s	n/a
87.2645	0.075	174529	keystroke_u	u	n/a
87.4135	0.091	174827	keystroke_m	m	n/a
87.5485	0.075	175097	keystroke_p	p	n/a
87.639	0.0895	175278	keystroke_t	t	n/a
87.744	0.0605	175488	keystroke_i	i	n/a
87.8945	0.044	175789	keystroke_o	o	n/a
88.014	0.09	176028	keystroke_n	n	n/a
88.119	0.0745	176238	keystroke_Key.space	Key.space	n/a
88.2535	0.0905	176507	keystroke_p	p	n/a
88.359	0.15	176718	keystroke_r	r	n/a
88.524	0.105	177048	keystroke_o	o	n/a
88.674	0.1055	177348	keystroke_t	t	n/a
88.7495	0.105	177499	keystroke_e	e	n/a
88.929	0.09	177858	keystroke_c	c	n/a
89.154	0.045	178308	keystroke_t	t	n/a
89.274	0.1055	178548	keystroke_e	e	n/a
89.349	0.09	178698	keystroke_d	d	n/a
89.439	0.135	178878	keystroke_Key.enter	Key.enter	n/a
89.5805	6.715	179161	prompt	n/a	requires metallic failed richmond\n
90.2195	0.135	180439	keystroke_r	r	n/a
90.324	0.105	180648	keystroke_e	e	n/a
90.564	0.0755	181128	keystroke_q	q	n/a
90.654	0.075	181308	keystroke_u	u	n/a
90.8345	0.09	181669	keystroke_i	i	n/a
90.8795	0.12	181759	keystroke_r	r	n/a
90.9535	0.106	181907	keystroke_e	e	n/a
91.179	0.135	182358	keystroke_s	s	n/a
91.269	0.105	182538	keystroke_Key.space	Key.space	n/a
91.6295	0.1045	183259	keystroke_m	m	n/a
91.719	0.0905	183438	keystroke_e	e	n/a
91.899	0.0605	183798	keystroke_t	t	n/a
92.064	0.1045	184128	keystroke_a	a	n/a
92.124	0.0755	184248	keystroke_l	l	n/a
92.3045	0.12	184609	keystroke_i	i	n/a
92.3945	0.105	184789	keystroke_c	c	n/a
92.994	0.0605	185988	keystroke_Key.backspace	Key.backspace	n/a
93.1295	0.075	186259	keystroke_Key.backspace	Key.backspace	n/a
93.339	0.0755	186678	keystroke_l	l	n/a
93.489	0.09	186978	keystroke_i	i	n/a
93.564	0.0755	187128	keystroke_c	c	n/a
93.699	0.1045	187398	keystroke_Key.space	Key.space	n/a
94.419	0.0895	188838	keystroke_f	f	n/a
94.6295	0.09	189259	keystroke_a	a	n/a
94.6885	0.0605	189377	keystroke_i	i	n/a
94.839	0.0905	189678	keystroke_l	l	n/a
94.899	0.15	189798	keystroke_e	e	n/a
94.9895	0.0895	189979	keystroke_d	d	n/a
95.064	0.09	190128	keystroke_Key.space	Key.space	n/a
95.199	0.06	190398	keystroke_r	r	n/a
95.2295	0.0745	190459	keystroke_i	i	n/a
95.3795	0.1055	190759	keystroke_c	c	n/a
95.485	0.0745	190970	keystroke_h	h	n/a
95.709	0.0755	191418	keystroke_m	m	n/a
95.845	0.0735	191690	keystroke_o	o	n/a
95.9935	0.076	191987	keystroke_n	n	n/a
96.0985	0.091	192197	keystroke_d	d	n/a
96.174	0.12	192348	keystroke_Key.enter	Key.enter	n/a
96.299	6.7775	192598	prompt	n/a	chapters fisher underground breaks\n
97.029	0.1055	194058	keystroke_h	h	n/a
97.3595	0.0595	194719	keystroke_Key.backspace	Key.backspace	n/a
97.479	0.075	194958	keystroke_c	c	n/a
97.584	0.0905	195168	keystroke_h	h	n/a
97.6885	0.0905	195377	keystroke_a	a	n/a
97.8095	0.0895	195619	keystroke_p	p	n/a
97.9745	0.0295	195949	keystroke_t	t	n/a
98.049	0.1205	196098	keystroke_e	e	n/a
98.139	0.12	196278	keystroke_r	r	n/a
98.4695	0.105	196939	keystroke_s	s	n/a
98.619	0.09	197238	keystroke_Key.space	Key.space	n/a
99.0695	0.105	198139	keystroke_f	f	n/a
99.1595	0.06	198319	keystroke_i	i	n/a
99.2795	0.09	198559	keystroke_s	s	n/a
99.3245	0.105	198649	keystroke_h	h	n/a
99.4745	0.135	198949	keystroke_e	e	n/a
99.5345	0.15	199069	keystroke_r	r	n/a
99.6245	0.105	199249	keystroke_Key.space	Key.space	n/a
99.79	0.0595	199580	keystroke_u	u	n/a
99.909	0.105	199818	keystroke_n	n	n/a
100.435	0.1195	200870	keystroke_d	d	n/a
100.539	0.1355	201078	keystroke_e	e	n/a
100.8395	0.1195	201679	keystroke_g	g	n/a
101.184	0.0595	202368	keystroke_Key.backspace	Key.backspace	n/a
101.2895	0.09	202579	keystroke_r	r	n/a
101.4845	0.135	202969	keystroke_g	g	n/a
101.5445	0.135	203089	keystroke_r	r	n/a
101.5895	0.075	203179	keystroke_o	o	n/a
101.755	0.0745	203510	keystroke_u	u	n/a
101.9495	0.075	203899	keystroke_n	n	n/a
102.039	0.075	204078	keystroke_d	d	n/a
102.1295	0.104	204259	keystroke_Key.space	Key.space	n/a
102.3245	0.105	204649	keystroke_b	b	n/a
102.3985	0.121	204797	keystroke_r	r	n/a
102.4595	0.105	204919	keystroke_e	e	n/a
102.6845	0.059	205369	keystroke_a	a	n/a
102.7	0.1045	205400	keystroke_k	k	n/a
102.8645	0.105	205729	keystroke_s	s	n/a
102.9695	0.104	205939	keystroke_Key.enter	Key.enter	n/a
103.0815	7.9295	206163	prompt	n/a	inspired acquired foundation hear\n
103.885	0.059	207770	keystroke_i	i	n/a
104.019	0.075	208038	keystroke_n	n	n/a
104.1095	0.0745	208219	keystroke_s	s	n/a
104.229	0.0605	208458	keystroke_p	p	n/a
104.394	0.0905	208788	keystroke_i	i	n/a
104.4695	0.135	208939	keystroke_r	r	n/a
104.6645	0.15	209329	keystroke_e	e	n/a
104.769	0.12	209538	keystroke_d	d	n/a
104.874	0.105	209748	keystroke_Key.space	Key.space	n/a
105.0245	0.0905	210049	keystroke_a	a	n/a
105.22	0.075	210440	keystroke_c	c	n/a
105.414	0.105	210828	keystroke_q	q	n/a
105.5345	0.0595	211069	keystroke_u	u	n/a
105.714	0.09	211428	keystroke_i	i	n/a
105.7595	0.1205	211519	keystroke_r	r	n/a
105.88	0.209	211760	keystroke_e	e	n/a
106.029	0.0905	212058	keystroke_d	d	n/a
106.104	0.09	212208	keystroke_Key.space	Key.space	n/a
106.254	0.105	212508	keystroke_f	f	n/a
106.2995	0.045	212599	keystroke_o	o	n/a
106.5995	0.09	213199	keystroke_n	n	n/a
106.644	0.075	213288	keystroke_d	d	n/a
107.1845	0.045	214369	keystroke_Key.backspace	Key.backspace	n/a
107.3345	0.075	214669	keystroke_Key.backspace	Key.backspace	n/a
107.6045	0.06	215209	keystroke_u	u	n/a
107.769	0.0905	215538	keystroke_n	n	n/a
107.8445	0.03	215689	keystroke_d	d	n/a
108.0545	0.09	216109	keystroke_a	a	n/a
109.5845	0.119	219169	keystroke_t	t	n/a
109.7035	0.076	219407	keystroke_i	i	n/a
109.8545	0.0745	219709	keystroke_o	o	n/a
110.019	0.1655	220038	keystroke_n	n	n/a
110.1395	0.1345	220279	keystroke_Key.space	Key.space	n/a
110.4245	0.09	220849	keystroke_h	h	n/a
110.484	0.135	220968	keystroke_e	e	n/a
110.589	0.09	221178	keystroke_a	a	n/a
110.754	0.105	221508	keystroke_r	r	n/a
110.859	0.15	221718	keystroke_Key.enter	Key.enter	n/a
111.0155	4.63	222031	prompt	n/a	lesson newspaper donation china\n
111.67	0.105	223340	keystroke_l	l	n/a
111.775	0.074	223550	keystroke_e	e	n/a
111.984	0.06	223968	keystroke_s	s	n/a
112.1195	0.1045	224239	keystroke_s	s	n/a
112.179	0.03	224358	keystroke_o	o	n/a
112.2995	0.09	224599	keystroke_n	n	n/a
112.404	0.075	224808	keystroke_Key.space	Key.space	n/a
112.5245	0.12	225049	keystroke_n	n	n/a
112.6595	0.1045	225319	keystroke_e	e	n/a
112.7195	0.1195	225439	keystroke_w	w	n/a
112.914	0.1205	225828	keystroke_s	s	n/a
113.049	0.075	226098	keystroke_p	p	n/a
113.139	0.091	226278	keystroke_a	a	n/a
113.2445	0.105	226489	keystroke_p	p	n/a
113.3945	0.105	226789	keystroke_e	e	n/a
113.4695	0.12	226939	keystroke_r	r	n/a
113.5595	0.105	227119	keystroke_Key.space	Key.space	n/a
113.7245	0.105	227449	keystroke_d	d	n/a
113.8595	0.045	227719	keystroke_o	o	n/a
113.995	0.1045	227990	keystroke_n	n	n/a
114.0845	0.075	228169	keystroke_a	a	n/a
114.2795	0.105	228559	keystroke_t	t	n/a
114.3695	0.06	228739	keystroke_i	i	n/a
114.5345	0.045	229069	keystroke_o	o	n/a
114.6695	0.105	229339	keystroke_n	n	n/a
114.7445	0.12	229489	keystroke_Key.space	Key.space	n/a
114.8495	0.0755	229699	keystroke_c	c	n/a
114.925	0.0745	229850	keystroke_h	h	n/a
115.0595	0.075	230119	keystroke_i	i	n/a
115.1795	0.09	230359	keystroke_n	n	n/a
115.2245	0.09	230449	keystroke_a	a	n/a
115.5245	0.12	231049	keystroke_Key.enter	Key.enter	n/a
115.6505	5.0955	231301	prompt	n/a	aerial literacy poem modem\n
116.2745	0.105	232549	keystroke_a	a	n/a
116.5295	0.1505	233059	keystroke_e	e	n/a
116.6495	0.12	233299	keystroke_r	r	n/a
116.9495	0.089	233899	keystroke_i	i	n/a
117.0545	0.12	234109	keystroke_a	a	n/a
117.1895	0.0755	234379	keystroke_l	l	n/a
117.3085	0.09	234617	keystroke_Key.space	Key.space	n/a
117.4895	0.0595	234979	keystroke_l	l	n/a
117.624	0.121	235248	keystroke_i	i	n/a
117.73	0.06	235460	keystroke_t	t	n/a
117.804	0.151	235608	keystroke_e	e	n/a
117.925	0.09	235850	keystroke_r	r	n/a
118.134	0.076	236268	keystroke_a	a	n/a
118.344	0.09	236688	keystroke_c	c	n/a
118.7045	0.0605	237409	keystroke_y	y	n/a
118.869	0.09	237738	keystroke_Key.space	Key.space	n/a
119.05	0.0745	238100	keystroke_p	p	n/a
119.2445	0.0745	238489	keystroke_o	o	n/a
119.3045	0.1045	238609	keystroke_e	e	n/a
119.469	0.105	238938	keystroke_m	m	n/a
119.6195	0.105	239239	keystroke_Key.space	Key.space	n/a
119.8	0.0745	239600	keystroke_m	m	n/a
119.949	0.09	239898	keystroke_o	o	n/a
120.009	0.1355	240018	keystroke_d	d	n/a
120.0845	0.105	240169	keystroke_e	e	n/a
120.265	0.09	240530	keystroke_r	r	n/a
120.3695	0.06	240739	keystroke_n	n	n/a
120.6245	0.12	241249	keystroke_Key.enter	Key.enter	n/a
120.7505	8.5605	241501	prompt	n/a	ensemble smtp incl glasgow\n
121.7345	0.1495	243469	keystroke_e	e	n/a
121.9295	0.1045	243859	keystroke_n	n	n/a
122.1545	0.1195	244309	keystroke_s	s	n/a
122.4845	0.1055	244969	keystroke_e	e	n/a
122.6045	0.1045	245209	keystroke_m	m	n/a
122.829	0.105	245658	keystroke_b	b	n/a
123.024	0.075	246048	keystroke_l	l	n/a
123.114	0.09	246228	keystroke_e	e	n/a
123.204	0.105	246408	keystroke_Key.space	Key.space	n/a
123.399	0.105	246798	keystroke_s	s	n/a
123.6845	0.1345	247369	keystroke_m	m	n/a
124.3445	0.105	248689	keystroke_t	t	n/a
124.5245	0.09	249049	keystroke_p	p	n/a
124.809	0.1055	249618	keystroke_Key.space	Key.space	n/a
125.0045	0.1195	250009	keystroke_i	i	n/a
125.154	0.075	250308	keystroke_c	c	n/a
125.1995	0.09	250399	keystroke_n	n	n/a
125.6045	0.045	251209	keystroke_Key.backspace	Key.backspace	n/a
126.0695	0.075	252139	keystroke_Key.backspace	Key.backspace	n/a
126.3695	0.045	252739	keystroke_n	n	n/a
126.4295	0.12	252859	keystroke_c	c	n/a
126.5645	0.105	253129	keystroke_l	l	n/a
126.894	0.0905	253788	keystroke_Key.space	Key.space	n/a
127.24	0.105	254480	keystroke_g	g	n/a
127.375	0.0895	254750	keystroke_l	l	n/a
127.5245	0.105	255049	keystroke_a	a	n/a
127.735	0.12	255470	keystroke_s	s	n/a
128.094	0.0745	256188	keystroke_g	g	n/a
128.1545	0.105	256309	keystroke_l	l	n/a
128.709	0.0605	257418	keystroke_Key.backspace	Key.backspace	n/a
128.9345	0.09	257869	keystroke_o	o	n/a
129.009	0.09	258018	keystroke_w	w	n/a
129.1445	0.165	258289	keystroke_Key.enter	Key.enter	n/a
129.314	5.8475	258628	prompt	n/a	regularly instant tennis condos\n
129.9395	0.1355	259879	keystroke_r	r	n/a
130.0285	0.091	260057	keystroke_e	e	n/a
130.1945	0.075	260389	keystroke_g	g	n/a
130.285	0.06	260570	keystroke_u	u	n/a
130.4495	0.105	260899	keystroke_l	l	n/a
130.4935	0.076	260987	keystroke_a	a	n/a
130.7195	0.12	261439	keystroke_r	r	n/a
130.824	0.0755	261648	keystroke_y	y	n/a
130.9445	0.1195	261889	keystroke_Key.space	Key.space	n/a
131.604	0.0905	263208	keystroke_i	i	n/a
131.7395	0.135	263479	keystroke_n	n	n/a
131.799	0.091	263598	keystroke_s	s	n/a
131.964	0.0755	263928	keystroke_t	t	n/a
132.9695	0.1205	265939	keystroke_a	a	n/a
133.1795	0.09	266359	keystroke_n	n	n/a
133.2995	0.09	266599	keystroke_t	t	n/a
133.4045	0.105	266809	keystroke_Key.space	Key.space	n/a
133.5395	0.09	267079	keystroke_t	t	n/a
133.6445	0.1195	267289	keystroke_e	e	n/a
133.8245	0.06	267649	keystroke_n	n	n/a
133.9745	0.0745	267949	keystroke_n	n	n/a
134.1245	0.09	268249	keystroke_i	i	n/a
134.1995	0.09	268399	keystroke_s	s	n/a
134.2595	0.0895	268519	keystroke_Key.space	Key.space	n/a
134.395	0.104	268790	keystroke_c	c	n/a
134.439	0.075	268878	keystroke_o	o	n/a
134.619	0.076	269238	keystroke_n	n	n/a
134.695	0.1045	269390	keystroke_d	d	n/a
134.8145	0.1205	269629	keystroke_o	o	n/a
134.905	0.15	269810	keystroke_s	s	n/a
135.0245	0.1345	270049	keystroke_Key.enter	Key.enter	n/a
135.1665	4.2545	270333	prompt	n/a	thinks stripes cellular road\n
135.8045	0.0905	271609	keystroke_t	t	n/a
135.879	0.0755	271758	keystroke_h	h	n/a
136.014	0.061	272028	keystroke_i	i	n/a
136.104	0.105	272208	keystroke_n	n	n/a
136.224	0.106	272448	keystroke_k	k	n/a
136.314	0.075	272628	keystroke_s	s	n/a
136.419	0.09	272838	keystroke_Key.space	Key.space	n/a
136.51	0.104	273020	keystroke_s	s	n/a
136.7195	0.1805	273439	keystroke_t	t	n/a
136.825	0.1495	273650	keystroke_r	r	n/a
136.9595	0.0605	273919	keystroke_i	i	n/a
137.1545	0.09	274309	keystroke_p	p	n/a
137.2595	0.105	274519	keystroke_e	e	n/a
137.3195	0.12	274639	keystroke_s	s	n/a
137.424	0.1055	274848	keystroke_Key.space	Key.space	n/a
137.6195	0.15	275239	keystroke_c	c	n/a
137.71	0.119	275420	keystroke_e	e	n/a
137.874	0.0755	275748	keystroke_l	l	n/a
138.04	0.0895	276080	keystroke_l	l	n/a
138.2345	0.075	276469	keystroke_u	u	n/a
138.4145	0.0895	276829	keystroke_l	l	n/a
138.474	0.075	276948	keystroke_a	a	n/a
138.684	0.0755	277368	keystroke_r	r	n/a
138.7445	0.0745	277489	keystroke_Key.space	Key.space	n/a
138.8945	0.0755	277789	keystroke_r	r	n/a
138.9395	0.09	277879	keystroke_o	o	n/a
139.075	0.104	278150	keystroke_a	a	n/a
139.194	0.09	278388	keystroke_d	d	n/a
139.3445	0.075	278689	keystroke_Key.enter	Key.enter	n/a
139.4255	6.281	278851	prompt	n/a	cables insurance integration business\n
140.095	0.059	280190	keystroke_c	c	n/a
140.29	0.0895	280580	keystroke_a	a	n/a
140.3645	0.075	280729	keystroke_b	b	n/a
140.5295	0.1045	281059	keystroke_l	l	n/a
140.604	0.12	281208	keystroke_e	e	n/a
140.679	0.1205	281358	keystroke_s	s	n/a
140.7695	0.075	281539	keystroke_Key.space	Key.space	n/a
140.9045	0.06	281809	keystroke_i	i	n/a
141.0095	0.1055	282019	keystroke_n	n	n/a
141.1295	0.0905	282259	keystroke_s	s	n/a
141.1895	0.12	282379	keystroke_u	u	n/a
141.3245	0.06	282649	keystroke_r	r	n/a
141.4895	0.09	282979	keystroke_a	a	n/a
141.6245	0.09	283249	keystroke_n	n	n/a
141.6695	0.1495	283339	keystroke_c	c	n/a
141.7595	0.15	283519	keystroke_e	e	n/a
141.834	0.0905	283668	keystroke_Key.space	Key.space	n/a
141.9845	0.09	283969	keystroke_i	i	n/a
142.1795	0.09	284359	keystroke_n	n	n/a
142.2845	0.1345	284569	keystroke_t	t	n/a
142.3895	0.105	284779	keystroke_e	e	n/a
142.614	0.106	285228	keystroke_g	g	n/a
142.6745	0.09	285349	keystroke_r	r	n/a
142.8995	0.045	285799	keystroke_a	a	n/a
143.14	0.1045	286280	keystroke_t	t	n/a
143.1695	0.06	286339	keystroke_i	i	n/a
143.3495	0.0305	286699	keystroke_o	o	n/a
143.455	0.1195	286910	keystroke_n	n	n/a
143.5745	0.104	287149	keystroke_Key.space	Key.space	n/a
143.7095	0.0905	287419	keystroke_b	b	n/a
143.815	0.0295	287630	keystroke_u	u	n/a
144.745	0.105	289490	keystroke_s	s	n/a
144.865	0.06	289730	keystroke_i	i	n/a
145.0145	0.0905	290029	keystroke_n	n	n/a
145.089	0.105	290178	keystroke_e	e	n/a
145.329	0.061	290658	keystroke_s	s	n/a
145.48	0.09	290960	keystroke_s	s	n/a
145.554	0.15	291108	keystroke_Key.enter	Key.enter	n/a
145.7115	7.1345	291423	prompt	n/a	called restored rand francis\n
146.275	0.0595	292550	keystroke_c	c	n/a
146.425	0.104	292850	keystroke_a	a	n/a
146.5595	0.06	293119	keystroke_l	l	n/a
146.724	0.0605	293448	keystroke_l	l	n/a
146.8595	0.075	293719	keystroke_l	l	n/a
146.905	0.134	293810	keystroke_e	e	n/a
146.964	0.1355	293928	keystroke_d	d	n/a
147.1295	0.075	294259	keystroke_Key.space	Key.space	n/a
147.6845	0.045	295369	keystroke_Key.backspace	Key.backspace	n/a
147.8345	0.075	295669	keystroke_Key.backspace	Key.backspace	n/a
148.014	0.06	296028	keystroke_Key.backspace	Key.backspace	n/a
148.209	0.0605	296418	keystroke_Key.backspace	Key.backspace	n/a
148.2845	0.15	296569	keystroke_e	e	n/a
148.3895	0.1205	296779	keystroke_d	d	n/a
148.7345	0.105	297469	keystroke_Key.space	Key.space	n/a
148.9145	0.1505	297829	keystroke_r	r	n/a
148.9895	0.12	297979	keystroke_e	e	n/a
149.215	0.0595	298430	keystroke_s	s	n/a
149.3495	0.075	298699	keystroke_t	t	n/a
149.4695	0.12	298939	keystroke_o	o	n/a
149.5595	0.09	299119	keystroke_r	r	n/a
149.6195	0.12	299239	keystroke_e	e	n/a
149.9045	0.105	299809	keystroke_d	d	n/a
150.0545	0.105	300109	keystroke_Key.space	Key.space	n/a
150.3545	0.1055	300709	keystroke_r	r	n/a
150.5795	0.09	301159	keystroke_a	a	n/a
150.6995	0.0905	301399	keystroke_n	n	n/a
150.8345	0.135	301669	keystroke_d	d	n/a
150.9995	0.15	301999	keystroke_Key.space	Key.space	n/a
151.4945	0.03	302989	keystroke_f	f	n/a
151.825	0.0895	303650	keystroke_r	r	n/a
152.05	0.075	304100	keystroke_a	a	n/a
152.1395	0.105	304279	keystroke_n	n	n/a
152.2595	0.045	304519	keystroke_c	c	n/a
152.3345	0.105	304669	keystroke_i	i	n/a
152.4245	0.075	304849	keystroke_s	s	n/a
152.5445	0.09	305089	keystroke_Key.space	Key.space	n/a
152.7245	0.1195	305449	keystroke_Key.enter	Key.enter	n/a
152.8505	11.1705	305701	prompt	n/a	directly edition industry waste\n
153.5045	0.12	307009	keystroke_d	d	n/a
153.6995	0.1205	307399	keystroke_i	i	n/a
153.79	0.105	307580	keystroke_r	r	n/a
153.8645	0.0755	307729	keystroke_e	e	n/a
154.03	0.0895	308060	keystroke_c	c	n/a
154.239	0.046	308478	keystroke_r	r	n/a
154.24	0.0745	308480	keystroke_t	t	n/a
154.329	0.09	308658	keystroke_l	l	n/a
154.434	0.09	308868	keystroke_y	y	n/a
154.539	0.1055	309078	keystroke_Key.space	Key.space	n/a
155.3635	0.0605	310727	keystroke_Key.backspace	Key.backspace	n/a
155.5295	0.075	311059	keystroke_Key.backspace	Key.backspace	n/a
155.709	0.075	311418	keystroke_Key.backspace	Key.backspace	n/a
155.889	0.045	311778	keystroke_Key.backspace	Key.backspace	n/a
156.8195	0.06	313639	keystroke_Key.backspace	Key.backspace	n/a
157.0145	0.12	314029	keystroke_t	t	n/a
158.529	0.0605	317058	keystroke_l	l	n/a
158.605	0.09	317210	keystroke_y	y	n/a
159.0395	0.12	318079	keystroke_Key.space	Key.space	n/a
159.189	0.1955	318378	keystroke_e	e	n/a
159.34	0.1345	318680	keystroke_d	d	n/a
159.6095	0.1055	319219	keystroke_i	i	n/a
159.7595	0.135	319519	keystroke_t	t	n/a
160.1495	0.06	320299	keystroke_i	i	n/a
160.3295	0.045	320659	keystroke_o	o	n/a
160.465	0.1345	320930	keystroke_n	n	n/a
160.5545	0.075	321109	keystroke_Key.space	Key.space	n/a
160.6595	0.075	321319	keystroke_i	i	n/a
160.765	0.09	321530	keystroke_n	n	n/a
160.84	0.1045	321680	keystroke_d	d	n/a
160.9595	0.1195	321919	keystroke_u	u	n/a
161.035	0.1045	322070	keystroke_s	s	n/a
161.244	0.135	322488	keystroke_t	t	n/a
161.304	0.09	322608	keystroke_r	r	n/a
161.4695	0.0745	322939	keystroke_y	y	n/a
161.574	0.106	323148	keystroke_Key.space	Key.space	n/a
161.695	0.119	323390	keystroke_e	e	n/a
161.919	0.105	323838	keystroke_a	a	n/a
161.965	0.1045	323930	keystroke_s	s	n/a
162.2045	0.1205	324409	keystroke_t	t	n/a
162.294	0.12	324588	keystroke_e	e	n/a
162.534	0.045	325068	keystroke_Key.backspace	Key.backspace	n/a
162.714	0.06	325428	keystroke_Key.backspace	Key.backspace	n/a
162.879	0.0755	325758	keystroke_Key.backspace	Key.backspace	n/a
163.0595	0.074	326119	keystroke_Key.backspace	Key.backspace	n/a
163.2395	0.09	326479	keystroke_Key.backspace	Key.backspace	n/a
163.2695	0.1345	326539	keystroke_w	w	n/a
163.39	0.1495	326780	keystroke_a	a	n/a
163.4945	0.12	326989	keystroke_s	s	n/a
163.7495	0.1045	327499	keystroke_t	t	n/a
163.8245	0.1205	327649	keystroke_e	e	n/a
163.945	0.074	327890	keystroke_Key.enter	Key.enter	n/a
164.0245	4.677	328049	prompt	n/a	estimation robbie bored miles\n
164.7245	0.0745	329449	keystroke_e	e	n/a
164.919	0.1055	329838	keystroke_s	s	n/a
165.1595	0.075	330319	keystroke_t	t	n/a
165.2645	0.059	330529	keystroke_i	i	n/a
165.399	0.106	330798	keystroke_m	m	n/a
165.4895	0.0595	330979	keystroke_a	a	n/a
165.684	0.091	331368	keystroke_t	t	n/a
165.744	0.076	331488	keystroke_i	i	n/a
165.91	0.06	331820	keystroke_o	o	n/a
166.045	0.135	332090	keystroke_n	n	n/a
166.165	0.0595	332330	keystroke_Key.space	Key.space	n/a
166.3	0.089	332600	keystroke_r	r	n/a
166.314	0.061	332628	keystroke_o	o	n/a
166.555	0.06	333110	keystroke_b	b	n/a
166.7045	0.076	333409	keystroke_b	b	n/a
166.869	0.12	333738	keystroke_i	i	n/a
166.974	0.075	333948	keystroke_e	e	n/a
167.064	0.075	334128	keystroke_Key.space	Key.space	n/a
167.2145	0.075	334429	keystroke_b	b	n/a
167.3645	0.12	334729	keystroke_o	o	n/a
167.4245	0.12	334849	keystroke_r	r	n/a
167.5145	0.105	335029	keystroke_e	e	n/a
167.6495	0.12	335299	keystroke_d	d	n/a
167.7545	0.0745	335509	keystroke_Key.space	Key.space	n/a
167.9045	0.0895	335809	keystroke_m	m	n/a
168.0395	0.0755	336079	keystroke_i	i	n/a
168.1895	0.105	336379	keystroke_l	l	n/a
168.309	0.1205	336618	keystroke_e	e	n/a
168.37	0.1345	336740	keystroke_s	s	n/a
168.6095	0.09	337219	keystroke_Key.enter	Key.enter	n/a
168.7055	6.086	337411	prompt	n/a	jungle dallas actually presently\n
169.33	0.105	338660	keystroke_j	j	n/a
169.479	0.091	338958	keystroke_u	u	n/a
169.629	0.0755	339258	keystroke_n	n	n/a
169.75	0.074	339500	keystroke_g	g	n/a
169.795	0.119	339590	keystroke_l	l	n/a
169.93	0.104	339860	keystroke_e	e	n/a
170.0195	0.1195	340039	keystroke_Key.space	Key.space	n/a
170.124	0.1205	340248	keystroke_d	d	n/a
170.395	0.1045	340790	keystroke_a	a	n/a
170.5595	0.09	341119	keystroke_l	l	n/a
171.1595	0.105	342319	keystroke_l	l	n/a
171.3255	0.119	342651	keystroke_a	a	n/a
171.3995	0.1505	342799	keystroke_s	s	n/a
171.55	0.1045	343100	keystroke_Key.space	Key.space	n/a
171.76	0.075	343520	keystroke_a	a	n/a
171.9245	0.09	343849	keystroke_c	c	n/a
172.1345	0.0595	344269	keystroke_t	t	n/a
172.21	0.074	344420	keystroke_u	u	n/a
172.3895	0.075	344779	keystroke_a	a	n/a
172.4645	0.06	344929	keystroke_l	l	n/a
172.6295	0.075	345259	keystroke_l	l	n/a
172.7345	0.0905	345469	keystroke_y	y	n/a
172.854	0.1055	345708	keystroke_Key.space	Key.space	n/a
173.185	0.089	346370	keystroke_p	p	n/a
173.4845	0.1805	346969	keystroke_r	r	n/a
173.56	0.1195	347120	keystroke_e	e	n/a
173.8295	0.075	347659	keystroke_s	s	n/a
174.0095	0.0755	348019	keystroke_e	e	n/a
174.13	0.09	348260	keystroke_n	n	n/a
174.1895	0.105	348379	keystroke_t	t	n/a
174.325	0.1045	348650	keystroke_l	l	n/a
174.4445	0.0745	348889	keystroke_y	y	n/a
174.714	0.0755	349428	keystroke_Key.enter	Key.enter	n/a
174.796	6.6855	349592	prompt	n/a	abstracts contracts possess remix\n
175.585	0.134	351170	keystroke_a	a	n/a
175.915	0.015	351830	keystroke_b	b	n/a
175.944	0.1205	351888	keystroke_s	s	n/a
176.1545	0.135	352309	keystroke_t	t	n/a
176.2145	0.105	352429	keystroke_r	r	n/a
176.455	0.0745	352910	keystroke_a	a	n/a
176.6195	0.06	353239	keystroke_c	c	n/a
176.8145	0.075	353629	keystroke_t	t	n/a
177.01	0.105	354020	keystroke_s	s	n/a
177.0995	0.09	354199	keystroke_Key.space	Key.space	n/a
177.22	0.1045	354440	keystroke_c	c	n/a
177.3265	0.029	354653	keystroke_o	o	n/a
177.4445	0.1055	354889	keystroke_n	n	n/a
177.5645	0.1205	355129	keystroke_t	t	n/a
177.6245	0.105	355249	keystroke_r	r	n/a
177.8345	0.0755	355669	keystroke_a	a	n/a
177.9845	0.09	355969	keystroke_c	c	n/a
178.2245	0.075	356449	keystroke_t	t	n/a
178.42	0.135	356840	keystroke_s	s	n/a
178.4945	0.0905	356989	keystroke_Key.space	Key.space	n/a
178.6745	0.075	357349	keystroke_p	p	n/a
178.8545	0.075	357709	keystroke_o	o	n/a
178.9145	0.06	357829	keystroke_s	s	n/a
179.0795	0.0905	358159	keystroke_s	s	n/a
179.245	0.1345	358490	keystroke_e	e	n/a
179.3195	0.135	358639	keystroke_s	s	n/a
180.5945	0.12	361189	keystroke_Key.space	Key.space	n/a
180.805	0.1195	361610	keystroke_r	r	n/a
180.88	0.15	361760	keystroke_e	e	n/a
181.014	0.09	362028	keystroke_m	m	n/a
181.15	0.104	362300	keystroke_i	i	n/a
181.24	0.12	362480	keystroke_x	x	n/a
181.3745	0.105	362749	keystroke_Key.enter	Key.enter	n/a
181.488	6.7735	362976	prompt	n/a	construction trends parcel healthy\n
182.1695	0.06	364339	keystroke_c	c	n/a
182.245	0.0595	364490	keystroke_o	o	n/a
182.4095	0.09	364819	keystroke_n	n	n/a
182.4695	0.075	364939	keystroke_s	s	n/a
182.6645	0.12	365329	keystroke_t	t	n/a
182.7245	0.1195	365449	keystroke_r	r	n/a
182.919	0.091	365838	keystroke_u	u	n/a
182.995	0.06	365990	keystroke_c	c	n/a
183.205	0.104	366410	keystroke_t	t	n/a
183.295	0.059	366590	keystroke_i	i	n/a
183.4445	0.0595	366889	keystroke_o	o	n/a
183.595	0.105	367190	keystroke_n	n	n/a
183.6845	0.09	367369	keystroke_Key.space	Key.space	n/a
183.79	0.1195	367580	keystroke_t	t	n/a
183.8795	0.1505	367759	keystroke_e	e	n/a
185.274	0.061	370548	keystroke_Key.backspace	Key.backspace	n/a
185.4695	0.12	370939	keystroke_r	r	n/a
185.5145	0.1345	371029	keystroke_e	e	n/a
185.695	0.075	371390	keystroke_n	n	n/a
186.025	0.135	372050	keystroke_d	d	n/a
186.1	0.1345	372200	keystroke_s	s	n/a
186.189	0.0755	372378	keystroke_Key.space	Key.space	n/a
186.37	0.09	372740	keystroke_p	p	n/a
186.43	0.105	372860	keystroke_a	a	n/a
186.6695	0.075	373339	keystroke_r	r	n/a
186.8945	0.1205	373789	keystroke_c	c	n/a
186.955	0.164	373910	keystroke_e	e	n/a
187.059	0.121	374118	keystroke_l	l	n/a
187.194	0.0755	374388	keystroke_Key.space	Key.space	n/a
187.3445	0.0745	374689	keystroke_h	h	n/a
187.359	0.136	374718	keystroke_e	e	n/a
187.434	0.09	374868	keystroke_a	a	n/a
187.585	0.075	375170	keystroke_l	l	n/a
187.704	0.105	375408	keystroke_t	t	n/a
187.794	0.12	375588	keystroke_h	h	n/a
188.034	0.076	376068	keystroke_y	y	n/a
188.185	0.0745	376370	keystroke_Key.enter	Key.enter	n/a
188.2655	5.111	376531	prompt	n/a	impressed rats stupid safari\n
188.8745	0.075	377749	keystroke_i	i	n/a
188.995	0.074	377990	keystroke_m	m	n/a
189.16	0.12	378320	keystroke_p	p	n/a
189.234	0.12	378468	keystroke_r	r	n/a
189.294	0.12	378588	keystroke_e	e	n/a
189.534	0.06	379068	keystroke_s	s	n/a
189.6695	0.105	379339	keystroke_s	s	n/a
189.8495	0.1355	379699	keystroke_e	e	n/a
189.924	0.1355	379848	keystroke_d	d	n/a
190.044	0.1205	380088	keystroke_Key.space	Key.space	n/a
190.21	0.105	380420	keystroke_r	r	n/a
190.405	0.09	380810	keystroke_a	a	n/a
190.585	0.0895	381170	keystroke_t	t	n/a
190.7645	0.1055	381529	keystroke_s	s	n/a
190.854	0.1055	381708	keystroke_Key.space	Key.space	n/a
190.974	0.076	381948	keystroke_s	s	n/a
191.17	0.105	382340	keystroke_t	t	n/a
191.245	0.075	382490	keystroke_u	u	n/a
191.44	0.075	382880	keystroke_p	p	n/a
191.575	0.075	383150	keystroke_i	i	n/a
191.71	0.104	383420	keystroke_d	d	n/a
191.8	0.1045	383600	keystroke_Key.space	Key.space	n/a
191.934	0.075	383868	keystroke_s	s	n/a
192.2195	0.1205	384439	keystroke_a	a	n/a
192.5195	0.0905	385039	keystroke_f	f	n/a
192.745	0.09	385490	keystroke_a	a	n/a
192.9395	0.09	385879	keystroke_r	r	n/a
193.0745	0.06	386149	keystroke_i	i	n/a
193.2545	0.12	386509	keystroke_Key.enter	Key.enter	n/a
193.3815	5.92	386763	prompt	n/a	thrown dietary relative use\n
194.0345	0.0755	388069	keystroke_t	t	n/a
194.124	0.076	388248	keystroke_h	h	n/a
194.2145	0.0905	388429	keystroke_r	r	n/a
194.305	0.0895	388610	keystroke_o	o	n/a
194.424	0.1205	388848	keystroke_w	w	n/a
194.5595	0.09	389119	keystroke_n	n	n/a
194.6795	0.105	389359	keystroke_Key.space	Key.space	n/a
194.875	0.0745	389750	keystroke_i	i	n/a
194.9945	0.075	389989	keystroke_d	d	n/a
195.4295	0.045	390859	keystroke_Key.backspace	Key.backspace	n/a
195.5495	0.075	391099	keystroke_Key.backspace	Key.backspace	n/a
195.6395	0.1205	391279	keystroke_d	d	n/a
195.804	0.076	391608	keystroke_i	i	n/a
195.895	0.15	391790	keystroke_e	e	n/a
196.255	0.12	392510	keystroke_t	t	n/a
196.555	0.0595	393110	keystroke_a	a	n/a
196.7645	0.06	393529	keystroke_r	r	n/a
196.839	0.045	393678	keystroke_y	y	n/a
196.974	0.09	393948	keystroke_Key.space	Key.space	n/a
197.125	0.149	394250	keystroke_r	r	n/a
197.214	0.12	394428	keystroke_e	e	n/a
197.304	0.12	394608	keystroke_l	l	n/a
197.47	0.0895	394940	keystroke_a	a	n/a
197.8745	0.0755	395749	keystroke_t	t	n/a
198.0095	0.105	396019	keystroke_i	i	n/a
198.1445	0.06	396289	keystroke_v	v	n/a
198.1595	0.1655	396319	keystroke_e	e	n/a
198.22	0.0895	396440	keystroke_Key.space	Key.space	n/a
198.715	0.06	397430	keystroke_u	u	n/a
198.775	0.09	397550	keystroke_s	s	n/a
198.984	0.1205	397968	keystroke_e	e	n/a
199.1645	0.1345	398329	keystroke_Key.enter	Key.enter	n/a
199.3055	7.2255	398611	prompt	n/a	subdivision navigate permalink hero\n
200.035	0.06	400070	keystroke_s	s	n/a
200.11	0.044	400220	keystroke_u	u	n/a
200.244	0.106	400488	keystroke_b	b	n/a
200.4095	0.105	400819	keystroke_d	d	n/a
200.53	0.0745	401060	keystroke_i	i	n/a
200.6495	0.075	401299	keystroke_c	c	n/a
200.7695	0.1195	401539	keystroke_i	i	n/a
201.25	0.059	402500	keystroke_Key.backspace	Key.backspace	n/a
201.354	0.0905	402708	keystroke_Key.backspace	Key.backspace	n/a
201.459	0.09	402918	keystroke_v	v	n/a
201.5945	0.1055	403189	keystroke_i	i	n/a
201.924	0.105	403848	keystroke_s	s	n/a
201.9995	0.06	403999	keystroke_i	i	n/a
202.165	0.044	404330	keystroke_o	o	n/a
202.27	0.119	404540	keystroke_n	n	n/a
202.375	0.09	404750	keystroke_Key.space	Key.space	n/a
202.5245	0.0905	405049	keystroke_n	n	n/a
202.5995	0.0605	405199	keystroke_a	a	n/a
202.825	0.075	405650	keystroke_v	v	n/a
202.9145	0.0755	405829	keystroke_i	i	n/a
203.065	0.0895	406130	keystroke_g	g	n/a
203.29	0.06	406580	keystroke_a	a	n/a
203.4995	0.1345	406999	keystroke_t	t	n/a
203.575	0.119	407150	keystroke_e	e	n/a
203.709	0.0605	407418	keystroke_Key.space	Key.space	n/a
203.8595	0.0905	407719	keystroke_p	p	n/a
203.935	0.134	407870	keystroke_e	e	n/a
204.01	0.149	408020	keystroke_r	r	n/a
204.22	0.105	408440	keystroke_m	m	n/a
204.354	0.09	408708	keystroke_a	a	n/a
204.5045	0.0755	409009	keystroke_l	l	n/a
204.655	0.059	409310	keystroke_i	i	n/a
204.775	0.075	409550	keystroke_n	n	n/a
204.9095	0.12	409819	keystroke_k	k	n/a
205.015	0.0745	410030	keystroke_Key.space	Key.space	n/a
205.15	0.075	410300	keystroke_h	h	n/a
205.1945	0.1355	410389	keystroke_e	e	n/a
205.2845	0.135	410569	keystroke_r	r	n/a
206.275	0.0445	412550	keystroke_o	o	n/a
206.4095	0.12	412819	keystroke_Key.enter	Key.enter	n/a
206.5345	9.252	413069	prompt	n/a	strings belief extraordinary identity\n
207.1595	0.09	414319	keystroke_s	s	n/a
207.37	0.12	414740	keystroke_t	t	n/a
207.429	0.1355	414858	keystroke_r	r	n/a
207.5345	0.0605	415069	keystroke_i	i	n/a
207.6545	0.1205	415309	keystroke_n	n	n/a
207.7445	0.06	415489	keystroke_g	g	n/a
207.9395	0.0905	415879	keystroke_s	s	n/a
207.9695	0.09	415939	keystroke_Key.space	Key.space	n/a
208.1195	0.09	416239	keystroke_b	b	n/a
208.225	0.1055	416450	keystroke_e	e	n/a
208.3145	0.12	416629	keystroke_l	l	n/a
208.615	0.09	417230	keystroke_i	i	n/a
208.69	0.1495	417380	keystroke_e	e	n/a
209.7545	0.105	419509	keystroke_f	f	n/a
210.22	0.135	420440	keystroke_Key.space	Key.space	n/a
210.43	0.104	420860	keystroke_e	e	n/a
210.6545	0.0905	421309	keystroke_x	x	n/a
210.88	0.15	421760	keystroke_t	t	n/a
210.955	0.1495	421910	keystroke_r	r	n/a
211.0595	0.1055	422119	keystroke_o	o	n/a
211.6295	0.0745	423259	keystroke_Key.backspace	Key.backspace	n/a
211.735	0.1195	423470	keystroke_a	a	n/a
212.0195	0.09	424039	keystroke_o	o	n/a
212.4095	0.1055	424819	keystroke_r	r	n/a
212.7395	0.0905	425479	keystroke_d	d	n/a
212.815	0.06	425630	keystroke_i	i	n/a
212.965	0.1045	425930	keystroke_n	n	n/a
213.085	0.075	426170	keystroke_a	a	n/a
213.2645	0.12	426529	keystroke_r	r	n/a
213.355	0.075	426710	keystroke_y	y	n/a
213.4745	0.105	426949	keystroke_Key.space	Key.space	n/a
213.67	0.105	427340	keystroke_i	i	n/a
213.9695	0.1195	427939	keystroke_d	d	n/a
214.014	0.121	428028	keystroke_e	e	n/a
214.119	0.0755	428238	keystroke_n	n	n/a
215.1845	0.0605	430369	keystroke_t	t	n/a
215.2745	0.0755	430549	keystroke_i	i	n/a
215.3945	0.0755	430789	keystroke_f	f	n/a
215.4855	0.0595	430971	keystroke_y	y	n/a
215.68	0.105	431360	keystroke_Key.enter	Key.enter	n/a
215.792	7.7195	431584	prompt	n/a	wireless gentleman bikini congratulations\n
216.595	0.135	433190	keystroke_w	w	n/a
216.7445	0.0755	433489	keystroke_i	i	n/a
216.835	0.164	433670	keystroke_r	r	n/a
216.91	0.135	433820	keystroke_e	e	n/a
217.0595	0.1045	434119	keystroke_l	l	n/a
217.179	0.075	434358	keystroke_e	e	n/a
217.3595	0.0605	434719	keystroke_s	s	n/a
217.51	0.089	435020	keystroke_s	s	n/a
217.6145	0.0905	435229	keystroke_Key.space	Key.space	n/a
217.719	0.1055	435438	keystroke_g	g	n/a
217.7645	0.1505	435529	keystroke_e	e	n/a
217.8995	0.0755	435799	keystroke_n	n	n/a
218.035	0.1045	436070	keystroke_t	t	n/a
218.155	0.0895	436310	keystroke_l	l	n/a
218.2745	0.106	436549	keystroke_e	e	n/a
218.53	0.0745	437060	keystroke_m	m	n/a
218.635	0.075	437270	keystroke_a	a	n/a
218.7245	0.0755	437449	keystroke_n	n	n/a
218.8595	0.0905	437719	keystroke_Key.space	Key.space	n/a
219.0245	0.105	438049	keystroke_b	b	n/a
219.2195	0.0605	438439	keystroke_i	i	n/a
219.445	0.075	438890	keystroke_k	k	n/a
219.6095	0.09	439219	keystroke_i	i	n/a
219.82	0.075	439640	keystroke_n	n	n/a
219.94	0.1195	439880	keystroke_i	i	n/a
220.0895	0.1055	440179	keystroke_Key.space	Key.space	n/a
220.2995	0.075	440599	keystroke_c	c	n/a
220.3755	0.059	440751	keystroke_o	o	n/a
220.54	0.0895	441080	keystroke_n	n	n/a
220.6145	0.1205	441229	keystroke_g	g	n/a
220.7195	0.075	441439	keystroke_r	r	n/a
220.9595	0.0455	441919	keystroke_a	a	n/a
221.725	0.104	443450	keystroke_u	u	n/a
222.2045	0.0605	444409	keystroke_Key.backspace	Key.backspace	n/a
222.325	0.0895	444650	keystroke_t	t	n/a
222.4295	0.075	444859	keystroke_u	u	n/a
222.61	0.1045	445220	keystroke_l	l	n/a
222.7155	0.0745	445431	keystroke_a	a	n/a
222.91	0.09	445820	keystroke_t	t	n/a
222.984	0.046	445968	keystroke_i	i	n/a
223.1345	0.0305	446269	keystroke_o	o	n/a
223.225	0.1045	446450	keystroke_n	n	n/a
223.315	0.09	446630	keystroke_s	s	n/a
223.4195	0.09	446839	keystroke_Key.enter	Key.enter	n/a
223.5155	6.416	447031	prompt	n/a	traditional induced transfers weapon\n
224.5745	0.135	449149	keystroke_t	t	n/a
224.635	0.0895	449270	keystroke_r	r	n/a
224.8455	0.074	449691	keystroke_a	a	n/a
225.0245	0.09	450049	keystroke_d	d	n/a
225.1295	0.1195	450259	keystroke_i	i	n/a
225.324	0.1055	450648	keystroke_t	t	n/a
225.415	0.074	450830	keystroke_i	i	n/a
225.865	0.075	451730	keystroke_o	o	n/a
226.03	0.09	452060	keystroke_n	n	n/a
226.12	0.0755	452240	keystroke_a	a	n/a
226.24	0.09	452480	keystroke_l	l	n/a
226.36	0.09	452720	keystroke_Key.space	Key.space	n/a
226.495	0.06	452990	keystroke_i	i	n/a
226.585	0.1345	453170	keystroke_n	n	n/a
226.7205	0.105	453441	keystroke_d	d	n/a
226.8545	0.09	453709	keystroke_u	u	n/a
227.005	0.1045	454010	keystroke_c	c	n/a
227.1695	0.18	454339	keystroke_e	e	n/a
227.2745	0.1205	454549	keystroke_d	d	n/a
227.4245	0.09	454849	keystroke_Key.space	Key.space	n/a
227.575	0.135	455150	keystroke_t	t	n/a
227.6345	0.09	455269	keystroke_r	r	n/a
227.845	0.0745	455690	keystroke_a	a	n/a
227.9945	0.1205	455989	keystroke_n	n	n/a
228.07	0.089	456140	keystroke_s	s	n/a
228.3095	0.075	456619	keystroke_f	f	n/a
228.4745	0.1355	456949	keystroke_e	e	n/a
228.55	0.119	457100	keystroke_r	r	n/a
228.759	0.09	457518	keystroke_s	s	n/a
228.8645	0.1045	457729	keystroke_Key.space	Key.space	n/a
228.954	0.106	457908	keystroke_w	w	n/a
229.03	0.135	458060	keystroke_e	e	n/a
229.225	0.105	458450	keystroke_a	a	n/a
229.33	0.06	458660	keystroke_p	p	n/a
229.495	0.06	458990	keystroke_o	o	n/a
229.6595	0.0905	459319	keystroke_n	n	n/a
229.8545	0.075	459709	keystroke_Key.enter	Key.enter	n/a
229.9355	8.966	459871	prompt	n/a	aerospace french amanda unsubscribe\n
230.5745	0.1055	461149	keystroke_a	a	n/a
230.9345	0.1355	461869	keystroke_e	e	n/a
231.04	0.105	462080	keystroke_r	r	n/a
232.27	0.075	464540	keystroke_o	o	n/a
232.359	0.091	464718	keystroke_s	s	n/a
232.48	0.105	464960	keystroke_p	p	n/a
232.57	0.09	465140	keystroke_a	a	n/a
232.825	0.1495	465650	keystroke_c	c	n/a
232.9	0.135	465800	keystroke_e	e	n/a
233.6045	0.12	467209	keystroke_Key.space	Key.space	n/a
233.77	0.105	467540	keystroke_f	f	n/a
233.9495	0.12	467899	keystroke_r	r	n/a
234.0245	0.12	468049	keystroke_e	e	n/a
234.1745	0.09	468349	keystroke_n	n	n/a
234.2795	0.105	468559	keystroke_c	c	n/a
234.4	0.09	468800	keystroke_h	h	n/a
234.505	0.0745	469010	keystroke_Key.space	Key.space	n/a
234.61	0.1045	469220	keystroke_a	a	n/a
234.7295	0.0755	469459	keystroke_m	m	n/a
234.8195	0.0905	469639	keystroke_a	a	n/a
234.985	0.0595	469970	keystroke_n	n	n/a
235.06	0.0895	470120	keystroke_d	d	n/a
235.2995	0.09	470599	keystroke_a	a	n/a
235.42	0.105	470840	keystroke_Key.space	Key.space	n/a
235.615	0.075	471230	keystroke_u	u	n/a
235.795	0.0895	471590	keystroke_n	n	n/a
235.9445	0.1055	471889	keystroke_s	s	n/a
236.1995	0.12	472399	keystroke_c	c	n/a
237.0245	0.075	474049	keystroke_Key.backspace	Key.backspace	n/a
237.639	0.076	475278	keystroke_u	u	n/a
237.805	0.09	475610	keystroke_b	b	n/a
237.909	0.061	475818	keystroke_s	s	n/a
238.09	0.06	476180	keystroke_c	c	n/a
238.285	0.09	476570	keystroke_r	r	n/a
238.36	0.045	476720	keystroke_i	i	n/a
238.51	0.09	477020	keystroke_b	b	n/a
238.5845	0.0905	477169	keystroke_e	e	n/a
238.6595	0.075	477319	keystroke_Key.space	Key.space	n/a
238.78	0.12	477560	keystroke_Key.enter	Key.enter	n/a
238.9055	7.826	477811	prompt	n/a	suspension than jewellery supervision\n
239.4845	0.1355	478969	keystroke_s	s	n/a
239.6495	0.0905	479299	keystroke_u	u	n/a
239.77	0.1345	479540	keystroke_s	s	n/a
239.98	0.0745	479960	keystroke_p	p	n/a
240.115	0.09	480230	keystroke_e	e	n/a
240.3395	0.03	480679	keystroke_c	c	n/a
240.805	0.075	481610	keystroke_Key.backspace	Key.backspace	n/a
240.94	0.1055	481880	keystroke_s	s	n/a
241.06	0.09	482120	keystroke_i	i	n/a
241.405	0.105	482810	keystroke_n	n	n/a
241.525	0.1045	483050	keystroke_Key.space	Key.space	n/a
241.6145	0.0905	483229	keystroke_t	t	n/a
241.7195	0.09	483439	keystroke_h	h	n/a
241.825	0.09	483650	keystroke_a	a	n/a
241.9295	0.09	483859	keystroke_n	n	n/a
242.0345	0.105	484069	keystroke_Key.space	Key.space	n/a
242.2145	0.1355	484429	keystroke_j	j	n/a
242.335	0.105	484670	keystroke_e	e	n/a
242.5895	0.1805	485179	keystroke_w	w	n/a
242.725	0.135	485450	keystroke_e	e	n/a
243.1005	0.134	486201	keystroke_r	r	n/a
243.9995	0.0905	487999	keystroke_Key.backspace	Key.backspace	n/a
244.3905	0.059	488781	keystroke_l	l	n/a
244.5545	0.0905	489109	keystroke_l	l	n/a
244.615	0.075	489230	keystroke_e	e	n/a
244.81	0.1495	489620	keystroke_r	r	n/a
244.945	0.0455	489890	keystroke_y	y	n/a
245.0645	0.0895	490129	keystroke_Key.space	Key.space	n/a
245.2	0.0895	490400	keystroke_s	s	n/a
245.3045	0.06	490609	keystroke_u	u	n/a
245.53	0.074	491060	keystroke_p	p	n/a
245.559	0.1355	491118	keystroke_e	e	n/a
245.649	0.106	491298	keystroke_r	r	n/a
245.9195	0.0445	491839	keystroke_v	v	n/a
245.98	0.09	491960	keystroke_i	i	n/a
246.085	0.075	492170	keystroke_s	s	n/a
246.19	0.075	492380	keystroke_i	i	n/a
246.355	0.0455	492710	keystroke_o	o	n/a
246.46	0.06	492920	keystroke_n	n	n/a
246.595	0.1345	493190	keystroke_Key.enter	Key.enter	n/a
246.736	7.3605	493472	prompt	n/a	transactions broad novel indiana\n
247.375	0.119	494750	keystroke_t	t	n/a
247.449	0.0765	494898	keystroke_r	r	n/a
247.66	0.09	495320	keystroke_a	a	n/a
247.7955	0.1045	495591	keystroke_n	n	n/a
248.0045	0.12	496009	keystroke_s	s	n/a
248.3945	0.0605	496789	keystroke_Key.backspace	Key.backspace	n/a
248.5745	0.0755	497149	keystroke_Key.backspace	Key.backspace	n/a
249.5945	0.1205	499189	keystroke_n	n	n/a
249.6995	0.15	499399	keystroke_s	s	n/a
250.0595	0.0755	500119	keystroke_a	a	n/a
250.24	0.075	500480	keystroke_c	c	n/a
250.4495	0.1055	500899	keystroke_t	t	n/a
250.5395	0.06	501079	keystroke_i	i	n/a
250.675	0.06	501350	keystroke_o	o	n/a
250.8095	0.09	501619	keystroke_n	n	n/a
250.885	0.135	501770	keystroke_s	s	n/a
251.005	0.075	502010	keystroke_Key.space	Key.space	n/a
251.14	0.075	502280	keystroke_b	b	n/a
251.23	0.09	502460	keystroke_r	r	n/a
251.335	0.1045	502670	keystroke_o	o	n/a
251.4555	0.089	502911	keystroke_a	a	n/a
251.6495	0.0905	503299	keystroke_d	d	n/a
251.71	0.075	503420	keystroke_Key.space	Key.space	n/a
251.86	0.045	503720	keystroke_n	n	n/a
251.95	0.12	503900	keystroke_o	o	n/a
252.055	0.135	504110	keystroke_v	v	n/a
252.115	0.15	504230	keystroke_e	e	n/a
252.22	0.105	504440	keystroke_l	l	n/a
252.34	0.074	504680	keystroke_Key.space	Key.space	n/a
252.475	0.06	504950	keystroke_i	i	n/a
252.595	0.12	505190	keystroke_n	n	n/a
252.73	0.09	505460	keystroke_d	d	n/a
253.27	0.0595	506540	keystroke_i	i	n/a
253.3745	0.1205	506749	keystroke_a	a	n/a
253.555	0.105	507110	keystroke_n	n	n/a
253.675	0.0905	507350	keystroke_a	a	n/a
253.795	0.105	507590	keystroke_Key.space	Key.space	n/a
253.975	0.12	507950	keystroke_Key.enter	Key.enter	n/a
254.101	6.1605	508202	prompt	n/a	sleep basketball ellis developments\n
254.845	0.0745	509690	keystroke_s	s	n/a
254.9505	0.089	509901	keystroke_l	l	n/a
255.0545	0.0455	510109	keystroke_e	e	n/a
255.2045	0.1205	510409	keystroke_e	e	n/a
255.2945	0.09	510589	keystroke_p	p	n/a
255.415	0.0745	510830	keystroke_Key.space	Key.space	n/a
255.595	0.0745	511190	keystroke_b	b	n/a
255.6405	0.104	511281	keystroke_a	a	n/a
255.715	0.1055	511430	keystroke_s	s	n/a
255.8355	0.134	511671	keystroke_k	k	n/a
255.9245	0.091	511849	keystroke_e	e	n/a
256.105	0.104	512210	keystroke_t	t	n/a
256.345	0.06	512690	keystroke_b	b	n/a
256.4345	0.09	512869	keystroke_a	a	n/a
256.5845	0.06	513169	keystroke_l	l	n/a
256.7355	0.149	513471	keystroke_l	l	n/a
256.87	0.09	513740	keystroke_Key.space	Key.space	n/a
256.975	0.105	513950	keystroke_e	e	n/a
257.095	0.06	514190	keystroke_l	l	n/a
257.274	0.076	514548	keystroke_l	l	n/a
257.44	0.1045	514880	keystroke_i	i	n/a
258.1755	0.1185	516351	keystroke_s	s	n/a
258.235	0.105	516470	keystroke_Key.space	Key.space	n/a
258.55	0.15	517100	keystroke_d	d	n/a
258.6545	0.0905	517309	keystroke_e	e	n/a
258.835	0.135	517670	keystroke_v	v	n/a
258.8955	0.1345	517791	keystroke_e	e	n/a
258.954	0.076	517908	keystroke_l	l	n/a
259.12	0.06	518240	keystroke_o	o	n/a
259.285	0.06	518570	keystroke_p	p	n/a
259.4495	0.0745	518899	keystroke_m	m	n/a
259.555	0.0305	519110	keystroke_e	e	n/a
259.6145	0.105	519229	keystroke_n	n	n/a
259.7045	0.076	519409	keystroke_t	t	n/a
259.915	0.09	519830	keystroke_s	s	n/a
260.0055	0.059	520011	keystroke_Key.space	Key.space	n/a
260.1245	0.135	520249	keystroke_Key.enter	Key.enter	n/a
260.268	9.3535	520536	prompt	n/a	discussing achievement proposed requirements\n
261.0395	0.1355	522079	keystroke_d	d	n/a
261.205	0.12	522410	keystroke_i	i	n/a
261.295	0.075	522590	keystroke_s	s	n/a
261.505	0.0745	523010	keystroke_c	c	n/a
261.6105	0.059	523221	keystroke_u	u	n/a
261.7445	0.0455	523489	keystroke_s	s	n/a
261.895	0.09	523790	keystroke_s	s	n/a
261.985	0.0445	523970	keystroke_i	i	n/a
262.105	0.0895	524210	keystroke_n	n	n/a
262.21	0.0595	524420	keystroke_g	g	n/a
262.24	0.119	524480	keystroke_Key.space	Key.space	n/a
262.554	0.0755	525108	keystroke_a	a	n/a
262.78	0.09	525560	keystroke_c	c	n/a
262.899	0.091	525798	keystroke_h	h	n/a
263.14	0.105	526280	keystroke_e	e	n/a
264.0245	0.0455	528049	keystroke_Key.backspace	Key.backspace	n/a
264.265	0.0895	528530	keystroke_i	i	n/a
264.3695	0.06	528739	keystroke_e	e	n/a
264.505	0.1495	529010	keystroke_v	v	n/a
264.595	0.12	529190	keystroke_e	e	n/a
264.76	0.0745	529520	keystroke_m	m	n/a
264.85	0.0745	529700	keystroke_e	e	n/a
264.9395	0.076	529879	keystroke_n	n	n/a
265.0295	0.105	530059	keystroke_t	t	n/a
265.1645	0.0755	530329	keystroke_Key.space	Key.space	n/a
265.3595	0.06	530719	keystroke_p	p	n/a
265.435	0.09	530870	keystroke_r	r	n/a
265.525	0.0745	531050	keystroke_o	o	n/a
267.025	0.075	534050	keystroke_p	p	n/a
267.22	0.105	534440	keystroke_o	o	n/a
267.325	0.075	534650	keystroke_s	s	n/a
267.52	0.15	535040	keystroke_e	e	n/a
267.595	0.1345	535190	keystroke_d	d	n/a
267.7295	0.105	535459	keystroke_Key.space	Key.space	n/a
267.8645	0.12	535729	keystroke_r	r	n/a
267.91	0.12	535820	keystroke_e	e	n/a
268.1355	0.0895	536271	keystroke_q	q	n/a
268.24	0.045	536480	keystroke_u	u	n/a
268.39	0.0755	536780	keystroke_i	i	n/a
268.435	0.105	536870	keystroke_r	r	n/a
268.525	0.075	537050	keystroke_e	e	n/a
268.585	0.075	537170	keystroke_m	m	n/a
268.69	0.0745	537380	keystroke_e	e	n/a
268.75	0.075	537500	keystroke_n	n	n/a
268.87	0.0895	537740	keystroke_t	t	n/a
269.335	0.09	538670	keystroke_s	s	n/a
269.485	0.135	538970	keystroke_Key.enter	Key.enter	n/a
269.627	5.514	539254	prompt	n/a	council beverly tight modules\n
270.295	0.09	540590	keystroke_c	c	n/a
270.37	0.075	540740	keystroke_o	o	n/a
270.55	0.045	541100	keystroke_u	u	n/a
270.715	0.09	541430	keystroke_n	n	n/a
270.7905	0.0895	541581	keystroke_c	c	n/a
270.865	0.0905	541730	keystroke_i	i	n/a
271.0595	0.105	542119	keystroke_l	l	n/a
271.1495	0.045	542299	keystroke_Key.space	Key.space	n/a
271.2995	0.075	542599	keystroke_b	b	n/a
271.36	0.1195	542720	keystroke_e	e	n/a
271.6145	0.0755	543229	keystroke_v	v	n/a
271.705	0.18	543410	keystroke_e	e	n/a
271.87	0.09	543740	keystroke_r	r	n/a
271.9755	0.0895	543951	keystroke_l	l	n/a
272.139	0.106	544278	keystroke_y	y	n/a
272.229	0.121	544458	keystroke_Key.space	Key.space	n/a
272.47	0.105	544940	keystroke_t	t	n/a
272.56	0.0905	545120	keystroke_i	i	n/a
272.785	0.03	545570	keystroke_g	g	n/a
273.5345	0.15	547069	keystroke_h	h	n/a
273.624	0.1355	547248	keystroke_t	t	n/a
274.105	0.09	548210	keystroke_Key.space	Key.space	n/a
274.285	0.075	548570	keystroke_m	m	n/a
274.405	0.075	548810	keystroke_o	o	n/a
274.45	0.1195	548900	keystroke_d	d	n/a
274.6145	0.045	549229	keystroke_u	u	n/a
274.7495	0.09	549499	keystroke_l	l	n/a
274.8255	0.165	549651	keystroke_e	e	n/a
274.9145	0.1505	549829	keystroke_s	s	n/a
275.08	0.06	550160	keystroke_Key.enter	Key.enter	n/a
275.146	4.6905	550292	prompt	n/a	royalty comply quiz determines\n
275.785	0.1355	551570	keystroke_r	r	n/a
275.9055	0.09	551811	keystroke_o	o	n/a
276.1	0.075	552200	keystroke_y	y	n/a
276.22	0.12	552440	keystroke_a	a	n/a
276.355	0.105	552710	keystroke_l	l	n/a
276.49	0.135	552980	keystroke_t	t	n/a
276.7	0.0905	553400	keystroke_y	y	n/a
276.8045	0.105	553609	keystroke_Key.space	Key.space	n/a
276.94	0.12	553880	keystroke_c	c	n/a
276.9995	0.0755	553999	keystroke_o	o	n/a
277.1505	0.059	554301	keystroke_m	m	n/a
277.2555	0.0895	554511	keystroke_p	p	n/a
277.3295	0.1205	554659	keystroke_l	l	n/a
277.5545	0.105	555109	keystroke_y	y	n/a
277.6295	0.1195	555259	keystroke_Key.space	Key.space	n/a
277.825	0.104	555650	keystroke_q	q	n/a
277.944	0.09	555888	keystroke_u	u	n/a
278.125	0.09	556250	keystroke_i	i	n/a
278.2295	0.105	556459	keystroke_z	z	n/a
278.3495	0.1055	556699	keystroke_Key.space	Key.space	n/a
278.515	0.12	557030	keystroke_d	d	n/a
278.59	0.105	557180	keystroke_e	e	n/a
278.77	0.09	557540	keystroke_t	t	n/a
278.875	0.135	557750	keystroke_e	e	n/a
278.98	0.075	557960	keystroke_r	r	n/a
279.055	0.105	558110	keystroke_m	m	n/a
279.235	0.06	558470	keystroke_i	i	n/a
279.355	0.1355	558710	keystroke_n	n	n/a
279.445	0.12	558890	keystroke_e	e	n/a
279.505	0.135	559010	keystroke_s	s	n/a
279.55	0.1045	559100	keystroke_Key.space	Key.space	n/a
279.6995	0.135	559399	keystroke_Key.enter	Key.enter	n/a
279.8415	4.706	559683	prompt	n/a	another burden annotation frozen\n
280.4505	0.149	560901	keystroke_a	a	n/a
280.5845	0.06	561169	keystroke_n	n	n/a
280.705	0.09	561410	keystroke_o	o	n/a
280.765	0.105	561530	keystroke_t	t	n/a
280.885	0.09	561770	keystroke_h	h	n/a
280.93	0.105	561860	keystroke_e	e	n/a
280.99	0.135	561980	keystroke_r	r	n/a
281.11	0.075	562220	keystroke_Key.space	Key.space	n/a
281.245	0.09	562490	keystroke_b	b	n/a
281.365	0.12	562730	keystroke_u	u	n/a
281.4555	0.0595	562911	keystroke_r	r	n/a
281.62	0.15	563240	keystroke_d	d	n/a
281.695	0.15	563390	keystroke_e	e	n/a
281.785	0.0895	563570	keystroke_n	n	n/a
281.9195	0.09	563839	keystroke_Key.space	Key.space	n/a
282.0995	0.091	564199	keystroke_a	a	n/a
282.22	0.0595	564440	keystroke_n	n	n/a
282.3705	0.059	564741	keystroke_n	n	n/a
282.505	0.1195	565010	keystroke_o	o	n/a
282.64	0.0455	565280	keystroke_t	t	n/a
282.775	0.0905	565550	keystroke_a	a	n/a
282.9695	0.09	565939	keystroke_t	t	n/a
283.0455	0.059	566091	keystroke_i	i	n/a
283.18	0.0305	566360	keystroke_o	o	n/a
283.2855	0.135	566571	keystroke_n	n	n/a
283.4055	0.134	566811	keystroke_Key.space	Key.space	n/a
283.5545	0.046	567109	keystroke_f	f	n/a
283.69	0.09	567380	keystroke_r	r	n/a
283.795	0.12	567590	keystroke_o	o	n/a
283.93	0.12	567860	keystroke_z	z	n/a
284.17	0.0905	568340	keystroke_e	e	n/a
284.275	0.075	568550	keystroke_n	n	n/a
284.41	0.135	568820	keystroke_Key.enter	Key.enter	n/a
284.5515	4.795	569103	prompt	n/a	novel omissions junior brakes\n
285.2205	0.0745	570441	keystroke_n	n	n/a
285.3545	0.1055	570709	keystroke_o	o	n/a
285.43	0.135	570860	keystroke_v	v	n/a
285.505	0.12	571010	keystroke_e	e	n/a
285.6555	0.0895	571311	keystroke_l	l	n/a
285.805	0.09	571610	keystroke_Key.space	Key.space	n/a
286.015	0.076	572030	keystroke_o	o	n/a
286.195	0.075	572390	keystroke_m	m	n/a
286.33	0.0905	572660	keystroke_i	i	n/a
286.465	0.0745	572930	keystroke_s	s	n/a
286.6295	0.106	573259	keystroke_s	s	n/a
286.75	0.045	573500	keystroke_i	i	n/a
286.885	0.06	573770	keystroke_o	o	n/a
287.02	0.105	574040	keystroke_n	n	n/a
287.455	0.1045	574910	keystroke_s	s	n/a
287.5745	0.075	575149	keystroke_Key.space	Key.space	n/a
287.7245	0.0755	575449	keystroke_j	j	n/a
287.875	0.075	575750	keystroke_u	u	n/a
287.965	0.105	575930	keystroke_n	n	n/a
288.115	0.09	576230	keystroke_i	i	n/a
288.295	0.075	576590	keystroke_o	o	n/a
288.415	0.105	576830	keystroke_r	r	n/a
288.46	0.09	576920	keystroke_Key.space	Key.space	n/a
288.625	0.105	577250	keystroke_b	b	n/a
288.715	0.0595	577430	keystroke_r	r	n/a
288.8805	0.074	577761	keystroke_a	a	n/a
288.9405	0.1045	577881	keystroke_k	k	n/a
289.075	0.1195	578150	keystroke_e	e	n/a
289.165	0.0895	578330	keystroke_s	s	n/a
289.2995	0.046	578599	keystroke_Key.enter	Key.enter	n/a
289.3515	4.451	578703	prompt	n/a	expects honest scratch span\n
290.005	0.045	580010	keystroke_e	e	n/a
290.155	0.09	580310	keystroke_x	x	n/a
290.26	0.09	580520	keystroke_p	p	n/a
290.335	0.1055	580670	keystroke_e	e	n/a
290.4255	0.104	580851	keystroke_c	c	n/a
290.68	0.0755	581360	keystroke_t	t	n/a
290.8755	0.1045	581751	keystroke_s	s	n/a
290.935	0.09	581870	keystroke_Key.space	Key.space	n/a
291.085	0.0755	582170	keystroke_h	h	n/a
291.25	0.045	582500	keystroke_o	o	n/a
291.385	0.09	582770	keystroke_n	n	n/a
291.4	0.135	582800	keystroke_e	e	n/a
291.49	0.075	582980	keystroke_s	s	n/a
291.655	0.09	583310	keystroke_t	t	n/a
291.7155	0.1045	583431	keystroke_Key.space	Key.space	n/a
291.85	0.1055	583700	keystroke_s	s	n/a
291.9995	0.091	583999	keystroke_c	c	n/a
292.2095	0.075	584419	keystroke_r	r	n/a
292.4055	0.06	584811	keystroke_a	a	n/a
292.6005	0.074	585201	keystroke_t	t	n/a
292.8405	0.075	585681	keystroke_c	c	n/a
292.9305	0.075	585861	keystroke_h	h	n/a
293.05	0.09	586100	keystroke_Key.space	Key.space	n/a
293.1855	0.104	586371	keystroke_s	s	n/a
293.3345	0.016	586669	keystroke_p	p	n/a
293.3645	0.09	586729	keystroke_a	a	n/a
293.4695	0.106	586939	keystroke_n	n	n/a
293.665	0.1345	587330	keystroke_Key.enter	Key.enter	n/a
293.8065	4.9905	587613	prompt	n/a	reno childhood indication beings\n
294.5645	0.1055	589129	keystroke_r	r	n/a
294.6255	0.1195	589251	keystroke_e	e	n/a
294.746	0.074	589492	keystroke_n	n	n/a
294.925	0.0755	589850	keystroke_o	o	n/a
295.03	0.09	590060	keystroke_Key.space	Key.space	n/a
295.136	0.075	590272	keystroke_c	c	n/a
295.212	0.103	590424	keystroke_h	h	n/a
295.33	0.0605	590660	keystroke_i	i	n/a
295.4655	0.0895	590931	keystroke_l	l	n/a
295.5405	0.1045	591081	keystroke_d	d	n/a
295.7505	0.06	591501	keystroke_h	h	n/a
296.05	0.06	592100	keystroke_o	o	n/a
296.2	0.075	592400	keystroke_o	o	n/a
296.275	0.105	592550	keystroke_d	d	n/a
296.35	0.105	592700	keystroke_Key.space	Key.space	n/a
296.53	0.06	593060	keystroke_i	i	n/a
296.65	0.09	593300	keystroke_n	n	n/a
296.7705	0.105	593541	keystroke_d	d	n/a
296.8305	0.09	593661	keystroke_i	i	n/a
297.0095	0.0605	594019	keystroke_c	c	n/a
297.1895	0.076	594379	keystroke_a	a	n/a
297.385	0.0905	594770	keystroke_t	t	n/a
297.4455	0.06	594891	keystroke_i	i	n/a
297.61	0.06	595220	keystroke_o	o	n/a
297.73	0.12	595460	keystroke_n	n	n/a
297.835	0.075	595670	keystroke_Key.space	Key.space	n/a
297.97	0.09	595940	keystroke_b	b	n/a
298.015	0.15	596030	keystroke_e	e	n/a
298.165	0.075	596330	keystroke_i	i	n/a
298.315	0.09	596630	keystroke_n	n	n/a
298.36	0.075	596720	keystroke_g	g	n/a
298.54	0.105	597080	keystroke_s	s	n/a
298.645	0.135	597290	keystroke_Key.space	Key.space	n/a
298.69	0.105	597380	keystroke_Key.enter	Key.enter	n/a
298.801	9.0555	597602	prompt	n/a	away mortgage calculators vault\n
299.515	0.105	599030	keystroke_a	a	n/a
299.605	0.0605	599210	keystroke_n	n	n/a
299.71	0.1205	599420	keystroke_w	w	n/a
299.7855	0.1045	599571	keystroke_a	a	n/a
300.025	0.0455	600050	keystroke_Key.backspace	Key.backspace	n/a
300.16	0.0755	600320	keystroke_Key.backspace	Key.backspace	n/a
300.25	0.105	600500	keystroke_w	w	n/a
300.31	0.1495	600620	keystroke_a	a	n/a
301.09	0.0745	602180	keystroke_Key.backspace	Key.backspace	n/a
301.2545	0.0605	602509	keystroke_Key.backspace	Key.backspace	n/a
301.4195	0.06	602839	keystroke_Key.backspace	Key.backspace	n/a
301.5255	0.105	603051	keystroke_w	w	n/a
301.5705	0.12	603141	keystroke_a	a	n/a
301.7055	0.075	603411	keystroke_y	y	n/a
302.215	0.075	604430	keystroke_Key.space	Key.space	n/a
302.38	0.09	604760	keystroke_m	m	n/a
302.515	0.105	605030	keystroke_o	o	n/a
302.59	0.045	605180	keystroke_r	r	n/a
302.74	0.06	605480	keystroke_t	t	n/a
302.92	0.09	605840	keystroke_a	a	n/a
303.3545	0.06	606709	keystroke_Key.backspace	Key.backspace	n/a
303.4305	0.06	606861	keystroke_g	g	n/a
303.6395	0.09	607279	keystroke_a	a	n/a
303.8495	0.135	607699	keystroke_g	g	n/a
303.9245	0.1355	607849	keystroke_e	e	n/a
304.0605	0.089	608121	keystroke_Key.space	Key.space	n/a
304.1945	0.076	608389	keystroke_c	c	n/a
304.375	0.09	608750	keystroke_a	a	n/a
304.4945	0.106	608989	keystroke_l	l	n/a
305.6955	0.0895	611391	keystroke_c	c	n/a
305.8005	0.075	611601	keystroke_u	u	n/a
306.0095	0.076	612019	keystroke_l	l	n/a
306.1155	0.0745	612231	keystroke_a	a	n/a
306.325	0.09	612650	keystroke_t	t	n/a
306.415	0.06	612830	keystroke_o	o	n/a
306.5205	0.1345	613041	keystroke_r	r	n/a
306.6105	0.1045	613221	keystroke_s	s	n/a
306.774	0.076	613548	keystroke_Key.space	Key.space	n/a
306.955	0.075	613910	keystroke_v	v	n/a
307.1655	0.0895	614331	keystroke_a	a	n/a
307.2555	0.0595	614511	keystroke_u	u	n/a
307.4045	0.09	614809	keystroke_l	l	n/a
307.5395	0.12	615079	keystroke_t	t	n/a
307.5845	0.09	615169	keystroke_Key.space	Key.space	n/a
307.705	0.1495	615410	keystroke_Key.enter	Key.enter	n/a
307.861	6.2505	615722	prompt	n/a	replaced jewelry plays objectives\n
308.4545	0.121	616909	keystroke_r	r	n/a
308.545	0.135	617090	keystroke_e	e	n/a
308.605	0.12	617210	keystroke_p	p	n/a
308.71	0.135	617420	keystroke_l	l	n/a
308.8145	0.106	617629	keystroke_a	a	n/a
308.9955	0.104	617991	keystroke_c	c	n/a
309.1445	0.1355	618289	keystroke_e	e	n/a
309.235	0.09	618470	keystroke_d	d	n/a
309.34	0.105	618680	keystroke_Key.space	Key.space	n/a
309.655	0.1345	619310	keystroke_j	j	n/a
309.82	0.135	619640	keystroke_e	e	n/a
310.1055	0.1495	620211	keystroke_w	w	n/a
310.21	0.1205	620420	keystroke_e	e	n/a
310.4345	0.076	620869	keystroke_r	r	n/a
310.5395	0.09	621079	keystroke_l	l	n/a
310.6445	0.0905	621289	keystroke_y	y	n/a
310.78	0.1045	621560	keystroke_Key.space	Key.space	n/a
311.1255	0.075	622251	keystroke_p	p	n/a
311.2005	0.1185	622401	keystroke_l	l	n/a
311.305	0.0755	622610	keystroke_a	a	n/a
311.4855	0.06	622971	keystroke_y	y	n/a
311.56	0.12	623120	keystroke_s	s	n/a
312.2945	0.0755	624589	keystroke_Key.space	Key.space	n/a
312.46	0.0595	624920	keystroke_o	o	n/a
312.64	0.0745	625280	keystroke_b	b	n/a
312.8805	0.1045	625761	keystroke_j	j	n/a
313	0.105	626000	keystroke_e	e	n/a
313.06	0.0905	626120	keystroke_c	c	n/a
313.285	0.0605	626570	keystroke_t	t	n/a
313.3755	0.0745	626751	keystroke_i	i	n/a
313.4805	0.105	626961	keystroke_v	v	n/a
313.54	0.1055	627080	keystroke_e	e	n/a
313.7805	0.075	627561	keystroke_s	s	n/a
313.87	0.06	627740	keystroke_Key.space	Key.space	n/a
314.035	0.075	628070	keystroke_Key.enter	Key.enter	n/a
314.115	8.217	628230	prompt	n/a	highs diane payroll secure\n
314.7705	0.074	629541	keystroke_h	h	n/a
314.9055	0.105	629811	keystroke_i	i	n/a
314.9805	0.06	629961	keystroke_g	g	n/a
315.1455	0.045	630291	keystroke_h	h	n/a
315.8495	0.045	631699	keystroke_Key.backspace	Key.backspace	n/a
316.6605	0.06	633321	keystroke_h	h	n/a
316.7355	0.0895	633471	keystroke_s	s	n/a
316.915	0.075	633830	keystroke_Key.space	Key.space	n/a
317.02	0.12	634040	keystroke_d	d	n/a
317.125	0.105	634250	keystroke_i	i	n/a
317.245	0.105	634490	keystroke_a	a	n/a
317.38	0.1045	634760	keystroke_n	n	n/a
317.95	0.135	635900	keystroke_e	e	n/a
318.28	0.09	636560	keystroke_Key.space	Key.space	n/a
318.4895	0.105	636979	keystroke_p	p	n/a
318.655	0.1045	637310	keystroke_a	a	n/a
318.82	0.075	637640	keystroke_y	y	n/a
319.0595	0.105	638119	keystroke_r	r	n/a
319.1655	0.0745	638331	keystroke_o	o	n/a
319.36	0.0605	638720	keystroke_l	l	n/a
319.51	0.0905	639020	keystroke_l	l	n/a
319.6445	0.091	639289	keystroke_Key.space	Key.space	n/a
319.7795	0.03	639559	keystroke_e	e	n/a
319.9295	0.0905	639859	keystroke_e	e	n/a
320.365	0.0595	640730	keystroke_Key.backspace	Key.backspace	n/a
320.529	0.076	641058	keystroke_Key.backspace	Key.backspace	n/a
320.6205	0.0895	641241	keystroke_s	s	n/a
320.9055	0.105	641811	keystroke_c	c	n/a
321.3395	0.0455	642679	keystroke_Key.backspace	Key.backspace	n/a
321.3995	0.09	642799	keystroke_e	e	n/a
321.5945	0.106	643189	keystroke_c	c	n/a
321.715	0.0895	643430	keystroke_u	u	n/a
321.895	0.09	643790	keystroke_r	r	n/a
321.9545	0.165	643909	keystroke_e	e	n/a
322.0745	0.0605	644149	keystroke_Key.space	Key.space	n/a
322.195	0.1345	644390	keystroke_Key.enter	Key.enter	n/a
322.336	9.701	644672	prompt	n/a	irrigation sacramento shelf writing\n
323.095	0.075	646190	keystroke_i	i	n/a
323.5	0.045	647000	keystroke_r	r	n/a
323.635	0.105	647270	keystroke_r	r	n/a
324.505	0.075	649010	keystroke_i	i	n/a
324.6105	0.0595	649221	keystroke_g	g	n/a
324.82	0.075	649640	keystroke_a	a	n/a
325.0305	0.09	650061	keystroke_t	t	n/a
325.0895	0.06	650179	keystroke_i	i	n/a
325.255	0.0445	650510	keystroke_o	o	n/a
325.3605	0.105	650721	keystroke_n	n	n/a
325.4655	0.0895	650931	keystroke_Key.space	Key.space	n/a
325.5245	0.1505	651049	keystroke_s	s	n/a
325.6145	0.1205	651229	keystroke_a	a	n/a
326.0055	0.089	652011	keystroke_c	c	n/a
326.275	0.15	652550	keystroke_r	r	n/a
326.35	0.15	652700	keystroke_e	e	n/a
326.515	0.09	653030	keystroke_m	m	n/a
326.725	0.15	653450	keystroke_e	e	n/a
326.905	0.045	653810	keystroke_n	n	n/a
326.9955	0.12	653991	keystroke_t	t	n/a
327.2045	0.0605	654409	keystroke_o	o	n/a
327.325	0.12	654650	keystroke_Key.space	Key.space	n/a
327.475	0.09	654950	keystroke_s	s	n/a
327.58	0.0745	655160	keystroke_h	h	n/a
327.6995	0.06	655399	keystroke_e	e	n/a
327.7745	0.091	655549	keystroke_l	l	n/a
327.8805	0.119	655761	keystroke_f	f	n/a
327.97	0.0895	655940	keystroke_Key.space	Key.space	n/a
328.1505	0.105	656301	keystroke_w	w	n/a
328.2855	0.12	656571	keystroke_r	r	n/a
328.4195	0.061	656839	keystroke_i	i	n/a
328.525	0.0445	657050	keystroke_t	t	n/a
328.6145	0.0455	657229	keystroke_i	i	n/a
330.3845	0.0605	660769	keystroke_Key.backspace	Key.backspace	n/a
330.5645	0.06	661129	keystroke_Key.backspace	Key.backspace	n/a
331.465	0.09	662930	keystroke_t	t	n/a
331.555	0.075	663110	keystroke_i	i	n/a
331.69	0.105	663380	keystroke_n	n	n/a
331.75	0.0905	663500	keystroke_g	g	n/a
331.855	0.06	663710	keystroke_Key.space	Key.space	n/a
331.93	0.105	663860	keystroke_Key.enter	Key.enter	n/a
332.044	6.6075	664088	prompt	n/a	bridges providing tree photographer\n
332.695	0.06	665390	keystroke_b	b	n/a
332.74	0.09	665480	keystroke_r	r	n/a
332.875	0.1055	665750	keystroke_i	i	n/a
332.9655	0.0745	665931	keystroke_d	d	n/a
333.145	0.15	666290	keystroke_g	g	n/a
333.2355	0.12	666471	keystroke_e	e	n/a
333.4755	0.0895	666951	keystroke_s	s	n/a
333.58	0.075	667160	keystroke_Key.space	Key.space	n/a
333.745	0.09	667490	keystroke_p	p	n/a
333.8205	0.0895	667641	keystroke_r	r	n/a
333.94	0.09	667880	keystroke_o	o	n/a
334.285	0.105	668570	keystroke_v	v	n/a
334.435	0.06	668870	keystroke_i	i	n/a
335.11	0.0595	670220	keystroke_Key.backspace	Key.backspace	n/a
335.3805	0.1195	670761	keystroke_i	i	n/a
335.6045	0.076	671209	keystroke_d	d	n/a
335.725	0.0605	671450	keystroke_i	i	n/a
335.8745	0.0905	671749	keystroke_n	n	n/a
335.9795	0.105	671959	keystroke_g	g	n/a
336.07	0.09	672140	keystroke_Key.space	Key.space	n/a
336.295	0.09	672590	keystroke_t	t	n/a
336.505	0.09	673010	keystroke_r	r	n/a
336.7155	0.0595	673431	keystroke_e	e	n/a
336.865	0.105	673730	keystroke_e	e	n/a
336.955	0.06	673910	keystroke_Key.space	Key.space	n/a
337.06	0.075	674120	keystroke_p	p	n/a
337.225	0.0745	674450	keystroke_h	h	n/a
337.3895	0.0755	674779	keystroke_o	o	n/a
337.45	0.0895	674900	keystroke_t	t	n/a
337.5695	0.0905	675139	keystroke_o	o	n/a
337.6745	0.09	675349	keystroke_g	g	n/a
337.735	0.075	675470	keystroke_r	r	n/a
337.93	0.09	675860	keystroke_a	a	n/a
337.9595	0.0455	675919	keystroke_p	p	n/a
338.1705	0.074	676341	keystroke_h	h	n/a
338.26	0.1055	676520	keystroke_e	e	n/a
338.3355	0.135	676671	keystroke_r	r	n/a
338.4395	0.045	676879	keystroke_Key.space	Key.space	n/a
338.53	0.1195	677060	keystroke_Key.enter	Key.enter	n/a
338.6545	7.2575	677309	prompt	n/a	burden casual aviation screening\n
339.3695	0.075	678739	keystroke_b	b	n/a
339.49	0.1195	678980	keystroke_u	u	n/a
339.5655	0.075	679131	keystroke_r	r	n/a
339.7595	0.1355	679519	keystroke_d	d	n/a
339.85	0.18	679700	keystroke_e	e	n/a
339.9705	0.089	679941	keystroke_n	n	n/a
340.0745	0.105	680149	keystroke_Key.space	Key.space	n/a
340.225	0.09	680450	keystroke_c	c	n/a
340.3745	0.12	680749	keystroke_a	a	n/a
340.4495	0.121	680899	keystroke_s	s	n/a
340.5855	0.089	681171	keystroke_u	u	n/a
340.7195	0.0755	681439	keystroke_a	a	n/a
340.765	0.1195	681530	keystroke_l	l	n/a
340.8855	0.1195	681771	keystroke_Key.space	Key.space	n/a
341.1705	0.0745	682341	keystroke_v	v	n/a
341.5295	0.075	683059	keystroke_Key.backspace	Key.backspace	n/a
341.5895	0.0755	683179	keystroke_a	a	n/a
341.7845	0.075	683569	keystroke_v	v	n/a
341.8745	0.1355	683749	keystroke_i	i	n/a
342.895	0.1045	685790	keystroke_a	a	n/a
343.12	0.1045	686240	keystroke_t	t	n/a
343.2105	0.03	686421	keystroke_i	i	n/a
343.3305	0.059	686661	keystroke_o	o	n/a
343.4505	0.104	686901	keystroke_n	n	n/a
343.5395	0.12	687079	keystroke_Key.space	Key.space	n/a
343.6	0.0755	687200	keystroke_s	s	n/a
343.7345	0.091	687469	keystroke_c	c	n/a
344.11	0.0595	688220	keystroke_e	e	n/a
344.5145	0.075	689029	keystroke_Key.backspace	Key.backspace	n/a
344.6195	0.1055	689239	keystroke_r	r	n/a
345.0405	0.059	690081	keystroke_e	e	n/a
345.2045	0.1205	690409	keystroke_e	e	n/a
345.3105	0.06	690621	keystroke_n	n	n/a
345.415	0.0895	690830	keystroke_i	i	n/a
345.55	0.0905	691100	keystroke_n	n	n/a
345.61	0.1205	691220	keystroke_g	g	n/a
345.6855	0.0745	691371	keystroke_Key.space	Key.space	n/a
345.805	0.104	691610	keystroke_Key.enter	Key.enter	n/a
345.9165	7.1655	691833	prompt	n/a	technologies wrestling precision bush\n
346.7345	0.106	693469	keystroke_t	t	n/a
346.7805	0.104	693561	keystroke_e	e	n/a
347.0045	0.105	694009	keystroke_c	c	n/a
347.065	0.09	694130	keystroke_h	h	n/a
347.275	0.075	694550	keystroke_n	n	n/a
347.6495	0.0755	695299	keystroke_l	l	n/a
347.89	0.09	695780	keystroke_o	o	n/a
348.4	0.045	696800	keystroke_Key.backspace	Key.backspace	n/a
348.535	0.06	697070	keystroke_Key.backspace	Key.backspace	n/a
348.73	0.0745	697460	keystroke_o	o	n/a
348.9255	0.075	697851	keystroke_l	l	n/a
349.1205	0.074	698241	keystroke_o	o	n/a
349.2245	0.105	698449	keystroke_g	g	n/a
349.345	0.0895	698690	keystroke_i	i	n/a
349.4645	0.105	698929	keystroke_e	e	n/a
349.51	0.12	699020	keystroke_s	s	n/a
349.6145	0.1055	699229	keystroke_Key.space	Key.space	n/a
349.7645	0.1355	699529	keystroke_w	w	n/a
349.96	0.1945	699920	keystroke_r	r	n/a
350.0495	0.1355	700099	keystroke_e	e	n/a
350.2895	0.0455	700579	keystroke_s	s	n/a
350.455	0.0905	700910	keystroke_t	t	n/a
350.59	0.105	701180	keystroke_l	l	n/a
350.7695	0.0755	701539	keystroke_i	i	n/a
350.9195	0.09	701839	keystroke_n	n	n/a
351.0395	0.09	702079	keystroke_g	g	n/a
351.0995	0.0755	702199	keystroke_Key.space	Key.space	n/a
351.2805	0.089	702561	keystroke_p	p	n/a
351.3395	0.1205	702679	keystroke_r	r	n/a
351.4145	0.09	702829	keystroke_e	e	n/a
351.6095	0.09	703219	keystroke_c	c	n/a
351.715	0.0905	703430	keystroke_i	i	n/a
351.85	0.0905	703700	keystroke_s	s	n/a
351.955	0.06	703910	keystroke_i	i	n/a
352.12	0.0605	704240	keystroke_o	o	n/a
352.255	0.15	704510	keystroke_n	n	n/a
352.39	0.06	704780	keystroke_Key.space	Key.space	n/a
352.51	0.09	705020	keystroke_b	b	n/a
352.6155	0.1045	705231	keystroke_u	u	n/a
352.7055	0.0895	705411	keystroke_s	s	n/a
352.81	0.0755	705620	keystroke_h	h	n/a
352.99	0.0905	705980	keystroke_Key.enter	Key.enter	n/a
353.086	6.791	706172	prompt	n/a	difficulty scholars unsigned timothy\n
353.725	0.1055	707450	keystroke_d	d	n/a
353.845	0.09	707690	keystroke_i	i	n/a
353.965	0.075	707930	keystroke_f	f	n/a
354.1155	0.0895	708231	keystroke_f	f	n/a
354.19	0.075	708380	keystroke_i	i	n/a
354.31	0.105	708620	keystroke_c	c	n/a
354.4	0.045	708800	keystroke_u	u	n/a
354.5505	0.089	709101	keystroke_l	l	n/a
354.6245	0.12	709249	keystroke_t	t	n/a
354.835	0.09	709670	keystroke_y	y	n/a
354.9695	0.1205	709939	keystroke_Key.space	Key.space	n/a
355.1205	0.0905	710241	keystroke_s	s	n/a
355.2845	0.09	710569	keystroke_c	c	n/a
355.36	0.06	710720	keystroke_h	h	n/a
355.525	0.076	711050	keystroke_o	o	n/a
355.706	0.09	711412	keystroke_l	l	n/a
355.765	0.075	711530	keystroke_a	a	n/a
355.9605	0.1045	711921	keystroke_r	r	n/a
356.035	0.1355	712070	keystroke_s	s	n/a
356.155	0.0755	712310	keystroke_Key.space	Key.space	n/a
356.6205	0.0445	713241	keystroke_u	u	n/a
356.7695	0.076	713539	keystroke_n	n	n/a
357.415	0.105	714830	keystroke_s	s	n/a
357.505	0.075	715010	keystroke_i	i	n/a
357.6405	0.105	715281	keystroke_g	g	n/a
357.775	0.0605	715550	keystroke_n	n	n/a
357.85	0.181	715700	keystroke_e	e	n/a
357.955	0.1205	715910	keystroke_d	d	n/a
358.0605	0.0745	716121	keystroke_Key.space	Key.space	n/a
358.2105	0.12	716421	keystroke_t	t	n/a
358.3305	0.074	716661	keystroke_i	i	n/a
358.5255	0.06	717051	keystroke_m	m	n/a
359.0655	0.0895	718131	keystroke_o	o	n/a
359.275	0.105	718550	keystroke_t	t	n/a
359.35	0.105	718700	keystroke_h	h	n/a
359.575	0.09	719150	keystroke_y	y	n/a
359.7555	0.1195	719511	keystroke_Key.enter	Key.enter	n/a
359.8805	6.192	719761	prompt	n/a	magnet merge actors republicans\n
360.505	0.121	721010	keystroke_m	m	n/a
360.67	0.0455	721340	keystroke_a	a	n/a
360.8805	0.0895	721761	keystroke_g	g	n/a
361.045	0.105	722090	keystroke_n	n	n/a
361.1655	0.075	722331	keystroke_e	e	n/a
361.3455	0.0895	722691	keystroke_t	t	n/a
361.42	0.105	722840	keystroke_Key.space	Key.space	n/a
361.645	0.1055	723290	keystroke_m	m	n/a
361.736	0.1195	723472	keystroke_e	e	n/a
361.795	0.12	723590	keystroke_r	r	n/a
362.02	0.1205	724040	keystroke_g	g	n/a
362.095	0.165	724190	keystroke_e	e	n/a
362.2455	0.1045	724491	keystroke_Key.space	Key.space	n/a
362.455	0.075	724910	keystroke_a	a	n/a
362.65	0.075	725300	keystroke_c	c	n/a
362.8755	0.09	725751	keystroke_t	t	n/a
363.0105	0.089	726021	keystroke_o	o	n/a
363.1005	0.105	726201	keystroke_r	r	n/a
363.1755	0.105	726351	keystroke_s	s	n/a
363.3995	0.105	726799	keystroke_Key.space	Key.space	n/a
363.6105	0.1205	727221	keystroke_r	r	n/a
363.6855	0.15	727371	keystroke_e	e	n/a
363.9405	0.119	727881	keystroke_p	p	n/a
364.1955	0.075	728391	keystroke_u	u	n/a
364.39	0.09	728780	keystroke_b	b	n/a
364.495	0.075	728990	keystroke_l	l	n/a
364.645	0.1205	729290	keystroke_i	i	n/a
364.735	0.0905	729470	keystroke_c	c	n/a
364.9155	0.0895	729831	keystroke_s	s	n/a
365.0795	0.09	730159	keystroke_n	n	n/a
365.4395	0.0455	730879	keystroke_Key.backspace	Key.backspace	n/a
365.56	0.09	731120	keystroke_Key.backspace	Key.backspace	n/a
365.665	0.09	731330	keystroke_a	a	n/a
365.7705	0.0895	731541	keystroke_n	n	n/a
365.875	0.105	731750	keystroke_s	s	n/a
365.965	0.105	731930	keystroke_Key.enter	Key.enter	n/a
366.0765	7.3305	732153	prompt	n/a	posted computing teens span\n
366.7155	0.075	733431	keystroke_p	p	n/a
366.8655	0.09	733731	keystroke_o	o	n/a
366.9405	0.09	733881	keystroke_s	s	n/a
367.1205	0.075	734241	keystroke_t	t	n/a
367.2255	0.15	734451	keystroke_e	e	n/a
367.3305	0.09	734661	keystroke_d	d	n/a
367.4205	0.09	734841	keystroke_Key.space	Key.space	n/a
367.5555	0.0895	735111	keystroke_c	c	n/a
367.6	0.075	735200	keystroke_o	o	n/a
367.7505	0.0595	735501	keystroke_m	m	n/a
367.84	0.091	735680	keystroke_p	p	n/a
368.036	0.059	736072	keystroke_u	u	n/a
368.125	0.075	736250	keystroke_t	t	n/a
368.2145	0.076	736429	keystroke_i	i	n/a
368.3355	0.104	736671	keystroke_n	n	n/a
368.4245	0.076	736849	keystroke_g	g	n/a
368.4855	0.104	736971	keystroke_Key.space	Key.space	n/a
368.6345	0.1205	737269	keystroke_t	t	n/a
368.74	0.105	737480	keystroke_e	e	n/a
368.98	0.0755	737960	keystroke_e	e	n/a
369.1455	0.06	738291	keystroke_e	e	n/a
369.22	0.09	738440	keystroke_n	n	n/a
369.34	0.105	738680	keystroke_s	s	n/a
369.46	0.0895	738920	keystroke_Key.space	Key.space	n/a
369.805	0.06	739610	keystroke_Key.backspace	Key.backspace	n/a
369.9695	0.06	739939	keystroke_Key.backspace	Key.backspace	n/a
370.1355	0.0595	740271	keystroke_Key.backspace	Key.backspace	n/a
370.6295	0.045	741259	keystroke_Key.backspace	Key.backspace	n/a
370.8555	0.09	741711	keystroke_n	n	n/a
370.9605	0.089	741921	keystroke_s	s	n/a
371.0345	0.09	742069	keystroke_Key.space	Key.space	n/a
371.2305	0.0895	742461	keystroke_p	p	n/a
371.635	0.06	743270	keystroke_Key.backspace	Key.backspace	n/a
371.8605	0.09	743721	keystroke_p	p	n/a
371.875	0.135	743750	keystroke_s	s	n/a
372.49	0.045	744980	keystroke_Key.backspace	Key.backspace	n/a
372.61	0.0605	745220	keystroke_Key.backspace	Key.backspace	n/a
372.6845	0.106	745369	keystroke_s	s	n/a
372.805	0.0755	745610	keystroke_p	p	n/a
372.91	0.1045	745820	keystroke_a	a	n/a
373.0155	0.089	746031	keystroke_n	n	n/a
373.2695	0.135	746539	keystroke_Key.enter	Key.enter	n/a
373.4115	3.775	746823	prompt	n/a	pickup top mainly flame\n
373.945	0.09	747890	keystroke_p	p	n/a
374.14	0.1055	748280	keystroke_i	i	n/a
374.23	0.105	748460	keystroke_c	c	n/a
374.3505	0.0895	748701	keystroke_k	k	n/a
374.575	0.045	749150	keystroke_u	u	n/a
374.6805	0.12	749361	keystroke_p	p	n/a
374.875	0.105	749750	keystroke_Key.space	Key.space	n/a
375.07	0.105	750140	keystroke_t	t	n/a
375.1455	0.0595	750291	keystroke_o	o	n/a
375.31	0.0905	750620	keystroke_p	p	n/a
375.445	0.0755	750890	keystroke_Key.space	Key.space	n/a
375.625	0.075	751250	keystroke_m	m	n/a
375.73	0.09	751460	keystroke_a	a	n/a
375.775	0.06	751550	keystroke_i	i	n/a
375.91	0.0605	751820	keystroke_n	n	n/a
376.1495	0.0155	752299	keystroke_l	l	n/a
376.1805	0.075	752361	keystroke_y	y	n/a
376.2405	0.074	752481	keystroke_Key.space	Key.space	n/a
376.51	0.015	753020	keystroke_f	f	n/a
376.5405	0.06	753081	keystroke_l	l	n/a
376.63	0.0905	753260	keystroke_a	a	n/a
376.7055	0.0895	753411	keystroke_m	m	n/a
376.8705	0.135	753741	keystroke_e	e	n/a
377.0205	0.119	754041	keystroke_Key.space	Key.space	n/a
377.1105	0.0745	754221	keystroke_Key.enter	Key.enter	n/a
377.1905	8.9215	754381	prompt	n/a	appropriations equity goals chambers\n
377.8	0.105	755600	keystroke_a	a	n/a
377.98	0.09	755960	keystroke_p	p	n/a
378.205	0.0755	756410	keystroke_p	p	n/a
378.4155	0.0745	756831	keystroke_o	o	n/a
378.43	0.105	756860	keystroke_r	r	n/a
379.3745	0.0605	758749	keystroke_Key.backspace	Key.backspace	n/a
379.5095	0.075	759019	keystroke_Key.backspace	Key.backspace	n/a
379.6305	0.09	759261	keystroke_r	r	n/a
380.5605	0.045	761121	keystroke_o	o	n/a
380.725	0.0755	761450	keystroke_p	p	n/a
381.385	0.105	762770	keystroke_r	r	n/a
381.5055	0.1045	763011	keystroke_i	i	n/a
381.625	0.0895	763250	keystroke_a	a	n/a
381.8355	0.1045	763671	keystroke_t	t	n/a
381.91	0.0605	763820	keystroke_i	i	n/a
382.075	0.075	764150	keystroke_o	o	n/a
382.195	0.105	764390	keystroke_n	n	n/a
382.255	0.0905	764510	keystroke_s	s	n/a
382.39	0.075	764780	keystroke_Key.space	Key.space	n/a
382.4955	0.1045	764991	keystroke_e	e	n/a
382.7205	0.09	765441	keystroke_q	q	n/a
383.02	0.06	766040	keystroke_Key.backspace	Key.backspace	n/a
383.155	0.1045	766310	keystroke_Key.backspace	Key.backspace	n/a
383.2755	0.075	766551	keystroke_e	e	n/a
383.4705	0.105	766941	keystroke_q	q	n/a
383.5605	0.075	767121	keystroke_u	u	n/a
383.7405	0.09	767481	keystroke_i	i	n/a
383.8905	0.105	767781	keystroke_t	t	n/a
384.0855	0.09	768171	keystroke_y	y	n/a
384.2205	0.0895	768441	keystroke_Key.space	Key.space	n/a
384.4755	0.09	768951	keystroke_g	g	n/a
384.581	0.059	769162	keystroke_o	o	n/a
384.67	0.0895	769340	keystroke_a	a	n/a
384.7895	0.09	769579	keystroke_l	l	n/a
384.8645	0.1055	769729	keystroke_s	s	n/a
385.0005	0.089	770001	keystroke_Key.space	Key.space	n/a
385.1645	0.046	770329	keystroke_c	c	n/a
385.2105	0.0605	770421	keystroke_h	h	n/a
385.316	0.1045	770632	keystroke_a	a	n/a
385.3895	0.091	770779	keystroke_m	m	n/a
385.5845	0.0905	771169	keystroke_b	b	n/a
385.6445	0.1365	771289	keystroke_e	e	n/a
385.7355	0.0895	771471	keystroke_r	r	n/a
385.945	0.06	771890	keystroke_s	s	n/a
386.0205	0.0895	772041	keystroke_Key.enter	Key.enter	n/a
386.1155	7.632	772231	prompt	n/a	technological arrivals carrying tsunami\n
386.8305	0.0905	773661	keystroke_t	t	n/a
386.9355	0.12	773871	keystroke_e	e	n/a
387.1755	0.1055	774351	keystroke_c	c	n/a
387.282	0.073	774564	keystroke_h	h	n/a
387.521	0.089	775042	keystroke_n	n	n/a
387.73	0.09	775460	keystroke_o	o	n/a
387.9705	0.06	775941	keystroke_l	l	n/a
388.135	0.076	776270	keystroke_o	o	n/a
388.225	0.09	776450	keystroke_g	g	n/a
388.3605	0.1345	776721	keystroke_i	i	n/a
388.5245	0.0605	777049	keystroke_c	c	n/a
388.705	0.0755	777410	keystroke_a	a	n/a
388.796	0.089	777592	keystroke_l	l	n/a
388.9305	0.1195	777861	keystroke_Key.space	Key.space	n/a
389.021	0.1045	778042	keystroke_a	a	n/a
389.2155	0.0595	778431	keystroke_r	r	n/a
389.38	0.06	778760	keystroke_r	r	n/a
389.455	0.09	778910	keystroke_i	i	n/a
389.59	0.0455	779180	keystroke_v	v	n/a
389.74	0.105	779480	keystroke_a	a	n/a
389.83	0.1355	779660	keystroke_l	l	n/a
390.31	0.106	780620	keystroke_s	s	n/a
390.445	0.09	780890	keystroke_Key.space	Key.space	n/a
390.925	0.075	781850	keystroke_c	c	n/a
391.0905	0.0895	782181	keystroke_a	a	n/a
391.285	0.045	782570	keystroke_r	r	n/a
391.405	0.1055	782810	keystroke_r	r	n/a
391.465	0.0595	782930	keystroke_y	y	n/a
391.645	0.0745	783290	keystroke_i	i	n/a
391.7955	0.09	783591	keystroke_n	n	n/a
391.8555	0.075	783711	keystroke_g	g	n/a
391.945	0.09	783890	keystroke_Key.space	Key.space	n/a
392.0795	0.1205	784159	keystroke_t	t	n/a
392.5005	0.074	785001	keystroke_s	s	n/a
392.6795	0.076	785359	keystroke_u	u	n/a
393.01	0.0755	786020	keystroke_n	n	n/a
393.1455	0.0745	786291	keystroke_a	a	n/a
393.2655	0.06	786531	keystroke_m	m	n/a
393.415	0.0905	786830	keystroke_i	i	n/a
393.5205	0.0745	787041	keystroke_Key.space	Key.space	n/a
393.6405	0.105	787281	keystroke_Key.enter	Key.enter	n/a
393.7515	7.361	787503	prompt	n/a	authority polyphonic vegetables weird\n
394.451	0.1195	788902	keystroke_a	a	n/a
394.6005	0.0745	789201	keystroke_u	u	n/a
394.72	0.105	789440	keystroke_t	t	n/a
394.8105	0.0605	789621	keystroke_h	h	n/a
394.99	0.09	789980	keystroke_o	o	n/a
395.036	0.104	790072	keystroke_r	r	n/a
395.185	0.106	790370	keystroke_i	i	n/a
395.3355	0.075	790671	keystroke_t	t	n/a
395.4855	0.09	790971	keystroke_y	y	n/a
395.5895	0.091	791179	keystroke_Key.space	Key.space	n/a
395.7405	0.075	791481	keystroke_p	p	n/a
396.0705	0.0905	792141	keystroke_l	l	n/a
396.49	0.06	792980	keystroke_Key.backspace	Key.backspace	n/a
397.091	0.0295	794182	keystroke_o	o	n/a
397.2255	0.0895	794451	keystroke_l	l	n/a
397.3605	0.12	794721	keystroke_y	y	n/a
397.6455	0.075	795291	keystroke_p	p	n/a
397.9005	0.015	795801	keystroke_h	h	n/a
398.0505	0.0905	796101	keystroke_o	o	n/a
398.23	0.1055	796460	keystroke_r	r	n/a
398.32	0.12	796640	keystroke_i	i	n/a
398.545	0.09	797090	keystroke_c	c	n/a
398.62	0.12	797240	keystroke_Key.space	Key.space	n/a
398.8445	0.1365	797689	keystroke_v	v	n/a
398.9355	0.12	797871	keystroke_e	e	n/a
399.1605	0.12	798321	keystroke_g	g	n/a
399.2505	0.105	798501	keystroke_e	e	n/a
399.4305	0.0895	798861	keystroke_t	t	n/a
399.655	0.0905	799310	keystroke_a	a	n/a
399.73	0.0605	799460	keystroke_b	b	n/a
399.8805	0.1205	799761	keystroke_l	l	n/a
399.9705	0.1355	799941	keystroke_e	e	n/a
400.0455	0.09	800091	keystroke_s	s	n/a
400.1205	0.075	800241	keystroke_Key.space	Key.space	n/a
400.241	0.1195	800482	keystroke_w	w	n/a
400.3005	0.135	800601	keystroke_e	e	n/a
400.4055	0.105	800811	keystroke_i	i	n/a
400.5405	0.105	801081	keystroke_r	r	n/a
400.7355	0.105	801471	keystroke_d	d	n/a
400.8405	0.0745	801681	keystroke_Key.space	Key.space	n/a
400.99	0.12	801980	keystroke_Key.enter	Key.enter	n/a
401.116	5.681	802232	prompt	n/a	sought zoning propecia disability\n
401.771	0.119	803542	keystroke_s	s	n/a
401.9045	0.0905	803809	keystroke_o	o	n/a
402.1005	0.0745	804201	keystroke_u	u	n/a
402.2505	0.0895	804501	keystroke_g	g	n/a
402.475	0.1055	804950	keystroke_h	h	n/a
402.52	0.12	805040	keystroke_t	t	n/a
402.655	0.105	805310	keystroke_Key.space	Key.space	n/a
402.865	0.136	805730	keystroke_z	z	n/a
402.97	0.135	805940	keystroke_o	o	n/a
403.21	0.0755	806420	keystroke_n	n	n/a
403.3455	0.075	806691	keystroke_i	i	n/a
403.4805	0.1045	806961	keystroke_n	n	n/a
403.6005	0.09	807201	keystroke_g	g	n/a
403.6605	0.09	807321	keystroke_Key.space	Key.space	n/a
403.8555	0.09	807711	keystroke_p	p	n/a
403.9755	0.12	807951	keystroke_r	r	n/a
404.081	0.1195	808162	keystroke_o	o	n/a
404.4545	0.121	808909	keystroke_p	p	n/a
404.5605	0.09	809121	keystroke_e	e	n/a
404.7705	0.074	809541	keystroke_c	c	n/a
404.8605	0.075	809721	keystroke_i	i	n/a
404.966	0.09	809932	keystroke_a	a	n/a
405.0705	0.105	810141	keystroke_Key.space	Key.space	n/a
405.2505	0.12	810501	keystroke_d	d	n/a
405.341	0.0895	810682	keystroke_i	i	n/a
405.5505	0.105	811101	keystroke_s	s	n/a
405.8055	0.075	811611	keystroke_a	a	n/a
405.9255	0.075	811851	keystroke_b	b	n/a
406.0755	0.0755	812151	keystroke_i	i	n/a
406.2405	0.075	812481	keystroke_l	l	n/a
406.36	0.1055	812720	keystroke_i	i	n/a
406.435	0.121	812870	keystroke_t	t	n/a
406.5255	0.12	813051	keystroke_y	y	n/a
406.7195	0.076	813439	keystroke_Key.enter	Key.enter	n/a
406.8035	5.6485	813607	prompt	n/a	quizzes bracket inquiry proceed\n
407.3955	0.105	814791	keystroke_q	q	n/a
407.5155	0.045	815031	keystroke_u	u	n/a
407.6805	0.075	815361	keystroke_i	i	n/a
407.74	0.09	815480	keystroke_z	z	n/a
407.89	0.0755	815780	keystroke_z	z	n/a
408.13	0.12	816260	keystroke_e	e	n/a
408.205	0.1355	816410	keystroke_s	s	n/a
408.3105	0.075	816621	keystroke_Key.space	Key.space	n/a
408.4605	0.0895	816921	keystroke_b	b	n/a
408.5055	0.075	817011	keystroke_r	r	n/a
408.6855	0.0595	817371	keystroke_a	a	n/a
408.8655	0.0595	817731	keystroke_c	c	n/a
408.9705	0.0895	817941	keystroke_k	k	n/a
409.045	0.0755	818090	keystroke_e	e	n/a
409.1805	0.105	818361	keystroke_t	t	n/a
409.3155	0.09	818631	keystroke_Key.space	Key.space	n/a
409.7805	0.06	819561	keystroke_i	i	n/a
409.9005	0.105	819801	keystroke_n	n	n/a
409.9905	0.105	819981	keystroke_q	q	n/a
410.0805	0.075	820161	keystroke_u	u	n/a
410.2605	0.09	820521	keystroke_i	i	n/a
410.3355	0.09	820671	keystroke_r	r	n/a
410.605	0.0755	821210	keystroke_y	y	n/a
410.7705	0.1045	821541	keystroke_Key.space	Key.space	n/a
410.981	0.0595	821962	keystroke_p	p	n/a
411.131	0.0435	822262	keystroke_r	r	n/a
411.1455	0.105	822291	keystroke_o	o	n/a
411.3555	0.1205	822711	keystroke_c	c	n/a
411.4155	0.1345	822831	keystroke_e	e	n/a
412.0755	0.09	824151	keystroke_e	e	n/a
412.226	0.105	824452	keystroke_d	d	n/a
412.3755	0.075	824751	keystroke_Key.enter	Key.enter	n/a
412.4545	4.065	824909	prompt	n/a	a scholars enabled regime\n
413.0505	0.1055	826101	keystroke_a	a	n/a
413.185	0.09	826370	keystroke_Key.space	Key.space	n/a
413.291	0.075	826582	keystroke_s	s	n/a
413.4855	0.075	826971	keystroke_c	c	n/a
413.5455	0.075	827091	keystroke_h	h	n/a
413.756	0.06	827512	keystroke_o	o	n/a
413.9205	0.0905	827841	keystroke_l	l	n/a
413.9945	0.091	827989	keystroke_a	a	n/a
414.1905	0.1205	828381	keystroke_r	r	n/a
414.2655	0.1195	828531	keystroke_s	s	n/a
414.4	0.09	828800	keystroke_Key.space	Key.space	n/a
414.52	0.0905	829040	keystroke_e	e	n/a
414.6105	0.12	829221	keystroke_n	n	n/a
414.761	0.0895	829522	keystroke_a	a	n/a
414.866	0.075	829732	keystroke_b	b	n/a
415.0605	0.105	830121	keystroke_l	l	n/a
415.151	0.18	830302	keystroke_e	e	n/a
415.2405	0.12	830481	keystroke_d	d	n/a
415.3155	0.105	830631	keystroke_Key.space	Key.space	n/a
415.5405	0.1505	831081	keystroke_r	r	n/a
415.6155	0.135	831231	keystroke_e	e	n/a
415.84	0.1205	831680	keystroke_g	g	n/a
415.9455	0.06	831891	keystroke_i	i	n/a
416.081	0.0745	832162	keystroke_m	m	n/a
416.1705	0.1505	832341	keystroke_e	e	n/a
416.3805	0.135	832761	keystroke_Key.enter	Key.enter	n/a
416.523	6.339	833046	prompt	n/a	manufacture hadn't chicks maryland\n
417.25	0.1355	834500	keystroke_m	m	n/a
417.3555	0.09	834711	keystroke_a	a	n/a
417.5505	0.06	835101	keystroke_n	n	n/a
417.7005	0.12	835401	keystroke_u	u	n/a
417.9255	0.06	835851	keystroke_f	f	n/a
418.0905	0.06	836181	keystroke_a	a	n/a
418.2555	0.06	836511	keystroke_c	c	n/a
418.4355	0.0755	836871	keystroke_t	t	n/a
418.5555	0.075	837111	keystroke_u	u	n/a
418.645	0.1055	837290	keystroke_r	r	n/a
418.705	0.15	837410	keystroke_e	e	n/a
418.8105	0.0745	837621	keystroke_Key.space	Key.space	n/a
418.9755	0.0745	837951	keystroke_h	h	n/a
419.0655	0.0595	838131	keystroke_a	a	n/a
419.171	0.089	838342	keystroke_n	n	n/a
419.2305	0.1195	838461	keystroke_d	d	n/a
419.4255	0.09	838851	keystroke_'	'	n/a
419.62	0.0905	839240	keystroke_t	t	n/a
419.725	0.105	839450	keystroke_Key.space	Key.space	n/a
419.935	0.0755	839870	keystroke_c	c	n/a
419.9955	0.06	839991	keystroke_h	h	n/a
420.1305	0.09	840261	keystroke_i	i	n/a
420.2055	0.09	840411	keystroke_c	c	n/a
420.3405	0.105	840681	keystroke_k	k	n/a
420.4305	0.09	840861	keystroke_s	s	n/a
420.5355	0.06	841071	keystroke_Key.space	Key.space	n/a
420.6705	0.105	841341	keystroke_m	m	n/a
