onset	duration	sample	value	key	prompt_text
13.075	0.089	26150	keystroke_n	n	n/a
13.1795	0.09	26359	keystroke_a	a	n/a
13.3145	0.0895	26629	keystroke_l	l	n/a
13.4195	0.09	26839	keystroke_a	a	n/a
13.5995	0.0445	27199	keystroke_p	p	n/a
13.614	0.0755	27228	keystroke_a	a	n/a
13.9295	0.0595	27859	keystroke_t	t	n/a
14.0645	0.0895	28129	keystroke_i	i	n/a
19.0145	0.39	38029	keystroke_Key.cmd	Key.cmd	n/a
19.314	0.075	38628	keystroke_v	v	n/a
25.5835	14.6425	51167	prompt	n/a	the quick brown fox jumps over a lazy dog\n
31.5245	0.1045	63049	keystroke_t	t	n/a
31.6745	0.1195	63349	keystroke_h	h	n/a
31.809	0.105	63618	keystroke_e	e	n/a
31.9895	0.1495	63979	keystroke_Key.space	Key.space	n/a
32.469	0.1055	64938	keystroke_q	q	n/a
32.619	0.15	65238	keystroke_u	u	n/a
32.739	0.09	65478	keystroke_i	i	n/a
32.934	0.0905	65868	keystroke_c	c	n/a
33.129	0.105	66258	keystroke_k	k	n/a
33.219	0.165	66438	keystroke_Key.space	Key.space	n/a
33.654	0.1055	67308	keystroke_b	b	n/a
33.744	0.09	67488	keystroke_r	r	n/a
33.9245	0.1045	67849	keystroke_o	o	n/a
34.044	0.075	68088	keystroke_w	w	n/a
34.194	0.165	68388	keystroke_n	n	n/a
34.344	0.12	68688	keystroke_Key.space	Key.space	n/a
34.629	0.105	69258	keystroke_f	f	n/a
34.7645	0.1045	69529	keystroke_o	o	n/a
35.0195	0.105	70039	keystroke_c	c	n/a
35.529	0.06	71058	keystroke_Key.backspace	Key.backspace	n/a
35.604	0.105	71208	keystroke_x	x	n/a
35.799	0.1505	71598	keystroke_Key.space	Key.space	n/a
36.234	0.105	72468	keystroke_j	j	n/a
36.4745	0.0745	72949	keystroke_u	u	n/a
36.744	0.105	73488	keystroke_m	m	n/a
36.939	0.09	73878	keystroke_p	p	n/a
37.059	0.105	74118	keystroke_s	s	n/a
37.269	0.15	74538	keystroke_Key.space	Key.space	n/a
37.4795	0.1195	74959	keystroke_o	o	n/a
37.584	0.12	75168	keystroke_v	v	n/a
37.8245	0.1345	75649	keystroke_e	e	n/a
37.899	0.12	75798	keystroke_r	r	n/a
38.034	0.135	76068	keystroke_Key.space	Key.space	n/a
38.184	0.06	76368	keystroke_a	a	n/a
38.2445	0.1345	76489	keystroke_Key.space	Key.space	n/a
38.4095	0.1045	76819	keystroke_l	l	n/a
38.529	0.09	77058	keystroke_a	a	n/a
38.799	0.12	77598	keystroke_z	z	n/a
39.0995	0.1045	78199	keystroke_y	y	n/a
39.354	0.1205	78708	keystroke_Key.space	Key.space	n/a
39.579	0.075	79158	keystroke_d	d	n/a
39.669	0.09	79338	keystroke_o	o	n/a
39.879	0.075	79758	keystroke_g	g	n/a
40.149	0.075	80298	keystroke_Key.enter	Key.enter	n/a
40.2295	8.9655	80459	prompt	n/a	contemporary eminem operator logs\n
42.114	0.105	84228	keystroke_c	c	n/a
42.249	0.135	84498	keystroke_o	o	n/a
42.339	0.12	84678	keystroke_n	n	n/a
42.504	0.135	85008	keystroke_t	t	n/a
42.654	0.045	85308	keystroke_e	e	n/a
43.089	0.12	86178	keystroke_m	m	n/a
43.419	0.15	86838	keystroke_p	p	n/a
43.629	0.075	87258	keystroke_o	o	n/a
43.914	0.105	87828	keystroke_r	r	n/a
43.989	0.105	87978	keystroke_a	a	n/a
44.229	0.075	88458	keystroke_r	r	n/a
44.469	0.12	88938	keystroke_y	y	n/a
44.634	0.075	89268	keystroke_Key.space	Key.space	n/a
44.889	0.09	89778	keystroke_e	e	n/a
45.2345	0.1045	90469	keystroke_m	m	n/a
45.489	0.09	90978	keystroke_i	i	n/a
45.714	0.105	91428	keystroke_n	n	n/a
45.834	0.15	91668	keystroke_e	e	n/a
46.329	0.12	92658	keystroke_m	m	n/a
46.704	0.12	93408	keystroke_Key.space	Key.space	n/a
47.1245	0.2095	94249	keystroke_o	o	n/a
47.319	0.105	94638	keystroke_p	p	n/a
47.484	0.12	94968	keystroke_e	e	n/a
47.6195	0.1195	95239	keystroke_r	r	n/a
47.709	0.105	95418	keystroke_a	a	n/a
47.904	0.09	95808	keystroke_t	t	n/a
48.054	0.06	96108	keystroke_o	o	n/a
48.1295	0.0895	96259	keystroke_r	r	n/a
48.249	0.135	96498	keystroke_Key.space	Key.space	n/a
48.519	0.075	97038	keystroke_l	l	n/a
48.7145	0.0895	97429	keystroke_o	o	n/a
48.8495	0.1045	97699	keystroke_g	g	n/a
48.939	0.09	97878	keystroke_s	s	n/a
49.119	0.075	98238	keystroke_Key.enter	Key.enter	n/a
49.198	10.647	98396	prompt	n/a	pork contributors lanes introducing\n
50.979	0.09	101958	keystroke_p	p	n/a
51.384	0.075	102768	keystroke_o	o	n/a
51.564	0.09	103128	keystroke_r	r	n/a
52.149	0.135	104298	keystroke_k	k	n/a
52.749	0.135	105498	keystroke_Key.space	Key.space	n/a
53.2145	0.1495	106429	keystroke_c	c	n/a
53.334	0.165	106668	keystroke_o	o	n/a
53.469	0.09	106938	keystroke_n	n	n/a
53.589	0.105	107178	keystroke_t	t	n/a
53.664	0.105	107328	keystroke_r	r	n/a
53.814	0.09	107628	keystroke_i	i	n/a
54.084	0.045	108168	keystroke_b	b	n/a
55.074	0.1355	110148	keystroke_u	u	n/a
55.3895	0.0595	110779	keystroke_t	t	n/a
55.794	0.105	111588	keystroke_o	o	n/a
55.929	0.09	111858	keystroke_r	r	n/a
56.124	0.12	112248	keystroke_s	s	n/a
56.304	0.165	112608	keystroke_Key.space	Key.space	n/a
56.9045	0.0895	113809	keystroke_l	l	n/a
57.009	0.075	114018	keystroke_a	a	n/a
57.3095	0.1045	114619	keystroke_n	n	n/a
57.504	0.09	115008	keystroke_e	e	n/a
57.684	0.105	115368	keystroke_s	s	n/a
57.834	0.1205	115668	keystroke_Key.space	Key.space	n/a
58.089	0.1355	116178	keystroke_i	i	n/a
58.194	0.12	116388	keystroke_n	n	n/a
58.434	0.12	116868	keystroke_t	t	n/a
58.524	0.105	117048	keystroke_r	r	n/a
58.644	0.09	117288	keystroke_o	o	n/a
58.854	0.105	117708	keystroke_d	d	n/a
59.034	0.0905	118068	keystroke_u	u	n/a
59.154	0.12	118308	keystroke_c	c	n/a
59.394	0.135	118788	keystroke_i	i	n/a
59.484	0.135	118968	keystroke_n	n	n/a
59.5745	0.0745	119149	keystroke_g	g	n/a
59.7695	0.0745	119539	keystroke_Key.enter	Key.enter	n/a
59.848	8.428	119696	prompt	n/a	pipeline laptop performances crimes\n
60.699	0.18	121398	keystroke_p	p	n/a
60.834	0.105	121668	keystroke_i	i	n/a
61.074	0.09	122148	keystroke_p	p	n/a
61.179	0.075	122358	keystroke_e	e	n/a
61.314	0.195	122628	keystroke_l	l	n/a
61.419	0.165	122838	keystroke_i	i	n/a
61.494	0.135	122988	keystroke_n	n	n/a
61.569	0.0905	123138	keystroke_e	e	n/a
61.794	0.06	123588	keystroke_Key.space	Key.space	n/a
61.884	0.015	123768	keystroke_Key.space	Key.space	n/a
62.049	0.09	124098	keystroke_l	l	n/a
62.11	0.104	124220	keystroke_a	a	n/a
62.319	0.09	124638	keystroke_p	p	n/a
62.604	0.06	125208	keystroke_t	t	n/a
62.709	0.09	125418	keystroke_o	o	n/a
63.009	0.045	126018	keystroke_p	p	n/a
64.6595	0.1345	129319	keystroke_Key.space	Key.space	n/a
64.959	0.09	129918	keystroke_p	p	n/a
65.034	0.15	130068	keystroke_e	e	n/a
65.1395	0.0895	130279	keystroke_r	r	n/a
65.379	0.09	130758	keystroke_f	f	n/a
65.484	0.076	130968	keystroke_o	o	n/a
65.634	0.09	131268	keystroke_r	r	n/a
65.754	0.12	131508	keystroke_m	m	n/a
65.889	0.09	131778	keystroke_a	a	n/a
66.009	0.075	132018	keystroke_n	n	n/a
66.144	0.12	132288	keystroke_c	c	n/a
66.234	0.105	132468	keystroke_e	e	n/a
66.444	0.075	132888	keystroke_s	s	n/a
66.564	0.135	133128	keystroke_Key.space	Key.space	n/a
66.774	0.12	133548	keystroke_c	c	n/a
67.059	0.09	134118	keystroke_r	r	n/a
67.299	0.06	134598	keystroke_i	i	n/a
67.524	0.09	135048	keystroke_m	m	n/a
67.599	0.09	135198	keystroke_e	e	n/a
67.779	0.105	135558	keystroke_s	s	n/a
68.199	0.0755	136398	keystroke_Key.enter	Key.enter	n/a
68.2795	12.5355	136559	prompt	n/a	downloads animation educated previous\n
69.3245	0.1045	138649	keystroke_d	d	n/a
69.504	0.075	139008	keystroke_o	o	n/a
69.984	0.0755	139968	keystroke_e	e	n/a
70.659	0.06	141318	keystroke_w	w	n/a
70.9595	0.0595	141919	keystroke_Key.backspace	Key.backspace	n/a
71.124	0.075	142248	keystroke_Key.backspace	Key.backspace	n/a
71.214	0.075	142428	keystroke_w	w	n/a
71.829	0.12	143658	keystroke_n	n	n/a
72.1745	0.0895	144349	keystroke_l	l	n/a
72.414	0.0905	144828	keystroke_o	o	n/a
72.969	0.09	145938	keystroke_a	a	n/a
73.494	0.135	146988	keystroke_d	d	n/a
73.584	0.12	147168	keystroke_s	s	n/a
73.794	0.15	147588	keystroke_Key.space	Key.space	n/a
74.094	0.12	148188	keystroke_a	a	n/a
74.274	0.09	148548	keystroke_n	n	n/a
74.5895	0.0745	149179	keystroke_i	i	n/a
75.009	0.12	150018	keystroke_m	m	n/a
75.144	0.075	150288	keystroke_a	a	n/a
75.384	0.09	150768	keystroke_t	t	n/a
75.489	0.135	150978	keystroke_i	i	n/a
75.534	0.165	151068	keystroke_o	o	n/a
75.639	0.12	151278	keystroke_n	n	n/a
75.744	0.105	151488	keystroke_Key.space	Key.space	n/a
75.834	0.075	151668	keystroke_e	e	n/a
76.059	0.075	152118	keystroke_d	d	n/a
76.1795	0.0745	152359	keystroke_u	u	n/a
76.389	0.09	152778	keystroke_c	c	n/a
76.629	0.075	153258	keystroke_a	a	n/a
76.824	0.09	153648	keystroke_t	t	n/a
76.929	0.12	153858	keystroke_i	i	n/a
76.974	0.12	153948	keystroke_o	o	n/a
77.484	0.06	154968	keystroke_Key.backspace	Key.backspace	n/a
77.634	0.09	155268	keystroke_Key.backspace	Key.backspace	n/a
77.7095	0.0895	155419	keystroke_e	e	n/a
77.934	0.06	155868	keystroke_d	d	n/a
78.039	0.15	156078	keystroke_Key.space	Key.space	n/a
78.384	0.105	156768	keystroke_p	p	n/a
78.5495	0.1045	157099	keystroke_r	r	n/a
78.639	0.09	157278	keystroke_e	e	n/a
79.3745	0.1045	158749	keystroke_v	v	n/a
79.644	0.12	159288	keystroke_i	i	n/a
79.974	0.105	159948	keystroke_o	o	n/a
80.289	0.075	160578	keystroke_u	u	n/a
80.379	0.09	160758	keystroke_s	s	n/a
80.739	0.075	161478	keystroke_Key.enter	Key.enter	n/a
80.818	7.4225	161636	prompt	n/a	crown antique monitors managers\n
81.594	0.1355	163188	keystroke_c	c	n/a
81.909	0.075	163818	keystroke_r	r	n/a
82.059	0.075	164118	keystroke_o	o	n/a
82.254	0.09	164508	keystroke_w	w	n/a
82.434	0.12	164868	keystroke_n	n	n/a
82.689	0.105	165378	keystroke_Key.space	Key.space	n/a
83.0945	0.1495	166189	keystroke_a	a	n/a
83.259	0.09	166518	keystroke_n	n	n/a
83.484	0.105	166968	keystroke_t	t	n/a
83.799	0.09	167598	keystroke_i	i	n/a
84.234	0.105	168468	keystroke_q	q	n/a
84.399	0.06	168798	keystroke_u	u	n/a
84.489	0.09	168978	keystroke_e	e	n/a
84.8195	0.0895	169639	keystroke_Key.space	Key.space	n/a
85.0745	0.135	170149	keystroke_m	m	n/a
85.254	0.105	170508	keystroke_o	o	n/a
85.404	0.12	170808	keystroke_n	n	n/a
85.809	0.06	171618	keystroke_i	i	n/a
86.019	0.105	172038	keystroke_t	t	n/a
86.139	0.09	172278	keystroke_o	o	n/a
86.259	0.09	172518	keystroke_r	r	n/a
86.469	0.12	172938	keystroke_s	s	n/a
86.649	0.15	173298	keystroke_Key.space	Key.space	n/a
86.979	0.12	173958	keystroke_m	m	n/a
87.084	0.09	174168	keystroke_a	a	n/a
87.219	0.09	174438	keystroke_n	n	n/a
87.294	0.09	174588	keystroke_a	a	n/a
87.504	0.105	175008	keystroke_g	g	n/a
87.699	0.135	175398	keystroke_e	e	n/a
87.804	0.09	175608	keystroke_r	r	n/a
87.969	0.105	175938	keystroke_s	s	n/a
88.119	0.12	176238	keystroke_Key.enter	Key.enter	n/a
88.246	7.959	176492	prompt	n/a	generations spas vessels nurse\n
89.049	0.09	178098	keystroke_g	g	n/a
89.214	0.09	178428	keystroke_e	e	n/a
89.349	0.105	178698	keystroke_n	n	n/a
89.4245	0.1045	178849	keystroke_e	e	n/a
89.724	0.12	179448	keystroke_r	r	n/a
89.994	0.09	179988	keystroke_a	a	n/a
90.2495	0.0895	180499	keystroke_t	t	n/a
90.384	0.105	180768	keystroke_i	i	n/a
90.549	0.105	181098	keystroke_o	o	n/a
90.789	0.12	181578	keystroke_n	n	n/a
90.894	0.12	181788	keystroke_s	s	n/a
91.059	0.135	182118	keystroke_Key.space	Key.space	n/a
91.569	0.105	183138	keystroke_s	s	n/a
91.704	0.09	183408	keystroke_p	p	n/a
91.7795	0.0895	183559	keystroke_a	a	n/a
92.514	0.105	185028	keystroke_s	s	n/a
92.724	0.135	185448	keystroke_Key.space	Key.space	n/a
93.219	0.12	186438	keystroke_v	v	n/a
93.504	0.09	187008	keystroke_e	e	n/a
93.714	0.075	187428	keystroke_s	s	n/a
93.909	0.075	187818	keystroke_s	s	n/a
94.134	0.09	188268	keystroke_e	e	n/a
94.359	0.075	188718	keystroke_l	l	n/a
94.449	0.12	188898	keystroke_s	s	n/a
94.584	0.135	189168	keystroke_Key.space	Key.space	n/a
95.004	0.12	190008	keystroke_n	n	n/a
95.274	0.045	190548	keystroke_u	u	n/a
95.364	0.075	190728	keystroke_r	r	n/a
95.679	0.12	191358	keystroke_s	s	n/a
95.934	0.075	191868	keystroke_e	e	n/a
96.099	0.105	192198	keystroke_Key.enter	Key.enter	n/a
96.2095	5.486	192419	prompt	n/a	read lamp consists buying\n
97.104	0.1355	194208	keystroke_r	r	n/a
97.179	0.18	194358	keystroke_e	e	n/a
97.2995	0.1045	194599	keystroke_a	a	n/a
97.554	0.075	195108	keystroke_d	d	n/a
97.719	0.12	195438	keystroke_Key.space	Key.space	n/a
97.974	0.075	195948	keystroke_l	l	n/a
98.034	0.075	196068	keystroke_a	a	n/a
98.199	0.12	196398	keystroke_m	m	n/a
98.424	0.075	196848	keystroke_p	p	n/a
98.619	0.1055	197238	keystroke_Key.space	Key.space	n/a
98.874	0.1055	197748	keystroke_c	c	n/a
98.994	0.12	197988	keystroke_o	o	n/a
99.099	0.09	198198	keystroke_n	n	n/a
99.159	0.105	198318	keystroke_s	s	n/a
99.3695	0.06	198739	keystroke_i	i	n/a
99.444	0.105	198888	keystroke_s	s	n/a
99.774	0.09	199548	keystroke_t	t	n/a
99.969	0.09	199938	keystroke_s	s	n/a
100.075	0.1345	200150	keystroke_Key.space	Key.space	n/a
100.3595	0.0745	200719	keystroke_b	b	n/a
100.6895	0.0595	201379	keystroke_u	u	n/a
100.734	0.105	201468	keystroke_y	y	n/a
101.1095	0.1645	202219	keystroke_i	i	n/a
101.199	0.165	202398	keystroke_n	n	n/a
101.3795	0.0895	202759	keystroke_g	g	n/a
101.5745	0.1195	203149	keystroke_Key.enter	Key.enter	n/a
101.699	12.281	203398	prompt	n/a	contribution identified baptist britannica\n
102.489	0.165	204978	keystroke_c	c	n/a
102.639	0.18	205278	keystroke_o	o	n/a
102.744	0.135	205488	keystroke_n	n	n/a
102.894	0.105	205788	keystroke_t	t	n/a
102.9695	0.1045	205939	keystroke_r	r	n/a
103.1045	0.0745	206209	keystroke_i	i	n/a
103.329	0.09	206658	keystroke_b	b	n/a
103.569	0.09	207138	keystroke_u	u	n/a
103.7045	0.0895	207409	keystroke_t	t	n/a
103.809	0.18	207618	keystroke_i	i	n/a
103.884	0.15	207768	keystroke_o	o	n/a
104.0045	0.1045	208009	keystroke_n	n	n/a
104.259	0.135	208518	keystroke_Key.space	Key.space	n/a
104.619	0.06	209238	keystroke_i	i	n/a
104.709	0.09	209418	keystroke_d	d	n/a
104.934	0.06	209868	keystroke_e	e	n/a
105.039	0.0755	210078	keystroke_n	n	n/a
105.31	0.089	210620	keystroke_t	t	n/a
105.459	0.06	210918	keystroke_i	i	n/a
105.834	0.0605	211668	keystroke_f	f	n/a
106.284	0.075	212568	keystroke_i	i	n/a
106.4045	0.075	212809	keystroke_e	e	n/a
106.6445	0.0745	213289	keystroke_d	d	n/a
106.794	0.15	213588	keystroke_Key.space	Key.space	n/a
107.4095	0.0895	214819	keystroke_b	b	n/a
107.529	0.09	215058	keystroke_a	a	n/a
108.069	0.09	216138	keystroke_p	p	n/a
108.414	0.09	216828	keystroke_t	t	n/a
108.519	0.075	217038	keystroke_i	i	n/a
108.6395	0.1195	217279	keystroke_s	s	n/a
108.879	0.06	217758	keystroke_t	t	n/a
109.4045	0.1345	218809	keystroke_Key.space	Key.space	n/a
110.2905	0.0885	220581	keystroke_b	b	n/a
110.484	0.09	220968	keystroke_r	r	n/a
110.709	0.075	221418	keystroke_i	i	n/a
110.934	0.09	221868	keystroke_t	t	n/a
111.1295	0.0895	222259	keystroke_a	a	n/a
111.2495	0.0895	222499	keystroke_n	n	n/a
111.429	0.105	222858	keystroke_n	n	n/a
111.7295	0.045	223459	keystroke_i	i	n/a
111.8345	0.0295	223669	keystroke_i	i	n/a
113.139	0.09	226278	keystroke_Key.backspace	Key.backspace	n/a
113.3045	0.105	226609	keystroke_c	c	n/a
113.379	0.135	226758	keystroke_a	a	n/a
113.889	0.09	227778	keystroke_Key.enter	Key.enter	n/a
113.983	7.708	227966	prompt	n/a	pointed therapy joins authors\n
114.789	0.18	229578	keystroke_p	p	n/a
114.909	0.135	229818	keystroke_o	o	n/a
115.2395	0.1195	230479	keystroke_i	i	n/a
115.3445	0.12	230689	keystroke_n	n	n/a
115.509	0.12	231018	keystroke_t	t	n/a
115.614	0.135	231228	keystroke_e	e	n/a
115.914	0.105	231828	keystroke_d	d	n/a
116.079	0.15	232158	keystroke_Key.space	Key.space	n/a
116.4545	0.09	232909	keystroke_t	t	n/a
116.574	0.075	233148	keystroke_h	h	n/a
116.664	0.105	233328	keystroke_e	e	n/a
117.039	0.105	234078	keystroke_r	r	n/a
117.129	0.12	234258	keystroke_a	a	n/a
117.4595	0.0745	234919	keystroke_p	p	n/a
117.729	0.09	235458	keystroke_y	y	n/a
117.939	0.105	235878	keystroke_Key.space	Key.space	n/a
118.209	0.1355	236418	keystroke_j	j	n/a
118.359	0.21	236718	keystroke_o	o	n/a
118.464	0.1505	236928	keystroke_i	i	n/a
118.584	0.105	237168	keystroke_n	n	n/a
118.779	0.105	237558	keystroke_s	s	n/a
118.914	0.135	237828	keystroke_Key.space	Key.space	n/a
119.349	0.105	238698	keystroke_a	a	n/a
119.484	0.075	238968	keystroke_u	u	n/a
119.634	0.09	239268	keystroke_t	t	n/a
119.7695	0.045	239539	keystroke_o	o	n/a
120.1895	0.075	240379	keystroke_Key.backspace	Key.backspace	n/a
120.4745	0.0895	240949	keystroke_h	h	n/a
120.669	0.075	241338	keystroke_o	o	n/a
121.2695	0.0745	242539	keystroke_r	r	n/a
121.434	0.12	242868	keystroke_s	s	n/a
121.5845	0.105	243169	keystroke_Key.enter	Key.enter	n/a
121.695	9.91	243390	prompt	n/a	submission dash agriculture lamb\n
122.514	0.09	245028	keystroke_s	s	n/a
122.6645	0.1045	245329	keystroke_u	u	n/a
123.474	0.105	246948	keystroke_b	b	n/a
123.9545	0.09	247909	keystroke_m	m	n/a
124.1645	0.0595	248329	keystroke_i	i	n/a
124.254	0.09	248508	keystroke_s	s	n/a
124.449	0.0755	248898	keystroke_s	s	n/a
124.5395	0.1195	249079	keystroke_i	i	n/a
124.614	0.165	249228	keystroke_o	o	n/a
124.734	0.15	249468	keystroke_n	n	n/a
124.899	0.0905	249798	keystroke_Key.space	Key.space	n/a
125.229	0.105	250458	keystroke_d	d	n/a
125.409	0.1205	250818	keystroke_a	a	n/a
125.499	0.135	250998	keystroke_s	s	n/a
125.799	0.06	251598	keystroke_h	h	n/a
126.0695	0.1045	252139	keystroke_Key.space	Key.space	n/a
126.3995	0.1195	252799	keystroke_a	a	n/a
126.6545	0.0895	253309	keystroke_g	g	n/a
127.104	0.09	254208	keystroke_r	r	n/a
127.299	0.0605	254598	keystroke_i	i	n/a
127.614	0.1205	255228	keystroke_c	c	n/a
127.7795	0.0745	255559	keystroke_u	u	n/a
128.019	0.075	256038	keystroke_l	l	n/a
128.229	0.105	256458	keystroke_t	t	n/a
128.409	0.06	256818	keystroke_u	u	n/a
128.5145	0.1345	257029	keystroke_r	r	n/a
128.604	0.12	257208	keystroke_e	e	n/a
128.769	0.12	257538	keystroke_Key.space	Key.space	n/a
128.964	0.105	257928	keystroke_l	l	n/a
129.0245	0.1195	258049	keystroke_a	a	n/a
129.219	0.045	258438	keystroke_n	n	n/a
129.864	0.06	259728	keystroke_Key.backspace	Key.backspace	n/a
130.119	0.12	260238	keystroke_m	m	n/a
130.329	0.105	260658	keystroke_l	l	n/a
130.809	0.09	261618	keystroke_Key.backspace	Key.backspace	n/a
131.1245	0.0745	262249	keystroke_b	b	n/a
131.5145	0.0895	263029	keystroke_Key.enter	Key.enter	n/a
131.608	7.302	263216	prompt	n/a	essential developer strings strip\n
132.7895	0.0745	265579	keystroke_e	e	n/a
132.9845	0.0745	265969	keystroke_s	s	n/a
133.164	0.0755	266328	keystroke_s	s	n/a
133.33	0.0895	266660	keystroke_e	e	n/a
133.4945	0.1195	266989	keystroke_n	n	n/a
133.6295	0.0895	267259	keystroke_t	t	n/a
133.8405	0.0735	267681	keystroke_i	i	n/a
133.959	0.075	267918	keystroke_a	a	n/a
134.094	0.075	268188	keystroke_l	l	n/a
134.3345	0.1045	268669	keystroke_Key.space	Key.space	n/a
134.529	0.09	269058	keystroke_d	d	n/a
134.739	0.075	269478	keystroke_e	e	n/a
134.994	0.165	269988	keystroke_v	v	n/a
135.1445	0.1045	270289	keystroke_e	e	n/a
135.309	0.075	270618	keystroke_l	l	n/a
135.519	0.06	271038	keystroke_o	o	n/a
135.7295	0.075	271459	keystroke_p	p	n/a
135.804	0.15	271608	keystroke_e	e	n/a
135.909	0.09	271818	keystroke_r	r	n/a
136.104	0.105	272208	keystroke_Key.space	Key.space	n/a
136.254	0.0905	272508	keystroke_s	s	n/a
136.494	0.105	272988	keystroke_t	t	n/a
136.5695	0.121	273139	keystroke_r	r	n/a
136.689	0.165	273378	keystroke_i	i	n/a
136.8095	0.12	273619	keystroke_n	n	n/a
136.944	0.105	273888	keystroke_g	g	n/a
137.094	0.1205	274188	keystroke_s	s	n/a
137.3045	0.1345	274609	keystroke_Key.space	Key.space	n/a
137.709	0.1055	275418	keystroke_s	s	n/a
137.964	0.12	275928	keystroke_t	t	n/a
138.039	0.1515	276078	keystroke_r	r	n/a
138.3245	0.1045	276649	keystroke_i	i	n/a
138.519	0.12	277038	keystroke_p	p	n/a
138.8195	0.0895	277639	keystroke_Key.enter	Key.enter	n/a
138.9135	12.6275	277827	prompt	n/a	satisfy excluding condos someone's\n
139.9745	0.15	279949	keystroke_s	s	n/a
140.0795	0.1195	280159	keystroke_a	a	n/a
140.349	0.06	280698	keystroke_t	t	n/a
140.4995	0.075	280999	keystroke_i	i	n/a
140.6795	0.1045	281359	keystroke_s	s	n/a
141.1745	0.1195	282349	keystroke_f	f	n/a
141.7595	0.0745	283519	keystroke_y	y	n/a
142.1195	0.1195	284239	keystroke_Key.space	Key.space	n/a
142.764	0.1055	285528	keystroke_e	e	n/a
143.0495	0.0905	286099	keystroke_x	x	n/a
143.919	0.1505	287838	keystroke_c	c	n/a
144.264	0.2265	288528	keystroke_l	l	n/a
144.4445	0.1645	288889	keystroke_u	u	n/a
144.8795	0.1045	289759	keystroke_d	d	n/a
144.9995	0.1645	289999	keystroke_i	i	n/a
145.1195	0.1195	290239	keystroke_n	n	n/a
145.209	0.105	290418	keystroke_g	g	n/a
145.4195	0.0895	290839	keystroke_Key.space	Key.space	n/a
145.8695	0.135	291739	keystroke_c	c	n/a
145.9895	0.1495	291979	keystroke_o	o	n/a
146.1245	0.105	292249	keystroke_n	n	n/a
146.364	0.195	292728	keystroke_d	d	n/a
146.499	0.1355	292998	keystroke_s	s	n/a
146.9345	0.0745	293869	keystroke_Key.backspace	Key.backspace	n/a
147.2345	0.0745	294469	keystroke_o	o	n/a
147.294	0.105	294588	keystroke_s	s	n/a
147.5045	0.15	295009	keystroke_Key.space	Key.space	n/a
148.0145	0.09	296029	keystroke_s	s	n/a
148.119	0.09	296238	keystroke_o	o	n/a
148.3445	0.1195	296689	keystroke_m	m	n/a
148.8995	0.075	297799	keystroke_e	e	n/a
149.2745	0.15	298549	keystroke_o	o	n/a
149.3645	0.1345	298729	keystroke_n	n	n/a
149.4845	0.0905	298969	keystroke_e	e	n/a
150.0245	0.016	300049	keystroke_s	s	n/a
150.1445	0.09	300289	keystroke_'	'	n/a
151.4195	0.1205	302839	keystroke_Key.enter	Key.enter	n/a
151.5445	8.1255	303089	prompt	n/a	puppy batman reviews guardian\n
152.3495	0.12	304699	keystroke_p	p	n/a
152.6645	0.0895	305329	keystroke_u	u	n/a
152.89	0.0745	305780	keystroke_p	p	n/a
153.0545	0.075	306109	keystroke_p	p	n/a
153.34	0.0895	306680	keystroke_y	y	n/a
153.4145	0.09	306829	keystroke_Key.space	Key.space	n/a
153.7445	0.09	307489	keystroke_a	a	n/a
154.3145	0.06	308629	keystroke_Key.backspace	Key.backspace	n/a
154.584	0.0905	309168	keystroke_b	b	n/a
154.69	0.119	309380	keystroke_a	a	n/a
154.8695	0.1205	309739	keystroke_t	t	n/a
155.049	0.1055	310098	keystroke_m	m	n/a
155.1845	0.106	310369	keystroke_a	a	n/a
155.3045	0.0745	310609	keystroke_n	n	n/a
155.5145	0.09	311029	keystroke_Key.space	Key.space	n/a
155.7695	0.135	311539	keystroke_r	r	n/a
155.8595	0.12	311719	keystroke_e	e	n/a
156.1145	0.12	312229	keystroke_v	v	n/a
156.279	0.0755	312558	keystroke_i	i	n/a
156.5045	0.136	313009	keystroke_e	e	n/a
156.609	0.1055	313218	keystroke_w	w	n/a
156.8495	0.12	313699	keystroke_s	s	n/a
157.0145	0.135	314029	keystroke_Key.space	Key.space	n/a
157.2995	0.105	314599	keystroke_g	g	n/a
157.9745	0.075	315949	keystroke_u	u	n/a
158.0945	0.1195	316189	keystroke_a	a	n/a
158.3345	0.1055	316669	keystroke_r	r	n/a
158.8145	0.045	317629	keystroke_d	d	n/a
158.9195	0.09	317839	keystroke_i	i	n/a
159.0405	0.089	318081	keystroke_a	a	n/a
159.1595	0.09	318319	keystroke_n	n	n/a
159.579	0.0905	319158	keystroke_Key.enter	Key.enter	n/a
159.674	5.9365	319348	prompt	n/a	toronto soonest assign adaptive\n
160.4495	0.075	320899	keystroke_t	t	n/a
160.6745	0.09	321349	keystroke_o	o	n/a
160.7795	0.075	321559	keystroke_r	r	n/a
160.9295	0.09	321859	keystroke_o	o	n/a
161.1545	0.1045	322309	keystroke_n	n	n/a
161.3495	0.0905	322699	keystroke_t	t	n/a
161.4545	0.075	322909	keystroke_o	o	n/a
161.7245	0.135	323449	keystroke_Key.space	Key.space	n/a
161.9645	0.0895	323929	keystroke_s	s	n/a
162.1295	0.061	324259	keystroke_o	o	n/a
162.2795	0.09	324559	keystroke_o	o	n/a
162.444	0.1055	324888	keystroke_n	n	n/a
162.5495	0.0905	325099	keystroke_e	e	n/a
162.7445	0.075	325489	keystroke_s	s	n/a
162.94	0.0895	325880	keystroke_t	t	n/a
163.059	0.1505	326118	keystroke_Key.space	Key.space	n/a
163.1945	0.09	326389	keystroke_a	a	n/a
163.39	0.104	326780	keystroke_s	s	n/a
163.5695	0.09	327139	keystroke_s	s	n/a
163.7195	0.06	327439	keystroke_i	i	n/a
163.8545	0.09	327709	keystroke_g	g	n/a
163.9595	0.135	327919	keystroke_n	n	n/a
164.1545	0.12	328309	keystroke_Key.space	Key.space	n/a
164.3045	0.075	328609	keystroke_a	a	n/a
164.4995	0.135	328999	keystroke_d	d	n/a
164.6045	0.12	329209	keystroke_a	a	n/a
164.7845	0.09	329569	keystroke_p	p	n/a
164.9495	0.105	329899	keystroke_t	t	n/a
165.0995	0.06	330199	keystroke_i	i	n/a
165.2495	0.1045	330499	keystroke_v	v	n/a
165.3245	0.105	330649	keystroke_e	e	n/a
165.5045	0.105	331009	keystroke_Key.enter	Key.enter	n/a
165.6135	6.042	331227	prompt	n/a	face isolated replies space\n
166.6595	0.135	333319	keystroke_f	f	n/a
166.7345	0.135	333469	keystroke_a	a	n/a
166.9745	0.135	333949	keystroke_c	c	n/a
167.0645	0.12	334129	keystroke_e	e	n/a
167.2745	0.1505	334549	keystroke_Key.space	Key.space	n/a
167.5745	0.09	335149	keystroke_i	i	n/a
167.7245	0.105	335449	keystroke_s	s	n/a
167.8745	0.09	335749	keystroke_o	o	n/a
168.13	0.0745	336260	keystroke_l	l	n/a
168.2345	0.1055	336469	keystroke_a	a	n/a
168.5045	0.12	337009	keystroke_t	t	n/a
168.6095	0.075	337219	keystroke_e	e	n/a
168.8195	0.075	337639	keystroke_d	d	n/a
168.9545	0.1365	337909	keystroke_Key.space	Key.space	n/a
169.1945	0.12	338389	keystroke_r	r	n/a
169.2695	0.135	338539	keystroke_e	e	n/a
169.39	0.1195	338780	keystroke_p	p	n/a
169.7645	0.15	339529	keystroke_l	l	n/a
169.8845	0.106	339769	keystroke_i	i	n/a
170.0495	0.105	340099	keystroke_e	e	n/a
170.2445	0.09	340489	keystroke_s	s	n/a
170.4095	0.135	340819	keystroke_Key.space	Key.space	n/a
170.7845	0.09	341569	keystroke_s	s	n/a
170.8905	0.074	341781	keystroke_p	p	n/a
171.0245	0.09	342049	keystroke_a	a	n/a
171.2795	0.12	342559	keystroke_c	c	n/a
171.3545	0.12	342709	keystroke_e	e	n/a
171.5795	0.075	343159	keystroke_Key.enter	Key.enter	n/a
171.6585	7.062	343317	prompt	n/a	brave extract secure lens\n
172.6595	0.12	345319	keystroke_v	v	n/a
173.4695	0.075	346939	keystroke_Key.backspace	Key.backspace	n/a
173.8595	0.135	347719	keystroke_b	b	n/a
174.3245	0.135	348649	keystroke_r	r	n/a
174.4595	0.105	348919	keystroke_a	a	n/a
174.7445	0.15	349489	keystroke_v	v	n/a
174.8345	0.12	349669	keystroke_e	e	n/a
175.0745	0.15	350149	keystroke_Key.space	Key.space	n/a
175.2845	0.09	350569	keystroke_e	e	n/a
175.5545	0.1355	351109	keystroke_x	x	n/a
175.8695	0.15	351739	keystroke_t	t	n/a
175.99	0.1195	351980	keystroke_r	r	n/a
176.0495	0.15	352099	keystroke_a	a	n/a
176.2745	0.12	352549	keystroke_c	c	n/a
176.4995	0.0905	352999	keystroke_t	t	n/a
176.6795	0.135	353359	keystroke_Key.space	Key.space	n/a
176.9045	0.06	353809	keystroke_s	s	n/a
177.0845	0.075	354169	keystroke_e	e	n/a
177.2645	0.12	354529	keystroke_c	c	n/a
177.4445	0.06	354889	keystroke_u	u	n/a
177.5645	0.135	355129	keystroke_r	r	n/a
177.6545	0.12	355309	keystroke_e	e	n/a
177.8045	0.1355	355609	keystroke_Key.space	Key.space	n/a
178.1195	0.075	356239	keystroke_l	l	n/a
178.1795	0.09	356359	keystroke_e	e	n/a
178.3595	0.075	356719	keystroke_n	n	n/a
178.4495	0.105	356899	keystroke_s	s	n/a
178.6145	0.105	357229	keystroke_Key.enter	Key.enter	n/a
178.724	6.7025	357448	prompt	n/a	pace wedding enlargement wholesale\n
179.6795	0.075	359359	keystroke_p	p	n/a
179.7695	0.105	359539	keystroke_a	a	n/a
180.04	0.1045	360080	keystroke_c	c	n/a
180.0845	0.12	360169	keystroke_e	e	n/a
180.3695	0.135	360739	keystroke_Key.space	Key.space	n/a
180.5495	0.15	361099	keystroke_w	w	n/a
180.6545	0.1055	361309	keystroke_e	e	n/a
180.9695	0.075	361939	keystroke_d	d	n/a
181.1495	0.075	362299	keystroke_d	d	n/a
181.2695	0.1345	362539	keystroke_i	i	n/a
181.3295	0.165	362659	keystroke_n	n	n/a
181.4795	0.09	362959	keystroke_g	g	n/a
181.6595	0.105	363319	keystroke_Key.space	Key.space	n/a
181.8695	0.075	363739	keystroke_e	e	n/a
182.0045	0.09	364009	keystroke_n	n	n/a
182.2445	0.09	364489	keystroke_l	l	n/a
182.319	0.0905	364638	keystroke_a	a	n/a
182.5145	0.105	365029	keystroke_r	r	n/a
182.7545	0.105	365509	keystroke_g	g	n/a
182.7995	0.135	365599	keystroke_e	e	n/a
182.9795	0.105	365959	keystroke_m	m	n/a
183.0995	0.075	366199	keystroke_e	e	n/a
183.19	0.1045	366380	keystroke_n	n	n/a
183.3095	0.09	366619	keystroke_t	t	n/a
183.4145	0.12	366829	keystroke_Key.space	Key.space	n/a
183.7145	0.09	367429	keystroke_w	w	n/a
183.8345	0.15	367669	keystroke_h	h	n/a
183.941	0.1035	367882	keystroke_o	o	n/a
184.1945	0.06	368389	keystroke_l	l	n/a
184.4345	0.09	368869	keystroke_e	e	n/a
184.6745	0.12	369349	keystroke_s	s	n/a
184.9445	0.09	369889	keystroke_a	a	n/a
185.0645	0.09	370129	keystroke_l	l	n/a
185.1695	0.09	370339	keystroke_e	e	n/a
185.3495	0.0755	370699	keystroke_Key.enter	Key.enter	n/a
185.431	8.7845	370862	prompt	n/a	gimme biological third horizon\n
186.7445	0.12	373489	keystroke_f	f	n/a
187.4495	0.0905	374899	keystroke_Key.backspace	Key.backspace	n/a
187.6145	0.105	375229	keystroke_g	g	n/a
187.8095	0.09	375619	keystroke_i	i	n/a
188.0945	0.105	376189	keystroke_m	m	n/a
188.2745	0.105	376549	keystroke_m	m	n/a
188.3495	0.091	376699	keystroke_e	e	n/a
188.5595	0.105	377119	keystroke_Key.space	Key.space	n/a
188.7845	0.09	377569	keystroke_b	b	n/a
189.19	0.15	378380	keystroke_i	i	n/a
189.3245	0.105	378649	keystroke_o	o	n/a
189.5795	0.075	379159	keystroke_l	l	n/a
189.79	0.0745	379580	keystroke_o	o	n/a
189.94	0.1195	379880	keystroke_g	g	n/a
190.09	0.0895	380180	keystroke_i	i	n/a
190.3745	0.12	380749	keystroke_c	c	n/a
190.4645	0.135	380929	keystroke_a	a	n/a
190.5845	0.075	381169	keystroke_l	l	n/a
190.7645	0.06	381529	keystroke_l	l	n/a
191.3795	0.0605	382759	keystroke_Key.backspace	Key.backspace	n/a
191.59	0.1045	383180	keystroke_Key.space	Key.space	n/a
191.8745	0.105	383749	keystroke_t	t	n/a
191.9645	0.09	383929	keystroke_h	h	n/a
192.1445	0.075	384289	keystroke_i	i	n/a
192.2645	0.09	384529	keystroke_r	r	n/a
192.5645	0.105	385129	keystroke_d	d	n/a
192.7295	0.135	385459	keystroke_Key.space	Key.space	n/a
192.9545	0.09	385909	keystroke_h	h	n/a
193.1045	0.12	386209	keystroke_o	o	n/a
193.2095	0.09	386419	keystroke_r	r	n/a
193.4045	0.075	386809	keystroke_i	i	n/a
193.6145	0.15	387229	keystroke_z	z	n/a
193.7495	0.18	387499	keystroke_o	o	n/a
193.8545	0.165	387709	keystroke_n	n	n/a
194.1095	0.105	388219	keystroke_Key.enter	Key.enter	n/a
194.2185	8.0225	388437	prompt	n/a	equally soviet books middle\n
195.1145	0.105	390229	keystroke_e	e	n/a
195.2945	0.12	390589	keystroke_q	q	n/a
195.6095	0.105	391219	keystroke_u	u	n/a
195.7445	0.105	391489	keystroke_a	a	n/a
195.8645	0.06	391729	keystroke_l	l	n/a
196.0295	0.075	392059	keystroke_l	l	n/a
196.3595	0.105	392719	keystroke_t	t	n/a
196.9595	0.075	393919	keystroke_Key.backspace	Key.backspace	n/a
197.2445	0.09	394489	keystroke_y	y	n/a
197.4545	0.105	394909	keystroke_Key.space	Key.space	n/a
197.7545	0.105	395509	keystroke_s	s	n/a
197.8745	0.06	395749	keystroke_o	o	n/a
198.1595	0.12	396319	keystroke_v	v	n/a
198.4145	0.06	396829	keystroke_i	i	n/a
198.7445	0.075	397489	keystroke_e	e	n/a
199.0295	0.105	398059	keystroke_t	t	n/a
199.3445	0.12	398689	keystroke_Key.space	Key.space	n/a
199.69	0.0745	399380	keystroke_b	b	n/a
199.8995	0.06	399799	keystroke_o	o	n/a
200.0645	0.12	400129	keystroke_o	o	n/a
200.141	0.1785	400282	keystroke_k	k	n/a
200.335	0.0895	400670	keystroke_s	s	n/a
200.44	0.1345	400880	keystroke_Key.space	Key.space	n/a
200.7545	0.105	401509	keystroke_m	m	n/a
200.9795	0.075	401959	keystroke_i	i	n/a
201.2645	0.0755	402529	keystroke_d	d	n/a
201.4295	0.09	402859	keystroke_d	d	n/a
201.6695	0.105	403339	keystroke_l	l	n/a
201.8945	0.075	403789	keystroke_e	e	n/a
202.135	0.105	404270	keystroke_Key.enter	Key.enter	n/a
202.244	8.8615	404488	prompt	n/a	summaries career thunder valves\n
203.275	0.1045	406550	keystroke_s	s	n/a
203.4095	0.075	406819	keystroke_u	u	n/a
203.6795	0.075	407359	keystroke_m	m	n/a
203.8445	0.09	407689	keystroke_m	m	n/a
203.92	0.1495	407840	keystroke_a	a	n/a
204.0545	0.105	408109	keystroke_r	r	n/a
204.19	0.0595	408380	keystroke_i	i	n/a
204.2795	0.105	408559	keystroke_e	e	n/a
204.4595	0.12	408919	keystroke_s	s	n/a
204.6095	0.135	409219	keystroke_Key.space	Key.space	n/a
205.4195	0.18	410839	keystroke_c	c	n/a
205.5545	0.1355	411109	keystroke_a	a	n/a
205.8545	0.09	411709	keystroke_r	r	n/a
206.0945	0.105	412189	keystroke_e	e	n/a
206.2745	0.1055	412549	keystroke_e	e	n/a
206.4095	0.135	412819	keystroke_r	r	n/a
206.6045	0.15	413209	keystroke_Key.space	Key.space	n/a
206.7845	0.09	413569	keystroke_t	t	n/a
206.89	0.0895	413780	keystroke_h	h	n/a
207.2045	0.105	414409	keystroke_u	u	n/a
207.5195	0.09	415039	keystroke_n	n	n/a
208.0295	0.09	416059	keystroke_d	d	n/a
208.285	0.1495	416570	keystroke_e	e	n/a
208.39	0.1045	416780	keystroke_r	r	n/a
208.5695	0.15	417139	keystroke_Key.space	Key.space	n/a
208.9445	0.12	417889	keystroke_c	c	n/a
209.5595	0.0755	419119	keystroke_Key.backspace	Key.backspace	n/a
209.6345	0.12	419269	keystroke_v	v	n/a
209.8595	0.09	419719	keystroke_a	a	n/a
209.9645	0.09	419929	keystroke_l	l	n/a
210.4445	0.015	420889	keystroke_v	v	n/a
210.4745	0.09	420949	keystroke_e	e	n/a
210.8195	0.105	421639	keystroke_s	s	n/a
210.9995	0.105	421999	keystroke_Key.enter	Key.enter	n/a
211.1085	8.3825	422217	prompt	n/a	lease separation dover resident\n
211.8845	0.075	423769	keystroke_l	l	n/a
211.9445	0.165	423889	keystroke_e	e	n/a
212.0495	0.15	424099	keystroke_a	a	n/a
212.2745	0.105	424549	keystroke_s	s	n/a
212.4845	0.09	424969	keystroke_e	e	n/a
212.6345	0.12	425269	keystroke_Key.space	Key.space	n/a
212.7695	0.1205	425539	keystroke_s	s	n/a
212.9795	0.075	425959	keystroke_p	p	n/a
213.04	0.15	426080	keystroke_e	e	n/a
213.2045	0.1055	426409	keystroke_a	a	n/a
213.4595	0.15	426919	keystroke_r	r	n/a
213.5945	0.105	427189	keystroke_a	a	n/a
214.0295	0.045	428059	keystroke_Key.backspace	Key.backspace	n/a
214.1945	0.03	428389	keystroke_Key.backspace	Key.backspace	n/a
214.3295	0.0605	428659	keystroke_Key.backspace	Key.backspace	n/a
214.4945	0.06	428989	keystroke_Key.backspace	Key.backspace	n/a
214.6445	0.075	429289	keystroke_Key.backspace	Key.backspace	n/a
214.8095	0.09	429619	keystroke_e	e	n/a
215.29	0.1195	430580	keystroke_p	p	n/a
215.4695	0.105	430939	keystroke_a	a	n/a
215.7995	0.12	431599	keystroke_r	r	n/a
215.89	0.1195	431780	keystroke_a	a	n/a
216.1295	0.105	432259	keystroke_t	t	n/a
216.2495	0.165	432499	keystroke_i	i	n/a
216.2795	0.165	432559	keystroke_o	o	n/a
216.3995	0.15	432799	keystroke_n	n	n/a
216.5195	0.1055	433039	keystroke_Key.space	Key.space	n/a
216.8195	0.075	433639	keystroke_d	d	n/a
216.94	0.0895	433880	keystroke_o	o	n/a
217.1045	0.1355	434209	keystroke_v	v	n/a
217.4045	0.1355	434809	keystroke_e	e	n/a
217.4945	0.12	434989	keystroke_r	r	n/a
217.7195	0.135	435439	keystroke_Key.space	Key.space	n/a
218.1245	0.075	436249	keystroke_r	r	n/a
218.1695	0.1205	436339	keystroke_e	e	n/a
218.4095	0.12	436819	keystroke_s	s	n/a
218.5595	0.075	437119	keystroke_i	i	n/a
218.7545	0.105	437509	keystroke_d	d	n/a
218.9795	0.075	437959	keystroke_e	e	n/a
219.0695	0.105	438139	keystroke_n	n	n/a
219.19	0.0895	438380	keystroke_t	t	n/a
219.3845	0.1055	438769	keystroke_Key.enter	Key.enter	n/a
219.494	8.7415	438988	prompt	n/a	actions images collector edinburgh\n
220.2545	0.15	440509	keystroke_a	a	n/a
220.375	0.1345	440750	keystroke_c	c	n/a
220.69	0.0745	441380	keystroke_t	t	n/a
220.7795	0.135	441559	keystroke_i	i	n/a
220.84	0.1645	441680	keystroke_o	o	n/a
220.9295	0.15	441859	keystroke_n	n	n/a
221.0345	0.1055	442069	keystroke_s	s	n/a
221.1845	0.12	442369	keystroke_Key.space	Key.space	n/a
221.3795	0.15	442759	keystroke_i	i	n/a
221.44	0.1345	442880	keystroke_m	m	n/a
221.5145	0.105	443029	keystroke_a	a	n/a
221.7245	0.105	443449	keystroke_g	g	n/a
221.7695	0.1205	443539	keystroke_e	e	n/a
221.935	0.0895	443870	keystroke_s	s	n/a
222.0545	0.12	444109	keystroke_Key.space	Key.space	n/a
222.2195	0.1215	444439	keystroke_c	c	n/a
222.2945	0.09	444589	keystroke_o	o	n/a
222.5345	0.06	445069	keystroke_l	l	n/a
222.7595	0.031	445519	keystroke_l	l	n/a
222.7745	0.06	445549	keystroke_e	e	n/a
223.0145	0.12	446029	keystroke_c	c	n/a
223.2995	0.0905	446599	keystroke_t	t	n/a
223.4345	0.075	446869	keystroke_o	o	n/a
223.8245	0.105	447649	keystroke_r	r	n/a
224.1095	0.135	448219	keystroke_Key.space	Key.space	n/a
224.3195	0.09	448639	keystroke_e	e	n/a
224.5595	0.12	449119	keystroke_d	d	n/a
224.7545	0.075	449509	keystroke_i	i	n/a
225.0095	0.09	450019	keystroke_n	n	n/a
225.3995	0.075	450799	keystroke_b	b	n/a
225.8045	0.06	451609	keystroke_u	u	n/a
226.1945	0.075	452389	keystroke_r	r	n/a
226.5245	0.105	453049	keystroke_g	g	n/a
226.9595	0.105	453919	keystroke_h	h	n/a
228.1145	0.12	456229	keystroke_Key.enter	Key.enter	n/a
228.2385	10.0025	456477	prompt	n/a	speeds hierarchy specific median\n
231.1145	0.105	462229	keystroke_s	s	n/a
231.3845	0.09	462769	keystroke_e	e	n/a
232.2095	0.06	464419	keystroke_Key.backspace	Key.backspace	n/a
232.5545	0.075	465109	keystroke_p	p	n/a
232.6745	0.06	465349	keystroke_e	e	n/a
232.8245	0.075	465649	keystroke_e	e	n/a
233.0345	0.15	466069	keystroke_d	d	n/a
233.1395	0.105	466279	keystroke_s	s	n/a
233.2595	0.12	466519	keystroke_Key.space	Key.space	n/a
233.5295	0.09	467059	keystroke_h	h	n/a
233.7995	0.06	467599	keystroke_i	i	n/a
233.9045	0.1355	467809	keystroke_e	e	n/a
234.0095	0.105	468019	keystroke_r	r	n/a
234.1745	0.12	468349	keystroke_a	a	n/a
234.3995	0.12	468799	keystroke_r	r	n/a
234.6845	0.12	469369	keystroke_c	c	n/a
234.835	0.0745	469670	keystroke_h	h	n/a
235.0745	0.075	470149	keystroke_y	y	n/a
235.2695	0.075	470539	keystroke_Key.space	Key.space	n/a
235.3745	0.105	470749	keystroke_s	s	n/a
235.5095	0.09	471019	keystroke_p	p	n/a
235.6295	0.09	471259	keystroke_e	e	n/a
235.8695	0.135	471739	keystroke_c	c	n/a
236.0495	0.075	472099	keystroke_i	i	n/a
236.2445	0.0455	472489	keystroke_f	f	n/a
236.3195	0.09	472639	keystroke_i	i	n/a
236.5445	0.105	473089	keystroke_c	c	n/a
236.7695	0.105	473539	keystroke_Key.space	Key.space	n/a
237.3095	0.075	474619	keystroke_m	m	n/a
237.3695	0.075	474739	keystroke_e	e	n/a
237.5795	0.105	475159	keystroke_d	d	n/a
237.6995	0.06	475399	keystroke_i	i	n/a
237.79	0.1045	475580	keystroke_a	a	n/a
237.9095	0.09	475819	keystroke_n	n	n/a
238.1795	0.0605	476359	keystroke_Key.enter	Key.enter	n/a
238.244	10.0765	476488	prompt	n/a	appointed brother postposted quickly\n
239.1995	0.0905	478399	keystroke_a	a	n/a
239.3795	0.03	478759	keystroke_p	p	n/a
239.5145	0.12	479029	keystroke_p	p	n/a
240.19	0.1045	480380	keystroke_i	i	n/a
240.8045	0.075	481609	keystroke_Key.backspace	Key.backspace	n/a
241.1645	0.0605	482329	keystroke_o	o	n/a
241.4645	0.165	482929	keystroke_i	i	n/a
241.57	0.1645	483140	keystroke_n	n	n/a
241.8545	0.09	483709	keystroke_t	t	n/a
241.9295	0.09	483859	keystroke_e	e	n/a
242.1545	0.09	484309	keystroke_d	d	n/a
242.2745	0.12	484549	keystroke_Key.space	Key.space	n/a
242.5445	0.09	485089	keystroke_b	b	n/a
243.1445	0.09	486289	keystroke_r	r	n/a
243.2945	0.105	486589	keystroke_o	o	n/a
243.4445	0.09	486889	keystroke_t	t	n/a
243.5795	0.045	487159	keystroke_h	h	n/a
243.64	0.1645	487280	keystroke_e	e	n/a
243.7445	0.12	487489	keystroke_r	r	n/a
243.8945	0.135	487789	keystroke_Key.space	Key.space	n/a
244.2095	0.1805	488419	keystroke_p	p	n/a
244.3295	0.12	488659	keystroke_o	o	n/a
244.4795	0.105	488959	keystroke_s	s	n/a
245.1095	0.09	490219	keystroke_t	t	n/a
245.3495	0.15	490699	keystroke_p	p	n/a
245.44	0.1045	490880	keystroke_o	o	n/a
245.6945	0.09	491389	keystroke_n	n	n/a
245.7545	0.12	491509	keystroke_e	e	n/a
246.0095	0.12	492019	keystroke_d	d	n/a
246.1595	0.12	492319	keystroke_Key.space	Key.space	n/a
246.505	0.1045	493010	keystroke_q	q	n/a
246.6245	0.135	493249	keystroke_u	u	n/a
246.7445	0.075	493489	keystroke_i	i	n/a
247.1645	0.12	494329	keystroke_c	c	n/a
247.3595	0.105	494719	keystroke_k	k	n/a
247.6	0.0745	495200	keystroke_l	l	n/a
247.9295	0.075	495859	keystroke_y	y	n/a
248.2595	0.06	496519	keystroke_Key.enter	Key.enter	n/a
248.3235	10.347	496647	prompt	n/a	abraham lookup depending hunger\n
249.13	0.1045	498260	keystroke_a	a	n/a
249.3695	0.075	498739	keystroke_b	b	n/a
249.6245	0.09	499249	keystroke_r	r	n/a
249.9245	0.12	499849	keystroke_a	a	n/a
250.4195	0.09	500839	keystroke_h	h	n/a
250.5695	0.09	501139	keystroke_a	a	n/a
250.7945	0.12	501589	keystroke_m	m	n/a
251.0795	0.12	502159	keystroke_Key.space	Key.space	n/a
251.4545	0.06	502909	keystroke_l	l	n/a
251.6645	0.0755	503329	keystroke_o	o	n/a
251.8295	0.09	503659	keystroke_o	o	n/a
252.0245	0.12	504049	keystroke_k	k	n/a
252.64	0.0595	505280	keystroke_i	i	n/a
252.9695	0.09	505939	keystroke_p	p	n/a
253.4345	0.075	506869	keystroke_Key.backspace	Key.backspace	n/a
253.5845	0.075	507169	keystroke_Key.backspace	Key.backspace	n/a
253.8545	0.12	507709	keystroke_i	i	n/a
254.6345	0.09	509269	keystroke_Key.backspace	Key.backspace	n/a
255.025	0.0745	510050	keystroke_u	u	n/a
255.2345	0.075	510469	keystroke_p	p	n/a
255.5195	0.15	511039	keystroke_Key.space	Key.space	n/a
255.941	0.0885	511882	keystroke_d	d	n/a
256.1495	0.0905	512299	keystroke_e	e	n/a
256.2545	0.075	512509	keystroke_p	p	n/a
256.3745	0.09	512749	keystroke_e	e	n/a
256.4945	0.075	512989	keystroke_n	n	n/a
256.5995	0.135	513199	keystroke_d	d	n/a
256.7495	0.15	513499	keystroke_i	i	n/a
256.8545	0.12	513709	keystroke_n	n	n/a
256.99	0.0745	513980	keystroke_g	g	n/a
257.1245	0.12	514249	keystroke_Key.space	Key.space	n/a
257.5295	0.135	515059	keystroke_h	h	n/a
257.6795	0.105	515359	keystroke_u	u	n/a
257.9195	0.09	515839	keystroke_n	n	n/a
258.0545	0.105	516109	keystroke_g	g	n/a
258.2645	0.15	516529	keystroke_e	e	n/a
258.3695	0.105	516739	keystroke_r	r	n/a
258.5645	0.105	517129	keystroke_Key.enter	Key.enter	n/a
258.674	4.6015	517348	prompt	n/a	county kids town cloud\n
259.5245	0.15	519049	keystroke_c	c	n/a
259.6895	0.09	519379	keystroke_o	o	n/a
259.7495	0.09	519499	keystroke_u	u	n/a
259.9445	0.09	519889	keystroke_n	n	n/a
260.0645	0.09	520129	keystroke_t	t	n/a
260.2295	0.12	520459	keystroke_y	y	n/a
260.3495	0.0755	520699	keystroke_Key.space	Key.space	n/a
260.5595	0.09	521119	keystroke_k	k	n/a
260.7845	0.0605	521569	keystroke_i	i	n/a
260.8445	0.165	521689	keystroke_d	d	n/a
260.9645	0.12	521929	keystroke_s	s	n/a
261.0995	0.12	522199	keystroke_Key.space	Key.space	n/a
261.3395	0.09	522679	keystroke_t	t	n/a
261.4745	0.075	522949	keystroke_o	o	n/a
261.5795	0.105	523159	keystroke_w	w	n/a
261.7295	0.105	523459	keystroke_n	n	n/a
261.8945	0.135	523789	keystroke_Key.space	Key.space	n/a
262.3445	0.105	524689	keystroke_c	c	n/a
262.4945	0.075	524989	keystroke_l	l	n/a
262.69	0.15	525380	keystroke_o	o	n/a
262.7945	0.105	525589	keystroke_u	u	n/a
263.0045	0.09	526009	keystroke_d	d	n/a
263.1545	0.12	526309	keystroke_Key.enter	Key.enter	n/a
263.2785	10.077	526557	prompt	n/a	cheap analyst zshops james\n
264.295	0.1045	528590	keystroke_c	c	n/a
264.4295	0.075	528859	keystroke_h	h	n/a
264.7605	0.149	529521	keystroke_e	e	n/a
264.8345	0.135	529669	keystroke_a	a	n/a
265.0595	0.075	530119	keystroke_p	p	n/a
265.2845	0.135	530569	keystroke_Key.space	Key.space	n/a
265.4645	0.09	530929	keystroke_a	a	n/a
265.5695	0.09	531139	keystroke_n	n	n/a
265.6895	0.09	531379	keystroke_a	a	n/a
266.1095	0.09	532219	keystroke_y	y	n/a
266.8295	0.0455	533659	keystroke_Key.backspace	Key.backspace	n/a
267.2195	0.105	534439	keystroke_l	l	n/a
267.5645	0.12	535129	keystroke_y	y	n/a
267.8195	0.075	535639	keystroke_s	s	n/a
268.1645	0.09	536329	keystroke_t	t	n/a
268.3595	0.135	536719	keystroke_Key.space	Key.space	n/a
268.9145	0.135	537829	keystroke_z	z	n/a
269.4095	0.075	538819	keystroke_s	s	n/a
269.5445	0.105	539089	keystroke_h	h	n/a
270.2195	0.15	540439	keystroke_o	o	n/a
270.31	0.1345	540620	keystroke_p	p	n/a
270.5645	0.075	541129	keystroke_s	s	n/a
270.8645	0.135	541729	keystroke_Key.space	Key.space	n/a
271.4045	0.12	542809	keystroke_j	j	n/a
271.8245	0.1205	543649	keystroke_a	a	n/a
272.1995	0.105	544399	keystroke_e	e	n/a
272.6045	0.075	545209	keystroke_Key.backspace	Key.backspace	n/a
272.845	0.1195	545690	keystroke_m	m	n/a
272.9495	0.0905	545899	keystroke_e	e	n/a
273.1445	0.105	546289	keystroke_s	s	n/a
273.2645	0.09	546529	keystroke_Key.enter	Key.enter	n/a
273.3585	9.372	546717	prompt	n/a	beth converter developments providing\n
274.9145	0.075	549829	keystroke_b	b	n/a
275.1845	0.105	550369	keystroke_e	e	n/a
275.455	0.0745	550910	keystroke_t	t	n/a
275.5445	0.075	551089	keystroke_h	h	n/a
275.785	0.1195	551570	keystroke_Key.space	Key.space	n/a
275.8295	0.105	551659	keystroke_c	c	n/a
276.3095	0.135	552619	keystroke_o	o	n/a
276.3695	0.15	552739	keystroke_n	n	n/a
276.6695	0.15	553339	keystroke_v	v	n/a
276.9695	0.15	553939	keystroke_e	e	n/a
277.0595	0.12	554119	keystroke_r	r	n/a
277.2995	0.105	554599	keystroke_t	t	n/a
277.3745	0.195	554749	keystroke_e	e	n/a
277.4945	0.12	554989	keystroke_r	r	n/a
277.7045	0.12	555409	keystroke_Key.space	Key.space	n/a
278.0645	0.105	556129	keystroke_d	d	n/a
278.29	0.0895	556580	keystroke_e	e	n/a
278.7095	0.12	557419	keystroke_v	v	n/a
278.8745	0.12	557749	keystroke_e	e	n/a
279.0395	0.075	558079	keystroke_l	l	n/a
279.2495	0.075	558499	keystroke_o	o	n/a
279.4595	0.075	558919	keystroke_p	p	n/a
279.7295	0.09	559459	keystroke_m	m	n/a
279.8495	0.09	559699	keystroke_e	e	n/a
279.94	0.0895	559880	keystroke_n	n	n/a
280.0595	0.105	560119	keystroke_t	t	n/a
280.2245	0.12	560449	keystroke_s	s	n/a
280.39	0.1045	560780	keystroke_Key.space	Key.space	n/a
280.885	0.06	561770	keystroke_p	p	n/a
280.9745	0.105	561949	keystroke_r	r	n/a
281.1095	0.075	562219	keystroke_o	o	n/a
281.4845	0.1055	562969	keystroke_v	v	n/a
281.6945	0.075	563389	keystroke_i	i	n/a
281.9945	0.075	563989	keystroke_d	d	n/a
282.1295	0.06	564259	keystroke_i	i	n/a
282.3545	0.075	564709	keystroke_n	n	n/a
282.4895	0.075	564979	keystroke_g	g	n/a
282.6395	0.09	565279	keystroke_Key.enter	Key.enter	n/a
282.7335	6.147	565467	prompt	n/a	already lance hawk weird\n
283.4345	0.09	566869	keystroke_a	a	n/a
283.5395	0.09	567079	keystroke_l	l	n/a
283.8095	0.105	567619	keystroke_r	r	n/a
284.0045	0.09	568009	keystroke_e	e	n/a
284.1545	0.135	568309	keystroke_a	a	n/a
284.3945	0.105	568789	keystroke_d	d	n/a
284.5595	0.09	569119	keystroke_y	y	n/a
284.7545	0.09	569509	keystroke_Key.space	Key.space	n/a
284.9945	0.0755	569989	keystroke_l	l	n/a
285.0695	0.12	570139	keystroke_a	a	n/a
285.2195	0.09	570439	keystroke_n	n	n/a
285.4445	0.15	570889	keystroke_c	c	n/a
285.5345	0.135	571069	keystroke_e	e	n/a
285.7745	0.105	571549	keystroke_Key.space	Key.space	n/a
286.0295	0.075	572059	keystroke_h	h	n/a
286.1195	0.09	572239	keystroke_a	a	n/a
286.3145	0.075	572629	keystroke_w	w	n/a
286.7645	0.075	573529	keystroke_k	k	n/a
287.1095	0.09	574219	keystroke_Key.space	Key.space	n/a
287.6645	0.09	575329	keystroke_w	w	n/a
287.8895	0.12	575779	keystroke_e	e	n/a
288.1445	0.06	576289	keystroke_i	i	n/a
288.3845	0.09	576769	keystroke_r	r	n/a
288.5945	0.135	577189	keystroke_d	d	n/a
288.7745	0.105	577549	keystroke_Key.enter	Key.enter	n/a
288.8835	7.827	577767	prompt	n/a	pressed keyboards specialty appear\n
289.7345	0.06	579469	keystroke_p	p	n/a
289.9295	0.12	579859	keystroke_r	r	n/a
290.0345	0.105	580069	keystroke_e	e	n/a
290.2595	0.09	580519	keystroke_s	s	n/a
290.4395	0.09	580879	keystroke_s	s	n/a
290.6795	0.075	581359	keystroke_e	e	n/a
290.8745	0.1205	581749	keystroke_d	d	n/a
290.995	0.1045	581990	keystroke_Key.space	Key.space	n/a
291.1595	0.12	582319	keystroke_k	k	n/a
291.2645	0.105	582529	keystroke_e	e	n/a
291.4745	0.09	582949	keystroke_y	y	n/a
291.7145	0.075	583429	keystroke_b	b	n/a
291.9395	0.075	583879	keystroke_o	o	n/a
292.2245	0.12	584449	keystroke_a	a	n/a
292.4795	0.075	584959	keystroke_r	r	n/a
292.675	0.0895	585350	keystroke_d	d	n/a
292.8995	0.0905	585799	keystroke_s	s	n/a
293.0945	0.12	586189	keystroke_Key.space	Key.space	n/a
293.44	0.0895	586880	keystroke_s	s	n/a
293.5145	0.075	587029	keystroke_p	p	n/a
293.71	0.0895	587420	keystroke_e	e	n/a
294.0095	0.135	588019	keystroke_c	c	n/a
294.1745	0.06	588349	keystroke_i	i	n/a
294.2945	0.09	588589	keystroke_a	a	n/a
294.3995	0.09	588799	keystroke_l	l	n/a
294.7295	0.09	589459	keystroke_t	t	n/a
294.955	0.1045	589910	keystroke_y	y	n/a
295.2095	0.09	590419	keystroke_Key.space	Key.space	n/a
295.4945	0.09	590989	keystroke_a	a	n/a
295.6145	0.0755	591229	keystroke_p	p	n/a
295.7645	0.09	591529	keystroke_p	p	n/a
295.9745	0.1655	591949	keystroke_e	e	n/a
296.1095	0.09	592219	keystroke_a	a	n/a
296.4395	0.09	592879	keystroke_r	r	n/a
296.6045	0.105	593209	keystroke_Key.enter	Key.enter	n/a
296.715	9.011	593430	prompt	n/a	motorola how'd latinas existence\n
297.46	0.1495	594920	keystroke_m	m	n/a
297.7445	0.075	595489	keystroke_o	o	n/a
297.8945	0.09	595789	keystroke_t	t	n/a
297.9995	0.0905	595999	keystroke_o	o	n/a
298.3145	0.105	596629	keystroke_r	r	n/a
298.5245	0.09	597049	keystroke_o	o	n/a
298.8095	0.0605	597619	keystroke_l	l	n/a
298.8995	0.1055	597799	keystroke_a	a	n/a
299.2295	0.0905	598459	keystroke_Key.space	Key.space	n/a
299.4695	0.075	598939	keystroke_h	h	n/a
299.605	0.105	599210	keystroke_o	o	n/a
299.7545	0.0755	599509	keystroke_w	w	n/a
300.265	0.0595	600530	keystroke_Key.backspace	Key.backspace	n/a
300.6245	0.075	601249	keystroke_w	w	n/a
301.255	0.0745	602510	keystroke_'	'	n/a
301.4195	0.12	602839	keystroke_s	s	n/a
301.9145	0.12	603829	keystroke_Key.space	Key.space	n/a
302.2445	0.1055	604489	keystroke_l	l	n/a
302.3495	0.09	604699	keystroke_a	a	n/a
302.6795	0.0905	605359	keystroke_t	t	n/a
302.7695	0.045	605539	keystroke_i	i	n/a
302.9645	0.076	605929	keystroke_n	n	n/a
303.0695	0.105	606139	keystroke_a	a	n/a
303.31	0.1195	606620	keystroke_s	s	n/a
303.4745	0.09	606949	keystroke_Key.space	Key.space	n/a
303.6095	0.09	607219	keystroke_e	e	n/a
303.8795	0.12	607759	keystroke_x	x	n/a
304.1045	0.06	608209	keystroke_i	i	n/a
304.2845	0.1055	608569	keystroke_s	s	n/a
304.5695	0.075	609139	keystroke_t	t	n/a
304.8245	0.105	609649	keystroke_e	e	n/a
305.1245	0.105	610249	keystroke_n	n	n/a
305.305	0.135	610610	keystroke_c	c	n/a
305.395	0.1195	610790	keystroke_e	e	n/a
305.6195	0.1055	611239	keystroke_Key.enter	Key.enter	n/a
305.7285	6.507	611457	prompt	n/a	polymer version otherwise boundary\n
306.4895	0.105	612979	keystroke_p	p	n/a
306.6695	0.09	613339	keystroke_o	o	n/a
306.91	0.0745	613820	keystroke_l	l	n/a
307.1945	0.06	614389	keystroke_y	y	n/a
307.5245	0.09	615049	keystroke_m	m	n/a
307.6745	0.135	615349	keystroke_e	e	n/a
307.7645	0.105	615529	keystroke_r	r	n/a
307.9145	0.105	615829	keystroke_Key.space	Key.space	n/a
308.1245	0.12	616249	keystroke_v	v	n/a
308.395	0.1345	616790	keystroke_e	e	n/a
308.4695	0.1205	616939	keystroke_r	r	n/a
308.6945	0.12	617389	keystroke_s	s	n/a
308.8	0.1645	617600	keystroke_i	i	n/a
308.8595	0.15	617719	keystroke_o	o	n/a
308.9495	0.15	617899	keystroke_n	n	n/a
309.0395	0.105	618079	keystroke_Key.space	Key.space	n/a
309.235	0.0895	618470	keystroke_o	o	n/a
309.3395	0.1055	618679	keystroke_t	t	n/a
309.4895	0.0605	618979	keystroke_h	h	n/a
309.5495	0.15	619099	keystroke_e	e	n/a
309.6405	0.104	619281	keystroke_r	r	n/a
309.9095	0.105	619819	keystroke_w	w	n/a
310.0595	0.09	620119	keystroke_i	i	n/a
310.1795	0.12	620359	keystroke_s	s	n/a
310.4195	0.09	620839	keystroke_e	e	n/a
310.54	0.1345	621080	keystroke_Key.space	Key.space	n/a
310.7795	0.0755	621559	keystroke_b	b	n/a
310.9445	0.135	621889	keystroke_o	o	n/a
311.0495	0.09	622099	keystroke_u	u	n/a
311.2745	0.09	622549	keystroke_n	n	n/a
311.3945	0.135	622789	keystroke_d	d	n/a
311.4845	0.12	622969	keystroke_a	a	n/a
311.6795	0.105	623359	keystroke_r	r	n/a
311.8745	0.09	623749	keystroke_y	y	n/a
312.1445	0.09	624289	keystroke_Key.enter	Key.enter	n/a
312.2385	7.542	624477	prompt	n/a	smallest mightn't world likely\n
312.9545	0.15	625909	keystroke_s	s	n/a
313.1345	0.12	626269	keystroke_m	m	n/a
313.2245	0.1055	626449	keystroke_a	a	n/a
313.3895	0.06	626779	keystroke_l	l	n/a
313.5695	0.06	627139	keystroke_l	l	n/a
313.69	0.0895	627380	keystroke_e	e	n/a
313.915	0.1195	627830	keystroke_s	s	n/a
314.1695	0.105	628339	keystroke_t	t	n/a
314.3495	0.12	628699	keystroke_Key.space	Key.space	n/a
314.6195	0.12	629239	keystroke_m	m	n/a
314.86	0.0745	629720	keystroke_i	i	n/a
314.9945	0.105	629989	keystroke_g	g	n/a
315.1445	0.075	630289	keystroke_h	h	n/a
315.5795	0.0755	631159	keystroke_t	t	n/a
315.8645	0.09	631729	keystroke_n	n	n/a
316.24	0.1045	632480	keystroke_'	'	n/a
316.8545	0.12	633709	keystroke_t	t	n/a
317.4995	0.105	634999	keystroke_Key.space	Key.space	n/a
317.8145	0.075	635629	keystroke_w	w	n/a
317.9045	0.0755	635809	keystroke_o	o	n/a
318.0095	0.105	636019	keystroke_r	r	n/a
318.2195	0.09	636439	keystroke_l	l	n/a
318.355	0.1195	636710	keystroke_d	d	n/a
318.5045	0.09	637009	keystroke_Key.space	Key.space	n/a
318.685	0.1345	637370	keystroke_l	l	n/a
318.805	0.0595	637610	keystroke_i	i	n/a
318.9995	0.075	637999	keystroke_k	k	n/a
319.0895	0.09	638179	keystroke_e	e	n/a
319.195	0.0745	638390	keystroke_l	l	n/a
319.4345	0.075	638869	keystroke_y	y	n/a
319.6895	0.09	639379	keystroke_Key.enter	Key.enter	n/a
319.7835	10.3025	639567	prompt	n/a	significance secure capture sensitivity\n
320.5905	0.104	641181	keystroke_s	s	n/a
320.7695	0.06	641539	keystroke_i	i	n/a
320.8895	0.075	641779	keystroke_g	g	n/a
321.0245	0.075	642049	keystroke_n	n	n/a
321.2345	0.0755	642469	keystroke_i	i	n/a
321.8495	0.1055	643699	keystroke_f	f	n/a
321.9995	0.075	643999	keystroke_i	i	n/a
322.345	0.1195	644690	keystroke_c	c	n/a
322.435	0.1345	644870	keystroke_a	a	n/a
322.6295	0.105	645259	keystroke_n	n	n/a
322.7645	0.135	645529	keystroke_c	c	n/a
322.8545	0.136	645709	keystroke_e	e	n/a
323.0645	0.105	646129	keystroke_Key.space	Key.space	n/a
323.2745	0.105	646549	keystroke_s	s	n/a
323.4995	0.06	646999	keystroke_e	e	n/a
323.7095	0.1205	647419	keystroke_c	c	n/a
323.9495	0.06	647899	keystroke_u	u	n/a
324.055	0.135	648110	keystroke_r	r	n/a
324.1595	0.105	648319	keystroke_e	e	n/a
324.37	0.12	648740	keystroke_Key.space	Key.space	n/a
324.5195	0.135	649039	keystroke_c	c	n/a
324.64	0.0895	649280	keystroke_a	a	n/a
324.7595	0.09	649519	keystroke_p	p	n/a
324.9545	0.105	649909	keystroke_t	t	n/a
325.1195	0.075	650239	keystroke_u	u	n/a
325.2095	0.12	650419	keystroke_r	r	n/a
325.2845	0.135	650569	keystroke_e	e	n/a
325.4495	0.12	650899	keystroke_Key.space	Key.space	n/a
325.6745	0.09	651349	keystroke_s	s	n/a
325.9145	0.135	651829	keystroke_e	e	n/a
326.2145	0.09	652429	keystroke_n	n	n/a
326.3645	0.12	652729	keystroke_s	s	n/a
326.5895	0.045	653179	keystroke_i	i	n/a
326.7395	0.09	653479	keystroke_t	t	n/a
326.8595	0.09	653719	keystroke_i	i	n/a
327.0395	0.1055	654079	keystroke_v	v	n/a
327.1295	0.09	654259	keystroke_e	e	n/a
327.2945	0.09	654589	keystroke_i	i	n/a
327.8195	0.045	655639	keystroke_Key.backspace	Key.backspace	n/a
327.9545	0.075	655909	keystroke_Key.backspace	Key.backspace	n/a
328.36	0.045	656720	keystroke_i	i	n/a
328.705	0.1195	657410	keystroke_t	t	n/a
329.44	0.0895	658880	keystroke_y	y	n/a
329.995	0.09	659990	keystroke_Key.enter	Key.enter	n/a
330.0895	5.426	660179	prompt	n/a	disputes component teens gain\n
330.8795	0.0905	661759	keystroke_d	d	n/a
331.0595	0.0605	662119	keystroke_i	i	n/a
331.135	0.09	662270	keystroke_s	s	n/a
331.345	0.06	662690	keystroke_p	p	n/a
331.57	0.0595	663140	keystroke_u	u	n/a
331.7495	0.1055	663499	keystroke_t	t	n/a
331.9145	0.105	663829	keystroke_e	e	n/a
332.1245	0.09	664249	keystroke_s	s	n/a
332.2895	0.12	664579	keystroke_Key.space	Key.space	n/a
332.59	0.1195	665180	keystroke_c	c	n/a
332.6945	0.165	665389	keystroke_o	o	n/a
332.8145	0.105	665629	keystroke_m	m	n/a
333.0245	0.135	666049	keystroke_p	p	n/a
333.1295	0.105	666259	keystroke_o	o	n/a
333.3695	0.1055	666739	keystroke_n	n	n/a
333.4745	0.105	666949	keystroke_e	e	n/a
333.5645	0.105	667129	keystroke_n	n	n/a
333.6995	0.1055	667399	keystroke_t	t	n/a
333.8795	0.105	667759	keystroke_Key.space	Key.space	n/a
334.0895	0.105	668179	keystroke_t	t	n/a
334.1645	0.105	668329	keystroke_e	e	n/a
334.315	0.06	668630	keystroke_n	n	n/a
334.4645	0.105	668929	keystroke_n	n	n/a
334.5545	0.1055	669109	keystroke_s	s	n/a
334.7045	0.1055	669409	keystroke_Key.space	Key.space	n/a
334.8695	0.105	669739	keystroke_g	g	n/a
334.96	0.1195	669920	keystroke_a	a	n/a
335.0945	0.1205	670189	keystroke_i	i	n/a
335.1845	0.135	670369	keystroke_n	n	n/a
335.4245	0.09	670849	keystroke_Key.enter	Key.enter	n/a
335.5185	5.8325	671037	prompt	n/a	texas bass tracy invite\n
336.3545	0.105	672709	keystroke_t	t	n/a
336.55	0.0895	673100	keystroke_e	e	n/a
336.82	0.1195	673640	keystroke_x	x	n/a
337.4795	0.15	674959	keystroke_a	a	n/a
337.5845	0.135	675169	keystroke_s	s	n/a
337.795	0.1195	675590	keystroke_Key.space	Key.space	n/a
338.1695	0.06	676339	keystroke_b	b	n/a
338.26	0.1345	676520	keystroke_a	a	n/a
338.3495	0.12	676699	keystroke_s	s	n/a
338.5745	0.09	677149	keystroke_s	s	n/a
338.6945	0.105	677389	keystroke_Key.space	Key.space	n/a
338.8895	0.18	677779	keystroke_t	t	n/a
338.9945	0.135	677989	keystroke_r	r	n/a
339.085	0.15	678170	keystroke_a	a	n/a
339.3095	0.09	678619	keystroke_c	c	n/a
339.5495	0.12	679099	keystroke_t	t	n/a
339.9695	0.12	679939	keystroke_Key.space	Key.space	n/a
340.24	0.1495	680480	keystroke_i	i	n/a
340.3	0.1945	680600	keystroke_n	n	n/a
340.5695	0.135	681139	keystroke_v	v	n/a
340.75	0.075	681500	keystroke_i	i	n/a
340.9145	0.09	681829	keystroke_t	t	n/a
341.1095	0.105	682219	keystroke_e	e	n/a
341.2595	0.0905	682519	keystroke_Key.enter	Key.enter	n/a
341.3535	7.842	682707	prompt	n/a	landscape dutch boats pledge\n
342.1745	0.105	684349	keystroke_l	l	n/a
342.295	0.0895	684590	keystroke_a	a	n/a
342.4295	0.06	684859	keystroke_n	n	n/a
342.5495	0.075	685099	keystroke_d	d	n/a
342.8045	0.105	685609	keystroke_s	s	n/a
342.955	0.1195	685910	keystroke_c	c	n/a
343.3895	0.105	686779	keystroke_a	a	n/a
343.6295	0.075	687259	keystroke_p	p	n/a
343.945	0.0895	687890	keystroke_e	e	n/a
344.1395	0.12	688279	keystroke_Key.space	Key.space	n/a
344.4545	0.09	688909	keystroke_d	d	n/a
344.6195	0.0755	689239	keystroke_u	u	n/a
345.0095	0.105	690019	keystroke_t	t	n/a
345.3095	0.105	690619	keystroke_c	c	n/a
345.4595	0.075	690919	keystroke_h	h	n/a
345.7145	0.105	691429	keystroke_Key.space	Key.space	n/a
346.0595	0.075	692119	keystroke_b	b	n/a
346.27	0.0745	692540	keystroke_o	o	n/a
346.6595	0.09	693319	keystroke_a	a	n/a
347.005	0.1045	694010	keystroke_t	t	n/a
347.2145	0.12	694429	keystroke_s	s	n/a
347.3645	0.12	694729	keystroke_Key.space	Key.space	n/a
347.62	0.12	695240	keystroke_p	p	n/a
347.77	0.1045	695540	keystroke_l	l	n/a
348.16	0.0745	696320	keystroke_e	e	n/a
348.3995	0.105	696799	keystroke_d	d	n/a
348.76	0.1195	697520	keystroke_g	g	n/a
348.94	0.09	697880	keystroke_e	e	n/a
349.09	0.1045	698180	keystroke_Key.enter	Key.enter	n/a
349.1985	9.2825	698397	prompt	n/a	excluding shirts sussex session\n
349.9295	0.075	699859	keystroke_e	e	n/a
350.1995	0.1055	700399	keystroke_x	x	n/a
350.4545	0.15	700909	keystroke_c	c	n/a
350.71	0.0895	701420	keystroke_l	l	n/a
351.0245	0.0455	702049	keystroke_u	u	n/a
351.1745	0.09	702349	keystroke_d	d	n/a
351.31	0.165	702620	keystroke_i	i	n/a
351.3995	0.18	702799	keystroke_n	n	n/a
351.565	0.0755	703130	keystroke_g	g	n/a
351.6845	0.1355	703369	keystroke_Key.space	Key.space	n/a
351.97	0.0895	703940	keystroke_s	s	n/a
352.09	0.06	704180	keystroke_h	h	n/a
352.3	0.075	704600	keystroke_i	i	n/a
352.4345	0.09	704869	keystroke_r	r	n/a
352.645	0.0895	705290	keystroke_t	t	n/a
352.84	0.1195	705680	keystroke_s	s	n/a
352.9455	0.104	705891	keystroke_Key.space	Key.space	n/a
353.14	0.1345	706280	keystroke_s	s	n/a
353.305	0.0595	706610	keystroke_u	u	n/a
353.56	0.0895	707120	keystroke_z	z	n/a
353.7695	0.075	707539	keystroke_z	z	n/a
354.3845	0.0605	708769	keystroke_Key.backspace	Key.backspace	n/a
354.55	0.0745	709100	keystroke_Key.backspace	Key.backspace	n/a
355.195	0.1195	710390	keystroke_s	s	n/a
355.405	0.12	710810	keystroke_s	s	n/a
355.75	0.09	711500	keystroke_e	e	n/a
356.1395	0.1655	712279	keystroke_x	x	n/a
357.19	0.12	714380	keystroke_Key.space	Key.space	n/a
357.295	0.105	714590	keystroke_s	s	n/a
357.5195	0.0755	715039	keystroke_e	e	n/a
357.7295	0.06	715459	keystroke_s	s	n/a
357.895	0.1045	715790	keystroke_s	s	n/a
357.985	0.1495	715970	keystroke_i	i	n/a
358.03	0.15	716060	keystroke_o	o	n/a
358.105	0.18	716210	keystroke_n	n	n/a
358.375	0.1045	716750	keystroke_Key.enter	Key.enter	n/a
358.484	11.157	716968	prompt	n/a	caring cruz framework breed\n
359.47	0.135	718940	keystroke_c	c	n/a
359.695	0.12	719390	keystroke_a	a	n/a
360.145	0.105	720290	keystroke_r	r	n/a
360.325	0.15	720650	keystroke_i	i	n/a
360.445	0.15	720890	keystroke_n	n	n/a
360.58	0.0895	721160	keystroke_g	g	n/a
360.7145	0.135	721429	keystroke_Key.space	Key.space	n/a
360.9245	0.1355	721849	keystroke_c	c	n/a
361.27	0.105	722540	keystroke_r	r	n/a
361.7195	0.0755	723439	keystroke_u	u	n/a
362.665	0.1345	725330	keystroke_z	z	n/a
363.5495	0.1355	727099	keystroke_Key.space	Key.space	n/a
363.7	0.12	727400	keystroke_g	g	n/a
364.075	0.1195	728150	keystroke_r	r	n/a
364.165	0.105	728330	keystroke_a	a	n/a
364.5095	0.0455	729019	keystroke_Key.backspace	Key.backspace	n/a
364.6595	0.0605	729319	keystroke_Key.backspace	Key.backspace	n/a
364.825	0.0595	729650	keystroke_Key.backspace	Key.backspace	n/a
364.8995	0.12	729799	keystroke_f	f	n/a
365.4095	0.1205	730819	keystroke_r	r	n/a
365.4995	0.12	730999	keystroke_a	a	n/a
365.65	0.135	731300	keystroke_m	m	n/a
365.77	0.12	731540	keystroke_e	e	n/a
366.115	0.076	732230	keystroke_w	w	n/a
366.1905	0.074	732381	keystroke_o	o	n/a
366.325	0.105	732650	keystroke_r	r	n/a
366.445	0.0745	732890	keystroke_k	k	n/a
366.7295	0.0905	733459	keystroke_Key.space	Key.space	n/a
367.525	0.12	735050	keystroke_v	v	n/a
368.26	0.075	736520	keystroke_Key.backspace	Key.backspace	n/a
368.56	0.0745	737120	keystroke_b	b	n/a
368.935	0.12	737870	keystroke_r	r	n/a
369.0095	0.105	738019	keystroke_e	e	n/a
369.22	0.0745	738440	keystroke_e	e	n/a
369.43	0.105	738860	keystroke_d	d	n/a
369.5495	0.0905	739099	keystroke_Key.enter	Key.enter	n/a
369.644	6.8365	739288	prompt	n/a	earning whatever permits sigma\n
370.4345	0.1505	740869	keystroke_e	e	n/a
370.5405	0.119	741081	keystroke_a	a	n/a
370.69	0.1195	741380	keystroke_r	r	n/a
370.8545	0.12	741709	keystroke_n	n	n/a
371.11	0.105	742220	keystroke_i	i	n/a
371.1845	0.1355	742369	keystroke_n	n	n/a
371.305	0.09	742610	keystroke_g	g	n/a
371.4565	0.118	742913	keystroke_Key.space	Key.space	n/a
371.6495	0.0755	743299	keystroke_w	w	n/a
371.77	0.06	743540	keystroke_h	h	n/a
371.86	0.1195	743720	keystroke_a	a	n/a
372.1	0.0745	744200	keystroke_t	t	n/a
372.28	0.12	744560	keystroke_e	e	n/a
372.505	0.1195	745010	keystroke_v	v	n/a
372.5945	0.1655	745189	keystroke_e	e	n/a
373.5245	0.1055	747049	keystroke_r	r	n/a
373.75	0.135	747500	keystroke_Key.space	Key.space	n/a
374.0795	0.0755	748159	keystroke_p	p	n/a
374.14	0.15	748280	keystroke_e	e	n/a
374.26	0.1045	748520	keystroke_r	r	n/a
374.41	0.105	748820	keystroke_m	m	n/a
374.6195	0.09	749239	keystroke_i	i	n/a
374.695	0.0895	749390	keystroke_t	t	n/a
374.83	0.105	749660	keystroke_s	s	n/a
374.95	0.135	749900	keystroke_Key.space	Key.space	n/a
375.52	0.12	751040	keystroke_s	s	n/a
375.7295	0.0755	751459	keystroke_i	i	n/a
375.8945	0.09	751789	keystroke_g	g	n/a
376	0.12	752000	keystroke_m	m	n/a
376.195	0.1045	752390	keystroke_a	a	n/a
376.405	0.075	752810	keystroke_Key.enter	Key.enter	n/a
376.4835	7.8125	752967	prompt	n/a	point relation japanese proposal\n
377.29	0.15	754580	keystroke_p	p	n/a
377.395	0.1195	754790	keystroke_o	o	n/a
377.605	0.1645	755210	keystroke_i	i	n/a
377.695	0.1495	755390	keystroke_n	n	n/a
377.8295	0.1055	755659	keystroke_t	t	n/a
377.9795	0.1355	755959	keystroke_Key.space	Key.space	n/a
378.355	0.09	756710	keystroke_r	r	n/a
378.4	0.135	756800	keystroke_e	e	n/a
378.595	0.0895	757190	keystroke_l	l	n/a
378.655	0.1195	757310	keystroke_a	a	n/a
378.8645	0.1055	757729	keystroke_t	t	n/a
378.955	0.15	757910	keystroke_i	i	n/a
379	0.1645	758000	keystroke_o	o	n/a
379.075	0.1795	758150	keystroke_n	n	n/a
379.225	0.09	758450	keystroke_Key.space	Key.space	n/a
379.705	0.075	759410	keystroke_j	j	n/a
379.9295	0.09	759859	keystroke_a	a	n/a
380.1845	0.06	760369	keystroke_p	p	n/a
380.26	0.12	760520	keystroke_a	a	n/a
380.56	0.0445	761120	keystroke_n	n	n/a
380.62	0.12	761240	keystroke_e	e	n/a
380.845	0.0895	761690	keystroke_s	s	n/a
381.04	0.1345	762080	keystroke_s	s	n/a
381.475	0.06	762950	keystroke_Key.backspace	Key.backspace	n/a
381.58	0.09	763160	keystroke_e	e	n/a
381.79	0.12	763580	keystroke_Key.space	Key.space	n/a
382.1045	0.1205	764209	keystroke_p	p	n/a
382.2845	0.1055	764569	keystroke_r	r	n/a
382.42	0.09	764840	keystroke_o	o	n/a
382.675	0.0895	765350	keystroke_p	p	n/a
382.87	0.075	765740	keystroke_o	o	n/a
383.14	0.165	766280	keystroke_s	s	n/a
383.2595	0.1205	766519	keystroke_a	a	n/a
383.395	0.0895	766790	keystroke_l	l	n/a
384.19	0.105	768380	keystroke_Key.enter	Key.enter	n/a
384.2985	8.9675	768597	prompt	n/a	rated crystal looks photography\n
385	0.12	770000	keystroke_r	r	n/a
385.18	0.09	770360	keystroke_a	a	n/a
385.435	0.105	770870	keystroke_t	t	n/a
385.51	0.1045	771020	keystroke_e	e	n/a
385.7795	0.12	771559	keystroke_Key.space	Key.space	n/a
386.005	0.135	772010	keystroke_c	c	n/a
386.47	0.09	772940	keystroke_r	r	n/a
386.8	0.12	773600	keystroke_s	s	n/a
387.31	0.06	774620	keystroke_Key.backspace	Key.backspace	n/a
387.61	0.105	775220	keystroke_u	u	n/a
388.21	0.06	776420	keystroke_Key.backspace	Key.backspace	n/a
388.51	0.0895	777020	keystroke_y	y	n/a
388.675	0.12	777350	keystroke_s	s	n/a
389.035	0.105	778070	keystroke_t	t	n/a
389.2295	0.1205	778459	keystroke_a	a	n/a
389.32	0.0905	778640	keystroke_l	l	n/a
389.5	0.105	779000	keystroke_Key.space	Key.space	n/a
389.695	0.075	779390	keystroke_l	l	n/a
389.89	0.0745	779780	keystroke_o	o	n/a
390.055	0.09	780110	keystroke_o	o	n/a
390.25	0.12	780500	keystroke_k	k	n/a
390.385	0.09	780770	keystroke_s	s	n/a
390.505	0.09	781010	keystroke_Key.space	Key.space	n/a
390.656	0.1035	781312	keystroke_p	p	n/a
390.9095	0.075	781819	keystroke_h	h	n/a
391.105	0.075	782210	keystroke_o	o	n/a
391.2245	0.0905	782449	keystroke_t	t	n/a
391.315	0.09	782630	keystroke_o	o	n/a
391.615	0.15	783230	keystroke_g	g	n/a
391.75	0.1495	783500	keystroke_r	r	n/a
391.84	0.12	783680	keystroke_a	a	n/a
391.96	0.09	783920	keystroke_p	p	n/a
392.2005	0.0745	784401	keystroke_h	h	n/a
392.83	0.105	785660	keystroke_y	y	n/a
393.22	0.045	786440	keystroke_Key.enter	Key.enter	n/a
393.2685	9.0725	786537	prompt	n/a	continuous platforms messaging bouquet\n
394.06	0.165	788120	keystroke_c	c	n/a
394.165	0.15	788330	keystroke_o	o	n/a
394.24	0.135	788480	keystroke_n	n	n/a
394.435	0.09	788870	keystroke_t	t	n/a
394.555	0.105	789110	keystroke_i	i	n/a
394.75	0.105	789500	keystroke_n	n	n/a
395.665	0.075	791330	keystroke_u	u	n/a
396.085	0.15	792170	keystroke_o	o	n/a
396.19	0.105	792380	keystroke_u	u	n/a
396.28	0.12	792560	keystroke_s	s	n/a
396.535	0.12	793070	keystroke_Key.space	Key.space	n/a
396.865	0.09	793730	keystroke_p	p	n/a
397.15	0.075	794300	keystroke_l	l	n/a
397.2695	0.0905	794539	keystroke_a	a	n/a
397.48	0.09	794960	keystroke_t	t	n/a
397.72	0.12	795440	keystroke_f	f	n/a
397.825	0.09	795650	keystroke_o	o	n/a
397.975	0.075	795950	keystroke_r	r	n/a
398.065	0.105	796130	keystroke_m	m	n/a
398.2	0.105	796400	keystroke_s	s	n/a
398.35	0.09	796700	keystroke_Key.space	Key.space	n/a
398.515	0.12	797030	keystroke_m	m	n/a
398.605	0.075	797210	keystroke_e	e	n/a
398.815	0.06	797630	keystroke_s	s	n/a
398.965	0.135	797930	keystroke_s	s	n/a
399.07	0.135	798140	keystroke_a	a	n/a
399.355	0.09	798710	keystroke_g	g	n/a
399.46	0.135	798920	keystroke_i	i	n/a
399.535	0.135	799070	keystroke_n	n	n/a
399.6565	0.0885	799313	keystroke_g	g	n/a
399.85	0.105	799700	keystroke_Key.space	Key.space	n/a
400.555	0.09	801110	keystroke_b	b	n/a
400.99	0.135	801980	keystroke_o	o	n/a
401.065	0.12	802130	keystroke_u	u	n/a
401.635	0.1055	803270	keystroke_q	q	n/a
401.756	0.074	803512	keystroke_u	u	n/a
401.86	0.12	803720	keystroke_e	e	n/a
402.085	0.09	804170	keystroke_t	t	n/a
402.25	0.09	804500	keystroke_Key.enter	Key.enter	n/a
402.344	7.002	804688	prompt	n/a	musical where're gulf matter\n
403.12	0.09	806240	keystroke_m	m	n/a
403.36	0.075	806720	keystroke_u	u	n/a
403.42	0.12	806840	keystroke_s	s	n/a
404.035	0.075	808070	keystroke_i	i	n/a
404.41	0.105	808820	keystroke_c	c	n/a
404.485	0.12	808970	keystroke_a	a	n/a
404.62	0.075	809240	keystroke_l	l	n/a
404.995	0.105	809990	keystroke_Key.space	Key.space	n/a
405.34	0.09	810680	keystroke_w	w	n/a
405.445	0.075	810890	keystroke_h	h	n/a
405.58	0.105	811160	keystroke_e	e	n/a
405.656	0.179	811312	keystroke_r	r	n/a
405.7905	0.1045	811581	keystroke_e	e	n/a
405.94	0.075	811880	keystroke_'	'	n/a
406.3755	0.0895	812751	keystroke_r	r	n/a
406.42	0.12	812840	keystroke_e	e	n/a
406.99	0.105	813980	keystroke_Key.space	Key.space	n/a
407.29	0.09	814580	keystroke_g	g	n/a
407.455	0.09	814910	keystroke_u	u	n/a
407.725	0.06	815450	keystroke_l	l	n/a
407.89	0.09	815780	keystroke_f	f	n/a
408.1	0.105	816200	keystroke_Key.space	Key.space	n/a
408.37	0.135	816740	keystroke_m	m	n/a
408.52	0.09	817040	keystroke_a	a	n/a
408.73	0.06	817460	keystroke_t	t	n/a
408.895	0.12	817790	keystroke_t	t	n/a
408.985	0.18	817970	keystroke_e	e	n/a
409.12	0.105	818240	keystroke_r	r	n/a
409.24	0.105	818480	keystroke_Key.enter	Key.enter	n/a
409.3485	7.0475	818697	prompt	n/a	snowboard answers turned course\n
410.125	0.12	820250	keystroke_s	s	n/a
410.26	0.09	820520	keystroke_n	n	n/a
410.47	0.06	820940	keystroke_o	o	n/a
410.905	0.105	821810	keystroke_w	w	n/a
411.506	0.089	823012	keystroke_b	b	n/a
411.715	0.09	823430	keystroke_o	o	n/a
411.85	0.18	823700	keystroke_a	a	n/a
411.985	0.105	823970	keystroke_r	r	n/a
412.195	0.105	824390	keystroke_d	d	n/a
412.33	0.135	824660	keystroke_Key.space	Key.space	n/a
412.555	0.09	825110	keystroke_a	a	n/a
412.66	0.09	825320	keystroke_n	n	n/a
412.765	0.105	825530	keystroke_s	s	n/a
412.99	0.18	825980	keystroke_w	w	n/a
413.08	0.15	826160	keystroke_e	e	n/a
413.335	0.12	826670	keystroke_r	r	n/a
413.545	0.105	827090	keystroke_s	s	n/a
413.665	0.135	827330	keystroke_Key.space	Key.space	n/a
413.875	0.075	827750	keystroke_t	t	n/a
413.98	0.06	827960	keystroke_u	u	n/a
414.325	0.105	828650	keystroke_r	r	n/a
414.5355	0.1495	829071	keystroke_n	n	n/a
414.67	0.09	829340	keystroke_e	e	n/a
414.895	0.12	829790	keystroke_d	d	n/a
415.06	0.135	830120	keystroke_Key.space	Key.space	n/a
415.4955	0.1495	830991	keystroke_c	c	n/a
415.615	0.135	831230	keystroke_o	o	n/a
415.72	0.105	831440	keystroke_u	u	n/a
415.93	0.12	831860	keystroke_r	r	n/a
416.035	0.225	832070	keystroke_s	s	n/a
416.156	0.119	832312	keystroke_e	e	n/a
416.3055	0.0895	832611	keystroke_Key.enter	Key.enter	n/a
416.3985	8.3525	832797	prompt	n/a	program tanzania eastern prince\n
417.31	0.105	834620	keystroke_r	r	n/a
417.445	0.09	834890	keystroke_o	o	n/a
417.88	0.075	835760	keystroke_Key.backspace	Key.backspace	n/a
418.03	0.06	836060	keystroke_Key.backspace	Key.backspace	n/a
418.27	0.09	836540	keystroke_p	p	n/a
418.675	0.075	837350	keystroke_r	r	n/a
418.795	0.09	837590	keystroke_o	o	n/a
418.99	0.15	837980	keystroke_g	g	n/a
419.125	0.12	838250	keystroke_r	r	n/a
419.185	0.12	838370	keystroke_a	a	n/a
419.365	0.12	838730	keystroke_m	m	n/a
419.695	0.12	839390	keystroke_Key.space	Key.space	n/a
420.145	0.09	840290	keystroke_t	t	n/a
420.25	0.12	840500	keystroke_a	a	n/a
420.356	0.104	840712	keystroke_n	n	n/a
420.64	0.105	841280	keystroke_z	z	n/a
420.88	0.09	841760	keystroke_a	a	n/a
421.045	0.105	842090	keystroke_n	n	n/a
421.285	0.06	842570	keystroke_i	i	n/a
421.375	0.105	842750	keystroke_a	a	n/a
421.525	0.135	843050	keystroke_Key.space	Key.space	n/a
421.915	0.135	843830	keystroke_w	w	n/a
422.5	0.06	845000	keystroke_Key.backspace	Key.backspace	n/a
422.575	0.15	845150	keystroke_e	e	n/a
422.695	0.12	845390	keystroke_a	a	n/a
422.935	0.105	845870	keystroke_s	s	n/a
423.16	0.12	846320	keystroke_t	t	n/a
423.25	0.195	846500	keystroke_e	e	n/a
423.4	0.09	846800	keystroke_r	r	n/a
423.55	0.12	847100	keystroke_n	n	n/a
423.745	0.12	847490	keystroke_Key.space	Key.space	n/a
423.985	0.105	847970	keystroke_p	p	n/a
424.075	0.09	848150	keystroke_r	r	n/a
424.195	0.165	848390	keystroke_i	i	n/a
424.315	0.135	848630	keystroke_n	n	n/a
424.42	0.12	848840	keystroke_c	c	n/a
424.495	0.135	848990	keystroke_e	e	n/a
424.645	0.105	849290	keystroke_Key.enter	Key.enter	n/a
424.754	6.7915	849508	prompt	n/a	telescope equipment ended rest\n
425.65	0.12	851300	keystroke_t	t	n/a
425.756	0.089	851512	keystroke_e	e	n/a
425.9055	0.0745	851811	keystroke_l	l	n/a
426.01	0.105	852020	keystroke_e	e	n/a
426.49	0.135	852980	keystroke_s	s	n/a
426.865	0.12	853730	keystroke_c	c	n/a
427.06	0.075	854120	keystroke_o	o	n/a
427.285	0.075	854570	keystroke_p	p	n/a
427.375	0.12	854750	keystroke_e	e	n/a
427.5555	0.1345	855111	keystroke_Key.space	Key.space	n/a
427.87	0.105	855740	keystroke_e	e	n/a
428.125	0.12	856250	keystroke_q	q	n/a
428.275	0.12	856550	keystroke_u	u	n/a
428.365	0.105	856730	keystroke_i	i	n/a
428.815	0.06	857630	keystroke_p	p	n/a
429.2065	0.0885	858413	keystroke_m	m	n/a
429.295	0.09	858590	keystroke_e	e	n/a
429.43	0.06	858860	keystroke_n	n	n/a
429.535	0.105	859070	keystroke_t	t	n/a
429.7	0.12	859400	keystroke_Key.space	Key.space	n/a
429.94	0.06	859880	keystroke_e	e	n/a
430.03	0.076	860060	keystroke_n	n	n/a
430.195	0.09	860390	keystroke_d	d	n/a
430.4055	0.0745	860811	keystroke_e	e	n/a
430.615	0.105	861230	keystroke_d	d	n/a
430.795	0.061	861590	keystroke_Key.space	Key.space	n/a
430.96	0.15	861920	keystroke_r	r	n/a
431.05	0.135	862100	keystroke_e	e	n/a
431.23	0.12	862460	keystroke_s	s	n/a
431.365	0.09	862730	keystroke_t	t	n/a
431.44	0.105	862880	keystroke_Key.enter	Key.enter	n/a
431.549	7.932	863098	prompt	n/a	descriptions algorithm garage startup\n
432.475	0.12	864950	keystroke_d	d	n/a
432.715	0.075	865430	keystroke_e	e	n/a
432.91	0.105	865820	keystroke_s	s	n/a
433.15	0.12	866300	keystroke_c	c	n/a
433.45	0.09	866900	keystroke_r	r	n/a
433.72	0.09	867440	keystroke_i	i	n/a
433.9305	0.0895	867861	keystroke_p	p	n/a
434.065	0.0905	868130	keystroke_t	t	n/a
434.17	0.165	868340	keystroke_i	i	n/a
434.245	0.15	868490	keystroke_o	o	n/a
434.35	0.106	868700	keystroke_n	n	n/a
434.47	0.075	868940	keystroke_s	s	n/a
434.56	0.12	869120	keystroke_Key.space	Key.space	n/a
434.785	0.105	869570	keystroke_a	a	n/a
434.86	0.075	869720	keystroke_l	l	n/a
435.115	0.0905	870230	keystroke_g	g	n/a
435.235	0.075	870470	keystroke_o	o	n/a
435.37	0.12	870740	keystroke_r	r	n/a
435.52	0.075	871040	keystroke_i	i	n/a
435.6255	0.1045	871251	keystroke_t	t	n/a
435.745	0.0605	871490	keystroke_h	h	n/a
435.985	0.105	871970	keystroke_m	m	n/a
436.225	0.09	872450	keystroke_Key.space	Key.space	n/a
436.465	0.091	872930	keystroke_g	g	n/a
436.5555	0.0895	873111	keystroke_a	a	n/a
436.915	0.135	873830	keystroke_r	r	n/a
437.02	0.105	874040	keystroke_a	a	n/a
437.245	0.12	874490	keystroke_g	g	n/a
437.335	0.121	874670	keystroke_e	e	n/a
437.515	0.135	875030	keystroke_Key.space	Key.space	n/a
437.68	0.105	875360	keystroke_s	s	n/a
437.89	0.105	875780	keystroke_t	t	n/a
437.98	0.165	875960	keystroke_a	a	n/a
438.1	0.1055	876200	keystroke_r	r	n/a
438.295	0.12	876590	keystroke_t	t	n/a
438.49	0.09	876980	keystroke_u	u	n/a
439.075	0.105	878150	keystroke_p	p	n/a
439.406	0.074	878812	keystroke_Key.enter	Key.enter	n/a
439.4855	7.9305	878971	prompt	n/a	sagem modular himself oven\n
440.29	0.15	880580	keystroke_s	s	n/a
440.395	0.15	880790	keystroke_a	a	n/a
440.68	0.105	881360	keystroke_g	g	n/a
440.7555	0.1195	881511	keystroke_e	e	n/a
440.89	0.12	881780	keystroke_m	m	n/a
441.19	0.12	882380	keystroke_Key.space	Key.space	n/a
441.685	0.135	883370	keystroke_m	m	n/a
441.925	0.09	883850	keystroke_o	o	n/a
442.045	0.105	884090	keystroke_d	d	n/a
442.24	0.075	884480	keystroke_u	u	n/a
442.48	0.06	884960	keystroke_l	l	n/a
442.6	0.12	885200	keystroke_a	a	n/a
442.81	0.09	885620	keystroke_r	r	n/a
442.96	0.105	885920	keystroke_Key.space	Key.space	n/a
443.47	0.12	886940	keystroke_h	h	n/a
443.98	0.09	887960	keystroke_i	i	n/a
444.22	0.12	888440	keystroke_m	m	n/a
444.55	0.075	889100	keystroke_s	s	n/a
444.745	0.09	889490	keystroke_e	e	n/a
444.865	0.06	889730	keystroke_l	l	n/a
444.9555	0.1195	889911	keystroke_f	f	n/a
445.106	0.119	890212	keystroke_Key.space	Key.space	n/a
445.57	0.045	891140	keystroke_c	c	n/a
445.66	0.105	891320	keystroke_o	o	n/a
446.05	0.06	892100	keystroke_Key.backspace	Key.backspace	n/a
446.2	0.045	892400	keystroke_Key.backspace	Key.backspace	n/a
446.41	0.12	892820	keystroke_o	o	n/a
446.635	0.105	893270	keystroke_v	v	n/a
446.98	0.09	893960	keystroke_e	e	n/a
447.1	0.1055	894200	keystroke_n	n	n/a
447.31	0.105	894620	keystroke_Key.enter	Key.enter	n/a
447.4185	8.3525	894837	prompt	n/a	cattle lover weekend keyboard\n
448.285	0.1205	896570	keystroke_c	c	n/a
448.36	0.135	896720	keystroke_a	a	n/a
448.9	0.075	897800	keystroke_t	t	n/a
449.05	0.12	898100	keystroke_t	t	n/a
449.14	0.12	898280	keystroke_e	e	n/a
449.395	0.0605	898790	keystroke_l	l	n/a
450.085	0.075	900170	keystroke_Key.backspace	Key.backspace	n/a
450.25	0.06	900500	keystroke_Key.backspace	Key.backspace	n/a
450.49	0.09	900980	keystroke_l	l	n/a
450.565	0.0905	901130	keystroke_e	e	n/a
450.7	0.135	901400	keystroke_Key.space	Key.space	n/a
450.91	0.09	901820	keystroke_l	l	n/a
451.15	0.0745	902300	keystroke_o	o	n/a
451.2555	0.089	902511	keystroke_e	e	n/a
451.63	0.06	903260	keystroke_v	v	n/a
451.96	0.0455	903920	keystroke_Key.backspace	Key.backspace	n/a
452.11	0.09	904220	keystroke_Key.backspace	Key.backspace	n/a
452.215	0.12	904430	keystroke_v	v	n/a
452.29	0.12	904580	keystroke_e	e	n/a
452.545	0.1045	905090	keystroke_r	r	n/a
452.7555	0.1045	905511	keystroke_Key.space	Key.space	n/a
453.04	0.135	906080	keystroke_w	w	n/a
453.115	0.105	906230	keystroke_e	e	n/a
453.31	0.09	906620	keystroke_e	e	n/a
453.445	0.105	906890	keystroke_k	k	n/a
453.565	0.0905	907130	keystroke_e	e	n/a
453.79	0.09	907580	keystroke_n	n	n/a
453.865	0.105	907730	keystroke_d	d	n/a
454	0.1055	908000	keystroke_Key.space	Key.space	n/a
454.36	0.075	908720	keystroke_k	k	n/a
454.45	0.075	908900	keystroke_e	e	n/a
454.675	0.075	909350	keystroke_y	y	n/a
454.9	0.0905	909800	keystroke_b	b	n/a
455.125	0.075	910250	keystroke_o	o	n/a
455.23	0.18	910460	keystroke_a	a	n/a
455.32	0.1355	910640	keystroke_r	r	n/a
455.56	0.09	911120	keystroke_d	d	n/a
455.6505	0.1195	911301	keystroke_Key.enter	Key.enter	n/a
455.774	9.897	911548	prompt	n/a	terrible implementation events jeremy\n
456.64	0.135	913280	keystroke_t	t	n/a
456.8055	0.1505	913611	keystroke_e	e	n/a
456.925	0.09	913850	keystroke_r	r	n/a
457.1055	0.1045	914211	keystroke_r	r	n/a
457.33	0.045	914660	keystroke_i	i	n/a
457.54	0.075	915080	keystroke_b	b	n/a
457.735	0.09	915470	keystroke_l	l	n/a
457.8405	0.0745	915681	keystroke_e	e	n/a
457.96	0.12	915920	keystroke_Key.space	Key.space	n/a
458.23	0.165	916460	keystroke_i	i	n/a
458.3055	0.1345	916611	keystroke_m	m	n/a
458.53	0.135	917060	keystroke_p	p	n/a
458.62	0.105	917240	keystroke_l	l	n/a
458.785	0.0905	917570	keystroke_e	e	n/a
458.995	0.09	917990	keystroke_e	e	n/a
459.1	0.1055	918200	keystroke_n	n	n/a
459.625	0.075	919250	keystroke_Key.backspace	Key.backspace	n/a
459.775	0.075	919550	keystroke_Key.backspace	Key.backspace	n/a
460	0.09	920000	keystroke_m	m	n/a
460.135	0.105	920270	keystroke_e	e	n/a
460.2555	0.0595	920511	keystroke_n	n	n/a
460.4055	0.1045	920811	keystroke_t	t	n/a
460.525	0.135	921050	keystroke_a	a	n/a
460.615	0.12	921230	keystroke_t	t	n/a
460.69	0.15	921380	keystroke_i	i	n/a
460.84	0.195	921680	keystroke_n	n	n/a
461.44	0.06	922880	keystroke_Key.backspace	Key.backspace	n/a
461.86	0.165	923720	keystroke_o	o	n/a
461.98	0.12	923960	keystroke_n	n	n/a
462.16	0.105	924320	keystroke_Key.space	Key.space	n/a
462.31	0.12	924620	keystroke_e	e	n/a
462.52	0.1355	925040	keystroke_v	v	n/a
462.625	0.105	925250	keystroke_e	e	n/a
462.7	0.106	925400	keystroke_n	n	n/a
462.895	0.12	925790	keystroke_t	t	n/a
463.03	0.12	926060	keystroke_s	s	n/a
463.21	0.12	926420	keystroke_Key.space	Key.space	n/a
463.585	0.135	927170	keystroke_j	j	n/a
463.81	0.12	927620	keystroke_e	e	n/a
463.9	0.135	927800	keystroke_r	r	n/a
464.05	0.1055	928100	keystroke_e	e	n/a
464.95	0.1055	929900	keystroke_m	m	n/a
465.265	0.075	930530	keystroke_y	y	n/a
465.58	0.09	931160	keystroke_Key.enter	Key.enter	n/a
465.674	9.192	931348	prompt	n/a	electric capable brazil properly\n
466.525	0.12	933050	keystroke_e	e	n/a
466.7055	0.0745	933411	keystroke_l	l	n/a
466.8555	0.1045	933711	keystroke_e	e	n/a
467.185	0.135	934370	keystroke_c	c	n/a
467.515	0.105	935030	keystroke_t	t	n/a
467.59	0.1055	935180	keystroke_r	r	n/a
467.74	0.075	935480	keystroke_i	i	n/a
467.98	0.12	935960	keystroke_c	c	n/a
468.16	0.135	936320	keystroke_Key.space	Key.space	n/a
468.3555	0.1345	936711	keystroke_c	c	n/a
468.8055	0.1195	937611	keystroke_a	a	n/a
468.9555	0.0745	937911	keystroke_p	p	n/a
469.6	0.135	939200	keystroke_a	a	n/a
470.065	0.12	940130	keystroke_b	b	n/a
470.3055	0.0745	940611	keystroke_l	l	n/a
470.395	0.075	940790	keystroke_e	e	n/a
470.545	0.12	941090	keystroke_Key.space	Key.space	n/a
470.9055	0.1045	941811	keystroke_b	b	n/a
471.025	0.15	942050	keystroke_r	r	n/a
471.145	0.105	942290	keystroke_a	a	n/a
471.445	0.135	942890	keystroke_z	z	n/a
471.835	0.075	943670	keystroke_i	i	n/a
472.015	0.105	944030	keystroke_l	l	n/a
472.195	0.1205	944390	keystroke_Key.space	Key.space	n/a
472.45	0.09	944900	keystroke_p	p	n/a
472.69	0.06	945380	keystroke_o	o	n/a
473.17	0.06	946340	keystroke_Key.backspace	Key.backspace	n/a
473.26	0.105	946520	keystroke_r	r	n/a
473.41	0.105	946820	keystroke_o	o	n/a
473.74	0.105	947480	keystroke_p	p	n/a
473.86	0.105	947720	keystroke_e	e	n/a
473.935	0.105	947870	keystroke_r	r	n/a
474.2055	0.0745	948411	keystroke_l	l	n/a
474.475	0.045	948950	keystroke_y	y	n/a
474.76	0.105	949520	keystroke_Key.enter	Key.enter	n/a
474.8685	8.2625	949737	prompt	n/a	fruit suspended director asking\n
476.3055	0.1045	952611	keystroke_f	f	n/a
476.815	0.0905	953630	keystroke_r	r	n/a
476.995	0.135	953990	keystroke_u	u	n/a
477.085	0.105	954170	keystroke_i	i	n/a
477.31	0.06	954620	keystroke_t	t	n/a
477.55	0.12	955100	keystroke_Key.space	Key.space	n/a
478.225	0.09	956450	keystroke_s	s	n/a
478.615	0.12	957230	keystroke_u	u	n/a
478.765	0.12	957530	keystroke_s	s	n/a
479.35	0.09	958700	keystroke_p	p	n/a
479.4555	0.0895	958911	keystroke_e	e	n/a
479.6055	0.0895	959211	keystroke_n	n	n/a
479.725	0.105	959450	keystroke_d	d	n/a
479.95	0.075	959900	keystroke_e	e	n/a
480.16	0.105	960320	keystroke_d	d	n/a
480.295	0.12	960590	keystroke_Key.space	Key.space	n/a
480.43	0.105	960860	keystroke_d	d	n/a
480.58	0.0755	961160	keystroke_i	i	n/a
480.895	0.12	961790	keystroke_r	r	n/a
481	0.1055	962000	keystroke_e	e	n/a
481.24	0.105	962480	keystroke_c	c	n/a
481.5105	0.0745	963021	keystroke_t	t	n/a
481.615	0.091	963230	keystroke_o	o	n/a
481.75	0.1055	963500	keystroke_r	r	n/a
481.885	0.1205	963770	keystroke_Key.space	Key.space	n/a
482.05	0.135	964100	keystroke_a	a	n/a
482.23	0.12	964460	keystroke_s	s	n/a
482.395	0.105	964790	keystroke_k	k	n/a
482.62	0.15	965240	keystroke_i	i	n/a
482.71	0.15	965420	keystroke_n	n	n/a
482.875	0.075	965750	keystroke_g	g	n/a
483.01	0.12	966020	keystroke_Key.enter	Key.enter	n/a
483.1335	8.2785	966267	prompt	n/a	tent birds programme newest\n
484.84	0.12	969680	keystroke_t	t	n/a
484.915	0.135	969830	keystroke_e	e	n/a
485.3055	0.1045	970611	keystroke_n	n	n/a
485.395	0.105	970790	keystroke_t	t	n/a
485.635	0.135	971270	keystroke_Key.space	Key.space	n/a
485.98	0.0755	971960	keystroke_b	b	n/a
486.22	0.075	972440	keystroke_i	i	n/a
486.31	0.075	972620	keystroke_r	r	n/a
486.775	0.15	973550	keystroke_d	d	n/a
486.88	0.105	973760	keystroke_s	s	n/a
487.03	0.135	974060	keystroke_Key.space	Key.space	n/a
487.3	0.075	974600	keystroke_p	p	n/a
487.39	0.09	974780	keystroke_r	r	n/a
487.525	0.0755	975050	keystroke_o	o	n/a
487.7055	0.1345	975411	keystroke_g	g	n/a
487.8555	0.0895	975711	keystroke_r	r	n/a
487.915	0.12	975830	keystroke_a	a	n/a
488.215	0.105	976430	keystroke_m	m	n/a
488.68	0.105	977360	keystroke_m	m	n/a
488.875	0.075	977750	keystroke_e	e	n/a
489.1755	0.0895	978351	keystroke_Key.space	Key.space	n/a
489.5055	0.0745	979011	keystroke_n	n	n/a
489.656	0.134	979312	keystroke_e	e	n/a
489.925	0.06	979850	keystroke_w	w	n/a
490.135	0.1205	980270	keystroke_e	e	n/a
490.42	0.1355	980840	keystroke_s	s	n/a
490.69	0.105	981380	keystroke_t	t	n/a
491.29	0.1205	982580	keystroke_Key.enter	Key.enter	n/a
491.415	8.171	982830	prompt	n/a	kenya wing induced herein\n
492.925	0.105	985850	keystroke_k	k	n/a
493.1055	0.0745	986211	keystroke_e	e	n/a
493.645	0.075	987290	keystroke_n	n	n/a
494.44	0.105	988880	keystroke_y	y	n/a
494.575	0.09	989150	keystroke_a	a	n/a
494.785	0.105	989570	keystroke_Key.space	Key.space	n/a
495.115	0.075	990230	keystroke_e	e	n/a
495.235	0.0755	990470	keystroke_i	i	n/a
495.385	0.18	990770	keystroke_n	n	n/a
495.58	0.09	991160	keystroke_g	g	n/a
495.775	0.105	991550	keystroke_Key.space	Key.space	n/a
496.345	0.135	992690	keystroke_i	i	n/a
496.435	0.135	992870	keystroke_n	n	n/a
496.57	0.105	993140	keystroke_d	d	n/a
496.96	0.09	993920	keystroke_u	u	n/a
497.14	0.135	994280	keystroke_c	c	n/a
497.23	0.12	994460	keystroke_e	e	n/a
497.56	0.09	995120	keystroke_d	d	n/a
497.83	0.12	995660	keystroke_Key.space	Key.space	n/a
498.67	0.09	997340	keystroke_h	h	n/a
498.745	0.12	997490	keystroke_e	e	n/a
498.835	0.15	997670	keystroke_r	r	n/a
498.97	0.121	997940	keystroke_e	e	n/a
499.135	0.15	998270	keystroke_i	i	n/a
499.2555	0.1345	998511	keystroke_n	n	n/a
499.495	0.09	998990	keystroke_Key.enter	Key.enter	n/a
499.5895	9.3715	999179	prompt	n/a	casino language rwanda graph\n
500.95	0.165	1001900	keystroke_c	c	n/a
501.0555	0.1345	1002111	keystroke_a	a	n/a
501.4005	0.1195	1002801	keystroke_s	s	n/a
501.55	0.15	1003100	keystroke_i	i	n/a
501.61	0.165	1003220	keystroke_n	n	n/a
501.94	0.03	1003880	keystroke_o	o	n/a
502.09	0.135	1004180	keystroke_Key.space	Key.space	n/a
502.375	0.06	1004750	keystroke_l	l	n/a
502.45	0.075	1004900	keystroke_a	a	n/a
502.585	0.135	1005170	keystroke_n	n	n/a
502.93	0.09	1005860	keystroke_g	g	n/a
503.05	0.09	1006100	keystroke_u	u	n/a
503.26	0.12	1006520	keystroke_a	a	n/a
503.425	0.135	1006850	keystroke_g	g	n/a
503.515	0.12	1007030	keystroke_e	e	n/a
503.8	0.09	1007600	keystroke_Key.space	Key.space	n/a
504.46	0.12	1008920	keystroke_e	e	n/a
505.09	0.045	1010180	keystroke_Key.backspace	Key.backspace	n/a
505.15	0.09	1010300	keystroke_w	w	n/a
506.095	0.061	1012190	keystroke_Key.backspace	Key.backspace	n/a
506.365	0.12	1012730	keystroke_r	r	n/a
506.845	0.12	1013690	keystroke_w	w	n/a
507.025	0.075	1014050	keystroke_a	a	n/a
507.28	0.105	1014560	keystroke_n	n	n/a
507.445	0.135	1014890	keystroke_d	d	n/a
507.52	0.1355	1015040	keystroke_a	a	n/a
507.79	0.105	1015580	keystroke_Key.space	Key.space	n/a
508	0.18	1016000	keystroke_g	g	n/a
508.135	0.135	1016270	keystroke_r	r	n/a
508.195	0.135	1016390	keystroke_a	a	n/a
508.375	0.12	1016750	keystroke_p	p	n/a
508.645	0.09	1017290	keystroke_h	h	n/a
508.8565	0.1035	1017713	keystroke_Key.enter	Key.enter	n/a
508.964	7.272	1017928	prompt	n/a	destruction moon staff phpbb\n
509.785	0.09	1019570	keystroke_d	d	n/a
509.995	0.075	1019990	keystroke_e	e	n/a
510.2055	0.1045	1020411	keystroke_s	s	n/a
510.415	0.135	1020830	keystroke_t	t	n/a
510.5055	0.1195	1021011	keystroke_r	r	n/a
510.6555	0.105	1021311	keystroke_u	u	n/a
510.76	0.105	1021520	keystroke_c	c	n/a
510.985	0.09	1021970	keystroke_t	t	n/a
511.0605	0.195	1022121	keystroke_i	i	n/a
511.135	0.15	1022270	keystroke_o	o	n/a
511.24	0.1355	1022480	keystroke_n	n	n/a
511.33	0.135	1022660	keystroke_Key.space	Key.space	n/a
511.7055	0.1195	1023411	keystroke_m	m	n/a
511.945	0.09	1023890	keystroke_o	o	n/a
512.11	0.135	1024220	keystroke_o	o	n/a
512.26	0.2105	1024520	keystroke_n	n	n/a
512.4555	0.0895	1024911	keystroke_Key.space	Key.space	n/a
512.68	0.105	1025360	keystroke_s	s	n/a
512.935	0.09	1025870	keystroke_t	t	n/a
513.1	0.12	1026200	keystroke_a	a	n/a
513.3555	0.1645	1026711	keystroke_f	f	n/a
513.595	0.12	1027190	keystroke_f	f	n/a
513.79	0.12	1027580	keystroke_Key.space	Key.space	n/a
514.18	0.105	1028360	keystroke_p	p	n/a
514.51	0.105	1029020	keystroke_h	h	n/a
515.26	0.105	1030520	keystroke_b	b	n/a
515.5	0.12	1031000	keystroke_b	b	n/a
516.145	0.09	1032290	keystroke_Key.enter	Key.enter	n/a
516.239	8.277	1032478	prompt	n/a	urge molecules affiliates royalty\n
517.45	0.09	1034900	keystroke_u	u	n/a
517.5555	0.075	1035111	keystroke_r	r	n/a
517.795	0.12	1035590	keystroke_g	g	n/a
517.8855	0.0895	1035771	keystroke_e	e	n/a
518.0055	0.1345	1036011	keystroke_Key.space	Key.space	n/a
518.32	0.1355	1036640	keystroke_m	m	n/a
518.56	0.075	1037120	keystroke_o	o	n/a
518.7855	0.0595	1037571	keystroke_l	l	n/a
519.0555	0.0745	1038111	keystroke_e	e	n/a
519.37	0.09	1038740	keystroke_c	c	n/a
519.55	0.075	1039100	keystroke_u	u	n/a
519.8055	0.075	1039611	keystroke_l	l	n/a
519.88	0.105	1039760	keystroke_e	e	n/a
520.075	0.105	1040150	keystroke_s	s	n/a
520.24	0.09	1040480	keystroke_Key.space	Key.space	n/a
520.525	0.105	1041050	keystroke_a	a	n/a
520.765	0.12	1041530	keystroke_f	f	n/a
520.96	0.105	1041920	keystroke_f	f	n/a
521.395	0.075	1042790	keystroke_i	i	n/a
521.6055	0.1505	1043211	keystroke_l	l	n/a
521.756	0.059	1043512	keystroke_i	i	n/a
521.9055	0.1345	1043811	keystroke_a	a	n/a
522.19	0.12	1044380	keystroke_t	t	n/a
522.265	0.12	1044530	keystroke_e	e	n/a
522.445	0.12	1044890	keystroke_s	s	n/a
522.58	0.135	1045160	keystroke_Key.space	Key.space	n/a
522.7455	0.1195	1045491	keystroke_r	r	n/a
522.88	0.0755	1045760	keystroke_o	o	n/a
523.2405	0.0895	1046481	keystroke_y	y	n/a
523.39	0.09	1046780	keystroke_a	a	n/a
523.525	0.075	1047050	keystroke_l	l	n/a
523.8555	0.0895	1047711	keystroke_t	t	n/a
524.095	0.105	1048190	keystroke_y	y	n/a
524.425	0.09	1048850	keystroke_Key.enter	Key.enter	n/a
524.519	11.037	1049038	prompt	n/a	thru excluding glad trim\n
525.2355	0.1045	1050471	keystroke_t	t	n/a
525.3555	0.0895	1050711	keystroke_h	h	n/a
525.55	0.09	1051100	keystroke_r	r	n/a
526.03	0.09	1052060	keystroke_y	y	n/a
526.3305	0.1045	1052661	keystroke_Key.space	Key.space	n/a
526.825	0.06	1053650	keystroke_Key.backspace	Key.backspace	n/a
526.975	0.09	1053950	keystroke_Key.backspace	Key.backspace	n/a
527.275	0.09	1054550	keystroke_u	u	n/a
527.74	0.09	1055480	keystroke_Key.space	Key.space	n/a
527.935	0.045	1055870	keystroke_e	e	n/a
528.34	0.12	1056680	keystroke_x	x	n/a
528.7	0.0605	1057400	keystroke_c	c	n/a
529.24	0.075	1058480	keystroke_l	l	n/a
529.54	0.12	1059080	keystroke_u	u	n/a
529.96	0.105	1059920	keystroke_d	d	n/a
530.08	0.15	1060160	keystroke_i	i	n/a
530.155	0.165	1060310	keystroke_n	n	n/a
530.3055	0.0895	1060611	keystroke_g	g	n/a
530.515	0.12	1061030	keystroke_Key.space	Key.space	n/a
531.355	0.12	1062710	keystroke_f	f	n/a
531.79	0.045	1063580	keystroke_l	l	n/a
532.165	0.2405	1064330	keystroke_Key.backspace	Key.backspace	n/a
532.525	0.105	1065050	keystroke_Key.backspace	Key.backspace	n/a
532.7355	0.0895	1065471	keystroke_g	g	n/a
532.9	0.075	1065800	keystroke_l	l	n/a
533.035	0.09	1066070	keystroke_a	a	n/a
533.785	0.105	1067570	keystroke_d	d	n/a
534.31	0.135	1068620	keystroke_Key.space	Key.space	n/a
534.67	0.12	1069340	keystroke_t	t	n/a
534.745	0.135	1069490	keystroke_r	r	n/a
534.94	0.105	1069880	keystroke_i	i	n/a
535.21	0.135	1070420	keystroke_m	m	n/a
535.465	0.09	1070930	keystroke_Key.enter	Key.enter	n/a
535.559	7.4375	1071118	prompt	n/a	nearby ultimately investments cedar\n
536.62	0.105	1073240	keystroke_n	n	n/a
536.74	0.1655	1073480	keystroke_e	e	n/a
536.845	0.105	1073690	keystroke_a	a	n/a
537.01	0.105	1074020	keystroke_r	r	n/a
537.325	0.06	1074650	keystroke_b	b	n/a
537.61	0.09	1075220	keystroke_y	y	n/a
537.7155	0.1045	1075431	keystroke_Key.space	Key.space	n/a
538	0.06	1076000	keystroke_u	u	n/a
538.2405	0.0745	1076481	keystroke_l	l	n/a
538.465	0.075	1076930	keystroke_t	t	n/a
538.57	0.06	1077140	keystroke_i	i	n/a
538.81	0.0905	1077620	keystroke_m	m	n/a
538.9	0.075	1077800	keystroke_a	a	n/a
539.08	0.12	1078160	keystroke_t	t	n/a
539.17	0.105	1078340	keystroke_e	e	n/a
539.335	0.09	1078670	keystroke_l	l	n/a
539.62	0.045	1079240	keystroke_y	y	n/a
539.77	0.09	1079540	keystroke_Key.space	Key.space	n/a
540.01	0.135	1080020	keystroke_i	i	n/a
540.07	0.1355	1080140	keystroke_n	n	n/a
540.25	0.12	1080500	keystroke_v	v	n/a
540.34	0.105	1080680	keystroke_e	e	n/a
540.55	0.075	1081100	keystroke_s	s	n/a
540.73	0.09	1081460	keystroke_t	t	n/a
540.91	0.12	1081820	keystroke_m	m	n/a
541.015	0.105	1082030	keystroke_e	e	n/a
541.135	0.09	1082270	keystroke_n	n	n/a
541.27	0.09	1082540	keystroke_t	t	n/a
541.42	0.12	1082840	keystroke_s	s	n/a
541.6005	0.1045	1083201	keystroke_Key.space	Key.space	n/a
541.915	0.165	1083830	keystroke_c	c	n/a
542.035	0.12	1084070	keystroke_e	e	n/a
542.305	0.165	1084610	keystroke_d	d	n/a
542.44	0.12	1084880	keystroke_a	a	n/a
542.695	0.105	1085390	keystroke_r	r	n/a
542.89	0.105	1085780	keystroke_Key.enter	Key.enter	n/a
543.001	6.0555	1086002	prompt	n/a	broadcasting peeing paying shoes\n
543.835	0.045	1087670	keystroke_b	b	n/a
543.985	0.1055	1087970	keystroke_r	r	n/a
544.18	0.075	1088360	keystroke_o	o	n/a
544.27	0.09	1088540	keystroke_a	a	n/a
544.48	0.105	1088960	keystroke_d	d	n/a
544.84	0.18	1089680	keystroke_c	c	n/a
544.96	0.15	1089920	keystroke_a	a	n/a
545.155	0.135	1090310	keystroke_s	s	n/a
545.515	0.09	1091030	keystroke_t	t	n/a
545.635	0.135	1091270	keystroke_i	i	n/a
545.725	0.12	1091450	keystroke_n	n	n/a
545.83	0.075	1091660	keystroke_g	g	n/a
545.995	0.09	1091990	keystroke_Key.space	Key.space	n/a
546.22	0.075	1092440	keystroke_p	p	n/a
546.28	0.09	1092560	keystroke_e	e	n/a
546.46	0.105	1092920	keystroke_e	e	n/a
546.58	0.165	1093160	keystroke_i	i	n/a
546.685	0.12	1093370	keystroke_n	n	n/a
546.82	0.075	1093640	keystroke_g	g	n/a
547	0.0905	1094000	keystroke_Key.space	Key.space	n/a
547.27	0.06	1094540	keystroke_p	p	n/a
547.3455	0.1045	1094691	keystroke_a	a	n/a
547.57	0.06	1095140	keystroke_y	y	n/a
547.81	0.135	1095620	keystroke_i	i	n/a
547.885	0.165	1095770	keystroke_n	n	n/a
548.035	0.06	1096070	keystroke_g	g	n/a
548.11	0.105	1096220	keystroke_Key.space	Key.space	n/a
548.26	0.105	1096520	keystroke_s	s	n/a
548.35	0.09	1096700	keystroke_h	h	n/a
548.4705	0.1195	1096941	keystroke_o	o	n/a
548.62	0.105	1097240	keystroke_e	e	n/a
548.8	0.12	1097600	keystroke_s	s	n/a
548.935	0.12	1097870	keystroke_Key.enter	Key.enter	n/a
549.059	7.182	1098118	prompt	n/a	until repair puts worldwide\n
549.91	0.135	1099820	keystroke_n	n	n/a
550.345	0.061	1100690	keystroke_Key.backspace	Key.backspace	n/a
550.6455	0.1345	1101291	keystroke_u	u	n/a
550.675	0.165	1101350	keystroke_n	n	n/a
550.87	0.09	1101740	keystroke_t	t	n/a
550.99	0.12	1101980	keystroke_i	i	n/a
551.065	0.12	1102130	keystroke_l	l	n/a
551.2	0.105	1102400	keystroke_Key.space	Key.space	n/a
551.365	0.1055	1102730	keystroke_r	r	n/a
551.4555	0.0895	1102911	keystroke_e	e	n/a
551.6055	0.0895	1103211	keystroke_p	p	n/a
551.77	0.105	1103540	keystroke_a	a	n/a
551.905	0.09	1103810	keystroke_i	i	n/a
552.085	0.105	1104170	keystroke_r	r	n/a
552.325	0.15	1104650	keystroke_Key.space	Key.space	n/a
552.7	0.09	1105400	keystroke_p	p	n/a
552.9255	0.0745	1105851	keystroke_u	u	n/a
553.255	0.09	1106510	keystroke_t	t	n/a
553.45	0.09	1106900	keystroke_s	s	n/a
553.585	0.135	1107170	keystroke_Key.space	Key.space	n/a
553.855	0.09	1107710	keystroke_w	w	n/a
553.96	0.075	1107920	keystroke_o	o	n/a
554.08	0.0755	1108160	keystroke_r	r	n/a
554.275	0.075	1108550	keystroke_l	l	n/a
554.485	0.09	1108970	keystroke_d	d	n/a
554.77	0.09	1109540	keystroke_w	w	n/a
554.89	0.075	1109780	keystroke_i	i	n/a
555.04	0.09	1110080	keystroke_s	s	n/a
555.625	0.06	1111250	keystroke_Key.backspace	Key.backspace	n/a
555.7	0.105	1111400	keystroke_d	d	n/a
555.94	0.075	1111880	keystroke_e	e	n/a
556.135	0.105	1112270	keystroke_Key.enter	Key.enter	n/a
556.245	7.481	1112490	prompt	n/a	everyone hobbies poster factory\n
557.02	0.09	1114040	keystroke_e	e	n/a
557.2455	0.12	1114491	keystroke_v	v	n/a
557.365	0.105	1114730	keystroke_e	e	n/a
557.56	0.105	1115120	keystroke_r	r	n/a
557.77	0.105	1115540	keystroke_y	y	n/a
558.0555	0.15	1116111	keystroke_o	o	n/a
558.145	0.135	1116290	keystroke_n	n	n/a
558.2355	0.09	1116471	keystroke_e	e	n/a
558.4	0.12	1116800	keystroke_Key.space	Key.space	n/a
558.925	0.12	1117850	keystroke_h	h	n/a
559.33	0.105	1118660	keystroke_o	o	n/a
559.87	0.0905	1119740	keystroke_b	b	n/a
560.17	0.105	1120340	keystroke_b	b	n/a
560.5	0.075	1121000	keystroke_i	i	n/a
560.68	0.075	1121360	keystroke_e	e	n/a
560.83	0.105	1121660	keystroke_s	s	n/a
560.965	0.135	1121930	keystroke_Key.space	Key.space	n/a
561.235	0.15	1122470	keystroke_p	p	n/a
561.325	0.12	1122650	keystroke_o	o	n/a
561.43	0.0905	1122860	keystroke_s	s	n/a
561.655	0.135	1123310	keystroke_t	t	n/a
561.76	0.18	1123520	keystroke_e	e	n/a
561.895	0.1055	1123790	keystroke_r	r	n/a
562.0905	0.1345	1124181	keystroke_Key.space	Key.space	n/a
562.345	0.18	1124690	keystroke_f	f	n/a
562.465	0.135	1124930	keystroke_a	a	n/a
562.705	0.105	1125410	keystroke_c	c	n/a
562.9605	0.0445	1125921	keystroke_t	t	n/a
563.05	0.09	1126100	keystroke_o	o	n/a
563.1405	0.1195	1126281	keystroke_r	r	n/a
563.35	0.09	1126700	keystroke_y	y	n/a
563.65	0.075	1127300	keystroke_Key.enter	Key.enter	n/a
563.729	7.437	1127458	prompt	n/a	annie composer had strengths\n
564.6555	0.1195	1129311	keystroke_a	a	n/a
564.76	0.075	1129520	keystroke_n	n	n/a
564.94	0.075	1129880	keystroke_n	n	n/a
565.15	0.075	1130300	keystroke_i	i	n/a
565.2405	0.0595	1130481	keystroke_e	e	n/a
565.345	0.15	1130690	keystroke_Key.space	Key.space	n/a
565.825	0.09	1131650	keystroke_c	c	n/a
565.93	0.165	1131860	keystroke_o	o	n/a
566.05	0.0905	1132100	keystroke_m	m	n/a
566.26	0.165	1132520	keystroke_p	p	n/a
566.365	0.12	1132730	keystroke_o	o	n/a
566.575	0.225	1133150	keystroke_s	s	n/a
566.71	0.12	1133420	keystroke_e	e	n/a
567.1	0.105	1134200	keystroke_r	r	n/a
567.265	0.135	1134530	keystroke_Key.space	Key.space	n/a
567.535	0.06	1135070	keystroke_h	h	n/a
567.58	0.09	1135160	keystroke_a	a	n/a
567.79	0.075	1135580	keystroke_d	d	n/a
567.91	0.12	1135820	keystroke_Key.space	Key.space	n/a
568.12	0.09	1136240	keystroke_s	s	n/a
568.375	0.105	1136750	keystroke_t	t	n/a
568.42	0.165	1136840	keystroke_r	r	n/a
568.8705	0.0895	1137741	keystroke_e	e	n/a
569.125	0.105	1138250	keystroke_n	n	n/a
569.35	0.075	1138700	keystroke_g	g	n/a
569.815	0.09	1139630	keystroke_t	t	n/a
570.025	0.12	1140050	keystroke_h	h	n/a
570.79	0.135	1141580	keystroke_s	s	n/a
571.075	0.09	1142150	keystroke_Key.enter	Key.enter	n/a
571.1695	8.8765	1142339	prompt	n/a	expansion void kodak needed\n
571.975	0.09	1143950	keystroke_e	e	n/a
572.26	0.135	1144520	keystroke_x	x	n/a
572.365	0.12	1144730	keystroke_a	a	n/a
572.575	0.1355	1145150	keystroke_m	m	n/a
572.83	0.105	1145660	keystroke_p	p	n/a
573.16	0.045	1146320	keystroke_a	a	n/a
573.445	0.0455	1146890	keystroke_Key.backspace	Key.backspace	n/a
573.595	0.075	1147190	keystroke_Key.backspace	Key.backspace	n/a
573.76	0.06	1147520	keystroke_Key.backspace	Key.backspace	n/a
574.42	0.06	1148840	keystroke_Key.backspace	Key.backspace	n/a
574.795	0.12	1149590	keystroke_p	p	n/a
574.9	0.105	1149800	keystroke_a	a	n/a
575.0955	0.0745	1150191	keystroke_n	n	n/a
575.23	0.105	1150460	keystroke_s	s	n/a
575.365	0.21	1150730	keystroke_i	i	n/a
575.455	0.165	1150910	keystroke_o	o	n/a
575.56	0.135	1151120	keystroke_n	n	n/a
575.71	0.09	1151420	keystroke_Key.space	Key.space	n/a
576.055	0.15	1152110	keystroke_v	v	n/a
576.295	0.165	1152590	keystroke_o	o	n/a
576.37	0.135	1152740	keystroke_i	i	n/a
576.52	0.09	1153040	keystroke_d	d	n/a
576.7	0.135	1153400	keystroke_Key.space	Key.space	n/a
577.195	0.1055	1154390	keystroke_k	k	n/a
577.4355	0.0895	1154871	keystroke_o	o	n/a
577.93	0.12	1155860	keystroke_d	d	n/a
578.0805	0.1045	1156161	keystroke_a	a	n/a
578.395	0.09	1156790	keystroke_k	k	n/a
578.65	0.09	1157300	keystroke_Key.space	Key.space	n/a
578.905	0.06	1157810	keystroke_n	n	n/a
578.98	0.09	1157960	keystroke_e	e	n/a
579.145	0.105	1158290	keystroke_e	e	n/a
579.37	0.09	1158740	keystroke_d	d	n/a
579.595	0.075	1159190	keystroke_e	e	n/a
579.805	0.09	1159610	keystroke_d	d	n/a
579.955	0.09	1159910	keystroke_Key.enter	Key.enter	n/a
580.049	6.462	1160098	prompt	n/a	little taking alabama scientist\n
580.81	0.18	1161620	keystroke_l	l	n/a
580.945	0.0905	1161890	keystroke_i	i	n/a
581.14	0.06	1162280	keystroke_t	t	n/a
581.275	0.09	1162550	keystroke_t	t	n/a
581.4255	0.0745	1162851	keystroke_l	l	n/a
581.515	0.1055	1163030	keystroke_e	e	n/a
581.65	0.12	1163300	keystroke_Key.space	Key.space	n/a
581.935	0.1655	1163870	keystroke_t	t	n/a
582.115	0.12	1164230	keystroke_a	a	n/a
582.2655	0.1045	1164531	keystroke_k	k	n/a
582.4755	0.1495	1164951	keystroke_i	i	n/a
582.58	0.135	1165160	keystroke_n	n	n/a
582.67	0.105	1165340	keystroke_g	g	n/a
582.805	0.1205	1165610	keystroke_Key.space	Key.space	n/a
582.94	0.075	1165880	keystroke_a	a	n/a
583.03	0.105	1166060	keystroke_l	l	n/a
583.15	0.09	1166300	keystroke_a	a	n/a
583.3605	0.0745	1166721	keystroke_b	b	n/a
583.45	0.12	1166900	keystroke_a	a	n/a
583.87	0.1205	1167740	keystroke_m	m	n/a
583.99	0.1055	1167980	keystroke_a	a	n/a
584.7255	0.1195	1169451	keystroke_Key.space	Key.space	n/a
584.83	0.105	1169660	keystroke_s	s	n/a
585.01	0.1355	1170020	keystroke_c	c	n/a
585.1755	0.0745	1170351	keystroke_i	i	n/a
585.3105	0.1045	1170621	keystroke_e	e	n/a
585.43	0.12	1170860	keystroke_n	n	n/a
585.7	0.105	1171400	keystroke_t	t	n/a
585.8955	0.0445	1171791	keystroke_i	i	n/a
585.956	0.119	1171912	keystroke_s	s	n/a
586.21	0.105	1172420	keystroke_t	t	n/a
586.4205	0.0895	1172841	keystroke_Key.enter	Key.enter	n/a
586.5145	8.1575	1173029	prompt	n/a	drop equipped personally small\n
587.53	0.12	1175060	keystroke_d	d	n/a
588.295	0.09	1176590	keystroke_o	o	n/a
588.34	0.15	1176680	keystroke_p	p	n/a
588.76	0.1205	1177520	keystroke_Key.space	Key.space	n/a
589.135	0.18	1178270	keystroke_e	e	n/a
589.255	0.135	1178510	keystroke_q	q	n/a
589.6605	0.1195	1179321	keystroke_u	u	n/a
590.155	0.105	1180310	keystroke_i	i	n/a
590.545	0.09	1181090	keystroke_p	p	n/a
590.95	0.075	1181900	keystroke_p	p	n/a
591.145	0.0755	1182290	keystroke_e	e	n/a
591.37	0.0755	1182740	keystroke_d	d	n/a
591.5355	0.1345	1183071	keystroke_Key.space	Key.space	n/a
591.925	0.15	1183850	keystroke_p	p	n/a
592.09	0.195	1184180	keystroke_e	e	n/a
