onset	duration	sample	value	key	prompt_text
8.262	20.057	16524	prompt	n/a	the quick brown fox jumps over a lazy dog\n
9.8985	0.0135	19797	keystroke_t	t	n/a
9.8985	0.073	19797	keystroke_h	h	n/a
10.017	0.0895	20034	keystroke_e	e	n/a
10.0915	0.0745	20183	keystroke_Key.space	Key.space	n/a
10.272	0.09	20544	keystroke_u	u	n/a
10.3165	0.0755	20633	keystroke_q	q	n/a
11.3665	0.09	22733	keystroke_Key.backspace	Key.backspace	n/a
11.576	0.015	23152	keystroke_Key.backspace	Key.backspace	n/a
11.9515	0.09	23903	keystroke_q	q	n/a
12.0565	0.075	24113	keystroke_u	u	n/a
12.237	0.06	24474	keystroke_c	c	n/a
12.2815	0.09	24563	keystroke_i	i	n/a
12.4915	0.1055	24983	keystroke_k	k	n/a
12.717	0.0445	25434	keystroke_Key.space	Key.space	n/a
13.0615	0.045	26123	keystroke_b	b	n/a
13.1665	0.0905	26333	keystroke_r	r	n/a
13.287	0.09	26574	keystroke_o	o	n/a
13.451	0.1055	26902	keystroke_w	w	n/a
13.691	0.06	27382	keystroke_n	n	n/a
13.902	0.06	27804	keystroke_Key.space	Key.space	n/a
14.9815	0.195	29963	keystroke_Key.backspace	Key.backspace	n/a
15.2965	0.0605	30593	keystroke_Key.backspace	Key.backspace	n/a
15.461	0.046	30922	keystroke_Key.backspace	Key.backspace	n/a
15.597	0.0445	31194	keystroke_Key.backspace	Key.backspace	n/a
15.7465	0.0455	31493	keystroke_Key.backspace	Key.backspace	n/a
15.8965	0.06	31793	keystroke_Key.backspace	Key.backspace	n/a
16.046	0.0605	32092	keystroke_Key.backspace	Key.backspace	n/a
16.1965	0.06	32393	keystroke_Key.backspace	Key.backspace	n/a
16.377	0.0745	32754	keystroke_Key.backspace	Key.backspace	n/a
16.6915	0.075	33383	keystroke_Key.backspace	Key.backspace	n/a
17.2615	0.06	34523	keystroke_i	i	n/a
18.5815	0.0905	37163	keystroke_c	c	n/a
18.7315	0.0755	37463	keystroke_k	k	n/a
18.9415	0.0455	37883	keystroke_Key.space	Key.space	n/a
19.797	0.0755	39594	keystroke_b	b	n/a
19.992	0.075	39984	keystroke_r	r	n/a
20.1415	0.06	40283	keystroke_o	o	n/a
20.247	0.0905	40494	keystroke_w	w	n/a
20.3815	0.0755	40763	keystroke_n	n	n/a
20.5165	0.09	41033	keystroke_Key.space	Key.space	n/a
20.7425	0.09	41485	keystroke_f	f	n/a
20.907	0.0745	41814	keystroke_o	o	n/a
21.1915	0.091	42383	keystroke_x	x	n/a
21.3565	0.09	42713	keystroke_Key.space	Key.space	n/a
22.7975	0.0595	45595	keystroke_j	j	n/a
22.9765	0.06	45953	keystroke_u	u	n/a
23.3525	0.09	46705	keystroke_m	m	n/a
23.6075	0.074	47215	keystroke_p	p	n/a
23.9665	0.09	47933	keystroke_s	s	n/a
24.1165	0.045	48233	keystroke_Key.space	Key.space	n/a
24.3875	0.075	48775	keystroke_o	o	n/a
24.5675	0.104	49135	keystroke_v	v	n/a
24.7165	0.15	49433	keystroke_e	e	n/a
24.837	0.0895	49674	keystroke_r	r	n/a
24.942	0.1345	49884	keystroke_Key.space	Key.space	n/a
25.5425	0.0745	51085	keystroke_o	o	n/a
26.2015	0.06	52403	keystroke_Key.backspace	Key.backspace	n/a
26.3965	0.121	52793	keystroke_a	a	n/a
26.577	0.0895	53154	keystroke_Key.space	Key.space	n/a
26.742	0.135	53484	keystroke_l	l	n/a
26.8775	0.029	53755	keystroke_a	a	n/a
27.0715	0.135	54143	keystroke_z	z	n/a
27.2665	0.06	54533	keystroke_y	y	n/a
27.3865	0.09	54773	keystroke_Key.space	Key.space	n/a
27.5965	0.12	55193	keystroke_d	d	n/a
27.7625	0.089	55525	keystroke_o	o	n/a
27.8965	0.06	55793	keystroke_g	g	n/a
28.271	0.0455	56542	keystroke_Key.enter	Key.enter	n/a
28.323	18.6575	56646	prompt	n/a	madness prize integrating balance\n
29.1425	0.0595	58285	keystroke_m	m	n/a
29.277	0.0755	58554	keystroke_e	e	n/a
29.4575	0.0745	58915	keystroke_d	d	n/a
29.7275	0.059	59455	keystroke_n	n	n/a
29.7565	0.166	59513	keystroke_e	e	n/a
29.877	0.1055	59754	keystroke_s	s	n/a
30.0715	0.091	60143	keystroke_s	s	n/a
30.177	0.09	60354	keystroke_Key.space	Key.space	n/a
31.062	0.075	62124	keystroke_p	p	n/a
31.362	0.075	62724	keystroke_r	r	n/a
32.1865	0.0605	64373	keystroke_i	i	n/a
32.337	0.09	64674	keystroke_z	z	n/a
32.6665	0.1655	65333	keystroke_e	e	n/a
32.967	0.075	65934	keystroke_Key.space	Key.space	n/a
33.867	0.0445	67734	keystroke_=	=	n/a
34.032	0.0445	68064	keystroke_Key.backspace	Key.backspace	n/a
34.197	0.0445	68394	keystroke_Key.backspace	Key.backspace	n/a
34.3315	0.0605	68663	keystroke_Key.backspace	Key.backspace	n/a
34.4965	0.0455	68993	keystroke_Key.backspace	Key.backspace	n/a
34.647	0.0595	69294	keystroke_Key.backspace	Key.backspace	n/a
34.7815	0.0605	69563	keystroke_Key.backspace	Key.backspace	n/a
34.917	0.075	69834	keystroke_Key.backspace	Key.backspace	n/a
35.067	0.075	70134	keystroke_Key.backspace	Key.backspace	n/a
35.217	0.0895	70434	keystroke_Key.backspace	Key.backspace	n/a
35.367	0.075	70734	keystroke_Key.backspace	Key.backspace	n/a
35.517	0.075	71034	keystroke_Key.backspace	Key.backspace	n/a
35.682	0.06	71364	keystroke_Key.backspace	Key.backspace	n/a
35.847	0.06	71694	keystroke_Key.backspace	Key.backspace	n/a
36.357	0.09	72714	keystroke_Key.backspace	Key.backspace	n/a
36.6125	0.105	73225	keystroke_a	a	n/a
36.972	0.0745	73944	keystroke_d	d	n/a
37.077	0.06	74154	keystroke_n	n	n/a
37.181	0.136	74362	keystroke_e	e	n/a
37.3025	0.09	74605	keystroke_s	s	n/a
37.4825	0.0895	74965	keystroke_s	s	n/a
37.587	0.09	75174	keystroke_Key.space	Key.space	n/a
38.1425	0.059	76285	keystroke_p	p	n/a
38.2465	0.0755	76493	keystroke_r	r	n/a
38.4275	0.059	76855	keystroke_i	i	n/a
38.592	0.09	77184	keystroke_x	x	n/a
38.6665	0.03	77333	keystroke_z	z	n/a
39.012	0.135	78024	keystroke_Key.backspace	Key.backspace	n/a
39.1625	0.1645	78325	keystroke_z	z	n/a
39.297	0.105	78594	keystroke_e	e	n/a
39.5525	0.06	79105	keystroke_Key.backspace	Key.backspace	n/a
39.7165	0.06	79433	keystroke_Key.backspace	Key.backspace	n/a
39.882	0.0745	79764	keystroke_Key.backspace	Key.backspace	n/a
39.972	0.1645	79944	keystroke_z	z	n/a
40.0765	0.1355	80153	keystroke_e	e	n/a
40.242	0.0745	80484	keystroke_Key.space	Key.space	n/a
40.872	0.075	81744	keystroke_i	i	n/a
41.0525	0.09	82105	keystroke_n	n	n/a
41.172	0.12	82344	keystroke_t	t	n/a
41.322	0.1795	82644	keystroke_e	e	n/a
41.742	0.135	83484	keystroke_g	g	n/a
41.817	0.15	83634	keystroke_r	r	n/a
41.937	0.1955	83874	keystroke_a	a	n/a
42.057	0.15	84114	keystroke_t	t	n/a
42.177	0.21	84354	keystroke_i	i	n/a
42.357	0.15	84714	keystroke_n	n	n/a
42.522	0.135	85044	keystroke_g	g	n/a
42.672	0.089	85344	keystroke_Key.space	Key.space	n/a
43.032	0.045	86064	keystroke_b	b	n/a
43.167	0.06	86334	keystroke_a	a	n/a
43.482	0.105	86964	keystroke_;	;	n/a
43.857	0.06	87714	keystroke_a	a	n/a
43.977	0.075	87954	keystroke_n	n	n/a
44.082	0.165	88164	keystroke_c	c	n/a
44.2025	0.0895	88405	keystroke_e	e	n/a
44.487	0.0445	88974	keystroke_Key.backspace	Key.backspace	n/a
44.637	0.105	89274	keystroke_Key.backspace	Key.backspace	n/a
44.816	0.106	89632	keystroke_Key.backspace	Key.backspace	n/a
45.027	0.0595	90054	keystroke_Key.backspace	Key.backspace	n/a
45.207	0.09	90414	keystroke_Key.backspace	Key.backspace	n/a
45.8675	0.1195	91735	keystroke_l	l	n/a
46.0775	0.1345	92155	keystroke_a	a	n/a
46.287	0.075	92574	keystroke_n	n	n/a
46.3775	0.1645	92755	keystroke_c	c	n/a
46.482	0.135	92964	keystroke_e	e	n/a
46.857	0.1195	93714	keystroke_Key.enter	Key.enter	n/a
46.9855	10.059	93971	prompt	n/a	dumb aircraft farm holding\n
47.952	0.0905	95904	keystroke_f	f	n/a
48.0265	0.091	96053	keystroke_u	u	n/a
48.432	0.045	96864	keystroke_Key.backspace	Key.backspace	n/a
48.567	0.075	97134	keystroke_Key.backspace	Key.backspace	n/a
48.7025	0.074	97405	keystroke_d	d	n/a
48.8365	0.075	97673	keystroke_u	u	n/a
49.872	0.075	99744	keystroke_m	m	n/a
50.112	0.0605	100224	keystroke_b	b	n/a
50.262	0.105	100524	keystroke_Key.space	Key.space	n/a
52.6945	0.087	105389	keystroke_a	a	n/a
52.7975	0.075	105595	keystroke_i	i	n/a
52.9025	0.075	105805	keystroke_r	r	n/a
53.1125	0.134	106225	keystroke_c	c	n/a
53.3365	0.121	106673	keystroke_r	r	n/a
53.4575	0.1345	106915	keystroke_a	a	n/a
53.532	0.105	107064	keystroke_f	f	n/a
53.757	0.075	107514	keystroke_t	t	n/a
53.982	0.12	107964	keystroke_Key.space	Key.space	n/a
54.448	0.134	108896	keystroke_f	f	n/a
54.583	0.089	109166	keystroke_r	r	n/a
55.017	0.075	110034	keystroke_Key.backspace	Key.backspace	n/a
55.1225	0.1195	110245	keystroke_a	a	n/a
55.212	0.09	110424	keystroke_r	r	n/a
55.317	0.106	110634	keystroke_m	m	n/a
55.527	0.105	111054	keystroke_Key.space	Key.space	n/a
56.112	0.09	112224	keystroke_h	h	n/a
56.262	0.075	112524	keystroke_o	o	n/a
56.4275	0.0895	112855	keystroke_l	l	n/a
56.532	0.09	113064	keystroke_d	d	n/a
56.623	0.134	113246	keystroke_i	i	n/a
56.7575	0.119	113515	keystroke_n	n	n/a
56.8615	0.06	113723	keystroke_g	g	n/a
56.997	0.0455	113994	keystroke_Key.enter	Key.enter	n/a
57.049	7.2545	114098	prompt	n/a	neck audit religions limitations\n
57.822	0.0605	115644	keystroke_n	n	n/a
57.8965	0.09	115793	keystroke_e	e	n/a
58.0625	0.12	116125	keystroke_c	c	n/a
58.1675	0.074	116335	keystroke_k	k	n/a
58.2875	0.105	116575	keystroke_Key.space	Key.space	n/a
58.7825	0.105	117565	keystroke_a	a	n/a
58.9775	0.075	117955	keystroke_u	u	n/a
59.1115	0.09	118223	keystroke_d	d	n/a
59.2465	0.09	118493	keystroke_i	i	n/a
59.367	0.075	118734	keystroke_t	t	n/a
59.4875	0.104	118975	keystroke_Key.space	Key.space	n/a
60.132	0.135	120264	keystroke_r	r	n/a
60.252	0.09	120504	keystroke_e	e	n/a
60.3725	0.1045	120745	keystroke_l	l	n/a
60.5665	0.0755	121133	keystroke_i	i	n/a
60.672	0.0905	121344	keystroke_g	g	n/a
60.792	0.195	121584	keystroke_i	i	n/a
60.912	0.1645	121824	keystroke_o	o	n/a
61.0325	0.134	122065	keystroke_n	n	n/a
61.1525	0.075	122305	keystroke_s	s	n/a
61.2715	0.09	122543	keystroke_Key.space	Key.space	n/a
61.842	0.0745	123684	keystroke_i	i	n/a
62.2015	0.0755	124403	keystroke_Key.backspace	Key.backspace	n/a
62.4865	0.12	124973	keystroke_l	l	n/a
62.652	0.075	125304	keystroke_i	i	n/a
62.907	0.06	125814	keystroke_m	m	n/a
63.102	0.075	126204	keystroke_i	i	n/a
63.2825	0.0745	126565	keystroke_t	t	n/a
63.447	0.1205	126894	keystroke_a	a	n/a
63.537	0.105	127074	keystroke_t	t	n/a
63.627	0.15	127254	keystroke_i	i	n/a
63.732	0.15	127464	keystroke_o	o	n/a
63.897	0.0895	127794	keystroke_n	n	n/a
64.0015	0.09	128003	keystroke_s	s	n/a
64.2265	0.075	128453	keystroke_Key.enter	Key.enter	n/a
64.3085	9.2805	128617	prompt	n/a	replied casey randy camcorders\n
65.1725	0.1345	130345	keystroke_r	r	n/a
65.262	0.12	130524	keystroke_e	e	n/a
65.382	0.1045	130764	keystroke_p	p	n/a
65.5615	0.1355	131123	keystroke_l	l	n/a
65.9375	0.044	131875	keystroke_e	e	n/a
66.4165	0.075	132833	keystroke_Key.backspace	Key.backspace	n/a
66.672	0.09	133344	keystroke_i	i	n/a
66.7925	0.0745	133585	keystroke_e	e	n/a
66.972	0.09	133944	keystroke_d	d	n/a
67.122	0.1055	134244	keystroke_Key.space	Key.space	n/a
67.7965	0.12	135593	keystroke_c	c	n/a
67.9015	0.136	135803	keystroke_a	a	n/a
67.9765	0.166	135953	keystroke_s	s	n/a
68.127	0.1495	136254	keystroke_e	e	n/a
68.337	0.0895	136674	keystroke_y	y	n/a
68.5465	0.0905	137093	keystroke_Key.space	Key.space	n/a
69.732	0.09	139464	keystroke_r	r	n/a
69.8665	0.09	139733	keystroke_a	a	n/a
69.9865	0.075	139973	keystroke_n	n	n/a
70.317	0.06	140634	keystroke_d	d	n/a
70.527	0.03	141054	keystroke_y	y	n/a
70.857	0.105	141714	keystroke_Key.space	Key.space	n/a
71.697	0.135	143394	keystroke_c	c	n/a
71.787	0.09	143574	keystroke_a	a	n/a
71.922	0.1055	143844	keystroke_m	m	n/a
72.147	0.09	144294	keystroke_c	c	n/a
72.267	0.105	144534	keystroke_o	o	n/a
72.3865	0.075	144773	keystroke_r	r	n/a
72.5815	0.075	145163	keystroke_d	d	n/a
72.731	0.135	145462	keystroke_e	e	n/a
72.837	0.135	145674	keystroke_r	r	n/a
72.956	0.106	145912	keystroke_s	s	n/a
73.512	0.075	147024	keystroke_Key.enter	Key.enter	n/a
73.592	10.7565	147184	prompt	n/a	acceptance introducing genuine utilization\n
74.382	0.09	148764	keystroke_a	a	n/a
74.5615	0.076	149123	keystroke_c	c	n/a
74.7425	0.119	149485	keystroke_c	c	n/a
74.8925	0.1345	149785	keystroke_e	e	n/a
75.072	0.0895	150144	keystroke_p	p	n/a
75.4615	0.105	150923	keystroke_t	t	n/a
75.582	0.15	151164	keystroke_a	a	n/a
75.7165	0.0605	151433	keystroke_n	n	n/a
75.807	0.1345	151614	keystroke_c	c	n/a
75.8975	0.104	151795	keystroke_e	e	n/a
75.957	0.0895	151914	keystroke_Key.space	Key.space	n/a
76.152	0.105	152304	keystroke_i	i	n/a
76.3165	0.0755	152633	keystroke_n	n	n/a
76.4215	0.1205	152843	keystroke_t	t	n/a
76.662	0.09	153324	keystroke_r	r	n/a
77.2765	0.076	154553	keystroke_o	o	n/a
77.442	0.06	154884	keystroke_d	d	n/a
77.547	0.045	155094	keystroke_u	u	n/a
77.637	0.075	155274	keystroke_c	c	n/a
77.727	0.165	155454	keystroke_i	i	n/a
77.877	0.15	155754	keystroke_n	n	n/a
78.072	0.06	156144	keystroke_g	g	n/a
78.1765	0.0745	156353	keystroke_Key.space	Key.space	n/a
78.5215	0.12	157043	keystroke_g	g	n/a
78.5965	0.0905	157193	keystroke_e	e	n/a
78.717	0.119	157434	keystroke_n	n	n/a
79.122	0.15	158244	keystroke_u	u	n/a
79.241	0.196	158482	keystroke_i	i	n/a
79.377	0.15	158754	keystroke_n	n	n/a
79.587	0.0755	159174	keystroke_e	e	n/a
79.6915	0.075	159383	keystroke_Key.space	Key.space	n/a
80.1875	0.09	160375	keystroke_i	i	n/a
80.5165	0.03	161033	keystroke_Key.backspace	Key.backspace	n/a
80.7265	0.03	161453	keystroke_i	i	n/a
80.8765	0.09	161753	keystroke_t	t	n/a
81.1165	0.06	162233	keystroke_Key.backspace	Key.backspace	n/a
81.2665	0.06	162533	keystroke_Key.backspace	Key.backspace	n/a
81.402	0.075	162804	keystroke_u	u	n/a
81.522	0.12	163044	keystroke_t	t	n/a
81.732	0.09	163464	keystroke_i	i	n/a
82.257	0.12	164514	keystroke_l	l	n/a
82.467	0.06	164934	keystroke_i	i	n/a
82.677	0.09	165354	keystroke_z	z	n/a
82.917	0.195	165834	keystroke_a	a	n/a
83.127	0.12	166254	keystroke_t	t	n/a
83.187	0.195	166374	keystroke_i	i	n/a
83.292	0.165	166584	keystroke_o	o	n/a
83.442	0.105	166884	keystroke_n	n	n/a
83.562	0.105	167124	keystroke_s	s	n/a
84.012	0.09	168024	keystroke_Key.backspace	Key.backspace	n/a
84.237	0.105	168474	keystroke_Key.enter	Key.enter	n/a
84.3525	7.227	168705	prompt	n/a	bachelor naturally stays candles\n
85.272	0.0905	170544	keystroke_c	c	n/a
85.4065	0.075	170813	keystroke_h	h	n/a
85.8715	0.0605	171743	keystroke_Key.backspace	Key.backspace	n/a
86.0365	0.075	172073	keystroke_Key.backspace	Key.backspace	n/a
86.1265	0.09	172253	keystroke_b	b	n/a
86.2315	0.165	172463	keystroke_a	a	n/a
86.3515	0.1055	172703	keystroke_c	c	n/a
86.442	0.075	172884	keystroke_h	h	n/a
86.6365	0.0745	173273	keystroke_e	e	n/a
86.7265	0.1055	173453	keystroke_l	l	n/a
86.907	0.075	173814	keystroke_o	o	n/a
87.027	0.044	174054	keystroke_r	r	n/a
87.131	0.105	174262	keystroke_Key.space	Key.space	n/a
87.522	0.074	175044	keystroke_n	n	n/a
87.612	0.119	175224	keystroke_a	a	n/a
87.7025	0.0735	175405	keystroke_t	t	n/a
87.792	0.075	175584	keystroke_u	u	n/a
87.9425	0.1045	175885	keystroke_r	r	n/a
88.227	0.09	176454	keystroke_a	a	n/a
88.332	0.0605	176664	keystroke_l	l	n/a
88.482	0.074	176964	keystroke_l	l	n/a
88.587	0.12	177174	keystroke_y	y	n/a
88.7515	0.0605	177503	keystroke_Key.space	Key.space	n/a
88.8415	0.1505	177683	keystroke_s	s	n/a
89.0215	0.105	178043	keystroke_t	t	n/a
89.1865	0.15	178373	keystroke_a	a	n/a
89.262	0.09	178524	keystroke_y	y	n/a
89.382	0.075	178764	keystroke_s	s	n/a
89.412	0.09	178824	keystroke_Key.space	Key.space	n/a
89.726	0.106	179452	keystroke_c	c	n/a
90.042	0.0595	180084	keystroke_a	a	n/a
90.1615	0.0455	180323	keystroke_n	n	n/a
91.077	0.045	182154	keystroke_d	d	n/a
91.182	0.075	182364	keystroke_l	l	n/a
91.272	0.165	182544	keystroke_e	e	n/a
91.362	0.105	182724	keystroke_s	s	n/a
91.497	0.075	182994	keystroke_Key.enter	Key.enter	n/a
91.5865	11.417	183173	prompt	n/a	coastal identity comedy thats\n
92.5165	0.0905	185033	keystroke_c	c	n/a
92.6665	0.0595	185333	keystroke_o	o	n/a
92.922	0.165	185844	keystroke_a	a	n/a
93.117	0.165	186234	keystroke_s	s	n/a
93.237	0.135	186474	keystroke_t	t	n/a
93.357	0.09	186714	keystroke_a	a	n/a
93.448	0.074	186896	keystroke_l	l	n/a
93.5815	0.105	187163	keystroke_Key.space	Key.space	n/a
93.927	0.075	187854	keystroke_i	i	n/a
94.017	0.06	188034	keystroke_d	d	n/a
94.1665	0.075	188333	keystroke_e	e	n/a
94.302	0.09	188604	keystroke_n	n	n/a
94.422	0.06	188844	keystroke_t	t	n/a
94.542	0.0755	189084	keystroke_i	i	n/a
94.9165	0.0455	189833	keystroke_t	t	n/a
95.0365	0.075	190073	keystroke_y	y	n/a
95.457	0.06	190914	keystroke_Key.space	Key.space	n/a
95.922	0.12	191844	keystroke_c	c	n/a
96.072	0.089	192144	keystroke_e	e	n/a
96.147	0.0895	192294	keystroke_m	m	n/a
96.3715	0.1055	192743	keystroke_o	o	n/a
96.552	0.0745	193104	keystroke_d	d	n/a
96.7915	0.0755	193583	keystroke_y	y	n/a
96.9565	0.0905	193913	keystroke_Key.space	Key.space	n/a
97.166	0.12	194332	keystroke_t	t	n/a
97.271	0.09	194542	keystroke_h	h	n/a
97.376	0.1365	194752	keystroke_a	a	n/a
97.482	0.105	194964	keystroke_t	t	n/a
97.8265	0.09	195653	keystroke_s	s	n/a
98.5165	0.105	197033	keystroke_Key.backspace	Key.backspace	n/a
98.6365	0.0605	197273	keystroke_Key.backspace	Key.backspace	n/a
98.7715	0.075	197543	keystroke_Key.backspace	Key.backspace	n/a
98.922	0.075	197844	keystroke_Key.backspace	Key.backspace	n/a
99.072	0.1645	198144	keystroke_Key.backspace	Key.backspace	n/a
99.2515	0.045	198503	keystroke_Key.backspace	Key.backspace	n/a
99.4015	0.06	198803	keystroke_Key.backspace	Key.backspace	n/a
99.5365	0.0745	199073	keystroke_Key.backspace	Key.backspace	n/a
99.7015	0.06	199403	keystroke_Key.backspace	Key.backspace	n/a
99.8665	0.06	199733	keystroke_Key.backspace	Key.backspace	n/a
100.062	0.0745	200124	keystroke_Key.backspace	Key.backspace	n/a
100.587	0.0895	201174	keystroke_o	o	n/a
100.842	0.09	201684	keystroke_m	m	n/a
100.977	0.045	201954	keystroke_e	e	n/a
101.1415	0.1205	202283	keystroke_d	d	n/a
101.3815	0.06	202763	keystroke_y	y	n/a
102.102	0.0895	204204	keystroke_Key.space	Key.space	n/a
102.3265	0.09	204653	keystroke_t	t	n/a
102.4615	0.06	204923	keystroke_h	h	n/a
102.5365	0.15	205073	keystroke_a	a	n/a
102.627	0.1345	205254	keystroke_t	t	n/a
102.7465	0.105	205493	keystroke_s	s	n/a
102.942	0.0595	205884	keystroke_Key.enter	Key.enter	n/a
103.0075	8.9805	206015	prompt	n/a	denial pillow phase education\n
104.1415	0.0605	208283	keystroke_d	d	n/a
104.3215	0.0905	208643	keystroke_e	e	n/a
104.6225	0.0885	209245	keystroke_n	n	n/a
104.7725	0.104	209545	keystroke_i	i	n/a
104.9065	0.0755	209813	keystroke_a	a	n/a
104.997	0.135	209994	keystroke_l	l	n/a
105.176	0.121	210352	keystroke_Key.space	Key.space	n/a
105.986	0.1205	211972	keystroke_p	p	n/a
106.452	0.089	212904	keystroke_Key.backspace	Key.backspace	n/a
106.8265	0.12	213653	keystroke_p	p	n/a
107.0815	0.106	214163	keystroke_i	i	n/a
107.6065	0.0905	215213	keystroke_l	l	n/a
107.7865	0.0755	215573	keystroke_l	l	n/a
107.952	0.0895	215904	keystroke_o	o	n/a
108.087	0.0905	216174	keystroke_w	w	n/a
108.732	0.06	217464	keystroke_Key.space	Key.space	n/a
109.0465	0.09	218093	keystroke_p	p	n/a
109.3015	0.03	218603	keystroke_h	h	n/a
109.4065	0.09	218813	keystroke_a	a	n/a
109.617	0.1495	219234	keystroke_s	s	n/a
109.7215	0.1505	219443	keystroke_e	e	n/a
109.8565	0.105	219713	keystroke_Key.space	Key.space	n/a
110.4265	0.0605	220853	keystroke_e	e	n/a
110.622	0.1195	221244	keystroke_d	d	n/a
110.832	0.06	221664	keystroke_u	u	n/a
110.922	0.075	221844	keystroke_c	c	n/a
111.0425	0.1645	222085	keystroke_a	a	n/a
111.1765	0.1205	222353	keystroke_t	t	n/a
111.3265	0.135	222653	keystroke_i	i	n/a
111.4915	0.0905	222983	keystroke_o	o	n/a
111.7165	0.06	223433	keystroke_n	n	n/a
111.9265	0.06	223853	keystroke_Key.enter	Key.enter	n/a
111.9925	12.551	223985	prompt	n/a	prague present prozac bloggers\n
113.022	0.0895	226044	keystroke_p	p	n/a
113.2465	0.1205	226493	keystroke_r	r	n/a
113.427	0.135	226854	keystroke_a	a	n/a
113.637	0.075	227274	keystroke_g	g	n/a
113.8165	0.0455	227633	keystroke_u	u	n/a
114.1015	0.105	228203	keystroke_e	e	n/a
114.282	0.0895	228564	keystroke_Key.space	Key.space	n/a
115.407	0.075	230814	keystroke_p	p	n/a
115.632	0.12	231264	keystroke_r	r	n/a
115.707	0.18	231414	keystroke_e	e	n/a
115.887	0.0905	231774	keystroke_s	s	n/a
116.427	0.105	232854	keystroke_e	e	n/a
116.592	0.0755	233184	keystroke_n	n	n/a
116.682	0.09	233364	keystroke_t	t	n/a
116.8015	0.09	233603	keystroke_Key.space	Key.space	n/a
117.3715	0.1055	234743	keystroke_p	p	n/a
117.7015	0.09	235403	keystroke_r	r	n/a
117.882	0.1055	235764	keystroke_o	o	n/a
118.4665	0.03	236933	keystroke_x	x	n/a
118.481	0.031	236962	keystroke_z	z	n/a
118.9315	0.0905	237863	keystroke_Key.backspace	Key.backspace	n/a
119.097	0.089	238194	keystroke_Key.backspace	Key.backspace	n/a
119.127	0.09	238254	keystroke_z	z	n/a
119.337	0.0895	238674	keystroke_a	a	n/a
119.8165	0.0755	239633	keystroke_c	c	n/a
120.2365	0.06	240473	keystroke_Key.backspace	Key.backspace	n/a
120.8065	0.075	241613	keystroke_c	c	n/a
121.017	0.09	242034	keystroke_Key.space	Key.space	n/a
121.7215	0.0755	243443	keystroke_b	b	n/a
122.037	0.089	244074	keystroke_l	l	n/a
122.607	0.09	245214	keystroke_Key.backspace	Key.backspace	n/a
123.147	0.105	246294	keystroke_l	l	n/a
123.3865	0.1055	246773	keystroke_o	o	n/a
123.507	0.075	247014	keystroke_g	g	n/a
123.687	0.09	247374	keystroke_g	g	n/a
123.822	0.1505	247644	keystroke_e	e	n/a
123.9115	0.121	247823	keystroke_r	r	n/a
124.0475	0.1035	248095	keystroke_s	s	n/a
124.511	0.0305	249022	keystroke_Key.enter	Key.enter	n/a
124.5475	7.511	249095	prompt	n/a	coral minister programmer germany\n
125.5915	0.1055	251183	keystroke_c	c	n/a
125.7575	0.12	251515	keystroke_o	o	n/a
125.8625	0.1195	251725	keystroke_r	r	n/a
125.9825	0.1045	251965	keystroke_a	a	n/a
126.0875	0.1045	252175	keystroke_l	l	n/a
126.267	0.12	252534	keystroke_Key.space	Key.space	n/a
126.7615	0.1805	253523	keystroke_m	m	n/a
126.972	0.075	253944	keystroke_i	i	n/a
127.092	0.12	254184	keystroke_n	n	n/a
127.302	0.09	254604	keystroke_i	i	n/a
127.586	0.165	255172	keystroke_s	s	n/a
127.736	0.12	255472	keystroke_t	t	n/a
127.841	0.15	255682	keystroke_e	e	n/a
127.947	0.089	255894	keystroke_r	r	n/a
128.081	0.09	256162	keystroke_Key.space	Key.space	n/a
128.712	0.09	257424	keystroke_p	p	n/a
128.982	0.0745	257964	keystroke_r	r	n/a
129.1315	0.105	258263	keystroke_o	o	n/a
129.3415	0.165	258683	keystroke_g	g	n/a
129.4315	0.151	258863	keystroke_r	r	n/a
129.642	0.1195	259284	keystroke_a	a	n/a
129.7915	0.0605	259583	keystroke_m	m	n/a
129.942	0.105	259884	keystroke_m	m	n/a
130.0315	0.165	260063	keystroke_e	e	n/a
130.1215	0.1505	260243	keystroke_r	r	n/a
130.557	0.089	261114	keystroke_Key.space	Key.space	n/a
131.082	0.0895	262164	keystroke_g	g	n/a
131.2165	0.15	262433	keystroke_e	e	n/a
131.337	0.09	262674	keystroke_r	r	n/a
131.4565	0.0905	262913	keystroke_m	m	n/a
131.6225	0.1045	263245	keystroke_a	a	n/a
131.7425	0.104	263485	keystroke_n	n	n/a
131.862	0.074	263724	keystroke_y	y	n/a
132.012	0.0445	264024	keystroke_Key.enter	Key.enter	n/a
132.063	9.0105	264126	prompt	n/a	joke sweden milk educators\n
133.662	0.105	267324	keystroke_j	j	n/a
133.902	0.1795	267804	keystroke_o	o	n/a
134.1715	0.105	268343	keystroke_k	k	n/a
134.3215	0.091	268643	keystroke_e	e	n/a
134.502	0.06	269004	keystroke_Key.space	Key.space	n/a
135.311	0.091	270622	keystroke_s	s	n/a
135.552	0.15	271104	keystroke_w	w	n/a
135.657	0.1195	271314	keystroke_e	e	n/a
135.8825	0.0895	271765	keystroke_d	d	n/a
136.0615	0.076	272123	keystroke_e	e	n/a
136.1375	0.074	272275	keystroke_n	n	n/a
136.2865	0.0755	272573	keystroke_Key.space	Key.space	n/a
137.0815	0.09	274163	keystroke_m	m	n/a
137.2765	0.09	274553	keystroke_i	i	n/a
137.486	0.106	274972	keystroke_l	l	n/a
137.6815	0.09	275363	keystroke_k	k	n/a
137.8615	0.09	275723	keystroke_Key.space	Key.space	n/a
138.401	0.046	276802	keystroke_e	e	n/a
138.552	0.105	277104	keystroke_d	d	n/a
138.702	0.09	277404	keystroke_u	u	n/a
139.1065	0.0895	278213	keystroke_Key.backspace	Key.backspace	n/a
139.392	0.074	278784	keystroke_u	u	n/a
139.511	0.1205	279022	keystroke_c	c	n/a
139.647	0.15	279294	keystroke_a	a	n/a
139.7665	0.1205	279533	keystroke_t	t	n/a
139.902	0.06	279804	keystroke_i	i	n/a
140.2915	0.09	280583	keystroke_Key.backspace	Key.backspace	n/a
140.5925	0.089	281185	keystroke_o	o	n/a
140.726	0.12	281452	keystroke_r	r	n/a
140.816	0.12	281632	keystroke_s	s	n/a
140.9965	0.0745	281993	keystroke_Key.enter	Key.enter	n/a
141.0775	12.837	282155	prompt	n/a	paraguay powers discrete kingston\n
142.2565	0.09	284513	keystroke_p	p	n/a
142.4065	0.1205	284813	keystroke_a	a	n/a
142.512	0.105	285024	keystroke_r	r	n/a
142.6765	0.1045	285353	keystroke_a	a	n/a
143.112	0.0895	286224	keystroke_g	g	n/a
143.261	0.0455	286522	keystroke_u	u	n/a
143.3365	0.135	286673	keystroke_a	a	n/a
143.5015	0.091	287003	keystroke_y	y	n/a
143.652	0.09	287304	keystroke_Key.space	Key.space	n/a
144.042	0.075	288084	keystroke_p	p	n/a
144.4165	0.0755	288833	keystroke_o	o	n/a
144.5215	0.165	289043	keystroke_w	w	n/a
144.6125	0.1335	289225	keystroke_e	e	n/a
144.702	0.134	289404	keystroke_r	r	n/a
145.1365	0.1055	290273	keystroke_Key.space	Key.space	n/a
145.6465	0.075	291293	keystroke_Key.backspace	Key.backspace	n/a
145.7665	0.09	291533	keystroke_s	s	n/a
145.9165	0.09	291833	keystroke_Key.space	Key.space	n/a
146.1415	0.06	292283	keystroke_d	d	n/a
146.2465	0.09	292493	keystroke_i	i	n/a
146.442	0.1795	292884	keystroke_s	s	n/a
146.6065	0.1045	293213	keystroke_c	c	n/a
146.907	0.089	293814	keystroke_r	r	n/a
147.117	0.09	294234	keystroke_e	e	n/a
147.312	0.09	294624	keystroke_t	t	n/a
147.747	0.105	295494	keystroke_e	e	n/a
147.957	0.1045	295914	keystroke_Key.space	Key.space	n/a
149.0825	0.089	298165	keystroke_k	k	n/a
149.292	0.06	298584	keystroke_i	i	n/a
149.472	0.09	298944	keystroke_n	n	n/a
149.622	0.12	299244	keystroke_s	s	n/a
149.712	0.105	299424	keystroke_t	t	n/a
150.342	0.09	300684	keystroke_Key.backspace	Key.backspace	n/a
150.6715	0.09	301343	keystroke_Key.backspace	Key.backspace	n/a
150.8515	0.09	301703	keystroke_g	g	n/a
151.0165	0.1655	302033	keystroke_s	s	n/a
151.152	0.1045	302304	keystroke_t	t	n/a
151.3465	0.135	302693	keystroke_i	i	n/a
151.9465	0.12	303893	keystroke_Key.backspace	Key.backspace	n/a
152.2315	0.151	304463	keystroke_o	o	n/a
153.312	0.0445	306624	keystroke_n	n	n/a
153.8065	0.105	307613	keystroke_Key.enter	Key.enter	n/a
153.9285	11.3855	307857	prompt	n/a	telecharger ireland ethical huge\n
154.737	0.135	309474	keystroke_t	t	n/a
154.827	0.135	309654	keystroke_e	e	n/a
155.007	0.06	310014	keystroke_l	l	n/a
155.096	0.106	310192	keystroke_e	e	n/a
155.4865	0.075	310973	keystroke_c	c	n/a
155.5765	0.105	311153	keystroke_h	h	n/a
155.667	0.1945	311334	keystroke_a	a	n/a
155.981	0.1215	311962	keystroke_r	r	n/a
156.1465	0.105	312293	keystroke_g	g	n/a
156.297	0.1645	312594	keystroke_e	e	n/a
156.417	0.1045	312834	keystroke_r	r	n/a
156.6115	0.09	313223	keystroke_Key.space	Key.space	n/a
157.4215	0.045	314843	keystroke_i	i	n/a
157.4665	0.12	314933	keystroke_r	r	n/a
157.5565	0.105	315113	keystroke_e	e	n/a
157.6765	0.12	315353	keystroke_l	l	n/a
157.9315	0.0745	315863	keystroke_a	a	n/a
158.021	0.0755	316042	keystroke_n	n	n/a
158.1115	0.09	316223	keystroke_d	d	n/a
158.2315	0.075	316463	keystroke_Key.space	Key.space	n/a
160.062	0.135	320124	keystroke_e	e	n/a
160.392	0.1045	320784	keystroke_i	i	n/a
160.8265	0.105	321653	keystroke_t	t	n/a
160.947	0.1045	321894	keystroke_h	h	n/a
161.1265	0.075	322253	keystroke_a	a	n/a
161.277	0.1345	322554	keystroke_c	c	n/a
161.5465	0.045	323093	keystroke_Key.backspace	Key.backspace	n/a
161.727	0.029	323454	keystroke_Key.backspace	Key.backspace	n/a
161.861	0.09	323722	keystroke_Key.backspace	Key.backspace	n/a
162.2965	0.0745	324593	keystroke_Key.backspace	Key.backspace	n/a
162.612	0.1195	325224	keystroke_Key.backspace	Key.backspace	n/a
163.062	0.0895	326124	keystroke_t	t	n/a
163.1815	0.12	326363	keystroke_h	h	n/a
163.2715	0.105	326543	keystroke_i	i	n/a
163.4065	0.105	326813	keystroke_c	c	n/a
163.4815	0.1055	326963	keystroke_a	a	n/a
163.6165	0.12	327233	keystroke_l	l	n/a
163.871	0.0905	327742	keystroke_Key.space	Key.space	n/a
164.666	0.09	329332	keystroke_h	h	n/a
164.8015	0.105	329603	keystroke_u	u	n/a
164.9965	0.045	329993	keystroke_g	g	n/a
165.0565	0.105	330113	keystroke_e	e	n/a
165.2215	0.09	330443	keystroke_Key.enter	Key.enter	n/a
165.33	8.5785	330660	prompt	n/a	house aqua patient influenced\n
166.2265	0.105	332453	keystroke_h	h	n/a
166.3755	0.181	332751	keystroke_o	o	n/a
166.511	0.105	333022	keystroke_u	u	n/a
166.6465	0.135	333293	keystroke_s	s	n/a
166.7365	0.135	333473	keystroke_e	e	n/a
166.8265	0.1195	333653	keystroke_Key.space	Key.space	n/a
167.502	0.09	335004	keystroke_a	a	n/a
167.877	0.105	335754	keystroke_q	q	n/a
168.1015	0.0745	336203	keystroke_u	u	n/a
168.192	0.09	336384	keystroke_a	a	n/a
168.3265	0.06	336653	keystroke_Key.space	Key.space	n/a
169.436	0.0605	338872	keystroke_p	p	n/a
169.8565	0.09	339713	keystroke_Key.backspace	Key.backspace	n/a
170.2915	0.09	340583	keystroke_p	p	n/a
170.9355	0.151	341871	keystroke_a	a	n/a
171.221	0.09	342442	keystroke_t	t	n/a
171.372	0.0745	342744	keystroke_i	i	n/a
171.672	0.119	343344	keystroke_e	e	n/a
171.821	0.106	343642	keystroke_n	n	n/a
171.9575	0.059	343915	keystroke_t	t	n/a
172.0765	0.1045	344153	keystroke_Key.space	Key.space	n/a
172.3625	0.1035	344725	keystroke_i	i	n/a
172.5265	0.12	345053	keystroke_n	n	n/a
172.7215	0.09	345443	keystroke_f	f	n/a
172.8575	0.104	345715	keystroke_l	l	n/a
172.992	0.0595	345984	keystroke_u	u	n/a
173.1115	0.0895	346223	keystroke_e	e	n/a
173.232	0.105	346464	keystroke_n	n	n/a
173.322	0.15	346644	keystroke_c	c	n/a
173.427	0.104	346854	keystroke_e	e	n/a
173.6965	0.075	347393	keystroke_d	d	n/a
173.816	0.09	347632	keystroke_Key.enter	Key.enter	n/a
173.9155	7.6425	347831	prompt	n/a	orders thus layers economy\n
174.642	0.0745	349284	keystroke_o	o	n/a
174.867	0.0745	349734	keystroke_r	r	n/a
175.047	0.0595	350094	keystroke_d	d	n/a
175.226	0.151	350452	keystroke_e	e	n/a
175.3165	0.15	350633	keystroke_r	r	n/a
175.467	0.1045	350934	keystroke_s	s	n/a
175.5865	0.1195	351173	keystroke_Key.space	Key.space	n/a
175.7515	0.0905	351503	keystroke_t	t	n/a
175.826	0.1055	351652	keystroke_h	h	n/a
175.992	0.105	351984	keystroke_i	i	n/a
176.1265	0.0595	352253	keystroke_s	s	n/a
176.261	0.075	352522	keystroke_Key.space	Key.space	n/a
176.831	0.0455	353662	keystroke_Key.backspace	Key.backspace	n/a
176.981	0.045	353962	keystroke_Key.backspace	Key.backspace	n/a
177.1165	0.09	354233	keystroke_Key.backspace	Key.backspace	n/a
177.716	0.076	355432	keystroke_s	s	n/a
178.151	0.075	356302	keystroke_Key.backspace	Key.backspace	n/a
178.3765	0.075	356753	keystroke_u	u	n/a
178.4965	0.075	356993	keystroke_s	s	n/a
178.586	0.106	357172	keystroke_Key.space	Key.space	n/a
179.022	0.089	358044	keystroke_l	l	n/a
179.217	0.1045	358434	keystroke_a	a	n/a
179.4865	0.09	358973	keystroke_y	y	n/a
179.6365	0.105	359273	keystroke_e	e	n/a
179.7115	0.1205	359423	keystroke_r	r	n/a
179.8615	0.12	359723	keystroke_s	s	n/a
180.0265	0.105	360053	keystroke_Key.space	Key.space	n/a
180.2665	0.0755	360533	keystroke_e	e	n/a
180.461	0.105	360922	keystroke_c	c	n/a
180.612	0.105	361224	keystroke_o	o	n/a
180.806	0.09	361612	keystroke_n	n	n/a
180.971	0.121	361942	keystroke_o	o	n/a
181.182	0.0895	362364	keystroke_m	m	n/a
181.3165	0.0745	362633	keystroke_y	y	n/a
181.496	0.0605	362992	keystroke_Key.enter	Key.enter	n/a
181.5625	13.5715	363125	prompt	n/a	demonstrates slightly organisation sales\n
182.367	0.0745	364734	keystroke_d	d	n/a
182.5315	0.075	365063	keystroke_e	e	n/a
182.8465	0.1055	365693	keystroke_m	m	n/a
183.0865	0.045	366173	keystroke_o	o	n/a
183.3265	0.09	366653	keystroke_n	n	n/a
183.522	0.194	367044	keystroke_s	s	n/a
183.671	0.196	367342	keystroke_t	t	n/a
183.792	0.149	367584	keystroke_r	r	n/a
183.911	0.15	367822	keystroke_a	a	n/a
184.031	0.181	368062	keystroke_t	t	n/a
184.151	0.136	368302	keystroke_e	e	n/a
184.8255	0.046	369651	keystroke_Key.backspace	Key.backspace	n/a
185.4575	0.104	370915	keystroke_e	e	n/a
186.087	0.104	372174	keystroke_s	s	n/a
186.206	0.1205	372412	keystroke_Key.space	Key.space	n/a
186.551	0.076	373102	keystroke_s	s	n/a
186.7015	0.0755	373403	keystroke_l	l	n/a
186.8815	0.06	373763	keystroke_i	i	n/a
186.9865	0.0745	373973	keystroke_g	g	n/a
187.091	0.09	374182	keystroke_h	h	n/a
187.2115	0.075	374423	keystroke_t	t	n/a
187.4515	0.075	374903	keystroke_y	y	n/a
187.827	0.104	375654	keystroke_Key.backspace	Key.backspace	n/a
188.141	0.105	376282	keystroke_l	l	n/a
188.7565	0.09	377513	keystroke_Key.backspace	Key.backspace	n/a
188.9665	0.03	377933	keystroke_y	y	n/a
189.5065	0.09	379013	keystroke_Key.backspace	Key.backspace	n/a
190.017	0.075	380034	keystroke_l	l	n/a
190.106	0.0605	380212	keystroke_y	y	n/a
190.3015	0.075	380603	keystroke_Key.space	Key.space	n/a
190.902	0.0745	381804	keystroke_o	o	n/a
191.0215	0.09	382043	keystroke_r	r	n/a
191.3515	0.075	382703	keystroke_g	g	n/a
191.472	0.0895	382944	keystroke_a	a	n/a
191.606	0.075	383212	keystroke_n	n	n/a
191.8015	0.0745	383603	keystroke_i	i	n/a
191.921	0.12	383842	keystroke_s	s	n/a
193.4815	0.1345	386963	keystroke_a	a	n/a
193.631	0.12	387262	keystroke_t	t	n/a
193.736	0.165	387472	keystroke_i	i	n/a
193.826	0.18	387652	keystroke_o	o	n/a
193.991	0.1355	387982	keystroke_n	n	n/a
194.1715	0.105	388343	keystroke_Key.space	Key.space	n/a
194.2615	0.0905	388523	keystroke_s	s	n/a
194.547	0.1045	389094	keystroke_a	a	n/a
194.6815	0.09	389363	keystroke_l	l	n/a
194.802	0.1345	389604	keystroke_e	e	n/a
194.9065	0.09	389813	keystroke_s	s	n/a
195.0715	0.0595	390143	keystroke_Key.enter	Key.enter	n/a
195.1485	8.4595	390297	prompt	n/a	competing factor we've quiet\n
195.8815	0.09	391763	keystroke_c	c	n/a
196.256	0.09	392512	keystroke_o	o	n/a
196.541	0.105	393082	keystroke_m	m	n/a
197.186	0.15	394372	keystroke_p	p	n/a
197.291	0.135	394582	keystroke_e	e	n/a
197.382	0.104	394764	keystroke_t	t	n/a
197.5315	0.1195	395063	keystroke_i	i	n/a
197.637	0.12	395274	keystroke_n	n	n/a
197.772	0.075	395544	keystroke_g	g	n/a
197.906	0.09	395812	keystroke_Key.space	Key.space	n/a
198.4765	0.09	396953	keystroke_f	f	n/a
198.582	0.1345	397164	keystroke_a	a	n/a
198.6565	0.1055	397313	keystroke_c	c	n/a
199.2715	0.06	398543	keystroke_Key.backspace	Key.backspace	n/a
199.6015	0.09	399203	keystroke_c	c	n/a
199.827	0.075	399654	keystroke_t	t	n/a
200.007	0.089	400014	keystroke_o	o	n/a
200.112	0.075	400224	keystroke_r	r	n/a
200.4865	0.075	400973	keystroke_Key.space	Key.space	n/a
200.7715	0.165	401543	keystroke_w	w	n/a
200.8775	0.1045	401755	keystroke_e	e	n/a
201.1765	0.075	402353	keystroke_'	'	n/a
201.2965	0.0745	402593	keystroke_e	e	n/a
201.7165	0.1195	403433	keystroke_Key.backspace	Key.backspace	n/a
201.821	0.121	403642	keystroke_v	v	n/a
201.9265	0.0895	403853	keystroke_e	e	n/a
202.0915	0.0895	404183	keystroke_Key.space	Key.space	n/a
202.962	0.119	405924	keystroke_q	q	n/a
203.082	0.134	406164	keystroke_u	u	n/a
203.2015	0.1055	406403	keystroke_i	i	n/a
203.336	0.121	406672	keystroke_e	e	n/a
203.427	0.089	406854	keystroke_t	t	n/a
203.532	0.074	407064	keystroke_Key.enter	Key.enter	n/a
203.6135	5.2745	407227	prompt	n/a	verified thomson mens rights\n
204.3415	0.121	408683	keystroke_v	v	n/a
204.4915	0.18	408983	keystroke_e	e	n/a
204.627	0.105	409254	keystroke_r	r	n/a
204.747	0.06	409494	keystroke_i	i	n/a
204.8515	0.075	409703	keystroke_f	f	n/a
204.9715	0.075	409943	keystroke_i	i	n/a
205.2715	0.09	410543	keystroke_e	e	n/a
205.451	0.0905	410902	keystroke_d	d	n/a
205.5865	0.0745	411173	keystroke_Key.space	Key.space	n/a
205.766	0.076	411532	keystroke_t	t	n/a
205.887	0.105	411774	keystroke_h	h	n/a
206.1565	0.1205	412313	keystroke_o	o	n/a
206.412	0.119	412824	keystroke_m	m	n/a
206.622	0.09	413244	keystroke_s	s	n/a
206.7565	0.12	413513	keystroke_o	o	n/a
206.8915	0.09	413783	keystroke_n	n	n/a
207.0565	0.06	414113	keystroke_Key.space	Key.space	n/a
207.3565	0.045	414713	keystroke_m	m	n/a
207.417	0.0755	414834	keystroke_e	e	n/a
207.5365	0.06	415073	keystroke_n	n	n/a
207.6865	0.09	415373	keystroke_s	s	n/a
207.8515	0.09	415703	keystroke_Key.space	Key.space	n/a
208.1965	0.0895	416393	keystroke_r	r	n/a
208.301	0.105	416602	keystroke_i	i	n/a
208.421	0.06	416842	keystroke_g	g	n/a
208.511	0.105	417022	keystroke_h	h	n/a
208.586	0.105	417172	keystroke_t	t	n/a
208.6765	0.1045	417353	keystroke_s	s	n/a
208.8115	0.075	417623	keystroke_Key.enter	Key.enter	n/a
208.892	8.801	417784	prompt	n/a	imposed about andorra gore\n
209.5615	0.105	419123	keystroke_i	i	n/a
209.847	0.044	419694	keystroke_m	m	n/a
210.0565	0.135	420113	keystroke_p	p	n/a
210.2365	0.1205	420473	keystroke_o	o	n/a
210.386	0.136	420772	keystroke_s	s	n/a
210.477	0.1195	420954	keystroke_e	e	n/a
210.6715	0.1055	421343	keystroke_d	d	n/a
210.7615	0.105	421523	keystroke_Key.space	Key.space	n/a
211.392	0.09	422784	keystroke_a	a	n/a
211.6915	0.09	423383	keystroke_b	b	n/a
212.7265	0.105	425453	keystroke_o	o	n/a
213.0115	0.075	426023	keystroke_u	u	n/a
213.1015	0.075	426203	keystroke_t	t	n/a
213.3115	0.135	426623	keystroke_Key.space	Key.space	n/a
213.8665	0.045	427733	keystroke_d	d	n/a
214.1965	0.06	428393	keystroke_Key.backspace	Key.backspace	n/a
214.332	0.104	428664	keystroke_a	a	n/a
214.466	0.06	428932	keystroke_n	n	n/a
214.6315	0.0605	429263	keystroke_d	d	n/a
214.9165	0.0755	429833	keystroke_o	o	n/a
215.0065	0.09	430013	keystroke_r	r	n/a
215.1715	0.105	430343	keystroke_r	r	n/a
215.307	0.12	430614	keystroke_a	a	n/a
215.441	0.1205	430882	keystroke_Key.space	Key.space	n/a
215.937	0.104	431874	keystroke_g	g	n/a
216.086	0.09	432172	keystroke_o	o	n/a
216.702	0.135	433404	keystroke_r	r	n/a
216.807	0.119	433614	keystroke_e	e	n/a
217.632	0.0595	435264	keystroke_Key.enter	Key.enter	n/a
217.6965	11.4575	435393	prompt	n/a	bills memory appreciated email\n
218.6665	0.0895	437333	keystroke_b	b	n/a
218.9065	0.075	437813	keystroke_i	i	n/a
219.0715	0.0755	438143	keystroke_l	l	n/a
219.237	0.06	438474	keystroke_l	l	n/a
219.3865	0.0755	438773	keystroke_s	s	n/a
219.462	0.0895	438924	keystroke_Key.space	Key.space	n/a
219.6865	0.135	439373	keystroke_m	m	n/a
219.7465	0.0455	439493	keystroke_e	e	n/a
220.062	0.06	440124	keystroke_m	m	n/a
220.391	0.1055	440782	keystroke_o	o	n/a
220.5265	0.09	441053	keystroke_r	r	n/a
220.6015	0.0745	441203	keystroke_y	y	n/a
220.7665	0.105	441533	keystroke_Key.space	Key.space	n/a
221.697	0.0745	443394	keystroke_a	a	n/a
221.8765	0.0755	443753	keystroke_p	p	n/a
222.2065	0.09	444413	keystroke_r	r	n/a
222.7315	0.1205	445463	keystroke_\	\	n/a
223.0615	0.0595	446123	keystroke_p	p	n/a
223.466	0.06	446932	keystroke_\	\	n/a
224.1715	0.0755	448343	keystroke_Key.backspace	Key.backspace	n/a
224.366	0.06	448732	keystroke_Key.backspace	Key.backspace	n/a
224.8915	0.0455	449783	keystroke_Key.backspace	Key.backspace	n/a
225.5665	0.09	451133	keystroke_Key.backspace	Key.backspace	n/a
226.107	0.0895	452214	keystroke_p	p	n/a
226.2115	0.181	452423	keystroke_r	r	n/a
226.3315	0.1055	452663	keystroke_e	e	n/a
226.8565	0.12	453713	keystroke_c	c	n/a
226.916	0.0755	453832	keystroke_i	i	n/a
227.1865	0.135	454373	keystroke_a	a	n/a
227.367	0.1795	454734	keystroke_t	t	n/a
227.5315	0.0755	455063	keystroke_e	e	n/a
227.7265	0.06	455453	keystroke_d	d	n/a
227.8315	0.105	455663	keystroke_Key.space	Key.space	n/a
228.117	0.1045	456234	keystroke_e	e	n/a
228.3415	0.09	456683	keystroke_m	m	n/a
228.477	0.0895	456954	keystroke_a	a	n/a
228.5965	0.0605	457193	keystroke_i	i	n/a
228.7915	0.12	457583	keystroke_l	l	n/a
229.1065	0.045	458213	keystroke_Key.enter	Key.enter	n/a
229.17	8.715	458340	prompt	n/a	arrangement chambers font continually\n
229.931	0.091	459862	keystroke_a	a	n/a
230.142	0.075	460284	keystroke_r	r	n/a
230.306	0.09	460612	keystroke_r	r	n/a
230.412	0.119	460824	keystroke_a	a	n/a
230.5465	0.0905	461093	keystroke_n	n	n/a
230.6965	0.105	461393	keystroke_g	g	n/a
230.817	0.0595	461634	keystroke_e	e	n/a
230.9365	0.12	461873	keystroke_m	m	n/a
231.251	0.0905	462502	keystroke_Key.backspace	Key.backspace	n/a
231.477	0.044	462954	keystroke_Key.backspace	Key.backspace	n/a
232.3465	0.075	464693	keystroke_e	e	n/a
232.4665	0.09	464933	keystroke_m	m	n/a
232.6175	0.1195	465235	keystroke_e	e	n/a
232.7225	0.0895	465445	keystroke_n	n	n/a
232.842	0.105	465684	keystroke_t	t	n/a
233.096	0.0755	466192	keystroke_Key.space	Key.space	n/a
233.6215	0.0895	467243	keystroke_c	c	n/a
233.726	0.0905	467452	keystroke_h	h	n/a
233.862	0.105	467724	keystroke_a	a	n/a
234.1315	0.105	468263	keystroke_m	m	n/a
234.281	0.12	468562	keystroke_b	b	n/a
234.4165	0.1645	468833	keystroke_e	e	n/a
234.536	0.1655	469072	keystroke_r	r	n/a
234.6865	0.135	469373	keystroke_s	s	n/a
234.8215	0.12	469643	keystroke_Key.space	Key.space	n/a
235.212	0.0745	470424	keystroke_f	f	n/a
235.346	0.1505	470692	keystroke_o	o	n/a
235.482	0.1345	470964	keystroke_n	n	n/a
235.5865	0.135	471173	keystroke_t	t	n/a
235.7365	0.075	471473	keystroke_Key.space	Key.space	n/a
236.276	0.106	472552	keystroke_c	c	n/a
236.397	0.1795	472794	keystroke_o	o	n/a
236.531	0.136	473062	keystroke_n	n	n/a
236.6965	0.12	473393	keystroke_t	t	n/a
236.8005	0.075	473601	keystroke_i	i	n/a
236.9655	0.091	473931	keystroke_n	n	n/a
237.1465	0.0445	474293	keystroke_u	u	n/a
237.252	0.089	474504	keystroke_a	a	n/a
237.401	0.09	474802	keystroke_l	l	n/a
237.5665	0.1045	475133	keystroke_l	l	n/a
237.686	0.061	475372	keystroke_y	y	n/a
237.806	0.075	475612	keystroke_Key.enter	Key.enter	n/a
237.8885	9.6545	475777	prompt	n/a	recommendations jewel neither mechanical\n
239.097	0.119	478194	keystroke_r	r	n/a
239.2015	0.135	478403	keystroke_e	e	n/a
239.427	0.119	478854	keystroke_c	c	n/a
239.5315	0.09	479063	keystroke_o	o	n/a
239.861	0.0905	479722	keystroke_m	m	n/a
240.042	0.1045	480084	keystroke_m	m	n/a
240.1615	0.075	480323	keystroke_e	e	n/a
240.432	0.0745	480864	keystroke_n	n	n/a
240.5965	0.0595	481193	keystroke_d	d	n/a
240.807	0.1495	481614	keystroke_a	a	n/a
240.941	0.09	481882	keystroke_t	t	n/a
241.047	0.1645	482094	keystroke_i	i	n/a
241.226	0.18	482452	keystroke_o	o	n/a
241.5865	0.1205	483173	keystroke_n	n	n/a
241.751	0.0755	483502	keystroke_s	s	n/a
241.916	0.1055	483832	keystroke_Key.space	Key.space	n/a
242.5765	0.0595	485153	keystroke_j	j	n/a
242.682	0.075	485364	keystroke_e	e	n/a
243.0565	0.0755	486113	keystroke_w	w	n/a
243.296	0.0905	486592	keystroke_e	e	n/a
243.5065	0.1055	487013	keystroke_l	l	n/a
243.7615	0.06	487523	keystroke_Key.space	Key.space	n/a
243.9865	0.105	487973	keystroke_n	n	n/a
244.0915	0.135	488183	keystroke_e	e	n/a
244.2715	0.12	488543	keystroke_i	i	n/a
244.4215	0.0745	488843	keystroke_t	t	n/a
244.542	0.119	489084	keystroke_h	h	n/a
245.0815	0.1345	490163	keystroke_e	e	n/a
245.216	0.105	490432	keystroke_r	r	n/a
245.3665	0.1195	490733	keystroke_Key.space	Key.space	n/a
245.937	0.1345	491874	keystroke_m	m	n/a
246.057	0.12	492114	keystroke_e	e	n/a
246.1615	0.1195	492323	keystroke_c	c	n/a
246.342	0.1045	492684	keystroke_h	h	n/a
246.4765	0.0905	492953	keystroke_a	a	n/a
246.672	0.1495	493344	keystroke_n	n	n/a
246.8215	0.0905	493643	keystroke_i	i	n/a
247.0165	0.15	494033	keystroke_c	c	n/a
247.1365	0.12	494273	keystroke_a	a	n/a
247.2565	0.1055	494513	keystroke_l	l	n/a
247.4815	0.06	494963	keystroke_Key.enter	Key.enter	n/a
247.5465	6.747	495093	prompt	n/a	everyone's cedar dubai which\n
248.1715	0.105	496343	keystroke_e	e	n/a
248.3965	0.105	496793	keystroke_v	v	n/a
248.5315	0.135	497063	keystroke_e	e	n/a
248.6365	0.0895	497273	keystroke_r	r	n/a
249.057	0.075	498114	keystroke_y	y	n/a
249.1615	0.1495	498323	keystroke_o	o	n/a
249.297	0.1355	498594	keystroke_n	n	n/a
249.476	0.0905	498952	keystroke_e	e	n/a
249.836	0.1055	499672	keystroke_'	'	n/a
250.0315	0.105	500063	keystroke_s	s	n/a
250.2415	0.105	500483	keystroke_Key.space	Key.space	n/a
250.8865	0.1055	501773	keystroke_c	c	n/a
250.992	0.1195	501984	keystroke_e	e	n/a
251.2165	0.1505	502433	keystroke_d	d	n/a
251.3965	0.15	502793	keystroke_a	a	n/a
251.4865	0.1195	502973	keystroke_r	r	n/a
251.651	0.1045	503302	keystroke_Key.space	Key.space	n/a
252.207	0.1495	504414	keystroke_d	d	n/a
252.3865	0.105	504773	keystroke_u	u	n/a
252.5375	0.135	505075	keystroke_b	b	n/a
252.6565	0.105	505313	keystroke_a	a	n/a
252.866	0.015	505732	keystroke_i	i	n/a
252.9715	0.0905	505943	keystroke_Key.space	Key.space	n/a
253.331	0.106	506662	keystroke_w	w	n/a
253.497	0.104	506994	keystroke_h	h	n/a
253.6465	0.1045	507293	keystroke_i	i	n/a
253.707	0.0895	507414	keystroke_c	c	n/a
253.812	0.104	507624	keystroke_h	h	n/a
254.247	0.044	508494	keystroke_Key.enter	Key.enter	n/a
254.2975	8.6655	508595	prompt	n/a	medal debate letting episode\n
255.132	0.0895	510264	keystroke_m	m	n/a
255.252	0.0745	510504	keystroke_e	e	n/a
255.4315	0.1055	510863	keystroke_d	d	n/a
255.552	0.1195	511104	keystroke_a	a	n/a
255.7615	0.06	511523	keystroke_l	l	n/a
256.3165	0.09	512633	keystroke_Key.space	Key.space	n/a
257.396	0.045	514792	keystroke_d	d	n/a
257.5465	0.075	515093	keystroke_e	e	n/a
257.636	0.06	515272	keystroke_b	b	n/a
257.7565	0.135	515513	keystroke_a	a	n/a
257.8465	0.15	515693	keystroke_t	t	n/a
257.9365	0.1195	515873	keystroke_e	e	n/a
258.191	0.0755	516382	keystroke_Key.space	Key.space	n/a
258.4615	0.09	516923	keystroke_l	l	n/a
258.5365	0.135	517073	keystroke_e	e	n/a
258.6725	0.089	517345	keystroke_t	t	n/a
258.8365	0.0755	517673	keystroke_t	t	n/a
258.9415	0.135	517883	keystroke_i	i	n/a
259.062	0.135	518124	keystroke_n	n	n/a
259.1815	0.075	518363	keystroke_g	g	n/a
259.3015	0.075	518603	keystroke_Key.space	Key.space	n/a
260.157	0.075	520314	keystroke_e	e	n/a
260.7715	0.1055	521543	keystroke_p	p	n/a
260.967	0.0595	521934	keystroke_i	i	n/a
261.2215	0.075	522443	keystroke_d	d	n/a
261.9715	0.09	523943	keystroke_Key.backspace	Key.backspace	n/a
262.3165	0.09	524633	keystroke_s	s	n/a
262.451	0.1055	524902	keystroke_o	o	n/a
262.5265	0.0905	525053	keystroke_d	d	n/a
262.692	0.105	525384	keystroke_e	e	n/a
262.842	0.12	525684	keystroke_Key.enter	Key.enter	n/a
262.966	11.743	525932	prompt	n/a	specializing adventure computer stanford\n
263.6815	0.0895	527363	keystroke_s	s	n/a
263.862	0.12	527724	keystroke_p	p	n/a
263.9965	0.09	527993	keystroke_e	e	n/a
264.177	0.104	528354	keystroke_c	c	n/a
264.3415	0.0745	528683	keystroke_i	i	n/a
264.432	0.089	528864	keystroke_a	a	n/a
264.5665	0.0745	529133	keystroke_l	l	n/a
265.0015	0.075	530003	keystroke_z	z	n/a
265.4665	0.06	530933	keystroke_Key.backspace	Key.backspace	n/a
265.677	0.105	531354	keystroke_i	i	n/a
265.7965	0.09	531593	keystroke_z	z	n/a
265.917	0.224	531834	keystroke_i	i	n/a
266.0365	0.1645	532073	keystroke_n	n	n/a
266.186	0.106	532372	keystroke_g	g	n/a
266.3365	0.0895	532673	keystroke_Key.space	Key.space	n/a
266.637	0.075	533274	keystroke_a	a	n/a
266.832	0.059	533664	keystroke_d	d	n/a
267.087	0.135	534174	keystroke_v	v	n/a
267.223	0.1635	534446	keystroke_e	e	n/a
267.342	0.059	534684	keystroke_n	n	n/a
267.462	0.104	534924	keystroke_t	t	n/a
267.641	0.106	535282	keystroke_u	u	n/a
267.777	0.1495	535554	keystroke_r	r	n/a
267.866	0.1355	535732	keystroke_e	e	n/a
268.2715	0.09	536543	keystroke_Key.space	Key.space	n/a
268.8415	0.0595	537683	keystroke_c	c	n/a
268.946	0.106	537892	keystroke_o	o	n/a
269.2015	0.09	538403	keystroke_m	m	n/a
269.5015	0.075	539003	keystroke_p	p	n/a
269.6965	0.06	539393	keystroke_u	u	n/a
269.7865	0.105	539573	keystroke_t	t	n/a
269.8765	0.18	539753	keystroke_e	e	n/a
269.9815	0.12	539963	keystroke_r	r	n/a
270.0715	0.105	540143	keystroke_Key.space	Key.space	n/a
270.611	0.136	541222	keystroke_a	a	n/a
270.8965	0.1205	541793	keystroke_t	t	n/a
271.511	0.075	543022	keystroke_Key.backspace	Key.backspace	n/a
271.676	0.09	543352	keystroke_Key.backspace	Key.backspace	n/a
271.752	0.12	543504	keystroke_s	s	n/a
271.856	0.1055	543712	keystroke_t	t	n/a
271.9765	0.0895	543953	keystroke_a	a	n/a
272.082	0.06	544164	keystroke_n	n	n/a
272.531	0.061	545062	keystroke_d	d	n/a
273.581	0.105	547162	keystroke_Key.backspace	Key.backspace	n/a
274.002	0.089	548004	keystroke_f	f	n/a
274.136	0.09	548272	keystroke_o	o	n/a
274.271	0.0605	548542	keystroke_r	r	n/a
274.4665	0.09	548933	keystroke_d	d	n/a
274.662	0.0445	549324	keystroke_Key.enter	Key.enter	n/a
274.723	7.125	549446	prompt	n/a	vernon wants scuba banana\n
275.8165	0.0755	551633	keystroke_v	v	n/a
275.9065	0.15	551813	keystroke_e	e	n/a
276.0265	0.09	552053	keystroke_r	r	n/a
276.1915	0.105	552383	keystroke_n	n	n/a
276.3415	0.165	552683	keystroke_o	o	n/a
276.4765	0.105	552953	keystroke_n	n	n/a
276.7015	0.0895	553403	keystroke_Key.space	Key.space	n/a
276.8815	0.18	553763	keystroke_w	w	n/a
277.0315	0.1645	554063	keystroke_a	a	n/a
277.1515	0.12	554303	keystroke_n	n	n/a
277.2415	0.09	554483	keystroke_t	t	n/a
277.3915	0.0745	554783	keystroke_s	s	n/a
277.4365	0.0895	554873	keystroke_Key.space	Key.space	n/a
277.7065	0.0755	555413	keystroke_s	s	n/a
277.961	0.105	555922	keystroke_c	c	n/a
278.186	0.0755	556372	keystroke_u	u	n/a
278.3965	0.075	556793	keystroke_b	b	n/a
278.501	0.106	557002	keystroke_a	a	n/a
278.637	0.089	557274	keystroke_Key.space	Key.space	n/a
279.1465	0.0905	558293	keystroke_a	a	n/a
279.312	0.09	558624	keystroke_b	b	n/a
279.6115	0.045	559223	keystroke_Key.backspace	Key.backspace	n/a
279.7915	0.105	559583	keystroke_b	b	n/a
279.912	0.0895	559824	keystroke_a	a	n/a
280.3615	0.0905	560723	keystroke_Key.backspace	Key.backspace	n/a
280.5715	0.045	561143	keystroke_Key.backspace	Key.backspace	n/a
280.7365	0.0755	561473	keystroke_Key.backspace	Key.backspace	n/a
280.827	0.0895	561654	keystroke_b	b	n/a
280.932	0.104	561864	keystroke_a	a	n/a
281.066	0.09	562132	keystroke_n	n	n/a
281.246	0.0755	562492	keystroke_a	a	n/a
281.3815	0.0755	562763	keystroke_n	n	n/a
281.4865	0.06	562973	keystroke_a	a	n/a
281.7565	0.0895	563513	keystroke_Key.enter	Key.enter	n/a
281.8525	6.0405	563705	prompt	n/a	casinos para gets gothic\n
282.7465	0.135	565493	keystroke_c	c	n/a
282.926	0.136	565852	keystroke_a	a	n/a
283.047	0.135	566094	keystroke_s	s	n/a
283.347	0.105	566694	keystroke_i	i	n/a
283.6915	0.0745	567383	keystroke_n	n	n/a
283.826	0.09	567652	keystroke_o	o	n/a
283.962	0.074	567924	keystroke_s	s	n/a
284.201	0.015	568402	keystroke_Key.space	Key.space	n/a
284.6215	0.0895	569243	keystroke_p	p	n/a
284.741	0.135	569482	keystroke_a	a	n/a
284.8465	0.1195	569693	keystroke_r	r	n/a
285.0115	0.12	570023	keystroke_a	a	n/a
285.1605	0.12	570321	keystroke_Key.space	Key.space	n/a
285.972	0.0895	571944	keystroke_g	g	n/a
286.0765	0.12	572153	keystroke_e	e	n/a
286.1665	0.12	572333	keystroke_t	t	n/a
286.3015	0.12	572603	keystroke_s	s	n/a
286.4365	0.105	572873	keystroke_Key.space	Key.space	n/a
286.931	0.0905	573862	keystroke_g	g	n/a
287.1115	0.0745	574223	keystroke_o	o	n/a
287.202	0.089	574404	keystroke_t	t	n/a
287.3365	0.0745	574673	keystroke_h	h	n/a
287.561	0.091	575122	keystroke_i	i	n/a
287.6665	0.0745	575333	keystroke_c	c	n/a
287.876	0.015	575752	keystroke_Key.enter	Key.enter	n/a
287.8995	9.8195	575799	prompt	n/a	curtis experiencing university evidence\n
288.6715	0.045	577343	keystroke_c	c	n/a
288.8815	0.06	577763	keystroke_u	u	n/a
289.0165	0.06	578033	keystroke_r	r	n/a
289.1665	0.0905	578333	keystroke_t	t	n/a
289.257	0.075	578514	keystroke_i	i	n/a
289.3765	0.09	578753	keystroke_s	s	n/a
289.5115	0.075	579023	keystroke_Key.space	Key.space	n/a
290.0365	0.0595	580073	keystroke_e	e	n/a
290.246	0.1055	580492	keystroke_c	c	n/a
290.9665	0.09	581933	keystroke_Key.backspace	Key.backspace	n/a
291.252	0.12	582504	keystroke_x	x	n/a
291.8515	0.09	583703	keystroke_p	p	n/a
292.0905	0.1515	584181	keystroke_e	e	n/a
292.181	0.106	584362	keystroke_r	r	n/a
292.4815	0.045	584963	keystroke_i	i	n/a
292.6315	0.075	585263	keystroke_e	e	n/a
292.766	0.046	585532	keystroke_n	n	n/a
292.826	0.105	585652	keystroke_c	c	n/a
292.961	0.15	585922	keystroke_i	i	n/a
293.0965	0.1045	586193	keystroke_n	n	n/a
293.1565	0.12	586313	keystroke_g	g	n/a
293.3215	0.0745	586643	keystroke_Key.space	Key.space	n/a
294.192	0.059	588384	keystroke_u	u	n/a
294.476	0.09	588952	keystroke_n	n	n/a
294.867	0.0745	589734	keystroke_i	i	n/a
295.0165	0.12	590033	keystroke_v	v	n/a
295.227	0.105	590454	keystroke_e	e	n/a
295.302	0.119	590604	keystroke_r	r	n/a
295.467	0.1645	590934	keystroke_s	s	n/a
295.6465	0.075	591293	keystroke_i	i	n/a
295.7515	0.075	591503	keystroke_t	t	n/a
295.932	0.0595	591864	keystroke_y	y	n/a
295.992	0.1345	591984	keystroke_Key.space	Key.space	n/a
296.4115	0.105	592823	keystroke_e	e	n/a
296.5915	0.1355	593183	keystroke_v	v	n/a
296.8465	0.06	593693	keystroke_i	i	n/a
296.9815	0.06	593963	keystroke_d	d	n/a
297.1625	0.059	594325	keystroke_e	e	n/a
297.2365	0.075	594473	keystroke_n	n	n/a
297.4165	0.15	594833	keystroke_c	c	n/a
297.5215	0.09	595043	keystroke_e	e	n/a
297.6415	0.075	595283	keystroke_Key.enter	Key.enter	n/a
297.7355	7.768	595471	prompt	n/a	things installed covering political\n
298.3765	0.075	596753	keystroke_t	t	n/a
298.4965	0.105	596993	keystroke_h	h	n/a
298.6315	0.15	597263	keystroke_i	i	n/a
298.737	0.1345	597474	keystroke_n	n	n/a
298.8265	0.105	597653	keystroke_g	g	n/a
298.976	0.0905	597952	keystroke_s	s	n/a
299.3065	0.0745	598613	keystroke_Key.space	Key.space	n/a
299.471	0.1205	598942	keystroke_i	i	n/a
299.622	0.105	599244	keystroke_n	n	n/a
299.712	0.1045	599424	keystroke_s	s	n/a
299.771	0.135	599542	keystroke_t	t	n/a
299.891	0.106	599782	keystroke_a	a	n/a
299.967	0.059	599934	keystroke_l	l	n/a
300.266	0.045	600532	keystroke_e	e	n/a
300.596	0.09	601192	keystroke_Key.backspace	Key.backspace	n/a
300.896	0.12	601792	keystroke_l	l	n/a
301.031	0.0605	602062	keystroke_e	e	n/a
301.1965	0.075	602393	keystroke_d	d	n/a
301.3015	0.1045	602603	keystroke_Key.space	Key.space	n/a
302.111	0.121	604222	keystroke_c	c	n/a
302.2615	0.09	604523	keystroke_o	o	n/a
302.4115	0.075	604823	keystroke_v	v	n/a
302.5165	0.1795	605033	keystroke_e	e	n/a
302.651	0.09	605302	keystroke_r	r	n/a
302.681	0.225	605362	keystroke_i	i	n/a
302.877	0.0895	605754	keystroke_n	n	n/a
302.967	0.0895	605934	keystroke_g	g	n/a
303.1015	0.09	606203	keystroke_Key.space	Key.space	n/a
303.7765	0.2105	607553	keystroke_p	p	n/a
304.0015	0.0305	608003	keystroke_o	o	n/a
304.197	0.0295	608394	keystroke_l	l	n/a
304.4365	0.075	608873	keystroke_i	i	n/a
304.527	0.074	609054	keystroke_t	t	n/a
304.691	0.06	609382	keystroke_i	i	n/a
304.7665	0.15	609533	keystroke_c	c	n/a
304.9015	0.1055	609803	keystroke_a	a	n/a
304.991	0.075	609982	keystroke_l	l	n/a
305.4115	0.09	610823	keystroke_Key.enter	Key.enter	n/a
305.508	6.61	611016	prompt	n/a	coating factors angeles coffee\n
306.341	0.1055	612682	keystroke_c	c	n/a
306.716	0.105	613432	keystroke_o	o	n/a
306.8365	0.105	613673	keystroke_a	a	n/a
306.9265	0.0905	613853	keystroke_t	t	n/a
307.0015	0.18	614003	keystroke_i	i	n/a
307.107	0.1345	614214	keystroke_n	n	n/a
307.2565	0.09	614513	keystroke_g	g	n/a
307.3765	0.09	614753	keystroke_Key.space	Key.space	n/a
307.6765	0.075	615353	keystroke_f	f	n/a
307.8865	0.12	615773	keystroke_a	a	n/a
308.0215	0.1205	616043	keystroke_c	c	n/a
308.5465	0.075	617093	keystroke_t	t	n/a
309.2055	0.03	618411	keystroke_o	o	n/a
309.252	0.1195	618504	keystroke_r	r	n/a
309.5515	0.09	619103	keystroke_s	s	n/a
309.7015	0.105	619403	keystroke_Key.space	Key.space	n/a
309.9415	0.0895	619883	keystroke_a	a	n/a
310.0915	0.075	620183	keystroke_n	n	n/a
310.3315	0.12	620663	keystroke_g	g	n/a
310.4065	0.105	620813	keystroke_e	e	n/a
310.5265	0.09	621053	keystroke_l	l	n/a
310.6615	0.15	621323	keystroke_e	e	n/a
310.7665	0.1205	621533	keystroke_s	s	n/a
310.9465	0.105	621893	keystroke_Key.space	Key.space	n/a
311.2165	0.075	622433	keystroke_c	c	n/a
311.3515	0.0895	622703	keystroke_o	o	n/a
311.486	0.0755	622972	keystroke_f	f	n/a
311.6365	0.0905	623273	keystroke_f	f	n/a
311.742	0.09	623484	keystroke_e	e	n/a
311.9065	0.06	623813	keystroke_e	e	n/a
312.0565	0.06	624113	keystroke_Key.enter	Key.enter	n/a
312.1225	9.356	624245	prompt	n/a	rooms clicks minolta noble\n
312.866	0.0905	625732	keystroke_r	r	n/a
313.0165	0.0895	626033	keystroke_o	o	n/a
313.6615	0.09	627323	keystroke_0	0	n/a
313.9465	0.12	627893	keystroke_m	m	n/a
314.1265	0.09	628253	keystroke_s	s	n/a
314.426	0.075	628852	keystroke_Key.backspace	Key.backspace	n/a
314.5915	0.0745	629183	keystroke_Key.backspace	Key.backspace	n/a
314.756	0.075	629512	keystroke_Key.backspace	Key.backspace	n/a
315.041	0.0895	630082	keystroke_o	o	n/a
315.3855	0.0905	630771	keystroke_m	m	n/a
315.866	0.1055	631732	keystroke_s	s	n/a
316.2715	0.09	632543	keystroke_Key.space	Key.space	n/a
316.4225	0.1195	632845	keystroke_c	c	n/a
316.527	0.104	633054	keystroke_l	l	n/a
316.6915	0.075	633383	keystroke_i	i	n/a
316.797	0.0745	633594	keystroke_c	c	n/a
316.9165	0.06	633833	keystroke_k	k	n/a
317.1715	0.0905	634343	keystroke_s	s	n/a
317.3665	0.09	634733	keystroke_Key.space	Key.space	n/a
317.5765	0.0895	635153	keystroke_m	m	n/a
317.7715	0.0895	635543	keystroke_o	o	n/a
317.951	0.0905	635902	keystroke_n	n	n/a
318.3865	0.105	636773	keystroke_o	o	n/a
318.612	0.119	637224	keystroke_l	l	n/a
319.0315	0.0895	638063	keystroke_t	t	n/a
319.1665	0.075	638333	keystroke_a	a	n/a
319.331	0.1055	638662	keystroke_Key.space	Key.space	n/a
319.7515	0.0755	639503	keystroke_b	b	n/a
319.9015	0.0905	639803	keystroke_o	o	n/a
320.2015	0.06	640403	keystroke_Key.backspace	Key.backspace	n/a
320.3665	0.075	640733	keystroke_Key.backspace	Key.backspace	n/a
320.6215	0.06	641243	keystroke_n	n	n/a
320.847	0.1195	641694	keystroke_o	o	n/a
320.9965	0.075	641993	keystroke_b	b	n/a
321.0865	0.105	642173	keystroke_l	l	n/a
321.267	0.015	642534	keystroke_e	e	n/a
321.386	0.09	642772	keystroke_Key.enter	Key.enter	n/a
321.4955	7.932	642991	prompt	n/a	oriented blvd split farmer\n
322.466	0.1205	644932	keystroke_o	o	n/a
322.571	0.0895	645142	keystroke_r	r	n/a
322.6465	0.105	645293	keystroke_e	e	n/a
323.0505	0.0605	646101	keystroke_Key.backspace	Key.backspace	n/a
323.2465	0.075	646493	keystroke_i	i	n/a
323.3365	0.1355	646673	keystroke_e	e	n/a
323.472	0.074	646944	keystroke_n	n	n/a
323.561	0.15	647122	keystroke_t	t	n/a
323.6665	0.09	647333	keystroke_e	e	n/a
323.861	0.0755	647722	keystroke_d	d	n/a
323.9665	0.105	647933	keystroke_Key.space	Key.space	n/a
324.7305	0.09	649461	keystroke_b	b	n/a
324.9115	0.075	649823	keystroke_l	l	n/a
325.0905	0.106	650181	keystroke_v	v	n/a
325.332	0.0895	650664	keystroke_d	d	n/a
325.4515	0.12	650903	keystroke_Key.space	Key.space	n/a
326.2465	0.09	652493	keystroke_s	s	n/a
327.071	0.0905	654142	keystroke_p	p	n/a
327.266	0.106	654532	keystroke_l	l	n/a
327.506	0.075	655012	keystroke_i	i	n/a
327.6415	0.09	655283	keystroke_t	t	n/a
327.8065	0.0895	655613	keystroke_Key.space	Key.space	n/a
328.2415	0.105	656483	keystroke_f	f	n/a
328.3615	0.179	656723	keystroke_a	a	n/a
328.5265	0.105	657053	keystroke_r	r	n/a
328.7655	0.091	657531	keystroke_m	m	n/a
328.8405	0.166	657681	keystroke_e	e	n/a
328.9315	0.105	657863	keystroke_r	r	n/a
329.3515	0.075	658703	keystroke_Key.enter	Key.enter	n/a
329.4315	7.916	658863	prompt	n/a	taxi statement thousand protest\n
330.2365	0.09	660473	keystroke_t	t	n/a
330.8955	0.136	661791	keystroke_a	a	n/a
331.2265	0.104	662453	keystroke_x	x	n/a
331.3615	0.1045	662723	keystroke_i	i	n/a
331.496	0.105	662992	keystroke_Key.space	Key.space	n/a
332.7715	0.135	665543	keystroke_s	s	n/a
332.8915	0.135	665783	keystroke_t	t	n/a
333.0115	0.165	666023	keystroke_a	a	n/a
333.1165	0.135	666233	keystroke_t	t	n/a
333.446	0.0905	666892	keystroke_e	e	n/a
333.686	0.0755	667372	keystroke_m	m	n/a
333.791	0.0905	667582	keystroke_e	e	n/a
333.9255	0.061	667851	keystroke_n	n	n/a
334.0165	0.075	668033	keystroke_t	t	n/a
334.1655	0.091	668331	keystroke_Key.space	Key.space	n/a
334.331	0.0755	668662	keystroke_t	t	n/a
334.4815	0.09	668963	keystroke_h	h	n/a
334.6315	0.1645	669263	keystroke_o	o	n/a
334.872	0.1045	669744	keystroke_u	u	n/a
335.0065	0.1345	670013	keystroke_s	s	n/a
335.126	0.135	670252	keystroke_a	a	n/a
335.2465	0.0755	670493	keystroke_n	n	n/a
335.546	0.1205	671092	keystroke_c	c	n/a
335.6215	0.1355	671243	keystroke_e	e	n/a
335.7715	0.135	671543	keystroke_Key.space	Key.space	n/a
336.071	0.0905	672142	keystroke_p	p	n/a
336.2065	0.09	672413	keystroke_r	r	n/a
336.3715	0.09	672743	keystroke_o	o	n/a
336.476	0.0905	672952	keystroke_t	t	n/a
336.6415	0.09	673283	keystroke_e	e	n/a
336.9555	0.166	673911	keystroke_s	s	n/a
337.1365	0.09	674273	keystroke_t	t	n/a
337.2565	0.09	674513	keystroke_Key.enter	Key.enter	n/a
337.3505	9.838	674701	prompt	n/a	unit notebooks substitute toronto\n
338.7565	0.1045	677513	keystroke_u	u	n/a
339.071	0.075	678142	keystroke_n	n	n/a
339.2215	0.09	678443	keystroke_i	i	n/a
339.3265	0.075	678653	keystroke_t	t	n/a
339.416	0.1045	678832	keystroke_Key.space	Key.space	n/a
340.811	0.1205	681622	keystroke_n	n	n/a
341.066	0.1205	682132	keystroke_o	o	n/a
341.1715	0.1945	682343	keystroke_t	t	n/a
341.336	0.1355	682672	keystroke_e	e	n/a
341.7255	0.075	683451	keystroke_b	b	n/a
341.8465	0.075	683693	keystroke_o	o	n/a
342.0265	0.089	684053	keystroke_o	o	n/a
342.1905	0.106	684381	keystroke_k	k	n/a
342.311	0.0905	684622	keystroke_s	s	n/a
342.4465	0.105	684893	keystroke_Key.space	Key.space	n/a
343.0165	0.0895	686033	keystroke_s	s	n/a
343.151	0.09	686302	keystroke_u	u	n/a
343.3765	0.0595	686753	keystroke_b	b	n/a
343.511	0.12	687022	keystroke_s	s	n/a
343.736	0.105	687472	keystroke_t	t	n/a
343.871	0.09	687742	keystroke_i	i	n/a
344.111	0.0905	688222	keystroke_t	t	n/a
344.2915	0.03	688583	keystroke_u	u	n/a
344.6515	0.1195	689303	keystroke_t	t	n/a
344.7415	0.0895	689483	keystroke_e	e	n/a
344.876	0.12	689752	keystroke_Key.space	Key.space	n/a
345.9255	0.09	691851	keystroke_t	t	n/a
346.0605	0.09	692121	keystroke_o	o	n/a
346.2105	0.0605	692421	keystroke_r	r	n/a
346.391	0.061	692782	keystroke_o	o	n/a
346.571	0.1195	693142	keystroke_n	n	n/a
346.7055	0.12	693411	keystroke_t	t	n/a
346.8565	0.1045	693713	keystroke_o	o	n/a
347.0965	0.0895	694193	keystroke_Key.enter	Key.enter	n/a
347.2055	14.7275	694411	prompt	n/a	surprising believes financial concord\n
347.8315	0.105	695663	keystroke_s	s	n/a
348.146	0.0745	696292	keystroke_u	u	n/a
348.3865	0.09	696773	keystroke_r	r	n/a
348.8355	0.09	697671	keystroke_p	p	n/a
349.0315	0.089	698063	keystroke_r	r	n/a
349.2565	0.0745	698513	keystroke_i	i	n/a
349.5105	0.076	699021	keystroke_s	s	n/a
349.617	0.1795	699234	keystroke_i	i	n/a
349.7515	0.1505	699503	keystroke_n	n	n/a
349.8855	0.076	699771	keystroke_g	g	n/a
350.1565	0.09	700313	keystroke_Key.space	Key.space	n/a
350.7105	0.135	701421	keystroke_b	b	n/a
350.8605	0.09	701721	keystroke_e	e	n/a
350.996	0.0905	701992	keystroke_l	l	n/a
351.1755	0.0605	702351	keystroke_i	i	n/a
351.191	0.12	702382	keystroke_e	e	n/a
351.446	0.15	702892	keystroke_v	v	n/a
351.551	0.15	703102	keystroke_e	e	n/a
351.761	0.105	703522	keystroke_s	s	n/a
352.121	0.105	704242	keystroke_Key.space	Key.space	n/a
352.2715	0.0745	704543	keystroke_f	f	n/a
352.3615	0.1195	704723	keystroke_i	i	n/a
352.496	0.1205	704992	keystroke_n	n	n/a
352.7215	0.105	705443	keystroke_i	i	n/a
352.946	0.044	705892	keystroke_n	n	n/a
353.261	0.075	706522	keystroke_Key.backspace	Key.backspace	n/a
353.4265	0.09	706853	keystroke_a	a	n/a
353.546	0.105	707092	keystroke_n	n	n/a
353.667	0.104	707334	keystroke_c	c	n/a
353.801	0.0605	707602	keystroke_i	i	n/a
353.9965	0.1045	707993	keystroke_a	a	n/a
354.1155	0.076	708231	keystroke_l	l	n/a
354.4765	0.0745	708953	keystroke_Key.backspace	Key.backspace	n/a
354.7765	0.03	709553	keystroke_Key.backspace	Key.backspace	n/a
354.9105	0.06	709821	keystroke_Key.backspace	Key.backspace	n/a
355.0615	0.089	710123	keystroke_Key.backspace	Key.backspace	n/a
355.2255	0.0755	710451	keystroke_Key.backspace	Key.backspace	n/a
355.4205	0.076	710841	keystroke_Key.backspace	Key.backspace	n/a
355.7805	0.06	711561	keystroke_Key.backspace	Key.backspace	n/a
356.861	0.1045	713722	keystroke_a	a	n/a
357.101	0.0605	714202	keystroke_n	n	n/a
357.7305	0.0905	715461	keystroke_c	c	n/a
357.9855	0.0755	715971	keystroke_i	i	n/a
358.121	0.09	716242	keystroke_a	a	n/a
358.256	0.09	716512	keystroke_l	l	n/a
358.466	0.075	716932	keystroke_Key.space	Key.space	n/a
358.8405	0.075	717681	keystroke_c	c	n/a
358.992	0.0735	717984	keystroke_o	o	n/a
359.1715	0.0745	718343	keystroke_r	r	n/a
359.5005	0.09	719001	keystroke_c	c	n/a
359.6205	0.091	719241	keystroke_o	o	n/a
359.801	0.0745	719602	keystroke_r	r	n/a
360.2505	0.0605	720501	keystroke_Key.backspace	Key.backspace	n/a
360.401	0.0745	720802	keystroke_Key.backspace	Key.backspace	n/a
360.566	0.0895	721132	keystroke_Key.backspace	Key.backspace	n/a
360.7905	0.045	721581	keystroke_Key.backspace	Key.backspace	n/a
361.0455	0.1205	722091	keystroke_n	n	n/a
361.2255	0.061	722451	keystroke_c	c	n/a
361.301	0.0905	722602	keystroke_o	o	n/a
361.4955	0.091	722991	keystroke_r	r	n/a
361.7055	0.075	723411	keystroke_d	d	n/a
361.8705	0.0605	723741	keystroke_Key.enter	Key.enter	n/a
361.9455	10.728	723891	prompt	n/a	estimates perth warm notification\n
362.951	0.135	725902	keystroke_s	s	n/a
363.3555	0.0905	726711	keystroke_Key.backspace	Key.backspace	n/a
363.4315	0.2695	726863	keystroke_e	e	n/a
363.5665	0.1645	727133	keystroke_s	s	n/a
363.716	0.1645	727432	keystroke_t	t	n/a
363.8955	0.091	727791	keystroke_i	i	n/a
364.121	0.0595	728242	keystroke_m	m	n/a
364.2255	0.165	728451	keystroke_a	a	n/a
364.406	0.0295	728812	keystroke_r	r	n/a
364.571	0.15	729142	keystroke_t	t	n/a
364.856	0.075	729712	keystroke_Key.backspace	Key.backspace	n/a
365.021	0.105	730042	keystroke_Key.backspace	Key.backspace	n/a
365.096	0.1195	730192	keystroke_t	t	n/a
365.111	0.195	730222	keystroke_e	e	n/a
365.231	0.105	730462	keystroke_s	s	n/a
365.411	0.0895	730822	keystroke_Key.space	Key.space	n/a
366.251	0.105	732502	keystroke_p	p	n/a
366.446	0.15	732892	keystroke_e	e	n/a
366.5665	0.0895	733133	keystroke_r	r	n/a
366.731	0.09	733462	keystroke_t	t	n/a
366.806	0.09	733612	keystroke_h	h	n/a
366.941	0.09	733882	keystroke_Key.space	Key.space	n/a
367.3615	0.1945	734723	keystroke_w	w	n/a
367.541	0.195	735082	keystroke_a	a	n/a
367.706	0.09	735412	keystroke_t	t	n/a
368.156	0.015	736312	keystroke_Key.backspace	Key.backspace	n/a
368.291	0.075	736582	keystroke_Key.backspace	Key.backspace	n/a
368.396	0.09	736792	keystroke_r	r	n/a
368.5605	0.1055	737121	keystroke_m	m	n/a
369.0565	0.0295	738113	keystroke_Key.backspace	Key.backspace	n/a
369.191	0.0905	738382	keystroke_Key.backspace	Key.backspace	n/a
369.2815	0.119	738563	keystroke_a	a	n/a
369.3565	0.134	738713	keystroke_r	r	n/a
369.4605	0.091	738921	keystroke_m	m	n/a
369.7605	0.075	739521	keystroke_Key.space	Key.space	n/a
370.706	0.1355	741412	keystroke_n	n	n/a
370.871	0.09	741742	keystroke_o	o	n/a
370.9915	0.089	741983	keystroke_t	t	n/a
371.1255	0.0605	742251	keystroke_i	i	n/a
371.2455	0.0755	742491	keystroke_f	f	n/a
371.3505	0.061	742701	keystroke_i	i	n/a
371.531	0.12	743062	keystroke_c	c	n/a
371.6655	0.1805	743331	keystroke_a	a	n/a
371.8305	0.1055	743661	keystroke_t	t	n/a
371.9205	0.195	743841	keystroke_i	i	n/a
372.0705	0.225	744141	keystroke_o	o	n/a
372.281	0.075	744562	keystroke_n	n	n/a
372.596	0.074	745192	keystroke_Key.enter	Key.enter	n/a
372.69	8.2625	745380	prompt	n/a	empirical booth automobiles moms\n
373.511	0.09	747022	keystroke_e	e	n/a
373.646	0.1055	747292	keystroke_m	m	n/a
373.961	0.149	747922	keystroke_p	p	n/a
374.171	0.0895	748342	keystroke_i	i	n/a
374.3065	0.059	748613	keystroke_r	r	n/a
374.4705	0.1055	748941	keystroke_i	i	n/a
374.621	0.135	749242	keystroke_c	c	n/a
374.726	0.1055	749452	keystroke_a	a	n/a
374.966	0.09	749932	keystroke_l	l	n/a
375.161	0.06	750322	keystroke_Key.space	Key.space	n/a
375.5355	0.0755	751071	keystroke_b	b	n/a
375.686	0.075	751372	keystroke_o	o	n/a
375.851	0.075	751702	keystroke_o	o	n/a
375.941	0.06	751882	keystroke_t	t	n/a
376.046	0.075	752092	keystroke_h	h	n/a
376.166	0.0595	752332	keystroke_Key.space	Key.space	n/a
376.691	0.12	753382	keystroke_a	a	n/a
376.946	0.09	753892	keystroke_u	u	n/a
377.051	0.075	754102	keystroke_t	t	n/a
377.171	0.091	754342	keystroke_o	o	n/a
377.7705	0.076	755541	keystroke_m	m	n/a
377.9955	0.0455	755991	keystroke_i	i	n/a
378.461	0.045	756922	keystroke_Key.backspace	Key.backspace	n/a
378.6865	0.1195	757373	keystroke_o	o	n/a
378.821	0.0595	757642	keystroke_b	b	n/a
378.9405	0.09	757881	keystroke_i	i	n/a
379.1515	0.1045	758303	keystroke_l	l	n/a
379.316	0.1345	758632	keystroke_e	e	n/a
379.421	0.1055	758842	keystroke_s	s	n/a
379.631	0.09	759262	keystroke_Key.space	Key.space	n/a
380.171	0.1055	760342	keystroke_m	m	n/a
380.381	0.1345	760762	keystroke_o	o	n/a
380.5755	0.0905	761151	keystroke_m	m	n/a
380.71	0.076	761420	keystroke_s	s	n/a
380.876	0.075	761752	keystroke_Key.enter	Key.enter	n/a
380.9585	7.614	761917	prompt	n/a	cisco beautiful bumper rescue\n
382.061	0.12	764122	keystroke_c	c	n/a
382.181	0.0755	764362	keystroke_i	i	n/a
382.286	0.105	764572	keystroke_s	s	n/a
382.526	0.1055	765052	keystroke_c	c	n/a
382.6465	0.1045	765293	keystroke_o	o	n/a
382.7955	0.0905	765591	keystroke_Key.space	Key.space	n/a
383.561	0.045	767122	keystroke_b	b	n/a
383.591	0.1655	767182	keystroke_e	e	n/a
383.666	0.135	767332	keystroke_a	a	n/a
383.831	0.09	767662	keystroke_u	u	n/a
383.951	0.074	767902	keystroke_t	t	n/a
384.07	0.091	768140	keystroke_i	i	n/a
384.206	0.045	768412	keystroke_f	f	n/a
384.401	0.105	768802	keystroke_u	u	n/a
384.6715	0.1045	769343	keystroke_l	l	n/a
385.196	0.09	770392	keystroke_Key.space	Key.space	n/a
385.481	0.075	770962	keystroke_b	b	n/a
385.646	0.09	771292	keystroke_u	u	n/a
385.916	0.09	771832	keystroke_m	m	n/a
386.1715	0.0895	772343	keystroke_p	p	n/a
386.306	0.15	772612	keystroke_e	e	n/a
386.412	0.1035	772824	keystroke_r	r	n/a
386.5455	0.1045	773091	keystroke_Key.space	Key.space	n/a
387.3855	0.106	774771	keystroke_r	r	n/a
387.445	0.165	774890	keystroke_e	e	n/a
387.5655	0.105	775131	keystroke_s	s	n/a
388	0.09	776000	keystroke_c	c	n/a
388.1215	0.0585	776243	keystroke_u	u	n/a
388.361	0.075	776722	keystroke_e	e	n/a
388.495	0.0755	776990	keystroke_Key.enter	Key.enter	n/a
388.576	7.797	777152	prompt	n/a	slideshow whilst elections basic\n
389.2605	0.06	778521	keystroke_s	s	n/a
389.3505	0.06	778701	keystroke_l	l	n/a
389.4855	0.0755	778971	keystroke_i	i	n/a
389.7265	0.0745	779453	keystroke_d	d	n/a
389.936	0.105	779872	keystroke_e	e	n/a
390.175	0.091	780350	keystroke_s	s	n/a
390.28	0.1215	780560	keystroke_h	h	n/a
390.446	0.0595	780892	keystroke_o	o	n/a
390.476	0.0895	780952	keystroke_w	w	n/a
390.655	0.091	781310	keystroke_Key.space	Key.space	n/a
390.941	0.09	781882	keystroke_w	w	n/a
391.0905	0.1055	782181	keystroke_h	h	n/a
391.4355	0.075	782871	keystroke_i	i	n/a
391.6005	0.105	783201	keystroke_l	l	n/a
391.841	0.1195	783682	keystroke_s	s	n/a
391.9305	0.1055	783861	keystroke_t	t	n/a
392.096	0.12	784192	keystroke_Key.space	Key.space	n/a
392.561	0.075	785122	keystroke_e	e	n/a
392.7405	0.06	785481	keystroke_l	l	n/a
392.831	0.1055	785662	keystroke_e	e	n/a
393.0405	0.105	786081	keystroke_c	c	n/a
393.296	0.09	786592	keystroke_t	t	n/a
393.3705	0.1505	786741	keystroke_i	i	n/a
393.445	0.196	786890	keystroke_o	o	n/a
393.596	0.09	787192	keystroke_n	n	n/a
393.73	0.091	787460	keystroke_s	s	n/a
393.8805	0.1195	787761	keystroke_Key.space	Key.space	n/a
394.18	0.091	788360	keystroke_b	b	n/a
394.316	0.135	788632	keystroke_a	a	n/a
395.081	0.045	790162	keystroke_d	d	n/a
395.681	0.0895	791362	keystroke_Key.backspace	Key.backspace	n/a
395.816	0.0895	791632	keystroke_s	s	n/a
395.921	0.0895	791842	keystroke_i	i	n/a
396.0855	0.121	792171	keystroke_c	c	n/a
396.3105	0.06	792621	keystroke_Key.enter	Key.enter	n/a
396.387	7.71	792774	prompt	n/a	reunion gardening track reduction\n
397.2555	0.1205	794511	keystroke_r	r	n/a
397.361	0.12	794722	keystroke_e	e	n/a
397.6905	0.075	795381	keystroke_u	u	n/a
397.9305	0.09	795861	keystroke_n	n	n/a
398.261	0.1495	796522	keystroke_i	i	n/a
398.3655	0.1805	796731	keystroke_o	o	n/a
398.5015	0.2095	797003	keystroke_n	n	n/a
398.755	0.1505	797510	keystroke_Key.space	Key.space	n/a
399.3855	0.2105	798771	keystroke_g	g	n/a
399.5965	0.0745	799193	keystroke_a	a	n/a
399.6855	0.105	799371	keystroke_r	r	n/a
399.9115	0.059	799823	keystroke_d	d	n/a
400.0605	0.0755	800121	keystroke_e	e	n/a
400.15	0.106	800300	keystroke_n	n	n/a
400.345	0.121	800690	keystroke_i	i	n/a
400.4805	0.106	800961	keystroke_n	n	n/a
400.616	0.06	801232	keystroke_g	g	n/a
400.721	0.0895	801442	keystroke_Key.space	Key.space	n/a
400.946	0.195	801892	keystroke_t	t	n/a
401.096	0.15	802192	keystroke_r	r	n/a
401.231	0.165	802462	keystroke_a	a	n/a
401.411	0.105	802822	keystroke_c	c	n/a
401.561	0.0895	803122	keystroke_k	k	n/a
401.816	0.0745	803632	keystroke_Key.space	Key.space	n/a
402.4905	0.1655	804981	keystroke_r	r	n/a
402.6255	0.09	805251	keystroke_e	e	n/a
402.881	0.0745	805762	keystroke_d	d	n/a
403.1355	0.015	806271	keystroke_u	u	n/a
403.1815	0.089	806363	keystroke_c	c	n/a
403.466	0.0595	806932	keystroke_t	t	n/a
403.5105	0.225	807021	keystroke_i	i	n/a
403.6755	0.15	807351	keystroke_o	o	n/a
403.7955	0.1055	807591	keystroke_n	n	n/a
404.0205	0.075	808041	keystroke_Key.enter	Key.enter	n/a
404.0995	17.789	808199	prompt	n/a	third nominations guarantee peterson\n
404.7255	0.09	809451	keystroke_t	t	n/a
404.861	0.1045	809722	keystroke_h	h	n/a
405.0705	0.105	810141	keystroke_i	i	n/a
405.2055	0.0755	810411	keystroke_r	r	n/a
405.686	0.0745	811372	keystroke_d	d	n/a
405.8655	0.09	811731	keystroke_Key.space	Key.space	n/a
406.9005	0.0905	813801	keystroke_n	n	n/a
407.0665	0.1035	814133	keystroke_o	o	n/a
407.5905	0.09	815181	keystroke_i	i	n/a
407.7715	0.09	815543	keystroke_n	n	n/a
407.936	0.105	815872	keystroke_a	a	n/a
407.996	0.12	815992	keystroke_t	t	n/a
408.131	0.135	816262	keystroke_i	i	n/a
408.221	0.165	816442	keystroke_o	o	n/a
408.386	0.075	816772	keystroke_n	n	n/a
408.476	0.09	816952	keystroke_s	s	n/a
408.581	0.105	817162	keystroke_Key.space	Key.space	n/a
409.166	0.059	818332	keystroke_g	g	n/a
409.66	0.1205	819320	keystroke_u	u	n/a
409.8855	0.15	819771	keystroke_r	r	n/a
410.0505	0.105	820101	keystroke_a	a	n/a
410.276	0.06	820552	keystroke_n	n	n/a
411.176	0.09	822352	keystroke_t	t	n/a
411.461	0.0745	822922	keystroke_e	e	n/a
411.6105	0.0905	823221	keystroke_e	e	n/a
412.001	0.06	824002	keystroke_Key.backspace	Key.backspace	n/a
412.211	0.045	824422	keystroke_Key.backspace	Key.backspace	n/a
412.3455	0.0745	824691	keystroke_Key.backspace	Key.backspace	n/a
412.526	0.03	825052	keystroke_Key.backspace	Key.backspace	n/a
412.631	0.059	825262	keystroke_Key.backspace	Key.backspace	n/a
412.78	0.06	825560	keystroke_Key.backspace	Key.backspace	n/a
412.915	0.06	825830	keystroke_Key.backspace	Key.backspace	n/a
413.065	0.06	826130	keystroke_Key.backspace	Key.backspace	n/a
413.215	0.0755	826430	keystroke_Key.backspace	Key.backspace	n/a
413.351	0.074	826702	keystroke_Key.backspace	Key.backspace	n/a
413.501	0.089	827002	keystroke_Key.backspace	Key.backspace	n/a
413.6505	0.0755	827301	keystroke_Key.backspace	Key.backspace	n/a
413.816	0.06	827632	keystroke_Key.backspace	Key.backspace	n/a
413.966	0.074	827932	keystroke_Key.backspace	Key.backspace	n/a
414.131	0.075	828262	keystroke_Key.backspace	Key.backspace	n/a
414.2955	0.0745	828591	keystroke_Key.backspace	Key.backspace	n/a
414.491	0.074	828982	keystroke_Key.backspace	Key.backspace	n/a
415.1055	0.0755	830211	keystroke_m	m	n/a
415.331	0.059	830662	keystroke_i	i	n/a
415.45	0.091	830900	keystroke_n	n	n/a
415.586	0.1045	831172	keystroke_a	a	n/a
415.675	0.106	831350	keystroke_t	t	n/a
415.765	0.1355	831530	keystroke_i	i	n/a
415.84	0.151	831680	keystroke_o	o	n/a
415.9605	0.12	831921	keystroke_n	n	n/a
416.1255	0.09	832251	keystroke_s	s	n/a
416.2005	0.09	832401	keystroke_Key.space	Key.space	n/a
416.771	0.09	833542	keystroke_g	g	n/a
416.9805	0.0605	833961	keystroke_u	u	n/a
417.101	0.1195	834202	keystroke_a	a	n/a
417.281	0.06	834562	keystroke_r	r	n/a
417.491	0.105	834982	keystroke_a	a	n/a
417.641	0.075	835282	keystroke_n	n	n/a
417.791	0.09	835582	keystroke_t	t	n/a
417.896	0.09	835792	keystroke_e	e	n/a
418.091	0.075	836182	keystroke_e	e	n/a
418.241	0.09	836482	keystroke_Key.space	Key.space	n/a
418.841	0.09	837682	keystroke_p	p	n/a
418.946	0.15	837892	keystroke_e	e	n/a
419.021	0.09	838042	keystroke_r	r	n/a
419.4555	0.075	838911	keystroke_Key.backspace	Key.backspace	n/a
419.576	0.0895	839152	keystroke_t	t	n/a
419.6805	0.18	839361	keystroke_e	e	n/a
419.831	0.0895	839662	keystroke_r	r	n/a
420.011	0.1355	840022	keystroke_e	e	n/a
420.626	0.075	841252	keystroke_Key.backspace	Key.backspace	n/a
420.791	0.0745	841582	keystroke_s	s	n/a
420.9405	0.166	841881	keystroke_o	o	n/a
421.3005	0.105	842601	keystroke_n	n	n/a
421.795	0.09	843590	keystroke_Key.enter	Key.enter	n/a
421.905	7.692	843810	prompt	n/a	hampshire gorgeous crowd cork\n
422.831	0.03	845662	keystroke_h	h	n/a
422.921	0.1055	845842	keystroke_a	a	n/a
423.131	0.09	846262	keystroke_m	m	n/a
423.731	0.165	847462	keystroke_p	p	n/a
423.986	0.075	847972	keystroke_s	s	n/a
424.121	0.12	848242	keystroke_h	h	n/a
424.271	0.075	848542	keystroke_i	i	n/a
424.361	0.1345	848722	keystroke_r	r	n/a
424.4505	0.135	848901	keystroke_e	e	n/a
424.6455	0.1205	849291	keystroke_Key.space	Key.space	n/a
425.185	0.076	850370	keystroke_g	g	n/a
425.336	0.075	850672	keystroke_o	o	n/a
425.471	0.0895	850942	keystroke_r	r	n/a
425.68	0.09	851360	keystroke_g	g	n/a
426.146	0.09	852292	keystroke_e	e	n/a
426.3105	0.195	852621	keystroke_o	o	n/a
426.461	0.1045	852922	keystroke_u	u	n/a
426.6105	0.09	853221	keystroke_s	s	n/a
426.7155	0.09	853431	keystroke_Key.space	Key.space	n/a
427.2405	0.12	854481	keystroke_c	c	n/a
427.421	0.0895	854842	keystroke_r	r	n/a
427.7205	0.1355	855441	keystroke_o	o	n/a
427.9005	0.105	855801	keystroke_w	w	n/a
428.156	0.06	856312	keystroke_n	n	n/a
428.4705	0.0895	856941	keystroke_Key.backspace	Key.backspace	n/a
428.576	0.0595	857152	keystroke_d	d	n/a
428.7105	0.06	857421	keystroke_Key.space	Key.space	n/a
428.8905	0.09	857781	keystroke_c	c	n/a
429.0105	0.09	858021	keystroke_o	o	n/a
429.19	0.076	858380	keystroke_r	r	n/a
429.25	0.076	858500	keystroke_k	k	n/a
429.521	0.074	859042	keystroke_Key.enter	Key.enter	n/a
429.601	8.6215	859202	prompt	n/a	disks incorrect cams minus\n
430.3605	0.0895	860721	keystroke_d	d	n/a
430.541	0.06	861082	keystroke_i	i	n/a
430.646	0.089	861292	keystroke_s	s	n/a
430.931	0.074	861862	keystroke_l	l	n/a
431.6055	0.075	863211	keystroke_Key.backspace	Key.backspace	n/a
432.1605	0.09	864321	keystroke_k	k	n/a
432.356	0.105	864712	keystroke_d	d	n/a
432.581	0.0895	865162	keystroke_s	s	n/a
432.8205	0.0595	865641	keystroke_Key.backspace	Key.backspace	n/a
432.986	0.089	865972	keystroke_Key.backspace	Key.backspace	n/a
433.046	0.104	866092	keystroke_s	s	n/a
433.195	0.06	866390	keystroke_Key.space	Key.space	n/a
433.6015	0.1045	867203	keystroke_i	i	n/a
433.736	0.135	867472	keystroke_n	n	n/a
433.886	0.0595	867772	keystroke_c	c	n/a
434.021	0.0745	868042	keystroke_o	o	n/a
434.201	0.0745	868402	keystroke_r	r	n/a
434.3655	0.075	868731	keystroke_r	r	n/a
434.561	0.135	869122	keystroke_e	e	n/a
434.6805	0.1355	869361	keystroke_c	c	n/a
434.9505	0.06	869901	keystroke_t	t	n/a
435.0255	0.075	870051	keystroke_Key.space	Key.space	n/a
435.461	0.09	870922	keystroke_c	c	n/a
435.5955	0.0745	871191	keystroke_a	a	n/a
435.701	0.0895	871402	keystroke_m	m	n/a
435.8805	0.0905	871761	keystroke_s	s	n/a
436.075	0.075	872150	keystroke_Key.space	Key.space	n/a
436.615	0.0905	873230	keystroke_m	m	n/a
437.0205	0.12	874041	keystroke_i	i	n/a
437.246	0.06	874492	keystroke_n	n	n/a
437.457	0.058	874914	keystroke_u	u	n/a
437.606	0.0605	875212	keystroke_s	s	n/a
438.145	0.0755	876290	keystroke_Key.enter	Key.enter	n/a
438.2355	8.5815	876471	prompt	n/a	coordinated vacuum contract influenced\n
438.941	0.074	877882	keystroke_c	c	n/a
439.106	0.059	878212	keystroke_o	o	n/a
439.271	0.089	878542	keystroke_o	o	n/a
439.376	0.09	878752	keystroke_r	r	n/a
439.7055	0.06	879411	keystroke_d	d	n/a
439.7805	0.06	879561	keystroke_i	i	n/a
439.9755	0.0755	879951	keystroke_n	n	n/a
440.066	0.1195	880132	keystroke_a	a	n/a
440.1555	0.15	880311	keystroke_t	t	n/a
440.2605	0.105	880521	keystroke_e	e	n/a
440.44	0.09	880880	keystroke_d	d	n/a
440.56	0.12	881120	keystroke_Key.space	Key.space	n/a
441.011	0.0895	882022	keystroke_c	c	n/a
441.4605	0.105	882921	keystroke_Key.backspace	Key.backspace	n/a
441.5955	0.09	883191	keystroke_v	v	n/a
441.7005	0.105	883401	keystroke_a	a	n/a
441.8505	0.0745	883701	keystroke_c	c	n/a
441.9855	0.0905	883971	keystroke_u	u	n/a
442.376	0.0595	884752	keystroke_u	u	n/a
442.6005	0.105	885201	keystroke_m	m	n/a
442.7355	0.1205	885471	keystroke_Key.space	Key.space	n/a
443.83	0.075	887660	keystroke_c	c	n/a
443.9355	0.2395	887871	keystroke_o	o	n/a
444.055	0.135	888110	keystroke_n	n	n/a
444.22	0.15	888440	keystroke_t	t	n/a
444.31	0.166	888620	keystroke_r	r	n/a
444.431	0.134	888862	keystroke_a	a	n/a
444.596	0.104	889192	keystroke_c	c	n/a
444.82	0.06	889640	keystroke_t	t	n/a
444.985	0.1205	889970	keystroke_Key.space	Key.space	n/a
445.3305	0.09	890661	keystroke_i	i	n/a
445.526	0.0595	891052	keystroke_n	n	n/a
445.6005	0.0745	891201	keystroke_f	f	n/a
445.766	0.134	891532	keystroke_l	l	n/a
445.9605	0.09	891921	keystroke_u	u	n/a
446.0805	0.09	892161	keystroke_e	e	n/a
446.1855	0.09	892371	keystroke_n	n	n/a
446.2905	0.1345	892581	keystroke_c	c	n/a
446.3805	0.1055	892761	keystroke_e	e	n/a
446.591	0.104	893182	keystroke_d	d	n/a
446.725	0.09	893450	keystroke_Key.enter	Key.enter	n/a
446.8215	4.6455	893643	prompt	n/a	visa idle shark knew\n
447.716	0.075	895432	keystroke_v	v	n/a
448.195	0.0905	896390	keystroke_i	i	n/a
448.3005	0.165	896601	keystroke_s	s	n/a
448.4055	0.0895	896811	keystroke_a	a	n/a
448.5555	0.075	897111	keystroke_Key.space	Key.space	n/a
448.675	0.1055	897350	keystroke_i	i	n/a
448.7955	0.09	897591	keystroke_d	d	n/a
448.96	0.09	897920	keystroke_l	l	n/a
449.2905	0.105	898581	keystroke_e	e	n/a
449.486	0.0895	898972	keystroke_Key.space	Key.space	n/a
449.6355	0.075	899271	keystroke_s	s	n/a
449.726	0.105	899452	keystroke_h	h	n/a
449.86	0.1195	899720	keystroke_a	a	n/a
449.9805	0.1055	899961	keystroke_r	r	n/a
450.115	0.1045	900230	keystroke_k	k	n/a
450.325	0.0745	900650	keystroke_Key.space	Key.space	n/a
450.9245	0.121	901849	keystroke_k	k	n/a
451.12	0.0745	902240	keystroke_n	n	n/a
451.1955	0.1355	902391	keystroke_e	e	n/a
451.2855	0.135	902571	keystroke_w	w	n/a
451.405	0.06	902810	keystroke_Key.enter	Key.enter	n/a
451.4705	15.762	902941	prompt	n/a	manufacture download jackets secret\n
452.215	0.0755	904430	keystroke_m	m	n/a
452.306	0.075	904612	keystroke_a	a	n/a
452.4855	0.075	904971	keystroke_n	n	n/a
452.6805	0.06	905361	keystroke_u	u	n/a
452.845	0.1055	905690	keystroke_f	f	n/a
452.965	0.1355	905930	keystroke_a	a	n/a
453.07	0.105	906140	keystroke_t	t	n/a
453.625	0.09	907250	keystroke_Key.backspace	Key.backspace	n/a
453.775	0.09	907550	keystroke_c	c	n/a
454.0455	0.0905	908091	keystroke_t	t	n/a
454.2105	0.0745	908421	keystroke_u	u	n/a
454.346	0.1045	908692	keystroke_r	r	n/a
454.4205	0.105	908841	keystroke_e	e	n/a
454.57	0.09	909140	keystroke_Key.space	Key.space	n/a
455.905	0.0755	911810	keystroke_d	d	n/a
456.115	0.18	912230	keystroke_o	o	n/a
456.235	0.09	912470	keystroke_w	w	n/a
456.3855	0.0445	912771	keystroke_n	n	n/a
456.5505	0.12	913101	keystroke_l	l	n/a
456.715	0.09	913430	keystroke_a	a	n/a
456.955	0.09	913910	keystroke_o	o	n/a
457.075	0.09	914150	keystroke_d	d	n/a
457.2255	0.1045	914451	keystroke_Key.space	Key.space	n/a
458.245	0.0605	916490	keystroke_j	j	n/a
458.3205	0.1195	916641	keystroke_e	e	n/a
458.561	0.089	917122	keystroke_c	c	n/a
458.6945	0.106	917389	keystroke_k	k	n/a
458.83	0.1195	917660	keystroke_e	e	n/a
459.31	0.1055	918620	keystroke_t	t	n/a
459.4755	0.105	918951	keystroke_s	s	n/a
459.7755	0.06	919551	keystroke_Key.backspace	Key.backspace	n/a
459.9255	0.075	919851	keystroke_Key.backspace	Key.backspace	n/a
460.0905	0.06	920181	keystroke_Key.backspace	Key.backspace	n/a
460.2555	0.075	920511	keystroke_Key.backspace	Key.backspace	n/a
460.4055	0.075	920811	keystroke_Key.backspace	Key.backspace	n/a
460.5855	0.075	921171	keystroke_Key.backspace	Key.backspace	n/a
460.7505	0.075	921501	keystroke_Key.backspace	Key.backspace	n/a
460.9305	0.06	921861	keystroke_Key.backspace	Key.backspace	n/a
461.0955	0.06	922191	keystroke_Key.backspace	Key.backspace	n/a
461.2605	0.09	922521	keystroke_Key.backspace	Key.backspace	n/a
461.68	0.075	923360	keystroke_Key.backspace	Key.backspace	n/a
462.1155	0.1055	924231	keystroke_o	o	n/a
462.2355	0.135	924471	keystroke_a	a	n/a
462.505	0.09	925010	keystroke_d	d	n/a
463.57	0.09	927140	keystroke_Key.space	Key.space	n/a
464.275	0.0155	928550	keystroke_j	j	n/a
464.305	0.1205	928610	keystroke_a	a	n/a
464.4105	0.1045	928821	keystroke_c	c	n/a
464.5305	0.09	929061	keystroke_k	k	n/a
464.666	0.15	929332	keystroke_e	e	n/a
464.785	0.1355	929570	keystroke_t	t	n/a
464.9655	0.1345	929931	keystroke_s	s	n/a
465.25	0.105	930500	keystroke_Key.space	Key.space	n/a
465.925	0.0755	931850	keystroke_s	s	n/a
466.33	0.1355	932660	keystroke_e	e	n/a
466.5105	0.1045	933021	keystroke_c	c	n/a
466.69	0.09	933380	keystroke_r	r	n/a
466.87	0.166	933740	keystroke_e	e	n/a
466.991	0.1045	933982	keystroke_t	t	n/a
467.155	0.0745	934310	keystroke_Key.enter	Key.enter	n/a
467.2495	8.083	934499	prompt	n/a	julia silk copper marcus\n
468.2505	0.075	936501	keystroke_j	j	n/a
468.4605	0.0605	936921	keystroke_u	u	n/a
468.745	0.12	937490	keystroke_l	l	n/a
468.895	0.075	937790	keystroke_i	i	n/a
469	0.0755	938000	keystroke_a	a	n/a
469.165	0.075	938330	keystroke_Key.space	Key.space	n/a
469.54	0.09	939080	keystroke_s	s	n/a
469.72	0.12	939440	keystroke_i	i	n/a
469.915	0.135	939830	keystroke_l	l	n/a
470.0205	0.1045	940041	keystroke_k	k	n/a
470.2595	0.106	940519	keystroke_Key.space	Key.space	n/a
470.7105	0.09	941421	keystroke_c	c	n/a
470.9505	0.06	941901	keystroke_o	o	n/a
471.0995	0.12	942199	keystroke_o	o	n/a
471.2945	0.105	942589	keystroke_p	p	n/a
471.416	0.164	942832	keystroke_e	e	n/a
472.031	0.0895	944062	keystroke_Key.backspace	Key.backspace	n/a
472.2405	0.0745	944481	keystroke_Key.backspace	Key.backspace	n/a
472.39	0.105	944780	keystroke_Key.backspace	Key.backspace	n/a
472.7355	0.0595	945471	keystroke_p	p	n/a
472.9155	0.0895	945831	keystroke_p	p	n/a
473.0505	0.1495	946101	keystroke_e	e	n/a
473.155	0.1055	946310	keystroke_r	r	n/a
473.38	0.09	946760	keystroke_Key.space	Key.space	n/a
473.635	0.105	947270	keystroke_c	c	n/a
474.1295	0.075	948259	keystroke_Key.backspace	Key.backspace	n/a
474.3995	0.165	948799	keystroke_m	m	n/a
474.49	0.1505	948980	keystroke_a	a	n/a
474.6245	0.091	949249	keystroke_r	r	n/a
474.8805	0.0895	949761	keystroke_c	c	n/a
474.9555	0.0745	949911	keystroke_u	u	n/a
475.09	0.091	950180	keystroke_s	s	n/a
475.24	0.09	950480	keystroke_Key.enter	Key.enter	n/a
475.348	9.526	950696	prompt	n/a	thai jean tribute calls\n
476.081	0.104	952162	keystroke_t	t	n/a
476.2	0.0595	952400	keystroke_h	h	n/a
476.3055	0.06	952611	keystroke_a	a	n/a
476.335	0.1055	952670	keystroke_t	t	n/a
477.01	0.1055	954020	keystroke_Key.backspace	Key.backspace	n/a
477.2355	0.075	954471	keystroke_i	i	n/a
477.4455	0.075	954891	keystroke_Key.space	Key.space	n/a
478.1805	0.09	956361	keystroke_e	e	n/a
478.255	0.105	956510	keystroke_j	j	n/a
478.615	0.0905	957230	keystroke_Key.backspace	Key.backspace	n/a
478.78	0.075	957560	keystroke_Key.backspace	Key.backspace	n/a
479.0805	0.089	958161	keystroke_e	e	n/a
479.47	0.0905	958940	keystroke_Key.backspace	Key.backspace	n/a
479.68	0.06	959360	keystroke_k	k	n/a
479.8455	0.0595	959691	keystroke_e	e	n/a
480.4005	0.0895	960801	keystroke_Key.backspace	Key.backspace	n/a
480.58	0.075	961160	keystroke_Key.backspace	Key.backspace	n/a
480.9255	0.075	961851	keystroke_j	j	n/a
481.0145	0.1205	962029	keystroke_e	e	n/a
481.105	0.1195	962210	keystroke_a	a	n/a
481.18	0.0905	962360	keystroke_n	n	n/a
481.3	0.09	962600	keystroke_Key.space	Key.space	n/a
481.8405	0.0895	963681	keystroke_t	t	n/a
482.005	0.0905	964010	keystroke_r	r	n/a
482.14	0.09	964280	keystroke_i	i	n/a
483.2205	0.0595	966441	keystroke_b	b	n/a
483.3855	0.075	966771	keystroke_u	u	n/a
483.5055	0.105	967011	keystroke_t	t	n/a
483.5805	0.12	967161	keystroke_e	e	n/a
483.7305	0.105	967461	keystroke_Key.space	Key.space	n/a
484.0905	0.105	968181	keystroke_c	c	n/a
484.2105	0.09	968421	keystroke_a	a	n/a
484.256	0.0895	968512	keystroke_l	l	n/a
484.4655	0.09	968931	keystroke_l	l	n/a
484.6605	0.06	969321	keystroke_s	s	n/a
484.7655	0.105	969531	keystroke_Key.enter	Key.enter	n/a
484.888	8.3995	969776	prompt	n/a	veterans bidding mysterious coffee\n
485.7855	0.09	971571	keystroke_v	v	n/a
485.98	0.1355	971960	keystroke_e	e	n/a
486.1305	0.0595	972261	keystroke_r	r	n/a
486.5345	0.0755	973069	keystroke_Key.backspace	Key.backspace	n/a
486.6555	0.09	973311	keystroke_t	t	n/a
486.7905	0.165	973581	keystroke_e	e	n/a
486.9105	0.075	973821	keystroke_r	r	n/a
487.12	0.105	974240	keystroke_a	a	n/a
487.36	0.105	974720	keystroke_n	n	n/a
487.51	0.1355	975020	keystroke_s	s	n/a
487.765	0.075	975530	keystroke_Key.space	Key.space	n/a
488.065	0.06	976130	keystroke_b	b	n/a
488.2	0.075	976400	keystroke_i	i	n/a
488.3205	0.06	976641	keystroke_d	d	n/a
488.4705	0.0745	976941	keystroke_d	d	n/a
488.5605	0.1795	977121	keystroke_i	i	n/a
488.6805	0.12	977361	keystroke_n	n	n/a
488.8155	0.059	977631	keystroke_g	g	n/a
488.9345	0.076	977869	keystroke_Key.space	Key.space	n/a
489.19	0.1055	978380	keystroke_m	m	n/a
489.5355	0.06	979071	keystroke_y	y	n/a
489.6705	0.15	979341	keystroke_s	s	n/a
489.8505	0.135	979701	keystroke_t	t	n/a
490.0455	0.18	980091	keystroke_e	e	n/a
490.2405	0.12	980481	keystroke_r	r	n/a
490.5555	0.18	981111	keystroke_o	o	n/a
491.0055	0.045	982011	keystroke_Key.backspace	Key.backspace	n/a
491.2755	0.134	982551	keystroke_i	i	n/a
491.3945	0.196	982789	keystroke_o	o	n/a
491.5755	0.12	983151	keystroke_u	u	n/a
491.7555	0.09	983511	keystroke_s	s	n/a
491.905	0.105	983810	keystroke_Key.space	Key.space	n/a
492.16	0.06	984320	keystroke_c	c	n/a
492.235	0.075	984470	keystroke_o	o	n/a
492.5505	0.03	985101	keystroke_f	f	n/a
492.6855	0.0895	985371	keystroke_f	f	n/a
492.79	0.09	985580	keystroke_e	e	n/a
492.955	0.0895	985910	keystroke_e	e	n/a
493.2095	0.0755	986419	keystroke_Key.enter	Key.enter	n/a
493.291	8.1405	986582	prompt	n/a	salvation marketing taylor holder\n
494.0805	0.1195	988161	keystroke_a	a	n/a
494.425	0.0755	988850	keystroke_Key.backspace	Key.backspace	n/a
494.546	0.1345	989092	keystroke_s	s	n/a
494.6355	0.09	989271	keystroke_a	a	n/a
494.7695	0.121	989539	keystroke_l	l	n/a
494.9955	0.105	989991	keystroke_v	v	n/a
495.145	0.18	990290	keystroke_a	a	n/a
495.31	0.12	990620	keystroke_t	t	n/a
495.386	0.164	990772	keystroke_i	i	n/a
495.505	0.165	991010	keystroke_o	o	n/a
495.6845	0.1205	991369	keystroke_n	n	n/a
496.2095	0.061	992419	keystroke_Key.space	Key.space	n/a
496.3895	0.105	992779	keystroke_m	m	n/a
496.4805	0.1345	992961	keystroke_a	a	n/a
496.5695	0.0905	993139	keystroke_r	r	n/a
496.7955	0.0745	993591	keystroke_k	k	n/a
496.9455	0.1495	993891	keystroke_e	e	n/a
497.065	0.09	994130	keystroke_t	t	n/a
497.1705	0.18	994341	keystroke_i	i	n/a
497.2905	0.135	994581	keystroke_n	n	n/a
497.4555	0.03	994911	keystroke_g	g	n/a
497.5155	0.0895	995031	keystroke_Key.space	Key.space	n/a
498.04	0.09	996080	keystroke_t	t	n/a
498.265	0.1355	996530	keystroke_a	a	n/a
498.4155	0.104	996831	keystroke_l	l	n/a
498.5355	0.074	997071	keystroke_y	y	n/a
498.805	0.0905	997610	keystroke_o	o	n/a
498.925	0.045	997850	keystroke_r	r	n/a
499.06	0.0755	998120	keystroke_Key.space	Key.space	n/a
500.1105	0.105	1000221	keystroke_h	h	n/a
500.2605	0.119	1000521	keystroke_o	o	n/a
500.4995	0.121	1000999	keystroke_l	l	n/a
500.6645	0.046	1001329	keystroke_d	d	n/a
500.8	0.1355	1001600	keystroke_e	e	n/a
500.8905	0.105	1001781	keystroke_r	r	n/a
501.3545	0.075	1002709	keystroke_Key.enter	Key.enter	n/a
501.436	9.5365	1002872	prompt	n/a	solely resist city aging\n
502.57	0.09	1005140	keystroke_s	s	n/a
502.6905	0.0895	1005381	keystroke_o	o	n/a
502.915	0.105	1005830	keystroke_l	l	n/a
503.035	0.105	1006070	keystroke_e	e	n/a
503.185	0.105	1006370	keystroke_l	l	n/a
503.395	0.075	1006790	keystroke_y	y	n/a
503.575	0.105	1007150	keystroke_Key.space	Key.space	n/a
504.16	0.195	1008320	keystroke_r	r	n/a
504.34	0.09	1008680	keystroke_e	e	n/a
504.49	0.1055	1008980	keystroke_i	i	n/a
504.5355	0.1045	1009071	keystroke_s	s	n/a
504.73	0.15	1009460	keystroke_s	s	n/a
504.8655	0.105	1009731	keystroke_t	t	n/a
505.165	0.12	1010330	keystroke_Key.space	Key.space	n/a
505.615	0.045	1011230	keystroke_Key.backspace	Key.backspace	n/a
505.75	0.075	1011500	keystroke_Key.backspace	Key.backspace	n/a
506.02	0.105	1012040	keystroke_Key.backspace	Key.backspace	n/a
506.53	0.075	1013060	keystroke_Key.backspace	Key.backspace	n/a
506.665	0.1045	1013330	keystroke_Key.backspace	Key.backspace	n/a
506.8895	0.1355	1013779	keystroke_s	s	n/a
506.9495	0.105	1013899	keystroke_i	i	n/a
507.1	0.1205	1014200	keystroke_s	s	n/a
507.2655	0.105	1014531	keystroke_t	t	n/a
507.4595	0.105	1014919	keystroke_Key.space	Key.space	n/a
507.8655	0.0595	1015731	keystroke_c	c	n/a
507.955	0.09	1015910	keystroke_i	i	n/a
508.24	0.105	1016480	keystroke_t	t	n/a
508.39	0.09	1016780	keystroke_y	y	n/a
508.54	0.0895	1017080	keystroke_Key.space	Key.space	n/a
508.6905	0.135	1017381	keystroke_a	a	n/a
508.9305	0.06	1017861	keystroke_r	r	n/a
509.2145	0.06	1018429	keystroke_Key.backspace	Key.backspace	n/a
509.3805	0.089	1018761	keystroke_a	a	n/a
509.8	0.06	1019600	keystroke_Key.backspace	Key.backspace	n/a
509.92	0.075	1019840	keystroke_g	g	n/a
510.055	0.15	1020110	keystroke_i	i	n/a
510.1895	0.135	1020379	keystroke_n	n	n/a
510.3545	0.06	1020709	keystroke_g	g	n/a
510.895	0.075	1021790	keystroke_Key.enter	Key.enter	n/a
510.9895	9.1185	1021979	prompt	n/a	newer volvo within granted\n
511.8095	0.0605	1023619	keystroke_n	n	n/a
511.915	0.0745	1023830	keystroke_e	e	n/a
512.155	0.12	1024310	keystroke_w	w	n/a
512.26	0.195	1024520	keystroke_e	e	n/a
512.4105	0.0895	1024821	keystroke_r	r	n/a
512.62	0.09	1025240	keystroke_Key.space	Key.space	n/a
513.115	0.09	1026230	keystroke_v	v	n/a
513.22	0.075	1026440	keystroke_o	o	n/a
513.385	0.1055	1026770	keystroke_l	l	n/a
513.475	0.1055	1026950	keystroke_v	v	n/a
513.5655	0.0895	1027131	keystroke_e	e	n/a
513.895	0.059	1027790	keystroke_Key.backspace	Key.backspace	n/a
514.045	0.06	1028090	keystroke_Key.backspace	Key.backspace	n/a
514.2555	0.105	1028511	keystroke_o	o	n/a
514.5245	0.1355	1029049	keystroke_Key.space	Key.space	n/a
514.87	0.06	1029740	keystroke_Key.backspace	Key.backspace	n/a
515.02	0.075	1030040	keystroke_Key.backspace	Key.backspace	n/a
515.14	0.06	1030280	keystroke_v	v	n/a
515.3055	0.0895	1030611	keystroke_o	o	n/a
515.605	0.09	1031210	keystroke_w	w	n/a
515.65	0.09	1031300	keystroke_Key.space	Key.space	n/a
516.625	0.075	1033250	keystroke_Key.backspace	Key.backspace	n/a
516.79	0.075	1033580	keystroke_Key.backspace	Key.backspace	n/a
516.925	0.12	1033850	keystroke_Key.space	Key.space	n/a
517.181	0.104	1034362	keystroke_w	w	n/a
517.3155	0.0745	1034631	keystroke_i	i	n/a
517.4355	0.0745	1034871	keystroke_t	t	n/a
517.525	0.075	1035050	keystroke_h	h	n/a
517.736	0.09	1035472	keystroke_i	i	n/a
517.9445	0.0755	1035889	keystroke_n	n	n/a
518.095	0.0745	1036190	keystroke_Key.space	Key.space	n/a
518.545	0.135	1037090	keystroke_g	g	n/a
518.62	0.1505	1037240	keystroke_r	r	n/a
518.71	0.1205	1037420	keystroke_a	a	n/a
519.52	0.0755	1039040	keystroke_n	n	n/a
519.64	0.105	1039280	keystroke_t	t	n/a
519.715	0.09	1039430	keystroke_e	e	n/a
519.91	0.075	1039820	keystroke_d	d	n/a
520.03	0.075	1040060	keystroke_Key.enter	Key.enter	n/a
520.1205	6.1365	1040241	prompt	n/a	why's seal transactions wear\n
521.1555	0.09	1042311	keystroke_w	w	n/a
521.2755	0.09	1042551	keystroke_h	h	n/a
521.59	0.045	1043180	keystroke_y	y	n/a
521.7555	0.1045	1043511	keystroke_'	'	n/a
521.95	0.0755	1043900	keystroke_s	s	n/a
522.0405	0.074	1044081	keystroke_Key.space	Key.space	n/a
522.5805	0.1495	1045161	keystroke_s	s	n/a
522.7	0.1505	1045400	keystroke_e	e	n/a
522.8805	0.12	1045761	keystroke_a	a	n/a
523.0305	0.089	1046061	keystroke_l	l	n/a
523.1805	0.104	1046361	keystroke_Key.space	Key.space	n/a
523.4645	0.18	1046929	keystroke_t	t	n/a
523.5855	0.18	1047171	keystroke_r	r	n/a
523.7195	0.1365	1047439	keystroke_a	a	n/a
523.9595	0.09	1047919	keystroke_n	n	n/a
524.1095	0.166	1048219	keystroke_s	s	n/a
524.2895	0.165	1048579	keystroke_a	a	n/a
524.4255	0.1495	1048851	keystroke_c	c	n/a
524.74	0.1055	1049480	keystroke_t	t	n/a
524.8	0.1955	1049600	keystroke_i	i	n/a
524.89	0.195	1049780	keystroke_o	o	n/a
525.055	0.136	1050110	keystroke_n	n	n/a
525.191	0.1195	1050382	keystroke_s	s	n/a
525.355	0.0595	1050710	keystroke_Key.space	Key.space	n/a
525.5505	0.1945	1051101	keystroke_w	w	n/a
525.7305	0.1795	1051461	keystroke_e	e	n/a
525.925	0.15	1051850	keystroke_a	a	n/a
526.03	0.105	1052060	keystroke_r	r	n/a
526.165	0.0895	1052330	keystroke_Key.enter	Key.enter	n/a
526.2605	10.288	1052521	prompt	n/a	transferred rights finances numeric\n
527.1555	0.134	1054311	keystroke_t	t	n/a
527.26	0.135	1054520	keystroke_r	r	n/a
527.365	0.105	1054730	keystroke_a	a	n/a
527.561	0.075	1055122	keystroke_n	n	n/a
527.71	0.09	1055420	keystroke_d	d	n/a
528.31	0.09	1056620	keystroke_Key.backspace	Key.backspace	n/a
528.4305	0.105	1056861	keystroke_s	s	n/a
528.595	0.1205	1057190	keystroke_f	f	n/a
528.85	0.075	1057700	keystroke_r	r	n/a
529.375	0.015	1058750	keystroke_Key.backspace	Key.backspace	n/a
529.4495	0.12	1058899	keystroke_e	e	n/a
529.7195	0.06	1059439	keystroke_r	r	n/a
530.0195	0.075	1060039	keystroke_r	r	n/a
530.2295	0.09	1060459	keystroke_e	e	n/a
530.4105	0.104	1060821	keystroke_d	d	n/a
530.53	0.12	1061060	keystroke_Key.space	Key.space	n/a
530.83	0.1045	1061660	keystroke_r	r	n/a
530.9805	0.105	1061961	keystroke_i	i	n/a
531.1005	0.089	1062201	keystroke_g	g	n/a
531.2205	0.074	1062441	keystroke_h	h	n/a
531.3245	0.121	1062649	keystroke_t	t	n/a
531.4305	0.089	1062861	keystroke_s	s	n/a
531.5205	0.119	1063041	keystroke_Key.space	Key.space	n/a
533.29	0.075	1066580	keystroke_f	f	n/a
533.44	0.135	1066880	keystroke_i	i	n/a
533.62	0.1055	1067240	keystroke_n	n	n/a
533.815	0.09	1067630	keystroke_a	a	n/a
533.95	0.075	1067900	keystroke_n	n	n/a
534.0855	0.1645	1068171	keystroke_c	c	n/a
534.19	0.15	1068380	keystroke_e	e	n/a
534.28	0.12	1068560	keystroke_s	s	n/a
534.46	0.1055	1068920	keystroke_Key.space	Key.space	n/a
535.285	0.105	1070570	keystroke_n	n	n/a
535.48	0.075	1070960	keystroke_u	u	n/a
535.7805	0.09	1071561	keystroke_m	m	n/a
535.885	0.1495	1071770	keystroke_e	e	n/a
535.9605	0.119	1071921	keystroke_r	r	n/a
536.1255	0.09	1072251	keystroke_i	i	n/a
536.3055	0.074	1072611	keystroke_c	c	n/a
536.4995	0.045	1072999	keystroke_Key.enter	Key.enter	n/a
536.5595	5.2825	1073119	prompt	n/a	sale aurora heather marine\n
537.16	0.1495	1074320	keystroke_s	s	n/a
537.3395	0.135	1074679	keystroke_a	a	n/a
537.4445	0.106	1074889	keystroke_l	l	n/a
537.566	0.089	1075132	keystroke_e	e	n/a
537.6845	0.0905	1075369	keystroke_Key.space	Key.space	n/a
538.03	0.09	1076060	keystroke_a	a	n/a
538.315	0.105	1076630	keystroke_u	u	n/a
538.465	0.0905	1076930	keystroke_r	r	n/a
538.7205	0.104	1077441	keystroke_o	o	n/a
538.8545	0.106	1077709	keystroke_r	r	n/a
539.1255	0.105	1078251	keystroke_a	a	n/a
539.3495	0.09	1078699	keystroke_Key.space	Key.space	n/a
539.8905	0.06	1079781	keystroke_h	h	n/a
539.9345	0.166	1079869	keystroke_e	e	n/a
540.0545	0.195	1080109	keystroke_a	a	n/a
540.2345	0.12	1080469	keystroke_t	t	n/a
540.4155	0.0755	1080831	keystroke_h	h	n/a
540.5355	0.1345	1081071	keystroke_e	e	n/a
540.61	0.1055	1081220	keystroke_r	r	n/a
540.7305	0.09	1081461	keystroke_Key.space	Key.space	n/a
541.0605	0.0895	1082121	keystroke_m	m	n/a
541.15	0.1805	1082300	keystroke_a	a	n/a
541.315	0.0755	1082630	keystroke_r	r	n/a
541.375	0.1205	1082750	keystroke_i	i	n/a
541.5255	0.09	1083051	keystroke_n	n	n/a
541.6305	0.06	1083261	keystroke_e	e	n/a
541.7505	0.0895	1083501	keystroke_Key.enter	Key.enter	n/a
541.846	9.297	1083692	prompt	n/a	arbitrary terry textbooks halifax\n
542.7105	0.09	1085421	keystroke_a	a	n/a
543.055	0.0605	1086110	keystroke_r	r	n/a
543.2355	0.06	1086471	keystroke_b	b	n/a
543.3855	0.105	1086771	keystroke_i	i	n/a
543.55	0.1205	1087100	keystroke_t	t	n/a
543.745	0.1355	1087490	keystroke_r	r	n/a
543.8505	0.12	1087701	keystroke_a	a	n/a
544.0155	0.0745	1088031	keystroke_y	y	n/a
544.585	0.105	1089170	keystroke_Key.backspace	Key.backspace	n/a
544.7055	0.18	1089411	keystroke_r	r	n/a
544.8255	0.1045	1089651	keystroke_y	y	n/a
545.08	0.105	1090160	keystroke_Key.space	Key.space	n/a
545.4105	0.1345	1090821	keystroke_t	t	n/a
545.5605	0.135	1091121	keystroke_e	e	n/a
546.0405	0.09	1092081	keystroke_r	r	n/a
546.19	0.0905	1092380	keystroke_r	r	n/a
546.2955	0.1345	1092591	keystroke_y	y	n/a
546.445	0.105	1092890	keystroke_Key.space	Key.space	n/a
547.0605	0.12	1094121	keystroke_t	t	n/a
547.1505	0.105	1094301	keystroke_e	e	n/a
547.5255	0.06	1095051	keystroke_x	x	n/a
548.0205	0.06	1096041	keystroke_t	t	n/a
548.276	0.0745	1096552	keystroke_b	b	n/a
548.3955	0.03	1096791	keystroke_o	o	n/a
548.5155	0.12	1097031	keystroke_o	o	n/a
548.756	0.0895	1097512	keystroke_k	k	n/a
548.8755	0.09	1097751	keystroke_s	s	n/a
549.0255	0.12	1098051	keystroke_Key.space	Key.space	n/a
549.5055	0.075	1099011	keystroke_h	h	n/a
549.5955	0.075	1099191	keystroke_a	a	n/a
549.6855	0.15	1099371	keystroke_l	l	n/a
549.8505	0.09	1099701	keystroke_i	i	n/a
550.0605	0.09	1100121	keystroke_f	f	n/a
550.1655	0.15	1100331	keystroke_a	a	n/a
550.8095	0.1065	1101619	keystroke_x	x	n/a
551.08	0.0605	1102160	keystroke_Key.enter	Key.enter	n/a
551.159	9.614	1102318	prompt	n/a	dubai looked cinema pink\n
552.206	0.0895	1104412	keystroke_d	d	n/a
552.3405	0.104	1104681	keystroke_u	u	n/a
552.491	0.1195	1104982	keystroke_b	b	n/a
552.6255	0.075	1105251	keystroke_a	a	n/a
552.7005	0.1195	1105401	keystroke_i	i	n/a
552.91	0.09	1105820	keystroke_Key.space	Key.space	n/a
553.465	0.135	1106930	keystroke_l	l	n/a
553.66	0.0605	1107320	keystroke_o	o	n/a
