onset	duration	sample	value	key	prompt_text
11.323	8.453	22646	prompt	n/a	the quick brown fox jumps over a lazy dog\n
13.4765	0.012	26953	keystroke_t	t	n/a
13.4885	0.09	26977	keystroke_h	h	n/a
13.6535	0.06	27307	keystroke_e	e	n/a
13.8485	0.12	27697	keystroke_Key.space	Key.space	n/a
14.0135	0.12	28027	keystroke_q	q	n/a
14.1035	0.12	28207	keystroke_u	u	n/a
14.1935	0.09	28387	keystroke_i	i	n/a
14.3135	0.12	28627	keystroke_c	c	n/a
14.4035	0.135	28807	keystroke_k	k	n/a
14.4935	0.15	28987	keystroke_Key.space	Key.space	n/a
14.6585	0.075	29317	keystroke_b	b	n/a
14.8835	0.09	29767	keystroke_r	r	n/a
14.9435	0.09	29887	keystroke_o	o	n/a
15.0935	0.075	30187	keystroke_w	w	n/a
15.1835	0.135	30367	keystroke_n	n	n/a
15.2585	0.15	30517	keystroke_Key.space	Key.space	n/a
15.4235	0.09	30847	keystroke_f	f	n/a
15.5585	0.075	31117	keystroke_o	o	n/a
15.7085	0.105	31417	keystroke_x	x	n/a
15.8435	0.165	31687	keystroke_Key.space	Key.space	n/a
16.3685	0.135	32737	keystroke_j	j	n/a
16.6385	0.075	33277	keystroke_u	u	n/a
16.8485	0.18	33697	keystroke_m	m	n/a
16.9535	0.165	33907	keystroke_p	p	n/a
17.0885	0.09	34177	keystroke_s	s	n/a
17.1635	0.12	34327	keystroke_Key.space	Key.space	n/a
17.3135	0.12	34627	keystroke_o	o	n/a
17.4485	0.09	34897	keystroke_v	v	n/a
17.6285	0.165	35257	keystroke_e	e	n/a
17.7185	0.12	35437	keystroke_r	r	n/a
17.8085	0.105	35617	keystroke_Key.space	Key.space	n/a
17.9735	0.12	35947	keystroke_a	a	n/a
18.0185	0.135	36037	keystroke_Key.space	Key.space	n/a
18.1085	0.12	36217	keystroke_l	l	n/a
18.2585	0.09	36517	keystroke_a	a	n/a
18.5135	0.105	37027	keystroke_z	z	n/a
18.7835	0.15	37567	keystroke_y	y	n/a
18.8885	0.135	37777	keystroke_Key.space	Key.space	n/a
19.0385	0.075	38077	keystroke_d	d	n/a
19.1285	0.075	38257	keystroke_o	o	n/a
19.2635	0.075	38527	keystroke_g	g	n/a
19.6685	0.105	39337	keystroke_Key.enter	Key.enter	n/a
19.781	7.6895	39562	prompt	n/a	purchased frequent juvenile outline\n
20.5835	0.12	41167	keystroke_p	p	n/a
20.7785	0.105	41557	keystroke_u	u	n/a
20.8985	0.075	41797	keystroke_r	r	n/a
21.1835	0.09	42367	keystroke_c	c	n/a
21.2585	0.105	42517	keystroke_h	h	n/a
21.4385	0.165	42877	keystroke_a	a	n/a
21.5135	0.135	43027	keystroke_s	s	n/a
21.7085	0.09	43417	keystroke_e	e	n/a
21.9335	0.075	43867	keystroke_d	d	n/a
22.0385	0.075	44077	keystroke_Key.space	Key.space	n/a
22.3385	0.075	44677	keystroke_f	f	n/a
22.5335	0.105	45067	keystroke_r	r	n/a
22.6985	0.045	45397	keystroke_e	e	n/a
23.0285	0.135	46057	keystroke_q	q	n/a
23.1785	0.105	46357	keystroke_u	u	n/a
23.2985	0.09	46597	keystroke_e	e	n/a
23.4485	0.12	46897	keystroke_n	n	n/a
23.6285	0.075	47257	keystroke_t	t	n/a
23.8385	0.105	47677	keystroke_Key.space	Key.space	n/a
24.1535	0.12	48307	keystroke_j	j	n/a
24.3785	0.105	48757	keystroke_u	u	n/a
24.5585	0.075	49117	keystroke_v	v	n/a
24.7085	0.075	49417	keystroke_e	e	n/a
24.8435	0.135	49687	keystroke_n	n	n/a
25.0235	0.18	50047	keystroke_i	i	n/a
25.1585	0.135	50317	keystroke_l	l	n/a
25.3085	0.045	50617	keystroke_e	e	n/a
25.4585	0.12	50917	keystroke_Key.space	Key.space	n/a
25.9985	0.09	51997	keystroke_o	o	n/a
26.1785	0.12	52357	keystroke_u	u	n/a
26.3585	0.105	52717	keystroke_t	t	n/a
26.5085	0.255	53017	keystroke_l	l	n/a
26.6285	0.15	53257	keystroke_i	i	n/a
26.7035	0.165	53407	keystroke_n	n	n/a
26.8085	0.09	53617	keystroke_e	e	n/a
27.3335	0.135	54667	keystroke_Key.enter	Key.enter	n/a
27.475	8.051	54950	prompt	n/a	dimensions broadcast rouge vocals\n
28.2635	0.075	56527	keystroke_d	d	n/a
28.3685	0.09	56737	keystroke_i	i	n/a
28.5785	0.105	57157	keystroke_m	m	n/a
28.8635	0.09	57727	keystroke_n	n	n/a
29.2085	0.075	58417	keystroke_Key.backspace	Key.backspace	n/a
29.3735	0.075	58747	keystroke_e	e	n/a
29.5985	0.09	59197	keystroke_n	n	n/a
29.8235	0.09	59647	keystroke_s	s	n/a
29.8985	0.165	59797	keystroke_i	i	n/a
30.0335	0.15	60067	keystroke_o	o	n/a
30.1235	0.165	60247	keystroke_n	n	n/a
30.3035	0.06	60607	keystroke_s	s	n/a
30.5735	0.15	61147	keystroke_Key.space	Key.space	n/a
30.8885	0.09	61777	keystroke_b	b	n/a
31.2485	0.09	62497	keystroke_r	r	n/a
31.3535	0.12	62707	keystroke_o	o	n/a
31.5185	0.12	63037	keystroke_a	a	n/a
31.7885	0.045	63577	keystroke_d	d	n/a
32.0135	0.045	64027	keystroke_c	c	n/a
32.1635	0.165	64327	keystroke_a	a	n/a
32.2535	0.18	64507	keystroke_s	s	n/a
32.4485	0.09	64897	keystroke_t	t	n/a
32.9135	0.135	65827	keystroke_Key.space	Key.space	n/a
33.3485	0.09	66697	keystroke_r	r	n/a
33.4535	0.105	66907	keystroke_o	o	n/a
33.5285	0.12	67057	keystroke_u	u	n/a
33.6935	0.09	67387	keystroke_g	g	n/a
33.9785	0.045	67957	keystroke_e	e	n/a
34.0535	0.15	68107	keystroke_Key.space	Key.space	n/a
34.3235	0.075	68647	keystroke_v	v	n/a
34.3985	0.09	68797	keystroke_o	o	n/a
34.5635	0.075	69127	keystroke_c	c	n/a
34.7435	0.09	69487	keystroke_a	a	n/a
34.8635	0.165	69727	keystroke_l	l	n/a
34.9835	0.075	69967	keystroke_s	s	n/a
35.3885	0.135	70777	keystroke_Key.enter	Key.enter	n/a
35.5305	7.075	71061	prompt	n/a	clients lose revisions explosion\n
36.514	0.1045	73028	keystroke_c	c	n/a
36.6035	0.045	73207	keystroke_l	l	n/a
36.7085	0.0895	73417	keystroke_i	i	n/a
36.843	0.075	73686	keystroke_e	e	n/a
36.948	0.12	73896	keystroke_n	n	n/a
37.099	0.074	74198	keystroke_t	t	n/a
37.189	0.089	74378	keystroke_s	s	n/a
37.308	0.135	74616	keystroke_Key.space	Key.space	n/a
37.473	0.105	74946	keystroke_l	l	n/a
37.684	0.105	75368	keystroke_o	o	n/a
37.818	0.135	75636	keystroke_s	s	n/a
37.893	0.091	75786	keystroke_e	e	n/a
38.028	0.135	76056	keystroke_Key.space	Key.space	n/a
38.343	0.09	76686	keystroke_r	r	n/a
38.464	0.089	76928	keystroke_e	e	n/a
38.704	0.105	77408	keystroke_v	v	n/a
38.853	0.09	77706	keystroke_i	i	n/a
38.973	0.091	77946	keystroke_s	s	n/a
39.094	0.15	78188	keystroke_i	i	n/a
39.184	0.209	78368	keystroke_o	o	n/a
39.318	0.166	78636	keystroke_n	n	n/a
39.484	0.09	78968	keystroke_s	s	n/a
40.068	0.151	80136	keystroke_Key.space	Key.space	n/a
40.249	0.075	80498	keystroke_e	e	n/a
40.519	0.09	81038	keystroke_x	x	n/a
40.684	0.165	81368	keystroke_p	p	n/a
40.864	0.12	81728	keystroke_l	l	n/a
41.1185	0.09	82237	keystroke_o	o	n/a
41.2835	0.045	82567	keystroke_s	s	n/a
41.4335	0.15	82867	keystroke_i	i	n/a
41.5535	0.195	83107	keystroke_o	o	n/a
41.7035	0.15	83407	keystroke_n	n	n/a
42.4985	0.105	84997	keystroke_Key.enter	Key.enter	n/a
42.6105	9.6255	85221	prompt	n/a	removal shepherd statistical writes\n
43.6235	0.105	87247	keystroke_r	r	n/a
43.7735	0.09	87547	keystroke_e	e	n/a
43.9685	0.165	87937	keystroke_m	m	n/a
44.1185	0.09	88237	keystroke_o	o	n/a
44.2685	0.105	88537	keystroke_v	v	n/a
44.6435	0.09	89287	keystroke_a	a	n/a
44.7785	0.135	89557	keystroke_l	l	n/a
44.8985	0.12	89797	keystroke_Key.space	Key.space	n/a
45.3185	0.105	90637	keystroke_s	s	n/a
45.4385	0.09	90877	keystroke_h	h	n/a
45.6185	0.06	91237	keystroke_e	e	n/a
46.1135	0.075	92227	keystroke_p	p	n/a
46.3685	0.15	92737	keystroke_h	h	n/a
46.5335	0.165	93067	keystroke_e	e	n/a
46.6535	0.106	93307	keystroke_r	r	n/a
47.0285	0.075	94057	keystroke_d	d	n/a
47.1335	0.15	94267	keystroke_Key.space	Key.space	n/a
47.9285	0.105	95857	keystroke_s	s	n/a
48.1385	0.045	96277	keystroke_t	t	n/a
48.2885	0.09	96577	keystroke_a	a	n/a
48.8135	0.075	97627	keystroke_t	t	n/a
49.2035	0.105	98407	keystroke_i	i	n/a
49.4435	0.105	98887	keystroke_s	s	n/a
49.6235	0.09	99247	keystroke_t	t	n/a
49.7435	0.105	99487	keystroke_i	i	n/a
49.8785	0.09	99757	keystroke_c	c	n/a
50.0585	0.09	100117	keystroke_a	a	n/a
50.1935	0.135	100387	keystroke_l	l	n/a
50.3585	0.06	100717	keystroke_Key.space	Key.space	n/a
50.5835	0.09	101167	keystroke_w	w	n/a
50.7935	0.105	101587	keystroke_r	r	n/a
50.9585	0.12	101917	keystroke_i	i	n/a
51.0935	0.105	102187	keystroke_t	t	n/a
51.1835	0.195	102367	keystroke_e	e	n/a
51.3935	0.09	102787	keystroke_s	s	n/a
52.1135	0.12	104227	keystroke_Key.enter	Key.enter	n/a
52.241	7.8845	104482	prompt	n/a	grill converter traditional herbal\n
53.2085	0.06	106417	keystroke_g	g	n/a
53.3885	0.09	106777	keystroke_r	r	n/a
53.4635	0.075	106927	keystroke_i	i	n/a
53.6435	0.06	107287	keystroke_l	l	n/a
53.8085	0.165	107617	keystroke_l	l	n/a
53.9585	0.075	107917	keystroke_Key.space	Key.space	n/a
54.2135	0.135	108427	keystroke_c	c	n/a
54.3635	0.075	108727	keystroke_o	o	n/a
54.5735	0.12	109147	keystroke_n	n	n/a
55.1745	0.119	110349	keystroke_v	v	n/a
55.4435	0.121	110887	keystroke_e	e	n/a
55.5185	0.105	111037	keystroke_r	r	n/a
55.7595	0.074	111519	keystroke_t	t	n/a
55.9385	0.15	111877	keystroke_e	e	n/a
56.0285	0.105	112057	keystroke_r	r	n/a
56.4935	0.135	112987	keystroke_Key.space	Key.space	n/a
56.824	0.09	113648	keystroke_t	t	n/a
57.034	0.135	114068	keystroke_r	r	n/a
57.139	0.105	114278	keystroke_a	a	n/a
57.319	0.105	114638	keystroke_d	d	n/a
57.484	0.06	114968	keystroke_i	i	n/a
57.589	0.09	115178	keystroke_t	t	n/a
57.694	0.165	115388	keystroke_i	i	n/a
57.814	0.195	115628	keystroke_o	o	n/a
57.934	0.165	115868	keystroke_n	n	n/a
58.114	0.105	116228	keystroke_a	a	n/a
58.249	0.15	116498	keystroke_l	l	n/a
58.368	0.135	116736	keystroke_Key.space	Key.space	n/a
58.789	0.135	117578	keystroke_h	h	n/a
58.894	0.15	117788	keystroke_e	e	n/a
59.029	0.09	118058	keystroke_r	r	n/a
59.254	0.1345	118508	keystroke_b	b	n/a
59.4785	0.12	118957	keystroke_a	a	n/a
59.5535	0.135	119107	keystroke_l	l	n/a
59.9735	0.149	119947	keystroke_Key.enter	Key.enter	n/a
60.1305	6.759	120261	prompt	n/a	pixels kong musicians usual\n
61.0535	0.12	122107	keystroke_p	p	n/a
61.2485	0.105	122497	keystroke_i	i	n/a
61.4435	0.075	122887	keystroke_x	x	n/a
61.6685	0.075	123337	keystroke_e	e	n/a
61.7585	0.105	123517	keystroke_l	l	n/a
61.8785	0.09	123757	keystroke_s	s	n/a
62.0735	0.12	124147	keystroke_Key.space	Key.space	n/a
62.3885	0.105	124777	keystroke_k	k	n/a
62.6285	0.135	125257	keystroke_o	o	n/a
62.9585	0.12	125917	keystroke_n	n	n/a
63.1985	0.075	126397	keystroke_g	g	n/a
63.4985	0.105	126997	keystroke_Key.space	Key.space	n/a
63.6785	0.135	127357	keystroke_m	m	n/a
63.9785	0.09	127957	keystroke_u	u	n/a
64.1135	0.09	128227	keystroke_s	s	n/a
64.2485	0.09	128497	keystroke_i	i	n/a
64.3535	0.105	128707	keystroke_c	c	n/a
64.4885	0.09	128977	keystroke_i	i	n/a
64.6235	0.09	129247	keystroke_a	a	n/a
64.7435	0.105	129487	keystroke_n	n	n/a
64.9235	0.105	129847	keystroke_s	s	n/a
65.5385	0.15	131077	keystroke_Key.space	Key.space	n/a
65.8235	0.075	131647	keystroke_u	u	n/a
65.9135	0.105	131827	keystroke_s	s	n/a
66.0335	0.12	132067	keystroke_u	u	n/a
66.1835	0.075	132367	keystroke_a	a	n/a
66.3035	0.135	132607	keystroke_l	l	n/a
66.7385	0.15	133477	keystroke_Key.enter	Key.enter	n/a
66.898	6.367	133796	prompt	n/a	bowl wallet define chips\n
67.8485	0.105	135697	keystroke_b	b	n/a
67.9385	0.105	135877	keystroke_o	o	n/a
68.1035	0.075	136207	keystroke_w	w	n/a
68.2685	0.15	136537	keystroke_l	l	n/a
68.4035	0.135	136807	keystroke_Key.space	Key.space	n/a
68.9135	0.105	137827	keystroke_w	w	n/a
69.1385	0.105	138277	keystroke_a	a	n/a
69.2135	0.075	138427	keystroke_l	l	n/a
69.3785	0.12	138757	keystroke_l	l	n/a
69.5135	0.105	139027	keystroke_e	e	n/a
69.6635	0.105	139327	keystroke_t	t	n/a
69.7985	0.12	139597	keystroke_Key.space	Key.space	n/a
70.3835	0.06	140767	keystroke_d	d	n/a
70.6085	0.09	141217	keystroke_e	e	n/a
70.8635	0.075	141727	keystroke_f	f	n/a
71.0735	0.165	142147	keystroke_i	i	n/a
71.1785	0.18	142357	keystroke_n	n	n/a
71.3285	0.075	142657	keystroke_e	e	n/a
71.5685	0.135	143137	keystroke_Key.space	Key.space	n/a
71.8835	0.09	143767	keystroke_c	c	n/a
72.1085	0.12	144217	keystroke_h	h	n/a
72.2735	0.12	144547	keystroke_i	i	n/a
72.4685	0.135	144937	keystroke_p	p	n/a
72.6485	0.06	145297	keystroke_s	s	n/a
73.1285	0.135	146257	keystroke_Key.enter	Key.enter	n/a
73.269	6.296	146538	prompt	n/a	printing ranch political result\n
74.0285	0.12	148057	keystroke_p	p	n/a
74.1635	0.105	148327	keystroke_r	r	n/a
74.2985	0.195	148597	keystroke_i	i	n/a
74.4185	0.15	148837	keystroke_n	n	n/a
74.5835	0.075	149167	keystroke_t	t	n/a
74.7035	0.15	149407	keystroke_i	i	n/a
74.7935	0.225	149587	keystroke_n	n	n/a
74.9435	0.09	149887	keystroke_g	g	n/a
75.0635	0.15	150127	keystroke_Key.space	Key.space	n/a
75.3635	0.12	150727	keystroke_r	r	n/a
75.4985	0.12	150997	keystroke_a	a	n/a
75.6335	0.12	151267	keystroke_n	n	n/a
75.7685	0.105	151537	keystroke_c	c	n/a
75.9485	0.15	151897	keystroke_h	h	n/a
76.1135	0.15	152227	keystroke_Key.space	Key.space	n/a
76.4585	0.105	152917	keystroke_p	p	n/a
76.6535	0.09	153307	keystroke_o	o	n/a
76.8935	0.15	153787	keystroke_l	l	n/a
76.9985	0.105	153997	keystroke_i	i	n/a
77.1185	0.06	154237	keystroke_t	t	n/a
77.2235	0.135	154447	keystroke_i	i	n/a
77.3285	0.09	154657	keystroke_c	c	n/a
77.5235	0.09	155047	keystroke_a	a	n/a
77.6285	0.135	155257	keystroke_l	l	n/a
77.7335	0.12	155467	keystroke_Key.space	Key.space	n/a
78.2285	0.12	156457	keystroke_r	r	n/a
78.4685	0.045	156937	keystroke_e	e	n/a
78.6785	0.12	157357	keystroke_s	s	n/a
78.8135	0.165	157627	keystroke_u	u	n/a
78.9185	0.15	157837	keystroke_l	l	n/a
79.0835	0.06	158167	keystroke_t	t	n/a
79.4435	0.12	158887	keystroke_Key.enter	Key.enter	n/a
79.57	7.945	159140	prompt	n/a	several interventions ignore witnesses\n
80.3135	0.075	160627	keystroke_s	s	n/a
80.4935	0.09	160987	keystroke_e	e	n/a
80.7185	0.06	161437	keystroke_v	v	n/a
80.8535	0.12	161707	keystroke_e	e	n/a
80.9135	0.195	161827	keystroke_r	r	n/a
81.0635	0.12	162127	keystroke_a	a	n/a
81.1685	0.135	162337	keystroke_l	l	n/a
81.2735	0.135	162547	keystroke_Key.space	Key.space	n/a
81.6935	0.165	163387	keystroke_i	i	n/a
81.8135	0.135	163627	keystroke_n	n	n/a
82.0085	0.09	164017	keystroke_t	t	n/a
82.1435	0.135	164287	keystroke_e	e	n/a
82.2485	0.075	164497	keystroke_r	r	n/a
82.4585	0.09	164917	keystroke_v	v	n/a
82.6235	0.09	165247	keystroke_e	e	n/a
82.7435	0.105	165487	keystroke_n	n	n/a
82.8335	0.09	165667	keystroke_t	t	n/a
82.9535	0.15	165907	keystroke_i	i	n/a
83.0885	0.15	166177	keystroke_o	o	n/a
83.2085	0.15	166417	keystroke_n	n	n/a
83.3435	0.075	166687	keystroke_s	s	n/a
83.4785	0.135	166957	keystroke_Key.space	Key.space	n/a
84.1085	0.09	168217	keystroke_i	i	n/a
84.2135	0.09	168427	keystroke_g	g	n/a
84.3335	0.18	168667	keystroke_n	n	n/a
84.4685	0.12	168937	keystroke_o	o	n/a
84.6335	0.12	169267	keystroke_r	r	n/a
84.7385	0.09	169477	keystroke_e	e	n/a
84.8435	0.105	169687	keystroke_Key.space	Key.space	n/a
85.0835	0.075	170167	keystroke_w	w	n/a
85.1885	0.075	170377	keystroke_i	i	n/a
85.3385	0.075	170677	keystroke_t	t	n/a
85.4585	0.12	170917	keystroke_n	n	n/a
85.5485	0.09	171097	keystroke_e	e	n/a
85.8035	0.075	171607	keystroke_s	s	n/a
85.9535	0.09	171907	keystroke_s	s	n/a
86.2985	0.105	172597	keystroke_e	e	n/a
86.4635	0.12	172927	keystroke_s	s	n/a
87.3935	0.12	174787	keystroke_Key.enter	Key.enter	n/a
87.5205	10.81	175041	prompt	n/a	meals drinking mitsubishi existing\n
88.5335	0.15	177067	keystroke_m	m	n/a
88.6985	0.105	177397	keystroke_e	e	n/a
88.7735	0.12	177547	keystroke_a	a	n/a
88.8785	0.09	177757	keystroke_l	l	n/a
89.0435	0.12	178087	keystroke_s	s	n/a
89.1035	0.135	178207	keystroke_Key.space	Key.space	n/a
89.2835	0.12	178567	keystroke_d	d	n/a
89.4485	0.12	178897	keystroke_r	r	n/a
89.5385	0.135	179077	keystroke_i	i	n/a
89.6585	0.225	179317	keystroke_n	n	n/a
89.8235	0.12	179647	keystroke_k	k	n/a
90.0335	0.15	180067	keystroke_i	i	n/a
90.1385	0.2245	180277	keystroke_n	n	n/a
90.258	0.075	180516	keystroke_g	g	n/a
90.378	0.135	180756	keystroke_Key.space	Key.space	n/a
91.293	0.135	182586	keystroke_m	m	n/a
91.638	0.09	183276	keystroke_i	i	n/a
91.893	0.045	183786	keystroke_t	t	n/a
92.133	0.09	184266	keystroke_s	s	n/a
92.388	0.105	184776	keystroke_u	u	n/a
93.408	0.105	186816	keystroke_b	b	n/a
93.573	0.105	187146	keystroke_i	i	n/a
93.753	0.09	187506	keystroke_s	s	n/a
93.873	0.18	187746	keystroke_h	h	n/a
93.993	0.12	187986	keystroke_i	i	n/a
94.413	0.135	188826	keystroke_Key.space	Key.space	n/a
95.013	0.075	190026	keystroke_e	e	n/a
95.238	0.105	190476	keystroke_x	x	n/a
95.388	0.105	190776	keystroke_i	i	n/a
96.348	0.075	192696	keystroke_s	s	n/a
96.603	0.075	193206	keystroke_t	t	n/a
96.753	0.195	193506	keystroke_i	i	n/a
96.873	0.18	193746	keystroke_n	n	n/a
97.038	0.09	194076	keystroke_g	g	n/a
98.193	0.135	196386	keystroke_Key.enter	Key.enter	n/a
98.338	7.4015	196676	prompt	n/a	commissioner unto main spies\n
99.378	0.09	198756	keystroke_c	c	n/a
99.483	0.075	198966	keystroke_o	o	n/a
99.738	0.075	199476	keystroke_m	m	n/a
99.888	0.12	199776	keystroke_m	m	n/a
100.173	0.09	200346	keystroke_i	i	n/a
100.878	0.075	201756	keystroke_s	s	n/a
101.043	0.075	202086	keystroke_s	s	n/a
101.358	0.165	202716	keystroke_i	i	n/a
101.493	0.15	202986	keystroke_o	o	n/a
101.628	0.135	203256	keystroke_n	n	n/a
101.913	0.09	203826	keystroke_e	e	n/a
102.138	0.105	204276	keystroke_r	r	n/a
102.273	0.12	204546	keystroke_Key.space	Key.space	n/a
102.708	0.075	205416	keystroke_u	u	n/a
102.918	0.12	205836	keystroke_n	n	n/a
103.053	0.09	206106	keystroke_t	t	n/a
103.173	0.15	206346	keystroke_o	o	n/a
103.293	0.1195	206586	keystroke_Key.space	Key.space	n/a
103.3975	0.135	206795	keystroke_m	m	n/a
103.5475	0.105	207095	keystroke_a	a	n/a
103.7425	0.18	207485	keystroke_i	i	n/a
103.8925	0.18	207785	keystroke_n	n	n/a
104.0125	0.135	208025	keystroke_Key.space	Key.space	n/a
104.5675	0.12	209135	keystroke_s	s	n/a
104.6575	0.105	209315	keystroke_p	p	n/a
104.8225	0.105	209645	keystroke_i	i	n/a
105.0025	0.09	210005	keystroke_e	e	n/a
105.1975	0.09	210395	keystroke_s	s	n/a
105.6175	0.12	211235	keystroke_Key.enter	Key.enter	n/a
105.744	6.161	211488	prompt	n/a	cakes trouble headers fashion\n
106.5625	0.09	213125	keystroke_c	c	n/a
106.7875	0.075	213575	keystroke_a	a	n/a
106.8475	0.105	213695	keystroke_k	k	n/a
106.9675	0.15	213935	keystroke_e	e	n/a
107.0725	0.105	214145	keystroke_s	s	n/a
107.1925	0.135	214385	keystroke_Key.space	Key.space	n/a
107.4775	0.06	214955	keystroke_t	t	n/a
107.6725	0.09	215345	keystroke_r	r	n/a
107.7475	0.165	215495	keystroke_o	o	n/a
107.8375	0.105	215675	keystroke_u	u	n/a
107.9275	0.09	215855	keystroke_b	b	n/a
108.0775	0.09	216155	keystroke_l	l	n/a
108.1685	0.074	216337	keystroke_e	e	n/a
108.2875	0.12	216575	keystroke_Key.space	Key.space	n/a
108.7975	0.105	217595	keystroke_h	h	n/a
108.8725	0.135	217745	keystroke_e	e	n/a
108.9925	0.09	217985	keystroke_a	a	n/a
109.1275	0.09	218255	keystroke_d	d	n/a
109.3525	0.165	218705	keystroke_e	e	n/a
109.3975	0.18	218795	keystroke_r	r	n/a
109.5185	0.104	219037	keystroke_s	s	n/a
109.6375	0.12	219275	keystroke_Key.space	Key.space	n/a
109.8775	0.135	219755	keystroke_f	f	n/a
110.0425	0.135	220085	keystroke_a	a	n/a
110.1025	0.135	220205	keystroke_s	s	n/a
110.3125	0.18	220625	keystroke_h	h	n/a
110.4475	0.165	220895	keystroke_i	i	n/a
110.5825	0.165	221165	keystroke_o	o	n/a
110.7175	0.12	221435	keystroke_n	n	n/a
111.7675	0.135	223535	keystroke_Key.enter	Key.enter	n/a
111.9095	8.066	223819	prompt	n/a	unity frame perspectives varied\n
112.7425	0.075	225485	keystroke_u	u	n/a
112.9675	0.166	225935	keystroke_n	n	n/a
113.0875	0.12	226175	keystroke_i	i	n/a
113.2525	0.075	226505	keystroke_t	t	n/a
113.3575	0.15	226715	keystroke_y	y	n/a
113.4475	0.15	226895	keystroke_Key.space	Key.space	n/a
113.6125	0.075	227225	keystroke_f	f	n/a
113.8075	0.15	227615	keystroke_r	r	n/a
113.8975	0.105	227795	keystroke_a	a	n/a
113.9725	0.12	227945	keystroke_m	m	n/a
114.1375	0.075	228275	keystroke_e	e	n/a
114.8425	0.12	229685	keystroke_Key.space	Key.space	n/a
115.0675	0.105	230135	keystroke_p	p	n/a
115.1285	0.149	230257	keystroke_e	e	n/a
115.2485	0.059	230497	keystroke_r	r	n/a
115.4575	0.09	230915	keystroke_s	s	n/a
115.5625	0.105	231125	keystroke_p	p	n/a
115.6525	0.09	231305	keystroke_e	e	n/a
116.1025	0.075	232205	keystroke_c	c	n/a
116.4625	0.075	232925	keystroke_i	i	n/a
116.8225	0.09	233645	keystroke_Key.backspace	Key.backspace	n/a
117.0785	0.074	234157	keystroke_t	t	n/a
117.2425	0.105	234485	keystroke_i	i	n/a
117.3625	0.165	234725	keystroke_v	v	n/a
117.4825	0.165	234965	keystroke_e	e	n/a
117.6025	0.105	235205	keystroke_s	s	n/a
117.9775	0.15	235955	keystroke_Key.space	Key.space	n/a
118.3675	0.105	236735	keystroke_v	v	n/a
118.5775	0.135	237155	keystroke_a	a	n/a
118.6385	0.134	237277	keystroke_r	r	n/a
118.8175	0.135	237635	keystroke_i	i	n/a
118.9375	0.075	237875	keystroke_e	e	n/a
119.1485	0.089	238297	keystroke_d	d	n/a
119.8525	0.12	239705	keystroke_Key.enter	Key.enter	n/a
119.981	5.889	239962	prompt	n/a	as surrounding grow warning\n
120.6625	0.075	241325	keystroke_s	s	n/a
121.1125	0.06	242225	keystroke_Key.backspace	Key.backspace	n/a
121.1875	0.151	242375	keystroke_a	a	n/a
121.2785	0.104	242557	keystroke_s	s	n/a
121.8625	0.165	243725	keystroke_Key.space	Key.space	n/a
122.1025	0.12	244205	keystroke_s	s	n/a
122.2375	0.12	244475	keystroke_u	u	n/a
122.3725	0.061	244745	keystroke_r	r	n/a
122.4925	0.12	244985	keystroke_r	r	n/a
122.5825	0.136	245165	keystroke_o	o	n/a
122.6735	0.105	245347	keystroke_u	u	n/a
122.8975	0.105	245795	keystroke_n	n	n/a
122.9735	0.089	245947	keystroke_d	d	n/a
123.1085	0.135	246217	keystroke_i	i	n/a
123.1975	0.151	246395	keystroke_n	n	n/a
123.6785	0.075	247357	keystroke_g	g	n/a
123.7825	0.165	247565	keystroke_Key.space	Key.space	n/a
123.9935	0.06	247987	keystroke_g	g	n/a
124.2025	0.076	248405	keystroke_r	r	n/a
124.2785	0.09	248557	keystroke_o	o	n/a
124.3985	0.06	248797	keystroke_w	w	n/a
124.5475	0.135	249095	keystroke_Key.space	Key.space	n/a
124.7435	0.075	249487	keystroke_w	w	n/a
124.9085	0.12	249817	keystroke_a	a	n/a
124.9685	0.12	249937	keystroke_r	r	n/a
125.0585	0.135	250117	keystroke_n	n	n/a
125.1935	0.18	250387	keystroke_i	i	n/a
125.2985	0.15	250597	keystroke_n	n	n/a
125.4035	0.06	250807	keystroke_g	g	n/a
125.7325	0.136	251465	keystroke_Key.enter	Key.enter	n/a
125.8745	7.9305	251749	prompt	n/a	creature french accomplish vampire\n
126.9335	0.12	253867	keystroke_c	c	n/a
127.2335	0.135	254467	keystroke_r	r	n/a
127.3535	0.105	254707	keystroke_e	e	n/a
127.4435	0.165	254887	keystroke_a	a	n/a
127.5785	0.059	255157	keystroke_t	t	n/a
127.7435	0.12	255487	keystroke_u	u	n/a
127.8185	0.12	255637	keystroke_r	r	n/a
127.8785	0.12	255757	keystroke_e	e	n/a
128.0575	0.12	256115	keystroke_Key.space	Key.space	n/a
128.3135	0.09	256627	keystroke_f	f	n/a
128.6885	0.105	257377	keystroke_r	r	n/a
128.9135	0.075	257827	keystroke_e	e	n/a
129.0485	0.135	258097	keystroke_n	n	n/a
129.2585	0.105	258517	keystroke_c	c	n/a
129.3785	0.165	258757	keystroke_h	h	n/a
129.5125	0.136	259025	keystroke_Key.space	Key.space	n/a
130.2485	0.075	260497	keystroke_a	a	n/a
130.4285	0.06	260857	keystroke_c	c	n/a
130.5785	0.09	261157	keystroke_c	c	n/a
130.7585	0.18	261517	keystroke_o	o	n/a
131.0135	0.24	262027	keystroke_m	m	n/a
131.2835	0.165	262567	keystroke_p	p	n/a
131.4335	0.15	262867	keystroke_l	l	n/a
131.5685	0.15	263137	keystroke_i	i	n/a
131.7335	0.09	263467	keystroke_s	s	n/a
131.8835	0.15	263767	keystroke_h	h	n/a
132.0785	0.12	264157	keystroke_Key.space	Key.space	n/a
132.3785	0.105	264757	keystroke_v	v	n/a
132.5885	0.12	265177	keystroke_a	a	n/a
132.6785	0.18	265357	keystroke_m	m	n/a
132.8135	0.12	265627	keystroke_p	p	n/a
132.9935	0.105	265987	keystroke_i	i	n/a
133.1435	0.12	266287	keystroke_r	r	n/a
133.2485	0.075	266497	keystroke_e	e	n/a
133.6985	0.105	267397	keystroke_Key.enter	Key.enter	n/a
133.8105	5.065	267621	prompt	n/a	dead stuff brass spin\n
134.6285	0.06	269257	keystroke_d	d	n/a
134.8085	0.12	269617	keystroke_e	e	n/a
134.8835	0.105	269767	keystroke_a	a	n/a
135.0635	0.09	270127	keystroke_d	d	n/a
135.1685	0.15	270337	keystroke_Key.space	Key.space	n/a
135.2885	0.135	270577	keystroke_s	s	n/a
135.3785	0.105	270757	keystroke_t	t	n/a
135.6035	0.135	271207	keystroke_u	u	n/a
135.7235	0.075	271447	keystroke_f	f	n/a
135.8885	0.12	271777	keystroke_f	f	n/a
136.0385	0.15	272077	keystroke_Key.space	Key.space	n/a
136.2335	0.12	272467	keystroke_b	b	n/a
136.5035	0.1645	273007	keystroke_r	r	n/a
136.698	0.165	273396	keystroke_a	a	n/a
136.818	0.09	273636	keystroke_s	s	n/a
137.013	0.105	274026	keystroke_s	s	n/a
137.628	0.135	275256	keystroke_Key.space	Key.space	n/a
137.883	0.12	275766	keystroke_s	s	n/a
138.018	0.12	276036	keystroke_p	p	n/a
138.243	0.18	276486	keystroke_i	i	n/a
138.348	0.15	276696	keystroke_n	n	n/a
138.753	0.12	277506	keystroke_Key.enter	Key.enter	n/a
138.8805	5.979	277761	prompt	n/a	luis guild vessels decent\n
139.713	0.135	279426	keystroke_l	l	n/a
139.938	0.15	279876	keystroke_u	u	n/a
140.058	0.12	280116	keystroke_i	i	n/a
140.193	0.12	280386	keystroke_s	s	n/a
140.343	0.135	280686	keystroke_Key.space	Key.space	n/a
140.613	0.075	281226	keystroke_g	g	n/a
140.673	0.18	281346	keystroke_u	u	n/a
140.778	0.21	281556	keystroke_i	i	n/a
140.928	0.12	281856	keystroke_l	l	n/a
141.048	0.09	282096	keystroke_d	d	n/a
141.693	0.135	283386	keystroke_Key.space	Key.space	n/a
141.963	0.045	283926	keystroke_v	v	n/a
142.203	0.075	284406	keystroke_e	e	n/a
142.428	0.09	284856	keystroke_s	s	n/a
142.608	0.12	285216	keystroke_s	s	n/a
142.908	0.09	285816	keystroke_e	e	n/a
143.103	0.12	286206	keystroke_l	l	n/a
143.253	0.105	286506	keystroke_s	s	n/a
143.403	0.15	286806	keystroke_Key.space	Key.space	n/a
143.568	0.075	287136	keystroke_d	d	n/a
143.763	0.045	287526	keystroke_e	e	n/a
143.973	0.075	287946	keystroke_c	c	n/a
144.198	0.075	288396	keystroke_e	e	n/a
144.258	0.165	288516	keystroke_n	n	n/a
144.438	0.06	288876	keystroke_t	t	n/a
144.723	0.135	289446	keystroke_Key.enter	Key.enter	n/a
144.8645	8.41	289729	prompt	n/a	stockholm post occupational merchant\n
145.863	0.105	291726	keystroke_s	s	n/a
146.043	0.09	292086	keystroke_t	t	n/a
146.163	0.105	292326	keystroke_o	o	n/a
146.298	0.12	292596	keystroke_c	c	n/a
146.403	0.105	292806	keystroke_k	k	n/a
146.718	0.18	293436	keystroke_h	h	n/a
146.868	0.075	293736	keystroke_o	o	n/a
147.063	0.09	294126	keystroke_l	l	n/a
147.393	0.165	294786	keystroke_m	m	n/a
147.513	0.15	295026	keystroke_Key.space	Key.space	n/a
148.893	0.075	297786	keystroke_p	p	n/a
149.088	0.105	298176	keystroke_o	o	n/a
149.223	0.15	298446	keystroke_s	s	n/a
149.328	0.105	298656	keystroke_t	t	n/a
149.433	0.12	298866	keystroke_Key.space	Key.space	n/a
149.598	0.105	299196	keystroke_o	o	n/a
149.688	0.09	299376	keystroke_c	c	n/a
149.868	0.09	299736	keystroke_c	c	n/a
149.973	0.195	299946	keystroke_u	u	n/a
150.138	0.12	300276	keystroke_p	p	n/a
150.303	0.15	300606	keystroke_a	a	n/a
150.378	0.105	300756	keystroke_t	t	n/a
150.513	0.075	301026	keystroke_i	i	n/a
150.558	0.18	301116	keystroke_o	o	n/a
150.708	0.105	301416	keystroke_n	n	n/a
150.858	0.12	301716	keystroke_a	a	n/a
150.963	0.135	301926	keystroke_l	l	n/a
151.083	0.135	302166	keystroke_Key.space	Key.space	n/a
151.788	0.195	303576	keystroke_m	m	n/a
151.923	0.15	303846	keystroke_e	e	n/a
152.013	0.075	304026	keystroke_r	r	n/a
152.223	0.09	304446	keystroke_c	c	n/a
152.328	0.09	304656	keystroke_h	h	n/a
152.358	0.12	304716	keystroke_a	a	n/a
152.583	0.15	305166	keystroke_n	n	n/a
152.718	0.09	305436	keystroke_t	t	n/a
153.138	0.135	306276	keystroke_Key.enter	Key.enter	n/a
153.2825	8.1065	306565	prompt	n/a	madonna contractor backing professionals\n
154.098	0.15	308196	keystroke_m	m	n/a
154.323	0.105	308646	keystroke_a	a	n/a
154.533	0.075	309066	keystroke_d	d	n/a
154.638	0.09	309276	keystroke_o	o	n/a
154.833	0.09	309666	keystroke_n	n	n/a
154.998	0.12	309996	keystroke_n	n	n/a
155.163	0.12	310326	keystroke_a	a	n/a
155.268	0.135	310536	keystroke_Key.space	Key.space	n/a
155.403	0.12	310806	keystroke_c	c	n/a
155.538	0.135	311076	keystroke_o	o	n/a
155.628	0.15	311256	keystroke_n	n	n/a
155.778	0.06	311556	keystroke_t	t	n/a
155.988	0.09	311976	keystroke_r	r	n/a
156.048	0.105	312096	keystroke_a	a	n/a
156.243	0.075	312486	keystroke_c	c	n/a
156.438	0.06	312876	keystroke_t	t	n/a
156.528	0.105	313056	keystroke_o	o	n/a
156.648	0.09	313296	keystroke_r	r	n/a
156.813	0.105	313626	keystroke_Key.space	Key.space	n/a
157.953	0.12	315906	keystroke_b	b	n/a
158.103	0.105	316206	keystroke_a	a	n/a
158.238	0.12	316476	keystroke_c	c	n/a
158.343	0.09	316686	keystroke_k	k	n/a
158.523	0.165	317046	keystroke_i	i	n/a
158.598	0.27	317196	keystroke_n	n	n/a
158.703	0.09	317406	keystroke_g	g	n/a
158.808	0.105	317616	keystroke_Key.space	Key.space	n/a
158.883	0.12	317766	keystroke_p	p	n/a
159.108	0.09	318216	keystroke_r	r	n/a
159.348	0.105	318696	keystroke_o	o	n/a
159.483	0.09	318966	keystroke_f	f	n/a
159.663	0.075	319326	keystroke_e	e	n/a
159.843	0.075	319686	keystroke_s	s	n/a
159.993	0.135	319986	keystroke_s	s	n/a
160.053	0.15	320106	keystroke_i	i	n/a
160.158	0.165	320316	keystroke_o	o	n/a
160.233	0.165	320466	keystroke_n	n	n/a
160.353	0.09	320706	keystroke_a	a	n/a
160.473	0.12	320946	keystroke_l	l	n/a
160.563	0.09	321126	keystroke_s	s	n/a
161.2675	0.12	322535	keystroke_Key.enter	Key.enter	n/a
161.3935	7.511	322787	prompt	n/a	saying tech multiple tree\n
162.0325	0.06	324065	keystroke_s	s	n/a
162.1975	0.12	324395	keystroke_a	a	n/a
162.2875	0.12	324575	keystroke_y	y	n/a
162.4375	0.21	324875	keystroke_i	i	n/a
162.5575	0.24	325115	keystroke_n	n	n/a
162.6775	0.09	325355	keystroke_g	g	n/a
162.7375	0.15	325475	keystroke_Key.space	Key.space	n/a
162.9025	0.135	325805	keystroke_t	t	n/a
163.0225	0.075	326045	keystroke_e	e	n/a
163.2325	0.075	326465	keystroke_c	c	n/a
163.3225	0.15	326645	keystroke_h	h	n/a
163.4275	0.12	326855	keystroke_Key.space	Key.space	n/a
163.7275	0.12	327455	keystroke_m	m	n/a
164.1325	0.075	328265	keystroke_u	u	n/a
164.2975	0.12	328595	keystroke_l	l	n/a
164.4325	0.06	328865	keystroke_t	t	n/a
164.5375	0.15	329075	keystroke_i	i	n/a
164.6725	0.165	329345	keystroke_p	p	n/a
164.7925	0.105	329585	keystroke_l	l	n/a
164.8375	0.105	329675	keystroke_e	e	n/a
164.9875	0.15	329975	keystroke_Key.space	Key.space	n/a
165.1225	0.075	330245	keystroke_f	f	n/a
165.3325	0.075	330665	keystroke_r	r	n/a
165.4975	0.09	330995	keystroke_e	e	n/a
166.0525	0.105	332105	keystroke_Key.backspace	Key.backspace	n/a
166.2925	0.045	332585	keystroke_Key.backspace	Key.backspace	n/a
166.4425	0.06	332885	keystroke_Key.backspace	Key.backspace	n/a
166.8625	0.075	333725	keystroke_t	t	n/a
167.1325	0.105	334265	keystroke_r	r	n/a
167.4325	0.075	334865	keystroke_e	e	n/a
167.5825	0.09	335165	keystroke_e	e	n/a
168.8125	0.09	337625	keystroke_Key.enter	Key.enter	n/a
168.909	10.675	337818	prompt	n/a	holder newcastle adjustments highlights\n
171.4105	0.087	342821	keystroke_h	h	n/a
171.4675	0.045	342935	keystroke_o	o	n/a
171.6325	0.12	343265	keystroke_l	l	n/a
171.7075	0.075	343415	keystroke_d	d	n/a
171.9175	0.12	343835	keystroke_e	e	n/a
171.9925	0.09	343985	keystroke_r	r	n/a
172.0975	0.135	344195	keystroke_Key.space	Key.space	n/a
172.6675	0.135	345335	keystroke_n	n	n/a
172.8035	0.089	345607	keystroke_e	e	n/a
173.0275	0.105	346055	keystroke_w	w	n/a
173.3875	0.09	346775	keystroke_c	c	n/a
173.6125	0.135	347225	keystroke_a	a	n/a
173.6575	0.15	347315	keystroke_s	s	n/a
173.8675	0.09	347735	keystroke_t	t	n/a
173.9725	0.105	347945	keystroke_l	l	n/a
174.0925	0.075	348185	keystroke_e	e	n/a
174.1975	0.135	348395	keystroke_Key.space	Key.space	n/a
174.9925	0.09	349985	keystroke_a	a	n/a
175.1725	0.09	350345	keystroke_d	d	n/a
175.3075	0.12	350615	keystroke_j	j	n/a
175.5775	0.12	351155	keystroke_u	u	n/a
175.9525	0.105	351905	keystroke_s	s	n/a
176.5075	0.045	353015	keystroke_t	t	n/a
176.7325	0.12	353465	keystroke_m	m	n/a
176.8675	0.09	353735	keystroke_e	e	n/a
176.9725	0.135	353945	keystroke_n	n	n/a
177.0925	0.105	354185	keystroke_t	t	n/a
177.1675	0.12	354335	keystroke_s	s	n/a
177.3475	0.12	354695	keystroke_Key.space	Key.space	n/a
177.5425	0.18	355085	keystroke_h	h	n/a
177.6925	0.105	355385	keystroke_i	i	n/a
177.8125	0.075	355625	keystroke_g	g	n/a
177.8725	0.12	355745	keystroke_h	h	n/a
178.0675	0.18	356135	keystroke_l	l	n/a
178.1725	0.105	356345	keystroke_i	i	n/a
178.2625	0.09	356525	keystroke_g	g	n/a
178.3675	0.135	356735	keystroke_h	h	n/a
178.4875	0.105	356975	keystroke_t	t	n/a
178.5775	0.105	357155	keystroke_s	s	n/a
179.4475	0.135	358895	keystroke_Key.enter	Key.enter	n/a
179.5885	7.7655	359177	prompt	n/a	browsers opposite logging viewer\n
180.3475	0.09	360695	keystroke_b	b	n/a
180.5575	0.15	361115	keystroke_r	r	n/a
180.6925	0.12	361385	keystroke_o	o	n/a
181.2625	0.0895	362525	keystroke_w	w	n/a
181.502	0.105	363004	keystroke_s	s	n/a
181.727	0.18	363454	keystroke_e	e	n/a
181.817	0.15	363634	keystroke_r	r	n/a
182.012	0.105	364024	keystroke_s	s	n/a
182.372	0.12	364744	keystroke_Key.space	Key.space	n/a
182.642	0.09	365284	keystroke_o	o	n/a
182.867	0.09	365734	keystroke_p	p	n/a
183.032	0.135	366064	keystroke_p	p	n/a
183.212	0.105	366424	keystroke_o	o	n/a
183.422	0.105	366844	keystroke_s	s	n/a
183.557	0.12	367114	keystroke_i	i	n/a
183.707	0.09	367414	keystroke_t	t	n/a
184.157	0.075	368314	keystroke_e	e	n/a
184.322	0.105	368644	keystroke_Key.space	Key.space	n/a
184.562	0.06	369124	keystroke_l	l	n/a
184.727	0.09	369454	keystroke_o	o	n/a
184.818	0.059	369636	keystroke_g	g	n/a
184.982	0.09	369964	keystroke_g	g	n/a
185.027	0.15	370054	keystroke_i	i	n/a
185.102	0.24	370204	keystroke_n	n	n/a
185.207	0.105	370414	keystroke_g	g	n/a
185.327	0.135	370654	keystroke_Key.space	Key.space	n/a
185.477	0.105	370954	keystroke_v	v	n/a
185.642	0.105	371284	keystroke_i	i	n/a
185.822	0.195	371644	keystroke_e	e	n/a
186.032	0.105	372064	keystroke_w	w	n/a
186.272	0.18	372544	keystroke_e	e	n/a
186.407	0.12	372814	keystroke_r	r	n/a
187.232	0.12	374464	keystroke_Key.enter	Key.enter	n/a
187.359	9.7755	374718	prompt	n/a	transmission participants tuning dosage\n
188.012	0.075	376024	keystroke_t	t	n/a
188.207	0.15	376414	keystroke_r	r	n/a
188.297	0.12	376594	keystroke_a	a	n/a
188.432	0.15	376864	keystroke_n	n	n/a
188.597	0.09	377194	keystroke_s	s	n/a
188.867	0.09	377734	keystroke_m	m	n/a
189.092	0.075	378184	keystroke_i	i	n/a
189.317	0.06	378634	keystroke_s	s	n/a
189.467	0.105	378934	keystroke_s	s	n/a
189.542	0.165	379084	keystroke_i	i	n/a
189.662	0.195	379324	keystroke_o	o	n/a
189.797	0.15	379594	keystroke_n	n	n/a
190.307	0.135	380614	keystroke_Key.space	Key.space	n/a
190.968	0.119	381936	keystroke_p	p	n/a
191.388	0.179	382776	keystroke_a	a	n/a
191.582	0.09	383164	keystroke_r	r	n/a
191.777	0.076	383554	keystroke_t	t	n/a
191.927	0.091	383854	keystroke_i	i	n/a
192.063	0.12	384126	keystroke_c	c	n/a
192.168	0.119	384336	keystroke_i	i	n/a
192.362	0.106	384724	keystroke_p	p	n/a
192.483	0.104	384966	keystroke_a	a	n/a
192.617	0.151	385234	keystroke_n	n	n/a
192.738	0.089	385476	keystroke_t	t	n/a
192.813	0.105	385626	keystroke_s	s	n/a
193.607	0.135	387214	keystroke_Key.space	Key.space	n/a
194.222	0.076	388444	keystroke_t	t	n/a
194.357	0.075	388714	keystroke_u	u	n/a
194.627	0.106	389254	keystroke_n	n	n/a
194.748	0.194	389496	keystroke_i	i	n/a
194.868	0.194	389736	keystroke_n	n	n/a
195.002	0.09	390004	keystroke_g	g	n/a
195.152	0.18	390304	keystroke_Key.space	Key.space	n/a
195.498	0.014	390996	keystroke_d	d	n/a
195.632	0.12	391264	keystroke_o	o	n/a
195.933	0.089	391866	keystroke_s	s	n/a
196.202	0.135	392404	keystroke_a	a	n/a
196.307	0.15	392614	keystroke_g	g	n/a
196.427	0.121	392854	keystroke_e	e	n/a
196.997	0.135	393994	keystroke_Key.enter	Key.enter	n/a
197.139	6.5805	394278	prompt	n/a	hopefully collapse winds revenge\n
197.958	0.09	395916	keystroke_h	h	n/a
198.122	0.091	396244	keystroke_o	o	n/a
198.317	0.136	396634	keystroke_p	p	n/a
198.437	0.09	396874	keystroke_e	e	n/a
198.587	0.121	397174	keystroke_f	f	n/a
198.693	0.105	397386	keystroke_u	u	n/a
198.918	0.075	397836	keystroke_l	l	n/a
199.082	0.196	398164	keystroke_l	l	n/a
199.218	0.15	398436	keystroke_y	y	n/a
199.293	0.149	398586	keystroke_Key.space	Key.space	n/a
199.607	0.091	399214	keystroke_c	c	n/a
199.757	0.076	399514	keystroke_o	o	n/a
199.937	0.091	399874	keystroke_l	l	n/a
200.103	0.135	400206	keystroke_l	l	n/a
200.282	0.105	400564	keystroke_a	a	n/a
200.403	0.134	400806	keystroke_p	p	n/a
200.552	0.105	401104	keystroke_s	s	n/a
200.718	0.134	401436	keystroke_e	e	n/a
200.943	0.134	401886	keystroke_Key.space	Key.space	n/a
201.258	0.119	402516	keystroke_w	w	n/a
201.393	0.135	402786	keystroke_i	i	n/a
201.468	0.15	402936	keystroke_n	n	n/a
201.603	0.179	403206	keystroke_d	d	n/a
201.738	0.119	403476	keystroke_s	s	n/a
201.917	0.15	403834	keystroke_Key.space	Key.space	n/a
202.248	0.12	404496	keystroke_r	r	n/a
202.383	0.09	404766	keystroke_e	e	n/a
202.653	0.06	405306	keystroke_v	v	n/a
202.728	0.09	405456	keystroke_e	e	n/a
202.878	0.15	405756	keystroke_n	n	n/a
202.998	0.135	405996	keystroke_g	g	n/a
203.118	0.09	406236	keystroke_e	e	n/a
203.598	0.12	407196	keystroke_Key.enter	Key.enter	n/a
203.724	15.7595	407448	prompt	n/a	vegetarian classification regulation interesting\n
204.798	0.12	409596	keystroke_v	v	n/a
205.008	0.075	410016	keystroke_e	e	n/a
205.218	0.075	410436	keystroke_g	g	n/a
205.443	0.105	410886	keystroke_e	e	n/a
205.833	0.09	411666	keystroke_t	t	n/a
206.313	0.18	412626	keystroke_a	a	n/a
206.553	0.135	413106	keystroke_r	r	n/a
206.838	0.09	413676	keystroke_i	i	n/a
206.943	0.09	413886	keystroke_a	a	n/a
207.138	0.195	414276	keystroke_n	n	n/a
207.287	0.136	414574	keystroke_Key.space	Key.space	n/a
207.993	0.12	415986	keystroke_c	c	n/a
208.158	0.135	416316	keystroke_l	l	n/a
208.338	0.15	416676	keystroke_a	a	n/a
208.518	0.165	417036	keystroke_s	s	n/a
208.803	0.105	417606	keystroke_s	s	n/a
209.118	0.075	418236	keystroke_i	i	n/a
209.268	0.105	418536	keystroke_f	f	n/a
209.403	0.12	418806	keystroke_i	i	n/a
209.538	0.075	419076	keystroke_c	c	n/a
209.763	0.12	419526	keystroke_a	a	n/a
209.868	0.09	419736	keystroke_t	t	n/a
209.973	0.195	419946	keystroke_i	i	n/a
210.123	0.195	420246	keystroke_o	o	n/a
210.243	0.195	420486	keystroke_n	n	n/a
210.363	0.18	420726	keystroke_Key.space	Key.space	n/a
211.278	0.075	422556	keystroke_r	r	n/a
211.533	0.075	423066	keystroke_g	g	n/a
211.593	0.195	423186	keystroke_u	u	n/a
211.713	0.18	423426	keystroke_l	l	n/a
211.833	0.195	423666	keystroke_a	a	n/a
211.953	0.09	423906	keystroke_t	t	n/a
212.283	0.12	424566	keystroke_Key.backspace	Key.backspace	n/a
212.688	0.09	425376	keystroke_Key.backspace	Key.backspace	n/a
212.958	0.09	425916	keystroke_Key.backspace	Key.backspace	n/a
213.4075	0.075	426815	keystroke_Key.backspace	Key.backspace	n/a
213.5725	0.09	427145	keystroke_Key.backspace	Key.backspace	n/a
214.6075	0.09	429215	keystroke_e	e	n/a
215.0575	0.09	430115	keystroke_g	g	n/a
215.2075	0.165	430415	keystroke_u	u	n/a
215.3425	0.18	430685	keystroke_l	l	n/a
215.5075	0.165	431015	keystroke_a	a	n/a
215.5975	0.105	431195	keystroke_t	t	n/a
215.6875	0.15	431375	keystroke_i	i	n/a
215.7925	0.21	431585	keystroke_o	o	n/a
215.9425	0.18	431885	keystroke_n	n	n/a
216.0475	0.15	432095	keystroke_Key.space	Key.space	n/a
217.5025	0.09	435005	keystroke_i	i	n/a
217.6375	0.135	435275	keystroke_n	n	n/a
217.8175	0.105	435635	keystroke_t	t	n/a
217.9375	0.12	435875	keystroke_e	e	n/a
218.0575	0.18	436115	keystroke_r	r	n/a
218.1775	0.15	436355	keystroke_e	e	n/a
218.2975	0.195	436595	keystroke_s	s	n/a
218.4175	0.12	436835	keystroke_t	t	n/a
218.5375	0.18	437075	keystroke_i	i	n/a
218.6275	0.18	437255	keystroke_n	n	n/a
218.7775	0.09	437555	keystroke_g	g	n/a
219.3625	0.12	438725	keystroke_Key.enter	Key.enter	n/a
219.489	8.905	438978	prompt	n/a	corporation accommodate ranger shaved\n
220.3825	0.105	440765	keystroke_c	c	n/a
220.5025	0.105	441005	keystroke_o	o	n/a
220.6225	0.09	441245	keystroke_r	r	n/a
220.7575	0.09	441515	keystroke_p	p	n/a
220.9525	0.09	441905	keystroke_o	o	n/a
221.0875	0.12	442175	keystroke_r	r	n/a
221.2225	0.15	442445	keystroke_a	a	n/a
221.2975	0.12	442595	keystroke_t	t	n/a
221.3875	0.165	442775	keystroke_i	i	n/a
221.4925	0.21	442985	keystroke_o	o	n/a
221.6425	0.18	443285	keystroke_n	n	n/a
221.7475	0.165	443495	keystroke_Key.space	Key.space	n/a
222.3475	0.12	444695	keystroke_a	a	n/a
222.6775	0.075	445355	keystroke_c	c	n/a
222.8575	0.09	445715	keystroke_c	c	n/a
222.9775	0.09	445955	keystroke_o	o	n/a
223.3975	0.105	446795	keystroke_m	m	n/a
223.6075	0.09	447215	keystroke_m	m	n/a
224.2975	0.09	448595	keystroke_o	o	n/a
224.7625	0.135	449525	keystroke_d	d	n/a
225.0025	0.135	450005	keystroke_a	a	n/a
225.1225	0.105	450245	keystroke_t	t	n/a
225.1825	0.105	450365	keystroke_e	e	n/a
225.6325	0.135	451265	keystroke_Key.space	Key.space	n/a
225.9925	0.12	451985	keystroke_r	r	n/a
226.0825	0.135	452165	keystroke_a	a	n/a
226.1875	0.165	452375	keystroke_n	n	n/a
226.3225	0.105	452645	keystroke_g	g	n/a
226.5175	0.165	453035	keystroke_e	e	n/a
226.6225	0.105	453245	keystroke_r	r	n/a
226.7125	0.09	453425	keystroke_Key.space	Key.space	n/a
226.8475	0.12	453695	keystroke_s	s	n/a
226.9675	0.1645	453935	keystroke_h	h	n/a
227.147	0.12	454294	keystroke_a	a	n/a
227.312	0.135	454624	keystroke_v	v	n/a
227.432	0.09	454864	keystroke_e	e	n/a
227.657	0.075	455314	keystroke_d	d	n/a
228.257	0.135	456514	keystroke_Key.enter	Key.enter	n/a
228.3985	8.0205	456797	prompt	n/a	webcams toward purposes recovered\n
229.247	0.135	458494	keystroke_w	w	n/a
229.847	0.105	459694	keystroke_e	e	n/a
230.132	0.105	460264	keystroke_b	b	n/a
230.372	0.09	460744	keystroke_c	c	n/a
230.567	0.105	461134	keystroke_a	a	n/a
230.657	0.15	461314	keystroke_m	m	n/a
230.792	0.09	461584	keystroke_s	s	n/a
230.972	0.165	461944	keystroke_Key.space	Key.space	n/a
231.212	0.09	462424	keystroke_t	t	n/a
231.407	0.12	462814	keystroke_o	o	n/a
231.497	0.105	462994	keystroke_w	w	n/a
231.677	0.15	463354	keystroke_a	a	n/a
231.797	0.18	463594	keystroke_r	r	n/a
231.932	0.195	463864	keystroke_d	d	n/a
232.157	0.18	464314	keystroke_Key.space	Key.space	n/a
232.757	0.135	465514	keystroke_p	p	n/a
232.907	0.15	465814	keystroke_u	u	n/a
233.042	0.12	466084	keystroke_r	r	n/a
233.147	0.075	466294	keystroke_p	p	n/a
233.327	0.09	466654	keystroke_o	o	n/a
233.387	0.105	466774	keystroke_s	s	n/a
233.582	0.135	467164	keystroke_e	e	n/a
233.672	0.135	467344	keystroke_s	s	n/a
233.807	0.135	467614	keystroke_Key.space	Key.space	n/a
234.632	0.105	469264	keystroke_r	r	n/a
234.842	0.03	469684	keystroke_e	e	n/a
235.022	0.075	470044	keystroke_c	c	n/a
235.157	0.12	470314	keystroke_o	o	n/a
235.262	0.105	470524	keystroke_v	v	n/a
235.427	0.105	470854	keystroke_e	e	n/a
235.517	0.135	471034	keystroke_r	r	n/a
235.637	0.075	471274	keystroke_e	e	n/a
235.847	0.09	471694	keystroke_d	d	n/a
236.267	0.15	472534	keystroke_Key.enter	Key.enter	n/a
236.4235	9.3555	472847	prompt	n/a	rental educational inflation securely\n
237.362	0.105	474724	keystroke_r	r	n/a
237.452	0.12	474904	keystroke_e	e	n/a
237.617	0.12	475234	keystroke_n	n	n/a
237.677	0.135	475354	keystroke_t	t	n/a
237.827	0.135	475654	keystroke_a	a	n/a
237.932	0.135	475864	keystroke_l	l	n/a
238.052	0.12	476104	keystroke_Key.space	Key.space	n/a
238.442	0.045	476884	keystroke_d	d	n/a
238.952	0.09	477904	keystroke_Key.backspace	Key.backspace	n/a
239.148	0.074	478296	keystroke_e	e	n/a
239.522	0.105	479044	keystroke_d	d	n/a
239.687	0.12	479374	keystroke_u	u	n/a
239.852	0.105	479704	keystroke_c	c	n/a
240.062	0.165	480124	keystroke_a	a	n/a
240.182	0.09	480364	keystroke_t	t	n/a
240.332	0.165	480664	keystroke_i	i	n/a
240.452	0.195	480904	keystroke_o	o	n/a
240.587	0.12	481174	keystroke_n	n	n/a
240.692	0.105	481384	keystroke_a	a	n/a
241.052	0.135	482104	keystroke_l	l	n/a
241.667	0.12	483334	keystroke_Key.space	Key.space	n/a
241.862	0.165	483724	keystroke_i	i	n/a
241.967	0.105	483934	keystroke_n	n	n/a
242.042	0.12	484084	keystroke_f	f	n/a
242.177	0.135	484354	keystroke_l	l	n/a
242.327	0.18	484654	keystroke_a	a	n/a
242.432	0.12	484864	keystroke_t	t	n/a
242.522	0.165	485044	keystroke_i	i	n/a
242.642	0.195	485284	keystroke_o	o	n/a
242.747	0.21	485494	keystroke_n	n	n/a
242.882	0.135	485764	keystroke_Key.space	Key.space	n/a
243.512	0.12	487024	keystroke_s	s	n/a
243.737	0.06	487474	keystroke_e	e	n/a
243.947	0.075	487894	keystroke_c	c	n/a
244.067	0.15	488134	keystroke_u	u	n/a
244.247	0.105	488494	keystroke_r	r	n/a
244.487	0.105	488974	keystroke_e	e	n/a
244.698	0.239	489396	keystroke_l	l	n/a
244.817	0.135	489634	keystroke_y	y	n/a
245.642	0.135	491284	keystroke_Key.enter	Key.enter	n/a
245.783	7.286	491566	prompt	n/a	monday filling decades currency\n
246.587	0.105	493174	keystroke_m	m	n/a
246.797	0.105	493594	keystroke_o	o	n/a
246.857	0.15	493714	keystroke_n	n	n/a
246.992	0.075	493984	keystroke_d	d	n/a
247.172	0.105	494344	keystroke_a	a	n/a
247.262	0.135	494524	keystroke_y	y	n/a
247.352	0.135	494704	keystroke_Key.space	Key.space	n/a
248.537	0.06	497074	keystroke_f	f	n/a
248.627	0.105	497254	keystroke_i	i	n/a
248.837	0.075	497674	keystroke_l	l	n/a
249.017	0.105	498034	keystroke_l	l	n/a
249.212	0.15	498424	keystroke_i	i	n/a
249.302	0.241	498604	keystroke_n	n	n/a
249.452	0.075	498904	keystroke_g	g	n/a
249.572	0.135	499144	keystroke_Key.space	Key.space	n/a
250.022	0.06	500044	keystroke_d	d	n/a
250.202	0.045	500404	keystroke_e	e	n/a
250.412	0.075	500824	keystroke_c	c	n/a
250.607	0.075	501214	keystroke_a	a	n/a
250.757	0.09	501514	keystroke_d	d	n/a
250.967	0.12	501934	keystroke_e	e	n/a
251.042	0.135	502084	keystroke_s	s	n/a
251.207	0.135	502414	keystroke_Key.space	Key.space	n/a
251.492	0.12	502984	keystroke_c	c	n/a
251.672	0.135	503344	keystroke_u	u	n/a
251.777	0.06	503554	keystroke_r	r	n/a
251.942	0.12	503884	keystroke_r	r	n/a
252.107	0.06	504214	keystroke_e	e	n/a
252.197	0.12	504394	keystroke_n	n	n/a
252.377	0.06	504754	keystroke_c	c	n/a
252.512	0.09	505024	keystroke_y	y	n/a
252.947	0.12	505894	keystroke_Key.enter	Key.enter	n/a
253.076	8.8135	506152	prompt	n/a	mathematics lying ancient attribute\n
253.832	0.165	507664	keystroke_m	m	n/a
253.952	0.09	507904	keystroke_a	a	n/a
254.057	0.12	508114	keystroke_t	t	n/a
254.222	0.09	508444	keystroke_h	h	n/a
254.507	0.09	509014	keystroke_m	m	n/a
254.867	0.09	509734	keystroke_Key.backspace	Key.backspace	n/a
255.422	0.075	510844	keystroke_e	e	n/a
255.602	0.15	511204	keystroke_m	m	n/a
255.812	0.18	511624	keystroke_a	a	n/a
255.962	0.075	511924	keystroke_t	t	n/a
256.127	0.105	512254	keystroke_i	i	n/a
256.187	0.09	512374	keystroke_c	c	n/a
256.382	0.075	512764	keystroke_s	s	n/a
256.532	0.12	513064	keystroke_Key.space	Key.space	n/a
256.922	0.105	513844	keystroke_l	l	n/a
257.252	0.165	514504	keystroke_y	y	n/a
257.447	0.21	514894	keystroke_i	i	n/a
257.567	0.27	515134	keystroke_n	n	n/a
257.702	0.105	515404	keystroke_g	g	n/a
257.792	0.105	515584	keystroke_Key.space	Key.space	n/a
257.927	0.12	515854	keystroke_a	a	n/a
258.002	0.135	516004	keystroke_n	n	n/a
258.152	0.105	516304	keystroke_c	c	n/a
258.272	0.09	516544	keystroke_i	i	n/a
258.392	0.09	516784	keystroke_e	e	n/a
258.527	0.12	517054	keystroke_n	n	n/a
258.662	0.09	517324	keystroke_t	t	n/a
258.827	0.12	517654	keystroke_Key.space	Key.space	n/a
259.007	0.12	518014	keystroke_a	a	n/a
259.262	0.075	518524	keystroke_t	t	n/a
259.442	0.06	518884	keystroke_t	t	n/a
259.937	0.075	519874	keystroke_r	r	n/a
260.042	0.105	520084	keystroke_i	i	n/a
260.432	0.105	520864	keystroke_b	b	n/a
260.627	0.09	521254	keystroke_u	u	n/a
260.762	0.135	521524	keystroke_t	t	n/a
260.852	0.105	521704	keystroke_e	e	n/a
261.782	0.105	523564	keystroke_Key.enter	Key.enter	n/a
261.894	7.9	523788	prompt	n/a	contents classical peterson luxury\n
262.547	0.105	525094	keystroke_c	c	n/a
262.667	0.12	525334	keystroke_o	o	n/a
262.772	0.135	525544	keystroke_n	n	n/a
262.892	0.09	525784	keystroke_t	t	n/a
262.997	0.12	525994	keystroke_e	e	n/a
263.132	0.09	526264	keystroke_n	n	n/a
263.432	0.075	526864	keystroke_t	t	n/a
263.747	0.12	527494	keystroke_s	s	n/a
263.868	0.149	527736	keystroke_Key.space	Key.space	n/a
264.332	0.075	528664	keystroke_c	c	n/a
264.467	0.135	528934	keystroke_l	l	n/a
264.557	0.195	529114	keystroke_a	a	n/a
264.722	0.09	529444	keystroke_s	s	n/a
264.902	0.105	529804	keystroke_s	s	n/a
265.022	0.135	530044	keystroke_i	i	n/a
265.142	0.09	530284	keystroke_c	c	n/a
265.293	0.119	530586	keystroke_a	a	n/a
265.397	0.135	530794	keystroke_l	l	n/a
265.517	0.135	531034	keystroke_Key.space	Key.space	n/a
266.012	0.106	532024	keystroke_p	p	n/a
266.118	0.119	532236	keystroke_e	e	n/a
266.312	0.09	532624	keystroke_t	t	n/a
266.492	0.12	532984	keystroke_e	e	n/a
266.567	0.15	533134	keystroke_r	r	n/a
266.703	0.134	533406	keystroke_s	s	n/a
266.822	0.15	533644	keystroke_o	o	n/a
266.912	0.18	533824	keystroke_n	n	n/a
267.047	0.15	534094	keystroke_Key.space	Key.space	n/a
267.198	0.104	534396	keystroke_l	l	n/a
267.437	0.105	534874	keystroke_u	u	n/a
267.737	0.09	535474	keystroke_x	x	n/a
268.308	0.119	536616	keystroke_u	u	n/a
268.637	0.076	537274	keystroke_r	r	n/a
268.818	0.075	537636	keystroke_y	y	n/a
269.657	0.135	539314	keystroke_Key.enter	Key.enter	n/a
269.8	8.289	539600	prompt	n/a	manga charitable railroad equations\n
270.603	0.104	541206	keystroke_m	m	n/a
270.693	0.089	541386	keystroke_a	a	n/a
270.813	0.134	541626	keystroke_n	n	n/a
270.963	0.075	541926	keystroke_g	g	n/a
271.157	0.106	542314	keystroke_a	a	n/a
271.277	0.105	542554	keystroke_Key.space	Key.space	n/a
271.427	0.12	542854	keystroke_c	c	n/a
271.562	0.12	543124	keystroke_h	h	n/a
271.622	0.196	543244	keystroke_a	a	n/a
271.757	0.12	543514	keystroke_r	r	n/a
271.923	0.119	543846	keystroke_i	i	n/a
272.162	0.09	544324	keystroke_t	t	n/a
272.268	0.104	544536	keystroke_a	a	n/a
272.477	0.136	544954	keystroke_b	b	n/a
272.597	0.076	545194	keystroke_l	l	n/a
272.732	0.106	545464	keystroke_e	e	n/a
272.852	0.12	545704	keystroke_Key.space	Key.space	n/a
273.347	0.136	546694	keystroke_r	r	n/a
273.498	0.15	546996	keystroke_a	a	n/a
273.632	0.165	547264	keystroke_i	i	n/a
273.708	0.165	547416	keystroke_l	l	n/a
273.977	0.091	547954	keystroke_r	r	n/a
274.082	0.106	548164	keystroke_o	o	n/a
274.202	0.091	548404	keystroke_a	a	n/a
274.547	0.09	549094	keystroke_Key.space	Key.space	n/a
274.907	0.09	549814	keystroke_Key.backspace	Key.backspace	n/a
275.013	0.075	550026	keystroke_d	d	n/a
275.222	0.135	550444	keystroke_Key.space	Key.space	n/a
275.583	0.12	551166	keystroke_e	e	n/a
275.822	0.091	551644	keystroke_q	q	n/a
275.897	0.136	551794	keystroke_u	u	n/a
276.333	0.105	552666	keystroke_a	a	n/a
276.708	0.075	553416	keystroke_t	t	n/a
276.798	0.18	553596	keystroke_i	i	n/a
276.918	0.18	553836	keystroke_o	o	n/a
277.038	0.165	554076	keystroke_n	n	n/a
277.143	0.09	554286	keystroke_s	s	n/a
277.967	0.12	555934	keystroke_Key.enter	Key.enter	n/a
278.0945	6.865	556189	prompt	n/a	dell terrorists laugh appointments\n
278.748	0.06	557496	keystroke_d	d	n/a
278.928	0.09	557856	keystroke_e	e	n/a
279.048	0.06	558096	keystroke_l	l	n/a
279.198	0.12	558396	keystroke_l	l	n/a
279.272	0.15	558544	keystroke_Key.space	Key.space	n/a
279.438	0.09	558876	keystroke_t	t	n/a
279.543	0.12	559086	keystroke_e	e	n/a
279.648	0.075	559296	keystroke_r	r	n/a
279.798	0.105	559596	keystroke_r	r	n/a
279.918	0.09	559836	keystroke_o	o	n/a
280.038	0.09	560076	keystroke_r	r	n/a
280.143	0.105	560286	keystroke_i	i	n/a
280.278	0.15	560556	keystroke_s	s	n/a
280.398	0.165	560796	keystroke_t	t	n/a
280.548	0.12	561096	keystroke_s	s	n/a
281.372	0.12	562744	keystroke_Key.space	Key.space	n/a
281.568	0.105	563136	keystroke_l	l	n/a
281.688	0.12	563376	keystroke_a	a	n/a
281.838	0.135	563676	keystroke_u	u	n/a
282.018	0.09	564036	keystroke_g	g	n/a
282.093	0.15	564186	keystroke_h	h	n/a
282.197	0.106	564394	keystroke_Key.space	Key.space	n/a
282.318	0.09	564636	keystroke_a	a	n/a
282.498	0.06	564996	keystroke_p	p	n/a
282.648	0.12	565296	keystroke_p	p	n/a
282.873	0.21	565746	keystroke_o	o	n/a
282.963	0.15	565926	keystroke_i	i	n/a
283.053	0.135	566106	keystroke_n	n	n/a
283.173	0.075	566346	keystroke_t	t	n/a
283.323	0.12	566646	keystroke_m	m	n/a
283.368	0.12	566736	keystroke_e	e	n/a
283.548	0.15	567096	keystroke_n	n	n/a
283.638	0.12	567276	keystroke_t	t	n/a
283.773	0.15	567546	keystroke_s	s	n/a
284.8375	0.12	569675	keystroke_Key.enter	Key.enter	n/a
284.9645	10.704	569929	prompt	n/a	conservation interpretation navy genre\n
285.8125	0.105	571625	keystroke_c	c	n/a
286.0375	0.18	572075	keystroke_o	o	n/a
286.1875	0.165	572375	keystroke_n	n	n/a
286.6675	0.09	573335	keystroke_s	s	n/a
286.8775	0.135	573755	keystroke_e	e	n/a
286.9675	0.09	573935	keystroke_r	r	n/a
287.2225	0.075	574445	keystroke_v	v	n/a
287.3875	0.165	574775	keystroke_a	a	n/a
287.4775	0.135	574955	keystroke_t	t	n/a
287.5975	0.15	575195	keystroke_i	i	n/a
287.7175	0.18	575435	keystroke_o	o	n/a
287.8375	0.18	575675	keystroke_n	n	n/a
287.9575	0.135	575915	keystroke_Key.space	Key.space	n/a
288.8725	0.15	577745	keystroke_i	i	n/a
288.9625	0.15	577925	keystroke_n	n	n/a
289.4275	0.09	578855	keystroke_t	t	n/a
289.6525	0.135	579305	keystroke_e	e	n/a
290.0725	0.105	580145	keystroke_r	r	n/a
290.5375	0.12	581075	keystroke_p	p	n/a
290.7175	0.09	581435	keystroke_r	r	n/a
290.9725	0.15	581945	keystroke_e	e	n/a
291.3475	0.105	582695	keystroke_t	t	n/a
291.5275	0.165	583055	keystroke_a	a	n/a
291.6325	0.105	583265	keystroke_t	t	n/a
291.7525	0.195	583505	keystroke_i	i	n/a
291.9175	0.18	583835	keystroke_o	o	n/a
292.0375	0.225	584075	keystroke_n	n	n/a
292.2475	0.12	584495	keystroke_Key.space	Key.space	n/a
293.1475	0.165	586295	keystroke_n	n	n/a
293.3275	0.105	586655	keystroke_a	a	n/a
293.5525	0.105	587105	keystroke_v	v	n/a
293.6425	0.165	587285	keystroke_y	y	n/a
293.7475	0.15	587495	keystroke_Key.space	Key.space	n/a
294.0625	0.075	588125	keystroke_g	g	n/a
294.2575	0.075	588515	keystroke_e	e	n/a
294.3475	0.165	588695	keystroke_n	n	n/a
294.5275	0.135	589055	keystroke_r	r	n/a
294.6325	0.09	589265	keystroke_e	e	n/a
295.5175	0.15	591035	keystroke_Key.enter	Key.enter	n/a
295.673	12.146	591346	prompt	n/a	daughter arthritis elect healthcare\n
296.4925	0.09	592985	keystroke_d	d	n/a
296.6575	0.12	593315	keystroke_a	a	n/a
296.7925	0.09	593585	keystroke_u	u	n/a
297.3325	0.09	594665	keystroke_g	g	n/a
297.4075	0.12	594815	keystroke_h	h	n/a
297.6025	0.075	595205	keystroke_t	t	n/a
297.7825	0.135	595565	keystroke_e	e	n/a
297.8725	0.12	595745	keystroke_r	r	n/a
298.0075	0.105	596015	keystroke_Key.space	Key.space	n/a
298.3075	0.105	596615	keystroke_a	a	n/a
298.5925	0.075	597185	keystroke_r	r	n/a
298.8175	0.045	597635	keystroke_t	t	n/a
298.8775	0.135	597755	keystroke_h	h	n/a
299.1025	0.075	598205	keystroke_r	r	n/a
299.2375	0.105	598475	keystroke_i	i	n/a
299.4775	0.06	598955	keystroke_t	t	n/a
299.5525	0.105	599105	keystroke_i	i	n/a
299.792	0.105	599584	keystroke_s	s	n/a
299.942	0.165	599884	keystroke_Key.space	Key.space	n/a
300.572	0.06	601144	keystroke_e	e	n/a
300.677	0.135	601354	keystroke_l	l	n/a
300.782	0.06	601564	keystroke_e	e	n/a
301.037	0.06	602074	keystroke_c	c	n/a
301.262	0.06	602524	keystroke_t	t	n/a
301.352	0.135	602704	keystroke_Key.space	Key.space	n/a
301.667	0.135	603334	keystroke_h	h	n/a
301.772	0.15	603544	keystroke_e	e	n/a
301.997	0.105	603994	keystroke_l	l	n/a
302.132	0.15	604264	keystroke_a	a	n/a
302.447	0.06	604894	keystroke_Key.backspace	Key.backspace	n/a
302.582	0.075	605164	keystroke_Key.backspace	Key.backspace	n/a
302.762	0.12	605524	keystroke_a	a	n/a
302.867	0.12	605734	keystroke_l	l	n/a
303.092	0.06	606184	keystroke_t	t	n/a
303.302	0.09	606604	keystroke_h	h	n/a
303.737	0.09	607474	keystroke_c	c	n/a
303.932	0.105	607864	keystroke_a	a	n/a
304.217	0.09	608434	keystroke_r	r	n/a
304.682	0.075	609364	keystroke_e	e	n/a
307.745	0.072	615490	keystroke_Key.enter	Key.enter	n/a
307.825	10.5985	615650	prompt	n/a	aurora maintaining warnings explorer\n
308.747	0.12	617494	keystroke_a	a	n/a
308.912	0.135	617824	keystroke_u	u	n/a
309.048	0.059	618096	keystroke_r	r	n/a
309.152	0.12	618304	keystroke_o	o	n/a
309.287	0.105	618574	keystroke_r	r	n/a
309.467	0.105	618934	keystroke_a	a	n/a
309.812	0.015	619624	keystroke_Key.space	Key.space	n/a
310.067	0.12	620134	keystroke_m	m	n/a
310.217	0.12	620434	keystroke_a	a	n/a
310.382	0.105	620764	keystroke_i	i	n/a
310.622	0.105	621244	keystroke_n	n	n/a
310.817	0.105	621634	keystroke_t	t	n/a
310.937	0.15	621874	keystroke_a	a	n/a
311.192	0.135	622384	keystroke_i	i	n/a
311.522	0.105	623044	keystroke_n	n	n/a
311.867	0.15	623734	keystroke_i	i	n/a
311.957	0.195	623914	keystroke_n	n	n/a
312.122	0.075	624244	keystroke_g	g	n/a
312.377	0.135	624754	keystroke_Key.space	Key.space	n/a
313.292	0.09	626584	keystroke_a	a	n/a
313.667	0.09	627334	keystroke_Key.backspace	Key.backspace	n/a
313.772	0.105	627544	keystroke_w	w	n/a
313.967	0.15	627934	keystroke_a	a	n/a
314.042	0.135	628084	keystroke_r	r	n/a
314.177	0.15	628354	keystroke_n	n	n/a
314.342	0.165	628684	keystroke_i	i	n/a
314.432	0.15	628864	keystroke_n	n	n/a
314.567	0.15	629134	keystroke_g	g	n/a
314.657	0.135	629314	keystroke_s	s	n/a
314.852	0.15	629704	keystroke_Key.space	Key.space	n/a
315.152	0.06	630304	keystroke_e	e	n/a
315.362	0.105	630724	keystroke_x	x	n/a
315.557	0.165	631114	keystroke_p	p	n/a
315.647	0.09	631294	keystroke_l	l	n/a
315.857	0.105	631714	keystroke_o	o	n/a
316.382	0.09	632764	keystroke_r	r	n/a
316.592	0.12	633184	keystroke_e	e	n/a
316.772	0.09	633544	keystroke_r	r	n/a
318.287	0.135	636574	keystroke_Key.enter	Key.enter	n/a
318.429	8.546	636858	prompt	n/a	used walter computers immigration\n
319.397	0.12	638794	keystroke_u	u	n/a
319.472	0.075	638944	keystroke_s	s	n/a
319.622	0.06	639244	keystroke_e	e	n/a
319.802	0.075	639604	keystroke_d	d	n/a
319.862	0.12	639724	keystroke_Key.space	Key.space	n/a
319.997	0.12	639994	keystroke_w	w	n/a
320.207	0.105	640414	keystroke_a	a	n/a
320.357	0.09	640714	keystroke_l	l	n/a
320.522	0.09	641044	keystroke_t	t	n/a
320.747	0.135	641494	keystroke_e	e	n/a
320.807	0.12	641614	keystroke_r	r	n/a
320.942	0.105	641884	keystroke_Key.space	Key.space	n/a
321.227	0.075	642454	keystroke_c	c	n/a
321.332	0.135	642664	keystroke_o	o	n/a
321.437	0.165	642874	keystroke_m	m	n/a
321.587	0.12	643174	keystroke_p	p	n/a
321.752	0.135	643504	keystroke_u	u	n/a
322.382	0.075	644764	keystroke_t	t	n/a
322.577	0.18	645154	keystroke_e	e	n/a
322.682	0.135	645364	keystroke_r	r	n/a
322.967	0.075	645934	keystroke_s	s	n/a
323.582	0.12	647164	keystroke_Key.space	Key.space	n/a
324.107	0.06	648214	keystroke_i	i	n/a
324.332	0.06	648664	keystroke_m	m	n/a
324.512	0.075	649024	keystroke_m	m	n/a
324.752	0.06	649504	keystroke_i	i	n/a
324.977	0.09	649954	keystroke_g	g	n/a
325.232	0.105	650464	keystroke_r	r	n/a
325.412	0.165	650824	keystroke_a	a	n/a
325.517	0.12	651034	keystroke_t	t	n/a
325.652	0.225	651304	keystroke_i	i	n/a
325.817	0.195	651634	keystroke_o	o	n/a
325.937	0.166	651874	keystroke_n	n	n/a
326.852	0.12	653704	keystroke_Key.enter	Key.enter	n/a
326.9805	8.468	653961	prompt	n/a	expanding sellers aerospace large\n
328.142	0.075	656284	keystroke_e	e	n/a
328.337	0.135	656674	keystroke_x	x	n/a
328.502	0.12	657004	keystroke_p	p	n/a
328.727	0.09	657454	keystroke_a	a	n/a
328.832	0.12	657664	keystroke_n	n	n/a
328.982	0.09	657964	keystroke_d	d	n/a
329.102	0.165	658204	keystroke_i	i	n/a
329.207	0.24	658414	keystroke_n	n	n/a
329.297	0.09	658594	keystroke_g	g	n/a
329.402	0.15	658804	keystroke_Key.space	Key.space	n/a
329.567	0.105	659134	keystroke_s	s	n/a
329.792	0.075	659584	keystroke_e	e	n/a
330.002	0.075	660004	keystroke_l	l	n/a
330.152	0.12	660304	keystroke_l	l	n/a
330.257	0.225	660514	keystroke_e	e	n/a
330.392	0.135	660784	keystroke_r	r	n/a
330.632	0.105	661264	keystroke_s	s	n/a
330.8865	0.15	661773	keystroke_Key.space	Key.space	n/a
331.2465	0.135	662493	keystroke_a	a	n/a
331.547	0.0895	663094	keystroke_e	e	n/a
332.4315	0.105	664863	keystroke_r	r	n/a
332.5815	0.12	665163	keystroke_o	o	n/a
332.8065	0.105	665613	keystroke_s	s	n/a
332.9415	0.09	665883	keystroke_p	p	n/a
333.0765	0.075	666153	keystroke_a	a	n/a
333.4965	0.09	666993	keystroke_c	c	n/a
333.7515	0.075	667503	keystroke_e	e	n/a
333.9015	0.15	667803	keystroke_Key.space	Key.space	n/a
334.2765	0.105	668553	keystroke_l	l	n/a
334.3965	0.18	668793	keystroke_a	a	n/a
334.5015	0.09	669003	keystroke_r	r	n/a
334.7565	0.135	669513	keystroke_g	g	n/a
334.8765	0.09	669753	keystroke_e	e	n/a
335.3265	0.12	670653	keystroke_Key.enter	Key.enter	n/a
335.4535	11.29	670907	prompt	n/a	evidence gardens prostores calvin\n
336.1815	0.09	672363	keystroke_e	e	n/a
336.3915	0.09	672783	keystroke_v	v	n/a
336.5265	0.15	673053	keystroke_i	i	n/a
336.6165	0.09	673233	keystroke_d	d	n/a
336.8265	0.06	673653	keystroke_e	e	n/a
336.9315	0.135	673863	keystroke_n	n	n/a
337.0365	0.105	674073	keystroke_c	c	n/a
337.2765	0.09	674553	keystroke_e	e	n/a
337.3515	0.135	674703	keystroke_Key.space	Key.space	n/a
337.5915	0.09	675183	keystroke_g	g	n/a
337.8015	0.12	675603	keystroke_a	a	n/a
337.8615	0.105	675723	keystroke_r	r	n/a
338.0265	0.09	676053	keystroke_d	d	n/a
338.2215	0.09	676443	keystroke_e	e	n/a
338.2965	0.12	676593	keystroke_n	n	n/a
338.4325	0.104	676865	keystroke_s	s	n/a
338.8515	0.135	677703	keystroke_Key.space	Key.space	n/a
339.3165	0.135	678633	keystroke_p	p	n/a
339.5115	0.09	679023	keystroke_r	r	n/a
339.7215	0.105	679443	keystroke_o	o	n/a
340.0065	0.105	680013	keystroke_s	s	n/a
340.2615	0.075	680523	keystroke_t	t	n/a
340.3815	0.105	680763	keystroke_o	o	n/a
340.5915	0.165	681183	keystroke_r	r	n/a
340.7265	0.105	681453	keystroke_e	e	n/a
340.8765	0.12	681753	keystroke_s	s	n/a
341.8215	0.15	683643	keystroke_Key.space	Key.space	n/a
342.0765	0.09	684153	keystroke_c	c	n/a
342.2565	0.12	684513	keystroke_a	a	n/a
342.3915	0.105	684783	keystroke_l	l	n/a
342.6165	0.105	685233	keystroke_v	v	n/a
342.7515	0.195	685503	keystroke_i	i	n/a
342.8715	0.15	685743	keystroke_n	n	n/a
346.6545	0.087	693309	keystroke_Key.enter	Key.enter	n/a
346.75	11.1685	693500	prompt	n/a	architects interests graphs lessons\n
347.7775	0.119	695555	keystroke_a	a	n/a
348.0015	0.076	696003	keystroke_r	r	n/a
348.2565	0.091	696513	keystroke_c	c	n/a
348.3325	0.164	696665	keystroke_h	h	n/a
348.4525	0.105	696905	keystroke_i	i	n/a
348.6325	0.075	697265	keystroke_c	c	n/a
349.2465	0.105	698493	keystroke_Key.backspace	Key.backspace	n/a
350.4475	0.09	700895	keystroke_t	t	n/a
350.657	0.0905	701314	keystroke_e	e	n/a
350.8825	0.1195	701765	keystroke_c	c	n/a
351.137	0.12	702274	keystroke_t	t	n/a
351.242	0.0905	702484	keystroke_s	s	n/a
351.406	0.135	702812	keystroke_Key.space	Key.space	n/a
352.112	0.15	704224	keystroke_i	i	n/a
352.217	0.15	704434	keystroke_n	n	n/a
352.352	0.09	704704	keystroke_t	t	n/a
352.487	0.15	704974	keystroke_e	e	n/a
352.622	0.165	705244	keystroke_r	r	n/a
352.742	0.135	705484	keystroke_e	e	n/a
352.967	0.18	705934	keystroke_s	s	n/a
353.162	0.15	706324	keystroke_t	t	n/a
353.282	0.105	706564	keystroke_s	s	n/a
353.447	0.119	706894	keystroke_Key.space	Key.space	n/a
354.137	0.075	708274	keystroke_g	g	n/a
354.332	0.15	708664	keystroke_r	r	n/a
354.422	0.12	708844	keystroke_a	a	n/a
354.512	0.12	709024	keystroke_p	p	n/a
354.992	0.105	709984	keystroke_h	h	n/a
355.202	0.09	710404	keystroke_s	s	n/a
355.367	0.104	710734	keystroke_Key.space	Key.space	n/a
355.652	0.12	711304	keystroke_l	l	n/a
355.757	0.06	711514	keystroke_e	e	n/a
355.937	0.06	711874	keystroke_s	s	n/a
356.087	0.09	712174	keystroke_s	s	n/a
356.192	0.135	712384	keystroke_o	o	n/a
356.267	0.165	712534	keystroke_n	n	n/a
356.372	0.09	712744	keystroke_s	s	n/a
357.782	0.135	715564	keystroke_Key.enter	Key.enter	n/a
357.9275	7.266	715855	prompt	n/a	totally pipe arabic columbia\n
358.787	0.075	717574	keystroke_t	t	n/a
358.922	0.12	717844	keystroke_o	o	n/a
358.997	0.135	717994	keystroke_t	t	n/a
359.102	0.135	718204	keystroke_a	a	n/a
359.207	0.075	718414	keystroke_l	l	n/a
359.402	0.195	718804	keystroke_l	l	n/a
359.552	0.135	719104	keystroke_y	y	n/a
359.642	0.15	719284	keystroke_Key.space	Key.space	n/a
359.912	0.12	719824	keystroke_p	p	n/a
360.182	0.075	720364	keystroke_i	i	n/a
360.437	0.105	720874	keystroke_p	p	n/a
360.632	0.06	721264	keystroke_e	e	n/a
361.052	0.105	722104	keystroke_Key.space	Key.space	n/a
361.277	0.12	722554	keystroke_a	a	n/a
361.412	0.18	722824	keystroke_r	r	n/a
361.577	0.075	723154	keystroke_a	a	n/a
361.772	0.09	723544	keystroke_b	b	n/a
361.892	0.075	723784	keystroke_i	i	n/a
361.997	0.09	723994	keystroke_c	c	n/a
362.672	0.135	725344	keystroke_Key.space	Key.space	n/a
362.912	0.12	725824	keystroke_c	c	n/a
363.017	0.06	726034	keystroke_o	o	n/a
363.227	0.135	726454	keystroke_l	l	n/a
363.332	0.09	726664	keystroke_u	u	n/a
363.572	0.09	727144	keystroke_m	m	n/a
363.692	0.075	727384	keystroke_b	b	n/a
363.827	0.09	727654	keystroke_i	i	n/a
363.962	0.09	727924	keystroke_a	a	n/a
365.102	0.09	730204	keystroke_Key.enter	Key.enter	n/a
365.198	7.6905	730396	prompt	n/a	tips biographies color dancing\n
366.242	0.075	732484	keystroke_t	t	n/a
366.332	0.105	732664	keystroke_i	i	n/a
366.497	0.075	732994	keystroke_p	p	n/a
366.632	0.075	733264	keystroke_s	s	n/a
366.812	0.135	733624	keystroke_Key.space	Key.space	n/a
367.187	0.105	734374	keystroke_b	b	n/a
367.277	0.105	734554	keystroke_i	i	n/a
367.532	0.12	735064	keystroke_o	o	n/a
367.772	0.06	735544	keystroke_g	g	n/a
367.967	0.15	735934	keystroke_r	r	n/a
368.057	0.15	736114	keystroke_a	a	n/a
368.147	0.135	736294	keystroke_p	p	n/a
368.282	0.18	736564	keystroke_h	h	n/a
368.402	0.12	736804	keystroke_i	i	n/a
368.507	0.12	737014	keystroke_e	e	n/a
368.567	0.12	737134	keystroke_s	s	n/a
369.497	0.12	738994	keystroke_Key.space	Key.space	n/a
369.692	0.105	739384	keystroke_c	c	n/a
369.812	0.06	739624	keystroke_o	o	n/a
369.992	0.075	739984	keystroke_l	l	n/a
370.187	0.075	740374	keystroke_o	o	n/a
370.307	0.09	740614	keystroke_r	r	n/a
370.442	0.12	740884	keystroke_Key.space	Key.space	n/a
370.547	0.12	741094	keystroke_d	d	n/a
370.682	0.105	741364	keystroke_a	a	n/a
370.757	0.105	741514	keystroke_n	n	n/a
370.877	0.12	741754	keystroke_c	c	n/a
370.982	0.135	741964	keystroke_i	i	n/a
371.057	0.135	742114	keystroke_n	n	n/a
371.207	0.075	742414	keystroke_g	g	n/a
372.752	0.135	745504	keystroke_Key.enter	Key.enter	n/a
372.893	11.231	745786	prompt	n/a	applied interactive identifier tools\n
373.832	0.165	747664	keystroke_a	a	n/a
374.057	0.105	748114	keystroke_p	p	n/a
374.237	0.12	748474	keystroke_p	p	n/a
374.462	0.225	748924	keystroke_l	l	n/a
374.612	0.165	749224	keystroke_i	i	n/a
374.792	0.06	749584	keystroke_e	e	n/a
374.987	0.09	749974	keystroke_d	d	n/a
375.107	0.135	750214	keystroke_Key.space	Key.space	n/a
375.422	0.165	750844	keystroke_i	i	n/a
375.527	0.165	751054	keystroke_n	n	n/a
375.692	0.105	751384	keystroke_t	t	n/a
375.827	0.135	751654	keystroke_e	e	n/a
375.932	0.12	751864	keystroke_r	r	n/a
376.442	0.12	752884	keystroke_a	a	n/a
376.652	0.12	753304	keystroke_c	c	n/a
376.892	0.075	753784	keystroke_t	t	n/a
377.042	0.12	754084	keystroke_i	i	n/a
377.132	0.12	754264	keystroke_v	v	n/a
377.222	0.105	754444	keystroke_e	e	n/a
377.942	0.09	755884	keystroke_Key.space	Key.space	n/a
378.212	0.09	756424	keystroke_i	i	n/a
378.347	0.06	756694	keystroke_d	d	n/a
378.542	0.06	757084	keystroke_e	e	n/a
378.662	0.105	757324	keystroke_n	n	n/a
379.232	0.075	758464	keystroke_t	t	n/a
379.337	0.105	758674	keystroke_i	i	n/a
379.517	0.075	759034	keystroke_f	f	n/a
379.622	0.12	759244	keystroke_i	i	n/a
379.862	0.09	759724	keystroke_e	e	n/a
380.207	0.09	760414	keystroke_r	r	n/a
380.327	0.15	760654	keystroke_Key.space	Key.space	n/a
380.702	0.09	761404	keystroke_l	l	n/a
381.242	0.09	762484	keystroke_Key.backspace	Key.backspace	n/a
381.632	0.075	763264	keystroke_t	t	n/a
381.797	0.075	763594	keystroke_o	o	n/a
381.962	0.075	763924	keystroke_o	o	n/a
382.157	0.105	764314	keystroke_l	l	n/a
382.262	0.075	764524	keystroke_s	s	n/a
384.002	0.12	768004	keystroke_Key.enter	Key.enter	n/a
384.129	7.8245	768258	prompt	n/a	he superior neighbors consent\n
384.887	0.09	769774	keystroke_h	h	n/a
384.947	0.09	769894	keystroke_e	e	n/a
385.097	0.1495	770194	keystroke_Key.space	Key.space	n/a
385.202	0.1045	770404	keystroke_s	s	n/a
385.3215	0.165	770643	keystroke_u	u	n/a
385.427	0.09	770854	keystroke_p	p	n/a
385.5015	0.1805	771003	keystroke_e	e	n/a
385.6065	0.12	771213	keystroke_r	r	n/a
385.7275	0.194	771455	keystroke_i	i	n/a
385.8615	0.12	771723	keystroke_o	o	n/a
385.9965	0.12	771993	keystroke_r	r	n/a
386.1765	0.135	772353	keystroke_Key.space	Key.space	n/a
387.0915	0.105	774183	keystroke_n	n	n/a
387.1815	0.105	774363	keystroke_e	e	n/a
387.3165	0.12	774633	keystroke_i	i	n/a
387.4065	0.09	774813	keystroke_g	g	n/a
387.5265	0.105	775053	keystroke_h	h	n/a
388.0515	0.105	776103	keystroke_b	b	n/a
388.1865	0.09	776373	keystroke_o	o	n/a
388.3815	0.12	776763	keystroke_r	r	n/a
388.5165	0.09	777033	keystroke_s	s	n/a
388.6665	0.12	777333	keystroke_Key.space	Key.space	n/a
390.0915	0.09	780183	keystroke_c	c	n/a
390.2265	0.09	780453	keystroke_o	o	n/a
390.2715	0.165	780543	keystroke_n	n	n/a
390.4215	0.09	780843	keystroke_s	s	n/a
390.6165	0.075	781233	keystroke_e	e	n/a
390.7065	0.105	781413	keystroke_n	n	n/a
390.8125	0.074	781625	keystroke_t	t	n/a
391.8315	0.12	783663	keystroke_Key.enter	Key.enter	n/a
391.958	7.0605	783916	prompt	n/a	iraq discussed quest written\n
392.9865	0.105	785973	keystroke_i	i	n/a
393.3015	0.105	786603	keystroke_r	r	n/a
393.6165	0.15	787233	keystroke_a	a	n/a
394.0665	0.105	788133	keystroke_q	q	n/a
394.5465	0.15	789093	keystroke_Key.space	Key.space	n/a
394.7715	0.09	789543	keystroke_d	d	n/a
394.9065	0.105	789813	keystroke_i	i	n/a
394.9515	0.075	789903	keystroke_s	s	n/a
395.1315	0.09	790263	keystroke_c	c	n/a
395.2515	0.105	790503	keystroke_u	u	n/a
395.5215	0.12	791043	keystroke_s	s	n/a
395.7315	0.12	791463	keystroke_s	s	n/a
395.9415	0.06	791883	keystroke_e	e	n/a
396.1215	0.09	792243	keystroke_d	d	n/a
396.2715	0.165	792543	keystroke_Key.space	Key.space	n/a
396.8115	0.075	793623	keystroke_q	q	n/a
396.8865	0.135	793773	keystroke_u	u	n/a
396.9915	0.24	793983	keystroke_e	e	n/a
397.0965	0.195	794193	keystroke_s	s	n/a
397.2165	0.12	794433	keystroke_t	t	n/a
397.3215	0.105	794643	keystroke_Key.space	Key.space	n/a
397.4565	0.09	794913	keystroke_w	w	n/a
397.6215	0.105	795243	keystroke_r	r	n/a
397.7565	0.12	795513	keystroke_i	i	n/a
397.8915	0.06	795783	keystroke_t	t	n/a
398.0415	0.135	796083	keystroke_t	t	n/a
398.1315	0.135	796263	keystroke_e	e	n/a
398.2515	0.105	796503	keystroke_n	n	n/a
398.8815	0.135	797763	keystroke_Key.enter	Key.enter	n/a
399.0235	5.1095	798047	prompt	n/a	so infant frequency shift\n
399.7665	0.105	799533	keystroke_s	s	n/a
399.8565	0.105	799713	keystroke_o	o	n/a
399.9465	0.12	799893	keystroke_Key.space	Key.space	n/a
400.1565	0.135	800313	keystroke_i	i	n/a
400.2765	0.105	800553	keystroke_n	n	n/a
400.3665	0.09	800733	keystroke_f	f	n/a
400.5165	0.12	801033	keystroke_a	a	n/a
400.6215	0.12	801243	keystroke_n	n	n/a
400.7865	0.075	801573	keystroke_t	t	n/a
400.8765	0.15	801753	keystroke_Key.space	Key.space	n/a
401.0715	0.075	802143	keystroke_f	f	n/a
401.2515	0.12	802503	keystroke_r	r	n/a
401.3865	0.105	802773	keystroke_e	e	n/a
401.6115	0.105	803223	keystroke_q	q	n/a
401.7015	0.105	803403	keystroke_u	u	n/a
401.8365	0.09	803673	keystroke_e	e	n/a
401.9865	0.15	803973	keystroke_n	n	n/a
402.1215	0.09	804243	keystroke_c	c	n/a
402.3615	0.135	804723	keystroke_y	y	n/a
402.4365	0.135	804873	keystroke_Key.space	Key.space	n/a
402.9765	0.105	805953	keystroke_s	s	n/a
403.0965	0.165	806193	keystroke_h	h	n/a
403.2015	0.135	806403	keystroke_i	i	n/a
403.2765	0.09	806553	keystroke_f	f	n/a
403.5165	0.06	807033	keystroke_t	t	n/a
404.0115	0.12	808023	keystroke_Key.enter	Key.enter	n/a
404.1375	9.1005	808275	prompt	n/a	monkey trip native florist\n
404.9265	0.12	809853	keystroke_m	m	n/a
405.1215	0.15	810243	keystroke_o	o	n/a
405.2565	0.135	810513	keystroke_n	n	n/a
405.4065	0.135	810813	keystroke_k	k	n/a
405.5565	0.09	811113	keystroke_e	e	n/a
405.7215	0.15	811443	keystroke_y	y	n/a
405.8115	0.15	811623	keystroke_Key.space	Key.space	n/a
405.9765	0.075	811953	keystroke_t	t	n/a
406.1715	0.09	812343	keystroke_r	r	n/a
406.2315	0.18	812463	keystroke_i	i	n/a
406.3965	0.12	812793	keystroke_p	p	n/a
406.5315	0.135	813063	keystroke_Key.space	Key.space	n/a
406.6515	0.15	813303	keystroke_n	n	n/a
406.7415	0.165	813483	keystroke_a	a	n/a
406.8615	0.075	813723	keystroke_t	t	n/a
407.0265	0.06	814053	keystroke_i	i	n/a
407.1765	0.12	814353	keystroke_e	e	n/a
407.4165	0.06	814833	keystroke_Key.space	Key.space	n/a
408.796	0.045	817592	keystroke_Key.backspace	Key.backspace	n/a
408.931	0.09	817862	keystroke_Key.backspace	Key.backspace	n/a
409.081	0.105	818162	keystroke_v	v	n/a
409.156	0.09	818312	keystroke_e	e	n/a
409.726	0.135	819452	keystroke_Key.space	Key.space	n/a
409.906	0.09	819812	keystroke_f	f	n/a
410.011	0.09	820022	keystroke_l	l	n/a
410.296	0.09	820592	keystroke_o	o	n/a
410.506	0.105	821012	keystroke_r	r	n/a
410.686	0.0915	821372	keystroke_i	i	n/a
410.9265	0.18	821853	keystroke_s	s	n/a
411.076	0.09	822152	keystroke_t	t	n/a
413.1165	0.1195	826233	keystroke_Key.enter	Key.enter	n/a
413.243	11.6955	826486	prompt	n/a	initiated compile rope physically\n
414.106	0.15	828212	keystroke_i	i	n/a
414.241	0.151	828482	keystroke_n	n	n/a
414.616	0.075	829232	keystroke_i	i	n/a
414.886	0.105	829772	keystroke_t	t	n/a
414.992	0.104	829984	keystroke_i	i	n/a
415.126	0.18	830252	keystroke_a	a	n/a
415.247	0.119	830494	keystroke_t	t	n/a
415.336	0.105	830672	keystroke_e	e	n/a
415.546	0.106	831092	keystroke_d	d	n/a
415.606	0.135	831212	keystroke_Key.space	Key.space	n/a
416.447	0.119	832894	keystroke_c	c	n/a
416.596	0.196	833192	keystroke_o	o	n/a
416.806	0.135	833612	keystroke_m	m	n/a
417.151	0.076	834302	keystroke_p	p	n/a
417.361	0.121	834722	keystroke_i	i	n/a
417.512	0.135	835024	keystroke_l	l	n/a
417.617	0.119	835234	keystroke_e	e	n/a
417.781	0.135	835562	keystroke_Key.space	Key.space	n/a
418.5615	0.09	837123	keystroke_r	r	n/a
418.6965	0.06	837393	keystroke_o	o	n/a
418.8465	0.105	837693	keystroke_p	p	n/a
419.0715	0.06	838143	keystroke_e	e	n/a
420.6765	0.135	841353	keystroke_Key.space	Key.space	n/a
420.9015	0.1045	841803	keystroke_p	p	n/a
421.127	0.074	842254	keystroke_h	h	n/a
421.307	0.09	842614	keystroke_y	y	n/a
422.116	0.075	844232	keystroke_s	s	n/a
422.221	0.106	844442	keystroke_i	i	n/a
422.341	0.091	844682	keystroke_c	c	n/a
422.491	0.121	844982	keystroke_a	a	n/a
422.627	0.059	845254	keystroke_l	l	n/a
422.762	0.134	845524	keystroke_l	l	n/a
422.956	0.09	845912	keystroke_y	y	n/a
424.816	0.12	849632	keystroke_Key.enter	Key.enter	n/a
424.945	8.5745	849890	prompt	n/a	legislature so're vitamins equally\n
425.821	0.12	851642	keystroke_l	l	n/a
425.957	0.074	851914	keystroke_e	e	n/a
426.151	0.075	852302	keystroke_g	g	n/a
426.286	0.105	852572	keystroke_i	i	n/a
426.436	0.075	852872	keystroke_s	s	n/a
426.616	0.09	853232	keystroke_l	l	n/a
426.751	0.165	853502	keystroke_a	a	n/a
426.901	0.076	853802	keystroke_t	t	n/a
427.036	0.136	854072	keystroke_u	u	n/a
427.157	0.089	854314	keystroke_r	r	n/a
427.231	0.091	854462	keystroke_e	e	n/a
427.966	0.12	855932	keystroke_Key.space	Key.space	n/a
428.311	0.075	856622	keystroke_s	s	n/a
428.477	0.074	856954	keystroke_o	o	n/a
428.746	0.105	857492	keystroke_'	'	n/a
428.911	0.136	857822	keystroke_r	r	n/a
429.016	0.106	858032	keystroke_e	e	n/a
429.136	0.09	858272	keystroke_Key.space	Key.space	n/a
429.632	0.105	859264	keystroke_v	v	n/a
429.752	0.075	859504	keystroke_i	i	n/a
430.127	0.059	860254	keystroke_t	t	n/a
430.276	0.106	860552	keystroke_a	a	n/a
430.382	0.12	860764	keystroke_m	m	n/a
430.562	0.15	861124	keystroke_i	i	n/a
430.667	0.134	861334	keystroke_n	n	n/a
430.816	0.076	861632	keystroke_s	s	n/a
431.401	0.136	862802	keystroke_Key.space	Key.space	n/a
431.717	0.105	863434	keystroke_e	e	n/a
431.942	0.075	863884	keystroke_q	q	n/a
432.017	0.09	864034	keystroke_u	u	n/a
432.167	0.135	864334	keystroke_a	a	n/a
432.272	0.075	864544	keystroke_l	l	n/a
432.437	0.18	864874	keystroke_l	l	n/a
432.557	0.105	865114	keystroke_y	y	n/a
433.397	0.119	866794	keystroke_Key.enter	Key.enter	n/a
433.5245	8.0335	867049	prompt	n/a	supporting sphere collection suites\n
434.177	0.089	868354	keystroke_s	s	n/a
434.327	0.105	868654	keystroke_u	u	n/a
434.552	0.09	869104	keystroke_p	p	n/a
434.717	0.105	869434	keystroke_p	p	n/a
434.897	0.104	869794	keystroke_o	o	n/a
435.017	0.09	870034	keystroke_r	r	n/a
435.197	0.09	870394	keystroke_t	t	n/a
435.302	0.15	870604	keystroke_i	i	n/a
435.392	0.194	870784	keystroke_n	n	n/a
435.512	0.09	871024	keystroke_g	g	n/a
435.616	0.15	871232	keystroke_Key.space	Key.space	n/a
436.007	0.105	872014	keystroke_s	s	n/a
436.262	0.12	872524	keystroke_p	p	n/a
436.577	0.12	873154	keystroke_h	h	n/a
437.027	0.105	874054	keystroke_e	e	n/a
437.402	0.075	874804	keystroke_r	r	n/a
437.582	0.06	875164	keystroke_e	e	n/a
438.121	0.135	876242	keystroke_Key.space	Key.space	n/a
438.482	0.105	876964	keystroke_c	c	n/a
438.557	0.075	877114	keystroke_o	o	n/a
438.752	0.06	877504	keystroke_l	l	n/a
438.887	0.15	877774	keystroke_l	l	n/a
439.007	0.075	878014	keystroke_e	e	n/a
439.232	0.075	878464	keystroke_c	c	n/a
439.442	0.09	878884	keystroke_t	t	n/a
439.517	0.15	879034	keystroke_i	i	n/a
439.652	0.165	879304	keystroke_o	o	n/a
439.757	0.195	879514	keystroke_n	n	n/a
439.876	0.12	879752	keystroke_Key.space	Key.space	n/a
439.982	0.09	879964	keystroke_s	s	n/a
440.147	0.15	880294	keystroke_u	u	n/a
440.252	0.12	880504	keystroke_i	i	n/a
440.372	0.195	880744	keystroke_t	t	n/a
440.507	0.15	881014	keystroke_e	e	n/a
440.627	0.105	881254	keystroke_s	s	n/a
441.422	0.134	882844	keystroke_Key.enter	Key.enter	n/a
441.5645	8.064	883129	prompt	n/a	family computation railway civic\n
442.262	0.15	884524	keystroke_f	f	n/a
442.412	0.12	884824	keystroke_a	a	n/a
442.487	0.165	884974	keystroke_m	m	n/a
442.562	0.18	885124	keystroke_i	i	n/a
442.892	0.195	885784	keystroke_l	l	n/a
443.327	0.105	886654	keystroke_y	y	n/a
443.462	0.135	886924	keystroke_Key.space	Key.space	n/a
443.777	0.09	887554	keystroke_c	c	n/a
443.972	0.09	887944	keystroke_o	o	n/a
444.032	0.195	888064	keystroke_m	m	n/a
444.182	0.15	888364	keystroke_p	p	n/a
444.362	0.12	888724	keystroke_u	u	n/a
444.467	0.075	888934	keystroke_t	t	n/a
444.632	0.12	889264	keystroke_a	a	n/a
444.692	0.105	889384	keystroke_t	t	n/a
444.782	0.15	889564	keystroke_i	i	n/a
444.887	0.165	889774	keystroke_o	o	n/a
444.977	0.18	889954	keystroke_n	n	n/a
445.727	0.15	891454	keystroke_Key.space	Key.space	n/a
445.922	0.195	891844	keystroke_r	r	n/a
446.057	0.165	892114	keystroke_a	a	n/a
446.237	0.15	892474	keystroke_i	i	n/a
446.312	0.15	892624	keystroke_l	l	n/a
446.762	0.09	893524	keystroke_w	w	n/a
446.972	0.105	893944	keystroke_a	a	n/a
447.062	0.135	894124	keystroke_y	y	n/a
447.152	0.12	894304	keystroke_Key.space	Key.space	n/a
447.482	0.075	894964	keystroke_c	c	n/a
447.602	0.09	895204	keystroke_i	i	n/a
447.707	0.06	895414	keystroke_v	v	n/a
447.812	0.105	895624	keystroke_i	i	n/a
448.097	0.12	896194	keystroke_c	c	n/a
449.507	0.12	899014	keystroke_Key.enter	Key.enter	n/a
449.634	7.1645	899268	prompt	n/a	conflicts rail indians bahamas\n
450.317	0.09	900634	keystroke_c	c	n/a
450.407	0.12	900814	keystroke_o	o	n/a
450.482	0.135	900964	keystroke_n	n	n/a
450.557	0.075	901114	keystroke_f	f	n/a
450.677	0.12	901354	keystroke_l	l	n/a
450.737	0.135	901474	keystroke_i	i	n/a
450.827	0.06	901654	keystroke_c	c	n/a
451.022	0.105	902044	keystroke_t	t	n/a
451.097	0.105	902194	keystroke_s	s	n/a
451.217	0.12	902434	keystroke_Key.space	Key.space	n/a
451.847	0.165	903694	keystroke_r	r	n/a
451.967	0.105	903934	keystroke_a	a	n/a
452.042	0.21	904084	keystroke_i	i	n/a
452.177	0.165	904354	keystroke_l	l	n/a
452.327	0.135	904654	keystroke_Key.space	Key.space	n/a
452.972	0.09	905944	keystroke_i	i	n/a
453.212	0.09	906424	keystroke_n	n	n/a
453.347	0.06	906694	keystroke_d	d	n/a
453.437	0.075	906874	keystroke_i	i	n/a
453.527	0.09	907054	keystroke_a	a	n/a
453.632	0.12	907264	keystroke_n	n	n/a
453.767	0.075	907534	keystroke_s	s	n/a
453.887	0.12	907774	keystroke_Key.space	Key.space	n/a
454.457	0.075	908914	keystroke_b	b	n/a
454.697	0.09	909394	keystroke_a	a	n/a
454.907	0.12	909814	keystroke_h	h	n/a
455.012	0.075	910024	keystroke_a	a	n/a
455.402	0.15	910804	keystroke_m	m	n/a
455.597	0.12	911194	keystroke_a	a	n/a
455.852	0.105	911704	keystroke_s	s	n/a
456.662	0.135	913324	keystroke_Key.enter	Key.enter	n/a
456.806	12.682	913612	prompt	n/a	population courtesy botswana greater\n
457.847	0.12	915694	keystroke_p	p	n/a
458.042	0.1045	916084	keystroke_u	u	n/a
458.3115	0.12	916623	keystroke_p	p	n/a
458.8815	0.09	917763	keystroke_Key.backspace	Key.backspace	n/a
459.1965	0.075	918393	keystroke_Key.backspace	Key.backspace	n/a
459.9915	0.06	919983	keystroke_o	o	n/a
460.1565	0.15	920313	keystroke_p	p	n/a
460.4715	0.075	920943	keystroke_u	u	n/a
460.6665	0.09	921333	keystroke_l	l	n/a
460.9215	0.165	921843	keystroke_a	a	n/a
461.0265	0.105	922053	keystroke_t	t	n/a
461.1165	0.15	922233	keystroke_i	i	n/a
461.2065	0.195	922413	keystroke_o	o	n/a
461.3565	0.18	922713	keystroke_n	n	n/a
461.4765	0.135	922953	keystroke_Key.space	Key.space	n/a
462.4365	0.105	924873	keystroke_c	c	n/a
462.5715	0.12	925143	keystroke_o	o	n/a
462.6465	0.135	925293	keystroke_u	u	n/a
462.9165	0.105	925833	keystroke_r	r	n/a
463.2765	0.075	926553	keystroke_t	t	n/a
463.4715	0.075	926943	keystroke_e	e	n/a
463.6665	0.09	927333	keystroke_s	s	n/a
463.7715	0.165	927543	keystroke_y	y	n/a
463.8765	0.135	927753	keystroke_Key.space	Key.space	n/a
464.9415	0.09	929883	keystroke_b	b	n/a
465.0915	0.105	930183	keystroke_o	o	n/a
465.5265	0.045	931053	keystroke_t	t	n/a
465.8265	0.105	931653	keystroke_s	s	n/a
466.2165	0.09	932433	keystroke_w	w	n/a
466.4415	0.12	932883	keystroke_a	a	n/a
466.5765	0.12	933153	keystroke_n	n	n/a
466.7115	0.09	933423	keystroke_a	a	n/a
466.8615	0.12	933723	keystroke_Key.space	Key.space	n/a
467.4915	0.075	934983	keystroke_g	g	n/a
467.7465	0.12	935493	keystroke_r	r	n/a
467.8515	0.15	935703	keystroke_e	e	n/a
467.9865	0.195	935973	keystroke_a	a	n/a
468.1665	0.105	936333	keystroke_t	t	n/a
468.3315	0.15	936663	keystroke_e	e	n/a
468.4215	0.12	936843	keystroke_r	r	n/a
469.3215	0.165	938643	keystroke_Key.enter	Key.enter	n/a
469.4925	10.7055	938985	prompt	n/a	ecommerce consistent striking apparently\n
470.3715	0.09	940743	keystroke_e	e	n/a
470.6715	0.105	941343	keystroke_c	c	n/a
470.7915	0.06	941583	keystroke_o	o	n/a
470.9865	0.075	941973	keystroke_m	m	n/a
471.1515	0.135	942303	keystroke_m	m	n/a
471.2715	0.165	942543	keystroke_e	e	n/a
471.3765	0.075	942753	keystroke_r	r	n/a
471.6015	0.09	943203	keystroke_c	c	n/a
471.8115	0.09	943623	keystroke_e	e	n/a
471.9165	0.12	943833	keystroke_Key.space	Key.space	n/a
472.7415	0.105	945483	keystroke_c	c	n/a
472.8315	0.15	945663	keystroke_o	o	n/a
472.9215	0.135	945843	keystroke_n	n	n/a
473.0265	0.09	946053	keystroke_s	s	n/a
473.1465	0.105	946293	keystroke_i	i	n/a
473.2365	0.12	946473	keystroke_s	s	n/a
473.4165	0.105	946833	keystroke_t	t	n/a
473.5065	0.09	947013	keystroke_e	e	n/a
473.6715	0.105	947343	keystroke_n	n	n/a
473.7615	0.075	947523	keystroke_t	t	n/a
473.8965	0.105	947793	keystroke_Key.space	Key.space	n/a
474.4515	0.09	948903	keystroke_s	s	n/a
474.6765	0.06	949353	keystroke_t	t	n/a
474.8865	0.075	949773	keystroke_r	r	n/a
475.1115	0.03	950223	keystroke_i	i	n/a
475.3215	0.075	950643	keystroke_k	k	n/a
475.5315	0.1795	951063	keystroke_i	i	n/a
475.636	0.2405	951272	keystroke_n	n	n/a
475.741	0.0905	951482	keystroke_g	g	n/a
475.8915	0.105	951783	keystroke_Key.space	Key.space	n/a
476.1165	0.09	952233	keystroke_a	a	n/a
476.2965	0.09	952593	keystroke_p	p	n/a
476.4615	0.1045	952923	keystroke_p	p	n/a
476.686	0.15	953372	keystroke_a	a	n/a
476.821	0.135	953642	keystroke_r	r	n/a
476.941	0.075	953882	keystroke_e	e	n/a
477.076	0.12	954152	keystroke_n	n	n/a
477.211	0.075	954422	keystroke_t	t	n/a
477.391	0.3	954782	keystroke_l	l	n/a
477.556	0.15	955112	keystroke_y	y	n/a
477.646	0.1355	955292	keystroke_Key.space	Key.space	n/a
478.861	0.075	957722	keystroke_Key.backspace	Key.backspace	n/a
480.0615	0.1345	960123	keystroke_Key.enter	Key.enter	n/a
480.203	9.82	960406	prompt	n/a	jonathan tommy ultram trademarks\n
481.186	0.135	962372	keystroke_j	j	n/a
481.366	0.105	962732	keystroke_o	o	n/a
481.546	0.15	963092	keystroke_n	n	n/a
481.726	0.12	963452	keystroke_a	a	n/a
481.921	0.09	963842	keystroke_t	t	n/a
482.011	0.105	964022	keystroke_h	h	n/a
482.146	0.105	964292	keystroke_a	a	n/a
482.266	0.195	964532	keystroke_n	n	n/a
482.386	0.165	964772	keystroke_Key.space	Key.space	n/a
482.881	0.075	965762	keystroke_t	t	n/a
483.151	0.075	966302	keystroke_o	o	n/a
483.376	0.09	966752	keystroke_m	m	n/a
483.541	0.15	967082	keystroke_m	m	n/a
483.916	0.135	967832	keystroke_y	y	n/a
484.006	0.135	968012	keystroke_Key.space	Key.space	n/a
484.816	0.12	969632	keystroke_u	u	n/a
485.011	0.105	970022	keystroke_l	l	n/a
485.311	0.105	970622	keystroke_t	t	n/a
485.536	0.18	971072	keystroke_r	r	n/a
485.656	0.15	971312	keystroke_a	a	n/a
485.821	0.15	971642	keystroke_m	m	n/a
486.331	0.135	972662	keystroke_Key.space	Key.space	n/a
486.736	0.045	973472	keystroke_t	t	n/a
486.931	0.135	973862	keystroke_r	r	n/a
487.036	0.105	974072	keystroke_a	a	n/a
487.261	0.06	974522	keystroke_d	d	n/a
487.456	0.06	974912	keystroke_e	e	n/a
487.726	0.135	975452	keystroke_m	m	n/a
488.011	0.105	976022	keystroke_a	a	n/a
488.641	0.06	977282	keystroke_r	r	n/a
488.806	0.105	977612	keystroke_k	k	n/a
489.001	0.09	978002	keystroke_s	s	n/a
489.901	0.12	979802	keystroke_Key.enter	Key.enter	n/a
490.028	6.94	980056	prompt	n/a	turkey gently optimize speak\n
491.011	0.075	982022	keystroke_t	t	n/a
491.116	0.105	982232	keystroke_u	u	n/a
491.236	0.09	982472	keystroke_r	r	n/a
491.386	0.09	982772	keystroke_k	k	n/a
491.491	0.075	982982	keystroke_e	e	n/a
491.656	0.15	983312	keystroke_y	y	n/a
491.761	0.105	983522	keystroke_Key.space	Key.space	n/a
492.106	0.075	984212	keystroke_g	g	n/a
492.286	0.09	984572	keystroke_e	e	n/a
492.361	0.135	984722	keystroke_n	n	n/a
492.526	0.075	985052	keystroke_t	t	n/a
492.676	0.241	985352	keystroke_l	l	n/a
492.811	0.12	985622	keystroke_y	y	n/a
492.901	0.105	985802	keystroke_Key.space	Key.space	n/a
493.187	0.089	986374	keystroke_o	o	n/a
493.696	0.105	987392	keystroke_p	p	n/a
494.071	0.075	988142	keystroke_t	t	n/a
494.206	0.06	988412	keystroke_i	i	n/a
494.401	0.195	988802	keystroke_m	m	n/a
494.567	0.104	989134	keystroke_i	i	n/a
494.746	0.12	989492	keystroke_z	z	n/a
495.001	0.075	990002	keystroke_e	e	n/a
495.196	0.18	990392	keystroke_Key.space	Key.space	n/a
495.496	0.12	990992	keystroke_s	s	n/a
495.601	0.105	991202	keystroke_p	p	n/a
495.707	0.179	991414	keystroke_e	e	n/a
495.826	0.135	991652	keystroke_a	a	n/a
495.901	0.105	991802	keystroke_k	k	n/a
496.831	0.135	993662	keystroke_Key.enter	Key.enter	n/a
496.973	7.7955	993946	prompt	n/a	tuning underlying disc sufficient\n
497.671	0.09	995342	keystroke_t	t	n/a
497.821	0.06	995642	keystroke_u	u	n/a
498.226	0.135	996452	keystroke_n	n	n/a
498.376	0.18	996752	keystroke_i	i	n/a
498.496	0.225	996992	keystroke_n	n	n/a
498.631	0.06	997262	keystroke_g	g	n/a
498.751	0.12	997502	keystroke_Key.space	Key.space	n/a
499.501	0.105	999002	keystroke_u	u	n/a
499.726	0.18	999452	keystroke_n	n	n/a
499.801	0.075	999602	keystroke_d	d	n/a
499.996	0.12	999992	keystroke_e	e	n/a
500.071	0.121	1000142	keystroke_r	r	n/a
500.221	0.18	1000442	keystroke_l	l	n/a
500.371	0.15	1000742	keystroke_y	y	n/a
500.506	0.24	1001012	keystroke_i	i	n/a
500.656	0.24	1001312	keystroke_n	n	n/a
500.761	0.075	1001522	keystroke_g	g	n/a
500.866	0.15	1001732	keystroke_Key.space	Key.space	n/a
501.466	0.06	1002932	keystroke_d	d	n/a
501.541	0.12	1003082	keystroke_i	i	n/a
501.631	0.09	1003262	keystroke_s	s	n/a
501.841	0.076	1003682	keystroke_c	c	n/a
502.021	0.135	1004042	keystroke_Key.space	Key.space	n/a
502.381	0.09	1004762	keystroke_s	s	n/a
502.667	0.014	1005334	keystroke_u	u	n/a
502.712	0.074	1005424	keystroke_f	f	n/a
502.876	0.09	1005752	keystroke_f	f	n/a
503.072	0.089	1006144	keystroke_i	i	n/a
503.251	0.105	1006502	keystroke_c	c	n/a
503.357	0.089	1006714	keystroke_i	i	n/a
503.506	0.076	1007012	keystroke_e	e	n/a
503.626	0.136	1007252	keystroke_n	n	n/a
503.747	0.059	1007494	keystroke_t	t	n/a
504.646	0.12	1009292	keystroke_Key.enter	Key.enter	n/a
504.7735	7.2095	1009547	prompt	n/a	tender laughing seems debut\n
505.471	0.061	1010942	keystroke_t	t	n/a
505.771	0.091	1011542	keystroke_n	n	n/a
506.131	0.045	1012262	keystroke_Key.backspace	Key.backspace	n/a
506.882	0.06	1013764	keystroke_e	e	n/a
507.017	0.164	1014034	keystroke_n	n	n/a
507.106	0.09	1014212	keystroke_d	d	n/a
507.301	0.15	1014602	keystroke_e	e	n/a
507.422	0.09	1014844	keystroke_r	r	n/a
507.481	0.135	1014962	keystroke_Key.space	Key.space	n/a
507.646	0.136	1015292	keystroke_l	l	n/a
507.767	0.089	1015534	keystroke_a	a	n/a
507.887	0.105	1015774	keystroke_u	u	n/a
508.037	0.089	1016074	keystroke_g	g	n/a
508.142	0.12	1016284	keystroke_h	h	n/a
508.276	0.196	1016552	keystroke_i	i	n/a
508.382	0.224	1016764	keystroke_n	n	n/a
508.487	0.075	1016974	keystroke_g	g	n/a
508.546	0.15	1017092	keystroke_Key.space	Key.space	n/a
508.681	0.091	1017362	keystroke_s	s	n/a
508.876	0.075	1017752	keystroke_e	e	n/a
509.026	0.091	1018052	keystroke_e	e	n/a
509.087	0.119	1018174	keystroke_m	m	n/a
509.282	0.105	1018564	keystroke_s	s	n/a
509.431	0.105	1018862	keystroke_Key.space	Key.space	n/a
510.632	0.074	1021264	keystroke_d	d	n/a
510.812	0.059	1021624	keystroke_e	e	n/a
510.992	0.09	1021984	keystroke_b	b	n/a
511.097	0.135	1022194	keystroke_u	u	n/a
511.262	0.06	1022524	keystroke_t	t	n/a
511.8305	0.15	1023661	keystroke_Key.enter	Key.enter	n/a
511.988	5.1845	1023976	prompt	n/a	scales in ensuring torture\n
512.5665	0.15	1025133	keystroke_s	s	n/a
512.8815	0.074	1025763	keystroke_c	c	n/a
513.0305	0.121	1026061	keystroke_a	a	n/a
513.1515	0.12	1026303	keystroke_l	l	n/a
513.2565	0.135	1026513	keystroke_e	e	n/a
513.3465	0.12	1026693	keystroke_s	s	n/a
513.4805	0.105	1026961	keystroke_Key.space	Key.space	n/a
513.7215	0.135	1027443	keystroke_i	i	n/a
513.8115	0.15	1027623	keystroke_n	n	n/a
513.9005	0.135	1027801	keystroke_Key.space	Key.space	n/a
514.0665	0.09	1028133	keystroke_e	e	n/a
514.2165	0.12	1028433	keystroke_n	n	n/a
514.4265	0.105	1028853	keystroke_s	s	n/a
514.5615	0.105	1029123	keystroke_u	u	n/a
514.6965	0.09	1029393	keystroke_r	r	n/a
514.8015	0.135	1029603	keystroke_i	i	n/a
514.8765	0.24	1029753	keystroke_n	n	n/a
515.0115	0.075	1030023	keystroke_g	g	n/a
515.1005	0.105	1030201	keystroke_Key.space	Key.space	n/a
515.6715	0.09	1031343	keystroke_t	t	n/a
515.7915	0.105	1031583	keystroke_o	o	n/a
515.9265	0.075	1031853	keystroke_r	r	n/a
516.1215	0.075	1032243	keystroke_t	t	n/a
516.2415	0.12	1032483	keystroke_u	u	n/a
516.3465	0.12	1032693	keystroke_r	r	n/a
516.4365	0.105	1032873	keystroke_e	e	n/a
517.0665	0.104	1034133	keystroke_Key.enter	Key.enter	n/a
517.1885	5.8645	1034377	prompt	n/a	hoping connect midnight multi\n
518.1315	0.135	1036263	keystroke_h	h	n/a
518.2965	0.105	1036593	keystroke_o	o	n/a
518.5365	0.09	1037073	keystroke_p	p	n/a
518.7465	0.15	1037493	keystroke_i	i	n/a
518.8065	0.255	1037613	keystroke_n	n	n/a
518.9415	0.075	1037883	keystroke_g	g	n/a
519.0005	0.12	1038001	keystroke_Key.space	Key.space	n/a
519.1515	0.12	1038303	keystroke_c	c	n/a
519.2565	0.06	1038513	keystroke_o	o	n/a
519.4515	0.09	1038903	keystroke_n	n	n/a
519.6165	0.15	1039233	keystroke_n	n	n/a
519.7365	0.09	1039473	keystroke_e	e	n/a
519.9615	0.105	1039923	keystroke_c	c	n/a
520.2015	0.075	1040403	keystroke_t	t	n/a
520.3965	0.105	1040793	keystroke_Key.space	Key.space	n/a
520.5915	0.12	1041183	keystroke_m	m	n/a
520.8315	0.09	1041663	keystroke_i	i	n/a
521.0415	0.075	1042083	keystroke_d	d	n/a
521.1465	0.195	1042293	keystroke_n	n	n/a
521.2515	0.135	1042503	keystroke_i	i	n/a
521.4015	0.075	1042803	keystroke_g	g	n/a
521.4915	0.12	1042983	keystroke_h	h	n/a
521.6415	0.06	1043283	keystroke_t	t	n/a
521.7615	0.119	1043523	keystroke_Key.space	Key.space	n/a
522.0015	0.105	1044003	keystroke_m	m	n/a
522.2265	0.15	1044453	keystroke_u	u	n/a
522.3615	0.12	1044723	keystroke_l	l	n/a
522.4965	0.075	1044993	keystroke_t	t	n/a
522.5865	0.105	1045173	keystroke_i	i	n/a
522.9315	0.12	1045863	keystroke_Key.enter	Key.enter	n/a
523.0575	7.0455	1046115	prompt	n/a	bills pete officials trackback\n
524.1165	0.09	1048233	keystroke_b	b	n/a
524.1765	0.09	1048353	keystroke_i	i	n/a
524.3715	0.06	1048743	keystroke_l	l	n/a
524.5065	0.135	1049013	keystroke_l	l	n/a
524.6115	0.105	1049223	keystroke_s	s	n/a
524.7015	0.15	1049403	keystroke_Key.space	Key.space	n/a
524.8965	0.06	1049793	keystroke_p	p	n/a
524.9865	0.105	1049973	keystroke_e	e	n/a
525.1515	0.135	1050303	keystroke_t	t	n/a
525.2565	0.105	1050513	keystroke_e	e	n/a
525.4365	0.15	1050873	keystroke_Key.space	Key.space	n/a
525.8115	0.105	1051623	keystroke_o	o	n/a
525.8865	0.075	1051773	keystroke_f	f	n/a
526.0515	0.09	1052103	keystroke_f	f	n/a
526.1865	0.06	1052373	keystroke_i	i	n/a
526.2915	0.09	1052583	keystroke_c	c	n/a
526.3965	0.09	1052793	keystroke_i	i	n/a
526.5165	0.09	1053033	keystroke_a	a	n/a
526.6515	0.09	1053303	keystroke_l	l	n/a
526.7865	0.09	1053573	keystroke_s	s	n/a
527.7765	0.105	1055553	keystroke_Key.space	Key.space	n/a
528.1215	0.06	1056243	keystroke_t	t	n/a
528.3015	0.135	1056603	keystroke_r	r	n/a
528.4215	0.06	1056843	keystroke_a	a	n/a
528.5715	0.09	1057143	keystroke_c	c	n/a
528.6465	0.12	1057293	keystroke_k	k	n/a
528.9315	0.18	1057863	keystroke_b	b	n/a
529.0665	0.135	1058133	keystroke_a	a	n/a
529.2465	0.12	1058493	keystroke_c	c	n/a
529.3365	0.105	1058673	keystroke_k	k	n/a
529.9515	0.15	1059903	keystroke_Key.enter	Key.enter	n/a
530.1075	8.276	1060215	prompt	n/a	clearly divine meditation shepherd\n
530.9565	0.09	1061913	keystroke_c	c	n/a
531.3165	0.105	1062633	keystroke_l	l	n/a
531.5115	0.105	1063023	keystroke_e	e	n/a
531.6765	0.18	1063353	keystroke_a	a	n/a
531.7815	0.12	1063563	keystroke_r	r	n/a
531.8865	0.27	1063773	keystroke_l	l	n/a
532.0665	0.135	1064133	keystroke_y	y	n/a
532.1415	0.135	1064283	keystroke_Key.space	Key.space	n/a
532.4265	0.105	1064853	keystroke_d	d	n/a
532.6815	0.03	1065363	keystroke_i	i	n/a
532.6965	0.075	1065393	keystroke_v	v	n/a
532.8615	0.225	1065723	keystroke_i	i	n/a
532.9815	0.195	1065963	keystroke_n	n	n/a
533.1165	0.0895	1066233	keystroke_e	e	n/a
533.2965	0.135	1066593	keystroke_Key.space	Key.space	n/a
533.6415	0.12	1067283	keystroke_m	m	n/a
533.7615	0.045	1067523	keystroke_e	e	n/a
533.9565	0.09	1067913	keystroke_d	d	n/a
534.0915	0.09	1068183	keystroke_i	i	n/a
534.1965	0.06	1068393	keystroke_t	t	n/a
534.3465	0.15	1068693	keystroke_a	a	n/a
534.4215	0.12	1068843	keystroke_t	t	n/a
534.5265	0.18	1069053	keystroke_i	i	n/a
534.6615	0.21	1069323	keystroke_o	o	n/a
534.7965	0.195	1069593	keystroke_n	n	n/a
534.9165	0.135	1069833	keystroke_Key.space	Key.space	n/a
535.2915	0.09	1070583	keystroke_s	s	n/a
535.4115	0.12	1070823	keystroke_h	h	n/a
535.5165	0.075	1071033	keystroke_e	e	n/a
535.7865	0.105	1071573	keystroke_p	p	n/a
536.0415	0.105	1072083	keystroke_h	h	n/a
536.1765	0.165	1072353	keystroke_e	e	n/a
536.2665	0.12	1072533	keystroke_r	r	n/a
536.8815	0.075	1073763	keystroke_d	d	n/a
538.261	0.12	1076522	keystroke_Key.enter	Key.enter	n/a
538.388	7.765	1076776	prompt	n/a	briefing territory skills houses\n
539.236	0.09	1078472	keystroke_b	b	n/a
539.461	0.09	1078922	keystroke_r	r	n/a
539.566	0.12	1079132	keystroke_i	i	n/a
539.716	0.09	1079432	keystroke_e	e	n/a
540.046	0.09	1080092	keystroke_f	f	n/a
540.226	0.135	1080452	keystroke_i	i	n/a
540.301	0.255	1080602	keystroke_n	n	n/a
540.436	0.075	1080872	keystroke_g	g	n/a
540.526	0.135	1081052	keystroke_Key.space	Key.space	n/a
540.961	0.045	1081922	keystroke_t	t	n/a
541.051	0.135	1082102	keystroke_e	e	n/a
541.216	0.075	1082432	keystroke_r	r	n/a
541.366	0.09	1082732	keystroke_r	r	n/a
541.531	0.105	1083062	keystroke_i	i	n/a
542.656	0.06	1085312	keystroke_t	t	n/a
542.791	0.12	1085582	keystroke_o	o	n/a
543.046	0.075	1086092	keystroke_r	r	n/a
543.211	0.165	1086422	keystroke_y	y	n/a
543.316	0.135	1086632	keystroke_Key.space	Key.space	n/a
543.841	0.105	1087682	keystroke_s	s	n/a
543.976	0.075	1087952	keystroke_k	k	n/a
544.126	0.09	1088252	keystroke_i	i	n/a
544.321	0.06	1088642	keystroke_l	l	n/a
544.471	0.165	1088942	keystroke_l	l	n/a
544.561	0.105	1089122	keystroke_s	s	n/a
544.681	0.105	1089362	keystroke_Key.space	Key.space	n/a
544.756	0.12	1089512	keystroke_h	h	n/a
544.891	0.135	1089782	keystroke_o	o	n/a
544.996	0.18	1089992	keystroke_u	u	n/a
545.041	0.105	1090082	keystroke_s	s	n/a
545.221	0.135	1090442	keystroke_e	e	n/a
545.296	0.12	1090592	keystroke_s	s	n/a
546.016	0.135	1092032	keystroke_Key.enter	Key.enter	n/a
546.161	7.777	1092322	prompt	n/a	slides bear basis clusters\n
546.916	0.09	1093832	keystroke_s	s	n/a
547.111	0.09	1094222	keystroke_l	l	n/a
547.231	0.15	1094462	keystroke_i	i	n/a
547.471	0.03	1094942	keystroke_d	d	n/a
547.876	0.06	1095752	keystroke_e	e	n/a
548.101	0.09	1096202	keystroke_s	s	n/a
548.221	0.12	1096442	keystroke_Key.space	Key.space	n/a
548.836	0.09	1097672	keystroke_b	b	n/a
549.151	0.18	1098302	keystroke_e	e	n/a
549.346	0.195	1098692	keystroke_a	a	n/a
549.451	0.135	1098902	keystroke_r	r	n/a
549.631	0.135	1099262	keystroke_Key.space	Key.space	n/a
549.916	0.135	1099832	keystroke_b	b	n/a
550.096	0.195	1100192	keystroke_a	a	n/a
550.156	0.15	1100312	keystroke_s	s	n/a
550.396	0.12	1100792	keystroke_i	i	n/a
550.471	0.12	1100942	keystroke_s	s	n/a
550.636	0.135	1101272	keystroke_Key.space	Key.space	n/a
551.656	0.09	1103312	keystroke_c	c	n/a
551.731	0.105	1103462	keystroke_l	l	n/a
551.926	0.15	1103852	keystroke_u	u	n/a
552.091	0.09	1104182	keystroke_s	s	n/a
552.301	0.075	1104602	keystroke_t	t	n/a
552.421	0.18	1104842	keystroke_e	e	n/a
552.556	0.105	1105112	keystroke_r	r	n/a
553.066	0.105	1106132	keystroke_s	s	n/a
553.816	0.12	1107632	keystroke_Key.enter	Key.enter	n/a
553.9425	9.9405	1107885	prompt	n/a	rental false efficiently holes\n
554.806	0.105	1109612	keystroke_r	r	n/a
554.896	0.12	1109792	keystroke_e	e	n/a
555.061	0.09	1110122	keystroke_n	n	n/a
555.121	0.135	1110242	keystroke_t	t	n/a
555.241	0.15	1110482	keystroke_a	a	n/a
555.406	0.105	1110812	keystroke_l	l	n/a
557.086	0.165	1114172	keystroke_Key.space	Key.space	n/a
557.416	0.045	1114832	keystroke_f	f	n/a
557.491	0.105	1114982	keystroke_f	f	n/a
558.406	0.075	1116812	keystroke_Key.backspace	Key.backspace	n/a
558.901	0.09	1117802	keystroke_a	a	n/a
558.991	0.105	1117982	keystroke_l	l	n/a
559.186	0.09	1118372	keystroke_s	s	n/a
559.411	0.09	1118822	keystroke_e	e	n/a
559.531	0.105	1119062	keystroke_Key.space	Key.space	n/a
559.951	0.06	1119902	keystroke_e	e	n/a
560.146	0.075	1120292	keystroke_f	f	n/a
560.311	0.105	1120622	keystroke_f	f	n/a
560.506	0.075	1121012	keystroke_i	i	n/a
561.511	0.105	1123022	keystroke_c	c	n/a
561.631	0.09	1123262	keystroke_i	i	n/a
561.766	0.075	1123532	keystroke_e	e	n/a
561.886	0.105	1123772	keystroke_n	n	n/a
562.021	0.075	1124042	keystroke_t	t	n/a
562.261	0.27	1124522	keystroke_l	l	n/a
562.426	0.12	1124852	keystroke_y	y	n/a
562.501	0.135	1125002	keystroke_Key.space	Key.space	n/a
562.861	0.135	1125722	keystroke_h	h	n/a
563.011	0.015	1126022	keystroke_o	o	n/a
563.146	0.105	1126292	keystroke_l	l	n/a
563.266	0.12	1126532	keystroke_e	e	n/a
563.356	0.135	1126712	keystroke_s	s	n/a
563.746	0.135	1127492	keystroke_Key.enter	Key.enter	n/a
563.888	5.5915	1127776	prompt	n/a	carl lopez greater teenage\n
564.721	0.075	1129442	keystroke_c	c	n/a
564.871	0.18	1129742	keystroke_a	a	n/a
565.006	0.105	1130012	keystroke_r	r	n/a
565.066	0.105	1130132	keystroke_l	l	n/a
565.186	0.12	1130372	keystroke_Key.space	Key.space	n/a
565.276	0.105	1130552	keystroke_l	l	n/a
565.501	0.075	1131002	keystroke_o	o	n/a
565.681	0.105	1131362	keystroke_p	p	n/a
565.771	0.06	1131542	keystroke_e	e	n/a
566.011	0.12	1132022	keystroke_z	z	n/a
566.146	0.135	1132292	keystroke_Key.space	Key.space	n/a
566.761	0.09	1133522	keystroke_g	g	n/a
566.971	0.135	1133942	keystroke_r	r	n/a
567.076	0.15	1134152	keystroke_e	e	n/a
567.211	0.12	1134422	keystroke_a	a	n/a
567.271	0.105	1134542	keystroke_t	t	n/a
567.436	0.135	1134872	keystroke_e	e	n/a
567.526	0.12	1135052	keystroke_r	r	n/a
567.661	0.12	1135322	keystroke_Key.space	Key.space	n/a
567.871	0.075	1135742	keystroke_t	t	n/a
568.066	0.075	1136132	keystroke_e	e	n/a
568.246	0.09	1136492	keystroke_e	e	n/a
568.411	0.135	1136822	keystroke_n	n	n/a
568.561	0.12	1137122	keystroke_a	a	n/a
568.666	0.135	1137332	keystroke_g	g	n/a
568.786	0.105	1137572	keystroke_e	e	n/a
569.356	0.12	1138712	keystroke_Key.enter	Key.enter	n/a
569.484	8.439	1138968	prompt	n/a	interior config bird percentage\n
570.856	0.075	1141712	keystroke_i	i	n/a
571.051	0.12	1142102	keystroke_n	n	n/a
571.201	0.105	1142402	keystroke_t	t	n/a
571.366	0.09	1142732	keystroke_e	e	n/a
571.441	0.09	1142882	keystroke_r	r	n/a
571.591	0.105	1143182	keystroke_i	i	n/a
571.876	0.09	1143752	keystroke_o	o	n/a
572.086	0.105	1144172	keystroke_r	r	n/a
572.281	0.09	1144562	keystroke_Key.space	Key.space	n/a
573.061	0.105	1146122	keystroke_c	c	n/a
573.151	0.15	1146302	keystroke_o	o	n/a
573.241	0.12	1146482	keystroke_n	n	n/a
573.316	0.075	1146632	keystroke_f	f	n/a
573.451	0.09	1146902	keystroke_i	i	n/a
574.2005	0.015	1148401	keystroke_g	g	n/a
574.3805	0.135	1148761	keystroke_Key.space	Key.space	n/a
574.9505	0.105	1149901	keystroke_b	b	n/a
575.071	0.1045	1150142	keystroke_i	i	n/a
575.2205	0.136	1150441	keystroke_r	r	n/a
575.3255	0.135	1150651	keystroke_d	d	n/a
575.4755	0.12	1150951	keystroke_Key.space	Key.space	n/a
575.7155	0.12	1151431	keystroke_p	p	n/a
575.8205	0.12	1151641	keystroke_e	e	n/a
575.8805	0.075	1151761	keystroke_r	r	n/a
576.0905	0.06	1152181	keystroke_c	c	n/a
576.3005	0.06	1152601	keystroke_e	e	n/a
576.4355	0.15	1152871	keystroke_n	n	n/a
576.5565	0.089	1153113	keystroke_t	t	n/a
576.8115	0.119	1153623	keystroke_a	a	n/a
576.9605	0.135	1153921	keystroke_g	g	n/a
577.0655	0.105	1154131	keystroke_e	e	n/a
577.7855	0.135	1155571	keystroke_Key.enter	Key.enter	n/a
577.9275	9.19	1155855	prompt	n/a	grant brisbane fewer impossible\n
578.9555	0.061	1157911	keystroke_g	g	n/a
579.1355	0.135	1158271	keystroke_r	r	n/a
