onset	duration	sample	value	key	prompt_text
5.481	5.836	10962	prompt	n/a	the quick brown fox jumps over a lazy dog\n
6.5755	0.013	13151	keystroke	t	n/a
6.6045	0.044	13209	keystroke	h	n/a
6.694	0.104	13388	keystroke	e	n/a
6.7685	0.0895	13537	keystroke	Key.space	n/a
6.9035	0.075	13807	keystroke	q	n/a
6.993	0.0905	13986	keystroke	u	n/a
7.0385	0.1055	14077	keystroke	i	n/a
7.2785	0.0605	14557	keystroke	k	n/a
7.5785	0.0745	15157	keystroke	Key.backspace	n/a
7.774	0.045	15548	keystroke	c	n/a
7.8485	0.0605	15697	keystroke	k	n/a
7.9685	0.075	15937	keystroke	Key.space	n/a
8.1035	0.0605	16207	keystroke	b	n/a
8.178	0.076	16356	keystroke	r	n/a
8.284	0.09	16568	keystroke	o	n/a
8.3885	0.0455	16777	keystroke	w	n/a
8.463	0.061	16926	keystroke	n	n/a
8.5685	0.0745	17137	keystroke	Key.space	n/a
8.629	0.0595	17258	keystroke	f	n/a
8.733	0.0605	17466	keystroke	o	n/a
8.809	0.075	17618	keystroke	x	n/a
8.869	0.089	17738	keystroke	Key.space	n/a
8.9735	0.0745	17947	keystroke	j	n/a
9.094	0.06	18188	keystroke	u	n/a
9.2885	0.045	18577	keystroke	m	n/a
9.4235	0.06	18847	keystroke	p	n/a
9.4985	0.0595	18997	keystroke	s	n/a
9.5885	0.075	19177	keystroke	Key.space	n/a
9.678	0.0605	19356	keystroke	o	n/a
9.724	0.075	19448	keystroke	v	n/a
9.904	0.0745	19808	keystroke	e	n/a
10.009	0.075	20018	keystroke	r	n/a
10.099	0.0595	20198	keystroke	Key.space	n/a
10.173	0.106	20346	keystroke	a	n/a
10.2485	0.06	20497	keystroke	Key.space	n/a
10.384	0.0595	20768	keystroke	l	n/a
10.399	0.059	20798	keystroke	a	n/a
10.579	0.105	21158	keystroke	z	n/a
10.698	0.0305	21396	keystroke	y	n/a
10.8185	0.0745	21637	keystroke	Key.space	n/a
10.909	0.059	21818	keystroke	d	n/a
10.983	0.06	21966	keystroke	o	n/a
11.1335	0.045	22267	keystroke	g	n/a
11.238	0.0755	22476	keystroke	Key.enter	n/a
11.323	6.038	22646	prompt	n/a	customs surely consultation recover\n
11.944	0.0445	23888	keystroke	c	n/a
12.034	0.0595	24068	keystroke	u	n/a
12.1095	0.0745	24219	keystroke	s	n/a
12.2885	0.075	24577	keystroke	t	n/a
12.3485	0.06	24697	keystroke	o	n/a
12.513	0.061	25026	keystroke	m	n/a
12.724	0.075	25448	keystroke	s	n/a
12.8285	0.0755	25657	keystroke	Key.space	n/a
13.0385	0.06	26077	keystroke	s	n/a
13.084	0.06	26168	keystroke	u	n/a
13.204	0.075	26408	keystroke	r	n/a
13.279	0.105	26558	keystroke	e	n/a
13.3985	0.06	26797	keystroke	l	n/a
13.519	0.0595	27038	keystroke	y	n/a
13.5935	0.075	27187	keystroke	Key.space	n/a
13.804	0.0445	27608	keystroke	c	n/a
13.819	0.044	27638	keystroke	o	n/a
13.9685	0.0445	27937	keystroke	n	n/a
14.0145	0.0595	28029	keystroke	s	n/a
14.134	0.0445	28268	keystroke	u	n/a
14.2835	0.0605	28567	keystroke	l	n/a
14.314	0.0595	28628	keystroke	t	n/a
14.449	0.0745	28898	keystroke	a	n/a
14.5535	0.0755	29107	keystroke	t	n/a
14.6295	0.0745	29259	keystroke	i	n/a
14.674	0.09	29348	keystroke	o	n/a
14.8385	0.0905	29677	keystroke	n	n/a
14.958	0.075	29916	keystroke	Key.space	n/a
14.989	0.06	29978	keystroke	r	n/a
15.0645	0.074	30129	keystroke	e	n/a
15.2735	0.0755	30547	keystroke	c	n/a
15.333	0.0755	30666	keystroke	o	n/a
15.4685	0.0455	30937	keystroke	r	n/a
15.7985	0.0605	31597	keystroke	v	n/a
16.114	0.0445	32228	keystroke	Key.backspace	n/a
16.399	0.044	32798	keystroke	Key.backspace	n/a
16.549	0.074	33098	keystroke	v	n/a
16.759	0.075	33518	keystroke	e	n/a
16.8785	0.09	33757	keystroke	r	n/a
17.2685	0.091	34537	keystroke	Key.enter	n/a
17.366	4.66	34732	prompt	n/a	teaches proteins samples intermediate\n
17.9885	0.061	35977	keystroke	t	n/a
18.1235	0.09	36247	keystroke	e	n/a
18.289	0.0745	36578	keystroke	a	n/a
18.439	0.09	36878	keystroke	c	n/a
18.499	0.0595	36998	keystroke	h	n/a
18.6345	0.059	37269	keystroke	e	n/a
18.8135	0.06	37627	keystroke	s	n/a
18.8435	0.0605	37687	keystroke	Key.space	n/a
18.9635	0.06	37927	keystroke	p	n/a
19.039	0.0595	38078	keystroke	r	n/a
19.1135	0.075	38227	keystroke	o	n/a
19.2035	0.06	38407	keystroke	t	n/a
19.324	0.0745	38648	keystroke	e	n/a
19.428	0.046	38856	keystroke	i	n/a
19.593	0.061	39186	keystroke	n	n/a
19.6235	0.075	39247	keystroke	s	n/a
19.7135	0.075	39427	keystroke	Key.space	n/a
19.8335	0.075	39667	keystroke	s	n/a
19.939	0.09	39878	keystroke	a	n/a
20.014	0.06	40028	keystroke	m	n/a
20.1785	0.105	40357	keystroke	p	n/a
20.254	0.105	40508	keystroke	l	n/a
20.344	0.075	40688	keystroke	e	n/a
20.5385	0.046	41077	keystroke	s	n/a
20.568	0.076	41136	keystroke	Key.space	n/a
20.719	0.0605	41438	keystroke	i	n/a
20.8685	0.0745	41737	keystroke	n	n/a
20.883	0.076	41766	keystroke	t	n/a
21.019	0.075	42038	keystroke	e	n/a
21.079	0.09	42158	keystroke	r	n/a
21.184	0.06	42368	keystroke	m	n/a
21.2585	0.06	42517	keystroke	e	n/a
21.409	0.0895	42818	keystroke	d	n/a
21.514	0.045	43028	keystroke	i	n/a
21.5595	0.1045	43119	keystroke	a	n/a
21.7235	0.06	43447	keystroke	t	n/a
21.844	0.0745	43688	keystroke	e	n/a
21.9645	0.0585	43929	keystroke	Key.enter	n/a
22.029	5.577	44058	prompt	n/a	shipped connectivity utilize distribution\n
22.5635	0.0605	45127	keystroke	s	n/a
22.638	0.061	45276	keystroke	h	n/a
22.803	0.0605	45606	keystroke	i	n/a
22.9685	0.0605	45937	keystroke	p	n/a
23.089	0.09	46178	keystroke	p	n/a
23.1935	0.0605	46387	keystroke	e	n/a
23.359	0.0745	46718	keystroke	d	n/a
23.4185	0.06	46837	keystroke	Key.space	n/a
23.553	0.076	47106	keystroke	c	n/a
23.599	0.045	47198	keystroke	o	n/a
23.764	0.0445	47528	keystroke	n	n/a
23.8685	0.076	47737	keystroke	n	n/a
23.9285	0.075	47857	keystroke	e	n/a
24.124	0.075	48248	keystroke	c	n/a
24.319	0.06	48638	keystroke	t	n/a
24.4385	0.06	48877	keystroke	i	n/a
24.529	0.075	49058	keystroke	v	n/a
24.634	0.075	49268	keystroke	i	n/a
24.754	0.0595	49508	keystroke	t	n/a
24.9335	0.0605	49867	keystroke	y	n/a
25.0235	0.0605	50047	keystroke	Key.space	n/a
25.2045	0.059	50409	keystroke	u	n/a
25.2785	0.0755	50557	keystroke	t	n/a
25.4285	0.0595	50857	keystroke	i	n/a
25.6385	0.0455	51277	keystroke	l	n/a
25.7735	0.0755	51547	keystroke	i	n/a
25.834	0.0595	51668	keystroke	z	n/a
26.0145	0.044	52029	keystroke	e	n/a
26.0885	0.075	52177	keystroke	Key.space	n/a
26.224	0.0745	52448	keystroke	d	n/a
26.2835	0.06	52567	keystroke	i	n/a
26.3585	0.0755	52717	keystroke	s	n/a
26.554	0.0445	53108	keystroke	t	n/a
26.688	0.0455	53376	keystroke	r	n/a
26.719	0.0745	53438	keystroke	i	n/a
26.869	0.09	53738	keystroke	b	n/a
26.944	0.0595	53888	keystroke	u	n/a
27.079	0.06	54158	keystroke	t	n/a
27.1535	0.106	54307	keystroke	i	n/a
27.214	0.075	54428	keystroke	o	n/a
27.318	0.0755	54636	keystroke	n	n/a
27.5735	0.03	55147	keystroke	Key.enter	n/a
27.61	5.2165	55220	prompt	n/a	limousines denial threats accident\n
28.2345	0.075	56469	keystroke	l	n/a
28.429	0.0455	56858	keystroke	i	n/a
28.6245	0.074	57249	keystroke	m	n/a
29.0295	0.044	58059	keystroke	o	n/a
29.2245	0.0445	58449	keystroke	u	n/a
29.359	0.075	58718	keystroke	s	n/a
29.419	0.0605	58838	keystroke	i	n/a
29.569	0.0755	59138	keystroke	n	n/a
29.629	0.075	59258	keystroke	e	n/a
29.839	0.06	59678	keystroke	s	n/a
29.914	0.06	59828	keystroke	Key.space	n/a
30.049	0.059	60098	keystroke	d	n/a
30.2135	0.0605	60427	keystroke	e	n/a
30.289	0.06	60578	keystroke	n	n/a
30.4535	0.045	60907	keystroke	i	n/a
30.5595	0.075	61119	keystroke	a	n/a
30.6485	0.061	61297	keystroke	l	n/a
30.7835	0.06	61567	keystroke	Key.space	n/a
30.8585	0.06	61717	keystroke	t	n/a
30.949	0.06	61898	keystroke	h	n/a
31.0235	0.0905	62047	keystroke	r	n/a
31.099	0.09	62198	keystroke	e	n/a
31.2035	0.091	62407	keystroke	a	n/a
31.3095	0.06	62619	keystroke	t	n/a
31.4285	0.075	62857	keystroke	s	n/a
31.5185	0.06	63037	keystroke	Key.space	n/a
31.699	0.0745	63398	keystroke	a	n/a
31.8785	0.0755	63757	keystroke	c	n/a
32.014	0.075	64028	keystroke	c	n/a
32.089	0.0755	64178	keystroke	i	n/a
32.179	0.075	64358	keystroke	d	n/a
32.3285	0.076	64657	keystroke	e	n/a
32.4485	0.0605	64897	keystroke	n	n/a
32.554	0.0745	65108	keystroke	t	n/a
32.779	0.045	65558	keystroke	Key.enter	n/a
32.8315	5.6495	65663	prompt	n/a	pavilion daughters toshiba arctic\n
33.484	0.06	66968	keystroke	p	n/a
33.529	0.075	67058	keystroke	a	n/a
33.679	0.075	67358	keystroke	v	n/a
33.739	0.045	67478	keystroke	i	n/a
33.8735	0.0755	67747	keystroke	l	n/a
34.039	0.1045	68078	keystroke	i	n/a
34.1135	0.1055	68227	keystroke	o	n/a
34.3385	0.06	68677	keystroke	n	n/a
34.459	0.075	68918	keystroke	Key.space	n/a
34.549	0.075	69098	keystroke	d	n/a
34.654	0.075	69308	keystroke	a	n/a
34.744	0.0605	69488	keystroke	u	n/a
34.819	0.06	69638	keystroke	g	n/a
34.909	0.06	69818	keystroke	h	n/a
34.984	0.075	69968	keystroke	t	n/a
35.119	0.0905	70238	keystroke	e	n/a
35.1935	0.1055	70387	keystroke	r	n/a
35.374	0.0895	70748	keystroke	s	n/a
35.449	0.0595	70898	keystroke	Key.space	n/a
35.5545	0.0745	71109	keystroke	t	n/a
35.629	0.06	71258	keystroke	o	n/a
35.779	0.0295	71558	keystroke	s	n/a
35.8235	0.06	71647	keystroke	h	n/a
35.959	0.0595	71918	keystroke	i	n/a
36.1235	0.075	72247	keystroke	b	n/a
36.184	0.0745	72368	keystroke	a	n/a
36.2735	0.075	72547	keystroke	Key.space	n/a
36.3785	0.0755	72757	keystroke	a	n/a
36.5435	0.045	73087	keystroke	r	n/a
36.754	0.075	73508	keystroke	c	n/a
36.9785	0.075	73957	keystroke	t	n/a
37.0695	0.074	74139	keystroke	i	n/a
37.789	0.0755	75578	keystroke	c	n/a
38.434	0.045	76868	keystroke	Key.enter	n/a
38.485	3.4755	76970	prompt	n/a	stops kept someone bugs\n
39.214	0.075	78428	keystroke	s	n/a
39.394	0.075	78788	keystroke	t	n/a
39.469	0.12	78938	keystroke	o	n/a
39.544	0.075	79088	keystroke	p	n/a
39.649	0.075	79298	keystroke	s	n/a
39.739	0.105	79478	keystroke	Key.space	n/a
39.949	0.0745	79898	keystroke	k	n/a
39.9935	0.105	79987	keystroke	e	n/a
40.1435	0.0605	80287	keystroke	p	n/a
40.249	0.075	80498	keystroke	t	n/a
40.354	0.075	80708	keystroke	Key.space	n/a
40.564	0.075	81128	keystroke	s	n/a
40.6245	0.029	81249	keystroke	o	n/a
40.774	0.0595	81548	keystroke	m	n/a
40.849	0.0605	81698	keystroke	e	n/a
40.9385	0.0455	81877	keystroke	o	n/a
41.0735	0.075	82147	keystroke	n	n/a
41.1185	0.0755	82237	keystroke	e	n/a
41.2085	0.09	82417	keystroke	Key.space	n/a
41.4035	0.09	82807	keystroke	b	n/a
41.479	0.0605	82958	keystroke	u	n/a
41.6285	0.06	83257	keystroke	g	n/a
41.764	0.09	83528	keystroke	s	n/a
41.899	0.06	83798	keystroke	Key.enter	n/a
41.968	5.3935	83936	prompt	n/a	keeps exclusive traveling british\n
42.559	0.06	85118	keystroke	k	n/a
42.604	0.0755	85208	keystroke	e	n/a
42.754	0.075	85508	keystroke	e	n/a
42.859	0.075	85718	keystroke	p	n/a
42.979	0.015	85958	keystroke	s	n/a
43.054	0.075	86108	keystroke	Key.space	n/a
43.144	0.06	86288	keystroke	e	n/a
43.339	0.06	86678	keystroke	x	n/a
43.549	0.03	87098	keystroke	l	n/a
43.55	0.044	87100	keystroke	c	n/a
43.954	0.0595	87908	keystroke	Key.backspace	n/a
44.1335	0.06	88267	keystroke	Key.backspace	n/a
44.2985	0.0755	88597	keystroke	c	n/a
44.404	0.0745	88808	keystroke	l	n/a
44.599	0.0295	89198	keystroke	u	n/a
44.6595	0.074	89319	keystroke	s	n/a
44.749	0.0595	89498	keystroke	i	n/a
44.8995	0.0745	89799	keystroke	v	n/a
45.0935	0.045	90187	keystroke	e	n/a
45.154	0.06	90308	keystroke	Key.space	n/a
45.244	0.0605	90488	keystroke	t	n/a
45.3795	0.1045	90759	keystroke	r	n/a
45.514	0.075	91028	keystroke	a	n/a
45.6645	0.0895	91329	keystroke	v	n/a
45.814	0.0745	91628	keystroke	e	n/a
45.9045	0.059	91809	keystroke	l	n/a
46.0685	0.06	92137	keystroke	i	n/a
46.219	0.0605	92438	keystroke	n	n/a
46.264	0.06	92528	keystroke	g	n/a
46.339	0.075	92678	keystroke	Key.space	n/a
46.459	0.06	92918	keystroke	b	n/a
46.5045	0.0895	93009	keystroke	r	n/a
46.624	0.06	93248	keystroke	i	n/a
46.714	0.09	93428	keystroke	t	n/a
46.8185	0.0455	93637	keystroke	i	n/a
46.9085	0.0755	93817	keystroke	s	n/a
46.9845	0.059	93969	keystroke	h	n/a
47.2985	0.0605	94597	keystroke	Key.enter	n/a
47.3655	5.065	94731	prompt	n/a	charges monster times morrison\n
48.004	0.06	96008	keystroke	c	n/a
48.094	0.06	96188	keystroke	h	n/a
48.1685	0.1055	96337	keystroke	a	n/a
48.334	0.0745	96668	keystroke	r	n/a
48.424	0.06	96848	keystroke	g	n/a
48.4985	0.0905	96997	keystroke	e	n/a
48.709	0.0745	97418	keystroke	s	n/a
48.814	0.0595	97628	keystroke	Key.space	n/a
49.009	0.045	98018	keystroke	m	n/a
49.159	0.06	98318	keystroke	o	n/a
49.324	0.06	98648	keystroke	n	n/a
49.339	0.075	98678	keystroke	s	n/a
49.489	0.06	98978	keystroke	t	n/a
49.594	0.105	99188	keystroke	e	n/a
49.684	0.1195	99368	keystroke	r	n/a
49.849	0.0605	99698	keystroke	s	n/a
49.9385	0.06	99877	keystroke	Key.space	n/a
50.0585	0.075	100117	keystroke	t	n/a
50.1485	0.03	100297	keystroke	i	n/a
50.3135	0.06	100627	keystroke	m	n/a
50.3285	0.091	100657	keystroke	e	n/a
50.5385	0.075	101077	keystroke	s	n/a
50.5985	0.06	101197	keystroke	Key.space	n/a
50.7485	0.0755	101497	keystroke	m	n/a
50.929	0.0605	101858	keystroke	o	n/a
51.034	0.06	102068	keystroke	r	n/a
51.169	0.075	102338	keystroke	r	n/a
51.259	0.0595	102518	keystroke	i	n/a
51.3785	0.1055	102757	keystroke	s	n/a
51.469	0.06	102938	keystroke	o	n/a
52.0985	0.045	104197	keystroke	n	n/a
52.3685	0.06	104737	keystroke	Key.enter	n/a
52.4355	6.4005	104871	prompt	n/a	originally minolta remembered southwest\n
53.0735	0.046	106147	keystroke	o	n/a
53.1495	0.059	106299	keystroke	r	n/a
53.2545	0.059	106509	keystroke	i	n/a
53.3445	0.059	106689	keystroke	g	n/a
53.4185	0.045	106837	keystroke	i	n/a
53.554	0.075	107108	keystroke	n	n/a
53.6145	0.0745	107229	keystroke	a	n/a
53.734	0.06	107468	keystroke	l	n/a
53.8545	0.1045	107709	keystroke	l	n/a
53.943	0.061	107886	keystroke	y	n/a
54.018	0.0605	108036	keystroke	Key.space	n/a
54.1395	0.059	108279	keystroke	m	n/a
54.334	0.06	108668	keystroke	o	n/a
54.7535	0.06	109507	keystroke	Key.backspace	n/a
54.979	0.0455	109958	keystroke	i	n/a
55.1435	0.06	110287	keystroke	n	n/a
55.3385	0.0455	110677	keystroke	o	n/a
55.5035	0.06	111007	keystroke	l	n/a
55.6235	0.0755	111247	keystroke	t	n/a
55.789	0.09	111578	keystroke	a	n/a
55.894	0.045	111788	keystroke	Key.space	n/a
56.119	0.06	112238	keystroke	r	n/a
56.2385	0.09	112477	keystroke	e	n/a
56.3585	0.031	112717	keystroke	m	n/a
56.4185	0.075	112837	keystroke	e	n/a
56.479	0.0595	112958	keystroke	m	n/a
56.6585	0.0455	113317	keystroke	b	n/a
56.6885	0.075	113377	keystroke	e	n/a
56.794	0.105	113588	keystroke	r	n/a
56.929	0.1195	113858	keystroke	e	n/a
57.1685	0.1055	114337	keystroke	d	n/a
57.259	0.0745	114518	keystroke	Key.space	n/a
57.3785	0.091	114757	keystroke	s	n/a
57.4535	0.0455	114907	keystroke	o	n/a
57.6035	0.075	115207	keystroke	u	n/a
57.6635	0.061	115327	keystroke	t	n/a
57.7535	0.076	115507	keystroke	h	n/a
57.859	0.09	115718	keystroke	w	n/a
57.934	0.1205	115868	keystroke	e	n/a
58.129	0.09	116258	keystroke	s	n/a
58.3545	0.0745	116709	keystroke	t	n/a
58.774	0.06	117548	keystroke	Key.enter	n/a
58.841	5.275	117682	prompt	n/a	subaru stranger outside focal\n
59.494	0.075	118988	keystroke	s	n/a
59.584	0.045	119168	keystroke	u	n/a
59.734	0.06	119468	keystroke	b	n/a
59.7795	0.0745	119559	keystroke	a	n/a
59.914	0.105	119828	keystroke	r	n/a
60.049	0.06	120098	keystroke	u	n/a
60.214	0.075	120428	keystroke	Key.space	n/a
60.3495	0.0895	120699	keystroke	s	n/a
60.544	0.06	121088	keystroke	t	n/a
60.6795	0.1045	121359	keystroke	r	n/a
60.769	0.105	121538	keystroke	a	n/a
60.875	0.0585	121750	keystroke	n	n/a
61.0385	0.045	122077	keystroke	g	n/a
61.0695	0.105	122139	keystroke	e	n/a
61.1885	0.075	122377	keystroke	r	n/a
61.2785	0.075	122557	keystroke	Key.space	n/a
61.429	0.0595	122858	keystroke	o	n/a
61.5785	0.061	123157	keystroke	u	n/a
61.6095	0.074	123219	keystroke	t	n/a
61.7885	0.06	123577	keystroke	s	n/a
61.8785	0.045	123757	keystroke	i	n/a
61.9085	0.0755	123817	keystroke	d	n/a
62.089	0.0595	124178	keystroke	e	n/a
62.1635	0.075	124327	keystroke	Key.space	n/a
62.269	0.0745	124538	keystroke	f	n/a
62.419	0.09	124838	keystroke	o	n/a
62.704	0.105	125408	keystroke	c	n/a
62.9295	0.075	125859	keystroke	a	n/a
63.019	0.06	126038	keystroke	l	n/a
64.0685	0.045	128137	keystroke	Key.enter	n/a
64.1265	4.6095	128253	prompt	n/a	only assumed prompt motors\n
65.224	0.045	130448	keystroke	o	n/a
65.299	0.09	130598	keystroke	n	n/a
65.404	0.075	130808	keystroke	l	n/a
65.509	0.06	131018	keystroke	y	n/a
65.584	0.075	131168	keystroke	Key.space	n/a
65.704	0.1045	131408	keystroke	a	n/a
65.8095	0.089	131619	keystroke	s	n/a
65.9885	0.075	131977	keystroke	s	n/a
66.0785	0.061	132157	keystroke	u	n/a
66.2735	0.0455	132547	keystroke	m	n/a
66.289	0.0895	132578	keystroke	e	n/a
66.4835	0.075	132967	keystroke	d	n/a
66.5295	0.074	133059	keystroke	Key.space	n/a
66.7095	0.06	133419	keystroke	p	n/a
66.7985	0.076	133597	keystroke	r	n/a
66.904	0.0595	133808	keystroke	o	n/a
67.0985	0.045	134197	keystroke	m	n/a
67.264	0.0605	134528	keystroke	p	n/a
67.369	0.0905	134738	keystroke	t	n/a
67.4885	0.0755	134977	keystroke	Key.space	n/a
67.7285	0.09	135457	keystroke	m	n/a
67.909	0.0605	135818	keystroke	o	n/a
67.985	0.074	135970	keystroke	t	n/a
68.074	0.06	136148	keystroke	o	n/a
68.179	0.075	136358	keystroke	r	n/a
68.344	0.0745	136688	keystroke	s	n/a
68.6735	0.0605	137347	keystroke	Key.enter	n/a
68.74	5.9355	137480	prompt	n/a	sunshine situations connector sculpture\n
69.3795	0.09	138759	keystroke	s	n/a
69.4845	0.044	138969	keystroke	u	n/a
69.6345	0.075	139269	keystroke	n	n/a
69.694	0.0755	139388	keystroke	s	n/a
69.799	0.045	139598	keystroke	h	n/a
69.904	0.06	139808	keystroke	i	n/a
70.0545	0.0895	140109	keystroke	n	n/a
70.1145	0.0745	140229	keystroke	e	n/a
70.2045	0.0745	140409	keystroke	Key.space	n/a
70.309	0.075	140618	keystroke	s	n/a
70.369	0.06	140738	keystroke	i	n/a
70.489	0.0605	140978	keystroke	t	n/a
70.564	0.06	141128	keystroke	u	n/a
70.6395	0.0595	141279	keystroke	a	n/a
70.759	0.075	141518	keystroke	t	n/a
70.819	0.105	141638	keystroke	i	n/a
70.879	0.09	141758	keystroke	o	n/a
71.074	0.06	142148	keystroke	n	n/a
71.119	0.06	142238	keystroke	s	n/a
71.209	0.06	142418	keystroke	Key.space	n/a
71.299	0.0605	142598	keystroke	c	n/a
71.3745	0.06	142749	keystroke	o	n/a
71.539	0.0455	143078	keystroke	n	n/a
71.6445	0.075	143289	keystroke	n	n/a
71.7045	0.045	143409	keystroke	e	n/a
71.8995	0.0595	143799	keystroke	c	n/a
72.0945	0.045	144189	keystroke	t	n/a
72.1685	0.061	144337	keystroke	o	n/a
72.2745	0.0445	144549	keystroke	r	n/a
72.334	0.0745	144668	keystroke	Key.space	n/a
72.4385	0.076	144877	keystroke	s	n/a
72.6345	0.045	145269	keystroke	c	n/a
72.7235	0.061	145447	keystroke	u	n/a
72.9185	0.061	145837	keystroke	l	n/a
73.0695	0.0445	146139	keystroke	t	n/a
73.444	0.06	146888	keystroke	Key.backspace	n/a
73.6535	0.061	147307	keystroke	p	n/a
73.8035	0.0905	147607	keystroke	t	n/a
73.984	0.0445	147968	keystroke	u	n/a
74.0895	0.089	148179	keystroke	r	n/a
74.1945	0.089	148389	keystroke	e	n/a
74.6285	0.045	149257	keystroke	Key.enter	n/a
74.6795	6.6115	149359	prompt	n/a	bibliographic average malawi governance\n
75.3645	0.059	150729	keystroke	b	n/a
75.4685	0.045	150937	keystroke	i	n/a
76.039	0.045	152078	keystroke	b	n/a
76.234	0.045	152468	keystroke	l	n/a
76.399	0.12	152798	keystroke	i	n/a
76.459	0.09	152918	keystroke	o	n/a
76.7145	0.075	153429	keystroke	g	n/a
76.774	0.0755	153548	keystroke	r	n/a
76.8785	0.091	153757	keystroke	a	n/a
76.9395	0.0745	153879	keystroke	p	n/a
77.119	0.0605	154238	keystroke	h	n/a
77.2395	0.0595	154479	keystroke	i	n/a
77.284	0.0605	154568	keystroke	c	n/a
77.4035	0.075	154807	keystroke	Key.space	n/a
77.4935	0.0605	154987	keystroke	a	n/a
77.629	0.075	155258	keystroke	v	n/a
77.779	0.075	155558	keystroke	e	n/a
77.884	0.09	155768	keystroke	r	n/a
78.019	0.0895	156038	keystroke	a	n/a
78.1685	0.06	156337	keystroke	g	n/a
78.2745	0.059	156549	keystroke	e	n/a
78.3635	0.075	156727	keystroke	Key.space	n/a
78.5285	0.075	157057	keystroke	m	n/a
78.7085	0.061	157417	keystroke	a	n/a
78.7995	0.059	157599	keystroke	l	n/a
78.8885	0.0755	157777	keystroke	a	n/a
79.4145	0.09	158829	keystroke	w	n/a
79.4895	0.075	158979	keystroke	i	n/a
79.6695	0.0735	159339	keystroke	Key.space	n/a
79.8345	0.074	159669	keystroke	g	n/a
79.9245	0.029	159849	keystroke	o	n/a
80.0135	0.0755	160027	keystroke	v	n/a
80.1635	0.091	160327	keystroke	e	n/a
80.2685	0.076	160537	keystroke	r	n/a
80.3585	0.0455	160717	keystroke	n	n/a
80.4335	0.105	160867	keystroke	a	n/a
80.5245	0.044	161049	keystroke	n	n/a
80.659	0.06	161318	keystroke	c	n/a
80.8535	0.061	161707	keystroke	e	n/a
81.2435	0.045	162487	keystroke	Key.enter	n/a
81.2965	3.879	162593	prompt	n/a	judicial signs do reproduction\n
82.0395	0.0445	164079	keystroke	j	n/a
82.189	0.0455	164378	keystroke	u	n/a
82.2345	0.075	164469	keystroke	d	n/a
82.3385	0.061	164677	keystroke	i	n/a
82.4285	0.075	164857	keystroke	c	n/a
82.4885	0.06	164977	keystroke	i	n/a
82.594	0.0745	165188	keystroke	a	n/a
82.6695	0.0745	165339	keystroke	l	n/a
82.7885	0.0755	165577	keystroke	Key.space	n/a
82.879	0.0595	165758	keystroke	s	n/a
82.9535	0.06	165907	keystroke	i	n/a
83.0585	0.091	166117	keystroke	g	n/a
83.1335	0.076	166267	keystroke	n	n/a
83.239	0.0445	166478	keystroke	s	n/a
83.2985	0.06	166597	keystroke	Key.space	n/a
83.4185	0.076	166837	keystroke	d	n/a
83.4795	0.0595	166959	keystroke	o	n/a
83.599	0.06	167198	keystroke	Key.space	n/a
83.659	0.06	167318	keystroke	r	n/a
83.734	0.105	167468	keystroke	e	n/a
83.839	0.075	167678	keystroke	p	n/a
83.943	0.061	167886	keystroke	r	n/a
84.034	0.0755	168068	keystroke	o	n/a
84.229	0.06	168458	keystroke	d	n/a
84.319	0.0605	168638	keystroke	u	n/a
84.439	0.075	168878	keystroke	c	n/a
84.679	0.0455	169358	keystroke	t	n/a
84.709	0.105	169418	keystroke	i	n/a
84.769	0.09	169538	keystroke	o	n/a
84.9035	0.06	169807	keystroke	n	n/a
85.1135	0.0605	170227	keystroke	Key.enter	n/a
85.181	5.2145	170362	prompt	n/a	chile borders actually yugoslavia\n
85.804	0.075	171608	keystroke	c	n/a
85.894	0.045	171788	keystroke	h	n/a
85.999	0.06	171998	keystroke	i	n/a
86.1785	0.0755	172357	keystroke	l	n/a
86.2685	0.045	172537	keystroke	e	n/a
86.3285	0.0755	172657	keystroke	Key.space	n/a
86.5085	0.0605	173017	keystroke	b	n/a
86.539	0.0605	173078	keystroke	o	n/a
86.7195	0.0595	173439	keystroke	r	n/a
86.8995	0.09	173799	keystroke	d	n/a
87.0345	0.0745	174069	keystroke	e	n/a
87.124	0.105	174248	keystroke	r	n/a
87.259	0.1055	174518	keystroke	s	n/a
87.379	0.075	174758	keystroke	Key.space	n/a
87.4695	0.0745	174939	keystroke	a	n/a
87.649	0.06	175298	keystroke	c	n/a
87.859	0.0605	175718	keystroke	t	n/a
87.934	0.045	175868	keystroke	u	n/a
87.9945	0.0745	175989	keystroke	a	n/a
88.129	0.045	176258	keystroke	l	n/a
88.2335	0.1055	176467	keystroke	l	n/a
88.324	0.09	176648	keystroke	y	n/a
88.459	0.075	176918	keystroke	Key.space	n/a
89.0595	0.0595	178119	keystroke	y	n/a
89.1495	0.0595	178299	keystroke	u	n/a
89.299	0.06	178598	keystroke	g	n/a
89.404	0.0605	178808	keystroke	o	n/a
89.6445	0.0745	179289	keystroke	s	n/a
89.7335	0.06	179467	keystroke	l	n/a
89.809	0.075	179618	keystroke	a	n/a
89.9735	0.0755	179947	keystroke	v	n/a
90.064	0.06	180128	keystroke	i	n/a
90.1545	0.075	180309	keystroke	a	n/a
90.319	0.0745	180638	keystroke	Key.enter	n/a
90.3995	5.606	180799	prompt	n/a	treatment arrived nottingham hoping\n
91.114	0.06	182228	keystroke	t	n/a
91.1895	0.1195	182379	keystroke	r	n/a
91.2635	0.1355	182527	keystroke	e	n/a
91.414	0.09	182828	keystroke	a	n/a
91.5785	0.076	183157	keystroke	t	n/a
91.684	0.0605	183368	keystroke	m	n/a
91.774	0.0905	183548	keystroke	e	n/a
91.879	0.0605	183758	keystroke	n	n/a
91.969	0.075	183938	keystroke	t	n/a
92.059	0.0745	184118	keystroke	Key.space	n/a
92.1495	0.06	184299	keystroke	a	n/a
92.2535	0.076	184507	keystroke	r	n/a
92.389	0.0755	184778	keystroke	r	n/a
92.509	0.075	185018	keystroke	i	n/a
92.614	0.075	185228	keystroke	v	n/a
92.809	0.06	185618	keystroke	e	n/a
92.899	0.09	185798	keystroke	Key.space	n/a
93.514	0.045	187028	keystroke	Key.backspace	n/a
93.6785	0.075	187357	keystroke	d	n/a
93.8295	0.0595	187659	keystroke	Key.space	n/a
93.9935	0.0605	187987	keystroke	n	n/a
94.1435	0.0605	188287	keystroke	o	n/a
94.2185	0.076	188437	keystroke	t	n/a
94.3535	0.075	188707	keystroke	t	n/a
94.4135	0.045	188827	keystroke	i	n/a
94.5645	0.0595	189129	keystroke	n	n/a
94.6535	0.0155	189307	keystroke	g	n/a
94.714	0.0595	189428	keystroke	h	n/a
94.804	0.0745	189608	keystroke	a	n/a
94.909	0.075	189818	keystroke	m	n/a
95.0135	0.0905	190027	keystroke	Key.space	n/a
95.194	0.0755	190388	keystroke	h	n/a
95.239	0.105	190478	keystroke	o	n/a
95.314	0.09	190628	keystroke	p	n/a
95.509	0.06	191018	keystroke	i	n/a
95.674	0.06	191348	keystroke	n	n/a
95.764	0.075	191528	keystroke	g	n/a
95.959	0.045	191918	keystroke	Key.enter	n/a
96.01	4.1355	192020	prompt	n/a	thick rating productions wheat\n
96.664	0.075	193328	keystroke	t	n/a
96.7245	0.0745	193449	keystroke	h	n/a
96.874	0.0605	193748	keystroke	i	n/a
96.9935	0.0755	193987	keystroke	c	n/a
97.0845	0.045	194169	keystroke	k	n/a
97.204	0.09	194408	keystroke	Key.space	n/a
97.3095	0.06	194619	keystroke	r	n/a
97.399	0.09	194798	keystroke	a	n/a
97.594	0.075	195188	keystroke	t	n/a
97.774	0.045	195548	keystroke	i	n/a
97.954	0.0755	195908	keystroke	n	n/a
98.014	0.03	196028	keystroke	g	n/a
98.059	0.075	196118	keystroke	Key.space	n/a
98.194	0.06	196388	keystroke	p	n/a
98.269	0.075	196538	keystroke	r	n/a
98.359	0.06	196718	keystroke	o	n/a
98.464	0.0745	196928	keystroke	d	n/a
98.554	0.0595	197108	keystroke	u	n/a
98.659	0.0755	197318	keystroke	c	n/a
98.8685	0.0755	197737	keystroke	t	n/a
98.9135	0.075	197827	keystroke	i	n/a
98.974	0.06	197948	keystroke	o	n/a
99.139	0.0755	198278	keystroke	n	n/a
99.1535	0.061	198307	keystroke	s	n/a
99.304	0.06	198608	keystroke	Key.space	n/a
99.4235	0.075	198847	keystroke	w	n/a
99.5135	0.0605	199027	keystroke	h	n/a
99.589	0.0745	199178	keystroke	e	n/a
99.7535	0.06	199507	keystroke	a	n/a
99.8885	0.075	199777	keystroke	t	n/a
100.0835	0.0605	200167	keystroke	Key.enter	n/a
100.151	4.2845	200302	prompt	n/a	negative annotated touring drill\n
100.7135	0.06	201427	keystroke	n	n/a
100.7445	0.09	201489	keystroke	e	n/a
100.9235	0.106	201847	keystroke	g	n/a
101.0585	0.0755	202117	keystroke	a	n/a
101.209	0.045	202418	keystroke	t	n/a
101.284	0.06	202568	keystroke	i	n/a
101.419	0.06	202838	keystroke	v	n/a
101.554	0.075	203108	keystroke	e	n/a
101.644	0.06	203288	keystroke	Key.space	n/a
101.719	0.06	203438	keystroke	a	n/a
101.794	0.045	203588	keystroke	n	n/a
101.899	0.06	203798	keystroke	n	n/a
102.049	0.06	204098	keystroke	o	n/a
102.0785	0.061	204157	keystroke	t	n/a
102.259	0.03	204518	keystroke	a	n/a
102.3195	0.089	204639	keystroke	t	n/a
102.469	0.1195	204938	keystroke	e	n/a
102.664	0.09	205328	keystroke	d	n/a
102.7385	0.075	205477	keystroke	Key.space	n/a
102.8735	0.0755	205747	keystroke	t	n/a
102.934	0.06	205868	keystroke	o	n/a
103.0845	0.06	206169	keystroke	u	n/a
103.129	0.0745	206258	keystroke	r	n/a
103.2485	0.045	206497	keystroke	i	n/a
103.4145	0.059	206829	keystroke	n	n/a
103.4285	0.075	206857	keystroke	g	n/a
103.5335	0.09	207067	keystroke	Key.space	n/a
103.6685	0.061	207337	keystroke	d	n/a
103.849	0.06	207698	keystroke	r	n/a
103.894	0.045	207788	keystroke	i	n/a
104.059	0.045	208118	keystroke	l	n/a
104.194	0.045	208388	keystroke	l	n/a
104.374	0.06	208748	keystroke	Key.enter	n/a
104.4395	5.801	208879	prompt	n/a	requested nebraska columbus booth\n
105.004	0.09	210008	keystroke	r	n/a
105.109	0.1055	210218	keystroke	e	n/a
105.304	0.075	210608	keystroke	q	n/a
105.379	0.06	210758	keystroke	u	n/a
105.454	0.09	210908	keystroke	e	n/a
105.649	0.0745	211298	keystroke	s	n/a
105.7085	0.075	211417	keystroke	t	n/a
105.844	0.075	211688	keystroke	e	n/a
106.024	0.06	212048	keystroke	d	n/a
106.054	0.075	212108	keystroke	Key.space	n/a
106.189	0.06	212378	keystroke	n	n/a
106.219	0.09	212438	keystroke	e	n/a
106.354	0.075	212708	keystroke	b	n/a
106.444	0.06	212888	keystroke	r	n/a
106.5645	0.1045	213129	keystroke	a	n/a
106.6995	0.1035	213399	keystroke	s	n/a
106.819	0.075	213638	keystroke	k	n/a
106.954	0.06	213908	keystroke	s	n/a
107.389	0.06	214778	keystroke	Key.backspace	n/a
107.554	0.059	215108	keystroke	a	n/a
107.794	0.0595	215588	keystroke	Key.space	n/a
108.004	0.0745	216008	keystroke	c	n/a
108.0485	0.0605	216097	keystroke	o	n/a
108.1985	0.06	216397	keystroke	l	n/a
108.379	0.0445	216758	keystroke	u	n/a
108.5285	0.09	217057	keystroke	m	n/a
108.649	0.0745	217298	keystroke	b	n/a
108.7535	0.06	217507	keystroke	u	n/a
108.874	0.075	217748	keystroke	s	n/a
109.234	0.06	218468	keystroke	Key.space	n/a
109.4735	0.075	218947	keystroke	b	n/a
109.5635	0.046	219127	keystroke	o	n/a
109.6835	0.045	219367	keystroke	o	n/a
109.7745	0.074	219549	keystroke	t	n/a
109.879	0.0595	219758	keystroke	h	n/a
110.1785	0.0605	220357	keystroke	Key.enter	n/a
110.245	5.2005	220490	prompt	n/a	gratuit diana merchants mounts\n
111.0635	0.045	222127	keystroke	g	n/a
111.124	0.0745	222248	keystroke	r	n/a
111.2435	0.075	222487	keystroke	a	n/a
111.3785	0.0905	222757	keystroke	t	n/a
111.454	0.1045	222908	keystroke	u	n/a
111.5135	0.09	223027	keystroke	i	n/a
111.6635	0.0605	223327	keystroke	t	n/a
111.784	0.075	223568	keystroke	Key.space	n/a
111.934	0.06	223868	keystroke	d	n/a
111.994	0.0605	223988	keystroke	i	n/a
112.084	0.075	224168	keystroke	a	n/a
112.174	0.0605	224348	keystroke	n	n/a
112.264	0.075	224528	keystroke	a	n/a
112.354	0.06	224708	keystroke	Key.space	n/a
112.579	0.06	225158	keystroke	m	n/a
112.654	0.075	225308	keystroke	e	n/a
112.849	0.06	225698	keystroke	r	n/a
113.074	0.0445	226148	keystroke	c	n/a
113.1335	0.075	226267	keystroke	h	n/a
113.2535	0.0905	226507	keystroke	a	n/a
113.3595	0.0745	226719	keystroke	n	n/a
113.554	0.075	227108	keystroke	t	n/a
113.734	0.06	227468	keystroke	s	n/a
113.824	0.0745	227648	keystroke	Key.space	n/a
114.0185	0.075	228037	keystroke	m	n/a
114.3185	0.06	228637	keystroke	o	n/a
114.499	0.0595	228998	keystroke	u	n/a
114.6635	0.0605	229327	keystroke	n	n/a
114.6935	0.0755	229387	keystroke	t	n/a
114.9945	0.0895	229989	keystroke	s	n/a
115.3835	0.06	230767	keystroke	Key.enter	n/a
115.4485	5.832	230897	prompt	n/a	characteristic forget newark linear\n
116.1195	0.059	232239	keystroke	c	n/a
116.1935	0.0605	232387	keystroke	h	n/a
116.299	0.074	232598	keystroke	a	n/a
116.419	0.075	232838	keystroke	r	n/a
116.524	0.075	233048	keystroke	a	n/a
116.704	0.06	233408	keystroke	c	n/a
116.9145	0.0445	233829	keystroke	t	n/a
117.004	0.09	234008	keystroke	e	n/a
117.078	0.1055	234156	keystroke	r	n/a
117.244	0.06	234488	keystroke	i	n/a
117.349	0.045	234698	keystroke	s	n/a
117.7545	0.075	235509	keystroke	t	n/a
117.859	0.06	235718	keystroke	i	n/a
118.024	0.06	236048	keystroke	c	n/a
118.1135	0.0755	236227	keystroke	Key.space	n/a
118.4595	0.074	236919	keystroke	f	n/a
118.5485	0.06	237097	keystroke	o	n/a
118.6535	0.0755	237307	keystroke	r	n/a
118.774	0.06	237548	keystroke	g	n/a
118.8185	0.09	237637	keystroke	e	n/a
118.9985	0.06	237997	keystroke	t	n/a
119.0435	0.06	238087	keystroke	Key.space	n/a
119.1785	0.0755	238357	keystroke	n	n/a
119.2235	0.075	238447	keystroke	e	n/a
119.3585	0.09	238717	keystroke	w	n/a
119.494	0.09	238988	keystroke	a	n/a
119.7335	0.0605	239467	keystroke	r	n/a
119.809	0.06	239618	keystroke	k	n/a
119.929	0.075	239858	keystroke	Key.space	n/a
120.154	0.0445	240308	keystroke	l	n/a
120.408	0.031	240816	keystroke	i	n/a
120.574	0.045	241148	keystroke	n	n/a
120.589	0.09	241178	keystroke	e	n/a
120.694	0.105	241388	keystroke	a	n/a
120.814	0.09	241628	keystroke	r	n/a
121.203	0.0755	242406	keystroke	Key.enter	n/a
121.284	8.5015	242568	prompt	n/a	specified mime texture transformation\n
121.8935	0.0755	243787	keystroke	s	n/a
121.999	0.0605	243998	keystroke	p	n/a
122.2235	0.0605	244447	keystroke	e	n/a
122.4485	0.0455	244897	keystroke	c	n/a
122.524	0.075	245048	keystroke	i	n/a
122.6285	0.061	245257	keystroke	f	n/a
122.7185	0.0755	245437	keystroke	i	n/a
122.8385	0.0905	245677	keystroke	e	n/a
123.049	0.0595	246098	keystroke	d	n/a
123.1235	0.045	246247	keystroke	Key.space	n/a
123.2735	0.075	246547	keystroke	m	n/a
123.4685	0.045	246937	keystroke	i	n/a
123.6495	0.0745	247299	keystroke	m	n/a
123.7095	0.0895	247419	keystroke	e	n/a
123.8135	0.06	247627	keystroke	Key.space	n/a
123.9185	0.09	247837	keystroke	t	n/a
124.084	0.045	248168	keystroke	e	n/a
124.2785	0.0305	248557	keystroke	x	n/a
124.354	0.0145	248708	keystroke	x	n/a
124.549	0.09	249098	keystroke	t	n/a
124.699	0.075	249398	keystroke	u	n/a
125.059	0.045	250118	keystroke	Key.backspace	n/a
125.239	0.045	250478	keystroke	Key.backspace	n/a
125.389	0.045	250778	keystroke	Key.backspace	n/a
125.614	0.0595	251228	keystroke	t	n/a
125.704	0.0595	251408	keystroke	u	n/a
125.794	0.105	251588	keystroke	r	n/a
125.8845	0.1045	251769	keystroke	e	n/a
126.1235	0.09	252247	keystroke	Key.space	n/a
126.4095	0.059	252819	keystroke	t	n/a
126.6485	0.015	253297	keystroke	r	n/a
126.6785	0.135	253357	keystroke	a	n/a
126.7985	0.06	253597	keystroke	n	n/a
126.8735	0.1055	253747	keystroke	s	n/a
127.0385	0.06	254077	keystroke	o	n/a
127.0995	0.0745	254199	keystroke	f	n/a
127.414	0.09	254828	keystroke	r	n/a
127.834	0.059	255668	keystroke	Key.backspace	n/a
127.984	0.06	255968	keystroke	Key.backspace	n/a
128.1335	0.045	256267	keystroke	Key.backspace	n/a
128.2835	0.0755	256567	keystroke	f	n/a
128.404	0.0595	256808	keystroke	o	n/a
128.494	0.075	256988	keystroke	r	n/a
128.599	0.075	257198	keystroke	m	n/a
128.659	0.105	257318	keystroke	a	n/a
128.823	0.076	257646	keystroke	t	n/a
128.854	0.09	257708	keystroke	i	n/a
128.914	0.09	257828	keystroke	o	n/a
129.1085	0.0605	258217	keystroke	n	n/a
129.739	0.045	259478	keystroke	Key.enter	n/a
129.7905	5.23	259581	prompt	n/a	closure delivers started shadow\n
130.369	0.06	260738	keystroke	c	n/a
130.444	0.045	260888	keystroke	l	n/a
130.5945	0.0445	261189	keystroke	o	n/a
130.654	0.09	261308	keystroke	s	n/a
130.789	0.06	261578	keystroke	u	n/a
130.849	0.075	261698	keystroke	r	n/a
130.999	0.091	261998	keystroke	e	n/a
131.4185	0.06	262837	keystroke	Key.space	n/a
131.718	0.0905	263436	keystroke	d	n/a
131.8695	0.0745	263739	keystroke	e	n/a
132.169	0.06	264338	keystroke	l	n/a
132.379	0.045	264758	keystroke	i	n/a
132.454	0.06	264908	keystroke	v	n/a
132.649	0.09	265298	keystroke	e	n/a
132.754	0.105	265508	keystroke	r	n/a
132.919	0.075	265838	keystroke	s	n/a
133.039	0.06	266078	keystroke	Key.space	n/a
133.1585	0.076	266317	keystroke	s	n/a
133.3835	0.0155	266767	keystroke	t	n/a
133.4285	0.1205	266857	keystroke	a	n/a
133.5335	0.105	267067	keystroke	r	n/a
133.7285	0.0605	267457	keystroke	t	n/a
133.849	0.0895	267698	keystroke	e	n/a
134.044	0.045	268088	keystroke	d	n/a
134.104	0.06	268208	keystroke	Key.space	n/a
134.209	0.075	268418	keystroke	s	n/a
134.2995	0.0445	268599	keystroke	h	n/a
134.359	0.105	268718	keystroke	a	n/a
134.509	0.075	269018	keystroke	d	n/a
134.614	0.0605	269228	keystroke	o	n/a
134.704	0.075	269408	keystroke	w	n/a
134.959	0.06	269918	keystroke	Key.enter	n/a
135.025	3.7155	270050	prompt	n/a	kills died speaker belts\n
135.5585	0.0605	271117	keystroke	k	n/a
135.724	0.0455	271448	keystroke	i	n/a
135.904	0.0445	271808	keystroke	l	n/a
136.0235	0.075	272047	keystroke	l	n/a
136.114	0.0745	272228	keystroke	s	n/a
136.2035	0.0755	272407	keystroke	Key.space	n/a
136.489	0.0745	272978	keystroke	d	n/a
136.5785	0.06	273157	keystroke	i	n/a
136.699	0.0745	273398	keystroke	e	n/a
136.9085	0.06	273817	keystroke	d	n/a
137.0435	0.0755	274087	keystroke	Key.space	n/a
137.269	0.075	274538	keystroke	s	n/a
137.359	0.06	274718	keystroke	p	n/a
137.464	0.0905	274928	keystroke	e	n/a
137.599	0.0895	275198	keystroke	a	n/a
137.6745	0.074	275349	keystroke	k	n/a
137.7635	0.1055	275527	keystroke	e	n/a
137.8835	0.09	275767	keystroke	r	n/a
137.9585	0.075	275917	keystroke	Key.space	n/a
138.0785	0.0605	276157	keystroke	b	n/a
138.1085	0.0905	276217	keystroke	e	n/a
138.304	0.045	276608	keystroke	l	n/a
138.364	0.06	276728	keystroke	t	n/a
138.514	0.075	277028	keystroke	s	n/a
138.679	0.06	277358	keystroke	Key.enter	n/a
138.744	4.6615	277488	prompt	n/a	sells dumb foreign subjects\n
139.3995	0.0145	278799	keystroke	s	n/a
139.4895	0.0745	278979	keystroke	e	n/a
139.594	0.045	279188	keystroke	l	n/a
139.699	0.09	279398	keystroke	l	n/a
139.8195	0.1045	279639	keystroke	s	n/a
139.984	0.075	279968	keystroke	Key.space	n/a
140.194	0.06	280388	keystroke	d	n/a
140.2695	0.0595	280539	keystroke	u	n/a
140.4485	0.075	280897	keystroke	m	n/a
140.539	0.06	281078	keystroke	b	n/a
140.629	0.09	281258	keystroke	Key.space	n/a
140.809	0.0755	281618	keystroke	f	n/a
140.899	0.0595	281798	keystroke	o	n/a
140.9735	0.075	281947	keystroke	r	n/a
141.0785	0.0905	282157	keystroke	e	n/a
141.1835	0.06	282367	keystroke	i	n/a
141.3035	0.0605	282607	keystroke	g	n/a
141.3785	0.06	282757	keystroke	n	n/a
141.499	0.0745	282998	keystroke	Key.space	n/a
141.559	0.0895	283118	keystroke	s	n/a
141.6945	0.0445	283389	keystroke	u	n/a
141.874	0.0605	283748	keystroke	j	n/a
142.324	0.06	284648	keystroke	Key.backspace	n/a
142.504	0.075	285008	keystroke	b	n/a
142.594	0.075	285188	keystroke	j	n/a
142.714	0.075	285428	keystroke	e	n/a
142.924	0.06	285848	keystroke	c	n/a
142.969	0.0595	285938	keystroke	t	n/a
143.0885	0.1055	286177	keystroke	s	n/a
143.344	0.0595	286688	keystroke	Key.enter	n/a
143.4085	3.822	286817	prompt	n/a	pros risks divx virtual\n
144.064	0.0605	288128	keystroke	p	n/a
144.1385	0.061	288277	keystroke	r	n/a
144.244	0.075	288488	keystroke	o	n/a
144.334	0.09	288668	keystroke	s	n/a
144.469	0.06	288938	keystroke	Key.space	n/a
144.649	0.06	289298	keystroke	r	n/a
144.754	0.045	289508	keystroke	i	n/a
144.814	0.075	289628	keystroke	s	n/a
144.934	0.075	289868	keystroke	k	n/a
144.994	0.06	289988	keystroke	s	n/a
145.099	0.075	290198	keystroke	Key.space	n/a
145.219	0.0155	290438	keystroke	d	n/a
145.294	0.06	290588	keystroke	i	n/a
145.504	0.045	291008	keystroke	v	n/a
145.789	0.09	291578	keystroke	x	n/a
146.149	0.06	292298	keystroke	Key.space	n/a
146.284	0.06	292568	keystroke	v	n/a
146.374	0.06	292748	keystroke	i	n/a
146.479	0.09	292958	keystroke	r	n/a
146.629	0.0755	293258	keystroke	t	n/a
146.719	0.045	293438	keystroke	u	n/a
146.809	0.0595	293618	keystroke	a	n/a
146.9135	0.075	293827	keystroke	l	n/a
147.169	0.0595	294338	keystroke	Key.enter	n/a
147.234	5.142	294468	prompt	n/a	michael assists fotos judges\n
147.9045	0.0445	295809	keystroke	m	n/a
148.0685	0.045	296137	keystroke	i	n/a
148.0995	0.0895	296199	keystroke	c	n/a
148.249	0.0595	296498	keystroke	h	n/a
148.2945	0.0895	296589	keystroke	a	n/a
148.4435	0.09	296887	keystroke	e	n/a
148.5485	0.06	297097	keystroke	l	n/a
148.7735	0.06	297547	keystroke	Key.space	n/a
149.134	0.1195	298268	keystroke	a	n/a
149.3735	0.0605	298747	keystroke	s	n/a
149.5245	0.0745	299049	keystroke	s	n/a
149.584	0.06	299168	keystroke	i	n/a
149.7035	0.06	299407	keystroke	s	n/a
149.869	0.0755	299738	keystroke	t	n/a
150.1245	0.09	300249	keystroke	s	n/a
150.619	0.09	301238	keystroke	Key.space	n/a
150.7835	0.0755	301567	keystroke	f	n/a
150.8595	0.0745	301719	keystroke	o	n/a
151.0235	0.045	302047	keystroke	t	n/a
151.084	0.06	302168	keystroke	o	n/a
151.204	0.075	302408	keystroke	s	n/a
151.294	0.0595	302588	keystroke	Key.space	n/a
151.4435	0.06	302887	keystroke	j	n/a
151.594	0.06	303188	keystroke	u	n/a
151.639	0.06	303278	keystroke	d	n/a
151.789	0.06	303578	keystroke	g	n/a
151.834	0.075	303668	keystroke	e	n/a
152.0595	0.044	304119	keystroke	s	n/a
152.314	0.0595	304628	keystroke	Key.enter	n/a
152.38	4.481	304760	prompt	n/a	concerning currency normal nick\n
153.0345	0.0745	306069	keystroke	c	n/a
153.0945	0.0595	306189	keystroke	o	n/a
153.274	0.045	306548	keystroke	n	n/a
153.349	0.06	306698	keystroke	c	n/a
153.529	0.075	307058	keystroke	e	n/a
153.649	0.0905	307298	keystroke	r	n/a
153.724	0.06	307448	keystroke	n	n/a
153.874	0.045	307748	keystroke	i	n/a
154.024	0.075	308048	keystroke	n	n/a
154.084	0.06	308168	keystroke	g	n/a
154.159	0.075	308318	keystroke	Key.space	n/a
154.324	0.0455	308648	keystroke	c	n/a
154.414	0.045	308828	keystroke	u	n/a
154.519	0.06	309038	keystroke	r	n/a
154.654	0.09	309308	keystroke	r	n/a
154.789	0.0905	309578	keystroke	e	n/a
154.894	0.06	309788	keystroke	n	n/a
155.089	0.06	310178	keystroke	c	n/a
155.149	0.045	310298	keystroke	y	n/a
155.254	0.075	310508	keystroke	Key.space	n/a
155.404	0.06	310808	keystroke	n	n/a
155.539	0.06	311078	keystroke	o	n/a
155.644	0.075	311288	keystroke	r	n/a
155.734	0.0745	311468	keystroke	m	n/a
155.8235	0.106	311647	keystroke	a	n/a
155.914	0.06	311828	keystroke	l	n/a
156.0785	0.0755	312157	keystroke	Key.space	n/a
156.229	0.06	312458	keystroke	n	n/a
156.379	0.0605	312758	keystroke	i	n/a
156.4695	0.06	312939	keystroke	c	n/a
156.5595	0.075	313119	keystroke	k	n/a
156.814	0.0455	313628	keystroke	Key.enter	n/a
156.866	4.6745	313732	prompt	n/a	leads stats server dense\n
157.4295	0.06	314859	keystroke	l	n/a
157.474	0.0905	314948	keystroke	e	n/a
157.6385	0.106	315277	keystroke	a	n/a
157.7595	0.09	315519	keystroke	d	n/a
157.8035	0.1205	315607	keystroke	s	n/a
157.954	0.0745	315908	keystroke	Key.space	n/a
158.0435	0.091	316087	keystroke	s	n/a
158.1495	0.06	316299	keystroke	t	n/a
158.224	0.075	316448	keystroke	s	n/a
158.314	0.075	316628	keystroke	t	n/a
158.899	0.045	317798	keystroke	Key.backspace	n/a
159.034	0.06	318068	keystroke	Key.backspace	n/a
159.0795	0.0745	318159	keystroke	a	n/a
159.334	0.03	318668	keystroke	t	n/a
159.499	0.06	318998	keystroke	s	n/a
159.694	0.06	319388	keystroke	Key.space	n/a
159.9185	0.0605	319837	keystroke	s	n/a
160.099	0.1055	320198	keystroke	e	n/a
160.2045	0.0895	320409	keystroke	r	n/a
160.324	0.0605	320648	keystroke	v	n/a
160.429	0.105	320858	keystroke	e	n/a
160.549	0.0905	321098	keystroke	r	n/a
160.714	0.075	321428	keystroke	Key.space	n/a
160.879	0.0605	321758	keystroke	d	n/a
161.044	0.0605	322088	keystroke	e	n/a
161.089	0.0605	322178	keystroke	n	n/a
161.209	0.0905	322418	keystroke	s	n/a
161.329	0.075	322658	keystroke	e	n/a
161.479	0.06	322958	keystroke	Key.enter	n/a
161.5485	3.9675	323097	prompt	n/a	hollow grade thru hearings\n
162.229	0.0745	324458	keystroke	h	n/a
162.3335	0.06	324667	keystroke	o	n/a
162.5145	0.044	325029	keystroke	l	n/a
162.619	0.0895	325238	keystroke	l	n/a
162.7985	0.06	325597	keystroke	o	n/a
162.8885	0.0755	325777	keystroke	w	n/a
163.0085	0.076	326017	keystroke	Key.space	n/a
163.279	0.03	326558	keystroke	g	n/a
163.3395	0.074	326679	keystroke	r	n/a
163.474	0.1045	326948	keystroke	a	n/a
163.6395	0.1045	327279	keystroke	d	n/a
163.804	0.075	327608	keystroke	e	n/a
163.894	0.06	327788	keystroke	Key.space	n/a
163.999	0.075	327998	keystroke	t	n/a
164.059	0.06	328118	keystroke	h	n/a
164.209	0.06	328418	keystroke	r	n/a
164.254	0.06	328508	keystroke	u	n/a
164.404	0.0605	328808	keystroke	Key.space	n/a
164.5235	0.075	329047	keystroke	h	n/a
164.5835	0.09	329167	keystroke	e	n/a
164.734	0.0895	329468	keystroke	a	n/a
164.8085	0.105	329617	keystroke	r	n/a
164.944	0.0445	329888	keystroke	i	n/a
165.0935	0.0755	330187	keystroke	n	n/a
165.1535	0.0605	330307	keystroke	g	n/a
165.304	0.06	330608	keystroke	s	n/a
165.454	0.06	330908	keystroke	Key.enter	n/a
165.52	4.2705	331040	prompt	n/a	yarn consolidation mounted dies\n
166.234	0.03	332468	keystroke	y	n/a
166.279	0.075	332558	keystroke	a	n/a
166.414	0.075	332828	keystroke	r	n/a
166.504	0.0605	333008	keystroke	n	n/a
166.624	0.06	333248	keystroke	Key.space	n/a
166.745	0.074	333490	keystroke	c	n/a
166.819	0.045	333638	keystroke	o	n/a
166.954	0.06	333908	keystroke	n	n/a
167.014	0.09	334028	keystroke	s	n/a
167.149	0.045	334298	keystroke	o	n/a
167.284	0.075	334568	keystroke	l	n/a
167.4345	0.0595	334869	keystroke	i	n/a
167.4795	0.0595	334959	keystroke	d	n/a
167.584	0.105	335168	keystroke	a	n/a
167.7795	0.0745	335559	keystroke	t	n/a
167.809	0.09	335618	keystroke	i	n/a
167.8695	0.0745	335739	keystroke	o	n/a
168.0645	0.0595	336129	keystroke	n	n/a
168.169	0.06	336338	keystroke	Key.space	n/a
168.304	0.045	336608	keystroke	m	n/a
168.439	0.06	336878	keystroke	o	n/a
168.604	0.045	337208	keystroke	u	n/a
168.754	0.06	337508	keystroke	n	n/a
168.784	0.075	337568	keystroke	t	n/a
168.934	0.075	337868	keystroke	e	n/a
169.114	0.045	338228	keystroke	d	n/a
169.16	0.074	338320	keystroke	Key.space	n/a
169.264	0.06	338528	keystroke	d	n/a
169.339	0.06	338678	keystroke	i	n/a
169.444	0.075	338888	keystroke	e	n/a
169.639	0.06	339278	keystroke	s	n/a
169.7445	0.0445	339489	keystroke	Key.enter	n/a
169.794	4.452	339588	prompt	n/a	restrict steven homework solo\n
170.4495	0.0895	340899	keystroke	r	n/a
170.5845	0.0895	341169	keystroke	e	n/a
170.7795	0.059	341559	keystroke	s	n/a
170.9145	0.06	341829	keystroke	t	n/a
171.0945	0.044	342189	keystroke	r	n/a
171.1545	0.0745	342309	keystroke	i	n/a
171.3195	0.0595	342639	keystroke	c	n/a
171.529	0.045	343058	keystroke	t	n/a
171.604	0.075	343208	keystroke	Key.space	n/a
171.709	0.09	343418	keystroke	s	n/a
171.844	0.0745	343688	keystroke	t	n/a
171.934	0.0755	343868	keystroke	e	n/a
172.0395	0.0595	344079	keystroke	v	n/a
172.129	0.075	344258	keystroke	e	n/a
172.2345	0.0745	344469	keystroke	n	n/a
172.369	0.06	344738	keystroke	Key.space	n/a
172.5335	0.061	345067	keystroke	h	n/a
172.6845	0.044	345369	keystroke	o	n/a
172.8345	0.075	345669	keystroke	m	n/a
172.8945	0.075	345789	keystroke	e	n/a
173.0445	0.074	346089	keystroke	w	n/a
173.1035	0.061	346207	keystroke	o	n/a
173.2245	0.075	346449	keystroke	r	n/a
173.2695	0.0745	346539	keystroke	k	n/a
173.404	0.0745	346808	keystroke	Key.space	n/a
173.4795	0.089	346959	keystroke	s	n/a
173.5845	0.0595	347169	keystroke	o	n/a
173.7335	0.0755	347467	keystroke	l	n/a
173.8995	0.0595	347799	keystroke	o	n/a
174.199	0.045	348398	keystroke	Key.enter	n/a
174.25	5.1705	348500	prompt	n/a	meyer thehun michelle mistake\n
174.9195	0.09	349839	keystroke	m	n/a
174.9945	0.089	349989	keystroke	e	n/a
175.1595	0.045	350319	keystroke	y	n/a
175.2345	0.089	350469	keystroke	e	n/a
175.3845	0.06	350769	keystroke	r	n/a
175.4595	0.075	350919	keystroke	Key.space	n/a
175.5795	0.075	351159	keystroke	t	n/a
175.6695	0.045	351339	keystroke	h	n/a
175.7595	0.074	351519	keystroke	e	n/a
175.879	0.06	351758	keystroke	h	n/a
176.044	0.06	352088	keystroke	u	n/a
176.224	0.09	352448	keystroke	n	n/a
176.389	0.06	352778	keystroke	Key.space	n/a
176.569	0.06	353138	keystroke	m	n/a
176.7485	0.045	353497	keystroke	i	n/a
176.8235	0.06	353647	keystroke	c	n/a
176.8985	0.06	353797	keystroke	h	n/a
177.0335	0.061	354067	keystroke	e	n/a
177.1385	0.0605	354277	keystroke	l	n/a
177.2145	0.1045	354429	keystroke	l	n/a
177.289	0.075	354578	keystroke	e	n/a
177.6485	0.0595	355297	keystroke	Key.space	n/a
177.8595	0.015	355719	keystroke	m	n/a
178.1595	0.06	356319	keystroke	i	n/a
178.2045	0.074	356409	keystroke	s	n/a
178.3535	0.076	356707	keystroke	t	n/a
178.489	0.09	356978	keystroke	a	n/a
178.624	0.075	357248	keystroke	k	n/a
178.8045	0.0445	357609	keystroke	e	n/a
179.359	0.06	358718	keystroke	Key.enter	n/a
179.4245	4.9165	358849	prompt	n/a	bonus happening advertisements euro\n
180.319	0.0745	360638	keystroke	b	n/a
180.499	0.0445	360998	keystroke	o	n/a
180.649	0.0745	361298	keystroke	n	n/a
180.829	0.045	361658	keystroke	u	n/a
180.9045	0.06	361809	keystroke	s	n/a
180.9485	0.075	361897	keystroke	Key.space	n/a
181.0685	0.0455	362137	keystroke	h	n/a
181.189	0.0895	362378	keystroke	a	n/a
181.294	0.045	362588	keystroke	p	n/a
181.3995	0.059	362799	keystroke	p	n/a
181.504	0.075	363008	keystroke	e	n/a
181.594	0.06	363188	keystroke	n	n/a
181.7445	0.045	363489	keystroke	i	n/a
181.894	0.075	363788	keystroke	n	n/a
181.939	0.06	363878	keystroke	g	n/a
182.029	0.075	364058	keystroke	Key.space	n/a
182.1195	0.0895	364239	keystroke	a	n/a
182.254	0.09	364508	keystroke	d	n/a
182.374	0.06	364748	keystroke	v	n/a
182.449	0.075	364898	keystroke	e	n/a
182.554	0.0755	365108	keystroke	r	n/a
182.734	0.06	365468	keystroke	t	n/a
182.809	0.06	365618	keystroke	i	n/a
182.884	0.09	365768	keystroke	s	n/a
183.049	0.075	366098	keystroke	e	n/a
183.139	0.0455	366278	keystroke	m	n/a
183.229	0.12	366458	keystroke	e	n/a
183.334	0.03	366668	keystroke	n	n/a
183.439	0.06	366878	keystroke	t	n/a
183.604	0.075	367208	keystroke	s	n/a
183.664	0.06	367328	keystroke	Key.space	n/a
183.784	0.075	367568	keystroke	e	n/a
183.8595	0.059	367719	keystroke	u	n/a
183.9335	0.076	367867	keystroke	r	n/a
184.0695	0.06	368139	keystroke	o	n/a
184.2935	0.045	368587	keystroke	Key.enter	n/a
184.346	4.78	368692	prompt	n/a	transmit sparc hiking albania\n
184.9535	0.06	369907	keystroke	t	n/a
185.119	0.09	370238	keystroke	r	n/a
185.224	0.105	370448	keystroke	a	n/a
185.3435	0.0605	370687	keystroke	n	n/a
185.4635	0.075	370927	keystroke	s	n/a
185.6135	0.091	371227	keystroke	m	n/a
185.8685	0.06	371737	keystroke	i	n/a
185.9895	0.089	371979	keystroke	t	n/a
186.0935	0.075	372187	keystroke	Key.space	n/a
186.2895	0.0745	372579	keystroke	s	n/a
186.379	0.0605	372758	keystroke	p	n/a
186.4685	0.061	372937	keystroke	a	n/a
186.6195	0.074	373239	keystroke	r	n/a
186.8735	0.0755	373747	keystroke	c	n/a
187.0235	0.0605	374047	keystroke	Key.space	n/a
187.2345	0.015	374469	keystroke	h	n/a
187.3385	0.045	374677	keystroke	i	n/a
187.4885	0.061	374977	keystroke	k	n/a
187.6385	0.0605	375277	keystroke	i	n/a
187.8195	0.06	375639	keystroke	n	n/a
187.8935	0.075	375787	keystroke	g	n/a
187.9835	0.075	375967	keystroke	Key.space	n/a
188.149	0.075	376298	keystroke	a	n/a
188.239	0.06	376478	keystroke	l	n/a
188.404	0.06	376808	keystroke	b	n/a
188.539	0.0905	377078	keystroke	a	n/a
188.584	0.075	377168	keystroke	n	n/a
188.749	0.045	377498	keystroke	i	n/a
188.824	0.075	377648	keystroke	a	n/a
189.079	0.045	378158	keystroke	Key.enter	n/a
189.1295	4.077	378259	prompt	n/a	promising closely walt demands\n
189.679	0.0605	379358	keystroke	p	n/a
189.754	0.0905	379508	keystroke	r	n/a
189.8585	0.0455	379717	keystroke	o	n/a
190.0085	0.06	380017	keystroke	m	n/a
190.174	0.0595	380348	keystroke	i	n/a
190.2195	0.0745	380439	keystroke	s	n/a
190.3385	0.0605	380677	keystroke	i	n/a
190.5195	0.044	381039	keystroke	n	n/a
190.6235	0.061	381247	keystroke	g	n/a
190.6845	0.074	381369	keystroke	Key.space	n/a
190.864	0.0755	381728	keystroke	c	n/a
190.9085	0.075	381817	keystroke	l	n/a
191.0595	0.06	382119	keystroke	o	n/a
191.104	0.0445	382208	keystroke	s	n/a
191.2545	0.074	382509	keystroke	e	n/a
191.2995	0.0745	382599	keystroke	l	n/a
191.4795	0.045	382959	keystroke	y	n/a
191.5385	0.06	383077	keystroke	Key.space	n/a
191.6885	0.06	383377	keystroke	w	n/a
191.839	0.09	383678	keystroke	a	n/a
191.914	0.06	383828	keystroke	l	n/a
192.064	0.045	384128	keystroke	t	n/a
192.124	0.09	384248	keystroke	Key.space	n/a
192.334	0.075	384668	keystroke	d	n/a
192.5145	0.074	385029	keystroke	e	n/a
192.5735	0.045	385147	keystroke	m	n/a
192.649	0.1045	385298	keystroke	a	n/a
192.7245	0.0595	385449	keystroke	n	n/a
192.799	0.1045	385598	keystroke	d	n/a
192.9185	0.075	385837	keystroke	s	n/a
193.144	0.06	386288	keystroke	Key.enter	n/a
193.211	3.9095	386422	prompt	n/a	truly supports austin bend\n
193.774	0.0745	387548	keystroke	t	n/a
193.9545	0.0745	387909	keystroke	r	n/a
194.014	0.06	388028	keystroke	u	n/a
194.209	0.075	388418	keystroke	l	n/a
194.269	0.06	388538	keystroke	y	n/a
194.359	0.06	388718	keystroke	Key.space	n/a
194.464	0.075	388928	keystroke	s	n/a
194.569	0.0305	389138	keystroke	u	n/a
194.749	0.045	389498	keystroke	p	n/a
194.8545	0.1345	389709	keystroke	p	n/a
194.929	0.075	389858	keystroke	o	n/a
195.049	0.06	390098	keystroke	r	n/a
195.1835	0.0905	390367	keystroke	t	n/a
195.364	0.075	390728	keystroke	s	n/a
195.4545	0.0745	390909	keystroke	Key.space	n/a
195.634	0.075	391268	keystroke	a	n/a
195.724	0.06	391448	keystroke	u	n/a
195.799	0.0905	391598	keystroke	s	n/a
196.009	0.0755	392018	keystroke	t	n/a
196.069	0.045	392138	keystroke	i	n/a
196.219	0.0755	392438	keystroke	n	n/a
196.339	0.06	392678	keystroke	Key.space	n/a
196.459	0.0595	392918	keystroke	b	n/a
196.5335	0.06	393067	keystroke	e	n/a
196.6395	0.059	393279	keystroke	n	n/a
196.7585	0.06	393517	keystroke	d	n/a
197.0585	0.06	394117	keystroke	Key.enter	n/a
197.1255	6.19	394251	prompt	n/a	conclude presentations integrate surprising\n
197.8695	0.074	395739	keystroke	c	n/a
197.9295	0.044	395859	keystroke	o	n/a
198.079	0.045	396158	keystroke	n	n/a
198.139	0.075	396278	keystroke	c	n/a
198.2595	0.06	396519	keystroke	l	n/a
198.439	0.075	396878	keystroke	u	n/a
198.4995	0.0595	396999	keystroke	d	n/a
198.6485	0.076	397297	keystroke	e	n/a
198.709	0.0605	397418	keystroke	Key.space	n/a
198.8445	0.075	397689	keystroke	p	n/a
198.8895	0.075	397779	keystroke	r	n/a
198.9795	0.075	397959	keystroke	e	n/a
199.1745	0.075	398349	keystroke	s	n/a
199.3545	0.06	398709	keystroke	e	n/a
199.4295	0.045	398859	keystroke	n	n/a
199.5195	0.074	399039	keystroke	t	n/a
199.6245	0.1045	399249	keystroke	a	n/a
199.789	0.0895	399578	keystroke	t	n/a
199.8635	0.075	399727	keystroke	i	n/a
199.9235	0.076	399847	keystroke	o	n/a
200.1195	0.0745	400239	keystroke	n	n/a
200.2095	0.0745	400419	keystroke	s	n/a
200.374	0.09	400748	keystroke	Key.space	n/a
200.8695	0.045	401739	keystroke	i	n/a
201.0195	0.074	402039	keystroke	n	n/a
201.0345	0.0745	402069	keystroke	t	n/a
201.1835	0.105	402367	keystroke	e	n/a
201.3035	0.06	402607	keystroke	g	n/a
201.3785	0.075	402757	keystroke	r	n/a
201.484	0.0895	402968	keystroke	a	n/a
201.679	0.06	403358	keystroke	t	n/a
201.7995	0.074	403599	keystroke	e	n/a
201.889	0.075	403778	keystroke	Key.space	n/a
202.0085	0.0605	404017	keystroke	s	n/a
202.0845	0.059	404169	keystroke	u	n/a
202.2035	0.0605	404407	keystroke	r	n/a
202.294	0.0305	404588	keystroke	p	n/a
202.354	0.0755	404708	keystroke	r	n/a
202.4445	0.06	404889	keystroke	i	n/a
202.5345	0.074	405069	keystroke	s	n/a
202.624	0.0455	405248	keystroke	i	n/a
202.7735	0.061	405547	keystroke	n	n/a
202.879	0.06	405758	keystroke	g	n/a
203.2545	0.0595	406509	keystroke	Key.enter	n/a
203.32	5.066	406640	prompt	n/a	lamp certification conviction hours\n
203.869	0.0455	407738	keystroke	l	n/a
203.944	0.075	407888	keystroke	a	n/a
204.034	0.075	408068	keystroke	m	n/a
204.229	0.06	408458	keystroke	p	n/a
204.379	0.075	408758	keystroke	Key.space	n/a
204.664	0.06	409328	keystroke	c	n/a
204.8445	0.059	409689	keystroke	e	n/a
204.934	0.09	409868	keystroke	r	n/a
205.1445	0.0745	410289	keystroke	t	n/a
205.2035	0.0755	410407	keystroke	i	n/a
205.324	0.0595	410648	keystroke	f	n/a
205.3985	0.0605	410797	keystroke	i	n/a
205.519	0.075	411038	keystroke	c	n/a
205.6535	0.091	411307	keystroke	a	n/a
205.8185	0.075	411637	keystroke	t	n/a
205.8945	0.089	411789	keystroke	i	n/a
205.969	0.0595	411938	keystroke	o	n/a
206.149	0.0745	412298	keystroke	n	n/a
206.2835	0.0755	412567	keystroke	Key.space	n/a
206.3735	0.0605	412747	keystroke	c	n/a
206.464	0.03	412928	keystroke	o	n/a
206.614	0.06	413228	keystroke	n	n/a
206.659	0.06	413318	keystroke	v	n/a
206.779	0.06	413558	keystroke	i	n/a
206.884	0.075	413768	keystroke	c	n/a
207.124	0.0455	414248	keystroke	t	n/a
207.154	0.105	414308	keystroke	i	n/a
207.214	0.075	414428	keystroke	o	n/a
207.4095	0.0745	414819	keystroke	n	n/a
207.529	0.06	415058	keystroke	Key.space	n/a
207.649	0.06	415298	keystroke	h	n/a
207.799	0.06	415598	keystroke	o	n/a
207.949	0.06	415898	keystroke	u	n/a
207.994	0.09	415988	keystroke	r	n/a
208.144	0.09	416288	keystroke	s	n/a
208.339	0.045	416678	keystroke	Key.enter	n/a
208.389	4.3465	416778	prompt	n/a	echo branch saying notifications\n
208.9985	0.06	417997	keystroke	e	n/a
209.2085	0.075	418417	keystroke	c	n/a
209.269	0.0445	418538	keystroke	h	n/a
209.419	0.06	418838	keystroke	o	n/a
209.5535	0.045	419107	keystroke	Key.space	n/a
209.749	0.0605	419498	keystroke	b	n/a
209.8395	0.0595	419679	keystroke	r	n/a
209.959	0.09	419918	keystroke	a	n/a
210.034	0.075	420068	keystroke	n	n/a
210.1835	0.06	420367	keystroke	c	n/a
210.229	0.06	420458	keystroke	h	n/a
210.364	0.075	420728	keystroke	Key.space	n/a
210.454	0.075	420908	keystroke	s	n/a
210.6185	0.076	421237	keystroke	a	n/a
210.6635	0.0605	421327	keystroke	y	n/a
210.7985	0.0455	421597	keystroke	i	n/a
211.0095	0.015	422019	keystroke	n	n/a
211.0395	0.03	422079	keystroke	g	n/a
211.0535	0.0755	422107	keystroke	Key.space	n/a
211.1445	0.075	422289	keystroke	n	n/a
211.3245	0.0595	422649	keystroke	o	n/a
211.3695	0.074	422739	keystroke	t	n/a
211.489	0.0595	422978	keystroke	i	n/a
211.5785	0.06	423157	keystroke	f	n/a
211.6535	0.0755	423307	keystroke	i	n/a
211.7595	0.0895	423519	keystroke	c	n/a
211.924	0.09	423848	keystroke	a	n/a
212.074	0.0905	424148	keystroke	t	n/a
212.149	0.09	424298	keystroke	i	n/a
212.209	0.0755	424418	keystroke	o	n/a
212.404	0.0605	424808	keystroke	n	n/a
212.449	0.075	424898	keystroke	s	n/a
212.689	0.045	425378	keystroke	Key.enter	n/a
212.742	4.269	425484	prompt	n/a	agrees liked fixed identifier\n
213.3795	0.0895	426759	keystroke	a	n/a
213.499	0.045	426998	keystroke	g	n/a
213.5745	0.0745	427149	keystroke	r	n/a
213.694	0.09	427388	keystroke	e	n/a
213.8595	0.0595	427719	keystroke	e	n/a
214.054	0.0755	428108	keystroke	s	n/a
214.114	0.06	428228	keystroke	Key.space	n/a
214.249	0.06	428498	keystroke	l	n/a
214.3995	0.059	428799	keystroke	i	n/a
214.5485	0.06	429097	keystroke	k	n/a
214.579	0.0895	429158	keystroke	e	n/a
214.7735	0.076	429547	keystroke	d	n/a
214.8185	0.0905	429637	keystroke	Key.space	n/a
214.9695	0.06	429939	keystroke	f	n/a
215.0445	0.059	430089	keystroke	i	n/a
215.1495	0.089	430299	keystroke	x	n/a
215.3585	0.076	430717	keystroke	e	n/a
215.5545	0.0445	431109	keystroke	d	n/a
215.584	0.0745	431168	keystroke	Key.space	n/a
215.7195	0.06	431439	keystroke	i	n/a
215.7645	0.0595	431529	keystroke	d	n/a
215.929	0.075	431858	keystroke	e	n/a
215.989	0.06	431978	keystroke	n	n/a
216.1095	0.09	432219	keystroke	t	n/a
216.214	0.03	432428	keystroke	i	n/a
216.3345	0.06	432669	keystroke	f	n/a
216.379	0.075	432758	keystroke	i	n/a
216.514	0.075	433028	keystroke	e	n/a
216.634	0.075	433268	keystroke	r	n/a
216.934	0.0755	433868	keystroke	Key.enter	n/a
217.016	6.475	434032	prompt	n/a	how's structured plastics cumulative\n
217.774	0.0595	435548	keystroke	h	n/a
217.9235	0.046	435847	keystroke	o	n/a
218.1945	0.015	436389	keystroke	'	n/a
218.599	0.045	437198	keystroke	Key.backspace	n/a
218.764	0.075	437528	keystroke	w	n/a
218.869	0.06	437738	keystroke	'	n/a
219.064	0.075	438128	keystroke	s	n/a
219.289	0.0605	438578	keystroke	Key.space	n/a
219.3795	0.0895	438759	keystroke	s	n/a
219.574	0.06	439148	keystroke	t	n/a
219.739	0.045	439478	keystroke	r	n/a
219.799	0.0745	439598	keystroke	u	n/a
219.9335	0.075	439867	keystroke	c	n/a
220.189	0.03	440378	keystroke	t	n/a
220.234	0.0445	440468	keystroke	u	n/a
220.3235	0.105	440647	keystroke	r	n/a
220.4435	0.0905	440887	keystroke	e	n/a
220.6395	0.09	441279	keystroke	d	n/a
220.7135	0.075	441427	keystroke	Key.space	n/a
220.939	0.0145	441878	keystroke	p	n/a
221.029	0.0745	442058	keystroke	l	n/a
221.0445	0.105	442089	keystroke	a	n/a
221.0885	0.121	442177	keystroke	s	n/a
221.314	0.06	442628	keystroke	t	n/a
221.3895	0.0595	442779	keystroke	i	n/a
221.5395	0.0745	443079	keystroke	c	n/a
221.7045	0.0445	443409	keystroke	s	n/a
221.764	0.075	443528	keystroke	Key.space	n/a
221.8845	0.0895	443769	keystroke	c	n/a
221.959	0.045	443918	keystroke	u	n/a
222.124	0.075	444248	keystroke	m	n/a
222.304	0.045	444608	keystroke	u	n/a
222.4695	0.074	444939	keystroke	l	n/a
222.514	0.0595	445028	keystroke	a	n/a
222.6485	0.075	445297	keystroke	t	n/a
222.7245	0.0595	445449	keystroke	i	n/a
222.8735	0.06	445747	keystroke	v	n/a
223.0535	0.06	446107	keystroke	e	n/a
223.399	0.0895	446798	keystroke	Key.enter	n/a
223.495	5.1705	446990	prompt	n/a	domestic cite conflict huntington\n
224.0595	0.059	448119	keystroke	d	n/a
224.1335	0.045	448267	keystroke	o	n/a
224.2835	0.0755	448567	keystroke	m	n/a
224.3135	0.0755	448627	keystroke	e	n/a
224.509	0.075	449018	keystroke	s	n/a
224.704	0.06	449408	keystroke	t	n/a
224.7795	0.0595	449559	keystroke	i	n/a
224.9895	0.0595	449979	keystroke	c	n/a
225.259	0.075	450518	keystroke	Key.space	n/a
225.5145	0.0895	451029	keystroke	c	n/a
225.5895	0.059	451179	keystroke	i	n/a
225.7695	0.06	451539	keystroke	t	n/a
225.964	0.075	451928	keystroke	e	n/a
226.084	0.075	452168	keystroke	Key.space	n/a
226.264	0.075	452528	keystroke	c	n/a
226.339	0.0305	452678	keystroke	o	n/a
226.474	0.06	452948	keystroke	n	n/a
226.5645	0.0595	453129	keystroke	f	n/a
226.6685	0.06	453337	keystroke	l	n/a
226.8485	0.0455	453697	keystroke	i	n/a
226.9085	0.075	453817	keystroke	c	n/a
227.1185	0.075	454237	keystroke	t	n/a
227.1785	0.045	454357	keystroke	Key.space	n/a
227.3145	0.044	454629	keystroke	h	n/a
227.4335	0.061	454867	keystroke	u	n/a
227.584	0.0745	455168	keystroke	n	n/a
227.6595	0.06	455319	keystroke	t	n/a
227.7335	0.0755	455467	keystroke	i	n/a
227.8835	0.075	455767	keystroke	n	n/a
227.944	0.0595	455888	keystroke	g	n/a
228.1685	0.0455	456337	keystroke	t	n/a
228.199	0.045	456398	keystroke	o	n/a
228.349	0.06	456698	keystroke	n	n/a
228.604	0.0595	457208	keystroke	Key.enter	n/a
228.67	5.3805	457340	prompt	n/a	corporate sides thompson travis\n
229.2645	0.074	458529	keystroke	c	n/a
229.3235	0.0905	458647	keystroke	o	n/a
229.5495	0.0295	459099	keystroke	r	n/a
229.6095	0.1345	459219	keystroke	p	n/a
229.714	0.06	459428	keystroke	o	n/a
229.8035	0.0905	459607	keystroke	r	n/a
229.9685	0.075	459937	keystroke	a	n/a
230.1335	0.061	460267	keystroke	t	n/a
230.2695	0.089	460539	keystroke	e	n/a
230.4785	0.09	460957	keystroke	Key.space	n/a
230.7495	0.0745	461499	keystroke	s	n/a
230.8385	0.06	461677	keystroke	i	n/a
230.9145	0.0745	461829	keystroke	d	n/a
231.094	0.06	462188	keystroke	e	n/a
231.259	0.075	462518	keystroke	s	n/a
231.349	0.0605	462698	keystroke	Key.space	n/a
231.469	0.075	462938	keystroke	t	n/a
231.5295	0.0595	463059	keystroke	h	n/a
231.679	0.045	463358	keystroke	o	n/a
231.829	0.0595	463658	keystroke	m	n/a
232.009	0.06	464018	keystroke	p	n/a
232.129	0.09	464258	keystroke	s	n/a
232.234	0.06	464468	keystroke	o	n/a
232.429	0.06	464858	keystroke	n	n/a
232.639	0.075	465278	keystroke	Key.space	n/a
232.924	0.06	465848	keystroke	t	n/a
233.089	0.075	466178	keystroke	r	n/a
233.194	0.09	466388	keystroke	a	n/a
233.4195	0.06	466839	keystroke	v	n/a
233.509	0.06	467018	keystroke	i	n/a
233.6745	0.075	467349	keystroke	s	n/a
233.989	0.06	467978	keystroke	Key.enter	n/a
234.0535	4.602	468107	prompt	n/a	stretch announces some infection\n
234.6935	0.09	469387	keystroke	s	n/a
234.8285	0.0605	469657	keystroke	t	n/a
234.9035	0.061	469807	keystroke	r	n/a
235.0095	0.09	470019	keystroke	e	n/a
235.1895	0.075	470379	keystroke	t	n/a
235.3245	0.06	470649	keystroke	c	n/a
235.3995	0.075	470799	keystroke	h	n/a
235.5335	0.0605	471067	keystroke	Key.space	n/a
235.6695	0.075	471339	keystroke	a	n/a
235.6995	0.06	471399	keystroke	n	n/a
235.8195	0.06	471639	keystroke	n	n/a
235.9845	0.0745	471969	keystroke	o	n/a
236.164	0.0445	472328	keystroke	u	n/a
236.3145	0.059	472629	keystroke	n	n/a
236.3885	0.061	472777	keystroke	c	n/a
236.5685	0.06	473137	keystroke	e	n/a
236.7485	0.06	473497	keystroke	s	n/a
236.7935	0.06	473587	keystroke	Key.space	n/a
236.9135	0.0455	473827	keystroke	s	n/a
236.959	0.06	473918	keystroke	o	n/a
237.109	0.0745	474218	keystroke	m	n/a
237.1545	0.074	474309	keystroke	e	n/a
237.2585	0.06	474517	keystroke	Key.space	n/a
237.3635	0.0605	474727	keystroke	i	n/a
237.529	0.06	475058	keystroke	n	n/a
237.544	0.0755	475088	keystroke	f	n/a
237.664	0.075	475328	keystroke	e	n/a
237.889	0.0445	475778	keystroke	c	n/a
238.0685	0.0605	476137	keystroke	t	n/a
238.1135	0.121	476227	keystroke	i	n/a
238.174	0.0895	476348	keystroke	o	n/a
238.309	0.0745	476618	keystroke	n	n/a
238.594	0.06	477188	keystroke	Key.enter	n/a
238.66	5.4405	477320	prompt	n/a	knife psychological southern bottle\n
240.0035	0.06	480007	keystroke	k	n/a
240.154	0.075	480308	keystroke	n	n/a
240.319	0.045	480638	keystroke	i	n/a
240.3795	0.0595	480759	keystroke	f	n/a
240.4995	0.0745	480999	keystroke	e	n/a
240.589	0.0605	481178	keystroke	Key.space	n/a
240.7695	0.0445	481539	keystroke	p	n/a
240.8895	0.0745	481779	keystroke	s	n/a
241.0095	0.0595	482019	keystroke	y	n/a
241.1445	0.075	482289	keystroke	c	n/a
241.204	0.075	482408	keystroke	h	n/a
241.3395	0.06	482679	keystroke	o	n/a
241.489	0.0605	482978	keystroke	l	n/a
241.6245	0.0595	483249	keystroke	o	n/a
241.699	0.06	483398	keystroke	g	n/a
241.7895	0.059	483579	keystroke	i	n/a
241.924	0.06	483848	keystroke	c	n/a
242.074	0.075	484148	keystroke	a	n/a
242.134	0.075	484268	keystroke	l	n/a
242.269	0.06	484538	keystroke	Key.space	n/a
242.344	0.06	484688	keystroke	s	n/a
242.4195	0.06	484839	keystroke	o	n/a
242.584	0.06	485168	keystroke	u	n/a
242.659	0.075	485318	keystroke	t	n/a
242.749	0.06	485498	keystroke	h	n/a
242.8395	0.09	485679	keystroke	e	n/a
242.944	0.0755	485888	keystroke	r	n/a
243.034	0.06	486068	keystroke	n	n/a
243.139	0.09	486278	keystroke	Key.space	n/a
243.3035	0.06	486607	keystroke	b	n/a
243.379	0.0595	486758	keystroke	o	n/a
243.4985	0.061	486997	keystroke	t	n/a
243.6335	0.075	487267	keystroke	t	n/a
243.7235	0.06	487447	keystroke	l	n/a
243.8295	0.0745	487659	keystroke	e	n/a
244.039	0.06	488078	keystroke	Key.enter	n/a
244.105	4.421	488210	prompt	n/a	introduce reached going toolbar\n
244.744	0.045	489488	keystroke	i	n/a
244.894	0.075	489788	keystroke	n	n/a
245.074	0.06	490148	keystroke	t	n/a
245.2395	0.0745	490479	keystroke	r	n/a
245.299	0.0605	490598	keystroke	o	n/a
245.4345	0.0595	490869	keystroke	d	n/a
245.509	0.06	491018	keystroke	u	n/a
245.629	0.06	491258	keystroke	c	n/a
245.7935	0.06	491587	keystroke	e	n/a
245.8685	0.0755	491737	keystroke	Key.space	n/a
245.959	0.0895	491918	keystroke	r	n/a
246.0645	0.09	492129	keystroke	e	n/a
246.1685	0.12	492337	keystroke	a	n/a
246.3935	0.0605	492787	keystroke	c	n/a
246.4685	0.0605	492937	keystroke	h	n/a
246.5735	0.075	493147	keystroke	e	n/a
246.7685	0.0605	493537	keystroke	d	n/a
246.844	0.075	493688	keystroke	Key.space	n/a
246.9795	0.075	493959	keystroke	g	n/a
247.0395	0.06	494079	keystroke	o	n/a
247.1895	0.06	494379	keystroke	i	n/a
247.3395	0.0745	494679	keystroke	n	n/a
247.429	0.045	494858	keystroke	g	n/a
247.489	0.06	494978	keystroke	Key.space	n/a
247.609	0.06	495218	keystroke	t	n/a
247.653	0.046	495306	keystroke	o	n/a
247.759	0.06	495518	keystroke	o	n/a
247.909	0.075	495818	keystroke	l	n/a
248.134	0.06	496268	keystroke	b	n/a
248.1795	0.0745	496359	keystroke	a	n/a
248.314	0.075	496628	keystroke	r	n/a
248.479	0.045	496958	keystroke	Key.enter	n/a
248.5305	4.84	497061	prompt	n/a	basic performance toward dating\n
249.2895	0.0445	498579	keystroke	b	n/a
249.349	0.135	498698	keystroke	a	n/a
249.379	0.15	498758	keystroke	s	n/a
249.5445	0.0595	499089	keystroke	i	n/a
249.664	0.0755	499328	keystroke	c	n/a
249.7695	0.0745	499539	keystroke	Key.space	n/a
250.054	0.06	500108	keystroke	p	n/a
250.099	0.06	500198	keystroke	e	n/a
250.204	0.075	500408	keystroke	r	n/a
250.399	0.075	500798	keystroke	f	n/a
250.444	0.06	500888	keystroke	o	n/a
250.564	0.06	501128	keystroke	r	n/a
250.639	0.06	501278	keystroke	m	n/a
250.729	0.075	501458	keystroke	a	n/a
250.819	0.06	501638	keystroke	n	n/a
250.939	0.045	501878	keystroke	c	n/a
251.119	0.0445	502238	keystroke	e	n/a
251.179	0.0745	502358	keystroke	Key.space	n/a
251.2835	0.06	502567	keystroke	t	n/a
251.3585	0.06	502717	keystroke	o	n/a
251.449	0.12	502898	keystroke	w	n/a
251.524	0.09	503048	keystroke	e	n/a
252.0035	0.045	504007	keystroke	Key.backspace	n/a
252.079	0.0895	504158	keystroke	a	n/a
252.2135	0.0755	504427	keystroke	r	n/a
252.409	0.06	504818	keystroke	d	n/a
252.454	0.0755	504908	keystroke	Key.space	n/a
252.589	0.075	505178	keystroke	d	n/a
252.709	0.075	505418	keystroke	a	n/a
252.874	0.075	505748	keystroke	t	n/a
252.934	0.045	505868	keystroke	i	n/a
253.069	0.06	506138	keystroke	n	n/a
253.174	0.06	506348	keystroke	g	n/a
253.324	0.045	506648	keystroke	Key.enter	n/a
253.3745	4.496	506749	prompt	n/a	marina antibodies dispatch carlo\n
253.894	0.075	507788	keystroke	m	n/a
254.0145	0.09	508029	keystroke	a	n/a
254.3585	0.076	508717	keystroke	r	n/a
254.4635	0.06	508927	keystroke	i	n/a
254.6435	0.0755	509287	keystroke	n	n/a
254.7335	0.0905	509467	keystroke	a	n/a
254.8385	0.075	509677	keystroke	Key.space	n/a
254.9895	0.0745	509979	keystroke	a	n/a
255.049	0.06	510098	keystroke	n	n/a
255.199	0.075	510398	keystroke	t	n/a
255.289	0.045	510578	keystroke	i	n/a
255.439	0.06	510878	keystroke	b	n/a
255.529	0.06	511058	keystroke	o	n/a
255.664	0.045	511328	keystroke	d	n/a
255.724	0.045	511448	keystroke	i	n/a
255.7985	0.075	511597	keystroke	e	n/a
255.9945	0.059	511989	keystroke	s	n/a
256.0385	0.075	512077	keystroke	Key.space	n/a
256.1435	0.075	512287	keystroke	d	n/a
256.2195	0.0445	512439	keystroke	i	n/a
256.2935	0.1055	512587	keystroke	s	n/a
256.4145	0.059	512829	keystroke	p	n/a
256.4885	0.105	512977	keystroke	a	n/a
256.684	0.075	513368	keystroke	t	n/a
256.8935	0.0605	513787	keystroke	c	n/a
256.9235	0.06	513847	keystroke	h	n/a
257.0435	0.075	514087	keystroke	Key.space	n/a
257.104	0.0745	514208	keystroke	c	n/a
257.239	0.09	514478	keystroke	a	n/a
257.419	0.06	514838	keystroke	r	n/a
257.464	0.06	514928	keystroke	l	n/a
257.629	0.045	515258	keystroke	o	n/a
257.824	0.045	515648	keystroke	Key.enter	n/a
257.8755	5.2755	515751	prompt	n/a	capable removable billion modem\n
258.4995	0.06	516999	keystroke	c	n/a
258.6185	0.09	517237	keystroke	a	n/a
258.694	0.0745	517388	keystroke	p	n/a
258.7835	0.091	517567	keystroke	a	n/a
258.994	0.0595	517988	keystroke	b	n/a
259.069	0.06	518138	keystroke	l	n/a
259.159	0.0745	518318	keystroke	e	n/a
259.2485	0.075	518497	keystroke	Key.space	n/a
259.4135	0.06	518827	keystroke	r	n/a
259.4895	0.105	518979	keystroke	e	n/a
259.5785	0.091	519157	keystroke	m	n/a
259.7285	0.061	519457	keystroke	o	n/a
259.7745	0.06	519549	keystroke	v	n/a
259.9245	0.06	519849	keystroke	a	n/a
260.1495	0.075	520299	keystroke	b	n/a
260.2845	0.074	520569	keystroke	l	n/a
260.4485	0.076	520897	keystroke	e	n/a
260.6735	0.075	521347	keystroke	Key.space	n/a
260.989	0.0745	521978	keystroke	b	n/a
261.0485	0.03	522097	keystroke	i	n/a
261.3335	0.075	522667	keystroke	l	n/a
261.4835	0.0755	522967	keystroke	l	n/a
261.6935	0.105	523387	keystroke	i	n/a
261.7695	0.089	523539	keystroke	o	n/a
262.084	0.0595	524168	keystroke	n	n/a
262.2335	0.075	524467	keystroke	Key.space	n/a
262.4135	0.0755	524827	keystroke	m	n/a
262.594	0.045	525188	keystroke	o	n/a
262.684	0.03	525368	keystroke	d	n/a
262.804	0.075	525608	keystroke	e	n/a
262.864	0.06	525728	keystroke	m	n/a
263.104	0.045	526208	keystroke	Key.enter	n/a
263.155	4.1805	526310	prompt	n/a	married minds lace xanax\n
263.689	0.075	527378	keystroke	m	n/a
263.749	0.0595	527498	keystroke	a	n/a
263.8835	0.075	527767	keystroke	r	n/a
264.0335	0.06	528067	keystroke	r	n/a
264.1085	0.0605	528217	keystroke	i	n/a
264.184	0.075	528368	keystroke	e	n/a
264.394	0.06	528788	keystroke	d	n/a
264.439	0.06	528878	keystroke	Key.space	n/a
264.589	0.09	529178	keystroke	m	n/a
264.844	0.03	529688	keystroke	i	n/a
264.994	0.075	529988	keystroke	n	n/a
265.054	0.0755	530108	keystroke	d	n/a
265.204	0.075	530408	keystroke	s	n/a
265.6835	0.045	531367	keystroke	Key.space	n/a
265.819	0.075	531638	keystroke	l	n/a
265.864	0.059	531728	keystroke	a	n/a
266.029	0.0755	532058	keystroke	c	n/a
266.194	0.0595	532388	keystroke	e	n/a
266.2685	0.06	532537	keystroke	Key.space	n/a
266.4035	0.0755	532807	keystroke	x	n/a
266.5385	0.075	533077	keystroke	a	n/a
266.6435	0.06	533287	keystroke	n	n/a
266.734	0.075	533468	keystroke	a	n/a
267.0485	0.076	534097	keystroke	x	n/a
267.274	0.06	534548	keystroke	Key.enter	n/a
267.3415	4.6445	534683	prompt	n/a	one younger formatting hydraulic\n
267.934	0.045	535868	keystroke	o	n/a
268.099	0.0605	536198	keystroke	n	n/a
268.114	0.09	536228	keystroke	e	n/a
268.234	0.0745	536468	keystroke	Key.space	n/a
268.3235	0.061	536647	keystroke	y	n/a
268.3985	0.045	536797	keystroke	o	n/a
268.534	0.0595	537068	keystroke	u	n/a
268.6985	0.075	537397	keystroke	n	n/a
268.744	0.0445	537488	keystroke	g	n/a
268.8495	0.104	537699	keystroke	e	n/a
268.9695	0.06	537939	keystroke	r	n/a
269.0435	0.0605	538087	keystroke	Key.space	n/a
269.1485	0.0755	538297	keystroke	f	n/a
269.2095	0.059	538419	keystroke	o	n/a
269.3285	0.046	538657	keystroke	r	n/a
269.3745	0.0745	538749	keystroke	m	n/a
269.4785	0.061	538957	keystroke	a	n/a
269.5995	0.074	539199	keystroke	t	n/a
269.7335	0.0905	539467	keystroke	t	n/a
269.8095	0.0445	539619	keystroke	i	n/a
269.944	0.06	539888	keystroke	n	n/a
269.989	0.045	539978	keystroke	g	n/a
270.079	0.06	540158	keystroke	Key.space	n/a
270.184	0.0755	540368	keystroke	h	n/a
270.3495	0.06	540699	keystroke	y	n/a
270.4095	0.06	540819	keystroke	d	n/a
270.574	0.0605	541148	keystroke	r	n/a
270.6645	0.105	541329	keystroke	a	n/a
271.189	0.06	542378	keystroke	u	n/a
271.414	0.06	542828	keystroke	l	n/a
271.579	0.06	543158	keystroke	i	n/a
271.669	0.0755	543338	keystroke	c	n/a
271.9085	0.0755	543817	keystroke	Key.enter	n/a
271.9905	6.76	543981	prompt	n/a	referred trader attendance virtue\n
272.584	0.0605	545168	keystroke	r	n/a
272.6745	0.0745	545349	keystroke	e	n/a
272.839	0.09	545678	keystroke	f	n/a
272.959	0.0755	545918	keystroke	e	n/a
273.064	0.075	546128	keystroke	r	n/a
273.214	0.09	546428	keystroke	r	n/a
273.334	0.0905	546668	keystroke	e	n/a
273.4985	0.0905	546997	keystroke	d	n/a
273.6035	0.0755	547207	keystroke	Key.space	n/a
273.6945	0.06	547389	keystroke	t	n/a
273.8435	0.076	547687	keystroke	r	n/a
274.0845	0.09	548169	keystroke	d	n/a
274.519	0.06	549038	keystroke	Key.backspace	n/a
274.624	0.09	549248	keystroke	a	n/a
274.759	0.06	549518	keystroke	d	n/a
274.849	0.135	549698	keystroke	e	n/a
274.999	0.075	549998	keystroke	r	n/a
275.089	0.075	550178	keystroke	Key.space	n/a
275.239	0.075	550478	keystroke	a	n/a
275.404	0.06	550808	keystroke	t	n/a
275.509	0.09	551018	keystroke	t	n/a
276.2435	0.0755	552487	keystroke	e	n/a
276.3495	0.059	552699	keystroke	n	n/a
276.5145	0.0745	553029	keystroke	d	n/a
276.664	0.09	553328	keystroke	a	n/a
276.784	0.075	553568	keystroke	n	n/a
276.889	0.075	553778	keystroke	c	n/a
277.1435	0.0605	554287	keystroke	e	n/a
277.369	0.075	554738	keystroke	Key.space	n/a
277.6095	0.0445	555219	keystroke	v	n/a
277.669	0.06	555338	keystroke	i	n/a
277.804	0.045	555608	keystroke	r	n/a
277.9685	0.06	555937	keystroke	t	n/a
278.0435	0.061	556087	keystroke	u	n/a
278.4185	0.0605	556837	keystroke	e	n/a
278.689	0.06	557378	keystroke	Key.enter	n/a
278.757	4.1035	557514	prompt	n/a	expedia counter skill oval\n
279.304	0.075	558608	keystroke	e	n/a
279.529	0.06	559058	keystroke	x	n/a
279.574	0.045	559148	keystroke	p	n/a
279.7085	0.0455	559417	keystroke	e	n/a
279.8885	0.0605	559777	keystroke	d	n/a
279.9335	0.06	559867	keystroke	i	n/a
280.039	0.0595	560078	keystroke	a	n/a
280.1135	0.0605	560227	keystroke	Key.space	n/a
280.234	0.06	560468	keystroke	c	n/a
280.2635	0.075	560527	keystroke	o	n/a
280.429	0.0445	560858	keystroke	u	n/a
280.579	0.0595	561158	keystroke	n	n/a
280.5945	0.0595	561189	keystroke	t	n/a
280.7135	0.105	561427	keystroke	e	n/a
280.7885	0.0905	561577	keystroke	r	n/a
280.953	0.0755	561906	keystroke	Key.space	n/a
281.254	0.0745	562508	keystroke	s	n/a
281.314	0.074	562628	keystroke	k	n/a
281.464	0.06	562928	keystroke	i	n/a
281.6445	0.045	563289	keystroke	l	n/a
281.7045	0.149	563409	keystroke	l	n/a
282.0635	0.075	564127	keystroke	Key.space	n/a
282.2145	0.075	564429	keystroke	o	n/a
282.2735	0.076	564547	keystroke	v	n/a
282.3785	0.105	564757	keystroke	a	n/a
282.5145	0.06	565029	keystroke	l	n/a
282.8135	0.045	565627	keystroke	Key.enter	n/a
282.865	4.63	565730	prompt	n/a	played luck highways observations\n
283.4585	0.06	566917	keystroke	p	n/a
283.5935	0.09	567187	keystroke	l	n/a
283.669	0.075	567338	keystroke	a	n/a
283.804	0.0755	567608	keystroke	y	n/a
283.8945	0.06	567789	keystroke	e	n/a
284.0585	0.061	568117	keystroke	d	n/a
284.1035	0.046	568207	keystroke	Key.space	n/a
284.224	0.0745	568448	keystroke	l	n/a
284.404	0.0445	568808	keystroke	u	n/a
284.4635	0.0755	568927	keystroke	c	n/a
284.554	0.0445	569108	keystroke	k	n/a
284.6585	0.06	569317	keystroke	Key.space	n/a
284.7635	0.045	569527	keystroke	h	n/a
284.8985	0.045	569797	keystroke	i	n/a
284.9295	0.075	569859	keystroke	g	n/a
285.0335	0.076	570067	keystroke	h	n/a
285.1235	0.0605	570247	keystroke	w	n/a
285.2895	0.06	570579	keystroke	a	n/a
285.3495	0.0745	570699	keystroke	y	n/a
285.454	0.075	570908	keystroke	s	n/a
285.544	0.075	571088	keystroke	Key.space	n/a
285.6935	0.0605	571387	keystroke	o	n/a
285.9045	0.075	571809	keystroke	b	n/a
286.2345	0.059	572469	keystroke	s	n/a
286.3235	0.106	572647	keystroke	e	n/a
286.4435	0.091	572887	keystroke	r	n/a
286.5045	0.074	573009	keystroke	v	n/a
286.6245	0.075	573249	keystroke	a	n/a
286.7735	0.075	573547	keystroke	t	n/a
286.8195	0.089	573639	keystroke	i	n/a
286.8945	0.074	573789	keystroke	o	n/a
287.0745	0.074	574149	keystroke	n	n/a
287.1345	0.0745	574269	keystroke	s	n/a
287.463	0.031	574926	keystroke	Key.enter	n/a
287.498	3.973	574996	prompt	n/a	bloom starring cooler iran\n
288.229	0.075	576458	keystroke	b	n/a
288.2895	0.0745	576579	keystroke	l	n/a
288.484	0.045	576968	keystroke	o	n/a
288.604	0.045	577208	keystroke	o	n/a
288.769	0.075	577538	keystroke	m	n/a
288.904	0.06	577808	keystroke	Key.space	n/a
288.979	0.075	577958	keystroke	s	n/a
289.174	0.075	578348	keystroke	t	n/a
289.309	0.1195	578618	keystroke	a	n/a
289.4735	0.09	578947	keystroke	r	n/a
289.699	0.06	579398	keystroke	r	n/a
289.789	0.06	579578	keystroke	i	n/a
289.9545	0.0745	579909	keystroke	n	n/a
289.999	0.06	579998	keystroke	g	n/a
290.104	0.075	580208	keystroke	Key.space	n/a
290.254	0.06	580508	keystroke	c	n/a
290.299	0.06	580598	keystroke	o	n/a
290.404	0.06	580808	keystroke	o	n/a
290.5835	0.075	581167	keystroke	l	n/a
290.614	0.0905	581228	keystroke	e	n/a
290.733	0.091	581466	keystroke	r	n/a
290.809	0.06	581618	keystroke	Key.space	n/a
290.929	0.0755	581858	keystroke	i	n/a
290.9895	0.0435	581979	keystroke	r	n/a
291.0795	0.104	582159	keystroke	a	n/a
291.1685	0.0605	582337	keystroke	n	n/a
291.424	0.0455	582848	keystroke	Key.enter	n/a
291.475	5.681	582950	prompt	n/a	arkansas wool championship critics\n
292.1135	0.06	584227	keystroke	a	n/a
292.2635	0.06	584527	keystroke	r	n/a
292.3545	0.075	584709	keystroke	k	n/a
292.444	0.1195	584888	keystroke	a	n/a
292.579	0.0295	585158	keystroke	n	n/a
292.6385	0.0755	585277	keystroke	s	n/a
292.8195	0.0445	585639	keystroke	s	n/a
293.299	0.045	586598	keystroke	Key.backspace	n/a
293.419	0.12	586838	keystroke	a	n/a
293.554	0.09	587108	keystroke	s	n/a
293.8835	0.0755	587767	keystroke	Key.space	n/a
294.154	0.075	588308	keystroke	w	n/a
294.214	0.06	588428	keystroke	o	n/a
294.334	0.06	588668	keystroke	o	n/a
294.4995	0.0745	588999	keystroke	l	n/a
294.619	0.075	589238	keystroke	Key.space	n/a
294.739	0.075	589478	keystroke	c	n/a
294.829	0.045	589658	keystroke	h	n/a
294.934	0.045	589868	keystroke	a	n/a
294.994	0.0605	589988	keystroke	m	n/a
295.1745	0.0595	590349	keystroke	p	n/a
295.339	0.1055	590678	keystroke	i	n/a
295.399	0.0905	590798	keystroke	o	n/a
295.609	0.075	591218	keystroke	n	n/a
295.6995	0.0745	591399	keystroke	s	n/a
295.9395	0.045	591879	keystroke	h	n/a
295.9695	0.045	591939	keystroke	i	n/a
296.1045	0.0745	592209	keystroke	p	n/a
296.2085	0.0755	592417	keystroke	Key.space	n/a
296.2845	0.059	592569	keystroke	c	n/a
296.4795	0.044	592959	keystroke	r	n/a
296.5385	0.06	593077	keystroke	i	n/a
296.6435	0.075	593287	keystroke	t	n/a
296.7335	0.06	593467	keystroke	i	n/a
296.8535	0.0755	593707	keystroke	c	n/a
296.989	0.0745	593978	keystroke	s	n/a
297.0935	0.06	594187	keystroke	Key.enter	n/a
297.161	5.44	594322	prompt	n/a	impression ranks logistics princess\n
297.724	0.03	595448	keystroke	i	n/a
297.8595	0.059	595719	keystroke	m	n/a
298.0235	0.045	596047	keystroke	p	n/a
298.0545	0.089	596109	keystroke	r	n/a
298.1285	0.09	596257	keystroke	e	n/a
298.339	0.06	596678	keystroke	s	n/a
298.489	0.06	596978	keystroke	s	n/a
298.564	0.0905	597128	keystroke	i	n/a
298.624	0.075	597248	keystroke	o	n/a
298.804	0.06	597608	keystroke	n	n/a
298.909	0.075	597818	keystroke	Key.space	n/a
298.969	0.075	597938	keystroke	r	n/a
299.1045	0.0745	598209	keystroke	a	n/a
299.1345	0.06	598269	keystroke	n	n/a
299.2685	0.0605	598537	keystroke	k	n/a
299.3435	0.0755	598687	keystroke	s	n/a
299.4335	0.075	598867	keystroke	Key.space	n/a
299.5985	0.06	599197	keystroke	l	n/a
299.7635	0.06	599527	keystroke	o	n/a
299.8085	0.0605	599617	keystroke	g	n/a
299.9135	0.075	599827	keystroke	i	n/a
300.154	0.09	600308	keystroke	s	n/a
300.409	0.06	600818	keystroke	t	n/a
300.499	0.075	600998	keystroke	i	n/a
300.739	0.015	601478	keystroke	c	n/a
300.799	0.0905	601598	keystroke	s	n/a
300.8895	0.0445	601779	keystroke	Key.space	n/a
301.084	0.045	602168	keystroke	p	n/a
301.4745	0.0895	602949	keystroke	r	n/a
301.579	0.045	603158	keystroke	i	n/a
301.744	0.06	603488	keystroke	n	n/a
301.819	0.0755	603638	keystroke	c	n/a
302.044	0.03	604088	keystroke	e	n/a
302.239	0.06	604478	keystroke	s	n/a
302.389	0.0595	604778	keystroke	s	n/a
302.5395	0.059	605079	keystroke	Key.enter	n/a
302.605	4.466	605210	prompt	n/a	indian fought contact arguments\n
303.1685	0.0605	606337	keystroke	i	n/a
303.349	0.045	606698	keystroke	n	n/a
303.3785	0.09	606757	keystroke	d	n/a
303.5135	0.06	607027	keystroke	i	n/a
303.589	0.0895	607178	keystroke	a	n/a
303.6935	0.06	607387	keystroke	n	n/a
303.8285	0.076	607657	keystroke	Key.space	n/a
303.9935	0.0755	607987	keystroke	f	n/a
304.054	0.045	608108	keystroke	o	n/a
304.204	0.06	608408	keystroke	u	n/a
304.2645	0.0595	608529	keystroke	g	n/a
304.3685	0.06	608737	keystroke	h	n/a
304.4445	0.0595	608889	keystroke	t	n/a
304.519	0.0595	609038	keystroke	Key.space	n/a
304.6835	0.0605	609367	keystroke	c	n/a
304.729	0.0595	609458	keystroke	o	n/a
304.8635	0.091	609727	keystroke	n	n/a
304.9235	0.0605	609847	keystroke	t	n/a
305.0585	0.076	610117	keystroke	a	n/a
305.2545	0.074	610509	keystroke	c	n/a
305.5095	0.06	611019	keystroke	t	n/a
305.7035	0.075	611407	keystroke	Key.space	n/a
305.9295	0.06	611859	keystroke	a	n/a
306.0795	0.06	612159	keystroke	r	n/a
306.2445	0.09	612489	keystroke	g	n/a
306.2895	0.06	612579	keystroke	u	n/a
306.454	0.06	612908	keystroke	m	n/a
306.529	0.075	613058	keystroke	e	n/a
306.619	0.06	613238	keystroke	n	n/a
306.694	0.0745	613388	keystroke	t	n/a
306.8285	0.075	613657	keystroke	s	n/a
307.024	0.045	614048	keystroke	Key.enter	n/a
307.0745	6.9865	614149	prompt	n/a	guards traveler sampling strengthen\n
307.8945	0.075	615789	keystroke	g	n/a
307.9845	0.045	615969	keystroke	u	n/a
308.0745	0.075	616149	keystroke	a	n/a
308.2235	0.0755	616447	keystroke	r	n/a
308.3745	0.1195	616749	keystroke	d	n/a
308.449	0.15	616898	keystroke	s	n/a
308.614	0.06	617228	keystroke	Key.space	n/a
308.704	0.075	617408	keystroke	t	n/a
308.884	0.06	617768	keystroke	r	n/a
308.974	0.0755	617948	keystroke	a	n/a
309.1395	0.075	618279	keystroke	v	n/a
309.2895	0.059	618579	keystroke	e	n/a
309.3635	0.061	618727	keystroke	l	n/a
309.4385	0.106	618877	keystroke	e	n/a
309.6045	0.0745	619209	keystroke	r	n/a
309.709	0.075	619418	keystroke	Key.space	n/a
309.8735	0.075	619747	keystroke	s	n/a
310.024	0.0905	620048	keystroke	a	n/a
310.0835	0.06	620167	keystroke	m	n/a
310.264	0.0895	620528	keystroke	p	n/a
310.399	0.0745	620798	keystroke	l	n/a
310.6085	0.045	621217	keystroke	i	n/a
310.7745	0.059	621549	keystroke	n	n/a
310.819	0.0595	621638	keystroke	g	n/a
310.954	0.0895	621908	keystroke	Key.space	n/a
311.2395	0.0745	622479	keystroke	s	n/a
311.419	0.075	622838	keystroke	t	n/a
311.5835	0.0755	623167	keystroke	r	n/a
311.7045	0.045	623409	keystroke	n	n/a
312.1085	0.045	624217	keystroke	Key.backspace	n/a
312.2295	0.074	624459	keystroke	e	n/a
312.3485	0.046	624697	keystroke	n	n/a
312.4395	0.0745	624879	keystroke	g	n/a
312.6335	0.06	625267	keystroke	t	n/a
312.7085	0.0605	625417	keystroke	h	n/a
312.8145	0.06	625629	keystroke	e	n/a
312.9195	0.029	625839	keystroke	n	n/a
314.014	0.045	628028	keystroke	Key.enter	n/a
314.0655	3.895	628131	prompt	n/a	other cashiers trauma rest\n
314.7495	0.059	629499	keystroke	o	n/a
314.8535	0.076	629707	keystroke	t	n/a
314.9595	0.06	629919	keystroke	h	n/a
315.0345	0.09	630069	keystroke	e	n/a
315.1395	0.09	630279	keystroke	r	n/a
315.2435	0.0605	630487	keystroke	Key.space	n/a
315.424	0.075	630848	keystroke	c	n/a
315.544	0.105	631088	keystroke	a	n/a
315.589	0.12	631178	keystroke	s	n/a
315.679	0.0605	631358	keystroke	h	n/a
315.799	0.0605	631598	keystroke	i	n/a
315.8745	0.075	631749	keystroke	e	n/a
315.9645	0.0895	631929	keystroke	r	n/a
316.159	0.09	632318	keystroke	s	n/a
316.264	0.0595	632528	keystroke	Key.space	n/a
316.4295	0.0745	632859	keystroke	t	n/a
316.5945	0.0745	633189	keystroke	r	n/a
316.7135	0.0755	633427	keystroke	a	n/a
316.7735	0.0605	633547	keystroke	u	n/a
316.939	0.0745	633878	keystroke	m	n/a
317.0285	0.06	634057	keystroke	a	n/a
317.134	0.0745	634268	keystroke	Key.space	n/a
317.2395	0.0745	634479	keystroke	r	n/a
317.329	0.105	634658	keystroke	e	n/a
317.509	0.0745	635018	keystroke	s	n/a
317.689	0.0745	635378	keystroke	t	n/a
317.899	0.06	635798	keystroke	Key.enter	n/a
317.9635	3.688	635927	prompt	n/a	enemies takes sign caught\n
318.529	0.0905	637058	keystroke	e	n/a
318.6045	0.0595	637209	keystroke	n	n/a
318.7095	0.0745	637419	keystroke	e	n/a
318.799	0.045	637598	keystroke	m	n/a
318.964	0.045	637928	keystroke	i	n/a
318.994	0.075	637988	keystroke	e	n/a
319.159	0.09	638318	keystroke	s	n/a
319.234	0.06	638468	keystroke	Key.space	n/a
319.3695	0.0745	638739	keystroke	t	n/a
319.5045	0.0895	639009	keystroke	a	n/a
319.579	0.06	639158	keystroke	k	n/a
319.669	0.075	639338	keystroke	e	n/a
319.879	0.06	639758	keystroke	s	n/a
319.999	0.075	639998	keystroke	Key.space	n/a
320.2385	0.076	640477	keystroke	s	n/a
320.2985	0.061	640597	keystroke	i	n/a
320.4485	0.076	640897	keystroke	g	n/a
320.494	0.0755	640988	keystroke	n	n/a
320.629	0.0745	641258	keystroke	Key.space	n/a
320.884	0.075	641768	keystroke	c	n/a
321.0485	0.09	642097	keystroke	a	n/a
321.1235	0.075	642247	keystroke	u	n/a
321.2285	0.075	642457	keystroke	g	n/a
321.3185	0.06	642637	keystroke	h	n/a
321.439	0.0595	642878	keystroke	t	n/a
321.604	0.0445	643208	keystroke	Key.enter	n/a
321.6555	4.7805	643311	prompt	n/a	malta medicaid processed cloudy\n
322.444	0.06	644888	keystroke	m	n/a
322.534	0.075	645068	keystroke	a	n/a
322.6695	0.0595	645339	keystroke	l	n/a
322.774	0.06	645548	keystroke	t	n/a
322.924	0.06	645848	keystroke	a	n/a
322.999	0.075	645998	keystroke	Key.space	n/a
323.194	0.075	646388	keystroke	m	n/a
323.299	0.075	646598	keystroke	e	n/a
323.479	0.06	646958	keystroke	d	n/a
323.554	0.045	647108	keystroke	i	n/a
323.659	0.0745	647318	keystroke	c	n/a
323.764	0.0745	647528	keystroke	a	n/a
323.854	0.06	647708	keystroke	i	n/a
323.9585	0.06	647917	keystroke	d	n/a
324.0185	0.0755	648037	keystroke	Key.space	n/a
324.169	0.0755	648338	keystroke	p	n/a
324.229	0.06	648458	keystroke	r	n/a
324.3635	0.0605	648727	keystroke	o	n/a
324.4535	0.09	648907	keystroke	c	n/a
324.6335	0.076	649267	keystroke	e	n/a
324.814	0.0755	649628	keystroke	s	n/a
324.964	0.06	649928	keystroke	s	n/a
325.144	0.06	650288	keystroke	e	n/a
325.309	0.075	650618	keystroke	d	n/a
325.399	0.03	650798	keystroke	Key.space	n/a
325.4895	0.0595	650979	keystroke	c	n/a
325.564	0.06	651128	keystroke	l	n/a
325.714	0.06	651428	keystroke	o	n/a
325.8635	0.0755	651727	keystroke	u	n/a
325.954	0.045	651908	keystroke	d	n/a
326.044	0.06	652088	keystroke	y	n/a
326.374	0.06	652748	keystroke	Key.enter	n/a
326.441	5.44	652882	prompt	n/a	observations going luke creating\n
327.0345	0.0445	654069	keystroke	o	n/a
327.229	0.06	654458	keystroke	b	n/a
327.304	0.045	654608	keystroke	s	n/a
327.409	0.1055	654818	keystroke	e	n/a
327.484	0.0905	654968	keystroke	r	n/a
327.6045	0.06	655209	keystroke	v	n/a
327.6945	0.075	655389	keystroke	a	n/a
327.9045	0.0895	655809	keystroke	i	n/a
327.9635	0.075	655927	keystroke	o	n/a
328.3685	0.045	656737	keystroke	Key.backspace	n/a
328.5035	0.0455	657007	keystroke	Key.backspace	n/a
328.639	0.0595	657278	keystroke	t	n/a
328.729	0.1055	657458	keystroke	i	n/a
328.7745	0.104	657549	keystroke	o	n/a
329.0145	0.0595	658029	keystroke	n	n/a
329.0895	0.0745	658179	keystroke	s	n/a
329.179	0.0745	658358	keystroke	Key.space	n/a
329.3435	0.045	658687	keystroke	g	n/a
329.4045	0.0595	658809	keystroke	o	n/a
329.5535	0.045	659107	keystroke	i	n/a
329.7185	0.06	659437	keystroke	n	n/a
329.809	0.06	659618	keystroke	g	n/a
329.884	0.06	659768	keystroke	Key.space	n/a
330.019	0.075	660038	keystroke	l	n/a
330.199	0.0605	660398	keystroke	u	n/a
330.3495	0.075	660699	keystroke	k	n/a
330.3935	0.076	660787	keystroke	e	n/a
330.4995	0.074	660999	keystroke	Key.space	n/a
330.6195	0.075	661239	keystroke	c	n/a
330.8145	0.06	661629	keystroke	r	n/a
330.9045	0.1195	661809	keystroke	e	n/a
331.039	0.105	662078	keystroke	a	n/a
331.249	0.0745	662498	keystroke	t	n/a
331.3835	0.06	662767	keystroke	i	n/a
331.5485	0.061	663097	keystroke	n	n/a
331.6535	0.045	663307	keystroke	g	n/a
331.8185	0.06	663637	keystroke	Key.enter	n/a
331.8895	5.1065	663779	prompt	n/a	cordless haven't adventures hire\n
332.584	0.0605	665168	keystroke	c	n/a
332.6745	0.0595	665349	keystroke	o	n/a
332.809	0.075	665618	keystroke	r	n/a
333.0045	0.0595	666009	keystroke	d	n/a
333.0495	0.0595	666099	keystroke	l	n/a
333.169	0.075	666338	keystroke	e	n/a
333.3645	0.075	666729	keystroke	s	n/a
333.4995	0.06	666999	keystroke	s	n/a
333.5735	0.061	667147	keystroke	Key.space	n/a
333.7095	0.0595	667419	keystroke	h	n/a
333.7845	0.0595	667569	keystroke	a	n/a
333.8895	0.0445	667779	keystroke	v	n/a
333.949	0.0595	667898	keystroke	e	n/a
334.069	0.06	668138	keystroke	n	n/a
334.279	0.045	668558	keystroke	'	n/a
334.3695	0.075	668739	keystroke	t	n/a
334.474	0.09	668948	keystroke	Key.space	n/a
334.609	0.0905	669218	keystroke	a	n/a
334.7145	0.105	669429	keystroke	d	n/a
334.864	0.06	669728	keystroke	v	n/a
334.939	0.075	669878	keystroke	e	n/a
335.044	0.075	670088	keystroke	n	n/a
335.134	0.0755	670268	keystroke	t	n/a
335.2385	0.06	670477	keystroke	u	n/a
335.3145	0.09	670629	keystroke	r	n/a
335.3885	0.106	670777	keystroke	e	n/a
335.644	0.0745	671288	keystroke	Key.space	n/a
336.004	0.06	672008	keystroke	Key.backspace	n/a
336.1245	0.0895	672249	keystroke	s	n/a
336.244	0.045	672488	keystroke	Key.space	n/a
336.379	0.045	672758	keystroke	h	n/a
336.4995	0.06	672999	keystroke	i	n/a
336.5745	0.074	673149	keystroke	r	n/a
336.6495	0.104	673299	keystroke	e	n/a
336.9335	0.06	673867	keystroke	Key.enter	n/a
337	5.1555	674000	prompt	n/a	usda guatemala named club\n
337.639	0.0595	675278	keystroke	u	n/a
337.7145	0.089	675429	keystroke	s	n/a
337.9535	0.09	675907	keystroke	d	n/a
338.119	0.0895	676238	keystroke	a	n/a
338.269	0.075	676538	keystroke	Key.space	n/a
338.539	0.0595	677078	keystroke	g	n/a
338.6135	0.061	677227	keystroke	u	n/a
338.6885	0.091	677377	keystroke	a	n/a
338.8985	0.075	677797	keystroke	t	n/a
339.049	0.09	678098	keystroke	e	n/a
339.154	0.06	678308	keystroke	m	n/a
339.274	0.075	678548	keystroke	a	n/a
339.364	0.075	678728	keystroke	l	n/a
339.469	0.075	678938	keystroke	a	n/a
339.574	0.06	679148	keystroke	Key.space	n/a
339.769	0.045	679538	keystroke	n	n/a
339.844	0.075	679688	keystroke	a	n/a
339.919	0.075	679838	keystroke	m	n/a
340.024	0.0605	680048	keystroke	e	n/a
340.204	0.06	680408	keystroke	d	n/a
340.294	0.075	680588	keystroke	Key.space	n/a
340.519	0.045	681038	keystroke	c	n/a
341.134	0.075	682268	keystroke	l	n/a
341.389	0.06	682778	keystroke	u	n/a
341.569	0.075	683138	keystroke	b	n/a
342.109	0.0445	684218	keystroke	Key.enter	n/a
342.16	4.9305	684320	prompt	n/a	use implement done delaware\n
342.9335	0.045	685867	keystroke	u	n/a
342.9795	0.074	685959	keystroke	s	n/a
343.0985	0.09	686197	keystroke	e	n/a
343.1895	0.0595	686379	keystroke	Key.space	n/a
343.309	0.0595	686618	keystroke	i	n/a
343.4895	0.0445	686979	keystroke	m	n/a
343.639	0.105	687278	keystroke	p	n/a
343.714	0.09	687428	keystroke	l	n/a
343.819	0.0755	687638	keystroke	e	n/a
343.9545	0.0745	687909	keystroke	m	n/a
344.059	0.0905	688118	keystroke	e	n/a
344.164	0.06	688328	keystroke	n	n/a
344.509	0.075	689018	keystroke	t	n/a
344.689	0.075	689378	keystroke	Key.space	n/a
344.914	0.075	689828	keystroke	d	n/a
344.959	0.045	689918	keystroke	o	n/a
345.1245	0.06	690249	keystroke	n	n/a
345.1695	0.0595	690339	keystroke	e	n/a
345.2435	0.0755	690487	keystroke	Key.space	n/a
345.3785	0.045	690757	keystroke	d	n/a
345.4995	0.075	690999	keystroke	e	n/a
345.589	0.06	691178	keystroke	l	n/a
345.679	0.075	691358	keystroke	a	n/a
346.009	0.0745	692018	keystroke	w	n/a
346.204	0.09	692408	keystroke	a	n/a
346.4285	0.06	692857	keystroke	r	n/a
346.5795	0.0745	693159	keystroke	e	n/a
347.029	0.06	694058	keystroke	Key.enter	n/a
347.0955	11.68	694191	prompt	n/a	exist briefly collar cure\n
347.8095	0.0745	695619	keystroke	e	n/a
348.019	0.075	696038	keystroke	x	n/a
348.1095	0.0595	696219	keystroke	i	n/a
348.424	0.06	696848	keystroke	s	n/a
348.4995	0.0745	696999	keystroke	t	n/a
348.724	0.045	697448	keystroke	Key.space	n/a
348.9645	0.06	697929	keystroke	b	n/a
349.114	0.0905	698228	keystroke	i	n/a
349.1595	0.089	698319	keystroke	r	n/a
349.504	0.0895	699008	keystroke	e	n/a
349.834	0.075	699668	keystroke	f	n/a
350.134	0.045	700268	keystroke	l	n/a
350.239	0.0755	700478	keystroke	y	n/a
350.404	0.075	700808	keystroke	Key.space	n/a
350.584	0.075	701168	keystroke	c	n/a
350.674	0.03	701348	keystroke	o	n/a
350.809	0.0605	701618	keystroke	l	n/a
350.929	0.06	701858	keystroke	l	n/a
351.3485	0.106	702697	keystroke	a	n/a
351.5435	0.06	703087	keystroke	r	n/a
351.634	0.075	703268	keystroke	Key.space	n/a
351.8145	0.0595	703629	keystroke	c	n/a
351.8595	0.0595	703719	keystroke	u	n/a
352.0545	0.06	704109	keystroke	r	n/a
352.2045	0.09	704409	keystroke	e	n/a
352.939	0.06	705878	keystroke	Key.backspace	n/a
353.104	0.06	706208	keystroke	Key.backspace	n/a
353.269	0.045	706538	keystroke	Key.backspace	n/a
353.434	0.03	706868	keystroke	Key.backspace	n/a
353.569	0.045	707138	keystroke	Key.backspace	n/a
353.719	0.045	707438	keystroke	Key.backspace	n/a
353.884	0.0295	707768	keystroke	Key.backspace	n/a
354.049	0.045	708098	keystroke	Key.backspace	n/a
354.2135	0.045	708427	keystroke	Key.backspace	n/a
354.3785	0.045	708757	keystroke	Key.backspace	n/a
354.5585	0.015	709117	keystroke	Key.backspace	n/a
354.7085	0.045	709417	keystroke	Key.backspace	n/a
354.889	0.045	709778	keystroke	Key.backspace	n/a
355.054	0.045	710108	keystroke	Key.backspace	n/a
355.234	0.045	710468	keystroke	Key.backspace	n/a
355.429	0.045	710858	keystroke	Key.backspace	n/a
355.639	0.045	711278	keystroke	Key.backspace	n/a
356.044	0.06	712088	keystroke	Key.backspace	n/a
356.314	0.0605	712628	keystroke	r	n/a
356.4045	0.06	712809	keystroke	i	n/a
356.4795	0.075	712959	keystroke	e	n/a
356.6445	0.09	713289	keystroke	f	n/a
356.7495	0.06	713499	keystroke	l	n/a
356.929	0.0755	713858	keystroke	y	n/a
357.214	0.075	714428	keystroke	Key.space	n/a
357.4095	0.075	714819	keystroke	c	n/a
357.4695	0.045	714939	keystroke	o	n/a
357.6195	0.059	715239	keystroke	l	n/a
357.7395	0.0745	715479	keystroke	l	n/a
357.7845	0.089	715569	keystroke	a	n/a
357.949	0.0605	715898	keystroke	r	n/a
358.039	0.0745	716078	keystroke	Key.space	n/a
358.2335	0.075	716467	keystroke	c	n/a
358.294	0.0595	716588	keystroke	u	n/a
358.459	0.0595	716918	keystroke	r	n/a
358.5495	0.06	717099	keystroke	e	n/a
358.7145	0.06	717429	keystroke	Key.enter	n/a
358.7795	5.276	717559	prompt	n/a	master loads bronze commodities\n
359.509	0.045	719018	keystroke	m	n/a
359.584	0.1355	719168	keystroke	a	n/a
359.734	0.0895	719468	keystroke	s	n/a
359.8685	0.06	719737	keystroke	t	n/a
360.2285	0.075	720457	keystroke	e	n/a
360.469	0.0745	720938	keystroke	r	n/a
360.6635	0.06	721327	keystroke	Key.space	n/a
360.8285	0.0455	721657	keystroke	l	n/a
360.9785	0.045	721957	keystroke	o	n/a
361.039	0.105	722078	keystroke	a	n/a
361.129	0.12	722258	keystroke	d	n/a
361.234	0.1055	722468	keystroke	s	n/a
361.324	0.06	722648	keystroke	Key.space	n/a
361.459	0.06	722918	keystroke	b	n/a
361.534	0.075	723068	keystroke	r	n/a
361.624	0.06	723248	keystroke	o	n/a
361.7745	0.0745	723549	keystroke	n	n/a
362.2535	0.0755	724507	keystroke	z	n/a
362.4785	0.06	724957	keystroke	e	n/a
362.569	0.0745	725138	keystroke	Key.space	n/a
362.7035	0.0755	725407	keystroke	c	n/a
362.749	0.06	725498	keystroke	o	n/a
362.899	0.06	725798	keystroke	m	n/a
363.019	0.06	726038	keystroke	m	n/a
363.1845	0.0595	726369	keystroke	o	n/a
363.259	0.0605	726518	keystroke	d	n/a
363.349	0.06	726698	keystroke	i	n/a
363.439	0.0755	726878	keystroke	t	n/a
363.529	0.06	727058	keystroke	i	n/a
363.6045	0.0745	727209	keystroke	e	n/a
363.8145	0.059	727629	keystroke	s	n/a
364.009	0.0445	728018	keystroke	Key.enter	n/a
364.0595	3.926	728119	prompt	n/a	housing costa pubs it's\n
364.6095	0.0445	729219	keystroke	h	n/a
364.7445	0.06	729489	keystroke	o	n/a
364.8945	0.06	729789	keystroke	u	n/a
364.9695	0.06	729939	keystroke	s	n/a
365.0595	0.06	730119	keystroke	i	n/a
365.2395	0.06	730479	keystroke	n	n/a
365.2845	0.045	730569	keystroke	g	n/a
365.3595	0.075	730719	keystroke	Key.space	n/a
365.4795	0.075	730959	keystroke	c	n/a
365.5395	0.044	731079	keystroke	o	n/a
365.6295	0.0895	731259	keystroke	s	n/a
366.064	0.0755	732128	keystroke	t	n/a
366.2745	0.09	732549	keystroke	a	n/a
366.4395	0.06	732879	keystroke	Key.space	n/a
366.6495	0.06	733299	keystroke	p	n/a
366.8445	0.06	733689	keystroke	u	n/a
366.8895	0.059	733779	keystroke	b	n/a
367.0545	0.06	734109	keystroke	s	n/a
367.1295	0.045	734259	keystroke	Key.space	n/a
367.2345	0.06	734469	keystroke	i	n/a
367.2795	0.075	734559	keystroke	t	n/a
367.4595	0.045	734919	keystroke	'	n/a
367.5345	0.09	735069	keystroke	s	n/a
367.9235	0.06	735847	keystroke	Key.enter	n/a
367.988	5.968	735976	prompt	n/a	reporting objects atlas twice\n
368.6595	0.06	737319	keystroke	r	n/a
368.7345	0.12	737469	keystroke	e	n/a
368.8395	0.105	737679	keystroke	p	n/a
368.9145	0.075	737829	keystroke	o	n/a
368.9745	0.075	737949	keystroke	r	n/a
369.1695	0.06	738339	keystroke	t	n/a
369.3645	0.03	738729	keystroke	n	n/a
369.799	0.0605	739598	keystroke	Key.backspace	n/a
370.0545	0.0595	740109	keystroke	i	n/a
370.219	0.06	740438	keystroke	n	n/a
370.2645	0.06	740529	keystroke	g	n/a
370.354	0.06	740708	keystroke	Key.space	n/a
370.459	0.06	740918	keystroke	o	n/a
370.624	0.045	741248	keystroke	b	n/a
370.67	0.059	741340	keystroke	j	n/a
370.789	0.06	741578	keystroke	e	n/a
370.9695	0.06	741939	keystroke	c	n/a
371.149	0.06	742298	keystroke	t	n/a
371.284	0.0905	742568	keystroke	s	n/a
371.389	0.06	742778	keystroke	Key.space	n/a
371.494	0.091	742988	keystroke	a	n/a
371.569	0.0605	743138	keystroke	l	n/a
371.944	0.0605	743888	keystroke	Key.backspace	n/a
372.079	0.0755	744158	keystroke	t	n/a
372.214	0.0595	744428	keystroke	l	n/a
372.4845	0.135	744969	keystroke	a	n/a
372.5895	0.12	745179	keystroke	s	n/a
372.7695	0.075	745539	keystroke	Key.space	n/a
372.9045	0.075	745809	keystroke	t	n/a
373.0395	0.045	746079	keystroke	w	n/a
373.1145	0.06	746229	keystroke	i	n/a
373.2195	0.105	746439	keystroke	c	n/a
373.4595	0.075	746919	keystroke	e	n/a
373.8945	0.06	747789	keystroke	Key.enter	n/a
373.96	4.2405	747920	prompt	n/a	catalogs remain develop driving\n
374.6145	0.06	749229	keystroke	c	n/a
374.7645	0.06	749529	keystroke	a	n/a
374.8995	0.075	749799	keystroke	t	n/a
375.0195	0.09	750039	keystroke	a	n/a
375.0945	0.06	750189	keystroke	l	n/a
375.244	0.0745	750488	keystroke	o	n/a
375.3045	0.03	750609	keystroke	g	n/a
375.4245	0.074	750849	keystroke	s	n/a
375.484	0.06	750968	keystroke	Key.space	n/a
375.619	0.09	751238	keystroke	r	n/a
375.6935	0.1205	751387	keystroke	e	n/a
375.7995	0.0745	751599	keystroke	m	n/a
375.949	0.06	751898	keystroke	a	n/a
376.024	0.045	752048	keystroke	i	n/a
376.1745	0.06	752349	keystroke	n	n/a
376.294	0.06	752588	keystroke	Key.space	n/a
376.384	0.075	752768	keystroke	d	n/a
376.534	0.06	753068	keystroke	e	n/a
376.714	0.06	753428	keystroke	v	n/a
376.8485	0.061	753697	keystroke	e	n/a
376.9245	0.06	753849	keystroke	l	n/a
377.0595	0.12	754119	keystroke	o	n/a
377.1345	0.09	754269	keystroke	p	n/a
377.2835	0.076	754567	keystroke	Key.space	n/a
377.3745	0.075	754749	keystroke	d	n/a
377.554	0.075	755108	keystroke	r	n/a
377.644	0.0445	755288	keystroke	i	n/a
377.7345	0.074	755469	keystroke	v	n/a
377.7785	0.0455	755557	keystroke	i	n/a
377.9135	0.06	755827	keystroke	n	n/a
378.0045	0.0445	756009	keystroke	g	n/a
378.139	0.06	756278	keystroke	Key.enter	n/a
378.2045	6.7315	756409	prompt	n/a	consolidated churches figures styles\n
378.8435	0.075	757687	keystroke	c	n/a
378.8895	0.0445	757779	keystroke	o	n/a
379.039	0.06	758078	keystroke	n	n/a
379.144	0.09	758288	keystroke	s	n/a
379.309	0.0305	758618	keystroke	o	n/a
379.4445	0.0595	758889	keystroke	l	n/a
379.609	0.06	759218	keystroke	i	n/a
379.684	0.06	759368	keystroke	d	n/a
379.8045	0.0895	759609	keystroke	a	n/a
379.939	0.075	759878	keystroke	t	n/a
380.074	0.075	760148	keystroke	e	n/a
380.224	0.075	760448	keystroke	d	n/a
380.314	0.06	760628	keystroke	Key.space	n/a
380.404	0.075	760808	keystroke	c	n/a
380.4645	0.06	760929	keystroke	h	n/a
380.644	0.0605	761288	keystroke	r	n/a
381.0345	0.045	762069	keystroke	Key.backspace	n/a
381.2445	0.0445	762489	keystroke	u	n/a
381.29	0.0745	762580	keystroke	r	n/a
381.4995	0.075	762999	keystroke	c	n/a
381.5895	0.06	763179	keystroke	h	n/a
381.709	0.0755	763418	keystroke	e	n/a
381.904	0.075	763808	keystroke	s	n/a
381.9645	0.0745	763929	keystroke	Key.space	n/a
382.7135	0.061	765427	keystroke	f	n/a
382.759	0.0605	765518	keystroke	i	n/a
382.9095	0.029	765819	keystroke	g	n/a
382.9535	0.06	765907	keystroke	u	n/a
383.0445	0.075	766089	keystroke	r	n/a
383.1335	0.091	766267	keystroke	e	n/a
383.3285	0.075	766657	keystroke	s	n/a
383.3885	0.06	766777	keystroke	Key.space	n/a
383.4935	0.0755	766987	keystroke	s	n/a
383.6885	0.075	767377	keystroke	t	n/a
383.854	0.06	767708	keystroke	y	n/a
383.9295	0.0595	767859	keystroke	l	n/a
384.049	0.06	768098	keystroke	e	n/a
384.2745	0.06	768549	keystroke	s	n/a
384.889	0.045	769778	keystroke	Key.enter	n/a
