onset	duration	sample	value	key	prompt_text
27.3525	0.0445	54705	keystroke_s	s	n/a
27.3865	0.0675	54773	keystroke_e	e	n/a
27.465	0.0785	54930	keystroke_a	a	n/a
27.5545	0.1125	55109	keystroke_n	n	n/a
27.9825	0.0445	55965	keystroke_b	b	n/a
28.072	0.0675	56144	keystroke_i	i	n/a
28.1395	0.0675	56279	keystroke_t	t	n/a
28.3195	0.1125	56639	keystroke_t	t	n/a
28.4665	0.056	56933	keystroke_n	n	n/a
28.522	0.102	57044	keystroke_e	e	n/a
28.612	0.0675	57224	keystroke_r	r	n/a
28.736	0.0675	57472	keystroke_Key.tab	Key.tab	n/a
29.917	0.0455	59834	keystroke_o	o	n/a
29.9515	0.0785	59903	keystroke_n	n	n/a
30.277	0.045	60554	keystroke_Key.tab	Key.tab	n/a
31.1995	0.1245	62399	keystroke_Key.cmd	Key.cmd	n/a
31.2335	0.079	62467	keystroke_v	v	n/a
33.472	0.1015	66944	keystroke_Key.cmd	Key.cmd	n/a
33.562	0.023	67124	keystroke_f	f	n/a
33.697	0.0675	67394	keystroke_o	o	n/a
33.731	0.1125	67462	keystroke_n	n	n/a
33.855	0.146	67710	keystroke_Key.shift	Key.shift	n/a
33.9335	0.056	67867	keystroke__	_	n/a
34.035	0.0895	68070	keystroke_k	k	n/a
34.136	0.0785	68272	keystroke_e	e	n/a
34.597	0.056	69194	keystroke_'	'	n/a
36.3975	0.0555	72795	keystroke_Key.backspace	Key.backspace	n/a
36.566	0.101	73132	keystroke_Key.enter	Key.enter	n/a
39.7835	0.0785	79567	keystroke_c	c	n/a
39.9855	0.124	79971	keystroke_c	c	n/a
41.2805	0.337	82561	keystroke_Key.cmd	Key.cmd	n/a
41.9095	0.057	83819	keystroke_Key.esc	Key.esc	n/a
42.112	0.034	84224	keystroke_Key.esc	Key.esc	n/a
45.105	0.124	90210	keystroke_Key.cmd	Key.cmd	n/a
45.1495	0.0675	90299	keystroke_v	v	n/a
49.514	7.8335	99028	prompt	n/a	the quick brown fox jumps over a lazy dog\n
52.2935	0.0675	104587	keystroke_t	t	n/a
52.395	0.112	104790	keystroke_h	h	n/a
52.4735	0.0675	104947	keystroke_e	e	n/a
52.5525	0.078	105105	keystroke_Key.space	Key.space	n/a
52.721	0.0445	105442	keystroke_q	q	n/a
52.811	0.0895	105622	keystroke_u	u	n/a
52.845	0.1125	105690	keystroke_i	i	n/a
53.013	0.09	106026	keystroke_c	c	n/a
53.1145	0.1355	106229	keystroke_k	k	n/a
53.2155	0.09	106431	keystroke_Key.space	Key.space	n/a
53.317	0.101	106634	keystroke_b	b	n/a
53.5755	0.057	107151	keystroke_r	r	n/a
53.643	0.09	107286	keystroke_o	o	n/a
53.7675	0.09	107535	keystroke_w	w	n/a
53.868	0.0905	107736	keystroke_n	n	n/a
53.925	0.123	107850	keystroke_Key.space	Key.space	n/a
54.082	0.101	108164	keystroke_f	f	n/a
54.195	0.09	108390	keystroke_o	o	n/a
54.307	0.1015	108614	keystroke_x	x	n/a
54.42	0.135	108840	keystroke_Key.space	Key.space	n/a
54.5435	0.0895	109087	keystroke_j	j	n/a
54.7235	0.0115	109447	keystroke_u	u	n/a
54.903	0.1125	109806	keystroke_m	m	n/a
54.9825	0.0675	109965	keystroke_p	p	n/a
55.1505	0.0675	110301	keystroke_s	s	n/a
55.263	0.1015	110526	keystroke_Key.space	Key.space	n/a
55.567	0.079	111134	keystroke_o	o	n/a
55.6235	0.09	111247	keystroke_v	v	n/a
55.792	0.1235	111584	keystroke_e	e	n/a
55.871	0.0785	111742	keystroke_r	r	n/a
55.9495	0.101	111899	keystroke_Key.space	Key.space	n/a
56.107	0.068	112214	keystroke_a	a	n/a
56.22	0.1125	112440	keystroke_Key.space	Key.space	n/a
56.343	0.0675	112686	keystroke_l	l	n/a
56.4555	0.09	112911	keystroke_a	a	n/a
56.636	0.101	113272	keystroke_z	z	n/a
56.7485	0.101	113497	keystroke_y	y	n/a
56.838	0.079	113676	keystroke_Key.space	Key.space	n/a
56.9285	0.067	113857	keystroke_d	d	n/a
57.0295	0.101	114059	keystroke_o	o	n/a
57.142	0.056	114284	keystroke_g	g	n/a
57.2655	0.08	114531	keystroke_Key.enter	Key.enter	n/a
57.3505	6.6435	114701	prompt	n/a	decorating ceiling brutal astrology\n
58.132	0.09	116264	keystroke_d	d	n/a
58.3235	0.045	116647	keystroke_e	e	n/a
58.492	0.0675	116984	keystroke_c	c	n/a
58.5935	0.056	117187	keystroke_o	o	n/a
58.6835	0.0785	117367	keystroke_r	r	n/a
58.852	0.1015	117704	keystroke_a	a	n/a
58.942	0.0565	117884	keystroke_t	t	n/a
59.0775	0.123	118155	keystroke_i	i	n/a
59.122	0.135	118244	keystroke_n	n	n/a
59.2685	0.09	118537	keystroke_g	g	n/a
59.572	0.09	119144	keystroke_Key.space	Key.space	n/a
59.9885	0.09	119977	keystroke_c	c	n/a
60.2135	0.056	120427	keystroke_e	e	n/a
60.3595	0.102	120719	keystroke_i	i	n/a
60.4495	0.046	120899	keystroke_l	l	n/a
60.697	0.124	121394	keystroke_i	i	n/a
60.7645	0.1125	121529	keystroke_n	n	n/a
60.967	0.0335	121934	keystroke_g	g	n/a
61.0125	0.124	122025	keystroke_Key.space	Key.space	n/a
61.2255	0.079	122451	keystroke_b	b	n/a
61.451	0.045	122902	keystroke_r	r	n/a
61.541	0.1125	123082	keystroke_u	u	n/a
61.687	0.079	123374	keystroke_t	t	n/a
61.777	0.09	123554	keystroke_a	a	n/a
61.991	0.067	123982	keystroke_l	l	n/a
62.1145	0.0675	124229	keystroke_Key.space	Key.space	n/a
62.643	0.1125	125286	keystroke_a	a	n/a
62.812	0.056	125624	keystroke_s	s	n/a
62.902	0.056	125804	keystroke_t	t	n/a
63.082	0.0905	126164	keystroke_r	r	n/a
63.183	0.09	126366	keystroke_o	o	n/a
63.3525	0.0555	126705	keystroke_l	l	n/a
63.543	0.057	127086	keystroke_o	o	n/a
63.6105	0.0795	127221	keystroke_g	g	n/a
63.7235	0.112	127447	keystroke_y	y	n/a
63.915	0.078	127830	keystroke_Key.enter	Key.enter	n/a
63.9975	5.7905	127995	prompt	n/a	spelling beach presenting prototype\n
64.7135	0.1015	129427	keystroke_s	s	n/a
65.0175	0.0895	130035	keystroke_p	p	n/a
65.141	0.0675	130282	keystroke_e	e	n/a
65.31	0.0555	130620	keystroke_l	l	n/a
65.456	0.112	130912	keystroke_l	l	n/a
65.6355	0.135	131271	keystroke_i	i	n/a
65.703	0.09	131406	keystroke_n	n	n/a
65.8155	0.0675	131631	keystroke_g	g	n/a
65.9055	0.1125	131811	keystroke_Key.space	Key.space	n/a
66.0295	0.101	132059	keystroke_b	b	n/a
66.187	0.0785	132374	keystroke_e	e	n/a
66.2775	0.078	132555	keystroke_a	a	n/a
66.423	0.057	132846	keystroke_c	c	n/a
66.5355	0.1015	133071	keystroke_h	h	n/a
66.626	0.0895	133252	keystroke_Key.space	Key.space	n/a
66.783	0.0675	133566	keystroke_p	p	n/a
66.829	0.146	133658	keystroke_r	r	n/a
66.918	0.113	133836	keystroke_e	e	n/a
67.0315	0.1115	134063	keystroke_s	s	n/a
67.1205	0.124	134241	keystroke_e	e	n/a
67.3005	0.1135	134601	keystroke_n	n	n/a
67.414	0.078	134828	keystroke_t	t	n/a
67.56	0.123	135120	keystroke_i	i	n/a
67.616	0.1235	135232	keystroke_n	n	n/a
67.7505	0.079	135501	keystroke_g	g	n/a
67.8405	0.1015	135681	keystroke_Key.space	Key.space	n/a
67.9305	0.1015	135861	keystroke_p	p	n/a
68.043	0.0675	136086	keystroke_r	r	n/a
68.1335	0.0785	136267	keystroke_o	o	n/a
68.313	0.045	136626	keystroke_t	t	n/a
68.4145	0.101	136829	keystroke_o	o	n/a
69.2355	0.0675	138471	keystroke_t	t	n/a
69.2925	0.0895	138585	keystroke_y	y	n/a
69.337	0.0675	138674	keystroke_p	p	n/a
69.4725	0.09	138945	keystroke_e	e	n/a
69.7425	0.045	139485	keystroke_Key.enter	Key.enter	n/a
69.791	4.824	139582	prompt	n/a	clients meanwhile moments forced\n
70.6755	0.09	141351	keystroke_c	c	n/a
70.7775	0.067	141555	keystroke_l	l	n/a
70.8105	0.124	141621	keystroke_i	i	n/a
70.9455	0.0675	141891	keystroke_e	e	n/a
71.103	0.034	142206	keystroke_n	n	n/a
71.1825	0.123	142365	keystroke_t	t	n/a
71.2945	0.068	142589	keystroke_s	s	n/a
71.4295	0.068	142859	keystroke_Key.space	Key.space	n/a
71.5535	0.1235	143107	keystroke_m	m	n/a
71.643	0.1575	143286	keystroke_e	e	n/a
71.7895	0.09	143579	keystroke_a	a	n/a
71.8125	0.1345	143625	keystroke_n	n	n/a
72.026	0.09	144052	keystroke_w	w	n/a
72.1045	0.0785	144209	keystroke_h	h	n/a
72.127	0.135	144254	keystroke_i	i	n/a
72.1945	0.0785	144389	keystroke_l	l	n/a
72.307	0.0785	144614	keystroke_e	e	n/a
72.442	0.101	144884	keystroke_Key.space	Key.space	n/a
72.5995	0.09	145199	keystroke_m	m	n/a
72.6785	0.1235	145357	keystroke_o	o	n/a
72.814	0.078	145628	keystroke_m	m	n/a
72.9255	0.124	145851	keystroke_e	e	n/a
73.083	0.124	146166	keystroke_n	n	n/a
73.1955	0.1125	146391	keystroke_t	t	n/a
73.297	0.0785	146594	keystroke_s	s	n/a
73.387	0.1125	146774	keystroke_Key.space	Key.space	n/a
73.533	0.09	147066	keystroke_f	f	n/a
73.6345	0.09	147269	keystroke_o	o	n/a
73.7135	0.112	147427	keystroke_r	r	n/a
73.927	0.057	147854	keystroke_c	c	n/a
74.1405	0.068	148281	keystroke_e	e	n/a
74.332	0.0785	148664	keystroke_d	d	n/a
74.557	0.057	149114	keystroke_Key.enter	Key.enter	n/a
74.6185	5.846	149237	prompt	n/a	hidden gift hurricane applicants\n
75.277	0.056	150554	keystroke_h	h	n/a
75.356	0.1235	150712	keystroke_i	i	n/a
75.514	0.078	151028	keystroke_d	d	n/a
75.682	0.045	151364	keystroke_d	d	n/a
75.8505	0.045	151701	keystroke_e	e	n/a
75.918	0.124	151836	keystroke_n	n	n/a
76.0195	0.1235	152039	keystroke_Key.space	Key.space	n/a
76.245	0.067	152490	keystroke_g	g	n/a
76.3455	0.09	152691	keystroke_i	i	n/a
76.4695	0.0675	152939	keystroke_f	f	n/a
76.6835	0.0565	153367	keystroke_t	t	n/a
76.807	0.0785	153614	keystroke_Key.space	Key.space	n/a
77.325	0.0555	154650	keystroke_h	h	n/a
77.505	0.078	155010	keystroke_u	u	n/a
77.606	0.0565	155212	keystroke_r	r	n/a
77.752	0.0905	155504	keystroke_r	r	n/a
77.9775	0.078	155955	keystroke_i	i	n/a
78.067	0.101	156134	keystroke_c	c	n/a
78.213	0.09	156426	keystroke_a	a	n/a
78.3255	0.1465	156651	keystroke_n	n	n/a
78.472	0.0785	156944	keystroke_e	e	n/a
79.023	0.079	158046	keystroke_Key.space	Key.space	n/a
79.1695	0.079	158339	keystroke_a	a	n/a
79.2705	0.079	158541	keystroke_p	p	n/a
79.417	0.1235	158834	keystroke_p	p	n/a
79.642	0.1015	159284	keystroke_l	l	n/a
79.6765	0.1005	159353	keystroke_i	i	n/a
79.732	0.0785	159464	keystroke_c	c	n/a
79.8215	0.102	159643	keystroke_a	a	n/a
79.9465	0.1225	159893	keystroke_n	n	n/a
80.1035	0.1345	160207	keystroke_t	t	n/a
80.204	0.0795	160408	keystroke_s	s	n/a
80.384	0.0795	160768	keystroke_Key.enter	Key.enter	n/a
80.467	7.1185	160934	prompt	n/a	travelling holocaust stunning reading\n
81.194	0.09	162388	keystroke_t	t	n/a
81.3975	0.1005	162795	keystroke_r	r	n/a
81.4645	0.0785	162929	keystroke_a	a	n/a
81.622	0.1465	163244	keystroke_v	v	n/a
81.7565	0.0905	163513	keystroke_e	e	n/a
81.926	0.045	163852	keystroke_l	l	n/a
82.072	0.101	164144	keystroke_l	l	n/a
82.2295	0.09	164459	keystroke_i	i	n/a
82.286	0.113	164572	keystroke_n	n	n/a
82.399	0.0775	164798	keystroke_g	g	n/a
82.5215	0.0905	165043	keystroke_Key.space	Key.space	n/a
82.6685	0.0785	165337	keystroke_h	h	n/a
82.837	0.045	165674	keystroke_o	o	n/a
83.051	0.056	166102	keystroke_l	l	n/a
83.2085	0.0675	166417	keystroke_o	o	n/a
83.366	0.0895	166732	keystroke_c	c	n/a
83.4555	0.101	166911	keystroke_a	a	n/a
83.6245	0.1125	167249	keystroke_u	u	n/a
83.748	0.1575	167496	keystroke_s	s	n/a
83.894	0.068	167788	keystroke_t	t	n/a
84.0295	0.0895	168059	keystroke_Key.space	Key.space	n/a
84.1755	0.1235	168351	keystroke_s	s	n/a
84.3785	0.0335	168757	keystroke_t	t	n/a
84.479	0.079	168958	keystroke_r	r	n/a
84.648	0.1125	169296	keystroke_u	u	n/a
85.548	0.0345	171096	keystroke_Key.backspace	Key.backspace	n/a
85.683	0.09	171366	keystroke_Key.backspace	Key.backspace	n/a
85.9415	0.124	171883	keystroke_u	u	n/a
86.1455	0.0665	172291	keystroke_n	n	n/a
86.2905	0.09	172581	keystroke_n	n	n/a
86.482	0.09	172964	keystroke_i	i	n/a
86.527	0.102	173054	keystroke_n	n	n/a
86.6395	0.067	173279	keystroke_g	g	n/a
86.752	0.1235	173504	keystroke_Key.space	Key.space	n/a
86.91	0.146	173820	keystroke_r	r	n/a
86.988	0.079	173976	keystroke_e	e	n/a
87.0555	0.09	174111	keystroke_a	a	n/a
87.157	0.101	174314	keystroke_d	d	n/a
87.292	0.0785	174584	keystroke_i	i	n/a
87.3145	0.113	174629	keystroke_n	n	n/a
87.4045	0.0785	174809	keystroke_g	g	n/a
87.5055	0.079	175011	keystroke_Key.enter	Key.enter	n/a
87.591	5.0345	175182	prompt	n/a	brutal onto nelson nickel\n
88.4055	0.0785	176811	keystroke_b	b	n/a
88.664	0.034	177328	keystroke_r	r	n/a
88.754	0.0915	177508	keystroke_u	u	n/a
88.833	0.1015	177666	keystroke_t	t	n/a
88.934	0.079	177868	keystroke_a	a	n/a
89.0805	0.0335	178161	keystroke_l	l	n/a
89.1145	0.112	178229	keystroke_Key.space	Key.space	n/a
89.3955	0.102	178791	keystroke_o	o	n/a
89.4855	0.09	178971	keystroke_n	n	n/a
89.5875	0.078	179175	keystroke_t	t	n/a
89.6205	0.1125	179241	keystroke_o	o	n/a
89.913	0.09	179826	keystroke_Key.space	Key.space	n/a
90.273	0.068	180546	keystroke_n	n	n/a
90.329	0.0685	180658	keystroke_e	e	n/a
90.442	0.0785	180884	keystroke_l	l	n/a
90.5655	0.079	181131	keystroke_s	s	n/a
90.667	0.113	181334	keystroke_o	o	n/a
90.7345	0.1125	181469	keystroke_n	n	n/a
91.1055	0.1125	182211	keystroke_Key.space	Key.space	n/a
91.443	0.124	182886	keystroke_n	n	n/a
91.533	0.09	183066	keystroke_i	i	n/a
91.6455	0.1805	183291	keystroke_c	c	n/a
91.837	0.011	183674	keystroke_k	k	n/a
92.366	0.067	184732	keystroke_e	e	n/a
92.4215	0.068	184843	keystroke_l	l	n/a
92.5565	0.068	185113	keystroke_Key.enter	Key.enter	n/a
92.629	5.6545	185258	prompt	n/a	worst issues contributions followed\n
93.479	0.0675	186958	keystroke_w	w	n/a
93.514	0.1345	187028	keystroke_o	o	n/a
93.659	0.09	187318	keystroke_r	r	n/a
93.851	0.123	187702	keystroke_s	s	n/a
93.918	0.1235	187836	keystroke_t	t	n/a
94.076	0.09	188152	keystroke_Key.space	Key.space	n/a
94.2215	0.079	188443	keystroke_i	i	n/a
94.334	0.0565	188668	keystroke_s	s	n/a
94.458	0.101	188916	keystroke_s	s	n/a
94.6385	0.09	189277	keystroke_u	u	n/a
94.7285	0.0675	189457	keystroke_e	e	n/a
94.796	0.078	189592	keystroke_s	s	n/a
94.9415	0.1015	189883	keystroke_Key.space	Key.space	n/a
95.4255	0.09	190851	keystroke_c	c	n/a
95.4815	0.1015	190963	keystroke_o	o	n/a
95.5265	0.1465	191053	keystroke_n	n	n/a
95.651	0.067	191302	keystroke_t	t	n/a
95.842	0.079	191684	keystroke_r	r	n/a
95.954	0.102	191908	keystroke_i	i	n/a
96.044	0.0795	192088	keystroke_b	b	n/a
96.2015	0.1015	192403	keystroke_u	u	n/a
96.3255	0.0905	192651	keystroke_t	t	n/a
96.4835	0.18	192967	keystroke_i	i	n/a
96.539	0.1125	193078	keystroke_o	o	n/a
96.596	0.1005	193192	keystroke_n	n	n/a
96.708	0.068	193416	keystroke_s	s	n/a
96.8995	0.0895	193799	keystroke_Key.space	Key.space	n/a
97.079	0.102	194158	keystroke_f	f	n/a
97.169	0.0675	194338	keystroke_o	o	n/a
97.3385	0.0675	194677	keystroke_l	l	n/a
97.484	0.1015	194968	keystroke_l	l	n/a
97.6755	0.09	195351	keystroke_o	o	n/a
97.777	0.09	195554	keystroke_w	w	n/a
97.8665	0.101	195733	keystroke_e	e	n/a
98.0355	0.1125	196071	keystroke_d	d	n/a
98.204	0.079	196408	keystroke_Key.enter	Key.enter	n/a
98.2865	4.194	196573	prompt	n/a	tray ross judge essentials\n
99.003	0.0675	198006	keystroke_t	t	n/a
99.183	0.102	198366	keystroke_r	r	n/a
99.2505	0.09	198501	keystroke_a	a	n/a
99.3405	0.0445	198681	keystroke_y	y	n/a
99.3745	0.1235	198749	keystroke_Key.space	Key.space	n/a
99.5095	0.0785	199019	keystroke_r	r	n/a
99.6215	0.079	199243	keystroke_o	o	n/a
99.768	0.0455	199536	keystroke_s	s	n/a
99.914	0.079	199828	keystroke_s	s	n/a
100.038	0.1465	200076	keystroke_Key.space	Key.space	n/a
100.173	0.0675	200346	keystroke_j	j	n/a
100.3305	0.09	200661	keystroke_u	u	n/a
100.4095	0.123	200819	keystroke_d	d	n/a
100.646	0.1005	201292	keystroke_g	g	n/a
100.724	0.079	201448	keystroke_e	e	n/a
100.8595	0.1235	201719	keystroke_Key.space	Key.space	n/a
101.073	0.0905	202146	keystroke_e	e	n/a
101.2525	0.068	202505	keystroke_s	s	n/a
101.4215	0.1465	202843	keystroke_s	s	n/a
101.5565	0.09	203113	keystroke_e	e	n/a
101.714	0.101	203428	keystroke_n	n	n/a
101.804	0.0675	203608	keystroke_t	t	n/a
102.0065	0.045	204013	keystroke_i	i	n/a
102.0405	0.0785	204081	keystroke_a	a	n/a
102.164	0.1125	204328	keystroke_l	l	n/a
102.288	0.0335	204576	keystroke_s	s	n/a
102.412	0.0675	204824	keystroke_Key.enter	Key.enter	n/a
102.4835	6.9605	204967	prompt	n/a	size describes lawrence ground\n
103.199	0.0115	206398	keystroke_d	d	n/a
103.7055	0.045	207411	keystroke_Key.backspace	Key.backspace	n/a
103.829	0.1125	207658	keystroke_s	s	n/a
104.4485	0.0555	208897	keystroke_i	i	n/a
104.5155	0.1575	209031	keystroke_z	z	n/a
104.662	0.067	209324	keystroke_e	e	n/a
104.8865	0.034	209773	keystroke_Key.space	Key.space	n/a
105.0665	0.0675	210133	keystroke_d	d	n/a
105.224	0.0675	210448	keystroke_e	e	n/a
105.3255	0.1575	210651	keystroke_s	s	n/a
105.5955	0.1125	211191	keystroke_c	c	n/a
105.8205	0.0785	211641	keystroke_r	r	n/a
105.9445	0.1125	211889	keystroke_i	i	n/a
106.0125	0.0895	212025	keystroke_b	b	n/a
106.1805	0.079	212361	keystroke_e	e	n/a
106.383	0.079	212766	keystroke_d	d	n/a
106.7765	0.0675	213553	keystroke_Key.backspace	Key.backspace	n/a
106.8105	0.0675	213621	keystroke_s	s	n/a
106.878	0.1015	213756	keystroke_Key.space	Key.space	n/a
107.339	0.0905	214678	keystroke_l	l	n/a
107.6205	0.101	215241	keystroke_a	a	n/a
107.7105	0.1015	215421	keystroke_w	w	n/a
107.992	0.1465	215984	keystroke_r	r	n/a
108.1265	0.045	216253	keystroke_e	e	n/a
108.239	0.1125	216478	keystroke_n	n	n/a
108.363	0.079	216726	keystroke_c	c	n/a
108.599	0.09	217198	keystroke_e	e	n/a
108.701	0.09	217402	keystroke_Key.space	Key.space	n/a
108.7795	0.0445	217559	keystroke_g	g	n/a
108.9255	0.0905	217851	keystroke_r	r	n/a
109.004	0.1585	218008	keystroke_o	o	n/a
109.0495	0.1235	218099	keystroke_u	u	n/a
109.218	0.0785	218436	keystroke_n	n	n/a
109.308	0.0675	218616	keystroke_d	d	n/a
109.3865	0.0565	218773	keystroke_Key.enter	Key.enter	n/a
109.447	4.688	218894	prompt	n/a	sucking additions andorra sugar\n
110.1295	0.0785	220259	keystroke_s	s	n/a
110.2415	0.079	220483	keystroke_u	u	n/a
110.354	0.124	220708	keystroke_c	c	n/a
110.467	0.0785	220934	keystroke_k	k	n/a
110.647	0.067	221294	keystroke_i	i	n/a
110.669	0.09	221338	keystroke_n	n	n/a
110.725	0.0675	221450	keystroke_g	g	n/a
110.815	0.1125	221630	keystroke_Key.space	Key.space	n/a
110.9165	0.1355	221833	keystroke_a	a	n/a
111.0405	0.0445	222081	keystroke_d	d	n/a
111.2325	0.1005	222465	keystroke_d	d	n/a
111.4345	0.09	222869	keystroke_i	i	n/a
111.5805	0.079	223161	keystroke_t	t	n/a
111.6705	0.1575	223341	keystroke_i	i	n/a
111.7155	0.1015	223431	keystroke_o	o	n/a
111.7495	0.1125	223499	keystroke_n	n	n/a
111.8955	0.0565	223791	keystroke_s	s	n/a
112.008	0.0905	224016	keystroke_Key.space	Key.space	n/a
112.289	0.0115	224578	keystroke_a	a	n/a
112.3125	0.1005	224625	keystroke_n	n	n/a
112.425	0.1005	224850	keystroke_d	d	n/a
112.5595	0.056	225119	keystroke_o	o	n/a
112.7055	0.067	225411	keystroke_r	r	n/a
112.874	0.068	225748	keystroke_r	r	n/a
113.043	0.045	226086	keystroke_a	a	n/a
113.133	0.135	226266	keystroke_Key.space	Key.space	n/a
113.4255	0.0905	226851	keystroke_s	s	n/a
113.5715	0.079	227143	keystroke_u	u	n/a
113.628	0.101	227256	keystroke_g	g	n/a
113.808	0.1235	227616	keystroke_a	a	n/a
113.898	0.079	227796	keystroke_r	r	n/a
114.079	0.055	228158	keystroke_Key.enter	Key.enter	n/a
114.1385	5.2955	228277	prompt	n/a	erotica support marble killer\n
115.1915	0.09	230383	keystroke_e	e	n/a
115.439	0.1015	230878	keystroke_r	r	n/a
115.709	0.045	231418	keystroke_o	o	n/a
115.8215	0.0575	231643	keystroke_t	t	n/a
115.934	0.1125	231868	keystroke_i	i	n/a
116.0575	0.169	232115	keystroke_c	c	n/a
116.2155	0.0785	232431	keystroke_a	a	n/a
116.3055	0.101	232611	keystroke_Key.space	Key.space	n/a
116.474	0.0905	232948	keystroke_s	s	n/a
116.5755	0.09	233151	keystroke_u	u	n/a
116.654	0.0675	233308	keystroke_p	p	n/a
116.834	0.09	233668	keystroke_p	p	n/a
117.0815	0.0675	234163	keystroke_o	o	n/a
117.1385	0.1455	234277	keystroke_r	r	n/a
117.3515	0.09	234703	keystroke_t	t	n/a
117.453	0.101	234906	keystroke_Key.space	Key.space	n/a
117.6665	0.09	235333	keystroke_m	m	n/a
117.768	0.1125	235536	keystroke_a	a	n/a
117.8465	0.09	235693	keystroke_r	r	n/a
118.0605	0.0785	236121	keystroke_b	b	n/a
118.2065	0.0785	236413	keystroke_l	l	n/a
118.2965	0.09	236593	keystroke_e	e	n/a
118.4315	0.0785	236863	keystroke_Key.space	Key.space	n/a
118.544	0.1125	237088	keystroke_k	k	n/a
118.724	0.0565	237448	keystroke_i	i	n/a
118.915	0.034	237830	keystroke_l	l	n/a
119.0165	0.0795	238033	keystroke_l	l	n/a
119.1065	0.1015	238213	keystroke_e	e	n/a
119.174	0.1125	238348	keystroke_r	r	n/a
119.3765	0.0565	238753	keystroke_Key.enter	Key.enter	n/a
119.4365	4.3735	238873	prompt	n/a	police out seafood target\n
120.0515	0.1125	240103	keystroke_p	p	n/a
120.254	0.09	240508	keystroke_o	o	n/a
120.4565	0.135	240913	keystroke_l	l	n/a
120.5805	0.0895	241161	keystroke_i	i	n/a
120.6815	0.0785	241363	keystroke_c	c	n/a
120.9635	0.0555	241927	keystroke_e	e	n/a
121.0525	0.1465	242105	keystroke_Key.space	Key.space	n/a
121.233	0.1125	242466	keystroke_o	o	n/a
121.334	0.045	242668	keystroke_u	u	n/a
121.3565	0.0565	242713	keystroke_t	t	n/a
121.469	0.147	242938	keystroke_Key.space	Key.space	n/a
121.5365	0.146	243073	keystroke_s	s	n/a
121.649	0.124	243298	keystroke_e	e	n/a
121.7625	0.1	243525	keystroke_a	a	n/a
121.919	0.09	243838	keystroke_f	f	n/a
122.099	0.0565	244198	keystroke_o	o	n/a
122.234	0.101	244468	keystroke_o	o	n/a
122.3915	0.079	244783	keystroke_d	d	n/a
122.482	0.1345	244964	keystroke_Key.space	Key.space	n/a
122.7065	0.1015	245413	keystroke_t	t	n/a
122.8525	0.0905	245705	keystroke_a	a	n/a
122.898	0.1465	245796	keystroke_r	r	n/a
123.235	0.079	246470	keystroke_g	g	n/a
123.528	0.1235	247056	keystroke_e	e	n/a
123.5955	0.0895	247191	keystroke_t	t	n/a
123.719	0.09	247438	keystroke_Key.enter	Key.enter	n/a
123.8125	6.196	247625	prompt	n/a	providence plugin sequences algorithm\n
124.473	0.079	248946	keystroke_p	p	n/a
124.6195	0.0555	249239	keystroke_r	r	n/a
124.698	0.079	249396	keystroke_o	o	n/a
124.8445	0.0785	249689	keystroke_v	v	n/a
125.238	0.0895	250476	keystroke_i	i	n/a
125.373	0.0335	250746	keystroke_d	d	n/a
125.519	0.079	251038	keystroke_e	e	n/a
125.654	0.1125	251308	keystroke_n	n	n/a
125.8115	0.079	251623	keystroke_c	c	n/a
126.025	0.0795	252050	keystroke_e	e	n/a
126.115	0.1245	252230	keystroke_Key.space	Key.space	n/a
126.205	0.0675	252410	keystroke_p	p	n/a
126.363	0.0895	252726	keystroke_l	l	n/a
126.52	0.0905	253040	keystroke_u	u	n/a
126.655	0.102	253310	keystroke_g	g	n/a
126.813	0.101	253626	keystroke_i	i	n/a
126.88	0.135	253760	keystroke_n	n	n/a
127.0375	0.0905	254075	keystroke_Key.space	Key.space	n/a
127.2405	0.112	254481	keystroke_s	s	n/a
127.387	0.1455	254774	keystroke_e	e	n/a
127.555	0.0795	255110	keystroke_q	q	n/a
127.69	0.0795	255380	keystroke_u	u	n/a
127.8025	0.0795	255605	keystroke_e	e	n/a
127.904	0.101	255808	keystroke_n	n	n/a
128.0165	0.0675	256033	keystroke_c	c	n/a
128.242	0.0895	256484	keystroke_e	e	n/a
128.3315	0.1015	256663	keystroke_s	s	n/a
128.489	0.1355	256978	keystroke_Key.space	Key.space	n/a
128.6135	0.078	257227	keystroke_a	a	n/a
128.7025	0.068	257405	keystroke_l	l	n/a
128.8375	0.079	257675	keystroke_g	g	n/a
129.0065	0.0335	258013	keystroke_o	o	n/a
129.0515	0.1125	258103	keystroke_r	r	n/a
129.175	0.0565	258350	keystroke_i	i	n/a
129.254	0.0785	258508	keystroke_t	t	n/a
129.2875	0.0905	258575	keystroke_h	h	n/a
129.4905	0.1125	258981	keystroke_m	m	n/a
129.9405	0.067	259881	keystroke_Key.enter	Key.enter	n/a
130.0115	6.702	260023	prompt	n/a	steady voluntary courses massachusetts\n
130.7055	0.101	261411	keystroke_s	s	n/a
130.8175	0.1135	261635	keystroke_t	t	n/a
130.9195	0.0895	261839	keystroke_e	e	n/a
130.942	0.1685	261884	keystroke_a	a	n/a
131.099	0.057	262198	keystroke_d	d	n/a
131.167	0.067	262334	keystroke_y	y	n/a
131.223	0.101	262446	keystroke_Key.space	Key.space	n/a
131.4365	0.135	262873	keystroke_v	v	n/a
131.5155	0.067	263031	keystroke_o	o	n/a
131.673	0.1125	263346	keystroke_l	l	n/a
131.774	0.1025	263548	keystroke_u	u	n/a
131.9885	0.089	263977	keystroke_n	n	n/a
132.089	0.1125	264178	keystroke_t	t	n/a
132.3365	0.0565	264673	keystroke_a	a	n/a
132.3485	0.1005	264697	keystroke_r	r	n/a
132.5615	0.1125	265123	keystroke_y	y	n/a
132.663	0.1235	265326	keystroke_Key.space	Key.space	n/a
132.9215	0.09	265843	keystroke_c	c	n/a
133.023	0.1235	266046	keystroke_o	o	n/a
133.079	0.102	266158	keystroke_u	u	n/a
133.1805	0.0785	266361	keystroke_r	r	n/a
133.2815	0.135	266563	keystroke_s	s	n/a
133.3825	0.1015	266765	keystroke_e	e	n/a
133.5065	0.113	267013	keystroke_s	s	n/a
133.653	0.101	267306	keystroke_Key.space	Key.space	n/a
134.0465	0.09	268093	keystroke_m	m	n/a
134.3165	0.09	268633	keystroke_a	a	n/a
134.5305	0.0785	269061	keystroke_s	s	n/a
134.699	0.0785	269398	keystroke_s	s	n/a
134.823	0.0785	269646	keystroke_a	a	n/a
135.0365	0.079	270073	keystroke_c	c	n/a
135.1265	0.0675	270253	keystroke_h	h	n/a
135.284	0.09	270568	keystroke_u	u	n/a
135.3855	0.0785	270771	keystroke_s	s	n/a
135.6555	0.0335	271311	keystroke_e	e	n/a
135.79	0.068	271580	keystroke_t	t	n/a
135.9475	0.079	271895	keystroke_t	t	n/a
136.06	0.1125	272120	keystroke_s	s	n/a
136.634	0.0785	273268	keystroke_Key.enter	Key.enter	n/a
136.7165	10.494	273433	prompt	n/a	vitamin sees frankfurt axis\n
141.5165	0.0465	283033	keystroke_Key.esc	Key.esc	n/a
142.0565	0.09	284113	keystroke_v	v	n/a
142.158	0.067	284316	keystroke_i	i	n/a
142.2365	0.1015	284473	keystroke_t	t	n/a
142.338	0.0785	284676	keystroke_a	a	n/a
142.394	0.102	284788	keystroke_m	m	n/a
142.6535	0.0895	285307	keystroke_i	i	n/a
142.6865	0.1125	285373	keystroke_n	n	n/a
142.7765	0.079	285553	keystroke_Key.space	Key.space	n/a
142.923	0.101	285846	keystroke_s	s	n/a
143.0015	0.0675	286003	keystroke_e	e	n/a
143.1815	0.09	286363	keystroke_e	e	n/a
143.4855	0.0895	286971	keystroke_s	s	n/a
143.609	0.101	287218	keystroke_Key.space	Key.space	n/a
143.958	0.067	287916	keystroke_f	f	n/a
144.149	0.125	288298	keystroke_r	r	n/a
144.2615	0.035	288523	keystroke_a	a	n/a
144.284	0.135	288568	keystroke_n	n	n/a
144.34	0.1015	288680	keystroke_k	k	n/a
144.8355	0.056	289671	keystroke_f	f	n/a
145.038	0.0675	290076	keystroke_u	u	n/a
145.0715	0.09	290143	keystroke_r	r	n/a
145.263	0.0785	290526	keystroke_t	t	n/a
145.364	0.101	290728	keystroke_Key.space	Key.space	n/a
145.7015	0.113	291403	keystroke_a	a	n/a
145.904	0.09	291808	keystroke_x	x	n/a
146.0725	0.0905	292145	keystroke_i	i	n/a
146.1515	0.0785	292303	keystroke_s	s	n/a
146.2415	0.101	292483	keystroke_Key.space	Key.space	n/a
147.0515	0.0565	294103	keystroke_Key.backspace	Key.backspace	n/a
147.1305	0.079	294261	keystroke_Key.enter	Key.enter	n/a
147.214	8.411	294428	prompt	n/a	organizer shareware kingston annoying\n
147.94	0.079	295880	keystroke_o	o	n/a
148.0525	0.09	296105	keystroke_r	r	n/a
148.2665	0.146	296533	keystroke_g	g	n/a
148.4015	0.0675	296803	keystroke_a	a	n/a
148.4245	0.1005	296849	keystroke_n	n	n/a
149.11	0.0905	298220	keystroke_i	i	n/a
149.2115	0.09	298423	keystroke_z	z	n/a
149.4815	0.1125	298963	keystroke_e	e	n/a
149.538	0.09	299076	keystroke_r	r	n/a
149.673	0.067	299346	keystroke_Key.space	Key.space	n/a
149.774	0.1015	299548	keystroke_s	s	n/a
149.898	0.1685	299796	keystroke_h	h	n/a
149.9765	0.101	299953	keystroke_a	a	n/a
150.0325	0.1015	300065	keystroke_r	r	n/a
150.089	0.079	300178	keystroke_e	e	n/a
150.8425	0.1015	301685	keystroke_w	w	n/a
150.9325	0.079	301865	keystroke_a	a	n/a
150.9775	0.113	301955	keystroke_r	r	n/a
151.08	0.0775	302160	keystroke_e	e	n/a
151.2925	0.0565	302585	keystroke_Key.space	Key.space	n/a
152.069	0.079	304138	keystroke_k	k	n/a
152.283	0.1235	304566	keystroke_i	i	n/a
152.3165	0.135	304633	keystroke_n	n	n/a
152.4175	0.09	304835	keystroke_g	g	n/a
152.6655	0.0335	305331	keystroke_s	s	n/a
153.014	0.079	306028	keystroke_t	t	n/a
153.104	0.0785	306208	keystroke_o	o	n/a
153.149	0.1125	306298	keystroke_n	n	n/a
153.509	0.1465	307018	keystroke_Key.space	Key.space	n/a
153.824	0.1125	307648	keystroke_a	a	n/a
153.9485	0.213	307897	keystroke_n	n	n/a
154.465	0.09	308930	keystroke_n	n	n/a
154.724	0.1125	309448	keystroke_o	o	n/a
154.825	0.1015	309650	keystroke_y	y	n/a
155.1515	0.079	310303	keystroke_i	i	n/a
155.174	0.135	310348	keystroke_n	n	n/a
155.309	0.0565	310618	keystroke_g	g	n/a
155.5115	0.1125	311023	keystroke_Key.enter	Key.enter	n/a
155.63	5.9695	311260	prompt	n/a	why're championship pros tropical\n
156.389	0.0905	312778	keystroke_w	w	n/a
156.479	0.056	312958	keystroke_h	h	n/a
156.6815	0.0675	313363	keystroke_y	y	n/a
156.9515	0.079	313903	keystroke_'	'	n/a
157.019	0.1235	314038	keystroke_r	r	n/a
157.0755	0.0905	314151	keystroke_e	e	n/a
157.188	0.101	314376	keystroke_Key.space	Key.space	n/a
157.4805	0.1125	314961	keystroke_c	c	n/a
157.5815	0.1125	315163	keystroke_h	h	n/a
157.7165	0.09	315433	keystroke_a	a	n/a
157.9075	0.0675	315815	keystroke_m	m	n/a
158.2115	0.1235	316423	keystroke_p	p	n/a
158.504	0.0675	317008	keystroke_i	i	n/a
158.605	0.1125	317210	keystroke_o	o	n/a
158.7065	0.0675	317413	keystroke_n	n	n/a
158.965	0.1125	317930	keystroke_s	s	n/a
159.0665	0.135	318133	keystroke_h	h	n/a
159.1005	0.1235	318201	keystroke_i	i	n/a
159.213	0.0785	318426	keystroke_p	p	n/a
159.359	0.101	318718	keystroke_Key.space	Key.space	n/a
159.5725	0.091	319145	keystroke_p	p	n/a
159.6515	0.09	319303	keystroke_r	r	n/a
159.7975	0.068	319595	keystroke_o	o	n/a
159.8875	0.079	319775	keystroke_s	s	n/a
160.034	0.0795	320068	keystroke_Key.space	Key.space	n/a
160.259	0.1235	320518	keystroke_t	t	n/a
160.585	0.09	321170	keystroke_r	r	n/a
160.709	0.09	321418	keystroke_o	o	n/a
160.7655	0.0895	321531	keystroke_p	p	n/a
160.9565	0.09	321913	keystroke_i	i	n/a
161.0575	0.1245	322115	keystroke_c	c	n/a
161.17	0.079	322340	keystroke_a	a	n/a
161.2825	0.1015	322565	keystroke_l	l	n/a
161.564	0.034	323128	keystroke_Key.enter	Key.enter	n/a
161.6025	4.755	323205	prompt	n/a	firewall journal theory agent\n
162.284	0.079	324568	keystroke_f	f	n/a
162.475	0.1465	324950	keystroke_i	i	n/a
162.5765	0.068	325153	keystroke_r	r	n/a
162.6325	0.0795	325265	keystroke_e	e	n/a
163.072	0.123	326144	keystroke_w	w	n/a
163.1395	0.124	326279	keystroke_a	a	n/a
163.3865	0.0675	326773	keystroke_l	l	n/a
163.533	0.124	327066	keystroke_l	l	n/a
163.645	0.1125	327290	keystroke_Key.space	Key.space	n/a
163.7805	0.079	327561	keystroke_j	j	n/a
163.96	0.1575	327920	keystroke_o	o	n/a
164.005	0.158	328010	keystroke_u	u	n/a
164.174	0.0565	328348	keystroke_r	r	n/a
164.23	0.079	328460	keystroke_n	n	n/a
164.399	0.0675	328798	keystroke_a	a	n/a
164.512	0.101	329024	keystroke_l	l	n/a
164.6245	0.09	329249	keystroke_Key.space	Key.space	n/a
164.849	0.0675	329698	keystroke_t	t	n/a
164.9165	0.09	329833	keystroke_h	h	n/a
165.03	0.0775	330060	keystroke_e	e	n/a
165.097	0.1005	330194	keystroke_o	o	n/a
165.22	0.079	330440	keystroke_r	r	n/a
165.3105	0.101	330621	keystroke_y	y	n/a
165.3775	0.102	330755	keystroke_Key.space	Key.space	n/a
165.58	0.113	331160	keystroke_a	a	n/a
165.704	0.1015	331408	keystroke_g	g	n/a
165.8165	0.09	331633	keystroke_e	e	n/a
165.9515	0.1125	331903	keystroke_n	n	n/a
166.0415	0.079	332083	keystroke_t	t	n/a
166.2665	0.09	332533	keystroke_Key.enter	Key.enter	n/a
166.3605	4.733	332721	prompt	n/a	infected applying generic clarke\n
166.9415	0.09	333883	keystroke_i	i	n/a
166.976	0.123	333952	keystroke_n	n	n/a
167.043	0.0895	334086	keystroke_f	f	n/a
167.2115	0.056	334423	keystroke_e	e	n/a
167.414	0.056	334828	keystroke_c	c	n/a
167.5825	0.1125	335165	keystroke_t	t	n/a
167.6165	0.09	335233	keystroke_e	e	n/a
167.8185	0.1015	335637	keystroke_d	d	n/a
167.9205	0.0895	335841	keystroke_Key.space	Key.space	n/a
168.0215	0.0675	336043	keystroke_a	a	n/a
168.1	0.0795	336200	keystroke_p	p	n/a
168.235	0.09	336470	keystroke_p	p	n/a
168.4725	0.1115	336945	keystroke_l	l	n/a
168.5725	0.1125	337145	keystroke_y	y	n/a
168.82	0.09	337640	keystroke_i	i	n/a
168.854	0.1235	337708	keystroke_n	n	n/a
168.9665	0.101	337933	keystroke_g	g	n/a
169.0785	0.079	338157	keystroke_Key.space	Key.space	n/a
169.1805	0.1345	338361	keystroke_g	g	n/a
169.405	0.0675	338810	keystroke_e	e	n/a
169.484	0.1015	338968	keystroke_n	n	n/a
169.574	0.1355	339148	keystroke_e	e	n/a
169.675	0.0905	339350	keystroke_r	r	n/a
169.81	0.0905	339620	keystroke_i	i	n/a
169.934	0.079	339868	keystroke_c	c	n/a
170.047	0.112	340094	keystroke_Key.space	Key.space	n/a
170.317	0.0895	340634	keystroke_c	c	n/a
170.429	0.101	340858	keystroke_l	l	n/a
170.542	0.168	341084	keystroke_a	a	n/a
170.62	0.1015	341240	keystroke_r	r	n/a
170.733	0.101	341466	keystroke_k	k	n/a
170.8225	0.0905	341645	keystroke_e	e	n/a
170.98	0.1125	341960	keystroke_Key.enter	Key.enter	n/a
171.0965	5.4305	342193	prompt	n/a	adjust releases looks source\n
171.655	0.169	343310	keystroke_a	a	n/a
171.813	0.101	343626	keystroke_d	d	n/a
171.97	0.079	343940	keystroke_j	j	n/a
172.15	0.135	344300	keystroke_u	u	n/a
172.229	0.135	344458	keystroke_s	s	n/a
172.296	0.079	344592	keystroke_t	t	n/a
172.4535	0.102	344907	keystroke_Key.space	Key.space	n/a
172.926	0.124	345852	keystroke_r	r	n/a
172.9605	0.1005	345921	keystroke_e	e	n/a
173.1175	0.0785	346235	keystroke_l	l	n/a
173.241	0.1125	346482	keystroke_e	e	n/a
173.3655	0.135	346731	keystroke_a	a	n/a
173.4885	0.125	346977	keystroke_s	s	n/a
173.5795	0.123	347159	keystroke_e	e	n/a
173.849	0.1015	347698	keystroke_d	d	n/a
174.445	0.079	348890	keystroke_Key.backspace	Key.backspace	n/a
174.513	0.0675	349026	keystroke_s	s	n/a
174.67	0.0785	349340	keystroke_Key.space	Key.space	n/a
174.929	0.101	349858	keystroke_l	l	n/a
175.1425	0.011	350285	keystroke_o	o	n/a
175.244	0.0895	350488	keystroke_o	o	n/a
175.3565	0.079	350713	keystroke_k	k	n/a
175.458	0.0785	350916	keystroke_s	s	n/a
175.5705	0.101	351141	keystroke_Key.space	Key.space	n/a
175.716	0.09	351432	keystroke_s	s	n/a
175.84	0.113	351680	keystroke_o	o	n/a
175.908	0.101	351816	keystroke_u	u	n/a
175.998	0.078	351996	keystroke_r	r	n/a
176.1775	0.0675	352355	keystroke_c	c	n/a
176.391	0.0115	352782	keystroke_e	e	n/a
176.4585	0.0675	352917	keystroke_Key.enter	Key.enter	n/a
176.53	6.4675	353060	prompt	n/a	operational rhythm phantom comparison\n
177.2465	0.0895	354493	keystroke_o	o	n/a
177.3025	0.101	354605	keystroke_p	p	n/a
177.4155	0.135	354831	keystroke_e	e	n/a
177.494	0.136	354988	keystroke_r	r	n/a
177.6405	0.0905	355281	keystroke_a	a	n/a
177.7185	0.09	355437	keystroke_t	t	n/a
177.8315	0.112	355663	keystroke_i	i	n/a
177.8655	0.067	355731	keystroke_o	o	n/a
177.921	0.113	355842	keystroke_n	n	n/a
178.034	0.079	356068	keystroke_a	a	n/a
178.135	0.113	356270	keystroke_l	l	n/a
178.236	0.102	356472	keystroke_Key.space	Key.space	n/a
178.506	0.091	357012	keystroke_r	r	n/a
178.5855	0.1125	357171	keystroke_h	h	n/a
178.765	0.09	357530	keystroke_y	y	n/a
178.923	0.078	357846	keystroke_t	t	n/a
179.0135	0.089	358027	keystroke_h	h	n/a
179.2155	0.078	358431	keystroke_m	m	n/a
179.496	0.045	358992	keystroke_Key.space	Key.space	n/a
179.766	0.0905	359532	keystroke_p	p	n/a
179.845	0.09	359690	keystroke_h	h	n/a
179.9575	0.09	359915	keystroke_a	a	n/a
180.0585	0.079	360117	keystroke_n	n	n/a
180.205	0.0785	360410	keystroke_t	t	n/a
180.306	0.1015	360612	keystroke_o	o	n/a
180.374	0.1015	360748	keystroke_m	m	n/a
180.588	0.123	361176	keystroke_Key.space	Key.space	n/a
180.858	0.09	361716	keystroke_c	c	n/a
180.936	0.102	361872	keystroke_o	o	n/a
180.993	0.1455	361986	keystroke_m	m	n/a
181.1055	0.112	362211	keystroke_p	p	n/a
181.4655	0.1005	362931	keystroke_a	a	n/a
181.7685	0.0565	363537	keystroke_s	s	n/a
182.2185	0.0795	364437	keystroke_Key.backspace	Key.backspace	n/a
182.286	0.057	364572	keystroke_r	r	n/a
182.523	0.0105	365046	keystroke_i	i	n/a
182.5455	0.0445	365091	keystroke_s	s	n/a
182.6575	0.1015	365315	keystroke_o	o	n/a
182.725	0.101	365450	keystroke_n	n	n/a
182.928	0.0675	365856	keystroke_Key.enter	Key.enter	n/a
183.001	5.687	366002	prompt	n/a	ntsc reel motivation hypothetical\n
183.906	0.09	367812	keystroke_n	n	n/a
184.008	0.1005	368016	keystroke_t	t	n/a
184.176	0.0675	368352	keystroke_s	s	n/a
184.356	0.0675	368712	keystroke_c	c	n/a
184.4685	0.124	368937	keystroke_Key.space	Key.space	n/a
184.66	0.09	369320	keystroke_r	r	n/a
184.7275	0.0785	369455	keystroke_e	e	n/a
184.9185	0.0675	369837	keystroke_e	e	n/a
185.009	0.1235	370018	keystroke_l	l	n/a
185.11	0.09	370220	keystroke_Key.space	Key.space	n/a
185.313	0.157	370626	keystroke_m	m	n/a
185.4025	0.1015	370805	keystroke_o	o	n/a
185.56	0.0675	371120	keystroke_t	t	n/a
185.695	0.079	371390	keystroke_i	i	n/a
185.797	0.1455	371594	keystroke_v	v	n/a
185.9985	0.113	371997	keystroke_a	a	n/a
186.0775	0.09	372155	keystroke_t	t	n/a
186.1795	0.123	372359	keystroke_i	i	n/a
186.213	0.067	372426	keystroke_o	o	n/a
186.2575	0.124	372515	keystroke_n	n	n/a
186.336	0.09	372672	keystroke_Key.space	Key.space	n/a
186.5725	0.0675	373145	keystroke_h	h	n/a
186.7865	0.09	373573	keystroke_y	y	n/a
186.944	0.112	373888	keystroke_p	p	n/a
187.0225	0.101	374045	keystroke_o	o	n/a
187.2475	0.0675	374495	keystroke_t	t	n/a
187.3265	0.0785	374653	keystroke_h	h	n/a
187.4165	0.0785	374833	keystroke_e	e	n/a
187.776	0.124	375552	keystroke_t	t	n/a
187.934	0.0675	375868	keystroke_i	i	n/a
188.1025	0.124	376205	keystroke_c	c	n/a
188.1925	0.09	376385	keystroke_a	a	n/a
188.35	0.0895	376700	keystroke_l	l	n/a
188.62	0.0675	377240	keystroke_Key.enter	Key.enter	n/a
188.691	7.5795	377382	prompt	n/a	specials macintosh philippines pairs\n
189.3175	0.1125	378635	keystroke_s	s	n/a
189.464	0.101	378928	keystroke_p	p	n/a
189.5765	0.0785	379153	keystroke_e	e	n/a
189.7795	0.112	379559	keystroke_c	c	n/a
189.8575	0.0785	379715	keystroke_i	i	n/a
190.015	0.0565	380030	keystroke_a	a	n/a
190.105	0.112	380210	keystroke_l	l	n/a
190.24	0.0785	380480	keystroke_s	s	n/a
190.352	0.09	380704	keystroke_Key.space	Key.space	n/a
190.465	0.1015	380930	keystroke_m	m	n/a
190.5665	0.0675	381133	keystroke_a	a	n/a
190.713	0.089	381426	keystroke_c	c	n/a
190.848	0.123	381696	keystroke_i	i	n/a
190.9035	0.101	381807	keystroke_n	n	n/a
191.0615	0.078	382123	keystroke_t	t	n/a
191.207	0.1125	382414	keystroke_o	o	n/a
191.342	0.0675	382684	keystroke_s	s	n/a
191.4665	0.112	382933	keystroke_h	h	n/a
191.5565	0.101	383113	keystroke_Key.space	Key.space	n/a
191.8715	0.056	383743	keystroke_h	h	n/a
192.242	0.1125	384484	keystroke_Key.backspace	Key.backspace	n/a
192.4675	0.0895	384935	keystroke_p	p	n/a
192.569	0.0785	385138	keystroke_h	h	n/a
192.7265	0.0895	385453	keystroke_i	i	n/a
192.9285	0.0565	385857	keystroke_l	l	n/a
193.086	0.09	386172	keystroke_l	l	n/a
194.031	0.0565	388062	keystroke_Key.backspace	Key.backspace	n/a
194.267	0.0565	388534	keystroke_i	i	n/a
194.5035	0.079	389007	keystroke_p	p	n/a
194.6945	0.124	389389	keystroke_p	p	n/a
195.156	0.1015	390312	keystroke_i	i	n/a
195.201	0.135	390402	keystroke_n	n	n/a
195.2805	0.112	390561	keystroke_e	e	n/a
195.381	0.0785	390762	keystroke_s	s	n/a
195.5275	0.09	391055	keystroke_Key.space	Key.space	n/a
195.7075	0.0675	391415	keystroke_p	p	n/a
195.7745	0.0905	391549	keystroke_a	a	n/a
195.8985	0.1015	391797	keystroke_i	i	n/a
195.9775	0.101	391955	keystroke_r	r	n/a
196.067	0.09	392134	keystroke_s	s	n/a
196.202	0.0675	392404	keystroke_Key.enter	Key.enter	n/a
196.2735	4.722	392547	prompt	n/a	objects appears pack connector\n
196.922	0.1805	393844	keystroke_o	o	n/a
197.192	0.0675	394384	keystroke_b	b	n/a
197.316	0.101	394632	keystroke_j	j	n/a
197.4285	0.056	394857	keystroke_e	e	n/a
197.609	0.078	395218	keystroke_c	c	n/a
197.7435	0.1125	395487	keystroke_t	t	n/a
197.8445	0.079	395689	keystroke_s	s	n/a
197.9465	0.1235	395893	keystroke_Key.space	Key.space	n/a
198.2615	0.0105	396523	keystroke_a	a	n/a
198.2835	0.0335	396567	keystroke_p	p	n/a
198.4185	0.1125	396837	keystroke_p	p	n/a
198.542	0.079	397084	keystroke_e	e	n/a
198.587	0.169	397174	keystroke_a	a	n/a
198.722	0.135	397444	keystroke_r	r	n/a
198.8685	0.0675	397737	keystroke_s	s	n/a
199.015	0.0675	398030	keystroke_Key.space	Key.space	n/a
199.1385	0.135	398277	keystroke_p	p	n/a
199.285	0.0335	398570	keystroke_a	a	n/a
199.4085	0.09	398817	keystroke_c	c	n/a
199.544	0.112	399088	keystroke_k	k	n/a
199.6	0.1345	399200	keystroke_Key.space	Key.space	n/a
199.7465	0.0675	399493	keystroke_c	c	n/a
199.8245	0.1015	399649	keystroke_o	o	n/a
199.881	0.0785	399762	keystroke_n	n	n/a
200.027	0.113	400054	keystroke_n	n	n/a
200.117	0.09	400234	keystroke_e	e	n/a
200.3315	0.0895	400663	keystroke_c	c	n/a
200.4665	0.168	400933	keystroke_t	t	n/a
200.6685	0.113	401337	keystroke_o	o	n/a
200.7695	0.102	401539	keystroke_r	r	n/a
200.9165	0.0785	401833	keystroke_Key.enter	Key.enter	n/a
200.9985	5.5665	401997	prompt	n/a	artistic travels litigation venues\n
201.614	0.1345	403228	keystroke_a	a	n/a
201.726	0.09	403452	keystroke_r	r	n/a
201.9285	0.0795	403857	keystroke_t	t	n/a
202.03	0.09	404060	keystroke_i	i	n/a
202.1315	0.1345	404263	keystroke_s	s	n/a
202.2435	0.0795	404487	keystroke_t	t	n/a
202.3785	0.1015	404757	keystroke_i	i	n/a
202.491	0.0785	404982	keystroke_c	c	n/a
202.6485	0.1125	405297	keystroke_Key.space	Key.space	n/a
202.806	0.079	405612	keystroke_t	t	n/a
202.9975	0.1125	405995	keystroke_r	r	n/a
203.087	0.0905	406174	keystroke_a	a	n/a
203.313	0.1115	406626	keystroke_v	v	n/a
203.4585	0.079	406917	keystroke_e	e	n/a
203.5935	0.0905	407187	keystroke_l	l	n/a
203.717	0.0795	407434	keystroke_s	s	n/a
203.8185	0.135	407637	keystroke_Key.space	Key.space	n/a
203.965	0.1125	407930	keystroke_l	l	n/a
204.032	0.1015	408064	keystroke_i	i	n/a
204.145	0.1685	408290	keystroke_t	t	n/a
204.505	0.1125	409010	keystroke_i	i	n/a
204.8085	0.09	409617	keystroke_g	g	n/a
205	0.1235	410000	keystroke_a	a	n/a
205.0905	0.078	410181	keystroke_t	t	n/a
205.214	0.1685	410428	keystroke_i	i	n/a
205.2585	0.1015	410517	keystroke_o	o	n/a
205.326	0.1125	410652	keystroke_n	n	n/a
205.405	0.112	410810	keystroke_Key.space	Key.space	n/a
205.6525	0.157	411305	keystroke_v	v	n/a
205.821	0.0565	411642	keystroke_e	e	n/a
205.934	0.056	411868	keystroke_n	n	n/a
206.1135	0.113	412227	keystroke_u	u	n/a
206.237	0.113	412474	keystroke_e	e	n/a
206.3385	0.101	412677	keystroke_s	s	n/a
206.462	0.102	412924	keystroke_Key.enter	Key.enter	n/a
206.5675	5.543	413135	prompt	n/a	instructions retail hampshire tiny\n
207.34	0.09	414680	keystroke_i	i	n/a
207.3515	0.1685	414703	keystroke_n	n	n/a
207.464	0.0785	414928	keystroke_s	s	n/a
207.5315	0.0445	415063	keystroke_t	t	n/a
207.6995	0.0345	415399	keystroke_r	r	n/a
207.767	0.113	415534	keystroke_u	u	n/a
207.8915	0.101	415783	keystroke_c	c	n/a
208.071	0.09	416142	keystroke_t	t	n/a
208.15	0.1465	416300	keystroke_i	i	n/a
208.195	0.0785	416390	keystroke_o	o	n/a
208.24	0.101	416480	keystroke_n	n	n/a
208.3745	0.0565	416749	keystroke_s	s	n/a
208.487	0.1125	416974	keystroke_Key.space	Key.space	n/a
208.667	0.1135	417334	keystroke_r	r	n/a
208.7685	0.0675	417537	keystroke_e	e	n/a
208.971	0.079	417942	keystroke_t	t	n/a
209.073	0.078	418146	keystroke_a	a	n/a
209.1735	0.18	418347	keystroke_i	i	n/a
209.241	0.09	418482	keystroke_l	l	n/a
209.3655	0.078	418731	keystroke_Key.space	Key.space	n/a
209.511	0.0675	419022	keystroke_h	h	n/a
209.6805	0.0675	419361	keystroke_e	e	n/a
210.2085	0.113	420417	keystroke_Key.backspace	Key.backspace	n/a
210.3215	0.056	420643	keystroke_a	a	n/a
210.4115	0.078	420823	keystroke_m	m	n/a
210.5465	0.0785	421093	keystroke_p	p	n/a
210.9735	0.09	421947	keystroke_s	s	n/a
211.075	0.101	422150	keystroke_h	h	n/a
211.0975	0.1235	422195	keystroke_i	i	n/a
211.1985	0.1125	422397	keystroke_r	r	n/a
211.2545	0.0905	422509	keystroke_e	e	n/a
211.3895	0.091	422779	keystroke_Key.space	Key.space	n/a
211.548	0.0555	423096	keystroke_t	t	n/a
211.6375	0.1125	423275	keystroke_i	i	n/a
211.6825	0.101	423365	keystroke_n	n	n/a
211.9075	0.0675	423815	keystroke_y	y	n/a
212.042	0.0675	424084	keystroke_Key.enter	Key.enter	n/a
212.114	6.2515	424228	prompt	n/a	payable investigate bolt consistency\n
212.898	0.112	425796	keystroke_p	p	n/a
212.9535	0.0675	425907	keystroke_a	a	n/a
213.089	0.078	426178	keystroke_y	y	n/a
213.269	0.146	426538	keystroke_a	a	n/a
213.381	0.1355	426762	keystroke_b	b	n/a
213.8425	0.056	427685	keystroke_l	l	n/a
213.933	0.044	427866	keystroke_e	e	n/a
213.9885	0.0785	427977	keystroke_Key.space	Key.space	n/a
214.169	0.1005	428338	keystroke_i	i	n/a
214.2135	0.1235	428427	keystroke_n	n	n/a
214.3595	0.1125	428719	keystroke_v	v	n/a
214.4945	0.136	428989	keystroke_e	e	n/a
214.664	0.146	429328	keystroke_s	s	n/a
214.7985	0.0455	429597	keystroke_t	t	n/a
214.922	0.0795	429844	keystroke_i	i	n/a
215.0465	0.113	430093	keystroke_g	g	n/a
215.147	0.135	430294	keystroke_a	a	n/a
215.2595	0.135	430519	keystroke_t	t	n/a
215.3615	0.1005	430723	keystroke_e	e	n/a
215.519	0.1235	431038	keystroke_Key.space	Key.space	n/a
216.227	0.068	432454	keystroke_b	b	n/a
216.2835	0.0675	432567	keystroke_o	o	n/a
216.4635	0.09	432927	keystroke_l	l	n/a
216.5535	0.045	433107	keystroke_t	t	n/a
216.61	0.112	433220	keystroke_Key.space	Key.space	n/a
216.801	0.09	433602	keystroke_c	c	n/a
216.88	0.067	433760	keystroke_o	o	n/a
216.902	0.113	433804	keystroke_n	n	n/a
217.0265	0.078	434053	keystroke_s	s	n/a
217.161	0.09	434322	keystroke_i	i	n/a
217.285	0.1345	434570	keystroke_s	s	n/a
217.42	0.101	434840	keystroke_t	t	n/a
217.5325	0.101	435065	keystroke_e	e	n/a
217.6445	0.1465	435289	keystroke_n	n	n/a
217.881	0.0565	435762	keystroke_c	c	n/a
217.9935	0.09	435987	keystroke_y	y	n/a
218.331	0.0335	436662	keystroke_Key.enter	Key.enter	n/a
218.3685	6.0045	436737	prompt	n/a	fruits historic gregory louis\n
218.9835	0.0675	437967	keystroke_f	f	n/a
219.1745	0.1015	438349	keystroke_u	u	n/a
219.5235	0.1125	439047	keystroke_Key.backspace	Key.backspace	n/a
219.6475	0.0335	439295	keystroke_r	r	n/a
219.6925	0.1235	439385	keystroke_u	u	n/a
219.7485	0.09	439497	keystroke_i	i	n/a
219.8275	0.135	439655	keystroke_t	t	n/a
219.9285	0.09	439857	keystroke_s	s	n/a
220.075	0.101	440150	keystroke_Key.space	Key.space	n/a
220.2885	0.1125	440577	keystroke_h	h	n/a
220.3225	0.101	440645	keystroke_i	i	n/a
220.435	0.1235	440870	keystroke_s	s	n/a
220.491	0.1015	440982	keystroke_t	t	n/a
220.6485	0.0565	441297	keystroke_o	o	n/a
220.6825	0.0785	441365	keystroke_r	r	n/a
220.806	0.09	441612	keystroke_i	i	n/a
220.9075	0.0785	441815	keystroke_c	c	n/a
221.0535	0.09	442107	keystroke_Key.space	Key.space	n/a
221.38	0.101	442760	keystroke_g	g	n/a
221.571	0.1015	443142	keystroke_e	e	n/a
221.661	0.045	443322	keystroke_r	r	n/a
221.8975	0.045	443795	keystroke_Key.backspace	Key.backspace	n/a
222.032	0.068	444064	keystroke_Key.backspace	Key.backspace	n/a
222.123	0.1455	444246	keystroke_r	r	n/a
222.2125	0.0675	444425	keystroke_e	e	n/a
222.3585	0.0675	444717	keystroke_g	g	n/a
222.471	0.09	444942	keystroke_o	o	n/a
222.5725	0.0785	445145	keystroke_r	r	n/a
222.685	0.101	445370	keystroke_y	y	n/a
222.775	0.0785	445550	keystroke_Key.space	Key.space	n/a
223.281	0.045	446562	keystroke_l	l	n/a
223.8095	0.079	447619	keystroke_o	o	n/a
223.855	0.1465	447710	keystroke_u	u	n/a
223.9895	0.1015	447979	keystroke_i	i	n/a
224.147	0.0675	448294	keystroke_s	s	n/a
224.2935	0.0785	448587	keystroke_Key.enter	Key.enter	n/a
224.3755	7.58	448751	prompt	n/a	demographic athens entirely qualities\n
224.9235	0.09	449847	keystroke_d	d	n/a
225.1145	0.1015	450229	keystroke_e	e	n/a
225.205	0.146	450410	keystroke_m	m	n/a
225.2495	0.09	450499	keystroke_o	o	n/a
225.531	0.09	451062	keystroke_g	g	n/a
225.7795	0.1115	451559	keystroke_r	r	n/a
226.8695	0.09	453739	keystroke_a	a	n/a
226.971	0.146	453942	keystroke_p	p	n/a
227.05	0.1345	454100	keystroke_h	h	n/a
227.1395	0.1125	454279	keystroke_i	i	n/a
227.3195	0.0565	454639	keystroke_c	c	n/a
227.4325	0.1345	454865	keystroke_Key.space	Key.space	n/a
227.647	0.112	455294	keystroke_a	a	n/a
227.7695	0.135	455539	keystroke_t	t	n/a
227.9165	0.078	455833	keystroke_h	h	n/a
228.006	0.101	456012	keystroke_e	e	n/a
228.1185	0.1235	456237	keystroke_n	n	n/a
228.254	0.0555	456508	keystroke_s	s	n/a
228.422	0.1125	456844	keystroke_Key.space	Key.space	n/a
228.647	0.034	457294	keystroke_e	e	n/a
228.737	0.0675	457474	keystroke_n	n	n/a
229.2545	0.1125	458509	keystroke_t	t	n/a
229.457	0.068	458914	keystroke_i	i	n/a
229.514	0.135	459028	keystroke_r	r	n/a
229.5815	0.1005	459163	keystroke_e	e	n/a
229.739	0.135	459478	keystroke_l	l	n/a
229.84	0.0905	459680	keystroke_y	y	n/a
229.907	0.09	459814	keystroke_Key.space	Key.space	n/a
230.3345	0.0675	460669	keystroke_q	q	n/a
230.4695	0.057	460939	keystroke_u	u	n/a
230.5715	0.0895	461143	keystroke_a	a	n/a
230.6945	0.1125	461389	keystroke_l	l	n/a
231.3135	0.0675	462627	keystroke_i	i	n/a
231.392	0.0565	462784	keystroke_t	t	n/a
231.482	0.1125	462964	keystroke_i	i	n/a
231.606	0.1125	463212	keystroke_e	e	n/a
231.7185	0.0675	463437	keystroke_s	s	n/a
231.876	0.0785	463752	keystroke_Key.enter	Key.enter	n/a
231.9605	6.0925	463921	prompt	n/a	clothes ipaq cheese airline\n
232.619	0.1015	465238	keystroke_c	c	n/a
232.7085	0.0675	465417	keystroke_l	l	n/a
232.8885	0.09	465777	keystroke_o	o	n/a
232.9905	0.1005	465981	keystroke_t	t	n/a
233.102	0.1465	466204	keystroke_h	h	n/a
233.181	0.113	466362	keystroke_e	e	n/a
233.2825	0.0675	466565	keystroke_s	s	n/a
233.406	0.1125	466812	keystroke_Key.space	Key.space	n/a
233.6535	0.1125	467307	keystroke_i	i	n/a
233.744	0.0895	467488	keystroke_p	p	n/a
234.7335	0.0675	469467	keystroke_a	a	n/a
235.2285	0.0455	470457	keystroke_q	q	n/a
235.5995	0.0795	471199	keystroke_Key.space	Key.space	n/a
235.8475	0.0895	471695	keystroke_c	c	n/a
235.949	0.1125	471898	keystroke_h	h	n/a
236.0615	0.078	472123	keystroke_e	e	n/a
236.241	0.1125	472482	keystroke_e	e	n/a
236.4095	0.1245	472819	keystroke_s	s	n/a
236.522	0.09	473044	keystroke_e	e	n/a
236.624	0.078	473248	keystroke_Key.space	Key.space	n/a
236.736	0.1235	473472	keystroke_a	a	n/a
236.8715	0.09	473743	keystroke_i	i	n/a
236.9835	0.0785	473967	keystroke_r	r	n/a
237.152	0.1125	474304	keystroke_l	l	n/a
237.4	0.124	474800	keystroke_i	i	n/a
237.512	0.1125	475024	keystroke_n	n	n/a
237.681	0.045	475362	keystroke_e	e	n/a
237.9735	0.0785	475947	keystroke_Key.enter	Key.enter	n/a
238.0555	4.486	476111	prompt	n/a	festival textbooks operations by\n
238.671	0.101	477342	keystroke_f	f	n/a
238.7945	0.18	477589	keystroke_e	e	n/a
238.952	0.1015	477904	keystroke_s	s	n/a
239.0195	0.09	478039	keystroke_t	t	n/a
239.1435	0.1125	478287	keystroke_i	i	n/a
239.256	0.135	478512	keystroke_v	v	n/a
239.357	0.079	478714	keystroke_a	a	n/a
239.4585	0.1125	478917	keystroke_l	l	n/a
239.537	0.135	479074	keystroke_Key.space	Key.space	n/a
239.6945	0.124	479389	keystroke_t	t	n/a
239.7845	0.09	479569	keystroke_e	e	n/a
240.0435	0.079	480087	keystroke_x	x	n/a
240.077	0.1015	480154	keystroke_t	t	n/a
240.347	0.09	480694	keystroke_b	b	n/a
240.482	0.0675	480964	keystroke_o	o	n/a
240.6845	0.101	481369	keystroke_o	o	n/a
240.7745	0.1125	481549	keystroke_k	k	n/a
240.9095	0.1015	481819	keystroke_s	s	n/a
241.0445	0.09	482089	keystroke_Key.space	Key.space	n/a
241.191	0.101	482382	keystroke_o	o	n/a
241.2585	0.112	482517	keystroke_p	p	n/a
241.349	0.1345	482698	keystroke_e	e	n/a
241.427	0.1805	482854	keystroke_r	r	n/a
241.6185	0.0795	483237	keystroke_a	a	n/a
241.686	0.0565	483372	keystroke_t	t	n/a
241.7315	0.146	483463	keystroke_i	i	n/a
241.7755	0.1025	483551	keystroke_o	o	n/a
241.832	0.1015	483664	keystroke_n	n	n/a
241.934	0.056	483868	keystroke_s	s	n/a
242.023	0.102	484046	keystroke_Key.space	Key.space	n/a
242.1695	0.0905	484339	keystroke_b	b	n/a
242.293	0.102	484586	keystroke_y	y	n/a
242.4395	0.101	484879	keystroke_Key.enter	Key.enter	n/a
242.5445	4.4865	485089	prompt	n/a	textbooks emily clark tribe\n
243.3395	0.1125	486679	keystroke_t	t	n/a
243.4185	0.0785	486837	keystroke_e	e	n/a
243.621	0.1235	487242	keystroke_x	x	n/a
243.7105	0.068	487421	keystroke_t	t	n/a
243.9355	0.057	487871	keystroke_b	b	n/a
244.026	0.056	488052	keystroke_o	o	n/a
244.161	0.135	488322	keystroke_o	o	n/a
244.2625	0.135	488525	keystroke_k	k	n/a
244.408	0.1125	488816	keystroke_s	s	n/a
244.543	0.1125	489086	keystroke_Key.space	Key.space	n/a
244.6895	0.0785	489379	keystroke_e	e	n/a
244.802	0.1355	489604	keystroke_m	m	n/a
244.9255	0.102	489851	keystroke_i	i	n/a
245.0605	0.147	490121	keystroke_l	l	n/a
245.1625	0.101	490325	keystroke_y	y	n/a
245.2635	0.0785	490527	keystroke_Key.space	Key.space	n/a
245.4095	0.113	490819	keystroke_c	c	n/a
245.5555	0.0905	491111	keystroke_l	l	n/a
245.6805	0.123	491361	keystroke_a	a	n/a
245.748	0.1	491496	keystroke_r	r	n/a
245.893	0.1465	491786	keystroke_k	k	n/a
246.006	0.1015	492012	keystroke_Key.space	Key.space	n/a
246.2645	0.0565	492529	keystroke_t	t	n/a
246.4445	0.0785	492889	keystroke_r	r	n/a
246.5455	0.124	493091	keystroke_i	i	n/a
246.6585	0.101	493317	keystroke_b	b	n/a
246.8155	0.079	493631	keystroke_e	e	n/a
246.951	0.0785	493902	keystroke_Key.enter	Key.enter	n/a
247.0345	6.9595	494069	prompt	n/a	injection competitions levels short\n
247.772	0.101	495544	keystroke_i	i	n/a
247.828	0.0565	495656	keystroke_n	n	n/a
248.098	0.068	496196	keystroke_j	j	n/a
248.1995	0.079	496399	keystroke_e	e	n/a
248.402	0.09	496804	keystroke_c	c	n/a
248.537	0.1125	497074	keystroke_t	t	n/a
248.661	0.2135	497322	keystroke_i	i	n/a
248.7395	0.09	497479	keystroke_o	o	n/a
248.774	0.1235	497548	keystroke_n	n	n/a
248.886	0.045	497772	keystroke_Key.space	Key.space	n/a
249.1895	0.0675	498379	keystroke_c	c	n/a
249.2685	0.1235	498537	keystroke_o	o	n/a
249.291	0.124	498582	keystroke_m	m	n/a
249.3695	0.1125	498739	keystroke_p	p	n/a
249.7295	0.0785	499459	keystroke_e	e	n/a
250.45	0.0785	500900	keystroke_t	t	n/a
250.641	0.1125	501282	keystroke_i	i	n/a
250.7645	0.09	501529	keystroke_t	t	n/a
251.012	0.045	502024	keystroke_i	i	n/a
251.4505	0.045	502901	keystroke_o	o	n/a
251.6645	0.0785	503329	keystroke_n	n	n/a
251.7995	0.056	503599	keystroke_s	s	n/a
251.957	0.09	503914	keystroke_Key.space	Key.space	n/a
252.1145	0.0675	504229	keystroke_l	l	n/a
252.1935	0.124	504387	keystroke_e	e	n/a
252.3505	0.135	504701	keystroke_v	v	n/a
252.452	0.0905	504904	keystroke_e	e	n/a
252.565	0.078	505130	keystroke_l	l	n/a
252.6775	0.09	505355	keystroke_s	s	n/a
252.8005	0.1355	505601	keystroke_Key.space	Key.space	n/a
252.9245	0.09	505849	keystroke_h	h	n/a
253.3075	0.0675	506615	keystroke_Key.backspace	Key.backspace	n/a
253.3855	0.1015	506771	keystroke_s	s	n/a
253.5095	0.1125	507019	keystroke_h	h	n/a
253.5435	0.079	507087	keystroke_o	o	n/a
253.6335	0.0895	507267	keystroke_r	r	n/a
253.802	0.079	507604	keystroke_t	t	n/a
253.892	0.101	507784	keystroke_Key.enter	Key.enter	n/a
253.997	4.6995	507994	prompt	n/a	no performances bean separate\n
254.6465	0.179	509293	keystroke_n	n	n/a
254.6905	0.1125	509381	keystroke_o	o	n/a
254.8375	0.078	509675	keystroke_Key.space	Key.space	n/a
254.9495	0.0785	509899	keystroke_p	p	n/a
255.0505	0.125	510101	keystroke_e	e	n/a
255.1405	0.0905	510281	keystroke_r	r	n/a
255.3655	0.0565	510731	keystroke_f	f	n/a
255.4555	0.09	510911	keystroke_o	o	n/a
255.5795	0.09	511159	keystroke_r	r	n/a
255.6695	0.0785	511339	keystroke_m	m	n/a
255.793	0.0675	511586	keystroke_a	a	n/a
255.872	0.1125	511744	keystroke_n	n	n/a
256.0405	0.068	512081	keystroke_c	c	n/a
256.277	0.0785	512554	keystroke_e	e	n/a
256.4685	0.0335	512937	keystroke_s	s	n/a
256.592	0.09	513184	keystroke_Key.space	Key.space	n/a
256.8845	0.09	513769	keystroke_b	b	n/a
257.0305	0.1125	514061	keystroke_e	e	n/a
257.132	0.056	514264	keystroke_a	a	n/a
257.1995	0.09	514399	keystroke_n	n	n/a
257.256	0.101	514512	keystroke_Key.space	Key.space	n/a
257.3795	0.101	514759	keystroke_s	s	n/a
257.515	0.101	515030	keystroke_e	e	n/a
257.6945	0.09	515389	keystroke_p	p	n/a
257.796	0.146	515592	keystroke_a	a	n/a
257.897	0.1465	515794	keystroke_r	r	n/a
258.0205	0.1465	516041	keystroke_a	a	n/a
258.156	0.112	516312	keystroke_t	t	n/a
258.2345	0.1125	516469	keystroke_e	e	n/a
258.6285	0.067	517257	keystroke_Key.enter	Key.enter	n/a
258.6995	4.7895	517399	prompt	n/a	archives phone lanka numerical\n
259.337	0.1125	518674	keystroke_a	a	n/a
259.4155	0.1015	518831	keystroke_r	r	n/a
259.607	0.09	519214	keystroke_c	c	n/a
259.7085	0.1575	519417	keystroke_h	h	n/a
259.765	0.1115	519530	keystroke_i	i	n/a
259.9335	0.1345	519867	keystroke_v	v	n/a
260.1805	0.124	520361	keystroke_e	e	n/a
260.2705	0.1015	520541	keystroke_s	s	n/a
260.4055	0.1355	520811	keystroke_Key.space	Key.space	n/a
260.609	0.1005	521218	keystroke_p	p	n/a
260.687	0.09	521374	keystroke_h	h	n/a
260.8785	0.101	521757	keystroke_o	o	n/a
260.9345	0.09	521869	keystroke_n	n	n/a
261.014	0.078	522028	keystroke_e	e	n/a
261.1035	0.09	522207	keystroke_Key.space	Key.space	n/a
261.2385	0.0785	522477	keystroke_l	l	n/a
261.373	0.113	522746	keystroke_a	a	n/a
261.4865	0.157	522973	keystroke_n	n	n/a
261.5535	0.1005	523107	keystroke_k	k	n/a
261.733	0.045	523466	keystroke_a	a	n/a
261.868	0.09	523736	keystroke_Key.space	Key.space	n/a
262.318	0.135	524636	keystroke_n	n	n/a
262.4875	0.0555	524975	keystroke_u	u	n/a
262.6445	0.068	525289	keystroke_m	m	n/a
262.723	0.1245	525446	keystroke_e	e	n/a
262.802	0.1125	525604	keystroke_r	r	n/a
262.9485	0.1465	525897	keystroke_i	i	n/a
263.0945	0.101	526189	keystroke_c	c	n/a
263.151	0.0895	526302	keystroke_a	a	n/a
263.2745	0.067	526549	keystroke_l	l	n/a
263.4095	0.0785	526819	keystroke_Key.enter	Key.enter	n/a
263.4915	6.14	526983	prompt	n/a	composition myers populations ontario\n
264.0955	0.1125	528191	keystroke_c	c	n/a
264.163	0.1015	528326	keystroke_o	o	n/a
264.2195	0.1235	528439	keystroke_m	m	n/a
264.3095	0.101	528619	keystroke_p	p	n/a
264.377	0.146	528754	keystroke_o	o	n/a
264.5455	0.124	529091	keystroke_s	s	n/a
264.703	0.1245	529406	keystroke_i	i	n/a
264.872	0.09	529744	keystroke_t	t	n/a
264.996	0.1575	529992	keystroke_i	i	n/a
265.0975	0.0445	530195	keystroke_o	o	n/a
265.1315	0.089	530263	keystroke_n	n	n/a
265.311	0.101	530622	keystroke_Key.space	Key.space	n/a
265.637	0.079	531274	keystroke_m	m	n/a
265.862	0.0795	531724	keystroke_y	y	n/a
265.9295	0.102	531859	keystroke_e	e	n/a
265.9975	0.1455	531995	keystroke_r	r	n/a
266.1545	0.079	532309	keystroke_s	s	n/a
266.267	0.079	532534	keystroke_Key.space	Key.space	n/a
266.458	0.0905	532916	keystroke_p	p	n/a
266.5595	0.1245	533119	keystroke_o	o	n/a
266.672	0.09	533344	keystroke_p	p	n/a
266.8745	0.1015	533749	keystroke_u	u	n/a
266.9645	0.1125	533929	keystroke_l	l	n/a
267.2685	0.0225	534537	keystroke_a	a	n/a
267.28	0.0675	534560	keystroke_t	t	n/a
267.3695	0.1345	534739	keystroke_i	i	n/a
267.4145	0.079	534829	keystroke_o	o	n/a
267.471	0.1125	534942	keystroke_n	n	n/a
267.572	0.0675	535144	keystroke_s	s	n/a
268.168	0.1125	536336	keystroke_Key.space	Key.space	n/a
268.427	0.0905	536854	keystroke_o	o	n/a
268.4605	0.1695	536921	keystroke_n	n	n/a
268.6405	0.057	537281	keystroke_t	t	n/a
268.7645	0.101	537529	keystroke_a	a	n/a
268.832	0.09	537664	keystroke_r	r	n/a
269.338	0.1575	538676	keystroke_i	i	n/a
269.35	0.1565	538700	keystroke_o	o	n/a
269.597	0.0335	539194	keystroke_Key.enter	Key.enter	n/a
269.6345	3.293	539269	prompt	n/a	adam remix bold manga\n
270.2605	0.135	540521	keystroke_a	a	n/a
270.3845	0.0675	540769	keystroke_d	d	n/a
270.4855	0.09	540971	keystroke_a	a	n/a
270.598	0.1465	541196	keystroke_m	m	n/a
270.733	0.1125	541466	keystroke_Key.space	Key.space	n/a
270.9245	0.1125	541849	keystroke_r	r	n/a
271.003	0.0675	542006	keystroke_e	e	n/a
271.1155	0.1575	542231	keystroke_m	m	n/a
271.217	0.1235	542434	keystroke_i	i	n/a
271.341	0.1125	542682	keystroke_x	x	n/a
271.487	0.09	542974	keystroke_Key.space	Key.space	n/a
271.768	0.09	543536	keystroke_b	b	n/a
271.8355	0.0565	543671	keystroke_o	o	n/a
271.9705	0.135	543941	keystroke_l	l	n/a
272.117	0.09	544234	keystroke_d	d	n/a
272.218	0.0565	544436	keystroke_Key.space	Key.space	n/a
272.2855	0.09	544571	keystroke_m	m	n/a
272.398	0.0905	544796	keystroke_a	a	n/a
272.5115	0.112	545023	keystroke_n	n	n/a
272.612	0.112	545224	keystroke_g	g	n/a
272.7015	0.0905	545403	keystroke_a	a	n/a
272.8485	0.0785	545697	keystroke_Key.enter	Key.enter	n/a
272.9305	6.342	545861	prompt	n/a	pioneer focused mileage looked\n
273.8945	0.011	547789	keystroke_p	p	n/a
273.9395	0.135	547879	keystroke_i	i	n/a
274.086	0.101	548172	keystroke_o	o	n/a
274.5245	0.0905	549049	keystroke_n	n	n/a
274.7045	0.09	549409	keystroke_e	e	n/a
274.873	0.146	549746	keystroke_e	e	n/a
275.042	0.09	550084	keystroke_r	r	n/a
275.144	0.1005	550288	keystroke_Key.space	Key.space	n/a
275.267	0.0565	550534	keystroke_r	r	n/a
275.7955	0.045	551591	keystroke_Key.backspace	Key.backspace	n/a
275.8295	0.101	551659	keystroke_f	f	n/a
276.0095	0.112	552019	keystroke_o	o	n/a
276.1335	0.0785	552267	keystroke_c	c	n/a
276.392	0.079	552784	keystroke_u	u	n/a
276.527	0.112	553054	keystroke_s	s	n/a
276.617	0.09	553234	keystroke_e	e	n/a
276.8085	0.09	553617	keystroke_d	d	n/a
276.966	0.101	553932	keystroke_Key.space	Key.space	n/a
277.146	0.146	554292	keystroke_m	m	n/a
277.269	0.135	554538	keystroke_i	i	n/a
277.337	0.079	554674	keystroke_l	l	n/a
277.4495	0.09	554899	keystroke_e	e	n/a
277.674	0.1125	555348	keystroke_a	a	n/a
277.787	0.1465	555574	keystroke_g	g	n/a
277.877	0.0895	555754	keystroke_e	e	n/a
278.282	0.0785	556564	keystroke_Key.space	Key.space	n/a
278.3715	0.079	556743	keystroke_l	l	n/a
278.5515	0.057	557103	keystroke_o	o	n/a
278.6865	0.147	557373	keystroke_o	o	n/a
278.788	0.124	557576	keystroke_k	k	n/a
278.912	0.0785	557824	keystroke_e	e	n/a
279.0585	0.078	558117	keystroke_d	d	n/a
279.1595	0.112	558319	keystroke_Key.enter	Key.enter	n/a
279.2755	11.461	558551	prompt	n/a	porsche insulation eating skirt\n
280.1715	0.0565	560343	keystroke_p	p	n/a
280.3185	0.0675	560637	keystroke_o	o	n/a
280.7115	0.0675	561423	keystroke_r	r	n/a
280.9595	0.0335	561919	keystroke_s	s	n/a
281.1165	0.079	562233	keystroke_c	c	n/a
281.2645	0.089	562529	keystroke_h	h	n/a
281.4095	0.0565	562819	keystroke_e	e	n/a
282.0055	0.101	564011	keystroke_Key.space	Key.space	n/a
282.129	0.147	564258	keystroke_i	i	n/a
282.2085	0.1005	564417	keystroke_n	n	n/a
282.3435	0.078	564687	keystroke_s	s	n/a
282.534	0.0905	565068	keystroke_u	u	n/a
282.591	0.1125	565182	keystroke_l	l	n/a
282.692	0.1015	565384	keystroke_a	a	n/a
282.771	0.0675	565542	keystroke_t	t	n/a
282.861	0.146	565722	keystroke_i	i	n/a
282.9055	0.068	565811	keystroke_o	o	n/a
282.951	0.112	565902	keystroke_n	n	n/a
283.0185	0.0895	566037	keystroke_Key.space	Key.space	n/a
283.119	0.158	566238	keystroke_e	e	n/a
283.3215	0.0795	566643	keystroke_t	t	n/a
283.401	0.1345	566802	keystroke_a	a	n/a
283.524	0.113	567048	keystroke_t	t	n/a
283.964	0.055	567928	keystroke_Key.backspace	Key.backspace	n/a
284.1315	0.0345	568263	keystroke_Key.backspace	Key.backspace	n/a
284.368	0.146	568736	keystroke_a	a	n/a
284.8065	0.045	569613	keystroke_Key.backspace	Key.backspace	n/a
284.9755	0.101	569951	keystroke_a	a	n/a
286.3705	0.0675	572741	keystroke_Key.esc	Key.esc	n/a
286.9215	0.0905	573843	keystroke_p	p	n/a
286.978	0.1235	573956	keystroke_o	o	n/a
287.0455	0.09	574091	keystroke_r	r	n/a
287.3265	0.0675	574653	keystroke_s	s	n/a
287.5065	0.0675	575013	keystroke_c	c	n/a
287.6195	0.1125	575239	keystroke_h	h	n/a
287.732	0.056	575464	keystroke_e	e	n/a
287.833	0.135	575666	keystroke_Key.space	Key.space	n/a
287.979	0.1355	575958	keystroke_i	i	n/a
288.058	0.0795	576116	keystroke_n	n	n/a
288.1815	0.079	576363	keystroke_s	s	n/a
288.3505	0.135	576701	keystroke_u	u	n/a
288.463	0.1015	576926	keystroke_l	l	n/a
288.5645	0.146	577129	keystroke_a	a	n/a
288.632	0.0895	577264	keystroke_t	t	n/a
288.778	0.1575	577556	keystroke_i	i	n/a
288.8455	0.0785	577691	keystroke_o	o	n/a
288.857	0.1345	577714	keystroke_n	n	n/a
288.958	0.1125	577916	keystroke_Key.space	Key.space	n/a
289.3965	0.135	578793	keystroke_e	e	n/a
289.543	0.101	579086	keystroke_a	a	n/a
289.611	0.0895	579222	keystroke_t	t	n/a
289.7455	0.1575	579491	keystroke_i	i	n/a
289.813	0.1125	579626	keystroke_n	n	n/a
289.9145	0.0785	579829	keystroke_g	g	n/a
290.027	0.112	580054	keystroke_Key.space	Key.space	n/a
290.128	0.1125	580256	keystroke_s	s	n/a
290.252	0.0335	580504	keystroke_k	k	n/a
290.353	0.1015	580706	keystroke_i	i	n/a
290.409	0.113	580818	keystroke_r	r	n/a
290.567	0.0785	581134	keystroke_t	t	n/a
290.668	0.0675	581336	keystroke_Key.enter	Key.enter	n/a
290.739	4.036	581478	prompt	n/a	minor loss whose patrick\n
291.4105	0.09	582821	keystroke_m	m	n/a
291.5455	0.1575	583091	keystroke_i	i	n/a
291.6355	0.1465	583271	keystroke_n	n	n/a
291.793	0.079	583586	keystroke_o	o	n/a
291.928	0.079	583856	keystroke_r	r	n/a
292.074	0.113	584148	keystroke_Key.space	Key.space	n/a
292.243	0.0565	584486	keystroke_l	l	n/a
292.412	0.112	584824	keystroke_o	o	n/a
292.513	0.045	585026	keystroke_s	s	n/a
292.7155	0.034	585431	keystroke_s	s	n/a
292.738	0.101	585476	keystroke_Key.space	Key.space	n/a
293.2665	0.079	586533	keystroke_w	w	n/a
293.379	0.102	586758	keystroke_h	h	n/a
293.413	0.113	586826	keystroke_o	o	n/a
293.514	0.1575	587028	keystroke_s	s	n/a
293.604	0.1015	587208	keystroke_e	e	n/a
293.728	0.101	587456	keystroke_Key.space	Key.space	n/a
293.964	0.034	587928	keystroke_p	p	n/a
294.0315	0.1015	588063	keystroke_a	a	n/a
294.1105	0.079	588221	keystroke_t	t	n/a
294.2795	0.0785	588559	keystroke_r	r	n/a
294.403	0.079	588806	keystroke_i	i	n/a
294.4925	0.068	588985	keystroke_c	c	n/a
294.572	0.101	589144	keystroke_k	k	n/a
294.7405	0.0335	589481	keystroke_Key.enter	Key.enter	n/a
294.7775	4.903	589555	prompt	n/a	personality diving known denial\n
295.4155	0.034	590831	keystroke_p	p	n/a
295.5055	0.1465	591011	keystroke_e	e	n/a
295.562	0.1125	591124	keystroke_r	r	n/a
296.012	0.0895	592024	keystroke_s	s	n/a
296.136	0.0895	592272	keystroke_o	o	n/a
296.1695	0.1685	592339	keystroke_n	n	n/a
296.35	0.089	592700	keystroke_a	a	n/a
296.4505	0.135	592901	keystroke_l	l	n/a
296.5295	0.169	593059	keystroke_i	i	n/a
296.6865	0.0675	593373	keystroke_t	t	n/a
296.8105	0.09	593621	keystroke_y	y	n/a
296.878	0.101	593756	keystroke_Key.space	Key.space	n/a
297.013	0.09	594026	keystroke_d	d	n/a
297.1365	0.09	594273	keystroke_i	i	n/a
297.238	0.124	594476	keystroke_v	v	n/a
297.373	0.1465	594746	keystroke_i	i	n/a
297.463	0.124	594926	keystroke_n	n	n/a
297.598	0.0675	595196	keystroke_g	g	n/a
297.7	0.112	595400	keystroke_Key.space	Key.space	n/a
297.8005	0.1475	595601	keystroke_k	k	n/a
297.9355	0.102	595871	keystroke_n	n	n/a
298.0255	0.079	596051	keystroke_o	o	n/a
298.1155	0.101	596231	keystroke_w	w	n/a
298.2285	0.1345	596457	keystroke_n	n	n/a
298.3295	0.112	596659	keystroke_Key.space	Key.space	n/a
298.4755	0.0785	596951	keystroke_d	d	n/a
298.667	0.101	597334	keystroke_e	e	n/a
298.7795	0.1125	597559	keystroke_n	n	n/a
298.9595	0.1345	597919	keystroke_i	i	n/a
299.3755	0.0675	598751	keystroke_a	a	n/a
299.477	0.0785	598954	keystroke_l	l	n/a
299.623	0.0565	599246	keystroke_Key.enter	Key.enter	n/a
299.6855	5.068	599371	prompt	n/a	medicine has bufing pillow\n
300.3655	0.102	600731	keystroke_m	m	n/a
300.433	0.09	600866	keystroke_e	e	n/a
300.658	0.09	601316	keystroke_d	d	n/a
300.8045	0.0785	601609	keystroke_i	i	n/a
300.928	0.101	601856	keystroke_c	c	n/a
301.018	0.135	602036	keystroke_i	i	n/a
301.153	0.1015	602306	keystroke_n	n	n/a
301.288	0.1015	602576	keystroke_e	e	n/a
301.468	0.1015	602936	keystroke_Key.space	Key.space	n/a
301.7605	0.1015	603521	keystroke_h	h	n/a
301.8505	0.034	603701	keystroke_a	a	n/a
301.8725	0.102	603745	keystroke_s	s	n/a
302.042	0.1005	604084	keystroke_Key.space	Key.space	n/a
302.3455	0.1355	604691	keystroke_b	b	n/a
302.919	0.0795	605838	keystroke_u	u	n/a
302.9865	0.079	605973	keystroke_f	f	n/a
303.122	0.123	606244	keystroke_i	i	n/a
303.2005	0.09	606401	keystroke_n	n	n/a
303.2795	0.068	606559	keystroke_g	g	n/a
303.381	0.089	606762	keystroke_Key.space	Key.space	n/a
303.572	0.112	607144	keystroke_p	p	n/a
303.7855	0.067	607571	keystroke_i	i	n/a
304.0105	0.0445	608021	keystroke_l	l	n/a
304.1455	0.067	608291	keystroke_l	l	n/a
304.3255	0.0675	608651	keystroke_o	o	n/a
304.4045	0.09	608809	keystroke_w	w	n/a
304.708	0.0445	609416	keystroke_Key.enter	Key.enter	n/a
304.7565	4.981	609513	prompt	n/a	immediate matters oven deal\n
305.3375	0.1015	610675	keystroke_i	i	n/a
305.5065	0.0785	611013	keystroke_m	m	n/a
305.6755	0.09	611351	keystroke_m	m	n/a
305.777	0.0785	611554	keystroke_e	e	n/a
305.968	0.08	611936	keystroke_d	d	n/a
306.0355	0.09	612071	keystroke_i	i	n/a
306.1935	0.1015	612387	keystroke_a	a	n/a
306.2605	0.124	612521	keystroke_t	t	n/a
306.3505	0.067	612701	keystroke_e	e	n/a
306.452	0.101	612904	keystroke_Key.space	Key.space	n/a
306.5755	0.1015	613151	keystroke_m	m	n/a
306.688	0.1125	613376	keystroke_a	a	n/a
306.7665	0.0675	613533	keystroke_t	t	n/a
306.9355	0.101	613871	keystroke_t	t	n/a
307.138	0.1345	614276	keystroke_e	e	n/a
307.2165	0.1125	614433	keystroke_r	r	n/a
307.318	0.0785	614636	keystroke_s	s	n/a
307.4755	0.101	614951	keystroke_Key.space	Key.space	n/a
307.644	0.1015	615288	keystroke_o	o	n/a
307.858	0.101	615716	keystroke_v	v	n/a
308.027	0.0895	616054	keystroke_e	e	n/a
308.1955	0.0785	616391	keystroke_n	n	n/a
308.3415	0.0785	616683	keystroke_Key.space	Key.space	n/a
308.556	0.0445	617112	keystroke_d	d	n/a
308.7915	0.068	617583	keystroke_e	e	n/a
308.848	0.1235	617696	keystroke_a	a	n/a
308.9825	0.1015	617965	keystroke_l	l	n/a
309.073	0.1235	618146	keystroke_Key.space	Key.space	n/a
309.579	0.068	619158	keystroke_Key.backspace	Key.backspace	n/a
309.658	0.0785	619316	keystroke_Key.enter	Key.enter	n/a
309.7405	5.9705	619481	prompt	n/a	justice chile detector caution\n
310.524	0.056	621048	keystroke_j	j	n/a
310.682	0.112	621364	keystroke_u	u	n/a
310.805	0.0685	621610	keystroke_s	s	n/a
310.839	0.0675	621678	keystroke_t	t	n/a
310.963	0.1135	621926	keystroke_i	i	n/a
311.0645	0.067	622129	keystroke_c	c	n/a
311.2665	0.0675	622533	keystroke_e	e	n/a
311.368	0.101	622736	keystroke_Key.space	Key.space	n/a
311.548	0.09	623096	keystroke_c	c	n/a
311.6605	0.113	623321	keystroke_h	h	n/a
311.6715	0.135	623343	keystroke_i	i	n/a
311.7615	0.101	623523	keystroke_l	l	n/a
311.953	0.067	623906	keystroke_e	e	n/a
312.0765	0.1015	624153	keystroke_Key.space	Key.space	n/a
312.515	0.0565	625030	keystroke_d	d	n/a
312.718	0.09	625436	keystroke_e	e	n/a
312.797	0.1905	625594	keystroke_t	t	n/a
312.909	0.1235	625818	keystroke_e	e	n/a
313.224	0.0905	626448	keystroke_c	c	n/a
313.46	0.079	626920	keystroke_t	t	n/a
313.832	0.078	627664	keystroke_o	o	n/a
313.8995	0.0675	627799	keystroke_r	r	n/a
313.967	0.112	627934	keystroke_Key.space	Key.space	n/a
314.27	0.102	628540	keystroke_c	c	n/a
314.495	0.1035	628990	keystroke_a	a	n/a
314.642	0.067	629284	keystroke_u	u	n/a
314.7875	0.0795	629575	keystroke_t	t	n/a
314.9	0.1575	629800	keystroke_i	i	n/a
314.9795	0.0895	629959	keystroke_o	o	n/a
315.024	0.101	630048	keystroke_n	n	n/a
315.6205	0.0895	631241	keystroke_Key.enter	Key.enter	n/a
315.714	7.141	631428	prompt	n/a	distinction cloudy roland course\n
316.25	0.1125	632500	keystroke_d	d	n/a
316.374	0.0785	632748	keystroke_i	i	n/a
316.465	0.112	632930	keystroke_s	s	n/a
316.543	0.1015	633086	keystroke_t	t	n/a
316.6775	0.124	633355	keystroke_i	i	n/a
316.7345	0.114	633469	keystroke_n	n	n/a
316.835	0.1125	633670	keystroke_c	c	n/a
317.0605	0.0675	634121	keystroke_t	t	n/a
317.162	0.135	634324	keystroke_i	i	n/a
317.195	0.057	634390	keystroke_o	o	n/a
317.24	0.102	634480	keystroke_n	n	n/a
317.96	0.135	635920	keystroke_Key.space	Key.space	n/a
318.1065	0.056	636213	keystroke_c	c	n/a
318.1965	0.101	636393	keystroke_l	l	n/a
318.4325	0.135	636865	keystroke_o	o	n/a
318.5115	0.101	637023	keystroke_u	u	n/a
318.6015	0.0225	637203	keystroke_d	d	n/a
318.8825	0.0565	637765	keystroke_y	y	n/a
319.4	0.0345	638800	keystroke_Key.space	Key.space	n/a
319.715	0.09	639430	keystroke_r	r	n/a
319.794	0.0675	639588	keystroke_o	o	n/a
319.9175	0.0905	639835	keystroke_l	l	n/a
320.0075	0.079	640015	keystroke_a	a	n/a
320.1315	0.1015	640263	keystroke_n	n	n/a
320.413	0.045	640826	keystroke_d	d	n/a
320.559	0.102	641118	keystroke_Key.space	Key.space	n/a
320.8965	0.0795	641793	keystroke_c	c	n/a
321.054	0.1125	642108	keystroke_o	o	n/a
321.144	0.079	642288	keystroke_u	u	n/a
321.156	0.123	642312	keystroke_r	r	n/a
321.279	0.1465	642558	keystroke_s	s	n/a
321.3915	0.0785	642783	keystroke_e	e	n/a
321.4815	0.09	642963	keystroke_Key.space	Key.space	n/a
322.719	0.079	645438	keystroke_Key.backspace	Key.backspace	n/a
322.809	0.045	645618	keystroke_Key.enter	Key.enter	n/a
322.858	6.5665	645716	prompt	n/a	granny different medieval assessed\n
323.709	0.0565	647418	keystroke_g	g	n/a
323.889	0.1235	647778	keystroke_r	r	n/a
323.9905	0.0895	647981	keystroke_a	a	n/a
324.125	0.0905	648250	keystroke_n	n	n/a
324.2715	0.056	648543	keystroke_n	n	n/a
324.6095	0.157	649219	keystroke_y	y	n/a
324.7215	0.1015	649443	keystroke_Key.space	Key.space	n/a
324.9015	0.0795	649803	keystroke_d	d	n/a
325.003	0.1125	650006	keystroke_i	i	n/a
325.093	0.0785	650186	keystroke_f	f	n/a
325.2845	0.0895	650569	keystroke_f	f	n/a
325.5655	0.101	651131	keystroke_e	e	n/a
325.644	0.1465	651288	keystroke_r	r	n/a
325.7455	0.0895	651491	keystroke_e	e	n/a
325.8915	0.135	651783	keystroke_n	n	n/a
326.038	0.067	652076	keystroke_t	t	n/a
326.1615	0.1125	652323	keystroke_Key.space	Key.space	n/a
326.331	0.112	652662	keystroke_m	m	n/a
326.454	0.045	652908	keystroke_e	e	n/a
326.6	0.079	653200	keystroke_d	d	n/a
326.769	0.1125	653538	keystroke_i	i	n/a
326.9155	0.112	653831	keystroke_e	e	n/a
327.1855	0.146	654371	keystroke_v	v	n/a
327.411	0.067	654822	keystroke_a	a	n/a
327.5115	0.1465	655023	keystroke_l	l	n/a
327.6465	0.09	655293	keystroke_Key.space	Key.space	n/a
327.7705	0.0895	655541	keystroke_a	a	n/a
327.8715	0.101	655743	keystroke_s	s	n/a
328.074	0.135	656148	keystroke_s	s	n/a
328.2315	0.1125	656463	keystroke_e	e	n/a
328.355	0.1125	656710	keystroke_s	s	n/a
328.5465	0.1015	657093	keystroke_s	s	n/a
328.772	0.1005	657544	keystroke_e	e	n/a
328.9295	0.078	657859	keystroke_d	d	n/a
329.357	0.067	658714	keystroke_Key.enter	Key.enter	n/a
329.427	5.5325	658854	prompt	n/a	included signal temple exhibitions\n
330.0425	0.1125	660085	keystroke_i	i	n/a
330.0995	0.123	660199	keystroke_n	n	n/a
330.2	0.0795	660400	keystroke_c	c	n/a
330.3125	0.124	660625	keystroke_l	l	n/a
330.3805	0.068	660761	keystroke_u	u	n/a
330.92	0.1125	661840	keystroke_d	d	n/a
331.1225	0.034	662245	keystroke_e	e	n/a
331.2915	0.09	662583	keystroke_d	d	n/a
331.3925	0.0675	662785	keystroke_Key.space	Key.space	n/a
331.5275	0.0795	663055	keystroke_s	s	n/a
331.6175	0.1015	663235	keystroke_i	i	n/a
331.73	0.124	663460	keystroke_g	g	n/a
331.865	0.045	663730	keystroke_n	n	n/a
331.955	0.079	663910	keystroke_a	a	n/a
332.045	0.101	664090	keystroke_l	l	n/a
332.1575	0.091	664315	keystroke_Key.space	Key.space	n/a
332.383	0.1015	664766	keystroke_t	t	n/a
332.451	0.089	664902	keystroke_e	e	n/a
332.5515	0.079	665103	keystroke_m	m	n/a
332.5855	0.067	665171	keystroke_p	p	n/a
332.7315	0.1015	665463	keystroke_l	l	n/a
332.855	0.0675	665710	keystroke_e	e	n/a
333.0015	0.1125	666003	keystroke_Key.space	Key.space	n/a
333.305	0.09	666610	keystroke_e	e	n/a
333.5415	0.0675	667083	keystroke_x	x	n/a
333.733	0.101	667466	keystroke_h	h	n/a
333.969	0.079	667938	keystroke_i	i	n/a
334.059	0.079	668118	keystroke_b	b	n/a
334.194	0.09	668388	keystroke_i	i	n/a
334.3065	0.0675	668613	keystroke_t	t	n/a
334.453	0.1685	668906	keystroke_i	i	n/a
334.554	0.0675	669108	keystroke_o	o	n/a
334.5765	0.1125	669153	keystroke_n	n	n/a
334.7115	0.1125	669423	keystroke_s	s	n/a
334.858	0.101	669716	keystroke_Key.enter	Key.enter	n/a
334.963	5.217	669926	prompt	n/a	everything arrested gage suits\n
335.634	0.0785	671268	keystroke_e	e	n/a
335.7915	0.1125	671583	keystroke_v	v	n/a
335.994	0.1125	671988	keystroke_e	e	n/a
336.095	0.079	672190	keystroke_r	r	n/a
336.2075	0.1015	672415	keystroke_y	y	n/a
336.343	0.0785	672686	keystroke_t	t	n/a
336.4335	0.112	672867	keystroke_h	h	n/a
336.568	0.135	673136	keystroke_i	i	n/a
336.669	0.113	673338	keystroke_n	n	n/a
336.771	0.1005	673542	keystroke_g	g	n/a
336.8825	0.09	673765	keystroke_Key.space	Key.space	n/a
337.4115	0.1235	674823	keystroke_a	a	n/a
337.6035	0.112	675207	keystroke_r	r	n/a
337.749	0.135	675498	keystroke_r	r	n/a
337.8955	0.1575	675791	keystroke_e	e	n/a
338.0305	0.123	676061	keystroke_s	s	n/a
338.0865	0.113	676173	keystroke_t	t	n/a
338.1875	0.079	676375	keystroke_e	e	n/a
338.3565	0.0675	676713	keystroke_d	d	n/a
338.525	0.1465	677050	keystroke_Key.space	Key.space	n/a
338.8175	0.101	677635	keystroke_g	g	n/a
338.9755	0.124	677951	keystroke_a	a	n/a
339.0655	0.101	678131	keystroke_g	g	n/a
339.234	0.09	678468	keystroke_e	e	n/a
339.493	0.078	678986	keystroke_Key.space	Key.space	n/a
339.6955	0.1005	679391	keystroke_s	s	n/a
339.808	0.112	679616	keystroke_u	u	n/a
339.8415	0.124	679683	keystroke_i	i	n/a
339.8865	0.1125	679773	keystroke_t	t	n/a
339.9765	0.09	679953	keystroke_s	s	n/a
340.1	0.079	680200	keystroke_Key.enter	Key.enter	n/a
340.1825	4.925	680365	prompt	n/a	favor pointed agent tanzania\n
340.775	0.1125	681550	keystroke_f	f	n/a
340.854	0.0785	681708	keystroke_a	a	n/a
341.0675	0.124	682135	keystroke_v	v	n/a
341.27	0.09	682540	keystroke_o	o	n/a
341.3605	0.067	682721	keystroke_r	r	n/a
341.439	0.0785	682878	keystroke_Key.space	Key.space	n/a
341.574	0.101	683148	keystroke_p	p	n/a
341.6525	0.1125	683305	keystroke_o	o	n/a
341.675	0.1915	683350	keystroke_i	i	n/a
341.799	0.1235	683598	keystroke_n	n	n/a
341.934	0.09	683868	keystroke_t	t	n/a
342.0575	0.079	684115	keystroke_e	e	n/a
342.2715	0.0675	684543	keystroke_d	d	n/a
342.395	0.1125	684790	keystroke_Key.space	Key.space	n/a
342.6655	0.1235	685331	keystroke_a	a	n/a
342.8005	0.0675	685601	keystroke_g	g	n/a
342.901	0.079	685802	keystroke_e	e	n/a
343.0145	0.1005	686029	keystroke_n	n	n/a
343.104	0.0675	686208	keystroke_t	t	n/a
343.239	0.1235	686478	keystroke_Key.space	Key.space	n/a
343.374	0.135	686748	keystroke_t	t	n/a
343.52	0.046	687040	keystroke_a	a	n/a
343.5765	0.135	687153	keystroke_n	n	n/a
343.8015	0.0785	687603	keystroke_z	z	n/a
343.9925	0.079	687985	keystroke_a	a	n/a
344.0945	0.1235	688189	keystroke_n	n	n/a
344.24	0.0455	688480	keystroke_a	a	n/a
344.645	0.0785	689290	keystroke_Key.backspace	Key.backspace	n/a
344.848	0.0895	689696	keystroke_i	i	n/a
344.8925	0.0905	689785	keystroke_a	a	n/a
345.005	0.1015	690010	keystroke_Key.enter	Key.enter	n/a
345.1105	5.4415	690221	prompt	n/a	messages convert cams adopted\n
345.7815	0.034	691563	keystroke_g	g	n/a
346.175	0.0565	692350	keystroke_Key.backspace	Key.backspace	n/a
346.3325	0.0675	692665	keystroke_m	m	n/a
346.4335	0.0345	692867	keystroke_e	e	n/a
346.6025	0.079	693205	keystroke_s	s	n/a
346.7375	0.0785	693475	keystroke_s	s	n/a
347.03	0.1125	694060	keystroke_a	a	n/a
347.1425	0.0905	694285	keystroke_g	g	n/a
347.221	0.124	694442	keystroke_e	e	n/a
347.3335	0.079	694667	keystroke_s	s	n/a
347.48	0.135	694960	keystroke_Key.space	Key.space	n/a
347.851	0.1125	695702	keystroke_c	c	n/a
348.0425	0.1125	696085	keystroke_o	o	n/a
348.0875	0.1125	696175	keystroke_n	n	n/a
348.1885	0.1015	696377	keystroke_v	v	n/a
348.436	0.1015	696872	keystroke_e	e	n/a
348.4925	0.09	696985	keystroke_r	r	n/a
348.706	0.0565	697412	keystroke_t	t	n/a
348.796	0.136	697592	keystroke_Key.space	Key.space	n/a
348.9765	0.1245	697953	keystroke_c	c	n/a
349.0885	0.102	698177	keystroke_a	a	n/a
349.179	0.112	698358	keystroke_m	m	n/a
349.314	0.068	698628	keystroke_s	s	n/a
349.4035	0.113	698807	keystroke_Key.space	Key.space	n/a
349.505	0.1015	699010	keystroke_a	a	n/a
349.6735	0.09	699347	keystroke_d	d	n/a
349.8535	0.135	699707	keystroke_o	o	n/a
349.966	0.09	699932	keystroke_p	p	n/a
350.0905	0.1005	700181	keystroke_t	t	n/a
350.203	0.0785	700406	keystroke_e	e	n/a
350.383	0.0785	700766	keystroke_d	d	n/a
350.4835	0.0675	700967	keystroke_Key.enter	Key.enter	n/a
350.555	5.701	701110	prompt	n/a	imperial invited allergy active\n
351.1255	0.168	702251	keystroke_i	i	n/a
351.2485	0.1245	702497	keystroke_m	m	n/a
351.373	0.146	702746	keystroke_p	p	n/a
351.721	0.0675	703442	keystroke_e	e	n/a
351.7775	0.0785	703555	keystroke_r	r	n/a
351.935	0.101	703870	keystroke_i	i	n/a
352.025	0.101	704050	keystroke_a	a	n/a
352.1375	0.1235	704275	keystroke_l	l	n/a
352.25	0.146	704500	keystroke_Key.space	Key.space	n/a
352.43	0.1125	704860	keystroke_i	i	n/a
352.498	0.1345	704996	keystroke_n	n	n/a
352.644	0.0785	705288	keystroke_v	v	n/a
352.801	0.1015	705602	keystroke_i	i	n/a
352.9025	0.09	705805	keystroke_t	t	n/a
353.015	0.0785	706030	keystroke_e	e	n/a
353.1835	0.079	706367	keystroke_d	d	n/a
353.2735	0.169	706547	keystroke_Key.space	Key.space	n/a
353.555	0.0785	707110	keystroke_a	a	n/a
353.701	0.0905	707402	keystroke_l	l	n/a
353.836	0.113	707672	keystroke_l	l	n/a
353.9485	0.1245	707897	keystroke_e	e	n/a
354.0275	0.09	708055	keystroke_r	r	n/a
354.2415	0.0565	708483	keystroke_g	g	n/a
354.3315	0.1125	708663	keystroke_y	y	n/a
354.4335	0.123	708867	keystroke_Key.space	Key.space	n/a
354.736	0.1245	709472	keystroke_c	c	n/a
355.366	0.079	710732	keystroke_Key.backspace	Key.backspace	n/a
355.4225	0.146	710845	keystroke_a	a	n/a
355.535	0.079	711070	keystroke_c	c	n/a
355.771	0.0675	711542	keystroke_t	t	n/a
355.9285	0.0675	711857	keystroke_i	i	n/a
356.008	0.112	712016	keystroke_v	v	n/a
356.086	0.1125	712172	keystroke_e	e	n/a
356.2105	0.045	712421	keystroke_Key.enter	Key.enter	n/a
356.259	6.0725	712518	prompt	n/a	wider subscriptions rank champagne\n
357.0085	0.113	714017	keystroke_w	w	n/a
357.2785	0.1015	714557	keystroke_i	i	n/a
357.3685	0.045	714737	keystroke_d	d	n/a
357.706	0.045	715412	keystroke_e	e	n/a
357.718	0.078	715436	keystroke_r	r	n/a
357.808	0.1235	715616	keystroke_Key.space	Key.space	n/a
358.0435	0.045	716087	keystroke_s	s	n/a
358.1335	0.135	716267	keystroke_u	u	n/a
358.2805	0.0785	716561	keystroke_b	b	n/a
358.4605	0.09	716921	keystroke_s	s	n/a
358.6855	0.1005	717371	keystroke_c	c	n/a
358.876	0.068	717752	keystroke_r	r	n/a
359.001	0.1	718002	keystroke_i	i	n/a
359.068	0.1005	718136	keystroke_p	p	n/a
359.2925	0.068	718585	keystroke_t	t	n/a
359.4505	0.1455	718901	keystroke_i	i	n/a
359.506	0.102	719012	keystroke_o	o	n/a
359.574	0.1345	719148	keystroke_n	n	n/a
359.7765	0.101	719553	keystroke_s	s	n/a
360.17	0.0785	720340	keystroke_Key.space	Key.space	n/a
360.395	0.1125	720790	keystroke_r	r	n/a
360.4735	0.0905	720947	keystroke_a	a	n/a
360.5415	0.1795	721083	keystroke_n	n	n/a
360.62	0.18	721240	keystroke_k	k	n/a
360.7885	0.1015	721577	keystroke_Key.space	Key.space	n/a
360.946	0.079	721892	keystroke_c	c	n/a
361.0365	0.056	722073	keystroke_h	h	n/a
361.16	0.056	722320	keystroke_a	a	n/a
361.2385	0.113	722477	keystroke_m	m	n/a
361.306	0.079	722612	keystroke_p	p	n/a
361.5425	0.124	723085	keystroke_a	a	n/a
361.655	0.0785	723310	keystroke_g	g	n/a
362.105	0.0905	724210	keystroke_n	n	n/a
362.1835	0.09	724367	keystroke_e	e	n/a
362.2855	0.045	724571	keystroke_Key.enter	Key.enter	n/a
362.334	9.661	724668	prompt	n/a	methodology interviews commissioners cigarette\n
363.061	0.079	726122	keystroke_m	m	n/a
363.163	0.1455	726326	keystroke_e	e	n/a
363.2755	0.1125	726551	keystroke_t	t	n/a
363.3985	0.135	726797	keystroke_h	h	n/a
363.826	0.079	727652	keystroke_o	o	n/a
364.266	0.055	728532	keystroke_d	d	n/a
364.411	0.0575	728822	keystroke_o	o	n/a
364.5805	0.068	729161	keystroke_l	l	n/a
364.7485	0.09	729497	keystroke_o	o	n/a
364.8725	0.068	729745	keystroke_g	g	n/a
365.0525	0.079	730105	keystroke_y	y	n/a
365.3115	0.0445	730623	keystroke_Key.space	Key.space	n/a
365.6155	0.112	731231	keystroke_i	i	n/a
365.671	0.135	731342	keystroke_n	n	n/a
365.8065	0.067	731613	keystroke_t	t	n/a
366.0765	0.1015	732153	keystroke_e	e	n/a
366.1555	0.1005	732311	keystroke_r	r	n/a
366.5375	0.101	733075	keystroke_v	v	n/a
366.763	0.09	733526	keystroke_i	i	n/a
366.8755	0.112	733751	keystroke_e	e	n/a
366.965	0.0785	733930	keystroke_w	w	n/a
367.2685	0.1015	734537	keystroke_s	s	n/a
367.46	0.135	734920	keystroke_Key.space	Key.space	n/a
367.6855	0.0445	735371	keystroke_c	c	n/a
367.7525	0.113	735505	keystroke_o	o	n/a
367.955	0.0785	735910	keystroke_m	m	n/a
368.2025	0.0675	736405	keystroke_m	m	n/a
368.8325	0.079	737665	keystroke_i	i	n/a
368.9675	0.079	737935	keystroke_s	s	n/a
369.17	0.1015	738340	keystroke_s	s	n/a
369.3385	0.1575	738677	keystroke_i	i	n/a
369.4065	0.1575	738813	keystroke_o	o	n/a
369.5185	0.1015	739037	keystroke_n	n	n/a
369.6875	0.147	739375	keystroke_e	e	n/a
369.8225	0.113	739645	keystroke_r	r	n/a
369.969	0.101	739938	keystroke_s	s	n/a
370.115	0.101	740230	keystroke_Key.space	Key.space	n/a
370.3515	0.0785	740703	keystroke_c	c	n/a
370.475	0.102	740950	keystroke_i	i	n/a
370.565	0.102	741130	keystroke_g	g	n/a
370.7115	0.146	741423	keystroke_a	a	n/a
370.9025	0.1125	741805	keystroke_r	r	n/a
371.33	0.0675	742660	keystroke_e	e	n/a
371.5435	0.0565	743087	keystroke_t	t	n/a
371.6785	0.1015	743357	keystroke_t	t	n/a
371.7915	0.0785	743583	keystroke_e	e	n/a
371.915	0.079	743830	keystroke_Key.enter	Key.enter	n/a
371.998	5.9935	743996	prompt	n/a	renaissance crew abortion views\n
372.815	0.1235	745630	keystroke_r	r	n/a
372.8715	0.113	745743	keystroke_e	e	n/a
373.085	0.1125	746170	keystroke_n	n	n/a
373.2315	0.0895	746463	keystroke_a	a	n/a
373.67	0.09	747340	keystroke_i	i	n/a
373.996	0.0675	747992	keystroke_s	s	n/a
374.176	0.124	748352	keystroke_s	s	n/a
374.4015	0.0675	748803	keystroke_a	a	n/a
374.5255	0.1005	749051	keystroke_n	n	n/a
374.66	0.056	749320	keystroke_c	c	n/a
374.863	0.0555	749726	keystroke_e	e	n/a
374.9755	0.0905	749951	keystroke_Key.space	Key.space	n/a
375.133	0.1005	750266	keystroke_c	c	n/a
375.3915	0.101	750783	keystroke_r	r	n/a
375.448	0.112	750896	keystroke_e	e	n/a
375.5035	0.1015	751007	keystroke_w	w	n/a
375.673	0.1455	751346	keystroke_Key.space	Key.space	n/a
375.841	0.1465	751682	keystroke_a	a	n/a
375.9765	0.0895	751953	keystroke_b	b	n/a
376.111	0.09	752222	keystroke_o	o	n/a
376.224	0.079	752448	keystroke_r	r	n/a
376.4155	0.078	752831	keystroke_t	t	n/a
376.5615	0.1465	753123	keystroke_i	i	n/a
376.651	0.045	753302	keystroke_o	o	n/a
376.663	0.1125	753326	keystroke_n	n	n/a
377.023	0.1005	754046	keystroke_Key.space	Key.space	n/a
377.349	0.0675	754698	keystroke_v	v	n/a
377.54	0.0565	755080	keystroke_i	i	n/a
377.5965	0.0895	755193	keystroke_e	e	n/a
377.6525	0.101	755305	keystroke_w	w	n/a
377.821	0.09	755642	keystroke_s	s	n/a
377.9225	0.0675	755845	keystroke_Key.enter	Key.enter	n/a
377.994	6.061	755988	prompt	n/a	missed dragon impose hawaii\n
378.6425	0.09	757285	keystroke_m	m	n/a
378.8335	0.079	757667	keystroke_i	i	n/a
379.149	0.056	758298	keystroke_s	s	n/a
379.3175	0.0675	758635	keystroke_s	s	n/a
379.4975	0.056	758995	keystroke_e	e	n/a
379.6555	0.112	759311	keystroke_d	d	n/a
379.756	0.102	759512	keystroke_Key.space	Key.space	n/a
380.094	0.1345	760188	keystroke_d	d	n/a
380.296	0.09	760592	keystroke_r	r	n/a
380.432	0.123	760864	keystroke_a	a	n/a
380.5435	0.068	761087	keystroke_g	g	n/a
380.735	0.1235	761470	keystroke_o	o	n/a
380.791	0.135	761582	keystroke_n	n	n/a
380.8925	0.1125	761785	keystroke_Key.space	Key.space	n/a
381.0835	0.169	762167	keystroke_i	i	n/a
381.1625	0.135	762325	keystroke_m	m	n/a
381.241	0.1015	762482	keystroke_p	p	n/a
381.3085	0.135	762617	keystroke_o	o	n/a
381.4775	0.1235	762955	keystroke_s	s	n/a
381.5565	0.101	763113	keystroke_e	e	n/a
382.1525	0.1575	764305	keystroke_Key.space	Key.space	n/a
382.4115	0.0335	764823	keystroke_i	i	n/a
382.794	0.056	765588	keystroke_Key.backspace	Key.backspace	n/a
382.985	0.079	765970	keystroke_h	h	n/a
383.0865	0.0795	766173	keystroke_a	a	n/a
383.131	0.1015	766262	keystroke_w	w	n/a
383.289	0.168	766578	keystroke_a	a	n/a
383.6715	0.067	767343	keystroke_i	i	n/a
383.8065	0.0785	767613	keystroke_i	i	n/a
383.9865	0.0675	767973	keystroke_Key.enter	Key.enter	n/a
384.058	5.2845	768116	prompt	n/a	grants correlation laos collecting\n
384.74	0.0675	769480	keystroke_g	g	n/a
384.931	0.1125	769862	keystroke_r	r	n/a
385.01	0.1125	770020	keystroke_a	a	n/a
385.156	0.124	770312	keystroke_n	n	n/a
385.2575	0.1245	770515	keystroke_t	t	n/a
385.3585	0.1015	770717	keystroke_s	s	n/a
385.471	0.158	770942	keystroke_Key.space	Key.space	n/a
385.786	0.1015	771572	keystroke_c	c	n/a
385.944	0.0895	771888	keystroke_o	o	n/a
386.045	0.056	772090	keystroke_r	r	n/a
386.236	0.1245	772472	keystroke_r	r	n/a
386.349	0.0445	772698	keystroke_e	e	n/a
386.4505	0.078	772901	keystroke_l	l	n/a
386.5405	0.112	773081	keystroke_a	a	n/a
386.6305	0.078	773261	keystroke_t	t	n/a
386.7315	0.169	773463	keystroke_i	i	n/a
386.776	0.0565	773552	keystroke_o	o	n/a
386.821	0.124	773642	keystroke_n	n	n/a
386.911	0.0795	773822	keystroke_Key.space	Key.space	n/a
387.0575	0.0905	774115	keystroke_l	l	n/a
387.181	0.1125	774362	keystroke_a	a	n/a
387.3505	0.067	774701	keystroke_o	o	n/a
387.541	0.079	775082	keystroke_s	s	n/a
387.6985	0.1125	775397	keystroke_Key.space	Key.space	n/a
387.98	0.112	775960	keystroke_c	c	n/a
388.0585	0.079	776117	keystroke_o	o	n/a
388.25	0.056	776500	keystroke_l	l	n/a
388.3735	0.1015	776747	keystroke_l	l	n/a
388.4525	0.0785	776905	keystroke_e	e	n/a
388.666	0.135	777332	keystroke_c	c	n/a
388.8125	0.0785	777625	keystroke_t	t	n/a
388.9475	0.101	777895	keystroke_i	i	n/a
388.982	0.1565	777964	keystroke_n	n	n/a
389.116	0.0675	778232	keystroke_g	g	n/a
389.251	0.09	778502	keystroke_Key.enter	Key.enter	n/a
389.347	4.484	778694	prompt	n/a	lost send runner pastor\n
390.05	0.022	780100	keystroke_l	l	n/a
390.185	0.0785	780370	keystroke_o	o	n/a
390.2415	0.124	780483	keystroke_s	s	n/a
390.3425	0.079	780685	keystroke_t	t	n/a
390.433	0.1005	780866	keystroke_Key.space	Key.space	n/a
390.5785	0.1015	781157	keystroke_s	s	n/a
390.7475	0.0785	781495	keystroke_e	e	n/a
390.8935	0.079	781787	keystroke_n	n	n/a
390.9615	0.0785	781923	keystroke_d	d	n/a
391.0735	0.1015	782147	keystroke_Key.space	Key.space	n/a
391.186	0.09	782372	keystroke_r	r	n/a
391.2875	0.068	782575	keystroke_u	u	n/a
391.501	0.034	783002	keystroke_n	n	n/a
391.6135	0.09	783227	keystroke_n	n	n/a
391.7935	0.09	783587	keystroke_e	e	n/a
391.8275	0.112	783655	keystroke_r	r	n/a
391.9285	0.0675	783857	keystroke_Key.space	Key.space	n/a
392.0525	0.0895	784105	keystroke_a	a	n/a
392.0755	0.0895	784151	keystroke_p	p	n/a
392.773	0.033	785546	keystroke_Key.backspace	Key.backspace	n/a
392.8735	0.09	785747	keystroke_Key.backspace	Key.backspace	n/a
393.0535	0.0675	786107	keystroke_p	p	n/a
393.1325	0.1015	786265	keystroke_a	a	n/a
393.1775	0.146	786355	keystroke_s	s	n/a
393.3345	0.0905	786669	keystroke_t	t	n/a
393.5935	0.0785	787187	keystroke_o	o	n/a
393.6275	0.101	787255	keystroke_r	r	n/a
393.74	0.09	787480	keystroke_Key.enter	Key.enter	n/a
393.834	4.149	787668	prompt	n/a	club knife pushed recorded\n
394.5725	0.0785	789145	keystroke_c	c	n/a
394.6735	0.1015	789347	keystroke_l	l	n/a
394.73	0.135	789460	keystroke_u	u	n/a
394.8085	0.0905	789617	keystroke_b	b	n/a
394.9325	0.1465	789865	keystroke_Key.space	Key.space	n/a
395.0675	0.101	790135	keystroke_k	k	n/a
395.135	0.112	790270	keystroke_n	n	n/a
395.304	0.1125	790608	keystroke_i	i	n/a
395.405	0.1015	790810	keystroke_f	f	n/a
395.5965	0.0675	791193	keystroke_e	e	n/a
395.72	0.1015	791440	keystroke_Key.space	Key.space	n/a
395.867	0.123	791734	keystroke_p	p	n/a
395.9565	0.0785	791913	keystroke_u	u	n/a
396.069	0.0895	792138	keystroke_s	s	n/a
396.1695	0.1015	792339	keystroke_h	h	n/a
396.2825	0.101	792565	keystroke_e	e	n/a
396.4625	0.124	792925	keystroke_d	d	n/a
396.575	0.0785	793150	keystroke_Key.space	Key.space	n/a
396.71	0.1125	793420	keystroke_r	r	n/a
396.7775	0.0675	793555	keystroke_e	e	n/a
397.0025	0.09	794005	keystroke_c	c	n/a
397.1375	0.0895	794275	keystroke_o	o	n/a
397.2385	0.113	794477	keystroke_r	r	n/a
397.3625	0.09	794725	keystroke_d	d	n/a
397.6105	0.0555	795221	keystroke_e	e	n/a
397.7675	0.09	795535	keystroke_d	d	n/a
397.9475	0.0345	795895	keystroke_Key.enter	Key.enter	n/a
397.9855	6.06	795971	prompt	n/a	quantities similar grave formed\n
398.78	0.0675	797560	keystroke_q	q	n/a
398.882	0.078	797764	keystroke_u	u	n/a
398.994	0.101	797988	keystroke_a	a	n/a
399.1285	0.1125	798257	keystroke_n	n	n/a
399.298	0.078	798596	keystroke_t	t	n/a
399.489	0.0895	798978	keystroke_i	i	n/a
399.6685	0.1125	799337	keystroke_t	t	n/a
400.3325	0.09	800665	keystroke_i	i	n/a
400.4115	0.135	800823	keystroke_e	e	n/a
400.5915	0.1125	801183	keystroke_s	s	n/a
400.715	0.101	801430	keystroke_Key.space	Key.space	n/a
400.85	0.079	801700	keystroke_s	s	n/a
400.929	0.1235	801858	keystroke_i	i	n/a
401.12	0.1125	802240	keystroke_m	m	n/a
401.345	0.0785	802690	keystroke_i	i	n/a
401.536	0.1015	803072	keystroke_l	l	n/a
401.795	0.1345	803590	keystroke_a	a	n/a
401.8965	0.1345	803793	keystroke_r	r	n/a
402.11	0.1125	804220	keystroke_Key.space	Key.space	n/a
402.335	0.079	804670	keystroke_g	g	n/a
402.56	0.0905	805120	keystroke_r	r	n/a
402.6385	0.068	805277	keystroke_a	a	n/a
402.807	0.124	805614	keystroke_v	v	n/a
402.92	0.079	805840	keystroke_e	e	n/a
403.0325	0.1355	806065	keystroke_Key.space	Key.space	n/a
403.1445	0.068	806289	keystroke_f	f	n/a
403.28	0.101	806560	keystroke_o	o	n/a
403.437	0.113	806874	keystroke_r	r	n/a
403.6065	0.101	807213	keystroke_m	m	n/a
403.719	0.0555	807438	keystroke_e	e	n/a
403.8875	0.0565	807775	keystroke_d	d	n/a
403.9665	0.0785	807933	keystroke_Key.enter	Key.enter	n/a
404.0485	4.835	808097	prompt	n/a	rent always deserve stevens\n
404.697	0.0905	809394	keystroke_r	r	n/a
404.731	0.1015	809462	keystroke_e	e	n/a
404.8095	0.1125	809619	keystroke_n	n	n/a
404.9	0.0895	809800	keystroke_t	t	n/a
405.0235	0.101	810047	keystroke_Key.space	Key.space	n/a
405.0915	0.078	810183	keystroke_a	a	n/a
405.192	0.0795	810384	keystroke_l	l	n/a
405.327	0.147	810654	keystroke_w	w	n/a
405.462	0.102	810924	keystroke_a	a	n/a
405.6085	0.113	811217	keystroke_y	y	n/a
405.732	0.0675	811464	keystroke_s	s	n/a
405.8345	0.1005	811669	keystroke_Key.space	Key.space	n/a
406.0585	0.0785	812117	keystroke_d	d	n/a
406.25	0.079	812500	keystroke_e	e	n/a
406.419	0.1005	812838	keystroke_s	s	n/a
406.5535	0.1575	813107	keystroke_e	e	n/a
406.6995	0.079	813399	keystroke_r	r	n/a
406.891	0.135	813782	keystroke_v	v	n/a
407.161	0.0675	814322	keystroke_e	e	n/a
407.307	0.113	814614	keystroke_Key.space	Key.space	n/a
407.4875	0.135	814975	keystroke_s	s	n/a
407.634	0.0895	815268	keystroke_t	t	n/a
407.735	0.09	815470	keystroke_e	e	n/a
407.9715	0.113	815943	keystroke_v	v	n/a
408.095	0.1015	816190	keystroke_e	e	n/a
408.297	0.1355	816594	keystroke_n	n	n/a
408.669	0.101	817338	keystroke_s	s	n/a
408.8045	0.078	817609	keystroke_Key.enter	Key.enter	n/a
408.886	5.0825	817772	prompt	n/a	prophet cafe weapon perth\n
409.512	0.068	819024	keystroke_p	p	n/a
409.614	0.078	819228	keystroke_r	r	n/a
409.8275	0.112	819655	keystroke_o	o	n/a
410.097	0.09	820194	keystroke_p	p	n/a
410.2775	0.0895	820555	keystroke_h	h	n/a
410.4235	0.1015	820847	keystroke_e	e	n/a
410.637	0.079	821274	keystroke_t	t	n/a
410.7615	0.1005	821523	keystroke_Key.space	Key.space	n/a
411.0085	0.0905	822017	keystroke_c	c	n/a
411.1435	0.124	822287	keystroke_a	a	n/a
411.2565	0.1005	822513	keystroke_f	f	n/a
411.425	0.0675	822850	keystroke_e	e	n/a
411.5715	0.1235	823143	keystroke_Key.space	Key.space	n/a
411.8865	0.1235	823773	keystroke_w	w	n/a
412.167	0.0675	824334	keystroke_e	e	n/a
412.3585	0.056	824717	keystroke_a	a	n/a
412.5945	0.068	825189	keystroke_p	p	n/a
412.865	0.0895	825730	keystroke_o	o	n/a
413.011	0.1805	826022	keystroke_n	n	n/a
413.18	0.067	826360	keystroke_Key.space	Key.space	n/a
413.304	0.1005	826608	keystroke_p	p	n/a
413.439	0.113	826878	keystroke_e	e	n/a
413.5395	0.023	827079	keystroke_r	r	n/a
413.6745	0.0675	827349	keystroke_t	t	n/a
413.7535	0.079	827507	keystroke_h	h	n/a
413.9	0.0675	827800	keystroke_Key.enter	Key.enter	n/a
413.9725	5.092	827945	prompt	n/a	beads projected files programs\n
414.687	0.1125	829374	keystroke_b	b	n/a
414.845	0.0785	829690	keystroke_e	e	n/a
414.9345	0.147	829869	keystroke_a	a	n/a
415.0695	0.045	830139	keystroke_s	s	n/a
415.5085	0.079	831017	keystroke_Key.backspace	Key.backspace	n/a
415.576	0.0785	831152	keystroke_d	d	n/a
415.6325	0.101	831265	keystroke_s	s	n/a
415.767	0.1015	831534	keystroke_Key.space	Key.space	n/a
416.4195	0.057	832839	keystroke_p	p	n/a
416.487	0.057	832974	keystroke_r	r	n/a
416.5545	0.1245	833109	keystroke_o	o	n/a
416.589	0.112	833178	keystroke_j	j	n/a
416.701	0.079	833402	keystroke_e	e	n/a
416.904	0.0785	833808	keystroke_c	c	n/a
417.072	0.068	834144	keystroke_t	t	n/a
417.129	0.0675	834258	keystroke_e	e	n/a
417.342	0.0905	834684	keystroke_d	d	n/a
417.444	0.113	834888	keystroke_Key.space	Key.space	n/a
417.5565	0.056	835113	keystroke_f	f	n/a
417.601	0.113	835202	keystroke_i	i	n/a
417.657	0.0905	835314	keystroke_l	l	n/a
417.7365	0.09	835473	keystroke_e	e	n/a
417.816	0.111	835632	keystroke_s	s	n/a
417.916	0.1015	835832	keystroke_Key.space	Key.space	n/a
418.0395	0.09	836079	keystroke_p	p	n/a
418.152	0.09	836304	keystroke_r	r	n/a
418.2765	0.09	836553	keystroke_o	o	n/a
418.3665	0.078	836733	keystroke_g	g	n/a
418.5795	0.102	837159	keystroke_r	r	n/a
418.647	0.09	837294	keystroke_a	a	n/a
418.7265	0.112	837453	keystroke_m	m	n/a
418.861	0.068	837722	keystroke_s	s	n/a
418.985	0.079	837970	keystroke_Key.enter	Key.enter	n/a
419.0675	4.261	838135	prompt	n/a	nicole verde rough bunch\n
419.772	0.1015	839544	keystroke_n	n	n/a
419.8395	0.1015	839679	keystroke_i	i	n/a
419.9295	0.1015	839859	keystroke_c	c	n/a
420.042	0.0675	840084	keystroke_o	o	n/a
420.1995	0.09	840399	keystroke_l	l	n/a
420.301	0.09	840602	keystroke_e	e	n/a
420.4245	0.1245	840849	keystroke_Key.space	Key.space	n/a
420.6165	0.0895	841233	keystroke_v	v	n/a
420.7855	0.09	841571	keystroke_e	e	n/a
420.8635	0.102	841727	keystroke_r	r	n/a
421.167	0.18	842334	keystroke_d	d	n/a
421.527	0.0675	843054	keystroke_e	e	n/a
421.6845	0.0905	843369	keystroke_Key.space	Key.space	n/a
421.921	0.0675	843842	keystroke_r	r	n/a
422.034	0.101	844068	keystroke_o	o	n/a
422.0895	0.079	844179	keystroke_u	u	n/a
422.1345	0.0675	844269	keystroke_g	g	n/a
422.225	0.101	844450	keystroke_h	h	n/a
422.337	0.1015	844674	keystroke_Key.space	Key.space	n/a
422.7085	0.0675	845417	keystroke_b	b	n/a
422.787	0.09	845574	keystroke_u	u	n/a
422.979	0.0785	845958	keystroke_n	n	n/a
423.069	0.0675	846138	keystroke_c	c	n/a
423.137	0.0775	846274	keystroke_h	h	n/a
423.26	0.0675	846520	keystroke_Key.enter	Key.enter	n/a
423.331	5.003	846662	prompt	n/a	coalition trade these advanced\n
424.092	0.0795	848184	keystroke_c	c	n/a
424.3395	0.045	848679	keystroke_o	o	n/a
424.4075	0.101	848815	keystroke_a	a	n/a
424.531	0.09	849062	keystroke_l	l	n/a
424.779	0.0555	849558	keystroke_i	i	n/a
424.8465	0.1125	849693	keystroke_t	t	n/a
424.992	0.18	849984	keystroke_i	i	n/a
425.0825	0.0785	850165	keystroke_o	o	n/a
425.116	0.1575	850232	keystroke_n	n	n/a
425.262	0.1465	850524	keystroke_Key.space	Key.space	n/a
425.487	0.0795	850974	keystroke_t	t	n/a
425.645	0.1125	851290	keystroke_r	r	n/a
425.746	0.1235	851492	keystroke_a	a	n/a
425.881	0.068	851762	keystroke_d	d	n/a
426.072	0.0675	852144	keystroke_e	e	n/a
426.162	0.113	852324	keystroke_Key.space	Key.space	n/a
426.286	0.0795	852572	keystroke_t	t	n/a
426.376	0.09	852752	keystroke_h	h	n/a
426.4435	0.169	852887	keystroke_e	e	n/a
426.6235	0.124	853247	keystroke_s	s	n/a
426.7135	0.09	853427	keystroke_e	e	n/a
426.8825	0.101	853765	keystroke_Key.space	Key.space	n/a
427.0625	0.09	854125	keystroke_a	a	n/a
427.1635	0.0675	854327	keystroke_d	d	n/a
427.3435	0.09	854687	keystroke_v	v	n/a
427.49	0.101	854980	keystroke_a	a	n/a
427.681	0.102	855362	keystroke_n	n	n/a
427.7935	0.0675	855587	keystroke_c	c	n/a
427.996	0.057	855992	keystroke_e	e	n/a
428.1425	0.101	856285	keystroke_d	d	n/a
428.2885	0.045	856577	keystroke_Key.enter	Key.enter	n/a
428.337	5.1385	856674	prompt	n/a	ukraine horse cartoon relying\n
429.1885	0.1015	858377	keystroke_u	u	n/a
429.4135	0.0675	858827	keystroke_k	k	n/a
429.7845	0.102	859569	keystroke_r	r	n/a
429.931	0.1015	859862	keystroke_a	a	n/a
430.0885	0.09	860177	keystroke_i	i	n/a
430.212	0.1015	860424	keystroke_n	n	n/a
430.359	0.0675	860718	keystroke_e	e	n/a
430.483	0.101	860966	keystroke_Key.space	Key.space	n/a
430.662	0.1245	861324	keystroke_h	h	n/a
430.7415	0.0895	861483	keystroke_o	o	n/a
430.842	0.1125	861684	keystroke_r	r	n/a
431.0225	0.157	862045	keystroke_s	s	n/a
431.101	0.09	862202	keystroke_e	e	n/a
431.2585	0.0785	862517	keystroke_Key.space	Key.space	n/a
431.506	0.135	863012	keystroke_c	c	n/a
431.686	0.113	863372	keystroke_a	a	n/a
431.7535	0.101	863507	keystroke_r	r	n/a
431.9565	0.067	863913	keystroke_t	t	n/a
432.057	0.0675	864114	keystroke_o	o	n/a
432.2035	0.1235	864407	keystroke_o	o	n/a
432.4175	0.1015	864835	keystroke_n	n	n/a
432.507	0.09	865014	keystroke_Key.space	Key.space	n/a
432.687	0.102	865374	keystroke_r	r	n/a
432.777	0.045	865554	keystroke_e	e	n/a
432.8335	0.1355	865667	keystroke_l	l	n/a
432.957	0.09	865914	keystroke_y	y	n/a
433.1825	0.0895	866365	keystroke_i	i	n/a
433.216	0.146	866432	keystroke_n	n	n/a
433.3515	0.0335	866703	keystroke_g	g	n/a
433.3965	0.078	866793	keystroke_Key.enter	Key.enter	n/a
433.479	6.2625	866958	prompt	n/a	dallas vector legislature issued\n
434.9595	0.0905	869919	keystroke_d	d	n/a
435.1515	0.078	870303	keystroke_a	a	n/a
435.298	0.044	870596	keystroke_l	l	n/a
435.4325	0.1015	870865	keystroke_l	l	n/a
435.5445	0.0905	871089	keystroke_a	a	n/a
435.601	0.0905	871202	keystroke_s	s	n/a
435.7365	0.09	871473	keystroke_Key.space	Key.space	n/a
435.984	0.0895	871968	keystroke_v	v	n/a
436.107	0.0795	872214	keystroke_e	e	n/a
436.3325	0.1015	872665	keystroke_c	c	n/a
436.5465	0.067	873093	keystroke_t	t	n/a
436.6695	0.113	873339	keystroke_o	o	n/a
436.771	0.0455	873542	keystroke_r	r	n/a
436.8495	0.135	873699	keystroke_Key.space	Key.space	n/a
437.097	0.09	874194	keystroke_l	l	n/a
437.154	0.1005	874308	keystroke_e	e	n/a
437.3335	0.0785	874667	keystroke_g	g	n/a
437.4465	0.09	874893	keystroke_i	i	n/a
437.5365	0.113	875073	keystroke_s	s	n/a
437.7385	0.068	875477	keystroke_l	l	n/a
437.919	0.1005	875838	keystroke_a	a	n/a
437.986	0.0785	875972	keystroke_t	t	n/a
438.144	0.123	876288	keystroke_u	u	n/a
438.2565	0.1455	876513	keystroke_r	r	n/a
438.3345	0.1125	876669	keystroke_e	e	n/a
438.492	0.1125	876984	keystroke_Key.space	Key.space	n/a
438.661	0.1125	877322	keystroke_i	i	n/a
438.762	0.0675	877524	keystroke_s	s	n/a
438.9085	0.09	877817	keystroke_s	s	n/a
439.066	0.1125	878132	keystroke_u	u	n/a
439.145	0.0895	878290	keystroke_e	e	n/a
439.5835	0.079	879167	keystroke_d	d	n/a
439.6735	0.0675	879347	keystroke_Key.enter	Key.enter	n/a
439.744	5.9725	879488	prompt	n/a	lingerie panel declined linked\n
440.596	0.101	881192	keystroke_l	l	n/a
440.6635	0.157	881327	keystroke_i	i	n/a
440.742	0.135	881484	keystroke_n	n	n/a
440.9895	0.079	881979	keystroke_g	g	n/a
441.2145	0.1125	882429	keystroke_e	e	n/a
441.2825	0.0895	882565	keystroke_r	r	n/a
441.4285	0.1235	882857	keystroke_i	i	n/a
