onset	duration	sample	value	key	prompt_text
20.9585	0.091	41917	keystroke_m	m	n/a
21.0335	0.1045	42067	keystroke_i	i	n/a
21.153	0.0625	42306	keystroke_n	n	n/a
21.259	0.0595	42518	keystroke_g	g	n/a
21.438	0.076	42876	keystroke_r	r	n/a
21.483	0.0905	42966	keystroke_u	u	n/a
21.5435	0.09	43087	keystroke_i	i	n/a
25.5935	0.12	51187	keystroke_Key.tab	Key.tab	n/a
29.9145	0.314	59829	keystroke_Key.cmd	Key.cmd	n/a
30.094	0.1195	60188	keystroke_c	c	n/a
30.4535	0.255	60907	keystroke_Key.ctrl	Key.ctrl	n/a
30.5285	0.09	61057	keystroke_Key.tab	Key.tab	n/a
31.114	0.2095	62228	keystroke_Key.cmd	Key.cmd	n/a
31.189	0.105	62378	keystroke_v	v	n/a
37.208	7.756	74416	prompt	n/a	the quick brown fox jumps over a lazy dog\n
39.109	0.105	78218	keystroke_t	t	n/a
39.199	0.045	78398	keystroke_h	h	n/a
39.2745	0.1045	78549	keystroke_e	e	n/a
39.349	0.1075	78698	keystroke_Key.space	Key.space	n/a
39.499	0.09	78998	keystroke_q	q	n/a
39.6045	0.134	79209	keystroke_u	u	n/a
39.679	0.105	79358	keystroke_i	i	n/a
39.754	0.0605	79508	keystroke_c	c	n/a
39.9195	0.0595	79839	keystroke_k	k	n/a
39.9945	0.1045	79989	keystroke_Key.space	Key.space	n/a
40.3535	0.075	80707	keystroke_b	b	n/a
40.564	0.0745	81128	keystroke_r	r	n/a
40.684	0.0755	81368	keystroke_o	o	n/a
40.744	0.1055	81488	keystroke_w	w	n/a
40.894	0.0745	81788	keystroke_n	n	n/a
40.9835	0.105	81967	keystroke_Key.space	Key.space	n/a
41.18	0.0735	82360	keystroke_f	f	n/a
41.314	0.075	82628	keystroke_o	o	n/a
41.419	0.075	82838	keystroke_x	x	n/a
41.6135	0.0605	83227	keystroke_Key.space	Key.space	n/a
41.7335	0.0765	83467	keystroke_j	j	n/a
41.914	0.0745	83828	keystroke_u	u	n/a
42.079	0.1345	84158	keystroke_m	m	n/a
42.184	0.105	84368	keystroke_p	p	n/a
42.3035	0.12	84607	keystroke_s	s	n/a
42.364	0.12	84728	keystroke_Key.space	Key.space	n/a
42.589	0.105	85178	keystroke_o	o	n/a
42.709	0.075	85418	keystroke_v	v	n/a
42.829	0.105	85658	keystroke_e	e	n/a
42.8885	0.165	85777	keystroke_r	r	n/a
42.994	0.0895	85988	keystroke_Key.space	Key.space	n/a
43.2785	0.0305	86557	keystroke_a	a	n/a
43.294	0.09	86588	keystroke_Key.space	Key.space	n/a
43.6235	0.1055	87247	keystroke_l	l	n/a
43.774	0.075	87548	keystroke_a	a	n/a
43.999	0.045	87998	keystroke_z	z	n/a
44.089	0.09	88178	keystroke_y	y	n/a
44.2685	0.0755	88537	keystroke_Key.space	Key.space	n/a
44.389	0.09	88778	keystroke_d	d	n/a
44.5385	0.0755	89077	keystroke_o	o	n/a
44.629	0.075	89258	keystroke_g	g	n/a
44.884	0.0775	89768	keystroke_Key.enter	Key.enter	n/a
44.9665	5.723	89933	prompt	n/a	objects bare twist credits\n
46.2635	0.0755	92527	keystroke_o	o	n/a
46.3385	0.0755	92677	keystroke_b	b	n/a
46.474	0.09	92948	keystroke_j	j	n/a
46.5935	0.075	93187	keystroke_e	e	n/a
46.804	0.06	93608	keystroke_c	c	n/a
46.9385	0.0905	93877	keystroke_t	t	n/a
47.074	0.12	94148	keystroke_s	s	n/a
47.179	0.105	94358	keystroke_Key.space	Key.space	n/a
47.464	0.0895	94928	keystroke_b	b	n/a
47.629	0.0895	95258	keystroke_a	a	n/a
47.764	0.1345	95528	keystroke_r	r	n/a
47.8385	0.1205	95677	keystroke_e	e	n/a
48.0185	0.105	96037	keystroke_Key.space	Key.space	n/a
48.319	0.1045	96638	keystroke_t	t	n/a
48.409	0.12	96818	keystroke_w	w	n/a
48.6335	0.105	97267	keystroke_i	i	n/a
48.814	0.12	97628	keystroke_s	s	n/a
48.919	0.1345	97838	keystroke_t	t	n/a
49.0235	0.1055	98047	keystroke_Key.space	Key.space	n/a
49.3235	0.09	98647	keystroke_c	c	n/a
49.534	0.1365	99068	keystroke_r	r	n/a
49.6385	0.1055	99277	keystroke_e	e	n/a
49.8935	0.0755	99787	keystroke_d	d	n/a
50.059	0.09	100118	keystroke_i	i	n/a
50.194	0.1065	100388	keystroke_t	t	n/a
50.359	0.105	100718	keystroke_s	s	n/a
50.5985	0.09	101197	keystroke_Key.enter	Key.enter	n/a
50.6925	6.192	101385	prompt	n/a	quad spelling kinase married\n
51.634	0.0895	103268	keystroke_q	q	n/a
51.7385	0.0905	103477	keystroke_u	u	n/a
51.8605	0.1035	103721	keystroke_a	a	n/a
52.0385	0.166	104077	keystroke_d	d	n/a
52.1975	0.0965	104395	keystroke_Key.space	Key.space	n/a
52.3835	0.079	104767	keystroke_s	s	n/a
52.774	0.12	105548	keystroke_p	p	n/a
52.9235	0.1055	105847	keystroke_e	e	n/a
53.419	0.06	106838	keystroke_l	l	n/a
53.584	0.12	107168	keystroke_l	l	n/a
53.674	0.12	107348	keystroke_i	i	n/a
53.764	0.0895	107528	keystroke_n	n	n/a
53.8385	0.1355	107677	keystroke_g	g	n/a
53.944	0.105	107888	keystroke_Key.space	Key.space	n/a
54.304	0.0895	108608	keystroke_k	k	n/a
54.529	0.09	109058	keystroke_i	i	n/a
54.604	0.1345	109208	keystroke_n	n	n/a
54.8585	0.1055	109717	keystroke_a	a	n/a
55.0685	0.1505	110137	keystroke_s	s	n/a
55.234	0.1195	110468	keystroke_e	e	n/a
55.4135	0.1205	110827	keystroke_Key.space	Key.space	n/a
55.879	0.0895	111758	keystroke_m	m	n/a
55.9535	0.0755	111907	keystroke_a	a	n/a
56.1045	0.0745	112209	keystroke_r	r	n/a
56.284	0.075	112568	keystroke_r	r	n/a
56.374	0.09	112748	keystroke_i	i	n/a
56.464	0.0745	112928	keystroke_e	e	n/a
56.6585	0.0755	113317	keystroke_d	d	n/a
56.824	0.0595	113648	keystroke_Key.enter	Key.enter	n/a
56.888	5.337	113776	prompt	n/a	dense array varied stopping\n
57.649	0.0895	115298	keystroke_d	d	n/a
57.844	0.06	115688	keystroke_e	e	n/a
57.949	0.1045	115898	keystroke_n	n	n/a
58.084	0.1645	116168	keystroke_s	s	n/a
58.159	0.15	116318	keystroke_e	e	n/a
58.3235	0.1055	116647	keystroke_Key.space	Key.space	n/a
58.791	0.0875	117582	keystroke_a	a	n/a
59.059	0.075	118118	keystroke_r	r	n/a
59.2235	0.1055	118447	keystroke_r	r	n/a
59.314	0.09	118628	keystroke_a	a	n/a
59.4935	0.1205	118987	keystroke_y	y	n/a
59.644	0.09	119288	keystroke_Key.space	Key.space	n/a
59.914	0.105	119828	keystroke_v	v	n/a
60.034	0.1045	120068	keystroke_a	a	n/a
60.244	0.09	120488	keystroke_r	r	n/a
60.394	0.09	120788	keystroke_i	i	n/a
60.4685	0.0755	120937	keystroke_e	e	n/a
60.664	0.0895	121328	keystroke_d	d	n/a
60.7685	0.1055	121537	keystroke_Key.space	Key.space	n/a
60.9035	0.12	121807	keystroke_s	s	n/a
61.0385	0.0755	122077	keystroke_t	t	n/a
61.148	0.086	122296	keystroke_o	o	n/a
61.3385	0.1655	122677	keystroke_p	p	n/a
61.6095	0.1195	123219	keystroke_p	p	n/a
61.7755	0.1185	123551	keystroke_i	i	n/a
61.849	0.1045	123698	keystroke_n	n	n/a
61.984	0.0895	123968	keystroke_g	g	n/a
62.164	0.0595	124328	keystroke_Key.enter	Key.enter	n/a
62.2285	4.151	124457	prompt	n/a	posing nancy course march\n
63.0355	0.103	126071	keystroke_p	p	n/a
63.094	0.135	126188	keystroke_o	o	n/a
63.244	0.091	126488	keystroke_s	s	n/a
63.364	0.1195	126728	keystroke_i	i	n/a
63.4535	0.1055	126907	keystroke_n	n	n/a
63.529	0.138	127058	keystroke_g	g	n/a
63.604	0.1195	127208	keystroke_Key.space	Key.space	n/a
63.7685	0.076	127537	keystroke_n	n	n/a
63.844	0.075	127688	keystroke_a	a	n/a
63.964	0.0895	127928	keystroke_n	n	n/a
64.084	0.105	128168	keystroke_c	c	n/a
64.294	0.12	128588	keystroke_y	y	n/a
64.429	0.075	128858	keystroke_Key.space	Key.space	n/a
64.6385	0.1055	129277	keystroke_c	c	n/a
64.714	0.135	129428	keystroke_o	o	n/a
64.789	0.1345	129578	keystroke_u	u	n/a
64.9385	0.0905	129877	keystroke_r	r	n/a
65.0895	0.164	130179	keystroke_s	s	n/a
65.149	0.1645	130298	keystroke_e	e	n/a
65.329	0.09	130658	keystroke_Key.space	Key.space	n/a
65.479	0.135	130958	keystroke_m	m	n/a
65.584	0.105	131168	keystroke_a	a	n/a
65.719	0.1195	131438	keystroke_r	r	n/a
66.004	0.06	132008	keystroke_c	c	n/a
66.079	0.0755	132158	keystroke_h	h	n/a
66.304	0.0745	132608	keystroke_Key.enter	Key.enter	n/a
66.382	6.193	132764	prompt	n/a	sleeping montana hawaii placing\n
67.264	0.1045	134528	keystroke_s	s	n/a
67.4145	0.1045	134829	keystroke_l	l	n/a
67.534	0.075	135068	keystroke_e	e	n/a
67.684	0.105	135368	keystroke_e	e	n/a
67.849	0.0895	135698	keystroke_p	p	n/a
68.0145	0.1045	136029	keystroke_i	i	n/a
68.0885	0.1055	136177	keystroke_n	n	n/a
68.2095	0.1495	136419	keystroke_g	g	n/a
68.2835	0.1205	136567	keystroke_Key.space	Key.space	n/a
68.614	0.09	137228	keystroke_m	m	n/a
68.749	0.135	137498	keystroke_o	o	n/a
68.8535	0.1055	137707	keystroke_n	n	n/a
69.0935	0.09	138187	keystroke_t	t	n/a
69.229	0.09	138458	keystroke_a	a	n/a
69.409	0.09	138818	keystroke_n	n	n/a
69.5445	0.119	139089	keystroke_a	a	n/a
69.6355	0.118	139271	keystroke_Key.space	Key.space	n/a
69.934	0.075	139868	keystroke_h	h	n/a
70.0385	0.1055	140077	keystroke_a	a	n/a
70.309	0.15	140618	keystroke_w	w	n/a
70.429	0.12	140858	keystroke_a	a	n/a
70.6685	0.0755	141337	keystroke_i	i	n/a
70.849	0.0745	141698	keystroke_i	i	n/a
70.984	0.105	141968	keystroke_Key.space	Key.space	n/a
71.5685	0.0605	143137	keystroke_p	p	n/a
71.764	0.1045	143528	keystroke_l	l	n/a
71.825	0.089	143650	keystroke_a	a	n/a
72.004	0.075	144008	keystroke_c	c	n/a
72.109	0.105	144218	keystroke_i	i	n/a
72.1685	0.135	144337	keystroke_n	n	n/a
72.2895	0.0745	144579	keystroke_g	g	n/a
72.514	0.06	145028	keystroke_Key.enter	Key.enter	n/a
72.5805	6.9845	145161	prompt	n/a	dozens kinase canon grown\n
73.999	0.105	147998	keystroke_d	d	n/a
74.194	0.12	148388	keystroke_o	o	n/a
74.644	0.105	149288	keystroke_z	z	n/a
74.764	0.1195	149528	keystroke_e	e	n/a
74.914	0.0895	149828	keystroke_n	n	n/a
75.049	0.15	150098	keystroke_s	s	n/a
75.2135	0.1355	150427	keystroke_Key.space	Key.space	n/a
75.5285	0.0765	151057	keystroke_k	k	n/a
75.709	0.09	151418	keystroke_i	i	n/a
75.7835	0.0905	151567	keystroke_n	n	n/a
75.994	0.1345	151988	keystroke_a	a	n/a
76.3235	0.1655	152647	keystroke_s	s	n/a
76.399	0.165	152798	keystroke_e	e	n/a
76.579	0.1205	153158	keystroke_Key.space	Key.space	n/a
76.894	0.12	153788	keystroke_c	c	n/a
77.2535	0.0905	154507	keystroke_a	a	n/a
77.509	0.15	155018	keystroke_n	n	n/a
77.6135	0.1205	155227	keystroke_o	o	n/a
77.944	0.0895	155888	keystroke_n	n	n/a
78.199	0.15	156398	keystroke_Key.space	Key.space	n/a
78.604	0.0895	157208	keystroke_g	g	n/a
78.814	0.09	157628	keystroke_r	r	n/a
78.949	0.1195	157898	keystroke_o	o	n/a
79.084	0.105	158168	keystroke_w	w	n/a
79.22	0.089	158440	keystroke_n	n	n/a
79.504	0.06	159008	keystroke_Key.enter	Key.enter	n/a
79.5685	8.1275	159137	prompt	n/a	suites alliance collector convert\n
80.389	0.105	160778	keystroke_s	s	n/a
80.659	0.045	161318	keystroke_t	t	n/a
81.004	0.075	162008	keystroke_Key.backspace	Key.backspace	n/a
81.244	0.1655	162488	keystroke_u	u	n/a
81.349	0.1345	162698	keystroke_i	i	n/a
81.5745	0.104	163149	keystroke_t	t	n/a
81.8885	0.09	163777	keystroke_e	e	n/a
82.099	0.12	164198	keystroke_s	s	n/a
82.219	0.1045	164438	keystroke_Key.space	Key.space	n/a
82.459	0.0895	164918	keystroke_a	a	n/a
82.6085	0.075	165217	keystroke_l	l	n/a
82.789	0.1345	165578	keystroke_l	l	n/a
82.894	0.135	165788	keystroke_i	i	n/a
83.149	0.1045	166298	keystroke_a	a	n/a
83.3135	0.0755	166627	keystroke_n	n	n/a
83.434	0.0895	166868	keystroke_c	c	n/a
83.659	0.075	167318	keystroke_e	e	n/a
83.734	0.1045	167468	keystroke_Key.space	Key.space	n/a
83.959	0.075	167918	keystroke_c	c	n/a
84.0485	0.075	168097	keystroke_o	o	n/a
84.244	0.0595	168488	keystroke_l	l	n/a
84.409	0.0745	168818	keystroke_l	l	n/a
84.4685	0.0755	168937	keystroke_e	e	n/a
84.679	0.0895	169358	keystroke_c	c	n/a
84.7985	0.0905	169597	keystroke_t	t	n/a
84.919	0.0895	169838	keystroke_o	o	n/a
85.0535	0.105	170107	keystroke_r	r	n/a
85.1735	0.105	170347	keystroke_Key.space	Key.space	n/a
85.684	0.12	171368	keystroke_o	o	n/a
85.7585	0.061	171517	keystroke_n	n	n/a
86.119	0.0595	172238	keystroke_Key.backspace	Key.backspace	n/a
86.2845	0.074	172569	keystroke_Key.backspace	Key.backspace	n/a
86.419	0.1045	172838	keystroke_c	c	n/a
86.5235	0.1205	173047	keystroke_o	o	n/a
86.599	0.09	173198	keystroke_n	n	n/a
86.7185	0.105	173437	keystroke_v	v	n/a
86.914	0.1045	173828	keystroke_e	e	n/a
86.959	0.105	173918	keystroke_r	r	n/a
87.4085	0.1055	174817	keystroke_t	t	n/a
87.589	0.1055	175178	keystroke_Key.enter	Key.enter	n/a
87.6995	7.63	175399	prompt	n/a	kenny amateur korean overseas\n
88.4435	0.09	176887	keystroke_k	k	n/a
88.5485	0.09	177097	keystroke_e	e	n/a
88.7135	0.045	177427	keystroke_y	y	n/a
89.2535	0.075	178507	keystroke_Key.backspace	Key.backspace	n/a
89.4635	0.075	178927	keystroke_n	n	n/a
89.6285	0.0755	179257	keystroke_n	n	n/a
89.8235	0.0755	179647	keystroke_y	y	n/a
90.0935	0.1055	180187	keystroke_Key.space	Key.space	n/a
90.3335	0.09	180667	keystroke_a	a	n/a
90.559	0.075	181118	keystroke_m	m	n/a
90.664	0.12	181328	keystroke_a	a	n/a
90.979	0.0745	181958	keystroke_t	t	n/a
91.2935	0.09	182587	keystroke_e	e	n/a
91.894	0.0895	183788	keystroke_u	u	n/a
92.029	0.1045	184058	keystroke_r	r	n/a
92.2535	0.1055	184507	keystroke_Key.space	Key.space	n/a
92.509	0.1045	185018	keystroke_k	k	n/a
92.704	0.0895	185408	keystroke_o	o	n/a
92.989	0.09	185978	keystroke_r	r	n/a
93.199	0.135	186398	keystroke_e	e	n/a
93.349	0.1045	186698	keystroke_a	a	n/a
93.5285	0.1055	187057	keystroke_n	n	n/a
93.694	0.0745	187388	keystroke_Key.space	Key.space	n/a
93.859	0.105	187718	keystroke_o	o	n/a
93.994	0.0895	187988	keystroke_v	v	n/a
94.1135	0.1505	188227	keystroke_e	e	n/a
94.204	0.106	188408	keystroke_r	r	n/a
94.429	0.2395	188858	keystroke_s	s	n/a
94.4735	0.18	188947	keystroke_e	e	n/a
94.564	0.12	189128	keystroke_a	a	n/a
94.94	0.134	189880	keystroke_s	s	n/a
95.2385	0.09	190477	keystroke_Key.enter	Key.enter	n/a
95.3325	8.502	190665	prompt	n/a	collection racing porter appliance\n
96.1835	0.1055	192367	keystroke_c	c	n/a
96.259	0.075	192518	keystroke_o	o	n/a
96.4535	0.0755	192907	keystroke_l	l	n/a
96.6335	0.09	193267	keystroke_l	l	n/a
96.694	0.0745	193388	keystroke_e	e	n/a
96.904	0.075	193808	keystroke_c	c	n/a
97.0235	0.06	194047	keystroke_t	t	n/a
97.13	0.1485	194260	keystroke_i	i	n/a
97.159	0.136	194318	keystroke_o	o	n/a
97.2485	0.12	194497	keystroke_n	n	n/a
97.414	0.09	194828	keystroke_Key.space	Key.space	n/a
97.6685	0.1055	195337	keystroke_r	r	n/a
97.759	0.105	195518	keystroke_a	a	n/a
97.9835	0.06	195967	keystroke_c	c	n/a
98.104	0.1045	196208	keystroke_i	i	n/a
98.194	0.105	196388	keystroke_n	n	n/a
98.329	0.15	196658	keystroke_g	g	n/a
98.419	0.1045	196838	keystroke_Key.space	Key.space	n/a
98.689	0.12	197378	keystroke_p	p	n/a
98.794	0.12	197588	keystroke_o	o	n/a
98.929	0.12	197858	keystroke_r	r	n/a
99.244	0.1195	198488	keystroke_t	t	n/a
99.4385	0.1205	198877	keystroke_e	e	n/a
99.5445	0.1345	199089	keystroke_r	r	n/a
99.694	0.15	199388	keystroke_Key.space	Key.space	n/a
100.084	0.06	200168	keystroke_a	a	n/a
100.264	0.0445	200528	keystroke_l	l	n/a
100.6385	0.075	201277	keystroke_Key.backspace	Key.backspace	n/a
100.879	0.0745	201758	keystroke_p	p	n/a
101.059	0.09	202118	keystroke_p	p	n/a
101.2685	0.1355	202537	keystroke_l	l	n/a
101.329	0.1345	202658	keystroke_i	i	n/a
101.449	0.1345	202898	keystroke_c	c	n/a
101.5685	0.12	203137	keystroke_a	a	n/a
101.7335	0.09	203467	keystroke_n	n	n/a
102.3035	0.075	204607	keystroke_Key.backspace	Key.backspace	n/a
102.484	0.075	204968	keystroke_Key.backspace	Key.backspace	n/a
102.649	0.0895	205298	keystroke_Key.backspace	Key.backspace	n/a
103.0685	0.1055	206137	keystroke_a	a	n/a
103.204	0.075	206408	keystroke_n	n	n/a
103.3685	0.0905	206737	keystroke_c	c	n/a
103.594	0.0595	207188	keystroke_e	e	n/a
103.8185	0.0155	207637	keystroke_Key.enter	Key.enter	n/a
103.8375	5.457	207675	prompt	n/a	herein french comp locator\n
104.7185	0.0755	209437	keystroke_h	h	n/a
104.779	0.105	209558	keystroke_e	e	n/a
104.8685	0.1355	209737	keystroke_r	r	n/a
104.989	0.1045	209978	keystroke_e	e	n/a
105.229	0.105	210458	keystroke_i	i	n/a
105.304	0.09	210608	keystroke_n	n	n/a
105.4685	0.105	210937	keystroke_Key.space	Key.space	n/a
105.694	0.091	211388	keystroke_f	f	n/a
105.904	0.105	211808	keystroke_r	r	n/a
105.994	0.0895	211988	keystroke_e	e	n/a
106.144	0.0895	212288	keystroke_n	n	n/a
106.3385	0.0765	212677	keystroke_c	c	n/a
106.459	0.09	212918	keystroke_h	h	n/a
106.594	0.0895	213188	keystroke_Key.space	Key.space	n/a
106.9685	0.1055	213937	keystroke_c	c	n/a
107.045	0.164	214090	keystroke_o	o	n/a
107.149	0.195	214298	keystroke_m	m	n/a
107.299	0.12	214598	keystroke_p	p	n/a
107.6735	0.105	215347	keystroke_Key.space	Key.space	n/a
108.0635	0.0765	216127	keystroke_l	l	n/a
108.2435	0.0755	216487	keystroke_o	o	n/a
108.334	0.135	216668	keystroke_c	c	n/a
108.454	0.12	216908	keystroke_a	a	n/a
108.6635	0.107	217327	keystroke_t	t	n/a
108.799	0.15	217598	keystroke_o	o	n/a
108.904	0.1045	217808	keystroke_r	r	n/a
109.219	0.0745	218438	keystroke_Key.enter	Key.enter	n/a
109.2975	5.5625	218595	prompt	n/a	demo packing henry convention\n
110.854	0.105	221708	keystroke_d	d	n/a
111.064	0.0605	222128	keystroke_e	e	n/a
111.184	0.135	222368	keystroke_m	m	n/a
111.2735	0.1055	222547	keystroke_o	o	n/a
111.3935	0.1055	222787	keystroke_Key.space	Key.space	n/a
111.589	0.09	223178	keystroke_p	p	n/a
111.6935	0.0755	223387	keystroke_a	a	n/a
111.859	0.09	223718	keystroke_c	c	n/a
111.964	0.0895	223928	keystroke_k	k	n/a
112.144	0.076	224288	keystroke_i	i	n/a
112.204	0.1045	224408	keystroke_n	n	n/a
112.279	0.15	224558	keystroke_g	g	n/a
112.385	0.089	224770	keystroke_Key.space	Key.space	n/a
112.534	0.0745	225068	keystroke_h	h	n/a
112.6085	0.075	225217	keystroke_e	e	n/a
112.729	0.09	225458	keystroke_n	n	n/a
112.864	0.09	225728	keystroke_r	r	n/a
113.015	0.1185	226030	keystroke_y	y	n/a
113.089	0.1045	226178	keystroke_Key.space	Key.space	n/a
113.404	0.1045	226808	keystroke_c	c	n/a
113.4935	0.1205	226987	keystroke_o	o	n/a
113.554	0.1195	227108	keystroke_n	n	n/a
113.704	0.0895	227408	keystroke_v	v	n/a
113.8835	0.1205	227767	keystroke_e	e	n/a
114.019	0.0905	228038	keystroke_n	n	n/a
114.229	0.046	228458	keystroke_t	t	n/a
114.334	0.1805	228668	keystroke_i	i	n/a
114.4235	0.105	228847	keystroke_o	o	n/a
114.484	0.12	228968	keystroke_n	n	n/a
114.769	0.09	229538	keystroke_Key.enter	Key.enter	n/a
114.8625	6.2075	229725	prompt	n/a	at handmade period adelaide\n
115.535	0.1035	231070	keystroke_a	a	n/a
115.714	0.12	231428	keystroke_t	t	n/a
115.834	0.0895	231668	keystroke_Key.space	Key.space	n/a
116.089	0.0765	232178	keystroke_h	h	n/a
116.179	0.09	232358	keystroke_a	a	n/a
116.299	0.105	232598	keystroke_n	n	n/a
116.4485	0.09	232897	keystroke_d	d	n/a
116.7635	0.09	233527	keystroke_m	m	n/a
116.8685	0.1055	233737	keystroke_a	a	n/a
117.079	0.0745	234158	keystroke_d	d	n/a
117.304	0.0905	234608	keystroke_e	e	n/a
117.4085	0.1055	234817	keystroke_Key.space	Key.space	n/a
118.2635	0.12	236527	keystroke_p	p	n/a
118.3685	0.0905	236737	keystroke_e	e	n/a
118.6085	0.105	237217	keystroke_r	r	n/a
118.729	0.15	237458	keystroke_i	i	n/a
118.819	0.1195	237638	keystroke_o	o	n/a
118.999	0.135	237998	keystroke_d	d	n/a
119.104	0.15	238208	keystroke_Key.space	Key.space	n/a
119.479	0.09	238958	keystroke_a	a	n/a
119.6435	0.0905	239287	keystroke_d	d	n/a
119.8385	0.0605	239677	keystroke_e	e	n/a
119.974	0.1345	239948	keystroke_l	l	n/a
120.1235	0.0605	240247	keystroke_a	a	n/a
120.364	0.0745	240728	keystroke_i	i	n/a
120.499	0.075	240998	keystroke_d	d	n/a
120.7685	0.0755	241537	keystroke_e	e	n/a
120.9795	0.0895	241959	keystroke_Key.enter	Key.enter	n/a
121.0725	4.8275	242145	prompt	n/a	at firewall statements wired\n
121.819	0.015	243638	keystroke_a	a	n/a
121.8495	0.089	243699	keystroke_t	t	n/a
121.954	0.105	243908	keystroke_Key.space	Key.space	n/a
122.179	0.0895	244358	keystroke_f	f	n/a
122.299	0.09	244598	keystroke_i	i	n/a
122.419	0.15	244838	keystroke_r	r	n/a
122.4935	0.106	244987	keystroke_e	e	n/a
122.7665	0.1925	245533	keystroke_w	w	n/a
122.914	0.135	245828	keystroke_a	a	n/a
123.1385	0.0605	246277	keystroke_l	l	n/a
123.304	0.0895	246608	keystroke_l	l	n/a
123.469	0.075	246938	keystroke_Key.space	Key.space	n/a
123.604	0.1495	247208	keystroke_s	s	n/a
123.784	0.105	247568	keystroke_t	t	n/a
123.904	0.1045	247808	keystroke_a	a	n/a
124.026	0.148	248052	keystroke_t	t	n/a
124.114	0.15	248228	keystroke_e	e	n/a
124.3085	0.1055	248617	keystroke_m	m	n/a
124.429	0.0605	248858	keystroke_e	e	n/a
124.564	0.075	249128	keystroke_n	n	n/a
124.6555	0.118	249311	keystroke_t	t	n/a
124.7585	0.15	249517	keystroke_s	s	n/a
124.864	0.105	249728	keystroke_Key.space	Key.space	n/a
125.074	0.1195	250148	keystroke_w	w	n/a
125.2085	0.0905	250417	keystroke_i	i	n/a
125.329	0.135	250658	keystroke_r	r	n/a
125.404	0.105	250808	keystroke_e	e	n/a
125.644	0.075	251288	keystroke_d	d	n/a
125.8235	0.0755	251647	keystroke_Key.enter	Key.enter	n/a
125.9025	5.592	251805	prompt	n/a	adams maternity four fool\n
126.664	0.1195	253328	keystroke_a	a	n/a
126.829	0.135	253658	keystroke_d	d	n/a
126.934	0.135	253868	keystroke_a	a	n/a
127.129	0.105	254258	keystroke_m	m	n/a
127.249	0.135	254498	keystroke_s	s	n/a
127.3385	0.1505	254677	keystroke_Key.space	Key.space	n/a
127.6385	0.1055	255277	keystroke_m	m	n/a
127.714	0.12	255428	keystroke_a	a	n/a
127.9235	0.12	255847	keystroke_t	t	n/a
127.9985	0.1655	255997	keystroke_e	e	n/a
128.1795	0.1195	256359	keystroke_r	r	n/a
128.4935	0.135	256987	keystroke_n	n	n/a
128.554	0.12	257108	keystroke_i	i	n/a
128.8385	0.0905	257677	keystroke_t	t	n/a
128.974	0.1195	257948	keystroke_y	y	n/a
129.064	0.105	258128	keystroke_Key.space	Key.space	n/a
129.289	0.09	258578	keystroke_f	f	n/a
129.3935	0.1205	258787	keystroke_o	o	n/a
129.4985	0.1055	258997	keystroke_u	u	n/a
129.574	0.1195	259148	keystroke_r	r	n/a
130.0385	0.1055	260077	keystroke_Key.space	Key.space	n/a
130.2345	0.089	260469	keystroke_f	f	n/a
130.399	0.075	260798	keystroke_o	o	n/a
130.6085	0.0905	261217	keystroke_o	o	n/a
130.834	0.0895	261668	keystroke_l	l	n/a
131.419	0.0745	262838	keystroke_Key.enter	Key.enter	n/a
131.498	6.3265	262996	prompt	n/a	seems notification good assistant\n
132.739	0.105	265478	keystroke_s	s	n/a
132.9045	0.089	265809	keystroke_e	e	n/a
133.0835	0.0905	266167	keystroke_e	e	n/a
133.3235	0.0905	266647	keystroke_m	m	n/a
133.474	0.1195	266948	keystroke_s	s	n/a
133.579	0.135	267158	keystroke_Key.space	Key.space	n/a
134.0135	0.1205	268027	keystroke_n	n	n/a
134.0745	0.104	268149	keystroke_o	o	n/a
134.24	0.0595	268480	keystroke_t	t	n/a
134.314	0.0895	268628	keystroke_i	i	n/a
134.464	0.0595	268928	keystroke_f	f	n/a
134.539	0.09	269078	keystroke_i	i	n/a
134.644	0.105	269288	keystroke_c	c	n/a
134.764	0.0745	269528	keystroke_a	a	n/a
134.884	0.075	269768	keystroke_t	t	n/a
134.9435	0.1655	269887	keystroke_i	i	n/a
135.0185	0.105	270037	keystroke_o	o	n/a
135.0795	0.1195	270159	keystroke_n	n	n/a
135.335	0.119	270670	keystroke_Key.space	Key.space	n/a
135.6035	0.075	271207	keystroke_g	g	n/a
135.6485	0.075	271297	keystroke_o	o	n/a
135.844	0.075	271688	keystroke_o	o	n/a
135.9345	0.104	271869	keystroke_d	d	n/a
135.9935	0.1205	271987	keystroke_Key.space	Key.space	n/a
136.159	0.12	272318	keystroke_a	a	n/a
136.2935	0.09	272587	keystroke_s	s	n/a
136.489	0.1045	272978	keystroke_s	s	n/a
136.654	0.045	273308	keystroke_i	i	n/a
136.714	0.1205	273428	keystroke_s	s	n/a
136.9235	0.0605	273847	keystroke_t	t	n/a
137.044	0.12	274088	keystroke_a	a	n/a
137.209	0.075	274418	keystroke_n	n	n/a
137.5835	0.0755	275167	keystroke_t	t	n/a
137.764	0.0595	275528	keystroke_Key.enter	Key.enter	n/a
137.827	6.403	275654	prompt	n/a	highways antigua gardens escorts\n
138.6035	0.09	277207	keystroke_h	h	n/a
138.664	0.09	277328	keystroke_i	i	n/a
138.814	0.105	277628	keystroke_g	g	n/a
138.934	0.105	277868	keystroke_h	h	n/a
139.279	0.12	278558	keystroke_w	w	n/a
139.369	0.09	278738	keystroke_a	a	n/a
139.534	0.1195	279068	keystroke_y	y	n/a
139.669	0.15	279338	keystroke_s	s	n/a
139.774	0.1345	279548	keystroke_Key.space	Key.space	n/a
140.074	0.105	280148	keystroke_a	a	n/a
140.1935	0.0905	280387	keystroke_n	n	n/a
140.389	0.075	280778	keystroke_t	t	n/a
140.479	0.09	280958	keystroke_i	i	n/a
140.6745	0.089	281349	keystroke_g	g	n/a
140.7785	0.0905	281557	keystroke_u	u	n/a
140.8985	0.1355	281797	keystroke_a	a	n/a
141.049	0.12	282098	keystroke_Key.space	Key.space	n/a
141.289	0.09	282578	keystroke_g	g	n/a
141.4385	0.0905	282877	keystroke_a	a	n/a
141.5145	0.119	283029	keystroke_r	r	n/a
141.754	0.09	283508	keystroke_d	d	n/a
141.949	0.075	283898	keystroke_e	e	n/a
142.0685	0.1055	284137	keystroke_n	n	n/a
142.2345	0.1345	284469	keystroke_s	s	n/a
142.384	0.135	284768	keystroke_Key.space	Key.space	n/a
142.6385	0.1055	285277	keystroke_e	e	n/a
142.864	0.12	285728	keystroke_s	s	n/a
143.1635	0.1055	286327	keystroke_c	c	n/a
143.3145	0.1045	286629	keystroke_o	o	n/a
143.449	0.12	286898	keystroke_r	r	n/a
143.779	0.0895	287558	keystroke_t	t	n/a
143.929	0.12	287858	keystroke_s	s	n/a
144.139	0.09	288278	keystroke_Key.enter	Key.enter	n/a
144.2335	7.436	288467	prompt	n/a	agents assembled sean providers\n
144.949	0.105	289898	keystroke_a	a	n/a
145.189	0.09	290378	keystroke_g	g	n/a
145.2935	0.12	290587	keystroke_e	e	n/a
145.459	0.0915	290918	keystroke_n	n	n/a
145.5935	0.1215	291187	keystroke_t	t	n/a
145.729	0.15	291458	keystroke_s	s	n/a
145.849	0.1345	291698	keystroke_Key.space	Key.space	n/a
146.0745	0.089	292149	keystroke_a	a	n/a
146.269	0.045	292538	keystroke_s	s	n/a
146.4785	0.1205	292957	keystroke_e	e	n/a
147.4235	0.0755	294847	keystroke_Key.backspace	Key.backspace	n/a
147.544	0.1795	295088	keystroke_s	s	n/a
147.649	0.1195	295298	keystroke_e	e	n/a
147.8435	0.105	295687	keystroke_m	m	n/a
148.1885	0.0755	296377	keystroke_b	b	n/a
148.3235	0.1055	296647	keystroke_l	l	n/a
148.444	0.075	296888	keystroke_e	e	n/a
148.6385	0.0755	297277	keystroke_d	d	n/a
148.744	0.12	297488	keystroke_Key.space	Key.space	n/a
148.9085	0.2255	297817	keystroke_s	s	n/a
149.029	0.1355	298058	keystroke_e	e	n/a
149.134	0.1195	298268	keystroke_a	a	n/a
149.374	0.105	298748	keystroke_n	n	n/a
149.5085	0.1355	299017	keystroke_Key.space	Key.space	n/a
149.854	0.107	299708	keystroke_p	p	n/a
149.974	0.09	299948	keystroke_r	r	n/a
150.079	0.0905	300158	keystroke_o	o	n/a
150.244	0.09	300488	keystroke_v	v	n/a
150.3635	0.075	300727	keystroke_i	i	n/a
150.4835	0.06	300967	keystroke_d	d	n/a
150.6335	0.09	301267	keystroke_e	e	n/a
150.7385	0.1205	301477	keystroke_r	r	n/a
150.859	0.045	301718	keystroke_e	e	n/a
151.264	0.0895	302528	keystroke_Key.backspace	Key.backspace	n/a
151.399	0.09	302798	keystroke_s	s	n/a
151.564	0.1045	303128	keystroke_Key.enter	Key.enter	n/a
151.674	12.748	303348	prompt	n/a	readily arrive hydrogen occurs\n
152.5235	0.121	305047	keystroke_r	r	n/a
152.5695	0.1195	305139	keystroke_e	e	n/a
152.7935	0.18	305587	keystroke_a	a	n/a
153.019	0.0895	306038	keystroke_d	d	n/a
153.199	0.09	306398	keystroke_i	i	n/a
153.3935	0.1205	306787	keystroke_l	l	n/a
153.514	0.15	307028	keystroke_y	y	n/a
153.679	0.12	307358	keystroke_Key.space	Key.space	n/a
154.069	0.075	308138	keystroke_Key.space	Key.space	n/a
154.519	0.0745	309038	keystroke_Key.backspace	Key.backspace	n/a
155.314	0.135	310628	keystroke_Key.backspace	Key.backspace	n/a
156.1685	0.091	312337	keystroke_Key.space	Key.space	n/a
156.574	0.09	313148	keystroke_a	a	n/a
156.7835	0.0605	313567	keystroke_r	r	n/a
156.949	0.0755	313898	keystroke_r	r	n/a
157.0385	0.0755	314077	keystroke_i	i	n/a
157.3085	0.12	314617	keystroke_e	e	n/a
157.444	0.12	314888	keystroke_Key.space	Key.space	n/a
157.9985	0.075	315997	keystroke_Key.backspace	Key.backspace	n/a
158.179	0.09	316358	keystroke_Key.backspace	Key.backspace	n/a
158.464	0.0745	316928	keystroke_Key.backspace	Key.backspace	n/a
160.519	0.1055	321038	keystroke_i	i	n/a
160.774	0.105	321548	keystroke_v	v	n/a
160.9085	0.1355	321817	keystroke_e	e	n/a
161.044	0.105	322088	keystroke_Key.space	Key.space	n/a
161.374	0.091	322748	keystroke_h	h	n/a
161.584	0.09	323168	keystroke_y	y	n/a
161.7935	0.1355	323587	keystroke_d	d	n/a
161.9595	0.134	323919	keystroke_r	r	n/a
162.334	0.015	324668	keystroke_o	o	n/a
162.5435	0.0905	325087	keystroke_g	g	n/a
162.619	0.1045	325238	keystroke_e	e	n/a
162.769	0.0895	325538	keystroke_n	n	n/a
162.889	0.09	325778	keystroke_Key.space	Key.space	n/a
163.131	0.1025	326262	keystroke_o	o	n/a
163.459	0.0745	326918	keystroke_c	c	n/a
163.6255	0.0885	327251	keystroke_c	c	n/a
163.8185	0.075	327637	keystroke_u	u	n/a
163.8935	0.1055	327787	keystroke_r	r	n/a
164.044	0.105	328088	keystroke_s	s	n/a
164.314	0.1065	328628	keystroke_Key.enter	Key.enter	n/a
164.425	5.8	328850	prompt	n/a	standings differently monitor import\n
165.2135	0.1205	330427	keystroke_s	s	n/a
165.349	0.0895	330698	keystroke_t	t	n/a
165.454	0.105	330908	keystroke_a	a	n/a
165.574	0.0745	331148	keystroke_n	n	n/a
165.6815	0.087	331363	keystroke_d	d	n/a
165.7835	0.1055	331567	keystroke_i	i	n/a
165.859	0.12	331718	keystroke_n	n	n/a
165.964	0.12	331928	keystroke_g	g	n/a
166.099	0.18	332198	keystroke_s	s	n/a
166.264	0.09	332528	keystroke_Key.space	Key.space	n/a
166.399	0.105	332798	keystroke_d	d	n/a
166.5635	0.0905	333127	keystroke_i	i	n/a
166.669	0.045	333338	keystroke_f	f	n/a
166.819	0.0895	333638	keystroke_f	f	n/a
166.9235	0.1355	333847	keystroke_e	e	n/a
167.044	0.075	334088	keystroke_r	r	n/a
167.134	0.0745	334268	keystroke_e	e	n/a
167.24	0.074	334480	keystroke_n	n	n/a
167.405	0.074	334810	keystroke_t	t	n/a
167.5235	0.1505	335047	keystroke_l	l	n/a
167.6585	0.1205	335317	keystroke_y	y	n/a
167.8085	0.0905	335617	keystroke_Key.space	Key.space	n/a
168.0785	0.1355	336157	keystroke_m	m	n/a
168.169	0.105	336338	keystroke_o	o	n/a
168.4085	0.1205	336817	keystroke_n	n	n/a
168.5005	0.1035	337001	keystroke_i	i	n/a
168.6795	0.1195	337359	keystroke_t	t	n/a
168.784	0.075	337568	keystroke_o	o	n/a
168.904	0.1195	337808	keystroke_r	r	n/a
169.0535	0.0905	338107	keystroke_Key.space	Key.space	n/a
169.174	0.1345	338348	keystroke_i	i	n/a
169.2955	0.1485	338591	keystroke_m	m	n/a
169.399	0.167	338798	keystroke_p	p	n/a
169.519	0.165	339038	keystroke_o	o	n/a
169.669	0.09	339338	keystroke_r	r	n/a
169.864	0.0895	339728	keystroke_t	t	n/a
170.149	0.075	340298	keystroke_Key.enter	Key.enter	n/a
170.228	5.412	340456	prompt	n/a	senegal nick announce sick\n
171.0485	0.1505	342097	keystroke_s	s	n/a
171.154	0.1205	342308	keystroke_e	e	n/a
171.304	0.0895	342608	keystroke_n	n	n/a
171.6185	0.105	343237	keystroke_e	e	n/a
172.189	0.0915	344378	keystroke_g	g	n/a
172.369	0.105	344738	keystroke_a	a	n/a
172.519	0.1195	345038	keystroke_l	l	n/a
172.669	0.09	345338	keystroke_Key.space	Key.space	n/a
172.834	0.15	345668	keystroke_n	n	n/a
172.9235	0.1205	345847	keystroke_i	i	n/a
173.089	0.1045	346178	keystroke_c	c	n/a
173.209	0.105	346418	keystroke_k	k	n/a
173.359	0.075	346718	keystroke_Key.space	Key.space	n/a
173.554	0.09	347108	keystroke_a	a	n/a
173.6735	0.0755	347347	keystroke_n	n	n/a
173.854	0.06	347708	keystroke_n	n	n/a
174.0195	0.1345	348039	keystroke_o	o	n/a
174.0935	0.1205	348187	keystroke_u	u	n/a
174.334	0.0745	348668	keystroke_n	n	n/a
174.4385	0.1055	348877	keystroke_c	c	n/a
174.664	0.1045	349328	keystroke_e	e	n/a
174.769	0.105	349538	keystroke_Key.space	Key.space	n/a
174.9345	0.089	349869	keystroke_s	s	n/a
175.0385	0.0905	350077	keystroke_i	i	n/a
175.174	0.075	350348	keystroke_c	c	n/a
175.2935	0.0905	350587	keystroke_k	k	n/a
175.564	0.0745	351128	keystroke_Key.enter	Key.enter	n/a
175.6425	5.367	351285	prompt	n/a	figured rack frame reducing\n
176.434	0.1045	352868	keystroke_f	f	n/a
176.569	0.105	353138	keystroke_i	i	n/a
176.704	0.0895	353408	keystroke_g	g	n/a
176.8235	0.0905	353647	keystroke_u	u	n/a
176.929	0.12	353858	keystroke_r	r	n/a
177.004	0.1195	354008	keystroke_e	e	n/a
177.274	0.1345	354548	keystroke_d	d	n/a
177.409	0.135	354818	keystroke_Key.space	Key.space	n/a
177.814	0.015	355628	keystroke_r	r	n/a
177.844	0.0445	355688	keystroke_a	a	n/a
178.0085	0.0755	356017	keystroke_c	c	n/a
178.099	0.105	356198	keystroke_k	k	n/a
178.219	0.0745	356438	keystroke_Key.space	Key.space	n/a
178.384	0.0755	356768	keystroke_f	f	n/a
178.564	0.09	357128	keystroke_r	r	n/a
178.669	0.09	357338	keystroke_a	a	n/a
178.7595	0.0895	357519	keystroke_m	m	n/a
178.8935	0.1205	357787	keystroke_e	e	n/a
179.029	0.105	358058	keystroke_Key.space	Key.space	n/a
179.329	0.09	358658	keystroke_d	d	n/a
179.689	0.075	359378	keystroke_Key.backspace	Key.backspace	n/a
179.7935	0.1505	359587	keystroke_r	r	n/a
179.8685	0.1065	359737	keystroke_e	e	n/a
180.1085	0.0605	360217	keystroke_d	d	n/a
180.259	0.0755	360518	keystroke_u	u	n/a
180.334	0.075	360668	keystroke_c	c	n/a
180.5285	0.1205	361057	keystroke_i	i	n/a
180.619	0.1045	361238	keystroke_n	n	n/a
180.739	0.06	361478	keystroke_g	g	n/a
180.934	0.0745	361868	keystroke_Key.enter	Key.enter	n/a
181.012	9.208	362024	prompt	n/a	ellis information appointments apparel\n
181.8935	0.1055	363787	keystroke_e	e	n/a
182.119	0.06	364238	keystroke_l	l	n/a
182.299	0.135	364598	keystroke_l	l	n/a
182.3735	0.135	364747	keystroke_i	i	n/a
182.554	0.1345	365108	keystroke_s	s	n/a
182.899	0.1355	365798	keystroke_Key.space	Key.space	n/a
183.755	0.134	367510	keystroke_i	i	n/a
183.844	0.09	367688	keystroke_n	n	n/a
183.949	0.0895	367898	keystroke_f	f	n/a
184.0545	0.0595	368109	keystroke_o	o	n/a
184.144	0.0755	368288	keystroke_r	r	n/a
184.234	0.0895	368468	keystroke_m	m	n/a
184.3385	0.106	368677	keystroke_a	a	n/a
184.534	0.0895	369068	keystroke_t	t	n/a
184.609	0.15	369218	keystroke_i	i	n/a
184.6545	0.1195	369309	keystroke_o	o	n/a
184.744	0.106	369488	keystroke_n	n	n/a
184.864	0.12	369728	keystroke_Key.space	Key.space	n/a
185.0295	0.0895	370059	keystroke_a	a	n/a
185.149	0.0745	370298	keystroke_p	p	n/a
185.329	0.12	370658	keystroke_p	p	n/a
185.434	0.1045	370868	keystroke_o	o	n/a
185.482	0.177	370964	keystroke_i	i	n/a
185.6455	0.0885	371291	keystroke_n	n	n/a
185.719	0.1195	371438	keystroke_t	t	n/a
186.004	0.077	372008	keystroke_m	m	n/a
186.0935	0.0755	372187	keystroke_e	e	n/a
186.2135	0.0755	372427	keystroke_n	n	n/a
186.304	0.1195	372608	keystroke_t	t	n/a
186.394	0.15	372788	keystroke_s	s	n/a
186.559	0.106	373118	keystroke_Key.space	Key.space	n/a
186.799	0.0745	373598	keystroke_a	a	n/a
186.9195	0.074	373839	keystroke_p	p	n/a
187.114	0.0905	374228	keystroke_p	p	n/a
187.219	0.1515	374438	keystroke_a	a	n/a
187.3235	0.1355	374647	keystroke_r	r	n/a
187.476	0.1175	374952	keystroke_a	a	n/a
188.719	0.0445	377438	keystroke_Key.backspace	Key.backspace	n/a
188.869	0.075	377738	keystroke_Key.backspace	Key.backspace	n/a
189.544	0.12	379088	keystroke_r	r	n/a
189.619	0.1345	379238	keystroke_e	e	n/a
189.9195	0.104	379839	keystroke_l	l	n/a
190.144	0.075	380288	keystroke_Key.enter	Key.enter	n/a
190.223	8.847	380446	prompt	n/a	'tis capabilities accessed interview\n
191.9285	0.1055	383857	keystroke_'	'	n/a
192.274	0.045	384548	keystroke_i	i	n/a
192.6185	0.0605	385237	keystroke_Key.backspace	Key.backspace	n/a
192.7385	0.12	385477	keystroke_t	t	n/a
192.844	0.105	385688	keystroke_i	i	n/a
193.0085	0.1355	386017	keystroke_s	s	n/a
193.1595	0.104	386319	keystroke_Key.space	Key.space	n/a
193.4435	0.1055	386887	keystroke_c	c	n/a
193.534	0.105	387068	keystroke_a	a	n/a
193.759	0.075	387518	keystroke_p	p	n/a
193.849	0.1045	387698	keystroke_a	a	n/a
194.269	0.09	388538	keystroke_b	b	n/a
194.344	0.1055	388688	keystroke_i	i	n/a
194.5535	0.1355	389107	keystroke_l	l	n/a
194.644	0.12	389288	keystroke_i	i	n/a
194.959	0.075	389918	keystroke_t	t	n/a
195.049	0.0895	390098	keystroke_i	i	n/a
195.1685	0.12	390337	keystroke_e	e	n/a
195.304	0.165	390608	keystroke_s	s	n/a
195.484	0.12	390968	keystroke_Key.space	Key.space	n/a
195.769	0.075	391538	keystroke_a	a	n/a
195.9935	0.045	391987	keystroke_c	c	n/a
196.129	0.075	392258	keystroke_c	c	n/a
196.3245	0.0895	392649	keystroke_e	e	n/a
196.519	0.0745	393038	keystroke_s	s	n/a
196.699	0.135	393398	keystroke_s	s	n/a
196.849	0.09	393698	keystroke_e	e	n/a
197.074	0.105	394148	keystroke_d	d	n/a
197.194	0.09	394388	keystroke_Key.space	Key.space	n/a
197.344	0.09	394688	keystroke_i	i	n/a
197.404	0.1045	394808	keystroke_n	n	n/a
197.494	0.105	394988	keystroke_t	t	n/a
197.569	0.1345	395138	keystroke_e	e	n/a
197.689	0.075	395378	keystroke_r	r	n/a
197.914	0.06	395828	keystroke_v	v	n/a
198.1695	0.1195	396339	keystroke_i	i	n/a
198.229	0.21	396458	keystroke_e	e	n/a
198.304	0.165	396608	keystroke_w	w	n/a
198.9795	0.0895	397959	keystroke_Key.enter	Key.enter	n/a
199.074	6.116	398148	prompt	n/a	walls handles construct canberra\n
199.8495	0.1495	399699	keystroke_w	w	n/a
199.9845	0.122	399969	keystroke_a	a	n/a
200.164	0.0745	400328	keystroke_l	l	n/a
200.344	0.09	400688	keystroke_l	l	n/a
200.4795	0.1645	400959	keystroke_s	s	n/a
200.6145	0.1345	401229	keystroke_Key.space	Key.space	n/a
200.9285	0.076	401857	keystroke_h	h	n/a
201.004	0.0905	402008	keystroke_a	a	n/a
201.1235	0.0905	402247	keystroke_n	n	n/a
201.2005	0.089	402401	keystroke_d	d	n/a
201.334	0.1045	402668	keystroke_l	l	n/a
201.484	0.0905	402968	keystroke_e	e	n/a
201.6795	0.1045	403359	keystroke_s	s	n/a
201.8435	0.0905	403687	keystroke_Key.space	Key.space	n/a
202.114	0.1045	404228	keystroke_c	c	n/a
202.234	0.12	404468	keystroke_o	o	n/a
202.3085	0.1205	404617	keystroke_n	n	n/a
202.459	0.105	404918	keystroke_s	s	n/a
202.654	0.06	405308	keystroke_t	t	n/a
202.834	0.045	405668	keystroke_r	r	n/a
202.939	0.09	405878	keystroke_u	u	n/a
203.074	0.09	406148	keystroke_c	c	n/a
203.179	0.135	406358	keystroke_t	t	n/a
203.359	0.09	406718	keystroke_Key.space	Key.space	n/a
203.539	0.105	407078	keystroke_c	c	n/a
203.629	0.1055	407258	keystroke_a	a	n/a
203.794	0.09	407588	keystroke_n	n	n/a
204.1385	0.09	408277	keystroke_b	b	n/a
204.334	0.0745	408668	keystroke_e	e	n/a
204.604	0.076	409208	keystroke_r	r	n/a
204.7685	0.0905	409537	keystroke_r	r	n/a
204.8895	0.104	409779	keystroke_a	a	n/a
205.114	0.075	410228	keystroke_Key.enter	Key.enter	n/a
205.193	6.2075	410386	prompt	n/a	rick merit highways space\n
206.2995	0.0895	412599	keystroke_r	r	n/a
206.4045	0.089	412809	keystroke_i	i	n/a
206.54	0.074	413080	keystroke_c	c	n/a
206.705	0.134	413410	keystroke_k	k	n/a
206.8235	0.1205	413647	keystroke_Key.space	Key.space	n/a
207.244	0.0915	414488	keystroke_m	m	n/a
207.319	0.0745	414638	keystroke_e	e	n/a
207.502	0.087	415004	keystroke_r	r	n/a
207.6345	0.104	415269	keystroke_i	i	n/a
207.9495	0.104	415899	keystroke_t	t	n/a
208.099	0.105	416198	keystroke_Key.space	Key.space	n/a
208.414	0.09	416828	keystroke_h	h	n/a
208.549	0.1195	417098	keystroke_i	i	n/a
208.7145	0.1045	417429	keystroke_g	g	n/a
208.9235	0.106	417847	keystroke_h	h	n/a
209.374	0.195	418748	keystroke_w	w	n/a
209.5085	0.1355	419017	keystroke_a	a	n/a
209.704	0.1345	419408	keystroke_y	y	n/a
209.8535	0.1655	419707	keystroke_s	s	n/a
209.959	0.1495	419918	keystroke_Key.space	Key.space	n/a
210.4995	0.0895	420999	keystroke_s	s	n/a
210.6345	0.1195	421269	keystroke_p	p	n/a
210.7385	0.0905	421477	keystroke_a	a	n/a
210.874	0.09	421748	keystroke_c	c	n/a
211.0845	0.089	422169	keystroke_e	e	n/a
211.3085	0.091	422617	keystroke_Key.enter	Key.enter	n/a
211.4035	7.542	422807	prompt	n/a	fragrance marble cameroon lion\n
212.539	0.075	425078	keystroke_f	f	n/a
212.734	0.1045	425468	keystroke_r	r	n/a
212.8545	0.1045	425709	keystroke_a	a	n/a
213.214	0.075	426428	keystroke_g	g	n/a
213.529	0.1045	427058	keystroke_r	r	n/a
213.6795	0.09	427359	keystroke_a	a	n/a
213.949	0.015	427898	keystroke_n	n	n/a
213.994	0.1075	427988	keystroke_c	c	n/a
214.204	0.1045	428408	keystroke_e	e	n/a
214.2795	0.1345	428559	keystroke_Key.space	Key.space	n/a
214.594	0.135	429188	keystroke_m	m	n/a
214.684	0.105	429368	keystroke_a	a	n/a
214.7595	0.1195	429519	keystroke_r	r	n/a
215.0435	0.0905	430087	keystroke_b	b	n/a
215.209	0.105	430418	keystroke_l	l	n/a
215.2845	0.1045	430569	keystroke_e	e	n/a
215.374	0.1345	430748	keystroke_Key.space	Key.space	n/a
215.659	0.09	431318	keystroke_c	c	n/a
215.794	0.105	431588	keystroke_a	a	n/a
215.914	0.1195	431828	keystroke_r	r	n/a
216.4085	0.0755	432817	keystroke_Key.backspace	Key.backspace	n/a
216.6195	0.074	433239	keystroke_m	m	n/a
216.7085	0.1205	433417	keystroke_e	e	n/a
216.934	0.135	433868	keystroke_r	r	n/a
217.2195	0.089	434439	keystroke_o	o	n/a
217.429	0.09	434858	keystroke_o	o	n/a
217.669	0.09	435338	keystroke_n	n	n/a
217.909	0.1195	435818	keystroke_Key.space	Key.space	n/a
218.194	0.12	436388	keystroke_l	l	n/a
218.2685	0.1205	436537	keystroke_i	i	n/a
218.464	0.105	436928	keystroke_o	o	n/a
218.584	0.1055	437168	keystroke_n	n	n/a
218.884	0.0605	437768	keystroke_Key.enter	Key.enter	n/a
218.9495	6.5965	437899	prompt	n/a	participation amongst depot cancel\n
219.9645	0.106	439929	keystroke_p	p	n/a
220.084	0.105	440168	keystroke_r	r	n/a
220.159	0.1345	440318	keystroke_a	a	n/a
220.4745	0.062	440949	keystroke_Key.backspace	Key.backspace	n/a
220.6235	0.09	441247	keystroke_Key.backspace	Key.backspace	n/a
220.774	0.105	441548	keystroke_a	a	n/a
220.849	0.1045	441698	keystroke_r	r	n/a
221.074	0.06	442148	keystroke_t	t	n/a
221.179	0.075	442358	keystroke_i	i	n/a
221.2995	0.0745	442599	keystroke_c	c	n/a
221.389	0.09	442778	keystroke_i	i	n/a
221.614	0.105	443228	keystroke_p	p	n/a
221.7645	0.1045	443529	keystroke_a	a	n/a
221.959	0.0895	443918	keystroke_t	t	n/a
222.0635	0.1205	444127	keystroke_i	i	n/a
222.1235	0.1055	444247	keystroke_o	o	n/a
222.199	0.105	444398	keystroke_n	n	n/a
222.364	0.105	444728	keystroke_Key.space	Key.space	n/a
222.574	0.075	445148	keystroke_a	a	n/a
222.6935	0.1205	445387	keystroke_m	m	n/a
222.784	0.15	445568	keystroke_o	o	n/a
222.949	0.09	445898	keystroke_n	n	n/a
223.159	0.1345	446318	keystroke_s	s	n/a
223.3085	0.106	446617	keystroke_t	t	n/a
223.504	0.0755	447008	keystroke_Key.space	Key.space	n/a
223.6545	0.0745	447309	keystroke_d	d	n/a
223.8195	0.0745	447639	keystroke_e	e	n/a
223.9545	0.1795	447909	keystroke_p	p	n/a
224.059	0.1645	448118	keystroke_o	o	n/a
224.2695	0.1345	448539	keystroke_t	t	n/a
224.3745	0.1045	448749	keystroke_Key.space	Key.space	n/a
224.569	0.12	449138	keystroke_c	c	n/a
224.674	0.106	449348	keystroke_a	a	n/a
224.8085	0.0905	449617	keystroke_n	n	n/a
224.914	0.09	449828	keystroke_c	c	n/a
225.1385	0.0605	450277	keystroke_e	e	n/a
225.229	0.105	450458	keystroke_l	l	n/a
225.469	0.0755	450938	keystroke_Key.enter	Key.enter	n/a
225.5485	5.4865	451097	prompt	n/a	writing walter tool we'd've\n
226.309	0.12	452618	keystroke_w	w	n/a
226.4145	0.1045	452829	keystroke_r	r	n/a
226.564	0.09	453128	keystroke_i	i	n/a
226.6705	0.0885	453341	keystroke_t	t	n/a
226.774	0.1195	453548	keystroke_i	i	n/a
226.864	0.15	453728	keystroke_n	n	n/a
226.999	0.09	453998	keystroke_g	g	n/a
227.059	0.1195	454118	keystroke_Key.space	Key.space	n/a
227.2235	0.2105	454447	keystroke_w	w	n/a
227.3895	0.119	454779	keystroke_a	a	n/a
227.719	0.1195	455438	keystroke_l	l	n/a
228.0035	0.12	456007	keystroke_t	t	n/a
228.139	0.12	456278	keystroke_e	e	n/a
228.229	0.12	456458	keystroke_r	r	n/a
228.409	0.1205	456818	keystroke_Key.space	Key.space	n/a
228.7085	0.0755	457417	keystroke_t	t	n/a
228.799	0.09	457598	keystroke_o	o	n/a
228.994	0.09	457988	keystroke_o	o	n/a
229.2045	0.0895	458409	keystroke_l	l	n/a
229.339	0.09	458678	keystroke_Key.space	Key.space	n/a
229.534	0.1345	459068	keystroke_w	w	n/a
229.5935	0.1505	459187	keystroke_e	e	n/a
229.849	0.135	459698	keystroke_'	'	n/a
230.0745	0.0745	460149	keystroke_d	d	n/a
230.239	0.105	460478	keystroke_'	'	n/a
230.6595	0.09	461319	keystroke_v	v	n/a
230.779	0.105	461558	keystroke_e	e	n/a
230.9445	0.0895	461889	keystroke_Key.enter	Key.enter	n/a
231.038	5.7715	462076	prompt	n/a	killer discount fast downtown\n
231.799	0.09	463598	keystroke_k	k	n/a
231.979	0.0745	463958	keystroke_i	i	n/a
232.159	0.06	464318	keystroke_l	l	n/a
232.3085	0.106	464617	keystroke_l	l	n/a
232.399	0.15	464798	keystroke_e	e	n/a
232.4775	0.131	464955	keystroke_r	r	n/a
232.579	0.09	465158	keystroke_Key.space	Key.space	n/a
232.714	0.12	465428	keystroke_d	d	n/a
232.984	0.09	465968	keystroke_i	i	n/a
233.1055	0.1035	466211	keystroke_s	s	n/a
233.2995	0.0895	466599	keystroke_c	c	n/a
233.5085	0.1805	467017	keystroke_o	o	n/a
233.644	0.105	467288	keystroke_u	u	n/a
233.8385	0.1055	467677	keystroke_n	n	n/a
233.959	0.1495	467918	keystroke_t	t	n/a
234.0665	0.1475	468133	keystroke_Key.space	Key.space	n/a
234.3035	0.0755	468607	keystroke_f	f	n/a
234.349	0.1505	468698	keystroke_a	a	n/a
234.5	0.134	469000	keystroke_s	s	n/a
234.604	0.15	469208	keystroke_t	t	n/a
234.7235	0.1055	469447	keystroke_Key.space	Key.space	n/a
234.9195	0.089	469839	keystroke_d	d	n/a
235.054	0.121	470108	keystroke_o	o	n/a
235.129	0.105	470258	keystroke_w	w	n/a
235.264	0.09	470528	keystroke_n	n	n/a
235.5035	0.0755	471007	keystroke_t	t	n/a
235.669	0.1055	471338	keystroke_o	o	n/a
235.7905	0.103	471581	keystroke_w	w	n/a
236.479	0.075	472958	keystroke_n	n	n/a
236.749	0.0595	473498	keystroke_Key.enter	Key.enter	n/a
236.8125	4.363	473625	prompt	n/a	kenny powder jeep skin\n
237.4985	0.1055	474997	keystroke_k	k	n/a
237.754	0.09	475508	keystroke_e	e	n/a
237.934	0.0745	475868	keystroke_n	n	n/a
238.129	0.0455	476258	keystroke_n	n	n/a
238.3085	0.1205	476617	keystroke_y	y	n/a
238.444	0.09	476888	keystroke_Key.space	Key.space	n/a
238.609	0.135	477218	keystroke_p	p	n/a
238.699	0.1495	477398	keystroke_o	o	n/a
238.864	0.15	477728	keystroke_w	w	n/a
239.1935	0.0755	478387	keystroke_d	d	n/a
239.3745	0.105	478749	keystroke_e	e	n/a
239.449	0.15	478898	keystroke_r	r	n/a
239.554	0.135	479108	keystroke_Key.space	Key.space	n/a
239.8385	0.0755	479677	keystroke_j	j	n/a
239.959	0.0765	479918	keystroke_e	e	n/a
240.1085	0.0905	480217	keystroke_e	e	n/a
240.229	0.09	480458	keystroke_p	p	n/a
240.334	0.1045	480668	keystroke_Key.space	Key.space	n/a
240.469	0.1055	480938	keystroke_s	s	n/a
240.6185	0.0605	481237	keystroke_k	k	n/a
240.814	0.0745	481628	keystroke_i	i	n/a
240.844	0.1205	481688	keystroke_n	n	n/a
241.1145	0.0595	482229	keystroke_Key.enter	Key.enter	n/a
241.1805	7.044	482361	prompt	n/a	carey groundwater adopted cognitive\n
242.0745	0.1195	484149	keystroke_c	c	n/a
242.2245	0.1045	484449	keystroke_a	a	n/a
242.344	0.1495	484688	keystroke_r	r	n/a
242.464	0.1195	484928	keystroke_e	e	n/a
242.734	0.135	485468	keystroke_y	y	n/a
242.929	0.12	485858	keystroke_Key.space	Key.space	n/a
243.874	0.06	487748	keystroke_g	g	n/a
244.0385	0.0905	488077	keystroke_r	r	n/a
244.099	0.135	488198	keystroke_o	o	n/a
244.159	0.1225	488318	keystroke_u	u	n/a
244.3685	0.09	488737	keystroke_n	n	n/a
244.384	0.12	488768	keystroke_d	d	n/a
244.6085	0.1365	489217	keystroke_w	w	n/a
244.714	0.105	489428	keystroke_a	a	n/a
244.849	0.1055	489698	keystroke_t	t	n/a
244.939	0.12	489878	keystroke_e	e	n/a
245.0285	0.1055	490057	keystroke_r	r	n/a
245.2095	0.1045	490419	keystroke_Key.space	Key.space	n/a
245.359	0.1345	490718	keystroke_a	a	n/a
245.494	0.12	490988	keystroke_d	d	n/a
245.764	0.15	491528	keystroke_o	o	n/a
245.869	0.15	491738	keystroke_p	p	n/a
246.064	0.165	492128	keystroke_t	t	n/a
246.3785	0.1055	492757	keystroke_e	e	n/a
246.604	0.1195	493208	keystroke_d	d	n/a
246.7085	0.1055	493417	keystroke_Key.space	Key.space	n/a
246.9345	0.089	493869	keystroke_c	c	n/a
247.0085	0.1055	494017	keystroke_o	o	n/a
247.189	0.06	494378	keystroke_g	g	n/a
247.2935	0.135	494587	keystroke_n	n	n/a
247.399	0.12	494798	keystroke_i	i	n/a
247.565	0.089	495130	keystroke_t	t	n/a
247.684	0.0905	495368	keystroke_i	i	n/a
247.879	0.03	495758	keystroke_v	v	n/a
247.924	0.105	495848	keystroke_e	e	n/a
248.149	0.0745	496298	keystroke_Key.enter	Key.enter	n/a
248.2275	7.0775	496455	prompt	n/a	avoiding singh laptop meets\n
248.959	0.105	497918	keystroke_a	a	n/a
249.1235	0.121	498247	keystroke_v	v	n/a
249.289	0.1345	498578	keystroke_o	o	n/a
249.364	0.135	498728	keystroke_i	i	n/a
249.559	0.1045	499118	keystroke_d	d	n/a
249.784	0.1055	499568	keystroke_i	i	n/a
249.844	0.135	499688	keystroke_n	n	n/a
249.934	0.135	499868	keystroke_g	g	n/a
250.054	0.105	500108	keystroke_Key.space	Key.space	n/a
250.189	0.1045	500378	keystroke_s	s	n/a
250.3085	0.1205	500617	keystroke_i	i	n/a
250.5785	0.0905	501157	keystroke_g	g	n/a
250.7145	0.0895	501429	keystroke_n	n	n/a
251.404	0.09	502808	keystroke_Key.backspace	Key.backspace	n/a
252.004	0.1045	504008	keystroke_Key.backspace	Key.backspace	n/a
252.289	0.075	504578	keystroke_n	n	n/a
252.529	0.09	505058	keystroke_g	g	n/a
252.664	0.075	505328	keystroke_h	h	n/a
252.949	0.105	505898	keystroke_Key.space	Key.space	n/a
253.114	0.105	506228	keystroke_l	l	n/a
253.204	0.1045	506408	keystroke_a	a	n/a
253.399	0.12	506798	keystroke_p	p	n/a
253.789	0.0765	507578	keystroke_t	t	n/a
253.8495	0.194	507699	keystroke_o	o	n/a
253.984	0.1355	507968	keystroke_p	p	n/a
254.2085	0.1055	508417	keystroke_Key.space	Key.space	n/a
254.569	0.075	509138	keystroke_m	m	n/a
254.633	0.0855	509266	keystroke_e	e	n/a
254.779	0.105	509558	keystroke_e	e	n/a
254.929	0.105	509858	keystroke_t	t	n/a
255.019	0.12	510038	keystroke_s	s	n/a
255.214	0.09	510428	keystroke_Key.enter	Key.enter	n/a
255.3075	7.1375	510615	prompt	n/a	trans portuguese kidney pressure\n
256.249	0.0895	512498	keystroke_t	t	n/a
256.444	0.1055	512888	keystroke_r	r	n/a
256.519	0.1045	513038	keystroke_a	a	n/a
256.6535	0.0755	513307	keystroke_n	n	n/a
256.744	0.135	513488	keystroke_s	s	n/a
256.85	0.119	513700	keystroke_Key.space	Key.space	n/a
257.029	0.09	514058	keystroke_p	p	n/a
257.0745	0.1795	514149	keystroke_o	o	n/a
257.2085	0.1355	514417	keystroke_r	r	n/a
257.779	0.1045	515558	keystroke_u	u	n/a
258.0635	0.075	516127	keystroke_g	g	n/a
258.2145	0.0895	516429	keystroke_u	u	n/a
258.364	0.105	516728	keystroke_e	e	n/a
258.604	0.09	517208	keystroke_s	s	n/a
258.844	0.0305	517688	keystroke_e	e	n/a
258.8895	0.1345	517779	keystroke_e	e	n/a
259.2345	0.0895	518469	keystroke_Key.space	Key.space	n/a
259.624	0.046	519248	keystroke_Key.backspace	Key.backspace	n/a
259.804	0.045	519608	keystroke_Key.backspace	Key.backspace	n/a
260.014	0.09	520028	keystroke_Key.space	Key.space	n/a
260.164	0.0745	520328	keystroke_k	k	n/a
260.359	0.075	520718	keystroke_i	i	n/a
260.4785	0.075	520957	keystroke_d	d	n/a
260.659	0.06	521318	keystroke_n	n	n/a
260.765	0.0735	521530	keystroke_e	e	n/a
260.974	0.122	521948	keystroke_y	y	n/a
261.1085	0.1055	522217	keystroke_Key.space	Key.space	n/a
261.334	0.1045	522668	keystroke_p	p	n/a
261.4235	0.121	522847	keystroke_r	r	n/a
261.499	0.105	522998	keystroke_e	e	n/a
261.709	0.0595	523418	keystroke_s	s	n/a
261.874	0.075	523748	keystroke_s	s	n/a
261.994	0.09	523988	keystroke_u	u	n/a
262.114	0.12	524228	keystroke_r	r	n/a
262.174	0.09	524348	keystroke_e	e	n/a
262.369	0.0745	524738	keystroke_Key.enter	Key.enter	n/a
262.448	5.1425	524896	prompt	n/a	mixture nasdaq leaving shut\n
263.2235	0.1205	526447	keystroke_m	m	n/a
263.288	0.116	526576	keystroke_i	i	n/a
263.434	0.12	526868	keystroke_s	s	n/a
263.5385	0.12	527077	keystroke_t	t	n/a
263.689	0.09	527378	keystroke_u	u	n/a
263.794	0.135	527588	keystroke_r	r	n/a
263.854	0.135	527708	keystroke_e	e	n/a
263.974	0.1065	527948	keystroke_Key.space	Key.space	n/a
264.499	0.09	528998	keystroke_n	n	n/a
264.5595	0.1195	529119	keystroke_a	a	n/a
264.664	0.15	529328	keystroke_s	s	n/a
265.039	0.0905	530078	keystroke_d	d	n/a
265.1295	0.135	530259	keystroke_a	a	n/a
265.549	0.091	531098	keystroke_q	q	n/a
265.684	0.1205	531368	keystroke_Key.space	Key.space	n/a
266.029	0.1355	532058	keystroke_l	l	n/a
266.119	0.12	532238	keystroke_e	e	n/a
266.224	0.165	532448	keystroke_a	a	n/a
266.449	0.105	532898	keystroke_v	v	n/a
266.584	0.12	533168	keystroke_i	i	n/a
266.674	0.1195	533348	keystroke_n	n	n/a
266.779	0.1205	533558	keystroke_g	g	n/a
266.839	0.12	533678	keystroke_Key.space	Key.space	n/a
267.019	0.1045	534038	keystroke_s	s	n/a
267.0795	0.0895	534159	keystroke_h	h	n/a
267.274	0.1045	534548	keystroke_u	u	n/a
267.394	0.0755	534788	keystroke_t	t	n/a
267.529	0.06	535058	keystroke_Key.enter	Key.enter	n/a
267.593	7.4995	535186	prompt	n/a	resist argued possibility bias\n
268.339	0.1365	536678	keystroke_r	r	n/a
268.3995	0.105	536799	keystroke_e	e	n/a
268.6545	0.09	537309	keystroke_s	s	n/a
268.759	0.105	537518	keystroke_i	i	n/a
268.909	0.1055	537818	keystroke_s	s	n/a
269.0295	0.1495	538059	keystroke_t	t	n/a
269.164	0.105	538328	keystroke_Key.space	Key.space	n/a
269.554	0.12	539108	keystroke_a	a	n/a
269.644	0.1355	539288	keystroke_r	r	n/a
269.944	0.075	539888	keystroke_g	g	n/a
270.0635	0.1055	540127	keystroke_u	u	n/a
270.184	0.1805	540368	keystroke_e	e	n/a
270.334	0.06	540668	keystroke_s	s	n/a
270.694	0.09	541388	keystroke_Key.backspace	Key.backspace	n/a
270.8455	0.1335	541691	keystroke_d	d	n/a
270.9935	0.1055	541987	keystroke_Key.space	Key.space	n/a
271.639	0.0755	543278	keystroke_p	p	n/a
271.669	0.135	543338	keystroke_o	o	n/a
271.8935	0.0305	543787	keystroke_d	d	n/a
271.954	0.135	543908	keystroke_s	s	n/a
272.434	0.09	544868	keystroke_Key.backspace	Key.backspace	n/a
272.614	0.09	545228	keystroke_Key.backspace	Key.backspace	n/a
272.719	0.0895	545438	keystroke_s	s	n/a
272.914	0.0755	545828	keystroke_s	s	n/a
272.974	0.105	545948	keystroke_i	i	n/a
273.094	0.106	546188	keystroke_b	b	n/a
273.214	0.09	546428	keystroke_i	i	n/a
273.439	0.165	546878	keystroke_l	l	n/a
273.5445	0.12	547089	keystroke_i	i	n/a
273.754	0.06	547508	keystroke_t	t	n/a
273.904	0.105	547808	keystroke_y	y	n/a
273.994	0.1355	547988	keystroke_Key.space	Key.space	n/a
274.3845	0.0595	548769	keystroke_b	b	n/a
274.461	0.103	548922	keystroke_i	i	n/a
274.624	0.105	549248	keystroke_a	a	n/a
274.744	0.15	549488	keystroke_s	s	n/a
274.999	0.0925	549998	keystroke_Key.enter	Key.enter	n/a
275.095	9.175	550190	prompt	n/a	installations wrapped drivers intimate\n
275.944	0.15	551888	keystroke_i	i	n/a
276.02	0.119	552040	keystroke_n	n	n/a
276.154	0.1505	552308	keystroke_s	s	n/a
276.2895	0.1045	552579	keystroke_t	t	n/a
276.3795	0.1055	552759	keystroke_a	a	n/a
276.6195	0.0745	553239	keystroke_l	l	n/a
276.7995	0.075	553599	keystroke_l	l	n/a
276.889	0.1205	553778	keystroke_a	a	n/a
277.099	0.0905	554198	keystroke_t	t	n/a
277.1745	0.195	554349	keystroke_i	i	n/a
277.249	0.135	554498	keystroke_o	o	n/a
277.37	0.105	554740	keystroke_n	n	n/a
277.4455	0.1485	554891	keystroke_s	s	n/a
277.5645	0.1195	555129	keystroke_Key.space	Key.space	n/a
277.894	0.15	555788	keystroke_w	w	n/a
278.029	0.15	556058	keystroke_r	r	n/a
278.284	0.1045	556568	keystroke_a	a	n/a
278.4345	0.0895	556869	keystroke_p	p	n/a
278.6295	0.0765	557259	keystroke_p	p	n/a
278.6895	0.1045	557379	keystroke_e	e	n/a
278.899	0.09	557798	keystroke_d	d	n/a
279.0055	0.1035	558011	keystroke_Key.space	Key.space	n/a
279.2445	0.0595	558489	keystroke_r	r	n/a
279.289	0.12	558578	keystroke_d	d	n/a
279.424	0.09	558848	keystroke_r	r	n/a
279.966	0.058	559932	keystroke_Key.backspace	Key.backspace	n/a
280.1295	0.09	560259	keystroke_Key.backspace	Key.backspace	n/a
280.309	0.105	560618	keystroke_Key.backspace	Key.backspace	n/a
280.384	0.12	560768	keystroke_d	d	n/a
280.459	0.12	560918	keystroke_r	r	n/a
280.624	0.1055	561248	keystroke_i	i	n/a
280.744	0.1055	561488	keystroke_v	v	n/a
281.1345	0.1045	562269	keystroke_e	e	n/a
281.209	0.105	562418	keystroke_r	r	n/a
281.4495	0.1195	562899	keystroke_s	s	n/a
281.554	0.1055	563108	keystroke_Key.space	Key.space	n/a
281.824	0.09	563648	keystroke_i	i	n/a
281.884	0.09	563768	keystroke_n	n	n/a
282.004	0.09	564008	keystroke_t	t	n/a
282.109	0.0905	564218	keystroke_i	i	n/a
282.394	0.09	564788	keystroke_m	m	n/a
282.694	0.045	565388	keystroke_Key.backspace	Key.backspace	n/a
282.8295	0.075	565659	keystroke_Key.backspace	Key.backspace	n/a
283.564	0.06	567128	keystroke_i	i	n/a
283.7145	0.09	567429	keystroke_m	m	n/a
283.8345	0.1195	567669	keystroke_a	a	n/a
283.969	0.105	567938	keystroke_t	t	n/a
284.0295	0.09	568059	keystroke_e	e	n/a
284.179	0.09	568358	keystroke_Key.enter	Key.enter	n/a
284.2725	6.1625	568545	prompt	n/a	edited forming susan properties\n
285.0345	0.0745	570069	keystroke_e	e	n/a
285.2445	0.075	570489	keystroke_d	d	n/a
285.3795	0.0895	570759	keystroke_i	i	n/a
285.5295	0.135	571059	keystroke_t	t	n/a
285.6045	0.1045	571209	keystroke_e	e	n/a
285.8595	0.076	571719	keystroke_d	d	n/a
285.936	0.103	571872	keystroke_Key.space	Key.space	n/a
286.1295	0.09	572259	keystroke_f	f	n/a
286.236	0.1035	572472	keystroke_o	o	n/a
286.354	0.06	572708	keystroke_r	r	n/a
286.444	0.0905	572888	keystroke_m	m	n/a
286.5795	0.1045	573159	keystroke_i	i	n/a
286.6695	0.0895	573339	keystroke_n	n	n/a
286.7745	0.1195	573549	keystroke_g	g	n/a
286.8645	0.1045	573729	keystroke_Key.space	Key.space	n/a
287.03	0.104	574060	keystroke_s	s	n/a
287.1195	0.0895	574239	keystroke_u	u	n/a
287.2545	0.1045	574509	keystroke_s	s	n/a
287.344	0.0755	574688	keystroke_u	u	n/a
287.4795	0.12	574959	keystroke_a	a	n/a
287.824	0.045	575648	keystroke_Key.backspace	Key.backspace	n/a
287.974	0.0905	575948	keystroke_Key.backspace	Key.backspace	n/a
288.1245	0.105	576249	keystroke_a	a	n/a
288.259	0.09	576518	keystroke_n	n	n/a
288.394	0.105	576788	keystroke_Key.space	Key.space	n/a
288.6645	0.0905	577329	keystroke_p	p	n/a
288.739	0.1055	577478	keystroke_r	r	n/a
288.8595	0.105	577719	keystroke_o	o	n/a
289.2045	0.1345	578409	keystroke_p	p	n/a
289.4595	0.12	578919	keystroke_e	e	n/a
289.5345	0.1045	579069	keystroke_r	r	n/a
289.7745	0.075	579549	keystroke_t	t	n/a
289.909	0.1065	579818	keystroke_i	i	n/a
290.0295	0.152	580059	keystroke_e	e	n/a
290.1345	0.1345	580269	keystroke_s	s	n/a
290.3445	0.0895	580689	keystroke_Key.enter	Key.enter	n/a
290.438	9.4775	580876	prompt	n/a	queries entrepreneur building congressional\n
291.514	0.105	583028	keystroke_q	q	n/a
291.694	0.12	583388	keystroke_u	u	n/a
291.934	0.15	583868	keystroke_e	e	n/a
292.024	0.15	584048	keystroke_r	r	n/a
292.339	0.12	584678	keystroke_i	i	n/a
292.489	0.12	584978	keystroke_e	e	n/a
292.699	0.1355	585398	keystroke_s	s	n/a
292.8495	0.1045	585699	keystroke_Key.space	Key.space	n/a
293.1655	0.0585	586331	keystroke_e	e	n/a
293.254	0.105	586508	keystroke_n	n	n/a
293.494	0.0905	586988	keystroke_t	t	n/a
293.6745	0.045	587349	keystroke_e	e	n/a
294.049	0.06	588098	keystroke_Key.backspace	Key.backspace	n/a
294.199	0.106	588398	keystroke_r	r	n/a
294.2895	0.1195	588579	keystroke_e	e	n/a
294.649	0.09	589298	keystroke_p	p	n/a
294.769	0.15	589538	keystroke_r	r	n/a
294.8595	0.1195	589719	keystroke_e	e	n/a
295.2045	0.0745	590409	keystroke_n	n	n/a
295.444	0.09	590888	keystroke_e	e	n/a
295.789	0.105	591578	keystroke_u	u	n/a
295.9845	0.135	591969	keystroke_r	r	n/a
296.224	0.135	592448	keystroke_Key.space	Key.space	n/a
296.7045	0.0895	593409	keystroke_b	b	n/a
296.809	0.135	593618	keystroke_u	u	n/a
296.8695	0.1195	593739	keystroke_i	i	n/a
296.9595	0.09	593919	keystroke_l	l	n/a
297.049	0.105	594098	keystroke_d	d	n/a
297.1845	0.1045	594369	keystroke_i	i	n/a
297.259	0.135	594518	keystroke_n	n	n/a
297.3495	0.1195	594699	keystroke_g	g	n/a
297.439	0.105	594878	keystroke_Key.space	Key.space	n/a
297.724	0.1205	595448	keystroke_c	c	n/a
297.8595	0.0895	595719	keystroke_o	o	n/a
297.9195	0.1045	595839	keystroke_n	n	n/a
298.189	0.12	596378	keystroke_g	g	n/a
298.4145	0.135	596829	keystroke_r	r	n/a
298.4745	0.105	596949	keystroke_e	e	n/a
298.6845	0.06	597369	keystroke_s	s	n/a
298.8345	0.1045	597669	keystroke_s	s	n/a
298.9545	0.09	597909	keystroke_i	i	n/a
299.136	0.118	598272	keystroke_o	o	n/a
299.239	0.1205	598478	keystroke_n	n	n/a
299.4645	0.1045	598929	keystroke_a	a	n/a
299.6	0.104	599200	keystroke_l	l	n/a
299.854	0.0605	599708	keystroke_Key.enter	Key.enter	n/a
299.9185	5.037	599837	prompt	n/a	daddy realm outreach sticker\n
300.589	0.12	601178	keystroke_d	d	n/a
300.724	0.105	601448	keystroke_a	a	n/a
300.8895	0.1045	601779	keystroke_d	d	n/a
301.0845	0.075	602169	keystroke_d	d	n/a
301.2045	0.0895	602409	keystroke_y	y	n/a
301.3085	0.091	602617	keystroke_Key.space	Key.space	n/a
301.519	0.12	603038	keystroke_r	r	n/a
301.564	0.1355	603128	keystroke_e	e	n/a
301.714	0.1055	603428	keystroke_a	a	n/a
301.8495	0.105	603699	keystroke_l	l	n/a
302.044	0.09	604088	keystroke_m	m	n/a
302.164	0.1225	604328	keystroke_Key.space	Key.space	n/a
302.4195	0.15	604839	keystroke_o	o	n/a
302.524	0.1355	605048	keystroke_u	u	n/a
302.6745	0.105	605349	keystroke_t	t	n/a
302.9165	0.133	605833	keystroke_r	r	n/a
303.0345	0.135	606069	keystroke_e	e	n/a
303.199	0.105	606398	keystroke_a	a	n/a
303.439	0.09	606878	keystroke_c	c	n/a
303.574	0.1055	607148	keystroke_h	h	n/a
303.664	0.105	607328	keystroke_Key.space	Key.space	n/a
303.814	0.135	607628	keystroke_s	s	n/a
303.964	0.09	607928	keystroke_t	t	n/a
304.114	0.135	608228	keystroke_i	i	n/a
304.279	0.0905	608558	keystroke_c	c	n/a
304.399	0.12	608798	keystroke_k	k	n/a
304.5495	0.1045	609099	keystroke_e	e	n/a
304.594	0.12	609188	keystroke_r	r	n/a
304.8795	0.075	609759	keystroke_Key.enter	Key.enter	n/a
304.9585	8.697	609917	prompt	n/a	sensitive explore november hopefully\n
305.7195	0.1795	611439	keystroke_s	s	n/a
305.824	0.12	611648	keystroke_e	e	n/a
305.929	0.09	611858	keystroke_n	n	n/a
306.0795	0.135	612159	keystroke_s	s	n/a
306.3495	0.1045	612699	keystroke_i	i	n/a
306.544	0.075	613088	keystroke_t	t	n/a
306.6795	0.09	613359	keystroke_i	i	n/a
306.8295	0.0745	613659	keystroke_v	v	n/a
306.9195	0.1345	613839	keystroke_e	e	n/a
307.0395	0.1215	614079	keystroke_Key.space	Key.space	n/a
307.5645	0.0745	615129	keystroke_e	e	n/a
307.7595	0.12	615519	keystroke_x	x	n/a
307.909	0.12	615818	keystroke_p	p	n/a
308.119	0.06	616238	keystroke_l	l	n/a
308.2845	0.105	616569	keystroke_o	o	n/a
308.374	0.12	616748	keystroke_r	r	n/a
308.404	0.12	616808	keystroke_e	e	n/a
308.569	0.1055	617138	keystroke_Key.space	Key.space	n/a
308.7645	0.135	617529	keystroke_n	n	n/a
308.839	0.12	617678	keystroke_o	o	n/a
309.0645	0.1045	618129	keystroke_v	v	n/a
309.2595	0.105	618519	keystroke_e	e	n/a
309.516	0.073	619032	keystroke_m	m	n/a
309.754	0.0755	619508	keystroke_b	b	n/a
309.9195	0.1045	619839	keystroke_e	e	n/a
309.994	0.1355	619988	keystroke_r	r	n/a
310.146	0.088	620292	keystroke_Key.space	Key.space	n/a
310.399	0.15	620798	keystroke_h	h	n/a
310.52	0.1495	621040	keystroke_o	o	n/a
310.7145	0.0445	621429	keystroke_e	e	n/a
310.729	0.12	621458	keystroke_p	p	n/a
311.149	0.06	622298	keystroke_Key.backspace	Key.backspace	n/a
311.314	0.0755	622628	keystroke_Key.backspace	Key.backspace	n/a
311.554	0.1205	623108	keystroke_p	p	n/a
311.689	0.075	623378	keystroke_e	e	n/a
311.974	0.09	623948	keystroke_f	f	n/a
312.0795	0.1045	624159	keystroke_u	u	n/a
312.274	0.075	624548	keystroke_l	l	n/a
312.439	0.135	624878	keystroke_l	l	n/a
312.5595	0.1045	625119	keystroke_y	y	n/a
313.5345	0.12	627069	keystroke_Key.enter	Key.enter	n/a
313.659	7.061	627318	prompt	n/a	cent jacksonville poll mystery\n
314.644	0.105	629288	keystroke_c	c	n/a
314.8555	0.0735	629711	keystroke_e	e	n/a
314.974	0.0905	629948	keystroke_n	n	n/a
315.1995	0.1045	630399	keystroke_t	t	n/a
315.32	0.0885	630640	keystroke_Key.space	Key.space	n/a
315.559	0.0905	631118	keystroke_j	j	n/a
315.664	0.09	631328	keystroke_a	a	n/a
315.859	0.0905	631718	keystroke_c	c	n/a
315.964	0.09	631928	keystroke_k	k	n/a
316.234	0.075	632468	keystroke_s	s	n/a
316.339	0.105	632678	keystroke_o	o	n/a
316.6695	0.1045	633339	keystroke_n	n	n/a
317.3145	0.0895	634629	keystroke_v	v	n/a
317.509	0.09	635018	keystroke_i	i	n/a
317.734	0.06	635468	keystroke_l	l	n/a
317.914	0.09	635828	keystroke_l	l	n/a
317.989	0.09	635978	keystroke_e	e	n/a
318.1995	0.075	636399	keystroke_Key.space	Key.space	n/a
318.454	0.09	636908	keystroke_p	p	n/a
318.499	0.1375	636998	keystroke_o	o	n/a
318.7535	0.0755	637507	keystroke_l	l	n/a
319.039	0.09	638078	keystroke_l	l	n/a
319.249	0.1195	638498	keystroke_Key.space	Key.space	n/a
319.504	0.0755	639008	keystroke_m	m	n/a
319.7315	0.088	639463	keystroke_y	y	n/a
319.8345	0.1345	639669	keystroke_s	s	n/a
319.969	0.1055	639938	keystroke_t	t	n/a
320.089	0.12	640178	keystroke_e	e	n/a
320.1945	0.1045	640389	keystroke_r	r	n/a
320.3745	0.1045	640749	keystroke_y	y	n/a
320.644	0.0755	641288	keystroke_Key.enter	Key.enter	n/a
320.723	8.2465	641446	prompt	n/a	calculator back electronic costume\n
321.499	0.15	642998	keystroke_c	c	n/a
321.6795	0.1045	643359	keystroke_a	a	n/a
321.889	0.0905	643778	keystroke_l	l	n/a
322.009	0.1355	644018	keystroke_c	c	n/a
322.1595	0.0745	644319	keystroke_u	u	n/a
322.3545	0.0895	644709	keystroke_l	l	n/a
322.459	0.075	644918	keystroke_a	a	n/a
322.594	0.1055	645188	keystroke_t	t	n/a
322.729	0.0905	645458	keystroke_o	o	n/a
322.849	0.135	645698	keystroke_r	r	n/a
322.969	0.1055	645938	keystroke_Key.space	Key.space	n/a
323.18	0.1195	646360	keystroke_b	b	n/a
323.3895	0.0145	646779	keystroke_a	a	n/a
323.4345	0.1045	646869	keystroke_c	c	n/a
323.7345	0.1045	647469	keystroke_k	k	n/a
323.8995	0.0295	647799	keystroke_c	c	n/a
324.3795	0.0745	648759	keystroke_Key.backspace	Key.backspace	n/a
324.709	0.1205	649418	keystroke_Key.space	Key.space	n/a
325.3545	0.0595	650709	keystroke_e	e	n/a
325.4745	0.1045	650949	keystroke_l	l	n/a
325.5645	0.09	651129	keystroke_e	e	n/a
325.8045	0.1045	651609	keystroke_c	c	n/a
325.9545	0.105	651909	keystroke_t	t	n/a
326.1665	0.088	652333	keystroke_r	r	n/a
326.2695	0.1045	652539	keystroke_o	o	n/a
326.48	0.119	652960	keystroke_n	n	n/a
326.5845	0.1045	653169	keystroke_i	i	n/a
326.779	0.1055	653558	keystroke_c	c	n/a
326.914	0.105	653828	keystroke_Key.space	Key.space	n/a
327.169	0.0905	654338	keystroke_c	c	n/a
327.23	0.149	654460	keystroke_o	o	n/a
327.484	0.09	654968	keystroke_s	s	n/a
327.7085	0.0455	655417	keystroke_p	p	n/a
328.0995	0.09	656199	keystroke_Key.backspace	Key.backspace	n/a
328.2645	0.1045	656529	keystroke_t	t	n/a
328.3995	0.09	656799	keystroke_u	u	n/a
328.624	0.09	657248	keystroke_m	m	n/a
328.6995	0.075	657399	keystroke_e	e	n/a
328.8795	0.0895	657759	keystroke_Key.enter	Key.enter	n/a
328.9725	5.773	657945	prompt	n/a	rescue loved swimming criminal\n
329.7495	0.135	659499	keystroke_r	r	n/a
329.809	0.1055	659618	keystroke_e	e	n/a
330.0195	0.0895	660039	keystroke_s	s	n/a
330.2595	0.09	660519	keystroke_c	c	n/a
330.4695	0.075	660939	keystroke_u	u	n/a
330.576	0.1035	661152	keystroke_e	e	n/a
330.694	0.1205	661388	keystroke_Key.space	Key.space	n/a
330.9645	0.0765	661929	keystroke_l	l	n/a
331.1445	0.1045	662289	keystroke_o	o	n/a
331.2195	0.1045	662439	keystroke_v	v	n/a
331.3995	0.0895	662799	keystroke_e	e	n/a
331.5795	0.1195	663159	keystroke_d	d	n/a
331.7145	0.09	663429	keystroke_Key.space	Key.space	n/a
331.8365	0.0725	663673	keystroke_w	w	n/a
332.179	0.091	664358	keystroke_Key.backspace	Key.backspace	n/a
332.2695	0.075	664539	keystroke_s	s	n/a
332.467	0.087	664934	keystroke_w	w	n/a
332.5695	0.09	665139	keystroke_i	i	n/a
332.7795	0.0595	665559	keystroke_m	m	n/a
332.9445	0.0755	665889	keystroke_m	m	n/a
333.0195	0.1045	666039	keystroke_i	i	n/a
333.109	0.1055	666218	keystroke_n	n	n/a
333.1995	0.1345	666399	keystroke_g	g	n/a
333.289	0.106	666578	keystroke_Key.space	Key.space	n/a
333.454	0.09	666908	keystroke_c	c	n/a
333.6495	0.0895	667299	keystroke_r	r	n/a
333.7545	0.105	667509	keystroke_i	i	n/a
333.9495	0.1345	667899	keystroke_m	m	n/a
334.039	0.1055	668078	keystroke_i	i	n/a
334.205	0.089	668410	keystroke_n	n	n/a
334.324	0.0905	668648	keystroke_a	a	n/a
334.4295	0.09	668859	keystroke_l	l	n/a
334.655	0.0895	669310	keystroke_Key.enter	Key.enter	n/a
334.7485	6.477	669497	prompt	n/a	patch alberta ivory union\n
335.5995	0.09	671199	keystroke_p	p	n/a
335.675	0.1045	671350	keystroke_a	a	n/a
335.9295	0.075	671859	keystroke_t	t	n/a
336.139	0.0755	672278	keystroke_c	c	n/a
336.2295	0.09	672459	keystroke_h	h	n/a
336.3645	0.0895	672729	keystroke_Key.space	Key.space	n/a
336.574	0.06	673148	keystroke_a	a	n/a
336.6495	0.105	673299	keystroke_l	l	n/a
336.9805	0.089	673961	keystroke_b	b	n/a
337.1445	0.1195	674289	keystroke_e	e	n/a
337.2195	0.1045	674439	keystroke_r	r	n/a
337.4595	0.075	674919	keystroke_t	t	n/a
337.5795	0.105	675159	keystroke_a	a	n/a
337.7295	0.105	675459	keystroke_Key.space	Key.space	n/a
337.969	0.12	675938	keystroke_i	i	n/a
338.105	0.0595	676210	keystroke_v	v	n/a
338.239	0.1205	676478	keystroke_o	o	n/a
338.509	0.1055	677018	keystroke_t	t	n/a
338.6595	0.12	677319	keystroke_y	y	n/a
338.794	0.0905	677588	keystroke_Key.space	Key.space	n/a
339.0795	0.0595	678159	keystroke_Key.backspace	Key.backspace	n/a
339.2595	0.06	678519	keystroke_Key.backspace	Key.backspace	n/a
339.439	0.0755	678878	keystroke_Key.backspace	Key.backspace	n/a
339.5745	0.105	679149	keystroke_r	r	n/a
339.709	0.105	679418	keystroke_y	y	n/a
339.829	0.1055	679658	keystroke_Key.space	Key.space	n/a
340.2795	0.075	680559	keystroke_u	u	n/a
340.489	0.12	680978	keystroke_n	n	n/a
340.594	0.1655	681188	keystroke_i	i	n/a
340.775	0.1045	681550	keystroke_o	o	n/a
340.8645	0.105	681729	keystroke_n	n	n/a
341.1645	0.06	682329	keystroke_Key.enter	Key.enter	n/a
341.228	8.397	682456	prompt	n/a	diabetes commonwealth obviously bears\n
341.9595	0.105	683919	keystroke_d	d	n/a
342.2895	0.1045	684579	keystroke_i	i	n/a
342.6045	0.1345	685209	keystroke_a	a	n/a
342.8595	0.09	685719	keystroke_b	b	n/a
343.039	0.0755	686078	keystroke_i	i	n/a
343.37	0.0745	686740	keystroke_Key.backspace	Key.backspace	n/a
343.4595	0.075	686919	keystroke_e	e	n/a
343.669	0.1205	687338	keystroke_t	t	n/a
343.76	0.1045	687520	keystroke_e	e	n/a
343.9995	0.15	687999	keystroke_s	s	n/a
344.135	0.119	688270	keystroke_Key.space	Key.space	n/a
344.4055	0.0885	688811	keystroke_c	c	n/a
344.4945	0.105	688989	keystroke_o	o	n/a
344.7195	0.06	689439	keystroke_m	m	n/a
344.8845	0.09	689769	keystroke_m	m	n/a
344.9895	0.1495	689979	keystroke_o	o	n/a
345.1245	0.105	690249	keystroke_n	n	n/a
345.38	0.134	690760	keystroke_w	w	n/a
345.4695	0.1195	690939	keystroke_e	e	n/a
345.6945	0.135	691389	keystroke_a	a	n/a
346.025	0.1055	692050	keystroke_l	l	n/a
346.204	0.076	692408	keystroke_t	t	n/a
346.3545	0.09	692709	keystroke_h	h	n/a
346.5195	0.1195	693039	keystroke_Key.space	Key.space	n/a
346.7745	0.0895	693549	keystroke_o	o	n/a
346.924	0.0905	693848	keystroke_b	b	n/a
347.239	0.0605	694478	keystroke_v	v	n/a
347.3745	0.15	694749	keystroke_i	i	n/a
347.5095	0.135	695019	keystroke_o	o	n/a
347.6295	0.1195	695259	keystroke_u	u	n/a
347.8545	0.105	695709	keystroke_s	s	n/a
348.0645	0.165	696129	keystroke_l	l	n/a
348.2145	0.12	696429	keystroke_y	y	n/a
348.394	0.105	696788	keystroke_Key.space	Key.space	n/a
348.694	0.075	697388	keystroke_b	b	n/a
348.874	0.1055	697748	keystroke_e	e	n/a
348.994	0.1505	697988	keystroke_a	a	n/a
349.1595	0.09	698319	keystroke_r	r	n/a
349.294	0.135	698588	keystroke_s	s	n/a
349.5495	0.0745	699099	keystroke_Key.enter	Key.enter	n/a
349.628	4.4075	699256	prompt	n/a	free spank shut let's\n
350.5695	0.075	701139	keystroke_f	f	n/a
350.7495	0.135	701499	keystroke_r	r	n/a
350.824	0.1055	701648	keystroke_e	e	n/a
351.005	0.134	702010	keystroke_e	e	n/a
351.124	0.1355	702248	keystroke_Key.space	Key.space	n/a
351.3195	0.1195	702639	keystroke_s	s	n/a
351.5145	0.105	703029	keystroke_p	p	n/a
351.6195	0.1045	703239	keystroke_a	a	n/a
351.739	0.0905	703478	keystroke_n	n	n/a
352.009	0.0755	704018	keystroke_k	k	n/a
352.129	0.1365	704258	keystroke_Key.space	Key.space	n/a
352.339	0.1055	704678	keystroke_s	s	n/a
352.431	0.0735	704862	keystroke_h	h	n/a
352.609	0.075	705218	keystroke_u	u	n/a
352.7145	0.15	705429	keystroke_t	t	n/a
352.819	0.1355	705638	keystroke_Key.space	Key.space	n/a
353.0745	0.09	706149	keystroke_l	l	n/a
353.1645	0.1045	706329	keystroke_e	e	n/a
353.2845	0.1195	706569	keystroke_t	t	n/a
353.509	0.1205	707018	keystroke_'	'	n/a
353.6595	0.1495	707319	keystroke_s	s	n/a
353.7495	0.075	707499	keystroke_Key.space	Key.space	n/a
353.9595	0.075	707919	keystroke_Key.enter	Key.enter	n/a
354.038	7.243	708076	prompt	n/a	volvo wishing connectivity plans\n
355.234	0.1205	710468	keystroke_v	v	n/a
355.3695	0.165	710739	keystroke_o	o	n/a
355.6845	0.1645	711369	keystroke_l	l	n/a
355.909	0.12	711818	keystroke_v	v	n/a
356.1645	0.0895	712329	keystroke_e	e	n/a
356.6145	0.075	713229	keystroke_Key.backspace	Key.backspace	n/a
356.839	0.09	713678	keystroke_o	o	n/a
356.9595	0.12	713919	keystroke_Key.space	Key.space	n/a
357.3195	0.0895	714639	keystroke_w	w	n/a
357.6195	0.0895	715239	keystroke_i	i	n/a
357.739	0.0905	715478	keystroke_s	s	n/a
357.8595	0.12	715719	keystroke_h	h	n/a
357.9645	0.105	715929	keystroke_i	i	n/a
358.0995	0.1055	716199	keystroke_n	n	n/a
358.189	0.135	716378	keystroke_g	g	n/a
358.294	0.1205	716588	keystroke_Key.space	Key.space	n/a
358.639	0.1205	717278	keystroke_c	c	n/a
358.7445	0.075	717489	keystroke_o	o	n/a
358.8795	0.075	717759	keystroke_n	n	n/a
359.06	0.0895	718120	keystroke_n	n	n/a
359.1645	0.0595	718329	keystroke_e	e	n/a
359.3595	0.0905	718719	keystroke_c	c	n/a
359.4645	0.12	718929	keystroke_t	t	n/a
359.5995	0.075	719199	keystroke_i	i	n/a
359.7345	0.09	719469	keystroke_v	v	n/a
359.839	0.0915	719678	keystroke_i	i	n/a
360.0045	0.075	720009	keystroke_t	t	n/a
360.1845	0.1075	720369	keystroke_y	y	n/a
360.3045	0.1045	720609	keystroke_Key.space	Key.space	n/a
360.5595	0.105	721119	keystroke_p	p	n/a
360.739	0.1055	721478	keystroke_l	l	n/a
360.8145	0.09	721629	keystroke_a	a	n/a
360.934	0.09	721868	keystroke_n	n	n/a
361.039	0.0905	722078	keystroke_s	s	n/a
361.1745	0.1055	722349	keystroke_Key.enter	Key.enter	n/a
361.2855	5.635	722571	prompt	n/a	equal peru accuracy those're\n
361.9695	0.105	723939	keystroke_e	e	n/a
362.1645	0.1045	724329	keystroke_q	q	n/a
362.2995	0.105	724599	keystroke_u	u	n/a
362.42	0.104	724840	keystroke_a	a	n/a
362.5545	0.12	725109	keystroke_l	l	n/a
362.7345	0.1045	725469	keystroke_Key.space	Key.space	n/a
363.0195	0.105	726039	keystroke_p	p	n/a
363.094	0.1355	726188	keystroke_e	e	n/a
363.2145	0.15	726429	keystroke_r	r	n/a
363.5145	0.12	727029	keystroke_u	u	n/a
363.6495	0.105	727299	keystroke_Key.space	Key.space	n/a
363.8595	0.09	727719	keystroke_a	a	n/a
364.0545	0.06	728109	keystroke_c	c	n/a
364.1895	0.09	728379	keystroke_c	c	n/a
364.309	0.0755	728618	keystroke_u	u	n/a
364.3995	0.105	728799	keystroke_r	r	n/a
364.4895	0.1195	728979	keystroke_a	a	n/a
364.624	0.1055	729248	keystroke_c	c	n/a
364.7595	0.09	729519	keystroke_y	y	n/a
364.8795	0.09	729759	keystroke_Key.space	Key.space	n/a
365.2845	0.09	730569	keystroke_t	t	n/a
365.3595	0.1095	730719	keystroke_h	h	n/a
365.419	0.12	730838	keystroke_o	o	n/a
365.524	0.1805	731048	keystroke_s	s	n/a
365.675	0.1225	731350	keystroke_e	e	n/a
366.2745	0.1055	732549	keystroke_'	'	n/a
366.5605	0.1345	733121	keystroke_r	r	n/a
366.635	0.104	733270	keystroke_e	e	n/a
366.845	0.0745	733690	keystroke_Key.enter	Key.enter	n/a
366.9235	6.0425	733847	prompt	n/a	utility brussels acts namely\n
367.7295	0.0905	735459	keystroke_u	u	n/a
367.9245	0.09	735849	keystroke_t	t	n/a
368.014	0.1205	736028	keystroke_i	i	n/a
368.315	0.179	736630	keystroke_l	l	n/a
368.4045	0.1345	736809	keystroke_i	i	n/a
368.629	0.0755	737258	keystroke_t	t	n/a
368.7495	0.105	737499	keystroke_y	y	n/a
368.8695	0.12	737739	keystroke_Key.space	Key.space	n/a
369.1545	0.0915	738309	keystroke_b	b	n/a
369.3645	0.105	738729	keystroke_r	r	n/a
369.5	0.1045	739000	keystroke_u	u	n/a
369.68	0.09	739360	keystroke_s	s	n/a
369.876	0.0735	739752	keystroke_s	s	n/a
370.01	0.0895	740020	keystroke_e	e	n/a
370.1895	0.09	740379	keystroke_l	l	n/a
370.3415	0.148	740683	keystroke_s	s	n/a
370.506	0.118	741012	keystroke_Key.space	Key.space	n/a
370.7745	0.09	741549	keystroke_a	a	n/a
370.9395	0.135	741879	keystroke_c	c	n/a
371.2845	0.0905	742569	keystroke_t	t	n/a
371.509	0.1505	743018	keystroke_s	s	n/a
371.675	0.119	743350	keystroke_Key.space	Key.space	n/a
371.93	0.0895	743860	keystroke_n	n	n/a
372.019	0.09	744038	keystroke_a	a	n/a
372.1695	0.12	744339	keystroke_m	m	n/a
372.3045	0.09	744609	keystroke_e	e	n/a
372.4845	0.12	744969	keystroke_l	l	n/a
372.6195	0.12	745239	keystroke_y	y	n/a
372.8745	0.09	745749	keystroke_Key.enter	Key.enter	n/a
372.969	6.9415	745938	prompt	n/a	inline revolution contrary plans\n
373.715	0.135	747430	keystroke_i	i	n/a
373.7905	0.119	747581	keystroke_n	n	n/a
373.955	0.1195	747910	keystroke_l	l	n/a
374.0295	0.1355	748059	keystroke_i	i	n/a
374.1345	0.1045	748269	keystroke_n	n	n/a
374.2545	0.15	748509	keystroke_e	e	n/a
374.4205	0.149	748841	keystroke_Key.space	Key.space	n/a
374.9145	0.136	749829	keystroke_r	r	n/a
374.9745	0.105	749949	keystroke_e	e	n/a
375.2155	0.074	750431	keystroke_v	v	n/a
375.3345	0.105	750669	keystroke_o	o	n/a
375.5445	0.0905	751089	keystroke_l	l	n/a
375.649	0.09	751298	keystroke_u	u	n/a
375.8295	0.075	751659	keystroke_t	t	n/a
375.8895	0.1495	751779	keystroke_i	i	n/a
375.9645	0.0905	751929	keystroke_o	o	n/a
376.024	0.1215	752048	keystroke_n	n	n/a
376.1745	0.1195	752349	keystroke_Key.space	Key.space	n/a
376.52	0.0745	753040	keystroke_c	c	n/a
377.0445	0.1205	754089	keystroke_o	o	n/a
377.1195	0.135	754239	keystroke_n	n	n/a
377.3145	0.105	754629	keystroke_t	t	n/a
377.5245	0.105	755049	keystroke_r	r	n/a
377.8995	0.105	755799	keystroke_a	a	n/a
378.0795	0.1205	756159	keystroke_r	r	n/a
378.2445	0.121	756489	keystroke_y	y	n/a
378.4095	0.09	756819	keystroke_Key.space	Key.space	n/a
378.635	0.0595	757270	keystroke_l	l	n/a
378.965	0.06	757930	keystroke_Key.backspace	Key.backspace	n/a
379.175	0.09	758350	keystroke_p	p	n/a
379.37	0.105	758740	keystroke_l	l	n/a
379.4895	0.0905	758979	keystroke_a	a	n/a
379.565	0.0745	759130	keystroke_n	n	n/a
379.67	0.105	759340	keystroke_s	s	n/a
379.82	0.0895	759640	keystroke_Key.enter	Key.enter	n/a
379.914	5.849	759828	prompt	n/a	projectors emotions admissions twice\n
380.7495	0.09	761499	keystroke_p	p	n/a
380.8695	0.1055	761739	keystroke_r	r	n/a
380.96	0.09	761920	keystroke_o	o	n/a
381.021	0.1185	762042	keystroke_j	j	n/a
381.1395	0.075	762279	keystroke_e	e	n/a
381.351	0.0735	762702	keystroke_c	c	n/a
381.439	0.0905	762878	keystroke_t	t	n/a
381.635	0.0745	763270	keystroke_o	o	n/a
381.7395	0.1055	763479	keystroke_r	r	n/a
381.935	0.1345	763870	keystroke_s	s	n/a
382.0845	0.12	764169	keystroke_Key.space	Key.space	n/a
382.415	0.0895	764830	keystroke_e	e	n/a
382.5495	0.135	765099	keystroke_m	m	n/a
382.655	0.105	765310	keystroke_o	o	n/a
382.835	0.0895	765670	keystroke_t	t	n/a
382.9095	0.166	765819	keystroke_i	i	n/a
382.97	0.12	765940	keystroke_o	o	n/a
383.045	0.135	766090	keystroke_n	n	n/a
383.165	0.135	766330	keystroke_s	s	n/a
383.2415	0.1335	766483	keystroke_Key.space	Key.space	n/a
383.48	0.12	766960	keystroke_a	a	n/a
383.585	0.1045	767170	keystroke_d	d	n/a
383.7945	0.1355	767589	keystroke_m	m	n/a
383.8845	0.12	767769	keystroke_i	i	n/a
384.0045	0.09	768009	keystroke_s	s	n/a
384.1995	0.06	768399	keystroke_s	s	n/a
384.29	0.1355	768580	keystroke_i	i	n/a
384.3195	0.135	768639	keystroke_o	o	n/a
384.4095	0.1505	768819	keystroke_n	n	n/a
384.56	0.12	769120	keystroke_s	s	n/a
384.694	0.107	769388	keystroke_Key.space	Key.space	n/a
384.905	0.1045	769810	keystroke_t	t	n/a
384.9945	0.15	769989	keystroke_w	w	n/a
385.175	0.105	770350	keystroke_i	i	n/a
385.3695	0.061	770739	keystroke_c	c	n/a
385.55	0.0595	771100	keystroke_e	e	n/a
385.67	0.092	771340	keystroke_Key.enter	Key.enter	n/a
385.7665	7.5255	771533	prompt	n/a	furthermore councils enhance geographical\n
386.63	0.09	773260	keystroke_f	f	n/a
386.945	0.105	773890	keystroke_u	u	n/a
387.065	0.135	774130	keystroke_r	r	n/a
387.4095	0.0905	774819	keystroke_t	t	n/a
387.56	0.09	775120	keystroke_h	h	n/a
387.665	0.105	775330	keystroke_e	e	n/a
387.7245	0.1205	775449	keystroke_r	r	n/a
388.0245	0.1355	776049	keystroke_m	m	n/a
388.1	0.1045	776200	keystroke_o	o	n/a
388.19	0.135	776380	keystroke_r	r	n/a
388.235	0.135	776470	keystroke_e	e	n/a
388.3855	0.089	776771	keystroke_Key.space	Key.space	n/a
388.582	0.088	777164	keystroke_c	c	n/a
388.685	0.18	777370	keystroke_o	o	n/a
388.85	0.12	777700	keystroke_u	u	n/a
389.1045	0.09	778209	keystroke_n	n	n/a
389.285	0.1195	778570	keystroke_c	c	n/a
389.42	0.165	778840	keystroke_i	i	n/a
389.57	0.12	779140	keystroke_l	l	n/a
389.72	0.135	779440	keystroke_s	s	n/a
389.8245	0.1355	779649	keystroke_Key.space	Key.space	n/a
390.1395	0.0905	780279	keystroke_e	e	n/a
390.245	0.075	780490	keystroke_n	n	n/a
390.5	0.075	781000	keystroke_h	h	n/a
390.605	0.075	781210	keystroke_a	a	n/a
390.7095	0.075	781419	keystroke_n	n	n/a
390.8	0.1195	781600	keystroke_c	c	n/a
391.0245	0.1055	782049	keystroke_e	e	n/a
391.103	0.117	782206	keystroke_Key.space	Key.space	n/a
391.3395	0.0755	782679	keystroke_g	g	n/a
391.4295	0.1365	782859	keystroke_e	e	n/a
391.6245	0.1205	783249	keystroke_o	o	n/a
391.9245	0.0755	783849	keystroke_g	g	n/a
392.12	0.1045	784240	keystroke_r	r	n/a
392.2095	0.1055	784419	keystroke_a	a	n/a
392.375	0.1215	784750	keystroke_p	p	n/a
392.465	0.135	784930	keystroke_h	h	n/a
392.555	0.105	785110	keystroke_i	i	n/a
392.645	0.105	785290	keystroke_c	c	n/a
392.8095	0.1055	785619	keystroke_a	a	n/a
392.961	0.104	785922	keystroke_l	l	n/a
393.215	0.076	786430	keystroke_Key.enter	Key.enter	n/a
393.2955	8.0355	786591	prompt	n/a	saved celebrate wealth testimonials\n
394.0695	0.135	788139	keystroke_s	s	n/a
394.19	0.1045	788380	keystroke_a	a	n/a
394.3245	0.1205	788649	keystroke_v	v	n/a
394.475	0.09	788950	keystroke_e	e	n/a
394.7	0.12	789400	keystroke_d	d	n/a
394.8355	0.1495	789671	keystroke_Key.space	Key.space	n/a
395.48	0.0895	790960	keystroke_c	c	n/a
395.66	0.09	791320	keystroke_e	e	n/a
395.7945	0.12	791589	keystroke_l	l	n/a
395.93	0.075	791860	keystroke_e	e	n/a
396.1395	0.0905	792279	keystroke_b	b	n/a
396.35	0.15	792700	keystroke_r	r	n/a
396.485	0.105	792970	keystroke_a	a	n/a
396.65	0.1195	793300	keystroke_t	t	n/a
396.7245	0.1205	793449	keystroke_e	e	n/a
396.92	0.1345	793840	keystroke_Key.space	Key.space	n/a
397.1	0.2395	794200	keystroke_w	w	n/a
397.2375	0.1175	794475	keystroke_a	a	n/a
397.3245	0.105	794649	keystroke_e	e	n/a
397.655	0.06	795310	keystroke_Key.backspace	Key.backspace	n/a
397.82	0.0745	795640	keystroke_Key.backspace	Key.backspace	n/a
397.9245	0.18	795849	keystroke_e	e	n/a
398.0145	0.1655	796029	keystroke_a	a	n/a
398.435	0.1195	796870	keystroke_l	l	n/a
398.72	0.0755	797440	keystroke_t	t	n/a
398.8245	0.0905	797649	keystroke_h	h	n/a
399.005	0.1195	798010	keystroke_Key.space	Key.space	n/a
399.3945	0.105	798789	keystroke_t	t	n/a
399.4705	0.09	798941	keystroke_e	e	n/a
399.665	0.12	799330	keystroke_s	s	n/a
399.77	0.09	799540	keystroke_t	t	n/a
399.935	0.1045	799870	keystroke_i	i	n/a
400.145	0.1495	800290	keystroke_m	m	n/a
400.265	0.12	800530	keystroke_o	o	n/a
400.5345	0.1205	801069	keystroke_n	n	n/a
400.6245	0.1205	801249	keystroke_i	i	n/a
400.79	0.1045	801580	keystroke_a	a	n/a
400.9095	0.1055	801819	keystroke_l	l	n/a
401.06	0.1205	802120	keystroke_s	s	n/a
401.2245	0.1055	802449	keystroke_Key.enter	Key.enter	n/a
401.3335	5.562	802667	prompt	n/a	tear writers douglas magazine\n
402.1245	0.1055	804249	keystroke_t	t	n/a
402.2	0.12	804400	keystroke_e	e	n/a
402.305	0.1195	804610	keystroke_a	a	n/a
402.5155	0.1495	805031	keystroke_r	r	n/a
402.6945	0.1205	805389	keystroke_Key.space	Key.space	n/a
402.92	0.1045	805840	keystroke_w	w	n/a
402.98	0.135	805960	keystroke_r	r	n/a
403.1	0.1065	806200	keystroke_i	i	n/a
403.25	0.1055	806500	keystroke_t	t	n/a
403.3245	0.1355	806649	keystroke_e	e	n/a
403.445	0.135	806890	keystroke_r	r	n/a
403.6395	0.1505	807279	keystroke_s	s	n/a
403.775	0.1055	807550	keystroke_Key.space	Key.space	n/a
404.12	0.0895	808240	keystroke_d	d	n/a
404.2395	0.1355	808479	keystroke_o	o	n/a
404.315	0.1645	808630	keystroke_u	u	n/a
404.8245	0.0905	809649	keystroke_g	g	n/a
405.02	0.1195	810040	keystroke_l	l	n/a
405.1545	0.0905	810309	keystroke_a	a	n/a
405.335	0.12	810670	keystroke_s	s	n/a
405.4395	0.1215	810879	keystroke_Key.space	Key.space	n/a
405.68	0.0895	811360	keystroke_m	m	n/a
405.785	0.09	811570	keystroke_a	a	n/a
405.95	0.105	811900	keystroke_g	g	n/a
406.0705	0.1045	812141	keystroke_a	a	n/a
406.3095	0.075	812619	keystroke_z	z	n/a
406.4	0.12	812800	keystroke_i	i	n/a
406.49	0.1045	812980	keystroke_n	n	n/a
406.6095	0.1205	813219	keystroke_e	e	n/a
406.805	0.0895	813610	keystroke_Key.enter	Key.enter	n/a
406.899	8.937	813798	prompt	n/a	tribute computers swing formula\n
407.9165	0.059	815833	keystroke_t	t	n/a
408.0815	0.1035	816163	keystroke_r	r	n/a
408.2455	0.0895	816491	keystroke_u	u	n/a
408.4245	0.0605	816849	keystroke_b	b	n/a
409.055	0.06	818110	keystroke_Key.backspace	Key.backspace	n/a
409.22	0.06	818440	keystroke_Key.backspace	Key.backspace	n/a
409.385	0.075	818770	keystroke_Key.backspace	Key.backspace	n/a
410.1945	0.1205	820389	keystroke_r	r	n/a
410.345	0.0915	820690	keystroke_i	i	n/a
410.57	0.075	821140	keystroke_b	b	n/a
410.705	0.075	821410	keystroke_u	u	n/a
410.8245	0.1055	821649	keystroke_t	t	n/a
410.915	0.12	821830	keystroke_e	e	n/a
411.08	0.105	822160	keystroke_Key.space	Key.space	n/a
411.335	0.1045	822670	keystroke_c	c	n/a
411.4095	0.1355	822819	keystroke_o	o	n/a
411.515	0.105	823030	keystroke_m	m	n/a
411.605	0.105	823210	keystroke_p	p	n/a
411.755	0.09	823510	keystroke_u	u	n/a
411.8	0.12	823600	keystroke_t	t	n/a
411.9055	0.1195	823811	keystroke_e	e	n/a
411.995	0.1345	823990	keystroke_r	r	n/a
412.1445	0.1205	824289	keystroke_Key.space	Key.space	n/a
412.22	0.135	824440	keystroke_s	s	n/a
412.415	0.12	824830	keystroke_Key.space	Key.space	n/a
412.85	0.0595	825700	keystroke_Key.backspace	Key.backspace	n/a
413.015	0.0605	826030	keystroke_Key.backspace	Key.backspace	n/a
413.18	0.09	826360	keystroke_Key.backspace	Key.backspace	n/a
413.285	0.137	826570	keystroke_s	s	n/a
413.375	0.1345	826750	keystroke_Key.space	Key.space	n/a
413.886	0.074	827772	keystroke_s	s	n/a
414.0645	0.0905	828129	keystroke_w	w	n/a
414.1395	0.1205	828279	keystroke_i	i	n/a
414.2305	0.1045	828461	keystroke_n	n	n/a
414.35	0.1505	828700	keystroke_g	g	n/a
414.455	0.105	828910	keystroke_Key.space	Key.space	n/a
414.62	0.0895	829240	keystroke_f	f	n/a
414.7545	0.1055	829509	keystroke_o	o	n/a
414.8305	0.1045	829661	keystroke_r	r	n/a
415.0245	0.0905	830049	keystroke_m	m	n/a
415.28	0.09	830560	keystroke_u	u	n/a
415.46	0.09	830920	keystroke_l	l	n/a
415.535	0.0895	831070	keystroke_a	a	n/a
415.76	0.075	831520	keystroke_Key.enter	Key.enter	n/a
415.839	8.217	831678	prompt	n/a	loading photoshop transparency identification\n
416.7945	0.0765	833589	keystroke_l	l	n/a
416.975	0.0905	833950	keystroke_o	o	n/a
417.08	0.105	834160	keystroke_a	a	n/a
417.17	0.1045	834340	keystroke_d	d	n/a
417.29	0.1345	834580	keystroke_i	i	n/a
417.3805	0.1045	834761	keystroke_n	n	n/a
417.455	0.12	834910	keystroke_g	g	n/a
417.545	0.105	835090	keystroke_Key.space	Key.space	n/a
417.71	0.135	835420	keystroke_p	p	n/a
417.8	0.12	835600	keystroke_h	h	n/a
417.935	0.1045	835870	keystroke_o	o	n/a
418.145	0.0745	836290	keystroke_t	t	n/a
418.28	0.135	836560	keystroke_o	o	n/a
418.6095	0.1205	837219	keystroke_s	s	n/a
418.7455	0.1195	837491	keystroke_h	h	n/a
418.835	0.135	837670	keystroke_o	o	n/a
418.955	0.105	837910	keystroke_p	p	n/a
419.1645	0.1205	838329	keystroke_Key.space	Key.space	n/a
419.5245	0.0605	839049	keystroke_t	t	n/a
419.69	0.1045	839380	keystroke_r	r	n/a
419.78	0.12	839560	keystroke_a	a	n/a
419.915	0.09	839830	keystroke_n	n	n/a
419.99	0.09	839980	keystroke_s	s	n/a
420.8175	0.1025	841635	keystroke_p	p	n/a
420.89	0.1045	841780	keystroke_a	a	n/a
420.965	0.1345	841930	keystroke_r	r	n/a
421.19	0.0915	842380	keystroke_e	e	n/a
421.37	0.075	842740	keystroke_n	n	n/a
421.52	0.0895	843040	keystroke_c	c	n/a
421.67	0.105	843340	keystroke_y	y	n/a
421.775	0.1195	843550	keystroke_Key.space	Key.space	n/a
422	0.105	844000	keystroke_i	i	n/a
422.12	0.0745	844240	keystroke_d	d	n/a
422.285	0.075	844570	keystroke_e	e	n/a
422.3895	0.0905	844779	keystroke_n	n	n/a
422.645	0.075	845290	keystroke_t	t	n/a
422.765	0.075	845530	keystroke_i	i	n/a
422.9145	0.0915	845829	keystroke_f	f	n/a
423.02	0.0745	846040	keystroke_i	i	n/a
423.1555	0.1045	846311	keystroke_c	c	n/a
423.3355	0.089	846671	keystroke_a	a	n/a
423.472	0.088	846944	keystroke_t	t	n/a
423.575	0.1495	847150	keystroke_i	i	n/a
423.6365	0.103	847273	keystroke_o	o	n/a
423.6945	0.1205	847389	keystroke_n	n	n/a
423.9945	0.0605	847989	keystroke_Key.enter	Key.enter	n/a
424.0595	6.3715	848119	prompt	n/a	remedy come occupied prints\n
424.9395	0.1055	849879	keystroke_r	r	n/a
425.0155	0.1045	850031	keystroke_e	e	n/a
425.15	0.0745	850300	keystroke_m	m	n/a
425.2545	0.106	850509	keystroke_e	e	n/a
426.157	0.0575	852314	keystroke_d	d	n/a
426.322	0.088	852644	keystroke_y	y	n/a
426.665	0.105	853330	keystroke_Key.space	Key.space	n/a
427.07	0.12	854140	keystroke_c	c	n/a
427.16	0.105	854320	keystroke_o	o	n/a
427.2525	0.1025	854505	keystroke_m	m	n/a
427.3855	0.104	854771	keystroke_e	e	n/a
427.475	0.105	854950	keystroke_Key.space	Key.space	n/a
427.685	0.12	855370	keystroke_o	o	n/a
427.865	0.09	855730	keystroke_c	c	n/a
428.0145	0.1055	856029	keystroke_c	c	n/a
428.1345	0.075	856269	keystroke_u	u	n/a
428.39	0.1215	856780	keystroke_p	p	n/a
428.45	0.15	856900	keystroke_i	i	n/a
428.6155	0.0745	857231	keystroke_e	e	n/a
428.81	0.0755	857620	keystroke_d	d	n/a
428.8855	0.1045	857771	keystroke_Key.space	Key.space	n/a
429.1095	0.1055	858219	keystroke_p	p	n/a
429.2	0.075	858400	keystroke_r	r	n/a
429.307	0.1025	858614	keystroke_i	i	n/a
429.3945	0.0905	858789	keystroke_n	n	n/a
429.53	0.105	859060	keystroke_g	g	n/a
429.935	0.0745	859870	keystroke_Key.backspace	Key.backspace	n/a
430.0545	0.1205	860109	keystroke_t	t	n/a
430.145	0.1495	860290	keystroke_s	s	n/a
430.355	0.075	860710	keystroke_Key.enter	Key.enter	n/a
430.435	9.4165	860870	prompt	n/a	appendix maritime futures somehow\n
431.3	0.09	862600	keystroke_a	a	n/a
431.48	0.0595	862960	keystroke_p	p	n/a
431.615	0.105	863230	keystroke_p	p	n/a
431.705	0.0895	863410	keystroke_e	e	n/a
431.8395	0.0905	863679	keystroke_n	n	n/a
431.945	0.075	863890	keystroke_d	d	n/a
432.155	0.09	864310	keystroke_i	i	n/a
432.53	0.0895	865060	keystroke_x	x	n/a
432.7395	0.1205	865479	keystroke_Key.space	Key.space	n/a
434.5545	0.092	869109	keystroke_m	m	n/a
434.66	0.105	869320	keystroke_a	a	n/a
434.735	0.12	869470	keystroke_r	r	n/a
434.945	0.09	869890	keystroke_i	i	n/a
435.0945	0.075	870189	keystroke_t	t	n/a
435.2595	0.121	870519	keystroke_i	i	n/a
435.515	0.105	871030	keystroke_m	m	n/a
435.5905	0.134	871181	keystroke_e	e	n/a
435.8445	0.1205	871689	keystroke_Key.space	Key.space	n/a
436.55	0.0895	873100	keystroke_f	f	n/a
436.715	0.1055	873430	keystroke_u	u	n/a
436.805	0.1045	873610	keystroke_r	r	n/a
437.5095	0.0455	875019	keystroke_Key.backspace	Key.backspace	n/a
437.7945	0.0755	875589	keystroke_t	t	n/a
437.915	0.1195	875830	keystroke_u	u	n/a
438.0495	0.1205	876099	keystroke_r	r	n/a
438.0805	0.1825	876161	keystroke_e	e	n/a
438.2445	0.135	876489	keystroke_s	s	n/a
438.32	0.135	876640	keystroke_Key.space	Key.space	n/a
438.65	0.0895	877300	keystroke_s	s	n/a
438.815	0.135	877630	keystroke_o	o	n/a
438.9055	0.1345	877811	keystroke_m	m	n/a
439.055	0.075	878110	keystroke_e	e	n/a
439.385	0.12	878770	keystroke_h	h	n/a
439.4605	0.1345	878921	keystroke_o	o	n/a
439.565	0.12	879130	keystroke_w	w	n/a
439.76	0.09	879520	keystroke_Key.enter	Key.enter	n/a
439.8545	7.1815	879709	prompt	n/a	annual start hear pontiac\n
440.617	0.1175	881234	keystroke_a	a	n/a
440.782	0.088	881564	keystroke_n	n	n/a
440.975	0.045	881950	keystroke_n	n	n/a
441.23	0.15	882460	keystroke_u	u	n/a
441.4245	0.1205	882849	keystroke_a	a	n/a
441.7105	0.1045	883421	keystroke_l	l	n/a
441.935	0.1045	883870	keystroke_Key.space	Key.space	n/a
442.13	0.1195	884260	keystroke_s	s	n/a
442.2945	0.0755	884589	keystroke_t	t	n/a
442.385	0.105	884770	keystroke_a	a	n/a
442.476	0.089	884952	keystroke_r	r	n/a
442.685	0.09	885370	keystroke_t	t	n/a
442.8195	0.105	885639	keystroke_Key.space	Key.space	n/a
442.9855	0.0895	885971	keystroke_h	h	n/a
443.03	0.21	886060	keystroke_e	e	n/a
443.12	0.1345	886240	keystroke_a	a	n/a
443.2245	0.1355	886449	keystroke_r	r	n/a
443.42	0.1195	886840	keystroke_Key.space	Key.space	n/a
443.8545	0.1505	887709	keystroke_p	p	n/a
443.96	0.1645	887920	keystroke_o	o	n/a
444.215	0.165	888430	keystroke_n	n	n/a
444.32	0.1195	888640	keystroke_i	i	n/a
445.73	0.105	891460	keystroke_Key.backspace	Key.backspace	n/a
446.09	0.1045	892180	keystroke_t	t	n/a
446.3	0.105	892600	keystroke_i	i	n/a
446.54	0.12	893080	keystroke_a	a	n/a
446.765	0.0745	893530	keystroke_c	c	n/a
446.96	0.075	893920	keystroke_Key.enter	Key.enter	n/a
447.039	5.683	894078	prompt	n/a	true demand builders carol\n
447.86	0.075	895720	keystroke_t	t	n/a
448.0395	0.091	896079	keystroke_r	r	n/a
448.16	0.105	896320	keystroke_u	u	n/a
448.235	0.1045	896470	keystroke_e	e	n/a
448.4	0.1205	896800	keystroke_Key.space	Key.space	n/a
448.5945	0.075	897189	keystroke_d	d	n/a
448.7755	0.0445	897551	keystroke_e	e	n/a
448.88	0.075	897760	keystroke_m	m	n/a
448.97	0.0745	897940	keystroke_a	a	n/a
449.0905	0.0895	898181	keystroke_n	n	n/a
449.165	0.1195	898330	keystroke_d	d	n/a
449.3	0.105	898600	keystroke_Key.space	Key.space	n/a
449.585	0.105	899170	keystroke_b	b	n/a
449.705	0.1495	899410	keystroke_u	u	n/a
449.78	0.15	899560	keystroke_i	i	n/a
449.8395	0.1205	899679	keystroke_l	l	n/a
449.945	0.06	899890	keystroke_d	d	n/a
450.2005	0.0895	900401	keystroke_e	e	n/a
450.2455	0.1345	900491	keystroke_r	r	n/a
450.44	0.1195	900880	keystroke_Key.space	Key.space	n/a
450.5155	0.1345	901031	keystroke_s	s	n/a
451.115	0.0595	902230	keystroke_Key.backspace	Key.backspace	n/a
451.28	0.075	902560	keystroke_Key.backspace	Key.backspace	n/a
451.385	0.135	902770	keystroke_s	s	n/a
451.461	0.119	902922	keystroke_Key.space	Key.space	n/a
451.76	0.1055	903520	keystroke_c	c	n/a
451.8965	0.1035	903793	keystroke_a	a	n/a
452.075	0.1055	904150	keystroke_r	r	n/a
452.1945	0.1205	904389	keystroke_o	o	n/a
452.4045	0.105	904809	keystroke_l	l	n/a
452.63	0.091	905260	keystroke_Key.enter	Key.enter	n/a
452.725	6.1455	905450	prompt	n/a	images ranks gorgeous forbidden\n
453.488	0.087	906976	keystroke_i	i	n/a
453.635	0.1195	907270	keystroke_m	m	n/a
453.7095	0.1205	907419	keystroke_a	a	n/a
453.875	0.1345	907750	keystroke_g	g	n/a
453.95	0.165	907900	keystroke_e	e	n/a
454.085	0.135	908170	keystroke_s	s	n/a
454.2205	0.104	908441	keystroke_Key.space	Key.space	n/a
454.447	0.088	908894	keystroke_r	r	n/a
454.5055	0.105	909011	keystroke_a	a	n/a
454.6115	0.089	909223	keystroke_n	n	n/a
454.7755	0.106	909551	keystroke_k	k	n/a
454.925	0.1515	909850	keystroke_s	s	n/a
455.0295	0.1505	910059	keystroke_Key.space	Key.space	n/a
455.376	0.074	910752	keystroke_g	g	n/a
455.51	0.1205	911020	keystroke_o	o	n/a
455.72	0.1045	911440	keystroke_r	r	n/a
456.02	0.0895	912040	keystroke_g	g	n/a
456.2755	0.1045	912551	keystroke_e	e	n/a
456.5305	0.1345	913061	keystroke_o	o	n/a
456.635	0.12	913270	keystroke_u	u	n/a
456.7705	0.1495	913541	keystroke_s	s	n/a
456.9345	0.12	913869	keystroke_Key.space	Key.space	n/a
457.325	0.075	914650	keystroke_f	f	n/a
457.415	0.09	914830	keystroke_o	o	n/a
457.52	0.0895	915040	keystroke_r	r	n/a
457.8205	0.0755	915641	keystroke_b	b	n/a
457.9245	0.12	915849	keystroke_i	i	n/a
458.12	0.0745	916240	keystroke_d	d	n/a
458.285	0.045	916570	keystroke_d	d	n/a
458.45	0.0445	916900	keystroke_e	e	n/a
458.5545	0.0905	917109	keystroke_n	n	n/a
458.7945	0.075	917589	keystroke_Key.enter	Key.enter	n/a
458.873	5.428	917746	prompt	n/a	fifth events avenue defendant\n
459.635	0.0895	919270	keystroke_f	f	n/a
459.74	0.0755	919480	keystroke_i	i	n/a
459.8745	0.0905	919749	keystroke_f	f	n/a
460.16	0.075	920320	keystroke_t	t	n/a
460.28	0.09	920560	keystroke_h	h	n/a
460.43	0.135	920860	keystroke_Key.space	Key.space	n/a
460.655	0.09	921310	keystroke_e	e	n/a
460.85	0.0745	921700	keystroke_v	v	n/a
460.9555	0.1045	921911	keystroke_e	e	n/a
461.105	0.075	922210	keystroke_n	n	n/a
461.2115	0.119	922423	keystroke_t	t	n/a
461.33	0.1795	922660	keystroke_s	s	n/a
461.4815	0.104	922963	keystroke_Key.space	Key.space	n/a
461.63	0.12	923260	keystroke_a	a	n/a
461.7945	0.12	923589	keystroke_v	v	n/a
461.975	0.09	923950	keystroke_e	e	n/a
462.1415	0.0885	924283	keystroke_n	n	n/a
462.3645	0.1075	924729	keystroke_u	u	n/a
462.4845	0.1055	924969	keystroke_e	e	n/a
462.575	0.105	925150	keystroke_Key.space	Key.space	n/a
462.7545	0.0755	925509	keystroke_d	d	n/a
462.95	0.0745	925900	keystroke_e	e	n/a
463.13	0.075	926260	keystroke_f	f	n/a
463.28	0.105	926560	keystroke_e	e	n/a
463.46	0.075	926920	keystroke_n	n	n/a
463.5945	0.1205	927189	keystroke_d	d	n/a
463.733	0.117	927466	keystroke_a	a	n/a
463.8945	0.075	927789	keystroke_n	n	n/a
464.075	0.075	928150	keystroke_t	t	n/a
464.2095	0.0905	928419	keystroke_Key.enter	Key.enter	n/a
464.3055	5.7855	928611	prompt	n/a	disabilities shift oliver lenders\n
464.99	0.105	929980	keystroke_d	d	n/a
465.17	0.121	930340	keystroke_i	i	n/a
465.305	0.135	930610	keystroke_s	s	n/a
465.41	0.12	930820	keystroke_a	a	n/a
465.575	0.1055	931150	keystroke_b	b	n/a
465.71	0.105	931420	keystroke_i	i	n/a
465.9215	0.118	931843	keystroke_l	l	n/a
465.965	0.135	931930	keystroke_i	i	n/a
466.16	0.09	932320	keystroke_t	t	n/a
466.385	0.09	932770	keystroke_i	i	n/a
466.46	0.1495	932920	keystroke_e	e	n/a
466.5795	0.1655	933159	keystroke_s	s	n/a
466.717	0.103	933434	keystroke_Key.space	Key.space	n/a
466.9245	0.1055	933849	keystroke_s	s	n/a
467	0.135	934000	keystroke_h	h	n/a
467.0905	0.1195	934181	keystroke_i	i	n/a
467.1945	0.0905	934389	keystroke_f	f	n/a
467.4345	0.075	934869	keystroke_t	t	n/a
467.5555	0.105	935111	keystroke_Key.space	Key.space	n/a
467.72	0.1045	935440	keystroke_o	o	n/a
467.99	0.18	935980	keystroke_l	l	n/a
468.0945	0.152	936189	keystroke_i	i	n/a
468.26	0.12	936520	keystroke_v	v	n/a
468.4095	0.1505	936819	keystroke_e	e	n/a
468.515	0.15	937030	keystroke_r	r	n/a
468.6355	0.1045	937271	keystroke_Key.space	Key.space	n/a
468.845	0.135	937690	keystroke_l	l	n/a
468.9355	0.104	937871	keystroke_e	e	n/a
469.0845	0.0905	938169	keystroke_n	n	n/a
469.205	0.075	938410	keystroke_d	d	n/a
469.3855	0.075	938771	keystroke_e	e	n/a
469.4155	0.1205	938831	keystroke_r	r	n/a
469.79	0.09	939580	keystroke_s	s	n/a
470.015	0.075	940030	keystroke_Key.enter	Key.enter	n/a
470.094	7.3035	940188	prompt	n/a	manufacturing considering devices blonde\n
470.9905	0.09	941981	keystroke_m	m	n/a
471.08	0.0905	942160	keystroke_a	a	n/a
471.215	0.06	942430	keystroke_n	n	n/a
471.395	0.09	942790	keystroke_u	u	n/a
471.7095	0.1055	943419	keystroke_f	f	n/a
471.86	0.135	943720	keystroke_a	a	n/a
472.2055	0.0145	944411	keystroke_c	c	n/a
472.2805	0.1045	944561	keystroke_t	t	n/a
472.445	0.09	944890	keystroke_u	u	n/a
472.565	0.123	945130	keystroke_r	r	n/a
472.805	0.12	945610	keystroke_i	i	n/a
472.91	0.105	945820	keystroke_n	n	n/a
473.0305	0.135	946061	keystroke_g	g	n/a
473.105	0.12	946210	keystroke_Key.space	Key.space	n/a
473.317	0.088	946634	keystroke_c	c	n/a
473.375	0.12	946750	keystroke_o	o	n/a
473.4355	0.12	946871	keystroke_n	n	n/a
473.6155	0.1195	947231	keystroke_s	s	n/a
473.75	0.0895	947500	keystroke_i	i	n/a
473.8555	0.105	947711	keystroke_d	d	n/a
474.05	0.105	948100	keystroke_e	e	n/a
474.125	0.135	948250	keystroke_r	r	n/a
474.365	0.15	948730	keystroke_i	i	n/a
474.4705	0.135	948941	keystroke_n	n	n/a
474.635	0.165	949270	keystroke_g	g	n/a
474.785	0.1055	949570	keystroke_Key.space	Key.space	n/a
474.98	0.075	949960	keystroke_d	d	n/a
475.145	0.0625	950290	keystroke_e	e	n/a
475.265	0.105	950530	keystroke_v	v	n/a
475.4	0.075	950800	keystroke_i	i	n/a
475.4605	0.0895	950921	keystroke_c	c	n/a
475.6715	0.104	951343	keystroke_e	e	n/a
475.805	0.135	951610	keystroke_s	s	n/a
475.971	0.0895	951942	keystroke_Key.space	Key.space	n/a
476.24	0.1055	952480	keystroke_b	b	n/a
476.3605	0.105	952721	keystroke_l	l	n/a
476.5705	0.1045	953141	keystroke_o	o	n/a
476.645	0.1055	953290	keystroke_n	n	n/a
476.78	0.1205	953560	keystroke_d	d	n/a
477.095	0.09	954190	keystroke_e	e	n/a
477.32	0.0765	954640	keystroke_Key.enter	Key.enter	n/a
477.4005	5.3205	954801	prompt	n/a	barbie grove sisters craft\n
478.385	0.12	956770	keystroke_b	b	n/a
478.5505	0.134	957101	keystroke_a	a	n/a
478.656	0.119	957312	keystroke_r	r	n/a
478.8945	0.0905	957789	keystroke_b	b	n/a
479.06	0.09	958120	keystroke_i	i	n/a
479.135	0.12	958270	keystroke_e	e	n/a
479.24	0.1205	958480	keystroke_Key.space	Key.space	n/a
479.525	0.1205	959050	keystroke_g	g	n/a
479.795	0.122	959590	keystroke_r	r	n/a
480.0055	0.089	960011	keystroke_o	o	n/a
480.1095	0.1355	960219	keystroke_v	v	n/a
480.26	0.121	960520	keystroke_e	e	n/a
480.365	0.12	960730	keystroke_Key.space	Key.space	n/a
480.635	0.105	961270	keystroke_s	s	n/a
480.725	0.075	961450	keystroke_i	i	n/a
480.8455	0.1345	961691	keystroke_s	s	n/a
481.011	0.119	962022	keystroke_t	t	n/a
481.1	0.15	962200	keystroke_e	e	n/a
481.2645	0.0905	962529	keystroke_r	r	n/a
481.415	0.15	962830	keystroke_s	s	n/a
481.58	0.12	963160	keystroke_Key.space	Key.space	n/a
481.775	0.135	963550	keystroke_c	c	n/a
481.985	0.135	963970	keystroke_r	r	n/a
482.1055	0.104	964211	keystroke_a	a	n/a
482.272	0.088	964544	keystroke_f	f	n/a
482.465	0.0895	964930	keystroke_t	t	n/a
482.615	0.105	965230	keystroke_Key.enter	Key.enter	n/a
482.724	10.2715	965448	prompt	n/a	declaration building tramadol insights\n
483.47	0.09	966940	keystroke_d	d	n/a
483.65	0.075	967300	keystroke_e	e	n/a
483.7855	0.0445	967571	keystroke_l	l	n/a
484.01	0.075	968020	keystroke_c	c	n/a
484.28	0.0595	968560	keystroke_Key.backspace	Key.backspace	n/a
484.445	0.075	968890	keystroke_Key.backspace	Key.backspace	n/a
484.535	0.09	969070	keystroke_c	c	n/a
484.8055	0.075	969611	keystroke_l	l	n/a
484.91	0.12	969820	keystroke_a	a	n/a
485.15	0.12	970300	keystroke_r	r	n/a
485.256	0.104	970512	keystroke_a	a	n/a
485.6305	0.0745	971261	keystroke_t	t	n/a
485.69	0.1345	971380	keystroke_i	i	n/a
485.75	0.105	971500	keystroke_o	o	n/a
485.8405	0.0895	971681	keystroke_n	n	n/a
485.945	0.107	971890	keystroke_Key.space	Key.space	n/a
486.155	0.075	972310	keystroke_b	b	n/a
486.245	0.1945	972490	keystroke_i	i	n/a
486.26	0.1495	972520	keystroke_u	u	n/a
486.38	0.15	972760	keystroke_l	l	n/a
486.65	0.105	973300	keystroke_d	d	n/a
486.845	0.1055	973690	keystroke_i	i	n/a
487.16	0.06	974320	keystroke_Key.backspace	Key.backspace	n/a
487.31	0.075	974620	keystroke_Key.backspace	Key.backspace	n/a
487.4905	0.0595	974981	keystroke_Key.backspace	Key.backspace	n/a
487.655	0.0605	975310	keystroke_Key.backspace	Key.backspace	n/a
487.82	0.0745	975640	keystroke_Key.backspace	Key.backspace	n/a
488.075	0.1345	976150	keystroke_u	u	n/a
488.1205	0.1795	976241	keystroke_i	i	n/a
488.57	0.12	977140	keystroke_l	l	n/a
488.795	0.09	977590	keystroke_d	d	n/a
488.9155	0.1345	977831	keystroke_i	i	n/a
488.9905	0.135	977981	keystroke_n	n	n/a
