onset	duration	sample	value	key	prompt_text
2.9445	14.1915	5889	prompt	n/a	the quick brown fox jumps over a lazy dog\n
7.2505	0.058	14501	keystroke_t	t	n/a
7.2785	0.06	14557	keystroke_h	h	n/a
7.3685	0.09	14737	keystroke_e	e	n/a
7.6685	0.045	15337	keystroke_q	q	n/a
7.6985	0.016	15397	keystroke_w	w	n/a
7.7435	0.12	15487	keystroke_u	u	n/a
7.8185	0.105	15637	keystroke_i	i	n/a
8.1935	0.09	16387	keystroke_Key.backspace	Key.backspace	n/a
8.3585	0.075	16717	keystroke_Key.backspace	Key.backspace	n/a
8.5385	0.06	17077	keystroke_Key.backspace	Key.backspace	n/a
8.6885	0.0745	17377	keystroke_Key.backspace	Key.backspace	n/a
9.108	0.075	18216	keystroke_Key.space	Key.space	n/a
9.5435	0.075	19087	keystroke_q	q	n/a
9.7235	0.135	19447	keystroke_u	u	n/a
9.7985	0.105	19597	keystroke_i	i	n/a
9.9785	0.0745	19957	keystroke_c	c	n/a
10.068	0.09	20136	keystroke_k	k	n/a
10.263	0.09	20526	keystroke_Key.space	Key.space	n/a
10.5335	0.075	21067	keystroke_b	b	n/a
10.6385	0.09	21277	keystroke_r	r	n/a
10.7435	0.06	21487	keystroke_o	o	n/a
10.9085	0.075	21817	keystroke_w	w	n/a
11.0735	0.045	22147	keystroke_n	n	n/a
11.2535	0.0895	22507	keystroke_Key.space	Key.space	n/a
11.508	0.0755	23016	keystroke_f	f	n/a
11.628	0.0755	23256	keystroke_o	o	n/a
11.7935	0.0745	23587	keystroke_x	x	n/a
11.9135	0.0745	23827	keystroke_Key.space	Key.space	n/a
12.1685	0.06	24337	keystroke_j	j	n/a
12.2885	0.075	24577	keystroke_u	u	n/a
12.4835	0.075	24967	keystroke_m	m	n/a
12.7535	0.075	25507	keystroke_s	s	n/a
12.8285	0.075	25657	keystroke_Key.space	Key.space	n/a
13.5485	0.045	27097	keystroke_Key.backspace	Key.backspace	n/a
13.6385	0.075	27277	keystroke_Key.backspace	Key.backspace	n/a
14.194	0.06	28388	keystroke_p	p	n/a
14.344	0.075	28688	keystroke_s	s	n/a
14.479	0.075	28958	keystroke_Key.space	Key.space	n/a
14.674	0.059	29348	keystroke_o	o	n/a
14.779	0.075	29558	keystroke_v	v	n/a
14.884	0.12	29768	keystroke_e	e	n/a
14.974	0.075	29948	keystroke_r	r	n/a
15.138	0.09	30276	keystroke_Key.space	Key.space	n/a
15.273	0.106	30546	keystroke_a	a	n/a
15.393	0.0905	30786	keystroke_Key.space	Key.space	n/a
15.6635	0.075	31327	keystroke_l	l	n/a
15.7535	0.09	31507	keystroke_a	a	n/a
15.9935	0.075	31987	keystroke_z	z	n/a
16.1135	0.06	32227	keystroke_y	y	n/a
16.324	0.09	32648	keystroke_Key.space	Key.space	n/a
16.429	0.0895	32858	keystroke_d	d	n/a
16.5635	0.09	33127	keystroke_o	o	n/a
16.7585	0.06	33517	keystroke_g	g	n/a
17.0585	0.075	34117	keystroke_Key.enter	Key.enter	n/a
17.1405	12.5795	34281	prompt	n/a	hormone theoretical sparc brandon\n
18.0485	0.075	36097	keystroke_h	h	n/a
18.1835	0.09	36367	keystroke_o	o	n/a
18.3335	0.06	36667	keystroke_r	r	n/a
18.4385	0.075	36877	keystroke_m	m	n/a
18.6035	0.075	37207	keystroke_o	o	n/a
18.7685	0.075	37537	keystroke_n	n	n/a
18.9185	0.075	37837	keystroke_e	e	n/a
19.233	0.06	38466	keystroke_Key.space	Key.space	n/a
19.563	0.09	39126	keystroke_t	t	n/a
19.683	0.075	39366	keystroke_h	h	n/a
19.848	0.09	39696	keystroke_e	e	n/a
20.133	0.075	40266	keystroke_o	o	n/a
20.313	0.075	40626	keystroke_r	r	n/a
21.648	0.0605	43296	keystroke_e	e	n/a
21.873	0.0605	43746	keystroke_t	t	n/a
22.0235	0.06	44047	keystroke_i	i	n/a
22.1285	0.1055	44257	keystroke_c	c	n/a
22.189	0.09	44378	keystroke_a	a	n/a
22.339	0.075	44678	keystroke_l	l	n/a
22.729	0.03	45458	keystroke_Key.space	Key.space	n/a
23.118	0.03	46236	keystroke_s	s	n/a
23.194	0.06	46388	keystroke_p	p	n/a
23.224	0.119	46448	keystroke_a	a	n/a
24.4385	0.1045	48877	keystroke_r	r	n/a
24.739	0.089	49478	keystroke_c	c	n/a
25.143	0.06	50286	keystroke_Key.space	Key.space	n/a
26.3585	0.09	52717	keystroke_Key.space	Key.space	n/a
27.4085	0.075	54817	keystroke_Key.backspace	Key.backspace	n/a
28.2635	0.075	56527	keystroke_b	b	n/a
28.3535	0.03	56707	keystroke_r	r	n/a
28.3685	0.03	56737	keystroke_a	a	n/a
28.4285	0.075	56857	keystroke_n	n	n/a
28.7285	0.09	57457	keystroke_d	d	n/a
28.8485	0.075	57697	keystroke_o	o	n/a
28.9085	0.075	57817	keystroke_n	n	n/a
29.6285	0.09	59257	keystroke_Key.enter	Key.enter	n/a
29.7235	7.3465	59447	prompt	n/a	compensation rwanda moved wheels\n
30.453	0.09	60906	keystroke_c	c	n/a
30.513	0.09	61026	keystroke_o	o	n/a
30.723	0.075	61446	keystroke_m	m	n/a
30.888	0.06	61776	keystroke_p	p	n/a
31.038	0.06	62076	keystroke_e	e	n/a
31.113	0.06	62226	keystroke_n	n	n/a
31.368	0.075	62736	keystroke_s	s	n/a
31.4585	0.15	62917	keystroke_a	a	n/a
31.6835	0.09	63367	keystroke_t	t	n/a
31.8185	0.105	63637	keystroke_i	i	n/a
31.8785	0.075	63757	keystroke_o	o	n/a
32.0285	0.105	64057	keystroke_n	n	n/a
32.4935	0.075	64987	keystroke_Key.space	Key.space	n/a
33.079	0.344	66158	keystroke_r	r	n/a
33.438	0.015	66876	keystroke_w	w	n/a
33.498	0.135	66996	keystroke_a	a	n/a
33.708	0.09	67416	keystroke_n	n	n/a
33.843	0.105	67686	keystroke_d	d	n/a
33.963	0.09	67926	keystroke_a	a	n/a
34.278	0.075	68556	keystroke_Key.space	Key.space	n/a
34.533	0.12	69066	keystroke_m	m	n/a
34.593	0.09	69186	keystroke_o	o	n/a
34.713	0.1205	69426	keystroke_v	v	n/a
34.8035	0.09	69607	keystroke_e	e	n/a
35.0135	0.075	70027	keystroke_d	d	n/a
35.5685	0.09	71137	keystroke_Key.space	Key.space	n/a
35.9285	0.09	71857	keystroke_w	w	n/a
36.0335	0.09	72067	keystroke_h	h	n/a
36.2135	0.09	72427	keystroke_e	e	n/a
36.3785	0.06	72757	keystroke_e	e	n/a
36.4835	0.075	72967	keystroke_l	l	n/a
36.6035	0.075	73207	keystroke_s	s	n/a
36.9785	0.09	73957	keystroke_Key.enter	Key.enter	n/a
37.073	10.497	74146	prompt	n/a	conduct matches algebra dakota\n
38.058	0.03	76116	keystroke_c	c	n/a
38.073	0.045	76146	keystroke_o	o	n/a
38.103	0.03	76206	keystroke_n	n	n/a
38.733	0.105	77466	keystroke_d	d	n/a
38.868	0.09	77736	keystroke_u	u	n/a
39.213	0.09	78426	keystroke_c	c	n/a
39.423	0.075	78846	keystroke_t	t	n/a
39.753	0.075	79506	keystroke_Key.space	Key.space	n/a
40.023	0.075	80046	keystroke_m	m	n/a
40.128	0.105	80256	keystroke_a	a	n/a
40.248	0.0905	80496	keystroke_t	t	n/a
40.4735	0.075	80947	keystroke_c	c	n/a
40.4885	0.03	80977	keystroke_v	v	n/a
40.5635	0.075	81127	keystroke_h	h	n/a
40.6985	0.105	81397	keystroke_e	e	n/a
40.7735	0.075	81547	keystroke_s	s	n/a
40.9085	0.09	81817	keystroke_Key.space	Key.space	n/a
41.5685	0.075	83137	keystroke_Key.backspace	Key.backspace	n/a
41.7035	0.045	83407	keystroke_Key.backspace	Key.backspace	n/a
41.8085	0.045	83617	keystroke_Key.backspace	Key.backspace	n/a
41.9285	0.06	83857	keystroke_Key.backspace	Key.backspace	n/a
42.0785	0.09	84157	keystroke_Key.backspace	Key.backspace	n/a
42.4685	0.06	84937	keystroke_Key.backspace	Key.backspace	n/a
43.0985	0.09	86197	keystroke_c	c	n/a
43.2035	0.075	86407	keystroke_h	h	n/a
43.3235	0.075	86647	keystroke_e	e	n/a
43.5335	0.075	87067	keystroke_s	s	n/a
43.6835	0.0745	87367	keystroke_Key.space	Key.space	n/a
43.908	0.105	87816	keystroke_a	a	n/a
44.059	0.075	88118	keystroke_l	l	n/a
44.584	0.074	89168	keystroke_g	g	n/a
44.703	0.09	89406	keystroke_e	e	n/a
44.913	0.075	89826	keystroke_b	b	n/a
45.018	0.1055	90036	keystroke_r	r	n/a
45.0935	0.075	90187	keystroke_a	a	n/a
45.7235	0.09	91447	keystroke_Key.space	Key.space	n/a
45.9185	0.12	91837	keystroke_d	d	n/a
46.1885	0.09	92377	keystroke_a	a	n/a
46.804	0.0595	93608	keystroke_k	k	n/a
46.9385	0.09	93877	keystroke_o	o	n/a
47.0735	0.12	94147	keystroke_t	t	n/a
47.2085	0.0895	94417	keystroke_a	a	n/a
47.478	0.09	94956	keystroke_Key.enter	Key.enter	n/a
47.573	7.557	95146	prompt	n/a	lovers breed accurate html\n
49.2035	0.045	98407	keystroke_b	b	n/a
49.623	0.09	99246	keystroke_Key.backspace	Key.backspace	n/a
49.983	0.075	99966	keystroke_l	l	n/a
50.133	0.09	100266	keystroke_o	o	n/a
50.403	0.12	100806	keystroke_v	v	n/a
50.568	0.105	101136	keystroke_e	e	n/a
50.628	0.09	101256	keystroke_r	r	n/a
50.853	0.06	101706	keystroke_s	s	n/a
51.108	0.09	102216	keystroke_Key.space	Key.space	n/a
51.468	0.1055	102936	keystroke_b	b	n/a
51.5885	0.195	103177	keystroke_r	r	n/a
51.7535	0.15	103507	keystroke_e	e	n/a
52.0085	0.06	104017	keystroke_e	e	n/a
52.234	0.074	104468	keystroke_d	d	n/a
52.473	0.1055	104946	keystroke_Key.space	Key.space	n/a
52.743	0.105	105486	keystroke_a	a	n/a
52.968	0.075	105936	keystroke_c	c	n/a
53.133	0.09	106266	keystroke_c	c	n/a
53.3285	0.075	106657	keystroke_u	u	n/a
53.4335	0.135	106867	keystroke_r	r	n/a
53.5535	0.09	107107	keystroke_a	a	n/a
53.7935	0.12	107587	keystroke_t	t	n/a
53.8535	0.09	107707	keystroke_e	e	n/a
54.1535	0.09	108307	keystroke_Key.space	Key.space	n/a
54.4835	0.09	108967	keystroke_h	h	n/a
54.6035	0.09	109207	keystroke_t	t	n/a
54.7385	0.15	109477	keystroke_m	m	n/a
54.8285	0.105	109657	keystroke_l	l	n/a
55.0535	0.075	110107	keystroke_Key.enter	Key.enter	n/a
55.1335	8.8765	110267	prompt	n/a	namespace kids developmental charming\n
56.1785	0.075	112357	keystroke_n	n	n/a
56.3135	0.135	112627	keystroke_a	a	n/a
56.4335	0.06	112867	keystroke_m	m	n/a
56.5535	0.0755	113107	keystroke_e	e	n/a
56.7635	0.075	113527	keystroke_s	s	n/a
56.8685	0.045	113737	keystroke_p	p	n/a
56.9435	0.105	113887	keystroke_a	a	n/a
57.2435	0.165	114487	keystroke_c	c	n/a
57.3635	0.075	114727	keystroke_e	e	n/a
57.7235	0.075	115447	keystroke_Key.space	Key.space	n/a
58.1885	0.06	116377	keystroke_k	k	n/a
58.3235	0.075	116647	keystroke_i	i	n/a
58.4135	0.15	116827	keystroke_d	d	n/a
58.5185	0.09	117037	keystroke_s	s	n/a
58.7885	0.09	117577	keystroke_Key.space	Key.space	n/a
59.178	0.18	118356	keystroke_d	d	n/a
59.298	0.105	118596	keystroke_e	e	n/a
59.778	0.105	119556	keystroke_v	v	n/a
59.838	0.075	119676	keystroke_e	e	n/a
59.943	0.06	119886	keystroke_l	l	n/a
60.093	0.0755	120186	keystroke_o	o	n/a
60.273	0.075	120546	keystroke_p	p	n/a
60.574	0.06	121148	keystroke_m	m	n/a
60.769	0.075	121538	keystroke_e	e	n/a
60.918	0.06	121836	keystroke_n	n	n/a
61.008	0.061	122016	keystroke_t	t	n/a
62.0585	0.075	124117	keystroke_a	a	n/a
62.1785	0.06	124357	keystroke_l	l	n/a
62.5685	0.09	125137	keystroke_Key.space	Key.space	n/a
62.8385	0.12	125677	keystroke_c	c	n/a
63.0035	0.06	126007	keystroke_h	h	n/a
63.0785	0.105	126157	keystroke_a	a	n/a
63.1685	0.06	126337	keystroke_r	r	n/a
63.2885	0.105	126577	keystroke_m	m	n/a
63.4685	0.1195	126937	keystroke_i	i	n/a
63.528	0.105	127056	keystroke_n	n	n/a
63.708	0.09	127416	keystroke_g	g	n/a
63.933	0.075	127866	keystroke_Key.enter	Key.enter	n/a
64.014	13.0465	128028	prompt	n/a	miscellaneous disclosure prize candidate\n
64.8635	0.12	129727	keystroke_m	m	n/a
64.9535	0.105	129907	keystroke_i	i	n/a
65.0885	0.075	130177	keystroke_s	s	n/a
65.388	0.12	130776	keystroke_c	c	n/a
66.1385	0.06	132277	keystroke_e	e	n/a
66.3335	0.075	132667	keystroke_l	l	n/a
66.4835	0.0895	132967	keystroke_l	l	n/a
66.603	0.075	133206	keystroke_a	a	n/a
66.888	0.06	133776	keystroke_n	n	n/a
67.068	0.18	134136	keystroke_o	o	n/a
67.203	0.0905	134406	keystroke_u	u	n/a
67.4135	0.075	134827	keystroke_s	s	n/a
67.8485	0.045	135697	keystroke_Key.space	Key.space	n/a
68.2835	0.09	136567	keystroke_d	d	n/a
68.5085	0.105	137017	keystroke_i	i	n/a
68.6735	0.075	137347	keystroke_s	s	n/a
68.8985	0.09	137797	keystroke_c	c	n/a
69.0185	0.075	138037	keystroke_l	l	n/a
69.1685	0.09	138337	keystroke_o	o	n/a
69.3185	0.09	138637	keystroke_s	s	n/a
69.5585	0.0755	139117	keystroke_u	u	n/a
69.768	0.15	139536	keystroke_r	r	n/a
69.873	0.0755	139746	keystroke_e	e	n/a
70.2035	0.075	140407	keystroke_Key.space	Key.space	n/a
70.5335	0.09	141067	keystroke_p	p	n/a
70.6535	0.0745	141307	keystroke_r	r	n/a
70.743	0.09	141486	keystroke_o	o	n/a
71.118	0.075	142236	keystroke_Key.backspace	Key.backspace	n/a
71.268	0.09	142536	keystroke_Key.backspace	Key.backspace	n/a
71.973	0.06	143946	keystroke_r	r	n/a
72.138	0.075	144276	keystroke_i	i	n/a
73.6835	0.0595	147367	keystroke_e	e	n/a
74.328	0.075	148656	keystroke_Key.backspace	Key.backspace	n/a
74.688	0.09	149376	keystroke_z	z	n/a
74.958	0.075	149916	keystroke_e	e	n/a
75.3185	0.075	150637	keystroke_Key.space	Key.space	n/a
75.6935	0.105	151387	keystroke_c	c	n/a
75.7685	0.06	151537	keystroke_a	a	n/a
75.8435	0.075	151687	keystroke_n	n	n/a
75.9485	0.105	151897	keystroke_d	d	n/a
76.0685	0.075	152137	keystroke_i	i	n/a
76.4435	0.12	152887	keystroke_d	d	n/a
76.5485	0.105	153097	keystroke_a	a	n/a
76.6685	0.135	153337	keystroke_t	t	n/a
76.7735	0.09	153547	keystroke_e	e	n/a
76.9685	0.09	153937	keystroke_Key.enter	Key.enter	n/a
77.065	10.945	154130	prompt	n/a	champion bikes appear chest\n
78.094	0.015	156188	keystroke_c	c	n/a
78.319	0.045	156638	keystroke_a	a	n/a
78.4685	0.09	156937	keystroke_m	m	n/a
78.709	0.045	157418	keystroke_p	p	n/a
80.059	0.12	160118	keystroke_Key.backspace	Key.backspace	n/a
80.268	0.091	160536	keystroke_Key.backspace	Key.backspace	n/a
80.434	0.075	160868	keystroke_Key.backspace	Key.backspace	n/a
81.109	0.06	162218	keystroke_h	h	n/a
81.258	0.076	162516	keystroke_a	a	n/a
81.559	0.075	163118	keystroke_m	m	n/a
82.009	0.075	164018	keystroke_p	p	n/a
82.234	0.1345	164468	keystroke_i	i	n/a
82.2935	0.105	164587	keystroke_o	o	n/a
82.534	0.0745	165068	keystroke_n	n	n/a
83.988	0.075	167976	keystroke_Key.space	Key.space	n/a
85.038	0.076	170076	keystroke_b	b	n/a
85.188	0.075	170376	keystroke_i	i	n/a
85.368	0.075	170736	keystroke_k	k	n/a
85.488	0.09	170976	keystroke_e	e	n/a
85.698	0.075	171396	keystroke_s	s	n/a
85.923	0.075	171846	keystroke_Key.space	Key.space	n/a
86.118	0.075	172236	keystroke_a	a	n/a
86.238	0.06	172476	keystroke_p	p	n/a
86.358	0.09	172716	keystroke_p	p	n/a
86.463	0.135	172926	keystroke_e	e	n/a
86.583	0.1205	173166	keystroke_a	a	n/a
86.658	0.1055	173316	keystroke_r	r	n/a
86.9585	0.09	173917	keystroke_Key.space	Key.space	n/a
87.2285	0.1045	174457	keystroke_c	c	n/a
87.348	0.06	174696	keystroke_h	h	n/a
87.453	0.105	174906	keystroke_e	e	n/a
87.678	0.1355	175356	keystroke_s	s	n/a
87.7685	0.105	175537	keystroke_t	t	n/a
87.9335	0.075	175867	keystroke_Key.enter	Key.enter	n/a
88.013	12.582	176026	prompt	n/a	former reynolds returned hospital\n
89.403	0.091	178806	keystroke_f	f	n/a
89.479	0.06	178958	keystroke_i	i	n/a
89.584	0.089	179168	keystroke_r	r	n/a
90.0335	0.0755	180067	keystroke_Key.backspace	Key.backspace	n/a
90.184	0.06	180368	keystroke_Key.backspace	Key.backspace	n/a
90.9485	0.075	181897	keystroke_r	r	n/a
92.7485	0.045	185497	keystroke_Key.backspace	Key.backspace	n/a
93.0785	0.09	186157	keystroke_o	o	n/a
93.2285	0.075	186457	keystroke_r	r	n/a
93.3785	0.09	186757	keystroke_m	m	n/a
93.5435	0.12	187087	keystroke_e	e	n/a
93.6185	0.075	187237	keystroke_r	r	n/a
93.8585	0.075	187717	keystroke_Key.space	Key.space	n/a
94.3985	0.165	188797	keystroke_r	r	n/a
94.5335	0.12	189067	keystroke_e	e	n/a
94.6835	0.075	189367	keystroke_y	y	n/a
94.9385	0.075	189877	keystroke_n	n	n/a
95.1185	0.06	190237	keystroke_o	o	n/a
95.2835	0.075	190567	keystroke_l	l	n/a
95.4185	0.1645	190837	keystroke_d	d	n/a
95.568	0.075	191136	keystroke_s	s	n/a
95.793	0.075	191586	keystroke_Key.space	Key.space	n/a
96.078	0.15	192156	keystroke_r	r	n/a
96.183	0.09	192366	keystroke_e	e	n/a
96.303	0.105	192606	keystroke_t	t	n/a
96.393	0.075	192786	keystroke_u	u	n/a
96.483	0.12	192966	keystroke_r	r	n/a
96.708	0.06	193416	keystroke_n	n	n/a
97.443	0.105	194886	keystroke_e	e	n/a
97.698	0.075	195396	keystroke_d	d	n/a
97.833	0.0905	195666	keystroke_Key.space	Key.space	n/a
98.104	0.09	196208	keystroke_h	h	n/a
98.494	0.09	196988	keystroke_o	o	n/a
98.659	0.075	197318	keystroke_s	s	n/a
98.989	0.105	197978	keystroke_p	p	n/a
99.154	0.09	198308	keystroke_i	i	n/a
99.394	0.03	198788	keystroke_c	c	n/a
99.874	0.06	199748	keystroke_Key.backspace	Key.backspace	n/a
99.994	0.12	199988	keystroke_t	t	n/a
100.099	0.09	200198	keystroke_a	a	n/a
100.249	0.075	200498	keystroke_l	l	n/a
100.534	0.06	201068	keystroke_Key.enter	Key.enter	n/a
100.5975	8.488	201195	prompt	n/a	pixel hardcover hybrid cancelled\n
101.4935	0.06	202987	keystroke_p	p	n/a
101.6285	0.09	203257	keystroke_i	i	n/a
101.8835	0.09	203767	keystroke_x	x	n/a
102.1385	0.075	204277	keystroke_e	e	n/a
102.2885	0.0605	204577	keystroke_l	l	n/a
102.694	0.09	205388	keystroke_Key.space	Key.space	n/a
103.0685	0.075	206137	keystroke_h	h	n/a
103.1135	0.15	206227	keystroke_a	a	n/a
103.2185	0.09	206437	keystroke_r	r	n/a
103.3985	0.09	206797	keystroke_d	d	n/a
103.833	0.075	207666	keystroke_o	o	n/a
104.013	0.12	208026	keystroke_v	v	n/a
104.223	0.09	208446	keystroke_r	r	n/a
104.238	0.015	208476	keystroke_e	e	n/a
104.688	0.0455	209376	keystroke_Key.backspace	Key.backspace	n/a
104.7935	0.06	209587	keystroke_Key.backspace	Key.backspace	n/a
104.9135	0.045	209827	keystroke_Key.backspace	Key.backspace	n/a
105.0185	0.075	210037	keystroke_Key.backspace	Key.backspace	n/a
105.1535	0.1045	210307	keystroke_c	c	n/a
105.348	0.06	210696	keystroke_o	o	n/a
105.423	0.105	210846	keystroke_v	v	n/a
105.558	0.12	211116	keystroke_e	e	n/a
105.633	0.09	211266	keystroke_r	r	n/a
105.888	0.09	211776	keystroke_Key.space	Key.space	n/a
106.5485	0.06	213097	keystroke_h	h	n/a
106.6835	0.09	213367	keystroke_y	y	n/a
106.9535	0.06	213907	keystroke_b	b	n/a
107.0435	0.075	214087	keystroke_r	r	n/a
107.1485	0.075	214297	keystroke_i	i	n/a
107.3285	0.0605	214657	keystroke_d	d	n/a
107.659	0.06	215318	keystroke_Key.space	Key.space	n/a
108.049	0.06	216098	keystroke_c	c	n/a
108.079	0.075	216158	keystroke_a	a	n/a
108.169	0.09	216338	keystroke_n	n	n/a
108.244	0.15	216488	keystroke_c	c	n/a
108.334	0.09	216668	keystroke_e	e	n/a
108.454	0.045	216908	keystroke_l	l	n/a
108.559	0.09	217118	keystroke_l	l	n/a
108.664	0.075	217328	keystroke_e	e	n/a
108.844	0.09	217688	keystroke_d	d	n/a
109.009	0.075	218018	keystroke_Key.enter	Key.enter	n/a
109.0885	12.2215	218177	prompt	n/a	ceiling wouldn't weapon powerseller\n
109.804	0.135	219608	keystroke_c	c	n/a
109.924	0.075	219848	keystroke_e	e	n/a
110.029	0.075	220058	keystroke_i	i	n/a
110.254	0.06	220508	keystroke_l	l	n/a
110.3735	0.075	220747	keystroke_l	l	n/a
110.5835	0.12	221167	keystroke_i	i	n/a
110.6585	0.09	221317	keystroke_n	n	n/a
110.7635	0.06	221527	keystroke_g	g	n/a
110.9285	0.075	221857	keystroke_Key.space	Key.space	n/a
111.1535	0.09	222307	keystroke_w	w	n/a
111.2135	0.12	222427	keystroke_o	o	n/a
111.3035	0.075	222607	keystroke_u	u	n/a
111.424	0.104	222848	keystroke_l	l	n/a
111.573	0.09	223146	keystroke_d	d	n/a
112.789	0.075	225578	keystroke_'	'	n/a
113.2385	0.105	226477	keystroke_Key.backspace	Key.backspace	n/a
113.8685	0.06	227737	keystroke_n	n	n/a
114.4535	0.075	228907	keystroke_'	'	n/a
114.6935	0.0595	229387	keystroke_y	y	n/a
115.098	0.075	230196	keystroke_Key.backspace	Key.backspace	n/a
115.203	0.105	230406	keystroke_t	t	n/a
115.893	0.09	231786	keystroke_Key.space	Key.space	n/a
116.2535	0.165	232507	keystroke_w	w	n/a
116.3585	0.12	232717	keystroke_e	e	n/a
116.554	0.06	233108	keystroke_p	p	n/a
117.349	0.075	234698	keystroke_Key.backspace	Key.backspace	n/a
117.424	0.105	234848	keystroke_a	a	n/a
117.619	0.059	235238	keystroke_p	p	n/a
117.844	0.059	235688	keystroke_n	n	n/a
118.443	0.09	236886	keystroke_Key.backspace	Key.backspace	n/a
118.7285	0.075	237457	keystroke_o	o	n/a
118.9235	0.045	237847	keystroke_n	n	n/a
119.3135	0.075	238627	keystroke_Key.space	Key.space	n/a
119.7185	0.195	239437	keystroke_p	p	n/a
119.8685	0.09	239737	keystroke_o	o	n/a
120.0485	0.135	240097	keystroke_w	w	n/a
120.1235	0.075	240247	keystroke_e	e	n/a
120.3035	0.06	240607	keystroke_r	r	n/a
120.5435	0.0905	241087	keystroke_s	s	n/a
120.6185	0.0905	241237	keystroke_h	h	n/a
120.844	0.06	241688	keystroke_e	e	n/a
120.949	0.06	241898	keystroke_l	l	n/a
121.069	0.0745	242138	keystroke_l	l	n/a
121.2335	0.075	242467	keystroke_Key.enter	Key.enter	n/a
121.313	9.282	242626	prompt	n/a	texas scene basic national\n
122.553	0.181	245106	keystroke_t	t	n/a
122.674	0.12	245348	keystroke_e	e	n/a
122.898	0.106	245796	keystroke_x	x	n/a
123.124	0.18	246248	keystroke_a	a	n/a
123.304	0.104	246608	keystroke_s	s	n/a
124.083	0.0755	248166	keystroke_Key.space	Key.space	n/a
124.3685	0.105	248737	keystroke_s	s	n/a
124.5035	0.105	249007	keystroke_c	c	n/a
124.6835	0.0895	249367	keystroke_n	n	n/a
124.834	0.074	249668	keystroke_e	e	n/a
124.998	0.076	249996	keystroke_e	e	n/a
125.433	0.0755	250866	keystroke_Key.backspace	Key.backspace	n/a
125.553	0.0755	251106	keystroke_Key.backspace	Key.backspace	n/a
125.718	0.075	251436	keystroke_e	e	n/a
125.8685	0.09	251737	keystroke_n	n	n/a
125.9735	0.06	251947	keystroke_e	e	n/a
126.1835	0.0595	252367	keystroke_Key.backspace	Key.backspace	n/a
126.258	0.0755	252516	keystroke_Key.backspace	Key.backspace	n/a
126.3935	0.06	252787	keystroke_Key.backspace	Key.backspace	n/a
126.5135	0.0445	253027	keystroke_Key.backspace	Key.backspace	n/a
126.889	0.075	253778	keystroke_e	e	n/a
127.054	0.06	254108	keystroke_n	n	n/a
127.159	0.075	254318	keystroke_e	e	n/a
127.5635	0.06	255127	keystroke_Key.space	Key.space	n/a
128.0735	0.09	256147	keystroke_b	b	n/a
128.1785	0.09	256357	keystroke_a	a	n/a
128.3885	0.0895	256777	keystroke_s	s	n/a
128.523	0.0605	257046	keystroke_i	i	n/a
128.658	0.091	257316	keystroke_c	c	n/a
129.049	0.0745	258098	keystroke_Key.space	Key.space	n/a
129.409	0.0745	258818	keystroke_n	n	n/a
129.4835	0.075	258967	keystroke_a	a	n/a
129.604	0.105	259208	keystroke_t	t	n/a
129.724	0.09	259448	keystroke_i	i	n/a
129.769	0.075	259538	keystroke_o	o	n/a
129.904	0.105	259808	keystroke_n	n	n/a
130.039	0.075	260078	keystroke_a	a	n/a
130.144	0.075	260288	keystroke_l	l	n/a
130.504	0.09	261008	keystroke_Key.enter	Key.enter	n/a
130.598	7.797	261196	prompt	n/a	drill advertiser until princess\n
131.3885	0.075	262777	keystroke_d	d	n/a
131.5835	0.06	263167	keystroke_r	r	n/a
131.6735	0.075	263347	keystroke_i	i	n/a
131.8685	0.06	263737	keystroke_l	l	n/a
131.9885	0.06	263977	keystroke_l	l	n/a
132.4835	0.075	264967	keystroke_Key.space	Key.space	n/a
132.798	0.15	265596	keystroke_a	a	n/a
132.933	0.09	265866	keystroke_d	d	n/a
133.204	0.09	266408	keystroke_v	v	n/a
133.308	0.136	266616	keystroke_e	e	n/a
133.413	0.091	266826	keystroke_r	r	n/a
133.608	0.1205	267216	keystroke_t	t	n/a
133.7885	0.075	267577	keystroke_i	i	n/a
134.1035	0.105	268207	keystroke_z	z	n/a
134.2685	0.09	268537	keystroke_e	e	n/a
134.6285	0.045	269257	keystroke_Key.backspace	Key.backspace	n/a
134.7335	0.06	269467	keystroke_Key.backspace	Key.backspace	n/a
134.8385	0.165	269677	keystroke_s	s	n/a
134.9735	0.105	269947	keystroke_e	e	n/a
135.1835	0.09	270367	keystroke_r	r	n/a
136.0085	0.075	272017	keystroke_Key.space	Key.space	n/a
136.338	0.075	272676	keystroke_u	u	n/a
136.518	0.075	273036	keystroke_n	n	n/a
136.638	0.06	273276	keystroke_t	t	n/a
136.7135	0.06	273427	keystroke_i	i	n/a
136.8935	0.075	273787	keystroke_l	l	n/a
137.089	0.0595	274178	keystroke_Key.space	Key.space	n/a
137.2835	0.075	274567	keystroke_p	p	n/a
137.4035	0.09	274807	keystroke_r	r	n/a
137.5235	0.12	275047	keystroke_i	i	n/a
137.5835	0.09	275167	keystroke_n	n	n/a
137.7035	0.135	275407	keystroke_c	c	n/a
137.7785	0.105	275557	keystroke_e	e	n/a
138.019	0.06	276038	keystroke_s	s	n/a
138.154	0.075	276308	keystroke_s	s	n/a
138.319	0.0745	276638	keystroke_Key.enter	Key.enter	n/a
138.398	8.427	276796	prompt	n/a	mobility shore preventing cables\n
139.3235	0.075	278647	keystroke_m	m	n/a
139.4735	0.075	278947	keystroke_o	o	n/a
139.7435	0.09	279487	keystroke_b	b	n/a
139.8485	0.06	279697	keystroke_i	i	n/a
140.0135	0.09	280027	keystroke_l	l	n/a
140.1635	0.09	280327	keystroke_i	i	n/a
140.3135	0.075	280627	keystroke_t	t	n/a
140.4335	0.09	280867	keystroke_y	y	n/a
140.8535	0.075	281707	keystroke_Key.space	Key.space	n/a
141.1385	0.075	282277	keystroke_s	s	n/a
141.2435	0.06	282487	keystroke_h	h	n/a
141.3935	0.06	282787	keystroke_o	o	n/a
141.5285	0.075	283057	keystroke_r	r	n/a
141.7385	0.09	283477	keystroke_e	e	n/a
142.2185	0.075	284437	keystroke_Key.space	Key.space	n/a
142.549	0.09	285098	keystroke_p	p	n/a
142.6685	0.105	285337	keystroke_r	r	n/a
142.728	0.075	285456	keystroke_e	e	n/a
143.2235	0.045	286447	keystroke_c	c	n/a
143.4635	0.105	286927	keystroke_v	v	n/a
143.5385	0.105	287077	keystroke_e	e	n/a
144.0335	0.06	288067	keystroke_Key.backspace	Key.backspace	n/a
144.1385	0.075	288277	keystroke_Key.backspace	Key.backspace	n/a
144.2585	0.06	288517	keystroke_Key.backspace	Key.backspace	n/a
144.4985	0.03	288997	keystroke_v	v	n/a
144.5135	0.075	289027	keystroke_e	e	n/a
144.6335	0.06	289267	keystroke_n	n	n/a
144.7535	0.075	289507	keystroke_t	t	n/a
144.9185	0.09	289837	keystroke_i	i	n/a
144.9935	0.075	289987	keystroke_n	n	n/a
145.1435	0.075	290287	keystroke_g	g	n/a
145.6835	0.075	291367	keystroke_Key.space	Key.space	n/a
145.8935	0.12	291787	keystroke_c	c	n/a
145.9835	0.09	291967	keystroke_a	a	n/a
146.1035	0.075	292207	keystroke_b	b	n/a
146.2835	0.075	292567	keystroke_l	l	n/a
146.4035	0.09	292807	keystroke_e	e	n/a
146.6135	0.075	293227	keystroke_s	s	n/a
146.749	0.075	293498	keystroke_Key.enter	Key.enter	n/a
146.829	11.3365	293658	prompt	n/a	winston partnerships festivals gained\n
147.7235	0.0755	295447	keystroke_w	w	n/a
147.844	0.089	295688	keystroke_i	i	n/a
147.964	0.075	295928	keystroke_n	n	n/a
148.3085	0.075	296617	keystroke_s	s	n/a
148.5935	0.075	297187	keystroke_t	t	n/a
148.7885	0.105	297577	keystroke_o	o	n/a
148.8485	0.06	297697	keystroke_n	n	n/a
149.2685	0.09	298537	keystroke_Key.space	Key.space	n/a
149.5835	0.06	299167	keystroke_p	p	n/a
149.6735	0.135	299347	keystroke_a	a	n/a
149.7635	0.075	299527	keystroke_r	r	n/a
149.9135	0.09	299827	keystroke_t	t	n/a
150.079	0.06	300158	keystroke_n	n	n/a
150.169	0.075	300338	keystroke_e	e	n/a
150.214	0.06	300428	keystroke_r	r	n/a
150.394	0.075	300788	keystroke_s	s	n/a
150.484	0.06	300968	keystroke_h	h	n/a
150.664	0.075	301328	keystroke_o	o	n/a
150.874	0.075	301748	keystroke_p	p	n/a
151.338	0.06	302676	keystroke_Key.backspace	Key.backspace	n/a
151.4585	0.06	302917	keystroke_Key.backspace	Key.backspace	n/a
151.9985	0.06	303997	keystroke_i	i	n/a
152.1935	0.09	304387	keystroke_p	p	n/a
152.4185	0.09	304837	keystroke_s	s	n/a
152.793	0.09	305586	keystroke_Key.space	Key.space	n/a
153.243	0.165	306486	keystroke_f	f	n/a
153.348	0.105	306696	keystroke_e	e	n/a
153.693	0.09	307386	keystroke_s	s	n/a
154.038	0.09	308076	keystroke_t	t	n/a
154.143	0.09	308286	keystroke_i	i	n/a
154.278	0.12	308556	keystroke_v	v	n/a
154.5035	0.0745	309007	keystroke_l	l	n/a
154.668	0.075	309336	keystroke_s	s	n/a
155.554	0.06	311108	keystroke_Key.backspace	Key.backspace	n/a
155.674	0.06	311348	keystroke_Key.backspace	Key.backspace	n/a
155.839	0.09	311678	keystroke_a	a	n/a
156.034	0.075	312068	keystroke_l	l	n/a
156.244	0.06	312488	keystroke_s	s	n/a
156.559	0.075	313118	keystroke_Key.space	Key.space	n/a
156.919	0.09	313838	keystroke_g	g	n/a
157.054	0.09	314108	keystroke_a	a	n/a
157.189	0.045	314378	keystroke_i	i	n/a
157.594	0.075	315188	keystroke_n	n	n/a
157.744	0.09	315488	keystroke_e	e	n/a
157.939	0.0895	315878	keystroke_d	d	n/a
158.0885	0.075	316177	keystroke_Key.enter	Key.enter	n/a
158.1685	12.7315	316337	prompt	n/a	listening sounds languages subject\n
159.3935	0.135	318787	keystroke_l	l	n/a
159.4835	0.075	318967	keystroke_i	i	n/a
159.5435	0.135	319087	keystroke_s	s	n/a
159.6485	0.165	319297	keystroke_t	t	n/a
159.7985	0.09	319597	keystroke_e	e	n/a
159.9035	0.105	319807	keystroke_n	n	n/a
159.9335	0.06	319867	keystroke_b	b	n/a
160.0235	0.075	320047	keystroke_u	u	n/a
160.0535	0.06	320107	keystroke_i	i	n/a
160.0835	0.075	320167	keystroke_n	n	n/a
160.2335	0.06	320467	keystroke_g	g	n/a
160.593	0.075	321186	keystroke_Key.backspace	Key.backspace	n/a
160.744	0.045	321488	keystroke_Key.backspace	Key.backspace	n/a
160.864	0.045	321728	keystroke_Key.backspace	Key.backspace	n/a
160.969	0.06	321938	keystroke_Key.backspace	Key.backspace	n/a
161.104	0.03	322208	keystroke_Key.backspace	Key.backspace	n/a
161.449	0.105	322898	keystroke_i	i	n/a
161.509	0.06	323018	keystroke_n	n	n/a
161.6135	0.0905	323227	keystroke_g	g	n/a
162.2885	0.09	324577	keystroke_Key.space	Key.space	n/a
162.544	0.075	325088	keystroke_s	s	n/a
162.649	0.12	325298	keystroke_i	i	n/a
162.889	0.075	325778	keystroke_n	n	n/a
163.039	0.12	326078	keystroke_d	d	n/a
163.444	0.075	326888	keystroke_Key.backspace	Key.backspace	n/a
163.594	0.045	327188	keystroke_Key.backspace	Key.backspace	n/a
163.7285	0.045	327457	keystroke_Key.backspace	Key.backspace	n/a
164.1035	0.135	328207	keystroke_o	o	n/a
164.1785	0.075	328357	keystroke_u	u	n/a
164.3885	0.09	328777	keystroke_n	n	n/a
164.5385	0.15	329077	keystroke_d	d	n/a
164.6585	0.0905	329317	keystroke_s	s	n/a
165.079	0.075	330158	keystroke_Key.space	Key.space	n/a
165.394	0.075	330788	keystroke_l	l	n/a
165.499	0.09	330998	keystroke_a	a	n/a
165.649	0.075	331298	keystroke_n	n	n/a
165.784	0.105	331568	keystroke_g	g	n/a
165.874	0.09	331748	keystroke_u	u	n/a
165.979	0.075	331958	keystroke_a	a	n/a
166.069	0.135	332138	keystroke_g	g	n/a
166.174	0.09	332348	keystroke_e	e	n/a
166.384	0.09	332768	keystroke_s	s	n/a
166.743	0.075	333486	keystroke_Key.space	Key.space	n/a
167.088	0.105	334176	keystroke_s	s	n/a
167.208	0.076	334416	keystroke_u	u	n/a
167.839	0.074	335678	keystroke_b	b	n/a
168.093	0.076	336186	keystroke_k	k	n/a
168.199	0.134	336398	keystroke_e	e	n/a
169.068	0.0905	338136	keystroke_Key.backspace	Key.backspace	n/a
169.2485	0.09	338497	keystroke_Key.backspace	Key.backspace	n/a
170.1635	0.075	340327	keystroke_j	j	n/a
170.3885	0.15	340777	keystroke_e	e	n/a
170.4635	0.09	340927	keystroke_c	c	n/a
170.6735	0.0745	341347	keystroke_t	t	n/a
170.823	0.075	341646	keystroke_Key.enter	Key.enter	n/a
170.903	7.212	341806	prompt	n/a	president dinner delegation lexus\n
172.279	0.059	344558	keystroke_p	p	n/a
172.398	0.151	344796	keystroke_r	r	n/a
172.534	0.0745	345068	keystroke_e	e	n/a
172.7435	0.075	345487	keystroke_s	s	n/a
172.8335	0.075	345667	keystroke_i	i	n/a
173.0435	0.1645	346087	keystroke_d	d	n/a
173.1785	0.0895	346357	keystroke_e	e	n/a
173.313	0.06	346626	keystroke_n	n	n/a
173.4335	0.045	346867	keystroke_t	t	n/a
173.688	0.09	347376	keystroke_Key.space	Key.space	n/a
173.988	0.09	347976	keystroke_d	d	n/a
174.108	0.06	348216	keystroke_i	i	n/a
174.303	0.075	348606	keystroke_n	n	n/a
174.438	0.075	348876	keystroke_n	n	n/a
174.543	0.105	349086	keystroke_e	e	n/a
174.618	0.06	349236	keystroke_r	r	n/a
174.8285	0.09	349657	keystroke_Key.space	Key.space	n/a
175.2335	0.15	350467	keystroke_d	d	n/a
175.3535	0.12	350707	keystroke_e	e	n/a
175.4585	0.06	350917	keystroke_l	l	n/a
175.5785	0.105	351157	keystroke_e	e	n/a
175.6685	0.135	351337	keystroke_g	g	n/a
175.9535	0.105	351907	keystroke_a	a	n/a
175.9835	0.135	351967	keystroke_t	t	n/a
176.1635	0.12	352327	keystroke_i	i	n/a
176.2535	0.0745	352507	keystroke_o	o	n/a
176.508	0.015	353016	keystroke_n	n	n/a
176.989	0.09	353978	keystroke_Key.space	Key.space	n/a
177.243	0.06	354486	keystroke_l	l	n/a
177.333	0.06	354666	keystroke_e	e	n/a
177.573	0.075	355146	keystroke_x	x	n/a
177.708	0.075	355416	keystroke_u	u	n/a
177.843	0.075	355686	keystroke_s	s	n/a
178.023	0.09	356046	keystroke_Key.enter	Key.enter	n/a
178.1175	9.1625	356235	prompt	n/a	distributors consist realty ideas\n
178.954	0.059	357908	keystroke_d	d	n/a
179.148	0.075	358296	keystroke_i	i	n/a
179.253	0.0905	358506	keystroke_s	s	n/a
179.4935	0.075	358987	keystroke_t	t	n/a
179.7185	0.06	359437	keystroke_r	r	n/a
179.8685	0.06	359737	keystroke_i	i	n/a
180.198	0.135	360396	keystroke_b	b	n/a
180.318	0.075	360636	keystroke_u	u	n/a
180.498	0.075	360996	keystroke_t	t	n/a
180.648	0.061	361296	keystroke_o	o	n/a
180.769	0.075	361538	keystroke_r	r	n/a
181.174	0.045	362348	keystroke_s	s	n/a
181.489	0.09	362978	keystroke_Key.space	Key.space	n/a
181.714	0.09	363428	keystroke_c	c	n/a
181.774	0.135	363548	keystroke_o	o	n/a
181.879	0.06	363758	keystroke_n	n	n/a
181.999	0.075	363998	keystroke_s	s	n/a
182.119	0.06	364238	keystroke_i	i	n/a
182.194	0.075	364388	keystroke_s	s	n/a
182.7035	0.06	365407	keystroke_t	t	n/a
183.1085	0.075	366217	keystroke_Key.space	Key.space	n/a
183.8735	0.15	367747	keystroke_r	r	n/a
183.9935	0.12	367987	keystroke_e	e	n/a
184.0685	0.105	368137	keystroke_a	a	n/a
184.2335	0.09	368467	keystroke_l	l	n/a
184.4885	0.075	368977	keystroke_y	y	n/a
184.9085	0.075	369817	keystroke_t	t	n/a
185.2685	0.06	370537	keystroke_Key.backspace	Key.backspace	n/a
185.3885	0.075	370777	keystroke_Key.backspace	Key.backspace	n/a
185.5085	0.06	371017	keystroke_t	t	n/a
185.7035	0.06	371407	keystroke_y	y	n/a
186.0785	0.06	372157	keystroke_Key.space	Key.space	n/a
186.3185	0.09	372637	keystroke_i	i	n/a
186.4685	0.21	372937	keystroke_d	d	n/a
186.5735	0.135	373147	keystroke_e	e	n/a
186.6785	0.15	373357	keystroke_a	a	n/a
186.8585	0.105	373717	keystroke_s	s	n/a
187.1885	0.09	374377	keystroke_Key.enter	Key.enter	n/a
187.285	11.59	374570	prompt	n/a	apparently parenting principal transactions\n
188.403	0.105	376806	keystroke_a	a	n/a
188.523	0.015	377046	keystroke_o	o	n/a
188.643	0.03	377286	keystroke_o	o	n/a
189.3035	0.06	378607	keystroke_Key.backspace	Key.backspace	n/a
189.4535	0.12	378907	keystroke_Key.backspace	Key.backspace	n/a
189.7535	0.06	379507	keystroke_p	p	n/a
189.9185	0.075	379837	keystroke_p	p	n/a
190.4435	0.12	380887	keystroke_a	a	n/a
191.1485	0.21	382297	keystroke_r	r	n/a
191.5535	0.09	383107	keystroke_e	e	n/a
191.7035	0.105	383407	keystroke_n	n	n/a
191.8985	0.045	383797	keystroke_t	t	n/a
192.0485	0.09	384097	keystroke_l	l	n/a
192.4085	0.06	384817	keystroke_y	y	n/a
192.828	0.09	385656	keystroke_Key.space	Key.space	n/a
193.083	0.06	386166	keystroke_p	p	n/a
193.248	0.12	386496	keystroke_a	a	n/a
193.338	0.135	386676	keystroke_r	r	n/a
193.428	0.12	386856	keystroke_e	e	n/a
193.563	0.045	387126	keystroke_n	n	n/a
193.653	0.075	387306	keystroke_t	t	n/a
193.758	0.09	387516	keystroke_i	i	n/a
193.818	0.06	387636	keystroke_n	n	n/a
193.998	0.045	387996	keystroke_g	g	n/a
194.268	0.09	388536	keystroke_Key.space	Key.space	n/a
194.598	0.075	389196	keystroke_p	p	n/a
194.823	0.06	389646	keystroke_r	r	n/a
194.913	0.105	389826	keystroke_i	i	n/a
194.973	0.09	389946	keystroke_n	n	n/a
195.168	0.105	390336	keystroke_c	c	n/a
195.303	0.075	390606	keystroke_i	i	n/a
195.558	0.06	391116	keystroke_p	p	n/a
195.783	0.075	391566	keystroke_a	a	n/a
195.963	0.06	391926	keystroke_l	l	n/a
196.398	0.075	392796	keystroke_Key.space	Key.space	n/a
196.7435	0.075	393487	keystroke_t	t	n/a
196.9235	0.12	393847	keystroke_r	r	n/a
197.0285	0.105	394057	keystroke_a	a	n/a
197.1935	0.09	394387	keystroke_n	n	n/a
197.4035	0.09	394807	keystroke_s	s	n/a
197.7485	0.12	395497	keystroke_a	a	n/a
197.9285	0.075	395857	keystroke_c	c	n/a
198.1235	0.06	396247	keystroke_t	t	n/a
198.1985	0.105	396397	keystroke_i	i	n/a
198.2885	0.0595	396577	keystroke_o	o	n/a
198.408	0.09	396816	keystroke_n	n	n/a
198.558	0.075	397116	keystroke_s	s	n/a
198.7985	0.075	397597	keystroke_Key.enter	Key.enter	n/a
198.8785	12.8065	397757	prompt	n/a	phrases reno resistance teaching\n
199.728	0.06	399456	keystroke_p	p	n/a
199.983	0.075	399966	keystroke_h	h	n/a
200.8085	0.09	401617	keystroke_r	r	n/a
200.9885	0.06	401977	keystroke_a	a	n/a
201.2435	0.09	402487	keystroke_s	s	n/a
201.2885	0.12	402577	keystroke_e	e	n/a
201.5135	0.075	403027	keystroke_s	s	n/a
201.993	0.06	403986	keystroke_Key.space	Key.space	n/a
202.293	0.135	404586	keystroke_r	r	n/a
202.503	0.15	405006	keystroke_n	n	n/a
202.6235	0.0895	405247	keystroke_o	o	n/a
203.313	0.03	406626	keystroke_Key.backspace	Key.backspace	n/a
203.418	0.075	406836	keystroke_Key.backspace	Key.backspace	n/a
203.568	0.06	407136	keystroke_e	e	n/a
203.688	0.105	407376	keystroke_n	n	n/a
203.763	0.09	407526	keystroke_o	o	n/a
204.093	0.075	408186	keystroke_Key.space	Key.space	n/a
204.3335	0.12	408667	keystroke_r	r	n/a
204.5885	0.105	409177	keystroke_s	s	n/a
204.6785	0.0595	409357	keystroke_i	i	n/a
205.069	0.06	410138	keystroke_=	=	n/a
205.263	0.12	410526	keystroke_Key.backspace	Key.backspace	n/a
205.518	0.165	411036	keystroke_Key.backspace	Key.backspace	n/a
205.968	0.06	411936	keystroke_Key.backspace	Key.backspace	n/a
206.689	0.074	413378	keystroke_e	e	n/a
206.898	0.09	413796	keystroke_s	s	n/a
207.033	0.075	414066	keystroke_i	i	n/a
207.123	0.076	414246	keystroke_s	s	n/a
207.318	0.06	414636	keystroke_g	g	n/a
207.333	0.075	414666	keystroke_t	t	n/a
207.438	0.076	414876	keystroke_a	a	n/a
207.528	0.045	415056	keystroke_n	n	n/a
207.933	0.075	415866	keystroke_Key.backspace	Key.backspace	n/a
208.068	0.045	416136	keystroke_Key.backspace	Key.backspace	n/a
208.173	0.075	416346	keystroke_Key.backspace	Key.backspace	n/a
208.293	0.06	416586	keystroke_Key.backspace	Key.backspace	n/a
208.459	0.089	416918	keystroke_t	t	n/a
208.6835	0.0445	417367	keystroke_n	n	n/a
209.253	0.075	418506	keystroke_Key.backspace	Key.backspace	n/a
209.388	0.09	418776	keystroke_a	a	n/a
209.523	0.075	419046	keystroke_n	n	n/a
209.643	0.165	419286	keystroke_c	c	n/a
209.763	0.105	419526	keystroke_e	e	n/a
210.198	0.09	420396	keystroke_Key.space	Key.space	n/a
210.618	0.1655	421236	keystroke_t	t	n/a
210.694	0.1495	421388	keystroke_e	e	n/a
210.7985	0.075	421597	keystroke_a	a	n/a
210.9785	0.105	421957	keystroke_c	c	n/a
211.0685	0.12	422137	keystroke_h	h	n/a
211.1435	0.15	422287	keystroke_i	i	n/a
211.2485	0.12	422497	keystroke_n	n	n/a
211.3835	0.075	422767	keystroke_g	g	n/a
211.6085	0.075	423217	keystroke_Key.enter	Key.enter	n/a
211.6885	12.7465	423377	prompt	n/a	olympic amongst outcomes physician\n
212.808	0.075	425616	keystroke_o	o	n/a
213.018	0.075	426036	keystroke_l	l	n/a
213.229	0.074	426458	keystroke_y	y	n/a
213.438	0.045	426876	keystroke_n	n	n/a
213.498	0.016	426996	keystroke_m	m	n/a
213.574	0.12	427148	keystroke_p	p	n/a
213.708	0.091	427416	keystroke_i	i	n/a
213.964	0.09	427928	keystroke_c	c	n/a
214.203	0.075	428406	keystroke_Key.backspace	Key.backspace	n/a
214.3385	0.06	428677	keystroke_Key.backspace	Key.backspace	n/a
214.4585	0.06	428917	keystroke_Key.backspace	Key.backspace	n/a
214.5935	0.03	429187	keystroke_Key.backspace	Key.backspace	n/a
214.698	0.06	429396	keystroke_Key.backspace	Key.backspace	n/a
215.628	0.06	431256	keystroke_m	m	n/a
215.823	0.09	431646	keystroke_p	p	n/a
215.943	0.075	431886	keystroke_i	i	n/a
216.138	0.075	432276	keystroke_c	c	n/a
216.5735	0.09	433147	keystroke_Key.space	Key.space	n/a
217.518	0.075	435036	keystroke_a	a	n/a
217.7885	0.075	435577	keystroke_m	m	n/a
217.9685	0.09	435937	keystroke_o	o	n/a
218.508	0.09	437016	keystroke_n	n	n/a
218.673	0.1205	437346	keystroke_g	g	n/a
218.9135	0.09	437827	keystroke_s	s	n/a
219.2435	0.09	438487	keystroke_t	t	n/a
219.8285	0.075	439657	keystroke_Key.space	Key.space	n/a
220.4735	0.09	440947	keystroke_o	o	n/a
220.6685	0.06	441337	keystroke_u	u	n/a
220.7735	0.075	441547	keystroke_t	t	n/a
221.073	0.091	442146	keystroke_c	c	n/a
221.193	0.09	442386	keystroke_o	o	n/a
221.238	0.075	442476	keystroke_m	m	n/a
221.388	0.09	442776	keystroke_e	e	n/a
221.629	0.075	443258	keystroke_s	s	n/a
222.048	0.075	444096	keystroke_Key.space	Key.space	n/a
222.723	0.061	445446	keystroke_p	p	n/a
223.069	0.075	446138	keystroke_h	h	n/a
223.218	0.076	446436	keystroke_y	y	n/a
223.458	0.076	446916	keystroke_s	s	n/a
223.564	0.044	447128	keystroke_i	i	n/a
223.8185	0.09	447637	keystroke_c	c	n/a
223.9235	0.075	447847	keystroke_i	i	n/a
224.1035	0.075	448207	keystroke_a	a	n/a
224.2385	0.0605	448477	keystroke_n	n	n/a
224.373	0.06	448746	keystroke_Key.enter	Key.enter	n/a
224.4385	10.662	448877	prompt	n/a	they're accountability mazda approval\n
225.3035	0.105	450607	keystroke_t	t	n/a
225.4085	0.06	450817	keystroke_h	h	n/a
225.5585	0.075	451117	keystroke_e	e	n/a
225.6035	0.06	451207	keystroke_y	y	n/a
226.3535	0.075	452707	keystroke_'	'	n/a
226.6235	0.135	453247	keystroke_r	r	n/a
226.7285	0.09	453457	keystroke_e	e	n/a
227.0885	0.075	454177	keystroke_Key.space	Key.space	n/a
227.5535	0.09	455107	keystroke_a	a	n/a
227.823	0.075	455646	keystroke_c	c	n/a
227.988	0.076	455976	keystroke_c	c	n/a
228.078	0.135	456156	keystroke_o	o	n/a
228.153	0.075	456306	keystroke_u	u	n/a
228.349	0.104	456698	keystroke_n	n	n/a
228.469	0.135	456938	keystroke_t	t	n/a
228.574	0.075	457148	keystroke_a	a	n/a
229.713	0.09	459426	keystroke_b	b	n/a
229.818	0.075	459636	keystroke_i	i	n/a
230.028	0.1055	460056	keystroke_l	l	n/a
230.1185	0.075	460237	keystroke_i	i	n/a
230.2985	0.06	460597	keystroke_t	t	n/a
230.4035	0.075	460807	keystroke_y	y	n/a
231.1385	0.075	462277	keystroke_Key.space	Key.space	n/a
231.6035	0.09	463207	keystroke_m	m	n/a
231.7985	0.105	463597	keystroke_a	a	n/a
232.3235	0.09	464647	keystroke_z	z	n/a
232.6235	0.12	465247	keystroke_d	d	n/a
232.7585	0.09	465517	keystroke_a	a	n/a
233.0735	0.06	466147	keystroke_Key.space	Key.space	n/a
233.343	0.09	466686	keystroke_a	a	n/a
233.553	0.06	467106	keystroke_p	p	n/a
233.688	0.105	467376	keystroke_p	p	n/a
233.8535	0.1195	467707	keystroke_r	r	n/a
234.108	0.09	468216	keystroke_o	o	n/a
234.303	0.15	468606	keystroke_v	v	n/a
234.513	0.0905	469026	keystroke_a	a	n/a
234.7085	0.075	469417	keystroke_l	l	n/a
235.0385	0.06	470077	keystroke_Key.enter	Key.enter	n/a
235.104	9.161	470208	prompt	n/a	willing pubmed alto distributors\n
236.1185	0.075	472237	keystroke_w	w	n/a
236.2085	0.075	472417	keystroke_i	i	n/a
236.4035	0.06	472807	keystroke_l	l	n/a
236.4935	0.09	472987	keystroke_l	l	n/a
236.734	0.104	473468	keystroke_i	i	n/a
236.808	0.075	473616	keystroke_n	n	n/a
236.914	0.059	473828	keystroke_g	g	n/a
237.003	0.09	474006	keystroke_Key.space	Key.space	n/a
237.3035	0.09	474607	keystroke_p	p	n/a
237.4685	0.09	474937	keystroke_u	u	n/a
237.8285	0.075	475657	keystroke_b	b	n/a
238.0385	0.105	476077	keystroke_m	m	n/a
238.1735	0.09	476347	keystroke_e	e	n/a
238.4435	0.09	476887	keystroke_d	d	n/a
238.698	0.09	477396	keystroke_Key.space	Key.space	n/a
239.2985	0.09	478597	keystroke_a	a	n/a
239.4185	0.075	478837	keystroke_l	l	n/a
239.7935	0.075	479587	keystroke_t	t	n/a
240.018	0.075	480036	keystroke_o	o	n/a
240.438	0.09	480876	keystroke_Key.space	Key.space	n/a
240.768	0.12	481536	keystroke_d	d	n/a
240.918	0.075	481836	keystroke_i	i	n/a
241.038	0.09	482076	keystroke_s	s	n/a
241.173	0.18	482346	keystroke_t	t	n/a
241.338	0.0905	482676	keystroke_r	r	n/a
241.5635	0.075	483127	keystroke_i	i	n/a
241.818	0.1215	483636	keystroke_b	b	n/a
241.833	0.015	483666	keystroke_n	n	n/a
241.908	0.09	483816	keystroke_u	u	n/a
242.1035	0.0895	484207	keystroke_t	t	n/a
242.4485	0.075	484897	keystroke_Key.backspace	Key.backspace	n/a
242.5685	0.0745	485137	keystroke_Key.backspace	Key.backspace	n/a
242.688	0.0755	485376	keystroke_Key.backspace	Key.backspace	n/a
243.318	0.045	486636	keystroke_u	u	n/a
243.423	0.075	486846	keystroke_t	t	n/a
243.589	0.075	487178	keystroke_o	o	n/a
243.739	0.105	487478	keystroke_r	r	n/a
244.054	0.075	488108	keystroke_s	s	n/a
244.174	0.09	488348	keystroke_Key.enter	Key.enter	n/a
244.268	5.697	488536	prompt	n/a	drew vital sale palm\n
245.2085	0.075	490417	keystroke_d	d	n/a
245.3885	0.1355	490777	keystroke_r	r	n/a
245.554	0.09	491108	keystroke_e	e	n/a
245.764	0.075	491528	keystroke_w	w	n/a
246.559	0.09	493118	keystroke_Key.space	Key.space	n/a
246.934	0.075	493868	keystroke_v	v	n/a
247.039	0.09	494078	keystroke_i	i	n/a
247.174	0.105	494348	keystroke_t	t	n/a
247.264	0.09	494528	keystroke_a	a	n/a
247.414	0.075	494828	keystroke_l	l	n/a
247.744	0.09	495488	keystroke_Key.space	Key.space	n/a
248.044	0.09	496088	keystroke_s	s	n/a
248.164	0.06	496328	keystroke_a	a	n/a
248.254	0.06	496508	keystroke_l	l	n/a
248.434	0.075	496868	keystroke_e	e	n/a
248.644	0.075	497288	keystroke_Key.space	Key.space	n/a
249.199	0.075	498398	keystroke_p	p	n/a
249.379	0.075	498758	keystroke_a	a	n/a
249.514	0.075	499028	keystroke_l	l	n/a
249.738	0.076	499476	keystroke_m	m	n/a
249.888	0.075	499776	keystroke_Key.enter	Key.enter	n/a
249.9675	10.5875	499935	prompt	n/a	chronicle exercises farmers guestbook\n
251.0735	0.075	502147	keystroke_c	c	n/a
251.1635	0.075	502327	keystroke_h	h	n/a
251.3285	0.06	502657	keystroke_r	r	n/a
251.4035	0.075	502807	keystroke_o	o	n/a
251.6285	0.12	503257	keystroke_n	n	n/a
251.7185	0.105	503437	keystroke_i	i	n/a
251.8985	0.09	503797	keystroke_c	c	n/a
252.0335	0.09	504067	keystroke_l	l	n/a
252.1985	0.06	504397	keystroke_e	e	n/a
252.4385	0.09	504877	keystroke_Key.space	Key.space	n/a
252.9185	0.075	505837	keystroke_e	e	n/a
253.2335	0.09	506467	keystroke_x	x	n/a
254.059	0.09	508118	keystroke_e	e	n/a
254.793	0.075	509586	keystroke_r	r	n/a
255.138	0.09	510276	keystroke_c	c	n/a
255.318	0.016	510636	keystroke_i	i	n/a
255.468	0.06	510936	keystroke_s	s	n/a
255.663	0.075	511326	keystroke_s	s	n/a
256.293	0.06	512586	keystroke_Key.backspace	Key.backspace	n/a
256.503	0.075	513006	keystroke_e	e	n/a
256.698	0.075	513396	keystroke_s	s	n/a
256.968	0.09	513936	keystroke_Key.space	Key.space	n/a
257.343	0.09	514686	keystroke_f	f	n/a
257.418	0.15	514836	keystroke_a	a	n/a
257.523	0.09	515046	keystroke_r	r	n/a
257.658	0.0755	515316	keystroke_m	m	n/a
257.7785	0.09	515557	keystroke_e	e	n/a
257.8235	0.075	515647	keystroke_r	r	n/a
258.0185	0.105	516037	keystroke_s	s	n/a
258.4835	0.075	516967	keystroke_Key.space	Key.space	n/a
258.963	0.12	517926	keystroke_g	g	n/a
259.219	0.089	518438	keystroke_u	u	n/a
259.369	0.089	518738	keystroke_e	e	n/a
259.578	0.165	519156	keystroke_s	s	n/a
259.698	0.105	519396	keystroke_t	t	n/a
259.848	0.075	519696	keystroke_b	b	n/a
260.058	0.045	520116	keystroke_o	o	n/a
260.163	0.15	520326	keystroke_o	o	n/a
260.283	0.09	520566	keystroke_k	k	n/a
260.4785	0.075	520957	keystroke_Key.enter	Key.enter	n/a
260.558	12.0115	521116	prompt	n/a	yemen precious secure widely\n
261.528	0.06	523056	keystroke_y	y	n/a
261.663	0.09	523326	keystroke_e	e	n/a
261.798	0.09	523596	keystroke_m	m	n/a
262.038	0.06	524076	keystroke_e	e	n/a
262.203	0.075	524406	keystroke_n	n	n/a
262.743	0.09	525486	keystroke_Key.space	Key.space	n/a
262.998	0.075	525996	keystroke_p	p	n/a
263.118	0.105	526236	keystroke_r	r	n/a
263.178	0.09	526356	keystroke_e	e	n/a
263.493	0.105	526986	keystroke_v	v	n/a
263.583	0.06	527166	keystroke_i	i	n/a
263.778	0.1655	527556	keystroke_o	o	n/a
263.8835	0.075	527767	keystroke_u	u	n/a
264.0335	0.075	528067	keystroke_s	s	n/a
265.6235	0.075	531247	keystroke_Key.backspace	Key.backspace	n/a
265.7585	0.03	531517	keystroke_Key.backspace	Key.backspace	n/a
265.8635	0.06	531727	keystroke_Key.backspace	Key.backspace	n/a
265.9985	0.045	531997	keystroke_Key.backspace	Key.backspace	n/a
266.1785	0.03	532357	keystroke_Key.backspace	Key.backspace	n/a
266.958	0.06	533916	keystroke_c	c	n/a
267.198	0.0605	534396	keystroke_i	i	n/a
267.3785	0.165	534757	keystroke_o	o	n/a
267.4835	0.075	534967	keystroke_u	u	n/a
267.5885	0.09	535177	keystroke_s	s	n/a
268.2485	0.075	536497	keystroke_Key.space	Key.space	n/a
268.5185	0.1045	537037	keystroke_s	s	n/a
268.5935	0.0895	537187	keystroke_e	e	n/a
268.923	0.075	537846	keystroke_u	u	n/a
269.043	0.03	538086	keystroke_r	r	n/a
269.343	0.06	538686	keystroke_Key.backspace	Key.backspace	n/a
269.463	0.075	538926	keystroke_Key.backspace	Key.backspace	n/a
269.763	0.105	539526	keystroke_c	c	n/a
269.928	0.09	539856	keystroke_u	u	n/a
270.048	0.15	540096	keystroke_r	r	n/a
270.153	0.09	540306	keystroke_e	e	n/a
270.633	0.06	541266	keystroke_Key.space	Key.space	n/a
271.098	0.12	542196	keystroke_w	w	n/a
271.308	0.09	542616	keystroke_i	i	n/a
271.548	0.15	543096	keystroke_d	d	n/a
271.773	0.06	543546	keystroke_e	e	n/a
271.938	0.0605	543876	keystroke_l	l	n/a
272.1485	0.075	544297	keystroke_y	y	n/a
272.4785	0.09	544957	keystroke_Key.enter	Key.enter	n/a
272.5725	9.9575	545145	prompt	n/a	existed jewelry huge resources\n
273.3335	0.09	546667	keystroke_e	e	n/a
273.5735	0.105	547147	keystroke_x	x	n/a
273.7235	0.0745	547447	keystroke_i	i	n/a
273.888	0.165	547776	keystroke_s	s	n/a
274.038	0.165	548076	keystroke_t	t	n/a
274.5035	0.105	549007	keystroke_e	e	n/a
274.7885	0.075	549577	keystroke_d	d	n/a
275.1325	0.075	550265	keystroke_Key.space	Key.space	n/a
275.6125	0.061	551225	keystroke_t	t	n/a
275.943	0.075	551886	keystroke_Key.backspace	Key.backspace	n/a
276.258	0.0605	552516	keystroke_j	j	n/a
276.9185	0.075	553837	keystroke_e	e	n/a
277.3085	0.195	554617	keystroke_w	w	n/a
277.4735	0.09	554947	keystroke_e	e	n/a
277.6985	0.09	555397	keystroke_l	l	n/a
277.9235	0.09	555847	keystroke_r	r	n/a
278.1185	0.075	556237	keystroke_y	y	n/a
278.6885	0.0895	557377	keystroke_Key.space	Key.space	n/a
279.108	0.12	558216	keystroke_h	h	n/a
279.183	0.09	558366	keystroke_u	u	n/a
279.363	0.12	558726	keystroke_g	g	n/a
279.948	0.09	559896	keystroke_e	e	n/a
280.428	0.09	560856	keystroke_Key.space	Key.space	n/a
280.818	0.1355	561636	keystroke_r	r	n/a
280.9385	0.075	561877	keystroke_e	e	n/a
281.1635	0.075	562327	keystroke_s	s	n/a
281.1935	0.135	562387	keystroke_o	o	n/a
281.2685	0.09	562537	keystroke_u	u	n/a
281.4485	0.18	562897	keystroke_c	c	n/a
281.5685	0.12	563137	keystroke_e	e	n/a
281.8535	0.075	563707	keystroke_s	s	n/a
282.438	0.09	564876	keystroke_Key.enter	Key.enter	n/a
282.533	10.617	565066	prompt	n/a	weird britannica geology jack\n
283.848	0.12	567696	keystroke_w	w	n/a
283.923	0.105	567846	keystroke_e	e	n/a
284.013	0.06	568026	keystroke_i	i	n/a
284.133	0.09	568266	keystroke_r	r	n/a
284.358	0.09	568716	keystroke_d	d	n/a
284.7625	0.091	569525	keystroke_Key.space	Key.space	n/a
285.348	0.075	570696	keystroke_b	b	n/a
285.498	0.06	570996	keystroke_r	r	n/a
285.588	0.075	571176	keystroke_i	i	n/a
286.203	0.075	572406	keystroke_t	t	n/a
286.608	0.1055	573216	keystroke_a	a	n/a
287.1925	0.091	574385	keystroke_n	n	n/a
287.3885	0.074	574777	keystroke_n	n	n/a
287.5835	0.06	575167	keystroke_i	i	n/a
287.8525	0.15	575705	keystroke_c	c	n/a
287.9575	0.09	575915	keystroke_a	a	n/a
288.4525	0.075	576905	keystroke_Key.space	Key.space	n/a
288.9925	0.1055	577985	keystroke_g	g	n/a
289.083	0.105	578166	keystroke_e	e	n/a
289.443	0.105	578886	keystroke_o	o	n/a
289.668	0.075	579336	keystroke_l	l	n/a
289.833	0.09	579666	keystroke_o	o	n/a
290.823	0.06	581646	keystroke_g	g	n/a
291.303	0.075	582606	keystroke_y	y	n/a
291.753	0.0605	583506	keystroke_Key.space	Key.space	n/a
292.2485	0.075	584497	keystroke_j	j	n/a
292.3685	0.075	584737	keystroke_a	a	n/a
292.4585	0.1045	584917	keystroke_c	c	n/a
292.578	0.075	585156	keystroke_k	k	n/a
293.0885	0.06	586177	keystroke_Key.enter	Key.enter	n/a
293.1525	8.202	586305	prompt	n/a	tuner details name nearby\n
294.544	0.0445	589088	keystroke_t	t	n/a
294.6185	0.0745	589237	keystroke_u	u	n/a
294.828	0.06	589656	keystroke_n	n	n/a
294.903	0.105	589806	keystroke_e	e	n/a
294.963	0.06	589926	keystroke_r	r	n/a
295.683	0.075	591366	keystroke_Key.space	Key.space	n/a
296.0285	0.135	592057	keystroke_d	d	n/a
296.1185	0.135	592237	keystroke_e	e	n/a
296.3435	0.12	592687	keystroke_a	a	n/a
296.4035	0.105	592807	keystroke_t	t	n/a
296.5685	0.045	593137	keystroke_i	i	n/a
296.7485	0.06	593497	keystroke_l	l	n/a
296.8985	0.074	593797	keystroke_s	s	n/a
297.4225	0.061	594845	keystroke_Key.backspace	Key.backspace	n/a
297.5435	0.045	595087	keystroke_Key.backspace	Key.backspace	n/a
297.6635	0.045	595327	keystroke_Key.backspace	Key.backspace	n/a
297.7685	0.045	595537	keystroke_Key.backspace	Key.backspace	n/a
297.8885	0.045	595777	keystroke_Key.backspace	Key.backspace	n/a
298.0085	0.105	596017	keystroke_t	t	n/a
298.1285	0.1045	596257	keystroke_a	a	n/a
298.248	0.075	596496	keystroke_i	i	n/a
298.428	0.09	596856	keystroke_l	l	n/a
298.593	0.0895	597186	keystroke_s	s	n/a
299.0435	0.0895	598087	keystroke_Key.space	Key.space	n/a
299.328	0.075	598656	keystroke_n	n	n/a
299.403	0.105	598806	keystroke_a	a	n/a
299.538	0.0755	599076	keystroke_m	m	n/a
299.6735	0.075	599347	keystroke_e	e	n/a
299.9585	0.09	599917	keystroke_Key.space	Key.space	n/a
300.3185	0.075	600637	keystroke_n	n	n/a
300.4235	0.105	600847	keystroke_e	e	n/a
300.5135	0.135	601027	keystroke_a	a	n/a
300.6035	0.09	601207	keystroke_r	r	n/a
300.978	0.075	601956	keystroke_b	b	n/a
301.068	0.06	602136	keystroke_y	y	n/a
301.308	0.045	602616	keystroke_Key.enter	Key.enter	n/a
301.3595	9.925	602719	prompt	n/a	cinema hawaii persistent andrea\n
303.5155	0.058	607031	keystroke_c	c	n/a
303.5585	0.045	607117	keystroke_i	i	n/a
303.7385	0.075	607477	keystroke_n	n	n/a
303.843	0.075	607686	keystroke_e	e	n/a
303.978	0.075	607956	keystroke_m	m	n/a
304.0985	0.09	608197	keystroke_a	a	n/a
304.4735	0.075	608947	keystroke_Key.space	Key.space	n/a
304.8035	0.09	609607	keystroke_h	h	n/a
304.9235	0.105	609847	keystroke_a	a	n/a
305.2535	0.105	610507	keystroke_w	w	n/a
305.5235	0.075	611047	keystroke_a	a	n/a
305.7185	0.045	611437	keystroke_i	i	n/a
305.8535	0.075	611707	keystroke_i	i	n/a
306.3335	0.075	612667	keystroke_Key.space	Key.space	n/a
306.7385	0.074	613477	keystroke_p	p	n/a
306.9185	0.15	613837	keystroke_e	e	n/a
307.0235	0.105	614047	keystroke_r	r	n/a
307.3235	0.09	614647	keystroke_s	s	n/a
307.4425	0.091	614885	keystroke_i	i	n/a
307.6235	0.105	615247	keystroke_s	s	n/a
307.9385	0.15	615877	keystroke_t	t	n/a
308.0575	0.091	616115	keystroke_e	e	n/a
308.223	0.06	616446	keystroke_n	n	n/a
308.343	0.06	616686	keystroke_t	t	n/a
308.988	0.075	617976	keystroke_Key.space	Key.space	n/a
309.183	0.12	618366	keystroke_a	a	n/a
309.408	0.075	618816	keystroke_d	d	n/a
309.7825	0.075	619565	keystroke_Key.backspace	Key.backspace	n/a
310.068	0.075	620136	keystroke_n	n	n/a
310.1585	0.0895	620317	keystroke_d	d	n/a
310.353	0.105	620706	keystroke_r	r	n/a
310.608	0.09	621216	keystroke_e	e	n/a
311.0135	0.06	622027	keystroke_a	a	n/a
311.2085	0.075	622417	keystroke_Key.enter	Key.enter	n/a
311.288	8.742	622576	prompt	n/a	accidents swingers destination creation\n
312.1085	0.105	624217	keystroke_a	a	n/a
312.3335	0.09	624667	keystroke_c	c	n/a
312.4985	0.075	624997	keystroke_c	c	n/a
312.6035	0.075	625207	keystroke_i	i	n/a
312.738	0.12	625476	keystroke_d	d	n/a
312.813	0.105	625626	keystroke_e	e	n/a
312.948	0.075	625896	keystroke_n	n	n/a
313.038	0.09	626076	keystroke_t	t	n/a
313.264	0.074	626528	keystroke_s	s	n/a
313.593	0.075	627186	keystroke_Key.space	Key.space	n/a
313.833	0.076	627666	keystroke_s	s	n/a
314.028	0.076	628056	keystroke_w	w	n/a
314.193	0.106	628386	keystroke_i	i	n/a
314.284	0.09	628568	keystroke_n	n	n/a
314.388	0.105	628776	keystroke_g	g	n/a
314.538	0.105	629076	keystroke_e	e	n/a
314.613	0.076	629226	keystroke_r	r	n/a
314.823	0.06	629646	keystroke_s	s	n/a
315.1385	0.09	630277	keystroke_Key.space	Key.space	n/a
315.4235	0.135	630847	keystroke_d	d	n/a
315.4985	0.105	630997	keystroke_e	e	n/a
315.7085	0.09	631417	keystroke_s	s	n/a
315.948	0.075	631896	keystroke_t	t	n/a
316.053	0.06	632106	keystroke_i	i	n/a
316.263	0.075	632526	keystroke_n	n	n/a
316.368	0.1355	632736	keystroke_a	a	n/a
316.4735	0.09	632947	keystroke_t	t	n/a
316.5485	0.105	633097	keystroke_i	i	n/a
316.6085	0.0895	633217	keystroke_o	o	n/a
316.788	0.075	633576	keystroke_n	n	n/a
317.3435	0.09	634687	keystroke_Key.space	Key.space	n/a
317.5685	0.09	635137	keystroke_c	c	n/a
317.7635	0.12	635527	keystroke_r	r	n/a
317.8385	0.075	635677	keystroke_e	e	n/a
318.0185	0.12	636037	keystroke_a	a	n/a
318.2885	0.135	636577	keystroke_i	i	n/a
318.3785	0.105	636757	keystroke_o	o	n/a
318.6035	0.09	637207	keystroke_n	n	n/a
319.0535	0.0595	638107	keystroke_Key.backspace	Key.backspace	n/a
319.173	0.06	638346	keystroke_Key.backspace	Key.backspace	n/a
319.278	0.09	638556	keystroke_Key.backspace	Key.backspace	n/a
319.413	0.09	638826	keystroke_t	t	n/a
319.533	0.12	639066	keystroke_i	i	n/a
319.608	0.105	639216	keystroke_o	o	n/a
319.758	0.09	639516	keystroke_n	n	n/a
319.953	0.075	639906	keystroke_Key.enter	Key.enter	n/a
320.0345	11.4105	640069	prompt	n/a	trucks any packed interaction\n
321.603	0.09	643206	keystroke_t	t	n/a
321.753	0.0605	643506	keystroke_u	u	n/a
322.1735	0.06	644347	keystroke_r	r	n/a
322.4435	0.09	644887	keystroke_c	c	n/a
322.6085	0.06	645217	keystroke_j	j	n/a
322.8785	0.045	645757	keystroke_Key.backspace	Key.backspace	n/a
322.9985	0.075	645997	keystroke_Key.backspace	Key.backspace	n/a
323.1185	0.06	646237	keystroke_Key.backspace	Key.backspace	n/a
323.2385	0.075	646477	keystroke_Key.backspace	Key.backspace	n/a
323.433	0.075	646866	keystroke_r	r	n/a
323.598	0.06	647196	keystroke_u	u	n/a
323.599	0.074	647198	keystroke_i	i	n/a
323.778	0.075	647556	keystroke_c	c	n/a
323.943	0.03	647886	keystroke_k	k	n/a
324.198	0.06	648396	keystroke_Key.backspace	Key.backspace	n/a
324.318	0.09	648636	keystroke_Key.backspace	Key.backspace	n/a
324.498	0.075	648996	keystroke_Key.backspace	Key.backspace	n/a
324.6785	0.09	649357	keystroke_c	c	n/a
324.8285	0.0745	649657	keystroke_k	k	n/a
325.008	0.06	650016	keystroke_s	s	n/a
325.5785	0.09	651157	keystroke_Key.space	Key.space	n/a
325.8335	0.09	651667	keystroke_a	a	n/a
325.9985	0.045	651997	keystroke_n	n	n/a
326.1635	0.075	652327	keystroke_y	y	n/a
326.343	0.075	652686	keystroke_Key.space	Key.space	n/a
326.553	0.0755	653106	keystroke_o	o	n/a
326.658	0.136	653316	keystroke_a	a	n/a
326.748	0.105	653496	keystroke_c	c	n/a
326.854	0.074	653708	keystroke_k	k	n/a
327.153	0.06	654306	keystroke_Key.backspace	Key.backspace	n/a
327.273	0.06	654546	keystroke_Key.backspace	Key.backspace	n/a
327.423	0.015	654846	keystroke_Key.backspace	Key.backspace	n/a
327.498	0.075	654996	keystroke_Key.backspace	Key.backspace	n/a
328.174	0.074	656348	keystroke_p	p	n/a
328.263	0.12	656526	keystroke_a	a	n/a
328.368	0.09	656736	keystroke_c	c	n/a
328.518	0.09	657036	keystroke_k	k	n/a
328.623	0.0755	657246	keystroke_e	e	n/a
328.8335	0.09	657667	keystroke_d	d	n/a
329.5085	0.075	659017	keystroke_Key.space	Key.space	n/a
329.8535	0.075	659707	keystroke_i	i	n/a
329.8985	0.075	659797	keystroke_n	n	n/a
330.0485	0.1195	660097	keystroke_t	t	n/a
330.138	0.165	660276	keystroke_e	e	n/a
330.243	0.09	660486	keystroke_r	r	n/a
330.453	0.09	660906	keystroke_a	a	n/a
330.558	0.1205	661116	keystroke_c	c	n/a
330.828	0.105	661656	keystroke_t	t	n/a
330.963	0.075	661926	keystroke_i	i	n/a
330.993	0.09	661986	keystroke_o	o	n/a
331.158	0.105	662316	keystroke_n	n	n/a
331.368	0.0755	662736	keystroke_Key.enter	Key.enter	n/a
331.449	11.0655	662898	prompt	n/a	stereo gently exemption correlation\n
332.4335	0.074	664867	keystroke_s	s	n/a
332.6135	0.105	665227	keystroke_t	t	n/a
332.7935	0.12	665587	keystroke_r	r	n/a
332.8985	0.12	665797	keystroke_e	e	n/a
333.8125	0.061	667625	keystroke_Key.backspace	Key.backspace	n/a
333.9175	0.105	667835	keystroke_Key.backspace	Key.backspace	n/a
334.0375	0.1055	668075	keystroke_e	e	n/a
334.218	0.09	668436	keystroke_r	r	n/a
334.518	0.06	669036	keystroke_e	e	n/a
335.2385	0.074	670477	keystroke_o	o	n/a
335.7325	0.105	671465	keystroke_Key.space	Key.space	n/a
336.3635	0.119	672727	keystroke_g	g	n/a
336.8425	0.105	673685	keystroke_e	e	n/a
336.9925	0.09	673985	keystroke_n	n	n/a
337.1725	0.06	674345	keystroke_t	t	n/a
337.2625	0.09	674525	keystroke_l	l	n/a
337.5175	0.075	675035	keystroke_y	y	n/a
338.0425	0.0755	676085	keystroke_Key.space	Key.space	n/a
338.358	0.075	676716	keystroke_e	e	n/a
338.583	0.075	677166	keystroke_x	x	n/a
338.8235	0.09	677647	keystroke_e	e	n/a
338.9285	0.075	677857	keystroke_m	m	n/a
339.0635	0.09	678127	keystroke_p	p	n/a
339.2585	0.09	678517	keystroke_t	t	n/a
339.3335	0.12	678667	keystroke_i	i	n/a
339.4085	0.09	678817	keystroke_o	o	n/a
339.5885	0.0745	679177	keystroke_n	n	n/a
339.963	0.09	679926	keystroke_Key.space	Key.space	n/a
340.593	0.09	681186	keystroke_c	c	n/a
340.713	0.06	681426	keystroke_o	o	n/a
340.863	0.075	681726	keystroke_r	r	n/a
341.0125	0.12	682025	keystroke_r	r	n/a
341.2825	0.0905	682565	keystroke_e	e	n/a
341.5375	0.075	683075	keystroke_l	l	n/a
341.673	0.1345	683346	keystroke_a	a	n/a
341.7775	0.09	683555	keystroke_t	t	n/a
341.8825	0.105	683765	keystroke_i	i	n/a
341.9425	0.105	683885	keystroke_o	o	n/a
342.1085	0.09	684217	keystroke_n	n	n/a
342.4375	0.075	684875	keystroke_Key.enter	Key.enter	n/a
342.5175	6.5375	685035	prompt	n/a	somewhat demo pure consent\n
343.3225	0.09	686645	keystroke_s	s	n/a
343.4575	0.075	686915	keystroke_o	o	n/a
343.5925	0.0905	687185	keystroke_m	m	n/a
343.728	0.09	687456	keystroke_e	e	n/a
343.923	0.06	687846	keystroke_h	h	n/a
344.418	0.09	688836	keystroke_Key.backspace	Key.backspace	n/a
344.493	0.09	688986	keystroke_w	w	n/a
344.673	0.0755	689346	keystroke_h	h	n/a
344.688	0.1355	689376	keystroke_a	a	n/a
344.7935	0.09	689587	keystroke_t	t	n/a
345.318	0.0755	690636	keystroke_Key.space	Key.space	n/a
345.618	0.135	691236	keystroke_d	d	n/a
345.708	0.12	691416	keystroke_e	e	n/a
345.873	0.12	691746	keystroke_m	m	n/a
345.948	0.09	691896	keystroke_o	o	n/a
346.5335	0.09	693067	keystroke_Key.space	Key.space	n/a
346.9385	0.105	693877	keystroke_p	p	n/a
347.1485	0.09	694297	keystroke_u	u	n/a
347.3285	0.15	694657	keystroke_r	r	n/a
347.4485	0.09	694897	keystroke_e	e	n/a
347.7935	0.09	695587	keystroke_Key.space	Key.space	n/a
348.1535	0.09	696307	keystroke_c	c	n/a
348.2585	0.105	696517	keystroke_o	o	n/a
348.3185	0.075	696637	keystroke_n	n	n/a
348.4235	0.15	696847	keystroke_s	s	n/a
348.5585	0.075	697117	keystroke_e	e	n/a
348.6635	0.0745	697327	keystroke_n	n	n/a
348.783	0.09	697566	keystroke_t	t	n/a
348.963	0.0905	697926	keystroke_Key.enter	Key.enter	n/a
349.058	7.8115	698116	prompt	n/a	steal received murder what'd\n
349.9985	0.119	699997	keystroke_s	s	n/a
350.1475	0.12	700295	keystroke_t	t	n/a
350.3875	0.09	700775	keystroke_e	e	n/a
350.5985	0.089	701197	keystroke_a	a	n/a
350.7785	0.074	701557	keystroke_l	l	n/a
351.4375	0.045	702875	keystroke_Key.space	Key.space	n/a
351.768	0.135	703536	keystroke_r	r	n/a
351.828	0.105	703656	keystroke_e	e	n/a
352.053	0.12	704106	keystroke_c	c	n/a
352.143	0.09	704286	keystroke_e	e	n/a
352.308	0.075	704616	keystroke_i	i	n/a
352.398	0.15	704796	keystroke_v	v	n/a
352.518	0.0895	705036	keystroke_e	e	n/a
352.728	0.075	705456	keystroke_d	d	n/a
353.313	0.15	706626	keystroke_Key.space	Key.space	n/a
353.7925	0.06	707585	keystroke_m	m	n/a
353.9435	0.075	707887	keystroke_u	u	n/a
354.1385	0.044	708277	keystroke_r	r	n/a
354.5585	0.1495	709117	keystroke_d	d	n/a
354.693	0.165	709386	keystroke_e	e	n/a
354.783	0.09	709566	keystroke_r	r	n/a
355.203	0.06	710406	keystroke_Key.space	Key.space	n/a
355.488	0.105	710976	keystroke_w	w	n/a
355.683	0.075	711366	keystroke_h	h	n/a
355.743	0.1495	711486	keystroke_a	a	n/a
355.848	0.0745	711696	keystroke_t	t	n/a
356.3875	0.06	712775	keystroke_'	'	n/a
356.5525	0.075	713105	keystroke_d	d	n/a
356.7775	0.09	713555	keystroke_Key.enter	Key.enter	n/a
356.872	8.833	713744	prompt	n/a	literature warren initially graphics\n
357.783	0.15	715566	keystroke_l	l	n/a
357.888	0.09	715776	keystroke_i	i	n/a
358.563	0.1645	717126	keystroke_t	t	n/a
358.7435	0.09	717487	keystroke_e	e	n/a
358.9685	0.12	717937	keystroke_r	r	n/a
359.1035	0.074	718207	keystroke_a	a	n/a
359.2535	0.105	718507	keystroke_t	t	n/a
359.4185	0.06	718837	keystroke_u	u	n/a
359.5535	0.135	719107	keystroke_r	r	n/a
359.6585	0.09	719317	keystroke_e	e	n/a
360.243	0.105	720486	keystroke_Key.space	Key.space	n/a
360.603	0.105	721206	keystroke_w	w	n/a
360.7975	0.195	721595	keystroke_a	a	n/a
360.9475	0.075	721895	keystroke_r	r	n/a
361.1425	0.15	722285	keystroke_r	r	n/a
361.3375	0.09	722675	keystroke_e	e	n/a
361.5625	0.06	723125	keystroke_n	n	n/a
361.9225	0.06	723845	keystroke_Key.space	Key.space	n/a
362.1925	0.045	724385	keystroke_i	i	n/a
362.4025	0.105	724805	keystroke_n	n	n/a
362.4775	0.09	724955	keystroke_i	i	n/a
362.7325	0.105	725465	keystroke_t	t	n/a
362.8975	0.09	725795	keystroke_i	i	n/a
363.0925	0.06	726185	keystroke_a	a	n/a
363.2125	0.045	726425	keystroke_l	l	n/a
363.3175	0.075	726635	keystroke_l	l	n/a
363.5585	0.074	727117	keystroke_y	y	n/a
363.8425	0.105	727685	keystroke_Key.space	Key.space	n/a
364.2625	0.09	728525	keystroke_g	g	n/a
364.4585	0.119	728917	keystroke_r	r	n/a
364.5475	0.09	729095	keystroke_a	a	n/a
364.6675	0.075	729335	keystroke_p	p	n/a
364.9075	0.135	729815	keystroke_h	h	n/a
364.9975	0.09	729995	keystroke_i	i	n/a
365.2525	0.105	730505	keystroke_c	c	n/a
365.4625	0.075	730925	keystroke_s	s	n/a
365.6125	0.09	731225	keystroke_Key.enter	Key.enter	n/a
365.708	10.4065	731416	prompt	n/a	terrace religious jungle brooks\n
366.6025	0.12	733205	keystroke_t	t	n/a
366.798	0.135	733596	keystroke_e	e	n/a
366.993	0.09	733986	keystroke_r	r	n/a
367.203	0.09	734406	keystroke_r	r	n/a
367.458	0.12	734916	keystroke_a	a	n/a
367.713	0.135	735426	keystroke_c	c	n/a
367.818	0.105	735636	keystroke_e	e	n/a
368.133	0.0905	736266	keystroke_Key.space	Key.space	n/a
368.5235	0.105	737047	keystroke_r	r	n/a
368.5835	0.105	737167	keystroke_e	e	n/a
368.7185	0.105	737437	keystroke_l	l	n/a
368.7935	0.075	737587	keystroke_i	i	n/a
369.1535	0.09	738307	keystroke_g	g	n/a
369.3185	0.06	738637	keystroke_i	i	n/a
369.5285	0.1345	739057	keystroke_o	o	n/a
369.6035	0.1045	739207	keystroke_u	u	n/a
369.8875	0.015	739775	keystroke_s	s	n/a
370.3675	0.09	740735	keystroke_Key.space	Key.space	n/a
370.893	0.06	741786	keystroke_j	j	n/a
370.998	0.09	741996	keystroke_u	u	n/a
371.208	0.09	742416	keystroke_n	n	n/a
371.433	0.0755	742866	keystroke_g	g	n/a
371.5385	0.075	743077	keystroke_l	l	n/a
371.6735	0.06	743347	keystroke_e	e	n/a
372.1235	0.075	744247	keystroke_Key.space	Key.space	n/a
372.5135	0.075	745027	keystroke_b	b	n/a
372.7385	0.075	745477	keystroke_o	o	n/a
373.4885	0.06	746977	keystroke_Key.backspace	Key.backspace	n/a
373.5785	0.06	747157	keystroke_r	r	n/a
373.9835	0.105	747967	keystroke_o	o	n/a
374.0735	0.105	748147	keystroke_k	k	n/a
374.8085	0.1645	749617	keystroke_Key.backspace	Key.backspace	n/a
375.138	0.075	750276	keystroke_o	o	n/a
375.363	0.075	750726	keystroke_k	k	n/a
375.513	0.09	751026	keystroke_s	s	n/a
376.038	0.075	752076	keystroke_Key.enter	Key.enter	n/a
376.1175	13.347	752235	prompt	n/a	body insurance groundwater became\n
379.071	0.027	758142	keystroke_b	b	n/a
379.173	0.06	758346	keystroke_o	o	n/a
379.3975	0.09	758795	keystroke_d	d	n/a
379.5475	0.075	759095	keystroke_y	y	n/a
380.328	0.06	760656	keystroke_Key.space	Key.space	n/a
380.928	0.075	761856	keystroke_i	i	n/a
381.123	0.06	762246	keystroke_n	n	n/a
381.363	0.075	762726	keystroke_s	s	n/a
381.453	0.075	762906	keystroke_u	u	n/a
381.618	0.1505	763236	keystroke_r	r	n/a
381.723	0.1045	763446	keystroke_a	a	n/a
381.8425	0.076	763685	keystroke_n	n	n/a
382.0985	0.104	764197	keystroke_e	e	n/a
382.908	0.105	765816	keystroke_Key.backspace	Key.backspace	n/a
383.3275	0.105	766655	keystroke_c	c	n/a
383.3875	0.09	766775	keystroke_e	e	n/a
383.8975	0.075	767795	keystroke_Key.space	Key.space	n/a
384.633	0.15	769266	keystroke_g	g	n/a
384.723	0.09	769446	keystroke_r	r	n/a
384.828	0.12	769656	keystroke_o	o	n/a
384.918	0.06	769836	keystroke_u	u	n/a
385.098	0.09	770196	keystroke_n	n	n/a
385.2025	0.0905	770405	keystroke_d	d	n/a
385.428	0.105	770856	keystroke_w	w	n/a
385.578	0.15	771156	keystroke_a	a	n/a
385.683	0.165	771366	keystroke_r	r	n/a
385.788	0.105	771576	keystroke_e	e	n/a
386.388	0.06	772776	keystroke_Key.space	Key.space	n/a
387.0175	0.106	774035	keystroke_b	b	n/a
387.1375	0.0755	774275	keystroke_e	e	n/a
387.318	0.12	774636	keystroke_c	c	n/a
387.528	0.06	775056	keystroke_m	m	n/a
387.663	0.045	775326	keystroke_e	e	n/a
388.023	0.075	776046	keystroke_Key.backspace	Key.backspace	n/a
388.173	0.075	776346	keystroke_Key.backspace	Key.backspace	n/a
388.4135	0.075	776827	keystroke_a	a	n/a
388.953	0.0745	777906	keystroke_m	m	n/a
389.1025	0.09	778205	keystroke_e	e	n/a
389.4025	0.061	778805	keystroke_Key.enter	Key.enter	n/a
389.4675	12.627	778935	prompt	n/a	amongst factors mention reveals\n
392.615	0.043	785230	keystroke_a	a	n/a
392.688	0.105	785376	keystroke_m	m	n/a
392.808	0.165	785616	keystroke_o	o	n/a
392.973	0.06	785946	keystroke_j	j	n/a
393.153	0.105	786306	keystroke_g	g	n/a
393.753	0.075	787506	keystroke_Key.backspace	Key.backspace	n/a
393.903	0.075	787806	keystroke_Key.backspace	Key.backspace	n/a
394.2025	0.075	788405	keystroke_n	n	n/a
394.3975	0.09	788795	keystroke_g	g	n/a
394.7435	0.12	789487	keystroke_t	t	n/a
395.2385	0.09	790477	keystroke_Key.backspace	Key.backspace	n/a
395.3435	0.1345	790687	keystroke_s	s	n/a
395.448	0.105	790896	keystroke_t	t	n/a
396.0175	0.0905	792035	keystroke_Key.space	Key.space	n/a
396.408	0.105	792816	keystroke_f	f	n/a
396.483	0.105	792966	keystroke_a	a	n/a
396.633	0.1355	793266	keystroke_c	c	n/a
396.8885	0.12	793777	keystroke_t	t	n/a
397.713	0.075	795426	keystroke_o	o	n/a
397.803	0.09	795606	keystroke_r	r	n/a
398.1635	0.06	796327	keystroke_s	s	n/a
398.5385	0.075	797077	keystroke_Key.space	Key.space	n/a
398.778	0.075	797556	keystroke_m	m	n/a
398.898	0.045	797796	keystroke_e	e	n/a
398.973	0.06	797946	keystroke_n	n	n/a
399.078	0.09	798156	keystroke_t	t	n/a
399.183	0.075	798366	keystroke_i	i	n/a
399.228	0.075	798456	keystroke_o	o	n/a
399.378	0.1055	798756	keystroke_n	n	n/a
399.9635	0.075	799927	keystroke_Key.space	Key.space	n/a
400.3085	0.12	800617	keystroke_r	r	n/a
400.3835	0.105	800767	keystroke_e	e	n/a
400.5935	0.135	801187	keystroke_v	v	n/a
400.6985	0.104	801397	keystroke_e	e	n/a
401.418	0.105	802836	keystroke_a	a	n/a
401.673	0.045	803346	keystroke_l	l	n/a
401.838	0.075	803676	keystroke_s	s	n/a
402.018	0.075	804036	keystroke_Key.enter	Key.enter	n/a
402.1025	9.157	804205	prompt	n/a	cambodia ordering birth observed\n
402.948	0.135	805896	keystroke_c	c	n/a
403.038	0.105	806076	keystroke_a	a	n/a
403.158	0.06	806316	keystroke_m	m	n/a
403.518	0.015	807036	keystroke_b	b	n/a
403.818	0.12	807636	keystroke_Key.backspace	Key.backspace	n/a
404.553	0.045	809106	keystroke_b	b	n/a
404.703	0.075	809406	keystroke_o	o	n/a
404.883	0.0905	809766	keystroke_d	d	n/a
405.0185	0.075	810037	keystroke_i	i	n/a
405.1685	0.0595	810337	keystroke_a	a	n/a
405.933	0.075	811866	keystroke_Key.space	Key.space	n/a
406.533	0.075	813066	keystroke_o	o	n/a
406.668	0.075	813336	keystroke_r	r	n/a
406.938	0.12	813876	keystroke_d	d	n/a
407.028	0.165	814056	keystroke_e	e	n/a
407.148	0.12	814296	keystroke_r	r	n/a
407.313	0.105	814626	keystroke_i	i	n/a
407.373	0.075	814746	keystroke_n	n	n/a
407.508	0.06	815016	keystroke_g	g	n/a
407.9125	0.075	815825	keystroke_Key.space	Key.space	n/a
408.1825	0.076	816365	keystroke_b	b	n/a
408.303	0.075	816606	keystroke_i	i	n/a
408.498	0.06	816996	keystroke_r	r	n/a
408.648	0.075	817296	keystroke_t	t	n/a
408.783	0.075	817566	keystroke_h	h	n/a
409.188	0.075	818376	keystroke_Key.space	Key.space	n/a
409.638	0.075	819276	keystroke_o	o	n/a
409.908	0.075	819816	keystroke_b	b	n/a
410.1925	0.181	820385	keystroke_s	s	n/a
410.3135	0.044	820627	keystroke_e	e	n/a
410.4175	0.105	820835	keystroke_r	r	n/a
410.6725	0.165	821345	keystroke_v	v	n/a
410.8075	0.105	821615	keystroke_e	e	n/a
411.0175	0.075	822035	keystroke_d	d	n/a
411.1825	0.075	822365	keystroke_Key.enter	Key.enter	n/a
411.2625	9.807	822525	prompt	n/a	privilege dangerous returned building\n
412.2635	0.06	824527	keystroke_r	r	n/a
412.623	0.06	825246	keystroke_Key.backspace	Key.backspace	n/a
412.7425	0.105	825485	keystroke_Key.backspace	Key.backspace	n/a
413.358	0.105	826716	keystroke_p	p	n/a
413.478	0.045	826956	keystroke_r	r	n/a
413.583	0.105	827166	keystroke_i	i	n/a
413.868	0.09	827736	keystroke_v	v	n/a
413.943	0.06	827886	keystroke_i	i	n/a
414.153	0.075	828306	keystroke_l	l	n/a
414.273	0.105	828546	keystroke_e	e	n/a
414.6485	0.135	829297	keystroke_g	g	n/a
414.8285	0.075	829657	keystroke_e	e	n/a
416.133	0.09	832266	keystroke_Key.space	Key.space	n/a
416.508	0.1345	833016	keystroke_d	d	n/a
416.6125	0.09	833225	keystroke_a	a	n/a
416.7475	0.075	833495	keystroke_n	n	n/a
416.9425	0.105	833885	keystroke_g	g	n/a
417.213	0.09	834426	keystroke_e	e	n/a
417.423	0.075	834846	keystroke_r	r	n/a
417.543	0.135	835086	keystroke_o	o	n/a
417.633	0.06	835266	keystroke_u	u	n/a
417.783	0.06	835566	keystroke_s	s	n/a
418.218	0.075	836436	keystroke_Key.space	Key.space	n/a
418.488	0.09	836976	keystroke_r	r	n/a
418.548	0.0905	837096	keystroke_e	e	n/a
418.6835	0.105	837367	keystroke_t	t	n/a
418.8335	0.075	837667	keystroke_u	u	n/a
418.9235	0.09	837847	keystroke_r	r	n/a
419.0585	0.06	838117	keystroke_n	n	n/a
419.1635	0.09	838327	keystroke_e	e	n/a
419.4335	0.075	838867	keystroke_d	d	n/a
419.5985	0.09	839197	keystroke_Key.space	Key.space	n/a
419.9135	0.0745	839827	keystroke_b	b	n/a
420.123	0.075	840246	keystroke_u	u	n/a
420.168	0.075	840336	keystroke_i	i	n/a
420.3335	0.09	840667	keystroke_l	l	n/a
420.4385	0.105	840877	keystroke_d	d	n/a
420.5735	0.089	841147	keystroke_i	i	n/a
420.6325	0.061	841265	keystroke_n	n	n/a
420.723	0.09	841446	keystroke_g	g	n/a
420.993	0.075	841986	keystroke_Key.enter	Key.enter	n/a
421.0725	7.317	842145	prompt	n/a	regulatory accessed choosing patches\n
421.818	0.12	843636	keystroke_r	r	n/a
421.893	0.09	843786	keystroke_e	e	n/a
422.088	0.105	844176	keystroke_g	g	n/a
422.208	0.09	844416	keystroke_u	u	n/a
422.418	0.075	844836	keystroke_l	l	n/a
422.538	0.1655	845076	keystroke_a	a	n/a
422.8685	0.075	845737	keystroke_t	t	n/a
423.0035	0.075	846007	keystroke_o	o	n/a
423.138	0.0455	846276	keystroke_r	r	n/a
423.2885	0.06	846577	keystroke_y	y	n/a
423.7235	0.075	847447	keystroke_Key.space	Key.space	n/a
424.0535	0.09	848107	keystroke_a	a	n/a
424.3085	0.09	848617	keystroke_c	c	n/a
424.4885	0.18	848977	keystroke_c	c	n/a
424.6235	0.09	849247	keystroke_e	e	n/a
424.8485	0.06	849697	keystroke_s	s	n/a
424.9835	0.135	849967	keystroke_s	s	n/a
425.1785	0.075	850357	keystroke_e	e	n/a
425.3735	0.075	850747	keystroke_d	d	n/a
425.5685	0.09	851137	keystroke_Key.space	Key.space	n/a
425.9135	0.105	851827	keystroke_c	c	n/a
426.0185	0.075	852037	keystroke_h	h	n/a
426.1985	0.06	852397	keystroke_o	o	n/a
426.3185	0.075	852637	keystroke_o	o	n/a
426.4235	0.06	852847	keystroke_s	s	n/a
426.5435	0.09	853087	keystroke_i	i	n/a
426.5885	0.075	853177	keystroke_n	n	n/a
426.6935	0.0895	853387	keystroke_g	g	n/a
426.993	0.09	853986	keystroke_Key.space	Key.space	n/a
427.248	0.075	854496	keystroke_p	p	n/a
427.353	0.165	854706	keystroke_a	a	n/a
427.548	0.105	855096	keystroke_t	t	n/a
427.773	0.105	855546	keystroke_c	c	n/a
427.893	0.09	855786	keystroke_h	h	n/a
428.028	0.135	856056	keystroke_e	e	n/a
428.118	0.105	856236	keystroke_s	s	n/a
428.328	0.06	856656	keystroke_Key.enter	Key.enter	n/a
428.393	6.5665	856786	prompt	n/a	temporary seats weed carter\n
429.348	0.12	858696	keystroke_t	t	n/a
429.423	0.12	858846	keystroke_e	e	n/a
429.483	0.075	858966	keystroke_m	m	n/a
429.648	0.075	859296	keystroke_p	p	n/a
429.843	0.075	859686	keystroke_o	o	n/a
429.9935	0.12	859987	keystroke_r	r	n/a
430.1435	0.119	860287	keystroke_a	a	n/a
430.2175	0.0905	860435	keystroke_t	t	n/a
430.6985	0.105	861397	keystroke_Key.backspace	Key.backspace	n/a
430.8635	0.075	861727	keystroke_r	r	n/a
430.9985	0.075	861997	keystroke_y	y	n/a
431.568	0.09	863136	keystroke_Key.space	Key.space	n/a
431.8535	0.12	863707	keystroke_s	s	n/a
431.9425	0.091	863885	keystroke_e	e	n/a
432.0935	0.15	864187	keystroke_a	a	n/a
432.2135	0.089	864427	keystroke_t	t	n/a
432.4385	0.074	864877	keystroke_s	s	n/a
432.7675	0.075	865535	keystroke_Key.space	Key.space	n/a
432.9035	0.194	865807	keystroke_w	w	n/a
433.0225	0.106	866045	keystroke_e	e	n/a
433.2035	0.09	866407	keystroke_e	e	n/a
433.4425	0.09	866885	keystroke_d	d	n/a
433.6525	0.075	867305	keystroke_Key.space	Key.space	n/a
433.9685	0.119	867937	keystroke_c	c	n/a
434.0725	0.105	868145	keystroke_a	a	n/a
434.2075	0.106	868415	keystroke_r	r	n/a
434.4025	0.136	868805	keystroke_t	t	n/a
434.5225	0.165	869045	keystroke_e	e	n/a
434.6275	0.12	869255	keystroke_r	r	n/a
434.8825	0.0755	869765	keystroke_Key.enter	Key.enter	n/a
434.9625	10.452	869925	prompt	n/a	specifically pride disputes statewide\n
435.783	0.09	871566	keystroke_s	s	n/a
435.993	0.0745	871986	keystroke_p	p	n/a
436.3375	0.075	872675	keystroke_e	e	n/a
436.743	0.09	873486	keystroke_c	c	n/a
436.848	0.09	873696	keystroke_i	i	n/a
437.028	0.06	874056	keystroke_f	f	n/a
437.103	0.075	874206	keystroke_i	i	n/a
437.238	0.105	874476	keystroke_c	c	n/a
437.313	0.09	874626	keystroke_a	a	n/a
437.418	0.06	874836	keystroke_l	l	n/a
437.553	0.075	875106	keystroke_l	l	n/a
437.7475	0.09	875495	keystroke_y	y	n/a
438.1375	0.075	876275	keystroke_Key.space	Key.space	n/a
438.948	0.0745	877896	keystroke_p	p	n/a
439.0535	0.075	878107	keystroke_r	r	n/a
439.1725	0.075	878345	keystroke_i	i	n/a
439.2925	0.121	878585	keystroke_d	d	n/a
439.4585	0.1045	878917	keystroke_e	e	n/a
440.073	0.0755	880146	keystroke_Key.space	Key.space	n/a
440.4635	0.105	880927	keystroke_d	d	n/a
440.6285	0.06	881257	keystroke_i	i	n/a
440.7035	0.0895	881407	keystroke_s	s	n/a
440.943	0.135	881886	keystroke_p	p	n/a
441.093	0.06	882186	keystroke_u	u	n/a
441.648	0.1955	883296	keystroke_t	t	n/a
441.7535	0.12	883507	keystroke_e	e	n/a
442.0085	0.09	884017	keystroke_s	s	n/a
442.3535	0.09	884707	keystroke_Key.space	Key.space	n/a
442.6825	0.1355	885365	keystroke_s	s	n/a
442.788	0.2705	885576	keystroke_t	t	n/a
442.9535	0.0895	885907	keystroke_e	e	n/a
443.598	0.0145	887196	keystroke_Key.backspace	Key.backspace	n/a
443.6135	0.134	887227	keystroke_a	a	n/a
443.7175	0.151	887435	keystroke_t	t	n/a
443.7925	0.106	887585	keystroke_e	e	n/a
444.138	0.0895	888276	keystroke_w	w	n/a
444.288	0.06	888576	keystroke_h	h	n/a
444.693	0.0755	889386	keystroke_Key.backspace	Key.backspace	n/a
444.9785	0.075	889957	keystroke_i	i	n/a
445.113	0.165	890226	keystroke_d	d	n/a
445.218	0.1055	890436	keystroke_e	e	n/a
445.3525	0.06	890705	keystroke_Key.enter	Key.enter	n/a
445.4185	8.996	890837	prompt	n/a	prior greater documentary flower\n
446.403	0.075	892806	keystroke_p	p	n/a
446.508	0.075	893016	keystroke_r	r	n/a
446.613	0.075	893226	keystroke_i	i	n/a
446.793	0.075	893586	keystroke_o	o	n/a
447.513	0.045	895026	keystroke_r	r	n/a
447.963	0.075	895926	keystroke_Key.space	Key.space	n/a
448.608	0.045	897216	keystroke_g	g	n/a
448.758	0.09	897516	keystroke_r	r	n/a
448.803	0.09	897606	keystroke_e	e	n/a
448.908	0.12	897816	keystroke_a	a	n/a
449.043	0.105	898086	keystroke_t	t	n/a
449.178	0.105	898356	keystroke_e	e	n/a
449.703	0.075	899406	keystroke_r	r	n/a
450.063	0.06	900126	keystroke_Key.space	Key.space	n/a
450.468	0.06	900936	keystroke_d	d	n/a
450.678	0.0595	901356	keystroke_o	o	n/a
450.9935	0.075	901987	keystroke_c	c	n/a
451.098	0.075	902196	keystroke_u	u	n/a
451.353	0.06	902706	keystroke_m	m	n/a
451.518	0.075	903036	keystroke_e	e	n/a
451.578	0.06	903156	keystroke_n	n	n/a
451.773	0.105	903546	keystroke_t	t	n/a
451.908	0.105	903816	keystroke_a	a	n/a
452.043	0.12	904086	keystroke_r	r	n/a
452.238	0.075	904476	keystroke_y	y	n/a
452.763	0.075	905526	keystroke_Key.space	Key.space	n/a
453.273	0.09	906546	keystroke_f	f	n/a
453.333	0.06	906666	keystroke_l	l	n/a
453.453	0.0905	906906	keystroke_o	o	n/a
453.573	0.15	907146	keystroke_w	w	n/a
453.678	0.075	907356	keystroke_e	e	n/a
453.843	0.0905	907686	keystroke_r	r	n/a
454.3385	0.075	908677	keystroke_Key.enter	Key.enter	n/a
454.418	8.0665	908836	prompt	n/a	observer beats indicating mathematics\n
455.328	0.09	910656	keystroke_o	o	n/a
455.568	0.075	911136	keystroke_b	b	n/a
455.868	0.135	911736	keystroke_s	s	n/a
455.943	0.09	911886	keystroke_e	e	n/a
456.108	0.105	912216	keystroke_r	r	n/a
456.348	0.09	912696	keystroke_v	v	n/a
456.468	0.12	912936	keystroke_e	e	n/a
456.558	0.075	913116	keystroke_r	r	n/a
456.873	0.075	913746	keystroke_Key.space	Key.space	n/a
457.188	0.105	914376	keystroke_b	b	n/a
457.278	0.12	914556	keystroke_e	e	n/a
457.368	0.165	914736	keystroke_a	a	n/a
457.503	0.12	915006	keystroke_t	t	n/a
457.728	0.09	915456	keystroke_s	s	n/a
458.283	0.045	916566	keystroke_Key.space	Key.space	n/a
458.553	0.105	917106	keystroke_i	i	n/a
458.613	0.06	917226	keystroke_n	n	n/a
458.778	0.0755	917556	keystroke_d	d	n/a
458.8685	0.075	917737	keystroke_i	i	n/a
458.9735	0.12	917947	keystroke_c	c	n/a
459.1085	0.135	918217	keystroke_a	a	n/a
459.1985	0.12	918397	keystroke_t	t	n/a
459.3335	0.105	918667	keystroke_i	i	n/a
460.1285	0.075	920257	keystroke_n	n	n/a
460.2935	0.075	920587	keystroke_g	g	n/a
460.5935	0.089	921187	keystroke_Key.space	Key.space	n/a
460.8635	0.075	921727	keystroke_m	m	n/a
460.9835	0.09	921967	keystroke_a	a	n/a
461.1335	0.12	922267	keystroke_t	t	n/a
461.2685	0.09	922537	keystroke_h	h	n/a
461.3735	0.09	922747	keystroke_e	e	n/a
461.5235	0.09	923047	keystroke_m	m	n/a
461.6285	0.15	923257	keystroke_a	a	n/a
461.7485	0.09	923497	keystroke_t	t	n/a
461.8985	0.074	923797	keystroke_i	i	n/a
462.018	0.105	924036	keystroke_c	c	n/a
462.2735	0.06	924547	keystroke_s	s	n/a
462.4225	0.061	924845	keystroke_Key.enter	Key.enter	n/a
462.488	7.3015	924976	prompt	n/a	diagnosis samsung priest dialog\n
463.5475	0.106	927095	keystroke_d	d	n/a
463.6685	0.075	927337	keystroke_i	i	n/a
463.8025	0.12	927605	keystroke_a	a	n/a
464.0285	0.06	928057	keystroke_g	g	n/a
464.2685	0.075	928537	keystroke_n	n	n/a
464.4335	0.09	928867	keystroke_o	o	n/a
464.6735	0.0745	929347	keystroke_s	s	n/a
464.778	0.075	929556	keystroke_i	i	n/a
464.868	0.075	929736	keystroke_s	s	n/a
465.378	0.075	930756	keystroke_Key.space	Key.space	n/a
465.648	0.06	931296	keystroke_s	s	n/a
465.753	0.105	931506	keystroke_a	a	n/a
465.873	0.075	931746	keystroke_m	m	n/a
466.098	0.09	932196	keystroke_s	s	n/a
466.278	0.075	932556	keystroke_u	u	n/a
466.473	0.0895	932946	keystroke_n	n	n/a
466.5925	0.075	933185	keystroke_g	g	n/a
466.968	0.09	933936	keystroke_Key.space	Key.space	n/a
467.3275	0.075	934655	keystroke_p	p	n/a
467.4475	0.06	934895	keystroke_r	r	n/a
467.5525	0.09	935105	keystroke_i	i	n/a
467.8675	0.135	935735	keystroke_e	e	n/a
468.1825	0.15	936365	keystroke_s	s	n/a
468.2875	0.09	936575	keystroke_t	t	n/a
468.783	0.06	937566	keystroke_Key.space	Key.space	n/a
468.978	0.1045	937956	keystroke_d	d	n/a
469.0975	0.075	938195	keystroke_i	i	n/a
469.1875	0.075	938375	keystroke_a	a	n/a
469.2925	0.075	938585	keystroke_l	l	n/a
469.4425	0.075	938885	keystroke_o	o	n/a
469.5325	0.061	939065	keystroke_g	g	n/a
469.7125	0.075	939425	keystroke_Key.enter	Key.enter	n/a
469.792	8.398	939584	prompt	n/a	republican forty william cafe\n
470.6135	0.1195	941227	keystroke_r	r	n/a
470.703	0.12	941406	keystroke_e	e	n/a
470.958	0.18	941916	keystroke_p	p	n/a
471.078	0.105	942156	keystroke_l	l	n/a
472.0985	0.105	944197	keystroke_Key.backspace	Key.backspace	n/a
472.3835	0.06	944767	keystroke_u	u	n/a
472.8185	0.075	945637	keystroke_b	b	n/a
472.9085	0.06	945817	keystroke_l	l	n/a
473.0435	0.075	946087	keystroke_i	i	n/a
473.1485	0.135	946297	keystroke_c	c	n/a
473.2535	0.105	946507	keystroke_a	a	n/a
473.4035	0.06	946807	keystroke_n	n	n/a
474.0035	0.075	948007	keystroke_Key.space	Key.space	n/a
474.3485	0.09	948697	keystroke_f	f	n/a
474.4685	0.075	948937	keystroke_o	o	n/a
474.5285	0.075	949057	keystroke_r	r	n/a
474.7085	0.075	949417	keystroke_t	t	n/a
474.8285	0.075	949657	keystroke_y	y	n/a
475.2635	0.075	950527	keystroke_Key.space	Key.space	n/a
475.548	0.075	951096	keystroke_w	w	n/a
475.653	0.06	951306	keystroke_i	i	n/a
475.8485	0.044	951697	keystroke_l	l	n/a
475.9685	0.06	951937	keystroke_l	l	n/a
476.1485	0.075	952297	keystroke_i	i	n/a
476.3285	0.075	952657	keystroke_a	a	n/a
476.4485	0.075	952897	keystroke_m	m	n/a
476.673	0.09	953346	keystroke_Key.space	Key.space	n/a
477.258	0.1355	954516	keystroke_c	c	n/a
477.378	0.09	954756	keystroke_a	a	n/a
477.693	0.15	955386	keystroke_f	f	n/a
477.933	0.12	955866	keystroke_e	e	n/a
478.128	0.06	956256	keystroke_Key.enter	Key.enter	n/a
478.1935	9.7615	956387	prompt	n/a	holdings competitive illness stocks\n
479.1635	0.089	958327	keystroke_h	h	n/a
479.328	0.0895	958656	keystroke_o	o	n/a
479.5375	0.0305	959075	keystroke_l	l	n/a
480.1535	0.09	960307	keystroke_d	d	n/a
480.3325	0.1055	960665	keystroke_i	i	n/a
480.408	0.075	960816	keystroke_n	n	n/a
480.498	0.075	960996	keystroke_g	g	n/a
480.738	0.09	961476	keystroke_s	s	n/a
480.993	0.09	961986	keystroke_Key.space	Key.space	n/a
481.518	0.12	963036	keystroke_c	c	n/a
481.593	0.105	963186	keystroke_o	o	n/a
481.743	0.105	963486	keystroke_m	m	n/a
481.968	0.075	963936	keystroke_p	p	n/a
482.088	0.09	964176	keystroke_e	e	n/a
482.328	0.09	964656	keystroke_t	t	n/a
482.448	0.06	964896	keystroke_u	u	n/a
482.658	0.075	965316	keystroke_r	r	n/a
483.018	0.075	966036	keystroke_Key.backspace	Key.backspace	n/a
483.138	0.075	966276	keystroke_Key.backspace	Key.backspace	n/a
483.753	0.015	967506	keystroke_i	i	n/a
483.963	0.09	967926	keystroke_t	t	n/a
484.053	0.075	968106	keystroke_i	i	n/a
484.233	0.15	968466	keystroke_v	v	n/a
484.353	0.12	968706	keystroke_e	e	n/a
484.8775	0.075	969755	keystroke_Key.space	Key.space	n/a
485.2985	0.0745	970597	keystroke_i	i	n/a
485.508	0.06	971016	keystroke_l	l	n/a
485.613	0.075	971226	keystroke_l	l	n/a
485.853	0.06	971706	keystroke_n	n	n/a
485.958	0.075	971916	keystroke_e	e	n/a
486.423	0.075	972846	keystroke_s	s	n/a
486.588	0.075	973176	keystroke_s	s	n/a
486.828	0.075	973656	keystroke_Key.space	Key.space	n/a
487.053	0.15	974106	keystroke_s	s	n/a
487.173	0.09	974346	keystroke_t	t	n/a
487.308	0.06	974616	keystroke_o	o	n/a
487.4875	0.076	974975	keystroke_c	c	n/a
487.5925	0.091	975185	keystroke_k	k	n/a
487.7135	0.09	975427	keystroke_s	s	n/a
487.893	0.0595	975786	keystroke_Key.enter	Key.enter	n/a
487.9595	7.6605	975919	prompt	n/a	ain't accepting greater studio\n
488.853	0.09	977706	keystroke_a	a	n/a
488.988	0.075	977976	keystroke_i	i	n/a
489.528	0.075	979056	keystroke_n	n	n/a
490.158	0.045	980316	keystroke_'	'	n/a
490.263	0.075	980526	keystroke_t	t	n/a
490.698	0.075	981396	keystroke_Key.space	Key.space	n/a
490.9235	0.105	981847	keystroke_a	a	n/a
491.1785	0.075	982357	keystroke_c	c	n/a
491.3435	0.15	982687	keystroke_c	c	n/a
491.4485	0.09	982897	keystroke_e	e	n/a
491.5985	0.06	983197	keystroke_p	p	n/a
491.6885	0.075	983377	keystroke_t	t	n/a
491.8085	0.105	983617	keystroke_i	i	n/a
491.8835	0.06	983767	keystroke_n	n	n/a
492.0335	0.06	984067	keystroke_g	g	n/a
492.6485	0.0745	985297	keystroke_Key.space	Key.space	n/a
492.963	0.09	985926	keystroke_g	g	n/a
493.173	0.12	986346	keystroke_r	r	n/a
493.233	0.09	986466	keystroke_e	e	n/a
493.308	0.165	986616	keystroke_a	a	n/a
493.458	0.135	986916	keystroke_t	t	n/a
493.623	0.105	987246	keystroke_e	e	n/a
494.1035	0.074	988207	keystroke_r	r	n/a
494.4475	0.075	988895	keystroke_Key.space	Key.space	n/a
494.718	0.09	989436	keystroke_s	s	n/a
494.793	0.09	989586	keystroke_t	t	n/a
494.898	0.0745	989796	keystroke_u	u	n/a
495.1075	0.105	990215	keystroke_d	d	n/a
495.1975	0.06	990395	keystroke_i	i	n/a
495.3625	0.06	990725	keystroke_o	o	n/a
495.5575	0.06	991115	keystroke_Key.enter	Key.enter	n/a
495.6245	9.22	991249	prompt	n/a	crafts watershed mars timeline\n
497.058	0.09	994116	keystroke_c	c	n/a
497.253	0.105	994506	keystroke_r	r	n/a
497.343	0.09	994686	keystroke_a	a	n/a
497.583	0.12	995166	keystroke_f	f	n/a
497.883	0.06	995766	keystroke_t	t	n/a
498.048	0.06	996096	keystroke_s	s	n/a
498.543	0.075	997086	keystroke_Key.space	Key.space	n/a
498.978	0.1195	997956	keystroke_w	w	n/a
499.1725	0.165	998345	keystroke_a	a	n/a
499.3385	0.1345	998677	keystroke_t	t	n/a
499.4735	0.149	998947	keystroke_e	e	n/a
499.5625	0.09	999125	keystroke_r	r	n/a
499.8025	0.09	999605	keystroke_s	s	n/a
499.9375	0.06	999875	keystroke_h	h	n/a
499.9525	0.03	999905	keystroke_g	g	n/a
500.0425	0.075	1000085	keystroke_e	e	n/a
500.2525	0.075	1000505	keystroke_d	d	n/a
500.688	0.06	1001376	keystroke_Key.backspace	Key.backspace	n/a
500.8075	0.075	1001615	keystroke_Key.backspace	Key.backspace	n/a
500.9125	0.09	1001825	keystroke_Key.backspace	Key.backspace	n/a
501.0175	0.09	1002035	keystroke_e	e	n/a
501.2125	0.09	1002425	keystroke_d	d	n/a
501.3625	0.075	1002725	keystroke_Key.space	Key.space	n/a
501.5575	0.06	1003115	keystroke_m	m	n/a
501.6025	0.0905	1003205	keystroke_a	a	n/a
501.663	0.1055	1003326	keystroke_r	r	n/a
501.9035	0.09	1003807	keystroke_s	s	n/a
502.3985	0.0745	1004797	keystroke_Key.space	Key.space	n/a
503.823	0.105	1007646	keystroke_t	t	n/a
503.898	0.105	1007796	keystroke_i	i	n/a
503.973	0.075	1007946	keystroke_m	m	n/a
504.063	0.075	1008126	keystroke_e	e	n/a
504.213	0.135	1008426	keystroke_l	l	n/a
504.288	0.075	1008576	keystroke_i	i	n/a
504.483	0.09	1008966	keystroke_n	n	n/a
504.6175	0.0755	1009235	keystroke_e	e	n/a
504.7675	0.075	1009535	keystroke_Key.enter	Key.enter	n/a
504.847	5.9975	1009694	prompt	n/a	aids locks comic i'm\n
505.6375	0.09	1011275	keystroke_a	a	n/a
505.7575	0.09	1011515	keystroke_i	i	n/a
505.8925	0.15	1011785	keystroke_d	d	n/a
506.0275	0.105	1012055	keystroke_s	s	n/a
506.3875	0.09	1012775	keystroke_Key.space	Key.space	n/a
506.7785	0.06	1013557	keystroke_l	l	n/a
506.9135	0.075	1013827	keystroke_o	o	n/a
507.0185	0.105	1014037	keystroke_c	c	n/a
507.1535	0.075	1014307	keystroke_k	k	n/a
507.3185	0.06	1014637	keystroke_s	s	n/a
507.573	0.06	1015146	keystroke_Key.space	Key.space	n/a
507.798	0.105	1015596	keystroke_c	c	n/a
507.873	0.075	1015746	keystroke_o	o	n/a
508.098	0.15	1016196	keystroke_m	m	n/a
508.218	0.105	1016436	keystroke_i	i	n/a
508.503	0.1055	1017006	keystroke_c	c	n/a
508.9075	0.105	1017815	keystroke_Key.space	Key.space	n/a
509.5825	0.0755	1019165	keystroke_i	i	n/a
510.258	0.06	1020516	keystroke_'	'	n/a
510.588	0.09	1021176	keystroke_m	m	n/a
510.7675	0.075	1021535	keystroke_Key.enter	Key.enter	n/a
510.848	12.942	1021696	prompt	n/a	volunteer characteristic exist left\n
512.0435	0.09	1024087	keystroke_v	v	n/a
512.1185	0.075	1024237	keystroke_o	o	n/a
512.2835	0.105	1024567	keystroke_l	l	n/a
512.5835	0.0895	1025167	keystroke_n	n	n/a
512.9285	0.09	1025857	keystroke_Key.backspace	Key.backspace	n/a
513.333	0.09	1026666	keystroke_u	u	n/a
513.558	0.09	1027116	keystroke_n	n	n/a
513.783	0.135	1027566	keystroke_t	t	n/a
514.0085	0.12	1028017	keystroke_e	e	n/a
514.2025	0.076	1028405	keystroke_e	e	n/a
514.4285	0.06	1028857	keystroke_r	r	n/a
514.833	0.09	1029666	keystroke_Key.space	Key.space	n/a
515.223	0.105	1030446	keystroke_c	c	n/a
515.373	0.06	1030746	keystroke_h	h	n/a
515.463	0.12	1030926	keystroke_a	a	n/a
515.643	0.105	1031286	keystroke_r	r	n/a
515.808	0.105	1031616	keystroke_a	a	n/a
516.9185	0.06	1033837	keystroke_c	c	n/a
517.1135	0.105	1034227	keystroke_t	t	n/a
517.2635	0.12	1034527	keystroke_e	e	n/a
517.4885	0.06	1034977	keystroke_t	t	n/a
517.7135	0.06	1035427	keystroke_i	i	n/a
517.9385	0.075	1035877	keystroke_s	s	n/a
518.193	0.06	1036386	keystroke_Key.backspace	Key.backspace	n/a
518.298	0.06	1036596	keystroke_Key.backspace	Key.backspace	n/a
518.403	0.09	1036806	keystroke_Key.backspace	Key.backspace	n/a
518.538	0.09	1037076	keystroke_r	r	n/a
518.703	0.075	1037406	keystroke_i	i	n/a
518.733	0.03	1037466	keystroke_u	u	n/a
518.823	0.135	1037646	keystroke_s	s	n/a
518.973	0.09	1037946	keystroke_t	t	n/a
519.108	0.045	1038216	keystroke_i	i	n/a
519.393	0.045	1038786	keystroke_Key.backspace	Key.backspace	n/a
519.4975	0.045	1038995	keystroke_Key.backspace	Key.backspace	n/a
519.6025	0.045	1039205	keystroke_Key.backspace	Key.backspace	n/a
519.7075	0.091	1039415	keystroke_Key.backspace	Key.backspace	n/a
519.8435	0.105	1039687	keystroke_s	s	n/a
520.3535	0.075	1040707	keystroke_t	t	n/a
520.443	0.09	1040886	keystroke_i	i	n/a
520.608	0.105	1041216	keystroke_c	c	n/a
521.013	0.09	1042026	keystroke_Key.space	Key.space	n/a
521.343	0.075	1042686	keystroke_e	e	n/a
521.583	0.105	1043166	keystroke_x	x	n/a
521.733	0.075	1043466	keystroke_i	i	n/a
521.913	0.135	1043826	keystroke_s	s	n/a
522.003	0.09	1044006	keystroke_t	t	n/a
522.7385	0.09	1045477	keystroke_Key.space	Key.space	n/a
523.1585	0.075	1046317	keystroke_l	l	n/a
523.2785	0.135	1046557	keystroke_e	e	n/a
523.3835	0.075	1046767	keystroke_f	f	n/a
523.5635	0.075	1047127	keystroke_t	t	n/a
523.7285	0.06	1047457	keystroke_Key.enter	Key.enter	n/a
523.7925	8.922	1047585	prompt	n/a	zero fans knight packing\n
526.3555	0.058	1052711	keystroke_z	z	n/a
526.3975	0.0905	1052795	keystroke_e	e	n/a
526.5935	0.075	1053187	keystroke_r	r	n/a
526.7725	0.046	1053545	keystroke_o	o	n/a
527.2525	0.045	1054505	keystroke_Key.space	Key.space	n/a
527.5685	0.0895	1055137	keystroke_f	f	n/a
527.628	0.075	1055256	keystroke_a	a	n/a
527.748	0.075	1055496	keystroke_n	n	n/a
527.928	0.06	1055856	keystroke_s	s	n/a
528.303	0.09	1056606	keystroke_Key.space	Key.space	n/a
528.873	0.09	1057746	keystroke_k	k	n/a
528.918	0.105	1057836	keystroke_n	n	n/a
529.173	0.075	1058346	keystroke_u	u	n/a
529.338	0.09	1058676	keystroke_g	g	n/a
529.833	0.075	1059666	keystroke_Key.backspace	Key.backspace	n/a
529.968	0.06	1059936	keystroke_Key.backspace	Key.backspace	n/a
530.2225	0.06	1060445	keystroke_i	i	n/a
530.2975	0.06	1060595	keystroke_g	g	n/a
530.448	0.06	1060896	keystroke_h	h	n/a
530.523	0.03	1061046	keystroke_t	t	n/a
531.1375	0.075	1062275	keystroke_Key.space	Key.space	n/a
531.5585	0.044	1063117	keystroke_p	p	n/a
531.6325	0.1505	1063265	keystroke_a	a	n/a
531.738	0.105	1063476	keystroke_c	c	n/a
531.813	0.075	1063626	keystroke_k	k	n/a
531.963	0.12	1063926	keystroke_i	i	n/a
532.023	0.075	1064046	keystroke_n	n	n/a
532.143	0.09	1064286	keystroke_g	g	n/a
532.6225	0.09	1065245	keystroke_Key.enter	Key.enter	n/a
532.717	8.8175	1065434	prompt	n/a	tulsa hardware prominent stopped\n
533.913	0.105	1067826	keystroke_t	t	n/a
534.019	0.089	1068038	keystroke_u	u	n/a
534.213	0.09	1068426	keystroke_l	l	n/a
534.393	0.1045	1068786	keystroke_s	s	n/a
534.5575	0.105	1069115	keystroke_a	a	n/a
534.9035	0.09	1069807	keystroke_Key.space	Key.space	n/a
535.1885	0.09	1070377	keystroke_h	h	n/a
535.2335	0.165	1070467	keystroke_a	a	n/a
535.3385	0.09	1070677	keystroke_r	r	n/a
535.5335	0.12	1071067	keystroke_d	d	n/a
535.6385	0.105	1071277	keystroke_w	w	n/a
535.8035	0.135	1071607	keystroke_a	a	n/a
535.9085	0.165	1071817	keystroke_r	r	n/a
536.0285	0.09	1072057	keystroke_e	e	n/a
536.7775	0.076	1073555	keystroke_Key.space	Key.space	n/a
537.0485	0.045	1074097	keystroke_p	p	n/a
537.1085	0.06	1074217	keystroke_r	r	n/a
537.2275	0.06	1074455	keystroke_o	o	n/a
537.9475	0.165	1075895	keystroke_m	m	n/a
538.0675	0.09	1076135	keystroke_i	i	n/a
538.3235	0.089	1076647	keystroke_n	n	n/a
538.4275	0.12	1076855	keystroke_e	e	n/a
538.5325	0.091	1077065	keystroke_t	t	n/a
539.2525	0.045	1078505	keystroke_Key.backspace	Key.backspace	n/a
539.5225	0.0605	1079045	keystroke_n	n	n/a
539.658	0.0595	1079316	keystroke_t	t	n/a
539.9725	0.09	1079945	keystroke_Key.space	Key.space	n/a
540.2725	0.106	1080545	keystroke_s	s	n/a
540.3475	0.075	1080695	keystroke_t	t	n/a
540.663	0.06	1081326	keystroke_o	o	n/a
540.858	0.06	1081716	keystroke_p	p	n/a
540.963	0.075	1081926	keystroke_p	p	n/a
541.113	0.075	1082226	keystroke_e	e	n/a
541.3085	0.09	1082617	keystroke_d	d	n/a
541.4585	0.075	1082917	keystroke_Key.enter	Key.enter	n/a
541.5375	17.952	1083075	prompt	n/a	xerox draws circuits editions\n
542.4635	0.06	1084927	keystroke_e	e	n/a
542.7035	0.12	1085407	keystroke_x	x	n/a
544.3385	0.075	1088677	keystroke_=	=	n/a
544.6975	0.0605	1089395	keystroke_Key.backspace	Key.backspace	n/a
544.848	0.03	1089696	keystroke_Key.backspace	Key.backspace	n/a
544.938	0.045	1089876	keystroke_Key.backspace	Key.backspace	n/a
545.058	0.045	1090116	keystroke_Key.backspace	Key.backspace	n/a
545.538	0.045	1091076	keystroke_x	x	n/a
545.748	0.075	1091496	keystroke_e	e	n/a
545.943	0.075	1091886	keystroke_r	r	n/a
546.033	0.09	1092066	keystroke_o	o	n/a
546.258	0.075	1092516	keystroke_x	x	n/a
548.795	0.001	1097590	keystroke_d	d	n/a
548.928	0.15	1097856	keystroke_r	r	n/a
549.123	0.105	1098246	keystroke_w	w	n/a
549.333	0.15	1098666	keystroke_a	a	n/a
549.678	0.075	1099356	keystroke_]	]	n/a
550.5935	0.075	1101187	keystroke_Key.backspace	Key.backspace	n/a
550.8035	0.06	1101607	keystroke_Key.backspace	Key.backspace	n/a
550.9985	0.06	1101997	keystroke_Key.backspace	Key.backspace	n/a
551.1935	0.075	1102387	keystroke_Key.backspace	Key.backspace	n/a
551.4035	0.06	1102807	keystroke_Key.backspace	Key.backspace	n/a
551.7185	0.06	1103437	keystroke_Key.space	Key.space	n/a
552.1985	0.105	1104397	keystroke_d	d	n/a
552.3935	0.12	1104787	keystroke_r	r	n/a
552.5585	0.1795	1105117	keystroke_a	a	n/a
552.783	0.105	1105566	keystroke_w	w	n/a
553.053	0.075	1106106	keystroke_d	d	n/a
553.6075	0.045	1107215	keystroke_Key.backspace	Key.backspace	n/a
553.7125	0.105	1107425	keystroke_s	s	n/a
554.1625	0.075	1108325	keystroke_Key.space	Key.space	n/a
555.063	0.105	1110126	keystroke_c	c	n/a
555.4075	0.0755	1110815	keystroke_i	i	n/a
555.603	0.06	1111206	keystroke_r	r	n/a
556.5335	0.075	1113067	keystroke_c	c	n/a
556.6235	0.06	1113247	keystroke_u	u	n/a
556.7885	0.075	1113577	keystroke_i	i	n/a
556.9835	0.0895	1113967	keystroke_t	t	n/a
557.493	0.09	1114986	keystroke_s	s	n/a
557.7635	0.075	1115527	keystroke_Key.space	Key.space	n/a
558.1235	0.075	1116247	keystroke_e	e	n/a
558.3035	0.075	1116607	keystroke_d	d	n/a
558.3335	0.075	1116667	keystroke_i	i	n/a
558.5585	0.06	1117117	keystroke_t	t	n/a
558.6185	0.105	1117237	keystroke_i	i	n/a
558.6785	0.075	1117357	keystroke_o	o	n/a
558.8275	0.106	1117655	keystroke_n	n	n/a
558.9635	0.075	1117927	keystroke_s	s	n/a
559.413	0.075	1118826	keystroke_Key.enter	Key.enter	n/a
559.493	10.1665	1118986	prompt	n/a	affiliated emails head deposits\n
560.343	0.105	1120686	keystroke_a	a	n/a
560.6585	0.0595	1121317	keystroke_f	f	n/a
560.838	0.045	1121676	keystroke_f	f	n/a
560.868	0.075	1121736	keystroke_i	i	n/a
561.048	0.09	1122096	keystroke_l	l	n/a
561.243	0.075	1122486	keystroke_i	i	n/a
561.483	0.135	1122966	keystroke_a	a	n/a
562.248	0.015	1124496	keystroke_e	e	n/a
562.7575	0.1055	1125515	keystroke_Key.backspace	Key.backspace	n/a
563.1335	0.1495	1126267	keystroke_t	t	n/a
563.2085	0.1195	1126417	keystroke_e	e	n/a
563.448	0.09	1126896	keystroke_d	d	n/a
563.613	0.075	1127226	keystroke_Key.space	Key.space	n/a
563.703	0.075	1127406	keystroke_e	e	n/a
563.808	0.1055	1127616	keystroke_m	m	n/a
563.9585	0.075	1127917	keystroke_i	i	n/a
563.9735	0.09	1127947	keystroke_a	a	n/a
564.7675	0.075	1129535	keystroke_Key.backspace	Key.backspace	n/a
564.8875	0.09	1129775	keystroke_Key.backspace	Key.backspace	n/a
565.0675	0.075	1130135	keystroke_a	a	n/a
565.1575	0.0605	1130315	keystroke_i	i	n/a
565.338	0.075	1130676	keystroke_l	l	n/a
565.488	0.0755	1130976	keystroke_s	s	n/a
565.9235	0.075	1131847	keystroke_Key.space	Key.space	n/a
566.313	0.0905	1132626	keystroke_h	h	n/a
566.4185	0.135	1132837	keystroke_e	e	n/a
566.5085	0.18	1133017	keystroke_a	a	n/a
566.6435	0.12	1133287	keystroke_d	d	n/a
566.9735	0.09	1133947	keystroke_Key.space	Key.space	n/a
567.2735	0.165	1134547	keystroke_d	d	n/a
567.3935	0.135	1134787	keystroke_e	e	n/a
567.5885	0.075	1135177	keystroke_p	p	n/a
567.8435	0.075	1135687	keystroke_o	o	n/a
568.1435	0.075	1136287	keystroke_s	s	n/a
568.3235	0.06	1136647	keystroke_i	i	n/a
568.818	0.09	1137636	keystroke_t	t	n/a
569.343	0.09	1138686	keystroke_s	s	n/a
569.583	0.0745	1139166	keystroke_Key.enter	Key.enter	n/a
569.663	8.7265	1139326	prompt	n/a	romantic existence disorders surplus\n
570.5585	0.074	1141117	keystroke_r	r	n/a
570.6625	0.075	1141325	keystroke_o	o	n/a
570.8875	0.075	1141775	keystroke_m	m	n/a
570.9925	0.09	1141985	keystroke_a	a	n/a
571.1125	0.075	1142225	keystroke_n	n	n/a
571.368	0.075	1142736	keystroke_t	t	n/a
571.488	0.09	1142976	keystroke_i	i	n/a
571.638	0.105	1143276	keystroke_c	c	n/a
572.058	0.075	1144116	keystroke_Key.space	Key.space	n/a
572.5525	0.06	1145105	keystroke_e	e	n/a
572.7785	0.104	1145557	keystroke_x	x	n/a
573.0175	0.061	1146035	keystroke_i	i	n/a
573.4235	0.089	1146847	keystroke_s	s	n/a
573.6625	0.12	1147325	keystroke_t	t	n/a
573.7975	0.0905	1147595	keystroke_e	e	n/a
574.1125	0.061	1148225	keystroke_n	n	n/a
574.2935	0.135	1148587	keystroke_c	c	n/a
574.3985	0.09	1148797	keystroke_e	e	n/a
575.0125	0.075	1150025	keystroke_Key.space	Key.space	n/a
575.2975	0.135	1150595	keystroke_d	d	n/a
575.5225	0.06	1151045	keystroke_i	i	n/a
575.6125	0.09	1151225	keystroke_s	s	n/a
575.8085	0.074	1151617	keystroke_o	o	n/a
575.9275	0.09	1151855	keystroke_r	r	n/a
576.1375	0.1205	1152275	keystroke_d	d	n/a
576.243	0.135	1152486	keystroke_e	e	n/a
576.333	0.09	1152666	keystroke_r	r	n/a
576.513	0.105	1153026	keystroke_s	s	n/a
576.873	0.09	1153746	keystroke_Key.space	Key.space	n/a
577.1425	0.09	1154285	keystroke_s	s	n/a
577.3525	0.06	1154705	keystroke_u	u	n/a
577.5025	0.06	1155005	keystroke_r	r	n/a
577.6225	0.15	1155245	keystroke_p	p	n/a
577.7275	0.075	1155455	keystroke_l	l	n/a
577.9675	0.075	1155935	keystroke_u	u	n/a
578.073	0.09	1156146	keystroke_s	s	n/a
578.313	0.075	1156626	keystroke_Key.enter	Key.enter	n/a
578.3925	9.7175	1156785	prompt	n/a	profile therefore declaration scoring\n
579.273	0.075	1158546	keystroke_p	p	n/a
579.378	0.075	1158756	keystroke_r	r	n/a
579.468	0.075	1158936	keystroke_o	o	n/a
579.7525	0.06	1159505	keystroke_g	g	n/a
580.053	0.09	1160106	keystroke_Key.backspace	Key.backspace	n/a
580.188	0.09	1160376	keystroke_f	f	n/a
580.293	0.075	1160586	keystroke_i	i	n/a
580.473	0.075	1160946	keystroke_l	l	n/a
580.593	0.075	1161186	keystroke_e	e	n/a
581.103	0.075	1162206	keystroke_Key.space	Key.space	n/a
581.463	0.12	1162926	keystroke_t	t	n/a
581.568	0.075	1163136	keystroke_h	h	n/a
581.628	0.105	1163256	keystroke_e	e	n/a
581.718	0.12	1163436	keystroke_r	r	n/a
581.793	0.105	1163586	keystroke_e	e	n/a
581.973	0.12	1163946	keystroke_f	f	n/a
582.108	0.06	1164216	keystroke_o	o	n/a
582.228	0.12	1164456	keystroke_r	r	n/a
582.303	0.105	1164606	keystroke_e	e	n/a
582.858	0.09	1165716	keystroke_Key.space	Key.space	n/a
583.833	0.135	1167666	keystroke_d	d	n/a
583.923	0.105	1167846	keystroke_e	e	n/a
584.148	0.105	1168296	keystroke_c	c	n/a
584.313	0.09	1168626	keystroke_l	l	n/a
585.393	0.075	1170786	keystroke_a	a	n/a
585.5885	0.075	1171177	keystroke_r	r	n/a
585.6925	0.121	1171385	keystroke_a	a	n/a
585.9635	0.06	1171927	keystroke_t	t	n/a
586.0535	0.089	1172107	keystroke_i	i	n/a
586.0835	0.09	1172167	keystroke_o	o	n/a
586.248	0.09	1172496	keystroke_n	n	n/a
586.9375	0.09	1173875	keystroke_Key.space	Key.space	n/a
587.2235	0.074	1174447	keystroke_s	s	n/a
587.3275	0.12	1174655	keystroke_c	c	n/a
587.5075	0.061	1175015	keystroke_o	o	n/a
587.5975	0.105	1175195	keystroke_r	r	n/a
587.7175	0.105	1175435	keystroke_i	i	n/a
