onset	duration	sample	value	key	prompt_text
1.123	8.735	2246	prompt	n/a	the quick brown fox jumps over a lazy dog\n
2.3565	0.027	4713	keystroke_t	t	n/a
2.4425	0.091	4885	keystroke_h	h	n/a
2.5775	0.0755	5155	keystroke_e	e	n/a
2.7275	0.09	5455	keystroke_Key.space	Key.space	n/a
2.9835	0.0895	5967	keystroke_q	q	n/a
3.118	0.075	6236	keystroke_u	u	n/a
3.298	0.075	6596	keystroke_i	i	n/a
3.478	0.0895	6956	keystroke_c	c	n/a
3.5975	0.076	7195	keystroke_k	k	n/a
3.8075	0.0605	7615	keystroke_Key.space	Key.space	n/a
3.9725	0.076	7945	keystroke_b	b	n/a
4.0935	0.074	8187	keystroke_r	r	n/a
4.213	0.0745	8426	keystroke_o	o	n/a
4.3785	0.075	8757	keystroke_w	w	n/a
4.4835	0.0745	8967	keystroke_n	n	n/a
4.6775	0.075	9355	keystroke_Key.space	Key.space	n/a
4.798	0.075	9596	keystroke_f	f	n/a
4.9025	0.076	9805	keystroke_o	o	n/a
5.263	0.0605	10526	keystroke_x	x	n/a
5.3825	0.076	10765	keystroke_Key.space	Key.space	n/a
5.6235	0.044	11247	keystroke_j	j	n/a
5.7435	0.0745	11487	keystroke_u	u	n/a
5.9385	0.0755	11877	keystroke_m	m	n/a
6.133	0.061	12266	keystroke_p	p	n/a
6.223	0.077	12446	keystroke_s	s	n/a
6.344	0.0905	12688	keystroke_Key.space	Key.space	n/a
6.5245	0.075	13049	keystroke_o	o	n/a
6.6745	0.075	13349	keystroke_f	f	n/a
7.034	0.0905	14068	keystroke_Key.backspace	Key.backspace	n/a
7.11	0.0745	14220	keystroke_v	v	n/a
7.229	0.136	14458	keystroke_e	e	n/a
7.349	0.075	14698	keystroke_r	r	n/a
7.454	0.075	14908	keystroke_Key.space	Key.space	n/a
7.56	0.059	15120	keystroke_a	a	n/a
7.679	0.09	15358	keystroke_Key.space	Key.space	n/a
7.904	0.061	15808	keystroke_l	l	n/a
8.025	0.105	16050	keystroke_a	a	n/a
8.4445	0.0745	16889	keystroke_z	z	n/a
8.5795	0.0755	17159	keystroke_y	y	n/a
8.804	0.06	17608	keystroke_Key.space	Key.space	n/a
9.314	0.0755	18628	keystroke_d	d	n/a
9.4495	0.106	18899	keystroke_o	o	n/a
9.5845	0.076	19169	keystroke_g	g	n/a
9.7795	0.0755	19559	keystroke_Key.enter	Key.enter	n/a
9.865	6.757	19730	prompt	n/a	partial enterprise cash provider\n
10.724	0.061	21448	keystroke_p	p	n/a
10.7695	0.0745	21539	keystroke_a	a	n/a
10.9495	0.0605	21899	keystroke_r	r	n/a
11.1295	0.0755	22259	keystroke_t	t	n/a
11.279	0.0455	22558	keystroke_i	i	n/a
11.384	0.075	22768	keystroke_a	a	n/a
11.4895	0.0745	22979	keystroke_l	l	n/a
11.7145	0.0595	23429	keystroke_Key.space	Key.space	n/a
12.0295	0.075	24059	keystroke_e	e	n/a
12.209	0.045	24418	keystroke_n	n	n/a
12.36	0.09	24720	keystroke_t	t	n/a
12.4795	0.1195	24959	keystroke_e	e	n/a
12.5695	0.0905	25139	keystroke_r	r	n/a
12.869	0.0755	25738	keystroke_p	p	n/a
13.139	0.0605	26278	keystroke_r	r	n/a
13.26	0.0745	26520	keystroke_i	i	n/a
13.4395	0.0605	26879	keystroke_s	s	n/a
13.635	0.045	27270	keystroke_e	e	n/a
13.7845	0.0755	27569	keystroke_Key.space	Key.space	n/a
14.3695	0.046	28739	keystroke_c	c	n/a
14.4745	0.1055	28949	keystroke_a	a	n/a
14.7145	0.061	29429	keystroke_s	s	n/a
14.8355	0.09	29671	keystroke_h	h	n/a
15.075	0.06	30150	keystroke_Key.space	Key.space	n/a
15.39	0.0605	30780	keystroke_p	p	n/a
15.5395	0.046	31079	keystroke_r	r	n/a
15.646	0.0735	31292	keystroke_o	o	n/a
15.8255	0.075	31651	keystroke_v	v	n/a
16.0495	0.061	32099	keystroke_i	i	n/a
16.1855	0.075	32371	keystroke_d	d	n/a
16.29	0.1055	32580	keystroke_e	e	n/a
16.4105	0.06	32821	keystroke_r	r	n/a
16.5445	0.076	33089	keystroke_Key.enter	Key.enter	n/a
16.6275	10.121	33255	prompt	n/a	powder informational potentially membership\n
17.7905	0.0595	35581	keystroke_p	p	n/a
17.9845	0.045	35969	keystroke_o	o	n/a
18.0455	0.0745	36091	keystroke_w	w	n/a
18.195	0.1045	36390	keystroke_e	e	n/a
18.645	0.0905	37290	keystroke_d	d	n/a
18.8255	0.105	37651	keystroke_e	e	n/a
18.9605	0.104	37921	keystroke_r	r	n/a
19.2305	0.0595	38461	keystroke_Key.space	Key.space	n/a
19.6055	0.074	39211	keystroke_i	i	n/a
19.6505	0.12	39301	keystroke_n	n	n/a
19.8605	0.075	39721	keystroke_f	f	n/a
19.9805	0.0745	39961	keystroke_r	r	n/a
20.07	0.1355	40140	keystroke_o	o	n/a
20.2055	0.15	40411	keystroke_m	m	n/a
20.4005	0.105	40801	keystroke_a	a	n/a
20.625	0.06	41250	keystroke_t	t	n/a
20.79	0.1805	41580	keystroke_i	i	n/a
20.82	0.165	41640	keystroke_o	o	n/a
20.9395	0.121	41879	keystroke_n	n	n/a
21.1505	0.074	42301	keystroke_a	a	n/a
21.2995	0.091	42599	keystroke_l	l	n/a
21.645	0.06	43290	keystroke_Key.space	Key.space	n/a
22.0055	0.1045	44011	keystroke_p	p	n/a
22.2295	0.0755	44459	keystroke_o	o	n/a
22.395	0.075	44790	keystroke_t	t	n/a
22.5305	0.09	45061	keystroke_e	e	n/a
22.8155	0.0745	45631	keystroke_n	n	n/a
22.9795	0.091	45959	keystroke_t	t	n/a
23.16	0.075	46320	keystroke_i	i	n/a
23.325	0.0605	46650	keystroke_a	a	n/a
23.4295	0.0755	46859	keystroke_l	l	n/a
23.5805	0.09	47161	keystroke_l	l	n/a
24.105	0.0595	48210	keystroke_y	y	n/a
24.4795	0.0455	48959	keystroke_Key.space	Key.space	n/a
24.915	0.0605	49830	keystroke_m	m	n/a
25.1855	0.0745	50371	keystroke_e	e	n/a
25.335	0.09	50670	keystroke_m	m	n/a
25.59	0.0605	51180	keystroke_b	b	n/a
25.635	0.106	51270	keystroke_e	e	n/a
25.7555	0.0895	51511	keystroke_r	r	n/a
25.965	0.075	51930	keystroke_s	s	n/a
26.0855	0.1045	52171	keystroke_h	h	n/a
26.205	0.0895	52410	keystroke_i	i	n/a
26.46	0.075	52920	keystroke_p	p	n/a
26.685	0.06	53370	keystroke_Key.enter	Key.enter	n/a
26.755	9.982	53510	prompt	n/a	towers contributors similarly casey\n
27.465	0.075	54930	keystroke_t	t	n/a
27.6295	0.0605	55259	keystroke_o	o	n/a
27.7505	0.1345	55501	keystroke_w	w	n/a
27.87	0.1055	55740	keystroke_e	e	n/a
28.0955	0.075	56191	keystroke_r	r	n/a
28.2605	0.0745	56521	keystroke_s	s	n/a
28.4255	0.059	56851	keystroke_Key.space	Key.space	n/a
28.6055	0.089	57211	keystroke_c	c	n/a
28.7255	0.1195	57451	keystroke_o	o	n/a
28.8155	0.105	57631	keystroke_n	n	n/a
29.0395	0.0755	58079	keystroke_t	t	n/a
29.2355	0.06	58471	keystroke_r	r	n/a
29.3555	0.075	58711	keystroke_i	i	n/a
29.6405	0.09	59281	keystroke_b	b	n/a
29.8205	0.075	59641	keystroke_u	u	n/a
30.06	0.075	60120	keystroke_t	t	n/a
30.21	0.12	60420	keystroke_o	o	n/a
30.9	0.0595	61800	keystroke_r	r	n/a
31.125	0.105	62250	keystroke_s	s	n/a
31.365	0.06	62730	keystroke_Key.space	Key.space	n/a
31.485	0.075	62970	keystroke_s	s	n/a
31.62	0.1205	63240	keystroke_i	i	n/a
31.711	0.1345	63422	keystroke_m	m	n/a
31.965	0.09	63930	keystroke_i	i	n/a
32.2505	0.09	64501	keystroke_l	l	n/a
32.4755	0.06	64951	keystroke_a	a	n/a
33.2105	0.074	66421	keystroke_r	r	n/a
34.771	0.0745	69542	keystroke_l	l	n/a
34.965	0.06	69930	keystroke_y	y	n/a
35.07	0.075	70140	keystroke_Key.space	Key.space	n/a
35.82	0.0905	71640	keystroke_c	c	n/a
35.925	0.105	71850	keystroke_a	a	n/a
36.045	0.09	72090	keystroke_s	s	n/a
36.285	0.06	72570	keystroke_e	e	n/a
36.405	0.06	72810	keystroke_y	y	n/a
36.6905	0.045	73381	keystroke_Key.enter	Key.enter	n/a
36.7425	6.8055	73485	prompt	n/a	diabetes severe howard camera\n
37.5605	0.0745	75121	keystroke_d	d	n/a
37.711	0.074	75422	keystroke_i	i	n/a
37.8005	0.0895	75601	keystroke_a	a	n/a
37.965	0.0755	75930	keystroke_b	b	n/a
38.1	0.09	76200	keystroke_e	e	n/a
38.28	0.09	76560	keystroke_t	t	n/a
38.4605	0.06	76921	keystroke_e	e	n/a
38.6705	0.075	77341	keystroke_s	s	n/a
38.8945	0.0605	77789	keystroke_Key.space	Key.space	n/a
39.0905	0.1045	78181	keystroke_s	s	n/a
39.36	0.0905	78720	keystroke_e	e	n/a
39.5695	0.076	79139	keystroke_v	v	n/a
39.7505	0.119	79501	keystroke_e	e	n/a
39.96	0.06	79920	keystroke_r	r	n/a
40.74	0.09	81480	keystroke_e	e	n/a
40.98	0.045	81960	keystroke_Key.space	Key.space	n/a
41.3095	0.06	82619	keystroke_h	h	n/a
41.49	0.075	82980	keystroke_o	o	n/a
41.595	0.105	83190	keystroke_w	w	n/a
41.775	0.09	83550	keystroke_a	a	n/a
41.9395	0.0755	83879	keystroke_r	r	n/a
42.15	0.0905	84300	keystroke_d	d	n/a
42.3455	0.0745	84691	keystroke_Key.space	Key.space	n/a
42.5845	0.09	85169	keystroke_c	c	n/a
42.7795	0.0615	85559	keystroke_a	a	n/a
42.96	0.0755	85920	keystroke_m	m	n/a
43.065	0.075	86130	keystroke_e	e	n/a
43.17	0.06	86340	keystroke_r	r	n/a
43.3055	0.075	86611	keystroke_a	a	n/a
43.47	0.075	86940	keystroke_Key.enter	Key.enter	n/a
43.552	6.0545	87104	prompt	n/a	flooring comments radio labels\n
44.37	0.0455	88740	keystroke_f	f	n/a
44.505	0.075	89010	keystroke_l	l	n/a
44.685	0.06	89370	keystroke_o	o	n/a
44.8055	0.0755	89611	keystroke_o	o	n/a
44.925	0.076	89850	keystroke_r	r	n/a
45.06	0.1205	90120	keystroke_i	i	n/a
45.1205	0.1195	90241	keystroke_n	n	n/a
45.2555	0.0745	90511	keystroke_g	g	n/a
45.405	0.075	90810	keystroke_Key.space	Key.space	n/a
45.7805	0.0745	91561	keystroke_c	c	n/a
45.885	0.1045	91770	keystroke_o	o	n/a
46.0805	0.0895	92161	keystroke_m	m	n/a
46.2445	0.09	92489	keystroke_m	m	n/a
46.3805	0.1055	92761	keystroke_e	e	n/a
46.5005	0.09	93001	keystroke_n	n	n/a
46.6045	0.076	93209	keystroke_t	t	n/a
46.785	0.0755	93570	keystroke_s	s	n/a
47.145	0.075	94290	keystroke_Key.space	Key.space	n/a
47.46	0.1055	94920	keystroke_r	r	n/a
47.595	0.121	95190	keystroke_a	a	n/a
47.85	0.075	95700	keystroke_d	d	n/a
47.9405	0.0745	95881	keystroke_i	i	n/a
48.1205	0.075	96241	keystroke_o	o	n/a
48.3605	0.075	96721	keystroke_Key.space	Key.space	n/a
48.6755	0.09	97351	keystroke_l	l	n/a
48.7955	0.105	97591	keystroke_a	a	n/a
48.9605	0.0745	97921	keystroke_b	b	n/a
49.0955	0.0745	98191	keystroke_e	e	n/a
49.23	0.0755	98460	keystroke_l	l	n/a
49.365	0.075	98730	keystroke_s	s	n/a
49.5305	0.0745	99061	keystroke_Key.enter	Key.enter	n/a
49.6125	10.029	99225	prompt	n/a	presents induced receptor alternative\n
50.67	0.0605	101340	keystroke_p	p	n/a
50.8055	0.09	101611	keystroke_r	r	n/a
50.8805	0.105	101761	keystroke_e	e	n/a
51.1205	0.0595	102241	keystroke_s	s	n/a
51.3005	0.0745	102601	keystroke_e	e	n/a
51.39	0.0605	102780	keystroke_n	n	n/a
51.6005	0.0745	103201	keystroke_t	t	n/a
51.9905	0.06	103981	keystroke_s	s	n/a
52.2455	0.0895	104491	keystroke_Key.space	Key.space	n/a
52.5	0.105	105000	keystroke_i	i	n/a
52.5605	0.1195	105121	keystroke_n	n	n/a
52.77	0.076	105540	keystroke_d	d	n/a
53.01	0.06	106020	keystroke_u	u	n/a
53.146	0.0745	106292	keystroke_c	c	n/a
53.3555	0.0745	106711	keystroke_e	e	n/a
53.685	0.1055	107370	keystroke_s	s	n/a
54.2255	0.0895	108451	keystroke_Key.backspace	Key.backspace	n/a
54.48	0.0755	108960	keystroke_d	d	n/a
54.6445	0.0755	109289	keystroke_Key.space	Key.space	n/a
54.8555	0.105	109711	keystroke_r	r	n/a
54.93	0.12	109860	keystroke_e	e	n/a
55.305	0.0755	110610	keystroke_c	c	n/a
55.5005	0.0745	111001	keystroke_e	e	n/a
56.04	0.075	112080	keystroke_p	p	n/a
56.2505	0.0445	112501	keystroke_t	t	n/a
56.355	0.0755	112710	keystroke_o	o	n/a
56.5055	0.045	113011	keystroke_r	r	n/a
56.67	0.0755	113340	keystroke_Key.space	Key.space	n/a
57.285	0.075	114570	keystroke_a	a	n/a
57.39	0.06	114780	keystroke_l	l	n/a
57.6	0.045	115200	keystroke_t	t	n/a
57.705	0.12	115410	keystroke_e	e	n/a
57.84	0.075	115680	keystroke_r	r	n/a
58.0355	0.0745	116071	keystroke_n	n	n/a
58.14	0.105	116280	keystroke_a	a	n/a
58.35	0.045	116700	keystroke_t	t	n/a
58.8905	0.09	117781	keystroke_i	i	n/a
59.115	0.0755	118230	keystroke_v	v	n/a
59.2795	0.091	118559	keystroke_e	e	n/a
59.595	0.0455	119190	keystroke_Key.enter	Key.enter	n/a
59.649	7.5085	119298	prompt	n/a	termination dive ought renewable\n
60.435	0.06	120870	keystroke_t	t	n/a
60.571	0.0895	121142	keystroke_e	e	n/a
60.63	0.0755	121260	keystroke_r	r	n/a
60.7955	0.09	121591	keystroke_m	m	n/a
60.9905	0.0905	121981	keystroke_i	i	n/a
61.036	0.1045	122072	keystroke_n	n	n/a
61.126	0.0745	122252	keystroke_a	a	n/a
61.2895	0.076	122579	keystroke_t	t	n/a
61.41	0.1805	122820	keystroke_i	i	n/a
61.4555	0.149	122911	keystroke_o	o	n/a
61.5445	0.12	123089	keystroke_n	n	n/a
62.325	0.075	124650	keystroke_Key.space	Key.space	n/a
62.625	0.0905	125250	keystroke_d	d	n/a
62.806	0.0745	125612	keystroke_i	i	n/a
62.9855	0.06	125971	keystroke_v	v	n/a
63.135	0.0605	126270	keystroke_e	e	n/a
63.2395	0.0905	126479	keystroke_Key.space	Key.space	n/a
63.63	0.105	127260	keystroke_o	o	n/a
63.9155	0.06	127831	keystroke_u	u	n/a
64.1105	0.09	128221	keystroke_g	g	n/a
64.23	0.06	128460	keystroke_h	h	n/a
64.29	0.075	128580	keystroke_t	t	n/a
64.515	0.0745	129030	keystroke_Key.space	Key.space	n/a
64.8445	0.106	129689	keystroke_r	r	n/a
64.92	0.1205	129840	keystroke_e	e	n/a
65.1745	0.076	130349	keystroke_n	n	n/a
65.2655	0.0895	130531	keystroke_e	e	n/a
66.225	0.0595	132450	keystroke_w	w	n/a
66.3895	0.091	132779	keystroke_a	a	n/a
66.6005	0.06	133201	keystroke_b	b	n/a
66.8405	0.0745	133681	keystroke_l	l	n/a
66.945	0.09	133890	keystroke_e	e	n/a
67.08	0.0755	134160	keystroke_Key.enter	Key.enter	n/a
67.1625	8.139	134325	prompt	n/a	continuity value seekers differ\n
67.86	0.06	135720	keystroke_c	c	n/a
68.0405	0.105	136081	keystroke_o	o	n/a
68.13	0.165	136260	keystroke_n	n	n/a
68.445	0.0605	136890	keystroke_t	t	n/a
68.596	0.119	137192	keystroke_i	i	n/a
68.67	0.135	137340	keystroke_n	n	n/a
69.51	0.0905	139020	keystroke_u	u	n/a
69.7355	0.075	139471	keystroke_t	t	n/a
69.945	0.0755	139890	keystroke_y	y	n/a
70.6955	0.059	141391	keystroke_Key.space	Key.space	n/a
71.6405	0.06	143281	keystroke_v	v	n/a
71.7595	0.105	143519	keystroke_a	a	n/a
71.9255	0.0895	143851	keystroke_l	l	n/a
72.166	0.0745	144332	keystroke_u	u	n/a
72.2555	0.0745	144511	keystroke_e	e	n/a
72.42	0.06	144840	keystroke_Key.space	Key.space	n/a
73.0505	0.075	146101	keystroke_s	s	n/a
73.245	0.045	146490	keystroke_e	e	n/a
73.3655	0.0745	146731	keystroke_e	e	n/a
73.485	0.0895	146970	keystroke_k	k	n/a
73.7405	0.12	147481	keystroke_e	e	n/a
73.8905	0.09	147781	keystroke_r	r	n/a
74.07	0.061	148140	keystroke_s	s	n/a
74.235	0.075	148470	keystroke_Key.space	Key.space	n/a
74.506	0.074	149012	keystroke_d	d	n/a
74.6705	0.0445	149341	keystroke_i	i	n/a
74.73	0.0755	149460	keystroke_f	f	n/a
74.896	0.0595	149792	keystroke_f	f	n/a
75	0.1355	150000	keystroke_e	e	n/a
75.1055	0.0595	150211	keystroke_r	r	n/a
75.21	0.09	150420	keystroke_Key.enter	Key.enter	n/a
75.3045	8.6845	150609	prompt	n/a	gzip mississippi walks qatar\n
76.9355	0.015	153871	keystroke_g	g	n/a
77.0705	0.075	154141	keystroke_z	z	n/a
77.2205	0.075	154441	keystroke_i	i	n/a
77.4455	0.075	154891	keystroke_p	p	n/a
77.8955	0.045	155791	keystroke_Key.space	Key.space	n/a
78.225	0.075	156450	keystroke_m	m	n/a
78.42	0.075	156840	keystroke_i	i	n/a
78.6305	0.06	157261	keystroke_s	s	n/a
78.795	0.075	157590	keystroke_s	s	n/a
79.0355	0.09	158071	keystroke_i	i	n/a
79.1705	0.074	158341	keystroke_s	s	n/a
79.3345	0.061	158669	keystroke_s	s	n/a
79.6205	0.089	159241	keystroke_i	i	n/a
79.9505	0.075	159901	keystroke_p	p	n/a
80.1155	0.06	160231	keystroke_p	p	n/a
80.3405	0.06	160681	keystroke_i	i	n/a
80.61	0.075	161220	keystroke_Key.space	Key.space	n/a
80.925	0.09	161850	keystroke_w	w	n/a
81.061	0.104	162122	keystroke_a	a	n/a
81.1805	0.0745	162361	keystroke_l	l	n/a
81.3755	0.06	162751	keystroke_k	k	n/a
81.45	0.06	162900	keystroke_s	s	n/a
81.615	0.0755	163230	keystroke_Key.space	Key.space	n/a
82.5605	0.06	165121	keystroke_q	q	n/a
82.7705	0.0745	165541	keystroke_a	a	n/a
83.04	0.0605	166080	keystroke_t	t	n/a
83.205	0.1355	166410	keystroke_a	a	n/a
83.536	0.089	167072	keystroke_r	r	n/a
83.8805	0.1045	167761	keystroke_Key.enter	Key.enter	n/a
83.994	6.2325	167988	prompt	n/a	moves apartment jesus moon\n
84.6755	0.0445	169351	keystroke_m	m	n/a
84.78	0.0905	169560	keystroke_o	o	n/a
84.9155	0.045	169831	keystroke_v	v	n/a
85.0205	0.1045	170041	keystroke_e	e	n/a
85.291	0.059	170582	keystroke_s	s	n/a
85.4555	0.0745	170911	keystroke_Key.space	Key.space	n/a
85.59	0.09	171180	keystroke_a	a	n/a
85.77	0.0755	171540	keystroke_p	p	n/a
85.965	0.09	171930	keystroke_a	a	n/a
86.1745	0.0605	172349	keystroke_r	r	n/a
86.356	0.0445	172712	keystroke_t	t	n/a
86.4755	0.09	172951	keystroke_m	m	n/a
86.5795	0.0605	173159	keystroke_e	e	n/a
86.67	0.09	173340	keystroke_n	n	n/a
86.7305	0.074	173461	keystroke_t	t	n/a
87.09	0.0155	174180	keystroke_Key.space	Key.space	n/a
87.5855	0.09	175171	keystroke_j	j	n/a
88.035	0.0455	176070	keystroke_u	u	n/a
88.395	0.09	176790	keystroke_Key.backspace	Key.backspace	n/a
88.5005	0.06	177001	keystroke_e	e	n/a
88.7255	0.06	177451	keystroke_s	s	n/a
88.8455	0.0745	177691	keystroke_u	u	n/a
88.9645	0.0605	177929	keystroke_s	s	n/a
89.1605	0.074	178321	keystroke_Key.space	Key.space	n/a
89.6395	0.06	179279	keystroke_m	m	n/a
89.8045	0.0755	179609	keystroke_o	o	n/a
89.9255	0.135	179851	keystroke_o	o	n/a
89.9995	0.135	179999	keystroke_n	n	n/a
90.1355	0.0895	180271	keystroke_Key.enter	Key.enter	n/a
90.2305	8.4415	180461	prompt	n/a	prefix exports peeing keywords\n
91.1405	0.0595	182281	keystroke_p	p	n/a
91.26	0.1055	182520	keystroke_r	r	n/a
91.3355	0.1045	182671	keystroke_e	e	n/a
91.665	0.0755	183330	keystroke_f	f	n/a
91.845	0.0755	183690	keystroke_i	i	n/a
92.1155	0.06	184231	keystroke_x	x	n/a
92.22	0.0745	184440	keystroke_Key.space	Key.space	n/a
92.4305	0.09	184861	keystroke_m	m	n/a
92.805	0.0895	185610	keystroke_Key.backspace	Key.backspace	n/a
92.97	0.0605	185940	keystroke_e	e	n/a
93.18	0.0605	186360	keystroke_s	s	n/a
93.3155	0.09	186631	keystroke_p	p	n/a
93.5255	0.075	187051	keystroke_o	o	n/a
93.6155	0.075	187231	keystroke_r	r	n/a
93.7955	0.075	187591	keystroke_t	t	n/a
93.9905	0.06	187981	keystroke_s	s	n/a
94.2	0.075	188400	keystroke_Key.space	Key.space	n/a
94.6505	0.045	189301	keystroke_p	p	n/a
94.7105	0.06	189421	keystroke_e	e	n/a
94.8455	0.105	189691	keystroke_e	e	n/a
94.9655	0.09	189931	keystroke_i	i	n/a
95.0105	0.12	190021	keystroke_n	n	n/a
95.1155	0.075	190231	keystroke_g	g	n/a
95.2505	0.075	190501	keystroke_Key.space	Key.space	n/a
95.7155	0.075	191431	keystroke_k	k	n/a
95.8355	0.0745	191671	keystroke_e	e	n/a
96.06	0.09	192120	keystroke_y	y	n/a
96.24	0.0905	192480	keystroke_w	w	n/a
96.4345	0.076	192869	keystroke_a	a	n/a
96.631	0.075	193262	keystroke_r	r	n/a
97.1555	0.1045	194311	keystroke_Key.backspace	Key.backspace	n/a
97.4695	0.09	194939	keystroke_Key.backspace	Key.backspace	n/a
98.0255	0.0755	196051	keystroke_o	o	n/a
98.1605	0.075	196321	keystroke_r	r	n/a
98.3705	0.105	196741	keystroke_d	d	n/a
98.4305	0.105	196861	keystroke_s	s	n/a
98.5945	0.0755	197189	keystroke_Key.enter	Key.enter	n/a
98.677	10.4505	197354	prompt	n/a	mature pentium tone utility\n
99.391	0.0595	198782	keystroke_m	m	n/a
99.405	0.105	198810	keystroke_a	a	n/a
99.6005	0.0745	199201	keystroke_t	t	n/a
99.765	0.06	199530	keystroke_u	u	n/a
99.826	0.164	199652	keystroke_r	r	n/a
99.96	0.0905	199920	keystroke_e	e	n/a
100.08	0.0745	200160	keystroke_Key.space	Key.space	n/a
100.6205	0.0605	201241	keystroke_p	p	n/a
101.5955	0.06	203191	keystroke_e	e	n/a
101.8645	0.076	203729	keystroke_n	n	n/a
102.1205	0.12	204241	keystroke_t	t	n/a
102.8705	0.06	205741	keystroke_i	i	n/a
103.0205	0.075	206041	keystroke_u	u	n/a
103.2005	0.075	206401	keystroke_m	m	n/a
103.4105	0.075	206821	keystroke_Key.space	Key.space	n/a
103.9205	0.075	207841	keystroke_t	t	n/a
104.0855	0.06	208171	keystroke_o	o	n/a
104.2055	0.105	208411	keystroke_n	n	n/a
104.3255	0.0595	208651	keystroke_e	e	n/a
104.4455	0.075	208891	keystroke_Key.space	Key.space	n/a
104.6855	0.105	209371	keystroke_u	u	n/a
104.911	0.0745	209822	keystroke_n	n	n/a
105.5405	0.06	211081	keystroke_t	t	n/a
105.7055	0.06	211411	keystroke_i	i	n/a
106.3505	0.06	212701	keystroke_=	=	n/a
106.3655	0.03	212731	keystroke_Key.backspace	Key.backspace	n/a
106.4855	0.09	212971	keystroke_=	=	n/a
106.695	0.0755	213390	keystroke_Key.backspace	Key.backspace	n/a
106.8755	0.0895	213751	keystroke_Key.backspace	Key.backspace	n/a
107.0255	0.09	214051	keystroke_Key.backspace	Key.backspace	n/a
107.5205	0.075	215041	keystroke_Key.backspace	Key.backspace	n/a
107.791	0.075	215582	keystroke_t	t	n/a
107.925	0.0745	215850	keystroke_i	i	n/a
108.1655	0.0755	216331	keystroke_l	l	n/a
108.3605	0.06	216721	keystroke_i	i	n/a
108.451	0.089	216902	keystroke_t	t	n/a
108.645	0.075	217290	keystroke_y	y	n/a
109.0655	0.0595	218131	keystroke_Key.enter	Key.enter	n/a
109.1325	9.2495	218265	prompt	n/a	rewards fixtures thomson woods\n
109.9045	0.106	219809	keystroke_r	r	n/a
109.981	0.1045	219962	keystroke_e	e	n/a
110.2055	0.074	220411	keystroke_w	w	n/a
110.4305	0.044	220861	keystroke_a	a	n/a
110.8955	0.06	221791	keystroke_r	r	n/a
111.1205	0.135	222241	keystroke_d	d	n/a
111.2255	0.105	222451	keystroke_s	s	n/a
111.6005	0.075	223201	keystroke_Key.space	Key.space	n/a
111.9755	0.06	223951	keystroke_f	f	n/a
112.155	0.075	224310	keystroke_i	i	n/a
112.4405	0.06	224881	keystroke_x	x	n/a
112.71	0.09	225420	keystroke_t	t	n/a
112.815	0.075	225630	keystroke_u	u	n/a
112.966	0.104	225932	keystroke_r	r	n/a
113.04	0.135	226080	keystroke_e	e	n/a
113.31	0.0755	226620	keystroke_s	s	n/a
113.55	0.0755	227100	keystroke_Key.space	Key.space	n/a
113.866	0.0745	227732	keystroke_t	t	n/a
114.1355	0.045	228271	keystroke_h	h	n/a
114.2695	0.12	228539	keystroke_o	o	n/a
114.375	0.1355	228750	keystroke_m	m	n/a
114.6595	0.091	229319	keystroke_p	p	n/a
114.7645	0.076	229529	keystroke_s	s	n/a
114.885	0.1655	229770	keystroke_o	o	n/a
115.4855	0.1045	230971	keystroke_Key.backspace	Key.backspace	n/a
115.8145	0.106	231629	keystroke_Key.backspace	Key.backspace	n/a
116.1755	0.06	232351	keystroke_Key.backspace	Key.backspace	n/a
116.385	0.075	232770	keystroke_s	s	n/a
116.49	0.09	232980	keystroke_o	o	n/a
116.6705	0.075	233341	keystroke_n	n	n/a
117.09	0.06	234180	keystroke_Key.space	Key.space	n/a
117.6	0.0755	235200	keystroke_w	w	n/a
117.7955	0.0595	235591	keystroke_o	o	n/a
117.915	0.105	235830	keystroke_o	o	n/a
118.0055	0.1195	236011	keystroke_d	d	n/a
118.11	0.0905	236220	keystroke_s	s	n/a
118.305	0.075	236610	keystroke_Key.enter	Key.enter	n/a
118.32	0.045	236640	keystroke_'	'	n/a
118.3865	9.2655	236773	prompt	n/a	ireland branches fame greetings\n
119.1905	0.0745	238381	keystroke_i	i	n/a
119.295	0.15	238590	keystroke_r	r	n/a
119.415	0.1205	238830	keystroke_e	e	n/a
119.655	0.0905	239310	keystroke_l	l	n/a
119.7455	0.0595	239491	keystroke_a	a	n/a
119.9115	0.103	239823	keystroke_n	n	n/a
120.0605	0.075	240121	keystroke_d	d	n/a
120.225	0.0605	240450	keystroke_Key.space	Key.space	n/a
121.0045	0.061	242009	keystroke_b	b	n/a
121.0955	0.09	242191	keystroke_r	r	n/a
121.3055	0.06	242611	keystroke_n	n	n/a
121.44	0.12	242880	keystroke_a	a	n/a
121.725	0.09	243450	keystroke_c	c	n/a
121.86	0.06	243720	keystroke_h	h	n/a
121.95	0.075	243900	keystroke_e	e	n/a
122.1755	0.045	244351	keystroke_s	s	n/a
122.73	0.0905	245460	keystroke_Key.backspace	Key.backspace	n/a
122.91	0.045	245820	keystroke_Key.backspace	Key.backspace	n/a
123.0155	0.0895	246031	keystroke_Key.backspace	Key.backspace	n/a
123.165	0.0905	246330	keystroke_Key.backspace	Key.backspace	n/a
123.315	0.09	246630	keystroke_Key.backspace	Key.backspace	n/a
123.4805	0.105	246961	keystroke_Key.backspace	Key.backspace	n/a
123.7505	0.075	247501	keystroke_a	a	n/a
123.96	0.0905	247920	keystroke_n	n	n/a
124.095	0.075	248190	keystroke_c	c	n/a
124.215	0.075	248430	keystroke_h	h	n/a
124.305	0.0605	248610	keystroke_e	e	n/a
124.4705	0.075	248941	keystroke_s	s	n/a
124.6355	0.0745	249271	keystroke_Key.space	Key.space	n/a
125.6395	0.06	251279	keystroke_f	f	n/a
125.7595	0.09	251519	keystroke_a	a	n/a
125.8945	0.061	251789	keystroke_m	m	n/a
126	0.015	252000	keystroke_e	e	n/a
126.075	0.0745	252150	keystroke_Key.space	Key.space	n/a
126.2995	0.091	252599	keystroke_g	g	n/a
126.465	0.075	252930	keystroke_r	r	n/a
126.6455	0.06	253291	keystroke_e	e	n/a
126.7655	0.075	253531	keystroke_e	e	n/a
126.9295	0.061	253859	keystroke_t	t	n/a
126.9755	0.12	253951	keystroke_i	i	n/a
127.0355	0.135	254071	keystroke_n	n	n/a
127.185	0.03	254370	keystroke_g	g	n/a
127.3505	0.075	254701	keystroke_s	s	n/a
127.5895	0.061	255179	keystroke_Key.enter	Key.enter	n/a
127.6575	6.8945	255315	prompt	n/a	rates addition navy merchants\n
128.3545	0.0905	256709	keystroke_r	r	n/a
128.49	0.0755	256980	keystroke_a	a	n/a
128.7	0.12	257400	keystroke_t	t	n/a
128.82	0.105	257640	keystroke_e	e	n/a
129.39	0.1055	258780	keystroke_s	s	n/a
129.915	0.06	259830	keystroke_Key.space	Key.space	n/a
129.976	0.104	259952	keystroke_a	a	n/a
130.1705	0.0595	260341	keystroke_d	d	n/a
130.305	0.0895	260610	keystroke_d	d	n/a
130.4105	0.1045	260821	keystroke_i	i	n/a
130.56	0.0605	261120	keystroke_t	t	n/a
130.65	0.1655	261300	keystroke_i	i	n/a
130.71	0.12	261420	keystroke_o	o	n/a
130.8005	0.105	261601	keystroke_n	n	n/a
131.16	0.06	262320	keystroke_Key.space	Key.space	n/a
131.7005	0.06	263401	keystroke_n	n	n/a
131.7605	0.09	263521	keystroke_a	a	n/a
132.03	0.105	264060	keystroke_v	v	n/a
132.195	0.1055	264390	keystroke_y	y	n/a
132.48	0.075	264960	keystroke_Key.space	Key.space	n/a
132.915	0.075	265830	keystroke_m	m	n/a
133.095	0.105	266190	keystroke_e	e	n/a
133.245	0.09	266490	keystroke_r	r	n/a
133.5155	0.0745	267031	keystroke_c	c	n/a
133.62	0.09	267240	keystroke_h	h	n/a
133.74	0.105	267480	keystroke_a	a	n/a
133.83	0.075	267660	keystroke_n	n	n/a
134.04	0.075	268080	keystroke_t	t	n/a
134.25	0.06	268500	keystroke_s	s	n/a
134.46	0.09	268920	keystroke_Key.enter	Key.enter	n/a
134.5565	7.7355	269113	prompt	n/a	advertisers welcome rocket presenting\n
135.1495	0.106	270299	keystroke_a	a	n/a
135.3605	0.12	270721	keystroke_d	d	n/a
136.0505	0.0745	272101	keystroke_v	v	n/a
136.215	0.105	272430	keystroke_e	e	n/a
136.305	0.0905	272610	keystroke_r	r	n/a
136.5305	0.044	273061	keystroke_t	t	n/a
136.65	0.0745	273300	keystroke_i	i	n/a
136.7705	0.0745	273541	keystroke_s	s	n/a
136.965	0.075	273930	keystroke_e	e	n/a
137.0705	0.105	274141	keystroke_r	r	n/a
137.265	0.075	274530	keystroke_s	s	n/a
137.49	0.06	274980	keystroke_Key.space	Key.space	n/a
137.685	0.06	275370	keystroke_w	w	n/a
137.79	0.0905	275580	keystroke_e	e	n/a
137.955	0.09	275910	keystroke_l	l	n/a
138.2105	0.104	276421	keystroke_c	c	n/a
138.27	0.135	276540	keystroke_o	o	n/a
138.3455	0.134	276691	keystroke_m	m	n/a
138.5855	0.029	277171	keystroke_e	e	n/a
138.735	0.0745	277470	keystroke_Key.space	Key.space	n/a
139.126	0.0445	278252	keystroke_r	r	n/a
139.2455	0.09	278491	keystroke_o	o	n/a
139.3955	0.0895	278791	keystroke_c	c	n/a
139.5155	0.0895	279031	keystroke_k	k	n/a
139.62	0.09	279240	keystroke_e	e	n/a
139.83	0.075	279660	keystroke_t	t	n/a
140.01	0.075	280020	keystroke_Key.space	Key.space	n/a
140.4155	0.0595	280831	keystroke_p	p	n/a
140.5355	0.1195	281071	keystroke_r	r	n/a
140.6405	0.105	281281	keystroke_e	e	n/a
140.8655	0.06	281731	keystroke_s	s	n/a
141.0755	0.09	282151	keystroke_e	e	n/a
141.1805	0.059	282361	keystroke_n	n	n/a
141.39	0.09	282780	keystroke_t	t	n/a
141.63	0.0745	283260	keystroke_i	i	n/a
141.81	0.09	283620	keystroke_n	n	n/a
141.945	0.09	283890	keystroke_f	f	n/a
142.215	0.0745	284430	keystroke_Key.enter	Key.enter	n/a
142.297	11.5445	284594	prompt	n/a	stuff versus sleeps physician\n
143.1745	0.061	286349	keystroke_s	s	n/a
143.3695	0.0755	286739	keystroke_t	t	n/a
143.55	0.075	287100	keystroke_u	u	n/a
143.7605	0.074	287521	keystroke_f	f	n/a
143.925	0.075	287850	keystroke_f	f	n/a
144.105	0.0755	288210	keystroke_Key.space	Key.space	n/a
144.5095	0.0605	289019	keystroke_v	v	n/a
144.63	0.1055	289260	keystroke_e	e	n/a
144.75	0.075	289500	keystroke_r	r	n/a
144.93	0.06	289860	keystroke_s	s	n/a
145.0495	0.0755	290099	keystroke_u	u	n/a
145.1555	0.089	290311	keystroke_s	s	n/a
145.41	0.06	290820	keystroke_e	e	n/a
146.13	0.105	292260	keystroke_Key.backspace	Key.backspace	n/a
146.31	0.12	292620	keystroke_Key.backspace	Key.backspace	n/a
146.5805	0.0745	293161	keystroke_e	e	n/a
146.76	0.075	293520	keystroke_s	s	n/a
146.895	0.06	293790	keystroke_Key.space	Key.space	n/a
147.285	0.0595	294570	keystroke_Key.backspace	Key.backspace	n/a
147.4045	0.1055	294809	keystroke_Key.backspace	Key.backspace	n/a
147.5395	0.075	295079	keystroke_Key.backspace	Key.backspace	n/a
147.5995	0.091	295199	keystroke_s	s	n/a
148.6505	0.06	297301	keystroke_Key.space	Key.space	n/a
148.9055	0.075	297811	keystroke_s	s	n/a
149.0555	0.074	298111	keystroke_l	l	n/a
149.1595	0.045	298319	keystroke_e	e	n/a
149.2945	0.046	298589	keystroke_e	e	n/a
149.3695	0.0765	298739	keystroke_p	p	n/a
149.4755	0.059	298951	keystroke_s	s	n/a
149.5945	0.06	299189	keystroke_Key.space	Key.space	n/a
150.105	0.0455	300210	keystroke_p	p	n/a
150.435	0.0755	300870	keystroke_y	y	n/a
150.945	0.09	301890	keystroke_Key.backspace	Key.backspace	n/a
151.8	0.0605	303600	keystroke_h	h	n/a
151.965	0.075	303930	keystroke_y	y	n/a
152.0845	0.121	304169	keystroke_s	s	n/a
152.5495	0.075	305099	keystroke_i	i	n/a
152.6695	0.091	305339	keystroke_c	c	n/a
152.8205	0.089	305641	keystroke_i	i	n/a
152.9395	0.091	305879	keystroke_a	a	n/a
153.4205	0.089	306841	keystroke_n	n	n/a
153.7645	0.075	307529	keystroke_Key.enter	Key.enter	n/a
153.8465	7.736	307693	prompt	n/a	camcorders playlist cursor introduces\n
154.59	0.06	309180	keystroke_c	c	n/a
154.845	0.075	309690	keystroke_a	a	n/a
154.98	0.06	309960	keystroke_m	m	n/a
155.235	0.0755	310470	keystroke_c	c	n/a
155.3405	0.075	310681	keystroke_o	o	n/a
155.4895	0.075	310979	keystroke_r	r	n/a
155.7005	0.06	311401	keystroke_d	d	n/a
155.8195	0.136	311639	keystroke_e	e	n/a
155.94	0.045	311880	keystroke_r	r	n/a
156.1055	0.045	312211	keystroke_s	s	n/a
156.2555	0.075	312511	keystroke_Key.space	Key.space	n/a
156.48	0.0905	312960	keystroke_p	p	n/a
156.6005	0.105	313201	keystroke_l	l	n/a
156.75	0.0745	313500	keystroke_a	a	n/a
156.8995	0.061	313799	keystroke_y	y	n/a
157.155	0.06	314310	keystroke_l	l	n/a
157.335	0.06	314670	keystroke_i	i	n/a
157.396	0.089	314792	keystroke_s	s	n/a
157.605	0.06	315210	keystroke_t	t	n/a
157.74	0.09	315480	keystroke_Key.space	Key.space	n/a
158.04	0.075	316080	keystroke_c	c	n/a
158.2055	0.0755	316411	keystroke_u	u	n/a
158.3845	0.0605	316769	keystroke_r	r	n/a
158.581	0.0745	317162	keystroke_s	s	n/a
158.775	0.0755	317550	keystroke_o	o	n/a
159.0005	0.12	318001	keystroke_r	r	n/a
159.345	0.0595	318690	keystroke_Key.space	Key.space	n/a
159.9155	0.09	319831	keystroke_i	i	n/a
160.02	0.1045	320040	keystroke_n	n	n/a
160.185	0.1195	320370	keystroke_t	t	n/a
160.3205	0.09	320641	keystroke_r	r	n/a
160.5455	0.075	321091	keystroke_o	o	n/a
160.7555	0.075	321511	keystroke_d	d	n/a
160.9055	0.06	321811	keystroke_u	u	n/a
161.0705	0.06	322141	keystroke_c	c	n/a
161.1905	0.075	322381	keystroke_e	e	n/a
161.385	0.045	322770	keystroke_s	s	n/a
161.505	0.075	323010	keystroke_Key.enter	Key.enter	n/a
161.589	9.278	323178	prompt	n/a	spectacular jackets discs breathing\n
162.1955	0.075	324391	keystroke_s	s	n/a
162.4355	0.06	324871	keystroke_p	p	n/a
162.54	0.06	325080	keystroke_e	e	n/a
162.7805	0.0595	325561	keystroke_c	c	n/a
162.991	0.059	325982	keystroke_t	t	n/a
163.17	0.075	326340	keystroke_a	a	n/a
163.3505	0.06	326701	keystroke_t	t	n/a
164.19	0.105	328380	keystroke_Key.backspace	Key.backspace	n/a
164.31	0.09	328620	keystroke_c	c	n/a
164.91	0.06	329820	keystroke_u	u	n/a
165.136	0.074	330272	keystroke_l	l	n/a
165.3	0.106	330600	keystroke_a	a	n/a
165.481	0.134	330962	keystroke_r	r	n/a
165.7805	0.0745	331561	keystroke_Key.space	Key.space	n/a
166.0505	0.06	332101	keystroke_j	j	n/a
166.111	0.1045	332222	keystroke_a	a	n/a
166.29	0.0905	332580	keystroke_c	c	n/a
166.41	0.076	332820	keystroke_k	k	n/a
166.5005	0.0895	333001	keystroke_e	e	n/a
166.6805	0.0745	333361	keystroke_t	t	n/a
166.92	0.0905	333840	keystroke_s	s	n/a
167.0555	0.089	334111	keystroke_Key.space	Key.space	n/a
167.565	0.0595	335130	keystroke_d	d	n/a
167.7005	0.06	335401	keystroke_i	i	n/a
167.7755	0.075	335551	keystroke_s	s	n/a
167.9405	0.06	335881	keystroke_c	c	n/a
168.0745	0.061	336149	keystroke_k	k	n/a
168.1655	0.075	336331	keystroke_s	s	n/a
168.4495	0.0455	336899	keystroke_Key.backspace	Key.backspace	n/a
168.5405	0.105	337081	keystroke_Key.backspace	Key.backspace	n/a
168.6305	0.0595	337261	keystroke_s	s	n/a
168.855	0.0605	337710	keystroke_Key.space	Key.space	n/a
169.695	0.045	339390	keystroke_b	b	n/a
169.7855	0.1345	339571	keystroke_r	r	n/a
169.8755	0.1345	339751	keystroke_e	e	n/a
169.98	0.105	339960	keystroke_a	a	n/a
170.19	0.0605	340380	keystroke_t	t	n/a
170.265	0.0605	340530	keystroke_h	h	n/a
170.4	0.135	340800	keystroke_i	i	n/a
170.49	0.1195	340980	keystroke_n	n	n/a
170.5795	0.0905	341159	keystroke_g	g	n/a
170.7905	0.0745	341581	keystroke_Key.enter	Key.enter	n/a
170.871	6.6705	341742	prompt	n/a	exception device outputs cradle\n
171.5855	0.0745	343171	keystroke_e	e	n/a
171.9005	0.09	343801	keystroke_x	x	n/a
172.0955	0.0745	344191	keystroke_c	c	n/a
172.2155	0.105	344431	keystroke_e	e	n/a
172.3655	0.12	344731	keystroke_p	p	n/a
172.5005	0.075	345001	keystroke_t	t	n/a
172.6205	0.0745	345241	keystroke_i	i	n/a
172.7705	0.12	345541	keystroke_o	o	n/a
172.8755	0.1195	345751	keystroke_n	n	n/a
173.265	0.0605	346530	keystroke_Key.space	Key.space	n/a
173.5345	0.076	347069	keystroke_d	d	n/a
173.655	0.105	347310	keystroke_e	e	n/a
173.8655	0.045	347731	keystroke_v	v	n/a
174	0.0755	348000	keystroke_i	i	n/a
174.24	0.075	348480	keystroke_c	c	n/a
174.375	0.075	348750	keystroke_e	e	n/a
174.495	0.075	348990	keystroke_Key.space	Key.space	n/a
174.9295	0.0755	349859	keystroke_o	o	n/a
175.1255	0.06	350251	keystroke_u	u	n/a
175.2305	0.075	350461	keystroke_t	t	n/a
175.395	0.075	350790	keystroke_p	p	n/a
175.6195	0.0755	351239	keystroke_u	u	n/a
175.7095	0.076	351419	keystroke_t	t	n/a
175.966	0.0895	351932	keystroke_s	s	n/a
176.1895	0.0755	352379	keystroke_Key.space	Key.space	n/a
176.4295	0.061	352859	keystroke_c	c	n/a
176.6705	0.09	353341	keystroke_r	r	n/a
176.8805	0.105	353761	keystroke_a	a	n/a
177.12	0.06	354240	keystroke_d	d	n/a
177.2555	0.09	354511	keystroke_l	l	n/a
177.36	0.0605	354720	keystroke_e	e	n/a
177.465	0.075	354930	keystroke_Key.enter	Key.enter	n/a
177.547	8.215	355094	prompt	n/a	attendance cake mcdonald brooklyn\n
178.216	0.0745	356432	keystroke_a	a	n/a
178.44	0.0605	356880	keystroke_t	t	n/a
178.561	0.074	357122	keystroke_t	t	n/a
178.6955	0.09	357391	keystroke_e	e	n/a
178.89	0.06	357780	keystroke_n	n	n/a
179.1155	0.0745	358231	keystroke_d	d	n/a
179.2505	0.0895	358501	keystroke_e	e	n/a
179.385	0.0755	358770	keystroke_n	n	n/a
179.64	0.0605	359280	keystroke_c	c	n/a
179.7905	0.06	359581	keystroke_e	e	n/a
179.94	0.0605	359880	keystroke_Key.space	Key.space	n/a
180.6295	0.1955	361259	keystroke_c	c	n/a
180.8405	0.0145	361681	keystroke_a	a	n/a
180.9	0.135	361800	keystroke_k	k	n/a
181.035	0.0905	362070	keystroke_e	e	n/a
181.2605	0.074	362521	keystroke_Key.space	Key.space	n/a
182.145	0.06	364290	keystroke_m	m	n/a
182.3255	0.045	364651	keystroke_c	c	n/a
182.6405	0.06	365281	keystroke_d	d	n/a
182.7745	0.076	365549	keystroke_o	o	n/a
183.0155	0.09	366031	keystroke_n	n	n/a
183.18	0.0905	366360	keystroke_a	a	n/a
183.3155	0.0745	366631	keystroke_l	l	n/a
183.5255	0.075	367051	keystroke_d	d	n/a
183.7955	0.0445	367591	keystroke_Key.space	Key.space	n/a
184.3205	0.06	368641	keystroke_b	b	n/a
184.4855	0.045	368971	keystroke_r	r	n/a
184.5895	0.06	369179	keystroke_o	o	n/a
184.7105	0.1195	369421	keystroke_o	o	n/a
184.8155	0.09	369631	keystroke_k	k	n/a
185.025	0.09	370050	keystroke_l	l	n/a
185.2955	0.0595	370591	keystroke_y	y	n/a
185.52	0.0605	371040	keystroke_n	n	n/a
185.7005	0.0595	371401	keystroke_Key.enter	Key.enter	n/a
185.774	7.0975	371548	prompt	n/a	divorce rome class sudan\n
186.465	0.06	372930	keystroke_d	d	n/a
186.645	0.06	373290	keystroke_i	i	n/a
187.1405	0.075	374281	keystroke_=	=	n/a
187.2755	0.075	374551	keystroke_v	v	n/a
187.4705	0.0745	374941	keystroke_Key.backspace	Key.backspace	n/a
187.62	0.075	375240	keystroke_Key.backspace	Key.backspace	n/a
187.74	0.075	375480	keystroke_Key.backspace	Key.backspace	n/a
187.8005	0.09	375601	keystroke_v	v	n/a
188.43	0.075	376860	keystroke_Key.backspace	Key.backspace	n/a
188.6705	0.06	377341	keystroke_i	i	n/a
188.7905	0.075	377581	keystroke_v	v	n/a
189.0605	0.0895	378121	keystroke_o	o	n/a
189.1645	0.075	378329	keystroke_r	r	n/a
189.42	0.075	378840	keystroke_c	c	n/a
189.5545	0.091	379109	keystroke_e	e	n/a
189.8245	0.06	379649	keystroke_Key.space	Key.space	n/a
190.155	0.09	380310	keystroke_r	r	n/a
190.305	0.075	380610	keystroke_o	o	n/a
190.3655	0.1345	380731	keystroke_m	m	n/a
190.485	0.075	380970	keystroke_e	e	n/a
190.62	0.0905	381240	keystroke_Key.space	Key.space	n/a
190.995	0.0605	381990	keystroke_c	c	n/a
191.115	0.09	382230	keystroke_l	l	n/a
191.2205	0.075	382441	keystroke_a	a	n/a
191.3705	0.059	382741	keystroke_s	s	n/a
191.5505	0.045	383101	keystroke_s	s	n/a
191.6855	0.09	383371	keystroke_Key.space	Key.space	n/a
191.835	0.091	383670	keystroke_s	s	n/a
192.0305	0.0595	384061	keystroke_u	u	n/a
192.135	0.091	384270	keystroke_d	d	n/a
192.4355	0.09	384871	keystroke_a	a	n/a
192.5705	0.075	385141	keystroke_n	n	n/a
192.7955	0.0745	385591	keystroke_Key.enter	Key.enter	n/a
192.875	6.9715	385750	prompt	n/a	astronomy cape netherlands ottawa\n
193.5755	0.0895	387151	keystroke_a	a	n/a
193.7705	0.0745	387541	keystroke_s	s	n/a
194.01	0.06	388020	keystroke_t	t	n/a
194.1445	0.061	388289	keystroke_r	r	n/a
194.265	0.1045	388530	keystroke_o	o	n/a
194.3545	0.121	388709	keystroke_n	n	n/a
194.565	0.1195	389130	keystroke_o	o	n/a
194.805	0.1645	389610	keystroke_m	m	n/a
195.15	0.1045	390300	keystroke_y	y	n/a
195.5255	0.0595	391051	keystroke_Key.space	Key.space	n/a
195.795	0.09	391590	keystroke_c	c	n/a
195.945	0.06	391890	keystroke_a	a	n/a
196.095	0.06	392190	keystroke_p	p	n/a
196.215	0.105	392430	keystroke_e	e	n/a
196.395	0.06	392790	keystroke_Key.space	Key.space	n/a
196.8155	0.0595	393631	keystroke_n	n	n/a
196.89	0.0755	393780	keystroke_e	e	n/a
197.055	0.075	394110	keystroke_t	t	n/a
197.1755	0.0745	394351	keystroke_h	h	n/a
197.265	0.0905	394530	keystroke_e	e	n/a
197.3405	0.074	394681	keystroke_r	r	n/a
197.5655	0.045	395131	keystroke_l	l	n/a
197.6115	0.104	395223	keystroke_a	a	n/a
197.8505	0.059	395701	keystroke_n	n	n/a
197.9405	0.09	395881	keystroke_d	d	n/a
198.001	0.12	396002	keystroke_s	s	n/a
198.4795	0.0755	396959	keystroke_Key.space	Key.space	n/a
198.8095	0.06	397619	keystroke_o	o	n/a
198.96	0.0605	397920	keystroke_t	t	n/a
199.08	0.075	398160	keystroke_t	t	n/a
199.26	0.0905	398520	keystroke_a	a	n/a
199.4545	0.075	398909	keystroke_w	w	n/a
199.5905	0.09	399181	keystroke_a	a	n/a
199.7555	0.089	399511	keystroke_Key.enter	Key.enter	n/a
199.8575	8.899	399715	prompt	n/a	televisions combo can examining\n
200.6405	0.0895	401281	keystroke_t	t	n/a
200.775	0.075	401550	keystroke_e	e	n/a
200.9405	0.104	401881	keystroke_l	l	n/a
201.0305	0.075	402061	keystroke_e	e	n/a
201.3155	0.06	402631	keystroke_v	v	n/a
201.5105	0.075	403021	keystroke_i	i	n/a
201.6455	0.074	403291	keystroke_s	s	n/a
201.7345	0.18	403469	keystroke_i	i	n/a
201.7805	0.15	403561	keystroke_o	o	n/a
201.8705	0.119	403741	keystroke_n	n	n/a
202.275	0.0755	404550	keystroke_s	s	n/a
202.4695	0.061	404939	keystroke_Key.space	Key.space	n/a
202.8895	0.0755	405779	keystroke_c	c	n/a
203.0695	0.0905	406139	keystroke_o	o	n/a
203.2945	0.12	406589	keystroke_m	m	n/a
203.5345	0.091	407069	keystroke_b	b	n/a
203.6405	0.0895	407281	keystroke_a	a	n/a
204.075	0.0755	408150	keystroke_Key.backspace	Key.backspace	n/a
204.3	0.075	408600	keystroke_o	o	n/a
204.87	0.06	409740	keystroke_Key.space	Key.space	n/a
205.0055	0.105	410011	keystroke_c	c	n/a
205.125	0.105	410250	keystroke_a	a	n/a
205.245	0.0605	410490	keystroke_n	n	n/a
205.44	0.075	410880	keystroke_Key.space	Key.space	n/a
205.92	0.075	411840	keystroke_e	e	n/a
206.19	0.0905	412380	keystroke_x	x	n/a
206.355	0.0905	412710	keystroke_a	a	n/a
207.03	0.105	414060	keystroke_m	m	n/a
207.3455	0.09	414691	keystroke_i	i	n/a
207.5405	0.1045	415081	keystroke_n	n	n/a
207.735	0.12	415470	keystroke_i	i	n/a
207.825	0.15	415650	keystroke_n	n	n/a
208.53	0.06	417060	keystroke_g	g	n/a
208.665	0.09	417330	keystroke_Key.enter	Key.enter	n/a
208.763	5.6785	417526	prompt	n/a	tokyo yale interim flux\n
209.445	0.075	418890	keystroke_t	t	n/a
209.625	0.075	419250	keystroke_o	o	n/a
210.0905	0.0455	420181	keystroke_k	k	n/a
210.196	0.0895	420392	keystroke_y	y	n/a
210.331	0.0895	420662	keystroke_o	o	n/a
210.5995	0.0755	421199	keystroke_Key.space	Key.space	n/a
210.975	0.075	421950	keystroke_y	y	n/a
211.08	0.105	422160	keystroke_a	a	n/a
211.275	0.045	422550	keystroke_l	l	n/a
211.35	0.0605	422700	keystroke_e	e	n/a
211.5145	0.06	423029	keystroke_Key.space	Key.space	n/a
212.025	0.105	424050	keystroke_i	i	n/a
212.1155	0.09	424231	keystroke_n	n	n/a
212.2655	0.09	424531	keystroke_t	t	n/a
212.4145	0.091	424829	keystroke_e	e	n/a
212.4905	0.0745	424981	keystroke_r	r	n/a
213.06	0.09	426120	keystroke_i	i	n/a
213.12	0.105	426240	keystroke_m	m	n/a
213.42	0.06	426840	keystroke_Key.space	Key.space	n/a
213.735	0.0455	427470	keystroke_f	f	n/a
213.8105	0.1045	427621	keystroke_l	l	n/a
214.065	0.0895	428130	keystroke_u	u	n/a
214.2595	0.075	428519	keystroke_x	x	n/a
214.365	0.075	428730	keystroke_Key.enter	Key.enter	n/a
214.4445	7.182	428889	prompt	n/a	complex gage courier equation\n
215.2045	0.0455	430409	keystroke_c	c	n/a
215.34	0.0905	430680	keystroke_o	o	n/a
215.3995	0.09	430799	keystroke_m	m	n/a
215.5805	0.1195	431161	keystroke_p	p	n/a
215.6395	0.1055	431279	keystroke_l	l	n/a
215.88	0.075	431760	keystroke_e	e	n/a
216.1355	0.0745	432271	keystroke_x	x	n/a
216.315	0.06	432630	keystroke_Key.space	Key.space	n/a
216.645	0.09	433290	keystroke_g	g	n/a
216.78	0.1055	433560	keystroke_a	a	n/a
216.9	0.12	433800	keystroke_g	g	n/a
217.035	0.075	434070	keystroke_e	e	n/a
217.41	0.075	434820	keystroke_Key.space	Key.space	n/a
217.68	0.06	435360	keystroke_c	c	n/a
217.815	0.0755	435630	keystroke_o	o	n/a
218.025	0.075	436050	keystroke_u	u	n/a
218.28	0.015	436560	keystroke_r	r	n/a
218.97	0.06	437940	keystroke_i	i	n/a
219.0605	0.1045	438121	keystroke_e	e	n/a
219.1805	0.09	438361	keystroke_r	r	n/a
219.4655	0.0595	438931	keystroke_Key.space	Key.space	n/a
220.02	0.075	440040	keystroke_q	q	n/a
220.3195	0.061	440639	keystroke_Key.backspace	Key.backspace	n/a
220.44	0.105	440880	keystroke_e	e	n/a
220.635	0.09	441270	keystroke_q	q	n/a
220.83	0.075	441660	keystroke_u	u	n/a
220.9205	0.0745	441841	keystroke_a	a	n/a
221.115	0.045	442230	keystroke_t	t	n/a
221.19	0.18	442380	keystroke_i	i	n/a
221.235	0.105	442470	keystroke_o	o	n/a
221.295	0.135	442590	keystroke_n	n	n/a
221.565	0.059	443130	keystroke_Key.enter	Key.enter	n/a
221.63	6.6265	443260	prompt	n/a	seeds empty decided substances\n
222.3305	0.06	444661	keystroke_s	s	n/a
222.5255	0.045	445051	keystroke_e	e	n/a
222.6305	0.1045	445261	keystroke_e	e	n/a
222.78	0.135	445560	keystroke_d	d	n/a
222.93	0.0605	445860	keystroke_s	s	n/a
223.035	0.09	446070	keystroke_Key.space	Key.space	n/a
223.305	0.075	446610	keystroke_e	e	n/a
223.47	0.0905	446940	keystroke_m	m	n/a
223.74	0.09	447480	keystroke_p	p	n/a
223.9205	0.1495	447841	keystroke_y	y	n/a
224.25	0.06	448500	keystroke_Key.backspace	Key.backspace	n/a
224.2955	0.1195	448591	keystroke_t	t	n/a
224.385	0.0905	448770	keystroke_y	y	n/a
224.595	0.06	449190	keystroke_Key.space	Key.space	n/a
225.06	0.0605	450120	keystroke_d	d	n/a
225.1645	0.105	450329	keystroke_e	e	n/a
225.345	0.09	450690	keystroke_c	c	n/a
225.51	0.06	451020	keystroke_i	i	n/a
225.645	0.09	451290	keystroke_d	d	n/a
225.765	0.15	451530	keystroke_e	e	n/a
225.87	0.105	451740	keystroke_d	d	n/a
226.11	0.075	452220	keystroke_Key.space	Key.space	n/a
226.56	0.045	453120	keystroke_s	s	n/a
226.7705	0.0895	453541	keystroke_u	u	n/a
226.98	0.06	453960	keystroke_b	b	n/a
227.07	0.0745	454140	keystroke_s	s	n/a
227.2955	0.09	454591	keystroke_t	t	n/a
227.4455	0.0745	454891	keystroke_a	a	n/a
227.5945	0.09	455189	keystroke_n	n	n/a
227.7895	0.045	455579	keystroke_c	c	n/a
227.91	0.0445	455820	keystroke_e	e	n/a
228.0745	0.06	456149	keystroke_s	s	n/a
228.195	0.06	456390	keystroke_Key.enter	Key.enter	n/a
228.2625	9.669	456525	prompt	n/a	returned extends applied encyclopedia\n
229.1255	0.1195	458251	keystroke_r	r	n/a
229.215	0.09	458430	keystroke_e	e	n/a
229.38	0.0605	458760	keystroke_t	t	n/a
229.5455	0.075	459091	keystroke_u	u	n/a
229.68	0.045	459360	keystroke_r	r	n/a
229.785	0.09	459570	keystroke_n	n	n/a
229.98	0.1205	459960	keystroke_e	e	n/a
230.13	0.12	460260	keystroke_d	d	n/a
230.265	0.061	460530	keystroke_Key.space	Key.space	n/a
230.7455	0.059	461491	keystroke_e	e	n/a
230.97	0.075	461940	keystroke_x	x	n/a
231.195	0.075	462390	keystroke_t	t	n/a
231.45	0.09	462900	keystroke_e	e	n/a
231.615	0.075	463230	keystroke_n	n	n/a
231.735	0.12	463470	keystroke_d	d	n/a
231.886	0.029	463772	keystroke_d	d	n/a
231.9455	0.1045	463891	keystroke_s	s	n/a
232.3945	0.0755	464789	keystroke_Key.space	Key.space	n/a
232.56	0.075	465120	keystroke_a	a	n/a
232.6945	0.075	465389	keystroke_p	p	n/a
232.815	0.135	465630	keystroke_p	p	n/a
232.89	0.135	465780	keystroke_l	l	n/a
233.13	0.09	466260	keystroke_i	i	n/a
233.175	0.12	466350	keystroke_e	e	n/a
233.31	0.12	466620	keystroke_d	d	n/a
233.5205	0.074	467041	keystroke_Key.space	Key.space	n/a
233.9105	0.059	467821	keystroke_e	e	n/a
234.1205	0.06	468241	keystroke_n	n	n/a
234.3605	0.09	468721	keystroke_c	c	n/a
234.7945	0.09	469589	keystroke_y	y	n/a
235.6945	0.075	471389	keystroke_c	c	n/a
236.5955	0.06	473191	keystroke_l	l	n/a
236.7745	0.076	473549	keystroke_o	o	n/a
237.1805	0.045	474361	keystroke_p	p	n/a
237.2705	0.075	474541	keystroke_e	e	n/a
237.4645	0.076	474929	keystroke_d	d	n/a
237.6155	0.06	475231	keystroke_i	i	n/a
237.6905	0.0745	475381	keystroke_a	a	n/a
237.84	0.09	475680	keystroke_Key.enter	Key.enter	n/a
237.9355	5.4415	475871	prompt	n/a	ripe lately tail depends\n
238.6805	0.0895	477361	keystroke_r	r	n/a
238.8605	0.059	477721	keystroke_i	i	n/a
239.025	0.09	478050	keystroke_p	p	n/a
239.145	0.075	478290	keystroke_e	e	n/a
239.31	0.075	478620	keystroke_Key.space	Key.space	n/a
239.595	0.09	479190	keystroke_l	l	n/a
239.7155	0.1045	479431	keystroke_a	a	n/a
239.925	0.0905	479850	keystroke_t	t	n/a
240.0155	0.1045	480031	keystroke_e	e	n/a
240.1205	0.104	480241	keystroke_l	l	n/a
240.405	0.1045	480810	keystroke_y	y	n/a
240.9005	0.0595	481801	keystroke_Key.space	Key.space	n/a
241.3805	0.09	482761	keystroke_t	t	n/a
241.5605	0.09	483121	keystroke_a	a	n/a
241.6645	0.0915	483329	keystroke_i	i	n/a
241.89	0.0605	483780	keystroke_l	l	n/a
242.1155	0.059	484231	keystroke_Key.space	Key.space	n/a
242.3245	0.0755	484649	keystroke_d	d	n/a
242.505	0.075	485010	keystroke_e	e	n/a
242.5645	0.1055	485129	keystroke_p	p	n/a
242.775	0.075	485550	keystroke_e	e	n/a
242.865	0.0905	485730	keystroke_n	n	n/a
242.9855	0.1645	485971	keystroke_d	d	n/a
243.1355	0.0895	486271	keystroke_s	s	n/a
243.285	0.0905	486570	keystroke_Key.enter	Key.enter	n/a
243.383	8.1235	486766	prompt	n/a	vacations sandra babes hyundai\n
244.1845	0.09	488369	keystroke_v	v	n/a
244.3345	0.1055	488669	keystroke_a	a	n/a
244.485	0.105	488970	keystroke_c	c	n/a
244.6505	0.09	489301	keystroke_a	a	n/a
244.815	0.075	489630	keystroke_t	t	n/a
244.92	0.195	489840	keystroke_i	i	n/a
244.965	0.135	489930	keystroke_o	o	n/a
245.0555	0.1345	490111	keystroke_n	n	n/a
245.235	0.06	490470	keystroke_s	s	n/a
245.415	0.06	490830	keystroke_Key.space	Key.space	n/a
245.91	0.0745	491820	keystroke_s	s	n/a
246.0295	0.0905	492059	keystroke_a	a	n/a
246.3	0.075	492600	keystroke_n	n	n/a
246.465	0.0595	492930	keystroke_d	d	n/a
246.6745	0.106	493349	keystroke_r	r	n/a
246.8405	0.12	493681	keystroke_a	a	n/a
247.0795	0.075	494159	keystroke_Key.space	Key.space	n/a
247.7705	0.075	495541	keystroke_b	b	n/a
247.8305	0.09	495661	keystroke_a	a	n/a
247.9505	0.09	495901	keystroke_b	b	n/a
248.0255	0.059	496051	keystroke_e	e	n/a
248.22	0.06	496440	keystroke_s	s	n/a
248.3545	0.09	496709	keystroke_Key.space	Key.space	n/a
248.835	0.075	497670	keystroke_h	h	n/a
249.014	0.0765	498028	keystroke_y	y	n/a
249.24	0.0745	498480	keystroke_u	u	n/a
249.51	0.0595	499020	keystroke_n	n	n/a
250.2755	0.0895	500551	keystroke_d	d	n/a
250.3805	0.0145	500761	keystroke_a	a	n/a
251.25	0.045	502500	keystroke_i	i	n/a
251.43	0.075	502860	keystroke_Key.enter	Key.enter	n/a
251.5105	14.0815	503021	prompt	n/a	lenders accompanied happens likelihood\n
252.2555	0.0745	504511	keystroke_l	l	n/a
252.345	0.0755	504690	keystroke_e	e	n/a
252.495	0.075	504990	keystroke_n	n	n/a
252.6	0.09	505200	keystroke_d	d	n/a
252.7205	0.134	505441	keystroke_e	e	n/a
252.8405	0.0745	505681	keystroke_r	r	n/a
253.0205	0.0595	506041	keystroke_s	s	n/a
253.2145	0.0755	506429	keystroke_Key.space	Key.space	n/a
253.35	0.075	506700	keystroke_a	a	n/a
253.605	0.0605	507210	keystroke_c	c	n/a
253.7405	0.09	507481	keystroke_c	c	n/a
253.8605	0.1495	507721	keystroke_o	o	n/a
253.965	0.1505	507930	keystroke_m	m	n/a
254.2495	0.1055	508499	keystroke_p	p	n/a
254.4005	0.0745	508801	keystroke_a	a	n/a
254.595	0.0755	509190	keystroke_n	n	n/a
254.7455	0.075	509491	keystroke_i	i	n/a
254.8495	0.106	509699	keystroke_e	e	n/a
255.0155	0.105	510031	keystroke_d	d	n/a
255.1945	0.075	510389	keystroke_Key.space	Key.space	n/a
255.8255	0.0595	511651	keystroke_h	h	n/a
255.9	0.09	511800	keystroke_a	a	n/a
256.0805	0.0445	512161	keystroke_p	p	n/a
256.185	0.09	512370	keystroke_p	p	n/a
256.29	0.075	512580	keystroke_e	e	n/a
256.425	0.075	512850	keystroke_n	n	n/a
256.515	0.075	513030	keystroke_s	s	n/a
256.68	0.075	513360	keystroke_Key.space	Key.space	n/a
257.1445	0.09	514289	keystroke_l	l	n/a
257.355	0.09	514710	keystroke_i	i	n/a
257.535	0.105	515070	keystroke_k	k	n/a
257.6855	0.075	515371	keystroke_e	e	n/a
258.885	0.09	517770	keystroke_=	=	n/a
259.62	0.075	519240	keystroke_e	e	n/a
259.7995	0.061	519599	keystroke_l	l	n/a
260.055	0.0755	520110	keystroke_i	i	n/a
261.15	0.06	522300	keystroke_Key.backspace	Key.backspace	n/a
261.3	0.06	522600	keystroke_Key.backspace	Key.backspace	n/a
261.435	0.075	522870	keystroke_Key.backspace	Key.backspace	n/a
261.57	0.09	523140	keystroke_Key.backspace	Key.backspace	n/a
261.735	0.06	523470	keystroke_Key.backspace	Key.backspace	n/a
263.07	0.0595	526140	keystroke_l	l	n/a
263.265	0.0595	526530	keystroke_i	i	n/a
263.49	0.06	526980	keystroke_k	k	n/a
263.985	0.075	527970	keystroke_h	h	n/a
264.165	0.045	528330	keystroke_o	o	n/a
264.285	0.12	528570	keystroke_o	o	n/a
264.87	0.105	529740	keystroke_d	d	n/a
265.5	0.09	531000	keystroke_Key.enter	Key.enter	n/a
265.5965	7.96	531193	prompt	n/a	onto translator denial flexible\n
266.925	0.135	533850	keystroke_o	o	n/a
267.09	0.105	534180	keystroke_n	n	n/a
267.225	0.0755	534450	keystroke_t	t	n/a
267.3155	0.074	534631	keystroke_o	o	n/a
267.645	0.0595	535290	keystroke_Key.space	Key.space	n/a
268.0945	0.12	536189	keystroke_t	t	n/a
268.335	0.075	536670	keystroke_r	r	n/a
268.5	0.0895	537000	keystroke_a	a	n/a
268.6345	0.091	537269	keystroke_n	n	n/a
268.8145	0.045	537629	keystroke_s	s	n/a
269.04	0.09	538080	keystroke_l	l	n/a
269.145	0.075	538290	keystroke_a	a	n/a
269.7745	0.016	539549	keystroke_t	t	n/a
269.8495	0.09	539699	keystroke_o	o	n/a
269.9545	0.06	539909	keystroke_r	r	n/a
270.1045	0.075	540209	keystroke_Key.space	Key.space	n/a
270.57	0.06	541140	keystroke_d	d	n/a
270.72	0.06	541440	keystroke_e	e	n/a
270.825	0.09	541650	keystroke_n	n	n/a
270.975	0.075	541950	keystroke_i	i	n/a
271.095	0.06	542190	keystroke_a	a	n/a
271.2	0.075	542400	keystroke_l	l	n/a
271.44	0.075	542880	keystroke_Key.space	Key.space	n/a
272.0845	0.075	544169	keystroke_f	f	n/a
272.235	0.09	544470	keystroke_l	l	n/a
272.3105	0.12	544621	keystroke_e	e	n/a
272.6095	0.075	545219	keystroke_x	x	n/a
272.7595	0.09	545519	keystroke_i	i	n/a
273.0155	0.059	546031	keystroke_b	b	n/a
273.2545	0.06	546509	keystroke_l	l	n/a
273.3445	0.06	546689	keystroke_e	e	n/a
273.4795	0.075	546959	keystroke_Key.enter	Key.enter	n/a
273.5605	8.906	547121	prompt	n/a	perfect sixth pharmaceutical alternate\n
274.8145	0.0155	549629	keystroke_p	p	n/a
274.8745	0.09	549749	keystroke_e	e	n/a
274.9795	0.105	549959	keystroke_r	r	n/a
275.205	0.075	550410	keystroke_f	f	n/a
275.3095	0.12	550619	keystroke_e	e	n/a
275.5045	0.09	551009	keystroke_c	c	n/a
275.7305	0.029	551461	keystroke_t	t	n/a
275.8345	0.0905	551669	keystroke_Key.space	Key.space	n/a
276.09	0.075	552180	keystroke_s	s	n/a
276.255	0.075	552510	keystroke_i	i	n/a
276.51	0.0605	553020	keystroke_x	x	n/a
276.75	0.09	553500	keystroke_t	t	n/a
276.884	0.0905	553768	keystroke_h	h	n/a
277.1095	0.075	554219	keystroke_Key.space	Key.space	n/a
277.5155	0.075	555031	keystroke_p	p	n/a
277.7545	0.075	555509	keystroke_h	h	n/a
277.8445	0.076	555689	keystroke_a	a	n/a
278.0105	0.089	556021	keystroke_r	r	n/a
278.2795	0.1055	556559	keystroke_m	m	n/a
278.4895	0.0605	556979	keystroke_a	a	n/a
278.9705	0.0745	557941	keystroke_c	c	n/a
279.15	0.06	558300	keystroke_e	e	n/a
279.345	0.075	558690	keystroke_u	u	n/a
279.5405	0.074	559081	keystroke_t	t	n/a
279.7645	0.105	559529	keystroke_i	i	n/a
280.35	0.105	560700	keystroke_c	c	n/a
280.5905	0.074	561181	keystroke_a	a	n/a
280.7245	0.075	561449	keystroke_l	l	n/a
281.0245	0.045	562049	keystroke_Key.space	Key.space	n/a
281.2345	0.06	562469	keystroke_a	a	n/a
281.475	0.015	562950	keystroke_l	l	n/a
281.595	0.0895	563190	keystroke_t	t	n/a
281.7295	0.0895	563459	keystroke_e	e	n/a
281.805	0.0895	563610	keystroke_r	r	n/a
281.939	0.0915	563878	keystroke_n	n	n/a
282.014	0.0605	564028	keystroke_a	a	n/a
282.135	0.1205	564270	keystroke_t	t	n/a
282.2555	0.0895	564511	keystroke_e	e	n/a
282.389	0.076	564778	keystroke_Key.enter	Key.enter	n/a
282.4705	10.931	564941	prompt	n/a	vincent premises improvement clause\n
283.335	0.0455	566670	keystroke_v	v	n/a
283.4995	0.1355	566999	keystroke_i	i	n/a
283.62	0.1205	567240	keystroke_n	n	n/a
283.784	0.09	567568	keystroke_c	c	n/a
284.1595	0.06	568319	keystroke_e	e	n/a
284.2645	0.09	568529	keystroke_n	n	n/a
284.835	0.0745	569670	keystroke_t	t	n/a
285.2395	0.0745	570479	keystroke_Key.space	Key.space	n/a
285.48	0.1045	570960	keystroke_p	p	n/a
285.645	0.1045	571290	keystroke_r	r	n/a
285.7045	0.1055	571409	keystroke_e	e	n/a
285.93	0.075	571860	keystroke_m	m	n/a
286.26	0.1055	572520	keystroke_i	i	n/a
286.47	0.105	572940	keystroke_s	s	n/a
287.19	0.0595	574380	keystroke_e	e	n/a
287.3995	0.0605	574799	keystroke_s	s	n/a
287.5645	0.075	575129	keystroke_Key.space	Key.space	n/a
287.8345	0.12	575669	keystroke_i	i	n/a
287.925	0.1195	575850	keystroke_m	m	n/a
288.1795	0.09	576359	keystroke_p	p	n/a
288.4045	0.06	576809	keystroke_r	r	n/a
288.525	0.09	577050	keystroke_o	o	n/a
288.75	0.0605	577500	keystroke_v	v	n/a
289.1245	0.09	578249	keystroke_m	m	n/a
289.2745	0.09	578549	keystroke_e	e	n/a
289.605	0.045	579210	keystroke_Key.backspace	Key.backspace	n/a
289.725	0.075	579450	keystroke_Key.backspace	Key.backspace	n/a
289.8455	0.075	579691	keystroke_e	e	n/a
291.6005	0.0745	583201	keystroke_m	m	n/a
291.69	0.104	583380	keystroke_e	e	n/a
291.81	0.074	583620	keystroke_n	n	n/a
291.885	0.1195	583770	keystroke_t	t	n/a
292.064	0.076	584128	keystroke_Key.space	Key.space	n/a
292.4695	0.06	584939	keystroke_c	c	n/a
292.59	0.0745	585180	keystroke_l	l	n/a
292.7695	0.075	585539	keystroke_a	a	n/a
292.995	0.0755	585990	keystroke_u	u	n/a
293.085	0.0455	586170	keystroke_s	s	n/a
293.25	0.06	586500	keystroke_e	e	n/a
293.3245	0.0755	586649	keystroke_Key.enter	Key.enter	n/a
293.4065	18.055	586813	prompt	n/a	suit centre tree karen\n
305.6265	0.089	611253	keystroke_s	s	n/a
305.6695	0.075	611339	keystroke_u	u	n/a
305.8655	0.061	611731	keystroke_i	i	n/a
305.8955	0.09	611791	keystroke_t	t	n/a
306.0755	0.075	612151	keystroke_Key.space	Key.space	n/a
306.645	0.0755	613290	keystroke_c	c	n/a
306.7945	0.09	613589	keystroke_e	e	n/a
306.9305	0.09	613861	keystroke_n	n	n/a
307.0955	0.0445	614191	keystroke_t	t	n/a
307.59	0.105	615180	keystroke_Key.backspace	Key.backspace	n/a
307.7705	0.1795	615541	keystroke_r	r	n/a
307.8905	0.1055	615781	keystroke_e	e	n/a
308.22	0.0605	616440	keystroke_Key.backspace	Key.backspace	n/a
308.3555	0.1195	616711	keystroke_Key.backspace	Key.backspace	n/a
308.491	0.0895	616982	keystroke_t	t	n/a
308.7005	0.149	617401	keystroke_r	r	n/a
308.7755	0.135	617551	keystroke_e	e	n/a
309.8105	0.015	619621	keystroke_Key.space	Key.space	n/a
309.9455	0.15	619891	keystroke_t	t	n/a
310.05	0.1055	620100	keystroke_r	r	n/a
310.2755	0.075	620551	keystroke_e	e	n/a
310.4255	0.075	620851	keystroke_e	e	n/a
310.5455	0.06	621091	keystroke_Key.space	Key.space	n/a
310.845	0.075	621690	keystroke_k	k	n/a
310.89	0.09	621780	keystroke_a	a	n/a
311.07	0.105	622140	keystroke_r	r	n/a
311.145	0.09	622290	keystroke_e	e	n/a
311.2505	0.075	622501	keystroke_n	n	n/a
311.3855	0.075	622771	keystroke_Key.enter	Key.enter	n/a
311.4655	8.501	622931	prompt	n/a	motels schools completing ordering\n
312.2105	0.075	624421	keystroke_m	m	n/a
312.4045	0.0455	624809	keystroke_o	o	n/a
312.4655	0.105	624931	keystroke_t	t	n/a
312.6295	0.075	625259	keystroke_e	e	n/a
312.75	0.075	625500	keystroke_l	l	n/a
312.8405	0.09	625681	keystroke_s	s	n/a
313.0045	0.0755	626009	keystroke_Key.space	Key.space	n/a
313.201	0.074	626402	keystroke_s	s	n/a
313.4245	0.0615	626849	keystroke_c	c	n/a
313.546	0.074	627092	keystroke_h	h	n/a
313.7255	0.0595	627451	keystroke_o	o	n/a
313.8605	0.075	627721	keystroke_o	o	n/a
314.0405	0.0745	628081	keystroke_l	l	n/a
314.1305	0.0745	628261	keystroke_s	s	n/a
314.3705	0.074	628741	keystroke_Key.space	Key.space	n/a
314.6095	0.075	629219	keystroke_c	c	n/a
314.7455	0.105	629491	keystroke_o	o	n/a
314.8045	0.105	629609	keystroke_m	m	n/a
315.0005	0.104	630001	keystroke_p	p	n/a
315.0595	0.1205	630119	keystroke_l	l	n/a
315.2845	0.09	630569	keystroke_e	e	n/a
315.7055	0.09	631411	keystroke_t	t	n/a
317.1155	0.12	634231	keystroke_i	i	n/a
317.16	0.1355	634320	keystroke_n	n	n/a
317.6855	0.075	635371	keystroke_g	g	n/a
317.835	0.0745	635670	keystroke_Key.space	Key.space	n/a
318.5855	0.075	637171	keystroke_o	o	n/a
318.6755	0.09	637351	keystroke_r	r	n/a
319.155	0.0895	638310	keystroke_d	d	n/a
319.275	0.135	638550	keystroke_e	e	n/a
319.3805	0.0895	638761	keystroke_r	r	n/a
319.56	0.12	639120	keystroke_i	i	n/a
319.62	0.1355	639240	keystroke_n	n	n/a
319.741	0.0595	639482	keystroke_g	g	n/a
319.875	0.0905	639750	keystroke_Key.enter	Key.enter	n/a
319.975	10.1765	639950	prompt	n/a	frequencies previously satellite percentage\n
320.8205	0.09	641641	keystroke_f	f	n/a
320.985	0.0755	641970	keystroke_r	r	n/a
321.165	0.09	642330	keystroke_e	e	n/a
321.915	0.09	643830	keystroke_q	q	n/a
322.0655	0.09	644131	keystroke_u	u	n/a
322.185	0.0755	644370	keystroke_e	e	n/a
322.29	0.09	644580	keystroke_n	n	n/a
322.455	0.075	644910	keystroke_c	c	n/a
322.6055	0.0595	645211	keystroke_i	i	n/a
322.755	0.075	645510	keystroke_e	e	n/a
322.95	0.0605	645900	keystroke_s	s	n/a
323.13	0.06	646260	keystroke_Key.space	Key.space	n/a
323.6255	0.06	647251	keystroke_p	p	n/a
323.715	0.1205	647430	keystroke_r	r	n/a
323.805	0.1195	647610	keystroke_e	e	n/a
324.0605	0.06	648121	keystroke_v	v	n/a
324.1955	0.075	648391	keystroke_i	i	n/a
324.3905	0.0445	648781	keystroke_o	o	n/a
324.555	0.0605	649110	keystroke_u	u	n/a
324.7205	0.09	649441	keystroke_s	s	n/a
324.8555	0.075	649711	keystroke_l	l	n/a
325.38	0.0455	650760	keystroke_y	y	n/a
325.47	0.0745	650940	keystroke_Key.space	Key.space	n/a
326.2505	0.1495	652501	keystroke_s	s	n/a
326.3855	0.1195	652771	keystroke_a	a	n/a
326.67	0.0755	653340	keystroke_t	t	n/a
326.8055	0.089	653611	keystroke_e	e	n/a
326.9855	0.0895	653971	keystroke_l	l	n/a
327.57	0.1205	655140	keystroke_l	l	n/a
327.8855	0.06	655771	keystroke_i	i	n/a
328.0505	0.105	656101	keystroke_t	t	n/a
328.1555	0.0895	656311	keystroke_e	e	n/a
328.26	0.0755	656520	keystroke_Key.space	Key.space	n/a
328.8305	0.06	657661	keystroke_p	p	n/a
328.9205	0.119	657841	keystroke_e	e	n/a
329.0255	0.089	658051	keystroke_r	r	n/a
329.265	0.06	658530	keystroke_c	c	n/a
329.37	0.105	658740	keystroke_e	e	n/a
329.49	0.06	658980	keystroke_n	n	n/a
329.58	0.075	659160	keystroke_t	t	n/a
329.715	0.09	659430	keystroke_a	a	n/a
329.895	0.12	659790	keystroke_g	g	n/a
330	0.06	660000	keystroke_e	e	n/a
330.075	0.075	660150	keystroke_Key.enter	Key.enter	n/a
330.1545	11.082	660309	prompt	n/a	consequence regression pursue receivers\n
331.6055	0.045	663211	keystroke_c	c	n/a
331.7855	0.09	663571	keystroke_o	o	n/a
331.8605	0.0895	663721	keystroke_n	n	n/a
332.055	0.06	664110	keystroke_s	s	n/a
332.235	0.045	664470	keystroke_e	e	n/a
332.55	0.0755	665100	keystroke_q	q	n/a
332.7005	0.0745	665401	keystroke_u	u	n/a
332.8355	0.075	665671	keystroke_e	e	n/a
332.955	0.075	665910	keystroke_n	n	n/a
333.0755	0.105	666151	keystroke_c	c	n/a
333.2105	0.075	666421	keystroke_e	e	n/a
333.6145	0.09	667229	keystroke_Key.space	Key.space	n/a
333.9605	0.1045	667921	keystroke_r	r	n/a
334.0505	0.105	668101	keystroke_e	e	n/a
334.2745	0.0755	668549	keystroke_g	g	n/a
334.3645	0.1215	668729	keystroke_r	r	n/a
334.605	0.0605	669210	keystroke_e	e	n/a
334.7855	0.0445	669571	keystroke_s	s	n/a
334.905	0.075	669810	keystroke_s	s	n/a
335.2505	0.165	670501	keystroke_i	i	n/a
335.2655	0.134	670531	keystroke_o	o	n/a
335.3705	0.135	670741	keystroke_n	n	n/a
335.655	0.0755	671310	keystroke_Key.space	Key.space	n/a
336.3	0.0905	672600	keystroke_p	p	n/a
336.555	0.06	673110	keystroke_u	u	n/a
336.7655	0.075	673531	keystroke_r	r	n/a
336.931	0.1195	673862	keystroke_s	s	n/a
337.1705	0.03	674341	keystroke_e	e	n/a
337.335	0.105	674670	keystroke_u	u	n/a
337.6505	0.0595	675301	keystroke_Key.backspace	Key.backspace	n/a
337.785	0.105	675570	keystroke_Key.backspace	Key.backspace	n/a
338.2355	0.06	676471	keystroke_u	u	n/a
338.3555	0.06	676711	keystroke_e	e	n/a
338.5045	0.076	677009	keystroke_Key.space	Key.space	n/a
339.0905	0.0755	678181	keystroke_r	r	n/a
339.1355	0.12	678271	keystroke_e	e	n/a
339.3455	0.105	678691	keystroke_c	c	n/a
339.4655	0.105	678931	keystroke_e	e	n/a
340.425	0.0605	680850	keystroke_i	i	n/a
340.545	0.075	681090	keystroke_v	v	n/a
340.71	0.1205	681420	keystroke_e	e	n/a
340.8	0.1355	681600	keystroke_r	r	n/a
340.965	0.0605	681930	keystroke_s	s	n/a
341.1455	0.09	682291	keystroke_Key.enter	Key.enter	n/a
341.241	6.401	682482	prompt	n/a	king dollar video soon\n
343.487	0.0135	686974	keystroke_k	k	n/a
343.6055	0.104	687211	keystroke_i	i	n/a
343.6805	0.105	687361	keystroke_n	n	n/a
343.8295	0.06	687659	keystroke_d	d	n/a
343.9045	0.09	687809	keystroke_Key.space	Key.space	n/a
344.3855	0.09	688771	keystroke_d	d	n/a
344.6855	0.06	689371	keystroke_o	o	n/a
344.8955	0.075	689791	keystroke_l	l	n/a
345.0155	0.075	690031	keystroke_l	l	n/a
345.0605	0.09	690121	keystroke_a	a	n/a
345.1955	0.105	690391	keystroke_r	r	n/a
345.4505	0.075	690901	keystroke_Key.space	Key.space	n/a
346.0955	0.075	692191	keystroke_v	v	n/a
346.275	0.075	692550	keystroke_i	i	n/a
346.3655	0.1195	692731	keystroke_d	d	n/a
346.5	0.075	693000	keystroke_e	e	n/a
346.635	0.015	693270	keystroke_o	o	n/a
346.9055	0.09	693811	keystroke_Key.space	Key.space	n/a
347.0255	0.075	694051	keystroke_s	s	n/a
347.1155	0.09	694231	keystroke_o	o	n/a
347.2645	0.106	694529	keystroke_o	o	n/a
347.3255	0.119	694651	keystroke_n	n	n/a
347.5345	0.105	695069	keystroke_Key.enter	Key.enter	n/a
347.6475	10.6745	695295	prompt	n/a	mobiles increased popularity letters\n
349.967	0.028	699934	keystroke_m	m	n/a
350.0855	0.074	700171	keystroke_o	o	n/a
350.5055	0.0895	701011	keystroke_b	b	n/a
350.6395	0.09	701279	keystroke_i	i	n/a
350.88	0.06	701760	keystroke_l	l	n/a
350.97	0.0755	701940	keystroke_e	e	n/a
351.165	0.075	702330	keystroke_s	s	n/a
351.285	0.075	702570	keystroke_Key.space	Key.space	n/a
351.495	0.1355	702990	keystroke_i	i	n/a
351.57	0.1205	703140	keystroke_n	n	n/a
351.765	0.0605	703530	keystroke_c	c	n/a
351.99	0.12	703980	keystroke_r	r	n/a
352.05	0.1655	704100	keystroke_e	e	n/a
352.2	0.1205	704400	keystroke_a	a	n/a
353.2795	0.0755	706559	keystroke_s	s	n/a
353.475	0.09	706950	keystroke_e	e	n/a
353.5805	0.105	707161	keystroke_d	d	n/a
353.745	0.075	707490	keystroke_Key.space	Key.space	n/a
354.4645	0.0755	708929	keystroke_p	p	n/a
354.6445	0.061	709289	keystroke_o	o	n/a
354.8105	0.075	709621	keystroke_p	p	n/a
355.02	0.06	710040	keystroke_u	u	n/a
355.23	0.075	710460	keystroke_l	l	n/a
355.29	0.0605	710580	keystroke_a	a	n/a
355.4255	0.09	710851	keystroke_r	r	n/a
355.53	0.075	711060	keystroke_i	i	n/a
355.74	0.09	711480	keystroke_t	t	n/a
355.92	0.0755	711840	keystroke_y	y	n/a
356.0855	0.0595	712171	keystroke_Key.space	Key.space	n/a
357.3155	0.0605	714631	keystroke_l	l	n/a
357.435	0.105	714870	keystroke_e	e	n/a
357.645	0.06	715290	keystroke_t	t	n/a
357.765	0.09	715530	keystroke_t	t	n/a
357.8855	0.1045	715771	keystroke_e	e	n/a
357.9605	0.0895	715921	keystroke_r	r	n/a
358.095	0.105	716190	keystroke_s	s	n/a
358.2305	0.09	716461	keystroke_Key.enter	Key.enter	n/a
358.328	7.899	716656	prompt	n/a	notre getting stack louisville\n
359.055	0.075	718110	keystroke_n	n	n/a
359.205	0.09	718410	keystroke_o	o	n/a
359.5355	0.09	719071	keystroke_t	t	n/a
359.745	0.15	719490	keystroke_r	r	n/a
359.835	0.1055	719670	keystroke_e	e	n/a
360.0595	0.061	720119	keystroke_Key.space	Key.space	n/a
360.3755	0.0895	720751	keystroke_g	g	n/a
360.5105	0.1045	721021	keystroke_e	e	n/a
360.66	0.076	721320	keystroke_t	t	n/a
360.7955	0.0895	721591	keystroke_t	t	n/a
360.9	0.09	721800	keystroke_i	i	n/a
360.9305	0.1195	721861	keystroke_n	n	n/a
361.051	0.0745	722102	keystroke_g	g	n/a
361.2155	0.0595	722431	keystroke_Key.space	Key.space	n/a
361.71	0.1655	723420	keystroke_s	s	n/a
361.9955	0.0895	723991	keystroke_t	t	n/a
362.2505	0.0445	724501	keystroke_a	a	n/a
362.3705	0.0895	724741	keystroke_c	c	n/a
362.4605	0.105	724921	keystroke_k	k	n/a
362.7605	0.06	725521	keystroke_Key.space	Key.space	n/a
363.2705	0.09	726541	keystroke_l	l	n/a
363.4655	0.09	726931	keystroke_o	o	n/a
363.7805	0.12	727561	keystroke_u	u	n/a
364.2005	0.105	728401	keystroke_i	i	n/a
364.7405	0.075	729481	keystroke_s	s	n/a
365.4905	0.06	730981	keystroke_v	v	n/a
365.6105	0.074	731221	keystroke_i	i	n/a
365.8355	0.06	731671	keystroke_l	l	n/a
365.955	0.0605	731910	keystroke_l	l	n/a
366.016	0.0895	732032	keystroke_e	e	n/a
366.135	0.09	732270	keystroke_Key.enter	Key.enter	n/a
366.231	7.826	732462	prompt	n/a	identical modeling levels levy\n
366.975	0.0755	733950	keystroke_i	i	n/a
367.185	0.0745	734370	keystroke_d	d	n/a
367.3055	0.105	734611	keystroke_e	e	n/a
367.4695	0.075	734939	keystroke_n	n	n/a
367.5755	0.09	735151	keystroke_t	t	n/a
367.7695	0.076	735539	keystroke_i	i	n/a
367.9505	0.105	735901	keystroke_c	c	n/a
368.1145	0.09	736229	keystroke_a	a	n/a
368.2205	0.09	736441	keystroke_l	l	n/a
369.1055	0.06	738211	keystroke_Key.space	Key.space	n/a
369.3755	0.06	738751	keystroke_m	m	n/a
369.5255	0.075	739051	keystroke_o	o	n/a
369.6295	0.076	739259	keystroke_d	d	n/a
369.7655	0.075	739531	keystroke_e	e	n/a
369.8855	0.075	739771	keystroke_l	l	n/a
370.5605	0.0745	741121	keystroke_i	i	n/a
370.62	0.1055	741240	keystroke_n	n	n/a
370.7105	0.075	741421	keystroke_g	g	n/a
370.8305	0.075	741661	keystroke_Key.space	Key.space	n/a
371.3405	0.075	742681	keystroke_l	l	n/a
371.4455	0.105	742891	keystroke_e	e	n/a
371.6555	0.075	743311	keystroke_v	v	n/a
371.7605	0.075	743521	keystroke_e	e	n/a
371.8655	0.074	743731	keystroke_l	l	n/a
372.0445	0.076	744089	keystroke_s	s	n/a
372.1795	0.076	744359	keystroke_Key.space	Key.space	n/a
372.4505	0.075	744901	keystroke_l	l	n/a
372.5405	0.09	745081	keystroke_e	e	n/a
372.7955	0.105	745591	keystroke_c	c	n/a
373.1855	0.0895	746371	keystroke_Key.backspace	Key.backspace	n/a
373.2905	0.0595	746581	keystroke_v	v	n/a
373.5005	0.0445	747001	keystroke_y	y	n/a
373.9505	0.105	747901	keystroke_Key.enter	Key.enter	n/a
374.061	9.746	748122	prompt	n/a	competent statutes photos scared\n
374.925	0.015	749850	keystroke_c	c	n/a
375.0605	0.0745	750121	keystroke_o	o	n/a
375.21	0.105	750420	keystroke_m	m	n/a
375.42	0.09	750840	keystroke_p	p	n/a
375.7055	0.0895	751411	keystroke_e	e	n/a
375.9	0.09	751800	keystroke_t	t	n/a
376.245	0.09	752490	keystroke_e	e	n/a
376.8155	0.105	753631	keystroke_n	n	n/a
377.0405	0.075	754081	keystroke_t	t	n/a
377.5205	0.075	755041	keystroke_Key.space	Key.space	n/a
377.8205	0.075	755641	keystroke_s	s	n/a
378.0455	0.0745	756091	keystroke_t	t	n/a
378.165	0.15	756330	keystroke_a	a	n/a
378.3	0.0905	756600	keystroke_t	t	n/a
378.495	0.09	756990	keystroke_u	u	n/a
378.645	0.06	757290	keystroke_a	a	n/a
378.795	0.12	757590	keystroke_t	t	n/a
378.96	0.1055	757920	keystroke_e	e	n/a
379.2755	0.1045	758551	keystroke_s	s	n/a
379.605	0.075	759210	keystroke_Key.space	Key.space	n/a
379.9205	0.12	759841	keystroke_p	p	n/a
380.2055	0.0595	760411	keystroke_h	h	n/a
380.325	0.1055	760650	keystroke_o	o	n/a
380.52	0.0605	761040	keystroke_t	t	n/a
380.625	0.076	761250	keystroke_o	o	n/a
381.105	0.06	762210	keystroke_Key.space	Key.space	n/a
381.945	0.0755	763890	keystroke_Key.backspace	Key.backspace	n/a
382.0655	0.0745	764131	keystroke_s	s	n/a
382.3805	0.059	764761	keystroke_Key.space	Key.space	n/a
382.77	0.0905	765540	keystroke_s	s	n/a
382.9955	0.0445	765991	keystroke_c	c	n/a
383.1005	0.0745	766201	keystroke_a	a	n/a
383.25	0.091	766500	keystroke_r	r	n/a
383.4905	0.134	766981	keystroke_e	e	n/a
383.6105	0.1195	767221	keystroke_d	d	n/a
383.715	0.09	767430	keystroke_Key.enter	Key.enter	n/a
383.8115	7.257	767623	prompt	n/a	juvenile it'd rural book\n
384.6905	0.0745	769381	keystroke_j	j	n/a
384.8705	0.09	769741	keystroke_u	u	n/a
385.2005	0.1045	770401	keystroke_b	b	n/a
385.635	0.045	771270	keystroke_e	e	n/a
385.86	0.075	771720	keystroke_Key.backspace	Key.backspace	n/a
385.9805	0.1195	771961	keystroke_Key.backspace	Key.backspace	n/a
386.205	0.0905	772410	keystroke_v	v	n/a
386.3405	0.0895	772681	keystroke_e	e	n/a
387.0605	0.075	774121	keystroke_n	n	n/a
387.1805	0.105	774361	keystroke_i	i	n/a
387.3905	0.075	774781	keystroke_l	l	n/a
387.4805	0.06	774961	keystroke_e	e	n/a
387.6155	0.075	775231	keystroke_Key.space	Key.space	n/a
388.0505	0.06	776101	keystroke_i	i	n/a
388.2605	0.09	776521	keystroke_t	t	n/a
388.62	0.045	777240	keystroke_'	'	n/a
388.905	0.045	777810	keystroke_d	d	n/a
389.0395	0.061	778079	keystroke_Key.space	Key.space	n/a
389.43	0.0755	778860	keystroke_r	r	n/a
389.5955	0.09	779191	keystroke_u	u	n/a
389.6705	0.1045	779341	keystroke_r	r	n/a
389.88	0.0755	779760	keystroke_a	a	n/a
390.0005	0.09	780001	keystroke_l	l	n/a
390.27	0.075	780540	keystroke_Key.space	Key.space	n/a
390.4655	0.0745	780931	keystroke_b	b	n/a
390.66	0.046	781320	keystroke_o	o	n/a
390.7805	0.12	781561	keystroke_o	o	n/a
390.8555	0.1655	781711	keystroke_k	k	n/a
390.9605	0.105	781921	keystroke_Key.enter	Key.enter	n/a
391.0725	8.9495	782145	prompt	n/a	detroit ottawa least sustainability\n
391.935	0.09	783870	keystroke_d	d	n/a
392.07	0.1355	784140	keystroke_e	e	n/a
392.265	0.1205	784530	keystroke_t	t	n/a
392.3855	0.105	784771	keystroke_r	r	n/a
392.625	0.075	785250	keystroke_o	o	n/a
392.805	0.075	785610	keystroke_i	i	n/a
392.9555	0.1045	785911	keystroke_t	t	n/a
393.2855	0.045	786571	keystroke_Key.space	Key.space	n/a
393.7655	0.075	787531	keystroke_o	o	n/a
393.8855	0.075	787771	keystroke_t	t	n/a
394.0205	0.089	788041	keystroke_t	t	n/a
394.1705	0.15	788341	keystroke_a	a	n/a
394.365	0.1205	788730	keystroke_w	w	n/a
394.545	0.105	789090	keystroke_a	a	n/a
394.9505	0.06	789901	keystroke_Key.space	Key.space	n/a
395.2955	0.06	790591	keystroke_l	l	n/a
395.3705	0.134	790741	keystroke_e	e	n/a
395.4755	0.18	790951	keystroke_a	a	n/a
395.6565	0.0885	791313	keystroke_s	s	n/a
395.88	0.075	791760	keystroke_t	t	n/a
396.405	0.075	792810	keystroke_Key.space	Key.space	n/a
396.6	0.0755	793200	keystroke_s	s	n/a
396.66	0.0905	793320	keystroke_u	u	n/a
396.795	0.0755	793590	keystroke_s	s	n/a
397.2455	0.0895	794491	keystroke_t	t	n/a
397.426	0.089	794852	keystroke_a	a	n/a
397.5755	0.09	795151	keystroke_i	i	n/a
397.696	0.105	795392	keystroke_n	n	n/a
397.83	0.09	795660	keystroke_a	a	n/a
397.9805	0.0745	795961	keystroke_b	b	n/a
398.19	0.0905	796380	keystroke_i	i	n/a
399.135	0.075	798270	keystroke_l	l	n/a
399.3605	0.0745	798721	keystroke_i	i	n/a
399.555	0.105	799110	keystroke_t	t	n/a
399.781	0.0595	799562	keystroke_y	y	n/a
399.9455	0.075	799891	keystroke_Key.enter	Key.enter	n/a
400.0255	4.7215	800051	prompt	n/a	slip sudan showed lucia\n
400.6495	0.045	801299	keystroke_s	s	n/a
400.7555	0.074	801511	keystroke_l	l	n/a
400.9345	0.076	801869	keystroke_i	i	n/a
401.1305	0.075	802261	keystroke_p	p	n/a
401.37	0.0745	802740	keystroke_Key.space	Key.space	n/a
401.565	0.0605	803130	keystroke_s	s	n/a
401.7155	0.075	803431	keystroke_u	u	n/a
401.8645	0.1355	803729	keystroke_d	d	n/a
402.0595	0.09	804119	keystroke_a	a	n/a
402.1955	0.075	804391	keystroke_n	n	n/a
402.3895	0.09	804779	keystroke_Key.space	Key.space	n/a
402.5245	0.076	805049	keystroke_s	s	n/a
402.7055	0.075	805411	keystroke_h	h	n/a
402.8855	0.06	805771	keystroke_o	o	n/a
402.9905	0.075	805981	keystroke_w	w	n/a
403.1855	0.089	806371	keystroke_e	e	n/a
403.3955	0.075	806791	keystroke_d	d	n/a
403.5445	0.0755	807089	keystroke_Key.space	Key.space	n/a
403.8305	0.105	807661	keystroke_l	l	n/a
404.085	0.0755	808170	keystroke_u	u	n/a
404.34	0.03	808680	keystroke_c	c	n/a
404.4	0.075	808800	keystroke_i	i	n/a
404.565	0.091	809130	keystroke_a	a	n/a
404.67	0.075	809340	keystroke_Key.enter	Key.enter	n/a
404.7505	8.036	809501	prompt	n/a	supplies participation exam speeches\n
405.4205	0.09	810841	keystroke_s	s	n/a
405.7655	0.075	811531	keystroke_u	u	n/a
406.0205	0.06	812041	keystroke_p	p	n/a
406.1705	0.09	812341	keystroke_p	p	n/a
406.2155	0.12	812431	keystroke_l	l	n/a
406.4405	0.089	812881	keystroke_i	i	n/a
406.5605	0.09	813121	keystroke_e	e	n/a
406.7855	0.075	813571	keystroke_s	s	n/a
406.9055	0.09	813811	keystroke_Key.space	Key.space	n/a
407.2505	0.105	814501	keystroke_p	p	n/a
407.3405	0.09	814681	keystroke_a	a	n/a
407.5655	0.075	815131	keystroke_r	r	n/a
407.7605	0.06	815521	keystroke_t	t	n/a
407.9405	0.075	815881	keystroke_i	i	n/a
408.12	0.06	816240	keystroke_c	c	n/a
408.2555	0.09	816511	keystroke_i	i	n/a
408.7955	0.135	817591	keystroke_p	p	n/a
408.9745	0.076	817949	keystroke_a	a	n/a
409.2155	0.135	818431	keystroke_t	t	n/a
409.3955	0.15	818791	keystroke_i	i	n/a
409.4245	0.1055	818849	keystroke_o	o	n/a
409.5155	0.135	819031	keystroke_n	n	n/a
409.845	0.075	819690	keystroke_Key.space	Key.space	n/a
410.2805	0.06	820561	keystroke_e	e	n/a
410.55	0.0305	821100	keystroke_x	x	n/a
410.745	0.0605	821490	keystroke_a	a	n/a
410.82	0.0905	821640	keystroke_m	m	n/a
411.0295	0.076	822059	keystroke_Key.space	Key.space	n/a
411.345	0.0755	822690	keystroke_s	s	n/a
411.6005	0.075	823201	keystroke_p	p	n/a
411.7205	0.03	823441	keystroke_e	e	n/a
411.8405	0.09	823681	keystroke_e	e	n/a
412.1105	0.06	824221	keystroke_c	c	n/a
412.2605	0.105	824521	keystroke_h	h	n/a
412.3805	0.09	824761	keystroke_e	e	n/a
412.5755	0.075	825151	keystroke_s	s	n/a
412.6805	0.1045	825361	keystroke_Key.enter	Key.enter	n/a
412.791	6.626	825582	prompt	n/a	crime fair hazardous arrested\n
413.535	0.0905	827070	keystroke_c	c	n/a
413.985	0.06	827970	keystroke_r	r	n/a
414.075	0.09	828150	keystroke_i	i	n/a
414.2555	0.0745	828511	keystroke_m	m	n/a
414.345	0.075	828690	keystroke_e	e	n/a
414.495	0.06	828990	keystroke_Key.space	Key.space	n/a
414.915	0.06	829830	keystroke_f	f	n/a
415.035	0.105	830070	keystroke_a	a	n/a
415.1705	0.075	830341	keystroke_i	i	n/a
415.3805	0.074	830761	keystroke_r	r	n/a
415.5455	0.06	831091	keystroke_Key.space	Key.space	n/a
415.7845	0.105	831569	keystroke_h	h	n/a
415.8755	0.105	831751	keystroke_a	a	n/a
416.46	0.0905	832920	keystroke_z	z	n/a
416.6245	0.12	833249	keystroke_a	a	n/a
416.8645	0.076	833729	keystroke_r	r	n/a
417.075	0.0605	834150	keystroke_d	d	n/a
417.2095	0.075	834419	keystroke_o	o	n/a
417.4195	0.076	834839	keystroke_u	u	n/a
417.5545	0.075	835109	keystroke_s	s	n/a
417.7195	0.061	835439	keystroke_Key.space	Key.space	n/a
418.0805	0.0895	836161	keystroke_a	a	n/a
418.2905	0.0595	836581	keystroke_r	r	n/a
418.4095	0.09	836819	keystroke_r	r	n/a
418.545	0.0755	837090	keystroke_e	e	n/a
418.74	0.0745	837480	keystroke_s	s	n/a
418.95	0.09	837900	keystroke_t	t	n/a
419.1	0.12	838200	keystroke_e	e	n/a
419.235	0.09	838470	keystroke_d	d	n/a
419.34	0.0755	838680	keystroke_Key.enter	Key.enter	n/a
419.421	4.8255	838842	prompt	n/a	loss prep latina action\n
420.1955	0.06	840391	keystroke_l	l	n/a
420.3595	0.076	840719	keystroke_o	o	n/a
420.45	0.045	840900	keystroke_s	s	n/a
420.6005	0.075	841201	keystroke_s	s	n/a
420.7045	0.0755	841409	keystroke_Key.space	Key.space	n/a
421.2295	0.075	842459	keystroke_p	p	n/a
421.38	0.0905	842760	keystroke_r	r	n/a
421.5605	0.0745	843121	keystroke_e	e	n/a
421.665	0.09	843330	keystroke_p	p	n/a
421.9355	0.0745	843871	keystroke_Key.space	Key.space	n/a
422.265	0.045	844530	keystroke_l	l	n/a
422.325	0.075	844650	keystroke_a	a	n/a
422.505	0.0755	845010	keystroke_t	t	n/a
422.6405	0.09	845281	keystroke_i	i	n/a
422.6705	0.12	845341	keystroke_n	n	n/a
422.9405	0.0595	845881	keystroke_a	a	n/a
423.075	0.075	846150	keystroke_Key.space	Key.space	n/a
423.36	0.09	846720	keystroke_a	a	n/a
423.57	0.075	847140	keystroke_c	c	n/a
423.7805	0.0745	847561	keystroke_t	t	n/a
423.856	0.1945	847712	keystroke_i	i	n/a
423.915	0.12	847830	keystroke_o	o	n/a
423.9755	0.12	847951	keystroke_n	n	n/a
424.1555	0.09	848311	keystroke_Key.enter	Key.enter	n/a
424.2515	11.0505	848503	prompt	n/a	alto swaziland occurrence disclose\n
425.0405	0.075	850081	keystroke_a	a	n/a
425.2045	0.061	850409	keystroke_l	l	n/a
425.4905	0.075	850981	keystroke_t	t	n/a
425.6095	0.061	851219	keystroke_o	o	n/a
425.835	0.0595	851670	keystroke_Key.space	Key.space	n/a
426.3595	0.06	852719	keystroke_s	s	n/a
426.6455	0.074	853291	keystroke_w	w	n/a
426.8855	0.09	853771	keystroke_a	a	n/a
427.7545	0.06	855509	keystroke_z	z	n/a
427.9205	0.044	855841	keystroke_i	i	n/a
428.205	0.0905	856410	keystroke_a	a	n/a
428.715	0.165	857430	keystroke_Key.backspace	Key.backspace	n/a
429.3905	0.075	858781	keystroke_l	l	n/a
429.5405	0.0745	859081	keystroke_a	a	n/a
429.66	0.075	859320	keystroke_n	n	n/a
429.9	0.0455	859800	keystroke_d	d	n/a
431.0705	0.0445	862141	keystroke_Key.space	Key.space	n/a
431.4455	0.165	862891	keystroke_Key.right	Key.right	n/a
431.58	0.0905	863160	keystroke_o	o	n/a
431.805	0.06	863610	keystroke_c	c	n/a
431.955	0.076	863910	keystroke_c	c	n/a
432.045	0.09	864090	keystroke_u	u	n/a
432.18	0.105	864360	keystroke_r	r	n/a
432.33	0.1055	864660	keystroke_a	a	n/a
432.45	0.0745	864900	keystroke_n	n	n/a
432.5855	0.0895	865171	keystroke_c	c	n/a
432.705	0.09	865410	keystroke_e	e	n/a
432.78	0.09	865560	keystroke_Key.space	Key.space	n/a
433.395	0.075	866790	keystroke_d	d	n/a
433.56	0.09	867120	keystroke_i	i	n/a
433.71	0.09	867420	keystroke_s	s	n/a
433.935	0.06	867870	keystroke_c	c	n/a
434.0845	0.075	868169	keystroke_l	l	n/a
434.2645	0.0755	868529	keystroke_o	o	n/a
434.4295	0.076	868859	keystroke_d	d	n/a
434.7595	0.075	869519	keystroke_Key.backspace	Key.backspace	n/a
434.8495	0.076	869699	keystroke_s	s	n/a
435.0445	0.061	870089	keystroke_e	e	n/a
435.21	0.0895	870420	keystroke_Key.enter	Key.enter	n/a
435.3065	8.815	870613	prompt	n/a	redeem targets restructuring inventory\n
436.17	0.1055	872340	keystroke_r	r	n/a
436.26	0.12	872520	keystroke_e	e	n/a
436.575	0.075	873150	keystroke_d	d	n/a
436.7705	0.075	873541	keystroke_e	e	n/a
436.9355	0.0745	873871	keystroke_e	e	n/a
437.115	0.075	874230	keystroke_m	m	n/a
437.34	0.075	874680	keystroke_Key.space	Key.space	n/a
437.595	0.075	875190	keystroke_t	t	n/a
437.745	0.09	875490	keystroke_a	a	n/a
437.865	0.09	875730	keystroke_r	r	n/a
438.0905	0.074	876181	keystroke_g	g	n/a
438.2105	0.104	876421	keystroke_e	e	n/a
438.3445	0.075	876689	keystroke_t	t	n/a
438.5095	0.0755	877019	keystroke_s	s	n/a
438.7055	0.0745	877411	keystroke_Key.space	Key.space	n/a
439.0955	0.135	878191	keystroke_r	r	n/a
439.185	0.0905	878370	keystroke_e	e	n/a
439.3955	0.075	878791	keystroke_s	s	n/a
439.5905	0.09	879181	keystroke_t	t	n/a
439.7705	0.06	879541	keystroke_r	r	n/a
440.0555	0.075	880111	keystroke_u	u	n/a
440.3105	0.105	880621	keystroke_c	c	n/a
441.015	0.09	882030	keystroke_t	t	n/a
441.21	0.0755	882420	keystroke_u	u	n/a
441.39	0.06	882780	keystroke_r	r	n/a
441.5405	0.1195	883081	keystroke_i	i	n/a
441.6455	0.1195	883291	keystroke_n	n	n/a
441.78	0.075	883560	keystroke_g	g	n/a
441.885	0.105	883770	keystroke_Key.space	Key.space	n/a
442.6805	0.0745	885361	keystroke_i	i	n/a
442.8605	0.074	885721	keystroke_n	n	n/a
443.0545	0.061	886109	keystroke_v	v	n/a
443.2195	0.091	886439	keystroke_e	e	n/a
443.355	0.076	886710	keystroke_n	n	n/a
443.4745	0.0915	886949	keystroke_t	t	n/a
443.6105	0.1195	887221	keystroke_o	o	n/a
443.7155	0.09	887431	keystroke_r	r	n/a
443.91	0.075	887820	keystroke_y	y	n/a
444.0455	0.074	888091	keystroke_Key.enter	Key.enter	n/a
444.1275	7.8845	888255	prompt	n/a	examined dental microwave loud\n
444.8545	0.0605	889709	keystroke_e	e	n/a
445.1095	0.075	890219	keystroke_x	x	n/a
445.26	0.0745	890520	keystroke_a	a	n/a
445.3805	0.0595	890761	keystroke_m	m	n/a
445.515	0.105	891030	keystroke_i	i	n/a
445.5905	0.0895	891181	keystroke_n	n	n/a
445.6655	0.119	891331	keystroke_e	e	n/a
445.8145	0.0905	891629	keystroke_d	d	n/a
445.935	0.0905	891870	keystroke_Key.space	Key.space	n/a
446.4145	0.045	892829	keystroke_d	d	n/a
446.49	0.12	892980	keystroke_e	e	n/a
446.6555	0.105	893311	keystroke_n	n	n/a
446.7755	0.0895	893551	keystroke_t	t	n/a
446.9555	0.0745	893911	keystroke_a	a	n/a
447.09	0.06	894180	keystroke_l	l	n/a
447.3305	0.0745	894661	keystroke_Key.space	Key.space	n/a
447.615	0.0755	895230	keystroke_m	m	n/a
447.825	0.06	895650	keystroke_i	i	n/a
448.0505	0.06	896101	keystroke_c	c	n/a
448.275	0.075	896550	keystroke_r	r	n/a
448.4705	0.0745	896941	keystroke_o	o	n/a
448.62	0.09	897240	keystroke_w	w	n/a
448.815	0.09	897630	keystroke_a	a	n/a
449.2045	0.106	898409	keystroke_c	c	n/a
449.3995	0.091	898799	keystroke_e	e	n/a
449.58	0.0755	899160	keystroke_Key.space	Key.space	n/a
449.94	0.0745	899880	keystroke_Key.backspace	Key.backspace	n/a
450.105	0.075	900210	keystroke_Key.backspace	Key.backspace	n/a
450.21	0.09	900420	keystroke_Key.backspace	Key.backspace	n/a
450.285	0.0755	900570	keystroke_v	v	n/a
450.3905	0.0895	900781	keystroke_e	e	n/a
450.5255	0.0595	901051	keystroke_Key.space	Key.space	n/a
451.2905	0.06	902581	keystroke_l	l	n/a
451.4545	0.045	902909	keystroke_o	o	n/a
451.6205	0.074	903241	keystroke_u	u	n/a
451.86	0.075	903720	keystroke_d	d	n/a
451.95	0.06	903900	keystroke_Key.enter	Key.enter	n/a
452.0165	5.8155	904033	prompt	n/a	santa appreciate notre event\n
452.6245	0.1655	905249	keystroke_s	s	n/a
452.775	0.09	905550	keystroke_a	a	n/a
452.91	0.0745	905820	keystroke_n	n	n/a
453.136	0.0445	906272	keystroke_t	t	n/a
453.2395	0.0755	906479	keystroke_a	a	n/a
453.4045	0.06	906809	keystroke_Key.space	Key.space	n/a
453.825	0.06	907650	keystroke_a	a	n/a
454.035	0.046	908070	keystroke_p	p	n/a
454.17	0.06	908340	keystroke_p	p	n/a
454.29	0.09	908580	keystroke_r	r	n/a
454.35	0.135	908700	keystroke_e	e	n/a
454.7855	0.06	909571	keystroke_c	c	n/a
455.0095	0.045	910019	keystroke_i	i	n/a
455.085	0.0895	910170	keystroke_a	a	n/a
455.3395	0.09	910679	keystroke_t	t	n/a
455.4145	0.0905	910829	keystroke_e	e	n/a
455.58	0.0745	911160	keystroke_Key.space	Key.space	n/a
456.075	0.045	912150	keystroke_n	n	n/a
456.255	0.061	912510	keystroke_o	o	n/a
456.39	0.106	912780	keystroke_t	t	n/a
456.5995	0.1205	913199	keystroke_r	r	n/a
456.6755	0.1195	913351	keystroke_e	e	n/a
456.915	0.075	913830	keystroke_Key.space	Key.space	n/a
457.1405	0.0895	914281	keystroke_e	e	n/a
457.335	0.0755	914670	keystroke_v	v	n/a
457.4555	0.135	914911	keystroke_e	e	n/a
457.545	0.0905	915090	keystroke_n	n	n/a
457.6505	0.075	915301	keystroke_t	t	n/a
457.74	0.09	915480	keystroke_Key.enter	Key.enter	n/a
457.8365	6.5505	915673	prompt	n/a	placed france technical death\n
458.6545	0.091	917309	keystroke_p	p	n/a
458.715	0.0895	917430	keystroke_l	l	n/a
458.8205	0.06	917641	keystroke_a	a	n/a
458.9695	0.076	917939	keystroke_c	c	n/a
459.12	0.0895	918240	keystroke_e	e	n/a
459.24	0.0905	918480	keystroke_d	d	n/a
459.4345	0.06	918869	keystroke_Key.space	Key.space	n/a
460.2745	0.0755	920549	keystroke_f	f	n/a
460.3805	0.089	920761	keystroke_r	r	n/a
460.5755	0.0605	921151	keystroke_a	a	n/a
460.6955	0.09	921391	keystroke_n	n	n/a
460.89	0.075	921780	keystroke_c	c	n/a
461.025	0.09	922050	keystroke_e	e	n/a
461.16	0.075	922320	keystroke_Key.space	Key.space	n/a
461.49	0.0455	922980	keystroke_t	t	n/a
461.7155	0.1045	923431	keystroke_e	e	n/a
461.971	0.059	923942	keystroke_c	c	n/a
462.075	0.09	924150	keystroke_h	h	n/a
462.2855	0.074	924571	keystroke_n	n	n/a
462.3905	0.105	924781	keystroke_i	i	n/a
462.5995	0.091	925199	keystroke_c	c	n/a
462.7355	0.1055	925471	keystroke_a	a	n/a
462.8555	0.074	925711	keystroke_l	l	n/a
463.17	0.0595	926340	keystroke_Key.space	Key.space	n/a
463.591	0.0745	927182	keystroke_d	d	n/a
463.6955	0.12	927391	keystroke_e	e	n/a
463.7845	0.091	927569	keystroke_a	a	n/a
463.9655	0.0745	927931	keystroke_t	t	n/a
464.115	0.075	928230	keystroke_h	h	n/a
464.31	0.075	928620	keystroke_Key.enter	Key.enter	n/a
464.3915	11.7855	928783	prompt	n/a	reynolds softball colony unnecessary\n
465.24	0.1505	930480	keystroke_r	r	n/a
465.4655	0.09	930931	keystroke_e	e	n/a
465.7205	0.075	931441	keystroke_y	y	n/a
465.9305	0.075	931861	keystroke_n	n	n/a
466.1555	0.075	932311	keystroke_o	o	n/a
466.3505	0.075	932701	keystroke_l	l	n/a
466.4855	0.12	932971	keystroke_d	d	n/a
466.6355	0.104	933271	keystroke_s	s	n/a
466.785	0.06	933570	keystroke_Key.space	Key.space	n/a
467.3095	0.031	934619	keystroke_d	d	n/a
468.03	0.0905	936060	keystroke_Key.backspace	Key.backspace	n/a
468.2395	0.061	936479	keystroke_s	s	n/a
468.4655	0.059	936931	keystroke_o	o	n/a
468.6605	0.075	937321	keystroke_f	f	n/a
468.8705	0.075	937741	keystroke_t	t	n/a
469.0655	0.1355	938131	keystroke_w	w	n/a
469.185	0.0755	938370	keystroke_a	a	n/a
469.5145	0.061	939029	keystroke_Key.backspace	Key.backspace	n/a
469.6495	0.09	939299	keystroke_Key.backspace	Key.backspace	n/a
470.505	0.06	941010	keystroke_b	b	n/a
470.58	0.075	941160	keystroke_a	a	n/a
470.73	0.0605	941460	keystroke_l	l	n/a
470.8655	0.0745	941731	keystroke_l	l	n/a
471.12	0.06	942240	keystroke_Key.space	Key.space	n/a
471.315	0.0605	942630	keystroke_c	c	n/a
471.3905	0.09	942781	keystroke_o	o	n/a
471.54	0.09	943080	keystroke_l	l	n/a
471.6895	0.0905	943379	keystroke_o	o	n/a
471.9745	0.0915	943949	keystroke_n	n	n/a
472.2	0.0755	944400	keystroke_y	y	n/a
472.38	0.06	944760	keystroke_Key.space	Key.space	n/a
473.01	0.075	946020	keystroke_u	u	n/a
473.07	0.09	946140	keystroke_n	n	n/a
473.2655	0.0745	946531	keystroke_n	n	n/a
473.4595	0.076	946919	keystroke_c	c	n/a
473.865	0.075	947730	keystroke_Key.backspace	Key.backspace	n/a
474.0005	0.1195	948001	keystroke_e	e	n/a
474.1355	0.105	948271	keystroke_c	c	n/a
474.765	0.09	949530	keystroke_e	e	n/a
475.1255	0.045	950251	keystroke_s	s	n/a
475.2455	0.0895	950491	keystroke_s	s	n/a
475.38	0.1055	950760	keystroke_a	a	n/a
475.755	0.0755	951510	keystroke_r	r	n/a
475.86	0.0905	951720	keystroke_y	y	n/a
476.1	0.0755	952200	keystroke_Key.enter	Key.enter	n/a
476.1815	5.7555	952363	prompt	n/a	headers section cattle yellow\n
477.0905	0.06	954181	keystroke_h	h	n/a
477.21	0.105	954420	keystroke_e	e	n/a
477.33	0.1055	954660	keystroke_a	a	n/a
477.45	0.1195	954900	keystroke_d	d	n/a
477.5845	0.1205	955169	keystroke_e	e	n/a
477.7205	0.075	955441	keystroke_r	r	n/a
477.8555	0.06	955711	keystroke_s	s	n/a
478.02	0.0895	956040	keystroke_Key.space	Key.space	n/a
478.1405	0.105	956281	keystroke_s	s	n/a
478.3505	0.074	956701	keystroke_e	e	n/a
478.545	0.06	957090	keystroke_c	c	n/a
478.725	0.075	957450	keystroke_t	t	n/a
478.8155	0.1645	957631	keystroke_i	i	n/a
478.845	0.1205	957690	keystroke_o	o	n/a
478.9355	0.1195	957871	keystroke_n	n	n/a
479.16	0.1045	958320	keystroke_Key.space	Key.space	n/a
479.5045	0.076	959009	keystroke_c	c	n/a
479.61	0.1055	959220	keystroke_a	a	n/a
479.8055	0.06	959611	keystroke_t	t	n/a
479.9555	0.059	959911	keystroke_t	t	n/a
480.061	0.074	960122	keystroke_l	l	n/a
480.1495	0.0605	960299	keystroke_e	e	n/a
480.3005	0.074	960601	keystroke_Key.space	Key.space	n/a
480.5845	0.076	961169	keystroke_y	y	n/a
480.736	0.0745	961472	keystroke_e	e	n/a
480.9455	0.06	961891	keystroke_l	l	n/a
481.0805	0.06	962161	keystroke_l	l	n/a
481.2155	0.0755	962431	keystroke_o	o	n/a
481.6055	0.075	963211	keystroke_w	w	n/a
481.8605	0.075	963721	keystroke_Key.enter	Key.enter	n/a
481.941	10.676	963882	prompt	n/a	hollywood collectables periodically above\n
482.6405	0.06	965281	keystroke_h	h	n/a
482.8505	0.075	965701	keystroke_o	o	n/a
483.075	0.0455	966150	keystroke_l	l	n/a
483.18	0.0755	966360	keystroke_l	l	n/a
483.315	0.0745	966630	keystroke_y	y	n/a
483.5845	0.105	967169	keystroke_w	w	n/a
483.7045	0.061	967409	keystroke_o	o	n/a
483.8395	0.106	967679	keystroke_o	o	n/a
484.0955	0.0745	968191	keystroke_d	d	n/a
484.29	0.06	968580	keystroke_Key.space	Key.space	n/a
484.9805	0.06	969961	keystroke_c	c	n/a
485.16	0.075	970320	keystroke_o	o	n/a
485.34	0.06	970680	keystroke_l	l	n/a
485.4755	0.0895	970951	keystroke_l	l	n/a
485.9405	0.075	971881	keystroke_e	e	n/a
486.1505	0.075	972301	keystroke_c	c	n/a
486.3605	0.06	972721	keystroke_t	t	n/a
487.32	0.09	974640	keystroke_a	a	n/a
487.4405	0.075	974881	keystroke_b	b	n/a
487.635	0.0755	975270	keystroke_l	l	n/a
487.7405	0.0895	975481	keystroke_e	e	n/a
487.9805	0.0595	975961	keystroke_s	s	n/a
488.145	0.0755	976290	keystroke_Key.space	Key.space	n/a
488.8205	0.0745	977641	keystroke_p	p	n/a
488.88	0.105	977760	keystroke_e	e	n/a
489	0.09	978000	keystroke_r	r	n/a
489.165	0.0605	978330	keystroke_i	i	n/a
489.345	0.0755	978690	keystroke_o	o	n/a
489.495	0.0905	978990	keystroke_d	d	n/a
489.75	0.015	979500	keystroke_i	i	n/a
489.8855	0.075	979771	keystroke_c	c	n/a
490.035	0.0905	980070	keystroke_a	a	n/a
490.1855	0.0445	980371	keystroke_l	l	n/a
490.305	0.09	980610	keystroke_l	l	n/a
490.6355	0.075	981271	keystroke_y	y	n/a
490.845	0.075	981690	keystroke_Key.space	Key.space	n/a
491.235	0.105	982470	keystroke_a	a	n/a
491.4605	0.0445	982921	keystroke_b	b	n/a
491.655	0.0605	983310	keystroke_o	o	n/a
491.8655	0.015	983731	keystroke_v	v	n/a
492.195	0.075	984390	keystroke_e	e	n/a
492.5395	0.076	985079	keystroke_Key.enter	Key.enter	n/a
492.6215	7.5565	985243	prompt	n/a	sandy belgium otherwise elected\n
493.3055	0.0895	986611	keystroke_s	s	n/a
493.425	0.1205	986850	keystroke_a	a	n/a
493.6055	0.09	987211	keystroke_n	n	n/a
493.8755	0.075	987751	keystroke_d	d	n/a
493.995	0.0895	987990	keystroke_y	y	n/a
494.205	0.0905	988410	keystroke_Key.space	Key.space	n/a
495.1055	0.075	990211	keystroke_b	b	n/a
495.24	0.0755	990480	keystroke_e	e	n/a
495.375	0.1055	990750	keystroke_l	l	n/a
495.975	0.06	991950	keystroke_g	g	n/a
496.0955	0.045	992191	keystroke_i	i	n/a
496.2455	0.0745	992491	keystroke_u	u	n/a
496.425	0.0755	992850	keystroke_m	m	n/a
496.695	0.045	993390	keystroke_Key.space	Key.space	n/a
497.01	0.09	994020	keystroke_o	o	n/a
497.1745	0.075	994349	keystroke_t	t	n/a
497.2795	0.075	994559	keystroke_h	h	n/a
497.3555	0.12	994711	keystroke_e	e	n/a
497.4605	0.074	994921	keystroke_r	r	n/a
497.6555	0.0905	995311	keystroke_w	w	n/a
497.79	0.0745	995580	keystroke_i	i	n/a
497.8945	0.091	995789	keystroke_s	s	n/a
498.1055	0.075	996211	keystroke_e	e	n/a
498.2845	0.045	996569	keystroke_Key.space	Key.space	n/a
498.5245	0.076	997049	keystroke_e	e	n/a
498.6605	0.06	997321	keystroke_l	l	n/a
498.7955	0.06	997591	keystroke_s	s	n/a
499.2005	0.0895	998401	keystroke_Key.backspace	Key.backspace	n/a
499.275	0.075	998550	keystroke_e	e	n/a
499.4405	0.075	998881	keystroke_c	c	n/a
499.65	0.075	999300	keystroke_t	t	n/a
499.861	0.0745	999722	keystroke_e	e	n/a
499.965	0.105	999930	keystroke_d	d	n/a
500.115	0.0605	1000230	keystroke_Key.enter	Key.enter	n/a
500.182	17.62	1000364	prompt	n/a	represented schedule factor exercise\n
509.237	0.043	1018474	keystroke_r	r	n/a
509.34	0.105	1018680	keystroke_e	e	n/a
509.506	0.09	1019012	keystroke_p	p	n/a
509.7755	0.135	1019551	keystroke_r	r	n/a
509.866	0.104	1019732	keystroke_e	e	n/a
510.1355	0.06	1020271	keystroke_s	s	n/a
510.33	0.075	1020660	keystroke_e	e	n/a
510.556	0.0595	1021112	keystroke_n	n	n/a
510.646	0.0895	1021292	keystroke_t	t	n/a
510.826	0.1345	1021652	keystroke_e	e	n/a
510.9905	0.0755	1021981	keystroke_d	d	n/a
511.1255	0.075	1022251	keystroke_Key.space	Key.space	n/a
511.5305	0.06	1023061	keystroke_s	s	n/a
511.7105	0.06	1023421	keystroke_c	c	n/a
511.8305	0.075	1023661	keystroke_h	h	n/a
511.9505	0.0905	1023901	keystroke_e	e	n/a
512.146	0.104	1024292	keystroke_d	d	n/a
512.3405	0.0595	1024681	keystroke_u	u	n/a
512.6105	0.075	1025221	keystroke_l	l	n/a
512.85	0.0905	1025700	keystroke_s	s	n/a
513.345	0.075	1026690	keystroke_Key.backspace	Key.backspace	n/a
513.51	0.0755	1027020	keystroke_e	e	n/a
513.69	0.06	1027380	keystroke_Key.space	Key.space	n/a
513.765	0.09	1027530	keystroke_f	f	n/a
513.9	0.0905	1027800	keystroke_a	a	n/a
514.035	0.0905	1028070	keystroke_c	c	n/a
514.2905	0.0455	1028581	keystroke_t	t	n/a
514.3955	0.0595	1028791	keystroke_o	o	n/a
514.6205	0.0745	1029241	keystroke_r	r	n/a
514.815	0.0755	1029630	keystroke_Key.space	Key.space	n/a
515.3555	0.015	1030711	keystroke_e	e	n/a
515.5205	0.0755	1031041	keystroke_x	x	n/a
515.7005	0.075	1031401	keystroke_c	c	n/a
515.866	0.089	1031732	keystroke_e	e	n/a
515.9855	0.075	1031971	keystroke_r	r	n/a
516.375	0.0755	1032750	keystroke_c	c	n/a
516.526	0.059	1033052	keystroke_i	i	n/a
516.66	0.09	1033320	keystroke_s	s	n/a
516.8555	0.0605	1033711	keystroke_e	e	n/a
517.0055	0.075	1034011	keystroke_Key.space	Key.space	n/a
517.4555	0.12	1034911	keystroke_Key.backspace	Key.backspace	n/a
517.7405	0.0595	1035481	keystroke_Key.enter	Key.enter	n/a
517.8085	8.1985	1035617	prompt	n/a	citations mold headquarters purchases\n
518.52	0.0605	1037040	keystroke_c	c	n/a
518.685	0.0755	1037370	keystroke_i	i	n/a
518.805	0.09	1037610	keystroke_t	t	n/a
518.9405	0.09	1037881	keystroke_a	a	n/a
519.046	0.089	1038092	keystroke_t	t	n/a
519.225	0.1805	1038450	keystroke_i	i	n/a
519.33	0.045	1038660	keystroke_o	o	n/a
519.36	0.1355	1038720	keystroke_n	n	n/a
519.5255	0.0755	1039051	keystroke_s	s	n/a
519.705	0.06	1039410	keystroke_Key.space	Key.space	n/a
520.08	0.0605	1040160	keystroke_m	m	n/a
520.23	0.105	1040460	keystroke_o	o	n/a
520.485	0.076	1040970	keystroke_l	l	n/a
520.6055	0.09	1041211	keystroke_d	d	n/a
520.77	0.09	1041540	keystroke_Key.space	Key.space	n/a
521.0555	0.075	1042111	keystroke_h	h	n/a
521.1605	0.12	1042321	keystroke_e	e	n/a
521.266	0.135	1042532	keystroke_a	a	n/a
521.4455	0.075	1042891	keystroke_d	d	n/a
522.21	0.0755	1044420	keystroke_q	q	n/a
522.376	0.0595	1044752	keystroke_u	u	n/a
522.421	0.1045	1044842	keystroke_a	a	n/a
522.6755	0.09	1045351	keystroke_r	r	n/a
523.336	0.089	1046672	keystroke_t	t	n/a
523.456	0.1495	1046912	keystroke_e	e	n/a
523.591	0.1045	1047182	keystroke_r	r	n/a
523.755	0.06	1047510	keystroke_s	s	n/a
523.89	0.09	1047780	keystroke_Key.space	Key.space	n/a
524.3255	0.075	1048651	keystroke_p	p	n/a
524.566	0.0595	1049132	keystroke_u	u	n/a
524.8055	0.06	1049611	keystroke_r	r	n/a
525.0605	0.0755	1050121	keystroke_c	c	n/a
525.1205	0.09	1050241	keystroke_h	h	n/a
525.2405	0.105	1050481	keystroke_a	a	n/a
525.3755	0.09	1050751	keystroke_s	s	n/a
525.6005	0.06	1051201	keystroke_e	e	n/a
525.766	0.074	1051532	keystroke_s	s	n/a
525.915	0.09	1051830	keystroke_Key.enter	Key.enter	n/a
526.013	8.259	1052026	prompt	n/a	trends treat defeat disciplinary\n
526.7415	0.104	1053483	keystroke_t	t	n/a
526.8605	0.09	1053721	keystroke_r	r	n/a
527.0705	0.06	1054141	keystroke_e	e	n/a
527.2205	0.075	1054441	keystroke_n	n	n/a
527.356	0.1345	1054712	keystroke_d	d	n/a
527.4455	0.1205	1054891	keystroke_s	s	n/a
527.5955	0.075	1055191	keystroke_Key.space	Key.space	n/a
528.39	0.105	1056780	keystroke_t	t	n/a
528.525	0.076	1057050	keystroke_r	r	n/a
528.7205	0.105	1057441	keystroke_e	e	n/a
528.8555	0.135	1057711	keystroke_a	a	n/a
529.1095	0.076	1058219	keystroke_t	t	n/a
529.5305	0.0595	1059061	keystroke_Key.space	Key.space	n/a
529.711	0.105	1059422	keystroke_d	d	n/a
529.816	0.1345	1059632	keystroke_e	e	n/a
530.041	0.135	1060082	keystroke_f	f	n/a
530.205	0.21	1060410	keystroke_e	e	n/a
530.4	0.135	1060800	keystroke_a	a	n/a
530.5505	0.12	1061101	keystroke_t	t	n/a
530.94	0.075	1061880	keystroke_Key.space	Key.space	n/a
531.451	0.09	1062902	keystroke_d	d	n/a
531.6	0.0905	1063200	keystroke_i	i	n/a
531.676	0.09	1063352	keystroke_s	s	n/a
532.32	0.076	1064640	keystroke_i	i	n/a
532.8755	0.1045	1065751	keystroke_p	p	n/a
532.9055	0.135	1065811	keystroke_l	l	n/a
533.145	0.091	1066290	keystroke_i	i	n/a
533.355	0.09	1066710	keystroke_n	n	n/a
533.49	0.0895	1066980	keystroke_a	a	n/a
533.7745	0.0755	1067549	keystroke_r	r	n/a
533.955	0.06	1067910	keystroke_y	y	n/a
534.195	0.075	1068390	keystroke_Key.enter	Key.enter	n/a
534.275	6.027	1068550	prompt	n/a	schemes government lion allah\n
534.9005	0.09	1069801	keystroke_s	s	n/a
535.1255	0.075	1070251	keystroke_c	c	n/a
535.2155	0.075	1070431	keystroke_h	h	n/a
535.3205	0.075	1070641	keystroke_e	e	n/a
535.5305	0.09	1071061	keystroke_m	m	n/a
535.6355	0.0605	1071271	keystroke_e	e	n/a
535.8155	0.0595	1071631	keystroke_s	s	n/a
535.9505	0.075	1071901	keystroke_Key.space	Key.space	n/a
536.3105	0.0595	1072621	keystroke_g	g	n/a
536.4455	0.09	1072891	keystroke_o	o	n/a
536.655	0.061	1073310	keystroke_v	v	n/a
536.805	0.135	1073610	keystroke_e	e	n/a
536.926	0.104	1073852	keystroke_r	r	n/a
537.0905	0.105	1074181	keystroke_n	n	n/a
537.39	0.1055	1074780	keystroke_m	m	n/a
537.51	0.1205	1075020	keystroke_e	e	n/a
537.645	0.0755	1075290	keystroke_n	n	n/a
537.735	0.106	1075470	keystroke_t	t	n/a
538.2005	0.0595	1076401	keystroke_Key.space	Key.space	n/a
538.53	0.076	1077060	keystroke_l	l	n/a
538.725	0.0905	1077450	keystroke_i	i	n/a
538.9805	0.105	1077961	keystroke_o	o	n/a
539.2055	0.075	1078411	keystroke_n	n	n/a
539.415	0.075	1078830	keystroke_Key.space	Key.space	n/a
539.5955	0.0445	1079191	keystroke_a	a	n/a
539.6705	0.06	1079341	keystroke_l	l	n/a
539.791	0.0895	1079582	keystroke_l	l	n/a
539.865	0.121	1079730	keystroke_a	a	n/a
540.1055	0.0595	1080211	keystroke_h	h	n/a
540.225	0.0755	1080450	keystroke_Key.enter	Key.enter	n/a
540.309	5.138	1080618	prompt	n/a	groove trade scanned event\n
541.1555	0.06	1082311	keystroke_g	g	n/a
541.2905	0.06	1082581	keystroke_r	r	n/a
541.4255	0.045	1082851	keystroke_o	o	n/a
541.5455	0.105	1083091	keystroke_o	o	n/a
541.7105	0.075	1083421	keystroke_v	v	n/a
541.8605	0.0605	1083721	keystroke_e	e	n/a
541.9355	0.0905	1083871	keystroke_Key.space	Key.space	n/a
542.505	0.1055	1085010	keystroke_t	t	n/a
542.6555	0.075	1085311	keystroke_r	r	n/a
542.8355	0.09	1085671	keystroke_a	a	n/a
542.9405	0.135	1085881	keystroke_d	d	n/a
543.0755	0.09	1086151	keystroke_e	e	n/a
543.2255	0.09	1086451	keystroke_Key.space	Key.space	n/a
543.466	0.0745	1086932	keystroke_s	s	n/a
543.6455	0.075	1087291	keystroke_c	c	n/a
543.7805	0.09	1087561	keystroke_a	a	n/a
543.8855	0.06	1087771	keystroke_n	n	n/a
544.021	0.074	1088042	keystroke_n	n	n/a
544.0805	0.105	1088161	keystroke_e	e	n/a
544.201	0.0895	1088402	keystroke_d	d	n/a
544.335	0.075	1088670	keystroke_Key.space	Key.space	n/a
544.741	0.0745	1089482	keystroke_e	e	n/a
544.9505	0.075	1089901	keystroke_v	v	n/a
545.0705	0.1195	1090141	keystroke_e	e	n/a
545.175	0.075	1090350	keystroke_n	n	n/a
545.2805	0.0745	1090561	keystroke_t	t	n/a
545.385	0.06	1090770	keystroke_Key.enter	Key.enter	n/a
545.451	5.021	1090902	prompt	n/a	blink trailer mono current\n
546.225	0.06	1092450	keystroke_b	b	n/a
546.4055	0.09	1092811	keystroke_l	l	n/a
546.6305	0.06	1093261	keystroke_i	i	n/a
546.736	0.1195	1093472	keystroke_n	n	n/a
546.871	0.1045	1093742	keystroke_k	k	n/a
547.0805	0.09	1094161	keystroke_Key.space	Key.space	n/a
547.531	0.105	1095062	keystroke_t	t	n/a
547.68	0.15	1095360	keystroke_r	r	n/a
547.8155	0.12	1095631	keystroke_a	a	n/a
547.9655	0.09	1095931	keystroke_i	i	n/a
548.1745	0.0755	1096349	keystroke_l	l	n/a
548.265	0.1505	1096530	keystroke_e	e	n/a
548.4005	0.09	1096801	keystroke_r	r	n/a
548.5805	0.045	1097161	keystroke_Key.space	Key.space	n/a
548.775	0.09	1097550	keystroke_m	m	n/a
548.881	0.104	1097762	keystroke_o	o	n/a
549	0.1205	1098000	keystroke_n	n	n/a
549.136	0.134	1098272	keystroke_o	o	n/a
549.48	0.075	1098960	keystroke_Key.space	Key.space	n/a
549.645	0.06	1099290	keystroke_c	c	n/a
549.765	0.075	1099530	keystroke_u	u	n/a
549.9	0.0455	1099800	keystroke_r	r	n/a
550.0355	0.0895	1100071	keystroke_r	r	n/a
550.14	0.075	1100280	keystroke_e	e	n/a
550.2005	0.1045	1100401	keystroke_n	n	n/a
550.32	0.075	1100640	keystroke_t	t	n/a
550.41	0.06	1100820	keystroke_Key.enter	Key.enter	n/a
550.478	5.409	1100956	prompt	n/a	assuming all decline guards\n
551.0705	0.089	1102141	keystroke_a	a	n/a
551.2205	0.0595	1102441	keystroke_s	s	n/a
551.3705	0.0745	1102741	keystroke_s	s	n/a
551.4605	0.0895	1102921	keystroke_u	u	n/a
551.64	0.09	1103280	keystroke_m	m	n/a
551.7905	0.1045	1103581	keystroke_i	i	n/a
551.866	0.104	1103732	keystroke_n	n	n/a
551.956	0.0595	1103912	keystroke_g	g	n/a
552.06	0.09	1104120	keystroke_Key.space	Key.space	n/a
552.6005	0.0595	1105201	keystroke_a	a	n/a
552.706	0.0595	1105412	keystroke_l	l	n/a
552.8105	0.06	1105621	keystroke_l	l	n/a
553.0055	0.0745	1106011	keystroke_Key.space	Key.space	n/a
553.0645	0.06	1106129	keystroke_d	d	n/a
553.1705	0.09	1106341	keystroke_e	e	n/a
553.4405	0.0155	1106881	keystroke_c	c	n/a
553.4705	0.045	1106941	keystroke_l	l	n/a
553.6355	0.105	1107271	keystroke_i	i	n/a
553.6805	0.1055	1107361	keystroke_n	n	n/a
553.7705	0.0895	1107541	keystroke_e	e	n/a
554.475	0.06	1108950	keystroke_Key.space	Key.space	n/a
554.791	0.075	1109582	keystroke_g	g	n/a
554.94	0.075	1109880	keystroke_u	u	n/a
554.985	0.09	1109970	keystroke_a	a	n/a
555.1355	0.0745	1110271	keystroke_r	r	n/a
555.315	0.106	1110630	keystroke_d	d	n/a
555.6005	0.075	1111201	keystroke_s	s	n/a
555.84	0.045	1111680	keystroke_Key.enter	Key.enter	n/a
555.89	7.167	1111780	prompt	n/a	growth expand weblog gene\n
556.6505	0.0745	1113301	keystroke_g	g	n/a
556.815	0.0605	1113630	keystroke_r	r	n/a
556.95	0.09	1113900	keystroke_o	o	n/a
