onset	duration	sample	value	key	prompt_text
2.2995	10.4655	4599	prompt	n/a	the quick brown fox jumps over a lazy dog\n
3.8845	0.114	7769	keystroke_t	t	n/a
4.1135	0.113	8227	keystroke_h	h	n/a
4.2675	0.113	8535	keystroke_e	e	n/a
4.3815	0.109	8763	keystroke_Key.space	Key.space	n/a
4.9445	0.138	9889	keystroke_q	q	n/a
5.1145	0.093	10229	keystroke_u	u	n/a
5.2755	0.09	10551	keystroke_i	i	n/a
5.4345	0.1365	10869	keystroke_c	c	n/a
5.601	0.139	11202	keystroke_k	k	n/a
5.741	0.089	11482	keystroke_Key.space	Key.space	n/a
5.9205	0.091	11841	keystroke_b	b	n/a
6.0585	0.112	12117	keystroke_r	r	n/a
6.1935	0.115	12387	keystroke_o	o	n/a
6.4125	0.113	12825	keystroke_w	w	n/a
6.5265	0.113	13053	keystroke_n	n	n/a
6.6405	0.113	13281	keystroke_Key.space	Key.space	n/a
6.8495	0.114	13699	keystroke_f	f	n/a
6.9945	0.093	13989	keystroke_o	o	n/a
7.424	0.161	14848	keystroke_x	x	n/a
7.537	0.139	15074	keystroke_Key.space	Key.space	n/a
7.765	0.069	15530	keystroke_j	j	n/a
7.919	0.092	15838	keystroke_u	u	n/a
8.141	0.1395	16282	keystroke_m	m	n/a
8.3845	0.1555	16769	keystroke_p	p	n/a
9.38	0.2045	18760	keystroke_s	s	n/a
9.585	0.1335	19170	keystroke_Key.space	Key.space	n/a
9.7855	0.113	19571	keystroke_o	o	n/a
10.1285	0.092	20257	keystroke_v	v	n/a
10.2815	0.093	20563	keystroke_e	e	n/a
10.4655	0.069	20931	keystroke_r	r	n/a
10.5635	0.092	21127	keystroke_Key.space	Key.space	n/a
10.7275	0.136	21455	keystroke_a	a	n/a
10.8175	0.069	21635	keystroke_Key.space	Key.space	n/a
11.0235	0.09	22047	keystroke_l	l	n/a
11.1365	0.135	22273	keystroke_a	a	n/a
11.4475	0.205	22895	keystroke_z	z	n/a
11.6055	0.092	23211	keystroke_y	y	n/a
11.7395	0.091	23479	keystroke_Key.space	Key.space	n/a
11.9175	0.114	23835	keystroke_d	d	n/a
12.1265	0.134	24253	keystroke_o	o	n/a
12.4285	0.09	24857	keystroke_g	g	n/a
12.6955	0.067	25391	keystroke_Key.enter	Key.enter	n/a
12.769	9.865	25538	prompt	n/a	retrieval carey programmers brochure\n
13.7975	0.093	27595	keystroke_r	r	n/a
13.9975	0.111	27995	keystroke_e	e	n/a
14.1465	0.092	28293	keystroke_t	t	n/a
14.3415	0.091	28683	keystroke_r	r	n/a
15.395	0.114	30790	keystroke_i	i	n/a
15.791	0.134	31582	keystroke_e	e	n/a
15.9805	0.0895	31961	keystroke_v	v	n/a
16.4225	0.18	32845	keystroke_a	a	n/a
16.5565	0.159	33113	keystroke_l	l	n/a
16.7365	0.115	33473	keystroke_Key.space	Key.space	n/a
17.0695	0.139	34139	keystroke_c	c	n/a
17.3275	0.138	34655	keystroke_a	a	n/a
17.5605	0.093	35121	keystroke_r	r	n/a
17.758	0.115	35516	keystroke_e	e	n/a
17.895	0.1145	35790	keystroke_y	y	n/a
18.04	0.114	36080	keystroke_Key.space	Key.space	n/a
18.66	0.134	37320	keystroke_p	p	n/a
18.999	0.092	37998	keystroke_r	r	n/a
19.144	0.095	38288	keystroke_o	o	n/a
19.434	0.091	38868	keystroke_g	g	n/a
19.649	0.092	39298	keystroke_r	r	n/a
19.903	0.159	39806	keystroke_a	a	n/a
20.038	0.091	40076	keystroke_m	m	n/a
20.203	0.1155	40406	keystroke_m	m	n/a
20.271	0.1165	40542	keystroke_e	e	n/a
20.4645	0.093	40929	keystroke_r	r	n/a
20.678	0.136	41356	keystroke_s	s	n/a
20.791	0.113	41582	keystroke_Key.space	Key.space	n/a
21.064	0.091	42128	keystroke_b	b	n/a
21.267	0.114	42534	keystroke_r	r	n/a
21.5085	0.112	43017	keystroke_o	o	n/a
21.7195	0.1365	43439	keystroke_c	c	n/a
21.89	0.092	43780	keystroke_h	h	n/a
22.092	0.092	44184	keystroke_u	u	n/a
22.185	0.111	44370	keystroke_r	r	n/a
22.374	0.115	44748	keystroke_e	e	n/a
22.519	0.113	45038	keystroke_Key.enter	Key.enter	n/a
22.637	12.657	45274	prompt	n/a	thing environmental distributors glossary\n
23.498	0.091	46996	keystroke_t	t	n/a
23.729	0.114	47458	keystroke_h	h	n/a
23.889	0.118	47778	keystroke_i	i	n/a
24.116	0.069	48232	keystroke_n	n	n/a
24.294	0.096	48588	keystroke_g	g	n/a
24.42	0.114	48840	keystroke_Key.space	Key.space	n/a
24.584	0.134	49168	keystroke_e	e	n/a
24.719	0.089	49438	keystroke_n	n	n/a
25.641	0.137	51282	keystroke_v	v	n/a
25.928	0.111	51856	keystroke_i	i	n/a
26.096	0.094	52192	keystroke_r	r	n/a
26.2245	0.114	52449	keystroke_o	o	n/a
26.5525	0.092	53105	keystroke_n	n	n/a
26.7615	0.115	53523	keystroke_m	m	n/a
27.0245	0.14	54049	keystroke_e	e	n/a
27.8365	0.137	55673	keystroke_n	n	n/a
28.1165	0.114	56233	keystroke_t	t	n/a
28.364	0.139	56728	keystroke_a	a	n/a
28.72	0.159	57440	keystroke_l	l	n/a
28.91	0.136	57820	keystroke_Key.space	Key.space	n/a
29.509	0.136	59018	keystroke_d	d	n/a
29.77	0.092	59540	keystroke_i	i	n/a
29.896	0.159	59792	keystroke_s	s	n/a
30.087	0.1365	60174	keystroke_t	t	n/a
30.3175	0.092	60635	keystroke_r	r	n/a
31.3915	0.093	62783	keystroke_i	i	n/a
31.6615	0.091	63323	keystroke_b	b	n/a
31.8815	0.07	63763	keystroke_u	u	n/a
32.1185	0.091	64237	keystroke_t	t	n/a
32.2385	0.089	64477	keystroke_o	o	n/a
32.3575	0.141	64715	keystroke_r	r	n/a
32.738	0.139	65476	keystroke_s	s	n/a
32.901	0.092	65802	keystroke_Key.space	Key.space	n/a
33.368	0.092	66736	keystroke_g	g	n/a
33.64	0.1145	67280	keystroke_l	l	n/a
33.8645	0.093	67729	keystroke_o	o	n/a
34.0535	0.0905	68107	keystroke_s	s	n/a
34.239	0.113	68478	keystroke_s	s	n/a
34.452	0.134	68904	keystroke_a	a	n/a
34.657	0.136	69314	keystroke_r	r	n/a
34.818	0.112	69636	keystroke_y	y	n/a
35.176	0.113	70352	keystroke_Key.enter	Key.enter	n/a
35.294	8.157	70588	prompt	n/a	approve invitation dist hunger\n
35.8855	0.136	71771	keystroke_a	a	n/a
36.1405	0.092	72281	keystroke_p	p	n/a
36.2945	0.1165	72589	keystroke_p	p	n/a
36.776	0.135	73552	keystroke_r	r	n/a
36.932	0.093	73864	keystroke_o	o	n/a
37.316	0.161	74632	keystroke_v	v	n/a
37.519	0.158	75038	keystroke_e	e	n/a
37.678	0.134	75356	keystroke_Key.space	Key.space	n/a
38.116	0.0885	76232	keystroke_i	i	n/a
38.5555	0.089	77111	keystroke_n	n	n/a
38.7795	0.068	77559	keystroke_v	v	n/a
39.0795	0.114	78159	keystroke_i	i	n/a
39.3135	0.091	78627	keystroke_t	t	n/a
39.4355	0.161	78871	keystroke_a	a	n/a
39.5495	0.114	79099	keystroke_t	t	n/a
39.8685	0.136	79737	keystroke_i	i	n/a
40.0265	0.115	80053	keystroke_o	o	n/a
40.2615	0.1625	80523	keystroke_n	n	n/a
40.398	0.118	80796	keystroke_Key.space	Key.space	n/a
40.7995	0.1375	81599	keystroke_d	d	n/a
40.958	0.092	81916	keystroke_i	i	n/a
41.099	0.159	82198	keystroke_s	s	n/a
41.259	0.136	82518	keystroke_t	t	n/a
41.476	0.136	82952	keystroke_Key.space	Key.space	n/a
42.2715	0.113	84543	keystroke_h	h	n/a
42.4615	0.093	84923	keystroke_u	u	n/a
42.691	0.091	85382	keystroke_n	n	n/a
42.885	0.091	85770	keystroke_g	g	n/a
43.008	0.114	86016	keystroke_e	e	n/a
43.218	0.069	86436	keystroke_r	r	n/a
43.356	0.093	86712	keystroke_Key.enter	Key.enter	n/a
43.4535	14.608	86907	prompt	n/a	tripadvisor revelation assuming prerequisite\n
44.3345	0.139	88669	keystroke_t	t	n/a
44.5695	0.116	89139	keystroke_r	r	n/a
44.7475	0.115	89495	keystroke_i	i	n/a
44.9365	0.113	89873	keystroke_p	p	n/a
45.6055	0.181	91211	keystroke_a	a	n/a
45.8945	0.113	91789	keystroke_d	d	n/a
46.0965	0.09	92193	keystroke_v	v	n/a
46.3815	0.159	92763	keystroke_i	i	n/a
46.5415	0.136	93083	keystroke_s	s	n/a
46.6785	0.09	93357	keystroke_o	o	n/a
46.8735	0.136	93747	keystroke_r	r	n/a
47.0305	0.115	94061	keystroke_Key.space	Key.space	n/a
47.3665	0.089	94733	keystroke_r	r	n/a
47.5605	0.138	95121	keystroke_e	e	n/a
47.745	0.0895	95490	keystroke_v	v	n/a
47.9115	0.1365	95823	keystroke_e	e	n/a
48.1525	0.113	96305	keystroke_l	l	n/a
48.46	0.1355	96920	keystroke_a	a	n/a
48.6985	0.138	97397	keystroke_t	t	n/a
49.1175	0.1595	98235	keystroke_i	i	n/a
49.2995	0.114	98599	keystroke_o	o	n/a
49.5145	0.184	99029	keystroke_n	n	n/a
49.6995	0.132	99399	keystroke_Key.space	Key.space	n/a
50.0945	0.135	100189	keystroke_a	a	n/a
50.313	0.113	100626	keystroke_s	s	n/a
50.4945	0.161	100989	keystroke_s	s	n/a
50.5865	0.1115	101173	keystroke_u	u	n/a
50.858	0.137	101716	keystroke_m	m	n/a
51.04	0.112	102080	keystroke_i	i	n/a
51.206	0.137	102412	keystroke_n	n	n/a
51.438	0.137	102876	keystroke_g	g	n/a
51.598	0.0245	103196	keystroke_g	g	n/a
51.599	0.1375	103198	keystroke_Key.space	Key.space	n/a
52.2295	0.157	104459	keystroke_p	p	n/a
52.4605	0.116	104921	keystroke_r	r	n/a
52.6555	0.137	105311	keystroke_e	e	n/a
53.0115	0.092	106023	keystroke_r	r	n/a
53.1935	0.091	106387	keystroke_e	e	n/a
53.8465	0.159	107693	keystroke_q	q	n/a
54.1175	0.093	108235	keystroke_u	u	n/a
54.3035	0.113	108607	keystroke_i	i	n/a
54.5825	0.204	109165	keystroke_s	s	n/a
57.224	0.1565	114448	keystroke_t	t	n/a
57.418	0.1355	114836	keystroke_e	e	n/a
57.8995	0.16	115799	keystroke_Key.enter	Key.enter	n/a
58.065	9.5845	116130	prompt	n/a	messenger bestsellers swingers person\n
58.9855	0.138	117971	keystroke_m	m	n/a
59.1705	0.135	118341	keystroke_e	e	n/a
59.4445	0.092	118889	keystroke_s	s	n/a
59.6095	0.138	119219	keystroke_s	s	n/a
60.053	0.112	120106	keystroke_e	e	n/a
60.186	0.114	120372	keystroke_n	n	n/a
60.408	0.111	120816	keystroke_g	g	n/a
60.55	0.092	121100	keystroke_e	e	n/a
60.7405	0.091	121481	keystroke_r	r	n/a
60.8535	0.115	121707	keystroke_Key.space	Key.space	n/a
61.3195	0.1595	122639	keystroke_b	b	n/a
61.528	0.114	123056	keystroke_e	e	n/a
61.743	0.137	123486	keystroke_s	s	n/a
61.882	0.067	123764	keystroke_t	t	n/a
62.635	0.114	125270	keystroke_s	s	n/a
62.866	0.09	125732	keystroke_e	e	n/a
63.685	0.09	127370	keystroke_l	l	n/a
63.832	0.134	127664	keystroke_l	l	n/a
63.92	0.114	127840	keystroke_e	e	n/a
64.134	0.111	128268	keystroke_r	r	n/a
64.49	0.183	128980	keystroke_s	s	n/a
64.71	0.114	129420	keystroke_Key.space	Key.space	n/a
64.845	0.114	129690	keystroke_s	s	n/a
65.052	0.114	130104	keystroke_w	w	n/a
65.199	0.091	130398	keystroke_i	i	n/a
65.4425	0.089	130885	keystroke_n	n	n/a
65.6395	0.092	131279	keystroke_g	g	n/a
65.7325	0.07	131465	keystroke_e	e	n/a
65.9115	0.07	131823	keystroke_r	r	n/a
66.1235	0.138	132247	keystroke_s	s	n/a
66.2155	0.114	132431	keystroke_Key.space	Key.space	n/a
66.3865	0.11	132773	keystroke_p	p	n/a
66.5345	0.116	133069	keystroke_e	e	n/a
66.76	0.069	133520	keystroke_r	r	n/a
66.973	0.135	133946	keystroke_s	s	n/a
67.084	0.114	134168	keystroke_o	o	n/a
67.304	0.113	134608	keystroke_n	n	n/a
67.556	0.092	135112	keystroke_Key.enter	Key.enter	n/a
67.6525	6.784	135305	prompt	n/a	render them tail shaved\n
68.355	0.115	136710	keystroke_r	r	n/a
68.559	0.114	137118	keystroke_e	e	n/a
68.696	0.114	137392	keystroke_n	n	n/a
68.811	0.09	137622	keystroke_d	d	n/a
69.089	0.137	138178	keystroke_e	e	n/a
69.3455	0.114	138691	keystroke_r	r	n/a
69.4815	0.112	138963	keystroke_Key.space	Key.space	n/a
69.6755	0.136	139351	keystroke_t	t	n/a
69.9185	0.134	139837	keystroke_h	h	n/a
70.0755	0.115	140151	keystroke_e	e	n/a
70.2535	0.184	140507	keystroke_m	m	n/a
70.4385	0.111	140877	keystroke_Key.space	Key.space	n/a
70.9025	0.138	141805	keystroke_r	r	n/a
70.9935	0.093	141987	keystroke_t	t	n/a
71.8045	0.0705	143609	keystroke_Key.backspace	Key.backspace	n/a
71.981	0.069	143962	keystroke_Key.backspace	Key.backspace	n/a
72.091	0.09	144182	keystroke_t	t	n/a
72.332	0.135	144664	keystroke_a	a	n/a
72.868	0.115	145736	keystroke_i	i	n/a
73.11	0.159	146220	keystroke_l	l	n/a
73.245	0.139	146490	keystroke_Key.space	Key.space	n/a
73.4055	0.1375	146811	keystroke_s	s	n/a
73.545	0.111	147090	keystroke_h	h	n/a
73.678	0.136	147356	keystroke_a	a	n/a
73.836	0.135	147672	keystroke_v	v	n/a
73.994	0.114	147988	keystroke_e	e	n/a
74.188	0.112	148376	keystroke_d	d	n/a
74.321	0.114	148642	keystroke_Key.enter	Key.enter	n/a
74.4415	8.6125	148883	prompt	n/a	participate paintings justice review\n
75.3025	0.1175	150605	keystroke_p	p	n/a
75.421	0.16	150842	keystroke_a	a	n/a
75.72	0.114	151440	keystroke_r	r	n/a
75.947	0.091	151894	keystroke_t	t	n/a
76.06	0.091	152120	keystroke_i	i	n/a
76.23	0.156	152460	keystroke_c	c	n/a
76.388	0.09	152776	keystroke_i	i	n/a
76.53	0.113	153060	keystroke_p	p	n/a
76.644	0.1785	153288	keystroke_a	a	n/a
76.8635	0.115	153727	keystroke_t	t	n/a
76.9795	0.135	153959	keystroke_e	e	n/a
77.1365	0.115	154273	keystroke_Key.space	Key.space	n/a
77.4325	0.093	154865	keystroke_p	p	n/a
77.5775	0.16	155155	keystroke_a	a	n/a
77.7385	0.089	155477	keystroke_i	i	n/a
77.9635	0.114	155927	keystroke_n	n	n/a
78.1205	0.136	156241	keystroke_t	t	n/a
78.2575	0.112	156515	keystroke_i	i	n/a
78.4415	0.114	156883	keystroke_n	n	n/a
78.6625	0.09	157325	keystroke_g	g	n/a
78.8865	0.163	157773	keystroke_s	s	n/a
79.0265	0.114	158053	keystroke_Key.space	Key.space	n/a
79.713	0.115	159426	keystroke_j	j	n/a
79.931	0.09	159862	keystroke_u	u	n/a
80.022	0.18	160044	keystroke_s	s	n/a
80.203	0.089	160406	keystroke_t	t	n/a
80.385	0.114	160770	keystroke_i	i	n/a
80.522	0.137	161044	keystroke_c	c	n/a
80.828	0.158	161656	keystroke_e	e	n/a
81.195	0.093	162390	keystroke_Key.space	Key.space	n/a
81.833	0.092	163666	keystroke_r	r	n/a
82.031	0.113	164062	keystroke_e	e	n/a
82.241	0.094	164482	keystroke_v	v	n/a
82.48	0.115	164960	keystroke_i	i	n/a
82.596	0.114	165192	keystroke_e	e	n/a
82.801	0.115	165602	keystroke_w	w	n/a
82.937	0.115	165874	keystroke_Key.enter	Key.enter	n/a
83.057	9.618	166114	prompt	n/a	federal greg facility frank\n
83.8955	0.09	167791	keystroke_f	f	n/a
84.1005	0.111	168201	keystroke_e	e	n/a
84.3075	0.1175	168615	keystroke_d	d	n/a
84.51	0.138	169020	keystroke_e	e	n/a
84.729	0.111	169458	keystroke_r	r	n/a
84.934	0.182	169868	keystroke_a	a	n/a
85.226	0.16	170452	keystroke_l	l	n/a
85.363	0.114	170726	keystroke_Key.space	Key.space	n/a
85.76	0.113	171520	keystroke_g	g	n/a
85.893	0.114	171786	keystroke_r	r	n/a
86.086	0.134	172172	keystroke_e	e	n/a
86.251	0.136	172502	keystroke_g	g	n/a
86.409	0.115	172818	keystroke_Key.space	Key.space	n/a
86.8	0.136	173600	keystroke_f	f	n/a
87.053	0.134	174106	keystroke_a	a	n/a
87.2825	0.137	174565	keystroke_c	c	n/a
87.3955	0.091	174791	keystroke_i	i	n/a
87.5765	0.114	175153	keystroke_i	i	n/a
88.0425	0.159	176085	keystroke_Key.backspace	Key.backspace	n/a
89.7255	0.202	179451	keystroke_l	l	n/a
89.9625	0.094	179925	keystroke_i	i	n/a
90.7165	0.093	181433	keystroke_t	t	n/a
90.9055	0.09	181811	keystroke_y	y	n/a
91.0155	0.134	182031	keystroke_Key.space	Key.space	n/a
91.3175	0.114	182635	keystroke_f	f	n/a
91.4775	0.115	182955	keystroke_r	r	n/a
91.7085	0.136	183417	keystroke_a	a	n/a
91.7985	0.113	183597	keystroke_n	n	n/a
91.9965	0.136	183993	keystroke_k	k	n/a
92.5405	0.133	185081	keystroke_Key.enter	Key.enter	n/a
92.678	9.509	185356	prompt	n/a	totals leone amber exclusively\n
93.612	0.138	187224	keystroke_t	t	n/a
93.797	0.114	187594	keystroke_o	o	n/a
93.887	0.114	187774	keystroke_t	t	n/a
94.1785	0.159	188357	keystroke_a	a	n/a
94.3135	0.093	188627	keystroke_l	l	n/a
94.4075	0.135	188815	keystroke_s	s	n/a
94.5435	0.1355	189087	keystroke_Key.space	Key.space	n/a
94.715	0.091	189430	keystroke_l	l	n/a
94.828	0.092	189656	keystroke_e	e	n/a
95.143	0.114	190286	keystroke_o	o	n/a
96.036	0.159	192072	keystroke_n	n	n/a
96.217	0.138	192434	keystroke_e	e	n/a
96.332	0.114	192664	keystroke_Key.space	Key.space	n/a
96.501	0.159	193002	keystroke_a	a	n/a
96.681	0.12	193362	keystroke_m	m	n/a
96.954	0.091	193908	keystroke_b	b	n/a
97.046	0.1115	194092	keystroke_e	e	n/a
97.2575	0.114	194515	keystroke_r	r	n/a
97.3725	0.112	194745	keystroke_Key.space	Key.space	n/a
97.8025	0.135	195605	keystroke_e	e	n/a
98.1045	0.1345	196209	keystroke_x	x	n/a
98.325	0.115	196650	keystroke_c	c	n/a
98.462	0.136	196924	keystroke_l	l	n/a
98.646	0.117	197292	keystroke_u	u	n/a
98.809	0.158	197618	keystroke_s	s	n/a
98.943	0.0925	197886	keystroke_i	i	n/a
99.2135	0.069	198427	keystroke_b	b	n/a
99.2355	0.05	198471	keystroke_v	v	n/a
99.3965	0.117	198793	keystroke_e	e	n/a
100.082	0.092	200164	keystroke_Key.backspace	Key.backspace	n/a
100.256	0.116	200512	keystroke_Key.backspace	Key.backspace	n/a
100.452	0.069	200904	keystroke_Key.backspace	Key.backspace	n/a
101.156	0.09	202312	keystroke_v	v	n/a
101.295	0.089	202590	keystroke_e	e	n/a
101.474	0.113	202948	keystroke_l	l	n/a
101.742	0.069	203484	keystroke_y	y	n/a
102.094	0.092	204188	keystroke_Key.enter	Key.enter	n/a
102.1895	12.0305	204379	prompt	n/a	ruling commented molecules cosmetics\n
103.1285	0.047	206257	keystroke_r	r	n/a
104.021	0.113	208042	keystroke_u	u	n/a
104.231	0.203	208462	keystroke_l	l	n/a
104.492	0.114	208984	keystroke_i	i	n/a
104.494	0.089	208988	keystroke_u	u	n/a
105.018	0.133	210036	keystroke_Key.backspace	Key.backspace	n/a
105.561	0.114	211122	keystroke_n	n	n/a
105.758	0.093	211516	keystroke_g	g	n/a
105.898	0.09	211796	keystroke_Key.space	Key.space	n/a
106.2215	0.183	212443	keystroke_c	c	n/a
106.4265	0.137	212853	keystroke_o	o	n/a
106.877	0.225	213754	keystroke_m	m	n/a
107.7645	0.159	215529	keystroke_m	m	n/a
107.9445	0.117	215889	keystroke_e	e	n/a
108.0625	0.112	216125	keystroke_n	n	n/a
108.2845	0.111	216569	keystroke_t	t	n/a
108.43	0.113	216860	keystroke_e	e	n/a
108.624	0.113	217248	keystroke_d	d	n/a
108.759	0.093	217518	keystroke_Key.space	Key.space	n/a
109.188	0.159	218376	keystroke_m	m	n/a
109.443	0.114	218886	keystroke_o	o	n/a
109.677	0.094	219354	keystroke_l	l	n/a
109.821	0.115	219642	keystroke_e	e	n/a
110.419	0.159	220838	keystroke_c	c	n/a
110.579	0.069	221158	keystroke_u	u	n/a
110.737	0.117	221474	keystroke_l	l	n/a
110.855	0.137	221710	keystroke_e	e	n/a
111.094	0.139	222188	keystroke_s	s	n/a
111.184	0.138	222368	keystroke_Key.space	Key.space	n/a
111.933	0.181	223866	keystroke_c	c	n/a
112.115	0.113	224230	keystroke_o	o	n/a
112.27	0.16	224540	keystroke_s	s	n/a
112.431	0.112	224862	keystroke_m	m	n/a
112.592	0.1145	225184	keystroke_e	e	n/a
112.9445	0.114	225889	keystroke_t	t	n/a
113.222	0.18	226444	keystroke_i	i	n/a
113.424	0.113	226848	keystroke_c	c	n/a
113.652	0.1825	227304	keystroke_s	s	n/a
114.083	0.136	228166	keystroke_Key.enter	Key.enter	n/a
114.2225	8.904	228445	prompt	n/a	it provisions roots scientist\n
115.0445	0.091	230089	keystroke_u	u	n/a
115.4305	0.116	230861	keystroke_Key.backspace	Key.backspace	n/a
115.6605	0.115	231321	keystroke_i	i	n/a
115.978	0.116	231956	keystroke_t	t	n/a
116.188	0.09	232376	keystroke_Key.space	Key.space	n/a
116.478	0.133	232956	keystroke_p	p	n/a
116.66	0.113	233320	keystroke_r	r	n/a
116.796	0.071	233592	keystroke_o	o	n/a
117.467	0.134	234934	keystroke_v	v	n/a
117.687	0.09	235374	keystroke_i	i	n/a
117.875	0.182	235750	keystroke_s	s	n/a
118.058	0.135	236116	keystroke_i	i	n/a
118.194	0.1115	236388	keystroke_o	o	n/a
118.4055	0.181	236811	keystroke_n	n	n/a
118.5625	0.1345	237125	keystroke_s	s	n/a
118.652	0.1125	237304	keystroke_Key.space	Key.space	n/a
118.933	0.112	237866	keystroke_r	r	n/a
119.0915	0.092	238183	keystroke_o	o	n/a
119.2505	0.112	238501	keystroke_o	o	n/a
119.4935	0.092	238987	keystroke_t	t	n/a
119.6175	0.158	239235	keystroke_s	s	n/a
119.7505	0.116	239501	keystroke_Key.space	Key.space	n/a
120.1505	0.114	240301	keystroke_s	s	n/a
120.3965	0.115	240793	keystroke_c	c	n/a
120.5125	0.091	241025	keystroke_i	i	n/a
120.6545	0.115	241309	keystroke_e	e	n/a
120.7715	0.113	241543	keystroke_n	n	n/a
121.0015	0.092	242003	keystroke_t	t	n/a
121.1495	0.163	242299	keystroke_i	i	n/a
121.4075	0.113	242815	keystroke_t	t	n/a
121.7035	0.116	243407	keystroke_s	s	n/a
122.0985	0.112	244197	keystroke_Key.backspace	Key.backspace	n/a
122.2965	0.091	244593	keystroke_Key.backspace	Key.backspace	n/a
122.4195	0.137	244839	keystroke_s	s	n/a
122.6265	0.113	245253	keystroke_t	t	n/a
122.9905	0.1345	245981	keystroke_Key.enter	Key.enter	n/a
123.129	6.1145	246258	prompt	n/a	mounts adrian wendy demands\n
124.024	0.091	248048	keystroke_m	m	n/a
124.242	0.091	248484	keystroke_o	o	n/a
124.41	0.094	248820	keystroke_u	u	n/a
124.628	0.093	249256	keystroke_n	n	n/a
124.839	0.094	249678	keystroke_t	t	n/a
124.955	0.179	249910	keystroke_s	s	n/a
125.11	0.114	250220	keystroke_Key.space	Key.space	n/a
125.648	0.137	251296	keystroke_a	a	n/a
125.862	0.092	251724	keystroke_d	d	n/a
126.084	0.091	252168	keystroke_r	r	n/a
126.205	0.115	252410	keystroke_i	i	n/a
126.366	0.138	252732	keystroke_a	a	n/a
126.525	0.116	253050	keystroke_n	n	n/a
126.642	0.1115	253284	keystroke_Key.space	Key.space	n/a
126.7295	0.159	253459	keystroke_w	w	n/a
126.9915	0.0915	253983	keystroke_e	e	n/a
127.084	0.114	254168	keystroke_n	n	n/a
127.229	0.115	254458	keystroke_d	d	n/a
127.366	0.114	254732	keystroke_y	y	n/a
127.511	0.115	255022	keystroke_Key.space	Key.space	n/a
128.05	0.113	256100	keystroke_d	d	n/a
128.25	0.135	256500	keystroke_e	e	n/a
128.387	0.092	256774	keystroke_m	m	n/a
128.517	0.1595	257034	keystroke_a	a	n/a
128.63	0.114	257260	keystroke_n	n	n/a
128.745	0.133	257490	keystroke_d	d	n/a
128.97	0.181	257940	keystroke_s	s	n/a
129.128	0.1135	258256	keystroke_Key.enter	Key.enter	n/a
129.2465	11.2695	258493	prompt	n/a	expects manor jurisdiction want\n
129.8885	0.138	259777	keystroke_e	e	n/a
130.569	0.1335	261138	keystroke_x	x	n/a
130.7245	0.205	261449	keystroke_p	p	n/a
130.9305	0.111	261861	keystroke_e	e	n/a
131.1795	0.1565	262359	keystroke_c	c	n/a
131.313	0.161	262626	keystroke_t	t	n/a
131.5035	0.135	263007	keystroke_s	s	n/a
131.6615	0.113	263323	keystroke_Key.space	Key.space	n/a
132.213	0.113	264426	keystroke_m	m	n/a
132.359	0.161	264718	keystroke_a	a	n/a
132.45	0.092	264900	keystroke_n	n	n/a
132.645	0.09	265290	keystroke_o	o	n/a
132.816	0.167	265632	keystroke_r	r	n/a
132.984	0.088	265968	keystroke_Key.space	Key.space	n/a
133.449	0.114	266898	keystroke_j	j	n/a
133.647	0.091	267294	keystroke_u	u	n/a
133.8745	0.092	267749	keystroke_r	r	n/a
137.12	0.116	274240	keystroke_i	i	n/a
137.258	0.137	274516	keystroke_s	s	n/a
137.908	0.136	275816	keystroke_d	d	n/a
138.119	0.09	276238	keystroke_i	i	n/a
138.231	0.137	276462	keystroke_c	c	n/a
138.402	0.112	276804	keystroke_t	t	n/a
138.7445	0.2	277489	keystroke_i	i	n/a
139.0185	0.159	278037	keystroke_o	o	n/a
139.2885	0.179	278577	keystroke_n	n	n/a
139.4685	0.114	278937	keystroke_Key.space	Key.space	n/a
139.6405	0.159	279281	keystroke_w	w	n/a
139.8685	0.139	279737	keystroke_a	a	n/a
139.9365	0.117	279873	keystroke_n	n	n/a
140.1545	0.09	280309	keystroke_t	t	n/a
140.421	0.093	280842	keystroke_Key.enter	Key.enter	n/a
140.519	8.2285	281038	prompt	n/a	response missed objective difficulties\n
141.206	0.114	282412	keystroke_r	r	n/a
141.427	0.092	282854	keystroke_e	e	n/a
141.616	0.138	283232	keystroke_s	s	n/a
141.687	0.202	283374	keystroke_p	p	n/a
141.844	0.091	283688	keystroke_o	o	n/a
142.066	0.112	284132	keystroke_n	n	n/a
142.209	0.114	284418	keystroke_s	s	n/a
142.448	0.112	284896	keystroke_e	e	n/a
142.561	0.1565	285122	keystroke_Key.space	Key.space	n/a
142.9435	0.116	285887	keystroke_m	m	n/a
143.167	0.074	286334	keystroke_i	i	n/a
143.278	0.113	286556	keystroke_s	s	n/a
143.456	0.114	286912	keystroke_s	s	n/a
143.676	0.09	287352	keystroke_e	e	n/a
143.867	0.138	287734	keystroke_d	d	n/a
143.956	0.139	287912	keystroke_Key.space	Key.space	n/a
144.119	0.115	288238	keystroke_o	o	n/a
144.6355	0.09	289271	keystroke_b	b	n/a
144.8335	0.092	289667	keystroke_j	j	n/a
144.9475	0.115	289895	keystroke_e	e	n/a
145.1995	0.14	290399	keystroke_c	c	n/a
145.3155	0.069	290631	keystroke_t	t	n/a
145.4805	0.114	290961	keystroke_i	i	n/a
145.7475	0.092	291495	keystroke_v	v	n/a
145.8905	0.136	291781	keystroke_e	e	n/a
146.0275	0.088	292055	keystroke_Key.space	Key.space	n/a
146.2775	0.158	292555	keystroke_d	d	n/a
146.5315	0.091	293063	keystroke_i	i	n/a
146.9265	0.047	293853	keystroke_f	f	n/a
147.0875	0.0925	294175	keystroke_f	f	n/a
147.278	0.114	294556	keystroke_i	i	n/a
147.437	0.139	294874	keystroke_c	c	n/a
147.577	0.088	295154	keystroke_u	u	n/a
147.788	0.134	295576	keystroke_l	l	n/a
147.945	0.093	295890	keystroke_t	t	n/a
148.06	0.089	296120	keystroke_i	i	n/a
148.185	0.159	296370	keystroke_e	e	n/a
148.469	0.139	296938	keystroke_s	s	n/a
148.63	0.116	297260	keystroke_Key.enter	Key.enter	n/a
148.7505	9.3345	297501	prompt	n/a	they're influences regulatory electronic\n
149.7145	0.091	299429	keystroke_t	t	n/a
149.9305	0.117	299861	keystroke_h	h	n/a
150.0485	0.114	300097	keystroke_e	e	n/a
150.1385	0.07	300277	keystroke_y	y	n/a
150.805	0.068	301610	keystroke_'	'	n/a
150.932	0.117	301864	keystroke_r	r	n/a
151.146	0.116	302292	keystroke_e	e	n/a
151.285	0.093	302570	keystroke_Key.space	Key.space	n/a
151.886	0.116	303772	keystroke_i	i	n/a
152.21	0.114	304420	keystroke_n	n	n/a
152.415	0.138	304830	keystroke_f	f	n/a
152.527	0.141	305054	keystroke_l	l	n/a
152.69	0.092	305380	keystroke_u	u	n/a
152.803	0.114	305606	keystroke_e	e	n/a
152.938	0.113	305876	keystroke_n	n	n/a
153.076	0.138	306152	keystroke_c	c	n/a
153.325	0.093	306650	keystroke_e	e	n/a
153.522	0.16	307044	keystroke_s	s	n/a
153.658	0.117	307316	keystroke_Key.space	Key.space	n/a
153.99	0.096	307980	keystroke_r	r	n/a
154.176	0.111	308352	keystroke_e	e	n/a
154.308	0.093	308616	keystroke_g	g	n/a
154.5	0.112	309000	keystroke_u	u	n/a
154.7505	0.114	309501	keystroke_l	l	n/a
154.8385	0.138	309677	keystroke_a	a	n/a
155.1295	0.138	310259	keystroke_t	t	n/a
155.3235	0.1135	310647	keystroke_o	o	n/a
155.491	0.115	310982	keystroke_r	r	n/a
155.627	0.1595	311254	keystroke_y	y	n/a
155.8155	0.0905	311631	keystroke_Key.space	Key.space	n/a
156.1585	0.137	312317	keystroke_e	e	n/a
156.4205	0.095	312841	keystroke_l	l	n/a
156.5375	0.092	313075	keystroke_e	e	n/a
156.7525	0.137	313505	keystroke_c	c	n/a
156.8905	0.112	313781	keystroke_t	t	n/a
157.0705	0.092	314141	keystroke_r	r	n/a
157.193	0.156	314386	keystroke_o	o	n/a
157.4435	0.114	314887	keystroke_n	n	n/a
157.6125	0.07	315225	keystroke_i	i	n/a
157.6845	0.135	315369	keystroke_c	c	n/a
157.9885	0.094	315977	keystroke_Key.enter	Key.enter	n/a
158.0875	11.5655	316175	prompt	n/a	think publicly meyer measures\n
158.9955	0.114	317991	keystroke_t	t	n/a
159.2275	0.135	318455	keystroke_h	h	n/a
159.4105	0.092	318821	keystroke_i	i	n/a
159.6805	0.092	319361	keystroke_n	n	n/a
159.8475	0.135	319695	keystroke_k	k	n/a
159.9835	0.113	319967	keystroke_Key.space	Key.space	n/a
160.1385	0.114	320277	keystroke_p	p	n/a
160.8885	0.091	321777	keystroke_u	u	n/a
161.1285	0.094	322257	keystroke_b	b	n/a
161.3525	0.138	322705	keystroke_l	l	n/a
161.4905	0.09	322981	keystroke_i	i	n/a
161.6515	0.156	323303	keystroke_c	c	n/a
162.498	0.16	324996	keystroke_l	l	n/a
162.8175	0.158	325635	keystroke_t	t	n/a
163.0345	0.138	326069	keystroke_Key.space	Key.space	n/a
163.5225	0.116	327045	keystroke_Key.backspace	Key.backspace	n/a
163.7055	0.094	327411	keystroke_Key.backspace	Key.backspace	n/a
164.1805	0.1415	328361	keystroke_y	y	n/a
164.296	0.136	328592	keystroke_Key.space	Key.space	n/a
164.536	0.114	329072	keystroke_m	m	n/a
164.755	0.16	329510	keystroke_e	e	n/a
165.1135	0.1145	330227	keystroke_y	y	n/a
165.2285	0.135	330457	keystroke_e	e	n/a
165.463	0.093	330926	keystroke_r	r	n/a
166.339	0.138	332678	keystroke_Key.space	Key.space	n/a
166.63	0.1155	333260	keystroke_m	m	n/a
166.7205	0.138	333441	keystroke_e	e	n/a
166.9365	0.207	333873	keystroke_a	a	n/a
167.0735	0.161	334147	keystroke_s	s	n/a
167.2105	0.093	334421	keystroke_u	u	n/a
167.3555	0.115	334711	keystroke_r	r	n/a
167.5455	0.113	335091	keystroke_e	e	n/a
167.7685	0.136	335537	keystroke_s	s	n/a
169.47	0.181	338940	keystroke_Key.enter	Key.enter	n/a
169.656	7.99	339312	prompt	n/a	shoppers tracy throat outside\n
170.7985	0.205	341597	keystroke_s	s	n/a
171.0255	0.092	342051	keystroke_h	h	n/a
171.3365	0.095	342673	keystroke_o	o	n/a
171.5535	0.092	343107	keystroke_p	p	n/a
171.7055	0.113	343411	keystroke_p	p	n/a
171.7725	0.115	343545	keystroke_e	e	n/a
171.9585	0.092	343917	keystroke_r	r	n/a
172.6775	0.205	345355	keystroke_s	s	n/a
172.8135	0.158	345627	keystroke_Key.space	Key.space	n/a
173.1705	0.119	346341	keystroke_t	t	n/a
173.3675	0.115	346735	keystroke_r	r	n/a
173.4835	0.135	346967	keystroke_a	a	n/a
173.7755	0.136	347551	keystroke_c	c	n/a
173.9125	0.091	347825	keystroke_y	y	n/a
174.0265	0.093	348053	keystroke_Key.space	Key.space	n/a
174.6135	0.136	349227	keystroke_t	t	n/a
174.8545	0.117	349709	keystroke_h	h	n/a
174.9725	0.133	349945	keystroke_r	r	n/a
175.1795	0.116	350359	keystroke_o	o	n/a
175.3455	0.157	350691	keystroke_a	a	n/a
175.5035	0.113	351007	keystroke_t	t	n/a
175.6505	0.113	351301	keystroke_Key.space	Key.space	n/a
176.2825	0.137	352565	keystroke_o	o	n/a
176.5185	0.114	353037	keystroke_u	u	n/a
176.761	0.091	353522	keystroke_t	t	n/a
176.896	0.138	353792	keystroke_s	s	n/a
177.035	0.112	354070	keystroke_i	i	n/a
177.209	0.114	354418	keystroke_d	d	n/a
177.395	0.114	354790	keystroke_e	e	n/a
177.553	0.091	355106	keystroke_Key.enter	Key.enter	n/a
177.65	25.353	355300	prompt	n/a	haven't ceramic phases mortgage\n
178.4355	0.159	356871	keystroke_h	h	n/a
178.572	0.1595	357144	keystroke_a	a	n/a
178.7665	0.091	357533	keystroke_v	v	n/a
178.8785	0.094	357757	keystroke_e	e	n/a
179.0455	0.0925	358091	keystroke_n	n	n/a
179.428	0.114	358856	keystroke_'	'	n/a
179.451	0.023	358902	keystroke_;	;	n/a
179.853	0.112	359706	keystroke_t	t	n/a
179.997	0.118	359994	keystroke_Key.space	Key.space	n/a
180.605	0.1145	361210	keystroke_c	c	n/a
180.8265	0.115	361653	keystroke_e	e	n/a
181.0275	0.093	362055	keystroke_r	r	n/a
181.2155	0.136	362431	keystroke_m	m	n/a
181.3525	0.136	362705	keystroke_a	a	n/a
181.5255	0.092	363051	keystroke_i	i	n/a
181.7095	0.205	363419	keystroke_c	c	n/a
181.9365	0.0935	363873	keystroke_Key.space	Key.space	n/a
182.316	0.114	364632	keystroke_p	p	n/a
183.2335	0.115	366467	keystroke_h	h	n/a
183.3705	0.112	366741	keystroke_r	r	n/a
183.5825	0.225	367165	keystroke_a	a	n/a
183.8085	0.111	367617	keystroke_s	s	n/a
184.039	0.1335	368078	keystroke_e	e	n/a
184.2765	0.137	368553	keystroke_s	s	n/a
187.8265	0.182	375653	keystroke_Key.backspace	Key.backspace	n/a
188.121	0.0915	376242	keystroke_Key.backspace	Key.backspace	n/a
188.3335	0.138	376667	keystroke_Key.backspace	Key.backspace	n/a
188.762	0.182	377524	keystroke_s	s	n/a
189.083	0.137	378166	keystroke_m	m	n/a
189.322	0.094	378644	keystroke_i	i	n/a
189.482	0.135	378964	keystroke_c	c	n/a
189.9445	0.112	379889	keystroke_Key.backspace	Key.backspace	n/a
190.1345	0.09	380269	keystroke_Key.backspace	Key.backspace	n/a
190.3025	0.093	380605	keystroke_Key.backspace	Key.backspace	n/a
190.4755	0.091	380951	keystroke_Key.backspace	Key.backspace	n/a
190.6555	0.0905	381311	keystroke_Key.backspace	Key.backspace	n/a
190.832	0.089	381664	keystroke_Key.backspace	Key.backspace	n/a
192.473	0.183	384946	keystroke_r	r	n/a
192.902	0.205	385804	keystroke_a	a	n/a
193.508	0.089	387016	keystroke_m	m	n/a
193.697	0.0935	387394	keystroke_i	i	n/a
193.8465	0.1375	387693	keystroke_c	c	n/a
196.3595	0.18	392719	keystroke_Key.backspace	Key.backspace	n/a
198.7725	0.161	397545	keystroke_Key.space	Key.space	n/a
199.06	0.157	398120	keystroke_m	m	n/a
199.265	0.092	398530	keystroke_o	o	n/a
199.39	0.139	398780	keystroke_r	r	n/a
199.671	0.092	399342	keystroke_t	t	n/a
199.8915	0.206	399783	keystroke_a	a	n/a
200.1185	0.09	400237	keystroke_g	g	n/a
200.2305	0.1615	400461	keystroke_e	e	n/a
201.0785	0.158	402157	keystroke_Key.backspace	Key.backspace	n/a
201.3675	0.117	402735	keystroke_Key.backspace	Key.backspace	n/a
201.8625	0.114	403725	keystroke_Key.backspace	Key.backspace	n/a
202.3375	0.113	404675	keystroke_g	g	n/a
202.4275	0.18	404855	keystroke_a	a	n/a
202.5595	0.094	405119	keystroke_g	g	n/a
202.6905	0.137	405381	keystroke_e	e	n/a
202.8875	0.114	405775	keystroke_Key.enter	Key.enter	n/a
203.006	10.5435	406012	prompt	n/a	corporation varies illness they\n
203.9015	0.155	407803	keystroke_c	c	n/a
204.0885	0.112	408177	keystroke_o	o	n/a
204.3085	0.096	408617	keystroke_o	o	n/a
204.7095	0.138	409419	keystroke_Key.backspace	Key.backspace	n/a
204.8775	0.158	409755	keystroke_r	r	n/a
205.0365	0.138	410073	keystroke_o	o	n/a
205.2215	0.204	410443	keystroke_p	p	n/a
205.4265	0.066	410853	keystroke_o	o	n/a
205.5145	0.14	411029	keystroke_r	r	n/a
206.03	0.181	412060	keystroke_a	a	n/a
206.517	0.113	413034	keystroke_t	t	n/a
206.895	0.115	413790	keystroke_i	i	n/a
207.042	0.203	414084	keystroke_o	o	n/a
207.381	0.16	414762	keystroke_n	n	n/a
207.564	0.113	415128	keystroke_Key.space	Key.space	n/a
208.206	0.114	416412	keystroke_v	v	n/a
208.341	0.141	416682	keystroke_a	a	n/a
208.596	0.115	417192	keystroke_r	r	n/a
208.689	0.091	417378	keystroke_i	i	n/a
208.837	0.114	417674	keystroke_e	e	n/a
209.075	0.159	418150	keystroke_s	s	n/a
209.235	0.091	418470	keystroke_Key.space	Key.space	n/a
211.111	0.11	422222	keystroke_i	i	n/a
211.394	0.093	422788	keystroke_l	l	n/a
211.536	0.113	423072	keystroke_l	l	n/a
211.735	0.112	423470	keystroke_n	n	n/a
211.92	0.114	423840	keystroke_e	e	n/a
212.2	0.115	424400	keystroke_s	s	n/a
212.408	0.14	424816	keystroke_s	s	n/a
212.524	0.091	425048	keystroke_Key.space	Key.space	n/a
212.7815	0.116	425563	keystroke_t	t	n/a
213.0015	0.113	426003	keystroke_h	h	n/a
213.1355	0.1385	426271	keystroke_e	e	n/a
213.2275	0.0685	426455	keystroke_y	y	n/a
213.454	0.094	426908	keystroke_Key.enter	Key.enter	n/a
213.552	6.917	427104	prompt	n/a	skype lime legendary determined\n
214.239	0.179	428478	keystroke_s	s	n/a
214.543	0.07	429086	keystroke_k	k	n/a
214.831	0.09	429662	keystroke_y	y	n/a
215.041	0.137	430082	keystroke_p	p	n/a
215.212	0.159	430424	keystroke_e	e	n/a
215.326	0.1135	430652	keystroke_Key.space	Key.space	n/a
215.6905	0.183	431381	keystroke_l	l	n/a
215.8495	0.094	431699	keystroke_i	i	n/a
216.0745	0.135	432149	keystroke_m	m	n/a
216.2105	0.157	432421	keystroke_e	e	n/a
216.3225	0.161	432645	keystroke_Key.space	Key.space	n/a
216.6085	0.1385	433217	keystroke_l	l	n/a
216.768	0.137	433536	keystroke_e	e	n/a
216.997	0.091	433994	keystroke_g	g	n/a
217.11	0.092	434220	keystroke_e	e	n/a
217.233	0.113	434466	keystroke_n	n	n/a
217.388	0.136	434776	keystroke_d	d	n/a
217.631	0.18	435262	keystroke_a	a	n/a
217.882	0.115	435764	keystroke_r	r	n/a
218.057	0.091	436114	keystroke_y	y	n/a
218.171	0.135	436342	keystroke_Key.space	Key.space	n/a
218.658	0.1355	437316	keystroke_d	d	n/a
218.8675	0.138	437735	keystroke_e	e	n/a
219.0365	0.116	438073	keystroke_t	t	n/a
219.1275	0.092	438255	keystroke_e	e	n/a
219.3165	0.069	438633	keystroke_r	r	n/a
219.506	0.179	439012	keystroke_m	m	n/a
219.722	0.136	439444	keystroke_i	i	n/a
219.938	0.114	439876	keystroke_n	n	n/a
220.006	0.114	440012	keystroke_e	e	n/a
220.236	0.115	440472	keystroke_d	d	n/a
220.374	0.093	440748	keystroke_Key.enter	Key.enter	n/a
220.4715	8.163	440943	prompt	n/a	place upset graduate lock\n
221.1755	0.134	442351	keystroke_p	p	n/a
221.4245	0.092	442849	keystroke_l	l	n/a
221.5175	0.137	443035	keystroke_a	a	n/a
221.8335	0.138	443667	keystroke_c	c	n/a
222.0775	0.1155	444155	keystroke_e	e	n/a
222.1935	0.116	444387	keystroke_Key.space	Key.space	n/a
222.698	0.091	445396	keystroke_u	u	n/a
222.893	0.116	445786	keystroke_p	p	n/a
223.071	0.139	446142	keystroke_s	s	n/a
223.322	0.091	446644	keystroke_e	e	n/a
223.6265	0.116	447253	keystroke_t	t	n/a
223.8185	0.111	447637	keystroke_Key.space	Key.space	n/a
224.488	0.095	448976	keystroke_g	g	n/a
224.641	0.0935	449282	keystroke_r	r	n/a
224.8865	0.16	449773	keystroke_a	a	n/a
225.1085	0.134	450217	keystroke_d	d	n/a
225.4755	0.139	450951	keystroke_u	u	n/a
226.012	0.204	452024	keystroke_a	a	n/a
226.238	0.114	452476	keystroke_t	t	n/a
226.415	0.136	452830	keystroke_e	e	n/a
226.552	0.088	453104	keystroke_Key.space	Key.space	n/a
226.9205	0.067	453841	keystroke_k	k	n/a
227.3725	0.114	454745	keystroke_Key.backspace	Key.backspace	n/a
227.6245	0.135	455249	keystroke_l	l	n/a
227.8435	0.114	455687	keystroke_o	o	n/a
227.9585	0.134	455917	keystroke_c	c	n/a
228.1615	0.181	456323	keystroke_k	k	n/a
228.5175	0.115	457035	keystroke_Key.enter	Key.enter	n/a
228.6375	7.606	457275	prompt	n/a	rider suzuki flux sponsor\n
229.5245	0.137	459049	keystroke_r	r	n/a
229.8605	0.091	459721	keystroke_i	i	n/a
229.9745	0.112	459949	keystroke_d	d	n/a
230.1935	0.092	460387	keystroke_e	e	n/a
230.3715	0.1185	460743	keystroke_r	r	n/a
230.491	0.114	460982	keystroke_Key.space	Key.space	n/a
231.0235	0.137	462047	keystroke_s	s	n/a
231.2745	0.095	462549	keystroke_u	u	n/a
231.6665	0.181	463333	keystroke_z	z	n/a
231.9785	0.115	463957	keystroke_u	u	n/a
232.3665	0.1345	464733	keystroke_k	k	n/a
232.591	0.091	465182	keystroke_i	i	n/a
232.752	0.092	465504	keystroke_Key.space	Key.space	n/a
233.411	0.1605	466822	keystroke_f	f	n/a
233.6295	0.159	467259	keystroke_l	l	n/a
233.8335	0.133	467667	keystroke_u	u	n/a
234.1075	0.159	468215	keystroke_x	x	n/a
234.2675	0.134	468535	keystroke_Key.space	Key.space	n/a
234.7805	0.135	469561	keystroke_s	s	n/a
234.9365	0.1765	469873	keystroke_p	p	n/a
235.147	0.113	470294	keystroke_o	o	n/a
235.4045	0.137	470809	keystroke_n	n	n/a
235.6305	0.16	471261	keystroke_s	s	n/a
235.8135	0.092	471627	keystroke_o	o	n/a
235.9805	0.113	471961	keystroke_r	r	n/a
236.1485	0.093	472297	keystroke_Key.enter	Key.enter	n/a
236.2465	7.6945	472493	prompt	n/a	indexes exam fill onto\n
237.0515	0.092	474103	keystroke_i	i	n/a
237.3275	0.069	474655	keystroke_n	n	n/a
237.573	0.117	475146	keystroke_d	d	n/a
237.799	0.068	475598	keystroke_e	e	n/a
238.217	0.093	476434	keystroke_x	x	n/a
238.36	0.091	476720	keystroke_e	e	n/a
238.5915	0.134	477183	keystroke_s	s	n/a
238.7265	0.111	477453	keystroke_Key.space	Key.space	n/a
239.995	0.138	479990	keystroke_e	e	n/a
240.323	0.139	480646	keystroke_x	x	n/a
240.566	0.2075	481132	keystroke_a	a	n/a
240.7495	0.138	481499	keystroke_m	m	n/a
240.9085	0.1135	481817	keystroke_Key.space	Key.space	n/a
241.627	0.115	483254	keystroke_f	f	n/a
241.819	0.114	483638	keystroke_i	i	n/a
242.063	0.089	484126	keystroke_l	l	n/a
242.211	0.16	484422	keystroke_l	l	n/a
242.372	0.089	484744	keystroke_Key.space	Key.space	n/a
242.7195	0.138	485439	keystroke_o	o	n/a
242.9485	0.114	485897	keystroke_n	n	n/a
243.1045	0.112	486209	keystroke_t	t	n/a
243.529	0.1375	487058	keystroke_o	o	n/a
243.8255	0.114	487651	keystroke_Key.enter	Key.enter	n/a
243.944	6.3015	487888	prompt	n/a	outside drum audi packard\n
244.6985	0.117	489397	keystroke_o	o	n/a
244.8895	0.113	489779	keystroke_u	u	n/a
245.1585	0.091	490317	keystroke_t	t	n/a
245.3265	0.16	490653	keystroke_s	s	n/a
245.4615	0.136	490923	keystroke_i	i	n/a
245.6305	0.093	491261	keystroke_d	d	n/a
245.8295	0.112	491659	keystroke_e	e	n/a
245.9645	0.113	491929	keystroke_Key.space	Key.space	n/a
246.2955	0.135	492591	keystroke_d	d	n/a
246.5235	0.091	493047	keystroke_r	r	n/a
246.6385	0.1165	493277	keystroke_u	u	n/a
246.899	0.1565	493798	keystroke_m	m	n/a
247.056	0.1335	494112	keystroke_Key.space	Key.space	n/a
247.4195	0.183	494839	keystroke_a	a	n/a
247.8495	0.092	495699	keystroke_u	u	n/a
247.9925	0.136	495985	keystroke_d	d	n/a
248.1505	0.135	496301	keystroke_i	i	n/a
248.3075	0.114	496615	keystroke_Key.space	Key.space	n/a
248.7935	0.139	497587	keystroke_p	p	n/a
248.9345	0.133	497869	keystroke_a	a	n/a
249.2505	0.092	498501	keystroke_c	c	n/a
249.3745	0.0945	498749	keystroke_k	k	n/a
249.522	0.16	499044	keystroke_a	a	n/a
249.782	0.115	499564	keystroke_r	r	n/a
249.997	0.134	499994	keystroke_d	d	n/a
250.153	0.091	500306	keystroke_Key.enter	Key.enter	n/a
250.2485	9.9565	500497	prompt	n/a	saved business genetics conviction\n
251.04	0.186	502080	keystroke_s	s	n/a
251.262	0.161	502524	keystroke_a	a	n/a
251.445	0.09	502890	keystroke_v	v	n/a
251.572	0.116	503144	keystroke_e	e	n/a
251.79	0.1585	503580	keystroke_d	d	n/a
251.9495	0.089	503899	keystroke_Key.space	Key.space	n/a
252.3995	0.113	504799	keystroke_b	b	n/a
252.703	0.115	505406	keystroke_u	u	n/a
252.84	0.1365	505680	keystroke_s	s	n/a
252.9535	0.089	505907	keystroke_i	i	n/a
253.1555	0.116	506311	keystroke_n	n	n/a
253.2725	0.089	506545	keystroke_e	e	n/a
253.5195	0.1115	507039	keystroke_s	s	n/a
253.707	0.138	507414	keystroke_s	s	n/a
253.797	0.092	507594	keystroke_Key.space	Key.space	n/a
254.3005	0.089	508601	keystroke_g	g	n/a
254.4285	0.1155	508857	keystroke_e	e	n/a
254.5785	0.094	509157	keystroke_n	n	n/a
254.6255	0.115	509251	keystroke_e	e	n/a
254.9485	0.158	509897	keystroke_t	t	n/a
255.2005	0.157	510401	keystroke_i	i	n/a
255.3345	0.114	510669	keystroke_c	c	n/a
255.6315	0.184	511263	keystroke_s	s	n/a
255.7665	0.118	511533	keystroke_Key.space	Key.space	n/a
256.1175	0.138	512235	keystroke_c	c	n/a
256.2925	0.159	512585	keystroke_o	o	n/a
256.6055	0.1165	513211	keystroke_n	n	n/a
257.082	0.114	514164	keystroke_v	v	n/a
257.281	0.091	514562	keystroke_i	i	n/a
258.451	0.161	516902	keystroke_c	c	n/a
258.653	0.14	517306	keystroke_t	t	n/a
259.504	0.138	519008	keystroke_i	i	n/a
259.664	0.117	519328	keystroke_o	o	n/a
259.883	0.114	519766	keystroke_n	n	n/a
260.1105	0.093	520221	keystroke_Key.enter	Key.enter	n/a
260.208	8.843	520416	prompt	n/a	forestry studies scripts desperate\n
260.967	0.139	521934	keystroke_f	f	n/a
261.127	0.116	522254	keystroke_o	o	n/a
261.266	0.089	522532	keystroke_r	r	n/a
261.442	0.139	522884	keystroke_e	e	n/a
261.684	0.1165	523368	keystroke_s	s	n/a
261.8015	0.135	523603	keystroke_t	t	n/a
262.0295	0.114	524059	keystroke_r	r	n/a
262.1645	0.161	524329	keystroke_y	y	n/a
262.3265	0.154	524653	keystroke_Key.space	Key.space	n/a
262.7615	0.159	525523	keystroke_s	s	n/a
263.0375	0.115	526075	keystroke_t	t	n/a
263.2745	0.069	526549	keystroke_u	u	n/a
263.3445	0.2	526689	keystroke_d	d	n/a
264.1535	0.135	528307	keystroke_i	i	n/a
264.2425	0.118	528485	keystroke_e	e	n/a
264.4735	0.157	528947	keystroke_s	s	n/a
264.6075	0.112	529215	keystroke_Key.space	Key.space	n/a
264.7415	0.115	529483	keystroke_s	s	n/a
264.9755	0.136	529951	keystroke_c	c	n/a
265.204	0.112	530408	keystroke_r	r	n/a
265.338	0.1115	530676	keystroke_i	i	n/a
265.5225	0.161	531045	keystroke_p	p	n/a
265.7055	0.095	531411	keystroke_t	t	n/a
266.008	0.202	532016	keystroke_s	s	n/a
266.187	0.136	532374	keystroke_Key.space	Key.space	n/a
266.609	0.0925	533218	keystroke_d	d	n/a
266.8075	0.092	533615	keystroke_e	e	n/a
267.0195	0.136	534039	keystroke_s	s	n/a
267.5485	0.139	535097	keystroke_p	p	n/a
267.6885	0.134	535377	keystroke_e	e	n/a
267.9195	0.0905	535839	keystroke_r	r	n/a
268.377	0.1825	536754	keystroke_a	a	n/a
268.5945	0.116	537189	keystroke_t	t	n/a
268.7315	0.115	537463	keystroke_e	e	n/a
268.9375	0.112	537875	keystroke_Key.enter	Key.enter	n/a
269.0535	9.253	538107	prompt	n/a	pantyhose sponsorship method landing\n
270.079	0.135	540158	keystroke_p	p	n/a
270.268	0.16	540536	keystroke_a	a	n/a
270.498	0.116	540996	keystroke_n	n	n/a
270.7895	0.115	541579	keystroke_t	t	n/a
271.0175	0.114	542035	keystroke_y	y	n/a
271.286	0.112	542572	keystroke_h	h	n/a
271.663	0.164	543326	keystroke_o	o	n/a
271.777	0.139	543554	keystroke_s	s	n/a
271.998	0.115	543996	keystroke_e	e	n/a
272.135	0.114	544270	keystroke_Key.space	Key.space	n/a
272.295	0.159	544590	keystroke_s	s	n/a
272.523	0.2015	545046	keystroke_p	p	n/a
272.7465	0.1175	545493	keystroke_o	o	n/a
273.0375	0.115	546075	keystroke_n	n	n/a
273.1535	0.158	546307	keystroke_s	s	n/a
273.288	0.0915	546576	keystroke_o	o	n/a
273.5045	0.116	547009	keystroke_r	r	n/a
274.0805	0.183	548161	keystroke_s	s	n/a
274.2645	0.133	548529	keystroke_h	h	n/a
274.6175	0.159	549235	keystroke_i	i	n/a
274.8115	0.205	549623	keystroke_p	p	n/a
275.0175	0.1125	550035	keystroke_Key.space	Key.space	n/a
275.303	0.159	550606	keystroke_m	m	n/a
275.54	0.137	551080	keystroke_e	e	n/a
275.868	0.159	551736	keystroke_t	t	n/a
276.18	0.1585	552360	keystroke_h	h	n/a
276.4085	0.138	552817	keystroke_o	o	n/a
276.5475	0.2045	553095	keystroke_d	d	n/a
276.728	0.136	553456	keystroke_Key.space	Key.space	n/a
276.976	0.16	553952	keystroke_l	l	n/a
277.16	0.158	554320	keystroke_a	a	n/a
277.294	0.16	554588	keystroke_n	n	n/a
277.456	0.113	554912	keystroke_d	d	n/a
277.59	0.157	555180	keystroke_i	i	n/a
277.807	0.114	555614	keystroke_n	n	n/a
278.008	0.09	556016	keystroke_g	g	n/a
278.238	0.067	556476	keystroke_Key.enter	Key.enter	n/a
278.311	11.3675	556622	prompt	n/a	religious fancy continually spotlight\n
279.0005	0.067	558001	keystroke_r	r	n/a
279.2005	0.1155	558401	keystroke_e	e	n/a
279.396	0.202	558792	keystroke_l	l	n/a
279.638	0.093	559276	keystroke_i	i	n/a
279.973	0.091	559946	keystroke_g	g	n/a
280.288	0.135	560576	keystroke_i	i	n/a
280.468	0.177	560936	keystroke_o	o	n/a
280.621	0.093	561242	keystroke_u	u	n/a
280.737	0.184	561474	keystroke_s	s	n/a
280.806	0.161	561612	keystroke_Key.space	Key.space	n/a
281.195	0.14	562390	keystroke_d	d	n/a
281.601	0.092	563202	keystroke_Key.backspace	Key.backspace	n/a
281.735	0.115	563470	keystroke_f	f	n/a
281.967	0.158	563934	keystroke_a	a	n/a
282.24	0.091	564480	keystroke_n	n	n/a
282.444	0.137	564888	keystroke_c	c	n/a
282.602	0.137	565204	keystroke_y	y	n/a
282.74	0.113	565480	keystroke_Key.space	Key.space	n/a
283.37	0.157	566740	keystroke_c	c	n/a
283.557	0.158	567114	keystroke_o	o	n/a
284.0015	0.092	568003	keystroke_n	n	n/a
284.3255	0.113	568651	keystroke_t	t	n/a
285.563	0.091	571126	keystroke_i	i	n/a
285.825	0.114	571650	keystroke_n	n	n/a
286.0475	0.092	572095	keystroke_u	u	n/a
286.2095	0.185	572419	keystroke_a	a	n/a
286.3705	0.07	572741	keystroke_l	l	n/a
286.5075	0.117	573015	keystroke_l	l	n/a
286.9125	0.116	573825	keystroke_y	y	n/a
287.0515	0.09	574103	keystroke_Key.space	Key.space	n/a
287.2495	0.184	574499	keystroke_s	s	n/a
287.5185	0.204	575037	keystroke_p	p	n/a
287.7915	0.139	575583	keystroke_o	o	n/a
288.3915	0.116	576783	keystroke_t	t	n/a
288.5995	0.181	577199	keystroke_l	l	n/a
288.7555	0.094	577511	keystroke_i	i	n/a
289.0405	0.093	578081	keystroke_g	g	n/a
289.2235	0.114	578447	keystroke_h	h	n/a
289.3585	0.162	578717	keystroke_t	t	n/a
289.5855	0.091	579171	keystroke_Key.enter	Key.enter	n/a
289.6815	8.933	579363	prompt	n/a	guess circular thin trinity\n
290.5465	0.092	581093	keystroke_g	g	n/a
290.7475	0.137	581495	keystroke_u	u	n/a
290.9165	0.136	581833	keystroke_e	e	n/a
291.2155	0.138	582431	keystroke_s	s	n/a
291.4115	0.138	582823	keystroke_s	s	n/a
291.5235	0.118	583047	keystroke_Key.space	Key.space	n/a
291.9025	0.117	583805	keystroke_c	c	n/a
292.2335	0.16	584467	keystroke_i	i	n/a
292.4155	0.113	584831	keystroke_r	r	n/a
292.6685	0.162	585337	keystroke_c	c	n/a
292.7605	0.137	585521	keystroke_u	u	n/a
293.0145	0.159	586029	keystroke_l	l	n/a
293.1275	0.139	586255	keystroke_a	a	n/a
293.4915	0.162	586983	keystroke_r	r	n/a
293.6755	0.138	587351	keystroke_Key.space	Key.space	n/a
294.4045	0.093	588809	keystroke_t	t	n/a
294.6195	0.114	589239	keystroke_h	h	n/a
295.2315	0.1185	590463	keystroke_i	i	n/a
295.232	0.0715	590464	keystroke_u	u	n/a
295.901	0.114	591802	keystroke_Key.backspace	Key.backspace	n/a
296.362	0.136	592724	keystroke_n	n	n/a
296.521	0.07	593042	keystroke_Key.space	Key.space	n/a
297.104	0.091	594208	keystroke_t	t	n/a
297.308	0.113	594616	keystroke_r	r	n/a
297.443	0.091	594886	keystroke_i	i	n/a
297.66	0.113	595320	keystroke_n	n	n/a
297.835	0.09	595670	keystroke_i	i	n/a
298.058	0.114	596116	keystroke_t	t	n/a
298.2605	0.115	596521	keystroke_y	y	n/a
298.4995	0.1135	596999	keystroke_Key.enter	Key.enter	n/a
298.617	6.9965	597234	prompt	n/a	dvds named locked doom\n
299.5615	0.136	599123	keystroke_d	d	n/a
299.8075	0.093	599615	keystroke_v	v	n/a
299.9885	0.088	599977	keystroke_d	d	n/a
300.218	0.138	600436	keystroke_s	s	n/a
300.378	0.069	600756	keystroke_Key.space	Key.space	n/a
300.851	0.137	601702	keystroke_n	n	n/a
300.989	0.135	601978	keystroke_a	a	n/a
301.125	0.092	602250	keystroke_m	m	n/a
301.238	0.135	602476	keystroke_e	e	n/a
301.458	0.134	602916	keystroke_d	d	n/a
301.593	0.112	603186	keystroke_Key.space	Key.space	n/a
301.795	0.159	603590	keystroke_l	l	n/a
302.117	0.16	604234	keystroke_l	l	n/a
302.585	0.1125	605170	keystroke_Key.backspace	Key.backspace	n/a
302.8495	0.116	605699	keystroke_o	o	n/a
302.8505	0.116	605701	keystroke_i	i	n/a
303.0005	0.1375	606001	keystroke_c	c	n/a
303.454	0.093	606908	keystroke_Key.backspace	Key.backspace	n/a
303.64	0.068	607280	keystroke_Key.backspace	Key.backspace	n/a
303.941	0.137	607882	keystroke_c	c	n/a
304.268	0.114	608536	keystroke_k	k	n/a
304.404	0.092	608808	keystroke_e	e	n/a
304.603	0.1165	609206	keystroke_d	d	n/a
304.7205	0.088	609441	keystroke_Key.space	Key.space	n/a
304.8295	0.113	609659	keystroke_d	d	n/a
304.9655	0.092	609931	keystroke_o	o	n/a
305.1275	0.1115	610255	keystroke_o	o	n/a
305.293	0.1125	610586	keystroke_m	m	n/a
305.5195	0.092	611039	keystroke_Key.enter	Key.enter	n/a
305.616	9.143	611232	prompt	n/a	alarm swing ethical null\n
306.3445	0.1375	612689	keystroke_a	a	n/a
306.459	0.1585	612918	keystroke_l	l	n/a
306.595	0.159	613190	keystroke_a	a	n/a
306.809	0.114	613618	keystroke_r	r	n/a
306.924	0.204	613848	keystroke_m	m	n/a
307.104	0.114	614208	keystroke_Key.space	Key.space	n/a
307.661	0.135	615322	keystroke_s	s	n/a
307.903	0.135	615806	keystroke_w	w	n/a
308.079	0.1595	616158	keystroke_i	i	n/a
308.3725	0.137	616745	keystroke_n	n	n/a
308.5745	0.1805	617149	keystroke_g	g	n/a
308.731	0.117	617462	keystroke_Key.space	Key.space	n/a
309.572	0.136	619144	keystroke_e	e	n/a
309.786	0.118	619572	keystroke_t	t	n/a
310.03	0.093	620060	keystroke_h	h	n/a
310.031	0.07	620062	keystroke_g	g	n/a
310.146	0.091	620292	keystroke_i	i	n/a
310.147	0.092	620294	keystroke_u	u	n/a
310.27	0.16	620540	keystroke_c	c	n/a
310.668	0.1395	621336	keystroke_a	a	n/a
310.8425	0.092	621685	keystroke_Key.backspace	Key.backspace	n/a
311.0175	0.117	622035	keystroke_Key.backspace	Key.backspace	n/a
311.196	0.094	622392	keystroke_Key.backspace	Key.backspace	n/a
311.373	0.091	622746	keystroke_Key.backspace	Key.backspace	n/a
311.645	0.115	623290	keystroke_Key.backspace	Key.backspace	n/a
312.2355	0.139	624471	keystroke_i	i	n/a
312.3965	0.134	624793	keystroke_c	c	n/a
312.8165	0.182	625633	keystroke_a	a	n/a
312.9755	0.159	625951	keystroke_l	l	n/a
313.3075	0.1365	626615	keystroke_Key.space	Key.space	n/a
313.7975	0.114	627595	keystroke_n	n	n/a
314.0215	0.092	628043	keystroke_u	u	n/a
314.3055	0.091	628611	keystroke_l	l	n/a
314.4535	0.115	628907	keystroke_l	l	n/a
314.711	0.047	629422	keystroke_Key.enter	Key.enter	n/a
314.762	11.4835	629524	prompt	n/a	receives holdings messenger delegation\n
315.6575	0.159	631315	keystroke_e	e	n/a
316.0905	0.114	632181	keystroke_Key.backspace	Key.backspace	n/a
316.2395	0.112	632479	keystroke_r	r	n/a
316.4615	0.138	632923	keystroke_e	e	n/a
317.1425	0.162	634285	keystroke_c	c	n/a
317.4325	0.114	634865	keystroke_e	e	n/a
317.5475	0.0665	635095	keystroke_i	i	n/a
317.788	0.09	635576	keystroke_v	v	n/a
317.879	0.088	635758	keystroke_e	e	n/a
318.053	0.1355	636106	keystroke_d	d	n/a
318.2125	0.091	636425	keystroke_Key.space	Key.space	n/a
318.8105	0.114	637621	keystroke_h	h	n/a
319.0395	0.115	638079	keystroke_o	o	n/a
319.2565	0.138	638513	keystroke_l	l	n/a
319.4185	0.115	638837	keystroke_d	d	n/a
319.5345	0.113	639069	keystroke_i	i	n/a
319.7735	0.114	639547	keystroke_n	n	n/a
320.0655	0.181	640131	keystroke_g	g	n/a
320.486	0.2245	640972	keystroke_s	s	n/a
320.6635	0.135	641327	keystroke_Key.space	Key.space	n/a
321.2695	0.181	642539	keystroke_m	m	n/a
321.4735	0.069	642947	keystroke_e	e	n/a
321.6775	0.137	643355	keystroke_s	s	n/a
321.8905	0.139	643781	keystroke_s	s	n/a
322.2645	0.093	644529	keystroke_e	e	n/a
322.3795	0.112	644759	keystroke_n	n	n/a
322.5805	0.091	645161	keystroke_g	g	n/a
322.6735	0.089	645347	keystroke_e	e	n/a
322.8465	0.089	645693	keystroke_r	r	n/a
322.9855	0.0915	645971	keystroke_Key.space	Key.space	n/a
323.4135	0.088	646827	keystroke_d	d	n/a
323.6095	0.091	647219	keystroke_e	e	n/a
323.7975	0.114	647595	keystroke_l	l	n/a
324.0115	0.07	648023	keystroke_e	e	n/a
324.8975	0.09	649795	keystroke_g	g	n/a
325.0095	0.14	650019	keystroke_a	a	n/a
325.1505	0.089	650301	keystroke_t	t	n/a
325.4445	0.207	650889	keystroke_i	i	n/a
325.6725	0.183	651345	keystroke_o	o	n/a
325.8935	0.137	651787	keystroke_n	n	n/a
326.1485	0.095	652297	keystroke_Key.enter	Key.enter	n/a
326.249	9.379	652498	prompt	n/a	injection quoted harry strategy\n
326.9885	0.135	653977	keystroke_i	i	n/a
327.287	0.091	654574	keystroke_n	n	n/a
327.468	0.091	654936	keystroke_j	j	n/a
327.56	0.088	655120	keystroke_e	e	n/a
327.806	0.115	655612	keystroke_c	c	n/a
327.922	0.088	655844	keystroke_t	t	n/a
328.209	0.181	656418	keystroke_i	i	n/a
328.412	0.137	656824	keystroke_o	o	n/a
328.649	0.135	657298	keystroke_n	n	n/a
328.786	0.089	657572	keystroke_Key.space	Key.space	n/a
329.323	0.159	658646	keystroke_q	q	n/a
329.608	0.114	659216	keystroke_u	u	n/a
329.803	0.16	659606	keystroke_o	o	n/a
330.111	0.114	660222	keystroke_t	t	n/a
330.247	0.091	660494	keystroke_e	e	n/a
330.466	0.136	660932	keystroke_d	d	n/a
330.603	0.135	661206	keystroke_Key.space	Key.space	n/a
331.714	0.114	663428	keystroke_h	h	n/a
331.829	0.113	663658	keystroke_a	a	n/a
332.074	0.091	664148	keystroke_r	r	n/a
332.244	0.116	664488	keystroke_r	r	n/a
332.313	0.115	664626	keystroke_y	y	n/a
332.451	0.114	664902	keystroke_Key.space	Key.space	n/a
332.877	0.179	665754	keystroke_s	s	n/a
333.109	0.138	666218	keystroke_t	t	n/a
333.333	0.115	666666	keystroke_r	r	n/a
333.542	0.183	667084	keystroke_a	a	n/a
334.2365	0.18	668473	keystroke_t	t	n/a
334.4385	0.134	668877	keystroke_e	e	n/a
335.092	0.112	670184	keystroke_g	g	n/a
335.308	0.094	670616	keystroke_y	y	n/a
335.535	0.092	671070	keystroke_Key.enter	Key.enter	n/a
335.631	9.7605	671262	prompt	n/a	immune simpsons encouraged heather\n
336.662	0.069	673324	keystroke_i	i	n/a
336.927	0.092	673854	keystroke_m	m	n/a
337.095	0.16	674190	keystroke_m	m	n/a
337.276	0.094	674552	keystroke_u	u	n/a
337.4975	0.116	674995	keystroke_n	n	n/a
337.6145	0.135	675229	keystroke_e	e	n/a
337.7705	0.116	675541	keystroke_Key.space	Key.space	n/a
337.9735	0.158	675947	keystroke_s	s	n/a
338.2255	0.113	676451	keystroke_i	i	n/a
338.4295	0.116	676859	keystroke_m	m	n/a
338.6595	0.185	677319	keystroke_p	p	n/a
339.0205	0.185	678041	keystroke_s	s	n/a
339.62	0.137	679240	keystroke_o	o	n/a
339.858	0.157	679716	keystroke_n	n	n/a
340.054	0.18	680108	keystroke_s	s	n/a
340.256	0.117	680512	keystroke_Key.space	Key.space	n/a
340.992	0.1145	681984	keystroke_e	e	n/a
341.2465	0.162	682493	keystroke_n	n	n/a
341.5155	0.116	683031	keystroke_c	c	n/a
341.6625	0.137	683325	keystroke_o	o	n/a
341.8455	0.1135	683691	keystroke_u	u	n/a
341.981	0.112	683962	keystroke_r	r	n/a
342.2285	0.16	684457	keystroke_a	a	n/a
342.3415	0.092	684683	keystroke_g	g	n/a
342.4725	0.114	684945	keystroke_e	e	n/a
342.786	0.136	685572	keystroke_d	d	n/a
342.943	0.136	685886	keystroke_Key.space	Key.space	n/a
344.3315	0.09	688663	keystroke_h	h	n/a
344.4515	0.091	688903	keystroke_e	e	n/a
344.5805	0.181	689161	keystroke_a	a	n/a
344.7155	0.116	689431	keystroke_t	t	n/a
344.9395	0.115	689879	keystroke_h	h	n/a
345.0085	0.093	690017	keystroke_e	e	n/a
345.1945	0.07	690389	keystroke_r	r	n/a
345.2975	0.093	690595	keystroke_Key.enter	Key.enter	n/a
345.397	16.817	690794	prompt	n/a	guidelines replies breakfast inventory\n
346.6275	0.114	693255	keystroke_g	g	n/a
346.8315	0.091	693663	keystroke_u	u	n/a
347.0265	0.093	694053	keystroke_i	i	n/a
347.1205	0.157	694241	keystroke_d	d	n/a
347.3685	0.184	694737	keystroke_l	l	n/a
347.5295	0.088	695059	keystroke_i	i	n/a
347.7395	0.091	695479	keystroke_n	n	n/a
347.8315	0.134	695663	keystroke_e	e	n/a
348.1095	0.158	696219	keystroke_s	s	n/a
348.2885	0.093	696577	keystroke_Key.space	Key.space	n/a
348.7345	0.114	697469	keystroke_r	r	n/a
348.9415	0.114	697883	keystroke_e	e	n/a
349.0865	0.158	698173	keystroke_p	p	n/a
349.3495	0.114	698699	keystroke_l	l	n/a
349.5825	0.089	699165	keystroke_i	i	n/a
349.6945	0.114	699389	keystroke_e	e	n/a
349.9375	0.16	699875	keystroke_s	s	n/a
350.0735	0.091	700147	keystroke_Key.space	Key.space	n/a
355.068	0.116	710136	keystroke_e	e	n/a
357.3485	0.092	714697	keystroke_b	b	n/a
357.5435	0.07	715087	keystroke_r	r	n/a
357.7385	0.113	715477	keystroke_e	e	n/a
358.0285	0.161	716057	keystroke_a	a	n/a
358.1655	0.091	716331	keystroke_k	k	n/a
359.4005	0.113	718801	keystroke_f	f	n/a
359.5815	0.184	719163	keystroke_a	a	n/a
359.7425	0.136	719485	keystroke_s	s	n/a
359.8325	0.114	719665	keystroke_t	t	n/a
359.9475	0.134	719895	keystroke_Key.space	Key.space	n/a
360.1755	0.116	720351	keystroke_i	i	n/a
360.4755	0.136	720951	keystroke_n	n	n/a
360.8115	0.092	721623	keystroke_v	v	n/a
360.9255	0.113	721851	keystroke_e	e	n/a
361.0765	0.091	722153	keystroke_n	n	n/a
361.3235	0.093	722647	keystroke_t	t	n/a
361.5415	0.16	723083	keystroke_o	o	n/a
361.7545	0.139	723509	keystroke_r	r	n/a
361.9145	0.071	723829	keystroke_y	y	n/a
362.1215	0.091	724243	keystroke_Key.enter	Key.enter	n/a
362.2175	10.1055	724435	prompt	n/a	pencil supplier rochester publishers\n
363.876	0.113	727752	keystroke_p	p	n/a
364.027	0.134	728054	keystroke_e	e	n/a
364.289	0.068	728578	keystroke_n	n	n/a
364.526	0.138	729052	keystroke_c	c	n/a
364.717	0.0685	729434	keystroke_i	i	n/a
364.997	0.1605	729994	keystroke_l	l	n/a
365.234	0.1135	730468	keystroke_Key.space	Key.space	n/a
365.5075	0.156	731015	keystroke_s	s	n/a
365.9475	0.1165	731895	keystroke_u	u	n/a
366.2995	0.138	732599	keystroke_p	p	n/a
366.5245	0.0935	733049	keystroke_p	p	n/a
366.7775	0.047	733555	keystroke_l	l	n/a
366.9475	0.068	733895	keystroke_i	i	n/a
367.0375	0.136	734075	keystroke_e	e	n/a
367.2635	0.091	734527	keystroke_r	r	n/a
367.4205	0.092	734841	keystroke_Key.space	Key.space	n/a
368.259	0.116	736518	keystroke_r	r	n/a
368.519	0.115	737038	keystroke_o	o	n/a
368.681	0.162	737362	keystroke_c	c	n/a
368.875	0.111	737750	keystroke_h	h	n/a
369.025	0.09	738050	keystroke_e	e	n/a
369.235	0.182	738470	keystroke_s	s	n/a
369.393	0.114	738786	keystroke_t	t	n/a
369.544	0.118	739088	keystroke_e	e	n/a
369.727	0.093	739454	keystroke_r	r	n/a
369.842	0.114	739684	keystroke_Key.space	Key.space	n/a
370.156	0.162	740312	keystroke_p	p	n/a
370.477	0.095	740954	keystroke_u	u	n/a
370.746	0.068	741492	keystroke_b	b	n/a
370.984	0.205	741968	keystroke_l	l	n/a
371.143	0.115	742286	keystroke_i	i	n/a
371.279	0.178	742558	keystroke_s	s	n/a
371.459	0.092	742918	keystroke_h	h	n/a
371.581	0.113	743162	keystroke_e	e	n/a
371.793	0.07	743586	keystroke_r	r	n/a
372.026	0.1585	744052	keystroke_s	s	n/a
372.1855	0.136	744371	keystroke_Key.enter	Key.enter	n/a
372.3265	10.999	744653	prompt	n/a	deviant universal apartments comparative\n
373.2435	0.095	746487	keystroke_d	d	n/a
373.4405	0.092	746881	keystroke_e	e	n/a
373.7555	0.114	747511	keystroke_v	v	n/a
374.2745	0.114	748549	keystroke_i	i	n/a
374.4275	0.161	748855	keystroke_a	a	n/a
374.5655	0.1375	749131	keystroke_n	n	n/a
374.819	0.135	749638	keystroke_t	t	n/a
374.989	0.115	749978	keystroke_Key.space	Key.space	n/a
375.465	0.139	750930	keystroke_u	u	n/a
375.77	0.091	751540	keystroke_n	n	n/a
375.943	0.093	751886	keystroke_i	i	n/a
376.163	0.116	752326	keystroke_v	v	n/a
376.255	0.117	752510	keystroke_e	e	n/a
376.453	0.118	752906	keystroke_r	r	n/a
376.704	0.16	753408	keystroke_s	s	n/a
376.896	0.179	753792	keystroke_a	a	n/a
377.009	0.203	754018	keystroke_l	l	n/a
377.188	0.14	754376	keystroke_Key.space	Key.space	n/a
377.329	0.111	754658	keystroke_a	a	n/a
377.47	0.024	754940	keystroke_p	p	n/a
377.587	0.18	755174	keystroke_a	a	n/a
378.451	0.114	756902	keystroke_r	r	n/a
378.671	0.089	757342	keystroke_t	t	n/a
379.099	0.091	758198	keystroke_m	m	n/a
379.236	0.138	758472	keystroke_e	e	n/a
379.35	0.093	758700	keystroke_n	n	n/a
379.561	0.117	759122	keystroke_t	t	n/a
379.794	0.184	759588	keystroke_s	s	n/a
379.932	0.114	759864	keystroke_Key.space	Key.space	n/a
380.408	0.135	760816	keystroke_c	c	n/a
380.651	0.179	761302	keystroke_o	o	n/a
380.969	0.114	761938	keystroke_m	m	n/a
381.148	0.114	762296	keystroke_p	p	n/a
381.292	0.161	762584	keystroke_a	a	n/a
381.8845	0.135	763769	keystroke_r	r	n/a
382.0785	0.161	764157	keystroke_a	a	n/a
382.3265	0.114	764653	keystroke_t	t	n/a
382.4715	0.1625	764943	keystroke_i	i	n/a
382.792	0.159	765584	keystroke_v	v	n/a
382.952	0.138	765904	keystroke_e	e	n/a
383.208	0.116	766416	keystroke_Key.enter	Key.enter	n/a
383.3285	10.677	766657	prompt	n/a	importance dirt furnished trends\n
384.099	0.093	768198	keystroke_i	i	n/a
384.341	0.1155	768682	keystroke_m	m	n/a
384.5345	0.1405	769069	keystroke_p	p	n/a
384.6505	0.092	769301	keystroke_o	o	n/a
384.7665	0.115	769533	keystroke_r	r	n/a
384.9695	0.092	769939	keystroke_t	t	n/a
385.2255	0.16	770451	keystroke_a	a	n/a
385.4075	0.093	770815	keystroke_n	n	n/a
385.5475	0.138	771095	keystroke_c	c	n/a
385.8075	0.136	771615	keystroke_e	e	n/a
385.9665	0.068	771933	keystroke_Key.space	Key.space	n/a
386.397	0.095	772794	keystroke_f	f	n/a
386.443	0.051	772886	keystroke_d	d	n/a
386.885	0.1165	773770	keystroke_Key.backspace	Key.backspace	n/a
387.003	0.1355	774006	keystroke_d	d	n/a
387.1615	0.094	774323	keystroke_i	i	n/a
387.3235	0.068	774647	keystroke_r	r	n/a
387.5025	0.113	775005	keystroke_Key.backspace	Key.backspace	n/a
387.6875	0.092	775375	keystroke_Key.backspace	Key.backspace	n/a
387.8675	0.1365	775735	keystroke_Key.backspace	Key.backspace	n/a
388.116	0.07	776232	keystroke_Key.backspace	Key.backspace	n/a
388.261	0.135	776522	keystroke_d	d	n/a
388.6725	0.066	777345	keystroke_i	i	n/a
388.8285	0.093	777657	keystroke_r	r	n/a
389.0525	0.1345	778105	keystroke_t	t	n/a
389.21	0.092	778420	keystroke_Key.space	Key.space	n/a
389.997	0.113	779994	keystroke_f	f	n/a
390.187	0.092	780374	keystroke_u	u	n/a
390.333	0.069	780666	keystroke_e	e	n/a
390.557	0.07	781114	keystroke_n	n	n/a
390.8845	0.069	781769	keystroke_Key.backspace	Key.backspace	n/a
391.0585	0.092	782117	keystroke_Key.backspace	Key.backspace	n/a
391.3145	0.136	782629	keystroke_r	r	n/a
391.5535	0.136	783107	keystroke_n	n	n/a
391.7805	0.114	783561	keystroke_i	i	n/a
391.9175	0.162	783835	keystroke_s	s	n/a
392.0315	0.116	784063	keystroke_h	h	n/a
392.2275	0.093	784455	keystroke_e	e	n/a
392.4265	0.137	784853	keystroke_d	d	n/a
392.5645	0.0695	785129	keystroke_Key.space	Key.space	n/a
392.947	0.092	785894	keystroke_t	t	n/a
393.128	0.067	786256	keystroke_r	r	n/a
393.309	0.092	786618	keystroke_e	e	n/a
393.423	0.092	786846	keystroke_n	n	n/a
393.551	0.094	787102	keystroke_d	d	n/a
393.752	0.137	787504	keystroke_s	s	n/a
393.911	0.093	787822	keystroke_Key.enter	Key.enter	n/a
394.0115	12.822	788023	prompt	n/a	raymond robinson microwave verizon\n
394.742	0.115	789484	keystroke_r	r	n/a
394.975	0.157	789950	keystroke_a	a	n/a
395.239	0.092	790478	keystroke_y	y	n/a
395.5655	0.1185	791131	keystroke_m	m	n/a
395.7715	0.137	791543	keystroke_i	i	n/a
396.0545	0.177	792109	keystroke_n	n	n/a
396.2875	0.137	792575	keystroke_d	d	n/a
396.5805	0.092	793161	keystroke_Key.backspace	Key.backspace	n/a
396.7615	0.07	793523	keystroke_Key.backspace	Key.backspace	n/a
396.9035	0.069	793807	keystroke_Key.backspace	Key.backspace	n/a
397.3725	0.113	794745	keystroke_o	o	n/a
397.6235	0.141	795247	keystroke_n	n	n/a
397.7655	0.135	795531	keystroke_d	d	n/a
397.9015	0.113	795803	keystroke_Key.space	Key.space	n/a
398.428	0.137	796856	keystroke_r	r	n/a
398.693	0.16	797386	keystroke_o	o	n/a
399.112	0.114	798224	keystroke_b	b	n/a
399.29	0.093	798580	keystroke_i	i	n/a
399.447	0.092	798894	keystroke_i	i	n/a
399.563	0.159	799126	keystroke_n	n	n/a
399.764	0.162	799528	keystroke_s	s	n/a
399.928	0.134	799856	keystroke_o	o	n/a
400.194	0.179	800388	keystroke_n	n	n/a
400.5865	0.1135	801173	keystroke_Key.backspace	Key.backspace	n/a
400.767	0.093	801534	keystroke_Key.backspace	Key.backspace	n/a
400.932	0.091	801864	keystroke_Key.backspace	Key.backspace	n/a
401.111	0.071	802222	keystroke_Key.backspace	Key.backspace	n/a
401.254	0.071	802508	keystroke_Key.backspace	Key.backspace	n/a
401.962	0.093	803924	keystroke_n	n	n/a
402.088	0.158	804176	keystroke_s	s	n/a
402.223	0.136	804446	keystroke_o	o	n/a
402.473	0.159	804946	keystroke_n	n	n/a
402.633	0.115	805266	keystroke_Key.space	Key.space	n/a
403.139	0.136	806278	keystroke_m	m	n/a
403.385	0.068	806770	keystroke_i	i	n/a
403.4975	0.136	806995	keystroke_c	c	n/a
403.728	0.117	807456	keystroke_r	r	n/a
403.8455	0.068	807691	keystroke_o	o	n/a
404.0645	0.158	808129	keystroke_w	w	n/a
404.2615	0.18	808523	keystroke_a	a	n/a
404.4435	0.112	808887	keystroke_v	v	n/a
404.5565	0.136	809113	keystroke_e	e	n/a
404.7275	0.116	809455	keystroke_Key.space	Key.space	n/a
405.345	0.113	810690	keystroke_v	v	n/a
405.48	0.091	810960	keystroke_e	e	n/a
405.65	0.093	811300	keystroke_r	r	n/a
405.832	0.112	811664	keystroke_i	i	n/a
406.079	0.183	812158	keystroke_z	z	n/a
406.214	0.139	812428	keystroke_o	o	n/a
406.449	0.115	812898	keystroke_n	n	n/a
406.741	0.091	813482	keystroke_Key.enter	Key.enter	n/a
406.8365	7.933	813673	prompt	n/a	preserve drop logic autumn\n
407.658	0.072	815316	keystroke_p	p	n/a
407.803	0.18	815606	keystroke_e	e	n/a
408.43	0.136	816860	keystroke_Key.backspace	Key.backspace	n/a
408.587	0.116	817174	keystroke_r	r	n/a
408.793	0.137	817586	keystroke_e	e	n/a
409.069	0.16	818138	keystroke_s	s	n/a
409.303	0.135	818606	keystroke_e	e	n/a
409.608	0.092	819216	keystroke_r	r	n/a
409.784	0.137	819568	keystroke_v	v	n/a
409.995	0.137	819990	keystroke_e	e	n/a
410.154	0.114	820308	keystroke_Key.space	Key.space	n/a
410.566	0.135	821132	keystroke_d	d	n/a
410.789	0.093	821578	keystroke_r	r	n/a
410.904	0.091	821808	keystroke_o	o	n/a
411.074	0.095	822148	keystroke_p	p	n/a
411.215	0.112	822430	keystroke_Key.space	Key.space	n/a
411.672	0.114	823344	keystroke_l	l	n/a
411.898	0.068	823796	keystroke_o	o	n/a
412.184	0.068	824368	keystroke_g	g	n/a
412.332	0.069	824664	keystroke_i	i	n/a
412.469	0.16	824938	keystroke_c	c	n/a
412.651	0.091	825302	keystroke_Key.space	Key.space	n/a
413.103	0.182	826206	keystroke_a	a	n/a
413.3145	0.091	826629	keystroke_u	u	n/a
413.5635	0.092	827127	keystroke_t	t	n/a
413.9625	0.1375	827925	keystroke_u	u	n/a
414.2465	0.183	828493	keystroke_m	m	n/a
414.4305	0.134	828861	keystroke_n	n	n/a
414.699	0.069	829398	keystroke_Key.enter	Key.enter	n/a
414.772	5.5075	829544	prompt	n/a	again patches sofa pools\n
415.3685	0.18	830737	keystroke_a	a	n/a
415.6685	0.071	831337	keystroke_g	g	n/a
415.7715	0.139	831543	keystroke_a	a	n/a
415.9125	0.134	831825	keystroke_i	i	n/a
416.1295	0.1575	832259	keystroke_n	n	n/a
416.288	0.136	832576	keystroke_Key.space	Key.space	n/a
416.712	0.135	833424	keystroke_p	p	n/a
416.869	0.135	833738	keystroke_a	a	n/a
417.11	0.137	834220	keystroke_t	t	n/a
417.28	0.112	834560	keystroke_c	c	n/a
417.433	0.114	834866	keystroke_h	h	n/a
417.569	0.091	835138	keystroke_e	e	n/a
417.768	0.162	835536	keystroke_s	s	n/a
417.883	0.114	835766	keystroke_Key.space	Key.space	n/a
418.06	0.159	836120	keystroke_s	s	n/a
418.196	0.158	836392	keystroke_o	o	n/a
418.463	0.111	836926	keystroke_f	f	n/a
418.829	0.162	837658	keystroke_a	a	n/a
418.967	0.113	837934	keystroke_Key.space	Key.space	n/a
419.306	0.115	838612	keystroke_p	p	n/a
419.5475	0.137	839095	keystroke_o	o	n/a
419.7365	0.1165	839473	keystroke_o	o	n/a
419.9295	0.114	839859	keystroke_l	l	n/a
420.0205	0.136	840041	keystroke_s	s	n/a
420.1865	0.092	840373	keystroke_Key.enter	Key.enter	n/a
420.2825	11.0635	840565	prompt	n/a	bond quarter multimedia producing\n
421.1495	0.07	842299	keystroke_b	b	n/a
421.3805	0.137	842761	keystroke_o	o	n/a
421.6315	0.113	843263	keystroke_n	n	n/a
421.8165	0.141	843633	keystroke_d	d	n/a
421.9785	0.093	843957	keystroke_Key.space	Key.space	n/a
422.712	0.16	845424	keystroke_q	q	n/a
423.1965	0.093	846393	keystroke_u	u	n/a
423.2905	0.156	846581	keystroke_a	a	n/a
423.6195	0.161	847239	keystroke_r	r	n/a
423.8715	0.115	847743	keystroke_t	t	n/a
423.9605	0.096	847921	keystroke_e	e	n/a
424.1435	0.093	848287	keystroke_r	r	n/a
424.2375	0.115	848475	keystroke_Key.space	Key.space	n/a
424.5555	0.1585	849111	keystroke_m	m	n/a
424.802	0.092	849604	keystroke_i	i	n/a
425.09	0.135	850180	keystroke_t	t	n/a
426.0435	0.094	852087	keystroke_Key.backspace	Key.backspace	n/a
426.2155	0.089	852431	keystroke_Key.backspace	Key.backspace	n/a
426.7395	0.091	853479	keystroke_u	u	n/a
426.9455	0.115	853891	keystroke_l	l	n/a
427.1355	0.115	854271	keystroke_t	t	n/a
427.2825	0.114	854565	keystroke_i	i	n/a
427.9275	0.162	855855	keystroke_m	m	n/a
428.0635	0.094	856127	keystroke_e	e	n/a
428.2515	0.138	856503	keystroke_d	d	n/a
428.4115	0.16	856823	keystroke_i	i	n/a
428.5995	0.1375	857199	keystroke_a	a	n/a
428.738	0.089	857476	keystroke_Key.space	Key.space	n/a
429.155	0.116	858310	keystroke_p	p	n/a
429.34	0.114	858680	keystroke_r	r	n/a
429.501	0.18	859002	keystroke_o	o	n/a
430.001	0.135	860002	keystroke_d	d	n/a
430.215	0.069	860430	keystroke_u	u	n/a
430.316	0.136	860632	keystroke_c	c	n/a
430.473	0.112	860946	keystroke_i	i	n/a
430.717	0.092	861434	keystroke_n	n	n/a
430.907	0.023	861814	keystroke_h	h	n/a
430.909	0.0665	861818	keystroke_g	g	n/a
431.232	0.112	862464	keystroke_Key.enter	Key.enter	n/a
431.349	10.4085	862698	prompt	n/a	hasn't delegation solely jewelry\n
432.083	0.091	864166	keystroke_h	h	n/a
432.175	0.134	864350	keystroke_a	a	n/a
432.346	0.161	864692	keystroke_s	s	n/a
432.508	0.044	865016	keystroke_n	n	n/a
432.509	0.045	865018	keystroke_b	b	n/a
432.9415	0.114	865883	keystroke_'	'	n/a
433.1715	0.159	866343	keystroke_t	t	n/a
433.6545	0.092	867309	keystroke_Key.backspace	Key.backspace	n/a
433.8435	0.092	867687	keystroke_Key.backspace	Key.backspace	n/a
434.0195	0.093	868039	keystroke_Key.backspace	Key.backspace	n/a
434.743	0.093	869486	keystroke_'	'	n/a
434.964	0.113	869928	keystroke_t	t	n/a
435.155	0.069	870310	keystroke_Key.space	Key.space	n/a
435.6835	0.138	871367	keystroke_d	d	n/a
435.9105	0.136	871821	keystroke_e	e	n/a
436.0475	0.113	872095	keystroke_l	l	n/a
436.2115	0.092	872423	keystroke_e	e	n/a
436.7785	0.115	873557	keystroke_g	g	n/a
436.9955	0.202	873991	keystroke_a	a	n/a
437.1515	0.135	874303	keystroke_t	t	n/a
437.5555	0.1835	875111	keystroke_i	i	n/a
437.762	0.115	875524	keystroke_o	o	n/a
437.982	0.137	875964	keystroke_n	n	n/a
438.141	0.088	876282	keystroke_Key.space	Key.space	n/a
438.2525	0.159	876505	keystroke_s	s	n/a
438.5685	0.1375	877137	keystroke_o	o	n/a
438.799	0.091	877598	keystroke_l	l	n/a
438.911	0.1385	877822	keystroke_e	e	n/a
439.0805	0.1805	878161	keystroke_y	y	n/a
439.262	0.112	878524	keystroke_Key.space	Key.space	n/a
439.962	0.091	879924	keystroke_j	j	n/a
440.093	0.137	880186	keystroke_e	e	n/a
440.335	0.138	880670	keystroke_w	w	n/a
440.566	0.113	881132	keystroke_e	e	n/a
440.718	0.114	881436	keystroke_l	l	n/a
441.061	0.163	882122	keystroke_r	r	n/a
441.2605	0.137	882521	keystroke_y	y	n/a
441.6195	0.137	883239	keystroke_Key.enter	Key.enter	n/a
441.76	11.016	883520	prompt	n/a	bankruptcy theme so're probe\n
442.6655	0.116	885331	keystroke_b	b	n/a
442.8885	0.159	885777	keystroke_a	a	n/a
443.1015	0.115	886203	keystroke_n	n	n/a
443.2915	0.093	886583	keystroke_k	k	n/a
443.4735	0.115	886947	keystroke_r	r	n/a
443.7425	0.091	887485	keystroke_u	u	n/a
443.9415	0.095	887883	keystroke_p	p	n/a
444.693	0.091	889386	keystroke_t	t	n/a
444.892	0.092	889784	keystroke_y	y	n/a
445.023	0.115	890046	keystroke_Key.space	Key.space	n/a
445.511	0.113	891022	keystroke_t	t	n/a
445.734	0.114	891468	keystroke_h	h	n/a
445.849	0.113	891698	keystroke_e	e	n/a
446.02	0.139	892040	keystroke_m	m	n/a
446.16	0.1135	892320	keystroke_e	e	n/a
446.2745	0.113	892549	keystroke_Key.space	Key.space	n/a
446.5115	0.1595	893023	keystroke_s	s	n/a
446.694	0.134	893388	keystroke_o	o	n/a
447.5925	0.069	895185	keystroke_'	'	n/a
447.839	0.092	895678	keystroke_r	r	n/a
448.027	0.111	896054	keystroke_e	e	n/a
448.188	0.093	896376	keystroke_Key.space	Key.space	n/a
451.899	0.09	903798	keystroke_p	p	n/a
452.02	0.138	904040	keystroke_r	r	n/a
452.159	0.069	904318	keystroke_o	o	n/a
452.406	0.114	904812	keystroke_b	b	n/a
452.562	0.112	905124	keystroke_e	e	n/a
452.704	0.07	905408	keystroke_Key.enter	Key.enter	n/a
452.779	7.3715	905558	prompt	n/a	computer heath casey witch\n
453.554	0.16	907108	keystroke_c	c	n/a
453.806	0.091	907612	keystroke_o	o	n/a
454.085	0.158	908170	keystroke_m	m	n/a
454.376	0.091	908752	keystroke_p	p	n/a
454.595	0.0915	909190	keystroke_u	u	n/a
454.8205	0.092	909641	keystroke_t	t	n/a
454.9135	0.138	909827	keystroke_e	e	n/a
455.1405	0.115	910281	keystroke_r	r	n/a
455.2575	0.1095	910515	keystroke_Key.space	Key.space	n/a
455.525	0.113	911050	keystroke_h	h	n/a
455.661	0.137	911322	keystroke_e	e	n/a
455.799	0.202	911598	keystroke_a	a	n/a
456.406	0.158	912812	keystroke_l	l	n/a
456.74	0.137	913480	keystroke_t	t	n/a
457.014	0.138	914028	keystroke_h	h	n/a
457.184	0.137	914368	keystroke_Key.space	Key.space	n/a
457.79	0.1575	915580	keystroke_c	c	n/a
458.0575	0.164	916115	keystroke_a	a	n/a
458.1965	0.139	916393	keystroke_s	s	n/a
458.4225	0.136	916845	keystroke_e	e	n/a
458.5595	0.1375	917119	keystroke_y	y	n/a
458.6725	0.1625	917345	keystroke_Key.space	Key.space	n/a
459.066	0.161	918132	keystroke_w	w	n/a
459.317	0.114	918634	keystroke_i	i	n/a
459.5355	0.138	919071	keystroke_t	t	n/a
459.675	0.1345	919350	keystroke_c	c	n/a
459.8315	0.1125	919663	keystroke_h	h	n/a
460.055	0.094	920110	keystroke_Key.enter	Key.enter	n/a
460.154	9.766	920308	prompt	n/a	greatly conclusion tension aircraft\n
461.188	0.114	922376	keystroke_g	g	n/a
461.339	0.137	922678	keystroke_r	r	n/a
461.552	0.115	923104	keystroke_e	e	n/a
461.699	0.1595	923398	keystroke_a	a	n/a
461.8105	0.072	923621	keystroke_t	t	n/a
462.1405	0.117	924281	keystroke_l	l	n/a
462.4115	0.09	924823	keystroke_y	y	n/a
462.5405	0.114	925081	keystroke_Key.space	Key.space	n/a
463.1085	0.159	926217	keystroke_c	c	n/a
463.3565	0.118	926713	keystroke_p	p	n/a
463.3805	0.07	926761	keystroke_o	o	n/a
464.1915	0.1365	928383	keystroke_Key.backspace	Key.backspace	n/a
464.418	0.092	928836	keystroke_Key.backspace	Key.backspace	n/a
464.858	0.091	929716	keystroke_o	o	n/a
465.096	0.138	930192	keystroke_n	n	n/a
465.257	0.136	930514	keystroke_c	c	n/a
465.424	0.137	930848	keystroke_l	l	n/a
465.612	0.116	931224	keystroke_u	u	n/a
465.729	0.157	931458	keystroke_s	s	n/a
465.908	0.114	931816	keystroke_i	i	n/a
466.064	0.114	932128	keystroke_o	o	n/a
466.303	0.137	932606	keystroke_n	n	n/a
466.461	0.09	932922	keystroke_Key.space	Key.space	n/a
466.815	0.1135	933630	keystroke_t	t	n/a
466.9515	0.091	933903	keystroke_e	e	n/a
467.1285	0.116	934257	keystroke_n	n	n/a
467.2465	0.133	934493	keystroke_s	s	n/a
467.4015	0.114	934803	keystroke_i	i	n/a
467.5635	0.115	935127	keystroke_o	o	n/a
467.7815	0.136	935563	keystroke_n	n	n/a
467.9185	0.091	935837	keystroke_Key.space	Key.space	n/a
468.1145	0.161	936229	keystroke_a	a	n/a
468.3535	0.091	936707	keystroke_i	i	n/a
468.5535	0.093	937107	keystroke_r	r	n/a
468.8415	0.1165	937683	keystroke_c	c	n/a
469.095	0.068	938190	keystroke_r	r	n/a
469.247	0.161	938494	keystroke_a	a	n/a
469.431	0.09	938862	keystroke_f	f	n/a
469.595	0.091	939190	keystroke_t	t	n/a
469.849	0.069	939698	keystroke_Key.enter	Key.enter	n/a
469.9225	8.42	939845	prompt	n/a	supports digital diane wrestling\n
470.487	0.182	940974	keystroke_s	s	n/a
470.781	0.069	941562	keystroke_u	u	n/a
470.99	0.116	941980	keystroke_p	p	n/a
471.149	0.095	942298	keystroke_p	p	n/a
471.196	0.094	942392	keystroke_o	o	n/a
471.378	0.136	942756	keystroke_r	r	n/a
471.62	0.069	943240	keystroke_t	t	n/a
471.9175	0.184	943835	keystroke_s	s	n/a
472.0755	0.119	944151	keystroke_Key.space	Key.space	n/a
472.3065	0.182	944613	keystroke_d	d	n/a
472.713	0.0915	945426	keystroke_i	i	n/a
473.4165	0.0905	946833	keystroke_g	g	n/a
473.605	0.114	947210	keystroke_i	i	n/a
473.741	0.091	947482	keystroke_t	t	n/a
474.004	0.185	948008	keystroke_a	a	n/a
474.164	0.1395	948328	keystroke_l	l	n/a
474.3265	0.113	948653	keystroke_Key.space	Key.space	n/a
474.8375	0.203	949675	keystroke_d	d	n/a
475.0725	0.094	950145	keystroke_i	i	n/a
475.2035	0.162	950407	keystroke_a	a	n/a
475.3405	0.093	950681	keystroke_n	n	n/a
475.476	0.136	950952	keystroke_e	e	n/a
475.588	0.137	951176	keystroke_Key.space	Key.space	n/a
476.075	0.139	952150	keystroke_w	w	n/a
476.4435	0.114	952887	keystroke_r	r	n/a
476.6455	0.113	953291	keystroke_e	e	n/a
476.8745	0.138	953749	keystroke_s	s	n/a
477.0345	0.117	954069	keystroke_t	t	n/a
477.3895	0.228	954779	keystroke_l	l	n/a
477.5935	0.093	955187	keystroke_i	i	n/a
477.8265	0.093	955653	keystroke_n	n	n/a
478.0415	0.069	956083	keystroke_g	g	n/a
478.2715	0.069	956543	keystroke_Key.enter	Key.enter	n/a
478.345	11.055	956690	prompt	n/a	dame warranty missouri bone\n
479.0185	0.1425	958037	keystroke_d	d	n/a
479.244	0.164	958488	keystroke_a	a	n/a
479.409	0.18	958818	keystroke_m	m	n/a
479.565	0.1375	959130	keystroke_e	e	n/a
479.679	0.114	959358	keystroke_Key.space	Key.space	n/a
480.193	0.138	960386	keystroke_w	w	n/a
480.405	0.133	960810	keystroke_a	a	n/a
480.706	0.114	961412	keystroke_r	r	n/a
480.881	0.113	961762	keystroke_r	r	n/a
481.061	0.16	962122	keystroke_a	a	n/a
481.222	0.115	962444	keystroke_n	n	n/a
481.539	0.136	963078	keystroke_t	t	n/a
482.5785	0.184	965157	keystroke_y	y	n/a
482.8215	0.137	965643	keystroke_Key.space	Key.space	n/a
483.8825	0.0925	967765	keystroke_m	m	n/a
484.074	0.092	968148	keystroke_i	i	n/a
484.26	0.093	968520	keystroke_s	s	n/a
484.4565	0.114	968913	keystroke_s	s	n/a
485.4065	0.159	970813	keystroke_o	o	n/a
485.6525	0.113	971305	keystroke_u	u	n/a
485.9025	0.139	971805	keystroke_r	r	n/a
486.114	0.182	972228	keystroke_i	i	n/a
486.359	0.138	972718	keystroke_Key.space	Key.space	n/a
486.69	0.07	973380	keystroke_n	n	n/a
486.948	0.159	973896	keystroke_o	o	n/a
487.233	0.116	974466	keystroke_n	n	n/a
487.566	0.113	975132	keystroke_Key.backspace	Key.backspace	n/a
487.763	0.092	975526	keystroke_Key.backspace	Key.backspace	n/a
487.926	0.07	975852	keystroke_Key.backspace	Key.backspace	n/a
488.524	0.069	977048	keystroke_b	b	n/a
488.763	0.111	977526	keystroke_o	o	n/a
488.957	0.16	977914	keystroke_m	m	n/a
489.14	0.115	978280	keystroke_e	e	n/a
489.303	0.096	978606	keystroke_Key.enter	Key.enter	n/a
489.4045	8.839	978809	prompt	n/a	phpbb singapore human batch\n
490.4945	0.09	980989	keystroke_p	p	n/a
491.996	0.093	983992	keystroke_h	h	n/a
492.8415	0.092	985683	keystroke_p	p	n/a
493.236	0.114	986472	keystroke_b	b	n/a
493.445	0.1145	986890	keystroke_b	b	n/a
493.5915	0.1135	987183	keystroke_Key.space	Key.space	n/a
494.095	0.16	988190	keystroke_s	s	n/a
494.297	0.117	988594	keystroke_i	i	n/a
494.551	0.114	989102	keystroke_n	n	n/a
494.748	0.09	989496	keystroke_g	g	n/a
494.86	0.158	989720	keystroke_a	a	n/a
495.078	0.182	990156	keystroke_p	p	n/a
495.282	0.117	990564	keystroke_o	o	n/a
495.422	0.0915	990844	keystroke_r	r	n/a
495.6365	0.114	991273	keystroke_e	e	n/a
495.7515	0.1145	991503	keystroke_Key.space	Key.space	n/a
496.2585	0.069	992517	keystroke_h	h	n/a
496.4945	0.094	992989	keystroke_u	u	n/a
496.7035	0.118	993407	keystroke_m	m	n/a
496.8225	0.152	993645	keystroke_a	a	n/a
496.9755	0.089	993951	keystroke_n	n	n/a
497.1015	0.093	994203	keystroke_Key.space	Key.space	n/a
497.3005	0.116	994601	keystroke_b	b	n/a
497.4175	0.1555	994835	keystroke_a	a	n/a
497.594	0.093	995188	keystroke_t	t	n/a
497.793	0.158	995586	keystroke_c	c	n/a
497.952	0.113	995904	keystroke_h	h	n/a
498.147	0.095	996294	keystroke_Key.enter	Key.enter	n/a
498.246	6.3315	996492	prompt	n/a	shadow pike tracked designer\n
498.917	0.16	997834	keystroke_s	s	n/a
499.099	0.091	998198	keystroke_h	h	n/a
499.191	0.1585	998382	keystroke_a	a	n/a
499.4635	0.115	998927	keystroke_d	d	n/a
499.5545	0.0905	999109	keystroke_o	o	n/a
499.727	0.136	999454	keystroke_w	w	n/a
499.864	0.092	999728	keystroke_Key.space	Key.space	n/a
500.3435	0.162	1000687	keystroke_p	p	n/a
500.5425	0.114	1001085	keystroke_i	i	n/a
500.7555	0.094	1001511	keystroke_k	k	n/a
500.8505	0.159	1001701	keystroke_e	e	n/a
501.0105	0.112	1002021	keystroke_Key.space	Key.space	n/a
501.4905	0.09	1002981	keystroke_t	t	n/a
501.692	0.092	1003384	keystroke_r	r	n/a
501.943	0.134	1003886	keystroke_a	a	n/a
502.218	0.136	1004436	keystroke_c	c	n/a
502.355	0.09	1004710	keystroke_k	k	n/a
502.494	0.115	1004988	keystroke_e	e	n/a
502.713	0.114	1005426	keystroke_d	d	n/a
502.849	0.091	1005698	keystroke_Key.space	Key.space	n/a
503.1095	0.0915	1006219	keystroke_d	d	n/a
503.334	0.07	1006668	keystroke_e	e	n/a
503.521	0.1585	1007042	keystroke_s	s	n/a
503.611	0.091	1007222	keystroke_i	i	n/a
503.844	0.093	1007688	keystroke_g	g	n/a
504.064	0.092	1008128	keystroke_n	n	n/a
504.157	0.089	1008314	keystroke_e	e	n/a
504.336	0.069	1008672	keystroke_r	r	n/a
504.488	0.088	1008976	keystroke_Key.enter	Key.enter	n/a
504.58	9.373	1009160	prompt	n/a	sales together ping survey\n
505.072	0.138	1010144	keystroke_s	s	n/a
505.283	0.16	1010566	keystroke_a	a	n/a
505.545	0.115	1011090	keystroke_e	e	n/a
505.933	0.0915	1011866	keystroke_Key.backspace	Key.backspace	n/a
506.2175	0.114	1012435	keystroke_l	l	n/a
506.3545	0.091	1012709	keystroke_e	e	n/a
506.5645	0.158	1013129	keystroke_s	s	n/a
506.6985	0.115	1013397	keystroke_Key.space	Key.space	n/a
507.1245	0.114	1014249	keystroke_t	t	n/a
507.3955	0.094	1014791	keystroke_o	o	n/a
507.6505	0.092	1015301	keystroke_g	g	n/a
507.7735	0.112	1015547	keystroke_e	e	n/a
507.9085	0.091	1015817	keystroke_t	t	n/a
508.103	0.1165	1016206	keystroke_h	h	n/a
508.195	0.093	1016390	keystroke_e	e	n/a
508.375	0.093	1016750	keystroke_r	r	n/a
508.492	0.092	1016984	keystroke_Key.space	Key.space	n/a
508.827	0.158	1017654	keystroke_p	p	n/a
509.037	0.114	1018074	keystroke_i	i	n/a
509.2935	0.1345	1018587	keystroke_n	n	n/a
509.501	0.114	1019002	keystroke_g	g	n/a
509.637	0.115	1019274	keystroke_Key.space	Key.space	n/a
510.079	0.158	1020158	keystroke_s	s	n/a
510.29	0.091	1020580	keystroke_u	u	n/a
510.473	0.16	1020946	keystroke_r	r	n/a
510.61	0.1365	1021220	keystroke_v	v	n/a
511.023	0.093	1022046	keystroke_y	y	n/a
511.206	0.158	1022412	keystroke_e	e	n/a
511.693	0.114	1023386	keystroke_Key.backspace	Key.backspace	n/a
511.909	0.067	1023818	keystroke_Key.backspace	Key.backspace	n/a
512.102	0.07	1024204	keystroke_Key.backspace	Key.backspace	n/a
513.1125	0.024	1026225	keystroke_b	b	n/a
513.1375	0.089	1026275	keystroke_v	v	n/a
513.4175	0.136	1026835	keystroke_e	e	n/a
513.6055	0.09	1027211	keystroke_y	y	n/a
513.8395	0.112	1027679	keystroke_Key.enter	Key.enter	n/a
513.956	6.4755	1027912	prompt	n/a	warming french adds grad\n
514.7045	0.137	1029409	keystroke_w	w	n/a
514.8995	0.181	1029799	keystroke_a	a	n/a
515.1275	0.092	1030255	keystroke_r	r	n/a
515.2635	0.137	1030527	keystroke_m	m	n/a
515.5045	0.072	1031009	keystroke_i	i	n/a
515.7355	0.093	1031471	keystroke_n	n	n/a
515.9415	0.116	1031883	keystroke_g	g	n/a
516.0955	0.134	1032191	keystroke_Key.space	Key.space	n/a
516.6035	0.069	1033207	keystroke_f	f	n/a
516.8035	0.048	1033607	keystroke_r	r	n/a
516.9725	0.094	1033945	keystroke_e	e	n/a
517.1215	0.115	1034243	keystroke_n	n	n/a
517.2975	0.139	1034595	keystroke_c	c	n/a
517.4375	0.114	1034875	keystroke_h	h	n/a
517.5735	0.09	1035147	keystroke_Key.space	Key.space	n/a
518.0485	0.179	1036097	keystroke_a	a	n/a
518.3645	0.138	1036729	keystroke_d	d	n/a
518.5585	0.115	1037117	keystroke_d	d	n/a
518.7685	0.16	1037537	keystroke_s	s	n/a
518.9045	0.115	1037809	keystroke_Key.space	Key.space	n/a
519.6545	0.093	1039309	keystroke_g	g	n/a
519.8055	0.116	1039611	keystroke_r	r	n/a
520.0015	0.159	1040003	keystroke_a	a	n/a
520.1955	0.111	1040391	keystroke_d	d	n/a
520.3385	0.092	1040677	keystroke_Key.enter	Key.enter	n/a
520.435	8.7635	1040870	prompt	n/a	accessible edinburgh kurt noon\n
520.9645	0.159	1041929	keystroke_a	a	n/a
521.4485	0.091	1042897	keystroke_c	c	n/a
521.6255	0.114	1043251	keystroke_c	c	n/a
521.7685	0.138	1043537	keystroke_e	e	n/a
522.0645	0.137	1044129	keystroke_s	s	n/a
522.2775	0.139	1044555	keystroke_s	s	n/a
522.6245	0.113	1045249	keystroke_i	i	n/a
522.9295	0.0695	1045859	keystroke_b	b	n/a
523.132	0.159	1046264	keystroke_l	l	n/a
523.292	0.136	1046584	keystroke_e	e	n/a
523.405	0.1135	1046810	keystroke_Key.space	Key.space	n/a
524.0185	0.091	1048037	keystroke_e	e	n/a
524.2465	0.137	1048493	keystroke_d	d	n/a
524.3845	0.067	1048769	keystroke_i	i	n/a
524.6385	0.114	1049277	keystroke_n	n	n/a
524.8775	0.07	1049755	keystroke_b	b	n/a
525.1155	0.091	1050231	keystroke_u	u	n/a
525.2865	0.114	1050573	keystroke_r	r	n/a
525.4625	0.071	1050925	keystroke_g	g	n/a
525.6605	0.091	1051321	keystroke_h	h	n/a
525.7905	0.111	1051581	keystroke_Key.space	Key.space	n/a
526.3255	0.089	1052651	keystroke_j	j	n/a
526.4475	0.069	1052895	keystroke_j	j	n/a
526.8	0.093	1053600	keystroke_Key.backspace	Key.backspace	n/a
527.061	0.093	1054122	keystroke_k	k	n/a
527.254	0.0925	1054508	keystroke_u	u	n/a
527.3795	0.1175	1054759	keystroke_r	r	n/a
527.5885	0.095	1055177	keystroke_t	t	n/a
527.7175	0.093	1055435	keystroke_Key.space	Key.space	n/a
528.3445	0.092	1056689	keystroke_n	n	n/a
528.5765	0.071	1057153	keystroke_o	o	n/a
528.724	0.114	1057448	keystroke_o	o	n/a
528.894	0.0915	1057788	keystroke_n	n	n/a
529.1295	0.068	1058259	keystroke_Key.enter	Key.enter	n/a
529.2015	6.8085	1058403	prompt	n/a	asking italia barrel removable\n
529.939	0.159	1059878	keystroke_a	a	n/a
530.182	0.16	1060364	keystroke_s	s	n/a
530.364	0.069	1060728	keystroke_k	k	n/a
530.531	0.113	1061062	keystroke_i	i	n/a
530.7455	0.136	1061491	keystroke_n	n	n/a
530.975	0.136	1061950	keystroke_g	g	n/a
531.112	0.112	1062224	keystroke_Key.space	Key.space	n/a
531.668	0.115	1063336	keystroke_i	i	n/a
531.955	0.07	1063910	keystroke_t	t	n/a
532.0785	0.136	1064157	keystroke_a	a	n/a
532.2455	0.182	1064491	keystroke_l	l	n/a
532.4035	0.115	1064807	keystroke_i	i	n/a
532.5195	0.112	1065039	keystroke_a	a	n/a
532.6535	0.1385	1065307	keystroke_Key.space	Key.space	n/a
533.0945	0.115	1066189	keystroke_b	b	n/a
533.2105	0.134	1066421	keystroke_a	a	n/a
533.4655	0.093	1066931	keystroke_r	r	n/a
533.6285	0.094	1067257	keystroke_r	r	n/a
533.8125	0.111	1067625	keystroke_e	e	n/a
533.9245	0.158	1067849	keystroke_l	l	n/a
534.0835	0.112	1068167	keystroke_Key.space	Key.space	n/a
534.3225	0.068	1068645	keystroke_r	r	n/a
534.5035	0.113	1069007	keystroke_e	e	n/a
534.6555	0.14	1069311	keystroke_m	m	n/a
534.8535	0.091	1069707	keystroke_o	o	n/a
535.1215	0.116	1070243	keystroke_v	v	n/a
535.2385	0.156	1070477	keystroke_a	a	n/a
535.3955	0.113	1070791	keystroke_b	b	n/a
535.6025	0.117	1071205	keystroke_l	l	n/a
535.754	0.114	1071508	keystroke_e	e	n/a
535.917	0.092	1071834	keystroke_Key.enter	Key.enter	n/a
536.013	6.929	1072026	prompt	n/a	anybody gift gore contain\n
536.578	0.137	1073156	keystroke_a	a	n/a
536.818	0.115	1073636	keystroke_n	n	n/a
537.261	0.07	1074522	keystroke_y	y	n/a
537.501	0.092	1075002	keystroke_b	b	n/a
537.686	0.139	1075372	keystroke_o	o	n/a
537.847	0.134	1075694	keystroke_d	d	n/a
538.005	0.089	1076010	keystroke_y	y	n/a
538.117	0.116	1076234	keystroke_Key.space	Key.space	n/a
538.927	0.092	1077854	keystroke_g	g	n/a
539.155	0.093	1078310	keystroke_i	i	n/a
539.474	0.139	1078948	keystroke_f	f	n/a
539.699	0.115	1079398	keystroke_t	t	n/a
539.8155	0.112	1079631	keystroke_Key.space	Key.space	n/a
540.4215	0.092	1080843	keystroke_g	g	n/a
540.7265	0.162	1081453	keystroke_o	o	n/a
540.8645	0.113	1081729	keystroke_r	r	n/a
541.0745	0.136	1082149	keystroke_e	e	n/a
541.2115	0.113	1082423	keystroke_Key.space	Key.space	n/a
541.6055	0.138	1083211	keystroke_c	c	n/a
541.7675	0.112	1083535	keystroke_o	o	n/a
541.9895	0.112	1083979	keystroke_n	n	n/a
542.2255	0.093	1084451	keystroke_t	t	n/a
542.3195	0.157	1084639	keystroke_a	a	n/a
542.4775	0.0905	1084955	keystroke_i	i	n/a
542.644	0.094	1085288	keystroke_n	n	n/a
542.871	0.07	1085742	keystroke_Key.enter	Key.enter	n/a
542.945	11.8545	1085890	prompt	n/a	violence frequent implications exhibits\n
543.952	0.088	1087904	keystroke_v	v	n/a
544.155	0.112	1088310	keystroke_i	i	n/a
544.351	0.114	1088702	keystroke_o	o	n/a
544.554	0.115	1089108	keystroke_l	l	n/a
544.6705	0.0905	1089341	keystroke_e	e	n/a
544.985	0.157	1089970	keystroke_n	n	n/a
545.166	0.114	1090332	keystroke_c	c	n/a
545.389	0.114	1090778	keystroke_e	e	n/a
545.504	0.089	1091008	keystroke_Key.space	Key.space	n/a
545.893	0.113	1091786	keystroke_f	f	n/a
546.117	0.09	1092234	keystroke_r	r	n/a
546.318	0.114	1092636	keystroke_e	e	n/a
546.7985	0.181	1093597	keystroke_q	q	n/a
547.0965	0.115	1094193	keystroke_u	u	n/a
547.3275	0.115	1094655	keystroke_e	e	n/a
547.3965	0.179	1094793	keystroke_n	n	n/a
547.7445	0.116	1095489	keystroke_t	t	n/a
547.9045	0.116	1095809	keystroke_Key.space	Key.space	n/a
548.9435	0.091	1097887	keystroke_i	i	n/a
549.1945	0.136	1098389	keystroke_m	m	n/a
549.413	0.16	1098826	keystroke_p	p	n/a
549.549	0.092	1099098	keystroke_l	l	n/a
549.737	0.094	1099474	keystroke_i	i	n/a
549.832	0.18	1099664	keystroke_c	c	n/a
550.117	0.1595	1100234	keystroke_a	a	n/a
550.2065	0.116	1100413	keystroke_t	t	n/a
550.4765	0.136	1100953	keystroke_i	i	n/a
550.6355	0.0925	1101271	keystroke_o	o	n/a
550.841	0.115	1101682	keystroke_n	n	n/a
550.978	0.16	1101956	keystroke_s	s	n/a
551.07	0.134	1102140	keystroke_Key.space	Key.space	n/a
551.803	0.115	1103606	keystroke_e	e	n/a
552.139	0.181	1104278	keystroke_x	x	n/a
553.5115	0.07	1107023	keystroke_h	h	n/a
553.7425	0.092	1107485	keystroke_i	i	n/a
553.9785	0.091	1107957	keystroke_b	b	n/a
554.1595	0.093	1108319	keystroke_i	i	n/a
554.3585	0.046	1108717	keystroke_t	t	n/a
554.4695	0.137	1108939	keystroke_s	s	n/a
554.707	0.091	1109414	keystroke_Key.enter	Key.enter	n/a
554.8025	12.88	1109605	prompt	n/a	rochester strongly temperatures purpose\n
555.647	0.1125	1111294	keystroke_r	r	n/a
555.8665	0.092	1111733	keystroke_o	o	n/a
556.1145	0.181	1112229	keystroke_c	c	n/a
556.3505	0.1375	1112701	keystroke_h	h	n/a
556.559	0.1605	1113118	keystroke_e	e	n/a
556.8975	0.182	1113795	keystroke_s	s	n/a
557.1105	0.183	1114221	keystroke_t	t	n/a
557.3245	0.114	1114649	keystroke_e	e	n/a
557.5235	0.09	1115047	keystroke_r	r	n/a
557.6365	0.071	1115273	keystroke_Key.space	Key.space	n/a
558.0055	0.136	1116011	keystroke_s	s	n/a
558.3585	0.091	1116717	keystroke_t	t	n/a
558.5495	0.1135	1117099	keystroke_r	r	n/a
558.7715	0.141	1117543	keystroke_o	o	n/a
559.7555	0.092	1119511	keystroke_n	n	n/a
559.9635	0.068	1119927	keystroke_g	g	n/a
560.2385	0.181	1120477	keystroke_l	l	n/a
560.5475	0.091	1121095	keystroke_y	y	n/a
560.7135	0.094	1121427	keystroke_Key.space	Key.space	n/a
561.4065	0.091	1122813	keystroke_t	t	n/a
561.5525	0.136	1123105	keystroke_e	e	n/a
561.8055	0.094	1123611	keystroke_m	m	n/a
562.0325	0.1575	1124065	keystroke_p	p	n/a
562.333	0.089	1124666	keystroke_u	u	n/a
562.716	0.157	1125432	keystroke_r	r	n/a
563.438	0.115	1126876	keystroke_Key.backspace	Key.backspace	n/a
563.632	0.091	1127264	keystroke_Key.backspace	Key.backspace	n/a
563.724	0.112	1127448	keystroke_e	e	n/a
563.929	0.09	1127858	keystroke_r	r	n/a
564.5535	0.1825	1129107	keystroke_a	a	n/a
564.916	0.095	1129832	keystroke_t	t	n/a
565.169	0.091	1130338	keystroke_u	u	n/a
565.335	0.091	1130670	keystroke_r	r	n/a
565.541	0.0915	1131082	keystroke_e	e	n/a
565.7495	0.161	1131499	keystroke_s	s	n/a
565.8865	0.14	1131773	keystroke_Key.space	Key.space	n/a
566.1985	0.1145	1132397	keystroke_p	p	n/a
566.493	0.115	1132986	keystroke_u	u	n/a
566.6925	0.135	1133385	keystroke_r	r	n/a
566.8285	0.228	1133657	keystroke_p	p	n/a
567.0575	0.1345	1134115	keystroke_o	o	n/a
567.214	0.111	1134428	keystroke_s	s	n/a
567.418	0.091	1134836	keystroke_e	e	n/a
567.566	0.115	1135132	keystroke_Key.enter	Key.enter	n/a
567.685	7.576	1135370	prompt	n/a	selecting consoles yours nashville\n
568.2175	0.14	1136435	keystroke_s	s	n/a
568.5325	0.1625	1137065	keystroke_e	e	n/a
568.751	0.139	1137502	keystroke_l	l	n/a
568.912	0.093	1137824	keystroke_e	e	n/a
569.5055	0.139	1139011	keystroke_c	c	n/a
569.7175	0.094	1139435	keystroke_t	t	n/a
569.9145	0.137	1139829	keystroke_i	i	n/a
570.1365	0.159	1140273	keystroke_n	n	n/a
570.3655	0.114	1140731	keystroke_g	g	n/a
570.5015	0.157	1141003	keystroke_Key.space	Key.space	n/a
570.6355	0.159	1141271	keystroke_c	c	n/a
570.7955	0.135	1141591	keystroke_o	o	n/a
571.0435	0.095	1142087	keystroke_n	n	n/a
571.1395	0.182	1142279	keystroke_s	s	n/a
571.2735	0.093	1142547	keystroke_o	o	n/a
571.4625	0.117	1142925	keystroke_l	l	n/a
571.5545	0.091	1143109	keystroke_e	e	n/a
571.7495	0.181	1143499	keystroke_s	s	n/a
571.8845	0.093	1143769	keystroke_Key.space	Key.space	n/a
572.1715	0.068	1144343	keystroke_y	y	n/a
572.3725	0.092	1144745	keystroke_o	o	n/a
572.5395	0.09	1145079	keystroke_u	u	n/a
572.6675	0.139	1145335	keystroke_r	r	n/a
572.9425	0.183	1145885	keystroke_s	s	n/a
573.1015	0.115	1146203	keystroke_Key.space	Key.space	n/a
573.5475	0.091	1147095	keystroke_n	n	n/a
573.6595	0.181	1147319	keystroke_a	a	n/a
573.8165	0.139	1147633	keystroke_s	s	n/a
573.9775	0.091	1147955	keystroke_h	h	n/a
574.2215	0.116	1148443	keystroke_v	v	n/a
574.5235	0.137	1149047	keystroke_i	i	n/a
574.7685	0.089	1149537	keystroke_l	l	n/a
574.9435	0.116	1149887	keystroke_l	l	n/a
575.0355	0.138	1150071	keystroke_e	e	n/a
575.2125	0.0465	1150425	keystroke_Key.enter	Key.enter	n/a
575.265	11.05	1150530	prompt	n/a	expenses avoiding accused consecutive\n
576.018	0.092	1152036	keystroke_e	e	n/a
576.321	0.16	1152642	keystroke_x	x	n/a
576.503	0.092	1153006	keystroke_p	p	n/a
576.628	0.118	1153256	keystroke_e	e	n/a
576.809	0.093	1153618	keystroke_n	n	n/a
576.924	0.117	1153848	keystroke_s	s	n/a
577.1325	0.092	1154265	keystroke_e	e	n/a
577.3155	0.161	1154631	keystroke_s	s	n/a
577.4775	0.089	1154955	keystroke_Key.space	Key.space	n/a
577.6775	0.136	1155355	keystroke_a	a	n/a
578.0175	0.09	1156035	keystroke_v	v	n/a
578.6635	0.112	1157327	keystroke_o	o	n/a
578.8225	0.114	1157645	keystroke_i	i	n/a
579.0115	0.1405	1158023	keystroke_d	d	n/a
579.153	0.089	1158306	keystroke_i	i	n/a
579.417	0.113	1158834	keystroke_n	n	n/a
579.642	0.091	1159284	keystroke_g	g	n/a
579.787	0.089	1159574	keystroke_Key.space	Key.space	n/a
580.513	0.111	1161026	keystroke_a	a	n/a
580.801	0.135	1161602	keystroke_c	c	n/a
581.152	0.159	1162304	keystroke_c	c	n/a
581.36	0.113	1162720	keystroke_u	u	n/a
581.53	0.155	1163060	keystroke_s	s	n/a
581.795	0.092	1163590	keystroke_e	e	n/a
581.983	0.14	1163966	keystroke_d	d	n/a
582.124	0.066	1164248	keystroke_Key.space	Key.space	n/a
582.473	0.116	1164946	keystroke_c	c	n/a
582.612	0.114	1165224	keystroke_o	o	n/a
582.845	0.136	1165690	keystroke_n	n	n/a
583.368	0.224	1166736	keystroke_s	s	n/a
583.704	0.114	1167408	keystroke_e	e	n/a
584.155	0.137	1168310	keystroke_c	c	n/a
585.2435	0.114	1170487	keystroke_u	u	n/a
585.441	0.0905	1170882	keystroke_t	t	n/a
585.6495	0.137	1171299	keystroke_i	i	n/a
585.8995	0.113	1171799	keystroke_v	v	n/a
586.0435	0.1385	1172087	keystroke_e	e	n/a
586.266	0.048	1172532	keystroke_Key.enter	Key.enter	n/a
586.3185	9.59	1172637	prompt	n/a	luck became msgstr pockets\n
587.3495	0.136	1174699	keystroke_l	l	n/a
587.5395	0.092	1175079	keystroke_u	u	n/a
587.6865	0.157	1175373	keystroke_c	c	n/a
587.8655	0.092	1175731	keystroke_k	k	n/a
587.9805	0.116	1175961	keystroke_Key.space	Key.space	n/a
588.7525	0.115	1177505	keystroke_b	b	n/a
588.9685	0.113	1177937	keystroke_e	e	n/a
589.2565	0.09	1178513	keystroke_c	c	n/a
589.4495	0.178	1178899	keystroke_a	a	n/a
589.6025	0.092	1179205	keystroke_m	m	n/a
589.7175	0.138	1179435	keystroke_e	e	n/a
589.8565	0.067	1179713	keystroke_Key.space	Key.space	n/a
590.6725	0.09	1181345	keystroke_m	m	n/a
590.8245	0.161	1181649	keystroke_s	s	n/a
592.8005	0.069	1185601	keystroke_g	g	n/a
592.95	0.2075	1185900	keystroke_s	s	n/a
593.1315	0.1365	1186263	keystroke_t	t	n/a
593.361	0.092	1186722	keystroke_r	r	n/a
593.59	0.1155	1187180	keystroke_Key.space	Key.space	n/a
594.242	0.206	1188484	keystroke_p	p	n/a
594.552	0.1355	1189104	keystroke_o	o	n/a
595.0215	0.14	1190043	keystroke_c	c	n/a
595.2315	0.113	1190463	keystroke_k	k	n/a
595.3675	0.092	1190735	keystroke_e	e	n/a
595.5185	0.091	1191037	keystroke_t	t	n/a
595.6565	0.1365	1191313	keystroke_s	s	n/a
595.815	0.092	1191630	keystroke_Key.enter	Key.enter	n/a
595.911	10.577	1191822	prompt	n/a	professional publication chuck photograph\n
596.8655	0.092	1193731	keystroke_p	p	n/a
597.0255	0.09	1194051	keystroke_r	r	n/a
597.1475	0.093	1194295	keystroke_o	o	n/a
597.4525	0.091	1194905	keystroke_f	f	n/a
597.5665	0.071	1195133	keystroke_e	e	n/a
597.7985	0.092	1195597	keystroke_s	s	n/a
597.9695	0.137	1195939	keystroke_s	s	n/a
598.0395	0.161	1196079	keystroke_i	i	n/a
598.1745	0.115	1196349	keystroke_o	o	n/a
598.3795	0.114	1196759	keystroke_n	n	n/a
598.5275	0.16	1197055	keystroke_a	a	n/a
598.6405	0.138	1197281	keystroke_l	l	n/a
598.7795	0.16	1197559	keystroke_Key.space	Key.space	n/a
598.9405	0.135	1197881	keystroke_p	p	n/a
599.5655	0.068	1199131	keystroke_u	u	n/a
599.7885	0.091	1199577	keystroke_b	b	n/a
600.0095	0.162	1200019	keystroke_l	l	n/a
600.1475	0.073	1200295	keystroke_i	i	n/a
600.2425	0.114	1200485	keystroke_c	c	n/a
600.4485	0.162	1200897	keystroke_a	a	n/a
600.5845	0.0925	1201169	keystroke_t	t	n/a
600.855	0.16	1201710	keystroke_i	i	n/a
600.99	0.117	1201980	keystroke_o	o	n/a
601.198	0.14	1202396	keystroke_n	n	n/a
601.339	0.112	1202678	keystroke_Key.space	Key.space	n/a
601.647	0.158	1203294	keystroke_c	c	n/a
601.827	0.091	1203654	keystroke_h	h	n/a
602.202	0.095	1204404	keystroke_u	u	n/a
602.375	0.114	1204750	keystroke_c	c	n/a
602.528	0.157	1205056	keystroke_k	k	n/a
602.708	0.113	1205416	keystroke_Key.space	Key.space	n/a
603.007	0.089	1206014	keystroke_p	p	n/a
603.707	0.091	1207414	keystroke_h	h	n/a
603.926	0.068	1207852	keystroke_o	o	n/a
604.1145	0.094	1208229	keystroke_t	t	n/a
604.2425	0.092	1208485	keystroke_o	o	n/a
604.7165	0.113	1209433	keystroke_g	g	n/a
605.0025	0.113	1210005	keystroke_r	r	n/a
605.2295	0.162	1210459	keystroke_a	a	n/a
605.9115	0.137	1211823	keystroke_p	p	n/a
606.2065	0.092	1212413	keystroke_h	h	n/a
606.4165	0.07	1212833	keystroke_Key.enter	Key.enter	n/a
606.4905	9.2875	1212981	prompt	n/a	cradle converter is tank\n
607.2865	0.136	1214573	keystroke_c	c	n/a
607.5425	0.072	1215085	keystroke_r	r	n/a
607.7015	0.162	1215403	keystroke_a	a	n/a
607.8945	0.1135	1215789	keystroke_d	d	n/a
608.094	0.1145	1216188	keystroke_e	e	n/a
608.2435	0.068	1216487	keystroke_Key.space	Key.space	n/a
608.5175	0.137	1217035	keystroke_c	c	n/a
608.697	0.0905	1217394	keystroke_o	o	n/a
609.2305	0.1135	1218461	keystroke_n	n	n/a
609.453	0.092	1218906	keystroke_v	v	n/a
609.566	0.113	1219132	keystroke_e	e	n/a
609.769	0.089	1219538	keystroke_r	r	n/a
609.882	0.069	1219764	keystroke_t	t	n/a
610.008	0.092	1220016	keystroke_e	e	n/a
610.201	0.095	1220402	keystroke_r	r	n/a
610.332	0.07	1220664	keystroke_Key.space	Key.space	n/a
611.077	0.113	1222154	keystroke_i	i	n/a
611.212	0.162	1222424	keystroke_s	s	n/a
611.397	0.07	1222794	keystroke_Key.space	Key.space	n/a
612.6085	0.1125	1225217	keystroke_t	t	n/a
612.742	0.16	1225484	keystroke_a	a	n/a
612.984	0.137	1225968	keystroke_n	n	n/a
613.165	0.095	1226330	keystroke_k	k	n/a
615.414	0.089	1230828	keystroke_l	l	n/a
615.684	0.093	1231368	keystroke_Key.enter	Key.enter	n/a
615.781	9.3475	1231562	prompt	n/a	spirituality embedded taxi throwing\n
616.5125	0.186	1233025	keystroke_s	s	n/a
616.8585	0.161	1233717	keystroke_p	p	n/a
617.0515	0.092	1234103	keystroke_i	i	n/a
617.2535	0.16	1234507	keystroke_r	r	n/a
617.671	0.09	1235342	keystroke_i	i	n/a
617.901	0.114	1235802	keystroke_t	t	n/a
618.133	0.094	1236266	keystroke_u	u	n/a
618.439	0.178	1236878	keystroke_a	a	n/a
618.758	0.136	1237516	keystroke_l	l	n/a
619.218	0.093	1238436	keystroke_i	i	n/a
619.497	0.112	1238994	keystroke_t	t	n/a
619.731	0.09	1239462	keystroke_y	y	n/a
619.842	0.139	1239684	keystroke_Key.space	Key.space	n/a
620.286	0.115	1240572	keystroke_e	e	n/a
620.528	0.092	1241056	keystroke_m	m	n/a
620.7625	0.094	1241525	keystroke_b	b	n/a
620.8905	0.114	1241781	keystroke_e	e	n/a
621.1385	0.091	1242277	keystroke_d	d	n/a
621.2975	0.1115	1242595	keystroke_d	d	n/a
621.506	0.068	1243012	keystroke_e	e	n/a
621.673	0.115	1243346	keystroke_d	d	n/a
621.81	0.114	1243620	keystroke_Key.space	Key.space	n/a
622.173	0.113	1244346	keystroke_t	t	n/a
622.307	0.141	1244614	keystroke_a	a	n/a
622.573	0.115	1245146	keystroke_x	x	n/a
622.689	0.109	1245378	keystroke_i	i	n/a
622.82	0.113	1245640	keystroke_Key.space	Key.space	n/a
623.064	0.117	1246128	keystroke_t	t	n/a
623.299	0.118	1246598	keystroke_h	h	n/a
623.393	0.092	1246786	keystroke_r	r	n/a
623.907	0.115	1247814	keystroke_o	o	n/a
624.023	0.112	1248046	keystroke_w	w	n/a
624.136	0.112	1248272	keystroke_i	i	n/a
624.416	0.092	1248832	keystroke_n	n	n/a
624.653	0.07	1249306	keystroke_g	g	n/a
625.057	0.07	1250114	keystroke_Key.enter	Key.enter	n/a
625.1315	11.3	1250263	prompt	n/a	lightbox stage accessories developed\n
625.9045	0.1135	1251809	keystroke_l	l	n/a
626.04	0.092	1252080	keystroke_i	i	n/a
626.288	0.09	1252576	keystroke_g	g	n/a
626.467	0.092	1252934	keystroke_h	h	n/a
626.657	0.091	1253314	keystroke_t	t	n/a
626.909	0.112	1253818	keystroke_b	b	n/a
627.1395	0.093	1254279	keystroke_o	o	n/a
627.3445	0.205	1254689	keystroke_c	c	n/a
627.5505	0.137	1255101	keystroke_Key.space	Key.space	n/a
628.2525	0.115	1256505	keystroke_Key.backspace	Key.backspace	n/a
628.4385	0.113	1256877	keystroke_Key.backspace	Key.backspace	n/a
629.1905	0.182	1258381	keystroke_x	x	n/a
629.3485	0.139	1258697	keystroke_Key.space	Key.space	n/a
629.6285	0.137	1259257	keystroke_d	d	n/a
629.6295	0.158	1259259	keystroke_s	s	n/a
630.1865	0.113	1260373	keystroke_Key.backspace	Key.backspace	n/a
630.4115	0.094	1260823	keystroke_Key.backspace	Key.backspace	n/a
630.5275	0.136	1261055	keystroke_s	s	n/a
630.761	0.116	1261522	keystroke_t	t	n/a
630.852	0.162	1261704	keystroke_a	a	n/a
631.015	0.1355	1262030	keystroke_g	g	n/a
631.1515	0.135	1262303	keystroke_e	e	n/a
631.2625	0.136	1262525	keystroke_Key.space	Key.space	n/a
631.6805	0.136	1263361	keystroke_a	a	n/a
632.0155	0.091	1264031	keystroke_c	c	n/a
632.1775	0.114	1264355	keystroke_c	c	n/a
632.4185	0.115	1264837	keystroke_e	e	n/a
632.6805	0.114	1265361	keystroke_s	s	n/a
632.8615	0.137	1265723	keystroke_s	s	n/a
633.442	0.115	1266884	keystroke_o	o	n/a
633.632	0.09	1267264	keystroke_r	r	n/a
633.772	0.115	1267544	keystroke_i	i	n/a
633.909	0.112	1267818	keystroke_e	e	n/a
634.141	0.1565	1268282	keystroke_s	s	n/a
634.273	0.1135	1268546	keystroke_Key.space	Key.space	n/a
634.6045	0.093	1269209	keystroke_d	d	n/a
634.8005	0.092	1269601	keystroke_e	e	n/a
634.9285	0.071	1269857	keystroke_v	v	n/a
635.3795	0.139	1270759	keystroke_e	e	n/a
