onset	duration	sample	value	key	prompt_text
6.8495	7.9935	13699	prompt	n/a	the quick brown fox jumps over a lazy dog\n
7.6875	0.027	15375	keystroke_t	t	n/a
7.7145	0.105	15429	keystroke_h	h	n/a
8.1045	0.075	16209	keystroke_e	e	n/a
8.2095	0.075	16419	keystroke_Key.space	Key.space	n/a
8.3445	0.135	16689	keystroke_q	q	n/a
8.5095	0.12	17019	keystroke_u	u	n/a
8.5845	0.12	17169	keystroke_i	i	n/a
8.8095	0.1055	17619	keystroke_c	c	n/a
8.87	0.12	17740	keystroke_k	k	n/a
9.079	0.075	18158	keystroke_Key.space	Key.space	n/a
9.184	0.061	18368	keystroke_b	b	n/a
9.305	0.075	18610	keystroke_r	r	n/a
9.485	0.09	18970	keystroke_o	o	n/a
9.65	0.06	19300	keystroke_w	w	n/a
9.77	0.12	19540	keystroke_n	n	n/a
9.904	0.106	19808	keystroke_Key.space	Key.space	n/a
10.085	0.105	20170	keystroke_f	f	n/a
10.205	0.09	20410	keystroke_o	o	n/a
10.3245	0.045	20649	keystroke_s	s	n/a
10.8195	0.09	21639	keystroke_Key.backspace	Key.backspace	n/a
10.9555	0.1195	21911	keystroke_x	x	n/a
11.135	0.105	22270	keystroke_Key.space	Key.space	n/a
11.255	0.12	22510	keystroke_j	j	n/a
11.435	0.09	22870	keystroke_u	u	n/a
11.945	0.09	23890	keystroke_m	m	n/a
12.17	0.1195	24340	keystroke_p	p	n/a
12.4095	0.0895	24819	keystroke_s	s	n/a
12.529	0.1055	25058	keystroke_Key.space	Key.space	n/a
12.725	0.1045	25450	keystroke_o	o	n/a
12.7995	0.09	25599	keystroke_v	v	n/a
12.9795	0.09	25959	keystroke_e	e	n/a
13.0395	0.075	26079	keystroke_r	r	n/a
13.1745	0.09	26349	keystroke_Key.space	Key.space	n/a
13.3095	0.075	26619	keystroke_a	a	n/a
13.4295	0.105	26859	keystroke_Key.space	Key.space	n/a
13.6545	0.0905	27309	keystroke_l	l	n/a
13.76	0.075	27520	keystroke_a	a	n/a
13.94	0.09	27880	keystroke_z	z	n/a
14.015	0.09	28030	keystroke_y	y	n/a
14.119	0.105	28238	keystroke_Key.space	Key.space	n/a
14.285	0.105	28570	keystroke_d	d	n/a
14.375	0.09	28750	keystroke_o	o	n/a
14.525	0.075	29050	keystroke_g	g	n/a
14.75	0.089	29500	keystroke_Key.enter	Key.enter	n/a
14.8495	6.4575	29699	prompt	n/a	mazda deemed foam banking\n
15.545	0.015	31090	keystroke_m	m	n/a
15.575	0.0755	31150	keystroke_a	a	n/a
15.8295	0.09	31659	keystroke_z	z	n/a
16.505	0.0895	33010	keystroke_d	d	n/a
16.6695	0.09	33339	keystroke_a	a	n/a
16.7895	0.105	33579	keystroke_Key.space	Key.space	n/a
17.1945	0.06	34389	keystroke_d	d	n/a
17.3445	0.075	34689	keystroke_e	e	n/a
17.4795	0.09	34959	keystroke_e	e	n/a
17.5995	0.105	35199	keystroke_m	m	n/a
18.1395	0.12	36279	keystroke_e	e	n/a
18.2445	0.135	36489	keystroke_d	d	n/a
18.6345	0.105	37269	keystroke_Key.space	Key.space	n/a
18.8595	0.075	37719	keystroke_f	f	n/a
18.9795	0.09	37959	keystroke_o	o	n/a
19.0995	0.105	38199	keystroke_a	a	n/a
19.2195	0.09	38439	keystroke_m	m	n/a
19.3395	0.1355	38679	keystroke_Key.space	Key.space	n/a
19.55	0.0745	39100	keystroke_b	b	n/a
19.6695	0.09	39339	keystroke_a	a	n/a
19.9695	0.105	39939	keystroke_n	n	n/a
20.2695	0.105	40539	keystroke_k	k	n/a
20.5095	0.165	41019	keystroke_i	i	n/a
20.6445	0.105	41289	keystroke_n	n	n/a
20.8245	0.075	41649	keystroke_g	g	n/a
21.2145	0.09	42429	keystroke_Key.enter	Key.enter	n/a
21.3115	5.5005	42623	prompt	n/a	continually postcard top white\n
22.2055	0.104	44411	keystroke_c	c	n/a
22.3245	0.165	44649	keystroke_o	o	n/a
22.4445	0.12	44889	keystroke_n	n	n/a
22.7595	0.105	45519	keystroke_t	t	n/a
22.8945	0.105	45789	keystroke_i	i	n/a
22.9545	0.075	45909	keystroke_n	n	n/a
23.1355	0.074	46271	keystroke_u	u	n/a
23.2845	0.075	46569	keystroke_a	a	n/a
23.5695	0.061	47139	keystroke_l	l	n/a
23.7055	0.089	47411	keystroke_l	l	n/a
23.7805	0.074	47561	keystroke_y	y	n/a
23.9445	0.075	47889	keystroke_Key.space	Key.space	n/a
24.32	0.165	48640	keystroke_p	p	n/a
24.425	0.12	48850	keystroke_o	o	n/a
24.515	0.0905	49030	keystroke_s	s	n/a
24.6355	0.104	49271	keystroke_t	t	n/a
24.98	0.075	49960	keystroke_c	c	n/a
25.115	0.074	50230	keystroke_a	a	n/a
25.205	0.075	50410	keystroke_r	r	n/a
25.4	0.09	50800	keystroke_d	d	n/a
25.49	0.09	50980	keystroke_Key.space	Key.space	n/a
25.79	0.075	51580	keystroke_t	t	n/a
25.895	0.12	51790	keystroke_o	o	n/a
25.955	0.105	51910	keystroke_p	p	n/a
26.075	0.105	52150	keystroke_Key.space	Key.space	n/a
26.24	0.075	52480	keystroke_w	w	n/a
26.33	0.09	52660	keystroke_h	h	n/a
26.36	0.105	52720	keystroke_i	i	n/a
26.45	0.1055	52900	keystroke_t	t	n/a
26.5095	0.075	53019	keystroke_e	e	n/a
26.7495	0.06	53499	keystroke_Key.enter	Key.enter	n/a
26.8165	5.126	53633	prompt	n/a	junction hole living drinking\n
27.6945	0.0755	55389	keystroke_j	j	n/a
27.8305	0.1045	55661	keystroke_u	u	n/a
28.025	0.0895	56050	keystroke_n	n	n/a
28.1155	0.0895	56231	keystroke_c	c	n/a
28.325	0.06	56650	keystroke_t	t	n/a
28.34	0.105	56680	keystroke_i	i	n/a
28.475	0.12	56950	keystroke_o	o	n/a
28.535	0.105	57070	keystroke_n	n	n/a
28.76	0.09	57520	keystroke_Key.space	Key.space	n/a
29	0.105	58000	keystroke_h	h	n/a
29.18	0.075	58360	keystroke_o	o	n/a
29.36	0.09	58720	keystroke_l	l	n/a
29.465	0.09	58930	keystroke_e	e	n/a
29.57	0.075	59140	keystroke_Key.space	Key.space	n/a
29.765	0.15	59530	keystroke_l	l	n/a
29.885	0.12	59770	keystroke_i	i	n/a
30.02	0.075	60040	keystroke_v	v	n/a
30.185	0.12	60370	keystroke_i	i	n/a
30.26	0.105	60520	keystroke_n	n	n/a
30.35	0.09	60700	keystroke_g	g	n/a
30.515	0.09	61030	keystroke_Key.space	Key.space	n/a
30.935	0.06	61870	keystroke_d	d	n/a
31.07	0.09	62140	keystroke_r	r	n/a
31.115	0.09	62230	keystroke_i	i	n/a
31.175	0.12	62350	keystroke_n	n	n/a
31.31	0.09	62620	keystroke_k	k	n/a
31.505	0.075	63010	keystroke_i	i	n/a
31.55	0.075	63100	keystroke_n	n	n/a
31.625	0.075	63250	keystroke_g	g	n/a
31.865	0.075	63730	keystroke_Key.enter	Key.enter	n/a
31.9485	5.934	63897	prompt	n/a	politicians time craft tips\n
32.495	0.15	64990	keystroke_p	p	n/a
32.63	0.105	65260	keystroke_o	o	n/a
32.825	0.09	65650	keystroke_l	l	n/a
33.02	0.09	66040	keystroke_i	i	n/a
33.845	0.06	67690	keystroke_t	t	n/a
34.01	0.09	68020	keystroke_i	i	n/a
34.1905	0.1045	68381	keystroke_c	c	n/a
34.415	0.075	68830	keystroke_a	a	n/a
34.7605	0.075	69521	keystroke_Key.backspace	Key.backspace	n/a
34.8505	0.09	69701	keystroke_i	i	n/a
34.9555	0.075	69911	keystroke_a	a	n/a
35.0905	0.09	70181	keystroke_n	n	n/a
35.1955	0.075	70391	keystroke_s	s	n/a
35.3305	0.09	70661	keystroke_Key.space	Key.space	n/a
35.7805	0.075	71561	keystroke_t	t	n/a
35.8255	0.135	71651	keystroke_i	i	n/a
35.8855	0.105	71771	keystroke_m	m	n/a
35.9755	0.075	71951	keystroke_e	e	n/a
36.0805	0.105	72161	keystroke_Key.space	Key.space	n/a
36.2905	0.075	72581	keystroke_c	c	n/a
36.4555	0.09	72911	keystroke_r	r	n/a
36.5755	0.09	73151	keystroke_a	a	n/a
36.7255	0.075	73451	keystroke_f	f	n/a
36.9205	0.06	73841	keystroke_t	t	n/a
37.0105	0.09	74021	keystroke_Key.space	Key.space	n/a
37.2505	0.12	74501	keystroke_t	t	n/a
37.3255	0.15	74651	keystroke_i	i	n/a
37.4455	0.105	74891	keystroke_p	p	n/a
37.6105	0.09	75221	keystroke_s	s	n/a
37.7905	0.09	75581	keystroke_Key.enter	Key.enter	n/a
37.887	8.231	75774	prompt	n/a	portfolio sitemap continent pricing\n
38.5705	0.165	77141	keystroke_p	p	n/a
38.7205	0.12	77441	keystroke_o	o	n/a
38.8405	0.09	77681	keystroke_r	r	n/a
39.0505	0.06	78101	keystroke_t	t	n/a
39.4105	0.09	78821	keystroke_f	f	n/a
39.4855	0.09	78971	keystroke_o	o	n/a
39.6655	0.105	79331	keystroke_l	l	n/a
39.8755	0.12	79751	keystroke_i	i	n/a
40.0105	0.09	80021	keystroke_o	o	n/a
40.4305	0.09	80861	keystroke_Key.space	Key.space	n/a
40.6555	0.06	81311	keystroke_s	s	n/a
41.0905	0.105	82181	keystroke_i	i	n/a
41.1805	0.105	82361	keystroke_t	t	n/a
41.3005	0.09	82601	keystroke_e	e	n/a
41.5855	0.135	83171	keystroke_m	m	n/a
41.7355	0.09	83471	keystroke_a	a	n/a
41.8265	0.134	83653	keystroke_p	p	n/a
42.1255	0.12	84251	keystroke_Key.space	Key.space	n/a
42.6205	0.12	85241	keystroke_o	o	n/a
42.9655	0.045	85931	keystroke_Key.backspace	Key.backspace	n/a
43.2505	0.105	86501	keystroke_c	c	n/a
43.3405	0.12	86681	keystroke_o	o	n/a
43.4005	0.105	86801	keystroke_n	n	n/a
43.5505	0.09	87101	keystroke_t	t	n/a
44.0455	0.09	88091	keystroke_i	i	n/a
44.3305	0.09	88661	keystroke_n	n	n/a
44.5405	0.09	89081	keystroke_e	e	n/a
44.6905	0.09	89381	keystroke_n	n	n/a
44.7955	0.06	89591	keystroke_t	t	n/a
44.8855	0.075	89771	keystroke_Key.space	Key.space	n/a
45.0955	0.09	90191	keystroke_p	p	n/a
45.2305	0.075	90461	keystroke_r	r	n/a
45.3205	0.09	90641	keystroke_i	i	n/a
45.4555	0.105	90911	keystroke_c	c	n/a
45.6805	0.105	91361	keystroke_i	i	n/a
45.7405	0.075	91481	keystroke_n	n	n/a
45.8455	0.06	91691	keystroke_g	g	n/a
46.0405	0.075	92081	keystroke_Key.enter	Key.enter	n/a
46.126	5.6175	92252	prompt	n/a	acrobat thong october assessed\n
46.6555	0.075	93311	keystroke_a	a	n/a
46.8355	0.09	93671	keystroke_c	c	n/a
47.0155	0.09	94031	keystroke_r	r	n/a
47.1205	0.075	94241	keystroke_o	o	n/a
47.3305	0.12	94661	keystroke_b	b	n/a
47.8705	0.075	95741	keystroke_a	a	n/a
48.0055	0.075	96011	keystroke_t	t	n/a
48.1105	0.09	96221	keystroke_Key.space	Key.space	n/a
48.2605	0.09	96521	keystroke_t	t	n/a
48.3355	0.09	96671	keystroke_h	h	n/a
48.4405	0.12	96881	keystroke_o	o	n/a
48.5005	0.09	97001	keystroke_n	n	n/a
48.6055	0.075	97211	keystroke_g	g	n/a
48.6955	0.105	97391	keystroke_Key.space	Key.space	n/a
49.0855	0.105	98171	keystroke_o	o	n/a
49.1605	0.09	98321	keystroke_c	c	n/a
49.3855	0.075	98771	keystroke_t	t	n/a
49.4905	0.105	98981	keystroke_o	o	n/a
49.6555	0.105	99311	keystroke_b	b	n/a
49.7755	0.09	99551	keystroke_e	e	n/a
49.8205	0.09	99641	keystroke_r	r	n/a
50.0005	0.09	100001	keystroke_Key.space	Key.space	n/a
50.1655	0.105	100331	keystroke_a	a	n/a
50.4055	0.075	100811	keystroke_s	s	n/a
50.5705	0.06	101141	keystroke_s	s	n/a
50.7655	0.075	101531	keystroke_e	e	n/a
50.9455	0.06	101891	keystroke_s	s	n/a
51.0955	0.06	102191	keystroke_s	s	n/a
51.2905	0.06	102581	keystroke_e	e	n/a
51.3205	0.105	102641	keystroke_d	d	n/a
51.6505	0.09	103301	keystroke_Key.enter	Key.enter	n/a
51.7485	6.0695	103497	prompt	n/a	seems algorithm boat vocal\n
52.3855	0.06	104771	keystroke_s	s	n/a
52.5355	0.06	105071	keystroke_e	e	n/a
52.6705	0.075	105341	keystroke_e	e	n/a
52.7755	0.135	105551	keystroke_m	m	n/a
52.9255	0.09	105851	keystroke_s	s	n/a
53.0455	0.09	106091	keystroke_Key.space	Key.space	n/a
53.5705	0.105	107141	keystroke_a	a	n/a
53.6905	0.075	107381	keystroke_l	l	n/a
53.8855	0.105	107771	keystroke_g	g	n/a
54.0205	0.12	108041	keystroke_o	o	n/a
54.1705	0.09	108341	keystroke_r	r	n/a
54.4255	0.045	108851	keystroke_t	t	n/a
54.7855	0.09	109571	keystroke_Key.backspace	Key.backspace	n/a
54.8905	0.105	109781	keystroke_i	i	n/a
55.0105	0.06	110021	keystroke_t	t	n/a
55.1605	0.075	110321	keystroke_h	h	n/a
55.5355	0.12	111071	keystroke_m	m	n/a
55.7905	0.105	111581	keystroke_Key.space	Key.space	n/a
56.3005	0.1055	112601	keystroke_b	b	n/a
56.436	0.105	112872	keystroke_o	o	n/a
56.496	0.09	112992	keystroke_a	a	n/a
56.676	0.06	113352	keystroke_t	t	n/a
56.781	0.075	113562	keystroke_Key.space	Key.space	n/a
57.006	0.075	114012	keystroke_v	v	n/a
57.066	0.105	114132	keystroke_o	o	n/a
57.231	0.105	114462	keystroke_c	c	n/a
57.396	0.105	114792	keystroke_a	a	n/a
57.486	0.105	114972	keystroke_l	l	n/a
57.756	0.06	115512	keystroke_Key.enter	Key.enter	n/a
57.8235	5.274	115647	prompt	n/a	delhi ideal carolina stanley\n
58.5205	0.015	117041	keystroke_d	d	n/a
58.5505	0.06	117101	keystroke_e	e	n/a
58.8505	0.09	117701	keystroke_l	l	n/a
59.1055	0.105	118211	keystroke_h	h	n/a
59.2255	0.09	118451	keystroke_i	i	n/a
59.4205	0.06	118841	keystroke_Key.space	Key.space	n/a
59.6605	0.09	119321	keystroke_i	i	n/a
59.7365	0.104	119473	keystroke_d	d	n/a
59.8105	0.06	119621	keystroke_e	e	n/a
59.9755	0.09	119951	keystroke_a	a	n/a
60.0505	0.105	120101	keystroke_l	l	n/a
60.2305	0.105	120461	keystroke_Key.space	Key.space	n/a
60.4405	0.091	120881	keystroke_c	c	n/a
60.6055	0.075	121211	keystroke_a	a	n/a
60.6955	0.075	121391	keystroke_r	r	n/a
60.7555	0.09	121511	keystroke_o	o	n/a
60.9505	0.09	121901	keystroke_l	l	n/a
61.1605	0.09	122321	keystroke_i	i	n/a
61.2205	0.075	122441	keystroke_n	n	n/a
61.2805	0.105	122561	keystroke_a	a	n/a
61.4305	0.09	122861	keystroke_Key.space	Key.space	n/a
61.7005	0.075	123401	keystroke_s	s	n/a
61.7905	0.075	123581	keystroke_t	t	n/a
61.9255	0.105	123851	keystroke_a	a	n/a
62.0455	0.105	124091	keystroke_n	n	n/a
62.3005	0.075	124601	keystroke_l	l	n/a
62.6755	0.12	125351	keystroke_e	e	n/a
62.7655	0.105	125531	keystroke_y	y	n/a
63.0055	0.09	126011	keystroke_Key.enter	Key.enter	n/a
63.102	5.9355	126204	prompt	n/a	bend lamps completely theology\n
63.7855	0.105	127571	keystroke_b	b	n/a
63.9055	0.105	127811	keystroke_e	e	n/a
64.0405	0.09	128081	keystroke_n	n	n/a
64.1605	0.12	128321	keystroke_d	d	n/a
64.2955	0.09	128591	keystroke_Key.space	Key.space	n/a
64.5355	0.105	129071	keystroke_l	l	n/a
64.9405	0.09	129881	keystroke_a	a	n/a
65.0155	0.12	130031	keystroke_m	m	n/a
65.1655	0.12	130331	keystroke_p	p	n/a
65.4055	0.09	130811	keystroke_s	s	n/a
65.5255	0.09	131051	keystroke_Key.space	Key.space	n/a
65.8405	0.12	131681	keystroke_c	c	n/a
65.9155	0.12	131831	keystroke_o	o	n/a
66.1705	0.105	132341	keystroke_m	m	n/a
66.3955	0.105	132791	keystroke_p	p	n/a
66.4255	0.12	132851	keystroke_l	l	n/a
66.5605	0.075	133121	keystroke_e	e	n/a
66.6655	0.135	133331	keystroke_t	t	n/a
66.8015	0.104	133603	keystroke_e	e	n/a
66.9655	0.105	133931	keystroke_l	l	n/a
67.0855	0.06	134171	keystroke_y	y	n/a
67.2505	0.075	134501	keystroke_Key.space	Key.space	n/a
67.5955	0.075	135191	keystroke_t	t	n/a
67.6855	0.09	135371	keystroke_h	h	n/a
67.8355	0.09	135671	keystroke_e	e	n/a
67.9855	0.105	135971	keystroke_o	o	n/a
68.2255	0.0755	136451	keystroke_l	l	n/a
68.4205	0.075	136841	keystroke_o	o	n/a
68.5105	0.075	137021	keystroke_g	g	n/a
68.6455	0.09	137291	keystroke_y	y	n/a
68.9605	0.075	137921	keystroke_Key.enter	Key.enter	n/a
69.043	5.65	138086	prompt	n/a	reasonably wells inclusive stuff\n
69.6655	0.09	139331	keystroke_r	r	n/a
69.7405	0.06	139481	keystroke_e	e	n/a
69.9055	0.076	139811	keystroke_a	a	n/a
69.9355	0.12	139871	keystroke_s	s	n/a
70.0405	0.09	140081	keystroke_o	o	n/a
70.0705	0.105	140141	keystroke_n	n	n/a
70.2205	0.09	140441	keystroke_a	a	n/a
70.6255	0.105	141251	keystroke_b	b	n/a
70.7455	0.105	141491	keystroke_l	l	n/a
70.8955	0.075	141791	keystroke_y	y	n/a
71.0155	0.09	142031	keystroke_Key.space	Key.space	n/a
71.4655	0.075	142931	keystroke_w	w	n/a
71.5105	0.09	143021	keystroke_e	e	n/a
71.8555	0.09	143711	keystroke_l	l	n/a
72.0055	0.09	144011	keystroke_l	l	n/a
72.1555	0.09	144311	keystroke_s	s	n/a
72.3055	0.105	144611	keystroke_Key.space	Key.space	n/a
72.6055	0.105	145211	keystroke_i	i	n/a
72.6815	0.059	145363	keystroke_n	n	n/a
72.7565	0.104	145513	keystroke_c	c	n/a
73.1155	0.105	146231	keystroke_l	l	n/a
73.1755	0.09	146351	keystroke_u	u	n/a
73.2955	0.09	146591	keystroke_s	s	n/a
73.4155	0.09	146831	keystroke_i	i	n/a
73.5355	0.09	147071	keystroke_v	v	n/a
73.6705	0.105	147341	keystroke_e	e	n/a
73.7605	0.09	147521	keystroke_Key.space	Key.space	n/a
73.9105	0.09	147821	keystroke_s	s	n/a
74.0455	0.06	148091	keystroke_t	t	n/a
74.1205	0.105	148241	keystroke_u	u	n/a
74.2555	0.075	148511	keystroke_f	f	n/a
74.4055	0.045	148811	keystroke_f	f	n/a
74.6005	0.09	149201	keystroke_Key.enter	Key.enter	n/a
74.6965	9.5365	149393	prompt	n/a	disable specialties pads deputy\n
75.2605	0.105	150521	keystroke_d	d	n/a
75.3505	0.09	150701	keystroke_i	i	n/a
75.4705	0.075	150941	keystroke_s	s	n/a
75.7555	0.09	151511	keystroke_a	a	n/a
75.8305	0.09	151661	keystroke_b	b	n/a
75.9655	0.105	151931	keystroke_l	l	n/a
76.1305	0.075	152261	keystroke_e	e	n/a
76.2505	0.09	152501	keystroke_Key.space	Key.space	n/a
76.5505	0.075	153101	keystroke_s	s	n/a
76.7605	0.06	153521	keystroke_e	e	n/a
77.1055	0.045	154211	keystroke_Key.backspace	Key.backspace	n/a
77.2855	0.105	154571	keystroke_p	p	n/a
77.4055	0.075	154811	keystroke_e	e	n/a
77.4955	0.09	154991	keystroke_c	c	n/a
77.5865	0.104	155173	keystroke_i	i	n/a
77.7955	0.09	155591	keystroke_a	a	n/a
78.8905	0.075	157781	keystroke_l	l	n/a
79.0405	0.09	158081	keystroke_i	i	n/a
79.8055	0.09	159611	keystroke_t	t	n/a
80.316	0.045	160632	keystroke_Key.backspace	Key.backspace	n/a
80.466	0.06	160932	keystroke_Key.backspace	Key.backspace	n/a
80.841	0.075	161682	keystroke_t	t	n/a
80.931	0.105	161862	keystroke_i	i	n/a
81.051	0.075	162102	keystroke_e	e	n/a
81.231	0.09	162462	keystroke_s	s	n/a
81.291	0.09	162582	keystroke_Key.space	Key.space	n/a
81.636	0.105	163272	keystroke_p	p	n/a
81.756	0.09	163512	keystroke_a	a	n/a
81.786	0.12	163572	keystroke_s	s	n/a
82.3705	0.09	164741	keystroke_Key.backspace	Key.backspace	n/a
82.4615	0.1045	164923	keystroke_d	d	n/a
82.581	0.09	165162	keystroke_s	s	n/a
82.701	0.09	165402	keystroke_Key.space	Key.space	n/a
83.076	0.09	166152	keystroke_d	d	n/a
83.181	0.135	166362	keystroke_e	e	n/a
83.346	0.195	166692	keystroke_p	p	n/a
83.511	0.12	167022	keystroke_u	u	n/a
83.646	0.09	167292	keystroke_t	t	n/a
83.871	0.09	167742	keystroke_y	y	n/a
84.156	0.0745	168312	keystroke_Key.enter	Key.enter	n/a
84.238	6.265	168476	prompt	n/a	cricket owned recorder miracle\n
84.7565	0.089	169513	keystroke_c	c	n/a
84.9355	0.091	169871	keystroke_r	r	n/a
85.0265	0.105	170053	keystroke_i	i	n/a
85.2055	0.121	170411	keystroke_c	c	n/a
85.3105	0.09	170621	keystroke_k	k	n/a
85.6265	0.059	171253	keystroke_e	e	n/a
85.7155	0.075	171431	keystroke_t	t	n/a
85.8205	0.075	171641	keystroke_Key.space	Key.space	n/a
86.0005	0.105	172001	keystroke_o	o	n/a
86.0905	0.075	172181	keystroke_w	w	n/a
86.226	0.105	172452	keystroke_n	n	n/a
86.376	0.12	172752	keystroke_e	e	n/a
86.481	0.105	172962	keystroke_d	d	n/a
86.601	0.105	173202	keystroke_Key.space	Key.space	n/a
86.916	0.09	173832	keystroke_c	c	n/a
87.261	0.09	174522	keystroke_Key.backspace	Key.backspace	n/a
87.337	0.104	174674	keystroke_r	r	n/a
87.486	0.06	174972	keystroke_e	e	n/a
87.816	0.12	175632	keystroke_c	c	n/a
87.996	0.09	175992	keystroke_o	o	n/a
88.161	0.06	176322	keystroke_r	r	n/a
88.3255	0.09	176651	keystroke_d	d	n/a
88.4605	0.105	176921	keystroke_e	e	n/a
88.5355	0.09	177071	keystroke_r	r	n/a
88.6405	0.09	177281	keystroke_Key.space	Key.space	n/a
89.1205	0.135	178241	keystroke_m	m	n/a
89.2705	0.075	178541	keystroke_i	i	n/a
89.7055	0.06	179411	keystroke_r	r	n/a
89.8705	0.09	179741	keystroke_a	a	n/a
90.0805	0.075	180161	keystroke_c	c	n/a
90.1705	0.106	180341	keystroke_l	l	n/a
90.2905	0.061	180581	keystroke_e	e	n/a
90.4405	0.06	180881	keystroke_Key.enter	Key.enter	n/a
90.507	5.3805	181014	prompt	n/a	relations dropped page determine\n
91.0265	0.089	182053	keystroke_r	r	n/a
91.0855	0.091	182171	keystroke_e	e	n/a
91.2055	0.076	182411	keystroke_l	l	n/a
91.3255	0.076	182651	keystroke_a	a	n/a
91.4905	0.061	182981	keystroke_t	t	n/a
91.5655	0.075	183131	keystroke_i	i	n/a
91.6705	0.12	183341	keystroke_o	o	n/a
91.7455	0.09	183491	keystroke_n	n	n/a
91.8205	0.06	183641	keystroke_s	s	n/a
91.9405	0.105	183881	keystroke_Key.space	Key.space	n/a
92.3015	0.105	184603	keystroke_d	d	n/a
92.5115	0.074	185023	keystroke_r	r	n/a
92.5705	0.106	185141	keystroke_o	o	n/a
92.6605	0.21	185321	keystroke_p	p	n/a
93.0655	0.09	186131	keystroke_p	p	n/a
93.2015	0.075	186403	keystroke_e	e	n/a
93.2455	0.106	186491	keystroke_d	d	n/a
93.3805	0.12	186761	keystroke_Key.space	Key.space	n/a
93.7705	0.105	187541	keystroke_p	p	n/a
93.8605	0.076	187721	keystroke_a	a	n/a
94.0405	0.09	188081	keystroke_g	g	n/a
94.0855	0.076	188171	keystroke_e	e	n/a
94.1755	0.105	188351	keystroke_Key.space	Key.space	n/a
94.4905	0.091	188981	keystroke_d	d	n/a
94.6265	0.074	189253	keystroke_e	e	n/a
94.7455	0.06	189491	keystroke_t	t	n/a
94.8655	0.075	189731	keystroke_e	e	n/a
94.9105	0.091	189821	keystroke_r	r	n/a
94.9855	0.106	189971	keystroke_m	m	n/a
95.1515	0.089	190303	keystroke_i	i	n/a
95.2115	0.074	190423	keystroke_n	n	n/a
95.2555	0.075	190511	keystroke_e	e	n/a
95.811	0.075	191622	keystroke_Key.enter	Key.enter	n/a
95.8925	8.4405	191785	prompt	n/a	regulatory keeping beach budgets\n
96.426	0.09	192852	keystroke_r	r	n/a
96.531	0.045	193062	keystroke_e	e	n/a
96.651	0.075	193302	keystroke_g	g	n/a
96.741	0.12	193482	keystroke_u	u	n/a
96.876	0.03	193752	keystroke_l	l	n/a
96.906	0.09	193812	keystroke_a	a	n/a
98.061	0.09	196122	keystroke_Key.backspace	Key.backspace	n/a
98.826	0.12	197652	keystroke_a	a	n/a
98.976	0.075	197952	keystroke_r	r	n/a
99.576	0.12	199152	keystroke_Key.backspace	Key.backspace	n/a
99.711	0.06	199422	keystroke_t	t	n/a
99.861	0.09	199722	keystroke_o	o	n/a
99.966	0.09	199932	keystroke_r	r	n/a
100.101	0.105	200202	keystroke_y	y	n/a
100.251	0.12	200502	keystroke_Key.space	Key.space	n/a
100.581	0.12	201162	keystroke_k	k	n/a
100.656	0.06	201312	keystroke_e	e	n/a
100.851	0.075	201702	keystroke_e	e	n/a
101.001	0.09	202002	keystroke_p	p	n/a
101.211	0.105	202422	keystroke_i	i	n/a
101.256	0.105	202512	keystroke_n	n	n/a
101.346	0.075	202692	keystroke_g	g	n/a
101.481	0.075	202962	keystroke_Key.space	Key.space	n/a
101.676	0.09	203352	keystroke_b	b	n/a
101.736	0.075	203472	keystroke_e	e	n/a
101.931	0.045	203862	keystroke_a	a	n/a
102.096	0.09	204192	keystroke_c	c	n/a
102.201	0.105	204402	keystroke_h	h	n/a
102.591	0.12	205182	keystroke_Key.space	Key.space	n/a
103.206	0.105	206412	keystroke_b	b	n/a
103.356	0.075	206712	keystroke_u	u	n/a
103.461	0.09	206922	keystroke_d	d	n/a
103.671	0.06	207342	keystroke_g	g	n/a
103.791	0.06	207582	keystroke_e	e	n/a
103.836	0.075	207672	keystroke_t	t	n/a
104.001	0.075	208002	keystroke_s	s	n/a
104.241	0.09	208482	keystroke_Key.enter	Key.enter	n/a
104.3385	4.1795	208677	prompt	n/a	account loving emotions broke\n
104.871	0.09	209742	keystroke_a	a	n/a
105.051	0.076	210102	keystroke_c	c	n/a
105.186	0.06	210372	keystroke_c	c	n/a
105.291	0.105	210582	keystroke_o	o	n/a
105.336	0.075	210672	keystroke_u	u	n/a
105.546	0.135	211092	keystroke_n	n	n/a
105.636	0.075	211272	keystroke_t	t	n/a
105.756	0.09	211512	keystroke_Key.space	Key.space	n/a
105.921	0.075	211842	keystroke_l	l	n/a
106.101	0.075	212202	keystroke_o	o	n/a
106.221	0.105	212442	keystroke_v	v	n/a
106.356	0.105	212712	keystroke_i	i	n/a
106.416	0.09	212832	keystroke_n	n	n/a
106.491	0.075	212982	keystroke_g	g	n/a
106.626	0.105	213252	keystroke_Key.space	Key.space	n/a
106.836	0.09	213672	keystroke_e	e	n/a
106.911	0.105	213822	keystroke_m	m	n/a
107.031	0.09	214062	keystroke_o	o	n/a
107.106	0.075	214212	keystroke_t	t	n/a
107.196	0.09	214392	keystroke_i	i	n/a
107.331	0.105	214662	keystroke_o	o	n/a
107.406	0.06	214812	keystroke_n	n	n/a
107.451	0.075	214902	keystroke_s	s	n/a
107.586	0.09	215172	keystroke_Key.space	Key.space	n/a
107.811	0.075	215622	keystroke_b	b	n/a
107.901	0.075	215802	keystroke_r	r	n/a
108.081	0.105	216162	keystroke_o	o	n/a
108.096	0.1345	216192	keystroke_k	k	n/a
108.2755	0.09	216551	keystroke_e	e	n/a
108.441	0.0745	216882	keystroke_Key.enter	Key.enter	n/a
108.523	5.7465	217046	prompt	n/a	jimmy jackets juice knock\n
109.1455	0.12	218291	keystroke_j	j	n/a
109.3405	0.075	218681	keystroke_u	u	n/a
109.5355	0.09	219071	keystroke_m	m	n/a
109.8655	0.075	219731	keystroke_Key.backspace	Key.backspace	n/a
110.0155	0.09	220031	keystroke_Key.backspace	Key.backspace	n/a
110.1655	0.1055	220331	keystroke_i	i	n/a
110.376	0.09	220752	keystroke_m	m	n/a
110.526	0.09	221052	keystroke_m	m	n/a
110.676	0.075	221352	keystroke_y	y	n/a
110.796	0.09	221592	keystroke_Key.space	Key.space	n/a
111.081	0.09	222162	keystroke_j	j	n/a
111.186	0.09	222372	keystroke_a	a	n/a
111.366	0.09	222732	keystroke_c	c	n/a
111.471	0.09	222942	keystroke_k	k	n/a
111.531	0.09	223062	keystroke_e	e	n/a
111.606	0.09	223212	keystroke_t	t	n/a
111.741	0.075	223482	keystroke_s	s	n/a
111.846	0.075	223692	keystroke_Key.space	Key.space	n/a
112.4315	0.105	224863	keystroke_j	j	n/a
112.5965	0.12	225193	keystroke_u	u	n/a
112.7015	0.105	225403	keystroke_i	i	n/a
112.8515	0.1195	225703	keystroke_c	c	n/a
112.9565	0.0895	225913	keystroke_e	e	n/a
113.1065	0.09	226213	keystroke_Key.space	Key.space	n/a
113.4815	0.1195	226963	keystroke_k	k	n/a
113.571	0.105	227142	keystroke_n	n	n/a
113.721	0.105	227442	keystroke_o	o	n/a
113.886	0.12	227772	keystroke_c	c	n/a
113.991	0.105	227982	keystroke_k	k	n/a
114.171	0.0905	228342	keystroke_Key.enter	Key.enter	n/a
114.271	6.8475	228542	prompt	n/a	zealand bench alaska expedia\n
115.0265	0.105	230053	keystroke_z	z	n/a
115.5205	0.046	231041	keystroke_e	e	n/a
115.7765	0.074	231553	keystroke_a	a	n/a
115.8965	0.09	231793	keystroke_l	l	n/a
116.1955	0.076	232391	keystroke_a	a	n/a
116.2855	0.076	232571	keystroke_n	n	n/a
116.3765	0.089	232753	keystroke_d	d	n/a
116.4815	0.09	232963	keystroke_Key.space	Key.space	n/a
116.6915	0.09	233383	keystroke_b	b	n/a
116.7665	0.09	233533	keystroke_e	e	n/a
116.8865	0.09	233773	keystroke_n	n	n/a
117.0065	0.12	234013	keystroke_c	c	n/a
117.1265	0.075	234253	keystroke_h	h	n/a
117.2765	0.104	234553	keystroke_Key.space	Key.space	n/a
117.5765	0.09	235153	keystroke_a	a	n/a
117.6515	0.09	235303	keystroke_l	l	n/a
117.7565	0.09	235513	keystroke_a	a	n/a
117.8915	0.105	235783	keystroke_k	k	n/a
118.416	0.09	236832	keystroke_Key.backspace	Key.backspace	n/a
118.491	0.09	236982	keystroke_s	s	n/a
118.611	0.105	237222	keystroke_k	k	n/a
118.701	0.09	237402	keystroke_a	a	n/a
118.881	0.075	237762	keystroke_Key.space	Key.space	n/a
119.136	0.075	238272	keystroke_e	e	n/a
119.346	0.09	238692	keystroke_s	s	n/a
119.856	0.09	239712	keystroke_Key.backspace	Key.backspace	n/a
119.916	0.09	239832	keystroke_x	x	n/a
120.366	0.12	240732	keystroke_p	p	n/a
120.501	0.09	241002	keystroke_e	e	n/a
120.561	0.09	241122	keystroke_d	d	n/a
120.696	0.06	241392	keystroke_i	i	n/a
120.816	0.075	241632	keystroke_a	a	n/a
121.011	0.105	242022	keystroke_Key.enter	Key.enter	n/a
121.1225	5.185	242245	prompt	n/a	inches plots handheld herald\n
121.791	0.12	243582	keystroke_i	i	n/a
121.866	0.075	243732	keystroke_n	n	n/a
121.926	0.09	243852	keystroke_c	c	n/a
122.046	0.09	244092	keystroke_h	h	n/a
122.121	0.075	244242	keystroke_e	e	n/a
122.286	0.09	244572	keystroke_s	s	n/a
122.391	0.09	244782	keystroke_Key.space	Key.space	n/a
122.586	0.12	245172	keystroke_p	p	n/a
122.646	0.105	245292	keystroke_l	l	n/a
122.826	0.09	245652	keystroke_o	o	n/a
122.931	0.06	245862	keystroke_t	t	n/a
123.021	0.105	246042	keystroke_s	s	n/a
123.201	0.09	246402	keystroke_Key.space	Key.space	n/a
123.666	0.075	247332	keystroke_h	h	n/a
123.771	0.09	247542	keystroke_a	a	n/a
123.906	0.075	247812	keystroke_n	n	n/a
123.966	0.09	247932	keystroke_d	d	n/a
124.491	0.075	248982	keystroke_h	h	n/a
124.581	0.075	249162	keystroke_e	e	n/a
124.686	0.075	249372	keystroke_l	l	n/a
124.776	0.09	249552	keystroke_d	d	n/a
124.896	0.105	249792	keystroke_Key.space	Key.space	n/a
125.121	0.06	250242	keystroke_h	h	n/a
125.406	0.09	250812	keystroke_e	e	n/a
125.481	0.105	250962	keystroke_r	r	n/a
125.691	0.09	251382	keystroke_a	a	n/a
125.796	0.09	251592	keystroke_l	l	n/a
125.901	0.105	251802	keystroke_d	d	n/a
126.216	0.09	252432	keystroke_Key.enter	Key.enter	n/a
126.312	7.136	252624	prompt	n/a	rush above greenhouse snapshot\n
126.876	0.105	253752	keystroke_f	f	n/a
126.982	0.044	253964	keystroke_e	e	n/a
127.416	0.105	254832	keystroke_Key.backspace	Key.backspace	n/a
127.746	0.075	255492	keystroke_Key.backspace	Key.backspace	n/a
127.926	0.075	255852	keystroke_r	r	n/a
128.571	0.09	257142	keystroke_u	u	n/a
128.676	0.105	257352	keystroke_s	s	n/a
128.796	0.105	257592	keystroke_h	h	n/a
128.886	0.09	257772	keystroke_Key.space	Key.space	n/a
129.051	0.105	258102	keystroke_b	b	n/a
129.066	0.075	258132	keystroke_a	a	n/a
129.336	0.12	258672	keystroke_o	o	n/a
129.666	0.06	259332	keystroke_Key.backspace	Key.backspace	n/a
129.831	0.06	259662	keystroke_Key.backspace	Key.backspace	n/a
129.981	0.06	259962	keystroke_Key.backspace	Key.backspace	n/a
130.161	0.09	260322	keystroke_a	a	n/a
130.221	0.12	260442	keystroke_b	b	n/a
130.416	0.105	260832	keystroke_o	o	n/a
130.536	0.075	261072	keystroke_v	v	n/a
130.626	0.12	261252	keystroke_e	e	n/a
130.731	0.09	261462	keystroke_Key.space	Key.space	n/a
131.001	0.075	262002	keystroke_g	g	n/a
131.181	0.075	262362	keystroke_r	r	n/a
131.271	0.09	262542	keystroke_e	e	n/a
131.466	0.075	262932	keystroke_e	e	n/a
131.601	0.105	263202	keystroke_n	n	n/a
131.856	0.09	263712	keystroke_h	h	n/a
131.991	0.12	263982	keystroke_o	o	n/a
132.051	0.09	264102	keystroke_u	u	n/a
132.126	0.06	264252	keystroke_s	s	n/a
132.291	0.075	264582	keystroke_e	e	n/a
132.396	0.075	264792	keystroke_Key.space	Key.space	n/a
132.501	0.09	265002	keystroke_s	s	n/a
132.606	0.105	265212	keystroke_n	n	n/a
132.726	0.09	265452	keystroke_a	a	n/a
132.831	0.075	265662	keystroke_p	p	n/a
132.966	0.105	265932	keystroke_s	s	n/a
133.086	0.09	266172	keystroke_h	h	n/a
133.131	0.075	266262	keystroke_o	o	n/a
133.221	0.06	266442	keystroke_t	t	n/a
133.356	0.09	266712	keystroke_Key.enter	Key.enter	n/a
133.4525	6.73	266905	prompt	n/a	companion moore boxed jonathan\n
133.986	0.09	267972	keystroke_c	c	n/a
134.106	0.135	268212	keystroke_o	o	n/a
134.226	0.03	268452	keystroke_m	m	n/a
134.376	0.06	268752	keystroke_p	p	n/a
134.556	0.09	269112	keystroke_a	a	n/a
134.676	0.09	269352	keystroke_n	n	n/a
134.871	0.09	269742	keystroke_i	i	n/a
135.006	0.12	270012	keystroke_o	o	n/a
135.081	0.09	270162	keystroke_n	n	n/a
135.201	0.075	270402	keystroke_Key.space	Key.space	n/a
135.321	0.105	270642	keystroke_m	m	n/a
135.456	0.06	270912	keystroke_o	o	n/a
135.591	0.09	271182	keystroke_o	o	n/a
135.696	0.075	271392	keystroke_r	r	n/a
135.831	0.105	271662	keystroke_e	e	n/a
135.951	0.09	271902	keystroke_Key.space	Key.space	n/a
136.221	0.09	272442	keystroke_b	b	n/a
136.371	0.09	272742	keystroke_o	o	n/a
136.416	0.09	272832	keystroke_x	x	n/a
136.626	0.1045	273252	keystroke_e	e	n/a
136.716	0.12	273432	keystroke_d	d	n/a
136.851	0.075	273702	keystroke_Key.space	Key.space	n/a
137.316	0.105	274632	keystroke_j	j	n/a
137.451	0.105	274902	keystroke_o	o	n/a
137.871	0.09	275742	keystroke_h	h	n/a
138.096	0.06	276192	keystroke_n	n	n/a
138.501	0.06	277002	keystroke_Key.backspace	Key.backspace	n/a
138.651	0.09	277302	keystroke_Key.backspace	Key.backspace	n/a
138.906	0.09	277812	keystroke_n	n	n/a
139.131	0.105	278262	keystroke_a	a	n/a
139.341	0.06	278682	keystroke_t	t	n/a
139.416	0.09	278832	keystroke_h	h	n/a
139.731	0.105	279462	keystroke_a	a	n/a
139.836	0.09	279672	keystroke_n	n	n/a
140.106	0.075	280212	keystroke_Key.enter	Key.enter	n/a
140.187	6.026	280374	prompt	n/a	priced origins magnet visa\n
140.871	0.09	281742	keystroke_p	p	n/a
140.946	0.105	281892	keystroke_r	r	n/a
141.111	0.09	282222	keystroke_i	i	n/a
141.216	0.105	282432	keystroke_c	c	n/a
141.291	0.075	282582	keystroke_e	e	n/a
141.516	0.105	283032	keystroke_d	d	n/a
141.636	0.09	283272	keystroke_Key.space	Key.space	n/a
141.951	0.105	283902	keystroke_o	o	n/a
142.041	0.105	284082	keystroke_r	r	n/a
142.161	0.105	284322	keystroke_i	i	n/a
142.326	0.075	284652	keystroke_g	g	n/a
142.431	0.15	284862	keystroke_i	i	n/a
142.521	0.105	285042	keystroke_n	n	n/a
143.061	0.09	286122	keystroke_a	a	n/a
143.601	0.105	287202	keystroke_Key.backspace	Key.backspace	n/a
143.721	0.105	287442	keystroke_s	s	n/a
144.111	0.105	288222	keystroke_Key.space	Key.space	n/a
144.4555	0.105	288911	keystroke_m	m	n/a
144.6055	0.09	289211	keystroke_a	a	n/a
144.816	0.045	289632	keystroke_g	g	n/a
144.921	0.105	289842	keystroke_n	n	n/a
144.981	0.12	289962	keystroke_e	e	n/a
145.086	0.045	290172	keystroke_t	t	n/a
145.191	0.09	290382	keystroke_Key.space	Key.space	n/a
145.476	0.075	290952	keystroke_v	v	n/a
145.581	0.12	291162	keystroke_i	i	n/a
145.716	0.06	291432	keystroke_s	s	n/a
145.986	0.075	291972	keystroke_a	a	n/a
146.106	0.105	292212	keystroke_Key.enter	Key.enter	n/a
146.218	5.455	292436	prompt	n/a	road protective cumulative fire\n
146.766	0.075	293532	keystroke_r	r	n/a
146.916	0.09	293832	keystroke_o	o	n/a
147.021	0.075	294042	keystroke_a	a	n/a
147.171	0.075	294342	keystroke_d	d	n/a
147.291	0.09	294582	keystroke_Key.space	Key.space	n/a
147.546	0.12	295092	keystroke_p	p	n/a
147.666	0.09	295332	keystroke_r	r	n/a
147.786	0.09	295572	keystroke_o	o	n/a
148.116	0.075	296232	keystroke_t	t	n/a
148.221	0.09	296442	keystroke_e	e	n/a
148.326	0.105	296652	keystroke_c	c	n/a
148.551	0.045	297102	keystroke_t	t	n/a
148.611	0.09	297222	keystroke_i	i	n/a
148.716	0.09	297432	keystroke_v	v	n/a
148.836	0.09	297672	keystroke_e	e	n/a
148.941	0.09	297882	keystroke_Key.space	Key.space	n/a
149.226	0.105	298452	keystroke_c	c	n/a
149.301	0.075	298602	keystroke_u	u	n/a
149.496	0.09	298992	keystroke_m	m	n/a
149.991	0.105	299982	keystroke_u	u	n/a
150.066	0.105	300132	keystroke_l	l	n/a
150.231	0.105	300462	keystroke_a	a	n/a
150.412	0.074	300824	keystroke_t	t	n/a
150.546	0.12	301092	keystroke_i	i	n/a
150.681	0.09	301362	keystroke_v	v	n/a
150.801	0.105	301602	keystroke_e	e	n/a
150.921	0.09	301842	keystroke_Key.space	Key.space	n/a
151.116	0.075	302232	keystroke_f	f	n/a
151.221	0.09	302442	keystroke_i	i	n/a
151.326	0.09	302652	keystroke_r	r	n/a
151.386	0.075	302772	keystroke_e	e	n/a
151.596	0.075	303192	keystroke_Key.enter	Key.enter	n/a
151.6785	8.904	303357	prompt	n/a	locked what're groove latitude\n
153.126	0.075	306252	keystroke_l	l	n/a
153.291	0.075	306582	keystroke_o	o	n/a
153.351	0.09	306702	keystroke_c	c	n/a
153.501	0.09	307002	keystroke_k	k	n/a
153.592	0.074	307184	keystroke_e	e	n/a
153.621	0.12	307242	keystroke_d	d	n/a
153.771	0.105	307542	keystroke_Key.space	Key.space	n/a
153.981	0.09	307962	keystroke_w	w	n/a
154.191	0.09	308382	keystroke_a	a	n/a
154.3705	0.09	308741	keystroke_h	h	n/a
154.6255	0.09	309251	keystroke_Key.backspace	Key.backspace	n/a
154.8055	0.075	309611	keystroke_Key.backspace	Key.backspace	n/a
155.2555	0.09	310511	keystroke_h	h	n/a
155.3755	0.09	310751	keystroke_a	a	n/a
155.5565	0.089	311113	keystroke_t	t	n/a
156.7105	0.09	313421	keystroke_'	'	n/a
156.8155	0.12	313631	keystroke_r	r	n/a
156.9205	0.105	313841	keystroke_e	e	n/a
157.3555	0.105	314711	keystroke_Key.space	Key.space	n/a
157.7155	0.09	315431	keystroke_g	g	n/a
157.8355	0.06	315671	keystroke_o	o	n/a
158.1505	0.075	316301	keystroke_Key.backspace	Key.backspace	n/a
158.2405	0.09	316481	keystroke_r	r	n/a
158.3465	0.074	316693	keystroke_o	o	n/a
158.4965	0.089	316993	keystroke_o	o	n/a
158.6005	0.09	317201	keystroke_v	v	n/a
158.7355	0.12	317471	keystroke_e	e	n/a
158.8705	0.075	317741	keystroke_Key.space	Key.space	n/a
159.0805	0.075	318161	keystroke_l	l	n/a
159.1565	0.089	318313	keystroke_a	a	n/a
159.3655	0.075	318731	keystroke_t	t	n/a
159.5005	0.09	319001	keystroke_i	i	n/a
159.6805	0.075	319361	keystroke_t	t	n/a
159.7705	0.075	319541	keystroke_i	i	n/a
160.0855	0.09	320171	keystroke_u	u	n/a
160.2055	0.105	320411	keystroke_d	d	n/a
160.2805	0.105	320561	keystroke_e	e	n/a
160.5055	0.075	321011	keystroke_Key.enter	Key.enter	n/a
160.588	5.215	321176	prompt	n/a	marble page destroy closure\n
161.2115	0.104	322423	keystroke_m	m	n/a
161.3455	0.09	322691	keystroke_a	a	n/a
161.4805	0.09	322961	keystroke_r	r	n/a
161.6005	0.09	323201	keystroke_b	b	n/a
161.7505	0.09	323501	keystroke_l	l	n/a
161.8855	0.09	323771	keystroke_e	e	n/a
162.0505	0.09	324101	keystroke_Key.space	Key.space	n/a
162.5305	0.15	325061	keystroke_p	p	n/a
162.6955	0.075	325391	keystroke_a	a	n/a
162.8905	0.06	325781	keystroke_g	g	n/a
162.9655	0.09	325931	keystroke_e	e	n/a
163.0705	0.09	326141	keystroke_Key.space	Key.space	n/a
163.3555	0.09	326711	keystroke_d	d	n/a
163.4755	0.045	326951	keystroke_e	e	n/a
163.6255	0.105	327251	keystroke_s	s	n/a
163.7455	0.105	327491	keystroke_t	t	n/a
163.9255	0.09	327851	keystroke_r	r	n/a
164.0605	0.09	328121	keystroke_o	o	n/a
164.1805	0.06	328361	keystroke_y	y	n/a
164.3005	0.09	328601	keystroke_Key.space	Key.space	n/a
164.6905	0.075	329381	keystroke_c	c	n/a
164.8405	0.091	329681	keystroke_l	l	n/a
165.0355	0.06	330071	keystroke_o	o	n/a
165.1255	0.09	330251	keystroke_s	s	n/a
165.3055	0.105	330611	keystroke_u	u	n/a
165.4255	0.105	330851	keystroke_r	r	n/a
165.4855	0.09	330971	keystroke_e	e	n/a
165.7105	0.09	331421	keystroke_Key.enter	Key.enter	n/a
165.8085	7.584	331617	prompt	n/a	recommended vegetation prayers craps\n
166.4005	0.075	332801	keystroke_r	r	n/a
166.4905	0.076	332981	keystroke_e	e	n/a
166.6105	0.105	333221	keystroke_c	c	n/a
166.7305	0.091	333461	keystroke_o	o	n/a
166.7905	0.061	333581	keystroke_m	m	n/a
166.9265	0.089	333853	keystroke_m	m	n/a
167.0615	0.089	334123	keystroke_e	e	n/a
167.1805	0.121	334361	keystroke_n	n	n/a
167.3305	0.091	334661	keystroke_d	d	n/a
167.4655	0.105	334931	keystroke_e	e	n/a
167.5255	0.09	335051	keystroke_d	d	n/a
167.6755	0.105	335351	keystroke_Key.space	Key.space	n/a
168.3955	0.075	336791	keystroke_v	v	n/a
168.5305	0.09	337061	keystroke_e	e	n/a
168.6355	0.09	337271	keystroke_g	g	n/a
169.2655	0.105	338531	keystroke_e	e	n/a
169.3555	0.0755	338711	keystroke_t	t	n/a
169.6255	0.075	339251	keystroke_a	a	n/a
169.8205	0.03	339641	keystroke_t	t	n/a
169.8805	0.075	339761	keystroke_i	i	n/a
170.1055	0.06	340211	keystroke_o	o	n/a
170.1205	0.12	340241	keystroke_n	n	n/a
170.4505	0.135	340901	keystroke_Key.space	Key.space	n/a
170.8105	0.105	341621	keystroke_p	p	n/a
171.036	0.105	342072	keystroke_r	r	n/a
171.261	0.06	342522	keystroke_e	e	n/a
171.726	0.075	343452	keystroke_Key.backspace	Key.backspace	n/a
171.786	0.075	343572	keystroke_a	a	n/a
171.921	0.09	343842	keystroke_y	y	n/a
172.041	0.075	344082	keystroke_e	e	n/a
172.101	0.075	344202	keystroke_r	r	n/a
172.2365	0.09	344473	keystroke_s	s	n/a
172.3405	0.09	344681	keystroke_Key.space	Key.space	n/a
172.5365	0.074	345073	keystroke_c	c	n/a
172.7015	0.075	345403	keystroke_r	r	n/a
172.8365	0.09	345673	keystroke_a	a	n/a
172.9565	0.105	345913	keystroke_p	p	n/a
173.0915	0.089	346183	keystroke_s	s	n/a
173.3005	0.091	346601	keystroke_Key.enter	Key.enter	n/a
173.396	5.5925	346792	prompt	n/a	lucky trials challenge tiger\n
173.9305	0.121	347861	keystroke_l	l	n/a
174.0515	0.09	348103	keystroke_u	u	n/a
174.1865	0.104	348373	keystroke_c	c	n/a
174.3955	0.105	348791	keystroke_k	k	n/a
174.5455	0.09	349091	keystroke_y	y	n/a
174.6655	0.105	349331	keystroke_Key.space	Key.space	n/a
174.9505	0.06	349901	keystroke_t	t	n/a
175.1305	0.09	350261	keystroke_r	r	n/a
175.2655	0.09	350531	keystroke_a	a	n/a
175.7305	0.075	351461	keystroke_Key.backspace	Key.backspace	n/a
175.8215	0.089	351643	keystroke_i	i	n/a
175.9255	0.105	351851	keystroke_a	a	n/a
176.0605	0.076	352121	keystroke_l	l	n/a
176.1805	0.0905	352361	keystroke_s	s	n/a
176.361	0.12	352722	keystroke_Key.space	Key.space	n/a
176.826	0.075	353652	keystroke_c	c	n/a
176.886	0.09	353772	keystroke_h	h	n/a
177.021	0.09	354042	keystroke_a	a	n/a
177.081	0.06	354162	keystroke_l	l	n/a
177.216	0.09	354432	keystroke_l	l	n/a
177.366	0.075	354732	keystroke_e	e	n/a
177.576	0.105	355152	keystroke_n	n	n/a
177.726	0.075	355452	keystroke_g	g	n/a
177.816	0.09	355632	keystroke_e	e	n/a
177.936	0.09	355872	keystroke_Key.space	Key.space	n/a
178.3265	0.075	356653	keystroke_t	t	n/a
178.4015	0.105	356803	keystroke_i	i	n/a
178.5365	0.044	357073	keystroke_g	g	n/a
178.6265	0.105	357253	keystroke_e	e	n/a
178.6855	0.091	357371	keystroke_r	r	n/a
178.9115	0.074	357823	keystroke_Key.enter	Key.enter	n/a
178.9935	5.9045	357987	prompt	n/a	seal avoid sentence energy\n
179.5265	0.075	359053	keystroke_s	s	n/a
179.6915	0.06	359383	keystroke_e	e	n/a
179.8555	0.106	359711	keystroke_a	a	n/a
179.9755	0.076	359951	keystroke_l	l	n/a
180.0955	0.12	360191	keystroke_Key.space	Key.space	n/a
180.3365	0.06	360673	keystroke_a	a	n/a
180.5005	0.076	361001	keystroke_v	v	n/a
180.5915	0.104	361183	keystroke_o	o	n/a
180.6365	0.09	361273	keystroke_i	i	n/a
180.8755	0.09	361751	keystroke_Key.space	Key.space	n/a
181.3105	0.09	362621	keystroke_Key.backspace	Key.backspace	n/a
181.4465	0.09	362893	keystroke_d	d	n/a
181.5955	0.091	363191	keystroke_Key.space	Key.space	n/a
181.8815	0.075	363763	keystroke_s	s	n/a
182.0305	0.091	364061	keystroke_e	e	n/a
182.1815	0.12	364363	keystroke_n	n	n/a
182.3315	0.06	364663	keystroke_t	t	n/a
182.5415	0.105	365083	keystroke_e	e	n/a
182.7815	0.105	365563	keystroke_n	n	n/a
182.9615	0.105	365923	keystroke_c	c	n/a
183.0665	0.105	366133	keystroke_e	e	n/a
183.1855	0.106	366371	keystroke_Key.space	Key.space	n/a
183.6965	0.075	367393	keystroke_e	e	n/a
183.7855	0.076	367571	keystroke_n	n	n/a
183.8915	0.105	367783	keystroke_e	e	n/a
183.9815	0.12	367963	keystroke_r	r	n/a
184.2065	0.075	368413	keystroke_g	g	n/a
184.2965	0.105	368593	keystroke_y	y	n/a
184.8215	0.075	369643	keystroke_Key.enter	Key.enter	n/a
184.9055	6.8025	369811	prompt	n/a	sugar evidence dozen broadband\n
186.2615	0.06	372523	keystroke_a	a	n/a
186.5755	0.12	373151	keystroke_Key.backspace	Key.backspace	n/a
186.7115	0.105	373423	keystroke_s	s	n/a
186.8015	0.09	373603	keystroke_u	u	n/a
186.9665	0.06	373933	keystroke_g	g	n/a
187.1165	0.0895	374233	keystroke_a	a	n/a
187.207	0.074	374414	keystroke_r	r	n/a
187.311	0.105	374622	keystroke_Key.space	Key.space	n/a
187.581	0.09	375162	keystroke_e	e	n/a
187.761	0.09	375522	keystroke_v	v	n/a
187.881	0.105	375762	keystroke_i	i	n/a
188.286	0.09	376572	keystroke_d	d	n/a
188.391	0.09	376782	keystroke_e	e	n/a
188.511	0.09	377022	keystroke_n	n	n/a
188.616	0.09	377232	keystroke_c	c	n/a
188.676	0.09	377352	keystroke_e	e	n/a
188.751	0.09	377502	keystroke_Key.space	Key.space	n/a
189.156	0.015	378312	keystroke_d	d	n/a
189.231	0.09	378462	keystroke_o	o	n/a
189.486	0.075	378972	keystroke_z	z	n/a
189.681	0.075	379362	keystroke_e	e	n/a
189.756	0.09	379512	keystroke_n	n	n/a
189.891	0.09	379782	keystroke_Key.space	Key.space	n/a
190.116	0.09	380232	keystroke_b	b	n/a
190.416	0.09	380832	keystroke_r	r	n/a
190.551	0.105	381102	keystroke_o	o	n/a
190.806	0.09	381612	keystroke_a	a	n/a
190.971	0.075	381942	keystroke_d	d	n/a
191.121	0.075	382242	keystroke_b	b	n/a
191.256	0.09	382512	keystroke_a	a	n/a
191.331	0.09	382662	keystroke_n	n	n/a
191.436	0.075	382872	keystroke_d	d	n/a
191.616	0.09	383232	keystroke_Key.enter	Key.enter	n/a
191.7125	5.755	383425	prompt	n/a	mate certain dial coastal\n
192.246	0.09	384492	keystroke_m	m	n/a
192.306	0.09	384612	keystroke_a	a	n/a
192.471	0.09	384942	keystroke_t	t	n/a
192.546	0.075	385092	keystroke_e	e	n/a
192.741	0.09	385482	keystroke_Key.space	Key.space	n/a
193.087	0.089	386174	keystroke_c	c	n/a
193.221	0.09	386442	keystroke_e	e	n/a
193.281	0.105	386562	keystroke_r	r	n/a
193.491	0.03	386982	keystroke_t	t	n/a
193.761	0.105	387522	keystroke_a	a	n/a
193.881	0.105	387762	keystroke_i	i	n/a
193.926	0.12	387852	keystroke_n	n	n/a
194.076	0.105	388152	keystroke_Key.space	Key.space	n/a
194.601	0.09	389202	keystroke_d	d	n/a
194.721	0.105	389442	keystroke_i	i	n/a
194.856	0.105	389712	keystroke_a	a	n/a
194.962	0.074	389924	keystroke_l	l	n/a
195.141	0.105	390282	keystroke_Key.space	Key.space	n/a
195.441	0.105	390882	keystroke_c	c	n/a
195.561	0.075	391122	keystroke_o	o	n/a
195.651	0.105	391302	keystroke_s	s	n/a
195.771	0.045	391542	keystroke_t	t	n/a
196.146	0.075	392292	keystroke_Key.backspace	Key.backspace	n/a
196.311	0.075	392622	keystroke_Key.backspace	Key.backspace	n/a
196.446	0.105	392892	keystroke_a	a	n/a
196.476	0.12	392952	keystroke_s	s	n/a
196.731	0.06	393462	keystroke_t	t	n/a
196.956	0.09	393912	keystroke_a	a	n/a
197.136	0.12	394272	keystroke_l	l	n/a
197.392	0.074	394784	keystroke_Key.enter	Key.enter	n/a
197.4715	7.9015	394943	prompt	n/a	minneapolis united individual energy\n
198.3965	0.09	396793	keystroke_m	m	n/a
198.5465	0.105	397093	keystroke_i	i	n/a
198.6215	0.06	397243	keystroke_n	n	n/a
199.2515	0.105	398503	keystroke_n	n	n/a
199.4615	0.09	398923	keystroke_e	e	n/a
199.6715	0.105	399343	keystroke_a	a	n/a
200.3915	0.12	400783	keystroke_p	p	n/a
200.4665	0.09	400933	keystroke_o	o	n/a
200.6465	0.075	401293	keystroke_l	l	n/a
200.8265	0.09	401653	keystroke_i	i	n/a
200.9465	0.075	401893	keystroke_s	s	n/a
201.0965	0.075	402193	keystroke_Key.space	Key.space	n/a
201.4565	0.09	402913	keystroke_u	u	n/a
201.5465	0.12	403093	keystroke_n	n	n/a
201.6965	0.105	403393	keystroke_i	i	n/a
201.8165	0.075	403633	keystroke_t	t	n/a
202.0265	0.12	404053	keystroke_e	e	n/a
202.1165	0.105	404233	keystroke_d	d	n/a
202.1915	0.075	404383	keystroke_Key.space	Key.space	n/a
202.4005	0.106	404801	keystroke_i	i	n/a
202.4765	0.105	404953	keystroke_n	n	n/a
202.6265	0.105	405253	keystroke_d	d	n/a
202.7765	0.09	405553	keystroke_i	i	n/a
202.9415	0.12	405883	keystroke_v	v	n/a
203.5415	0.09	407083	keystroke_i	i	n/a
203.6915	0.075	407383	keystroke_d	d	n/a
203.7965	0.105	407593	keystroke_u	u	n/a
203.9615	0.105	407923	keystroke_a	a	n/a
204.0515	0.105	408103	keystroke_l	l	n/a
204.2315	0.12	408463	keystroke_Key.space	Key.space	n/a
204.5165	0.075	409033	keystroke_e	e	n/a
204.6215	0.09	409243	keystroke_n	n	n/a
204.6965	0.09	409393	keystroke_e	e	n/a
204.7715	0.105	409543	keystroke_r	r	n/a
204.9665	0.06	409933	keystroke_g	g	n/a
205.0715	0.075	410143	keystroke_y	y	n/a
205.2965	0.075	410593	keystroke_Key.enter	Key.enter	n/a
205.3775	6.07	410755	prompt	n/a	ghana implement plymouth knows\n
206.0915	0.03	412183	keystroke_g	g	n/a
206.1665	0.09	412333	keystroke_h	h	n/a
206.2865	0.09	412573	keystroke_a	a	n/a
206.3915	0.075	412783	keystroke_n	n	n/a
206.4815	0.075	412963	keystroke_a	a	n/a
206.6015	0.105	413203	keystroke_Key.space	Key.space	n/a
207.0815	0.12	414163	keystroke_i	i	n/a
207.1715	0.09	414343	keystroke_m	m	n/a
207.3365	0.105	414673	keystroke_p	p	n/a
207.3815	0.105	414763	keystroke_l	l	n/a
207.5015	0.075	415003	keystroke_e	e	n/a
207.7415	0.045	415483	keystroke_n	n	n/a
208.0115	0.06	416023	keystroke_Key.backspace	Key.backspace	n/a
208.1315	0.1045	416263	keystroke_m	m	n/a
208.281	0.075	416562	keystroke_e	e	n/a
208.386	0.09	416772	keystroke_n	n	n/a
208.506	0.06	417012	keystroke_t	t	n/a
208.581	0.09	417162	keystroke_Key.space	Key.space	n/a
209.091	0.136	418182	keystroke_p	p	n/a
209.151	0.15	418302	keystroke_l	l	n/a
209.452	0.105	418904	keystroke_y	y	n/a
209.736	0.09	419472	keystroke_m	m	n/a
209.857	0.135	419714	keystroke_o	o	n/a
209.947	0.104	419894	keystroke_u	u	n/a
210.036	0.076	420072	keystroke_t	t	n/a
210.172	0.089	420344	keystroke_h	h	n/a
210.276	0.12	420552	keystroke_Key.space	Key.space	n/a
210.426	0.105	420852	keystroke_k	k	n/a
210.486	0.091	420972	keystroke_n	n	n/a
210.951	0.105	421902	keystroke_o	o	n/a
211.071	0.061	422142	keystroke_w	w	n/a
211.267	0.06	422534	keystroke_s	s	n/a
211.356	0.09	422712	keystroke_Key.enter	Key.enter	n/a
211.452	8.0065	422904	prompt	n/a	london aged contemporary momentum\n
212.017	0.089	424034	keystroke_l	l	n/a
212.212	0.105	424424	keystroke_o	o	n/a
212.287	0.09	424574	keystroke_n	n	n/a
212.361	0.09	424722	keystroke_d	d	n/a
212.602	0.105	425204	keystroke_o	o	n/a
212.676	0.09	425352	keystroke_n	n	n/a
212.811	0.09	425622	keystroke_Key.space	Key.space	n/a
212.992	0.089	425984	keystroke_a	a	n/a
213.307	0.12	426614	keystroke_e	e	n/a
213.696	0.075	427392	keystroke_Key.backspace	Key.backspace	n/a
213.757	0.075	427514	keystroke_g	g	n/a
213.877	0.105	427754	keystroke_e	e	n/a
213.952	0.09	427904	keystroke_d	d	n/a
214.087	0.089	428174	keystroke_Key.space	Key.space	n/a
214.537	0.105	429074	keystroke_c	c	n/a
214.581	0.166	429162	keystroke_o	o	n/a
214.656	0.106	429312	keystroke_m	m	n/a
215.062	0.089	430124	keystroke_Key.backspace	Key.backspace	n/a
215.271	0.091	430542	keystroke_n	n	n/a
215.542	0.06	431084	keystroke_t	t	n/a
215.647	0.074	431294	keystroke_e	e	n/a
215.722	0.104	431444	keystroke_m	m	n/a
215.857	0.105	431714	keystroke_p	p	n/a
216.381	0.091	432762	keystroke_o	o	n/a
216.487	0.09	432974	keystroke_r	r	n/a
216.937	0.105	433874	keystroke_a	a	n/a
217.072	0.075	434144	keystroke_r	r	n/a
217.192	0.09	434384	keystroke_y	y	n/a
217.476	0.09	434952	keystroke_Key.space	Key.space	n/a
217.776	0.091	435552	keystroke_m	m	n/a
218.002	0.135	436004	keystroke_o	o	n/a
218.226	0.106	436452	keystroke_m	m	n/a
218.452	0.074	436904	keystroke_e	e	n/a
218.542	0.09	437084	keystroke_n	n	n/a
218.677	0.075	437354	keystroke_t	t	n/a
218.962	0.075	437924	keystroke_u	u	n/a
219.127	0.09	438254	keystroke_m	m	n/a
219.381	0.075	438762	keystroke_Key.enter	Key.enter	n/a
219.4635	9.34	438927	prompt	n/a	cooperation acrobat mightn't prescription\n
220.012	0.09	440024	keystroke_c	c	n/a
220.087	0.12	440174	keystroke_o	o	n/a
220.282	0.09	440564	keystroke_o	o	n/a
220.477	0.09	440954	keystroke_p	p	n/a
220.582	0.09	441164	keystroke_e	e	n/a
220.657	0.09	441314	keystroke_r	r	n/a
220.822	0.09	441644	keystroke_a	a	n/a
220.972	0.06	441944	keystroke_t	t	n/a
221.047	0.09	442094	keystroke_i	i	n/a
221.152	0.12	442304	keystroke_o	o	n/a
221.227	0.12	442454	keystroke_n	n	n/a
221.331	0.106	442662	keystroke_Key.space	Key.space	n/a
221.707	0.09	443414	keystroke_a	a	n/a
221.842	0.09	443684	keystroke_c	c	n/a
221.977	0.09	443954	keystroke_o	o	n/a
222.112	0.09	444224	keystroke_r	r	n/a
222.472	0.059	444944	keystroke_Key.backspace	Key.backspace	n/a
222.621	0.076	445242	keystroke_Key.backspace	Key.backspace	n/a
222.712	0.09	445424	keystroke_r	r	n/a
222.832	0.09	445664	keystroke_o	o	n/a
223.1165	0.105	446233	keystroke_b	b	n/a
223.3115	0.09	446623	keystroke_a	a	n/a
223.5515	0.06	447103	keystroke_t	t	n/a
223.6565	0.089	447313	keystroke_Key.space	Key.space	n/a
223.8515	0.105	447703	keystroke_m	m	n/a
223.9715	0.09	447943	keystroke_i	i	n/a
224.1065	0.09	448213	keystroke_g	g	n/a
224.2115	0.09	448423	keystroke_h	h	n/a
224.3165	0.075	448633	keystroke_t	t	n/a
225.0515	0.09	450103	keystroke_n	n	n/a
225.8015	0.075	451603	keystroke_'	'	n/a
226.0415	0.06	452083	keystroke_t	t	n/a
226.1315	0.12	452263	keystroke_Key.space	Key.space	n/a
226.6865	0.075	453373	keystroke_p	p	n/a
226.7915	0.09	453583	keystroke_r	r	n/a
226.8515	0.09	453703	keystroke_e	e	n/a
227.0615	0.09	454123	keystroke_s	s	n/a
227.3015	0.075	454603	keystroke_c	c	n/a
227.4665	0.09	454933	keystroke_r	r	n/a
227.5265	0.12	455053	keystroke_i	i	n/a
227.6165	0.06	455233	keystroke_p	p	n/a
227.7965	0.06	455593	keystroke_t	t	n/a
228.2765	0.12	456553	keystroke_i	i	n/a
228.4265	0.105	456853	keystroke_o	o	n/a
228.5015	0.09	457003	keystroke_n	n	n/a
228.6965	0.105	457393	keystroke_Key.enter	Key.enter	n/a
228.8085	7.301	457617	prompt	n/a	subscriber loves glance scheduled\n
229.3115	0.09	458623	keystroke_s	s	n/a
229.4165	0.105	458833	keystroke_u	u	n/a
229.6415	0.09	459283	keystroke_b	b	n/a
229.7615	0.105	459523	keystroke_s	s	n/a
229.9715	0.06	459943	keystroke_r	r	n/a
230.4365	0.045	460873	keystroke_Key.backspace	Key.backspace	n/a
230.4665	0.075	460933	keystroke_c	c	n/a
230.6465	0.075	461293	keystroke_r	r	n/a
230.7665	0.105	461533	keystroke_i	i	n/a
230.8115	0.12	461623	keystroke_b	b	n/a
230.9615	0.045	461923	keystroke_e	e	n/a
230.9765	0.075	461953	keystroke_r	r	n/a
231.1415	0.105	462283	keystroke_Key.space	Key.space	n/a
231.5465	0.06	463093	keystroke_l	l	n/a
231.7115	0.075	463423	keystroke_o	o	n/a
231.8015	0.06	463603	keystroke_v	v	n/a
231.8765	0.09	463753	keystroke_e	e	n/a
232.0565	0.105	464113	keystroke_s	s	n/a
232.1465	0.089	464293	keystroke_Key.space	Key.space	n/a
232.5215	0.06	465043	keystroke_g	g	n/a
232.6415	0.075	465283	keystroke_l	l	n/a
232.7315	0.09	465463	keystroke_a	a	n/a
232.8665	0.09	465733	keystroke_n	n	n/a
232.9265	0.105	465853	keystroke_c	c	n/a
232.9715	0.09	465943	keystroke_e	e	n/a
233.0905	0.091	466181	keystroke_Key.space	Key.space	n/a
233.4815	0.09	466963	keystroke_s	s	n/a
233.6165	0.045	467233	keystroke_c	c	n/a
233.8415	0.06	467683	keystroke_c	c	n/a
234.1865	0.075	468373	keystroke_Key.backspace	Key.backspace	n/a
234.3515	0.09	468703	keystroke_h	h	n/a
234.4715	0.105	468943	keystroke_e	e	n/a
235.0715	0.075	470143	keystroke_d	d	n/a
235.2065	0.135	470413	keystroke_u	u	n/a
235.3115	0.105	470623	keystroke_l	l	n/a
235.7915	0.06	471583	keystroke_e	e	n/a
235.8215	0.09	471643	keystroke_d	d	n/a
236.0315	0.075	472063	keystroke_Key.enter	Key.enter	n/a
236.116	9.1575	472232	prompt	n/a	recipient accessibility memories outcome\n
236.6465	0.074	473293	keystroke_r	r	n/a
236.7365	0.075	473473	keystroke_e	e	n/a
237.0815	0.105	474163	keystroke_c	c	n/a
237.2165	0.135	474433	keystroke_i	i	n/a
237.4115	0.105	474823	keystroke_p	p	n/a
237.8315	0.075	475663	keystroke_i	i	n/a
237.9365	0.075	475873	keystroke_e	e	n/a
238.0265	0.105	476053	keystroke_n	n	n/a
238.1465	0.075	476293	keystroke_t	t	n/a
238.2365	0.09	476473	keystroke_Key.space	Key.space	n/a
238.4465	0.075	476893	keystroke_a	a	n/a
238.6565	0.09	477313	keystroke_s	s	n/a
239.0465	0.06	478093	keystroke_Key.backspace	Key.backspace	n/a
239.0915	0.09	478183	keystroke_c	c	n/a
239.3765	0.015	478753	keystroke_c	c	n/a
239.9015	0.06	479803	keystroke_e	e	n/a
240.0965	0.06	480193	keystroke_s	s	n/a
240.2315	0.06	480463	keystroke_s	s	n/a
240.4415	0.12	480883	keystroke_i	i	n/a
240.6065	0.075	481213	keystroke_b	b	n/a
240.9965	0.09	481993	keystroke_i	i	n/a
241.1315	0.105	482263	keystroke_l	l	n/a
241.2065	0.09	482413	keystroke_i	i	n/a
241.2815	0.075	482563	keystroke_t	t	n/a
241.4615	0.045	482923	keystroke_u	u	n/a
241.8665	0.06	483733	keystroke_Key.backspace	Key.backspace	n/a
242.0015	0.105	484003	keystroke_y	y	n/a
242.1815	0.12	484363	keystroke_Key.space	Key.space	n/a
242.7515	0.09	485503	keystroke_m	m	n/a
242.8565	0.09	485713	keystroke_e	e	n/a
242.9475	0.089	485895	keystroke_m	m	n/a
243.0515	0.09	486103	keystroke_o	o	n/a
243.2015	0.06	486403	keystroke_r	r	n/a
243.5165	0.105	487033	keystroke_i	i	n/a
243.6515	0.09	487303	keystroke_e	e	n/a
243.8315	0.105	487663	keystroke_s	s	n/a
243.9375	0.074	487875	keystroke_Key.space	Key.space	n/a
244.4015	0.12	488803	keystroke_o	o	n/a
244.4765	0.09	488953	keystroke_u	u	n/a
244.5515	0.06	489103	keystroke_t	t	n/a
244.7465	0.09	489493	keystroke_c	c	n/a
244.8515	0.105	489703	keystroke_o	o	n/a
244.8965	0.105	489793	keystroke_m	m	n/a
244.9865	0.06	489973	keystroke_e	e	n/a
245.1965	0.075	490393	keystroke_Key.enter	Key.enter	n/a
245.279	6.759	490558	prompt	n/a	signatures would've dead switching\n
245.7515	0.09	491503	keystroke_s	s	n/a
245.8565	0.075	491713	keystroke_i	i	n/a
245.9765	0.06	491953	keystroke_g	g	n/a
246.0965	0.09	492193	keystroke_n	n	n/a
246.2015	0.09	492403	keystroke_a	a	n/a
246.3365	0.075	492673	keystroke_t	t	n/a
246.4415	0.09	492883	keystroke_u	u	n/a
246.7865	0.09	493573	keystroke_r	r	n/a
246.8465	0.075	493693	keystroke_e	e	n/a
247.0415	0.09	494083	keystroke_s	s	n/a
247.1465	0.09	494293	keystroke_Key.space	Key.space	n/a
247.5815	0.075	495163	keystroke_w	w	n/a
247.6265	0.09	495253	keystroke_o	o	n/a
247.6715	0.105	495343	keystroke_u	u	n/a
247.8215	0.075	495643	keystroke_l	l	n/a
247.8975	0.119	495795	keystroke_d	d	n/a
248.7815	0.06	497563	keystroke_'	'	n/a
248.9915	0.06	497983	keystroke_v	v	n/a
249.1265	0.09	498253	keystroke_e	e	n/a
249.2465	0.12	498493	keystroke_Key.space	Key.space	n/a
249.6665	0.135	499333	keystroke_d	d	n/a
249.7715	0.09	499543	keystroke_e	e	n/a
249.9515	0.105	499903	keystroke_a	a	n/a
250.0415	0.105	500083	keystroke_d	d	n/a
250.1315	0.09	500263	keystroke_Key.space	Key.space	n/a
250.7465	0.06	501493	keystroke_s	s	n/a
250.8815	0.075	501763	keystroke_w	w	n/a
251.0765	0.09	502153	keystroke_i	i	n/a
251.2115	0.075	502423	keystroke_t	t	n/a
251.4215	0.105	502843	keystroke_c	c	n/a
251.5115	0.09	503023	keystroke_h	h	n/a
251.5865	0.135	503173	keystroke_i	i	n/a
251.6765	0.105	503353	keystroke_n	n	n/a
251.7965	0.045	503593	keystroke_g	g	n/a
251.9615	0.075	503923	keystroke_Key.enter	Key.enter	n/a
252.0425	7.106	504085	prompt	n/a	rendered period name agreement\n
252.532	0.105	505064	keystroke_r	r	n/a
252.622	0.09	505244	keystroke_e	e	n/a
252.757	0.06	505514	keystroke_b	b	n/a
252.862	0.09	505724	keystroke_d	d	n/a
253.192	0.06	506384	keystroke_Key.backspace	Key.backspace	n/a
253.327	0.075	506654	keystroke_Key.backspace	Key.backspace	n/a
253.507	0.12	507014	keystroke_n	n	n/a
253.612	0.09	507224	keystroke_d	d	n/a
253.747	0.09	507494	keystroke_e	e	n/a
253.807	0.075	507614	keystroke_r	r	n/a
254.152	0.09	508304	keystroke_e	e	n/a
254.182	0.105	508364	keystroke_d	d	n/a
254.302	0.09	508604	keystroke_Key.space	Key.space	n/a
254.527	0.09	509054	keystroke_p	p	n/a
254.677	0.105	509354	keystroke_e	e	n/a
254.767	0.09	509534	keystroke_r	r	n/a
254.887	0.105	509774	keystroke_i	i	n/a
255.037	0.105	510074	keystroke_o	o	n/a
255.097	0.09	510194	keystroke_u	u	n/a
255.172	0.09	510344	keystroke_d	d	n/a
255.382	0.075	510764	keystroke_Key.space	Key.space	n/a
255.802	0.075	511604	keystroke_Key.backspace	Key.backspace	n/a
255.967	0.06	511934	keystroke_Key.backspace	Key.backspace	n/a
256.357	0.075	512714	keystroke_Key.backspace	Key.backspace	n/a
256.507	0.09	513014	keystroke_d	d	n/a
256.672	0.075	513344	keystroke_Key.space	Key.space	n/a
257.167	0.075	514334	keystroke_n	n	n/a
257.227	0.09	514454	keystroke_a	a	n/a
257.347	0.105	514694	keystroke_m	m	n/a
257.437	0.075	514874	keystroke_e	e	n/a
257.542	0.075	515084	keystroke_Key.space	Key.space	n/a
257.692	0.075	515384	keystroke_a	a	n/a
257.947	0.015	515894	keystroke_g	g	n/a
258.082	0.09	516164	keystroke_r	r	n/a
258.187	0.045	516374	keystroke_e	e	n/a
258.3675	0.059	516735	keystroke_e	e	n/a
258.621	0.0755	517242	keystroke_m	m	n/a
258.7125	0.059	517425	keystroke_e	e	n/a
258.8165	0.0755	517633	keystroke_n	n	n/a
258.936	0.03	517872	keystroke_t	t	n/a
259.041	0.105	518082	keystroke_Key.enter	Key.enter	n/a
259.156	7.6425	518312	prompt	n/a	returning southwest smart sensor\n
259.702	0.0895	519404	keystroke_r	r	n/a
259.7615	0.0755	519523	keystroke_e	e	n/a
259.927	0.0445	519854	keystroke_t	t	n/a
260.181	0.075	520362	keystroke_u	u	n/a
260.2715	0.09	520543	keystroke_r	r	n/a
260.4065	0.1045	520813	keystroke_n	n	n/a
260.677	0.1045	521354	keystroke_i	i	n/a
260.722	0.0895	521444	keystroke_n	n	n/a
260.842	0.059	521684	keystroke_g	g	n/a
260.932	0.0895	521864	keystroke_Key.space	Key.space	n/a
261.352	0.09	522704	keystroke_s	s	n/a
261.4715	0.105	522943	keystroke_o	o	n/a
261.5015	0.105	523003	keystroke_u	u	n/a
261.817	0.09	523634	keystroke_t	t	n/a
262.042	0.0745	524084	keystroke_h	h	n/a
263.1215	0.06	526243	keystroke_w	w	n/a
263.316	0.06	526632	keystroke_e	e	n/a
263.482	0.0895	526964	keystroke_s	s	n/a
263.572	0.045	527144	keystroke_t	t	n/a
263.662	0.0895	527324	keystroke_Key.space	Key.space	n/a
263.917	0.0595	527834	keystroke_s	s	n/a
264.2015	0.0905	528403	keystroke_m	m	n/a
264.306	0.1205	528612	keystroke_a	a	n/a
264.4415	0.0905	528883	keystroke_r	r	n/a
264.637	0.059	529274	keystroke_t	t	n/a
264.711	0.09	529422	keystroke_Key.space	Key.space	n/a
264.832	0.09	529664	keystroke_s	s	n/a
264.952	0.105	529904	keystroke_n	n	n/a
265.026	0.091	530052	keystroke_e	e	n/a
265.5365	0.0895	531073	keystroke_Key.backspace	Key.backspace	n/a
265.7015	0.06	531403	keystroke_Key.backspace	Key.backspace	n/a
265.9115	0.0755	531823	keystroke_e	e	n/a
266.1065	0.0905	532213	keystroke_n	n	n/a
266.227	0.104	532454	keystroke_s	s	n/a
266.422	0.09	532844	keystroke_o	o	n/a
266.542	0.06	533084	keystroke_r	r	n/a
266.722	0.075	533444	keystroke_Key.enter	Key.enter	n/a
266.804	6.686	533608	prompt	n/a	evaluated hawaii microphone makeup\n
267.3965	0.06	534793	keystroke_e	e	n/a
267.7865	0.075	535573	keystroke_v	v	n/a
267.967	0.075	535934	keystroke_a	a	n/a
268.102	0.06	536204	keystroke_l	l	n/a
268.341	0.091	536682	keystroke_u	u	n/a
268.507	0.105	537014	keystroke_a	a	n/a
268.6715	0.0605	537343	keystroke_t	t	n/a
268.822	0.1195	537644	keystroke_e	e	n/a
268.9115	0.1205	537823	keystroke_d	d	n/a
269.0165	0.1055	538033	keystroke_Key.space	Key.space	n/a
269.392	0.075	538784	keystroke_h	h	n/a
269.482	0.045	538964	keystroke_a	a	n/a
269.6615	0.06	539323	keystroke_w	w	n/a
269.827	0.075	539654	keystroke_a	a	n/a
269.902	0.0745	539804	keystroke_i	i	n/a
270.037	0.09	540074	keystroke_i	i	n/a
270.202	0.075	540404	keystroke_Key.space	Key.space	n/a
270.592	0.1495	541184	keystroke_m	m	n/a
270.7265	0.0905	541453	keystroke_i	i	n/a
270.832	0.1055	541664	keystroke_c	c	n/a
271.027	0.075	542054	keystroke_r	r	n/a
271.177	0.1045	542354	keystroke_o	o	n/a
271.477	0.1045	542954	keystroke_p	p	n/a
271.6115	0.0905	543223	keystroke_h	h	n/a
271.7765	0.1055	543553	keystroke_o	o	n/a
271.822	0.1045	543644	keystroke_n	n	n/a
271.942	0.075	543884	keystroke_e	e	n/a
272.062	0.089	544124	keystroke_Key.space	Key.space	n/a
272.257	0.09	544514	keystroke_m	m	n/a
272.362	0.105	544724	keystroke_a	a	n/a
272.572	0.105	545144	keystroke_k	k	n/a
272.977	0.075	545954	keystroke_e	e	n/a
273.067	0.1205	546134	keystroke_u	u	n/a
273.1415	0.105	546283	keystroke_p	p	n/a
273.3965	0.0905	546793	keystroke_Key.enter	Key.enter	n/a
273.4955	10.4335	546991	prompt	n/a	kilometers christians certificate census\n
274.267	0.105	548534	keystroke_k	k	n/a
274.6565	0.1055	549313	keystroke_i	i	n/a
274.8215	0.105	549643	keystroke_l	l	n/a
275.062	0.15	550124	keystroke_o	o	n/a
275.227	0.1345	550454	keystroke_m	m	n/a
275.4215	0.091	550843	keystroke_e	e	n/a
275.4965	0.0755	550993	keystroke_t	t	n/a
275.6615	0.0905	551323	keystroke_e	e	n/a
275.7365	0.0755	551473	keystroke_r	r	n/a
276.007	0.09	552014	keystroke_s	s	n/a
276.172	0.0745	552344	keystroke_Key.space	Key.space	n/a
276.517	0.104	553034	keystroke_c	c	n/a
276.577	0.1045	553154	keystroke_h	h	n/a
276.7265	0.075	553453	keystroke_r	r	n/a
276.862	0.06	553724	keystroke_i	i	n/a
276.9365	0.0905	553873	keystroke_s	s	n/a
277.042	0.06	554084	keystroke_t	t	n/a
277.162	0.0745	554324	keystroke_a	a	n/a
277.6265	0.0605	555253	keystroke_Key.backspace	Key.backspace	n/a
277.912	0.0745	555824	keystroke_i	i	n/a
278.0465	0.075	556093	keystroke_a	a	n/a
278.1665	0.0905	556333	keystroke_n	n	n/a
278.287	0.0895	556574	keystroke_s	s	n/a
278.467	0.06	556934	keystroke_Key.space	Key.space	n/a
279.547	0.0905	559094	keystroke_c	c	n/a
279.757	0.06	559514	keystroke_e	e	n/a
280.2215	0.0755	560443	keystroke_r	r	n/a
280.4015	0.0605	560803	keystroke_t	t	n/a
280.507	0.0895	561014	keystroke_i	i	n/a
280.687	0.09	561374	keystroke_f	f	n/a
280.822	0.09	561644	keystroke_i	i	n/a
280.927	0.105	561854	keystroke_c	c	n/a
281.4215	0.09	562843	keystroke_a	a	n/a
281.5865	0.1055	563173	keystroke_t	t	n/a
281.6625	0.1045	563325	keystroke_e	e	n/a
281.812	0.105	563624	keystroke_Key.space	Key.space	n/a
282.3225	0.1035	564645	keystroke_c	c	n/a
282.411	0.1055	564822	keystroke_e	e	n/a
282.577	0.09	565154	keystroke_n	n	n/a
282.757	0.09	565514	keystroke_s	s	n/a
282.907	0.09	565814	keystroke_u	u	n/a
282.982	0.06	565964	keystroke_s	s	n/a
283.867	0.06	567734	keystroke_Key.enter	Key.enter	n/a
283.9345	8.199	567869	prompt	n/a	ashley hydrogen involved entire\n
284.647	0.0905	569294	keystroke_a	a	n/a
284.8115	0.031	569623	keystroke_h	h	n/a
284.8275	0.09	569655	keystroke_s	s	n/a
285.397	0.075	570794	keystroke_Key.backspace	Key.backspace	n/a
285.5625	0.044	571125	keystroke_Key.backspace	Key.backspace	n/a
285.697	0.075	571394	keystroke_s	s	n/a
285.817	0.075	571634	keystroke_h	h	n/a
285.967	0.0745	571934	keystroke_e	e	n/a
286.0725	0.105	572145	keystroke_l	l	n/a
286.4315	0.0755	572863	keystroke_Key.backspace	Key.backspace	n/a
286.582	0.06	573164	keystroke_Key.backspace	Key.backspace	n/a
286.792	0.0905	573584	keystroke_l	l	n/a
286.927	0.0745	573854	keystroke_e	e	n/a
287.0765	0.0455	574153	keystroke_y	y	n/a
287.182	0.105	574364	keystroke_Key.space	Key.space	n/a
287.602	0.09	575204	keystroke_h	h	n/a
287.827	0.0745	575654	keystroke_y	y	n/a
288.307	0.075	576614	keystroke_d	d	n/a
288.4715	0.091	576943	keystroke_r	r	n/a
288.517	0.0905	577034	keystroke_o	o	n/a
288.772	0.06	577544	keystroke_g	g	n/a
289.237	0.0745	578474	keystroke_e	e	n/a
289.3275	0.0895	578655	keystroke_n	n	n/a
289.447	0.1195	578894	keystroke_Key.space	Key.space	n/a
289.9265	0.1505	579853	keystroke_i	i	n/a
290.047	0.105	580094	keystroke_n	n	n/a
290.1965	0.106	580393	keystroke_v	v	n/a
290.3025	0.044	580605	keystroke_o	o	n/a
290.467	0.0605	580934	keystroke_l	l	n/a
290.677	0.075	581354	keystroke_v	v	n/a
290.8565	0.106	581713	keystroke_e	e	n/a
290.9775	0.0445	581955	keystroke_d	d	n/a
291.052	0.105	582104	keystroke_Key.space	Key.space	n/a
291.3065	0.0755	582613	keystroke_e	e	n/a
291.397	0.105	582794	keystroke_n	n	n/a
291.487	0.075	582974	keystroke_t	t	n/a
291.6675	0.09	583335	keystroke_i	i	n/a
291.8015	0.0905	583603	keystroke_r	r	n/a
291.907	0.0595	583814	keystroke_e	e	n/a
292.057	0.075	584114	keystroke_Key.enter	Key.enter	n/a
292.138	7.616	584276	prompt	n/a	daniel cart prime unfortunately\n
292.627	0.09	585254	keystroke_d	d	n/a
292.8825	0.09	585765	keystroke_a	a	n/a
292.987	0.09	585974	keystroke_n	n	n/a
293.092	0.1055	586184	keystroke_i	i	n/a
293.332	0.075	586664	keystroke_e	e	n/a
293.5865	0.0755	587173	keystroke_Key.space	Key.space	n/a
293.917	0.075	587834	keystroke_Key.backspace	Key.backspace	n/a
294.1265	0.1055	588253	keystroke_l	l	n/a
294.2615	0.0905	588523	keystroke_Key.space	Key.space	n/a
294.3965	0.1055	588793	keystroke_c	c	n/a
294.577	0.0905	589154	keystroke_a	a	n/a
294.682	0.0905	589364	keystroke_r	r	n/a
294.8925	0.059	589785	keystroke_t	t	n/a
294.9815	0.1205	589963	keystroke_Key.space	Key.space	n/a
296.152	0.0455	592304	keystroke_p	p	n/a
296.3025	0.0595	592605	keystroke_r	r	n/a
296.4365	0.1205	592873	keystroke_i	i	n/a
296.4965	0.1355	592993	keystroke_m	m	n/a
296.662	0.0905	593324	keystroke_e	e	n/a
296.782	0.0905	593564	keystroke_Key.space	Key.space	n/a
297.052	0.0755	594104	keystroke_u	u	n/a
297.1125	0.074	594225	keystroke_n	n	n/a
297.457	0.0755	594914	keystroke_f	f	n/a
297.5465	0.1055	595093	keystroke_o	o	n/a
297.6375	0.09	595275	keystroke_r	r	n/a
297.862	0.06	595724	keystroke_t	t	n/a
298.8075	0.0895	597615	keystroke_u	u	n/a
298.8675	0.1045	597735	keystroke_n	n	n/a
298.942	0.09	597884	keystroke_a	a	n/a
299.167	0.09	598334	keystroke_t	t	n/a
299.287	0.1055	598574	keystroke_e	e	n/a
299.407	0.0905	598814	keystroke_l	l	n/a
299.512	0.0455	599024	keystroke_y	y	n/a
299.677	0.075	599354	keystroke_Key.enter	Key.enter	n/a
299.759	9.355	599518	prompt	n/a	gained custody opinion experiences\n
300.442	0.0595	600884	keystroke_g	g	n/a
300.6065	0.091	601213	keystroke_a	a	n/a
300.6515	0.106	601303	keystroke_i	i	n/a
300.6975	0.105	601395	keystroke_n	n	n/a
300.9675	0.09	601935	keystroke_e	e	n/a
301.0275	0.104	602055	keystroke_d	d	n/a
301.1465	0.105	602293	keystroke_Key.space	Key.space	n/a
301.4765	0.1055	602953	keystroke_c	c	n/a
301.5965	0.0905	603193	keystroke_u	u	n/a
301.732	0.09	603464	keystroke_s	s	n/a
301.8525	0.075	603705	keystroke_t	t	n/a
301.942	0.1055	603884	keystroke_o	o	n/a
302.542	0.105	605084	keystroke_d	d	n/a
302.6625	0.0745	605325	keystroke_y	y	n/a
303.157	0.12	606314	keystroke_Key.space	Key.space	n/a
303.292	0.12	606584	keystroke_i	i	n/a
303.5625	0.074	607125	keystroke_o	o	n/a
303.802	0.0895	607604	keystroke_Key.backspace	Key.backspace	n/a
303.9515	0.0605	607903	keystroke_Key.backspace	Key.backspace	n/a
304.387	0.105	608774	keystroke_o	o	n/a
304.462	0.105	608924	keystroke_p	p	n/a
304.717	0.075	609434	keystroke_n	n	n/a
304.912	0.105	609824	keystroke_i	i	n/a
305.047	0.105	610094	keystroke_o	o	n/a
305.122	0.09	610244	keystroke_n	n	n/a
305.528	0.074	611056	keystroke_Key.backspace	Key.backspace	n/a
305.677	0.09	611354	keystroke_Key.backspace	Key.backspace	n/a
305.827	0.09	611654	keystroke_Key.backspace	Key.backspace	n/a
306.172	0.105	612344	keystroke_Key.backspace	Key.backspace	n/a
306.307	0.105	612614	keystroke_i	i	n/a
306.517	0.075	613034	keystroke_n	n	n/a
306.742	0.12	613484	keystroke_i	i	n/a
306.877	0.12	613754	keystroke_o	o	n/a
306.952	0.12	613904	keystroke_n	n	n/a
307.192	0.12	614384	keystroke_Key.space	Key.space	n/a
307.642	0.06	615284	keystroke_e	e	n/a
307.807	0.075	615614	keystroke_x	x	n/a
307.897	0.105	615794	keystroke_p	p	n/a
308.032	0.075	616064	keystroke_e	e	n/a
308.092	0.075	616184	keystroke_r	r	n/a
308.332	0.09	616664	keystroke_i	i	n/a
308.437	0.09	616874	keystroke_e	e	n/a
308.557	0.09	617114	keystroke_n	n	n/a
308.632	0.09	617264	keystroke_c	c	n/a
308.707	0.045	617414	keystroke_e	e	n/a
308.887	0.075	617774	keystroke_s	s	n/a
309.022	0.0905	618044	keystroke_Key.enter	Key.enter	n/a
309.12	7.929	618240	prompt	n/a	fundamental outreach celebrate selling\n
309.7125	0.045	619425	keystroke_f	f	n/a
309.8025	0.075	619605	keystroke_u	u	n/a
309.9975	0.09	619995	keystroke_n	n	n/a
310.1025	0.06	620205	keystroke_d	d	n/a
310.3575	0.09	620715	keystroke_a	a	n/a
310.5675	0.09	621135	keystroke_m	m	n/a
310.6875	0.105	621375	keystroke_e	e	n/a
310.8075	0.075	621615	keystroke_n	n	n/a
310.8975	0.06	621795	keystroke_t	t	n/a
311.0175	0.09	622035	keystroke_a	a	n/a
311.0925	0.09	622185	keystroke_l	l	n/a
311.2275	0.105	622455	keystroke_Key.space	Key.space	n/a
311.5275	0.15	623055	keystroke_o	o	n/a
311.6925	0.045	623385	keystroke_t	t	n/a
311.9925	0.105	623985	keystroke_Key.backspace	Key.backspace	n/a
312.1125	0.09	624225	keystroke_u	u	n/a
312.1875	0.045	624375	keystroke_t	t	n/a
312.5465	0.0615	625093	keystroke_r	r	n/a
312.5915	0.0755	625183	keystroke_e	e	n/a
312.787	0.06	625574	keystroke_a	a	n/a
312.952	0.09	625904	keystroke_c	c	n/a
313.058	0.1185	626116	keystroke_h	h	n/a
313.2515	0.105	626503	keystroke_Key.space	Key.space	n/a
313.5815	0.0605	627163	keystroke_r	r	n/a
313.657	0.016	627314	keystroke_e	e	n/a
313.867	0.06	627734	keystroke_Key.backspace	Key.backspace	n/a
314.017	0.075	628034	keystroke_Key.backspace	Key.backspace	n/a
314.048	0.105	628096	keystroke_c	c	n/a
314.212	0.091	628424	keystroke_e	e	n/a
314.332	0.091	628664	keystroke_l	l	n/a
314.468	0.0885	628936	keystroke_e	e	n/a
314.6475	0.06	629295	keystroke_b	b	n/a
314.7525	0.09	629505	keystroke_r	r	n/a
314.8715	0.061	629743	keystroke_a	a	n/a
315.0975	0.0305	630195	keystroke_t	t	n/a
315.113	0.059	630226	keystroke_e	e	n/a
315.187	0.09	630374	keystroke_Key.space	Key.space	n/a
315.6365	0.105	631273	keystroke_c	c	n/a
315.9665	0.09	631933	keystroke_Key.backspace	Key.backspace	n/a
316.0425	0.0755	632085	keystroke_s	s	n/a
316.2225	0.059	632445	keystroke_e	e	n/a
316.2375	0.0595	632475	keystroke_l	l	n/a
316.4025	0.075	632805	keystroke_l	l	n/a
316.5825	0.104	633165	keystroke_i	i	n/a
316.6425	0.119	633285	keystroke_n	n	n/a
316.7025	0.0905	633405	keystroke_g	g	n/a
316.9565	0.09	633913	keystroke_Key.enter	Key.enter	n/a
317.0535	5.8005	634107	prompt	n/a	transcript steam passenger textiles\n
317.5875	0.074	635175	keystroke_t	t	n/a
317.7525	0.105	635505	keystroke_r	r	n/a
317.9025	0.104	635805	keystroke_a	a	n/a
318.0975	0.0895	636195	keystroke_n	n	n/a
318.232	0.105	636464	keystroke_s	s	n/a
318.577	0.09	637154	keystroke_c	c	n/a
318.772	0.09	637544	keystroke_r	r	n/a
318.847	0.12	637694	keystroke_i	i	n/a
318.907	0.09	637814	keystroke_p	p	n/a
319.012	0.06	638024	keystroke_t	t	n/a
319.132	0.09	638264	keystroke_Key.space	Key.space	n/a
319.237	0.075	638474	keystroke_s	s	n/a
319.357	0.09	638714	keystroke_t	t	n/a
319.477	0.105	638954	keystroke_e	e	n/a
319.672	0.09	639344	keystroke_a	a	n/a
319.777	0.105	639554	keystroke_m	m	n/a
320.002	0.105	640004	keystroke_Key.space	Key.space	n/a
320.137	0.1055	640274	keystroke_p	p	n/a
320.2575	0.09	640515	keystroke_a	a	n/a
320.3325	0.075	640665	keystroke_s	s	n/a
320.4825	0.075	640965	keystroke_s	s	n/a
320.8875	0.075	641775	keystroke_e	e	n/a
321.0075	0.09	642015	keystroke_n	n	n/a
321.1125	0.06	642225	keystroke_g	g	n/a
321.2025	0.105	642405	keystroke_e	e	n/a
321.2775	0.09	642555	keystroke_r	r	n/a
321.4125	0.075	642825	keystroke_Key.space	Key.space	n/a
321.6825	0.09	643365	keystroke_t	t	n/a
321.8775	0.06	643755	keystroke_e	e	n/a
322.0725	0.09	644145	keystroke_x	x	n/a
322.2375	0.075	644475	keystroke_t	t	n/a
322.3275	0.12	644655	keystroke_i	i	n/a
322.4175	0.06	644835	keystroke_l	l	n/a
322.5075	0.06	645015	keystroke_e	e	n/a
322.672	0.12	645344	keystroke_s	s	n/a
322.747	0.105	645494	keystroke_Key.enter	Key.enter	n/a
322.86	5.3665	645720	prompt	n/a	raises heather tuition galleries\n
323.392	0.09	646784	keystroke_r	r	n/a
323.542	0.09	647084	keystroke_a	a	n/a
323.647	0.09	647294	keystroke_i	i	n/a
323.722	0.06	647444	keystroke_s	s	n/a
323.857	0.075	647714	keystroke_e	e	n/a
324.037	0.105	648074	keystroke_s	s	n/a
324.127	0.09	648254	keystroke_Key.space	Key.space	n/a
324.3825	0.09	648765	keystroke_h	h	n/a
324.4275	0.075	648855	keystroke_e	e	n/a
324.5925	0.045	649185	keystroke_a	a	n/a
324.7275	0.06	649455	keystroke_t	t	n/a
324.8175	0.09	649635	keystroke_h	h	n/a
324.8775	0.075	649755	keystroke_e	e	n/a
324.9375	0.075	649875	keystroke_r	r	n/a
325.0275	0.12	650055	keystroke_Key.space	Key.space	n/a
325.4625	0.105	650925	keystroke_t	t	n/a
325.5525	0.105	651105	keystroke_u	u	n/a
325.6875	0.075	651375	keystroke_i	i	n/a
326.1225	0.075	652245	keystroke_t	t	n/a
326.2275	0.12	652455	keystroke_i	i	n/a
326.4225	0.105	652845	keystroke_o	o	n/a
326.4825	0.12	652965	keystroke_n	n	n/a
326.7365	0.076	653473	keystroke_Key.space	Key.space	n/a
326.9175	0.075	653835	keystroke_g	g	n/a
327.0975	0.075	654195	keystroke_a	a	n/a
327.1575	0.06	654315	keystroke_l	l	n/a
327.2775	0.09	654555	keystroke_l	l	n/a
327.3825	0.09	654765	keystroke_e	e	n/a
327.4425	0.09	654885	keystroke_r	r	n/a
327.5775	0.105	655155	keystroke_i	i	n/a
327.8775	0.06	655755	keystroke_e	e	n/a
328.0425	0.09	656085	keystroke_s	s	n/a
328.1325	0.09	656265	keystroke_Key.enter	Key.enter	n/a
328.234	5.99	656468	prompt	n/a	parish nicaragua elite sight\n
328.852	0.12	657704	keystroke_p	p	n/a
328.912	0.135	657824	keystroke_a	a	n/a
329.0775	0.1045	658155	keystroke_r	r	n/a
329.227	0.105	658454	keystroke_i	i	n/a
329.362	0.0905	658724	keystroke_s	s	n/a
329.467	0.09	658934	keystroke_h	h	n/a
329.5725	0.105	659145	keystroke_Key.space	Key.space	n/a
329.767	0.09	659534	keystroke_n	n	n/a
330.217	0.075	660434	keystroke_i	i	n/a
330.2775	0.0895	660555	keystroke_c	c	n/a
330.457	0.09	660914	keystroke_a	a	n/a
330.637	0.09	661274	keystroke_r	r	n/a
330.772	0.12	661544	keystroke_a	a	n/a
331.162	0.075	662324	keystroke_g	g	n/a
331.267	0.105	662534	keystroke_u	u	n/a
331.387	0.075	662774	keystroke_a	a	n/a
331.522	0.105	663044	keystroke_Key.space	Key.space	n/a
331.852	0.135	663704	keystroke_l	l	n/a
331.957	0.105	663914	keystroke_i	i	n/a
332.407	0.06	664814	keystroke_Key.backspace	Key.backspace	n/a
332.572	0.06	665144	keystroke_Key.backspace	Key.backspace	n/a
332.647	0.09	665294	keystroke_e	e	n/a
332.797	0.105	665594	keystroke_l	l	n/a
332.842	0.105	665684	keystroke_i	i	n/a
332.932	0.09	665864	keystroke_t	t	n/a
333.232	0.09	666464	keystroke_e	e	n/a
333.352	0.09	666704	keystroke_Key.space	Key.space	n/a
333.577	0.075	667154	keystroke_s	s	n/a
333.682	0.09	667364	keystroke_i	i	n/a
333.787	0.075	667574	keystroke_g	g	n/a
333.877	0.105	667754	keystroke_h	h	n/a
333.967	0.075	667934	keystroke_t	t	n/a
334.117	0.105	668234	keystroke_Key.enter	Key.enter	n/a
334.2285	7.706	668457	prompt	n/a	disclaimers who's pack retro\n
334.732	0.09	669464	keystroke_d	d	n/a
334.987	0.075	669974	keystroke_i	i	n/a
335.167	0.06	670334	keystroke_s	s	n/a
335.452	0.075	670904	keystroke_c	c	n/a
335.542	0.105	671084	keystroke_l	l	n/a
335.692	0.09	671384	keystroke_a	a	n/a
336.262	0.105	672524	keystroke_i	i	n/a
336.337	0.105	672674	keystroke_m	m	n/a
336.472	0.12	672944	keystroke_e	e	n/a
336.577	0.09	673154	keystroke_r	r	n/a
336.712	0.105	673424	keystroke_s	s	n/a
336.802	0.105	673604	keystroke_Key.space	Key.space	n/a
337.072	0.075	674144	keystroke_w	w	n/a
337.162	0.105	674324	keystroke_h	h	n/a
337.222	0.12	674444	keystroke_o	o	n/a
337.612	0.105	675224	keystroke_;	;	n/a
337.867	0.09	675734	keystroke_s	s	n/a
338.242	0.12	676484	keystroke_Key.backspace	Key.backspace	n/a
338.512	0.075	677024	keystroke_Key.backspace	Key.backspace	n/a
339.352	0.075	678704	keystroke_'	'	n/a
339.487	0.105	678974	keystroke_s	s	n/a
339.712	0.12	679424	keystroke_Key.space	Key.space	n/a
340.192	0.135	680384	keystroke_p	p	n/a
340.312	0.075	680624	keystroke_a	a	n/a
340.477	0.075	680954	keystroke_c	c	n/a
340.567	0.09	681134	keystroke_k	k	n/a
340.867	0.045	681734	keystroke_Key.space	Key.space	n/a
341.152	0.06	682304	keystroke_r	r	n/a
341.272	0.06	682544	keystroke_e	e	n/a
341.378	0.074	682756	keystroke_t	t	n/a
341.557	0.075	683114	keystroke_r	r	n/a
341.647	0.075	683294	keystroke_o	o	n/a
341.857	0.075	683714	keystroke_Key.enter	Key.enter	n/a
341.9415	6.923	683883	prompt	n/a	relate dialogue returns backed\n
342.532	0.12	685064	keystroke_r	r	n/a
342.653	0.089	685306	keystroke_e	e	n/a
342.757	0.121	685514	keystroke_l	l	n/a
342.937	0.09	685874	keystroke_a	a	n/a
343.102	0.105	686204	keystroke_t	t	n/a
343.192	0.06	686384	keystroke_e	e	n/a
343.282	0.09	686564	keystroke_Key.space	Key.space	n/a
343.537	0.09	687074	keystroke_d	d	n/a
343.612	0.09	687224	keystroke_i	i	n/a
343.733	0.104	687466	keystroke_a	a	n/a
343.852	0.075	687704	keystroke_l	l	n/a
344.047	0.12	688094	keystroke_o	o	n/a
344.122	0.09	688244	keystroke_u	u	n/a
344.212	0.061	688424	keystroke_g	g	n/a
345.217	0.06	690434	keystroke_Key.backspace	Key.backspace	n/a
345.352	0.075	690704	keystroke_Key.backspace	Key.backspace	n/a
345.563	0.089	691126	keystroke_g	g	n/a
345.667	0.091	691334	keystroke_u	u	n/a
345.787	0.075	691574	keystroke_e	e	n/a
346.012	0.105	692024	keystroke_Key.space	Key.space	n/a
346.463	0.074	692926	keystroke_r	r	n/a
346.553	0.074	693106	keystroke_e	e	n/a
346.778	0.059	693556	keystroke_u	u	n/a
347.137	0.075	694274	keystroke_Key.backspace	Key.backspace	n/a
347.258	0.06	694516	keystroke_t	t	n/a
347.332	0.075	694664	keystroke_u	u	n/a
347.422	0.075	694844	keystroke_r	r	n/a
347.528	0.089	695056	keystroke_n	n	n/a
347.632	0.075	695264	keystroke_s	s	n/a
347.722	0.09	695444	keystroke_Key.space	Key.space	n/a
348.1875	0.075	696375	keystroke_b	b	n/a
348.2325	0.09	696465	keystroke_a	a	n/a
348.3975	0.09	696795	keystroke_c	c	n/a
348.5025	0.09	697005	keystroke_k	k	n/a
348.5775	0.105	697155	keystroke_e	e	n/a
348.6375	0.09	697275	keystroke_d	d	n/a
348.7725	0.09	697545	keystroke_Key.enter	Key.enter	n/a
348.869	4.87	697738	prompt	n/a	jews denial folder possible\n
349.5225	0.105	699045	keystroke_j	j	n/a
349.6275	0.06	699255	keystroke_e	e	n/a
349.7775	0.075	699555	keystroke_w	w	n/a
349.9575	0.105	699915	keystroke_s	s	n/a
350.0775	0.075	700155	keystroke_Key.space	Key.space	n/a
350.3025	0.075	700605	keystroke_d	d	n/a
350.4225	0.09	700845	keystroke_e	e	n/a
350.5275	0.105	701055	keystroke_n	n	n/a
350.648	0.0745	701296	keystroke_i	i	n/a
350.7375	0.09	701475	keystroke_a	a	n/a
350.8725	0.075	701745	keystroke_l	l	n/a
351.0975	0.09	702195	keystroke_Key.space	Key.space	n/a
351.4425	0.09	702885	keystroke_o	o	n/a
351.7425	0.09	703485	keystroke_Key.backspace	Key.backspace	n/a
351.8175	0.0755	703635	keystroke_f	f	n/a
351.9375	0.09	703875	keystroke_o	o	n/a
352.0875	0.105	704175	keystroke_l	l	n/a
352.1625	0.0755	704325	keystroke_d	d	n/a
352.268	0.105	704536	keystroke_e	e	n/a
352.328	0.089	704656	keystroke_r	r	n/a
352.432	0.075	704864	keystroke_Key.space	Key.space	n/a
352.643	0.15	705286	keystroke_p	p	n/a
352.763	0.12	705526	keystroke_o	o	n/a
352.808	0.059	705616	keystroke_s	s	n/a
352.973	0.09	705946	keystroke_s	s	n/a
353.167	0.075	706334	keystroke_i	i	n/a
353.303	0.075	706606	keystroke_b	b	n/a
353.408	0.09	706816	keystroke_l	l	n/a
353.528	0.09	707056	keystroke_e	e	n/a
353.647	0.09	707294	keystroke_Key.enter	Key.enter	n/a
353.7425	6.7765	707485	prompt	n/a	incl triple artistic banana\n
354.382	0.105	708764	keystroke_i	i	n/a
354.532	0.09	709064	keystroke_c	c	n/a
354.997	0.075	709994	keystroke_Key.backspace	Key.backspace	n/a
355.162	0.09	710324	keystroke_n	n	n/a
355.267	0.075	710534	keystroke_c	c	n/a
355.372	0.09	710744	keystroke_l	l	n/a
355.597	0.075	711194	keystroke_Key.space	Key.space	n/a
355.8675	0.06	711735	keystroke_t	t	n/a
356.0325	0.075	712065	keystroke_r	r	n/a
356.0775	0.12	712155	keystroke_i	i	n/a
356.1975	0.1205	712395	keystroke_p	p	n/a
356.288	0.09	712576	keystroke_l	l	n/a
356.393	0.075	712786	keystroke_e	e	n/a
356.558	0.075	713116	keystroke_Key.space	Key.space	n/a
356.7375	0.105	713475	keystroke_a	a	n/a
356.9625	0.075	713925	keystroke_r	r	n/a
357.1725	0.06	714345	keystroke_t	t	n/a
357.2775	0.105	714555	keystroke_i	i	n/a
357.4875	0.06	714975	keystroke_s	s	n/a
357.5625	0.09	715125	keystroke_i	i	n/a
357.6825	0.06	715365	keystroke_t	t	n/a
357.8925	0.075	715785	keystroke_c	c	n/a
357.9375	0.09	715875	keystroke_i	i	n/a
358.403	0.075	716806	keystroke_Key.backspace	Key.backspace	n/a
358.538	0.09	717076	keystroke_Key.backspace	Key.backspace	n/a
358.643	0.09	717286	keystroke_i	i	n/a
358.733	0.09	717466	keystroke_c	c	n/a
358.883	0.09	717766	keystroke_Key.space	Key.space	n/a
359.183	0.075	718366	keystroke_b	b	n/a
359.258	0.06	718516	keystroke_a	a	n/a
359.378	0.09	718756	keystroke_n	n	n/a
359.438	0.09	718876	keystroke_a	a	n/a
359.603	0.075	719206	keystroke_a	a	n/a
360.008	0.09	720016	keystroke_Key.backspace	Key.backspace	n/a
360.188	0.075	720376	keystroke_n	n	n/a
360.233	0.09	720466	keystroke_a	a	n/a
360.4725	0.045	720945	keystroke_Key.enter	Key.enter	n/a
360.525	4.749	721050	prompt	n/a	audi carriers console hill\n
361.1475	0.09	722295	keystroke_a	a	n/a
361.2525	0.09	722505	keystroke_u	u	n/a
361.3575	0.09	722715	keystroke_d	d	n/a
361.4775	0.06	722955	keystroke_o	o	n/a
361.7925	0.075	723585	keystroke_Key.backspace	Key.backspace	n/a
361.9125	0.075	723825	keystroke_i	i	n/a
362.0175	0.105	724035	keystroke_Key.space	Key.space	n/a
362.1675	0.09	724335	keystroke_c	c	n/a
362.3175	0.09	724635	keystroke_a	a	n/a
362.4525	0.075	724905	keystroke_r	r	n/a
362.5875	0.075	725175	keystroke_r	r	n/a
362.6925	0.09	725385	keystroke_i	i	n/a
362.7975	0.09	725595	keystroke_e	e	n/a
362.8575	0.075	725715	keystroke_r	r	n/a
362.9925	0.105	725985	keystroke_s	s	n/a
363.1125	0.075	726225	keystroke_Key.space	Key.space	n/a
363.4875	0.09	726975	keystroke_c	c	n/a
363.5475	0.09	727095	keystroke_o	o	n/a
363.5925	0.09	727185	keystroke_n	n	n/a
363.6975	0.06	727395	keystroke_s	s	n/a
363.7725	0.06	727545	keystroke_o	o	n/a
363.9525	0.09	727905	keystroke_l	l	n/a
364.0875	0.075	728175	keystroke_e	e	n/a
364.1925	0.075	728385	keystroke_Key.space	Key.space	n/a
364.4325	0.075	728865	keystroke_h	h	n/a
364.6575	0.09	729315	keystroke_i	i	n/a
364.7475	0.09	729495	keystroke_l	l	n/a
364.9275	0.09	729855	keystroke_l	l	n/a
365.2275	0.045	730455	keystroke_Key.enter	Key.enter	n/a
365.279	5.6505	730558	prompt	n/a	warriors spice masters sandra\n
365.9475	0.075	731895	keystroke_e	e	n/a
366.1425	0.075	732285	keystroke_a	a	n/a
366.4125	0.06	732825	keystroke_Key.backspace	Key.backspace	n/a
366.5475	0.06	733095	keystroke_Key.backspace	Key.backspace	n/a
366.6225	0.075	733245	keystroke_w	w	n/a
366.7875	0.075	733575	keystroke_a	a	n/a
366.8775	0.075	733755	keystroke_r	r	n/a
367.0275	0.09	734055	keystroke_r	r	n/a
367.1325	0.135	734265	keystroke_i	i	n/a
367.2375	0.09	734475	keystroke_o	o	n/a
367.3875	0.075	734775	keystroke_r	r	n/a
367.5075	0.105	735015	keystroke_s	s	n/a
367.6275	0.105	735255	keystroke_Key.space	Key.space	n/a
367.8675	0.09	735735	keystroke_s	s	n/a
368.0025	0.06	736005	keystroke_p	p	n/a
368.0175	0.09	736035	keystroke_i	i	n/a
368.1525	0.105	736305	keystroke_c	c	n/a
368.378	0.105	736756	keystroke_e	e	n/a
368.527	0.075	737054	keystroke_Key.space	Key.space	n/a
368.693	0.075	737386	keystroke_m	m	n/a
368.753	0.075	737506	keystroke_a	a	n/a
368.933	0.09	737866	keystroke_s	s	n/a
369.098	0.075	738196	keystroke_t	t	n/a
369.203	0.09	738406	keystroke_e	e	n/a
369.263	0.09	738526	keystroke_r	r	n/a
369.443	0.075	738886	keystroke_s	s	n/a
369.533	0.104	739066	keystroke_Key.space	Key.space	n/a
369.923	0.06	739846	keystroke_s	s	n/a
370.073	0.09	740146	keystroke_a	a	n/a
370.208	0.045	740416	keystroke_n	n	n/a
370.268	0.075	740536	keystroke_d	d	n/a
370.463	0.09	740926	keystroke_r	r	n/a
370.703	0.075	741406	keystroke_a	a	n/a
370.868	0.06	741736	keystroke_Key.enter	Key.enter	n/a
370.9345	7.061	741869	prompt	n/a	accommodate handle going electoral\n
371.483	0.075	742966	keystroke_a	a	n/a
371.663	0.075	743326	keystroke_c	c	n/a
371.813	0.045	743626	keystroke_c	c	n/a
371.963	0.105	743926	keystroke_o	o	n/a
372.218	0.105	744436	keystroke_m	m	n/a
373.583	0.105	747166	keystroke_m	m	n/a
373.718	0.09	747436	keystroke_o	o	n/a
373.883	0.105	747766	keystroke_d	d	n/a
374.033	0.075	748066	keystroke_a	a	n/a
374.213	0.045	748426	keystroke_t	t	n/a
374.243	0.075	748486	keystroke_e	e	n/a
374.423	0.075	748846	keystroke_Key.space	Key.space	n/a
374.768	0.06	749536	keystroke_h	h	n/a
374.843	0.09	749686	keystroke_a	a	n/a
374.948	0.12	749896	keystroke_n	n	n/a
375.053	0.075	750106	keystroke_d	d	n/a
375.188	0.105	750376	keystroke_l	l	n/a
375.308	0.075	750616	keystroke_e	e	n/a
375.428	0.09	750856	keystroke_Key.space	Key.space	n/a
375.773	0.075	751546	keystroke_g	g	n/a
375.818	0.105	751636	keystroke_o	o	n/a
375.878	0.075	751756	keystroke_i	i	n/a
376.073	0.105	752146	keystroke_n	n	n/a
376.163	0.105	752326	keystroke_g	g	n/a
376.283	0.09	752566	keystroke_Key.space	Key.space	n/a
376.613	0.075	753226	keystroke_e	e	n/a
376.718	0.09	753436	keystroke_l	l	n/a
376.823	0.09	753646	keystroke_e	e	n/a
376.928	0.075	753856	keystroke_c	c	n/a
377.123	0.06	754246	keystroke_t	t	n/a
377.288	0.075	754576	keystroke_o	o	n/a
377.438	0.09	754876	keystroke_r	r	n/a
377.588	0.105	755176	keystroke_a	a	n/a
377.678	0.075	755356	keystroke_l	l	n/a
377.918	0.075	755836	keystroke_Key.enter	Key.enter	n/a
378	5.4395	756000	prompt	n/a	browser executed holder horror\n
378.608	0.089	757216	keystroke_b	b	n/a
378.712	0.075	757424	keystroke_r	r	n/a
378.848	0.089	757696	keystroke_o	o	n/a
378.952	0.075	757904	keystroke_w	w	n/a
379.162	0.091	758324	keystroke_s	s	n/a
379.357	0.075	758714	keystroke_e	e	n/a
379.417	0.075	758834	keystroke_r	r	n/a
379.507	0.09	759014	keystroke_Key.space	Key.space	n/a
379.747	0.06	759494	keystroke_e	e	n/a
379.973	0.104	759946	keystroke_x	x	n/a
380.197	0.1055	760394	keystroke_e	e	n/a
380.3625	0.105	760725	keystroke_c	c	n/a
381.0675	0.09	762135	keystroke_u	u	n/a
381.1425	0.06	762285	keystroke_t	t	n/a
381.2325	0.135	762465	keystroke_e	e	n/a
381.3375	0.075	762675	keystroke_d	d	n/a
381.4425	0.09	762885	keystroke_Key.space	Key.space	n/a
381.7285	0.075	763457	keystroke_h	h	n/a
381.8175	0.105	763635	keystroke_o	o	n/a
382.0275	0.075	764055	keystroke_l	l	n/a
382.1035	0.089	764207	keystroke_d	d	n/a
382.2375	0.105	764475	keystroke_e	e	n/a
382.3125	0.06	764625	keystroke_r	r	n/a
382.4025	0.105	764805	keystroke_Key.space	Key.space	n/a
382.6275	0.0905	765255	keystroke_h	h	n/a
382.733	0.075	765466	keystroke_o	o	n/a
382.838	0.06	765676	keystroke_r	r	n/a
382.958	0.09	765916	keystroke_r	r	n/a
383.078	0.09	766156	keystroke_o	o	n/a
383.183	0.09	766366	keystroke_r	r	n/a
383.363	0.075	766726	keystroke_Key.enter	Key.enter	n/a
383.4445	5.6505	766889	prompt	n/a	thinking voltage ugly isolated\n
383.978	0.075	767956	keystroke_t	t	n/a
384.023	0.12	768046	keystroke_h	h	n/a
384.113	0.12	768226	keystroke_i	i	n/a
384.218	0.135	768436	keystroke_n	n	n/a
384.368	0.06	768736	keystroke_k	k	n/a
384.533	0.105	769066	keystroke_i	i	n/a
384.608	0.09	769216	keystroke_n	n	n/a
384.683	0.075	769366	keystroke_g	g	n/a
384.788	0.09	769576	keystroke_Key.space	Key.space	n/a
385.403	0.09	770806	keystroke_v	v	n/a
385.478	0.075	770956	keystroke_o	o	n/a
385.658	0.06	771316	keystroke_l	l	n/a
385.973	0.075	771946	keystroke_t	t	n/a
386.078	0.075	772156	keystroke_a	a	n/a
386.2575	0.06	772515	keystroke_g	g	n/a
386.3185	0.074	772637	keystroke_e	e	n/a
386.4525	0.09	772905	keystroke_Key.space	Key.space	n/a
386.7835	0.09	773567	keystroke_u	u	n/a
386.9175	0.061	773835	keystroke_g	g	n/a
386.9795	0.103	773959	keystroke_l	l	n/a
387.1125	0.09	774225	keystroke_y	y	n/a
387.2775	0.105	774555	keystroke_Key.space	Key.space	n/a
387.8025	0.121	775605	keystroke_i	i	n/a
387.9075	0.09	775815	keystroke_s	s	n/a
388.1325	0.061	776265	keystroke_o	o	n/a
388.2985	0.074	776597	keystroke_l	l	n/a
388.4035	0.089	776807	keystroke_a	a	n/a
388.5675	0.06	777135	keystroke_t	t	n/a
388.6425	0.15	777285	keystroke_e	e	n/a
388.8235	0.06	777647	keystroke_d	d	n/a
389.0175	0.075	778035	keystroke_Key.enter	Key.enter	n/a
389.1005	4.029	778201	prompt	n/a	then creates last licensed\n
389.5875	0.06	779175	keystroke_t	t	n/a
389.6785	0.074	779357	keystroke_h	h	n/a
389.7675	0.075	779535	keystroke_e	e	n/a
389.8585	0.0895	779717	keystroke_n	n	n/a
389.963	0.09	779926	keystroke_Key.space	Key.space	n/a
390.203	0.06	780406	keystroke_c	c	n/a
390.383	0.06	780766	keystroke_r	r	n/a
390.413	0.075	780826	keystroke_e	e	n/a
390.593	0.06	781186	keystroke_a	a	n/a
390.713	0.06	781426	keystroke_t	t	n/a
390.833	0.075	781666	keystroke_e	e	n/a
391.028	0.06	782056	keystroke_s	s	n/a
391.073	0.09	782146	keystroke_Key.space	Key.space	n/a
391.268	0.075	782536	keystroke_l	l	n/a
391.328	0.105	782656	keystroke_a	a	n/a
391.388	0.09	782776	keystroke_s	s	n/a
391.613	0.045	783226	keystroke_t	t	n/a
391.688	0.075	783376	keystroke_Key.space	Key.space	n/a
392.018	0.105	784036	keystroke_l	l	n/a
392.0475	0.12	784095	keystroke_i	i	n/a
392.153	0.1045	784306	keystroke_c	c	n/a
392.288	0.0895	784576	keystroke_e	e	n/a
392.4075	0.0905	784815	keystroke_n	n	n/a
392.513	0.09	785026	keystroke_s	s	n/a
392.6925	0.0755	785385	keystroke_e	e	n/a
392.9025	0.09	785805	keystroke_d	d	n/a
393.0225	0.105	786045	keystroke_Key.enter	Key.enter	n/a
393.1335	9.131	786267	prompt	n/a	loud powell keywords netscape\n
393.6375	0.105	787275	keystroke_l	l	n/a
393.8625	0.12	787725	keystroke_o	o	n/a
393.9375	0.105	787875	keystroke_u	u	n/a
394.2075	0.06	788415	keystroke_f	f	n/a
394.3125	0.12	788625	keystroke_Key.space	Key.space	n/a
394.6725	0.135	789345	keystroke_p	p	n/a
394.7625	0.135	789525	keystroke_o	o	n/a
395.5125	0.045	791025	keystroke_Key.backspace	Key.backspace	n/a
395.8275	0.075	791655	keystroke_Key.backspace	Key.backspace	n/a
396.0075	0.075	792015	keystroke_Key.backspace	Key.backspace	n/a
396.3675	0.09	792735	keystroke_Key.backspace	Key.backspace	n/a
396.5025	0.09	793005	keystroke_d	d	n/a
396.6525	0.12	793305	keystroke_Key.space	Key.space	n/a
396.8025	0.135	793605	keystroke_p	p	n/a
396.8925	0.105	793785	keystroke_o	o	n/a
397.2975	0.075	794595	keystroke_w	w	n/a
397.4925	0.075	794985	keystroke_e	e	n/a
397.7625	0.06	795525	keystroke_l	l	n/a
397.9725	0.075	795945	keystroke_l	l	n/a
398.1975	0.105	796395	keystroke_Key.space	Key.space	n/a
398.6325	0.12	797265	keystroke_k	k	n/a
398.7675	0.09	797535	keystroke_e	e	n/a
398.9475	0.09	797895	keystroke_y	y	n/a
399.2625	0.09	798525	keystroke_w	w	n/a
399.3825	0.09	798765	keystroke_o	o	n/a
399.4875	0.06	798975	keystroke_r	r	n/a
399.652	0.09	799304	keystroke_d	d	n/a
399.728	0.119	799456	keystroke_s	s	n/a
399.832	0.09	799664	keystroke_Key.space	Key.space	n/a
400.417	0.105	800834	keystroke_n	n	n/a
400.748	0.105	801496	keystroke_e	e	n/a
400.822	0.09	801644	keystroke_t	t	n/a
401.078	0.075	802156	keystroke_c	c	n/a
401.4825	0.1045	802965	keystroke_Key.backspace	Key.backspace	n/a
401.573	0.075	803146	keystroke_s	s	n/a
401.648	0.089	803296	keystroke_c	c	n/a
401.783	0.09	803566	keystroke_a	a	n/a
401.857	0.076	803714	keystroke_p	p	n/a
401.993	0.075	803986	keystroke_e	e	n/a
402.187	0.075	804374	keystroke_Key.enter	Key.enter	n/a
402.2695	8.485	804539	prompt	n/a	styles consolidated composite uzbekistan\n
402.833	0.089	805666	keystroke_s	s	n/a
403.073	0.075	806146	keystroke_t	t	n/a
403.268	0.06	806536	keystroke_y	y	n/a
403.342	0.091	806684	keystroke_l	l	n/a
403.507	0.06	807014	keystroke_e	e	n/a
403.717	0.09	807434	keystroke_s	s	n/a
403.927	0.105	807854	keystroke_Key.space	Key.space	n/a
404.378	0.075	808756	keystroke_c	c	n/a
404.423	0.105	808846	keystroke_o	o	n/a
404.483	0.09	808966	keystroke_n	n	n/a
404.587	0.105	809174	keystroke_s	s	n/a
404.738	0.06	809476	keystroke_o	o	n/a
404.932	0.121	809864	keystroke_l	l	n/a
405.008	0.105	810016	keystroke_i	i	n/a
405.143	0.104	810286	keystroke_d	d	n/a
405.353	0.075	810706	keystroke_a	a	n/a
405.518	0.044	811036	keystroke_t	t	n/a
405.623	0.12	811246	keystroke_e	e	n/a
405.712	0.091	811424	keystroke_d	d	n/a
405.817	0.09	811634	keystroke_Key.space	Key.space	n/a
406.118	0.09	812236	keystroke_c	c	n/a
406.223	0.09	812446	keystroke_o	o	n/a
406.253	0.104	812506	keystroke_m	m	n/a
406.4175	0.165	812835	keystroke_p	p	n/a
406.8375	0.09	813675	keystroke_o	o	n/a
406.9425	0.105	813885	keystroke_s	s	n/a
407.3025	0.12	814605	keystroke_i	i	n/a
407.4375	0.09	814875	keystroke_t	t	n/a
407.7675	0.09	815535	keystroke_e	e	n/a
407.9625	0.075	815925	keystroke_Key.space	Key.space	n/a
408.308	0.12	816616	keystroke_u	u	n/a
408.488	0.09	816976	keystroke_z	z	n/a
408.833	0.075	817666	keystroke_b	b	n/a
409.208	0.075	818416	keystroke_e	e	n/a
409.5525	0.135	819105	keystroke_k	k	n/a
409.7775	0.105	819555	keystroke_i	i	n/a
410.0025	0.09	820005	keystroke_s	s	n/a
410.1375	0.0755	820275	keystroke_t	t	n/a
410.318	0.09	820636	keystroke_a	a	n/a
410.393	0.12	820786	keystroke_n	n	n/a
410.678	0.075	821356	keystroke_Key.enter	Key.enter	n/a
410.759	5.5	821518	prompt	n/a	ebooks ellis wordpress baker\n
411.368	0.09	822736	keystroke_e	e	n/a
411.518	0.09	823036	keystroke_b	b	n/a
411.683	0.075	823366	keystroke_o	o	n/a
411.833	0.135	823666	keystroke_o	o	n/a
411.923	0.09	823846	keystroke_k	k	n/a
412.073	0.09	824146	keystroke_s	s	n/a
412.178	0.075	824356	keystroke_Key.space	Key.space	n/a
412.523	0.075	825046	keystroke_e	e	n/a
412.643	0.105	825286	keystroke_l	l	n/a
412.823	0.12	825646	keystroke_l	l	n/a
412.913	0.09	825826	keystroke_i	i	n/a
413.048	0.09	826096	keystroke_s	s	n/a
413.183	0.105	826366	keystroke_Key.space	Key.space	n/a
413.528	0.09	827056	keystroke_w	w	n/a
413.603	0.09	827206	keystroke_o	o	n/a
413.738	0.045	827476	keystroke_r	r	n/a
413.888	0.09	827776	keystroke_d	d	n/a
414.008	0.105	828016	keystroke_p	p	n/a
414.128	0.0895	828256	keystroke_r	r	n/a
414.2325	0.06	828465	keystroke_e	e	n/a
414.4425	0.075	828885	keystroke_s	s	n/a
414.6075	0.075	829215	keystroke_s	s	n/a
414.6975	0.09	829395	keystroke_Key.space	Key.space	n/a
415.0725	0.045	830145	keystroke_w	w	n/a
415.3725	0.06	830745	keystroke_Key.backspace	Key.backspace	n/a
415.5375	0.09	831075	keystroke_b	b	n/a
415.6125	0.075	831225	keystroke_a	a	n/a
415.7625	0.12	831525	keystroke_k	k	n/a
415.8975	0.09	831795	keystroke_e	e	n/a
416.0025	0.075	832005	keystroke_r	r	n/a
416.1825	0.075	832365	keystroke_Key.enter	Key.enter	n/a
416.2655	6.4295	832531	prompt	n/a	discussed nutrition flying wider\n
416.8275	0.09	833655	keystroke_d	d	n/a
416.9775	0.106	833955	keystroke_i	i	n/a
417.0835	0.074	834167	keystroke_s	s	n/a
417.2925	0.105	834585	keystroke_c	c	n/a
417.4285	0.089	834857	keystroke_u	u	n/a
417.8175	0.09	835635	keystroke_s	s	n/a
417.9825	0.075	835965	keystroke_s	s	n/a
418.177	0.0755	836354	keystroke_e	e	n/a
418.2225	0.12	836445	keystroke_d	d	n/a
418.3575	0.06	836715	keystroke_Key.space	Key.space	n/a
418.6725	0.075	837345	keystroke_n	n	n/a
418.9275	0.075	837855	keystroke_u	u	n/a
419.0175	0.09	838035	keystroke_t	t	n/a
419.2275	0.075	838455	keystroke_r	r	n/a
419.4075	0.09	838815	keystroke_a	a	n/a
419.6025	0.045	839205	keystroke_t	t	n/a
419.8425	0.075	839685	keystroke_Key.backspace	Key.backspace	n/a
420.0075	0.09	840015	keystroke_Key.backspace	Key.backspace	n/a
420.1425	0.09	840285	keystroke_i	i	n/a
420.2325	0.075	840465	keystroke_t	t	n/a
420.3225	0.09	840645	keystroke_i	i	n/a
420.4575	0.12	840915	keystroke_o	o	n/a
420.5325	0.105	841065	keystroke_n	n	n/a
420.6675	0.12	841335	keystroke_Key.space	Key.space	n/a
421.0575	0.09	842115	keystroke_f	f	n/a
421.1325	0.12	842265	keystroke_l	l	n/a
421.4175	0.075	842835	keystroke_y	y	n/a
421.5825	0.09	843165	keystroke_i	i	n/a
421.6125	0.09	843225	keystroke_n	n	n/a
421.7175	0.075	843435	keystroke_g	g	n/a
421.8225	0.09	843645	keystroke_Key.space	Key.space	n/a
422.1075	0.075	844215	keystroke_w	w	n/a
422.1975	0.09	844395	keystroke_i	i	n/a
422.3025	0.09	844605	keystroke_d	d	n/a
422.3935	0.104	844787	keystroke_e	e	n/a
422.4675	0.09	844935	keystroke_r	r	n/a
422.6025	0.09	845205	keystroke_Key.enter	Key.enter	n/a
422.699	5.95	845398	prompt	n/a	announces to acre concentrations\n
423.3975	0.105	846795	keystroke_a	a	n/a
423.4875	0.075	846975	keystroke_n	n	n/a
423.6375	0.06	847275	keystroke_n	n	n/a
423.7575	0.135	847515	keystroke_o	o	n/a
423.8325	0.075	847665	keystroke_u	u	n/a
424.0275	0.09	848055	keystroke_n	n	n/a
424.1025	0.12	848205	keystroke_c	c	n/a
424.2675	0.075	848535	keystroke_e	e	n/a
424.4475	0.09	848895	keystroke_s	s	n/a
424.5675	0.09	849135	keystroke_Key.space	Key.space	n/a
424.8825	0.075	849765	keystroke_t	t	n/a
424.9425	0.12	849885	keystroke_o	o	n/a
425.0775	0.12	850155	keystroke_Key.space	Key.space	n/a
425.2575	0.09	850515	keystroke_a	a	n/a
425.4375	0.075	850875	keystroke_c	c	n/a
425.6025	0.105	851205	keystroke_r	r	n/a
425.6925	0.09	851385	keystroke_e	e	n/a
425.9775	0.12	851955	keystroke_Key.space	Key.space	n/a
426.3375	0.105	852675	keystroke_c	c	n/a
426.4435	0.119	852887	keystroke_o	o	n/a
426.5025	0.105	853005	keystroke_n	n	n/a
426.7875	0.09	853575	keystroke_c	c	n/a
426.9535	0.105	853907	keystroke_e	e	n/a
427.4025	0.075	854805	keystroke_n	n	n/a
427.5225	0.09	855045	keystroke_t	t	n/a
427.7175	0.09	855435	keystroke_r	r	n/a
427.8375	0.09	855675	keystroke_a	a	n/a
428.0035	0.059	856007	keystroke_t	t	n/a
428.0635	0.074	856127	keystroke_i	i	n/a
428.1075	0.15	856215	keystroke_o	o	n/a
428.2275	0.09	856455	keystroke_n	n	n/a
428.3925	0.06	856785	keystroke_s	s	n/a
428.5575	0.09	857115	keystroke_Key.enter	Key.enter	n/a
428.6535	7.751	857307	prompt	n/a	metadata capacity zoloft stakeholders\n
429.2185	0.119	858437	keystroke_m	m	n/a
429.5025	0.076	859005	keystroke_e	e	n/a
429.5935	0.075	859187	keystroke_t	t	n/a
429.7425	0.106	859485	keystroke_a	a	n/a
430.0575	0.105	860115	keystroke_d	d	n/a
430.2225	0.075	860445	keystroke_a	a	n/a
430.3425	0.076	860685	keystroke_t	t	n/a
430.5525	0.105	861105	keystroke_a	a	n/a
430.7625	0.105	861525	keystroke_Key.space	Key.space	n/a
430.9575	0.091	861915	keystroke_c	c	n/a
431.1825	0.06	862365	keystroke_a	a	n/a
431.3475	0.135	862695	keystroke_p	p	n/a
431.5725	0.091	863145	keystroke_a	a	n/a
431.7825	0.09	863565	keystroke_c	c	n/a
432.0075	0.105	864015	keystroke_i	i	n/a
432.1275	0.076	864255	keystroke_t	t	n/a
432.2325	0.09	864465	keystroke_y	y	n/a
432.4275	0.12	864855	keystroke_Key.space	Key.space	n/a
432.8935	0.089	865787	keystroke_z	z	n/a
432.9525	0.091	865905	keystroke_o	o	n/a
433.1485	0.059	866297	keystroke_l	l	n/a
433.3125	0.075	866625	keystroke_o	o	n/a
433.4935	0.089	866987	keystroke_f	f	n/a
433.6875	0.061	867375	keystroke_t	t	n/a
433.8075	0.075	867615	keystroke_Key.space	Key.space	n/a
434.1825	0.091	868365	keystroke_s	s	n/a
434.3035	0.059	868607	keystroke_t	t	n/a
434.4535	0.074	868907	keystroke_a	a	n/a
434.5435	0.105	869087	keystroke_k	k	n/a
434.6775	0.091	869355	keystroke_e	e	n/a
434.8725	0.09	869745	keystroke_Key.space	Key.space	n/a
435.2325	0.09	870465	keystroke_Key.backspace	Key.backspace	n/a
435.4575	0.106	870915	keystroke_h	h	n/a
435.5485	0.089	871097	keystroke_o	o	n/a
435.7575	0.06	871515	keystroke_l	l	n/a
435.8475	0.076	871695	keystroke_d	d	n/a
435.9685	0.105	871937	keystroke_e	e	n/a
436.0435	0.09	872087	keystroke_r	r	n/a
436.1625	0.106	872325	keystroke_s	s	n/a
436.3125	0.09	872625	keystroke_Key.enter	Key.enter	n/a
436.41	6.7445	872820	prompt	n/a	partially responding team notre\n
437.063	0.12	874126	keystroke_p	p	n/a
437.273	0.09	874546	keystroke_a	a	n/a
437.378	0.09	874756	keystroke_r	r	n/a
437.633	0.075	875266	keystroke_t	t	n/a
437.798	0.105	875596	keystroke_i	i	n/a
438.023	0.105	876046	keystroke_a	a	n/a
438.188	0.06	876376	keystroke_l	l	n/a
438.323	0.105	876646	keystroke_l	l	n/a
438.458	0.09	876916	keystroke_y	y	n/a
438.608	0.12	877216	keystroke_Key.space	Key.space	n/a
439.088	0.12	878176	keystroke_r	r	n/a
439.178	0.06	878356	keystroke_e	e	n/a
439.433	0.015	878866	keystroke_s	s	n/a
439.463	0.135	878926	keystroke_p	p	n/a
439.523	0.105	879046	keystroke_o	o	n/a
439.778	0.075	879556	keystroke_n	n	n/a
439.868	0.06	879736	keystroke_d	d	n/a
439.943	0.06	879886	keystroke_e	e	n/a
440.5725	0.09	881145	keystroke_Key.backspace	Key.backspace	n/a
440.7975	0.105	881595	keystroke_i	i	n/a
440.8425	0.09	881685	keystroke_n	n	n/a
440.9185	0.074	881837	keystroke_g	g	n/a
441.3675	0.105	882735	keystroke_Key.space	Key.space	n/a
441.5025	0.105	883005	keystroke_t	t	n/a
441.6375	0.09	883275	keystroke_e	e	n/a
441.8325	0.075	883665	keystroke_a	a	n/a
442.0125	0.105	884025	keystroke_m	m	n/a
442.1925	0.0755	884385	keystroke_Key.space	Key.space	n/a
442.433	0.09	884866	keystroke_n	n	n/a
442.524	0.119	885048	keystroke_o	o	n/a
442.628	0.06	885256	keystroke_t	t	n/a
442.808	0.105	885616	keystroke_r	r	n/a
442.883	0.135	885766	keystroke_e	e	n/a
443.093	0.06	886186	keystroke_Key.enter	Key.enter	n/a
443.1585	8.501	886317	prompt	n/a	contests muscle path accountability\n
443.738	0.09	887476	keystroke_c	c	n/a
443.798	0.12	887596	keystroke_o	o	n/a
443.873	0.09	887746	keystroke_n	n	n/a
444.158	0.1045	888316	keystroke_t	t	n/a
444.2475	0.09	888495	keystroke_e	e	n/a
444.4575	0.061	888915	keystroke_s	s	n/a
444.5325	0.075	889065	keystroke_t	t	n/a
444.7575	0.09	889515	keystroke_Key.space	Key.space	n/a
445.0575	0.09	890115	keystroke_Key.backspace	Key.backspace	n/a
445.1335	0.104	890267	keystroke_s	s	n/a
445.2675	0.105	890535	keystroke_Key.space	Key.space	n/a
445.6275	0.105	891255	keystroke_m	m	n/a
445.8825	0.06	891765	keystroke_s	s	n/a
446.243	0.105	892486	keystroke_Key.backspace	Key.backspace	n/a
446.363	0.09	892726	keystroke_u	u	n/a
446.468	0.09	892936	keystroke_s	s	n/a
446.588	0.105	893176	keystroke_c	c	n/a
446.678	0.105	893356	keystroke_l	l	n/a
446.843	0.09	893686	keystroke_e	e	n/a
447.038	0.075	894076	keystroke_Key.space	Key.space	n/a
447.233	0.09	894466	keystroke_p	p	n/a
447.293	0.09	894586	keystroke_a	a	n/a
447.473	0.09	894946	keystroke_t	t	n/a
447.713	0.09	895426	keystroke_h	h	n/a
447.953	0.12	895906	keystroke_Key.space	Key.space	n/a
448.193	0.0745	896386	keystroke_a	a	n/a
448.3575	0.075	896715	keystroke_c	c	n/a
448.5075	0.045	897015	keystroke_c	c	n/a
448.5375	0.105	897075	keystroke_o	o	n/a
448.6125	0.045	897225	keystroke_u	u	n/a
448.763	0.0895	897526	keystroke_n	n	n/a
448.868	0.0595	897736	keystroke_t	t	n/a
