onset	duration	sample	value	key	prompt_text
8.8715	11.184	17743	prompt	n/a	the quick brown fox jumps over a lazy dog\n
11.623	0.134	23246	keystroke_t	t	n/a
12.3425	0.06	24685	keystroke_h	h	n/a
12.4625	0.0905	24925	keystroke_e	e	n/a
12.627	0.09	25254	keystroke_Key.space	Key.space	n/a
12.778	0.134	25556	keystroke_q	q	n/a
12.943	0.09	25886	keystroke_u	u	n/a
13.108	0.075	26216	keystroke_i	i	n/a
13.228	0.0895	26456	keystroke_c	c	n/a
13.3775	0.09	26755	keystroke_k	k	n/a
13.4375	0.1055	26875	keystroke_Key.space	Key.space	n/a
13.6625	0.045	27325	keystroke_b	b	n/a
13.8725	0.06	27745	keystroke_r	r	n/a
14.0525	0.12	28105	keystroke_o	o	n/a
14.2025	0.09	28405	keystroke_w	w	n/a
14.3225	0.0905	28645	keystroke_n	n	n/a
14.3975	0.1045	28795	keystroke_Key.space	Key.space	n/a
14.638	0.075	29276	keystroke_f	f	n/a
14.818	0.09	29636	keystroke_o	o	n/a
15.0875	0.075	30175	keystroke_Key.space	Key.space	n/a
15.508	0.105	31016	keystroke_Key.backspace	Key.backspace	n/a
15.658	0.09	31316	keystroke_x	x	n/a
15.808	0.105	31616	keystroke_Key.space	Key.space	n/a
16.048	0.075	32096	keystroke_f	f	n/a
16.497	0.106	32994	keystroke_Key.backspace	Key.backspace	n/a
16.633	0.09	33266	keystroke_j	j	n/a
16.858	0.045	33716	keystroke_u	u	n/a
17.098	0.104	34196	keystroke_m	m	n/a
17.187	0.12	34374	keystroke_p	p	n/a
17.412	0.09	34824	keystroke_s	s	n/a
17.517	0.09	35034	keystroke_Key.space	Key.space	n/a
17.803	0.09	35606	keystroke_o	o	n/a
17.877	0.061	35754	keystroke_v	v	n/a
17.998	0.135	35996	keystroke_e	e	n/a
18.103	0.1045	36206	keystroke_r	r	n/a
18.193	0.104	36386	keystroke_Key.space	Key.space	n/a
18.282	0.165	36564	keystroke_a	a	n/a
18.402	0.105	36804	keystroke_Key.space	Key.space	n/a
18.687	0.105	37374	keystroke_l	l	n/a
18.837	0.045	37674	keystroke_a	a	n/a
19.002	0.135	38004	keystroke_z	z	n/a
19.1675	0.0755	38335	keystroke_y	y	n/a
19.258	0.1045	38516	keystroke_Key.space	Key.space	n/a
19.4525	0.045	38905	keystroke_d	d	n/a
19.5575	0.105	39115	keystroke_o	o	n/a
19.6925	0.06	39385	keystroke_g	g	n/a
19.9625	0.09	39925	keystroke_Key.enter	Key.enter	n/a
20.0595	8.8295	40119	prompt	n/a	surrey clarity marketing tied\n
20.8175	0.1045	41635	keystroke_s	s	n/a
20.997	0.0455	41994	keystroke_u	u	n/a
21.1025	0.06	42205	keystroke_r	r	n/a
21.2675	0.075	42535	keystroke_r	r	n/a
21.5975	0.0745	43195	keystroke_e	e	n/a
21.762	0.09	43524	keystroke_y	y	n/a
21.897	0.09	43794	keystroke_Key.space	Key.space	n/a
22.497	0.075	44994	keystroke_c	c	n/a
22.587	0.1205	45174	keystroke_l	l	n/a
23.0675	0.135	46135	keystroke_a	a	n/a
23.338	0.0745	46676	keystroke_r	r	n/a
23.547	0.0755	47094	keystroke_i	i	n/a
23.7565	0.09	47513	keystroke_t	t	n/a
23.9065	0.076	47813	keystroke_y	y	n/a
24.1315	0.091	48263	keystroke_Key.space	Key.space	n/a
24.642	0.09	49284	keystroke_m	m	n/a
24.702	0.135	49404	keystroke_a	a	n/a
24.777	0.105	49554	keystroke_r	r	n/a
24.942	0.225	49884	keystroke_e	e	n/a
24.957	0.09	49914	keystroke_k	k	n/a
25.152	0.12	50304	keystroke_t	t	n/a
25.3325	0.105	50665	keystroke_i	i	n/a
25.4075	0.135	50815	keystroke_n	n	n/a
25.5725	0.135	51145	keystroke_g	g	n/a
25.6925	0.134	51385	keystroke_Key.space	Key.space	n/a
26.2015	0.061	52403	keystroke_Key.backspace	Key.backspace	n/a
26.3365	0.09	52673	keystroke_Key.backspace	Key.backspace	n/a
26.5175	0.075	53035	keystroke_Key.backspace	Key.backspace	n/a
26.6365	0.075	53273	keystroke_Key.backspace	Key.backspace	n/a
26.8025	0.06	53605	keystroke_Key.backspace	Key.backspace	n/a
26.9525	0.075	53905	keystroke_Key.backspace	Key.backspace	n/a
27.1315	0.075	54263	keystroke_Key.backspace	Key.backspace	n/a
27.4025	0.104	54805	keystroke_k	k	n/a
27.4915	0.106	54983	keystroke_e	e	n/a
27.5815	0.0755	55163	keystroke_t	t	n/a
27.702	0.12	55404	keystroke_i	i	n/a
27.807	0.105	55614	keystroke_n	n	n/a
27.927	0.09	55854	keystroke_g	g	n/a
28.002	0.1055	56004	keystroke_Key.space	Key.space	n/a
28.1975	0.105	56395	keystroke_t	t	n/a
28.3325	0.09	56665	keystroke_i	i	n/a
28.4675	0.06	56935	keystroke_e	e	n/a
28.6475	0.075	57295	keystroke_d	d	n/a
28.7975	0.09	57595	keystroke_Key.enter	Key.enter	n/a
28.893	8.2615	57786	prompt	n/a	baking exploration premium hadn't\n
29.5175	0.075	59035	keystroke_b	b	n/a
29.6675	0.135	59335	keystroke_a	a	n/a
29.7875	0.075	59575	keystroke_k	k	n/a
29.9825	0.1195	59965	keystroke_i	i	n/a
30.072	0.12	60144	keystroke_n	n	n/a
30.193	0.134	60386	keystroke_g	g	n/a
30.297	0.15	60594	keystroke_Key.space	Key.space	n/a
30.507	0.045	61014	keystroke_e	e	n/a
30.687	0.09	61374	keystroke_x	x	n/a
30.912	0.1505	61824	keystroke_p	p	n/a
31.167	0.1505	62334	keystroke_l	l	n/a
31.8275	0.105	63655	keystroke_o	o	n/a
31.9775	0.075	63955	keystroke_r	r	n/a
32.1275	0.165	64255	keystroke_a	a	n/a
32.2625	0.09	64525	keystroke_t	t	n/a
32.3675	0.225	64735	keystroke_i	i	n/a
32.5025	0.12	65005	keystroke_o	o	n/a
32.6075	0.105	65215	keystroke_n	n	n/a
33.2225	0.12	66445	keystroke_Key.space	Key.space	n/a
33.5825	0.105	67165	keystroke_p	p	n/a
33.6725	0.0905	67345	keystroke_r	r	n/a
33.7475	0.09	67495	keystroke_e	e	n/a
33.8825	0.1205	67765	keystroke_m	m	n/a
34.3625	0.105	68725	keystroke_i	i	n/a
34.6175	0.075	69235	keystroke_u	u	n/a
34.9025	0.1045	69805	keystroke_m	m	n/a
35.097	0.105	70194	keystroke_Key.space	Key.space	n/a
35.622	0.09	71244	keystroke_h	h	n/a
35.727	0.2255	71454	keystroke_a	a	n/a
35.8775	0.12	71755	keystroke_d	d	n/a
36.0275	0.135	72055	keystroke_n	n	n/a
36.193	0.1045	72386	keystroke_'	'	n/a
36.4325	0.1055	72865	keystroke_t	t	n/a
37.0775	0.075	74155	keystroke_Key.enter	Key.enter	n/a
37.1575	9.0415	74315	prompt	n/a	swim chrysler shaved gives\n
37.842	0.09	75684	keystroke_s	s	n/a
38.052	0.09	76104	keystroke_w	w	n/a
38.187	0.135	76374	keystroke_i	i	n/a
38.307	0.12	76614	keystroke_m	m	n/a
38.487	0.105	76974	keystroke_Key.space	Key.space	n/a
38.952	0.06	77904	keystroke_c	c	n/a
39.1925	0.089	78385	keystroke_h	h	n/a
39.4025	0.045	78805	keystroke_r	r	n/a
39.5365	0.061	79073	keystroke_i	i	n/a
39.9575	0.105	79915	keystroke_Key.backspace	Key.backspace	n/a
40.3325	0.09	80665	keystroke_y	y	n/a
40.4825	0.195	80965	keystroke_s	s	n/a
40.9175	0.135	81835	keystroke_l	l	n/a
41.2925	0.09	82585	keystroke_t	t	n/a
41.5025	0.195	83005	keystroke_e	e	n/a
41.6825	0.06	83365	keystroke_r	r	n/a
42.1025	0.075	84205	keystroke_Key.backspace	Key.backspace	n/a
42.2375	0.09	84475	keystroke_Key.backspace	Key.backspace	n/a
42.4025	0.06	84805	keystroke_Key.backspace	Key.backspace	n/a
42.6275	0.135	85255	keystroke_e	e	n/a
42.7025	0.135	85405	keystroke_r	r	n/a
43.467	0.075	86934	keystroke_Key.space	Key.space	n/a
43.842	0.09	87684	keystroke_s	s	n/a
43.962	0.105	87924	keystroke_h	h	n/a
44.052	0.135	88104	keystroke_a	a	n/a
44.172	0.075	88344	keystroke_v	v	n/a
44.322	0.06	88644	keystroke_e	e	n/a
44.517	0.06	89034	keystroke_d	d	n/a
44.607	0.09	89214	keystroke_Key.space	Key.space	n/a
44.9665	0.0755	89933	keystroke_g	g	n/a
45.177	0.09	90354	keystroke_i	i	n/a
45.357	0.045	90714	keystroke_v	v	n/a
45.492	0.1355	90984	keystroke_e	e	n/a
45.5825	0.135	91165	keystroke_s	s	n/a
46.1075	0.09	92215	keystroke_Key.enter	Key.enter	n/a
46.2025	7.3915	92405	prompt	n/a	contributed palm evil hartford\n
47.112	0.075	94224	keystroke_c	c	n/a
47.292	0.105	94584	keystroke_o	o	n/a
47.382	0.09	94764	keystroke_n	n	n/a
47.502	0.1355	95004	keystroke_t	t	n/a
47.6815	0.06	95363	keystroke_r	r	n/a
47.8325	0.09	95665	keystroke_i	i	n/a
47.952	0.0605	95904	keystroke_b	b	n/a
48.1025	0.059	96205	keystroke_u	u	n/a
48.2675	0.06	96535	keystroke_t	t	n/a
48.4025	0.09	96805	keystroke_e	e	n/a
48.6125	0.045	97225	keystroke_d	d	n/a
49.3615	0.091	98723	keystroke_Key.space	Key.space	n/a
49.9775	0.105	99955	keystroke_p	p	n/a
50.2165	0.105	100433	keystroke_a	a	n/a
50.577	0.105	101154	keystroke_l	l	n/a
50.772	0.105	101544	keystroke_m	m	n/a
50.907	0.105	101814	keystroke_Key.space	Key.space	n/a
51.162	0.06	102324	keystroke_e	e	n/a
51.342	0.075	102684	keystroke_v	v	n/a
51.507	0.09	103014	keystroke_i	i	n/a
51.717	0.09	103434	keystroke_l	l	n/a
51.822	0.1205	103644	keystroke_Key.space	Key.space	n/a
52.077	0.075	104154	keystroke_h	h	n/a
52.167	0.15	104334	keystroke_a	a	n/a
52.302	0.075	104604	keystroke_r	r	n/a
52.527	0.06	105054	keystroke_t	t	n/a
52.722	0.09	105444	keystroke_f	f	n/a
52.887	0.075	105774	keystroke_o	o	n/a
53.007	0.075	106014	keystroke_r	r	n/a
53.2475	0.09	106495	keystroke_d	d	n/a
53.5015	0.09	107003	keystroke_Key.enter	Key.enter	n/a
53.5975	6.881	107195	prompt	n/a	font local gamecube diesel\n
54.2815	0.091	108563	keystroke_f	f	n/a
54.4625	0.09	108925	keystroke_o	o	n/a
54.6715	0.09	109343	keystroke_n	n	n/a
54.8815	0.09	109763	keystroke_t	t	n/a
55.0015	0.105	110003	keystroke_Key.space	Key.space	n/a
55.257	0.075	110514	keystroke_l	l	n/a
55.483	0.059	110966	keystroke_o	o	n/a
55.632	0.09	111264	keystroke_c	c	n/a
55.797	0.12	111594	keystroke_a	a	n/a
56.0075	0.12	112015	keystroke_l	l	n/a
56.1425	0.105	112285	keystroke_Key.space	Key.space	n/a
56.4275	0.045	112855	keystroke_g	g	n/a
56.5625	0.12	113125	keystroke_a	a	n/a
56.7125	0.12	113425	keystroke_m	m	n/a
56.9075	0.075	113815	keystroke_e	e	n/a
57.2075	0.0745	114415	keystroke_c	c	n/a
57.402	0.105	114804	keystroke_u	u	n/a
57.6565	0.045	115313	keystroke_b	b	n/a
57.8675	0.06	115735	keystroke_e	e	n/a
58.842	0.0755	117684	keystroke_Key.space	Key.space	n/a
59.1275	0.075	118255	keystroke_d	d	n/a
59.3225	0.09	118645	keystroke_i	i	n/a
59.5025	0.06	119005	keystroke_e	e	n/a
59.8465	0.076	119693	keystroke_s	s	n/a
60.0275	0.059	120055	keystroke_e	e	n/a
60.1765	0.091	120353	keystroke_l	l	n/a
60.4165	0.06	120833	keystroke_Key.enter	Key.enter	n/a
60.4835	7.451	120967	prompt	n/a	pages betty notify recipe\n
60.9725	0.074	121945	keystroke_f	f	n/a
61.3765	0.105	122753	keystroke_Key.backspace	Key.backspace	n/a
61.6765	0.09	123353	keystroke_p	p	n/a
61.7815	0.1355	123563	keystroke_a	a	n/a
61.887	0.075	123774	keystroke_g	g	n/a
61.992	0.12	123984	keystroke_e	e	n/a
62.082	0.1195	124164	keystroke_s	s	n/a
62.262	0.1045	124524	keystroke_Key.space	Key.space	n/a
62.532	0.0605	125064	keystroke_b	b	n/a
62.7115	0.0755	125423	keystroke_e	e	n/a
62.817	0.075	125634	keystroke_t	t	n/a
62.982	0.105	125964	keystroke_t	t	n/a
63.222	0.0595	126444	keystroke_y	y	n/a
63.3115	0.09	126623	keystroke_Key.space	Key.space	n/a
63.5515	0.1055	127103	keystroke_n	n	n/a
63.687	0.0745	127374	keystroke_i	i	n/a
64.2115	0.075	128423	keystroke_Key.backspace	Key.backspace	n/a
64.392	0.0895	128784	keystroke_o	o	n/a
64.527	0.0745	129054	keystroke_t	t	n/a
64.6615	0.075	129323	keystroke_i	i	n/a
64.8115	0.09	129623	keystroke_f	f	n/a
65.397	0.075	130794	keystroke_y	y	n/a
65.577	0.09	131154	keystroke_Key.space	Key.space	n/a
65.997	0.135	131994	keystroke_r	r	n/a
66.102	0.075	132204	keystroke_e	e	n/a
66.327	0.075	132654	keystroke_c	c	n/a
66.477	0.075	132954	keystroke_i	i	n/a
66.732	0.09	133464	keystroke_p	p	n/a
66.957	0.03	133914	keystroke_e	e	n/a
67.857	0.075	135714	keystroke_Key.enter	Key.enter	n/a
67.941	8.5425	135882	prompt	n/a	votes dresses practical firewall\n
68.637	0.075	137274	keystroke_v	v	n/a
68.802	0.075	137604	keystroke_o	o	n/a
68.922	0.15	137844	keystroke_t	t	n/a
68.982	0.15	137964	keystroke_e	e	n/a
69.1175	0.1045	138235	keystroke_s	s	n/a
69.267	0.0895	138534	keystroke_Key.space	Key.space	n/a
69.5075	0.089	139015	keystroke_d	d	n/a
69.7015	0.165	139403	keystroke_r	r	n/a
69.8065	0.12	139613	keystroke_e	e	n/a
69.8815	0.105	139763	keystroke_s	s	n/a
70.0915	0.1055	140183	keystroke_s	s	n/a
70.3315	0.075	140663	keystroke_e	e	n/a
70.5865	0.09	141173	keystroke_s	s	n/a
70.7665	0.1055	141533	keystroke_Key.space	Key.space	n/a
71.0075	0.074	142015	keystroke_p	p	n/a
71.0825	0.1045	142165	keystroke_r	r	n/a
71.2165	0.1055	142433	keystroke_a	a	n/a
71.397	0.06	142794	keystroke_c	c	n/a
71.592	0.09	143184	keystroke_t	t	n/a
71.712	0.09	143424	keystroke_i	i	n/a
71.848	0.059	143696	keystroke_c	c	n/a
71.997	0.12	143994	keystroke_a	a	n/a
72.162	0.09	144324	keystroke_l	l	n/a
72.192	0.135	144384	keystroke_Key.space	Key.space	n/a
72.372	0.09	144744	keystroke_f	f	n/a
72.597	0.105	145194	keystroke_r	r	n/a
72.807	0.06	145614	keystroke_i	i	n/a
72.897	0.195	145794	keystroke_e	e	n/a
73.077	0.09	146154	keystroke_w	w	n/a
74.0365	0.061	148073	keystroke_Key.backspace	Key.backspace	n/a
74.2015	0.06	148403	keystroke_Key.backspace	Key.backspace	n/a
74.3665	0.045	148733	keystroke_Key.backspace	Key.backspace	n/a
74.5015	0.075	149003	keystroke_Key.backspace	Key.backspace	n/a
74.8165	0.075	149633	keystroke_i	i	n/a
74.9215	0.1355	149843	keystroke_r	r	n/a
74.9965	0.1205	149993	keystroke_e	e	n/a
75.357	0.09	150714	keystroke_w	w	n/a
75.552	0.105	151104	keystroke_a	a	n/a
75.672	0.075	151344	keystroke_l	l	n/a
75.837	0.075	151674	keystroke_l	l	n/a
76.407	0.075	152814	keystroke_Key.enter	Key.enter	n/a
76.487	5.9515	152974	prompt	n/a	picked shade silly driven\n
77.2015	0.12	154403	keystroke_p	p	n/a
77.3975	0.09	154795	keystroke_i	i	n/a
77.5615	0.076	155123	keystroke_c	c	n/a
77.6965	0.105	155393	keystroke_k	k	n/a
77.8175	0.105	155635	keystroke_e	e	n/a
78.2815	0.0755	156563	keystroke_d	d	n/a
78.492	0.09	156984	keystroke_Key.space	Key.space	n/a
78.687	0.075	157374	keystroke_s	s	n/a
78.777	0.09	157554	keystroke_h	h	n/a
78.9115	0.12	157823	keystroke_a	a	n/a
79.0915	0.0755	158183	keystroke_d	d	n/a
79.332	0.075	158664	keystroke_e	e	n/a
79.452	0.09	158904	keystroke_Key.space	Key.space	n/a
79.647	0.075	159294	keystroke_s	s	n/a
79.752	0.09	159504	keystroke_i	i	n/a
79.932	0.09	159864	keystroke_l	l	n/a
80.112	0.09	160224	keystroke_l	l	n/a
80.352	0.0755	160704	keystroke_y	y	n/a
80.3975	0.15	160795	keystroke_Key.space	Key.space	n/a
81.1475	0.09	162295	keystroke_d	d	n/a
81.342	0.075	162684	keystroke_r	r	n/a
81.477	0.075	162954	keystroke_i	i	n/a
81.582	0.075	163164	keystroke_v	v	n/a
81.8065	0.06	163613	keystroke_e	e	n/a
81.9425	0.089	163885	keystroke_n	n	n/a
82.3465	0.09	164693	keystroke_Key.enter	Key.enter	n/a
82.4415	6.1475	164883	prompt	n/a	justice totals slightly wrote\n
83.1265	0.0905	166253	keystroke_j	j	n/a
83.352	0.075	166704	keystroke_u	u	n/a
83.442	0.18	166884	keystroke_s	s	n/a
83.607	0.09	167214	keystroke_t	t	n/a
83.757	0.09	167514	keystroke_i	i	n/a
83.922	0.075	167844	keystroke_c	c	n/a
84.192	0.09	168384	keystroke_e	e	n/a
84.432	0.105	168864	keystroke_Key.space	Key.space	n/a
84.7325	0.09	169465	keystroke_t	t	n/a
84.8975	0.089	169795	keystroke_o	o	n/a
85.047	0.09	170094	keystroke_t	t	n/a
85.182	0.165	170364	keystroke_a	a	n/a
85.422	0.105	170844	keystroke_l	l	n/a
85.572	0.135	171144	keystroke_s	s	n/a
85.722	0.105	171444	keystroke_Key.space	Key.space	n/a
85.917	0.0905	171834	keystroke_s	s	n/a
86.0225	0.18	172045	keystroke_l	l	n/a
86.1725	0.09	172345	keystroke_i	i	n/a
86.2775	0.075	172555	keystroke_g	g	n/a
86.4725	0.075	172945	keystroke_h	h	n/a
86.5925	0.06	173185	keystroke_t	t	n/a
86.7425	0.12	173485	keystroke_l	l	n/a
86.9975	0.09	173995	keystroke_y	y	n/a
87.0875	0.12	174175	keystroke_Key.space	Key.space	n/a
87.2525	0.1195	174505	keystroke_w	w	n/a
87.417	0.09	174834	keystroke_r	r	n/a
87.582	0.09	175164	keystroke_o	o	n/a
87.732	0.09	175464	keystroke_t	t	n/a
88.002	0.075	176004	keystroke_e	e	n/a
88.512	0.075	177024	keystroke_Key.enter	Key.enter	n/a
88.592	7.7965	177184	prompt	n/a	stock discussing glasgow better\n
89.2765	0.0755	178553	keystroke_s	s	n/a
89.502	0.106	179004	keystroke_o	o	n/a
89.682	0.06	179364	keystroke_t	t	n/a
90.027	0.075	180054	keystroke_Key.backspace	Key.backspace	n/a
90.192	0.06	180384	keystroke_Key.backspace	Key.backspace	n/a
90.297	0.09	180594	keystroke_t	t	n/a
90.432	0.105	180864	keystroke_o	o	n/a
90.612	0.09	181224	keystroke_c	c	n/a
90.777	0.105	181554	keystroke_k	k	n/a
91.062	0.105	182124	keystroke_Key.space	Key.space	n/a
91.3465	0.046	182693	keystroke_d	d	n/a
91.4975	0.075	182995	keystroke_i	i	n/a
91.5875	0.09	183175	keystroke_s	s	n/a
91.7965	0.045	183593	keystroke_c	c	n/a
91.9175	0.074	183835	keystroke_u	u	n/a
92.0665	0.06	184133	keystroke_s	s	n/a
92.2165	0.075	184433	keystroke_s	s	n/a
92.3065	0.1505	184613	keystroke_i	i	n/a
92.427	0.1045	184854	keystroke_n	n	n/a
92.547	0.12	185094	keystroke_g	g	n/a
92.652	0.105	185304	keystroke_Key.space	Key.space	n/a
92.967	0.075	185934	keystroke_g	g	n/a
93.117	0.105	186234	keystroke_l	l	n/a
93.252	0.1805	186504	keystroke_a	a	n/a
93.3875	0.09	186775	keystroke_s	s	n/a
93.6575	0.06	187315	keystroke_g	g	n/a
93.867	0.09	187734	keystroke_o	o	n/a
94.002	0.09	188004	keystroke_w	w	n/a
94.557	0.105	189114	keystroke_Key.space	Key.space	n/a
94.842	0.09	189684	keystroke_b	b	n/a
95.067	0.075	190134	keystroke_e	e	n/a
95.187	0.075	190374	keystroke_t	t	n/a
95.3815	0.06	190763	keystroke_t	t	n/a
95.577	0.105	191154	keystroke_e	e	n/a
95.652	0.12	191304	keystroke_r	r	n/a
96.327	0.06	192654	keystroke_Key.enter	Key.enter	n/a
96.392	6.2515	192784	prompt	n/a	controls hotmail slave lack\n
97.137	0.075	194274	keystroke_c	c	n/a
97.227	0.12	194454	keystroke_o	o	n/a
97.332	0.09	194664	keystroke_n	n	n/a
97.437	0.09	194874	keystroke_t	t	n/a
97.617	0.075	195234	keystroke_r	r	n/a
97.753	0.089	195506	keystroke_o	o	n/a
97.977	0.09	195954	keystroke_l	l	n/a
98.112	0.1055	196224	keystroke_s	s	n/a
98.2615	0.105	196523	keystroke_Key.space	Key.space	n/a
98.5165	0.106	197033	keystroke_h	h	n/a
98.6525	0.09	197305	keystroke_o	o	n/a
98.7875	0.09	197575	keystroke_t	t	n/a
99.0265	0.136	198053	keystroke_m	m	n/a
99.1765	0.106	198353	keystroke_a	a	n/a
99.2675	0.105	198535	keystroke_i	i	n/a
99.3875	0.12	198775	keystroke_l	l	n/a
99.5665	0.09	199133	keystroke_Key.space	Key.space	n/a
99.7925	0.074	199585	keystroke_s	s	n/a
99.8975	0.105	199795	keystroke_l	l	n/a
100.0475	0.12	200095	keystroke_a	a	n/a
100.1375	0.105	200275	keystroke_v	v	n/a
100.3325	0.075	200665	keystroke_e	e	n/a
100.4525	0.09	200905	keystroke_Key.space	Key.space	n/a
101.322	0.105	202644	keystroke_l	l	n/a
101.457	0.12	202914	keystroke_a	a	n/a
101.622	0.09	203244	keystroke_c	c	n/a
101.757	0.105	203514	keystroke_k	k	n/a
102.5665	0.0755	205133	keystroke_Key.enter	Key.enter	n/a
102.647	10.5415	205294	prompt	n/a	sought giant choir queries\n
103.4525	0.09	206905	keystroke_s	s	n/a
103.5575	0.12	207115	keystroke_o	o	n/a
103.6625	0.06	207325	keystroke_u	u	n/a
103.7675	0.09	207535	keystroke_g	g	n/a
103.8875	0.09	207775	keystroke_h	h	n/a
104.0375	0.09	208075	keystroke_t	t	n/a
104.2025	0.09	208405	keystroke_Key.space	Key.space	n/a
104.4575	0.075	208915	keystroke_g	g	n/a
104.6075	0.075	209215	keystroke_i	i	n/a
104.7125	0.12	209425	keystroke_a	a	n/a
104.8175	0.105	209635	keystroke_n	n	n/a
105.0425	0.09	210085	keystroke_t	t	n/a
106.257	0.105	212514	keystroke_Key.space	Key.space	n/a
107.0825	0.075	214165	keystroke_c	c	n/a
107.2775	0.1345	214555	keystroke_h	h	n/a
108.102	0.135	216204	keystroke_o	o	n/a
108.282	0.105	216564	keystroke_i	i	n/a
108.5975	0.104	217195	keystroke_r	r	n/a
108.792	0.0895	217584	keystroke_Key.space	Key.space	n/a
109.4375	0.0745	218875	keystroke_q	q	n/a
109.5725	0.075	219145	keystroke_u	u	n/a
109.677	0.0895	219354	keystroke_e	e	n/a
110.037	0.12	220074	keystroke_r	r	n/a
110.367	0.09	220734	keystroke_i	i	n/a
110.472	0.15	220944	keystroke_e	e	n/a
110.637	0.075	221274	keystroke_s	s	n/a
113.174	0.0135	226348	keystroke_Key.enter	Key.enter	n/a
113.1915	8.067	226383	prompt	n/a	i'm malpractice performed habits\n
114.432	0.09	228864	keystroke_i	i	n/a
114.642	0.09	229284	keystroke_'	'	n/a
114.867	0.105	229734	keystroke_m	m	n/a
114.957	0.105	229914	keystroke_Key.space	Key.space	n/a
115.317	0.135	230634	keystroke_m	m	n/a
115.497	0.135	230994	keystroke_a	a	n/a
115.677	0.105	231354	keystroke_l	l	n/a
116.202	0.105	232404	keystroke_p	p	n/a
116.322	0.09	232644	keystroke_r	r	n/a
116.472	0.105	232944	keystroke_a	a	n/a
116.652	0.075	233304	keystroke_c	c	n/a
116.847	0.09	233694	keystroke_t	t	n/a
116.997	0.105	233994	keystroke_i	i	n/a
117.132	0.075	234264	keystroke_c	c	n/a
117.327	0.105	234654	keystroke_e	e	n/a
117.522	0.015	235044	keystroke_Key.space	Key.space	n/a
117.642	0.105	235284	keystroke_p	p	n/a
117.732	0.15	235464	keystroke_e	e	n/a
117.807	0.09	235614	keystroke_r	r	n/a
118.0175	0.074	236035	keystroke_f	f	n/a
118.4665	0.09	236933	keystroke_o	o	n/a
118.6015	0.075	237203	keystroke_r	r	n/a
118.6925	0.134	237385	keystroke_m	m	n/a
118.8415	0.045	237683	keystroke_e	e	n/a
119.0065	0.09	238013	keystroke_d	d	n/a
119.6515	0.105	239303	keystroke_Key.space	Key.space	n/a
120.0265	0.075	240053	keystroke_h	h	n/a
120.0865	0.1505	240173	keystroke_a	a	n/a
120.252	0.09	240504	keystroke_b	b	n/a
120.537	0.09	241074	keystroke_i	i	n/a
120.732	0.075	241464	keystroke_t	t	n/a
120.897	0.09	241794	keystroke_s	s	n/a
121.1665	0.0905	242333	keystroke_Key.enter	Key.enter	n/a
121.262	8.4575	242524	prompt	n/a	mcdonald medal accessing supporters\n
122.097	0.12	244194	keystroke_m	m	n/a
122.307	0.06	244614	keystroke_c	c	n/a
123.0415	0.075	246083	keystroke_d	d	n/a
123.1615	0.105	246323	keystroke_o	o	n/a
123.312	0.045	246624	keystroke_n	n	n/a
123.372	0.1195	246744	keystroke_a	a	n/a
123.5215	0.105	247043	keystroke_l	l	n/a
123.6715	0.105	247343	keystroke_d	d	n/a
123.8365	0.12	247673	keystroke_Key.space	Key.space	n/a
124.0615	0.1205	248123	keystroke_m	m	n/a
124.197	0.045	248394	keystroke_e	e	n/a
124.377	0.045	248754	keystroke_d	d	n/a
124.527	0.105	249054	keystroke_a	a	n/a
124.752	0.105	249504	keystroke_l	l	n/a
125.157	0.09	250314	keystroke_Key.space	Key.space	n/a
125.7565	0.136	251513	keystroke_a	a	n/a
126.0115	0.061	252023	keystroke_c	c	n/a
126.1765	0.075	252353	keystroke_c	c	n/a
126.4165	0.135	252833	keystroke_e	e	n/a
126.5065	0.105	253013	keystroke_s	s	n/a
126.7165	0.075	253433	keystroke_s	s	n/a
126.8815	0.105	253763	keystroke_i	i	n/a
126.9865	0.105	253973	keystroke_n	n	n/a
127.1065	0.105	254213	keystroke_g	g	n/a
127.2265	0.105	254453	keystroke_Key.space	Key.space	n/a
127.3775	0.074	254755	keystroke_s	s	n/a
127.4825	0.119	254965	keystroke_u	u	n/a
127.6765	0.09	255353	keystroke_p	p	n/a
127.8715	0.03	255743	keystroke_p	p	n/a
127.8865	0.12	255773	keystroke_o	o	n/a
128.1275	0.059	256255	keystroke_r	r	n/a
128.9365	0.075	257873	keystroke_t	t	n/a
129.1465	0.106	258293	keystroke_e	e	n/a
129.2225	0.12	258445	keystroke_r	r	n/a
129.3115	0.09	258623	keystroke_s	s	n/a
129.642	0.075	259284	keystroke_Key.enter	Key.enter	n/a
129.7235	9.3695	259447	prompt	n/a	hitting elderly prerequisite switched\n
130.332	0.09	260664	keystroke_h	h	n/a
130.452	0.09	260904	keystroke_i	i	n/a
130.587	0.06	261174	keystroke_t	t	n/a
130.722	0.12	261444	keystroke_t	t	n/a
130.9165	0.0305	261833	keystroke_i	i	n/a
130.932	0.075	261864	keystroke_n	n	n/a
131.022	0.105	262044	keystroke_g	g	n/a
131.112	0.12	262224	keystroke_Key.space	Key.space	n/a
131.2925	0.075	262585	keystroke_e	e	n/a
131.636	0.106	263272	keystroke_l	l	n/a
131.727	0.194	263454	keystroke_d	d	n/a
131.952	0.105	263904	keystroke_e	e	n/a
132.042	0.075	264084	keystroke_r	r	n/a
132.2965	0.105	264593	keystroke_l	l	n/a
132.5365	0.075	265073	keystroke_y	y	n/a
132.6715	0.09	265343	keystroke_Key.space	Key.space	n/a
133.1825	0.09	266365	keystroke_p	p	n/a
133.3165	0.075	266633	keystroke_r	r	n/a
133.3465	0.09	266693	keystroke_e	e	n/a
133.7965	0.135	267593	keystroke_r	r	n/a
134.3815	0.105	268763	keystroke_e	e	n/a
134.6215	0.12	269243	keystroke_q	q	n/a
134.8465	0.075	269693	keystroke_u	u	n/a
135.0265	0.06	270053	keystroke_e	e	n/a
135.627	0.075	271254	keystroke_Key.backspace	Key.backspace	n/a
135.837	0.105	271674	keystroke_i	i	n/a
136.017	0.075	272034	keystroke_s	s	n/a
136.662	0.105	273324	keystroke_i	i	n/a
136.737	0.12	273474	keystroke_t	t	n/a
136.902	0.105	273804	keystroke_e	e	n/a
137.442	0.12	274884	keystroke_Key.space	Key.space	n/a
137.682	0.059	275364	keystroke_s	s	n/a
137.861	0.075	275722	keystroke_w	w	n/a
137.996	0.075	275992	keystroke_i	i	n/a
138.101	0.075	276202	keystroke_t	t	n/a
138.312	0.074	276624	keystroke_c	c	n/a
138.447	0.1045	276894	keystroke_h	h	n/a
138.5665	0.045	277133	keystroke_e	e	n/a
138.7165	0.075	277433	keystroke_d	d	n/a
139.0015	0.0895	278003	keystroke_Key.enter	Key.enter	n/a
139.0965	10.0765	278193	prompt	n/a	perl checkout saddam aruba\n
139.8715	0.075	279743	keystroke_p	p	n/a
139.9915	0.135	279983	keystroke_e	e	n/a
140.0515	0.135	280103	keystroke_r	r	n/a
140.6215	0.09	281243	keystroke_l	l	n/a
140.952	0.119	281904	keystroke_Key.space	Key.space	n/a
141.2225	0.059	282445	keystroke_c	c	n/a
141.3265	0.09	282653	keystroke_h	h	n/a
141.4465	0.06	282893	keystroke_e	e	n/a
141.6415	0.06	283283	keystroke_c	c	n/a
141.7465	0.0905	283493	keystroke_k	k	n/a
141.957	0.135	283914	keystroke_o	o	n/a
142.047	0.105	284094	keystroke_u	u	n/a
142.167	0.105	284334	keystroke_t	t	n/a
142.272	0.075	284544	keystroke_Key.space	Key.space	n/a
142.422	0.075	284844	keystroke_s	s	n/a
142.647	0.105	285294	keystroke_a	a	n/a
142.887	0.06	285774	keystroke_d	d	n/a
143.082	0.03	286164	keystroke_d	d	n/a
143.3215	0.09	286643	keystroke_a	a	n/a
143.502	0.0745	287004	keystroke_m	m	n/a
143.6815	0.0905	287363	keystroke_Key.space	Key.space	n/a
144.312	0.15	288624	keystroke_a	a	n/a
144.477	0.09	288954	keystroke_r	r	n/a
144.642	0.09	289284	keystroke_u	u	n/a
144.942	0.06	289884	keystroke_m	m	n/a
145.962	0.075	291924	keystroke_Key.backspace	Key.backspace	n/a
147.207	0.06	294414	keystroke_b	b	n/a
147.387	0.119	294774	keystroke_a	a	n/a
149.0665	0.105	298133	keystroke_Key.enter	Key.enter	n/a
149.1765	7.7965	298353	prompt	n/a	jane tropical priorities tile\n
149.907	0.089	299814	keystroke_j	j	n/a
150.0115	0.1355	300023	keystroke_a	a	n/a
150.6115	0.0755	301223	keystroke_n	n	n/a
150.7765	0.15	301553	keystroke_e	e	n/a
150.9115	0.105	301823	keystroke_Key.space	Key.space	n/a
151.572	0.075	303144	keystroke_t	t	n/a
151.752	0.105	303504	keystroke_r	r	n/a
151.932	0.21	303864	keystroke_o	o	n/a
152.127	0.1195	304254	keystroke_p	p	n/a
152.3515	0.1055	304703	keystroke_i	i	n/a
152.472	0.0745	304944	keystroke_c	c	n/a
152.6065	0.1355	305213	keystroke_a	a	n/a
152.757	0.12	305514	keystroke_l	l	n/a
152.937	0.105	305874	keystroke_Key.space	Key.space	n/a
153.5515	0.21	307103	keystroke_p	p	n/a
153.7765	0.09	307553	keystroke_r	r	n/a
153.9715	0.135	307943	keystroke_i	i	n/a
154.2265	0.09	308453	keystroke_o	o	n/a
154.5115	0.076	309023	keystroke_r	r	n/a
154.7065	0.105	309413	keystroke_i	i	n/a
154.8725	0.09	309745	keystroke_t	t	n/a
155.0525	0.149	310105	keystroke_i	i	n/a
155.1115	0.1955	310223	keystroke_e	e	n/a
155.2475	0.1645	310495	keystroke_s	s	n/a
155.412	0.105	310824	keystroke_Key.space	Key.space	n/a
155.637	0.09	311274	keystroke_t	t	n/a
156.252	0.09	312504	keystroke_i	i	n/a
156.462	0.09	312924	keystroke_l	l	n/a
156.596	0.091	313192	keystroke_e	e	n/a
156.8965	0.075	313793	keystroke_Key.enter	Key.enter	n/a
156.9765	7.0015	313953	prompt	n/a	beliefs reward saint underground\n
157.7065	0.061	315413	keystroke_b	b	n/a
157.8575	0.089	315715	keystroke_e	e	n/a
157.9615	0.15	315923	keystroke_l	l	n/a
158.0815	0.105	316163	keystroke_i	i	n/a
158.1715	0.135	316343	keystroke_e	e	n/a
158.2765	0.12	316553	keystroke_f	f	n/a
158.592	0.09	317184	keystroke_s	s	n/a
158.757	0.104	317514	keystroke_Key.space	Key.space	n/a
159.102	0.105	318204	keystroke_r	r	n/a
159.177	0.105	318354	keystroke_e	e	n/a
159.521	0.09	319042	keystroke_w	w	n/a
159.701	0.1655	319402	keystroke_a	a	n/a
159.8365	0.075	319673	keystroke_r	r	n/a
160.1365	0.09	320273	keystroke_d	d	n/a
160.3765	0.105	320753	keystroke_Key.space	Key.space	n/a
160.6765	0.09	321353	keystroke_s	s	n/a
160.8865	0.1505	321773	keystroke_a	a	n/a
161.051	0.076	322102	keystroke_i	i	n/a
161.322	0.09	322644	keystroke_n	n	n/a
161.471	0.09	322942	keystroke_t	t	n/a
161.606	0.105	323212	keystroke_Key.space	Key.space	n/a
161.876	0.075	323752	keystroke_u	u	n/a
162.101	0.075	324202	keystroke_n	n	n/a
162.236	0.0905	324472	keystroke_d	d	n/a
162.4475	0.104	324895	keystroke_e	e	n/a
162.5215	0.09	325043	keystroke_r	r	n/a
162.7465	0.075	325493	keystroke_g	g	n/a
162.9265	0.09	325853	keystroke_r	r	n/a
163.0615	0.105	326123	keystroke_o	o	n/a
163.1215	0.09	326243	keystroke_u	u	n/a
163.347	0.09	326694	keystroke_n	n	n/a
163.481	0.091	326962	keystroke_d	d	n/a
163.901	0.075	327802	keystroke_Key.enter	Key.enter	n/a
163.9835	8.455	327967	prompt	n/a	occasional watt direct camp\n
164.637	0.074	329274	keystroke_o	o	n/a
164.892	0.029	329784	keystroke_c	c	n/a
165.042	0.074	330084	keystroke_c	c	n/a
165.252	0.134	330504	keystroke_a	a	n/a
165.476	0.06	330952	keystroke_s	s	n/a
165.641	0.15	331282	keystroke_i	i	n/a
165.761	0.136	331522	keystroke_o	o	n/a
165.866	0.105	331732	keystroke_n	n	n/a
165.956	0.075	331912	keystroke_Key.caps_lock	Key.caps_lock	n/a
166.106	0.105	332212	keystroke_l	l	n/a
166.902	0.09	333804	keystroke_Key.backspace	Key.backspace	n/a
167.5315	0.075	335063	keystroke_a	a	n/a
168.0715	0.1055	336143	keystroke_Key.caps_lock	Key.caps_lock	n/a
168.3415	0.1205	336683	keystroke_Key.backspace	Key.backspace	n/a
168.6415	0.045	337283	keystroke_a	a	n/a
168.7765	0.06	337553	keystroke_l	l	n/a
169.0315	0.135	338063	keystroke_Key.space	Key.space	n/a
169.2265	0.0895	338453	keystroke_w	w	n/a
169.572	0.165	339144	keystroke_a	a	n/a
169.722	0.075	339444	keystroke_t	t	n/a
169.872	0.135	339744	keystroke_t	t	n/a
170.097	0.105	340194	keystroke_Key.space	Key.space	n/a
170.607	0.075	341214	keystroke_d	d	n/a
170.772	0.075	341544	keystroke_i	i	n/a
170.862	0.09	341724	keystroke_r	r	n/a
170.937	0.06	341874	keystroke_e	e	n/a
171.117	0.06	342234	keystroke_c	c	n/a
171.282	0.1045	342564	keystroke_t	t	n/a
171.4015	0.09	342803	keystroke_Key.space	Key.space	n/a
171.5965	0.075	343193	keystroke_c	c	n/a
171.7165	0.135	343433	keystroke_a	a	n/a
171.8215	0.135	343643	keystroke_m	m	n/a
171.9265	0.1355	343853	keystroke_p	p	n/a
172.362	0.074	344724	keystroke_Key.enter	Key.enter	n/a
172.4415	5.607	344883	prompt	n/a	comparing lady proportion most\n
173.007	0.06	346014	keystroke_o	o	n/a
173.3365	0.075	346673	keystroke_Key.backspace	Key.backspace	n/a
173.5015	0.0755	347003	keystroke_c	c	n/a
173.592	0.21	347184	keystroke_o	o	n/a
173.742	0.15	347484	keystroke_m	m	n/a
173.847	0.105	347694	keystroke_p	p	n/a
173.967	0.165	347934	keystroke_a	a	n/a
174.087	0.09	348174	keystroke_r	r	n/a
174.282	0.12	348564	keystroke_i	i	n/a
174.432	0.1045	348864	keystroke_n	n	n/a
174.567	0.105	349134	keystroke_g	g	n/a
174.687	0.105	349374	keystroke_Key.space	Key.space	n/a
174.927	0.105	349854	keystroke_l	l	n/a
175.017	0.135	350034	keystroke_a	a	n/a
175.107	0.105	350214	keystroke_d	d	n/a
175.3465	0.06	350693	keystroke_y	y	n/a
175.4215	0.135	350843	keystroke_Key.space	Key.space	n/a
175.6915	0.09	351383	keystroke_p	p	n/a
175.8125	0.074	351625	keystroke_r	r	n/a
175.902	0.15	351804	keystroke_o	o	n/a
176.037	0.12	352074	keystroke_p	p	n/a
176.202	0.09	352404	keystroke_o	o	n/a
176.397	0.075	352794	keystroke_r	r	n/a
176.607	0.09	353214	keystroke_t	t	n/a
176.742	0.225	353484	keystroke_i	i	n/a
176.862	0.12	353724	keystroke_o	o	n/a
176.952	0.135	353904	keystroke_n	n	n/a
177.102	0.12	354204	keystroke_Key.space	Key.space	n/a
177.3565	0.135	354713	keystroke_m	m	n/a
177.4765	0.135	354953	keystroke_o	o	n/a
177.6265	0.165	355253	keystroke_s	s	n/a
177.7315	0.135	355463	keystroke_t	t	n/a
177.9715	0.075	355943	keystroke_Key.enter	Key.enter	n/a
178.0515	5.1715	356103	prompt	n/a	prince like solomon para\n
178.812	0.105	357624	keystroke_p	p	n/a
178.932	0.074	357864	keystroke_r	r	n/a
179.022	0.12	358044	keystroke_i	i	n/a
179.127	0.089	358254	keystroke_n	n	n/a
179.217	0.075	358434	keystroke_c	c	n/a
179.427	0.074	358854	keystroke_e	e	n/a
179.516	0.106	359032	keystroke_Key.space	Key.space	n/a
179.667	0.165	359334	keystroke_l	l	n/a
179.801	0.091	359602	keystroke_i	i	n/a
180.0265	0.09	360053	keystroke_k	k	n/a
180.1015	0.12	360203	keystroke_e	e	n/a
180.1915	0.12	360383	keystroke_Key.space	Key.space	n/a
180.3865	0.075	360773	keystroke_s	s	n/a
180.5065	0.09	361013	keystroke_o	o	n/a
180.7315	0.075	361463	keystroke_l	l	n/a
180.9265	0.09	361853	keystroke_o	o	n/a
181.0615	0.12	362123	keystroke_m	m	n/a
181.2115	0.135	362423	keystroke_o	o	n/a
181.3615	0.09	362723	keystroke_n	n	n/a
181.5115	0.105	363023	keystroke_Key.space	Key.space	n/a
181.8415	0.105	363683	keystroke_p	p	n/a
181.9475	0.134	363895	keystroke_a	a	n/a
182.0215	0.135	364043	keystroke_r	r	n/a
182.1865	0.1355	364373	keystroke_a	a	n/a
183.116	0.105	366232	keystroke_Key.enter	Key.enter	n/a
183.226	7.602	366452	prompt	n/a	much protocol theorem expired\n
183.987	0.075	367974	keystroke_m	m	n/a
184.1965	0.06	368393	keystroke_u	u	n/a
184.3165	0.075	368633	keystroke_c	c	n/a
184.4215	0.06	368843	keystroke_h	h	n/a
184.4965	0.1195	368993	keystroke_Key.space	Key.space	n/a
184.812	0.105	369624	keystroke_p	p	n/a
184.962	0.074	369924	keystroke_r	r	n/a
185.037	0.105	370074	keystroke_o	o	n/a
185.202	0.075	370404	keystroke_t	t	n/a
185.292	0.1045	370584	keystroke_o	o	n/a
185.607	0.075	371214	keystroke_c	c	n/a
186.1165	0.105	372233	keystroke_o	o	n/a
186.3865	0.105	372773	keystroke_l	l	n/a
186.6115	0.09	373223	keystroke_Key.space	Key.space	n/a
186.867	0.09	373734	keystroke_t	t	n/a
186.987	0.09	373974	keystroke_h	h	n/a
187.092	0.135	374184	keystroke_e	e	n/a
187.317	0.105	374634	keystroke_o	o	n/a
187.437	0.075	374874	keystroke_r	r	n/a
187.977	0.075	375954	keystroke_u	u	n/a
188.547	0.045	377094	keystroke_Key.backspace	Key.backspace	n/a
188.607	0.015	377214	keystroke_e	e	n/a
188.727	0.18	377454	keystroke_m	m	n/a
189.3115	0.09	378623	keystroke_Key.space	Key.space	n/a
189.597	0.06	379194	keystroke_e	e	n/a
189.807	0.09	379614	keystroke_x	x	n/a
189.972	0.18	379944	keystroke_p	p	n/a
190.197	0.045	380394	keystroke_i	i	n/a
190.257	0.15	380514	keystroke_r	r	n/a
190.317	0.105	380634	keystroke_e	e	n/a
190.542	0.075	381084	keystroke_d	d	n/a
190.752	0.075	381504	keystroke_Key.enter	Key.enter	n/a
190.8315	7.2125	381663	prompt	n/a	traveller southern powerpoint lance\n
191.427	0.075	382854	keystroke_t	t	n/a
191.607	0.09	383214	keystroke_r	r	n/a
191.757	0.135	383514	keystroke_a	a	n/a
191.936	0.075	383872	keystroke_v	v	n/a
192.0565	0.0755	384113	keystroke_e	e	n/a
192.177	0.074	384354	keystroke_l	l	n/a
192.357	0.074	384714	keystroke_l	l	n/a
192.491	0.151	384982	keystroke_e	e	n/a
192.596	0.121	385192	keystroke_r	r	n/a
192.732	0.104	385464	keystroke_Key.space	Key.space	n/a
192.941	0.076	385882	keystroke_s	s	n/a
193.031	0.105	386062	keystroke_o	o	n/a
193.151	0.075	386302	keystroke_u	u	n/a
193.241	0.075	386482	keystroke_t	t	n/a
193.392	0.074	386784	keystroke_h	h	n/a
193.467	0.165	386934	keystroke_e	e	n/a
193.572	0.105	387144	keystroke_r	r	n/a
193.706	0.075	387412	keystroke_n	n	n/a
193.826	0.105	387652	keystroke_Key.space	Key.space	n/a
195.0565	0.105	390113	keystroke_p	p	n/a
195.1765	0.1505	390353	keystroke_o	o	n/a
195.2815	0.15	390563	keystroke_w	w	n/a
195.372	0.15	390744	keystroke_e	e	n/a
195.4765	0.12	390953	keystroke_r	r	n/a
195.837	0.15	391674	keystroke_p	p	n/a
195.942	0.2395	391884	keystroke_o	o	n/a
196.1065	0.165	392213	keystroke_i	i	n/a
196.2415	0.165	392483	keystroke_n	n	n/a
196.3615	0.105	392723	keystroke_t	t	n/a
196.662	0.0595	393324	keystroke_Key.space	Key.space	n/a
196.9465	0.105	393893	keystroke_l	l	n/a
197.0215	0.12	394043	keystroke_a	a	n/a
197.1415	0.09	394283	keystroke_n	n	n/a
197.307	0.0745	394614	keystroke_c	c	n/a
197.532	0.06	395064	keystroke_e	e	n/a
197.967	0.074	395934	keystroke_Key.enter	Key.enter	n/a
198.047	6.881	396094	prompt	n/a	dean asks britain isbn\n
198.6865	0.045	397373	keystroke_d	d	n/a
198.8215	0.105	397643	keystroke_e	e	n/a
198.9115	0.105	397823	keystroke_a	a	n/a
199.0015	0.06	398003	keystroke_n	n	n/a
199.0765	0.135	398153	keystroke_Key.space	Key.space	n/a
199.4215	0.12	398843	keystroke_a	a	n/a
199.6015	0.075	399203	keystroke_s	s	n/a
199.7065	0.09	399413	keystroke_k	k	n/a
199.8415	0.165	399683	keystroke_e	e	n/a
200.6065	0.09	401213	keystroke_Key.backspace	Key.backspace	n/a
200.7565	0.09	401513	keystroke_s	s	n/a
200.982	0.1045	401964	keystroke_Key.space	Key.space	n/a
201.6565	0.06	403313	keystroke_b	b	n/a
201.8665	0.09	403733	keystroke_r	r	n/a
202.272	0.104	404544	keystroke_i	i	n/a
202.421	0.06	404842	keystroke_t	t	n/a
202.556	0.135	405112	keystroke_a	a	n/a
202.811	0.135	405622	keystroke_i	i	n/a
202.917	0.119	405834	keystroke_n	n	n/a
203.366	0.105	406732	keystroke_Key.space	Key.space	n/a
203.8915	0.09	407783	keystroke_i	i	n/a
203.9965	0.09	407993	keystroke_s	s	n/a
204.2515	0.075	408503	keystroke_b	b	n/a
204.4615	0.0895	408923	keystroke_n	n	n/a
204.851	0.075	409702	keystroke_Key.enter	Key.enter	n/a
204.9315	13.2715	409863	prompt	n/a	producers stephen dividend eliminate\n
205.691	0.09	411382	keystroke_p	p	n/a
205.827	0.074	411654	keystroke_r	r	n/a
205.917	0.104	411834	keystroke_o	o	n/a
206.036	0.06	412072	keystroke_d	d	n/a
206.202	0.074	412404	keystroke_u	u	n/a
206.261	0.09	412522	keystroke_c	c	n/a
206.696	0.18	413392	keystroke_e	e	n/a
206.801	0.165	413602	keystroke_r	r	n/a
206.921	0.12	413842	keystroke_s	s	n/a
207.056	0.09	414112	keystroke_Key.space	Key.space	n/a
207.312	0.119	414624	keystroke_s	s	n/a
207.464	0.1175	414928	keystroke_t	t	n/a
207.5965	0.09	415193	keystroke_e	e	n/a
207.8065	0.12	415613	keystroke_p	p	n/a
207.9565	0.105	415913	keystroke_h	h	n/a
208.1065	0.12	416213	keystroke_e	e	n/a
208.2715	0.075	416543	keystroke_n	n	n/a
208.4365	0.0905	416873	keystroke_Key.space	Key.space	n/a
208.767	0.09	417534	keystroke_d	d	n/a
209.172	0.1045	418344	keystroke_i	i	n/a
209.3365	0.09	418673	keystroke_v	v	n/a
209.516	0.075	419032	keystroke_i	i	n/a
209.696	0.061	419392	keystroke_d	d	n/a
209.891	0.075	419782	keystroke_e	e	n/a
210.0565	0.075	420113	keystroke_n	n	n/a
210.1765	0.09	420353	keystroke_t	t	n/a
210.3115	0.105	420623	keystroke_Key.space	Key.space	n/a
211.0315	0.075	422063	keystroke_e	e	n/a
211.2265	0.06	422453	keystroke_l	l	n/a
211.706	0.06	423412	keystroke_Key.backspace	Key.backspace	n/a
211.841	0.075	423682	keystroke_Key.backspace	Key.backspace	n/a
212.006	0.06	424012	keystroke_Key.backspace	Key.backspace	n/a
212.156	0.075	424312	keystroke_Key.backspace	Key.backspace	n/a
212.7565	0.18	425513	keystroke_d	d	n/a
213.1015	0.105	426203	keystroke_Key.space	Key.space	n/a
213.3865	0.06	426773	keystroke_e	e	n/a
213.5215	0.09	427043	keystroke_l	l	n/a
213.6265	0.0755	427253	keystroke_e	e	n/a
213.732	0.149	427464	keystroke_m	m	n/a
213.897	0.12	427794	keystroke_i	i	n/a
214.002	0.1345	428004	keystroke_n	n	n/a
214.2415	0.195	428483	keystroke_a	a	n/a
214.4065	0.12	428813	keystroke_t	t	n/a
214.8715	0.075	429743	keystroke_Key.backspace	Key.backspace	n/a
215.0515	0.06	430103	keystroke_Key.backspace	Key.backspace	n/a
215.1865	0.075	430373	keystroke_Key.backspace	Key.backspace	n/a
215.3515	0.06	430703	keystroke_Key.backspace	Key.backspace	n/a
215.516	0.045	431032	keystroke_Key.backspace	Key.backspace	n/a
215.6665	0.06	431333	keystroke_Key.backspace	Key.backspace	n/a
215.8315	0.06	431663	keystroke_Key.backspace	Key.backspace	n/a
216.2065	0.045	432413	keystroke_i	i	n/a
216.626	0.076	433252	keystroke_Key.backspace	Key.backspace	n/a
216.882	0.149	433764	keystroke_l	l	n/a
217.062	0.104	434124	keystroke_i	i	n/a
217.212	0.105	434424	keystroke_m	m	n/a
217.302	0.12	434604	keystroke_i	i	n/a
217.452	0.105	434904	keystroke_n	n	n/a
217.602	0.375	435204	keystroke_a	a	n/a
217.736	0.345	435472	keystroke_t	t	n/a
218.037	0.059	436074	keystroke_e	e	n/a
218.1715	0.03	436343	keystroke_Key.enter	Key.enter	n/a
218.208	5.575	436416	prompt	n/a	joint matrix wanna translate\n
218.996	0.15	437992	keystroke_j	j	n/a
219.176	0.18	438352	keystroke_o	o	n/a
219.341	0.136	438682	keystroke_i	i	n/a
219.461	0.06	438922	keystroke_n	n	n/a
219.566	0.075	439132	keystroke_t	t	n/a
219.716	0.045	439432	keystroke_Key.space	Key.space	n/a
219.852	0.09	439704	keystroke_m	m	n/a
220.032	0.074	440064	keystroke_a	a	n/a
220.092	0.06	440184	keystroke_t	t	n/a
220.257	0.06	440514	keystroke_r	r	n/a
220.422	0.044	440844	keystroke_i	i	n/a
220.571	0.0895	441142	keystroke_x	x	n/a
220.811	0.046	441622	keystroke_Key.space	Key.space	n/a
221.1265	0.105	442253	keystroke_w	w	n/a
221.2915	0.09	442583	keystroke_a	a	n/a
221.3515	0.075	442703	keystroke_n	n	n/a
221.5615	0.075	443123	keystroke_n	n	n/a
221.7115	0.15	443423	keystroke_a	a	n/a
221.8465	0.105	443693	keystroke_Key.space	Key.space	n/a
222.2065	0.0755	444413	keystroke_t	t	n/a
222.386	0.09	444772	keystroke_r	r	n/a
222.506	0.136	445012	keystroke_a	a	n/a
222.671	0.09	445342	keystroke_n	n	n/a
222.821	0.075	445642	keystroke_s	s	n/a
223.046	0.105	446092	keystroke_l	l	n/a
223.136	0.15	446272	keystroke_a	a	n/a
223.302	0.105	446604	keystroke_t	t	n/a
223.376	0.121	446752	keystroke_e	e	n/a
223.691	0.09	447382	keystroke_Key.enter	Key.enter	n/a
223.786	6.552	447572	prompt	n/a	mariah codes counsel vampire\n
224.786	0.135	449572	keystroke_m	m	n/a
224.906	0.1345	449812	keystroke_a	a	n/a
224.9965	0.105	449993	keystroke_r	r	n/a
225.147	0.074	450294	keystroke_i	i	n/a
225.2815	0.1195	450563	keystroke_a	a	n/a
225.491	0.105	450982	keystroke_h	h	n/a
225.686	0.105	451372	keystroke_Key.space	Key.space	n/a
225.9265	0.06	451853	keystroke_c	c	n/a
226.076	0.0755	452152	keystroke_o	o	n/a
226.196	0.0755	452392	keystroke_d	d	n/a
226.421	0.165	452842	keystroke_e	e	n/a
226.556	0.121	453112	keystroke_s	s	n/a
227.096	0.09	454192	keystroke_Key.space	Key.space	n/a
227.787	0.059	455574	keystroke_c	c	n/a
227.876	0.135	455752	keystroke_o	o	n/a
227.982	0.09	455964	keystroke_u	u	n/a
228.191	0.076	456382	keystroke_n	n	n/a
228.221	0.18	456442	keystroke_s	s	n/a
228.356	0.105	456712	keystroke_e	e	n/a
228.506	0.09	457012	keystroke_l	l	n/a
228.611	0.09	457222	keystroke_Key.space	Key.space	n/a
228.791	0.09	457582	keystroke_v	v	n/a
228.941	0.1505	457882	keystroke_a	a	n/a
229.046	0.1655	458092	keystroke_m	m	n/a
229.361	0.105	458722	keystroke_p	p	n/a
229.616	0.06	459232	keystroke_i	i	n/a
229.691	0.105	459382	keystroke_r	r	n/a
229.751	0.12	459502	keystroke_e	e	n/a
230.276	0.06	460552	keystroke_Key.enter	Key.enter	n/a
230.341	7.497	460682	prompt	n/a	tail aluminum examinations lenders\n
231.057	0.074	462114	keystroke_t	t	n/a
231.162	0.1345	462324	keystroke_a	a	n/a
231.3715	0.0895	462743	keystroke_i	i	n/a
231.521	0.105	463042	keystroke_l	l	n/a
231.641	0.1055	463282	keystroke_Key.space	Key.space	n/a
231.7765	0.1345	463553	keystroke_a	a	n/a
231.9565	0.1495	463913	keystroke_l	l	n/a
232.166	0.106	464332	keystroke_u	u	n/a
232.407	0.12	464814	keystroke_m	m	n/a
232.631	0.15	465262	keystroke_i	i	n/a
232.7655	0.121	465531	keystroke_n	n	n/a
233.202	0.059	466404	keystroke_u	u	n/a
233.441	0.1205	466882	keystroke_m	m	n/a
233.801	0.09	467602	keystroke_Key.space	Key.space	n/a
234.371	0.061	468742	keystroke_e	e	n/a
234.612	0.059	469224	keystroke_x	x	n/a
234.776	0.135	469552	keystroke_a	a	n/a
234.896	0.21	469792	keystroke_m	m	n/a
235.091	0.09	470182	keystroke_i	i	n/a
235.226	0.105	470452	keystroke_n	n	n/a
235.316	0.165	470632	keystroke_a	a	n/a
235.481	0.09	470962	keystroke_t	t	n/a
235.601	0.1955	471202	keystroke_i	i	n/a
235.706	0.12	471412	keystroke_o	o	n/a
235.7815	0.12	471563	keystroke_n	n	n/a
235.8865	0.105	471773	keystroke_s	s	n/a
235.9765	0.1195	471953	keystroke_Key.space	Key.space	n/a
236.2015	0.09	472403	keystroke_l	l	n/a
236.2765	0.06	472553	keystroke_e	e	n/a
236.4715	0.045	472943	keystroke_n	n	n/a
236.5015	0.075	473003	keystroke_d	d	n/a
236.7115	0.195	473423	keystroke_e	e	n/a
236.7865	0.12	473573	keystroke_r	r	n/a
236.8915	0.12	473783	keystroke_s	s	n/a
237.7465	0.09	475493	keystroke_Key.enter	Key.enter	n/a
237.8425	7.2555	475685	prompt	n/a	cells dylan dogs integrity\n
238.6015	0.075	477203	keystroke_c	c	n/a
238.6915	0.09	477383	keystroke_e	e	n/a
238.7965	0.075	477593	keystroke_l	l	n/a
238.9465	0.105	477893	keystroke_l	l	n/a
239.0665	0.12	478133	keystroke_s	s	n/a
239.1565	0.12	478313	keystroke_Key.space	Key.space	n/a
239.3365	0.09	478673	keystroke_d	d	n/a
239.5315	0.06	479063	keystroke_y	y	n/a
239.7415	0.105	479483	keystroke_l	l	n/a
239.9515	0.1345	479903	keystroke_a	a	n/a
240.0715	0.0895	480143	keystroke_n	n	n/a
240.191	0.09	480382	keystroke_Key.space	Key.space	n/a
240.401	0.045	480802	keystroke_d	d	n/a
240.536	0.09	481072	keystroke_o	o	n/a
240.656	0.06	481312	keystroke_g	g	n/a
240.851	0.015	481702	keystroke_s	s	n/a
241.8265	0.075	483653	keystroke_Key.space	Key.space	n/a
242.0965	0.09	484193	keystroke_i	i	n/a
242.1715	0.09	484343	keystroke_n	n	n/a
242.2765	0.09	484553	keystroke_t	t	n/a
242.921	0.09	485842	keystroke_e	e	n/a
243.251	0.015	486502	keystroke_g	g	n/a
243.4015	0.074	486803	keystroke_r	r	n/a
243.777	0.09	487554	keystroke_i	i	n/a
243.912	0.119	487824	keystroke_t	t	n/a
244.1065	0.075	488213	keystroke_y	y	n/a
245.0065	0.09	490013	keystroke_Key.enter	Key.enter	n/a
245.104	6.969	490208	prompt	n/a	frontier briefing temporal library\n
245.726	0.09	491452	keystroke_f	f	n/a
246.041	0.045	492082	keystroke_r	r	n/a
246.101	0.09	492202	keystroke_o	o	n/a
246.146	0.225	492292	keystroke_n	n	n/a
246.236	0.15	492472	keystroke_t	t	n/a
246.701	0.075	493402	keystroke_i	i	n/a
246.806	0.135	493612	keystroke_e	e	n/a
246.911	0.105	493822	keystroke_r	r	n/a
247.121	0.09	494242	keystroke_Key.space	Key.space	n/a
247.406	0.06	494812	keystroke_b	b	n/a
247.601	0.075	495202	keystroke_r	r	n/a
247.721	0.075	495442	keystroke_i	i	n/a
247.841	0.075	495682	keystroke_e	e	n/a
248.021	0.09	496042	keystroke_f	f	n/a
248.1865	0.1345	496373	keystroke_i	i	n/a
248.336	0.0905	496672	keystroke_n	n	n/a
248.427	0.089	496854	keystroke_g	g	n/a
248.501	0.136	497002	keystroke_Key.space	Key.space	n/a
248.696	0.121	497392	keystroke_t	t	n/a
248.801	0.106	497602	keystroke_e	e	n/a
248.966	0.165	497932	keystroke_m	m	n/a
249.176	0.1205	498352	keystroke_p	p	n/a
249.3115	0.12	498623	keystroke_o	o	n/a
249.4465	0.09	498893	keystroke_r	r	n/a
249.7465	0.12	499493	keystroke_a	a	n/a
249.8805	0.121	499761	keystroke_l	l	n/a
250.031	0.09	500062	keystroke_Key.space	Key.space	n/a
250.3165	0.1495	500633	keystroke_l	l	n/a
250.467	0.089	500934	keystroke_i	i	n/a
250.5715	0.059	501143	keystroke_b	b	n/a
250.7815	0.0745	501563	keystroke_r	r	n/a
251.081	0.15	502162	keystroke_a	a	n/a
251.171	0.105	502342	keystroke_r	r	n/a
251.3965	0.075	502793	keystroke_y	y	n/a
251.9965	0.075	503993	keystroke_Key.enter	Key.enter	n/a
252.076	6.7915	504152	prompt	n/a	sand mask witnesses pack\n
252.641	0.105	505282	keystroke_s	s	n/a
252.8065	0.0895	505613	keystroke_n	n	n/a
252.8215	0.1195	505643	keystroke_a	a	n/a
253.0615	0.195	506123	keystroke_d	d	n/a
253.9165	0.105	507833	keystroke_Key.backspace	Key.backspace	n/a
254.0365	0.045	508073	keystroke_Key.backspace	Key.backspace	n/a
254.1715	0.06	508343	keystroke_Key.backspace	Key.backspace	n/a
254.2465	0.1195	508493	keystroke_a	a	n/a
254.3965	0.09	508793	keystroke_n	n	n/a
254.5015	0.105	509003	keystroke_d	d	n/a
254.5615	0.135	509123	keystroke_Key.space	Key.space	n/a
254.8315	0.09	509663	keystroke_m	m	n/a
254.9215	0.1655	509843	keystroke_a	a	n/a
255.041	0.09	510082	keystroke_s	s	n/a
255.146	0.105	510292	keystroke_k	k	n/a
255.3415	0.12	510683	keystroke_Key.space	Key.space	n/a
255.8665	0.075	511733	keystroke_w	w	n/a
255.9715	0.105	511943	keystroke_i	i	n/a
256.1365	0.1045	512273	keystroke_t	t	n/a
256.376	0.09	512752	keystroke_n	n	n/a
256.496	0.105	512992	keystroke_e	e	n/a
256.616	0.075	513232	keystroke_s	s	n/a
256.796	0.075	513592	keystroke_s	s	n/a
257.3215	0.09	514643	keystroke_e	e	n/a
257.4265	0.105	514853	keystroke_s	s	n/a
257.6515	0.105	515303	keystroke_Key.space	Key.space	n/a
257.9215	0.09	515843	keystroke_p	p	n/a
258.0115	0.105	516023	keystroke_a	a	n/a
258.1915	0.105	516383	keystroke_c	c	n/a
258.3415	0.09	516683	keystroke_k	k	n/a
258.8055	0.06	517611	keystroke_Key.enter	Key.enter	n/a
258.872	9.2655	517744	prompt	n/a	lincoln justin transfers subsequently\n
259.601	0.21	519202	keystroke_l	l	n/a
259.797	0.074	519594	keystroke_i	i	n/a
259.901	0.165	519802	keystroke_n	n	n/a
260.232	0.0895	520464	keystroke_c	c	n/a
260.411	0.09	520822	keystroke_o	o	n/a
260.636	0.09	521272	keystroke_l	l	n/a
260.831	0.09	521662	keystroke_n	n	n/a
261.011	0.09	522022	keystroke_Key.space	Key.space	n/a
261.371	0.09	522742	keystroke_j	j	n/a
262.136	0.075	524272	keystroke_u	u	n/a
262.196	0.21	524392	keystroke_s	s	n/a
262.346	0.12	524692	keystroke_t	t	n/a
262.662	0.074	525324	keystroke_i	i	n/a
263.336	0.105	526672	keystroke_n	n	n/a
263.6965	0.1045	527393	keystroke_Key.space	Key.space	n/a
264.146	0.045	528292	keystroke_t	t	n/a
264.281	0.135	528562	keystroke_r	r	n/a
264.386	0.135	528772	keystroke_a	a	n/a
264.521	0.09	529042	keystroke_n	n	n/a
264.656	0.09	529312	keystroke_s	s	n/a
264.866	0.06	529732	keystroke_f	f	n/a
265.046	0.105	530092	keystroke_e	e	n/a
265.166	0.1505	530332	keystroke_r	r	n/a
265.3615	0.105	530723	keystroke_s	s	n/a
265.4805	0.106	530961	keystroke_Key.space	Key.space	n/a
265.6305	0.09	531261	keystroke_s	s	n/a
265.8115	0.075	531623	keystroke_u	u	n/a
265.931	0.0755	531862	keystroke_b	b	n/a
266.171	0.0755	532342	keystroke_s	s	n/a
266.351	0.105	532702	keystroke_e	e	n/a
266.651	0.105	533302	keystroke_q	q	n/a
266.831	0.045	533662	keystroke_u	u	n/a
266.936	0.075	533872	keystroke_e	e	n/a
267.1165	0.0745	534233	keystroke_n	n	n/a
267.281	0.105	534562	keystroke_t	t	n/a
267.461	0.105	534922	keystroke_l	l	n/a
267.612	0.1045	535224	keystroke_y	y	n/a
268.0915	0.045	536183	keystroke_Key.enter	Key.enter	n/a
268.142	7.316	536284	prompt	n/a	positions virgin complex restriction\n
268.8115	0.165	537623	keystroke_p	p	n/a
269.0515	0.135	538103	keystroke_o	o	n/a
269.456	0.12	538912	keystroke_s	s	n/a
269.681	0.06	539362	keystroke_i	i	n/a
269.801	0.135	539602	keystroke_t	t	n/a
269.891	0.21	539782	keystroke_i	i	n/a
269.966	0.15	539932	keystroke_o	o	n/a
270.086	0.165	540172	keystroke_n	n	n/a
270.266	0.105	540532	keystroke_s	s	n/a
270.386	0.12	540772	keystroke_Key.space	Key.space	n/a
270.626	0.075	541252	keystroke_v	v	n/a
270.821	0.0605	541642	keystroke_i	i	n/a
270.8965	0.0595	541793	keystroke_r	r	n/a
271.106	0.06	542212	keystroke_g	g	n/a
271.211	0.1505	542422	keystroke_i	i	n/a
271.3165	0.12	542633	keystroke_n	n	n/a
271.4365	0.09	542873	keystroke_Key.space	Key.space	n/a
271.6765	0.06	543353	keystroke_c	c	n/a
271.7815	0.21	543563	keystroke_o	o	n/a
271.8865	0.195	543773	keystroke_m	m	n/a
272.021	0.1205	544042	keystroke_p	p	n/a
272.1715	0.135	544343	keystroke_l	l	n/a
272.3215	0.105	544643	keystroke_e	e	n/a
272.5465	0.105	545093	keystroke_x	x	n/a
272.7415	0.105	545483	keystroke_Key.space	Key.space	n/a
272.9515	0.18	545903	keystroke_r	r	n/a
273.2515	0.09	546503	keystroke_e	e	n/a
273.8215	0.09	547643	keystroke_s	s	n/a
273.8965	0.075	547793	keystroke_t	t	n/a
274.0765	0.075	548153	keystroke_r	r	n/a
274.2405	0.075	548481	keystroke_i	i	n/a
274.4655	0.09	548931	keystroke_c	c	n/a
274.6905	0.09	549381	keystroke_t	t	n/a
274.7955	0.211	549591	keystroke_i	i	n/a
274.8865	0.134	549773	keystroke_o	o	n/a
274.9755	0.121	549951	keystroke_n	n	n/a
275.366	0.09	550732	keystroke_Key.enter	Key.enter	n/a
275.4615	7.346	550923	prompt	n/a	resources dirt diamonds offset\n
276.026	0.06	552052	keystroke_s	s	n/a
276.3705	0.105	552741	keystroke_Key.backspace	Key.backspace	n/a
276.581	0.15	553162	keystroke_r	r	n/a
276.671	0.1495	553342	keystroke_e	e	n/a
276.7765	0.134	553553	keystroke_s	s	n/a
277.3465	0.059	554693	keystroke_c	c	n/a
278.0055	0.075	556011	keystroke_Key.backspace	Key.backspace	n/a
278.1865	0.09	556373	keystroke_o	o	n/a
278.2905	0.076	556581	keystroke_u	u	n/a
278.3505	0.075	556701	keystroke_r	r	n/a
278.5905	0.03	557181	keystroke_c	c	n/a
278.7855	0.075	557571	keystroke_e	e	n/a
278.9505	0.135	557901	keystroke_s	s	n/a
279.1005	0.105	558201	keystroke_Key.space	Key.space	n/a
279.2205	0.0905	558441	keystroke_d	d	n/a
279.3565	0.0745	558713	keystroke_i	i	n/a
279.431	0.06	558862	keystroke_r	r	n/a
279.626	0.09	559252	keystroke_t	t	n/a
279.761	0.09	559522	keystroke_Key.space	Key.space	n/a
279.911	0.075	559822	keystroke_d	d	n/a
280.031	0.105	560062	keystroke_i	i	n/a
280.151	0.105	560302	keystroke_a	a	n/a
280.301	0.075	560602	keystroke_m	m	n/a
280.631	0.15	561262	keystroke_o	o	n/a
280.766	0.075	561532	keystroke_n	n	n/a
280.9465	0.045	561893	keystroke_d	d	n/a
281.0815	0.09	562163	keystroke_s	s	n/a
281.2005	0.105	562401	keystroke_Key.space	Key.space	n/a
281.4115	0.09	562823	keystroke_o	o	n/a
281.4865	0.06	562973	keystroke_f	f	n/a
281.6515	0.075	563303	keystroke_f	f	n/a
281.9365	0.09	563873	keystroke_s	s	n/a
282.1015	0.2095	564203	keystroke_e	e	n/a
282.326	0.135	564652	keystroke_t	t	n/a
282.716	0.09	565432	keystroke_Key.enter	Key.enter	n/a
282.8115	7.451	565623	prompt	n/a	controlling italy creating olympics\n
283.421	0.09	566842	keystroke_c	c	n/a
283.541	0.12	567082	keystroke_o	o	n/a
283.631	0.105	567262	keystroke_n	n	n/a
283.721	0.09	567442	keystroke_t	t	n/a
283.886	0.09	567772	keystroke_r	r	n/a
283.976	0.09	567952	keystroke_o	o	n/a
284.201	0.075	568402	keystroke_l	l	n/a
284.351	0.1045	568702	keystroke_l	l	n/a
284.5155	0.12	569031	keystroke_i	i	n/a
284.5905	0.12	569181	keystroke_n	n	n/a
284.6805	0.105	569361	keystroke_g	g	n/a
284.7705	0.12	569541	keystroke_Key.space	Key.space	n/a
284.9205	0.0605	569841	keystroke_i	i	n/a
285.026	0.09	570052	keystroke_t	t	n/a
285.161	0.12	570322	keystroke_a	a	n/a
285.296	0.105	570592	keystroke_l	l	n/a
285.701	0.06	571402	keystroke_y	y	n/a
285.926	0.09	571852	keystroke_Key.space	Key.space	n/a
286.121	0.06	572242	keystroke_c	c	n/a
286.316	0.135	572632	keystroke_r	r	n/a
286.391	0.09	572782	keystroke_e	e	n/a
286.466	0.15	572932	keystroke_a	a	n/a
286.586	0.09	573172	keystroke_t	t	n/a
286.736	0.105	573472	keystroke_i	i	n/a
286.811	0.105	573622	keystroke_n	n	n/a
286.931	0.105	573862	keystroke_g	g	n/a
287.006	0.12	574012	keystroke_Key.space	Key.space	n/a
287.276	0.1055	574552	keystroke_o	o	n/a
287.4865	0.119	574973	keystroke_l	l	n/a
287.6955	0.091	575391	keystroke_y	y	n/a
287.9655	0.136	575931	keystroke_m	m	n/a
288.1465	0.105	576293	keystroke_p	p	n/a
288.5205	0.06	577041	keystroke_i	i	n/a
288.7155	0.046	577431	keystroke_c	c	n/a
288.9565	0.06	577913	keystroke_s	s	n/a
290.1855	0.076	580371	keystroke_Key.enter	Key.enter	n/a
290.265	7.7975	580530	prompt	n/a	surrounding enhancing represents knee\n
290.996	0.09	581992	keystroke_s	s	n/a
291.146	0.0745	582292	keystroke_u	u	n/a
291.2355	0.06	582471	keystroke_r	r	n/a
291.3855	0.09	582771	keystroke_r	r	n/a
291.551	0.135	583102	keystroke_o	o	n/a
291.641	0.09	583282	keystroke_u	u	n/a
291.851	0.09	583702	keystroke_n	n	n/a
291.956	0.075	583912	keystroke_d	d	n/a
292.076	0.105	584152	keystroke_i	i	n/a
292.151	0.09	584302	keystroke_n	n	n/a
292.241	0.105	584482	keystroke_g	g	n/a
292.316	0.15	584632	keystroke_Key.space	Key.space	n/a
292.481	0.075	584962	keystroke_e	e	n/a
292.646	0.09	585292	keystroke_h	h	n/a
292.856	0.09	585712	keystroke_n	n	n/a
293.936	0.045	587872	keystroke_Key.backspace	Key.backspace	n/a
294.056	0.0905	588112	keystroke_Key.backspace	Key.backspace	n/a
294.2515	0.075	588503	keystroke_n	n	n/a
294.4915	0.075	588983	keystroke_h	h	n/a
294.5965	0.12	589193	keystroke_a	a	n/a
294.7015	0.09	589403	keystroke_n	n	n/a
294.9265	0.075	589853	keystroke_c	c	n/a
295.0465	0.12	590093	keystroke_i	i	n/a
295.1365	0.105	590273	keystroke_n	n	n/a
295.2565	0.09	590513	keystroke_g	g	n/a
295.3465	0.21	590693	keystroke_Key.space	Key.space	n/a
295.5415	0.135	591083	keystroke_r	r	n/a
295.5865	0.135	591173	keystroke_e	e	n/a
295.7665	0.09	591533	keystroke_p	p	n/a
295.8865	0.15	591773	keystroke_r	r	n/a
295.9615	0.09	591923	keystroke_e	e	n/a
296.0205	0.181	592041	keystroke_s	s	n/a
296.1865	0.09	592373	keystroke_e	e	n/a
296.3515	0.135	592703	keystroke_n	n	n/a
296.4715	0.105	592943	keystroke_t	t	n/a
296.6215	0.135	593243	keystroke_s	s	n/a
296.7715	0.12	593543	keystroke_Key.space	Key.space	n/a
296.9665	0.105	593933	keystroke_k	k	n/a
297.1615	0.09	594323	keystroke_n	n	n/a
297.3565	0.105	594713	keystroke_e	e	n/a
297.5365	0.105	595073	keystroke_e	e	n/a
297.9705	0.09	595941	keystroke_Key.enter	Key.enter	n/a
298.066	7.9315	596132	prompt	n/a	class resorts fishing performing\n
299.606	0.075	599212	keystroke_c	c	n/a
299.771	0.075	599542	keystroke_l	l	n/a
300.011	0.12	600022	keystroke_a	a	n/a
300.296	0.015	600592	keystroke_s	s	n/a
300.416	0.09	600832	keystroke_s	s	n/a
300.701	0.09	601402	keystroke_Key.space	Key.space	n/a
301.106	0.165	602212	keystroke_r	r	n/a
301.226	0.135	602452	keystroke_e	e	n/a
301.316	0.135	602632	keystroke_s	s	n/a
301.481	0.12	602962	keystroke_o	o	n/a
301.796	0.09	603592	keystroke_r	r	n/a
302.006	0.0595	604012	keystroke_t	t	n/a
302.1855	0.09	604371	keystroke_s	s	n/a
302.2765	0.089	604553	keystroke_Key.space	Key.space	n/a
302.4405	0.075	604881	keystroke_f	f	n/a
302.5305	0.09	605061	keystroke_i	i	n/a
302.6505	0.091	605301	keystroke_s	s	n/a
302.7865	0.105	605573	keystroke_h	h	n/a
302.9215	0.1195	605843	keystroke_i	i	n/a
303.026	0.1205	606052	keystroke_n	n	n/a
303.1615	0.1945	606323	keystroke_g	g	n/a
303.281	0.135	606562	keystroke_Key.space	Key.space	n/a
303.506	0.09	607012	keystroke_p	p	n/a
303.612	0.119	607224	keystroke_e	e	n/a
303.686	0.09	607372	keystroke_r	r	n/a
303.851	0.105	607702	keystroke_f	f	n/a
304.001	0.1505	608002	keystroke_o	o	n/a
304.1665	0.074	608333	keystroke_r	r	n/a
304.2115	0.12	608423	keystroke_m	m	n/a
304.4665	0.149	608933	keystroke_i	i	n/a
305.381	0.12	610762	keystroke_n	n	n/a
305.516	0.061	611032	keystroke_g	g	n/a
305.906	0.09	611812	keystroke_Key.enter	Key.enter	n/a
306.001	8.172	612002	prompt	n/a	omaha thick cnet chicken\n
306.716	0.135	613432	keystroke_o	o	n/a
307.016	0.135	614032	keystroke_h	h	n/a
307.991	0.0745	615982	keystroke_Key.backspace	Key.backspace	n/a
308.201	0.075	616402	keystroke_m	m	n/a
308.351	0.12	616702	keystroke_a	a	n/a
308.516	0.075	617032	keystroke_h	h	n/a
308.651	0.12	617302	keystroke_a	a	n/a
309.236	0.1055	618472	keystroke_Key.space	Key.space	n/a
309.5355	0.075	619071	keystroke_t	t	n/a
309.6415	0.074	619283	keystroke_h	h	n/a
309.7915	0.09	619583	keystroke_i	i	n/a
309.9255	0.09	619851	keystroke_c	c	n/a
310.0615	0.119	620123	keystroke_k	k	n/a
310.1505	0.1055	620301	keystroke_Key.space	Key.space	n/a
310.661	0.075	621322	keystroke_c	c	n/a
310.871	0.075	621742	keystroke_n	n	n/a
311.096	0.105	622192	keystroke_e	e	n/a
311.231	0.0895	622462	keystroke_t	t	n/a
311.3955	0.1055	622791	keystroke_Key.space	Key.space	n/a
311.651	0.075	623302	keystroke_c	c	n/a
311.786	0.12	623572	keystroke_h	h	n/a
312.041	0.075	624082	keystroke_i	i	n/a
312.251	0.075	624502	keystroke_c	c	n/a
312.761	0.06	625522	keystroke_k	k	n/a
312.881	0.12	625762	keystroke_e	e	n/a
313.016	0.09	626032	keystroke_n	n	n/a
314.066	0.105	628132	keystroke_Key.enter	Key.enter	n/a
314.176	6.792	628352	prompt	n/a	giant exposure correctly disorders\n
314.8905	0.076	629781	keystroke_g	g	n/a
315.0115	0.09	630023	keystroke_i	i	n/a
315.1165	0.12	630233	keystroke_a	a	n/a
315.2665	0.0745	630533	keystroke_n	n	n/a
315.476	0.105	630952	keystroke_t	t	n/a
315.641	0.105	631282	keystroke_Key.space	Key.space	n/a
315.836	0.09	631672	keystroke_e	e	n/a
316.061	0.09	632122	keystroke_x	x	n/a
316.241	0.0755	632482	keystroke_p	p	n/a
316.391	0.1205	632782	keystroke_o	o	n/a
316.5865	0.09	633173	keystroke_s	s	n/a
316.8415	0.09	633683	keystroke_u	u	n/a
316.9765	0.135	633953	keystroke_r	r	n/a
317.0665	0.09	634133	keystroke_e	e	n/a
317.1865	0.1195	634373	keystroke_Key.space	Key.space	n/a
317.501	0.075	635002	keystroke_c	c	n/a
317.606	0.075	635212	keystroke_o	o	n/a
317.756	0.06	635512	keystroke_r	r	n/a
317.891	0.105	635782	keystroke_r	r	n/a
318.011	0.075	636022	keystroke_e	e	n/a
318.296	0.075	636592	keystroke_c	c	n/a
318.506	0.075	637012	keystroke_t	t	n/a
318.626	0.105	637252	keystroke_l	l	n/a
318.821	0.075	637642	keystroke_y	y	n/a
318.897	0.104	637794	keystroke_Key.space	Key.space	n/a
319.106	0.075	638212	keystroke_d	d	n/a
319.286	0.06	638572	keystroke_i	i	n/a
319.391	0.09	638782	keystroke_s	s	n/a
319.556	0.0755	639112	keystroke_o	o	n/a
319.6765	0.075	639353	keystroke_r	r	n/a
319.8715	0.075	639743	keystroke_d	d	n/a
320.0665	0.09	640133	keystroke_e	e	n/a
320.1115	0.12	640223	keystroke_r	r	n/a
320.6065	0.09	641213	keystroke_s	s	n/a
320.8455	0.121	641691	keystroke_Key.enter	Key.enter	n/a
320.9725	6.25	641945	prompt	n/a	guns optimum found seems\n
321.476	0.12	642952	keystroke_g	g	n/a
321.686	0.06	643372	keystroke_u	u	n/a
321.896	0.09	643792	keystroke_n	n	n/a
322.031	0.12	644062	keystroke_s	s	n/a
322.166	0.15	644332	keystroke_Key.space	Key.space	n/a
322.481	0.135	644962	keystroke_o	o	n/a
322.661	0.105	645322	keystroke_p	p	n/a
322.991	0.09	645982	keystroke_t	t	n/a
323.276	0.1345	646552	keystroke_i	i	n/a
324.0705	0.106	648141	keystroke_m	m	n/a
324.3715	0.044	648743	keystroke_u	u	n/a
324.6405	0.106	649281	keystroke_m	m	n/a
325.0755	0.075	650151	keystroke_Key.space	Key.space	n/a
325.436	0.0895	650872	keystroke_f	f	n/a
325.5555	0.135	651111	keystroke_o	o	n/a
325.6765	0.074	651353	keystroke_u	u	n/a
325.8865	0.09	651773	keystroke_n	n	n/a
325.9615	0.105	651923	keystroke_d	d	n/a
326.0515	0.15	652103	keystroke_Key.space	Key.space	n/a
326.2165	0.135	652433	keystroke_s	s	n/a
326.3665	0.075	652733	keystroke_e	e	n/a
326.5165	0.075	653033	keystroke_e	e	n/a
326.6515	0.12	653303	keystroke_m	m	n/a
326.8015	0.09	653603	keystroke_s	s	n/a
327.1315	0.0895	654263	keystroke_Key.enter	Key.enter	n/a
327.228	8.5305	654456	prompt	n/a	safe nebraska naked equation\n
327.776	0.075	655552	keystroke_s	s	n/a
327.941	0.15	655882	keystroke_a	a	n/a
328.076	0.09	656152	keystroke_f	f	n/a
328.211	0.225	656422	keystroke_e	e	n/a
328.841	0.12	657682	keystroke_Key.space	Key.space	n/a
329.3215	0.074	658643	keystroke_n	n	n/a
329.4115	0.09	658823	keystroke_e	e	n/a
329.651	0.045	659302	keystroke_g	g	n/a
330.0565	0.075	660113	keystroke_Key.backspace	Key.backspace	n/a
330.1615	0.06	660323	keystroke_b	b	n/a
330.3715	0.06	660743	keystroke_r	r	n/a
330.5215	0.135	661043	keystroke_a	a	n/a
330.7165	0.075	661433	keystroke_s	s	n/a
330.8965	0.105	661793	keystroke_k	k	n/a
331.1815	0.09	662363	keystroke_s	s	n/a
331.9465	0.1045	663893	keystroke_Key.backspace	Key.backspace	n/a
332.066	0.135	664132	keystroke_a	a	n/a
332.186	0.12	664372	keystroke_Key.space	Key.space	n/a
332.531	0.105	665062	keystroke_n	n	n/a
332.591	0.1355	665182	keystroke_a	a	n/a
332.7715	0.1055	665543	keystroke_k	k	n/a
332.891	0.105	665782	keystroke_e	e	n/a
333.7765	0.105	667553	keystroke_d	d	n/a
333.9705	0.1205	667941	keystroke_Key.space	Key.space	n/a
334.346	0.09	668692	keystroke_e	e	n/a
334.496	0.135	668992	keystroke_q	q	n/a
334.647	0.059	669294	keystroke_u	u	n/a
334.766	0.165	669532	keystroke_a	a	n/a
334.961	0.09	669922	keystroke_t	t	n/a
335.096	0.135	670192	keystroke_i	i	n/a
335.201	0.1805	670402	keystroke_o	o	n/a
335.3215	0.12	670643	keystroke_n	n	n/a
335.6655	0.091	671331	keystroke_Key.enter	Key.enter	n/a
335.762	8.021	671524	prompt	n/a	minolta extends chuck we're\n
336.536	0.15	673072	keystroke_m	m	n/a
336.8065	0.1195	673613	keystroke_o	o	n/a
337.406	0.105	674812	keystroke_n	n	n/a
337.796	0.0595	675592	keystroke_Key.backspace	Key.backspace	n/a
337.946	0.06	675892	keystroke_Key.backspace	Key.backspace	n/a
338.096	0.12	676192	keystroke_i	i	n/a
338.231	0.1355	676462	keystroke_n	n	n/a
338.4865	0.0895	676973	keystroke_o	o	n/a
338.696	0.12	677392	keystroke_l	l	n/a
338.981	0.09	677962	keystroke_t	t	n/a
339.1765	0.135	678353	keystroke_a	a	n/a
339.3115	0.09	678623	keystroke_Key.space	Key.space	n/a
339.5215	0.06	679043	keystroke_e	e	n/a
339.746	0.075	679492	keystroke_x	x	n/a
339.926	0.075	679852	keystroke_t	t	n/a
340.046	0.09	680092	keystroke_e	e	n/a
340.211	0.105	680422	keystroke_n	n	n/a
340.406	0.075	680812	keystroke_d	d	n/a
340.796	0.105	681592	keystroke_s	s	n/a
340.946	0.105	681892	keystroke_Key.space	Key.space	n/a
341.216	0.075	682432	keystroke_c	c	n/a
341.321	0.09	682642	keystroke_h	h	n/a
341.5465	0.045	683093	keystroke_u	u	n/a
341.6515	0.075	683303	keystroke_c	c	n/a
341.8315	0.105	683663	keystroke_k	k	n/a
341.9815	0.09	683963	keystroke_Key.space	Key.space	n/a
342.3705	0.136	684741	keystroke_w	w	n/a
342.5355	0.09	685071	keystroke_e	e	n/a
342.7915	0.12	685583	keystroke_'	'	n/a
343.0455	0.121	686091	keystroke_r	r	n/a
343.1065	0.105	686213	keystroke_e	e	n/a
343.7215	0.059	687443	keystroke_Key.enter	Key.enter	n/a
343.7865	8.231	687573	prompt	n/a	deemed secured principal procedures\n
344.5005	0.061	689001	keystroke_d	d	n/a
344.681	0.045	689362	keystroke_e	e	n/a
344.816	0.09	689632	keystroke_e	e	n/a
344.936	0.105	689872	keystroke_m	m	n/a
345.056	0.045	690112	keystroke_e	e	n/a
345.221	0.075	690442	keystroke_d	d	n/a
345.431	0.105	690862	keystroke_Key.space	Key.space	n/a
345.687	0.074	691374	keystroke_s	s	n/a
345.851	0.06	691702	keystroke_e	e	n/a
346.031	0.105	692062	keystroke_c	c	n/a
346.226	0.0755	692452	keystroke_u	u	n/a
346.3315	0.09	692663	keystroke_r	r	n/a
346.4965	0.09	692993	keystroke_e	e	n/a
346.7365	0.09	693473	keystroke_d	d	n/a
346.8565	0.15	693713	keystroke_Key.space	Key.space	n/a
347.0965	0.12	694193	keystroke_p	p	n/a
347.2765	0.075	694553	keystroke_r	r	n/a
347.3665	0.12	694733	keystroke_i	i	n/a
347.4865	0.105	694973	keystroke_n	n	n/a
347.6065	0.075	695213	keystroke_c	c	n/a
347.7265	0.12	695453	keystroke_i	i	n/a
347.9065	0.12	695813	keystroke_p	p	n/a
348.0715	0.15	696143	keystroke_a	a	n/a
348.3265	0.089	696653	keystroke_l	l	n/a
348.3865	0.09	696773	keystroke_Key.space	Key.space	n/a
348.7765	0.06	697553	keystroke_p	p	n/a
348.8965	0.075	697793	keystroke_r	r	n/a
349.0315	0.089	698063	keystroke_o	o	n/a
349.1515	0.09	698303	keystroke_d	d	n/a
349.391	0.045	698782	keystroke_c	c	n/a
349.7965	0.12	699593	keystroke_Key.backspace	Key.backspace	n/a
350.2465	0.09	700493	keystroke_Key.backspace	Key.backspace	n/a
350.5315	0.075	701063	keystroke_c	c	n/a
350.7565	0.06	701513	keystroke_e	e	n/a
350.9215	0.075	701843	keystroke_d	d	n/a
351.0865	0.06	702173	keystroke_u	u	n/a
351.2365	0.1505	702473	keystroke_r	r	n/a
351.326	0.135	702652	keystroke_e	e	n/a
351.416	0.105	702832	keystroke_s	s	n/a
351.926	0.09	703852	keystroke_Key.enter	Key.enter	n/a
352.022	8.5755	704044	prompt	n/a	purchased mary academics considerable\n
352.496	0.06	704992	keystroke_d	d	n/a
352.826	0.09	705652	keystroke_Key.backspace	Key.backspace	n/a
353.1115	0.09	706223	keystroke_p	p	n/a
353.2315	0.09	706463	keystroke_u	u	n/a
353.3065	0.075	706613	keystroke_r	r	n/a
353.5315	0.075	707063	keystroke_c	c	n/a
353.6215	0.09	707243	keystroke_h	h	n/a
353.7565	0.1495	707513	keystroke_a	a	n/a
353.8765	0.1495	707753	keystroke_s	s	n/a
354.011	0.09	708022	keystroke_e	e	n/a
354.221	0.075	708442	keystroke_d	d	n/a
355.1655	0.09	710331	keystroke_Key.space	Key.space	n/a
355.3755	0.075	710751	keystroke_m	m	n/a
355.4355	0.105	710871	keystroke_a	a	n/a
355.7355	0.09	711471	keystroke_r	r	n/a
355.8855	0.06	711771	keystroke_y	y	n/a
355.9755	0.12	711951	keystroke_Key.space	Key.space	n/a
356.1255	0.106	712251	keystroke_a	a	n/a
356.3205	0.075	712641	keystroke_c	c	n/a
356.5455	0.12	713091	keystroke_a	a	n/a
356.6965	0.074	713393	keystroke_d	d	n/a
356.9065	0.059	713813	keystroke_e	e	n/a
357.0705	0.1055	714141	keystroke_m	m	n/a
357.566	0.09	715132	keystroke_i	i	n/a
357.671	0.09	715342	keystroke_c	c	n/a
357.941	0.105	715882	keystroke_s	s	n/a
358.091	0.1205	716182	keystroke_Key.space	Key.space	n/a
358.3615	0.06	716723	keystroke_c	c	n/a
358.4665	0.12	716933	keystroke_o	o	n/a
358.5715	0.105	717143	keystroke_n	n	n/a
358.6615	0.075	717323	keystroke_s	s	n/a
358.8415	0.09	717683	keystroke_i	i	n/a
358.9315	0.075	717863	keystroke_d	d	n/a
359.1415	0.09	718283	keystroke_e	e	n/a
359.2015	0.105	718403	keystroke_r	r	n/a
359.3665	0.18	718733	keystroke_a	a	n/a
359.726	0.075	719452	keystroke_b	b	n/a
359.906	0.12	719812	keystroke_l	l	n/a
360.041	0.075	720082	keystroke_e	e	n/a
360.506	0.09	721012	keystroke_Key.enter	Key.enter	n/a
360.6025	7.9145	721205	prompt	n/a	very fort advertise acrylic\n
361.301	0.06	722602	keystroke_v	v	n/a
361.481	0.105	722962	keystroke_e	e	n/a
361.541	0.12	723082	keystroke_r	r	n/a
361.7505	0.075	723501	keystroke_y	y	n/a
361.8105	0.1205	723621	keystroke_Key.space	Key.space	n/a
361.9465	0.104	723893	keystroke_f	f	n/a
362.1255	0.075	724251	keystroke_o	o	n/a
362.2305	0.075	724461	keystroke_r	r	n/a
362.4415	0.0895	724883	keystroke_t	t	n/a
362.606	0.105	725212	keystroke_Key.space	Key.space	n/a
363.176	0.135	726352	keystroke_a	a	n/a
363.386	0.06	726772	keystroke_d	d	n/a
363.731	0.075	727462	keystroke_v	v	n/a
363.926	0.1495	727852	keystroke_e	e	n/a
364.0315	0.089	728063	keystroke_r	r	n/a
364.2115	0.075	728423	keystroke_t	t	n/a
364.3765	0.044	728753	keystroke_i	i	n/a
364.6465	0.1195	729293	keystroke_s	s	n/a
364.931	0.105	729862	keystroke_e	e	n/a
365.096	0.105	730192	keystroke_Key.space	Key.space	n/a
365.336	0.09	730672	keystroke_a	a	n/a
365.561	0.06	731122	keystroke_c	c	n/a
365.756	0.06	731512	keystroke_r	r	n/a
365.996	0.09	731992	keystroke_y	y	n/a
366.221	0.15	732442	keystroke_l	l	n/a
366.401	0.045	732802	keystroke_c	c	n/a
366.476	0.105	732952	keystroke_i	i	n/a
367.406	0.09	734812	keystroke_Key.backspace	Key.backspace	n/a
367.571	0.09	735142	keystroke_Key.backspace	Key.backspace	n/a
367.691	0.105	735382	keystroke_i	i	n/a
367.811	0.09	735622	keystroke_c	c	n/a
368.4255	0.0905	736851	keystroke_Key.enter	Key.enter	n/a
368.5205	6.297	737041	prompt	n/a	bite extraordinary sort newark\n
369.266	0.09	738532	keystroke_b	b	n/a
369.461	0.0755	738922	keystroke_i	i	n/a
369.5965	0.134	739193	keystroke_t	t	n/a
369.701	0.1345	739402	keystroke_e	e	n/a
369.8805	0.09	739761	keystroke_Key.space	Key.space	n/a
370.2565	0.074	740513	keystroke_e	e	n/a
370.4665	0.09	740933	keystroke_x	x	n/a
370.6605	0.09	741321	keystroke_t	t	n/a
370.8705	0.105	741741	keystroke_r	r	n/a
371.1255	0.076	742251	keystroke_a	a	n/a
371.3655	0.075	742731	keystroke_o	o	n/a
371.5005	0.045	743001	keystroke_r	r	n/a
371.6355	0.075	743271	keystroke_d	d	n/a
371.7715	0.119	743543	keystroke_i	i	n/a
371.8915	0.134	743783	keystroke_n	n	n/a
371.9515	0.164	743903	keystroke_a	a	n/a
372.0855	0.1055	744171	keystroke_r	r	n/a
372.371	0.045	744742	keystroke_y	y	n/a
372.536	0.09	745072	keystroke_Key.space	Key.space	n/a
372.806	0.015	745612	keystroke_s	s	n/a
372.881	0.06	745762	keystroke_o	o	n/a
373	0.0765	746000	keystroke_r	r	n/a
373.2255	0.075	746451	keystroke_t	t	n/a
373.345	0.1355	746690	keystroke_Key.space	Key.space	n/a
373.5855	0.12	747171	keystroke_n	n	n/a
373.7205	0.1055	747441	keystroke_e	e	n/a
373.8855	0.075	747771	keystroke_w	w	n/a
374.111	0.1495	748222	keystroke_a	a	n/a
374.2615	0.074	748523	keystroke_r	r	n/a
374.4855	0.075	748971	keystroke_k	k	n/a
374.7405	0.075	749481	keystroke_Key.enter	Key.enter	n/a
374.821	11.0965	749642	prompt	n/a	conspiracy infectious museums curious\n
375.5965	0.074	751193	keystroke_c	c	n/a
375.7155	0.076	751431	keystroke_o	o	n/a
375.7755	0.12	751551	keystroke_n	n	n/a
375.8655	0.09	751731	keystroke_s	s	n/a
376.3605	0.135	752721	keystroke_i	i	n/a
376.8855	0.09	753771	keystroke_Key.backspace	Key.backspace	n/a
377.1405	0.105	754281	keystroke_p	p	n/a
377.3055	0.105	754611	keystroke_i	i	n/a
377.4715	0.119	754943	keystroke_r	r	n/a
377.6505	0.1655	755301	keystroke_a	a	n/a
377.981	0.06	755962	keystroke_c	c	n/a
378.146	0.06	756292	keystroke_y	y	n/a
378.251	0.105	756502	keystroke_Key.space	Key.space	n/a
378.626	0.12	757252	keystroke_i	i	n/a
378.731	0.1045	757462	keystroke_n	n	n/a
378.8655	0.075	757731	keystroke_f	f	n/a
379.031	0.06	758062	keystroke_e	e	n/a
379.2255	0.0905	758451	keystroke_c	c	n/a
379.3905	0.1055	758781	keystroke_t	t	n/a
379.571	0.09	759142	keystroke_i	i	n/a
379.6305	0.1655	759261	keystroke_o	o	n/a
379.766	0.12	759532	keystroke_u	u	n/a
379.946	0.12	759892	keystroke_s	s	n/a
380.096	0.09	760192	keystroke_Key.space	Key.space	n/a
380.516	0.075	761032	keystroke_m	m	n/a
380.756	0.075	761512	keystroke_u	u	n/a
380.936	0.09	761872	keystroke_s	s	n/a
381.491	0.09	762982	keystroke_e	e	n/a
381.8055	0.09	763611	keystroke_u	u	n/a
382.2855	0.136	764571	keystroke_m	m	n/a
382.601	0.09	765202	keystroke_s	s	n/a
382.751	0.105	765502	keystroke_Key.space	Key.space	n/a
383.066	0.075	766132	keystroke_c	c	n/a
383.9205	0.015	767841	keystroke_u	u	n/a
383.9505	0.075	767901	keystroke_r	r	n/a
384.7155	0.12	769431	keystroke_i	i	n/a
384.8055	0.1795	769611	keystroke_o	o	n/a
384.97	0.09	769940	keystroke_u	u	n/a
385.226	0.0895	770452	keystroke_s	s	n/a
385.841	0.075	771682	keystroke_Key.enter	Key.enter	n/a
385.9215	9.146	771843	prompt	n/a	printed advertise partner privileges\n
386.9805	0.09	773961	keystroke_p	p	n/a
387.1155	0.09	774231	keystroke_r	r	n/a
387.1915	0.104	774383	keystroke_i	i	n/a
387.2815	0.105	774563	keystroke_n	n	n/a
387.4005	0.09	774801	keystroke_t	t	n/a
387.4765	0.104	774953	keystroke_e	e	n/a
387.7155	0.105	775431	keystroke_d	d	n/a
387.8655	0.12	775731	keystroke_Key.space	Key.space	n/a
387.9555	0.135	775911	keystroke_a	a	n/a
388.0755	0.09	776151	keystroke_d	d	n/a
388.4655	0.06	776931	keystroke_v	v	n/a
388.6755	0.12	777351	keystroke_e	e	n/a
388.7505	0.12	777501	keystroke_r	r	n/a
388.9155	0.105	777831	keystroke_s	s	n/a
389.1105	0.075	778221	keystroke_i	i	n/a
389.7255	0.075	779451	keystroke_Key.backspace	Key.backspace	n/a
389.8905	0.075	779781	keystroke_Key.backspace	Key.backspace	n/a
389.9805	0.075	779961	keystroke_t	t	n/a
390.1005	0.075	780201	keystroke_i	i	n/a
390.2205	0.105	780441	keystroke_s	s	n/a
390.4755	0.09	780951	keystroke_e	e	n/a
390.7155	0.105	781431	keystroke_Key.space	Key.space	n/a
391.271	0.105	782542	keystroke_p	p	n/a
391.361	0.12	782722	keystroke_a	a	n/a
391.436	0.075	782872	keystroke_r	r	n/a
391.631	0.075	783262	keystroke_t	t	n/a
391.736	0.105	783472	keystroke_n	n	n/a
391.841	0.12	783682	keystroke_e	e	n/a
391.916	0.12	783832	keystroke_r	r	n/a
392.036	0.105	784072	keystroke_Key.space	Key.space	n/a
392.351	0.12	784702	keystroke_p	p	n/a
392.501	0.09	785002	keystroke_r	r	n/a
392.621	0.075	785242	keystroke_i	i	n/a
392.771	0.075	785542	keystroke_v	v	n/a
392.906	0.105	785812	keystroke_i	i	n/a
393.311	0.135	786622	keystroke_l	l	n/a
393.461	0.075	786922	keystroke_e	e	n/a
393.611	0.09	787222	keystroke_g	g	n/a
393.8955	0.1055	787791	keystroke_e	e	n/a
394.075	0.105	788150	keystroke_s	s	n/a
394.946	0.12	789892	keystroke_Key.enter	Key.enter	n/a
395.071	7.676	790142	prompt	n/a	movement sunshine statistics incurred\n
395.6955	0.105	791391	keystroke_m	m	n/a
395.8305	0.105	791661	keystroke_o	o	n/a
395.9505	0.09	791901	keystroke_v	v	n/a
396.0705	0.0755	792141	keystroke_e	e	n/a
396.161	0.075	792322	keystroke_m	m	n/a
396.2655	0.0905	792531	keystroke_e	e	n/a
396.3855	0.075	792771	keystroke_n	n	n/a
396.5055	0.075	793011	keystroke_t	t	n/a
396.5955	0.105	793191	keystroke_Key.space	Key.space	n/a
396.806	0.09	793612	keystroke_s	s	n/a
396.926	0.075	793852	keystroke_u	u	n/a
397.121	0.105	794242	keystroke_n	n	n/a
397.256	0.075	794512	keystroke_s	s	n/a
397.376	0.09	794752	keystroke_i	i	n/a
397.7805	0.12	795561	keystroke_Key.backspace	Key.backspace	n/a
397.9615	0.119	795923	keystroke_h	h	n/a
398.1105	0.105	796221	keystroke_i	i	n/a
398.2005	0.105	796401	keystroke_n	n	n/a
398.3505	0.12	796701	keystroke_e	e	n/a
398.6355	0.105	797271	keystroke_Key.space	Key.space	n/a
398.9205	0.09	797841	keystroke_s	s	n/a
399.0555	0.09	798111	keystroke_t	t	n/a
399.1755	0.1505	798351	keystroke_a	a	n/a
399.296	0.105	798592	keystroke_t	t	n/a
399.5505	0.09	799101	keystroke_i	i	n/a
399.6555	0.165	799311	keystroke_s	s	n/a
399.8055	0.12	799611	keystroke_t	t	n/a
399.9555	0.105	799911	keystroke_i	i	n/a
400.1505	0.075	800301	keystroke_c	c	n/a
400.4805	0.075	800961	keystroke_s	s	n/a
400.9455	0.12	801891	keystroke_Key.space	Key.space	n/a
401.1255	0.135	802251	keystroke_i	i	n/a
401.2455	0.0755	802491	keystroke_n	n	n/a
401.531	0.075	803062	keystroke_c	c	n/a
401.71	0.061	803420	keystroke_u	u	n/a
401.815	0.045	803630	keystroke_r	r	n/a
401.936	0.105	803872	keystroke_r	r	n/a
402.101	0.0745	804202	keystroke_e	e	n/a
402.2955	0.09	804591	keystroke_d	d	n/a
402.6405	0.105	805281	keystroke_Key.enter	Key.enter	n/a
402.753	8.799	805506	prompt	n/a	terrorists governor katrina cant\n
403.3615	0.105	806723	keystroke_t	t	n/a
403.5255	0.15	807051	keystroke_e	e	n/a
403.7365	0.014	807473	keystroke_r	r	n/a
403.8405	0.075	807681	keystroke_r	r	n/a
403.9755	0.075	807951	keystroke_o	o	n/a
404.0805	0.12	808161	keystroke_r	r	n/a
404.3065	0.104	808613	keystroke_o	o	n/a
404.8155	0.105	809631	keystroke_Key.backspace	Key.backspace	n/a
404.9655	0.105	809931	keystroke_i	i	n/a
405.1005	0.12	810201	keystroke_s	s	n/a
405.3405	0.1195	810681	keystroke_t	t	n/a
406.24	0.135	812480	keystroke_s	s	n/a
406.4355	0.105	812871	keystroke_Key.space	Key.space	n/a
406.6605	0.0755	813321	keystroke_g	g	n/a
406.81	0.1055	813620	keystroke_o	o	n/a
406.9605	0.09	813921	keystroke_v	v	n/a
407.1705	0.135	814341	keystroke_e	e	n/a
407.2605	0.09	814521	keystroke_r	r	n/a
407.3805	0.105	814761	keystroke_n	n	n/a
408.1605	0.12	816321	keystroke_o	o	n/a
408.2655	0.12	816531	keystroke_r	r	n/a
408.4005	0.075	816801	keystroke_Key.space	Key.space	n/a
408.8355	0.09	817671	keystroke_k	k	n/a
408.8505	0.1495	817701	keystroke_a	a	n/a
408.9705	0.0895	817941	keystroke_t	t	n/a
409.18	0.076	818360	keystroke_r	r	n/a
409.3	0.075	818600	keystroke_i	i	n/a
409.451	0.104	818902	keystroke_n	n	n/a
409.57	0.151	819140	keystroke_a	a	n/a
409.735	0.075	819470	keystroke_Key.space	Key.space	n/a
409.945	0.061	819890	keystroke_c	c	n/a
410.08	0.15	820160	keystroke_a	a	n/a
410.186	0.089	820372	keystroke_n	n	n/a
410.3805	0.09	820761	keystroke_t	t	n/a
411.49	0.06	822980	keystroke_Key.enter	Key.enter	n/a
411.557	7.06	823114	prompt	n/a	rage silk ease exclusion\n
412.2855	0.105	824571	keystroke_r	r	n/a
412.4355	0.15	824871	keystroke_a	a	n/a
412.6155	0.09	825231	keystroke_g	g	n/a
412.8105	0.105	825621	keystroke_e	e	n/a
412.8855	0.105	825771	keystroke_Key.space	Key.space	n/a
413.08	0.075	826160	keystroke_s	s	n/a
413.215	0.075	826430	keystroke_i	i	n/a
413.395	0.09	826790	keystroke_l	l	n/a
413.59	0.105	827180	keystroke_d	d	n/a
413.71	0.105	827420	keystroke_Key.space	Key.space	n/a
414.4455	0.075	828891	keystroke_Key.backspace	Key.backspace	n/a
414.6105	0.075	829221	keystroke_Key.backspace	Key.backspace	n/a
414.7905	0.12	829581	keystroke_k	k	n/a
414.9255	0.15	829851	keystroke_Key.space	Key.space	n/a
415.1355	0.09	830271	keystroke_e	e	n/a
415.2405	0.15	830481	keystroke_a	a	n/a
415.376	0.105	830752	keystroke_s	s	n/a
415.901	0.075	831802	keystroke_e	e	n/a
416.0055	0.135	832011	keystroke_Key.space	Key.space	n/a
416.3505	0.09	832701	keystroke_e	e	n/a
416.5905	0.075	833181	keystroke_x	x	n/a
416.7855	0.075	833571	keystroke_c	c	n/a
416.9355	0.15	833871	keystroke_l	l	n/a
417.0555	0.1045	834111	keystroke_u	u	n/a
417.2355	0.105	834471	keystroke_s	s	n/a
417.3855	0.225	834771	keystroke_i	i	n/a
417.5805	0.24	835161	keystroke_o	o	n/a
417.7605	0.135	835521	keystroke_n	n	n/a
418.5255	0.09	837051	keystroke_Key.enter	Key.enter	n/a
418.6225	6.8345	837245	prompt	n/a	merge humidity separate discretion\n
419.2905	0.075	838581	keystroke_m	m	n/a
419.3655	0.12	838731	keystroke_e	e	n/a
419.4555	0.075	838911	keystroke_r	r	n/a
419.6505	0.075	839301	keystroke_g	g	n/a
419.7705	0.105	839541	keystroke_e	e	n/a
419.8905	0.0895	839781	keystroke_Key.space	Key.space	n/a
420.115	0.076	840230	keystroke_h	h	n/a
420.31	0.06	840620	keystroke_u	u	n/a
420.52	0.135	841040	keystroke_m	m	n/a
420.625	0.105	841250	keystroke_i	i	n/a
420.805	0.075	841610	keystroke_d	d	n/a
420.94	0.075	841880	keystroke_i	i	n/a
421.09	0.09	842180	keystroke_t	t	n/a
421.315	0.075	842630	keystroke_y	y	n/a
421.81	0.075	843620	keystroke_Key.space	Key.space	n/a
422.125	0.09	844250	keystroke_s	s	n/a
422.32	0.09	844640	keystroke_e	e	n/a
422.515	0.1055	845030	keystroke_p	p	n/a
422.605	0.1655	845210	keystroke_a	a	n/a
422.7255	0.12	845451	keystroke_r	r	n/a
422.8905	0.135	845781	keystroke_a	a	n/a
423.0105	0.15	846021	keystroke_t	t	n/a
423.1755	0.075	846351	keystroke_e	e	n/a
423.4	0.09	846800	keystroke_Key.space	Key.space	n/a
423.61	0.06	847220	keystroke_d	d	n/a
423.73	0.075	847460	keystroke_i	i	n/a
423.836	0.074	847672	keystroke_s	s	n/a
424.045	0.076	848090	keystroke_c	c	n/a
424.255	0.0905	848510	keystroke_r	r	n/a
424.33	0.0905	848660	keystroke_e	e	n/a
424.48	0.09	848960	keystroke_t	t	n/a
424.63	0.18	849260	keystroke_i	i	n/a
424.7655	0.1495	849531	keystroke_o	o	n/a
424.855	0.135	849710	keystroke_n	n	n/a
425.38	0.075	850760	keystroke_Key.enter	Key.enter	n/a
425.4605	9.9415	850921	prompt	n/a	adventures donation spirituality thing\n
426.281	0.165	852562	keystroke_a	a	n/a
426.43	0.075	852860	keystroke_d	d	n/a
426.685	0.075	853370	keystroke_v	v	n/a
426.865	0.075	853730	keystroke_e	e	n/a
426.97	0.09	853940	keystroke_n	n	n/a
427.075	0.075	854150	keystroke_t	t	n/a
427.3155	0.06	854631	keystroke_u	u	n/a
427.4205	0.075	854841	keystroke_r	r	n/a
427.4505	0.135	854901	keystroke_e	e	n/a
427.5705	0.165	855141	keystroke_s	s	n/a
428.38	0.15	856760	keystroke_Key.space	Key.space	n/a
428.515	0.075	857030	keystroke_d	d	n/a
428.65	0.105	857300	keystroke_o	o	n/a
428.77	0.075	857540	keystroke_n	n	n/a
428.875	0.15	857750	keystroke_a	a	n/a
428.995	0.1205	857990	keystroke_t	t	n/a
429.1005	0.1945	858201	keystroke_i	i	n/a
429.16	0.15	858320	keystroke_o	o	n/a
429.265	0.105	858530	keystroke_n	n	n/a
429.76	0.1205	859520	keystroke_Key.space	Key.space	n/a
429.9855	0.075	859971	keystroke_s	s	n/a
430.1505	0.12	860301	keystroke_p	p	n/a
430.3905	0.0605	860781	keystroke_i	i	n/a
430.9305	0.075	861861	keystroke_r	r	n/a
431.2905	0.15	862581	keystroke_i	i	n/a
431.5605	0.09	863121	keystroke_t	t	n/a
431.8305	0.09	863661	keystroke_u	u	n/a
431.9505	0.15	863901	keystroke_a	a	n/a
432.1305	0.1345	864261	keystroke_l	l	n/a
432.775	0.1205	865550	keystroke_i	i	n/a
432.9105	0.105	865821	keystroke_t	t	n/a
433.0905	0.075	866181	keystroke_y	y	n/a
433.5705	0.105	867141	keystroke_Key.space	Key.space	n/a
433.7955	0.075	867591	keystroke_d	d	n/a
434.155	0.0905	868310	keystroke_Key.backspace	Key.backspace	n/a
434.2755	0.1195	868551	keystroke_t	t	n/a
434.455	0.0305	868910	keystroke_h	h	n/a
434.4855	0.1195	868971	keystroke_i	i	n/a
434.59	0.12	869180	keystroke_n	n	n/a
434.7405	0.105	869481	keystroke_g	g	n/a
435.3105	0.09	870621	keystroke_Key.enter	Key.enter	n/a
435.4055	6.731	870811	prompt	n/a	representations editorial card taught\n
436.076	0.119	872152	keystroke_r	r	n/a
436.15	0.1205	872300	keystroke_e	e	n/a
436.3755	0.105	872751	keystroke_p	p	n/a
436.5105	0.1195	873021	keystroke_r	r	n/a
436.5555	0.1045	873111	keystroke_e	e	n/a
436.646	0.164	873292	keystroke_s	s	n/a
436.795	0.09	873590	keystroke_e	e	n/a
436.915	0.09	873830	keystroke_n	n	n/a
437.065	0.06	874130	keystroke_t	t	n/a
437.155	0.1505	874310	keystroke_a	a	n/a
437.26	0.1055	874520	keystroke_t	t	n/a
437.3805	0.24	874761	keystroke_i	i	n/a
437.4705	0.165	874941	keystroke_o	o	n/a
437.6055	0.12	875211	keystroke_n	n	n/a
437.8605	0.15	875721	keystroke_s	s	n/a
438.0255	0.105	876051	keystroke_Key.space	Key.space	n/a
438.3405	0.0595	876681	keystroke_e	e	n/a
438.535	0.09	877070	keystroke_d	d	n/a
438.655	0.075	877310	keystroke_i	i	n/a
438.806	0.075	877612	keystroke_t	t	n/a
439.0155	0.09	878031	keystroke_o	o	n/a
439.1505	0.075	878301	keystroke_r	r	n/a
439.3005	0.09	878601	keystroke_i	i	n/a
439.4505	0.12	878901	keystroke_a	a	n/a
439.6155	0.105	879231	keystroke_l	l	n/a
439.7205	0.075	879441	keystroke_Key.space	Key.space	n/a
439.9455	0.075	879891	keystroke_c	c	n/a
440.0805	0.15	880161	keystroke_a	a	n/a
440.1855	0.09	880371	keystroke_r	r	n/a
440.4255	0.075	880851	keystroke_d	d	n/a
440.5755	0.12	881151	keystroke_Key.space	Key.space	n/a
440.7705	0.105	881541	keystroke_t	t	n/a
440.9055	0.15	881811	keystroke_a	a	n/a
441.1905	0.06	882381	keystroke_u	u	n/a
441.3255	0.105	882651	keystroke_g	g	n/a
441.5205	0.075	883041	keystroke_h	h	n/a
441.6105	0.105	883221	keystroke_t	t	n/a
442.0605	0.075	884121	keystroke_Key.enter	Key.enter	n/a
442.141	8.3515	884282	prompt	n/a	empty carey accreditation influences\n
442.7055	0.06	885411	keystroke_e	e	n/a
442.9005	0.1645	885801	keystroke_m	m	n/a
443.05	0.135	886100	keystroke_p	p	n/a
443.26	0.09	886520	keystroke_t	t	n/a
443.515	0.09	887030	keystroke_y	y	n/a
443.755	0.105	887510	keystroke_Key.space	Key.space	n/a
444.01	0.09	888020	keystroke_c	c	n/a
444.205	0.165	888410	keystroke_a	a	n/a
444.31	0.12	888620	keystroke_r	r	n/a
444.49	0.106	888980	keystroke_e	e	n/a
444.715	0.12	889430	keystroke_y	y	n/a
445.165	0.1055	890330	keystroke_Key.space	Key.space	n/a
445.4955	0.105	890991	keystroke_a	a	n/a
445.6905	0.06	891381	keystroke_c	c	n/a
445.8405	0.105	891681	keystroke_c	c	n/a
446.1105	0.12	892221	keystroke_r	r	n/a
446.186	0.1195	892372	keystroke_e	e	n/a
446.4255	0.09	892851	keystroke_d	d	n/a
446.5755	0.09	893151	keystroke_i	i	n/a
446.7255	0.09	893451	keystroke_t	t	n/a
446.8755	0.18	893751	keystroke_a	a	n/a
447.0255	0.135	894051	keystroke_t	t	n/a
447.2805	0.225	894561	keystroke_i	i	n/a
447.4155	0.195	894831	keystroke_o	o	n/a
447.5505	0.135	895101	keystroke_n	n	n/a
448.0005	0.09	896001	keystroke_Key.space	Key.space	n/a
448.706	0.09	897412	keystroke_i	i	n/a
448.766	0.12	897532	keystroke_n	n	n/a
448.901	0.105	897802	keystroke_f	f	n/a
449.126	0.1945	898252	keystroke_l	l	n/a
449.3355	0.09	898671	keystroke_u	u	n/a
449.5005	0.09	899001	keystroke_e	e	n/a
449.6955	0.075	899391	keystroke_n	n	n/a
449.8605	0.045	899721	keystroke_c	c	n/a
450.0555	0.135	900111	keystroke_e	e	n/a
450.1305	0.165	900261	keystroke_s	s	n/a
450.4155	0.075	900831	keystroke_Key.enter	Key.enter	n/a
450.4955	7.2115	900991	prompt	n/a	painted venice readers violations\n
451.271	0.12	902542	keystroke_p	p	n/a
451.406	0.135	902812	keystroke_a	a	n/a
451.526	0.12	903052	keystroke_i	i	n/a
451.66	0.091	903320	keystroke_n	n	n/a
451.706	0.18	903412	keystroke_t	t	n/a
451.856	0.135	903712	keystroke_e	e	n/a
452.486	0.105	904972	keystroke_d	d	n/a
453.07	0.09	906140	keystroke_Key.space	Key.space	n/a
453.266	0.0745	906532	keystroke_v	v	n/a
453.3855	0.09	906771	keystroke_e	e	n/a
453.5205	0.135	907041	keystroke_n	n	n/a
453.6255	0.135	907251	keystroke_i	i	n/a
453.8205	0.09	907641	keystroke_c	c	n/a
454.0905	0.105	908181	keystroke_e	e	n/a
454.2255	0.1345	908451	keystroke_Key.space	Key.space	n/a
454.361	0.119	908722	keystroke_r	r	n/a
454.435	0.105	908870	keystroke_e	e	n/a
454.645	0.15	909290	keystroke_a	a	n/a
454.84	0.075	909680	keystroke_d	d	n/a
455.05	0.21	910100	keystroke_e	e	n/a
455.14	0.165	910280	keystroke_r	r	n/a
455.29	0.09	910580	keystroke_s	s	n/a
455.65	0.09	911300	keystroke_Key.space	Key.space	n/a
456.055	0.091	912110	keystroke_v	v	n/a
456.22	0.105	912440	keystroke_i	i	n/a
456.371	0.119	912742	keystroke_o	o	n/a
456.67	0.105	913340	keystroke_l	l	n/a
456.805	0.165	913610	keystroke_a	a	n/a
456.925	0.106	913850	keystroke_t	t	n/a
457.045	0.21	914090	keystroke_i	i	n/a
457.121	0.149	914242	keystroke_o	o	n/a
457.211	0.119	914422	keystroke_n	n	n/a
457.39	0.12	914780	keystroke_s	s	n/a
457.63	0.075	915260	keystroke_Key.enter	Key.enter	n/a
457.71	7.0625	915420	prompt	n/a	rely positive logos consultancy\n
458.35	0.105	916700	keystroke_r	r	n/a
458.41	0.105	916820	keystroke_e	e	n/a
458.575	0.12	917150	keystroke_l	l	n/a
458.8	0.075	917600	keystroke_y	y	n/a
458.9055	0.135	917811	keystroke_Key.space	Key.space	n/a
459.145	0.12	918290	keystroke_p	p	n/a
459.3105	0.119	918621	keystroke_o	o	n/a
459.4755	0.09	918951	keystroke_s	s	n/a
459.6255	0.06	919251	keystroke_i	i	n/a
459.7755	0.075	919551	keystroke_t	t	n/a
459.8205	0.075	919641	keystroke_i	i	n/a
460.0455	0.09	920091	keystroke_v	v	n/a
460.1505	0.105	920301	keystroke_e	e	n/a
460.2855	0.09	920571	keystroke_Key.space	Key.space	n/a
460.7655	0.075	921531	keystroke_l	l	n/a
460.9905	0.075	921981	keystroke_o	o	n/a
461.1255	0.09	922251	keystroke_g	g	n/a
461.2455	0.1195	922491	keystroke_o	o	n/a
461.426	0.09	922852	keystroke_s	s	n/a
461.56	0.105	923120	keystroke_Key.space	Key.space	n/a
461.875	0.09	923750	keystroke_c	c	n/a
461.98	0.09	923960	keystroke_o	o	n/a
462.04	0.105	924080	keystroke_n	n	n/a
462.1905	0.075	924381	keystroke_s	s	n/a
462.4155	0.06	924831	keystroke_u	u	n/a
462.6255	0.075	925251	keystroke_l	l	n/a
462.7455	0.06	925491	keystroke_t	t	n/a
462.8955	0.12	925791	keystroke_a	a	n/a
463.0455	0.06	926091	keystroke_n	n	n/a
463.8855	0.075	927771	keystroke_c	c	n/a
464.0805	0.06	928161	keystroke_y	y	n/a
464.6205	0.15	929241	keystroke_Key.enter	Key.enter	n/a
464.7765	8.7255	929553	prompt	n/a	together mentor showers user\n
465.401	0.089	930802	keystroke_t	t	n/a
465.55	0.0455	931100	keystroke_o	o	n/a
465.6405	0.06	931281	keystroke_g	g	n/a
465.7755	0.09	931551	keystroke_e	e	n/a
465.8505	0.09	931701	keystroke_r	r	n/a
465.8515	0.104	931703	keystroke_t	t	n/a
466.0005	0.09	932001	keystroke_h	h	n/a
466.8555	0.075	933711	keystroke_Key.backspace	Key.backspace	n/a
467.0055	0.075	934011	keystroke_Key.backspace	Key.backspace	n/a
467.1555	0.06	934311	keystroke_Key.backspace	Key.backspace	n/a
467.756	0.104	935512	keystroke_t	t	n/a
467.92	0.09	935840	keystroke_h	h	n/a
468.025	0.121	936050	keystroke_e	e	n/a
468.1	0.135	936200	keystroke_r	r	n/a
468.265	0.15	936530	keystroke_Key.space	Key.space	n/a
469.12	0.061	938240	keystroke_m	m	n/a
469.181	0.1645	938362	keystroke_e	e	n/a
469.8705	0.0905	939741	keystroke_n	n	n/a
470.1105	0.09	940221	keystroke_t	t	n/a
470.2305	0.1195	940461	keystroke_o	o	n/a
470.606	0.12	941212	keystroke_r	r	n/a
471.521	0.119	943042	keystroke_Key.space	Key.space	n/a
471.685	0.0755	943370	keystroke_s	s	n/a
471.7905	0.105	943581	keystroke_h	h	n/a
471.9255	0.075	943851	keystroke_o	o	n/a
471.9855	0.105	943971	keystroke_w	w	n/a
472.1805	0.165	944361	keystroke_e	e	n/a
472.3305	0.105	944661	keystroke_r	r	n/a
472.5555	0.06	945111	keystroke_s	s	n/a
472.6455	0.105	945291	keystroke_Key.space	Key.space	n/a
472.8705	0.075	945741	keystroke_u	u	n/a
472.9605	0.15	945921	keystroke_s	s	n/a
473.0805	0.165	946161	keystroke_e	e	n/a
473.2005	0.135	946401	keystroke_r	r	n/a
473.4105	0.09	946821	keystroke_Key.enter	Key.enter	n/a
473.515	6.287	947030	prompt	n/a	oxygen bare those're divisions\n
474.115	0.121	948230	keystroke_o	o	n/a
474.265	0.105	948530	keystroke_x	x	n/a
474.4605	0.075	948921	keystroke_y	y	n/a
474.7305	0.06	949461	keystroke_g	g	n/a
474.8805	0.075	949761	keystroke_e	e	n/a
475.0155	0.105	950031	keystroke_n	n	n/a
475.1355	0.075	950271	keystroke_Key.space	Key.space	n/a
475.2855	0.0905	950571	keystroke_b	b	n/a
475.421	0.165	950842	keystroke_a	a	n/a
475.541	0.15	951082	keystroke_r	r	n/a
475.646	0.12	951292	keystroke_e	e	n/a
475.7955	0.09	951591	keystroke_Key.space	Key.space	n/a
476.081	0.075	952162	keystroke_t	t	n/a
476.1855	0.09	952371	keystroke_h	h	n/a
476.3355	0.135	952671	keystroke_o	o	n/a
476.4855	0.135	952971	keystroke_s	s	n/a
476.6055	0.105	953211	keystroke_e	e	n/a
476.8755	0.12	953751	keystroke_'	'	n/a
477.0855	0.1195	954171	keystroke_r	r	n/a
477.1455	0.1195	954291	keystroke_e	e	n/a
477.971	0.089	955942	keystroke_Key.space	Key.space	n/a
478.375	0.061	956750	keystroke_d	d	n/a
478.481	0.074	956962	keystroke_i	i	n/a
478.6	0.075	957200	keystroke_v	v	n/a
478.721	0.074	957442	keystroke_i	i	n/a
478.87	0.06	957740	keystroke_s	s	n/a
478.96	0.255	957920	keystroke_i	i	n/a
479.096	0.18	958192	keystroke_o	o	n/a
479.2	0.12	958400	keystroke_n	n	n/a
479.35	0.09	958700	keystroke_s	s	n/a
479.725	0.075	959450	keystroke_Key.enter	Key.enter	n/a
479.8055	9.4915	959611	prompt	n/a	alto confidence observer independence\n
480.4905	0.12	960981	keystroke_a	a	n/a
480.6405	0.09	961281	keystroke_l	l	n/a
480.7755	0.09	961551	keystroke_t	t	n/a
481.0155	0.12	962031	keystroke_o	o	n/a
481.1505	0.12	962301	keystroke_Key.space	Key.space	n/a
481.645	0.075	963290	keystroke_c	c	n/a
481.735	0.135	963470	keystroke_o	o	n/a
481.885	0.075	963770	keystroke_n	n	n/a
482.035	0.105	964070	keystroke_f	f	n/a
482.2	0.076	964400	keystroke_i	i	n/a
482.38	0.03	964760	keystroke_e	e	n/a
482.5305	0.0295	965061	keystroke_e	e	n/a
483.28	0.1205	966560	keystroke_Key.backspace	Key.backspace	n/a
483.5355	0.09	967071	keystroke_Key.backspace	Key.backspace	n/a
483.7455	0.075	967491	keystroke_d	d	n/a
484.0005	0.06	968001	keystroke_e	e	n/a
484.1055	0.09	968211	keystroke_n	n	n/a
484.2555	0.075	968511	keystroke_c	c	n/a
484.4655	0.09	968931	keystroke_e	e	n/a
484.7205	0.105	969441	keystroke_Key.space	Key.space	n/a
485.0205	0.105	970041	keystroke_o	o	n/a
485.3205	0.12	970641	keystroke_s	s	n/a
485.7405	0.09	971481	keystroke_Key.backspace	Key.backspace	n/a
485.8905	0.075	971781	keystroke_b	b	n/a
486.1155	0.105	972231	keystroke_s	s	n/a
486.3105	0.09	972621	keystroke_e	e	n/a
486.3705	0.105	972741	keystroke_r	r	n/a
486.6255	0.06	973251	keystroke_v	v	n/a
486.7905	0.165	973581	keystroke_e	e	n/a
486.8805	0.135	973761	keystroke_r	r	n/a
487.0005	0.12	974001	keystroke_Key.space	Key.space	n/a
487.1805	0.105	974361	keystroke_i	i	n/a
487.2705	0.09	974541	keystroke_n	n	n/a
487.3755	0.06	974751	keystroke_d	d	n/a
487.5705	0.06	975141	keystroke_e	e	n/a
487.7805	0.09	975561	keystroke_p	p	n/a
487.9305	0.12	975861	keystroke_e	e	n/a
488.0355	0.09	976071	keystroke_n	n	n/a
488.1855	0.06	976371	keystroke_d	d	n/a
488.3805	0.06	976761	keystroke_e	e	n/a
488.5305	0.09	977061	keystroke_n	n	n/a
488.6505	0.06	977301	keystroke_c	c	n/a
488.8605	0.09	977721	keystroke_e	e	n/a
489.2055	0.09	978411	keystroke_Key.enter	Key.enter	n/a
489.3	5.142	978600	prompt	n/a	wages mature impose selling\n
490.0005	0.0895	980001	keystroke_w	w	n/a
490.1505	0.15	980301	keystroke_a	a	n/a
490.2695	0.1065	980539	keystroke_g	g	n/a
490.436	0.134	980872	keystroke_e	e	n/a
490.54	0.136	981080	keystroke_s	s	n/a
490.676	0.1045	981352	keystroke_Key.space	Key.space	n/a
490.9905	0.075	981981	keystroke_m	m	n/a
491.0805	0.12	982161	keystroke_a	a	n/a
491.1405	0.12	982281	keystroke_t	t	n/a
491.5155	0.075	983031	keystroke_u	u	n/a
491.5755	0.12	983151	keystroke_r	r	n/a
491.6505	0.135	983301	keystroke_e	e	n/a
491.7705	0.12	983541	keystroke_Key.space	Key.space	n/a
492.0255	0.165	984051	keystroke_i	i	n/a
492.1155	0.225	984231	keystroke_m	m	n/a
492.3255	0.105	984651	keystroke_p	p	n/a
492.4155	0.18	984831	keystroke_o	o	n/a
492.6105	0.135	985221	keystroke_s	s	n/a
492.7305	0.12	985461	keystroke_e	e	n/a
492.8655	0.12	985731	keystroke_Key.space	Key.space	n/a
493.0455	0.12	986091	keystroke_s	s	n/a
493.1505	0.105	986301	keystroke_e	e	n/a
493.2705	0.105	986541	keystroke_l	l	n/a
493.4505	0.1205	986901	keystroke_l	l	n/a
493.63	0.136	987260	keystroke_i	i	n/a
493.72	0.136	987440	keystroke_n	n	n/a
493.84	0.106	987680	keystroke_g	g	n/a
494.35	0.09	988700	keystroke_Key.enter	Key.enter	n/a
494.445	7.662	988890	prompt	n/a	transit concentrations could've emails\n
495.145	0.091	990290	keystroke_t	t	n/a
495.356	0.089	990712	keystroke_r	r	n/a
495.475	0.135	990950	keystroke_a	a	n/a
495.655	0.105	991310	keystroke_n	n	n/a
495.79	0.09	991580	keystroke_s	s	n/a
495.94	0.076	991880	keystroke_i	i	n/a
496.12	0.12	992240	keystroke_t	t	n/a
496.27	0.075	992540	keystroke_Key.space	Key.space	n/a
496.481	0.074	992962	keystroke_c	c	n/a
496.585	0.12	993170	keystroke_o	o	n/a
496.675	0.105	993350	keystroke_n	n	n/a
496.84	0.045	993680	keystroke_c	c	n/a
497.02	0.075	994040	keystroke_e	e	n/a
497.17	0.0905	994340	keystroke_n	n	n/a
497.2455	0.06	994491	keystroke_t	t	n/a
497.4255	0.075	994851	keystroke_r	r	n/a
497.5305	0.1655	995061	keystroke_a	a	n/a
497.665	0.105	995330	keystroke_t	t	n/a
497.801	0.224	995602	keystroke_i	i	n/a
497.891	0.149	995782	keystroke_o	o	n/a
497.995	0.12	995990	keystroke_n	n	n/a
498.145	0.15	996290	keystroke_s	s	n/a
498.266	0.119	996532	keystroke_Key.space	Key.space	n/a
498.7155	0.075	997431	keystroke_c	c	n/a
498.8655	0.15	997731	keystroke_o	o	n/a
498.9555	0.135	997911	keystroke_u	u	n/a
499.2255	0.15	998451	keystroke_l	l	n/a
499.42	0.0605	998840	keystroke_d	d	n/a
499.9005	0.105	999801	keystroke_'	'	n/a
500.231	0.075	1000462	keystroke_v	v	n/a
500.395	0.09	1000790	keystroke_e	e	n/a
500.575	0.0905	1001150	keystroke_Key.space	Key.space	n/a
501.2205	0.06	1002441	keystroke_e	e	n/a
501.2955	0.135	1002591	keystroke_m	m	n/a
501.4155	0.105	1002831	keystroke_a	a	n/a
501.5505	0.105	1003101	keystroke_i	i	n/a
501.6405	0.1195	1003281	keystroke_l	l	n/a
501.82	0.075	1003640	keystroke_s	s	n/a
502.03	0.075	1004060	keystroke_Key.enter	Key.enter	n/a
502.1125	8.5445	1004225	prompt	n/a	pitch campbell directories definitely\n
502.81	0.09	1005620	keystroke_p	p	n/a
502.96	0.105	1005920	keystroke_i	i	n/a
503.096	0.089	1006192	keystroke_t	t	n/a
503.32	0.076	1006640	keystroke_c	c	n/a
503.47	0.09	1006940	keystroke_h	h	n/a
503.575	0.105	1007150	keystroke_Key.space	Key.space	n/a
503.86	0.09	1007720	keystroke_c	c	n/a
504.115	0.15	1008230	keystroke_a	a	n/a
504.205	0.165	1008410	keystroke_m	m	n/a
504.445	0.09	1008890	keystroke_p	p	n/a
504.985	0.06	1009970	keystroke_b	b	n/a
505.195	0.076	1010390	keystroke_e	e	n/a
505.33	0.0605	1010660	keystroke_l	l	n/a
505.48	0.105	1010960	keystroke_l	l	n/a
505.66	0.105	1011320	keystroke_Key.space	Key.space	n/a
506.05	0.075	1012100	keystroke_d	d	n/a
506.14	0.075	1012280	keystroke_i	i	n/a
506.26	0.1055	1012520	keystroke_r	r	n/a
506.3355	0.075	1012671	keystroke_e	e	n/a
506.5455	0.09	1013091	keystroke_c	c	n/a
506.7255	0.105	1013451	keystroke_t	t	n/a
506.8905	0.12	1013781	keystroke_o	o	n/a
507.0255	0.12	1014051	keystroke_r	r	n/a
507.7005	0.075	1015401	keystroke_i	i	n/a
507.7605	0.15	1015521	keystroke_e	e	n/a
507.8505	0.18	1015701	keystroke_s	s	n/a
508.0145	0.105	1016029	keystroke_Key.space	Key.space	n/a
508.3305	0.06	1016661	keystroke_d	d	n/a
508.4955	0.1205	1016991	keystroke_e	e	n/a
508.6	0.121	1017200	keystroke_f	f	n/a
508.705	0.09	1017410	keystroke_i	i	n/a
508.765	0.151	1017530	keystroke_n	n	n/a
508.885	0.105	1017770	keystroke_i	i	n/a
509.08	0.121	1018160	keystroke_t	t	n/a
509.17	0.1205	1018340	keystroke_e	e	n/a
509.3355	0.135	1018671	keystroke_l	l	n/a
509.5605	0.0595	1019121	keystroke_y	y	n/a
510.5505	0.105	1021101	keystroke_Key.enter	Key.enter	n/a
510.6605	9.6415	1021321	prompt	n/a	vulnerability enjoyed australian solve\n
511.465	0.075	1022930	keystroke_v	v	n/a
511.69	0.075	1023380	keystroke_u	u	n/a
511.87	0.12	1023740	keystroke_l	l	n/a
512.155	0.09	1024310	keystroke_n	n	n/a
512.32	0.135	1024640	keystroke_e	e	n/a
512.41	0.09	1024820	keystroke_r	r	n/a
512.62	0.165	1025240	keystroke_a	a	n/a
512.77	0.09	1025540	keystroke_b	b	n/a
513.04	0.12	1026080	keystroke_i	i	n/a
513.28	0.18	1026560	keystroke_l	l	n/a
513.401	0.119	1026802	keystroke_i	i	n/a
513.58	0.12	1027160	keystroke_t	t	n/a
513.76	0.075	1027520	keystroke_y	y	n/a
513.91	0.1205	1027820	keystroke_Key.space	Key.space	n/a
514.1955	0.075	1028391	keystroke_e	e	n/a
514.3305	0.105	1028661	keystroke_n	n	n/a
514.5555	0.12	1029111	keystroke_j	j	n/a
514.7505	0.135	1029501	keystroke_o	o	n/a
515.08	0.09	1030160	keystroke_y	y	n/a
515.26	0.0905	1030520	keystroke_e	e	n/a
515.485	0.09	1030970	keystroke_d	d	n/a
515.665	0.0905	1031330	keystroke_Key.space	Key.space	n/a
515.815	0.135	1031630	keystroke_a	a	n/a
516.01	0.106	1032020	keystroke_u	u	n/a
516.22	0.135	1032440	keystroke_s	s	n/a
516.401	0.089	1032802	keystroke_t	t	n/a
516.595	0.0905	1033190	keystroke_r	r	n/a
516.8345	0.106	1033669	keystroke_a	a	n/a
517.0905	0.209	1034181	keystroke_l	l	n/a
517.2705	0.09	1034541	keystroke_i	i	n/a
517.4055	0.135	1034811	keystroke_a	a	n/a
517.6005	0.105	1035201	keystroke_n	n	n/a
518.0045	0.0755	1036009	keystroke_Key.space	Key.space	n/a
518.26	0.09	1036520	keystroke_s	s	n/a
518.545	0.0905	1037090	keystroke_o	o	n/a
518.8	0.1205	1037600	keystroke_l	l	n/a
519.4	0.1045	1038800	keystroke_v	v	n/a
519.9845	0.091	1039969	keystroke_e	e	n/a
520.2255	0.074	1040451	keystroke_Key.enter	Key.enter	n/a
520.307	9.5945	1040614	prompt	n/a	pension publisher christine equality\n
521.0205	0.09	1042041	keystroke_p	p	n/a
521.1855	0.1195	1042371	keystroke_e	e	n/a
521.665	0.15	1043330	keystroke_i	i	n/a
522.1305	0.074	1044261	keystroke_Key.backspace	Key.backspace	n/a
522.2655	0.089	1044531	keystroke_s	s	n/a
522.4005	0.12	1044801	keystroke_n	n	n/a
522.7605	0.059	1045521	keystroke_Key.backspace	Key.backspace	n/a
522.9095	0.075	1045819	keystroke_Key.backspace	Key.backspace	n/a
523.0595	0.105	1046119	keystroke_n	n	n/a
523.2255	0.09	1046451	keystroke_s	s	n/a
523.36	0.1655	1046720	keystroke_i	i	n/a
523.435	0.1355	1046870	keystroke_o	o	n/a
523.5405	0.09	1047081	keystroke_n	n	n/a
524.2005	0.12	1048401	keystroke_Key.space	Key.space	n/a
524.4555	0.105	1048911	keystroke_p	p	n/a
524.6505	0.075	1049301	keystroke_u	u	n/a
524.7555	0.104	1049511	keystroke_b	b	n/a
524.9355	0.135	1049871	keystroke_l	l	n/a
525.0395	0.091	1050079	keystroke_i	i	n/a
525.2945	0.076	1050589	keystroke_s	s	n/a
525.4145	0.075	1050829	keystroke_h	h	n/a
525.5505	0.18	1051101	keystroke_e	e	n/a
525.6555	0.165	1051311	keystroke_r	r	n/a
525.7745	0.105	1051549	keystroke_Key.space	Key.space	n/a
526.0455	0.09	1052091	keystroke_c	c	n/a
526.1655	0.1045	1052331	keystroke_h	h	n/a
526.375	0.075	1052750	keystroke_r	r	n/a
526.57	0.09	1053140	keystroke_i	i	n/a
526.705	0.15	1053410	keystroke_s	s	n/a
526.9	0.045	1053800	keystroke_t	t	n/a
527.005	0.18	1054010	keystroke_i	i	n/a
527.125	0.135	1054250	keystroke_n	n	n/a
527.3655	0.15	1054731	keystroke_e	e	n/a
527.4855	0.1045	1054971	keystroke_Key.space	Key.space	n/a
527.755	0.09	1055510	keystroke_e	e	n/a
527.95	0.136	1055900	keystroke_q	q	n/a
528.145	0.09	1056290	keystroke_u	u	n/a
528.266	0.134	1056532	keystroke_a	a	n/a
528.475	0.18	1056950	keystroke_l	l	n/a
528.625	0.121	1057250	keystroke_i	i	n/a
528.82	0.1355	1057640	keystroke_t	t	n/a
529.0155	0.0745	1058031	keystroke_y	y	n/a
529.81	0.0895	1059620	keystroke_Key.enter	Key.enter	n/a
529.905	6.9265	1059810	prompt	n/a	thorough garmin offers trains\n
530.575	0.09	1061150	keystroke_t	t	n/a
530.68	0.0905	1061360	keystroke_h	h	n/a
531.4155	0.075	1062831	keystroke_o	o	n/a
531.5505	0.105	1063101	keystroke_r	r	n/a
531.7605	0.1345	1063521	keystroke_o	o	n/a
