onset	duration	sample	value	key	prompt_text
17.051	0.113	34102	keystroke_s	s	n/a
17.164	0.1005	34328	keystroke_e	e	n/a
17.2535	0.0345	34507	keystroke_a	a	n/a
17.276	0.1015	34552	keystroke_n	n	n/a
17.4335	0.0675	34867	keystroke_b	b	n/a
17.546	0.0675	35092	keystroke_i	i	n/a
17.6475	0.0675	35295	keystroke_t	t	n/a
17.8385	0.079	35677	keystroke_t	t	n/a
18.1985	0.0565	36397	keystroke_n	n	n/a
18.278	0.112	36556	keystroke_e	e	n/a
18.3455	0.089	36691	keystroke_r	r	n/a
18.593	0.0895	37186	keystroke_Key.tab	Key.tab	n/a
19.391	0.0675	38782	keystroke_o	o	n/a
19.425	0.09	38850	keystroke_n	n	n/a
21.8885	0.045	43777	keystroke_Key.tab	Key.tab	n/a
29.5385	0.0785	59077	keystroke_c	c	n/a
29.752	0.09	59504	keystroke_c	c	n/a
30.326	0.068	60652	keystroke_2	2	n/a
31.4285	0.09	62857	keystroke_v	v	n/a
36.6005	6.698	73201	prompt	n/a	the quick brown fox jumps over a lazy dog\n
37.8295	0.079	75659	keystroke_t	t	n/a
37.9985	0.0795	75997	keystroke_h	h	n/a
38.066	0.056	76132	keystroke_e	e	n/a
38.1335	0.101	76267	keystroke_Key.space	Key.space	n/a
38.482	0.034	76964	keystroke_q	q	n/a
38.5275	0.1345	77055	keystroke_u	u	n/a
38.5835	0.09	77167	keystroke_i	i	n/a
38.7635	0.0565	77527	keystroke_c	c	n/a
38.831	0.124	77662	keystroke_k	k	n/a
38.921	0.101	77842	keystroke_Key.space	Key.space	n/a
39.0895	0.079	78179	keystroke_b	b	n/a
39.281	0.0675	78562	keystroke_r	r	n/a
39.3595	0.09	78719	keystroke_o	o	n/a
39.4725	0.0895	78945	keystroke_w	w	n/a
39.5735	0.1125	79147	keystroke_n	n	n/a
39.652	0.1015	79304	keystroke_Key.space	Key.space	n/a
39.799	0.079	79598	keystroke_f	f	n/a
39.8885	0.101	79777	keystroke_o	o	n/a
40.024	0.1005	80048	keystroke_x	x	n/a
40.192	0.09	80384	keystroke_Key.space	Key.space	n/a
40.3045	0.0675	80609	keystroke_j	j	n/a
40.4845	0.0675	80969	keystroke_u	u	n/a
40.6645	0.1245	81329	keystroke_m	m	n/a
40.744	0.101	81488	keystroke_p	p	n/a
40.9235	0.0785	81847	keystroke_s	s	n/a
41.0475	0.112	82095	keystroke_Key.space	Key.space	n/a
41.194	0.078	82388	keystroke_o	o	n/a
41.3395	0.09	82679	keystroke_v	v	n/a
41.5195	0.1125	83039	keystroke_e	e	n/a
41.5985	0.079	83197	keystroke_r	r	n/a
41.666	0.146	83332	keystroke_Key.space	Key.space	n/a
41.8235	0.0675	83647	keystroke_a	a	n/a
41.936	0.135	83872	keystroke_Key.space	Key.space	n/a
42.296	0.09	84592	keystroke_l	l	n/a
42.3975	0.0895	84795	keystroke_a	a	n/a
42.5885	0.1125	85177	keystroke_z	z	n/a
42.7125	0.09	85425	keystroke_y	y	n/a
42.791	0.101	85582	keystroke_Key.space	Key.space	n/a
42.9035	0.101	85807	keystroke_d	d	n/a
43.016	0.0785	86032	keystroke_o	o	n/a
43.1055	0.079	86211	keystroke_g	g	n/a
43.264	0.033	86528	keystroke_Key.enter	Key.enter	n/a
43.302	6.4765	86604	prompt	n/a	contact fault saskatchewan cottages\n
44.0735	0.1015	88147	keystroke_c	c	n/a
44.456	0.0785	88912	keystroke_o	o	n/a
44.49	0.124	88980	keystroke_n	n	n/a
44.6145	0.089	89229	keystroke_t	t	n/a
44.726	0.079	89452	keystroke_a	a	n/a
44.9175	0.0785	89835	keystroke_c	c	n/a
45.086	0.0675	90172	keystroke_t	t	n/a
45.1875	0.101	90375	keystroke_Key.space	Key.space	n/a
45.3225	0.09	90645	keystroke_f	f	n/a
45.401	0.09	90802	keystroke_a	a	n/a
45.5025	0.1125	91005	keystroke_u	u	n/a
45.581	0.0785	91162	keystroke_l	l	n/a
45.7495	0.0565	91499	keystroke_t	t	n/a
45.84	0.0785	91680	keystroke_Key.space	Key.space	n/a
46.076	0.1125	92152	keystroke_s	s	n/a
46.3005	0.1355	92601	keystroke_a	a	n/a
46.537	0.079	93074	keystroke_s	s	n/a
46.751	0.0675	93502	keystroke_k	k	n/a
46.841	0.1575	93682	keystroke_a	a	n/a
47.0095	0.1015	94019	keystroke_t	t	n/a
47.246	0.045	94492	keystroke_c	c	n/a
47.3475	0.0785	94695	keystroke_h	h	n/a
47.617	0.079	95234	keystroke_e	e	n/a
47.853	0.0675	95706	keystroke_w	w	n/a
48.022	0.0905	96044	keystroke_a	a	n/a
48.1685	0.1235	96337	keystroke_n	n	n/a
48.281	0.146	96562	keystroke_Key.space	Key.space	n/a
48.4385	0.09	96877	keystroke_c	c	n/a
48.517	0.124	97034	keystroke_o	o	n/a
48.652	0.0785	97304	keystroke_t	t	n/a
48.8885	0.0675	97777	keystroke_t	t	n/a
49.102	0.0785	98204	keystroke_a	a	n/a
49.2595	0.1125	98519	keystroke_g	g	n/a
49.406	0.112	98812	keystroke_e	e	n/a
49.507	0.1015	99014	keystroke_s	s	n/a
49.7095	0.068	99419	keystroke_Key.enter	Key.enter	n/a
49.782	4.8895	99564	prompt	n/a	native develops andreas took\n
50.452	0.101	100904	keystroke_n	n	n/a
50.497	0.1125	100994	keystroke_a	a	n/a
50.576	0.056	101152	keystroke_t	t	n/a
50.7115	0.089	101423	keystroke_i	i	n/a
50.801	0.0785	101602	keystroke_v	v	n/a
50.846	0.101	101692	keystroke_e	e	n/a
50.947	0.1015	101894	keystroke_Key.space	Key.space	n/a
51.251	0.0565	102502	keystroke_d	d	n/a
51.397	0.0675	102794	keystroke_e	e	n/a
51.532	0.1465	103064	keystroke_v	v	n/a
51.6445	0.0675	103289	keystroke_e	e	n/a
51.757	0.057	103514	keystroke_l	l	n/a
51.937	0.0675	103874	keystroke_o	o	n/a
51.971	0.0565	103942	keystroke_p	p	n/a
52.4545	0.09	104909	keystroke_s	s	n/a
52.5895	0.1015	105179	keystroke_Key.space	Key.space	n/a
52.8595	0.1125	105719	keystroke_a	a	n/a
52.9835	0.101	105967	keystroke_n	n	n/a
53.074	0.101	106148	keystroke_d	d	n/a
53.332	0.1015	106664	keystroke_r	r	n/a
53.3995	0.124	106799	keystroke_e	e	n/a
53.512	0.1465	107024	keystroke_a	a	n/a
53.647	0.0675	107294	keystroke_s	s	n/a
53.8045	0.0905	107609	keystroke_Key.space	Key.space	n/a
54.052	0.0565	108104	keystroke_t	t	n/a
54.1535	0.045	108307	keystroke_o	o	n/a
54.2775	0.1465	108555	keystroke_o	o	n/a
54.4125	0.0785	108825	keystroke_k	k	n/a
54.6145	0.056	109229	keystroke_Key.enter	Key.enter	n/a
54.6745	6.0385	109349	prompt	n/a	hdtv guitar projected trains\n
55.5595	0.011	111119	keystroke_h	h	n/a
55.6385	0.0785	111277	keystroke_d	d	n/a
55.9535	0.0675	111907	keystroke_t	t	n/a
56.2455	0.1125	112491	keystroke_v	v	n/a
56.3695	0.091	112739	keystroke_Key.space	Key.space	n/a
56.617	0.1125	113234	keystroke_g	g	n/a
56.7405	0.1125	113481	keystroke_u	u	n/a
56.7745	0.09	113549	keystroke_i	i	n/a
57.1005	0.09	114201	keystroke_t	t	n/a
57.708	0.09	115416	keystroke_a	a	n/a
57.742	0.0675	115484	keystroke_r	r	n/a
57.843	0.09	115686	keystroke_Key.space	Key.space	n/a
58.0905	0.102	116181	keystroke_p	p	n/a
58.4175	0.056	116835	keystroke_r	r	n/a
58.563	0.057	117126	keystroke_o	o	n/a
58.575	0.1005	117150	keystroke_j	j	n/a
58.698	0.0675	117396	keystroke_e	e	n/a
58.912	0.056	117824	keystroke_c	c	n/a
59.013	0.135	118026	keystroke_t	t	n/a
59.1705	0.0675	118341	keystroke_e	e	n/a
59.362	0.0905	118724	keystroke_d	d	n/a
59.4855	0.1125	118971	keystroke_Key.space	Key.space	n/a
59.6325	0.0555	119265	keystroke_t	t	n/a
59.823	0.1245	119646	keystroke_r	r	n/a
59.9355	0.0225	119871	keystroke_a	a	n/a
60.015	0.09	120030	keystroke_i	i	n/a
60.0705	0.079	120141	keystroke_n	n	n/a
60.408	0.0675	120816	keystroke_s	s	n/a
60.6555	0.0565	121311	keystroke_Key.enter	Key.enter	n/a
60.716	5.9705	121432	prompt	n/a	plaza receives biol enabling\n
61.713	0.079	123426	keystroke_p	p	n/a
61.8595	0.09	123719	keystroke_l	l	n/a
61.938	0.079	123876	keystroke_a	a	n/a
62.1975	0.1005	124395	keystroke_z	z	n/a
62.388	0.08	124776	keystroke_a	a	n/a
62.546	0.0565	125092	keystroke_Key.space	Key.space	n/a
62.838	0.0905	125676	keystroke_r	r	n/a
62.872	0.0675	125744	keystroke_e	e	n/a
63.0975	0.067	126195	keystroke_c	c	n/a
63.333	0.0565	126666	keystroke_e	e	n/a
63.4005	0.09	126801	keystroke_i	i	n/a
63.5135	0.1235	127027	keystroke_v	v	n/a
63.6145	0.09	127229	keystroke_e	e	n/a
63.783	0.1125	127566	keystroke_s	s	n/a
63.963	0.1125	127926	keystroke_Key.space	Key.space	n/a
64.29	0.078	128580	keystroke_b	b	n/a
64.346	0.112	128692	keystroke_i	i	n/a
64.402	0.0675	128804	keystroke_o	o	n/a
64.582	0.101	129164	keystroke_l	l	n/a
64.762	0.1015	129524	keystroke_Key.space	Key.space	n/a
64.9645	0.09	129929	keystroke_e	e	n/a
65.0775	0.123	130155	keystroke_n	n	n/a
65.19	0.078	130380	keystroke_a	a	n/a
65.2905	0.0795	130581	keystroke_b	b	n/a
65.4255	0.1465	130851	keystroke_l	l	n/a
65.482	0.1685	130964	keystroke_i	i	n/a
65.583	0.1465	131166	keystroke_n	n	n/a
65.7405	0.0675	131481	keystroke_g	g	n/a
66.652	0.0335	133304	keystroke_Key.enter	Key.enter	n/a
66.6895	7.7145	133379	prompt	n/a	jumping controversial spelling distribution\n
67.293	0.068	134586	keystroke_j	j	n/a
67.7555	0.0895	135511	keystroke_u	u	n/a
67.968	0.1465	135936	keystroke_m	m	n/a
68.103	0.045	136206	keystroke_p	p	n/a
68.5305	0.1015	137061	keystroke_i	i	n/a
68.553	0.113	137106	keystroke_n	n	n/a
68.6655	0.09	137331	keystroke_g	g	n/a
68.7675	0.1005	137535	keystroke_Key.space	Key.space	n/a
68.97	0.123	137940	keystroke_c	c	n/a
69.172	0.101	138344	keystroke_o	o	n/a
69.217	0.1345	138434	keystroke_n	n	n/a
69.307	0.09	138614	keystroke_t	t	n/a
69.498	0.09	138996	keystroke_r	r	n/a
69.5995	0.0675	139199	keystroke_o	o	n/a
69.7235	0.09	139447	keystroke_v	v	n/a
69.892	0.146	139784	keystroke_e	e	n/a
69.993	0.09	139986	keystroke_r	r	n/a
70.3415	0.0905	140683	keystroke_s	s	n/a
70.511	0.0895	141022	keystroke_i	i	n/a
70.612	0.056	141224	keystroke_a	a	n/a
70.702	0.1125	141404	keystroke_l	l	n/a
70.803	0.1015	141606	keystroke_Key.space	Key.space	n/a
70.9495	0.09	141899	keystroke_s	s	n/a
71.107	0.0565	142214	keystroke_p	p	n/a
71.2195	0.101	142439	keystroke_e	e	n/a
71.388	0.034	142776	keystroke_l	l	n/a
71.5125	0.078	143025	keystroke_l	l	n/a
71.692	0.09	143384	keystroke_i	i	n/a
71.737	0.135	143474	keystroke_n	n	n/a
71.883	0.079	143766	keystroke_g	g	n/a
71.996	0.1015	143992	keystroke_Key.space	Key.space	n/a
72.232	0.09	144464	keystroke_d	d	n/a
72.3895	0.09	144779	keystroke_i	i	n/a
72.491	0.09	144982	keystroke_s	s	n/a
72.5695	0.045	145139	keystroke_t	t	n/a
73.2895	0.011	146579	keystroke_r	r	n/a
73.3905	0.079	146781	keystroke_i	i	n/a
73.4805	0.1125	146961	keystroke_b	b	n/a
73.649	0.0905	147298	keystroke_u	u	n/a
73.7735	0.067	147547	keystroke_t	t	n/a
73.9305	0.1125	147861	keystroke_i	i	n/a
73.9875	0.09	147975	keystroke_o	o	n/a
74.088	0.09	148176	keystroke_n	n	n/a
74.3355	0.0675	148671	keystroke_Key.enter	Key.enter	n/a
74.41	5.8665	148820	prompt	n/a	citizens weekend teeth feeling\n
75.0895	0.0785	150179	keystroke_c	c	n/a
75.2805	0.045	150561	keystroke_i	i	n/a
75.607	0.0565	151214	keystroke_t	t	n/a
75.787	0.0675	151574	keystroke_i	i	n/a
75.967	0.101	151934	keystroke_z	z	n/a
76.1475	0.0895	152295	keystroke_e	e	n/a
76.2485	0.079	152497	keystroke_n	n	n/a
76.361	0.056	152722	keystroke_s	s	n/a
76.507	0.09	153014	keystroke_Key.space	Key.space	n/a
76.631	0.0785	153262	keystroke_s	s	n/a
76.9795	0.09	153959	keystroke_Key.backspace	Key.backspace	n/a
77.0805	0.1015	154161	keystroke_w	w	n/a
77.261	0.0785	154522	keystroke_e	e	n/a
77.4415	0.078	154883	keystroke_e	e	n/a
77.6095	0.09	155219	keystroke_k	k	n/a
77.8455	0.068	155691	keystroke_e	e	n/a
77.9695	0.09	155939	keystroke_n	n	n/a
78.127	0.09	156254	keystroke_d	d	n/a
78.2285	0.1235	156457	keystroke_Key.space	Key.space	n/a
78.397	0.079	156794	keystroke_t	t	n/a
78.577	0.0565	157154	keystroke_e	e	n/a
78.7455	0.1015	157491	keystroke_e	e	n/a
78.881	0.0785	157762	keystroke_t	t	n/a
78.982	0.124	157964	keystroke_h	h	n/a
79.0715	0.1245	158143	keystroke_Key.space	Key.space	n/a
79.264	0.123	158528	keystroke_f	f	n/a
79.3985	0.0785	158797	keystroke_e	e	n/a
79.5895	0.0675	159179	keystroke_e	e	n/a
79.7245	0.1575	159449	keystroke_l	l	n/a
79.8255	0.1465	159651	keystroke_i	i	n/a
79.8705	0.124	159741	keystroke_n	n	n/a
79.983	0.09	159966	keystroke_g	g	n/a
80.1745	0.101	160349	keystroke_Key.enter	Key.enter	n/a
80.2795	5.386	160559	prompt	n/a	tour can't diseases flashing\n
80.917	0.0785	161834	keystroke_t	t	n/a
81.097	0.09	162194	keystroke_o	o	n/a
81.1755	0.079	162351	keystroke_u	u	n/a
81.2655	0.0795	162531	keystroke_r	r	n/a
81.468	0.09	162936	keystroke_Key.space	Key.space	n/a
81.8395	0.1015	163679	keystroke_c	c	n/a
81.9295	0.0675	163859	keystroke_a	a	n/a
81.9635	0.168	163927	keystroke_n	n	n/a
82.053	0.09	164106	keystroke_'	'	n/a
82.1995	0.09	164399	keystroke_t	t	n/a
82.312	0.1125	164624	keystroke_Key.space	Key.space	n/a
82.526	0.0785	165052	keystroke_d	d	n/a
82.8745	0.0785	165749	keystroke_i	i	n/a
83.0995	0.034	166199	keystroke_s	s	n/a
83.257	0.09	166514	keystroke_e	e	n/a
83.4595	0.102	166919	keystroke_a	a	n/a
83.5495	0.09	167099	keystroke_s	s	n/a
83.978	0.089	167956	keystroke_e	e	n/a
84.157	0.0675	168314	keystroke_s	s	n/a
84.461	0.101	168922	keystroke_Key.space	Key.space	n/a
84.5845	0.1235	169169	keystroke_f	f	n/a
84.7195	0.0675	169439	keystroke_l	l	n/a
84.832	0.079	169664	keystroke_a	a	n/a
84.8775	0.123	169755	keystroke_s	s	n/a
85.0345	0.101	170069	keystroke_h	h	n/a
85.2705	0.1015	170541	keystroke_i	i	n/a
85.3155	0.135	170631	keystroke_n	n	n/a
85.417	0.0675	170834	keystroke_g	g	n/a
85.597	0.0675	171194	keystroke_Key.enter	Key.enter	n/a
85.669	5.7905	171338	prompt	n/a	existed wyoming invited vessels\n
86.272	0.079	172544	keystroke_e	e	n/a
86.4745	0.0785	172949	keystroke_x	x	n/a
86.598	0.113	173196	keystroke_i	i	n/a
86.7445	0.112	173489	keystroke_s	s	n/a
86.868	0.1015	173736	keystroke_t	t	n/a
86.981	0.09	173962	keystroke_e	e	n/a
87.217	0.0895	174434	keystroke_d	d	n/a
87.318	0.0905	174636	keystroke_Key.space	Key.space	n/a
87.453	0.0785	174906	keystroke_w	w	n/a
87.757	0.079	175514	keystroke_y	y	n/a
87.959	0.147	175918	keystroke_o	o	n/a
88.0715	0.1125	176143	keystroke_m	m	n/a
88.353	0.1015	176706	keystroke_i	i	n/a
88.3985	0.123	176797	keystroke_n	n	n/a
88.512	0.0665	177024	keystroke_g	g	n/a
88.6115	0.1125	177223	keystroke_Key.space	Key.space	n/a
88.916	0.09	177832	keystroke_i	i	n/a
88.949	0.1245	177898	keystroke_n	n	n/a
89.051	0.1005	178102	keystroke_v	v	n/a
89.2195	0.1235	178439	keystroke_i	i	n/a
89.354	0.0575	178708	keystroke_t	t	n/a
89.467	0.0335	178934	keystroke_e	e	n/a
89.6245	0.0675	179249	keystroke_d	d	n/a
89.7255	0.101	179451	keystroke_Key.space	Key.space	n/a
90.2655	0.09	180531	keystroke_v	v	n/a
90.457	0.0785	180914	keystroke_e	e	n/a
90.659	0.0565	181318	keystroke_s	s	n/a
90.817	0.067	181634	keystroke_s	s	n/a
90.997	0.0675	181994	keystroke_e	e	n/a
91.1545	0.09	182309	keystroke_l	l	n/a
91.256	0.078	182512	keystroke_s	s	n/a
91.368	0.0905	182736	keystroke_Key.enter	Key.enter	n/a
91.4625	5.959	182925	prompt	n/a	utah powerseller disabilities zope\n
92.1665	0.1015	184333	keystroke_u	u	n/a
92.257	0.056	184514	keystroke_t	t	n/a
92.3355	0.0675	184671	keystroke_a	a	n/a
92.4365	0.1245	184873	keystroke_h	h	n/a
92.549	0.09	185098	keystroke_Key.space	Key.space	n/a
92.8195	0.101	185639	keystroke_p	p	n/a
92.887	0.1345	185774	keystroke_o	o	n/a
93.0445	0.0895	186089	keystroke_w	w	n/a
93.0895	0.1355	186179	keystroke_e	e	n/a
93.1905	0.09	186381	keystroke_r	r	n/a
93.4385	0.157	186877	keystroke_s	s	n/a
93.5395	0.1345	187079	keystroke_e	e	n/a
93.7645	0.056	187529	keystroke_l	l	n/a
93.933	0.079	187866	keystroke_l	l	n/a
94.0235	0.1575	188047	keystroke_e	e	n/a
94.158	0.0785	188316	keystroke_r	r	n/a
94.293	0.1125	188586	keystroke_Key.space	Key.space	n/a
94.766	0.09	189532	keystroke_d	d	n/a
94.912	0.079	189824	keystroke_i	i	n/a
95.2155	0.101	190431	keystroke_s	s	n/a
95.441	0.056	190882	keystroke_a	a	n/a
95.688	0.1015	191376	keystroke_b	b	n/a
95.8005	0.1125	191601	keystroke_i	i	n/a
95.9245	0.1125	191849	keystroke_l	l	n/a
96.003	0.09	192006	keystroke_i	i	n/a
96.105	0.0895	192210	keystroke_t	t	n/a
96.2285	0.112	192457	keystroke_i	i	n/a
96.352	0.1685	192704	keystroke_e	e	n/a
96.509	0.1025	193018	keystroke_s	s	n/a
96.6445	0.1015	193289	keystroke_Key.space	Key.space	n/a
96.858	0.056	193716	keystroke_z	z	n/a
96.948	0.1135	193896	keystroke_o	o	n/a
97.038	0.0905	194076	keystroke_p	p	n/a
97.207	0.067	194414	keystroke_e	e	n/a
97.3865	0.0345	194773	keystroke_Key.enter	Key.enter	n/a
97.4245	5.408	194849	prompt	n/a	hour statewide hill calculate\n
98.129	0.0675	196258	keystroke_h	h	n/a
98.309	0.0795	196618	keystroke_o	o	n/a
98.3765	0.057	196753	keystroke_u	u	n/a
98.4215	0.0675	196843	keystroke_r	r	n/a
98.534	0.09	197068	keystroke_Key.space	Key.space	n/a
98.714	0.1015	197428	keystroke_s	s	n/a
98.7815	0.0905	197563	keystroke_t	t	n/a
98.9505	0.09	197901	keystroke_a	a	n/a
99.029	0.09	198058	keystroke_t	t	n/a
99.0855	0.1125	198171	keystroke_e	e	n/a
99.6935	0.0895	199387	keystroke_w	w	n/a
99.8515	0.089	199703	keystroke_i	i	n/a
99.918	0.09	199836	keystroke_d	d	n/a
100.1655	0.0335	200331	keystroke_e	e	n/a
100.2215	0.1125	200443	keystroke_Key.space	Key.space	n/a
100.368	0.101	200736	keystroke_h	h	n/a
100.6045	0.056	201209	keystroke_i	i	n/a
100.7955	0.0565	201591	keystroke_l	l	n/a
100.964	0.0905	201928	keystroke_l	l	n/a
101.043	0.0895	202086	keystroke_Key.space	Key.space	n/a
101.223	0.1125	202446	keystroke_c	c	n/a
101.3915	0.034	202783	keystroke_a	a	n/a
101.5605	0.1125	203121	keystroke_l	l	n/a
101.8865	0.079	203773	keystroke_c	c	n/a
102.134	0.1245	204268	keystroke_u	u	n/a
102.2465	0.045	204493	keystroke_l	l	n/a
102.326	0.112	204652	keystroke_a	a	n/a
102.404	0.1015	204808	keystroke_t	t	n/a
102.495	0.1005	204990	keystroke_e	e	n/a
102.764	0.0675	205528	keystroke_Key.enter	Key.enter	n/a
102.8355	6.9495	205671	prompt	n/a	daughters loading climb trustees\n
103.867	0.101	207734	keystroke_d	d	n/a
104.0585	0.078	208117	keystroke_a	a	n/a
104.6315	0.09	209263	keystroke_u	u	n/a
104.7335	0.033	209467	keystroke_g	g	n/a
104.8005	0.09	209601	keystroke_h	h	n/a
104.9015	0.0675	209803	keystroke_t	t	n/a
105.0705	0.1125	210141	keystroke_e	e	n/a
105.149	0.09	210298	keystroke_r	r	n/a
105.3405	0.0785	210681	keystroke_s	s	n/a
105.4985	0.1345	210997	keystroke_Key.space	Key.space	n/a
105.7905	0.0335	211581	keystroke_h	h	n/a
106.1505	0.056	212301	keystroke_Key.backspace	Key.backspace	n/a
106.364	0.0115	212728	keystroke_l	l	n/a
106.4545	0.101	212909	keystroke_o	o	n/a
106.5665	0.124	213133	keystroke_a	a	n/a
106.679	0.045	213358	keystroke_d	d	n/a
106.859	0.079	213718	keystroke_i	i	n/a
106.972	0.1235	213944	keystroke_n	n	n/a
107.1065	0.079	214213	keystroke_g	g	n/a
107.2755	0.079	214551	keystroke_Key.space	Key.space	n/a
107.433	0.034	214866	keystroke_c	c	n/a
107.4675	0.1455	214935	keystroke_l	l	n/a
107.523	0.1245	215046	keystroke_i	i	n/a
107.658	0.1125	215316	keystroke_m	m	n/a
107.8155	0.056	215631	keystroke_b	b	n/a
107.9395	0.0785	215879	keystroke_Key.space	Key.space	n/a
108.1645	0.067	216329	keystroke_t	t	n/a
108.3555	0.135	216711	keystroke_r	r	n/a
108.5915	0.079	217183	keystroke_u	u	n/a
108.8505	0.101	217701	keystroke_s	s	n/a
108.952	0.101	217904	keystroke_t	t	n/a
109.154	0.079	218308	keystroke_e	e	n/a
109.3005	0.09	218601	keystroke_e	e	n/a
109.6265	0.0115	219253	keystroke_s	s	n/a
109.7165	0.0675	219433	keystroke_Key.enter	Key.enter	n/a
109.789	9.997	219578	prompt	n/a	batteries parameters flashing luxembourg\n
112.259	0.0565	224518	keystroke_b	b	n/a
112.4165	0.1015	224833	keystroke_a	a	n/a
112.507	0.0445	225014	keystroke_t	t	n/a
112.6755	0.068	225351	keystroke_t	t	n/a
112.8445	0.146	225689	keystroke_e	e	n/a
112.934	0.0675	225868	keystroke_r	r	n/a
113.339	0.068	226678	keystroke_i	i	n/a
113.3955	0.1235	226791	keystroke_e	e	n/a
113.4745	0.112	226949	keystroke_s	s	n/a
113.598	0.09	227196	keystroke_Key.space	Key.space	n/a
113.8005	0.0785	227601	keystroke_p	p	n/a
113.8685	0.0895	227737	keystroke_a	a	n/a
113.9355	0.1575	227871	keystroke_r	r	n/a
114.0815	0.09	228163	keystroke_a	a	n/a
114.2055	0.1125	228411	keystroke_m	m	n/a
114.3065	0.1465	228613	keystroke_e	e	n/a
114.3855	0.0785	228771	keystroke_t	t	n/a
114.5205	0.1245	229041	keystroke_e	e	n/a
114.6105	0.135	229221	keystroke_r	r	n/a
114.712	0.0895	229424	keystroke_s	s	n/a
114.847	0.1345	229694	keystroke_Key.space	Key.space	n/a
115.128	0.09	230256	keystroke_f	f	n/a
115.263	0.0675	230526	keystroke_l	l	n/a
115.443	0.135	230886	keystroke_a	a	n/a
115.6905	0.0675	231381	keystroke_s	s	n/a
115.8255	0.1015	231651	keystroke_h	h	n/a
116.445	0.078	232890	keystroke_i	i	n/a
116.467	0.113	232934	keystroke_n	n	n/a
116.5795	0.056	233159	keystroke_g	g	n/a
116.669	0.1125	233338	keystroke_Key.space	Key.space	n/a
116.849	0.0675	233698	keystroke_l	l	n/a
117.0855	0.09	234171	keystroke_u	u	n/a
117.3665	0.0565	234733	keystroke_Key.backspace	Key.backspace	n/a
117.513	0.0565	235026	keystroke_Key.backspace	Key.backspace	n/a
118.0535	0.033	236107	keystroke_l	l	n/a
118.1655	0.0565	236331	keystroke_u	u	n/a
118.4475	0.0895	236895	keystroke_x	x	n/a
118.728	0.068	237456	keystroke_e	e	n/a
118.8075	0.0895	237615	keystroke_m	m	n/a
118.987	0.0675	237974	keystroke_b	b	n/a
119.3805	0.09	238761	keystroke_o	o	n/a
119.4145	0.09	238829	keystroke_u	u	n/a
119.482	0.0785	238964	keystroke_r	r	n/a
119.6505	0.09	239301	keystroke_g	g	n/a
119.752	0.0335	239504	keystroke_Key.enter	Key.enter	n/a
119.789	6.612	239578	prompt	n/a	completely throwing scripting register\n
120.4605	0.102	240921	keystroke_c	c	n/a
120.5505	0.09	241101	keystroke_o	o	n/a
120.573	0.1125	241146	keystroke_m	m	n/a
120.652	0.0895	241304	keystroke_p	p	n/a
120.787	0.0785	241574	keystroke_l	l	n/a
120.8545	0.0905	241709	keystroke_e	e	n/a
120.9555	0.169	241911	keystroke_t	t	n/a
121.0905	0.09	242181	keystroke_e	e	n/a
121.2705	0.09	242541	keystroke_l	l	n/a
121.3045	0.101	242609	keystroke_y	y	n/a
121.3955	0.1225	242791	keystroke_Key.space	Key.space	n/a
122.024	0.1125	244048	keystroke_t	t	n/a
122.204	0.091	244408	keystroke_h	h	n/a
122.688	0.101	245376	keystroke_r	r	n/a
122.8005	0.09	245601	keystroke_o	o	n/a
122.9015	0.0675	245803	keystroke_w	w	n/a
123.048	0.101	246096	keystroke_i	i	n/a
123.1155	0.101	246231	keystroke_n	n	n/a
123.228	0.0335	246456	keystroke_g	g	n/a
123.262	0.1235	246524	keystroke_Key.space	Key.space	n/a
123.4755	0.056	246951	keystroke_c	c	n/a
123.7905	0.056	247581	keystroke_Key.backspace	Key.backspace	n/a
123.8355	0.079	247671	keystroke_s	s	n/a
123.9705	0.0915	247941	keystroke_c	c	n/a
124.173	0.0675	248346	keystroke_r	r	n/a
124.252	0.0785	248504	keystroke_i	i	n/a
124.297	0.146	248594	keystroke_p	p	n/a
124.6345	0.056	249269	keystroke_t	t	n/a
124.702	0.1125	249404	keystroke_i	i	n/a
124.747	0.135	249494	keystroke_n	n	n/a
124.8705	0.0675	249741	keystroke_g	g	n/a
125.0055	0.09	250011	keystroke_Key.space	Key.space	n/a
125.1295	0.101	250259	keystroke_r	r	n/a
125.197	0.1345	250394	keystroke_e	e	n/a
125.3655	0.1235	250731	keystroke_g	g	n/a
125.8945	0.0675	251789	keystroke_i	i	n/a
125.939	0.091	251878	keystroke_s	s	n/a
126.018	0.101	252036	keystroke_t	t	n/a
126.153	0.0905	252306	keystroke_e	e	n/a
126.209	0.09	252418	keystroke_r	r	n/a
126.3105	0.09	252621	keystroke_Key.enter	Key.enter	n/a
126.404	4.3845	252808	prompt	n/a	ranked magnetic running newman\n
127.143	0.124	254286	keystroke_r	r	n/a
127.2555	0.067	254511	keystroke_a	a	n/a
127.312	0.1235	254624	keystroke_n	n	n/a
127.368	0.1245	254736	keystroke_k	k	n/a
127.4925	0.0665	254985	keystroke_e	e	n/a
127.649	0.1015	255298	keystroke_d	d	n/a
127.7395	0.1235	255479	keystroke_Key.space	Key.space	n/a
127.8405	0.101	255681	keystroke_m	m	n/a
127.953	0.101	255906	keystroke_a	a	n/a
128.0655	0.09	256131	keystroke_g	g	n/a
128.1665	0.09	256333	keystroke_n	n	n/a
128.2905	0.09	256581	keystroke_e	e	n/a
128.459	0.0675	256918	keystroke_t	t	n/a
128.6165	0.0905	257233	keystroke_i	i	n/a
128.7065	0.0675	257413	keystroke_c	c	n/a
128.831	0.1005	257662	keystroke_Key.space	Key.space	n/a
128.9765	0.09	257953	keystroke_r	r	n/a
129.078	0.0675	258156	keystroke_u	u	n/a
129.269	0.057	258538	keystroke_n	n	n/a
129.382	0.067	258764	keystroke_n	n	n/a
129.517	0.1345	259034	keystroke_i	i	n/a
129.584	0.09	259168	keystroke_n	n	n/a
129.6635	0.0675	259327	keystroke_g	g	n/a
129.765	0.089	259530	keystroke_Key.space	Key.space	n/a
129.888	0.101	259776	keystroke_n	n	n/a
129.9665	0.1015	259933	keystroke_e	e	n/a
130.034	0.09	260068	keystroke_w	w	n/a
130.1805	0.068	260361	keystroke_m	m	n/a
130.304	0.0675	260608	keystroke_a	a	n/a
130.372	0.112	260744	keystroke_n	n	n/a
130.709	0.079	261418	keystroke_Key.enter	Key.enter	n/a
130.7915	5.8585	261583	prompt	n/a	corrections treasury casting better\n
131.4405	0.135	262881	keystroke_c	c	n/a
131.5865	0.0455	263173	keystroke_o	o	n/a
131.6655	0.0675	263331	keystroke_r	r	n/a
131.8905	0.135	263781	keystroke_r	r	n/a
132.183	0.1125	264366	keystroke_e	e	n/a
132.408	0.045	264816	keystroke_c	c	n/a
132.532	0.0785	265064	keystroke_t	t	n/a
132.633	0.146	265266	keystroke_i	i	n/a
132.689	0.0565	265378	keystroke_o	o	n/a
132.723	0.1125	265446	keystroke_n	n	n/a
132.847	0.101	265694	keystroke_s	s	n/a
132.9595	0.0895	265919	keystroke_Key.space	Key.space	n/a
133.1055	0.034	266211	keystroke_t	t	n/a
133.2405	0.101	266481	keystroke_r	r	n/a
133.308	0.124	266616	keystroke_e	e	n/a
133.4205	0.1685	266841	keystroke_a	a	n/a
133.668	0.0335	267336	keystroke_s	s	n/a
133.9945	0.0895	267989	keystroke_u	u	n/a
134.1065	0.09	268213	keystroke_r	r	n/a
134.2305	0.0895	268461	keystroke_y	y	n/a
134.309	0.1015	268618	keystroke_Key.space	Key.space	n/a
134.8155	0.113	269631	keystroke_c	c	n/a
134.962	0.1125	269924	keystroke_a	a	n/a
135.0405	0.1235	270081	keystroke_s	s	n/a
135.153	0.09	270306	keystroke_t	t	n/a
135.4345	0.1005	270869	keystroke_i	i	n/a
135.4675	0.0905	270935	keystroke_n	n	n/a
135.558	0.067	271116	keystroke_g	g	n/a
135.648	0.1465	271296	keystroke_Key.space	Key.space	n/a
135.8055	0.0905	271611	keystroke_b	b	n/a
136.008	0.09	272016	keystroke_e	e	n/a
136.1095	0.0455	272219	keystroke_t	t	n/a
136.2325	0.0905	272465	keystroke_t	t	n/a
136.4355	0.1125	272871	keystroke_e	e	n/a
136.492	0.0895	272984	keystroke_r	r	n/a
136.5925	0.0565	273185	keystroke_Key.enter	Key.enter	n/a
136.6525	5.847	273305	prompt	n/a	danish waiver teeth partially\n
137.4255	0.1015	274851	keystroke_d	d	n/a
137.549	0.1015	275098	keystroke_a	a	n/a
137.6955	0.2025	275391	keystroke_n	n	n/a
137.8865	0.0225	275773	keystroke_i	i	n/a
137.9655	0.09	275931	keystroke_s	s	n/a
138.045	0.134	276090	keystroke_h	h	n/a
138.1115	0.1015	276223	keystroke_Key.space	Key.space	n/a
138.3145	0.0895	276629	keystroke_w	w	n/a
138.393	0.1235	276786	keystroke_a	a	n/a
138.528	0.0785	277056	keystroke_i	i	n/a
138.6515	0.101	277303	keystroke_v	v	n/a
138.9665	0.046	277933	keystroke_e	e	n/a
138.9785	0.0895	277957	keystroke_r	r	n/a
139.079	0.09	278158	keystroke_Key.space	Key.space	n/a
139.214	0.0675	278428	keystroke_t	t	n/a
139.4055	0.023	278811	keystroke_t	t	n/a
139.439	0.1015	278878	keystroke_e	e	n/a
139.912	0.0445	279824	keystroke_Key.backspace	Key.backspace	n/a
140.069	0.079	280138	keystroke_Key.backspace	Key.backspace	n/a
140.148	0.067	280296	keystroke_e	e	n/a
140.283	0.158	280566	keystroke_e	e	n/a
140.4515	0.0455	280903	keystroke_t	t	n/a
140.5305	0.101	281061	keystroke_h	h	n/a
140.6435	0.0895	281287	keystroke_Key.space	Key.space	n/a
140.8905	0.056	281781	keystroke_p	p	n/a
141.0475	0.045	282095	keystroke_a	a	n/a
141.059	0.0905	282118	keystroke_r	r	n/a
141.2615	0.0675	282523	keystroke_t	t	n/a
141.273	0.067	282546	keystroke_i	i	n/a
141.869	0.0675	283738	keystroke_a	a	n/a
141.9815	0.0335	283963	keystroke_l	l	n/a
142.0825	0.124	284165	keystroke_l	l	n/a
142.218	0.0785	284436	keystroke_y	y	n/a
142.4425	0.0565	284885	keystroke_Key.enter	Key.enter	n/a
142.5025	4.925	285005	prompt	n/a	shaved lions themselves shapes\n
143.4665	0.1125	286933	keystroke_s	s	n/a
143.5565	0.0905	287113	keystroke_h	h	n/a
143.624	0.124	287248	keystroke_a	a	n/a
143.7365	0.0675	287473	keystroke_v	v	n/a
143.7705	0.09	287541	keystroke_e	e	n/a
143.9615	0.1125	287923	keystroke_d	d	n/a
144.085	0.102	288170	keystroke_Key.space	Key.space	n/a
144.1755	0.0785	288351	keystroke_l	l	n/a
144.4115	0.169	288823	keystroke_i	i	n/a
144.5015	0.09	289003	keystroke_o	o	n/a
144.5355	0.1235	289071	keystroke_n	n	n/a
144.648	0.0675	289296	keystroke_s	s	n/a
144.7265	0.1125	289453	keystroke_Key.space	Key.space	n/a
144.873	0.067	289746	keystroke_t	t	n/a
144.963	0.0785	289926	keystroke_h	h	n/a
145.0975	0.034	290195	keystroke_e	e	n/a
145.1875	0.0675	290375	keystroke_m	m	n/a
145.289	0.135	290578	keystroke_s	s	n/a
145.39	0.0905	290780	keystroke_e	e	n/a
145.5365	0.079	291073	keystroke_l	l	n/a
145.6375	0.1015	291275	keystroke_v	v	n/a
145.7505	0.113	291501	keystroke_e	e	n/a
146.3135	0.067	292627	keystroke_s	s	n/a
146.414	0.1125	292828	keystroke_Key.space	Key.space	n/a
146.6955	0.0895	293391	keystroke_s	s	n/a
146.763	0.0895	293526	keystroke_h	h	n/a
146.8865	0.1125	293773	keystroke_a	a	n/a
147.0555	0.056	294111	keystroke_p	p	n/a
147.123	0.0905	294246	keystroke_e	e	n/a
147.2015	0.102	294403	keystroke_s	s	n/a
147.359	0.0675	294718	keystroke_Key.enter	Key.enter	n/a
147.432	3.944	294864	prompt	n/a	icon comply bars tender\n
148.169	0.0675	296338	keystroke_i	i	n/a
148.248	0.0785	296496	keystroke_c	c	n/a
148.36	0.09	296720	keystroke_o	o	n/a
148.4165	0.1355	296833	keystroke_n	n	n/a
148.5295	0.101	297059	keystroke_Key.space	Key.space	n/a
148.698	0.0895	297396	keystroke_c	c	n/a
148.7765	0.1125	297553	keystroke_o	o	n/a
148.8215	0.1125	297643	keystroke_m	m	n/a
148.9	0.1125	297800	keystroke_p	p	n/a
149.125	0.1015	298250	keystroke_l	l	n/a
149.215	0.0675	298430	keystroke_y	y	n/a
149.2715	0.0785	298543	keystroke_Key.space	Key.space	n/a
149.497	0.112	298994	keystroke_b	b	n/a
149.6315	0.135	299263	keystroke_a	a	n/a
149.7665	0.1125	299533	keystroke_r	r	n/a
149.891	0.1115	299782	keystroke_s	s	n/a
150.059	0.1125	300118	keystroke_Key.space	Key.space	n/a
150.475	0.0795	300950	keystroke_t	t	n/a
150.5425	0.113	301085	keystroke_e	e	n/a
150.6665	0.0785	301333	keystroke_n	n	n/a
150.88	0.057	301760	keystroke_d	d	n/a
151.0825	0.102	302165	keystroke_e	e	n/a
151.1725	0.0905	302345	keystroke_r	r	n/a
151.274	0.101	302548	keystroke_Key.enter	Key.enter	n/a
151.379	4.8795	302758	prompt	n/a	symbol explicit look unix\n
152.118	0.1125	304236	keystroke_s	s	n/a
152.2415	0.068	304483	keystroke_y	y	n/a
152.4325	0.057	304865	keystroke_m	m	n/a
153.1755	0.1125	306351	keystroke_b	b	n/a
153.2995	0.033	306599	keystroke_o	o	n/a
153.4455	0.0895	306891	keystroke_l	l	n/a
153.625	0.09	307250	keystroke_Key.space	Key.space	n/a
153.873	0.067	307746	keystroke_e	e	n/a
154.0195	0.101	308039	keystroke_x	x	n/a
154.0975	0.0905	308195	keystroke_p	p	n/a
154.3225	0.068	308645	keystroke_l	l	n/a
154.3455	0.0895	308691	keystroke_i	i	n/a
154.4465	0.0675	308893	keystroke_c	c	n/a
154.5595	0.1005	309119	keystroke_i	i	n/a
154.695	0.0445	309390	keystroke_t	t	n/a
154.807	0.09	309614	keystroke_Key.space	Key.space	n/a
155.0425	0.034	310085	keystroke_l	l	n/a
155.2115	0.045	310423	keystroke_o	o	n/a
155.3465	0.1235	310693	keystroke_o	o	n/a
155.4815	0.1235	310963	keystroke_k	k	n/a
155.5825	0.0795	311165	keystroke_Key.space	Key.space	n/a
155.6725	0.0905	311345	keystroke_u	u	n/a
155.8755	0.1575	311751	keystroke_n	n	n/a
155.9425	0.1025	311885	keystroke_i	i	n/a
156.055	0.1125	312110	keystroke_x	x	n/a
156.202	0.0555	312404	keystroke_Key.enter	Key.enter	n/a
156.2615	6.038	312523	prompt	n/a	radar initial thesaurus utilize\n
157	0.0455	314000	keystroke_r	r	n/a
157.0565	0.0675	314113	keystroke_a	a	n/a
157.1465	0.0785	314293	keystroke_d	d	n/a
157.2925	0.1125	314585	keystroke_a	a	n/a
157.4055	0.0905	314811	keystroke_r	r	n/a
157.5515	0.101	315103	keystroke_Key.space	Key.space	n/a
157.7315	0.1235	315463	keystroke_i	i	n/a
157.844	0.09	315688	keystroke_n	n	n/a
157.9565	0.09	315913	keystroke_i	i	n/a
158.0465	0.09	316093	keystroke_t	t	n/a
158.159	0.0675	316318	keystroke_i	i	n/a
158.283	0.09	316566	keystroke_a	a	n/a
158.418	0.0785	316836	keystroke_l	l	n/a
158.8675	0.09	317735	keystroke_Key.space	Key.space	n/a
159.093	0.0785	318186	keystroke_t	t	n/a
159.1835	0.0785	318367	keystroke_h	h	n/a
159.273	0.09	318546	keystroke_e	e	n/a
159.464	0.1125	318928	keystroke_s	s	n/a
159.7565	0.09	319513	keystroke_a	a	n/a
159.9255	0.0675	319851	keystroke_u	u	n/a
160.0375	0.079	320075	keystroke_r	r	n/a
160.4205	0.0785	320841	keystroke_u	u	n/a
160.5215	0.0905	321043	keystroke_s	s	n/a
160.7915	0.0785	321583	keystroke_Key.space	Key.space	n/a
161.062	0.112	322124	keystroke_u	u	n/a
161.186	0.1005	322372	keystroke_t	t	n/a
161.3765	0.0565	322753	keystroke_i	i	n/a
161.444	0.135	322888	keystroke_l	l	n/a
161.5225	0.1465	323045	keystroke_i	i	n/a
161.8265	0.136	323653	keystroke_z	z	n/a
161.9285	0.112	323857	keystroke_e	e	n/a
162.22	0.079	324440	keystroke_Key.enter	Key.enter	n/a
162.3025	5.3865	324605	prompt	n/a	imagination cologne proudly thumbnail\n
162.9065	0.1125	325813	keystroke_i	i	n/a
162.974	0.1125	325948	keystroke_m	m	n/a
163.0865	0.1125	326173	keystroke_a	a	n/a
163.1655	0.101	326331	keystroke_g	g	n/a
163.2785	0.078	326557	keystroke_i	i	n/a
163.345	0.124	326690	keystroke_n	n	n/a
163.503	0.1235	327006	keystroke_a	a	n/a
163.6155	0.067	327231	keystroke_t	t	n/a
163.739	0.1575	327478	keystroke_i	i	n/a
163.784	0.09	327568	keystroke_o	o	n/a
163.841	0.1235	327682	keystroke_n	n	n/a
163.931	0.078	327862	keystroke_Key.space	Key.space	n/a
164.0875	0.068	328175	keystroke_c	c	n/a
164.144	0.0675	328288	keystroke_o	o	n/a
164.324	0.034	328648	keystroke_l	l	n/a
164.4365	0.101	328873	keystroke_o	o	n/a
164.549	0.0565	329098	keystroke_g	g	n/a
164.6285	0.1005	329257	keystroke_n	n	n/a
164.7515	0.1125	329503	keystroke_e	e	n/a
164.898	0.0785	329796	keystroke_Key.space	Key.space	n/a
165.0555	0.0675	330111	keystroke_p	p	n/a
165.1235	0.078	330247	keystroke_r	r	n/a
165.37	0.1465	330740	keystroke_o	o	n/a
165.5295	0.067	331059	keystroke_u	u	n/a
165.629	0.1125	331258	keystroke_d	d	n/a
165.7985	0.1455	331597	keystroke_l	l	n/a
165.8765	0.1575	331753	keystroke_y	y	n/a
166.2925	0.034	332585	keystroke_Key.space	Key.space	n/a
166.394	0.079	332788	keystroke_t	t	n/a
166.5065	0.09	333013	keystroke_h	h	n/a
166.6865	0.056	333373	keystroke_u	u	n/a
166.889	0.0335	333778	keystroke_m	m	n/a
166.934	0.1125	333868	keystroke_b	b	n/a
167.1365	0.09	334273	keystroke_n	n	n/a
167.26	0.079	334520	keystroke_a	a	n/a
167.3615	0.1015	334723	keystroke_i	i	n/a
167.4065	0.135	334813	keystroke_l	l	n/a
167.6315	0.0565	335263	keystroke_Key.enter	Key.enter	n/a
167.6925	4.0915	335385	prompt	n/a	evaluated cnet borders licensed\n
168.2615	0.09	336523	keystroke_e	e	n/a
168.419	0.1465	336838	keystroke_v	v	n/a
168.554	0.045	337108	keystroke_a	a	n/a
168.6555	0.112	337311	keystroke_l	l	n/a
168.734	0.101	337468	keystroke_u	u	n/a
168.8015	0.135	337603	keystroke_a	a	n/a
168.9025	0.1015	337805	keystroke_t	t	n/a
169.139	0.056	338278	keystroke_e	e	n/a
169.2965	0.101	338593	keystroke_d	d	n/a
169.409	0.09	338818	keystroke_Key.space	Key.space	n/a
169.5665	0.0785	339133	keystroke_b	b	n/a
169.6905	0.0675	339381	keystroke_o	o	n/a
169.814	0.1015	339628	keystroke_r	r	n/a
169.994	0.0785	339988	keystroke_d	d	n/a
170.185	0.124	340370	keystroke_e	e	n/a
170.264	0.1125	340528	keystroke_r	r	n/a
170.354	0.09	340708	keystroke_s	s	n/a
170.479	0.1	340958	keystroke_Key.space	Key.space	n/a
170.6015	0.1125	341203	keystroke_l	l	n/a
170.6915	0.101	341383	keystroke_i	i	n/a
170.8265	0.0675	341653	keystroke_c	c	n/a
171.007	0.056	342014	keystroke_e	e	n/a
171.13	0.1125	342260	keystroke_n	n	n/a
171.2875	0.0675	342575	keystroke_s	s	n/a
171.344	0.068	342688	keystroke_e	e	n/a
171.592	0.078	343184	keystroke_d	d	n/a
171.7045	0.078	343409	keystroke_Key.enter	Key.enter	n/a
171.7865	5.3405	343573	prompt	n/a	bottle smilies flush informative\n
172.435	0.0795	344870	keystroke_b	b	n/a
172.537	0.0785	345074	keystroke_o	o	n/a
172.66	0.057	345320	keystroke_t	t	n/a
172.795	0.079	345590	keystroke_t	t	n/a
172.9075	0.1125	345815	keystroke_l	l	n/a
173.009	0.0785	346018	keystroke_e	e	n/a
173.1455	0.1445	346291	keystroke_Key.space	Key.space	n/a
173.4025	0.09	346805	keystroke_s	s	n/a
173.5045	0.09	347009	keystroke_m	m	n/a
173.605	0.1125	347210	keystroke_i	i	n/a
173.7065	0.146	347413	keystroke_l	l	n/a
173.83	0.1125	347660	keystroke_i	i	n/a
173.954	0.1235	347908	keystroke_e	e	n/a
174.055	0.0905	348110	keystroke_s	s	n/a
174.1675	0.1125	348335	keystroke_Key.space	Key.space	n/a
174.3475	0.1015	348695	keystroke_f	f	n/a
174.4375	0.125	348875	keystroke_l	l	n/a
174.5275	0.0905	349055	keystroke_i	i	n/a
175.079	0.0565	350158	keystroke_Key.backspace	Key.backspace	n/a
175.248	0.0675	350496	keystroke_u	u	n/a
175.3265	0.1125	350653	keystroke_s	s	n/a
175.4505	0.09	350901	keystroke_h	h	n/a
175.529	0.09	351058	keystroke_Key.space	Key.space	n/a
175.6865	0.1125	351373	keystroke_i	i	n/a
175.743	0.101	351486	keystroke_n	n	n/a
175.833	0.09	351666	keystroke_f	f	n/a
175.912	0.112	351824	keystroke_o	o	n/a
176.0355	0.1125	352071	keystroke_r	r	n/a
176.1365	0.0785	352273	keystroke_m	m	n/a
176.26	0.113	352520	keystroke_a	a	n/a
176.339	0.1575	352678	keystroke_t	t	n/a
176.7555	0.101	353511	keystroke_i	i	n/a
176.823	0.09	353646	keystroke_v	v	n/a
176.8675	0.1015	353735	keystroke_e	e	n/a
177.003	0.1235	354006	keystroke_Key.enter	Key.enter	n/a
177.13	7.1525	354260	prompt	n/a	behavioral panasonic header qatar\n
177.835	0.1015	355670	keystroke_b	b	n/a
178.0265	0.0785	356053	keystroke_e	e	n/a
178.139	0.124	356278	keystroke_h	h	n/a
178.274	0.101	356548	keystroke_a	a	n/a
178.3415	0.09	356683	keystroke_v	v	n/a
178.4425	0.1465	356885	keystroke_i	i	n/a
178.4765	0.0565	356953	keystroke_o	o	n/a
178.6005	0.067	357201	keystroke_r	r	n/a
178.679	0.068	357358	keystroke_a	a	n/a
178.7355	0.0895	357471	keystroke_l	l	n/a
178.814	0.1235	357628	keystroke_Key.space	Key.space	n/a
179.0395	0.1005	358079	keystroke_p	p	n/a
179.1965	0.0785	358393	keystroke_a	a	n/a
179.2865	0.09	358573	keystroke_n	n	n/a
179.68	0.09	359360	keystroke_s	s	n/a
180.254	0.0675	360508	keystroke_Key.backspace	Key.backspace	n/a
180.355	0.1245	360710	keystroke_a	a	n/a
180.4565	0.0785	360913	keystroke_s	s	n/a
180.625	0.079	361250	keystroke_o	o	n/a
180.6705	0.157	361341	keystroke_n	n	n/a
180.85	0.102	361700	keystroke_i	i	n/a
180.985	0.0675	361970	keystroke_c	c	n/a
181.1425	0.1125	362285	keystroke_Key.space	Key.space	n/a
181.3455	0.101	362691	keystroke_h	h	n/a
181.435	0.09	362870	keystroke_e	e	n/a
181.615	0.0905	363230	keystroke_a	a	n/a
181.7165	0.079	363433	keystroke_d	d	n/a
181.9525	0.09	363905	keystroke_e	e	n/a
181.9865	0.09	363973	keystroke_r	r	n/a
182.0765	0.079	364153	keystroke_Key.space	Key.space	n/a
182.437	0.0555	364874	keystroke_q	q	n/a
183.19	0.079	366380	keystroke_a	a	n/a
183.685	0.056	367370	keystroke_t	t	n/a
183.888	0.101	367776	keystroke_a	a	n/a
183.9775	0.045	367955	keystroke_r	r	n/a
184.225	0.0565	368450	keystroke_Key.enter	Key.enter	n/a
184.2855	3.8665	368571	prompt	n/a	four isolated array corners\n
184.9455	0.0895	369891	keystroke_f	f	n/a
185.125	0.09	370250	keystroke_o	o	n/a
185.159	0.101	370318	keystroke_u	u	n/a
185.226	0.0565	370452	keystroke_r	r	n/a
185.3165	0.09	370633	keystroke_Key.space	Key.space	n/a
185.53	0.124	371060	keystroke_i	i	n/a
185.62	0.09	371240	keystroke_s	s	n/a
185.755	0.1015	371510	keystroke_o	o	n/a
185.9125	0.079	371825	keystroke_l	l	n/a
186.0025	0.1015	372005	keystroke_a	a	n/a
186.07	0.1465	372140	keystroke_t	t	n/a
186.205	0.079	372410	keystroke_e	e	n/a
186.3965	0.0335	372793	keystroke_d	d	n/a
186.441	0.1355	372882	keystroke_Key.space	Key.space	n/a
186.5875	0.09	373175	keystroke_a	a	n/a
186.689	0.0675	373378	keystroke_r	r	n/a
186.824	0.124	373648	keystroke_r	r	n/a
186.9585	0.045	373917	keystroke_a	a	n/a
186.993	0.112	373986	keystroke_y	y	n/a
187.0715	0.0895	374143	keystroke_Key.space	Key.space	n/a
187.2515	0.0795	374503	keystroke_c	c	n/a
187.364	0.079	374728	keystroke_o	o	n/a
187.499	0.079	374998	keystroke_r	r	n/a
187.623	0.0895	375246	keystroke_n	n	n/a
187.7465	0.0895	375493	keystroke_e	e	n/a
187.814	0.1235	375628	keystroke_r	r	n/a
187.949	0.079	375898	keystroke_s	s	n/a
188.073	0.078	376146	keystroke_Key.enter	Key.enter	n/a
188.155	6.208	376310	prompt	n/a	obligations spiritual utils ratings\n
188.7365	0.0565	377473	keystroke_o	o	n/a
188.8715	0.0795	377743	keystroke_b	b	n/a
188.9955	0.0785	377991	keystroke_l	l	n/a
189.04	0.1125	378080	keystroke_i	i	n/a
189.3105	0.123	378621	keystroke_g	g	n/a
189.7035	0.1125	379407	keystroke_a	a	n/a
189.783	0.078	379566	keystroke_t	t	n/a
189.8955	0.1685	379791	keystroke_i	i	n/a
189.963	0.045	379926	keystroke_o	o	n/a
189.9965	0.1015	379993	keystroke_n	n	n/a
190.1085	0.09	380217	keystroke_s	s	n/a
190.2435	0.079	380487	keystroke_Key.space	Key.space	n/a
190.3455	0.101	380691	keystroke_p	p	n/a
190.435	0.068	380870	keystroke_r	r	n/a
190.5365	0.1235	381073	keystroke_i	i	n/a
190.671	0.0675	381342	keystroke_r	r	n/a
190.829	0.101	381658	keystroke_u	u	n/a
190.919	0.067	381838	keystroke_t	t	n/a
191.335	0.056	382670	keystroke_a	a	n/a
191.4365	0.09	382873	keystroke_l	l	n/a
191.571	0.102	383142	keystroke_Key.space	Key.space	n/a
192.404	0.045	384808	keystroke_u	u	n/a
192.4375	0.101	384875	keystroke_t	t	n/a
192.55	0.1015	385100	keystroke_i	i	n/a
192.6175	0.09	385235	keystroke_l	l	n/a
192.719	0.0785	385438	keystroke_s	s	n/a
192.82	0.135	385640	keystroke_Key.space	Key.space	n/a
192.9775	0.146	385955	keystroke_r	r	n/a
193.1355	0.0675	386271	keystroke_a	a	n/a
193.191	0.0675	386382	keystroke_t	t	n/a
193.2705	0.123	386541	keystroke_i	i	n/a
193.326	0.0345	386652	keystroke_o	o	n/a
193.36	0.0905	386720	keystroke_n	n	n/a
193.731	0.0345	387462	keystroke_Key.backspace	Key.backspace	n/a
193.833	0.1005	387666	keystroke_Key.backspace	Key.backspace	n/a
194.0805	0.067	388161	keystroke_n	n	n/a
194.1135	0.102	388227	keystroke_g	g	n/a
194.181	0.0675	388362	keystroke_s	s	n/a
194.283	0.078	388566	keystroke_Key.enter	Key.enter	n/a
194.366	6.3745	388732	prompt	n/a	prayer wrap properly consciousness\n
195.1715	0.067	390343	keystroke_p	p	n/a
195.261	0.068	390522	keystroke_a	a	n/a
195.306	0.079	390612	keystroke_r	r	n/a
195.475	0.0785	390950	keystroke_y	y	n/a
195.6325	0.1465	391265	keystroke_e	e	n/a
195.7225	0.079	391445	keystroke_r	r	n/a
195.813	0.09	391626	keystroke_Key.space	Key.space	n/a
197.0275	0.124	394055	keystroke_w	w	n/a
197.084	0.1235	394168	keystroke_r	r	n/a
197.219	0.0675	394438	keystroke_a	a	n/a
197.275	0.1125	394550	keystroke_p	p	n/a
197.3875	0.101	394775	keystroke_Key.space	Key.space	n/a
197.7475	0.0565	395495	keystroke_p	p	n/a
197.849	0.079	395698	keystroke_r	r	n/a
198.0065	0.0905	396013	keystroke_o	o	n/a
198.085	0.09	396170	keystroke_p	p	n/a
198.1975	0.101	396395	keystroke_e	e	n/a
198.2535	0.102	396507	keystroke_r	r	n/a
198.423	0.157	396846	keystroke_l	l	n/a
198.513	0.112	397026	keystroke_y	y	n/a
198.591	0.1465	397182	keystroke_Key.space	Key.space	n/a
198.8275	0.0685	397655	keystroke_c	c	n/a
198.861	0.1125	397722	keystroke_o	o	n/a
198.906	0.1465	397812	keystroke_n	n	n/a
199.109	0.0895	398218	keystroke_s	s	n/a
199.3125	0.0775	398625	keystroke_c	c	n/a
199.401	0.1125	398802	keystroke_i	i	n/a
199.503	0.0895	399006	keystroke_o	o	n/a
199.5815	0.0785	399163	keystroke_u	u	n/a
199.7725	0.0565	399545	keystroke_s	s	n/a
199.8515	0.101	399703	keystroke_n	n	n/a
200.0425	0.0335	400085	keystroke_e	e	n/a
200.279	0.0785	400558	keystroke_s	s	n/a
200.459	0.101	400918	keystroke_s	s	n/a
200.6725	0.0675	401345	keystroke_Key.enter	Key.enter	n/a
200.7435	4.3285	401487	prompt	n/a	again possible person classes\n
201.3925	0.09	402785	keystroke_a	a	n/a
201.494	0.1575	402988	keystroke_g	g	n/a
201.5955	0.067	403191	keystroke_a	a	n/a
201.685	0.146	403370	keystroke_i	i	n/a
201.741	0.169	403482	keystroke_n	n	n/a
201.8425	0.079	403685	keystroke_Key.space	Key.space	n/a
202	0.09	404000	keystroke_p	p	n/a
202.0335	0.1465	404067	keystroke_o	o	n/a
202.18	0.09	404360	keystroke_s	s	n/a
202.326	0.0565	404652	keystroke_s	s	n/a
202.4385	0.102	404877	keystroke_i	i	n/a
202.529	0.0785	405058	keystroke_b	b	n/a
202.6185	0.1015	405237	keystroke_l	l	n/a
202.754	0.067	405508	keystroke_e	e	n/a
202.855	0.101	405710	keystroke_Key.space	Key.space	n/a
203.08	0.09	406160	keystroke_p	p	n/a
203.204	0.0905	406408	keystroke_e	e	n/a
203.26	0.1355	406520	keystroke_r	r	n/a
203.4065	0.101	406813	keystroke_s	s	n/a
203.519	0.09	407038	keystroke_o	o	n/a
203.53	0.169	407060	keystroke_n	n	n/a
203.6875	0.09	407375	keystroke_Key.space	Key.space	n/a
204.1155	0.0895	408231	keystroke_c	c	n/a
204.25	0.0675	408500	keystroke_l	l	n/a
204.3295	0.089	408659	keystroke_a	a	n/a
204.385	0.09	408770	keystroke_s	s	n/a
204.565	0.1475	409130	keystroke_s	s	n/a
204.7	0.1015	409400	keystroke_e	e	n/a
204.8125	0.079	409625	keystroke_s	s	n/a
205.0035	0.0675	410007	keystroke_Key.enter	Key.enter	n/a
205.075	4.7905	410150	prompt	n/a	dies holders driver titten\n
205.78	0.079	411560	keystroke_d	d	n/a
205.9485	0.124	411897	keystroke_i	i	n/a
206.0275	0.056	412055	keystroke_e	e	n/a
206.129	0.202	412258	keystroke_s	s	n/a
206.3425	0.0785	412685	keystroke_Key.space	Key.space	n/a
206.8825	0.1465	413765	keystroke_h	h	n/a
206.9725	0.068	413945	keystroke_o	o	n/a
207.1635	0.035	414327	keystroke_l	l	n/a
207.198	0.078	414396	keystroke_d	d	n/a
207.411	0.09	414822	keystroke_e	e	n/a
207.49	0.0785	414980	keystroke_r	r	n/a
207.636	0.0565	415272	keystroke_s	s	n/a
207.76	0.135	415520	keystroke_Key.space	Key.space	n/a
208.0415	0.079	416083	keystroke_d	d	n/a
208.188	0.067	416376	keystroke_r	r	n/a
208.289	0.112	416578	keystroke_i	i	n/a
208.413	0.078	416826	keystroke_v	v	n/a
208.6485	0.0675	417297	keystroke_e	e	n/a
208.683	0.1005	417366	keystroke_r	r	n/a
208.773	0.123	417546	keystroke_Key.space	Key.space	n/a
209.031	0.0345	418062	keystroke_t	t	n/a
209.121	0.102	418242	keystroke_i	i	n/a
209.2115	0.0335	418423	keystroke_t	t	n/a
209.3465	0.0565	418693	keystroke_t	t	n/a
209.605	0.0115	419210	keystroke_e	e	n/a
209.6275	0.0785	419255	keystroke_n	n	n/a
209.7965	0.0675	419593	keystroke_Key.enter	Key.enter	n/a
209.8685	5.531	419737	prompt	n/a	centre receptors itunes notices\n
210.516	0.09	421032	keystroke_c	c	n/a
210.741	0.0905	421482	keystroke_e	e	n/a
210.8655	0.09	421731	keystroke_n	n	n/a
210.921	0.079	421842	keystroke_t	t	n/a
211.146	0.1575	422292	keystroke_r	r	n/a
211.3155	0.1005	422631	keystroke_e	e	n/a
211.518	0.0895	423036	keystroke_Key.space	Key.space	n/a
211.8665	0.101	423733	keystroke_r	r	n/a
211.923	0.078	423846	keystroke_e	e	n/a
212.136	0.0565	424272	keystroke_c	c	n/a
212.316	0.057	424632	keystroke_e	e	n/a
212.406	0.09	424812	keystroke_p	p	n/a
212.5305	0.067	425061	keystroke_t	t	n/a
212.676	0.0675	425352	keystroke_o	o	n/a
212.721	0.18	425442	keystroke_r	r	n/a
212.8905	0.0225	425781	keystroke_s	s	n/a
212.946	0.09	425892	keystroke_Key.space	Key.space	n/a
213.093	0.123	426186	keystroke_i	i	n/a
213.2165	0.067	426433	keystroke_t	t	n/a
213.329	0.0895	426658	keystroke_u	u	n/a
213.5535	0.056	427107	keystroke_n	n	n/a
213.7225	0.0565	427445	keystroke_e	e	n/a
213.936	0.1125	427872	keystroke_s	s	n/a
214.0935	0.09	428187	keystroke_Key.space	Key.space	n/a
214.3975	0.1125	428795	keystroke_n	n	n/a
214.4655	0.0895	428931	keystroke_o	o	n/a
214.555	0.0675	429110	keystroke_t	t	n/a
214.701	0.09	429402	keystroke_i	i	n/a
214.7805	0.067	429561	keystroke_c	c	n/a
215.0955	0.123	430191	keystroke_e	e	n/a
215.208	0.078	430416	keystroke_s	s	n/a
215.32	0.0785	430640	keystroke_Key.enter	Key.enter	n/a
215.404	6.7905	430808	prompt	n/a	concert failures purposes moderators\n
216.2985	0.0785	432597	keystroke_c	c	n/a
216.389	0.067	432778	keystroke_o	o	n/a
216.4225	0.1575	432845	keystroke_n	n	n/a
216.501	0.09	433002	keystroke_c	c	n/a
216.771	0.0675	433542	keystroke_e	e	n/a
216.805	0.1015	433610	keystroke_r	r	n/a
216.996	0.0675	433992	keystroke_t	t	n/a
217.0745	0.135	434149	keystroke_Key.space	Key.space	n/a
217.255	0.09	434510	keystroke_f	f	n/a
217.356	0.0675	434712	keystroke_a	a	n/a
217.3675	0.0785	434735	keystroke_i	i	n/a
217.435	0.0675	434870	keystroke_l	l	n/a
217.896	0.0785	435792	keystroke_u	u	n/a
217.952	0.1015	435904	keystroke_r	r	n/a
218.279	0.078	436558	keystroke_e	e	n/a
218.335	0.0895	436670	keystroke_s	s	n/a
218.481	0.1125	436962	keystroke_Key.space	Key.space	n/a
218.8185	0.0565	437637	keystroke_p	p	n/a
219.1335	0.09	438267	keystroke_u	u	n/a
219.235	0.101	438470	keystroke_r	r	n/a
219.347	0.1125	438694	keystroke_p	p	n/a
219.4485	0.1125	438897	keystroke_o	o	n/a
219.6175	0.1465	439235	keystroke_s	s	n/a
219.966	0.0675	439932	keystroke_e	e	n/a
220.0895	0.0905	440179	keystroke_s	s	n/a
220.236	0.101	440472	keystroke_Key.space	Key.space	n/a
220.877	0.1355	441754	keystroke_m	m	n/a
220.945	0.124	441890	keystroke_o	o	n/a
221.0465	0.101	442093	keystroke_d	d	n/a
221.2595	0.1035	442519	keystroke_e	e	n/a
221.3495	0.0795	442699	keystroke_r	r	n/a
221.4625	0.147	442925	keystroke_a	a	n/a
221.597	0.0455	443194	keystroke_t	t	n/a
221.71	0.101	443420	keystroke_o	o	n/a
221.822	0.1015	443644	keystroke_r	r	n/a
221.879	0.135	443758	keystroke_s	s	n/a
222.104	0.0895	444208	keystroke_Key.enter	Key.enter	n/a
222.197	6.4885	444394	prompt	n/a	preserve naturals describes biblical\n
222.936	0.0335	445872	keystroke_p	p	n/a
223.0145	0.079	446029	keystroke_r	r	n/a
223.386	0.101	446772	keystroke_e	e	n/a
223.5885	0.135	447177	keystroke_s	s	n/a
223.679	0.1235	447358	keystroke_e	e	n/a
223.791	0.0675	447582	keystroke_r	r	n/a
224.0385	0.045	448077	keystroke_v	v	n/a
224.196	0.0785	448392	keystroke_e	e	n/a
224.286	0.1015	448572	keystroke_Key.space	Key.space	n/a
224.4435	0.1015	448887	keystroke_n	n	n/a
224.6235	0.079	449247	keystroke_a	a	n/a
224.6575	0.091	449315	keystroke_t	t	n/a
224.826	0.0675	449652	keystroke_u	u	n/a
224.882	0.124	449764	keystroke_r	r	n/a
224.9835	0.0675	449967	keystroke_a	a	n/a
225.0845	0.079	450169	keystroke_l	l	n/a
225.2985	0.1015	450597	keystroke_s	s	n/a
225.4675	0.146	450935	keystroke_Key.space	Key.space	n/a
225.783	0.0555	451566	keystroke_d	d	n/a
225.94	0.056	451880	keystroke_e	e	n/a
226.0415	0.1005	452083	keystroke_s	s	n/a
226.244	0.101	452488	keystroke_c	c	n/a
226.4355	0.0555	452871	keystroke_r	r	n/a
226.5475	0.1235	453095	keystroke_i	i	n/a
226.6375	0.09	453275	keystroke_b	b	n/a
226.829	0.0675	453658	keystroke_e	e	n/a
226.9975	0.0785	453995	keystroke_s	s	n/a
227.0985	0.124	454197	keystroke_Key.space	Key.space	n/a
227.38	0.0785	454760	keystroke_b	b	n/a
227.4695	0.1015	454939	keystroke_i	i	n/a
227.5375	0.0895	455075	keystroke_b	b	n/a
227.7295	0.1	455459	keystroke_l	l	n/a
227.9085	0.1125	455817	keystroke_i	i	n/a
228.032	0.0675	456064	keystroke_c	c	n/a
228.2125	0.079	456425	keystroke_a	a	n/a
228.3695	0.1015	456739	keystroke_l	l	n/a
228.606	0.0785	457212	keystroke_Key.enter	Key.enter	n/a
228.688	5.9825	457376	prompt	n/a	evaluations operations thunder abraham\n
229.326	0.056	458652	keystroke_e	e	n/a
229.461	0.124	458922	keystroke_v	v	n/a
229.551	0.101	459102	keystroke_a	a	n/a
229.664	0.1235	459328	keystroke_l	l	n/a
229.731	0.1125	459462	keystroke_u	u	n/a
229.8435	0.1235	459687	keystroke_a	a	n/a
229.9335	0.101	459867	keystroke_t	t	n/a
230.046	0.1575	460092	keystroke_i	i	n/a
230.1025	0.09	460205	keystroke_o	o	n/a
230.181	0.056	460362	keystroke_n	n	n/a
230.316	0.1015	460632	keystroke_s	s	n/a
230.496	0.09	460992	keystroke_Key.space	Key.space	n/a
230.766	0.09	461532	keystroke_o	o	n/a
231.1485	0.101	462297	keystroke_p	p	n/a
231.261	0.1025	462522	keystroke_e	e	n/a
231.3285	0.09	462657	keystroke_r	r	n/a
231.452	0.102	462904	keystroke_a	a	n/a
231.542	0.079	463084	keystroke_t	t	n/a
231.6435	0.169	463287	keystroke_i	i	n/a
231.6885	0.1125	463377	keystroke_o	o	n/a
231.7335	0.1125	463467	keystroke_n	n	n/a
231.857	0.1125	463714	keystroke_s	s	n/a
232.0595	0.1015	464119	keystroke_Key.space	Key.space	n/a
232.386	0.0115	464772	keystroke_t	t	n/a
232.431	0.0675	464862	keystroke_h	h	n/a
232.566	0.09	465132	keystroke_u	u	n/a
232.746	0.0785	465492	keystroke_n	n	n/a
232.847	0.068	465694	keystroke_d	d	n/a
233.0165	0.09	466033	keystroke_e	e	n/a
233.072	0.0905	466144	keystroke_r	r	n/a
233.1735	0.079	466347	keystroke_Key.space	Key.space	n/a
233.342	0.09	466684	keystroke_a	a	n/a
233.466	0.0785	466932	keystroke_b	b	n/a
233.8035	0.1685	467607	keystroke_r	r	n/a
233.8935	0.0895	467787	keystroke_a	a	n/a
234.0845	0.0565	468169	keystroke_h	h	n/a
234.197	0.0675	468394	keystroke_a	a	n/a
234.287	0.1125	468574	keystroke_m	m	n/a
234.625	0.0445	469250	keystroke_Key.enter	Key.enter	n/a
234.6735	6.9945	469347	prompt	n/a	nomination collected modular trembl\n
235.356	0.0785	470712	keystroke_n	n	n/a
235.604	0.078	471208	keystroke_m	m	n/a
236.0195	0.034	472039	keystroke_Key.backspace	Key.backspace	n/a
236.1995	0.09	472399	keystroke_o	o	n/a
236.233	0.091	472466	keystroke_m	m	n/a
236.4695	0.0905	472939	keystroke_i	i	n/a
236.5035	0.1355	473007	keystroke_n	n	n/a
236.627	0.1245	473254	keystroke_a	a	n/a
236.7395	0.045	473479	keystroke_t	t	n/a
236.8185	0.146	473637	keystroke_i	i	n/a
236.852	0.1015	473704	keystroke_o	o	n/a
236.9195	0.1235	473839	keystroke_n	n	n/a
237.032	0.124	474064	keystroke_Key.space	Key.space	n/a
237.471	0.011	474942	keystroke_c	c	n/a
237.7635	0.09	475527	keystroke_o	o	n/a
237.9095	0.1015	475819	keystroke_l	l	n/a
238.0445	0.1235	476089	keystroke_e	e	n/a
238.495	0.056	476990	keystroke_Key.backspace	Key.backspace	n/a
238.7085	0.068	477417	keystroke_l	l	n/a
238.7645	0.0675	477529	keystroke_e	e	n/a
238.956	0.0785	477912	keystroke_c	c	n/a
239.147	0.09	478294	keystroke_t	t	n/a
239.2485	0.0785	478497	keystroke_e	e	n/a
239.4395	0.0675	478879	keystroke_d	d	n/a
239.496	0.1235	478992	keystroke_Key.space	Key.space	n/a
239.6085	0.0895	479217	keystroke_m	m	n/a
239.687	0.1125	479374	keystroke_o	o	n/a
239.822	0.0785	479644	keystroke_d	d	n/a
239.913	0.1005	479826	keystroke_u	u	n/a
239.9795	0.0675	479959	keystroke_l	l	n/a
240.081	0.1235	480162	keystroke_a	a	n/a
240.1935	0.0675	480387	keystroke_r	r	n/a
240.3285	0.101	480657	keystroke_Key.space	Key.space	n/a
240.7555	0.0675	481511	keystroke_t	t	n/a
240.936	0.101	481872	keystroke_e	e	n/a
240.947	0.1575	481894	keystroke_r	r	n/a
241.116	0.101	482232	keystroke_m	m	n/a
241.3075	0.067	482615	keystroke_b	b	n/a
241.4645	0.056	482929	keystroke_l	l	n/a
241.5995	0.0675	483199	keystroke_Key.enter	Key.enter	n/a
241.671	6.4545	483342	prompt	n/a	aboriginal steps yemen feeding\n
243.163	0.1125	486326	keystroke_a	a	n/a
243.31	0.0895	486620	keystroke_b	b	n/a
243.4445	0.1015	486889	keystroke_o	o	n/a
243.557	0.0785	487114	keystroke_r	r	n/a
243.6805	0.09	487361	keystroke_i	i	n/a
243.805	0.078	487610	keystroke_g	g	n/a
243.906	0.067	487812	keystroke_i	i	n/a
244.097	0.09	488194	keystroke_n	n	n/a
244.3225	0.0675	488645	keystroke_a	a	n/a
244.5925	0.0555	489185	keystroke_l	l	n/a
245.1655	0.1015	490331	keystroke_Key.space	Key.space	n/a
245.3905	0.0795	490781	keystroke_s	s	n/a
245.4805	0.102	490961	keystroke_t	t	n/a
245.593	0.09	491186	keystroke_e	e	n/a
245.695	0.1125	491390	keystroke_p	p	n/a
245.818	0.0795	491636	keystroke_s	s	n/a
245.9425	0.0895	491885	keystroke_Key.space	Key.space	n/a
246.1445	0.102	492289	keystroke_y	y	n/a
246.2575	0.056	492515	keystroke_e	e	n/a
246.381	0.112	492762	keystroke_m	m	n/a
246.505	0.078	493010	keystroke_e	e	n/a
246.5945	0.1015	493189	keystroke_n	n	n/a
246.7635	0.079	493527	keystroke_Key.space	Key.space	n/a
246.966	0.067	493932	keystroke_f	f	n/a
247.146	0.034	494292	keystroke_e	e	n/a
247.281	0.056	494562	keystroke_e	e	n/a
247.4835	0.079	494967	keystroke_d	d	n/a
247.708	0.1125	495416	keystroke_i	i	n/a
247.7425	0.157	495485	keystroke_n	n	n/a
247.855	0.0555	495710	keystroke_g	g	n/a
248.068	0.0565	496136	keystroke_Key.enter	Key.enter	n/a
248.128	5.262	496256	prompt	n/a	feels constraints rotation shannon\n
248.8555	0.057	497711	keystroke_f	f	n/a
249.025	0.0565	498050	keystroke_e	e	n/a
249.182	0.0675	498364	keystroke_e	e	n/a
249.295	0.078	498590	keystroke_l	l	n/a
249.4075	0.09	498815	keystroke_s	s	n/a
249.508	0.1125	499016	keystroke_Key.space	Key.space	n/a
249.666	0.0565	499332	keystroke_c	c	n/a
249.733	0.08	499466	keystroke_o	o	n/a
249.778	0.1125	499556	keystroke_n	n	n/a
249.88	0.1005	499760	keystroke_s	s	n/a
250.206	0.0445	500412	keystroke_t	t	n/a
250.6	0.067	501200	keystroke_r	r	n/a
250.656	0.067	501312	keystroke_a	a	n/a
250.7575	0.09	501515	keystroke_i	i	n/a
250.791	0.124	501582	keystroke_n	n	n/a
250.903	0.1015	501806	keystroke_t	t	n/a
250.993	0.045	501986	keystroke_s	s	n/a
251.0945	0.1015	502189	keystroke_Key.space	Key.space	n/a
251.443	0.09	502886	keystroke_r	r	n/a
251.567	0.079	503134	keystroke_o	o	n/a
251.7355	0.0795	503471	keystroke_t	t	n/a
251.848	0.1125	503696	keystroke_a	a	n/a
251.938	0.09	503876	keystroke_t	t	n/a
252.096	0.1345	504192	keystroke_i	i	n/a
252.108	0.112	504216	keystroke_o	o	n/a
252.208	0.1125	504416	keystroke_n	n	n/a
252.3325	0.0895	504665	keystroke_Key.space	Key.space	n/a
252.568	0.091	505136	keystroke_s	s	n/a
252.6475	0.078	505295	keystroke_h	h	n/a
252.737	0.09	505474	keystroke_a	a	n/a
252.838	0.057	505676	keystroke_n	n	n/a
252.9625	0.0895	505925	keystroke_n	n	n/a
253.0745	0.09	506149	keystroke_o	o	n/a
253.142	0.1125	506284	keystroke_n	n	n/a
253.3225	0.067	506645	keystroke_Key.enter	Key.enter	n/a
253.393	4.554	506786	prompt	n/a	rough behind peaceful projected\n
254.0305	0.0675	508061	keystroke_r	r	n/a
254.143	0.09	508286	keystroke_o	o	n/a
254.1655	0.124	508331	keystroke_u	u	n/a
254.267	0.056	508534	keystroke_g	g	n/a
254.347	0.1225	508694	keystroke_h	h	n/a
254.458	0.1125	508916	keystroke_Key.space	Key.space	n/a
254.7055	0.079	509411	keystroke_b	b	n/a
254.864	0.0665	509728	keystroke_e	e	n/a
254.953	0.09	509906	keystroke_h	h	n/a
255.1445	0.112	510289	keystroke_i	i	n/a
255.2005	0.1135	510401	keystroke_n	n	n/a
255.347	0.0565	510694	keystroke_d	d	n/a
255.426	0.101	510852	keystroke_Key.space	Key.space	n/a
255.6055	0.1015	511211	keystroke_p	p	n/a
255.696	0.0785	511392	keystroke_e	e	n/a
255.797	0.09	511594	keystroke_a	a	n/a
255.943	0.056	511886	keystroke_c	c	n/a
256.146	0.078	512292	keystroke_e	e	n/a
256.303	0.0785	512606	keystroke_f	f	n/a
256.393	0.1015	512786	keystroke_u	u	n/a
256.4605	0.1575	512921	keystroke_l	l	n/a
256.607	0.056	513214	keystroke_Key.space	Key.space	n/a
256.742	0.09	513484	keystroke_p	p	n/a
256.8545	0.0785	513709	keystroke_r	r	n/a
256.978	0.1015	513956	keystroke_o	o	n/a
257.012	0.1015	514024	keystroke_j	j	n/a
257.169	0.09	514338	keystroke_e	e	n/a
257.3715	0.045	514743	keystroke_c	c	n/a
257.463	0.111	514926	keystroke_t	t	n/a
257.5855	0.0795	515171	keystroke_e	e	n/a
257.7545	0.067	515509	keystroke_d	d	n/a
257.867	0.079	515734	keystroke_Key.enter	Key.enter	n/a
257.95	5.262	515900	prompt	n/a	forums cheaper adverse gasoline\n
258.531	0.0895	517062	keystroke_f	f	n/a
258.7105	0.0335	517421	keystroke_o	o	n/a
258.7445	0.0785	517489	keystroke_r	r	n/a
259.003	0.1015	518006	keystroke_u	u	n/a
259.2175	0.067	518435	keystroke_m	m	n/a
259.318	0.1125	518636	keystroke_s	s	n/a
259.4755	0.0675	518951	keystroke_Key.space	Key.space	n/a
259.768	0.0675	519536	keystroke_c	c	n/a
259.825	0.123	519650	keystroke_h	h	n/a
259.982	0.1805	519964	keystroke_e	e	n/a
260.1055	0.124	520211	keystroke_a	a	n/a
260.2405	0.0335	520481	keystroke_p	p	n/a
260.353	0.135	520706	keystroke_e	e	n/a
260.455	0.089	520910	keystroke_r	r	n/a
260.6005	0.1235	521201	keystroke_Key.space	Key.space	n/a
260.7805	0.09	521561	keystroke_a	a	n/a
260.8595	0.0785	521719	keystroke_d	d	n/a
261.084	0.135	522168	keystroke_v	v	n/a
261.3765	0.079	522753	keystroke_e	e	n/a
261.4215	0.136	522843	keystroke_r	r	n/a
261.558	0.1675	523116	keystroke_s	s	n/a
261.6695	0.0895	523339	keystroke_e	e	n/a
261.8155	0.1125	523631	keystroke_Key.space	Key.space	n/a
262.063	0.1465	524126	keystroke_g	g	n/a
262.198	0.09	524396	keystroke_a	a	n/a
262.277	0.0895	524554	keystroke_s	s	n/a
262.423	0.0675	524846	keystroke_o	o	n/a
262.603	0.0565	525206	keystroke_l	l	n/a
262.7265	0.135	525453	keystroke_i	i	n/a
262.8055	0.1125	525611	keystroke_n	n	n/a
262.9745	0.09	525949	keystroke_e	e	n/a
263.177	0.034	526354	keystroke_Key.enter	Key.enter	n/a
263.2145	6.871	526429	prompt	n/a	appendix soviet penetration vbulletin\n
263.8745	0.157	527749	keystroke_a	a	n/a
264.0435	0.045	528087	keystroke_p	p	n/a
264.1555	0.101	528311	keystroke_p	p	n/a
264.291	0.1005	528582	keystroke_e	e	n/a
264.448	0.09	528896	keystroke_n	n	n/a
264.5715	0.0675	529143	keystroke_d	d	n/a
264.752	0.0785	529504	keystroke_i	i	n/a
264.8645	0.0785	529729	keystroke_x	x	n/a
265.022	0.112	530044	keystroke_Key.space	Key.space	n/a
265.393	0.1015	530786	keystroke_s	s	n/a
265.6075	0.0665	531215	keystroke_o	o	n/a
265.7305	0.1125	531461	keystroke_v	v	n/a
265.9895	0.0905	531979	keystroke_i	i	n/a
266.1805	0.0675	532361	keystroke_e	e	n/a
266.4055	0.0785	532811	keystroke_t	t	n/a
266.496	0.1455	532992	keystroke_Key.space	Key.space	n/a
266.6755	0.135	533351	keystroke_p	p	n/a
266.822	0.045	533644	keystroke_e	e	n/a
266.913	0.1115	533826	keystroke_n	n	n/a
267.013	0.1125	534026	keystroke_e	e	n/a
267.1825	0.1005	534365	keystroke_t	t	n/a
267.384	0.113	534768	keystroke_r	r	n/a
267.4855	0.09	534971	keystroke_a	a	n/a
267.6205	0.0675	535241	keystroke_t	t	n/a
267.7	0.1795	535400	keystroke_i	i	n/a
267.7665	0.1015	535533	keystroke_o	o	n/a
267.846	0.112	535692	keystroke_n	n	n/a
267.924	0.135	535848	keystroke_Key.space	Key.space	n/a
268.4305	0.1125	536861	keystroke_v	v	n/a
268.746	0.078	537492	keystroke_b	b	n/a
269.0155	0.09	538031	keystroke_u	u	n/a
269.218	0.0335	538436	keystroke_l	l	n/a
269.342	0.101	538684	keystroke_l	l	n/a
269.477	0.101	538954	keystroke_e	e	n/a
269.5555	0.124	539111	keystroke_t	t	n/a
269.803	0.1015	539606	keystroke_i	i	n/a
269.8485	0.1345	539697	keystroke_n	n	n/a
270.0395	0.045	540079	keystroke_Key.enter	Key.enter	n/a
270.0895	4.8445	540179	prompt	n/a	appeal asus passenger baking\n
270.8265	0.0795	541653	keystroke_a	a	n/a
270.928	0.0565	541856	keystroke_p	p	n/a
271.0635	0.078	542127	keystroke_p	p	n/a
271.1535	0.135	542307	keystroke_e	e	n/a
271.2545	0.0675	542509	keystroke_a	a	n/a
271.333	0.101	542666	keystroke_l	l	n/a
271.412	0.079	542824	keystroke_Key.space	Key.space	n/a
271.6145	0.0785	543229	keystroke_s	s	n/a
271.9965	0.0565	543993	keystroke_Key.backspace	Key.backspace	n/a
272.0755	0.135	544151	keystroke_a	a	n/a
272.199	0.079	544398	keystroke_s	s	n/a
272.312	0.1125	544624	keystroke_u	u	n/a
272.4355	0.09	544871	keystroke_s	s	n/a
272.5705	0.09	545141	keystroke_Key.space	Key.space	n/a
272.796	0.078	545592	keystroke_p	p	n/a
272.863	0.09	545726	keystroke_a	a	n/a
273.0655	0.0675	546131	keystroke_s	s	n/a
273.223	0.147	546446	keystroke_s	s	n/a
273.3695	0.056	546739	keystroke_e	e	n/a
273.5155	0.0565	547031	keystroke_n	n	n/a
273.583	0.0675	547166	keystroke_g	g	n/a
273.7855	0.1015	547571	keystroke_e	e	n/a
273.853	0.0565	547706	keystroke_r	r	n/a
273.9325	0.1115	547865	keystroke_Key.space	Key.space	n/a
274.1565	0.1245	548313	keystroke_b	b	n/a
274.2695	0.0785	548539	keystroke_a	a	n/a
274.382	0.0895	548764	keystroke_k	k	n/a
274.63	0.067	549260	keystroke_i	i	n/a
274.641	0.1345	549282	keystroke_n	n	n/a
274.708	0.056	549416	keystroke_g	g	n/a
274.854	0.079	549708	keystroke_Key.enter	Key.enter	n/a
274.937	4.5195	549874	prompt	n/a	betting flood keep collect\n
275.608	0.0675	551216	keystroke_b	b	n/a
275.777	0.1125	551554	keystroke_e	e	n/a
275.856	0.056	551712	keystroke_t	t	n/a
276.0245	0.056	552049	keystroke_t	t	n/a
276.2155	0.09	552431	keystroke_i	i	n/a
276.2945	0.056	552589	keystroke_n	n	n/a
276.328	0.079	552656	keystroke_g	g	n/a
276.4295	0.0905	552859	keystroke_Key.space	Key.space	n/a
276.8005	0.045	553601	keystroke_f	f	n/a
276.813	0.0665	553626	keystroke_l	l	n/a
276.992	0.0445	553984	keystroke_o	o	n/a
277.1155	0.124	554231	keystroke_o	o	n/a
277.2505	0.1125	554501	keystroke_d	d	n/a
277.374	0.034	554748	keystroke_Key.space	Key.space	n/a
277.5775	0.0105	555155	keystroke_k	k	n/a
277.678	0.09	555356	keystroke_e	e	n/a
277.858	0.0675	555716	keystroke_e	e	n/a
277.9365	0.124	555873	keystroke_p	p	n/a
278.0605	0.09	556121	keystroke_Key.space	Key.space	n/a
278.3755	0.0675	556751	keystroke_c	c	n/a
278.4545	0.045	556909	keystroke_o	o	n/a
278.6115	0.0455	557223	keystroke_l	l	n/a
278.7135	0.1125	557427	keystroke_l	l	n/a
278.814	0.045	557628	keystroke_e	e	n/a
278.9945	0.0785	557989	keystroke_c	c	n/a
279.1965	0.079	558393	keystroke_t	t	n/a
279.377	0.0785	558754	keystroke_Key.enter	Key.enter	n/a
279.459	5.3525	558918	prompt	n/a	roads dell effects portland\n
280.3665	0.09	560733	keystroke_r	r	n/a
280.5015	0.0565	561003	keystroke_o	o	n/a
280.513	0.0785	561026	keystroke_a	a	n/a
280.614	0.1575	561228	keystroke_d	d	n/a
280.749	0.09	561498	keystroke_s	s	n/a
280.884	0.1125	561768	keystroke_Key.space	Key.space	n/a
281.1095	0.0895	562219	keystroke_d	d	n/a
281.289	0.0905	562578	keystroke_e	e	n/a
281.3905	0.0335	562781	keystroke_l	l	n/a
281.4915	0.09	562983	keystroke_l	l	n/a
281.559	0.102	563118	keystroke_Key.space	Key.space	n/a
281.6715	0.0795	563343	keystroke_e	e	n/a
281.8065	0.0565	563613	keystroke_f	f	n/a
281.9415	0.158	563883	keystroke_f	f	n/a
282.099	0.113	564198	keystroke_e	e	n/a
282.324	0.09	564648	keystroke_c	c	n/a
282.5715	0.079	565143	keystroke_t	t	n/a
282.639	0.0795	565278	keystroke_s	s	n/a
282.7295	0.0895	565459	keystroke_Key.space	Key.space	n/a
282.865	0.134	565730	keystroke_p	p	n/a
282.9995	0.0675	565999	keystroke_r	r	n/a
283.056	0.078	566112	keystroke_o	o	n/a
283.6295	0.0445	567259	keystroke_Key.backspace	Key.backspace	n/a
283.7415	0.0565	567483	keystroke_Key.backspace	Key.backspace	n/a
283.933	0.0905	567866	keystroke_o	o	n/a
283.9555	0.0785	567911	keystroke_r	r	n/a
284.147	0.09	568294	keystroke_t	t	n/a
284.293	0.056	568586	keystroke_l	l	n/a
284.4165	0.079	568833	keystroke_a	a	n/a
284.484	0.1015	568968	keystroke_n	n	n/a
284.5855	0.0675	569171	keystroke_d	d	n/a
284.7315	0.079	569463	keystroke_Key.enter	Key.enter	n/a
284.8155	7.837	569631	prompt	n/a	urgent qualifications paragraphs destiny\n
285.609	0.1125	571218	keystroke_u	u	n/a
285.9915	0.0565	571983	keystroke_r	r	n/a
286.183	0.09	572366	keystroke_g	g	n/a
286.3515	0.0565	572703	keystroke_e	e	n/a
286.442	0.0785	572884	keystroke_n	n	n/a
286.5325	0.078	573065	keystroke_t	t	n/a
286.622	0.101	573244	keystroke_Key.space	Key.space	n/a
286.8695	0.056	573739	keystroke_q	q	n/a
286.959	0.1015	573918	keystroke_u	u	n/a
287.128	0.1125	574256	keystroke_a	a	n/a
287.387	0.0785	574774	keystroke_l	l	n/a
287.634	0.079	575268	keystroke_i	i	n/a
287.747	0.09	575494	keystroke_f	f	n/a
287.848	0.1015	575696	keystroke_i	i	n/a
288.0055	0.1125	576011	keystroke_c	c	n/a
288.1965	0.09	576393	keystroke_a	a	n/a
288.253	0.0675	576506	keystroke_t	t	n/a
288.343	0.146	576686	keystroke_i	i	n/a
288.377	0.0895	576754	keystroke_o	o	n/a
288.4555	0.169	576911	keystroke_n	n	n/a
289.2655	0.09	578531	keystroke_s	s	n/a
289.434	0.1015	578868	keystroke_Key.space	Key.space	n/a
289.5465	0.0905	579093	keystroke_p	p	n/a
289.6705	0.0785	579341	keystroke_a	a	n/a
289.7265	0.079	579453	keystroke_r	r	n/a
289.839	0.1465	579678	keystroke_a	a	n/a
289.9965	0.045	579993	keystroke_g	g	n/a
290.154	0.1465	580308	keystroke_r	r	n/a
290.2665	0.079	580533	keystroke_a	a	n/a
290.357	0.101	580714	keystroke_p	p	n/a
290.413	0.1125	580826	keystroke_h	h	n/a
290.5365	0.068	581073	keystroke_s	s	n/a
290.7395	0.09	581479	keystroke_Key.space	Key.space	n/a
290.863	0.0675	581726	keystroke_d	d	n/a
291.2455	0.09	582491	keystroke_e	e	n/a
291.403	0.045	582806	keystroke_s	s	n/a
291.527	0.067	583054	keystroke_i	i	n/a
291.988	0.056	583976	keystroke_Key.backspace	Key.backspace	n/a
292.0555	0.0675	584111	keystroke_t	t	n/a
292.1565	0.0905	584313	keystroke_i	i	n/a
292.1905	0.1015	584381	keystroke_n	n	n/a
292.4155	0.0905	584831	keystroke_y	y	n/a
292.618	0.0335	585236	keystroke_Key.enter	Key.enter	n/a
292.6555	3.8895	585311	prompt	n/a	then folks acts record\n
293.383	0.09	586766	keystroke_t	t	n/a
293.4845	0.067	586969	keystroke_h	h	n/a
293.563	0.045	587126	keystroke_e	e	n/a
293.6195	0.1685	587239	keystroke_n	n	n/a
293.6755	0.1245	587351	keystroke_Key.space	Key.space	n/a
293.81	0.034	587620	keystroke_f	f	n/a
293.912	0.0335	587824	keystroke_o	o	n/a
294.024	0.0905	588048	keystroke_l	l	n/a
294.1255	0.0675	588251	keystroke_k	k	n/a
294.2495	0.0785	588499	keystroke_s	s	n/a
294.362	0.112	588724	keystroke_Key.space	Key.space	n/a
294.609	0.0905	589218	keystroke_a	a	n/a
294.812	0.0785	589624	keystroke_c	c	n/a
294.9475	0.123	589895	keystroke_t	t	n/a
295.0705	0.0565	590141	keystroke_s	s	n/a
295.183	0.1125	590366	keystroke_Key.space	Key.space	n/a
295.397	0.1125	590794	keystroke_r	r	n/a
295.4645	0.0785	590929	keystroke_e	e	n/a
295.6895	0.101	591379	keystroke_c	c	n/a
296.2175	0.046	592435	keystroke_o	o	n/a
296.2305	0.1225	592461	keystroke_r	r	n/a
296.319	0.079	592638	keystroke_d	d	n/a
296.454	0.09	592908	keystroke_Key.enter	Key.enter	n/a
296.5495	4.597	593099	prompt	n/a	using employers puts calendars\n
297.253	0.0905	594506	keystroke_u	u	n/a
297.3545	0.0785	594709	keystroke_s	s	n/a
297.444	0.113	594888	keystroke_i	i	n/a
297.523	0.1015	595046	keystroke_n	n	n/a
297.613	0.079	595226	keystroke_g	g	n/a
297.703	0.09	595406	keystroke_Key.space	Key.space	n/a
297.838	0.0565	595676	keystroke_e	e	n/a
297.962	0.09	595924	keystroke_m	m	n/a
298.1305	0.0565	596261	keystroke_p	p	n/a
298.2995	0.1125	596599	keystroke_l	l	n/a
298.4905	0.0565	596981	keystroke_o	o	n/a
298.659	0.057	597318	keystroke_y	y	n/a
298.918	0.056	597836	keystroke_e	e	n/a
298.964	0.0665	597928	keystroke_r	r	n/a
299.0645	0.0785	598129	keystroke_s	s	n/a
299.1655	0.101	598331	keystroke_Key.space	Key.space	n/a
299.323	0.102	598646	keystroke_p	p	n/a
299.3575	0.1005	598715	keystroke_u	u	n/a
299.458	0.101	598916	keystroke_t	t	n/a
299.5705	0.09	599141	keystroke_s	s	n/a
299.672	0.112	599344	keystroke_Key.space	Key.space	n/a
299.864	0.1565	599728	keystroke_c	c	n/a
300.032	0.0785	600064	keystroke_a	a	n/a
300.201	0.0335	600402	keystroke_l	l	n/a
300.28	0.0555	600560	keystroke_e	e	n/a
300.3805	0.0895	600761	keystroke_n	n	n/a
300.4595	0.09	600919	keystroke_d	d	n/a
300.6505	0.1235	601301	keystroke_a	a	n/a
300.7405	0.1125	601481	keystroke_r	r	n/a
300.8645	0.0675	601729	keystroke_s	s	n/a
301.0665	0.079	602133	keystroke_Key.enter	Key.enter	n/a
301.1495	6.2295	602299	prompt	n/a	earrings acids minnesota wait\n
301.8655	0.1235	603731	keystroke_e	e	n/a
302.0005	0.1575	604001	keystroke_a	a	n/a
302.1465	0.045	604293	keystroke_r	r	n/a
302.3265	0.0115	604653	keystroke_r	r	n/a
303.103	0.169	606206	keystroke_i	i	n/a
303.1365	0.158	606273	keystroke_n	n	n/a
303.283	0.022	606566	keystroke_g	g	n/a
303.7105	0.0335	607421	keystroke_s	s	n/a
303.9585	0.011	607917	keystroke_Key.space	Key.space	n/a
304.003	0.1345	608006	keystroke_a	a	n/a
304.2275	0.0905	608455	keystroke_c	c	n/a
304.408	0.0895	608816	keystroke_i	i	n/a
304.532	0.0555	609064	keystroke_d	d	n/a
304.959	0.079	609918	keystroke_s	s	n/a
305.072	0.101	610144	keystroke_Key.space	Key.space	n/a
305.3305	0.079	610661	keystroke_m	m	n/a
305.5555	0.1015	611111	keystroke_i	i	n/a
305.589	0.1015	611178	keystroke_n	n	n/a
305.758	0.09	611516	keystroke_n	n	n/a
305.8815	0.101	611763	keystroke_e	e	n/a
306.073	0.112	612146	keystroke_s	s	n/a
306.1965	0.0785	612393	keystroke_o	o	n/a
306.3325	0.0895	612665	keystroke_t	t	n/a
306.5005	0.0795	613001	keystroke_a	a	n/a
306.7145	0.101	613429	keystroke_Key.space	Key.space	n/a
306.8495	0.1125	613699	keystroke_w	w	n/a
306.9395	0.101	613879	keystroke_a	a	n/a
307.108	0.09	614216	keystroke_i	i	n/a
307.2095	0.078	614419	keystroke_t	t	n/a
307.2995	0.0785	614599	keystroke_Key.enter	Key.enter	n/a
307.382	5.5665	614764	prompt	n/a	minimal porsche joel details\n
307.985	0.1015	615970	keystroke_m	m	n/a
308.2225	0.0675	616445	keystroke_i	i	n/a
308.2775	0.068	616555	keystroke_n	n	n/a
308.38	0.1345	616760	keystroke_i	i	n/a
308.492	0.1005	616984	keystroke_m	m	n/a
308.638	0.0785	617276	keystroke_a	a	n/a
308.8075	0.0775	617615	keystroke_l	l	n/a
308.874	0.101	617748	keystroke_Key.space	Key.space	n/a
309.1105	0.157	618221	keystroke_p	p	n/a
309.324	0.101	618648	keystroke_o	o	n/a
309.527	0.09	619054	keystroke_r	r	n/a
310.033	0.0565	620066	keystroke_s	s	n/a
310.258	0.0445	620516	keystroke_c	c	n/a
310.359	0.101	620718	keystroke_h	h	n/a
310.5395	0.0555	621079	keystroke_e	e	n/a
310.7755	0.1125	621551	keystroke_Key.space	Key.space	n/a
310.9665	0.0905	621933	keystroke_j	j	n/a
311.102	0.101	622204	keystroke_o	o	n/a
311.2925	0.034	622585	keystroke_e	e	n/a
311.383	0.112	622766	keystroke_l	l	n/a
311.507	0.1005	623014	keystroke_Key.space	Key.space	n/a
311.687	0.101	623374	keystroke_d	d	n/a
311.934	0.056	623868	keystroke_e	e	n/a
312.058	0.112	624116	keystroke_t	t	n/a
312.306	0.089	624612	keystroke_a	a	n/a
312.519	0.0785	625038	keystroke_i	i	n/a
312.5305	0.1915	625061	keystroke_l	l	n/a
312.7325	0.0115	625465	keystroke_s	s	n/a
312.8905	0.0565	625781	keystroke_Key.enter	Key.enter	n/a
312.952	5.4965	625904	prompt	n/a	symbol other educators crystal\n
313.7	0.0795	627400	keystroke_s	s	n/a
313.7565	0.0565	627513	keystroke_y	y	n/a
313.948	0.0675	627896	keystroke_m	m	n/a
314.33	0.079	628660	keystroke_b	b	n/a
314.454	0.045	628908	keystroke_o	o	n/a
314.578	0.09	629156	keystroke_l	l	n/a
314.8035	0.0895	629607	keystroke_Key.space	Key.space	n/a
315.0735	0.09	630147	keystroke_o	o	n/a
315.174	0.0675	630348	keystroke_t	t	n/a
315.2525	0.158	630505	keystroke_h	h	n/a
315.399	0.0675	630798	keystroke_e	e	n/a
315.4325	0.0675	630865	keystroke_r	r	n/a
315.5005	0.1235	631001	keystroke_Key.space	Key.space	n/a
315.658	0.1345	631316	keystroke_e	e	n/a
315.9275	0.034	631855	keystroke_d	d	n/a
316.0635	0.0895	632127	keystroke_u	u	n/a
316.153	0.09	632306	keystroke_c	c	n/a
316.389	0.113	632778	keystroke_a	a	n/a
316.49	0.1125	632980	keystroke_t	t	n/a
316.715	0.034	633430	keystroke_o	o	n/a
316.7715	0.1235	633543	keystroke_r	r	n/a
316.9065	0.18	633813	keystroke_s	s	n/a
317.0985	0.123	634197	keystroke_Key.space	Key.space	n/a
317.3115	0.036	634623	keystroke_c	c	n/a
317.469	0.0675	634938	keystroke_r	r	n/a
317.593	0.09	635186	keystroke_y	y	n/a
317.7165	0.1235	635433	keystroke_s	s	n/a
317.8515	0.1125	635703	keystroke_t	t	n/a
317.9985	0.1005	635997	keystroke_a	a	n/a
318.1335	0.1565	636267	keystroke_l	l	n/a
318.392	0.0555	636784	keystroke_Key.enter	Key.enter	n/a
318.4515	7.4785	636903	prompt	n/a	initiative pace zimbabwe darkness\n
319.1565	0.1015	638313	keystroke_i	i	n/a
319.236	0.1005	638472	keystroke_n	n	n/a
319.359	0.1125	638718	keystroke_i	i	n/a
319.5055	0.0785	639011	keystroke_t	t	n/a
319.6175	0.1015	639235	keystroke_i	i	n/a
319.764	0.1125	639528	keystroke_a	a	n/a
320.0005	0.147	640001	keystroke_l	l	n/a
320.124	0.1125	640248	keystroke_i	i	n/a
320.304	0.1125	640608	keystroke_z	z	n/a
320.6645	0.011	641329	keystroke_Key.backspace	Key.backspace	n/a
320.754	0.09	641508	keystroke_Key.backspace	Key.backspace	n/a
320.9345	0.033	641869	keystroke_Key.backspace	Key.backspace	n/a
321.6765	0.0675	643353	keystroke_t	t	n/a
321.9135	0.078	643827	keystroke_i	i	n/a
322.003	0.1235	644006	keystroke_v	v	n/a
322.0705	0.0895	644141	keystroke_e	e	n/a
322.1715	0.135	644343	keystroke_Key.space	Key.space	n/a
322.318	0.0795	644636	keystroke_p	p	n/a
322.3515	0.079	644703	keystroke_a	a	n/a
322.509	0.0565	645018	keystroke_c	c	n/a
322.7115	0.056	645423	keystroke_e	e	n/a
322.779	0.1125	645558	keystroke_Key.space	Key.space	n/a
323.1615	0.079	646323	keystroke_z	z	n/a
323.24	0.0905	646480	keystroke_i	i	n/a
323.274	0.1125	646548	keystroke_m	m	n/a
323.4765	0.0905	646953	keystroke_b	b	n/a
323.69	0.0235	647380	keystroke_a	a	n/a
323.7015	0.09	647403	keystroke_b	b	n/a
324.1065	0.124	648213	keystroke_w	w	n/a
324.219	0.0675	648438	keystroke_e	e	n/a
324.669	0.09	649338	keystroke_Key.space	Key.space	n/a
324.7925	0.1125	649585	keystroke_d	d	n/a
324.9725	0.0915	649945	keystroke_a	a	n/a
325.0515	0.079	650103	keystroke_r	r	n/a
325.1415	0.0675	650283	keystroke_k	k	n/a
325.3665	0.0335	650733	keystroke_n	n	n/a
325.4225	0.079	650845	keystroke_e	e	n/a
325.5465	0.09	651093	keystroke_s	s	n/a
325.7715	0.0675	651543	keystroke_s	s	n/a
325.8505	0.0785	651701	keystroke_Key.enter	Key.enter	n/a
325.9325	4.284	651865	prompt	n/a	nominated gary draws forget\n
326.6045	0.112	653209	keystroke_n	n	n/a
326.818	0.101	653636	keystroke_o	o	n/a
326.908	0.0675	653816	keystroke_m	m	n/a
327.0765	0.124	654153	keystroke_i	i	n/a
327.1895	0.0895	654379	keystroke_n	n	n/a
327.3125	0.1135	654625	keystroke_a	a	n/a
327.414	0.079	654828	keystroke_t	t	n/a
327.549	0.0675	655098	keystroke_e	e	n/a
327.729	0.09	655458	keystroke_d	d	n/a
327.8305	0.1465	655661	keystroke_Key.space	Key.space	n/a
328.0105	0.0785	656021	keystroke_g	g	n/a
328.168	0.1125	656336	keystroke_a	a	n/a
328.2585	0.078	656517	keystroke_r	r	n/a
328.382	0.0785	656764	keystroke_y	y	n/a
328.438	0.101	656876	keystroke_Key.space	Key.space	n/a
328.6065	0.079	657213	keystroke_d	d	n/a
328.7865	0.124	657573	keystroke_r	r	n/a
328.8765	0.101	657753	keystroke_a	a	n/a
328.9665	0.09	657933	keystroke_w	w	n/a
329.18	0.079	658360	keystroke_s	s	n/a
329.2935	0.123	658587	keystroke_Key.space	Key.space	n/a
329.4735	0.0895	658947	keystroke_f	f	n/a
329.6085	0.078	659217	keystroke_o	o	n/a
329.6415	0.079	659283	keystroke_r	r	n/a
329.8325	0.0675	659665	keystroke_g	g	n/a
329.968	0.1125	659936	keystroke_e	e	n/a
330.058	0.0675	660116	keystroke_t	t	n/a
330.148	0.0675	660296	keystroke_Key.enter	Key.enter	n/a
330.219	5.9145	660438	prompt	n/a	request recognition offer reviews\n
330.947	0.1455	661894	keystroke_r	r	n/a
331.0815	0.034	662163	keystroke_e	e	n/a
331.104	0.0675	662208	keystroke_q	q	n/a
331.2285	0.157	662457	keystroke_u	u	n/a
331.374	0.1015	662748	keystroke_e	e	n/a
331.464	0.124	662928	keystroke_s	s	n/a
331.554	0.09	663108	keystroke_t	t	n/a
331.678	0.1235	663356	keystroke_Key.space	Key.space	n/a
332.229	0.146	664458	keystroke_r	r	n/a
332.308	0.0785	664616	keystroke_e	e	n/a
332.5215	0.0565	665043	keystroke_c	c	n/a
332.6005	0.101	665201	keystroke_o	o	n/a
332.792	0.0895	665584	keystroke_g	g	n/a
332.949	0.1125	665898	keystroke_n	n	n/a
333.579	0.0785	667158	keystroke_i	i	n/a
333.6805	0.0675	667361	keystroke_t	t	n/a
333.7815	0.147	667563	keystroke_i	i	n/a
333.838	0.0785	667676	keystroke_o	o	n/a
333.894	0.1015	667788	keystroke_n	n	n/a
334.1865	0.0795	668373	keystroke_Key.space	Key.space	n/a
334.4455	0.0685	668891	keystroke_o	o	n/a
334.5015	0.1125	669003	keystroke_f	f	n/a
334.704	0.0345	669408	keystroke_f	f	n/a
334.8165	0.101	669633	keystroke_e	e	n/a
334.884	0.101	669768	keystroke_r	r	n/a
334.974	0.0905	669948	keystroke_Key.space	Key.space	n/a
335.109	0.124	670218	keystroke_r	r	n/a
335.2215	0.0785	670443	keystroke_e	e	n/a
335.4015	0.079	670803	keystroke_v	v	n/a
335.57	0.09	671140	keystroke_i	i	n/a
335.649	0.1125	671298	keystroke_e	e	n/a
335.728	0.0785	671456	keystroke_w	w	n/a
335.897	0.0895	671794	keystroke_s	s	n/a
336.0545	0.078	672109	keystroke_Key.enter	Key.enter	n/a
336.1365	5.487	672273	prompt	n/a	implications pizza palm indigenous\n
336.785	0.1125	673570	keystroke_i	i	n/a
336.83	0.18	673660	keystroke_m	m	n/a
336.9545	0.0895	673909	keystroke_p	p	n/a
337.19	0.057	674380	keystroke_l	l	n/a
337.213	0.1125	674426	keystroke_i	i	n/a
337.2915	0.135	674583	keystroke_c	c	n/a
337.4825	0.135	674965	keystroke_a	a	n/a
337.6065	0.0905	675213	keystroke_t	t	n/a
337.685	0.102	675370	keystroke_i	i	n/a
337.7075	0.0565	675415	keystroke_o	o	n/a
337.7415	0.101	675483	keystroke_n	n	n/a
337.8655	0.0895	675731	keystroke_s	s	n/a
338.0115	0.1125	676023	keystroke_Key.space	Key.space	n/a
338.1805	0.09	676361	keystroke_p	p	n/a
338.27	0.09	676540	keystroke_i	i	n/a
338.4725	0.034	676945	keystroke_z	z	n/a
338.619	0.056	677238	keystroke_z	z	n/a
338.8325	0.0675	677665	keystroke_a	a	n/a
338.9345	0.078	677869	keystroke_Key.space	Key.space	n/a
339.047	0.0895	678094	keystroke_p	p	n/a
339.17	0.0795	678340	keystroke_a	a	n/a
339.305	0.124	678610	keystroke_l	l	n/a
339.44	0.0675	678880	keystroke_m	m	n/a
339.677	0.1005	679354	keystroke_Key.space	Key.space	n/a
340.0025	0.113	680005	keystroke_i	i	n/a
340.059	0.1015	680118	keystroke_n	n	n/a
340.149	0.09	680298	keystroke_d	d	n/a
340.2615	0.101	680523	keystroke_i	i	n/a
340.397	0.078	680794	keystroke_g	g	n/a
340.7005	0.079	681401	keystroke_e	e	n/a
340.835	0.1015	681670	keystroke_n	n	n/a
341.2745	0.0895	682549	keystroke_o	o	n/a
341.3075	0.1245	682615	keystroke_u	u	n/a
341.4205	0.0895	682841	keystroke_s	s	n/a
341.544	0.0785	683088	keystroke_Key.enter	Key.enter	n/a
341.6265	6.3755	683253	prompt	n/a	terrace baseball procedure immigration\n
342.3655	0.112	684731	keystroke_t	t	n/a
342.5675	0.1015	685135	keystroke_e	e	n/a
342.6575	0.045	685315	keystroke_r	r	n/a
342.815	0.1015	685630	keystroke_r	r	n/a
342.9275	0.09	685855	keystroke_a	a	n/a
343.0515	0.056	686103	keystroke_c	c	n/a
343.265	0.034	686530	keystroke_e	e	n/a
343.3775	0.1125	686755	keystroke_Key.space	Key.space	n/a
343.445	0.102	686890	keystroke_b	b	n/a
343.5575	0.09	687115	keystroke_a	a	n/a
343.6365	0.1125	687273	keystroke_s	s	n/a
343.715	0.09	687430	keystroke_e	e	n/a
343.94	0.1125	687880	keystroke_b	b	n/a
344.0645	0.067	688129	keystroke_a	a	n/a
344.188	0.056	688376	keystroke_l	l	n/a
344.323	0.124	688646	keystroke_l	l	n/a
344.4125	0.18	688825	keystroke_Key.space	Key.space	n/a
344.6825	0.0345	689365	keystroke_p	p	n/a
344.728	0.056	689456	keystroke_r	r	n/a
344.84	0.09	689680	keystroke_o	o	n/a
344.9525	0.0905	689905	keystroke_c	c	n/a
345.189	0.101	690378	keystroke_e	e	n/a
345.4025	0.09	690805	keystroke_d	d	n/a
345.5715	0.101	691143	keystroke_u	u	n/a
345.6615	0.1235	691323	keystroke_r	r	n/a
345.7515	0.0795	691503	keystroke_e	e	n/a
345.819	0.146	691638	keystroke_Key.space	Key.space	n/a
345.9765	0.146	691953	keystroke_i	i	n/a
346.0665	0.0675	692133	keystroke_m	m	n/a
346.224	0.0675	692448	keystroke_m	m	n/a
346.3925	0.079	692785	keystroke_i	i	n/a
346.55	0.0565	693100	keystroke_g	g	n/a
346.764	0.09	693528	keystroke_r	r	n/a
346.978	0.1455	693956	keystroke_a	a	n/a
347.068	0.101	694136	keystroke_t	t	n/a
347.181	0.1345	694362	keystroke_i	i	n/a
347.2365	0.0675	694473	keystroke_o	o	n/a
347.27	0.101	694540	keystroke_n	n	n/a
347.4055	0.0675	694811	keystroke_s	s	n/a
347.8105	0.078	695621	keystroke_Key.backspace	Key.backspace	n/a
347.923	0.078	695846	keystroke_Key.enter	Key.enter	n/a
348.005	8.086	696010	prompt	n/a	rivers fabric rejected bikini\n
348.811	0.0795	697622	keystroke_r	r	n/a
348.9015	0.101	697803	keystroke_i	i	n/a
349.014	0.0785	698028	keystroke_v	v	n/a
349.183	0.101	698366	keystroke_e	e	n/a
349.239	0.1345	698478	keystroke_r	r	n/a
349.34	0.1015	698680	keystroke_s	s	n/a
349.4865	0.1575	698973	keystroke_Key.space	Key.space	n/a
349.689	0.1125	699378	keystroke_f	f	n/a
349.8015	0.0675	699603	keystroke_a	a	n/a
349.993	0.0785	699986	keystroke_b	b	n/a
350.2975	0.067	700595	keystroke_r	r	n/a
350.353	0.045	700706	keystroke_i	i	n/a
350.9265	0.1125	701853	keystroke_Key.space	Key.space	n/a
351.579	0.0685	703158	keystroke_Key.backspace	Key.backspace	n/a
351.635	0.113	703270	keystroke_c	c	n/a
351.7365	0.1015	703473	keystroke_Key.space	Key.space	n/a
352.0975	0.089	704195	keystroke_r	r	n/a
352.1305	0.09	704261	keystroke_e	e	n/a
352.2315	0.1125	704463	keystroke_j	j	n/a
352.355	0.1015	704710	keystroke_r	r	n/a
352.49	0.0575	704980	keystroke_e	e	n/a
353.0415	0.0675	706083	keystroke_Key.backspace	Key.backspace	n/a
353.2215	0.0335	706443	keystroke_Key.backspace	Key.backspace	n/a
353.2665	0.056	706533	keystroke_e	e	n/a
353.548	0.0895	707096	keystroke_c	c	n/a
353.7165	0.0785	707433	keystroke_t	t	n/a
354.2565	0.0675	708513	keystroke_e	e	n/a
354.3805	0.112	708761	keystroke_d	d	n/a
354.504	0.101	709008	keystroke_Key.space	Key.space	n/a
354.7515	0.046	709503	keystroke_b	b	n/a
354.7625	0.124	709525	keystroke_i	i	n/a
355.325	0.0565	710650	keystroke_k	k	n/a
355.46	0.1465	710920	keystroke_i	i	n/a
355.595	0.1125	711190	keystroke_n	n	n/a
355.685	0.1235	711370	keystroke_i	i	n/a
356.034	0.056	712068	keystroke_Key.enter	Key.enter	n/a
356.0945	4.6205	712189	prompt	n/a	rides missions dame these're\n
356.7875	0.0675	713575	keystroke_r	r	n/a
356.9115	0.101	713823	keystroke_i	i	n/a
357.024	0.091	714048	keystroke_d	d	n/a
357.204	0.101	714408	keystroke_e	e	n/a
357.294	0.0675	714588	keystroke_s	s	n/a
357.395	0.09	714790	keystroke_Key.space	Key.space	n/a
357.5415	0.146	715083	keystroke_m	m	n/a
357.575	0.1245	715150	keystroke_i	i	n/a
357.755	0.045	715510	keystroke_s	s	n/a
357.902	0.0785	715804	keystroke_s	s	n/a
357.9915	0.146	715983	keystroke_i	i	n/a
358.0475	0.102	716095	keystroke_o	o	n/a
358.059	0.1125	716118	keystroke_n	n	n/a
358.16	0.0675	716320	keystroke_s	s	n/a
358.3065	0.0785	716613	keystroke_Key.space	Key.space	n/a
358.4525	0.1015	716905	keystroke_d	d	n/a
358.5435	0.089	717087	keystroke_a	a	n/a
358.6435	0.079	717287	keystroke_m	m	n/a
358.7115	0.0785	717423	keystroke_e	e	n/a
358.824	0.1685	717648	keystroke_Key.space	Key.space	n/a
359.005	0.022	718010	keystroke_t	t	n/a
359.0155	0.1015	718031	keystroke_h	h	n/a
359.105	0.1125	718210	keystroke_e	e	n/a
359.3075	0.0785	718615	keystroke_s	s	n/a
359.375	0.079	718750	keystroke_e	e	n/a
359.859	0.0565	719718	keystroke_'	'	n/a
359.949	0.101	719898	keystroke_r	r	n/a
360.0165	0.045	720033	keystroke_e	e	n/a
360.1295	0.0555	720259	keystroke_Key.space	Key.space	n/a
360.6015	0.0675	721203	keystroke_Key.backspace	Key.backspace	n/a
360.6575	0.0565	721315	keystroke_Key.enter	Key.enter	n/a
360.7185	4.789	721437	prompt	n/a	kill snapshot primarily peer\n
361.4675	0.0675	722935	keystroke_k	k	n/a
361.625	0.0905	723250	keystroke_i	i	n/a
361.805	0.034	723610	keystroke_l	l	n/a
361.9295	0.101	723859	keystroke_l	l	n/a
362.042	0.1005	724084	keystroke_Key.space	Key.space	n/a
362.233	0.09	724466	keystroke_s	s	n/a
362.323	0.1125	724646	keystroke_n	n	n/a
362.4245	0.0895	724849	keystroke_a	a	n/a
362.5475	0.0795	725095	keystroke_p	p	n/a
362.75	0.0795	725500	keystroke_s	s	n/a
362.795	0.1125	725590	keystroke_h	h	n/a
362.84	0.0905	725680	keystroke_o	o	n/a
362.9645	0.09	725929	keystroke_t	t	n/a
363.11	0.0565	726220	keystroke_Key.space	Key.space	n/a
363.3015	0.079	726603	keystroke_p	p	n/a
363.3915	0.0905	726783	keystroke_r	r	n/a
363.4925	0.1015	726985	keystroke_i	i	n/a
363.5495	0.112	727099	keystroke_m	m	n/a
363.684	0.1125	727368	keystroke_a	a	n/a
363.7625	0.1015	727525	keystroke_r	r	n/a
364.157	0.09	728314	keystroke_i	i	n/a
364.2695	0.1345	728539	keystroke_l	l	n/a
364.393	0.0445	728786	keystroke_y	y	n/a
364.8425	0.068	729685	keystroke_Key.space	Key.space	n/a
364.9325	0.09	729865	keystroke_p	p	n/a
365.0675	0.0675	730135	keystroke_e	e	n/a
365.2255	0.124	730451	keystroke_e	e	n/a
365.3375	0.09	730675	keystroke_r	r	n/a
365.439	0.068	730878	keystroke_Key.enter	Key.enter	n/a
365.5105	5.4305	731021	prompt	n/a	preventing crystal provision rail\n
366.17	0.1015	732340	keystroke_p	p	n/a
366.2375	0.1125	732475	keystroke_r	r	n/a
366.2825	0.102	732565	keystroke_e	e	n/a
366.5075	0.09	733015	keystroke_v	v	n/a
366.609	0.1235	733218	keystroke_e	e	n/a
366.767	0.123	733534	keystroke_n	n	n/a
366.8675	0.0675	733735	keystroke_t	t	n/a
367.0365	0.101	734073	keystroke_i	i	n/a
367.1045	0.078	734209	keystroke_n	n	n/a
367.172	0.0675	734344	keystroke_g	g	n/a
367.2725	0.135	734545	keystroke_Key.space	Key.space	n/a
367.79	0.091	735580	keystroke_c	c	n/a
367.97	0.0565	735940	keystroke_r	r	n/a
368.0825	0.1125	736165	keystroke_y	y	n/a
368.2065	0.0785	736413	keystroke_s	s	n/a
368.296	0.0685	736592	keystroke_t	t	n/a
368.6225	0.09	737245	keystroke_a	a	n/a
368.7575	0.0905	737515	keystroke_l	l	n/a
368.8925	0.1015	737785	keystroke_Key.space	Key.space	n/a
369.1625	0.102	738325	keystroke_p	p	n/a
369.2525	0.0455	738505	keystroke_r	r	n/a
369.32	0.0795	738640	keystroke_o	o	n/a
369.4215	0.1125	738843	keystroke_v	v	n/a
369.545	0.0675	739090	keystroke_i	i	n/a
369.6475	0.089	739295	keystroke_s	s	n/a
369.759	0.146	739518	keystroke_i	i	n/a
369.8155	0.0785	739631	keystroke_o	o	n/a
369.86	0.1125	739720	keystroke_n	n	n/a
370.175	0.0795	740350	keystroke_Key.space	Key.space	n/a
370.2875	0.1125	740575	keystroke_r	r	n/a
370.603	0.079	741206	keystroke_a	a	n/a
370.659	0.101	741318	keystroke_i	i	n/a
370.715	0.0785	741430	keystroke_l	l	n/a
370.8725	0.0675	741745	keystroke_Key.enter	Key.enter	n/a
370.944	6.7365	741888	prompt	n/a	born anyway vice underwear\n
371.5705	0.0895	743141	keystroke_b	b	n/a
371.8175	0.0675	743635	keystroke_o	o	n/a
371.874	0.0905	743748	keystroke_r	r	n/a
371.9525	0.18	743905	keystroke_n	n	n/a
372.054	0.146	744108	keystroke_Key.space	Key.space	n/a
372.211	0.068	744422	keystroke_a	a	n/a
372.2905	0.09	744581	keystroke_n	n	n/a
372.5265	0.0785	745053	keystroke_y	y	n/a
373.145	0.113	746290	keystroke_w	w	n/a
373.1795	0.1015	746359	keystroke_a	a	n/a
373.269	0.101	746538	keystroke_y	y	n/a
373.4375	0.045	746875	keystroke_Key.space	Key.space	n/a
373.719	0.0675	747438	keystroke_v	v	n/a
373.854	0.09	747708	keystroke_i	i	n/a
373.978	0.056	747956	keystroke_c	c	n/a
374.1695	0.0555	748339	keystroke_e	e	n/a
374.259	0.0785	748518	keystroke_Key.space	Key.space	n/a
374.372	0.078	748744	keystroke_u	u	n/a
374.5625	0.079	749125	keystroke_n	n	n/a
374.664	0.0675	749328	keystroke_d	d	n/a
374.9	0.1015	749800	keystroke_r	r	n/a
375.339	0.068	750678	keystroke_Key.backspace	Key.backspace	n/a
375.407	0.0895	750814	keystroke_e	e	n/a
375.44	0.09	750880	keystroke_r	r	n/a
375.733	0.135	751466	keystroke_w	w	n/a
375.8225	0.09	751645	keystroke_a	a	n/a
375.9015	0.034	751803	keystroke_e	e	n/a
376.385	0.034	752770	keystroke_Key.backspace	Key.backspace	n/a
376.4865	0.101	752973	keystroke_Key.backspace	Key.backspace	n/a
376.622	0.0785	753244	keystroke_e	e	n/a
377.4875	0.09	754975	keystroke_a	a	n/a
377.522	0.1005	755044	keystroke_r	r	n/a
377.6115	0.068	755223	keystroke_Key.enter	Key.enter	n/a
377.6855	6.4855	755371	prompt	n/a	difficulty now titanium instead\n
378.3875	0.1015	756775	keystroke_d	d	n/a
378.5225	0.079	757045	keystroke_i	i	n/a
378.59	0.057	757180	keystroke_f	f	n/a
378.725	0.1015	757450	keystroke_f	f	n/a
378.8715	0.09	757743	keystroke_i	i	n/a
378.9725	0.09	757945	keystroke_c	c	n/a
379.074	0.101	758148	keystroke_u	u	n/a
379.1415	0.101	758283	keystroke_l	l	n/a
379.31	0.09	758620	keystroke_r	r	n/a
379.7045	0.0335	759409	keystroke_Key.backspace	Key.backspace	n/a
379.7375	0.0565	759475	keystroke_t	t	n/a
379.8275	0.1125	759655	keystroke_y	y	n/a
380.12	0.09	760240	keystroke_Key.space	Key.space	n/a
380.5025	0.1125	761005	keystroke_n	n	n/a
380.5365	0.068	761073	keystroke_o	o	n/a
380.6265	0.0675	761253	keystroke_w	w	n/a
380.705	0.09	761410	keystroke_Key.space	Key.space	n/a
380.8515	0.0675	761703	keystroke_t	t	n/a
380.93	0.1015	761860	keystroke_i	i	n/a
381.0425	0.09	762085	keystroke_t	t	n/a
381.1665	0.1575	762333	keystroke_a	a	n/a
381.3125	0.0225	762625	keystroke_t	t	n/a
381.5495	0.0895	763099	keystroke_n	n	n/a
382.179	0.0675	764358	keystroke_Key.backspace	Key.backspace	n/a
382.28	0.079	764560	keystroke_Key.backspace	Key.backspace	n/a
382.449	0.09	764898	keystroke_n	n	n/a
382.7085	0.078	765417	keystroke_i	i	n/a
382.7645	0.1345	765529	keystroke_u	u	n/a
383.0225	0.068	766045	keystroke_m	m	n/a
383.4615	0.1575	766923	keystroke_Key.space	Key.space	n/a
383.6075	0.0575	767215	keystroke_i	i	n/a
383.63	0.09	767260	keystroke_n	n	n/a
383.6865	0.1125	767373	keystroke_s	s	n/a
383.7425	0.1465	767485	keystroke_t	t	n/a
383.833	0.1235	767666	keystroke_e	e	n/a
383.9	0.1465	767800	keystroke_a	a	n/a
384.0465	0.0335	768093	keystroke_d	d	n/a
384.1365	0.0335	768273	keystroke_Key.enter	Key.enter	n/a
384.1735	6.1625	768347	prompt	n/a	diana fellow telephony animated\n
384.8115	0.135	769623	keystroke_d	d	n/a
384.935	0.045	769870	keystroke_i	i	n/a
384.9915	0.0785	769983	keystroke_a	a	n/a
385.1265	0.09	770253	keystroke_n	n	n/a
385.2275	0.079	770455	keystroke_a	a	n/a
385.43	0.1355	770860	keystroke_Key.space	Key.space	n/a
385.8245	0.09	771649	keystroke_f	f	n/a
386.049	0.101	772098	keystroke_e	e	n/a
386.2065	0.056	772413	keystroke_l	l	n/a
386.3525	0.09	772705	keystroke_l	l	n/a
386.5325	0.09	773065	keystroke_o	o	n/a
386.634	0.0785	773268	keystroke_w	w	n/a
386.645	0.1575	773290	keystroke_Key.space	Key.space	n/a
387.3875	0.135	774775	keystroke_t	t	n/a
387.7815	0.0785	775563	keystroke_e	e	n/a
387.9275	0.102	775855	keystroke_l	l	n/a
388.04	0.09	776080	keystroke_e	e	n/a
388.2875	0.0785	776575	keystroke_p	p	n/a
388.49	0.0455	776980	keystroke_h	h	n/a
388.625	0.0905	777250	keystroke_o	o	n/a
388.704	0.0335	777408	keystroke_n	n	n/a
388.873	0.067	777746	keystroke_y	y	n/a
389.154	0.067	778308	keystroke_Key.space	Key.space	n/a
389.3565	0.0785	778713	keystroke_a	a	n/a
389.447	0.078	778894	keystroke_n	n	n/a
389.638	0.0565	779276	keystroke_i	i	n/a
389.6825	0.124	779365	keystroke_m	m	n/a
389.8405	0.101	779681	keystroke_a	a	n/a
389.919	0.101	779838	keystroke_t	t	n/a
389.9975	0.113	779995	keystroke_e	e	n/a
390.1665	0.079	780333	keystroke_d	d	n/a
390.29	0.045	780580	keystroke_Key.enter	Key.enter	n/a
390.339	6.2185	780678	prompt	n/a	pharmaceutical started forecast prediction\n
391.055	0.0795	782110	keystroke_p	p	n/a
391.1	0.1125	782200	keystroke_h	h	n/a
391.3025	0.102	782605	keystroke_a	a	n/a
391.3585	0.068	782717	keystroke_r	r	n/a
391.4605	0.101	782921	keystroke_m	m	n/a
391.5395	0.1005	783079	keystroke_a	a	n/a
391.989	0.0565	783978	keystroke_c	c	n/a
392.225	0.0115	784450	keystroke_e	e	n/a
392.304	0.0785	784608	keystroke_u	u	n/a
392.4165	0.045	784833	keystroke_t	t	n/a
392.5065	0.101	785013	keystroke_i	i	n/a
392.619	0.1465	785238	keystroke_c	c	n/a
392.754	0.0675	785508	keystroke_a	a	n/a
392.855	0.09	785710	keystroke_l	l	n/a
392.9115	0.113	785823	keystroke_Key.space	Key.space	n/a
393.1365	0.09	786273	keystroke_s	s	n/a
393.1925	0.09	786385	keystroke_t	t	n/a
393.3505	0.1005	786701	keystroke_a	a	n/a
393.429	0.09	786858	keystroke_r	r	n/a
393.6315	0.1015	787263	keystroke_t	t	n/a
393.7665	0.056	787533	keystroke_e	e	n/a
393.9465	0.0685	787893	keystroke_d	d	n/a
394.048	0.101	788096	keystroke_Key.space	Key.space	n/a
394.2165	0.09	788433	keystroke_f	f	n/a
394.34	0.068	788680	keystroke_o	o	n/a
394.43	0.1125	788860	keystroke_r	r	n/a
394.4865	0.09	788973	keystroke_e	e	n/a
394.734	0.079	789468	keystroke_c	c	n/a
394.915	0.1005	789830	keystroke_a	a	n/a
394.97	0.147	789940	keystroke_s	s	n/a
395.0825	0.0905	790165	keystroke_t	t	n/a
395.2515	0.113	790503	keystroke_Key.space	Key.space	n/a
395.432	0.089	790864	keystroke_p	p	n/a
395.499	0.1125	790998	keystroke_r	r	n/a
395.5665	0.09	791133	keystroke_e	e	n/a
395.724	0.0905	791448	keystroke_d	d	n/a
395.8255	0.101	791651	keystroke_i	i	n/a
395.994	0.034	791988	keystroke_c	c	n/a
396.118	0.0675	792236	keystroke_t	t	n/a
396.163	0.1235	792326	keystroke_i	i	n/a
396.196	0.0675	792392	keystroke_o	o	n/a
396.253	0.112	792506	keystroke_n	n	n/a
396.4775	0.079	792955	keystroke_Key.enter	Key.enter	n/a
396.5605	4.666	793121	prompt	n/a	madonna spending zoning month\n
397.2315	0.101	794463	keystroke_m	m	n/a
397.2985	0.0905	794597	keystroke_a	a	n/a
397.4	0.0905	794800	keystroke_d	d	n/a
397.5355	0.09	795071	keystroke_o	o	n/a
397.6365	0.0785	795273	keystroke_n	n	n/a
397.8055	0.0785	795611	keystroke_n	n	n/a
397.929	0.09	795858	keystroke_a	a	n/a
398.0305	0.1235	796061	keystroke_Key.space	Key.space	n/a
398.2665	0.0785	796533	keystroke_s	s	n/a
398.3565	0.0785	796713	keystroke_p	p	n/a
398.48	0.09	796960	keystroke_e	e	n/a
398.626	0.124	797252	keystroke_n	n	n/a
398.761	0.045	797522	keystroke_d	d	n/a
398.8625	0.101	797725	keystroke_i	i	n/a
398.9075	0.1125	797815	keystroke_n	n	n/a
399.031	0.057	798062	keystroke_g	g	n/a
399.088	0.124	798176	keystroke_Key.space	Key.space	n/a
399.223	0.101	798446	keystroke_z	z	n/a
399.3355	0.0675	798671	keystroke_o	o	n/a
399.369	0.101	798738	keystroke_n	n	n/a
399.605	0.09	799210	keystroke_i	i	n/a
399.639	0.112	799278	keystroke_n	n	n/a
399.74	0.1125	799480	keystroke_g	g	n/a
399.841	0.079	799682	keystroke_Key.space	Key.space	n/a
400.28	0.09	800560	keystroke_m	m	n/a
400.505	0.023	801010	keystroke_o	o	n/a
400.5165	0.1125	801033	keystroke_n	n	n/a
400.6735	0.0915	801347	keystroke_t	t	n/a
400.809	0.112	801618	keystroke_h	h	n/a
401.158	0.0675	802316	keystroke_Key.enter	Key.enter	n/a
401.229	5.9595	802458	prompt	n/a	ladder intellectual designers titled\n
401.8665	0.09	803733	keystroke_l	l	n/a
401.9905	0.0905	803981	keystroke_a	a	n/a
402.0685	0.0675	804137	keystroke_d	d	n/a
402.226	0.09	804452	keystroke_d	d	n/a
402.406	0.1245	804812	keystroke_e	e	n/a
402.496	0.09	804992	keystroke_r	r	n/a
402.5755	0.078	805151	keystroke_Key.space	Key.space	n/a
402.7435	0.1015	805487	keystroke_i	i	n/a
402.834	0.0895	805668	keystroke_n	n	n/a
402.9355	0.0675	805871	keystroke_t	t	n/a
403.0365	0.079	806073	keystroke_e	e	n/a
403.1935	0.0565	806387	keystroke_l	l	n/a
403.306	0.1015	806612	keystroke_l	l	n/a
403.4075	0.0785	806815	keystroke_e	e	n/a
403.599	0.112	807198	keystroke_c	c	n/a
403.813	0.0675	807626	keystroke_t	t	n/a
404.004	0.0785	808008	keystroke_u	u	n/a
404.128	0.0785	808256	keystroke_a	a	n/a
404.251	0.102	808502	keystroke_l	l	n/a
404.353	0.1125	808706	keystroke_Key.space	Key.space	n/a
404.5215	0.0335	809043	keystroke_d	d	n/a
404.6565	0.101	809313	keystroke_e	e	n/a
404.78	0.09	809560	keystroke_s	s	n/a
404.926	0.1125	809852	keystroke_i	i	n/a
405.106	0.09	810212	keystroke_g	g	n/a
405.219	0.101	810438	keystroke_n	n	n/a
405.3875	0.09	810775	keystroke_e	e	n/a
405.6015	0.09	811203	keystroke_r	r	n/a
405.8155	0.0555	811631	keystroke_s	s	n/a
405.9165	0.101	811833	keystroke_Key.space	Key.space	n/a
406.1075	0.0225	812215	keystroke_t	t	n/a
406.164	0.09	812328	keystroke_i	i	n/a
406.2425	0.101	812485	keystroke_t	t	n/a
406.445	0.056	812890	keystroke_l	l	n/a
406.535	0.09	813070	keystroke_e	e	n/a
406.7375	0.09	813475	keystroke_d	d	n/a
407.1535	0.034	814307	keystroke_Key.enter	Key.enter	n/a
407.192	6.1615	814384	prompt	n/a	province filter entertainment middle\n
408.0985	0.0675	816197	keystroke_p	p	n/a
408.178	0.0335	816356	keystroke_r	r	n/a
408.279	0.1015	816558	keystroke_o	o	n/a
408.3685	0.124	816737	keystroke_v	v	n/a
408.549	0.135	817098	keystroke_i	i	n/a
408.6725	0.1015	817345	keystroke_n	n	n/a
408.8075	0.045	817615	keystroke_e	e	n/a
409.2235	0.092	818447	keystroke_Key.backspace	Key.backspace	n/a
409.28	0.056	818560	keystroke_c	c	n/a
409.4265	0.0675	818853	keystroke_e	e	n/a
409.55	0.1125	819100	keystroke_Key.space	Key.space	n/a
409.786	0.135	819572	keystroke_f	f	n/a
409.9215	0.0785	819843	keystroke_i	i	n/a
409.9325	0.0785	819865	keystroke_l	l	n/a
410.0225	0.056	820045	keystroke_t	t	n/a
410.18	0.1125	820360	keystroke_e	e	n/a
410.2585	0.068	820517	keystroke_r	r	n/a
410.3715	0.0895	820743	keystroke_Key.space	Key.space	n/a
410.585	0.0675	821170	keystroke_e	e	n/a
410.687	0.1115	821374	keystroke_n	n	n/a
410.799	0.0445	821598	keystroke_t	t	n/a
410.9225	0.09	821845	keystroke_e	e	n/a
411.001	0.1015	822002	keystroke_r	r	n/a
411.5305	0.0895	823061	keystroke_t	t	n/a
411.755	0.0675	823510	keystroke_a	a	n/a
411.8335	0.0905	823667	keystroke_i	i	n/a
411.8675	0.079	823735	keystroke_n	n	n/a
412.0815	0.067	824163	keystroke_m	m	n/a
412.16	0.101	824320	keystroke_e	e	n/a
412.2725	0.045	824545	keystroke_n	n	n/a
412.34	0.056	824680	keystroke_t	t	n/a
412.4525	0.079	824905	keystroke_Key.space	Key.space	n/a
412.576	0.1245	825152	keystroke_m	m	n/a
412.666	0.124	825332	keystroke_i	i	n/a
412.801	0.0565	825602	keystroke_d	d	n/a
412.925	0.1125	825850	keystroke_d	d	n/a
413.071	0.0905	826142	keystroke_l	l	n/a
413.15	0.0675	826300	keystroke_e	e	n/a
413.3075	0.045	826615	keystroke_Key.enter	Key.enter	n/a
413.356	4.4525	826712	prompt	n/a	updated victor using dans\n
414.0725	0.101	828145	keystroke_u	u	n/a
414.1625	0.045	828325	keystroke_p	p	n/a
414.2075	0.1125	828415	keystroke_d	d	n/a
414.3535	0.158	828707	keystroke_a	a	n/a
414.4325	0.09	828865	keystroke_t	t	n/a
414.5005	0.0785	829001	keystroke_e	e	n/a
414.6125	0.1125	829225	keystroke_d	d	n/a
414.815	0.09	829630	keystroke_Key.space	Key.space	n/a
415.355	0.09	830710	keystroke_v	v	n/a
415.5125	0.09	831025	keystroke_i	i	n/a
415.6135	0.079	831227	keystroke_c	c	n/a
415.805	0.034	831610	keystroke_t	t	n/a
415.85	0.0675	831700	keystroke_o	o	n/a
415.94	0.125	831880	keystroke_r	r	n/a
416.075	0.1465	832150	keystroke_Key.space	Key.space	n/a
416.21	0.057	832420	keystroke_u	u	n/a
416.2555	0.112	832511	keystroke_s	s	n/a
416.3785	0.1015	832757	keystroke_i	i	n/a
416.435	0.09	832870	keystroke_n	n	n/a
416.548	0.067	833096	keystroke_g	g	n/a
416.7275	0.09	833455	keystroke_Key.space	Key.space	n/a
416.998	0.0895	833996	keystroke_d	d	n/a
417.4815	0.0785	834963	keystroke_a	a	n/a
417.5485	0.1015	835097	keystroke_n	n	n/a
417.661	0.0675	835322	keystroke_s	s	n/a
417.74	0.0675	835480	keystroke_Key.enter	Key.enter	n/a
417.811	4.374	835622	prompt	n/a	setup find kiss river\n
418.865	0.1685	837730	keystroke_s	s	n/a
418.9325	0.1125	837865	keystroke_e	e	n/a
419	0.101	838000	keystroke_t	t	n/a
419.1125	0.0675	838225	keystroke_u	u	n/a
419.1235	0.0905	838247	keystroke_p	p	n/a
419.282	0.067	838564	keystroke_Key.space	Key.space	n/a
419.6525	0.09	839305	keystroke_f	f	n/a
419.7535	0.079	839507	keystroke_i	i	n/a
419.7655	0.1005	839531	keystroke_n	n	n/a
419.968	0.078	839936	keystroke_Key.space	Key.space	n/a
420.3385	0.057	840677	keystroke_Key.backspace	Key.backspace	n/a
420.373	0.067	840746	keystroke_d	d	n/a
420.4855	0.078	840971	keystroke_Key.space	Key.space	n/a
420.6655	0.0555	841331	keystroke_k	k	n/a
420.811	0.0905	841622	keystroke_i	i	n/a
421.126	0.09	842252	keystroke_s	s	n/a
421.284	0.101	842568	keystroke_s	s	n/a
421.3735	0.1015	842747	keystroke_Key.space	Key.space	n/a
421.5875	0.09	843175	keystroke_r	r	n/a
421.689	0.101	843378	keystroke_i	i	n/a
421.7785	0.113	843557	keystroke_v	v	n/a
422.0155	0.0895	844031	keystroke_e	e	n/a
422.049	0.1015	844098	keystroke_r	r	n/a
422.117	0.067	844234	keystroke_Key.enter	Key.enter	n/a
422.188	5.4195	844376	prompt	n/a	student jazz cadillac intend\n
422.8585	0.09	845717	keystroke_s	s	n/a
422.9155	0.0895	845831	keystroke_t	t	n/a
423.0275	0.135	846055	keystroke_u	u	n/a
423.095	0.0785	846190	keystroke_d	d	n/a
423.275	0.0675	846550	keystroke_n	n	n/a
423.286	0.169	846572	keystroke_e	e	n/a
423.489	0.101	846978	keystroke_t	t	n/a
423.7025	0.09	847405	keystroke_Key.space	Key.space	n/a
424.2425	0.1015	848485	keystroke_j	j	n/a
424.3325	0.09	848665	keystroke_a	a	n/a
424.8275	0.0785	849655	keystroke_z	z	n/a
424.985	0.09	849970	keystroke_z	z	n/a
425.1425	0.101	850285	keystroke_Key.space	Key.space	n/a
425.4015	0.034	850803	keystroke_c	c	n/a
425.4465	0.203	850893	keystroke_a	a	n/a
425.6375	0.045	851275	keystroke_d	d	n/a
425.75	0.0675	851500	keystroke_i	i	n/a
