onset	duration	sample	value	key	prompt_text
5.821	6.822	11642	prompt	n/a	the quick brown fox jumps over a lazy dog\n
7.3625	0.001	14725	keystroke_t	t	n/a
7.3905	0.075	14781	keystroke_h	h	n/a
7.4805	0.045	14961	keystroke_e	e	n/a
8.065	0.075	16130	keystroke_Key.space	Key.space	n/a
8.171	0.1045	16342	keystroke_q	q	n/a
8.2905	0.1345	16581	keystroke_u	u	n/a
8.3505	0.135	16701	keystroke_i	i	n/a
8.4705	0.12	16941	keystroke_c	c	n/a
8.6205	0.105	17241	keystroke_k	k	n/a
8.7105	0.075	17421	keystroke_Key.space	Key.space	n/a
8.8455	0.075	17691	keystroke_b	b	n/a
8.9355	0.09	17871	keystroke_r	r	n/a
9.0105	0.09	18021	keystroke_o	o	n/a
9.1005	0.105	18201	keystroke_w	w	n/a
9.1755	0.15	18351	keystroke_n	n	n/a
9.2655	0.105	18531	keystroke_Key.space	Key.space	n/a
9.4605	0.075	18921	keystroke_f	f	n/a
9.5205	0.105	19041	keystroke_o	o	n/a
9.685	0.12	19370	keystroke_x	x	n/a
9.806	0.074	19612	keystroke_Key.space	Key.space	n/a
9.955	0.075	19910	keystroke_j	j	n/a
10.105	0.09	20210	keystroke_u	u	n/a
10.285	0.135	20570	keystroke_m	m	n/a
10.406	0.1195	20812	keystroke_p	p	n/a
10.586	0.09	21172	keystroke_s	s	n/a
10.751	0.105	21502	keystroke_Key.space	Key.space	n/a
10.841	0.15	21682	keystroke_o	o	n/a
10.976	0.075	21952	keystroke_v	v	n/a
11.111	0.105	22222	keystroke_e	e	n/a
11.171	0.0895	22342	keystroke_r	r	n/a
11.2755	0.06	22551	keystroke_Key.space	Key.space	n/a
11.3505	0.105	22701	keystroke_a	a	n/a
11.4405	0.075	22881	keystroke_Key.space	Key.space	n/a
11.5455	0.135	23091	keystroke_l	l	n/a
11.6955	0.09	23391	keystroke_a	a	n/a
11.9055	0.105	23811	keystroke_z	z	n/a
11.9955	0.075	23991	keystroke_y	y	n/a
12.0855	0.105	24171	keystroke_Key.space	Key.space	n/a
12.296	0.045	24592	keystroke_d	d	n/a
12.356	0.059	24712	keystroke_o	o	n/a
12.43	0.075	24860	keystroke_g	g	n/a
12.565	0.075	25130	keystroke_Key.enter	Key.enter	n/a
12.6465	5.1255	25293	prompt	n/a	tanks lauderdale texture friend\n
13.286	0.12	26572	keystroke_t	t	n/a
13.36	0.09	26720	keystroke_a	a	n/a
13.435	0.106	26870	keystroke_n	n	n/a
13.48	0.135	26960	keystroke_k	k	n/a
13.571	0.104	27142	keystroke_s	s	n/a
13.69	0.075	27380	keystroke_Key.space	Key.space	n/a
13.795	0.105	27590	keystroke_l	l	n/a
13.915	0.09	27830	keystroke_a	a	n/a
14.021	0.089	28042	keystroke_u	u	n/a
14.17	0.091	28340	keystroke_d	d	n/a
14.35	0.105	28700	keystroke_e	e	n/a
14.41	0.061	28820	keystroke_r	r	n/a
14.6655	0.09	29331	keystroke_d	d	n/a
14.6955	0.135	29391	keystroke_a	a	n/a
14.8455	0.105	29691	keystroke_l	l	n/a
14.9355	0.0745	29871	keystroke_e	e	n/a
15.085	0.1055	30170	keystroke_Key.space	Key.space	n/a
15.2655	0.0895	30531	keystroke_t	t	n/a
15.325	0.09	30650	keystroke_e	e	n/a
15.67	0.12	31340	keystroke_x	x	n/a
16.27	0.075	32540	keystroke_t	t	n/a
16.435	0.0755	32870	keystroke_u	u	n/a
16.4955	0.1345	32991	keystroke_r	r	n/a
16.57	0.12	33140	keystroke_e	e	n/a
16.705	0.1055	33410	keystroke_Key.space	Key.space	n/a
16.945	0.075	33890	keystroke_f	f	n/a
17.23	0.09	34460	keystroke_r	r	n/a
17.321	0.074	34642	keystroke_i	i	n/a
17.41	0.075	34820	keystroke_e	e	n/a
17.5	0.105	35000	keystroke_n	n	n/a
17.59	0.09	35180	keystroke_d	d	n/a
17.695	0.075	35390	keystroke_Key.enter	Key.enter	n/a
17.7765	4.6605	35553	prompt	n/a	treated discussions enabled climb\n
18.46	0.06	36920	keystroke_t	t	n/a
18.595	0.135	37190	keystroke_r	r	n/a
18.685	0.09	37370	keystroke_e	e	n/a
18.745	0.12	37490	keystroke_a	a	n/a
18.85	0.1205	37700	keystroke_t	t	n/a
18.925	0.0605	37850	keystroke_e	e	n/a
19.0755	0.09	38151	keystroke_d	d	n/a
19.196	0.06	38392	keystroke_Key.space	Key.space	n/a
19.33	0.061	38660	keystroke_d	d	n/a
19.375	0.09	38750	keystroke_i	i	n/a
19.481	0.09	38962	keystroke_s	s	n/a
19.69	0.09	39380	keystroke_c	c	n/a
19.796	0.06	39592	keystroke_u	u	n/a
19.901	0.059	39802	keystroke_s	s	n/a
20.051	0.06	40102	keystroke_s	s	n/a
20.126	0.12	40252	keystroke_i	i	n/a
20.171	0.105	40342	keystroke_o	o	n/a
20.231	0.149	40462	keystroke_n	n	n/a
20.336	0.12	40672	keystroke_s	s	n/a
20.485	0.09	40970	keystroke_Key.space	Key.space	n/a
20.62	0.06	41240	keystroke_e	e	n/a
20.696	0.104	41392	keystroke_n	n	n/a
20.831	0.089	41662	keystroke_a	a	n/a
21.025	0.09	42050	keystroke_b	b	n/a
21.13	0.135	42260	keystroke_l	l	n/a
21.206	0.044	42412	keystroke_e	e	n/a
21.356	0.089	42712	keystroke_d	d	n/a
21.416	0.104	42832	keystroke_Key.space	Key.space	n/a
21.58	0.12	43160	keystroke_c	c	n/a
21.656	0.105	43312	keystroke_l	l	n/a
21.715	0.15	43430	keystroke_i	i	n/a
21.821	0.119	43642	keystroke_m	m	n/a
22.1355	0.075	44271	keystroke_b	b	n/a
22.3455	0.09	44691	keystroke_Key.enter	Key.enter	n/a
22.44	4.9175	44880	prompt	n/a	repairs duck destiny sites\n
23.0505	0.015	46101	keystroke_t	t	n/a
23.3955	0.075	46791	keystroke_Key.backspace	Key.backspace	n/a
23.4855	0.105	46971	keystroke_r	r	n/a
23.5455	0.09	47091	keystroke_e	e	n/a
23.6955	0.09	47391	keystroke_p	p	n/a
23.8005	0.105	47601	keystroke_a	a	n/a
23.9655	0.12	47931	keystroke_i	i	n/a
24.1005	0.15	48201	keystroke_r	r	n/a
24.1905	0.15	48381	keystroke_s	s	n/a
24.55	0.075	49100	keystroke_Key.space	Key.space	n/a
24.8505	0.09	49701	keystroke_d	d	n/a
24.9255	0.075	49851	keystroke_u	u	n/a
25.0155	0.12	50031	keystroke_c	c	n/a
25.1205	0.105	50241	keystroke_k	k	n/a
25.2405	0.075	50481	keystroke_Key.space	Key.space	n/a
25.3305	0.06	50661	keystroke_d	d	n/a
25.4655	0.12	50931	keystroke_e	e	n/a
25.5555	0.105	51111	keystroke_s	s	n/a
25.78	0.0905	51560	keystroke_t	t	n/a
25.8255	0.105	51651	keystroke_i	i	n/a
25.8555	0.135	51711	keystroke_n	n	n/a
26.1705	0.09	52341	keystroke_y	y	n/a
26.3055	0.105	52611	keystroke_Key.space	Key.space	n/a
26.7855	0.105	53571	keystroke_s	s	n/a
26.8755	0.09	53751	keystroke_i	i	n/a
26.9805	0.1355	53961	keystroke_t	t	n/a
27.0555	0.1505	54111	keystroke_e	e	n/a
27.161	0.12	54322	keystroke_s	s	n/a
27.266	0.09	54532	keystroke_Key.enter	Key.enter	n/a
27.3605	6.4915	54721	prompt	n/a	shareware picnic knife testimonials\n
28.016	0.09	56032	keystroke_s	s	n/a
28.121	0.075	56242	keystroke_h	h	n/a
28.181	0.105	56362	keystroke_a	a	n/a
28.256	0.15	56512	keystroke_r	r	n/a
28.331	0.12	56662	keystroke_e	e	n/a
28.841	0.09	57682	keystroke_w	w	n/a
28.916	0.12	57832	keystroke_a	a	n/a
29.021	0.135	58042	keystroke_r	r	n/a
29.096	0.135	58192	keystroke_e	e	n/a
29.216	0.09	58432	keystroke_Key.space	Key.space	n/a
29.396	0.105	58792	keystroke_p	p	n/a
29.726	0.09	59452	keystroke_i	i	n/a
29.891	0.09	59782	keystroke_c	c	n/a
30.281	0.12	60562	keystroke_n	n	n/a
30.371	0.135	60742	keystroke_i	i	n/a
30.491	0.105	60982	keystroke_c	c	n/a
30.626	0.09	61252	keystroke_Key.space	Key.space	n/a
30.881	0.09	61762	keystroke_k	k	n/a
30.941	0.075	61882	keystroke_n	n	n/a
31.046	0.135	62092	keystroke_i	i	n/a
31.286	0.15	62572	keystroke_f	f	n/a
31.406	0.105	62812	keystroke_e	e	n/a
31.586	0.105	63172	keystroke_Key.space	Key.space	n/a
31.811	0.105	63622	keystroke_t	t	n/a
31.856	0.105	63712	keystroke_e	e	n/a
32.171	0.075	64342	keystroke_s	s	n/a
32.4855	0.09	64971	keystroke_t	t	n/a
32.5905	0.075	65181	keystroke_i	i	n/a
32.8305	0.09	65661	keystroke_m	m	n/a
33.0555	0.09	66111	keystroke_o	o	n/a
33.1005	0.105	66201	keystroke_n	n	n/a
33.2955	0.105	66591	keystroke_i	i	n/a
33.4755	0.09	66951	keystroke_a	a	n/a
33.5805	0.09	67161	keystroke_l	l	n/a
33.6555	0.09	67311	keystroke_s	s	n/a
33.7755	0.075	67551	keystroke_Key.enter	Key.enter	n/a
33.8555	8.397	67711	prompt	n/a	precision tourist referring books\n
34.4805	0.105	68961	keystroke_p	p	n/a
34.5705	0.12	69141	keystroke_r	r	n/a
34.6305	0.09	69261	keystroke_e	e	n/a
34.8705	0.12	69741	keystroke_c	c	n/a
34.9915	0.089	69983	keystroke_i	i	n/a
35.681	0.06	71362	keystroke_v	v	n/a
36.236	0.06	72472	keystroke_Key.backspace	Key.backspace	n/a
36.431	0.0745	72862	keystroke_s	s	n/a
36.476	0.1045	72952	keystroke_i	i	n/a
36.7155	0.12	73431	keystroke_o	o	n/a
36.7755	0.18	73551	keystroke_n	n	n/a
37.0305	0.075	74061	keystroke_Key.space	Key.space	n/a
37.4805	0.06	74961	keystroke_t	t	n/a
37.5255	0.09	75051	keystroke_o	o	n/a
37.5855	0.105	75171	keystroke_u	u	n/a
37.7055	0.105	75411	keystroke_r	r	n/a
38.0055	0.09	76011	keystroke_i	i	n/a
38.1405	0.12	76281	keystroke_s	s	n/a
38.2155	0.12	76431	keystroke_t	t	n/a
38.3365	0.089	76673	keystroke_Key.space	Key.space	n/a
38.606	0.06	77212	keystroke_f	f	n/a
38.756	0.09	77512	keystroke_e	e	n/a
39.415	0.0755	78830	keystroke_Key.backspace	Key.backspace	n/a
39.55	0.09	79100	keystroke_Key.backspace	Key.backspace	n/a
39.685	0.03	79370	keystroke_f	f	n/a
40.045	0.06	80090	keystroke_Key.backspace	Key.backspace	n/a
40.18	0.12	80360	keystroke_r	r	n/a
40.285	0.09	80570	keystroke_e	e	n/a
40.555	0.105	81110	keystroke_f	f	n/a
40.72	0.09	81440	keystroke_e	e	n/a
40.765	0.09	81530	keystroke_r	r	n/a
40.945	0.0605	81890	keystroke_r	r	n/a
41.0205	0.12	82041	keystroke_i	i	n/a
41.0805	0.15	82161	keystroke_n	n	n/a
41.2005	0.09	82401	keystroke_g	g	n/a
41.3055	0.075	82611	keystroke_Key.space	Key.space	n/a
41.3955	0.135	82791	keystroke_b	b	n/a
41.4855	0.075	82971	keystroke_o	o	n/a
41.6205	0.09	83241	keystroke_o	o	n/a
41.6955	0.105	83391	keystroke_k	k	n/a
42.0405	0.06	84081	keystroke_s	s	n/a
42.1755	0.075	84351	keystroke_Key.enter	Key.enter	n/a
42.256	5.4265	84512	prompt	n/a	merchandise teens myspace creations\n
42.88	0.106	85760	keystroke_m	m	n/a
43.06	0.105	86120	keystroke_e	e	n/a
43.12	0.091	86240	keystroke_r	r	n/a
43.345	0.09	86690	keystroke_c	c	n/a
43.42	0.06	86840	keystroke_h	h	n/a
43.525	0.106	87050	keystroke_a	a	n/a
43.585	0.09	87170	keystroke_n	n	n/a
43.93	0.09	87860	keystroke_d	d	n/a
43.99	0.09	87980	keystroke_i	i	n/a
44.125	0.121	88250	keystroke_s	s	n/a
44.2	0.105	88400	keystroke_e	e	n/a
44.32	0.105	88640	keystroke_Key.space	Key.space	n/a
44.5755	0.09	89151	keystroke_t	t	n/a
44.5905	0.09	89181	keystroke_e	e	n/a
44.7855	0.045	89571	keystroke_e	e	n/a
44.8755	0.0905	89751	keystroke_n	n	n/a
44.9805	0.1195	89961	keystroke_s	s	n/a
45.101	0.074	90202	keystroke_Key.space	Key.space	n/a
45.34	0.09	90680	keystroke_m	m	n/a
45.595	0.09	91190	keystroke_y	y	n/a
45.745	0.075	91490	keystroke_s	s	n/a
45.835	0.105	91670	keystroke_p	p	n/a
45.925	0.09	91850	keystroke_a	a	n/a
45.986	0.164	91972	keystroke_c	c	n/a
46.09	0.1355	92180	keystroke_e	e	n/a
46.2105	0.09	92421	keystroke_Key.space	Key.space	n/a
46.6005	0.075	93201	keystroke_c	c	n/a
46.7955	0.12	93591	keystroke_r	r	n/a
46.8555	0.105	93711	keystroke_e	e	n/a
46.9455	0.075	93891	keystroke_a	a	n/a
47.0505	0.0895	94101	keystroke_t	t	n/a
47.185	0.151	94370	keystroke_i	i	n/a
47.215	0.105	94430	keystroke_o	o	n/a
47.245	0.18	94490	keystroke_n	n	n/a
47.41	0.105	94820	keystroke_s	s	n/a
47.575	0.105	95150	keystroke_Key.enter	Key.enter	n/a
47.687	4.435	95374	prompt	n/a	judy suggested disable rice\n
48.2955	0.045	96591	keystroke_j	j	n/a
48.4005	0.09	96801	keystroke_u	u	n/a
48.5055	0.075	97011	keystroke_d	d	n/a
48.5955	0.105	97191	keystroke_y	y	n/a
48.6855	0.105	97371	keystroke_Key.space	Key.space	n/a
48.8655	0.105	97731	keystroke_s	s	n/a
49.1505	0.0745	98301	keystroke_u	u	n/a
49.315	0.06	98630	keystroke_g	g	n/a
49.45	0.075	98900	keystroke_g	g	n/a
49.75	0.135	99500	keystroke_e	e	n/a
49.9	0.12	99800	keystroke_s	s	n/a
50.005	0.12	100010	keystroke_t	t	n/a
50.08	0.09	100160	keystroke_e	e	n/a
50.305	0.09	100610	keystroke_d	d	n/a
50.41	0.09	100820	keystroke_Key.space	Key.space	n/a
50.6205	0.075	101241	keystroke_d	d	n/a
50.6805	0.09	101361	keystroke_i	i	n/a
50.7855	0.09	101571	keystroke_s	s	n/a
51.0555	0.09	102111	keystroke_a	a	n/a
51.1455	0.105	102291	keystroke_b	b	n/a
51.2355	0.15	102471	keystroke_l	l	n/a
51.3705	0.09	102741	keystroke_e	e	n/a
51.4905	0.09	102981	keystroke_Key.space	Key.space	n/a
51.5955	0.105	103191	keystroke_r	r	n/a
51.6855	0.105	103371	keystroke_i	i	n/a
51.8205	0.1045	103641	keystroke_c	c	n/a
51.895	0.105	103790	keystroke_e	e	n/a
52.03	0.0905	104060	keystroke_Key.enter	Key.enter	n/a
52.126	4.976	104252	prompt	n/a	bite icons blvd wright\n
52.7655	0.195	105531	keystroke_b	b	n/a
52.8555	0.165	105711	keystroke_i	i	n/a
52.9605	0.09	105921	keystroke_t	t	n/a
52.9905	0.12	105981	keystroke_e	e	n/a
53.0955	0.105	106191	keystroke_Key.space	Key.space	n/a
53.2155	0.12	106431	keystroke_i	i	n/a
53.3505	0.09	106701	keystroke_c	c	n/a
53.4555	0.12	106911	keystroke_o	o	n/a
53.5155	0.165	107031	keystroke_n	n	n/a
53.6655	0.12	107331	keystroke_s	s	n/a
53.8305	0.09	107661	keystroke_Key.space	Key.space	n/a
54.1455	0.12	108291	keystroke_b	b	n/a
54.2205	0.15	108441	keystroke_l	l	n/a
54.6105	0.0605	109221	keystroke_d	d	n/a
54.9555	0.075	109911	keystroke_Key.backspace	Key.backspace	n/a
55.7055	0.105	111411	keystroke_v	v	n/a
55.7355	0.135	111471	keystroke_d	d	n/a
55.8715	0.104	111743	keystroke_Key.space	Key.space	n/a
56.275	0.1205	112550	keystroke_w	w	n/a
56.3655	0.075	112731	keystroke_r	r	n/a
56.4255	0.12	112851	keystroke_i	i	n/a
56.6955	0.09	113391	keystroke_g	g	n/a
56.8005	0.09	113601	keystroke_h	h	n/a
56.9055	0.06	113811	keystroke_t	t	n/a
56.9955	0.105	113991	keystroke_Key.enter	Key.enter	n/a
57.11	8.002	114220	prompt	n/a	article experimental motels fleece\n
57.8205	0.09	115641	keystroke_a	a	n/a
57.8655	0.105	115731	keystroke_r	r	n/a
58.1955	0.075	116391	keystroke_t	t	n/a
58.2855	0.09	116571	keystroke_i	i	n/a
58.4505	0.105	116901	keystroke_c	c	n/a
58.5705	0.12	117141	keystroke_l	l	n/a
58.706	0.09	117412	keystroke_e	e	n/a
58.841	0.105	117682	keystroke_Key.space	Key.space	n/a
59.066	0.075	118132	keystroke_e	e	n/a
59.216	0.075	118432	keystroke_p	p	n/a
59.306	0.06	118612	keystroke_x	x	n/a
59.546	0.075	119092	keystroke_Key.backspace	Key.backspace	n/a
59.681	0.09	119362	keystroke_Key.backspace	Key.backspace	n/a
59.816	0.0895	119632	keystroke_x	x	n/a
59.9505	0.1355	119901	keystroke_p	p	n/a
60.071	0.105	120142	keystroke_e	e	n/a
60.131	0.105	120262	keystroke_r	r	n/a
60.266	0.075	120532	keystroke_i	i	n/a
60.371	0.09	120742	keystroke_e	e	n/a
60.821	0.06	121642	keystroke_Key.backspace	Key.backspace	n/a
61.0455	0.075	122091	keystroke_m	m	n/a
61.1355	0.0895	122271	keystroke_e	e	n/a
61.21	0.09	122420	keystroke_n	n	n/a
61.345	0.075	122690	keystroke_t	t	n/a
61.6005	0.075	123201	keystroke_l	l	n/a
61.96	0.075	123920	keystroke_Key.backspace	Key.backspace	n/a
62.111	0.104	124222	keystroke_a	a	n/a
62.23	0.075	124460	keystroke_l	l	n/a
62.635	0.075	125270	keystroke_Key.space	Key.space	n/a
63.0855	0.135	126171	keystroke_m	m	n/a
63.1755	0.135	126351	keystroke_o	o	n/a
63.2655	0.12	126531	keystroke_t	t	n/a
63.3255	0.105	126651	keystroke_e	e	n/a
63.4455	0.15	126891	keystroke_l	l	n/a
63.5805	0.12	127161	keystroke_s	s	n/a
63.7155	0.105	127431	keystroke_Key.space	Key.space	n/a
64.3455	0.09	128691	keystroke_f	f	n/a
64.4365	0.089	128873	keystroke_l	l	n/a
64.5405	0.075	129081	keystroke_e	e	n/a
64.6905	0.075	129381	keystroke_e	e	n/a
64.8705	0.09	129741	keystroke_c	c	n/a
64.9305	0.12	129861	keystroke_e	e	n/a
65.0355	0.075	130071	keystroke_Key.enter	Key.enter	n/a
65.1145	6.058	130229	prompt	n/a	list partly entrepreneurs year\n
65.755	0.15	131510	keystroke_l	l	n/a
65.846	0.134	131692	keystroke_i	i	n/a
65.95	0.135	131900	keystroke_s	s	n/a
66.04	0.135	132080	keystroke_t	t	n/a
66.16	0.09	132320	keystroke_Key.space	Key.space	n/a
66.265	0.1205	132530	keystroke_p	p	n/a
66.3405	0.12	132681	keystroke_a	a	n/a
66.4005	0.09	132801	keystroke_r	r	n/a
66.5955	0.105	133191	keystroke_t	t	n/a
66.8355	0.1345	133671	keystroke_l	l	n/a
67.0305	0.0895	134061	keystroke_y	y	n/a
67.165	0.105	134330	keystroke_Key.space	Key.space	n/a
67.405	0.106	134810	keystroke_e	e	n/a
67.495	0.105	134990	keystroke_n	n	n/a
67.78	0.061	135560	keystroke_t	t	n/a
67.93	0.12	135860	keystroke_r	r	n/a
68.02	0.105	136040	keystroke_e	e	n/a
68.8305	0.12	137661	keystroke_p	p	n/a
69.2505	0.12	138501	keystroke_r	r	n/a
69.2955	0.105	138591	keystroke_e	e	n/a
69.5805	0.1055	139161	keystroke_n	n	n/a
69.851	0.09	139702	keystroke_e	e	n/a
69.986	0.105	139972	keystroke_u	u	n/a
70.106	0.15	140212	keystroke_r	r	n/a
70.211	0.135	140422	keystroke_s	s	n/a
70.376	0.06	140752	keystroke_Key.space	Key.space	n/a
70.6455	0.12	141291	keystroke_y	y	n/a
70.6905	0.165	141381	keystroke_e	e	n/a
70.7955	0.12	141591	keystroke_a	a	n/a
70.8405	0.165	141681	keystroke_r	r	n/a
71.0655	0.105	142131	keystroke_Key.enter	Key.enter	n/a
71.1755	6.732	142351	prompt	n/a	theology coordinator cord instructor\n
71.8905	0.075	143781	keystroke_t	t	n/a
71.9355	0.075	143871	keystroke_h	h	n/a
72.0255	0.12	144051	keystroke_e	e	n/a
72.161	0.12	144322	keystroke_o	o	n/a
72.851	0.09	145702	keystroke_l	l	n/a
73.031	0.075	146062	keystroke_o	o	n/a
73.211	0.09	146422	keystroke_g	g	n/a
73.286	0.15	146572	keystroke_y	y	n/a
73.421	0.12	146842	keystroke_Key.space	Key.space	n/a
73.751	0.12	147502	keystroke_c	c	n/a
73.841	0.06	147682	keystroke_o	o	n/a
73.976	0.075	147952	keystroke_o	o	n/a
74.096	0.105	148192	keystroke_r	r	n/a
74.396	0.1195	148792	keystroke_d	d	n/a
74.456	0.0895	148912	keystroke_i	i	n/a
74.5005	0.12	149001	keystroke_n	n	n/a
74.7405	0.075	149481	keystroke_a	a	n/a
74.9655	0.1055	149931	keystroke_t	t	n/a
75.086	0.12	150172	keystroke_o	o	n/a
75.236	0.12	150472	keystroke_r	r	n/a
75.401	0.09	150802	keystroke_Key.space	Key.space	n/a
75.6105	0.075	151221	keystroke_c	c	n/a
75.7155	0.12	151431	keystroke_o	o	n/a
75.8365	0.149	151673	keystroke_r	r	n/a
75.9555	0.12	151911	keystroke_d	d	n/a
76.0455	0.09	152091	keystroke_Key.space	Key.space	n/a
76.1505	0.135	152301	keystroke_i	i	n/a
76.1955	0.15	152391	keystroke_n	n	n/a
76.3755	0.105	152751	keystroke_s	s	n/a
76.6155	0.045	153231	keystroke_t	t	n/a
76.766	0.06	153532	keystroke_r	r	n/a
76.826	0.12	153652	keystroke_u	u	n/a
77.1705	0.09	154341	keystroke_c	c	n/a
77.4405	0.105	154881	keystroke_t	t	n/a
77.5605	0.105	155121	keystroke_o	o	n/a
77.6505	0.12	155301	keystroke_r	r	n/a
77.8155	0.09	155631	keystroke_Key.enter	Key.enter	n/a
77.914	7.508	155828	prompt	n/a	compiler popular cookbook worse\n
78.7155	0.12	157431	keystroke_c	c	n/a
78.7905	0.1195	157581	keystroke_o	o	n/a
78.8505	0.1505	157701	keystroke_m	m	n/a
79.285	0.15	158570	keystroke_i	i	n/a
79.345	0.135	158690	keystroke_l	l	n/a
79.616	0.06	159232	keystroke_t	t	n/a
79.916	0.045	159832	keystroke_Key.backspace	Key.backspace	n/a
80.05	0.06	160100	keystroke_Key.backspace	Key.backspace	n/a
80.215	0.046	160430	keystroke_Key.backspace	Key.backspace	n/a
80.83	0.09	161660	keystroke_p	p	n/a
81.16	0.135	162320	keystroke_i	i	n/a
81.236	0.164	162472	keystroke_l	l	n/a
81.55	0.136	163100	keystroke_e	e	n/a
81.641	0.135	163282	keystroke_r	r	n/a
81.865	0.105	163730	keystroke_Key.space	Key.space	n/a
82.09	0.1055	164180	keystroke_p	p	n/a
82.1655	0.105	164331	keystroke_o	o	n/a
82.3905	0.105	164781	keystroke_p	p	n/a
82.6305	0.12	165261	keystroke_u	u	n/a
82.7355	0.2105	165471	keystroke_l	l	n/a
82.931	0.1195	165862	keystroke_a	a	n/a
82.9755	0.165	165951	keystroke_r	r	n/a
83.1255	0.105	166251	keystroke_Key.space	Key.space	n/a
83.3355	0.1055	166671	keystroke_c	c	n/a
83.396	0.06	166792	keystroke_o	o	n/a
83.531	0.105	167062	keystroke_o	o	n/a
83.651	0.15	167302	keystroke_k	k	n/a
84.041	0.0895	168082	keystroke_b	b	n/a
84.101	0.0595	168202	keystroke_o	o	n/a
84.2355	0.09	168471	keystroke_o	o	n/a
84.4305	0.121	168861	keystroke_k	k	n/a
84.5655	0.105	169131	keystroke_Key.space	Key.space	n/a
84.7605	0.105	169521	keystroke_w	w	n/a
84.8505	0.12	169701	keystroke_o	o	n/a
84.9255	0.09	169851	keystroke_r	r	n/a
85.1055	0.12	170211	keystroke_s	s	n/a
85.1805	0.12	170361	keystroke_e	e	n/a
85.3305	0.09	170661	keystroke_Key.enter	Key.enter	n/a
85.43	6.982	170860	prompt	n/a	marking helicopter sometimes clear\n
86.185	0.105	172370	keystroke_m	m	n/a
86.3205	0.15	172641	keystroke_a	a	n/a
86.53	0.105	173060	keystroke_r	r	n/a
86.77	0.105	173540	keystroke_k	k	n/a
86.95	0.12	173900	keystroke_i	i	n/a
87.025	0.1505	174050	keystroke_n	n	n/a
87.2055	0.1355	174411	keystroke_g	g	n/a
87.356	0.075	174712	keystroke_Key.space	Key.space	n/a
87.551	0.105	175102	keystroke_h	h	n/a
87.686	0.09	175372	keystroke_e	e	n/a
87.791	0.0745	175582	keystroke_l	l	n/a
87.9705	0.09	175941	keystroke_p	p	n/a
88.241	0.0895	176482	keystroke_i	i	n/a
88.571	0.06	177142	keystroke_Key.backspace	Key.backspace	n/a
88.736	0.075	177472	keystroke_Key.backspace	Key.backspace	n/a
89.471	0.105	178942	keystroke_i	i	n/a
89.636	0.09	179272	keystroke_c	c	n/a
89.756	0.09	179512	keystroke_o	o	n/a
89.936	0.09	179872	keystroke_p	p	n/a
90.1455	0.075	180291	keystroke_t	t	n/a
90.2805	0.12	180561	keystroke_e	e	n/a
90.3555	0.12	180711	keystroke_r	r	n/a
90.506	0.09	181012	keystroke_Key.space	Key.space	n/a
90.641	0.105	181282	keystroke_s	s	n/a
90.716	0.12	181432	keystroke_o	o	n/a
90.761	0.15	181522	keystroke_m	m	n/a
90.926	0.09	181852	keystroke_e	e	n/a
91.121	0.09	182242	keystroke_t	t	n/a
91.196	0.105	182392	keystroke_i	i	n/a
91.226	0.15	182452	keystroke_m	m	n/a
91.331	0.135	182662	keystroke_e	e	n/a
91.406	0.135	182812	keystroke_s	s	n/a
91.541	0.105	183082	keystroke_Key.space	Key.space	n/a
91.661	0.15	183322	keystroke_c	c	n/a
91.826	0.135	183652	keystroke_l	l	n/a
91.916	0.18	183832	keystroke_e	e	n/a
92.021	0.12	184042	keystroke_a	a	n/a
92.066	0.18	184132	keystroke_r	r	n/a
92.261	0.15	184522	keystroke_Key.enter	Key.enter	n/a
92.4165	6.0555	184833	prompt	n/a	generates allan attraction michael\n
93.1155	0.06	186231	keystroke_g	g	n/a
93.2805	0.075	186561	keystroke_e	e	n/a
93.4005	0.105	186801	keystroke_n	n	n/a
93.4905	0.105	186981	keystroke_e	e	n/a
93.5505	0.12	187101	keystroke_r	r	n/a
93.8055	0.105	187611	keystroke_a	a	n/a
93.9705	0.165	187941	keystroke_t	t	n/a
94.0605	0.1505	188121	keystroke_e	e	n/a
94.166	0.119	188332	keystroke_s	s	n/a
94.286	0.089	188572	keystroke_Key.space	Key.space	n/a
94.391	0.105	188782	keystroke_a	a	n/a
94.48	0.061	188960	keystroke_l	l	n/a
94.616	0.09	189232	keystroke_l	l	n/a
94.736	0.09	189472	keystroke_a	a	n/a
94.841	0.15	189682	keystroke_n	n	n/a
95.006	0.074	190012	keystroke_Key.space	Key.space	n/a
95.171	0.135	190342	keystroke_a	a	n/a
95.261	0.09	190522	keystroke_t	t	n/a
95.411	0.09	190822	keystroke_t	t	n/a
95.606	0.12	191212	keystroke_r	r	n/a
95.741	0.12	191482	keystroke_a	a	n/a
95.876	0.105	191752	keystroke_c	c	n/a
96.22	0.091	192440	keystroke_t	t	n/a
96.281	0.165	192562	keystroke_i	i	n/a
96.386	0.074	192772	keystroke_o	o	n/a
96.416	0.21	192832	keystroke_n	n	n/a
96.97	0.106	193940	keystroke_Key.space	Key.space	n/a
97.421	0.075	194842	keystroke_m	m	n/a
97.481	0.105	194962	keystroke_i	i	n/a
97.601	0.09	195202	keystroke_c	c	n/a
97.676	0.105	195352	keystroke_h	h	n/a
97.796	0.195	195592	keystroke_a	a	n/a
97.916	0.15	195832	keystroke_e	e	n/a
98.126	0.1195	196252	keystroke_l	l	n/a
98.3955	0.075	196791	keystroke_Key.enter	Key.enter	n/a
98.475	5.0685	196950	prompt	n/a	sports cookie entertainment further\n
99.1605	0.09	198321	keystroke_s	s	n/a
99.2205	0.12	198441	keystroke_p	p	n/a
99.3105	0.135	198621	keystroke_o	o	n/a
99.4605	0.135	198921	keystroke_r	r	n/a
99.7005	0.15	199401	keystroke_t	t	n/a
99.7905	0.15	199581	keystroke_s	s	n/a
99.9255	0.105	199851	keystroke_Key.space	Key.space	n/a
100.1655	0.105	200331	keystroke_c	c	n/a
100.2405	0.06	200481	keystroke_o	o	n/a
100.361	0.0895	200722	keystroke_o	o	n/a
100.4655	0.105	200931	keystroke_k	k	n/a
100.6455	0.135	201291	keystroke_i	i	n/a
100.7655	0.105	201531	keystroke_e	e	n/a
100.9005	0.0755	201801	keystroke_Key.space	Key.space	n/a
100.991	0.09	201982	keystroke_e	e	n/a
101.051	0.105	202102	keystroke_n	n	n/a
101.201	0.06	202402	keystroke_t	t	n/a
101.321	0.09	202642	keystroke_e	e	n/a
101.381	0.09	202762	keystroke_r	r	n/a
101.591	0.135	203182	keystroke_t	t	n/a
101.696	0.12	203392	keystroke_a	a	n/a
101.741	0.12	203482	keystroke_i	i	n/a
101.801	0.105	203602	keystroke_n	n	n/a
102.011	0.09	204022	keystroke_m	m	n/a
102.101	0.09	204202	keystroke_e	e	n/a
102.206	0.1055	204412	keystroke_n	n	n/a
102.2955	0.105	204591	keystroke_t	t	n/a
102.3705	0.09	204741	keystroke_Key.space	Key.space	n/a
102.5205	0.09	205041	keystroke_f	f	n/a
102.6255	0.09	205251	keystroke_u	u	n/a
102.6855	0.09	205371	keystroke_r	r	n/a
102.8955	0.09	205791	keystroke_t	t	n/a
103.1055	0.09	206211	keystroke_h	h	n/a
103.2255	0.105	206451	keystroke_e	e	n/a
103.2855	0.09	206571	keystroke_r	r	n/a
103.4205	0.12	206841	keystroke_Key.enter	Key.enter	n/a
103.546	3.8365	207092	prompt	n/a	argued reaches roller rolls\n
104.186	0.089	208372	keystroke_a	a	n/a
104.231	0.105	208462	keystroke_r	r	n/a
104.41	0.12	208820	keystroke_g	g	n/a
104.545	0.09	209090	keystroke_u	u	n/a
104.605	0.075	209210	keystroke_e	e	n/a
104.755	0.105	209510	keystroke_d	d	n/a
104.845	0.12	209690	keystroke_Key.space	Key.space	n/a
105.07	0.12	210140	keystroke_r	r	n/a
105.131	0.119	210262	keystroke_e	e	n/a
105.251	0.104	210502	keystroke_a	a	n/a
105.415	0.09	210830	keystroke_c	c	n/a
105.55	0.136	211100	keystroke_h	h	n/a
105.611	0.179	211222	keystroke_e	e	n/a
105.715	0.1355	211430	keystroke_s	s	n/a
105.8205	0.12	211641	keystroke_Key.space	Key.space	n/a
106.0005	0.105	212001	keystroke_r	r	n/a
106.0615	0.074	212123	keystroke_o	o	n/a
106.2255	0.06	212451	keystroke_l	l	n/a
106.3455	0.09	212691	keystroke_l	l	n/a
106.4365	0.104	212873	keystroke_e	e	n/a
106.4955	0.105	212991	keystroke_r	r	n/a
106.5855	0.09	213171	keystroke_Key.space	Key.space	n/a
106.7065	0.104	213413	keystroke_r	r	n/a
106.7505	0.075	213501	keystroke_o	o	n/a
106.9005	0.0755	213801	keystroke_l	l	n/a
107.036	0.09	214072	keystroke_l	l	n/a
107.156	0.1195	214312	keystroke_s	s	n/a
107.3055	0.075	214611	keystroke_Key.enter	Key.enter	n/a
107.385	8.022	214770	prompt	n/a	operator grown evaluation connections\n
108.3405	0.075	216681	keystroke_o	o	n/a
108.5055	0.105	217011	keystroke_p	p	n/a
108.5955	0.09	217191	keystroke_e	e	n/a
108.6405	0.105	217281	keystroke_r	r	n/a
108.8355	0.0905	217671	keystroke_a	a	n/a
109.076	0.0745	218152	keystroke_t	t	n/a
109.1505	0.105	218301	keystroke_o	o	n/a
109.2705	0.09	218541	keystroke_r	r	n/a
109.3755	0.105	218751	keystroke_Key.space	Key.space	n/a
109.6605	0.06	219321	keystroke_g	g	n/a
109.7505	0.09	219501	keystroke_o	o	n/a
109.8105	0.09	219621	keystroke_r	r	n/a
109.9605	0.105	219921	keystroke_n	n	n/a
110.3355	0.045	220671	keystroke_Key.backspace	Key.backspace	n/a
110.4555	0.0605	220911	keystroke_Key.backspace	Key.backspace	n/a
110.606	0.06	221212	keystroke_Key.backspace	Key.backspace	n/a
110.696	0.075	221392	keystroke_r	r	n/a
110.801	0.09	221602	keystroke_o	o	n/a
110.876	0.105	221752	keystroke_w	w	n/a
111.011	0.135	222022	keystroke_n	n	n/a
111.176	0.09	222352	keystroke_Key.space	Key.space	n/a
111.491	0.075	222982	keystroke_e	e	n/a
111.716	0.12	223432	keystroke_v	v	n/a
111.791	0.09	223582	keystroke_e	e	n/a
112.286	0.06	224572	keystroke_Key.backspace	Key.backspace	n/a
112.4965	0.104	224993	keystroke_a	a	n/a
112.6605	0.135	225321	keystroke_l	l	n/a
113.0055	0.09	226011	keystroke_u	u	n/a
113.261	0.075	226522	keystroke_a	a	n/a
113.456	0.105	226912	keystroke_t	t	n/a
113.516	0.135	227032	keystroke_i	i	n/a
113.576	0.135	227152	keystroke_o	o	n/a
113.681	0.21	227362	keystroke_n	n	n/a
113.876	0.12	227752	keystroke_Key.space	Key.space	n/a
114.011	0.1195	228022	keystroke_c	c	n/a
114.1155	0.075	228231	keystroke_o	o	n/a
114.1455	0.075	228291	keystroke_n	n	n/a
114.2955	0.105	228591	keystroke_n	n	n/a
114.4605	0.12	228921	keystroke_e	e	n/a
114.5365	0.089	229073	keystroke_c	c	n/a
114.7755	0.09	229551	keystroke_t	t	n/a
114.8205	0.15	229641	keystroke_i	i	n/a
114.8955	0.12	229791	keystroke_o	o	n/a
114.9405	0.1805	229881	keystroke_n	n	n/a
115.166	0.09	230332	keystroke_s	s	n/a
115.271	0.135	230542	keystroke_Key.enter	Key.enter	n/a
115.41	12.4475	230820	prompt	n/a	linked complicated jeffrey alphabetical\n
115.961	0.15	231922	keystroke_l	l	n/a
116.036	0.135	232072	keystroke_i	i	n/a
116.246	0.12	232492	keystroke_n	n	n/a
116.321	0.135	232642	keystroke_k	k	n/a
116.741	0.075	233482	keystroke_e	e	n/a
116.906	0.075	233812	keystroke_d	d	n/a
117.071	0.105	234142	keystroke_Key.space	Key.space	n/a
117.191	0.1345	234382	keystroke_c	c	n/a
117.296	0.1195	234592	keystroke_o	o	n/a
117.3405	0.135	234681	keystroke_m	m	n/a
117.5205	0.09	235041	keystroke_p	p	n/a
117.5805	0.105	235161	keystroke_l	l	n/a
117.7755	0.135	235551	keystroke_i	i	n/a
117.8805	0.12	235761	keystroke_c	c	n/a
117.9555	0.105	235911	keystroke_a	a	n/a
118.1505	0.105	236301	keystroke_t	t	n/a
118.1955	0.09	236391	keystroke_e	e	n/a
118.3605	0.105	236721	keystroke_d	d	n/a
118.5105	0.09	237021	keystroke_Key.space	Key.space	n/a
118.6605	0.12	237321	keystroke_j	j	n/a
118.7505	0.105	237501	keystroke_e	e	n/a
118.8105	0.135	237621	keystroke_r	r	n/a
119.0205	0.135	238041	keystroke_r	r	n/a
119.5755	0.06	239151	keystroke_Key.backspace	Key.backspace	n/a
119.7105	0.06	239421	keystroke_Key.backspace	Key.backspace	n/a
119.8305	0.06	239661	keystroke_f	f	n/a
119.9505	0.09	239901	keystroke_f	f	n/a
120.221	0.12	240442	keystroke_r	r	n/a
120.296	0.12	240592	keystroke_e	e	n/a
120.476	0.135	240952	keystroke_y	y	n/a
120.701	0.09	241402	keystroke_Key.space	Key.space	n/a
120.851	0.15	241702	keystroke_a	a	n/a
120.986	0.12	241972	keystroke_l	l	n/a
121.226	0.1195	242452	keystroke_p	p	n/a
121.301	0.1045	242602	keystroke_h	h	n/a
121.436	0.105	242872	keystroke_a	a	n/a
122.4705	0.12	244941	keystroke_b	b	n/a
122.7855	0.09	245571	keystroke_e	e	n/a
123.1605	0.09	246321	keystroke_t	t	n/a
123.2655	0.075	246531	keystroke_h	h	n/a
123.4755	0.09	246951	keystroke_i	i	n/a
123.5505	0.15	247101	keystroke_c	c	n/a
123.6255	0.15	247251	keystroke_a	a	n/a
123.7605	0.09	247521	keystroke_l	l	n/a
124.3905	0.06	248781	keystroke_=	=	n/a
124.5255	0.075	249051	keystroke_=	=	n/a
124.916	0.0445	249832	keystroke_Key.backspace	Key.backspace	n/a
125.0355	0.075	250071	keystroke_Key.backspace	Key.backspace	n/a
125.2155	0.075	250431	keystroke_Key.backspace	Key.backspace	n/a
125.4105	0.075	250821	keystroke_Key.backspace	Key.backspace	n/a
125.606	0.075	251212	keystroke_Key.backspace	Key.backspace	n/a
125.786	0.0895	251572	keystroke_Key.backspace	Key.backspace	n/a
125.9955	0.09	251991	keystroke_Key.backspace	Key.backspace	n/a
126.2805	0.075	252561	keystroke_Key.backspace	Key.backspace	n/a
127.091	0.09	254182	keystroke_t	t	n/a
127.166	0.12	254332	keystroke_i	i	n/a
127.376	0.12	254752	keystroke_c	c	n/a
127.436	0.135	254872	keystroke_a	a	n/a
127.541	0.105	255082	keystroke_l	l	n/a
127.766	0.09	255532	keystroke_Key.enter	Key.enter	n/a
127.861	7.196	255722	prompt	n/a	multiple fifteen peru scientists\n
128.8305	0.106	257661	keystroke_m	m	n/a
129.0855	0.12	258171	keystroke_u	u	n/a
129.1755	0.18	258351	keystroke_l	l	n/a
129.4915	0.089	258983	keystroke_t	t	n/a
129.5955	0.09	259191	keystroke_i	i	n/a
129.8965	0.074	259793	keystroke_p	p	n/a
129.9405	0.136	259881	keystroke_l	l	n/a
130.0905	0.09	260181	keystroke_e	e	n/a
130.2255	0.09	260451	keystroke_Key.space	Key.space	n/a
130.4215	0.059	260843	keystroke_f	f	n/a
130.4815	0.104	260963	keystroke_i	i	n/a
130.6155	0.075	261231	keystroke_g	g	n/a
131.0205	0.075	262041	keystroke_Key.backspace	Key.backspace	n/a
131.1105	0.075	262221	keystroke_f	f	n/a
131.4105	0.09	262821	keystroke_t	t	n/a
131.5155	0.09	263031	keystroke_e	e	n/a
131.6955	0.076	263391	keystroke_e	e	n/a
131.9055	0.1055	263811	keystroke_n	n	n/a
132.041	0.09	264082	keystroke_Key.space	Key.space	n/a
132.356	0.1345	264712	keystroke_p	p	n/a
132.5055	0.0905	265011	keystroke_e	e	n/a
132.5505	0.1055	265101	keystroke_r	r	n/a
133.1355	0.135	266271	keystroke_u	u	n/a
133.2855	0.12	266571	keystroke_Key.space	Key.space	n/a
133.5105	0.121	267021	keystroke_s	s	n/a
133.5705	0.1205	267141	keystroke_c	c	n/a
133.6755	0.1055	267351	keystroke_i	i	n/a
133.991	0.09	267982	keystroke_e	e	n/a
134.066	0.12	268132	keystroke_n	n	n/a
134.381	0.0905	268762	keystroke_t	t	n/a
134.486	0.09	268972	keystroke_i	i	n/a
134.606	0.12	269212	keystroke_s	s	n/a
134.696	0.135	269392	keystroke_t	t	n/a
134.801	0.12	269602	keystroke_s	s	n/a
134.936	0.12	269872	keystroke_Key.enter	Key.enter	n/a
135.0705	6.617	270141	prompt	n/a	mysql heel rats warranties\n
135.986	0.135	271972	keystroke_m	m	n/a
136.286	0.09	272572	keystroke_y	y	n/a
136.646	0.075	273292	keystroke_s	s	n/a
137.006	0.09	274012	keystroke_q	q	n/a
137.126	0.15	274252	keystroke_l	l	n/a
137.471	0.105	274942	keystroke_Key.space	Key.space	n/a
138.2515	0.0745	276503	keystroke_h	h	n/a
138.3415	0.0445	276683	keystroke_e	e	n/a
138.491	0.06	276982	keystroke_e	e	n/a
138.536	0.15	277072	keystroke_l	l	n/a
138.671	0.12	277342	keystroke_Key.space	Key.space	n/a
138.836	0.15	277672	keystroke_r	r	n/a
138.926	0.12	277852	keystroke_a	a	n/a
139.061	0.165	278122	keystroke_t	t	n/a
139.166	0.045	278332	keystroke_e	e	n/a
139.241	0.18	278482	keystroke_s	s	n/a
139.8255	0.03	279651	keystroke_Key.backspace	Key.backspace	n/a
139.9305	0.09	279861	keystroke_Key.backspace	Key.backspace	n/a
140.0055	0.105	280011	keystroke_s	s	n/a
140.1405	0.09	280281	keystroke_Key.space	Key.space	n/a
140.3955	0.1205	280791	keystroke_w	w	n/a
140.4555	0.1205	280911	keystroke_a	a	n/a
140.561	0.09	281122	keystroke_r	r	n/a
140.681	0.09	281362	keystroke_r	r	n/a
140.951	0.09	281902	keystroke_a	a	n/a
141.026	0.105	282052	keystroke_n	n	n/a
141.236	0.075	282472	keystroke_t	t	n/a
141.296	0.105	282592	keystroke_i	i	n/a
141.386	0.15	282772	keystroke_e	e	n/a
141.4615	0.1345	282923	keystroke_s	s	n/a
141.581	0.105	283162	keystroke_Key.enter	Key.enter	n/a
141.6925	4.9595	283385	prompt	n/a	savings acquisition canal scan\n
142.4055	0.12	284811	keystroke_s	s	n/a
142.4805	0.105	284961	keystroke_a	a	n/a
142.6605	0.105	285321	keystroke_v	v	n/a
142.7205	0.15	285441	keystroke_i	i	n/a
142.7805	0.18	285561	keystroke_n	n	n/a
142.9755	0.135	285951	keystroke_g	g	n/a
143.0505	0.12	286101	keystroke_s	s	n/a
143.5165	0.089	287033	keystroke_Key.space	Key.space	n/a
143.6665	0.15	287333	keystroke_a	a	n/a
143.7715	0.12	287543	keystroke_c	c	n/a
144.0565	0.105	288113	keystroke_q	q	n/a
144.1315	0.0895	288263	keystroke_u	u	n/a
144.281	0.135	288562	keystroke_i	i	n/a
144.5665	0.09	289133	keystroke_s	s	n/a
144.6105	0.106	289221	keystroke_i	i	n/a
144.8055	0.091	289611	keystroke_t	t	n/a
144.8665	0.135	289733	keystroke_i	i	n/a
144.9415	0.135	289883	keystroke_o	o	n/a
145.0015	0.15	290003	keystroke_n	n	n/a
145.2415	0.09	290483	keystroke_Key.space	Key.space	n/a
145.3765	0.12	290753	keystroke_c	c	n/a
145.4365	0.104	290873	keystroke_a	a	n/a
145.4805	0.091	290961	keystroke_n	n	n/a
145.6015	0.105	291203	keystroke_a	a	n/a
145.7365	0.12	291473	keystroke_l	l	n/a
145.9915	0.1045	291983	keystroke_Key.space	Key.space	n/a
146.111	0.105	292222	keystroke_s	s	n/a
146.171	0.105	292342	keystroke_c	c	n/a
146.306	0.105	292612	keystroke_a	a	n/a
146.396	0.0905	292792	keystroke_n	n	n/a
146.531	0.12	293062	keystroke_Key.enter	Key.enter	n/a
146.6565	6.026	293313	prompt	n/a	broker proteins sampling cheque\n
147.371	0.09	294742	keystroke_b	b	n/a
147.446	0.09	294892	keystroke_r	r	n/a
147.521	0.09	295042	keystroke_o	o	n/a
147.701	0.105	295402	keystroke_k	k	n/a
147.851	0.105	295702	keystroke_e	e	n/a
147.911	0.105	295822	keystroke_r	r	n/a
148.121	0.09	296242	keystroke_Key.space	Key.space	n/a
148.331	0.0895	296662	keystroke_p	p	n/a
148.4355	0.1655	296871	keystroke_r	r	n/a
148.7355	0.12	297471	keystroke_o	o	n/a
149.1105	0.105	298221	keystroke_t	t	n/a
149.1555	0.12	298311	keystroke_e	e	n/a
149.2905	0.135	298581	keystroke_i	i	n/a
149.3505	0.15	298701	keystroke_n	n	n/a
149.4555	0.105	298911	keystroke_s	s	n/a
149.5755	0.105	299151	keystroke_Key.space	Key.space	n/a
149.7705	0.09	299541	keystroke_s	s	n/a
149.8155	0.12	299631	keystroke_a	a	n/a
149.8755	0.121	299751	keystroke_m	m	n/a
149.9505	0.1055	299901	keystroke_p	p	n/a
150.0255	0.0905	300051	keystroke_l	l	n/a
150.191	0.135	300382	keystroke_i	i	n/a
150.251	0.15	300502	keystroke_n	n	n/a
150.371	0.105	300742	keystroke_g	g	n/a
150.506	0.105	301012	keystroke_Key.space	Key.space	n/a
150.656	0.09	301312	keystroke_c	c	n/a
150.791	0.12	301582	keystroke_h	h	n/a
150.971	0.105	301942	keystroke_e	e	n/a
151.6455	0.075	303291	keystroke_u	u	n/a
151.9605	0.076	303921	keystroke_Key.backspace	Key.backspace	n/a
152.0805	0.09	304161	keystroke_q	q	n/a
152.1855	0.075	304371	keystroke_u	u	n/a
152.2755	0.09	304551	keystroke_e	e	n/a
152.5755	0.105	305151	keystroke_Key.enter	Key.enter	n/a
152.6855	6.462	305371	prompt	n/a	insights sweden disputes receptors\n
153.386	0.15	306772	keystroke_i	i	n/a
153.446	0.135	306892	keystroke_n	n	n/a
153.611	0.045	307222	keystroke_s	s	n/a
153.911	0.105	307822	keystroke_i	i	n/a
153.986	0.09	307972	keystroke_g	g	n/a
154.106	0.12	308212	keystroke_h	h	n/a
154.196	0.15	308392	keystroke_t	t	n/a
154.271	0.12	308542	keystroke_s	s	n/a
154.421	0.12	308842	keystroke_Key.space	Key.space	n/a
154.646	0.075	309292	keystroke_s	s	n/a
154.826	0.09	309652	keystroke_w	w	n/a
154.856	0.12	309712	keystroke_e	e	n/a
155.126	0.075	310252	keystroke_d	d	n/a
155.306	0.06	310612	keystroke_e	e	n/a
155.396	0.12	310792	keystroke_n	n	n/a
155.501	0.105	311002	keystroke_Key.space	Key.space	n/a
155.741	0.09	311482	keystroke_d	d	n/a
155.786	0.105	311572	keystroke_i	i	n/a
155.921	0.09	311842	keystroke_s	s	n/a
156.236	0.105	312472	keystroke_p	p	n/a
156.281	0.135	312562	keystroke_u	u	n/a
156.446	0.165	312892	keystroke_t	t	n/a
156.506	0.18	313012	keystroke_e	e	n/a
156.551	0.165	313102	keystroke_s	s	n/a
156.731	0.105	313462	keystroke_Key.space	Key.space	n/a
157.0005	0.105	314001	keystroke_r	r	n/a
157.0315	0.104	314063	keystroke_e	e	n/a
157.2555	0.105	314511	keystroke_c	c	n/a
157.3305	0.135	314661	keystroke_e	e	n/a
157.4805	0.12	314961	keystroke_o	o	n/a
157.9155	0.075	315831	keystroke_Key.backspace	Key.backspace	n/a
158.1405	0.1055	316281	keystroke_p	p	n/a
158.411	0.06	316822	keystroke_t	t	n/a
158.4855	0.1205	316971	keystroke_o	o	n/a
158.666	0.105	317332	keystroke_r	r	n/a
158.756	0.135	317512	keystroke_s	s	n/a
159.041	0.105	318082	keystroke_Key.enter	Key.enter	n/a
159.1515	6.746	318303	prompt	n/a	defects fortune airport york\n
159.8205	0.03	319641	keystroke_d	d	n/a
159.9255	0.09	319851	keystroke_e	e	n/a
160.1205	0.09	320241	keystroke_f	f	n/a
160.2255	0.135	320451	keystroke_e	e	n/a
160.691	0.06	321382	keystroke_c	c	n/a
160.916	0.15	321832	keystroke_t	t	n/a
161.006	0.135	322012	keystroke_s	s	n/a
161.126	0.105	322252	keystroke_Key.space	Key.space	n/a
161.591	0.045	323182	keystroke_f	f	n/a
161.636	0.105	323272	keystroke_o	o	n/a
161.801	0.105	323602	keystroke_r	r	n/a
162.101	0.105	324202	keystroke_u	u	n/a
162.146	0.135	324292	keystroke_n	n	n/a
162.5205	0.06	325041	keystroke_Key.backspace	Key.backspace	n/a
162.6555	0.075	325311	keystroke_Key.backspace	Key.backspace	n/a
162.8355	0.0755	325671	keystroke_t	t	n/a
162.911	0.105	325822	keystroke_u	u	n/a
162.971	0.12	325942	keystroke_n	n	n/a
163.061	0.105	326122	keystroke_e	e	n/a
163.301	0.12	326602	keystroke_Key.space	Key.space	n/a
163.541	0.12	327082	keystroke_a	a	n/a
163.646	0.105	327292	keystroke_i	i	n/a
163.811	0.09	327622	keystroke_r	r	n/a
163.991	0.12	327982	keystroke_p	p	n/a
164.066	0.15	328132	keystroke_o	o	n/a
164.216	0.075	328432	keystroke_r	r	n/a
164.366	0.105	328732	keystroke_t	t	n/a
164.681	0.09	329362	keystroke_Key.space	Key.space	n/a
165.206	0.135	330412	keystroke_y	y	n/a
165.296	0.135	330592	keystroke_o	o	n/a
165.401	0.15	330802	keystroke_r	r	n/a
165.536	0.135	331072	keystroke_k	k	n/a
165.791	0.105	331582	keystroke_Key.enter	Key.enter	n/a
165.901	4.5715	331802	prompt	n/a	perspective pension deals blue\n
166.556	0.15	333112	keystroke_p	p	n/a
166.646	0.135	333292	keystroke_e	e	n/a
166.721	0.105	333442	keystroke_r	r	n/a
166.961	0.105	333922	keystroke_s	s	n/a
167.036	0.09	334072	keystroke_p	p	n/a
167.156	0.09	334312	keystroke_e	e	n/a
167.411	0.09	334822	keystroke_c	c	n/a
167.831	0.0595	335662	keystroke_t	t	n/a
167.9055	0.1055	335811	keystroke_i	i	n/a
168.041	0.12	336082	keystroke_v	v	n/a
168.116	0.135	336232	keystroke_e	e	n/a
168.206	0.09	336412	keystroke_Key.space	Key.space	n/a
168.326	0.105	336652	keystroke_p	p	n/a
168.446	0.075	336892	keystroke_e	e	n/a
168.536	0.09	337072	keystroke_n	n	n/a
168.716	0.12	337432	keystroke_s	s	n/a
168.791	0.09	337582	keystroke_i	i	n/a
168.866	0.12	337732	keystroke_o	o	n/a
168.926	0.165	337852	keystroke_n	n	n/a
169.106	0.1045	338212	keystroke_Key.space	Key.space	n/a
169.2255	0.06	338451	keystroke_d	d	n/a
169.3755	0.075	338751	keystroke_e	e	n/a
169.4205	0.105	338841	keystroke_a	a	n/a
169.5105	0.105	339021	keystroke_l	l	n/a
169.6165	0.119	339233	keystroke_s	s	n/a
169.7505	0.09	339501	keystroke_Key.space	Key.space	n/a
169.9305	0.075	339861	keystroke_b	b	n/a
170.0355	0.12	340071	keystroke_l	l	n/a
170.1255	0.165	340251	keystroke_u	u	n/a
170.2305	0.105	340461	keystroke_e	e	n/a
170.3655	0.105	340731	keystroke_Key.enter	Key.enter	n/a
170.482	4.7005	340964	prompt	n/a	screensavers lose photo dollars\n
171.1305	0.135	342261	keystroke_s	s	n/a
171.1905	0.105	342381	keystroke_c	c	n/a
171.4005	0.0905	342801	keystroke_r	r	n/a
171.461	0.075	342922	keystroke_e	e	n/a
171.596	0.105	343192	keystroke_e	e	n/a
171.686	0.105	343372	keystroke_n	n	n/a
171.8955	0.12	343791	keystroke_s	s	n/a
171.9705	0.12	343941	keystroke_a	a	n/a
172.1205	0.1055	344241	keystroke_v	v	n/a
172.271	0.1195	344542	keystroke_e	e	n/a
172.3455	0.09	344691	keystroke_r	r	n/a
172.481	0.15	344962	keystroke_s	s	n/a
172.616	0.075	345232	keystroke_Key.space	Key.space	n/a
172.751	0.09	345502	keystroke_l	l	n/a
172.901	0.105	345802	keystroke_o	o	n/a
172.991	0.105	345982	keystroke_s	s	n/a
173.051	0.12	346102	keystroke_e	e	n/a
173.156	0.075	346312	keystroke_Key.space	Key.space	n/a
173.261	0.105	346522	keystroke_p	p	n/a
173.321	0.12	346642	keystroke_h	h	n/a
173.411	0.12	346822	keystroke_o	o	n/a
173.591	0.105	347182	keystroke_t	t	n/a
173.651	0.12	347302	keystroke_o	o	n/a
174.011	0.09	348022	keystroke_Key.space	Key.space	n/a
174.371	0.105	348742	keystroke_d	d	n/a
174.461	0.06	348922	keystroke_o	o	n/a
174.5965	0.075	349193	keystroke_l	l	n/a
174.7465	0.105	349493	keystroke_l	l	n/a
174.8065	0.105	349613	keystroke_a	a	n/a
174.8665	0.15	349733	keystroke_r	r	n/a
174.9715	0.135	349943	keystroke_s	s	n/a
175.0915	0.09	350183	keystroke_Key.enter	Key.enter	n/a
175.1855	5.637	350371	prompt	n/a	reporting training stroke higher\n
175.8565	0.1045	351713	keystroke_r	r	n/a
175.9015	0.1195	351803	keystroke_e	e	n/a
176.066	0.105	352132	keystroke_p	p	n/a
176.126	0.165	352252	keystroke_o	o	n/a
176.306	0.03	352612	keystroke_r	r	n/a
176.411	0.0755	352822	keystroke_t	t	n/a
176.4865	0.1195	352973	keystroke_i	i	n/a
176.546	0.135	353092	keystroke_n	n	n/a
176.666	0.09	353332	keystroke_g	g	n/a
176.786	0.105	353572	keystroke_Key.space	Key.space	n/a
176.981	0.06	353962	keystroke_t	t	n/a
177.236	0.135	354472	keystroke_r	r	n/a
177.326	0.135	354652	keystroke_a	a	n/a
177.521	0.135	355042	keystroke_i	i	n/a
177.596	0.12	355192	keystroke_n	n	n/a
177.746	0.105	355492	keystroke_g	g	n/a
178.331	0.075	356662	keystroke_Key.backspace	Key.backspace	n/a
178.571	0.135	357142	keystroke_i	i	n/a
178.631	0.15	357262	keystroke_n	n	n/a
178.736	0.09	357472	keystroke_g	g	n/a
178.931	0.09	357862	keystroke_Key.space	Key.space	n/a
179.126	0.12	358252	keystroke_s	s	n/a
179.231	0.075	358462	keystroke_t	t	n/a
179.396	0.105	358792	keystroke_r	r	n/a
179.486	0.075	358972	keystroke_o	o	n/a
179.531	0.12	359062	keystroke_k	k	n/a
179.636	0.09	359272	keystroke_e	e	n/a
179.786	0.075	359572	keystroke_Key.space	Key.space	n/a
180.146	0.105	360292	keystroke_h	h	n/a
180.206	0.12	360412	keystroke_i	i	n/a
180.341	0.075	360682	keystroke_g	g	n/a
180.431	0.12	360862	keystroke_h	h	n/a
180.521	0.09	361042	keystroke_e	e	n/a
180.581	0.09	361162	keystroke_r	r	n/a
180.731	0.09	361462	keystroke_Key.enter	Key.enter	n/a
180.827	7.4205	361654	prompt	n/a	shortcuts parliament supervisor initiative\n
181.571	0.15	363142	keystroke_s	s	n/a
181.706	0.12	363412	keystroke_h	h	n/a
181.781	0.15	363562	keystroke_o	o	n/a
181.946	0.09	363892	keystroke_r	r	n/a
182.126	0.075	364252	keystroke_t	t	n/a
182.486	0.09	364972	keystroke_c	c	n/a
182.591	0.105	365182	keystroke_u	u	n/a
182.741	0.1355	365482	keystroke_t	t	n/a
182.8305	0.121	365661	keystroke_s	s	n/a
182.9065	0.075	365813	keystroke_Key.space	Key.space	n/a
182.9955	0.136	365991	keystroke_p	p	n/a
183.0715	0.09	366143	keystroke_a	a	n/a
183.1165	0.12	366233	keystroke_r	r	n/a
183.3115	0.15	366623	keystroke_l	l	n/a
183.3855	0.121	366771	keystroke_i	i	n/a
183.7765	0.06	367553	keystroke_e	e	n/a
184.0915	0.074	368183	keystroke_Key.backspace	Key.backspace	n/a
184.2265	0.105	368453	keystroke_a	a	n/a
184.4055	0.091	368811	keystroke_m	m	n/a
184.5255	0.106	369051	keystroke_e	e	n/a
184.6755	0.105	369351	keystroke_n	n	n/a
184.7665	0.104	369533	keystroke_t	t	n/a
184.9005	0.12	369801	keystroke_Key.space	Key.space	n/a
185.1415	0.105	370283	keystroke_s	s	n/a
185.2315	0.09	370463	keystroke_u	u	n/a
185.3055	0.121	370611	keystroke_p	p	n/a
185.4415	0.09	370883	keystroke_e	e	n/a
185.4865	0.105	370973	keystroke_r	r	n/a
185.7715	0.075	371543	keystroke_v	v	n/a
185.8165	0.09	371633	keystroke_i	i	n/a
186.0265	0.09	372053	keystroke_s	s	n/a
186.1615	0.105	372323	keystroke_o	o	n/a
186.2805	0.09	372561	keystroke_r	r	n/a
186.536	0.09	373072	keystroke_Key.space	Key.space	n/a
186.671	0.1045	373342	keystroke_i	i	n/a
186.7305	0.09	373461	keystroke_n	n	n/a
186.8815	0.105	373763	keystroke_i	i	n/a
187.1965	0.059	374393	keystroke_t	t	n/a
187.2705	0.076	374541	keystroke_i	i	n/a
187.5105	0.075	375021	keystroke_a	a	n/a
187.7805	0.075	375561	keystroke_t	t	n/a
187.8705	0.12	375741	keystroke_i	i	n/a
187.9755	0.12	375951	keystroke_v	v	n/a
188.0355	0.15	376071	keystroke_e	e	n/a
188.1405	0.105	376281	keystroke_Key.enter	Key.enter	n/a
188.25	6.2675	376500	prompt	n/a	marcus crossing analytical emerging\n
188.8755	0.135	377751	keystroke_m	m	n/a
188.9805	0.105	377961	keystroke_a	a	n/a
189.0255	0.09	378051	keystroke_r	r	n/a
189.2355	0.09	378471	keystroke_c	c	n/a
189.626	0.09	379252	keystroke_u	u	n/a
189.776	0.105	379552	keystroke_s	s	n/a
189.926	0.09	379852	keystroke_Key.space	Key.space	n/a
190.271	0.06	380542	keystroke_c	c	n/a
190.436	0.0755	380872	keystroke_r	r	n/a
190.4965	0.09	380993	keystroke_o	o	n/a
190.6015	0.06	381203	keystroke_s	s	n/a
190.7215	0.09	381443	keystroke_s	s	n/a
190.8415	0.1345	381683	keystroke_i	i	n/a
190.8865	0.1195	381773	keystroke_n	n	n/a
190.991	0.09	381982	keystroke_g	g	n/a
191.111	0.105	382222	keystroke_Key.space	Key.space	n/a
191.231	0.09	382462	keystroke_a	a	n/a
191.351	0.1345	382702	keystroke_n	n	n/a
191.6055	0.121	383211	keystroke_a	a	n/a
191.7715	0.104	383543	keystroke_l	l	n/a
192.0105	0.106	384021	keystroke_y	y	n/a
192.416	0.0595	384832	keystroke_t	t	n/a
192.461	0.105	384922	keystroke_i	i	n/a
192.791	0.105	385582	keystroke_c	c	n/a
192.836	0.12	385672	keystroke_a	a	n/a
192.926	0.15	385852	keystroke_l	l	n/a
193.331	0.105	386662	keystroke_Key.space	Key.space	n/a
193.586	0.06	387172	keystroke_e	e	n/a
193.661	0.12	387322	keystroke_m	m	n/a
193.751	0.12	387502	keystroke_e	e	n/a
193.811	0.075	387622	keystroke_r	r	n/a
194.036	0.12	388072	keystroke_g	g	n/a
194.096	0.12	388192	keystroke_i	i	n/a
194.141	0.135	388282	keystroke_n	n	n/a
194.291	0.12	388582	keystroke_g	g	n/a
194.396	0.12	388792	keystroke_Key.enter	Key.enter	n/a
194.5215	6.041	389043	prompt	n/a	subdivision literature latina laid\n
195.146	0.09	390292	keystroke_s	s	n/a
195.251	0.09	390502	keystroke_u	u	n/a
195.401	0.135	390802	keystroke_b	b	n/a
195.701	0.06	391402	keystroke_d	d	n/a
195.746	0.09	391492	keystroke_i	i	n/a
196.151	0.075	392302	keystroke_v	v	n/a
196.241	0.105	392482	keystroke_i	i	n/a
196.451	0.09	392902	keystroke_s	s	n/a
196.496	0.12	392992	keystroke_i	i	n/a
196.661	0.105	393322	keystroke_o	o	n/a
196.721	0.195	393442	keystroke_n	n	n/a
196.931	0.09	393862	keystroke_Key.space	Key.space	n/a
197.051	0.135	394102	keystroke_l	l	n/a
197.126	0.135	394252	keystroke_i	i	n/a
197.231	0.06	394462	keystroke_t	t	n/a
197.336	0.12	394672	keystroke_e	e	n/a
197.396	0.12	394792	keystroke_r	r	n/a
197.531	0.135	395062	keystroke_a	a	n/a
197.711	0.12	395422	keystroke_t	t	n/a
197.801	0.09	395602	keystroke_e	e	n/a
198.161	0.09	396322	keystroke_Key.backspace	Key.backspace	n/a
198.416	0.075	396832	keystroke_u	u	n/a
198.491	0.135	396982	keystroke_r	r	n/a
198.551	0.1205	397102	keystroke_e	e	n/a
198.641	0.0905	397282	keystroke_Key.space	Key.space	n/a
199.076	0.0895	398152	keystroke_l	l	n/a
199.1505	0.105	398301	keystroke_a	a	n/a
199.526	0.075	399052	keystroke_t	t	n/a
199.571	0.12	399142	keystroke_i	i	n/a
199.631	0.1345	399262	keystroke_n	n	n/a
199.781	0.135	399562	keystroke_a	a	n/a
199.901	0.105	399802	keystroke_Key.space	Key.space	n/a
200.021	0.135	400042	keystroke_l	l	n/a
200.141	0.075	400282	keystroke_a	a	n/a
200.261	0.09	400522	keystroke_i	i	n/a
200.366	0.09	400732	keystroke_d	d	n/a
200.471	0.0905	400942	keystroke_Key.enter	Key.enter	n/a
200.565	4.8275	401130	prompt	n/a	traveling hired checked christina\n
201.236	0.06	402472	keystroke_t	t	n/a
201.371	0.105	402742	keystroke_r	r	n/a
201.461	0.105	402922	keystroke_a	a	n/a
201.701	0.09	403402	keystroke_v	v	n/a
201.746	0.12	403492	keystroke_e	e	n/a
201.851	0.105	403702	keystroke_l	l	n/a
202.031	0.105	404062	keystroke_i	i	n/a
202.091	0.135	404182	keystroke_n	n	n/a
202.211	0.105	404422	keystroke_g	g	n/a
202.317	0.074	404634	keystroke_Key.space	Key.space	n/a
202.436	0.135	404872	keystroke_h	h	n/a
202.511	0.15	405022	keystroke_i	i	n/a
202.601	0.15	405202	keystroke_r	r	n/a
202.691	0.075	405382	keystroke_e	e	n/a
202.8565	0.06	405713	keystroke_d	d	n/a
203.1265	0.105	406253	keystroke_Key.space	Key.space	n/a
203.3365	0.12	406673	keystroke_c	c	n/a
203.4415	0.09	406883	keystroke_h	h	n/a
203.5465	0.12	407093	keystroke_e	e	n/a
203.6365	0.105	407273	keystroke_c	c	n/a
203.7715	0.105	407543	keystroke_k	k	n/a
203.8615	0.075	407723	keystroke_e	e	n/a
204.0265	0.105	408053	keystroke_d	d	n/a
204.1165	0.075	408233	keystroke_Key.space	Key.space	n/a
204.3115	0.075	408623	keystroke_c	c	n/a
204.4015	0.06	408803	keystroke_h	h	n/a
204.4915	0.06	408983	keystroke_r	r	n/a
204.566	0.105	409132	keystroke_i	i	n/a
204.641	0.105	409282	keystroke_s	s	n/a
204.881	0.075	409762	keystroke_t	t	n/a
204.926	0.12	409852	keystroke_i	i	n/a
204.986	0.12	409972	keystroke_n	n	n/a
205.136	0.12	410272	keystroke_a	a	n/a
205.286	0.105	410572	keystroke_Key.enter	Key.enter	n/a
205.3965	6.716	410793	prompt	n/a	symphony hotmail aged described\n
205.991	0.12	411982	keystroke_s	s	n/a
206.112	0.089	412224	keystroke_y	y	n/a
206.336	0.105	412672	keystroke_m	m	n/a
206.456	0.1655	412912	keystroke_p	p	n/a
206.6815	0.12	413363	keystroke_o	o	n/a
206.7415	0.195	413483	keystroke_h	h	n/a
207.2815	0.0595	414563	keystroke_Key.backspace	Key.backspace	n/a
207.416	0.06	414832	keystroke_Key.backspace	Key.backspace	n/a
207.641	0.135	415282	keystroke_h	h	n/a
207.746	0.135	415492	keystroke_o	o	n/a
207.836	0.21	415672	keystroke_n	n	n/a
208.226	0.105	416452	keystroke_y	y	n/a
208.361	0.105	416722	keystroke_Key.space	Key.space	n/a
208.556	0.1205	417112	keystroke_h	h	n/a
208.616	0.1355	417232	keystroke_o	o	n/a
208.7215	0.09	417443	keystroke_t	t	n/a
208.9915	0.135	417983	keystroke_m	m	n/a
209.1715	0.105	418343	keystroke_a	a	n/a
209.3065	0.12	418613	keystroke_i	i	n/a
209.3665	0.165	418733	keystroke_l	l	n/a
209.6065	0.105	419213	keystroke_Key.space	Key.space	n/a
209.8015	0.105	419603	keystroke_a	a	n/a
209.9815	0.09	419963	keystroke_g	g	n/a
210.1165	0.09	420233	keystroke_e	e	n/a
210.3115	0.09	420623	keystroke_d	d	n/a
210.491	0.03	420982	keystroke_Key.space	Key.space	n/a
210.656	0.075	421312	keystroke_d	d	n/a
210.836	0.12	421672	keystroke_e	e	n/a
210.896	0.12	421792	keystroke_s	s	n/a
211.226	0.075	422452	keystroke_c	c	n/a
211.421	0.075	422842	keystroke_r	r	n/a
211.481	0.075	422962	keystroke_i	i	n/a
211.631	0.135	423262	keystroke_b	b	n/a
211.751	0.075	423502	keystroke_e	e	n/a
211.901	0.105	423802	keystroke_d	d	n/a
212.021	0.09	424042	keystroke_Key.enter	Key.enter	n/a
212.116	4.5265	424232	prompt	n/a	barely metals lamps what've\n
212.786	0.105	425572	keystroke_b	b	n/a
212.876	0.105	425752	keystroke_a	a	n/a
213.071	0.135	426142	keystroke_r	r	n/a
213.131	0.135	426262	keystroke_e	e	n/a
213.296	0.135	426592	keystroke_l	l	n/a
213.432	0.104	426864	keystroke_y	y	n/a
213.581	0.09	427162	keystroke_Key.space	Key.space	n/a
213.776	0.09	427552	keystroke_m	m	n/a
213.851	0.105	427702	keystroke_e	e	n/a
214.1365	0.105	428273	keystroke_t	t	n/a
214.2265	0.15	428453	keystroke_a	a	n/a
214.4215	0.1045	428843	keystroke_l	l	n/a
214.541	0.12	429082	keystroke_s	s	n/a
214.676	0.09	429352	keystroke_Key.space	Key.space	n/a
214.811	0.12	429622	keystroke_l	l	n/a
214.932	0.104	429864	keystroke_a	a	n/a
215.051	0.15	430102	keystroke_m	m	n/a
215.141	0.15	430282	keystroke_p	p	n/a
215.306	0.105	430612	keystroke_s	s	n/a
215.412	0.104	430824	keystroke_Key.space	Key.space	n/a
215.636	0.09	431272	keystroke_w	w	n/a
215.727	0.104	431454	keystroke_h	h	n/a
215.846	0.105	431692	keystroke_a	a	n/a
215.906	0.105	431812	keystroke_t	t	n/a
216.191	0.105	432382	keystroke_'	'	n/a
216.326	0.105	432652	keystroke_v	v	n/a
216.386	0.12	432772	keystroke_e	e	n/a
216.551	0.09	433102	keystroke_Key.enter	Key.enter	n/a
216.6455	7.497	433291	prompt	n/a	broker collect makeup portfolio\n
217.271	0.09	434542	keystroke_b	b	n/a
217.376	0.075	434752	keystroke_r	r	n/a
217.436	0.105	434872	keystroke_o	o	n/a
217.571	0.135	435142	keystroke_k	k	n/a
217.721	0.09	435442	keystroke_e	e	n/a
217.766	0.105	435532	keystroke_r	r	n/a
217.931	0.12	435862	keystroke_Key.space	Key.space	n/a
218.156	0.105	436312	keystroke_c	c	n/a
218.306	0.09	436612	keystroke_o	o	n/a
218.6655	0.061	437331	keystroke_l	l	n/a
218.8015	0.119	437603	keystroke_l	l	n/a
218.9355	0.12	437871	keystroke_e	e	n/a
218.9955	0.105	437991	keystroke_c	c	n/a
219.2505	0.09	438501	keystroke_t	t	n/a
219.3555	0.09	438711	keystroke_Key.space	Key.space	n/a
219.5055	0.0905	439011	keystroke_m	m	n/a
219.626	0.09	439252	keystroke_a	a	n/a
219.701	0.075	439402	keystroke_k	k	n/a
219.8505	0.075	439701	keystroke_e	e	n/a
220.0755	0.091	440151	keystroke_u	u	n/a
220.1355	0.121	440271	keystroke_p	p	n/a
220.3155	0.105	440631	keystroke_Key.space	Key.space	n/a
220.571	0.09	441142	keystroke_p	p	n/a
220.706	0.09	441412	keystroke_r	r	n/a
220.751	0.12	441502	keystroke_o	o	n/a
221.186	0.045	442372	keystroke_Key.backspace	Key.backspace	n/a
221.291	0.045	442582	keystroke_Key.backspace	Key.backspace	n/a
221.516	0.105	443032	keystroke_o	o	n/a
221.636	0.06	443272	keystroke_r	r	n/a
221.921	0.075	443842	keystroke_t	t	n/a
222.311	0.075	444622	keystroke_f	f	n/a
222.371	0.09	444742	keystroke_o	o	n/a
222.7005	0.121	445401	keystroke_l	l	n/a
222.7905	0.135	445581	keystroke_i	i	n/a
222.9555	0.075	445911	keystroke_a	a	n/a
223.0905	0.075	446181	keystroke_o	o	n/a
223.4205	0.06	446841	keystroke_Key.backspace	Key.backspace	n/a
223.5565	0.059	447113	keystroke_Key.backspace	Key.backspace	n/a
223.8105	0.105	447621	keystroke_o	o	n/a
224.0355	0.105	448071	keystroke_Key.enter	Key.enter	n/a
224.145	4.7675	448290	prompt	n/a	michel why's barriers wishlist\n
224.9505	0.1055	449901	keystroke_m	m	n/a
225.026	0.12	450052	keystroke_i	i	n/a
225.1755	0.09	450351	keystroke_c	c	n/a
225.2815	0.104	450563	keystroke_h	h	n/a
225.4005	0.105	450801	keystroke_e	e	n/a
225.5355	0.15	451071	keystroke_l	l	n/a
225.6555	0.105	451311	keystroke_Key.space	Key.space	n/a
225.8355	0.09	451671	keystroke_w	w	n/a
225.9115	0.059	451823	keystroke_h	h	n/a
226.0455	0.105	452091	keystroke_y	y	n/a
226.2105	0.12	452421	keystroke_'	'	n/a
226.3455	0.105	452691	keystroke_s	s	n/a
226.4815	0.075	452963	keystroke_Key.space	Key.space	n/a
226.661	0.1055	453322	keystroke_b	b	n/a
226.721	0.1205	453442	keystroke_a	a	n/a
226.7815	0.09	453563	keystroke_r	r	n/a
226.9615	0.03	453923	keystroke_r	r	n/a
227.321	0.075	454642	keystroke_i	i	n/a
227.441	0.105	454882	keystroke_e	e	n/a
227.486	0.12	454972	keystroke_r	r	n/a
227.681	0.135	455362	keystroke_s	s	n/a
227.831	0.075	455662	keystroke_Key.space	Key.space	n/a
227.981	0.105	455962	keystroke_w	w	n/a
228.056	0.105	456112	keystroke_i	i	n/a
228.176	0.105	456352	keystroke_s	s	n/a
228.251	0.105	456502	keystroke_h	h	n/a
228.461	0.105	456922	keystroke_l	l	n/a
228.522	0.149	457044	keystroke_i	i	n/a
228.656	0.105	457312	keystroke_s	s	n/a
228.731	0.105	457462	keystroke_t	t	n/a
228.821	0.09	457642	keystroke_Key.enter	Key.enter	n/a
228.929	6.419	457858	prompt	n/a	coastal usps copying maui\n
229.9165	0.03	459833	keystroke_c	c	n/a
229.9315	0.03	459863	keystroke_o	o	n/a
229.9765	0.105	459953	keystroke_a	a	n/a
230.3965	0.135	460793	keystroke_s	s	n/a
230.5015	0.12	461003	keystroke_t	t	n/a
230.9215	0.09	461843	keystroke_a	a	n/a
231.0265	0.105	462053	keystroke_l	l	n/a
231.1765	0.12	462353	keystroke_Key.space	Key.space	n/a
231.7615	0.1195	463523	keystroke_u	u	n/a
231.896	0.105	463792	keystroke_s	s	n/a
232.046	0.12	464092	keystroke_p	p	n/a
232.211	0.12	464422	keystroke_s	s	n/a
232.421	0.105	464842	keystroke_Key.space	Key.space	n/a
232.721	0.09	465442	keystroke_c	c	n/a
232.781	0.09	465562	keystroke_o	o	n/a
232.946	0.105	465892	keystroke_p	p	n/a
233.126	0.135	466252	keystroke_i	i	n/a
233.1865	0.1495	466373	keystroke_n	n	n/a
233.321	0.12	466642	keystroke_g	g	n/a
233.442	0.089	466884	keystroke_Key.space	Key.space	n/a
233.636	0.09	467272	keystroke_m	m	n/a
233.756	0.105	467512	keystroke_a	a	n/a
234.056	0.12	468112	keystroke_i	i	n/a
234.206	0.12	468412	keystroke_u	u	n/a
234.536	0.075	469072	keystroke_Key.backspace	Key.backspace	n/a
234.671	0.075	469342	keystroke_Key.backspace	Key.backspace	n/a
234.896	0.12	469792	keystroke_u	u	n/a
234.941	0.135	469882	keystroke_i	i	n/a
235.226	0.12	470452	keystroke_Key.enter	Key.enter	n/a
235.3515	4.571	470703	prompt	n/a	washing pieces leeds humanities\n
236.141	0.09	472282	keystroke_w	w	n/a
236.216	0.12	472432	keystroke_a	a	n/a
236.306	0.135	472612	keystroke_s	s	n/a
236.396	0.1055	472792	keystroke_h	h	n/a
236.4715	0.15	472943	keystroke_i	i	n/a
236.5765	0.15	473153	keystroke_n	n	n/a
236.7115	0.09	473423	keystroke_g	g	n/a
236.7865	0.09	473573	keystroke_Key.space	Key.space	n/a
236.9065	0.105	473813	keystroke_p	p	n/a
236.9665	0.15	473933	keystroke_i	i	n/a
237.0715	0.075	474143	keystroke_e	e	n/a
237.1315	0.15	474263	keystroke_c	c	n/a
237.2665	0.165	474533	keystroke_e	e	n/a
237.3565	0.15	474713	keystroke_s	s	n/a
237.5215	0.075	475043	keystroke_Key.space	Key.space	n/a
237.671	0.12	475342	keystroke_l	l	n/a
237.731	0.075	475462	keystroke_e	e	n/a
237.866	0.075	475732	keystroke_e	e	n/a
238.046	0.135	476092	keystroke_d	d	n/a
238.106	0.135	476212	keystroke_s	s	n/a
238.256	0.075	476512	keystroke_Key.space	Key.space	n/a
238.436	0.1205	476872	keystroke_h	h	n/a
238.5265	0.075	477053	keystroke_u	u	n/a
238.7215	0.09	477443	keystroke_m	m	n/a
238.9915	0.09	477983	keystroke_a	a	n/a
239.0515	0.09	478103	keystroke_n	n	n/a
239.2765	0.09	478553	keystroke_i	i	n/a
239.4865	0.075	478973	keystroke_t	t	n/a
239.5465	0.105	479093	keystroke_i	i	n/a
239.6665	0.105	479333	keystroke_e	e	n/a
239.7265	0.105	479453	keystroke_s	s	n/a
239.8165	0.105	479633	keystroke_Key.enter	Key.enter	n/a
239.9255	6.6875	479851	prompt	n/a	sector identified reward principal\n
240.5965	0.105	481193	keystroke_s	s	n/a
240.6865	0.075	481373	keystroke_e	e	n/a
240.8515	0.09	481703	keystroke_c	c	n/a
241.0915	0.06	482183	keystroke_t	t	n/a
241.1665	0.09	482333	keystroke_o	o	n/a
241.2715	0.075	482543	keystroke_r	r	n/a
241.3615	0.075	482723	keystroke_Key.space	Key.space	n/a
241.5265	0.09	483053	keystroke_i	i	n/a
241.7065	0.075	483413	keystroke_d	d	n/a
241.8865	0.105	483773	keystroke_e	e	n/a
242.0065	0.075	484013	keystroke_n	n	n/a
242.3065	0.075	484613	keystroke_t	t	n/a
242.3665	0.09	484733	keystroke_i	i	n/a
242.651	0.09	485302	keystroke_f	f	n/a
242.726	0.105	485452	keystroke_i	i	n/a
242.846	0.0905	485692	keystroke_e	e	n/a
243.0265	0.0895	486053	keystroke_d	d	n/a
243.131	0.075	486262	keystroke_Key.space	Key.space	n/a
243.296	0.105	486592	keystroke_r	r	n/a
243.356	0.09	486712	keystroke_e	e	n/a
243.671	0.09	487342	keystroke_g	g	n/a
244.031	0.09	488062	keystroke_Key.backspace	Key.backspace	n/a
244.106	0.09	488212	keystroke_w	w	n/a
244.166	0.12	488332	keystroke_a	a	n/a
244.256	0.165	488512	keystroke_r	r	n/a
244.361	0.165	488722	keystroke_d	d	n/a
244.541	0.105	489082	keystroke_Key.space	Key.space	n/a
244.751	0.075	489502	keystroke_p	p	n/a
244.827	0.074	489654	keystroke_r	r	n/a
244.931	0.105	489862	keystroke_i	i	n/a
245.201	0.06	490402	keystroke_n	n	n/a
245.576	0.09	491152	keystroke_c	c	n/a
245.651	0.105	491302	keystroke_i	i	n/a
245.981	0.105	491962	keystroke_p	p	n/a
246.101	0.105	492202	keystroke_a	a	n/a
246.326	0.09	492652	keystroke_l	l	n/a
246.5215	0.09	493043	keystroke_Key.enter	Key.enter	n/a
246.617	5.576	493234	prompt	n/a	venice fountain soviet entered\n
247.4215	0.075	494843	keystroke_v	v	n/a
247.6015	0.09	495203	keystroke_e	e	n/a
247.7065	0.105	495413	keystroke_n	n	n/a
247.9915	0.105	495983	keystroke_i	i	n/a
248.1105	0.1055	496221	keystroke_c	c	n/a
248.1565	0.15	496313	keystroke_e	e	n/a
248.3215	0.06	496643	keystroke_Key.space	Key.space	n/a
248.5915	0.105	497183	keystroke_f	f	n/a
248.6515	0.075	497303	keystroke_o	o	n/a
248.6665	0.105	497333	keystroke_u	u	n/a
248.8615	0.105	497723	keystroke_n	n	n/a
249.1915	0.06	498383	keystroke_t	t	n/a
249.3265	0.105	498653	keystroke_a	a	n/a
249.4015	0.12	498803	keystroke_i	i	n/a
249.4465	0.15	498893	keystroke_n	n	n/a
249.5665	0.12	499133	keystroke_Key.space	Key.space	n/a
249.9265	0.0895	499853	keystroke_s	s	n/a
249.986	0.09	499972	keystroke_o	o	n/a
250.181	0.105	500362	keystroke_v	v	n/a
250.256	0.1055	500512	keystroke_i	i	n/a
250.436	0.105	500872	keystroke_e	e	n/a
250.496	0.105	500992	keystroke_t	t	n/a
250.631	0.105	501262	keystroke_Key.space	Key.space	n/a
250.916	0.075	501832	keystroke_e	e	n/a
251.006	0.09	502012	keystroke_n	n	n/a
251.141	0.075	502282	keystroke_t	t	n/a
251.3065	0.09	502613	keystroke_e	e	n/a
251.3815	0.15	502763	keystroke_r	r	n/a
251.5015	0.12	503003	keystroke_e	e	n/a
251.8615	0.09	503723	keystroke_d	d	n/a
252.1015	0.09	504203	keystroke_Key.enter	Key.enter	n/a
252.1965	5.9665	504393	prompt	n/a	threats felt bargains addressed\n
252.8815	0.075	505763	keystroke_t	t	n/a
252.9715	0.105	505943	keystroke_h	h	n/a
253.0915	0.165	506183	keystroke_r	r	n/a
253.1965	0.12	506393	keystroke_e	e	n/a
253.2865	0.12	506573	keystroke_a	a	n/a
253.3765	0.15	506753	keystroke_t	t	n/a
253.4815	0.06	506963	keystroke_e	e	n/a
253.8865	0.075	507773	keystroke_Key.backspace	Key.backspace	n/a
254.0065	0.12	508013	keystroke_s	s	n/a
254.1715	0.09	508343	keystroke_Key.space	Key.space	n/a
254.3365	0.12	508673	keystroke_f	f	n/a
254.4115	0.12	508823	keystroke_e	e	n/a
254.5165	0.09	509033	keystroke_l	l	n/a
255.0865	0.03	510173	keystroke_t	t	n/a
255.1465	0.09	510293	keystroke_Key.space	Key.space	n/a
255.3565	0.12	510713	keystroke_b	b	n/a
255.4465	0.105	510893	keystroke_a	a	n/a
255.5065	0.105	511013	keystroke_r	r	n/a
255.7765	0.015	511553	keystroke_g	g	n/a
256.1215	0.09	512243	keystroke_a	a	n/a
256.1965	0.12	512393	keystroke_i	i	n/a
256.2415	0.12	512483	keystroke_n	n	n/a
256.3765	0.105	512753	keystroke_s	s	n/a
256.5115	0.105	513023	keystroke_Key.space	Key.space	n/a
256.7215	0.09	513443	keystroke_a	a	n/a
256.9165	0.06	513833	keystroke_d	d	n/a
257.0365	0.075	514073	keystroke_d	d	n/a
257.201	0.12	514402	keystroke_r	r	n/a
257.276	0.105	514552	keystroke_e	e	n/a
257.471	0.06	514942	keystroke_s	s	n/a
257.621	0.075	515242	keystroke_s	s	n/a
257.7715	0.06	515543	keystroke_e	e	n/a
257.9205	0.091	515841	keystroke_d	d	n/a
258.0555	0.105	516111	keystroke_Key.enter	Key.enter	n/a
258.1655	8.037	516331	prompt	n/a	offered conspiracy wooden returned\n
258.7905	0.09	517581	keystroke_o	o	n/a
258.8655	0.0605	517731	keystroke_f	f	n/a
259.016	0.0595	518032	keystroke_f	f	n/a
259.151	0.075	518302	keystroke_e	e	n/a
259.196	0.12	518392	keystroke_r	r	n/a
259.331	0.09	518662	keystroke_e	e	n/a
259.631	0.12	519262	keystroke_c	c	n/a
259.736	0.09	519472	keystroke_e	e	n/a
260.096	0.06	520192	keystroke_Key.backspace	Key.backspace	n/a
260.246	0.06	520492	keystroke_Key.backspace	Key.backspace	n/a
260.366	0.06	520732	keystroke_e	e	n/a
260.501	0.105	521002	keystroke_d	d	n/a
260.651	0.105	521302	keystroke_Key.space	Key.space	n/a
261.2365	0.06	522473	keystroke_Key.backspace	Key.backspace	n/a
261.3715	0.06	522743	keystroke_Key.backspace	Key.backspace	n/a
261.5065	0.09	523013	keystroke_Key.backspace	Key.backspace	n/a
261.6565	0.09	523313	keystroke_d	d	n/a
261.836	0.09	523672	keystroke_Key.space	Key.space	n/a
262.241	0.105	524482	keystroke_c	c	n/a
262.301	0.091	524602	keystroke_o	o	n/a
262.331	0.121	524662	keystroke_n	n	n/a
262.5265	0.09	525053	keystroke_s	s	n/a
262.5715	0.105	525143	keystroke_p	p	n/a
262.7965	0.135	525593	keystroke_i	i	n/a
263.186	0.075	526372	keystroke_r	r	n/a
263.426	0.09	526852	keystroke_a	a	n/a
263.576	0.105	527152	keystroke_c	c	n/a
263.801	0.12	527602	keystroke_y	y	n/a
263.891	0.12	527782	keystroke_Key.space	Key.space	n/a
264.191	0.105	528382	keystroke_w	w	n/a
264.251	0.075	528502	keystroke_o	o	n/a
264.401	0.075	528802	keystroke_o	o	n/a
264.491	0.075	528982	keystroke_d	d	n/a
264.641	0.075	529282	keystroke_e	e	n/a
264.717	0.134	529434	keystroke_n	n	n/a
264.821	0.105	529642	keystroke_Key.space	Key.space	n/a
265.001	0.12	530002	keystroke_r	r	n/a
265.061	0.09	530122	keystroke_e	e	n/a
265.316	0.075	530632	keystroke_t	t	n/a
265.406	0.075	530812	keystroke_u	u	n/a
265.496	0.105	530992	keystroke_r	r	n/a
265.646	0.105	531292	keystroke_n	n	n/a
265.766	0.045	531532	keystroke_e	e	n/a
265.9315	0.06	531863	keystroke_d	d	n/a
266.1115	0.09	532223	keystroke_Key.enter	Key.enter	n/a
266.207	5.5455	532414	prompt	n/a	secretary gras blade drink\n
266.8765	0.105	533753	keystroke_s	s	n/a
266.9515	0.075	533903	keystroke_e	e	n/a
267.2065	0.09	534413	keystroke_c	c	n/a
267.4015	0.1045	534803	keystroke_r	r	n/a
267.446	0.09	534892	keystroke_e	e	n/a
267.9415	0.075	535883	keystroke_t	t	n/a
268.1515	0.12	536303	keystroke_a	a	n/a
268.3015	0.09	536603	keystroke_r	r	n/a
268.4365	0.105	536873	keystroke_y	y	n/a
268.5865	0.1045	537173	keystroke_Key.space	Key.space	n/a
269.006	0.06	538012	keystroke_g	g	n/a
269.1715	0.0895	538343	keystroke_r	r	n/a
269.246	0.135	538492	keystroke_a	a	n/a
269.366	0.12	538732	keystroke_s	s	n/a
269.576	0.075	539152	keystroke_Key.space	Key.space	n/a
269.906	0.1205	539812	keystroke_b	b	n/a
270.011	0.1505	540022	keystroke_l	l	n/a
270.1465	0.105	540293	keystroke_a	a	n/a
270.3865	0.0895	540773	keystroke_d	d	n/a
270.626	0.09	541252	keystroke_e	e	n/a
270.776	0.09	541552	keystroke_Key.space	Key.space	n/a
271.001	0.12	542002	keystroke_d	d	n/a
271.061	0.15	542122	keystroke_r	r	n/a
271.151	0.165	542302	keystroke_i	i	n/a
271.301	0.1655	542602	keystroke_n	n	n/a
271.4215	0.135	542843	keystroke_k	k	n/a
271.6915	0.06	543383	keystroke_Key.enter	Key.enter	n/a
271.7575	8.4105	543515	prompt	n/a	baker bloomberg philosophy passes\n
272.531	0.09	545062	keystroke_b	b	n/a
272.606	0.09	545212	keystroke_a	a	n/a
273.026	0.091	546052	keystroke_k	k	n/a
273.132	0.119	546264	keystroke_e	e	n/a
273.191	0.105	546382	keystroke_r	r	n/a
273.341	0.075	546682	keystroke_Key.space	Key.space	n/a
273.521	0.061	547042	keystroke_b	b	n/a
273.566	0.09	547132	keystroke_l	l	n/a
273.731	0.061	547462	keystroke_o	o	n/a
273.867	0.074	547734	keystroke_o	o	n/a
274.047	0.0895	548094	keystroke_k	k	n/a
274.4965	0.0745	548993	keystroke_Key.backspace	Key.backspace	n/a
274.7215	0.105	549443	keystroke_m	m	n/a
274.977	0.09	549954	keystroke_b	b	n/a
275.067	0.1045	550134	keystroke_e	e	n/a
275.1115	0.105	550223	keystroke_r	r	n/a
275.3215	0.09	550643	keystroke_g	g	n/a
275.666	0.09	551332	keystroke_Key.space	Key.space	n/a
275.981	0.12	551962	keystroke_p	p	n/a
276.056	0.12	552112	keystroke_h	h	n/a
276.191	0.15	552382	keystroke_i	i	n/a
276.476	0.105	552952	keystroke_l	l	n/a
276.806	0.0155	553612	keystroke_o	o	n/a
276.9865	0.105	553973	keystroke_g	g	n/a
277.1215	0.105	554243	keystroke_o	o	n/a
277.706	0.045	555412	keystroke_Key.backspace	Key.backspace	n/a
277.841	0.0755	555682	keystroke_Key.backspace	Key.backspace	n/a
278.3815	0.09	556763	keystroke_s	s	n/a
278.4565	0.0895	556913	keystroke_o	o	n/a
278.6515	0.135	557303	keystroke_p	p	n/a
278.7265	0.12	557453	keystroke_h	h	n/a
278.966	0.121	557932	keystroke_y	y	n/a
279.146	0.135	558292	keystroke_Key.space	Key.space	n/a
279.446	0.135	558892	keystroke_p	p	n/a
279.521	0.09	559042	keystroke_a	a	n/a
279.596	0.075	559192	keystroke_s	s	n/a
279.731	0.075	559462	keystroke_s	s	n/a
279.926	0.1055	559852	keystroke_e	e	n/a
279.971	0.1355	559942	keystroke_s	s	n/a
280.0765	0.09	560153	keystroke_Key.enter	Key.enter	n/a
280.173	5.1545	560346	prompt	n/a	provide shan't scanners plots\n
280.766	0.075	561532	keystroke_p	p	n/a
280.856	0.06	561712	keystroke_r	r	n/a
280.886	0.105	561772	keystroke_o	o	n/a
281.066	0.1205	562132	keystroke_v	v	n/a
281.1865	0.105	562373	keystroke_i	i	n/a
281.3065	0.075	562613	keystroke_d	d	n/a
281.5015	0.045	563003	keystroke_e	e	n/a
281.6065	0.09	563213	keystroke_Key.space	Key.space	n/a
281.7565	0.0745	563513	keystroke_s	s	n/a
281.816	0.09	563632	keystroke_h	h	n/a
281.936	0.105	563872	keystroke_a	a	n/a
282.011	0.105	564022	keystroke_n	n	n/a
282.296	0.09	564592	keystroke_'	'	n/a
282.431	0.0905	564862	keystroke_t	t	n/a
282.6415	0.075	565283	keystroke_Key.space	Key.space	n/a
283.0615	0.12	566123	keystroke_s	s	n/a
283.1665	0.075	566333	keystroke_c	c	n/a
283.3165	0.12	566633	keystroke_a	a	n/a
283.3615	0.09	566723	keystroke_n	n	n/a
283.5115	0.105	567023	keystroke_n	n	n/a
283.6315	0.105	567263	keystroke_e	e	n/a
283.6915	0.075	567383	keystroke_r	r	n/a
283.8565	0.105	567713	keystroke_s	s	n/a
283.9765	0.09	567953	keystroke_Key.space	Key.space	n/a
284.4115	0.165	568823	keystroke_p	p	n/a
284.4265	0.135	568853	keystroke_l	l	n/a
284.9215	0.12	569843	keystroke_o	o	n/a
285.0265	0.135	570053	keystroke_t	t	n/a
285.1015	0.12	570203	keystroke_s	s	n/a
285.2065	0.12	570413	keystroke_Key.enter	Key.enter	n/a
285.3325	6.5505	570665	prompt	n/a	rugs decreased lions petersburg\n
286.016	0.09	572032	keystroke_r	r	n/a
286.076	0.105	572152	keystroke_u	u	n/a
286.196	0.1355	572392	keystroke_g	g	n/a
286.2865	0.15	572573	keystroke_s	s	n/a
286.4065	0.105	572813	keystroke_Key.space	Key.space	n/a
286.5715	0.06	573143	keystroke_d	d	n/a
286.7065	0.075	573413	keystroke_e	e	n/a
286.9315	0.075	573863	keystroke_s	s	n/a
287.2465	0.075	574493	keystroke_Key.backspace	Key.backspace	n/a
287.2765	0.075	574553	keystroke_c	c	n/a
287.4715	0.12	574943	keystroke_r	r	n/a
287.7565	0.12	575513	keystroke_e	e	n/a
287.8615	0.12	575723	keystroke_a	a	n/a
288.1015	0.09	576203	keystroke_s	s	n/a
288.1465	0.105	576293	keystroke_e	e	n/a
288.3115	0.135	576623	keystroke_d	d	n/a
288.4765	0.0895	576953	keystroke_Key.space	Key.space	n/a
288.686	0.075	577372	keystroke_l	l	n/a
288.716	0.135	577432	keystroke_i	i	n/a
288.941	0.12	577882	keystroke_o	o	n/a
289.016	0.136	578032	keystroke_n	n	n/a
289.136	0.106	578272	keystroke_s	s	n/a
289.301	0.0755	578602	keystroke_Key.space	Key.space	n/a
289.4815	0.105	578963	keystroke_p	p	n/a
289.5415	0.105	579083	keystroke_e	e	n/a
289.7815	0.06	579563	keystroke_t	t	n/a
289.9015	0.09	579803	keystroke_e	e	n/a
289.9615	0.09	579923	keystroke_r	r	n/a
290.4415	0.09	580883	keystroke_s	s	n/a
290.8015	0.105	581603	keystroke_b	b	n/a
291.3115	0.105	582623	keystroke_u	u	n/a
291.4315	0.09	582863	keystroke_r	r	n/a
291.6565	0.075	583313	keystroke_g	g	n/a
291.7765	0.105	583553	keystroke_Key.enter	Key.enter	n/a
291.8875	5.5905	583775	prompt	n/a	grocery vertex buyer unity\n
292.5865	0.06	585173	keystroke_g	g	n/a
292.7215	0.09	585443	keystroke_r	r	n/a
292.7665	0.105	585533	keystroke_o	o	n/a
292.9915	0.075	585983	keystroke_c	c	n/a
293.1415	0.09	586283	keystroke_e	e	n/a
293.2015	0.12	586403	keystroke_r	r	n/a
293.2915	0.12	586583	keystroke_y	y	n/a
293.4115	0.105	586823	keystroke_Key.space	Key.space	n/a
293.7415	0.06	587483	keystroke_v	v	n/a
293.8615	0.12	587723	keystroke_e	e	n/a
293.9365	0.09	587873	keystroke_r	r	n/a
294.341	0.075	588682	keystroke_t	t	n/a
294.401	0.09	588802	keystroke_e	e	n/a
294.6565	0.09	589313	keystroke_x	x	n/a
294.8815	0.075	589763	keystroke_Key.space	Key.space	n/a
295.0765	0.09	590153	keystroke_b	b	n/a
295.1665	0.165	590333	keystroke_u	u	n/a
295.2715	0.1645	590543	keystroke_y	y	n/a
295.466	0.12	590932	keystroke_e	e	n/a
295.541	0.12	591082	keystroke_r	r	n/a
295.691	0.105	591382	keystroke_Key.space	Key.space	n/a
296.021	0.135	592042	keystroke_i	i	n/a
296.051	0.09	592102	keystroke_n	n	n/a
296.396	0.0755	592792	keystroke_Key.backspace	Key.backspace	n/a
296.546	0.06	593092	keystroke_Key.backspace	Key.backspace	n/a
296.786	0.09	593572	keystroke_u	u	n/a
296.816	0.09	593632	keystroke_n	n	n/a
296.966	0.105	593932	keystroke_i	i	n/a
297.086	0.09	594172	keystroke_t	t	n/a
297.191	0.091	594382	keystroke_y	y	n/a
297.3415	0.135	594683	keystroke_Key.enter	Key.enter	n/a
297.4845	5.7385	594969	prompt	n/a	folk parameters hypothesis bowl\n
298.1965	0.09	596393	keystroke_f	f	n/a
298.2415	0.105	596483	keystroke_o	o	n/a
298.407	0.075	596814	keystroke_l	l	n/a
298.526	0.166	597052	keystroke_k	k	n/a
298.811	0.091	597622	keystroke_Key.space	Key.space	n/a
299.066	0.106	598132	keystroke_p	p	n/a
299.127	0.104	598254	keystroke_a	a	n/a
299.187	0.1045	598374	keystroke_r	r	n/a
299.3365	0.105	598673	keystroke_a	a	n/a
299.6365	0.09	599273	keystroke_m	m	n/a
299.7275	0.089	599455	keystroke_e	e	n/a
300.0265	0.075	600053	keystroke_t	t	n/a
300.1765	0.09	600353	keystroke_e	e	n/a
300.2215	0.09	600443	keystroke_r	r	n/a
300.3715	0.12	600743	keystroke_s	s	n/a
300.5215	0.06	601043	keystroke_Key.space	Key.space	n/a
300.9115	0.06	601823	keystroke_h	h	n/a
301.0315	0.09	602063	keystroke_y	y	n/a
301.2865	0.105	602573	keystroke_p	p	n/a
301.3765	0.105	602753	keystroke_o	o	n/a
301.7065	0.09	603413	keystroke_t	t	n/a
301.8115	0.09	603623	keystroke_h	h	n/a
301.8715	0.09	603743	keystroke_e	e	n/a
302.1565	0.06	604313	keystroke_s	s	n/a
302.2315	0.09	604463	keystroke_i	i	n/a
302.3065	0.09	604613	keystroke_s	s	n/a
302.4115	0.105	604823	keystroke_Key.space	Key.space	n/a
302.6815	0.09	605363	keystroke_b	b	n/a
302.7415	0.1345	605483	keystroke_o	o	n/a
302.861	0.105	605722	keystroke_w	w	n/a
302.967	0.089	605934	keystroke_l	l	n/a
303.146	0.075	606292	keystroke_Key.enter	Key.enter	n/a
303.2255	6.3275	606451	prompt	n/a	timeline wellington static glossary\n
303.866	0.09	607732	keystroke_t	t	n/a
303.926	0.135	607852	keystroke_i	i	n/a
303.971	0.1505	607942	keystroke_m	m	n/a
304.0765	0.12	608153	keystroke_e	e	n/a
304.3615	0.09	608723	keystroke_p	p	n/a
304.7665	0.075	609533	keystroke_Key.backspace	Key.backspace	n/a
305.0215	0.135	610043	keystroke_l	l	n/a
305.0665	0.135	610133	keystroke_i	i	n/a
305.1265	0.165	610253	keystroke_n	n	n/a
305.2315	0.105	610463	keystroke_e	e	n/a
305.3665	0.0905	610733	keystroke_Key.space	Key.space	n/a
305.517	0.12	611034	keystroke_w	w	n/a
305.577	0.105	611154	keystroke_e	e	n/a
305.652	0.06	611304	keystroke_l	l	n/a
305.787	0.09	611574	keystroke_l	l	n/a
305.967	0.105	611934	keystroke_i	i	n/a
305.997	0.135	611994	keystroke_n	n	n/a
306.147	0.105	612294	keystroke_g	g	n/a
306.387	0.0895	612774	keystroke_t	t	n/a
306.447	0.0895	612894	keystroke_o	o	n/a
306.4765	0.15	612953	keystroke_n	n	n/a
306.6415	0.09	613283	keystroke_Key.space	Key.space	n/a
306.7915	0.12	613583	keystroke_s	s	n/a
306.8665	0.09	613733	keystroke_t	t	n/a
307.0015	0.15	614003	keystroke_a	a	n/a
307.1365	0.105	614273	keystroke_t	t	n/a
307.4665	0.09	614933	keystroke_i	i	n/a
307.5715	0.105	615143	keystroke_c	c	n/a
307.9315	0.09	615863	keystroke_Key.space	Key.space	n/a
308.1415	0.0895	616283	keystroke_g	g	n/a
308.216	0.075	616432	keystroke_l	l	n/a
308.561	0.105	617122	keystroke_o	o	n/a
308.801	0.06	617602	keystroke_s	s	n/a
308.951	0.076	617902	keystroke_s	s	n/a
309.101	0.105	618202	keystroke_a	a	n/a
309.146	0.15	618292	keystroke_r	r	n/a
309.251	0.0905	618502	keystroke_y	y	n/a
309.4465	0.105	618893	keystroke_Key.enter	Key.enter	n/a
309.557	6.611	619114	prompt	n/a	bean favors muscle instructional\n
310.1815	0.09	620363	keystroke_b	b	n/a
310.2415	0.12	620483	keystroke_e	e	n/a
310.3015	0.135	620603	keystroke_a	a	n/a
310.3915	0.165	620783	keystroke_n	n	n/a
310.5415	0.12	621083	keystroke_Key.space	Key.space	n/a
311.006	0.105	622012	keystroke_f	f	n/a
311.066	0.105	622132	keystroke_a	a	n/a
311.486	0.015	622972	keystroke_c	c	n/a
311.981	0.09	623962	keystroke_Key.backspace	Key.backspace	n/a
312.117	0.104	624234	keystroke_v	v	n/a
312.251	0.105	624502	keystroke_o	o	n/a
312.372	0.1345	624744	keystroke_r	r	n/a
312.462	0.1345	624924	keystroke_s	s	n/a
312.5965	0.09	625193	keystroke_Key.space	Key.space	n/a
312.9565	0.075	625913	keystroke_m	m	n/a
313.121	0.091	626242	keystroke_u	u	n/a
313.406	0.015	626812	keystroke_s	s	n/a
313.676	0.075	627352	keystroke_c	c	n/a
313.856	0.12	627712	keystroke_l	l	n/a
313.946	0.106	627892	keystroke_e	e	n/a
314.126	0.075	628252	keystroke_Key.space	Key.space	n/a
314.411	0.1055	628822	keystroke_i	i	n/a
314.441	0.1355	628882	keystroke_n	n	n/a
314.6215	0.15	629243	keystroke_s	s	n/a
314.7415	0.09	629483	keystroke_t	t	n/a
314.9515	0.075	629903	keystroke_r	r	n/a
315.0415	0.1045	630083	keystroke_u	u	n/a
315.206	0.12	630412	keystroke_c	c	n/a
315.491	0.06	630982	keystroke_t	t	n/a
315.536	0.09	631072	keystroke_i	i	n/a
315.581	0.105	631162	keystroke_o	o	n/a
315.611	0.165	631222	keystroke_n	n	n/a
315.791	0.12	631582	keystroke_a	a	n/a
315.896	0.09	631792	keystroke_l	l	n/a
316.076	0.09	632152	keystroke_Key.enter	Key.enter	n/a
316.1705	4.4825	632341	prompt	n/a	cameron trace uniform sporting\n
316.8265	0.09	633653	keystroke_c	c	n/a
316.9915	0.105	633983	keystroke_a	a	n/a
317.1115	0.12	634223	keystroke_m	m	n/a
317.2615	0.09	634523	keystroke_e	e	n/a
317.3065	0.105	634613	keystroke_r	r	n/a
317.4565	0.105	634913	keystroke_o	o	n/a
317.5015	0.165	635003	keystroke_n	n	n/a
317.726	0.09	635452	keystroke_Key.space	Key.space	n/a
317.921	0.06	635842	keystroke_t	t	n/a
318.056	0.105	636112	keystroke_r	r	n/a
318.146	0.09	636292	keystroke_a	a	n/a
318.281	0.1355	636562	keystroke_c	c	n/a
318.3715	0.12	636743	keystroke_e	e	n/a
318.5065	0.105	637013	keystroke_Key.space	Key.space	n/a
318.8215	0.09	637643	keystroke_u	u	n/a
318.8665	0.075	637733	keystroke_n	n	n/a
318.9865	0.135	637973	keystroke_i	i	n/a
319.1965	0.09	638393	keystroke_f	f	n/a
319.3015	0.09	638603	keystroke_o	o	n/a
319.3615	0.09	638723	keystroke_r	r	n/a
319.4665	0.12	638933	keystroke_m	m	n/a
319.6615	0.075	639323	keystroke_Key.space	Key.space	n/a
319.7965	0.105	639593	keystroke_s	s	n/a
319.8715	0.09	639743	keystroke_p	p	n/a
319.9165	0.135	639833	keystroke_o	o	n/a
320.0665	0.075	640133	keystroke_r	r	n/a
320.2015	0.09	640403	keystroke_t	t	n/a
320.2925	0.119	640585	keystroke_i	i	n/a
320.3215	0.135	640643	keystroke_n	n	n/a
320.4265	0.105	640853	keystroke_g	g	n/a
320.5315	0.12	641063	keystroke_Key.enter	Key.enter	n/a
320.6635	7.1295	641327	prompt	n/a	posted uzbekistan hints narrow\n
321.1915	0.105	642383	keystroke_p	p	n/a
321.2665	0.165	642533	keystroke_o	o	n/a
321.4165	0.09	642833	keystroke_s	s	n/a
321.4915	0.1495	642983	keystroke_t	t	n/a
321.596	0.09	643192	keystroke_e	e	n/a
321.761	0.1055	643522	keystroke_d	d	n/a
321.9115	0.075	643823	keystroke_Key.space	Key.space	n/a
322.1515	0.12	644303	keystroke_u	u	n/a
322.6315	0.105	645263	keystroke_x	x	n/a
323.2165	0.09	646433	keystroke_Key.backspace	Key.backspace	n/a
323.2915	0.106	646583	keystroke_z	z	n/a
323.5765	0.09	647153	keystroke_b	b	n/a
323.6965	0.09	647393	keystroke_e	e	n/a
324.0265	0.09	648053	keystroke_k	k	n/a
324.2215	0.09	648443	keystroke_i	i	n/a
324.3715	0.105	648743	keystroke_s	s	n/a
324.6265	0.09	649253	keystroke_t	t	n/a
324.7615	0.1345	649523	keystroke_a	a	n/a
324.911	0.15	649822	keystroke_n	n	n/a
325.151	0.09	650302	keystroke_Key.space	Key.space	n/a
326.261	0.09	652522	keystroke_h	h	n/a
326.321	0.15	652642	keystroke_i	i	n/a
326.426	0.18	652852	keystroke_n	n	n/a
326.546	0.18	653092	keystroke_t	t	n/a
326.621	0.165	653242	keystroke_s	s	n/a
326.801	0.1055	653602	keystroke_Key.space	Key.space	n/a
327.1165	0.09	654233	keystroke_n	n	n/a
327.2065	0.1195	654413	keystroke_a	a	n/a
327.2965	0.045	654593	keystroke_r	r	n/a
327.4315	0.06	654863	keystroke_r	r	n/a
327.5215	0.075	655043	keystroke_o	o	n/a
327.5815	0.105	655163	keystroke_w	w	n/a
327.6865	0.105	655373	keystroke_Key.enter	Key.enter	n/a
327.7955	6.5825	655591	prompt	n/a	oval gzip guyana regulated\n
328.4215	0.12	656843	keystroke_o	o	n/a
328.5715	0.12	657143	keystroke_v	v	n/a
328.6615	0.135	657323	keystroke_a	a	n/a
328.8115	0.09	657623	keystroke_l	l	n/a
328.9315	0.09	657863	keystroke_Key.space	Key.space	n/a
330.0565	0.075	660113	keystroke_g	g	n/a
330.3265	0.105	660653	keystroke_z	z	n/a
330.4165	0.0895	660833	keystroke_i	i	n/a
330.4765	0.1195	660953	keystroke_p	p	n/a
330.851	0.105	661702	keystroke_Key.space	Key.space	n/a
331.466	0.075	662932	keystroke_g	g	n/a
331.511	0.135	663022	keystroke_u	u	n/a
331.586	0.135	663172	keystroke_y	y	n/a
332.036	0.105	664072	keystroke_a	a	n/a
332.142	0.134	664284	keystroke_n	n	n/a
332.246	0.105	664492	keystroke_a	a	n/a
332.6365	0.09	665273	keystroke_Key.space	Key.space	n/a
333.086	0.105	666172	keystroke_r	r	n/a
333.146	0.12	666292	keystroke_e	e	n/a
333.461	0.09	666922	keystroke_g	g	n/a
333.536	0.12	667072	keystroke_u	u	n/a
333.641	0.18	667282	keystroke_l	l	n/a
333.776	0.105	667552	keystroke_a	a	n/a
333.971	0.09	667942	keystroke_t	t	n/a
334.031	0.0455	668062	keystroke_e	e	n/a
334.1515	0.105	668303	keystroke_d	d	n/a
334.2715	0.105	668543	keystroke_Key.enter	Key.enter	n/a
334.382	7.961	668764	prompt	n/a	atlantic polyphonic procedure picks\n
335.1265	0.12	670253	keystroke_a	a	n/a
335.276	0.105	670552	keystroke_t	t	n/a
335.411	0.106	670822	keystroke_l	l	n/a
335.5465	0.105	671093	keystroke_a	a	n/a
335.6215	0.12	671243	keystroke_n	n	n/a
335.9065	0.075	671813	keystroke_t	t	n/a
335.9965	0.105	671993	keystroke_i	i	n/a
336.1165	0.09	672233	keystroke_c	c	n/a
336.2215	0.09	672443	keystroke_Key.space	Key.space	n/a
336.4315	0.1055	672863	keystroke_o	o	n/a
336.822	0.075	673644	keystroke_Key.backspace	Key.backspace	n/a
337.107	0.105	674214	keystroke_p	p	n/a
337.197	0.135	674394	keystroke_o	o	n/a
337.437	0.15	674874	keystroke_l	l	n/a
337.617	0.09	675234	keystroke_y	y	n/a
337.857	0.105	675714	keystroke_p	p	n/a
337.932	0.105	675864	keystroke_h	h	n/a
338.007	0.15	676014	keystroke_o	o	n/a
338.292	0.105	676584	keystroke_n	n	n/a
338.487	0.15	676974	keystroke_i	i	n/a
338.607	0.105	677214	keystroke_c	c	n/a
338.786	0.106	677572	keystroke_Key.space	Key.space	n/a
339.012	0.09	678024	keystroke_p	p	n/a
339.117	0.105	678234	keystroke_r	r	n/a
339.177	0.12	678354	keystroke_o	o	n/a
339.491	0.06	678982	keystroke_d	d	n/a
339.716	0.09	679432	keystroke_Key.backspace	Key.backspace	n/a
339.791	0.09	679582	keystroke_c	c	n/a
339.851	0.105	679702	keystroke_e	e	n/a
340.256	0.075	680512	keystroke_d	d	n/a
340.451	0.0905	680902	keystroke_u	u	n/a
340.5565	0.135	681113	keystroke_r	r	n/a
340.6315	0.105	681263	keystroke_e	e	n/a
340.7665	0.12	681533	keystroke_Key.space	Key.space	n/a
341.0515	0.075	682103	keystroke_p	p	n/a
341.1715	0.09	682343	keystroke_r	r	n/a
341.6665	0.06	683333	keystroke_Key.backspace	Key.backspace	n/a
341.8465	0.105	683693	keystroke_i	i	n/a
341.9215	0.09	683843	keystroke_c	c	n/a
342.0415	0.09	684083	keystroke_k	k	n/a
342.117	0.0895	684234	keystroke_s	s	n/a
342.2365	0.105	684473	keystroke_Key.enter	Key.enter	n/a
342.346	5.217	684692	prompt	n/a	productions prepared unlikely folding\n
342.9565	0.09	685913	keystroke_p	p	n/a
343.0615	0.0595	686123	keystroke_r	r	n/a
343.1065	0.0895	686213	keystroke_o	o	n/a
343.2865	0.0745	686573	keystroke_d	d	n/a
343.346	0.0905	686692	keystroke_u	u	n/a
343.466	0.0755	686932	keystroke_c	c	n/a
343.6765	0.06	687353	keystroke_t	t	n/a
343.721	0.1055	687442	keystroke_i	i	n/a
343.7665	0.09	687533	keystroke_o	o	n/a
343.781	0.1805	687562	keystroke_n	n	n/a
343.962	0.104	687924	keystroke_s	s	n/a
344.0815	0.075	688163	keystroke_Key.space	Key.space	n/a
344.1865	0.12	688373	keystroke_p	p	n/a
344.2615	0.09	688523	keystroke_r	r	n/a
344.3065	0.09	688613	keystroke_e	e	n/a
344.5465	0.09	689093	keystroke_p	p	n/a
344.6515	0.09	689303	keystroke_a	a	n/a
344.8015	0.12	689603	keystroke_r	r	n/a
344.8765	0.0905	689753	keystroke_e	e	n/a
345.0415	0.105	690083	keystroke_d	d	n/a
345.1765	0.105	690353	keystroke_Key.space	Key.space	n/a
345.3415	0.105	690683	keystroke_u	u	n/a
345.4015	0.105	690803	keystroke_n	n	n/a
345.5815	0.12	691163	keystroke_l	l	n/a
345.6565	0.12	691313	keystroke_i	i	n/a
345.8065	0.135	691613	keystroke_k	k	n/a
345.9265	0.105	691853	keystroke_e	e	n/a
346.0465	0.12	692093	keystroke_l	l	n/a
346.1815	0.09	692363	keystroke_y	y	n/a
346.3165	0.0895	692633	keystroke_Key.space	Key.space	n/a
346.7215	0.09	693443	keystroke_f	f	n/a
346.7965	0.105	693593	keystroke_o	o	n/a
346.9315	0.135	693863	keystroke_l	l	n/a
347.0815	0.09	694163	keystroke_d	d	n/a
347.1415	0.12	694283	keystroke_i	i	n/a
347.1865	0.15	694373	keystroke_n	n	n/a
347.3065	0.12	694613	keystroke_g	g	n/a
347.4715	0.09	694943	keystroke_Key.enter	Key.enter	n/a
347.5655	5.0075	695131	prompt	n/a	helping salary jump double\n
348.162	0.09	696324	keystroke_h	h	n/a
348.236	0.09	696472	keystroke_e	e	n/a
348.327	0.074	696654	keystroke_l	l	n/a
348.476	0.076	696952	keystroke_p	p	n/a
348.6415	0.105	697283	keystroke_i	i	n/a
348.6865	0.135	697373	keystroke_n	n	n/a
348.7765	0.105	697553	keystroke_g	g	n/a
348.9115	0.105	697823	keystroke_Key.space	Key.space	n/a
349.0615	0.09	698123	keystroke_s	s	n/a
349.1815	0.12	698363	keystroke_l	l	n/a
349.2415	0.135	698483	keystroke_a	a	n/a
349.6315	0.0745	699263	keystroke_Key.backspace	Key.backspace	n/a
349.766	0.06	699532	keystroke_Key.backspace	Key.backspace	n/a
349.857	0.104	699714	keystroke_a	a	n/a
349.946	0.1355	699892	keystroke_l	l	n/a
350.0825	0.134	700165	keystroke_a	a	n/a
350.1565	0.09	700313	keystroke_r	r	n/a
350.4265	0.135	700853	keystroke_y	y	n/a
350.6065	0.09	701213	keystroke_Key.space	Key.space	n/a
350.8315	0.075	701663	keystroke_j	j	n/a
350.9665	0.09	701933	keystroke_u	u	n/a
351.176	0.09	702352	keystroke_m	m	n/a
351.236	0.135	702472	keystroke_p	p	n/a
351.596	0.075	703192	keystroke_Key.space	Key.space	n/a
351.866	0.0905	703732	keystroke_d	d	n/a
351.9115	0.105	703823	keystroke_o	o	n/a
351.9865	0.075	703973	keystroke_u	u	n/a
352.1515	0.105	704303	keystroke_b	b	n/a
352.2415	0.1195	704483	keystroke_l	l	n/a
352.346	0.06	704692	keystroke_e	e	n/a
352.451	0.12	704902	keystroke_Key.enter	Key.enter	n/a
352.576	3.777	705152	prompt	n/a	spot phrases thus paso\n
353.216	0.105	706432	keystroke_s	s	n/a
353.276	0.09	706552	keystroke_p	p	n/a
353.396	0.165	706792	keystroke_o	o	n/a
353.531	0.135	707062	keystroke_t	t	n/a
353.801	0.105	707602	keystroke_Key.space	Key.space	n/a
354.146	0.105	708292	keystroke_p	p	n/a
354.266	0.135	708532	keystroke_h	h	n/a
354.386	0.09	708772	keystroke_r	r	n/a
354.461	0.12	708922	keystroke_a	a	n/a
354.656	0.1055	709312	keystroke_s	s	n/a
354.7315	0.09	709463	keystroke_e	e	n/a
354.8965	0.105	709793	keystroke_d	d	n/a
355.047	0.0895	710094	keystroke_Key.space	Key.space	n/a
355.227	0.0745	710454	keystroke_t	t	n/a
355.2865	0.12	710573	keystroke_h	h	n/a
355.3615	0.15	710723	keystroke_u	u	n/a
355.4665	0.105	710933	keystroke_s	s	n/a
355.6015	0.075	711203	keystroke_Key.space	Key.space	n/a
355.7065	0.12	711413	keystroke_p	p	n/a
355.8115	0.1355	711623	keystroke_a	a	n/a
355.902	0.12	711804	keystroke_s	s	n/a
356.037	0.105	712074	keystroke_o	o	n/a
356.232	0.12	712464	keystroke_Key.enter	Key.enter	n/a
356.356	6.972	712712	prompt	n/a	dependence cancer mail analyzed\n
356.922	0.075	713844	keystroke_d	d	n/a
357.072	0.075	714144	keystroke_e	e	n/a
357.162	0.105	714324	keystroke_p	p	n/a
357.222	0.105	714444	keystroke_e	e	n/a
357.477	0.105	714954	keystroke_n	n	n/a
357.807	0.09	715614	keystroke_d	d	n/a
358.017	0.09	716034	keystroke_e	e	n/a
358.122	0.075	716244	keystroke_n	n	n/a
358.212	0.135	716424	keystroke_c	c	n/a
358.287	0.12	716574	keystroke_e	e	n/a
358.422	0.075	716844	keystroke_Key.space	Key.space	n/a
358.572	0.1195	717144	keystroke_c	c	n/a
358.6465	0.105	717293	keystroke_a	a	n/a
358.7065	0.12	717413	keystroke_n	n	n/a
359.0665	0.075	718133	keystroke_e	e	n/a
359.1115	0.09	718223	keystroke_r	r	n/a
359.3965	0.06	718793	keystroke_Key.backspace	Key.backspace	n/a
359.5315	0.06	719063	keystroke_Key.backspace	Key.backspace	n/a
359.5615	0.09	719123	keystroke_c	c	n/a
359.7415	0.09	719483	keystroke_e	e	n/a
359.8015	0.105	719603	keystroke_r	r	n/a
360.072	0.06	720144	keystroke_Key.space	Key.space	n/a
360.282	0.09	720564	keystroke_m	m	n/a
360.386	0.106	720772	keystroke_a	a	n/a
360.492	0.1195	720984	keystroke_i	i	n/a
360.5665	0.165	721133	keystroke_l	l	n/a
360.7165	0.09	721433	keystroke_e	e	n/a
360.9115	0.0595	721823	keystroke_d	d	n/a
361.226	0.06	722452	keystroke_Key.backspace	Key.backspace	n/a
361.361	0.075	722722	keystroke_Key.backspace	Key.backspace	n/a
361.7515	0.135	723503	keystroke_Key.space	Key.space	n/a
361.9915	0.105	723983	keystroke_a	a	n/a
362.0815	0.09	724163	keystroke_n	n	n/a
362.1865	0.09	724373	keystroke_a	a	n/a
362.4715	0.135	724943	keystroke_l	l	n/a
362.5915	0.12	725183	keystroke_y	y	n/a
362.8465	0.075	725693	keystroke_z	z	n/a
363.0115	0.06	726023	keystroke_e	e	n/a
363.1315	0.105	726263	keystroke_d	d	n/a
363.2215	0.105	726443	keystroke_Key.enter	Key.enter	n/a
363.3305	5.3975	726661	prompt	n/a	slowly dallas slovak aspects\n
363.9415	0.075	727883	keystroke_s	s	n/a
363.9865	0.0745	727973	keystroke_l	l	n/a
364.136	0.105	728272	keystroke_o	o	n/a
364.6765	0.105	729353	keystroke_w	w	n/a
364.8565	0.135	729713	keystroke_l	l	n/a
364.9765	0.075	729953	keystroke_y	y	n/a
365.1115	0.12	730223	keystroke_Key.space	Key.space	n/a
365.2915	0.12	730583	keystroke_d	d	n/a
365.4415	0.135	730883	keystroke_a	a	n/a
365.5465	0.075	731093	keystroke_l	l	n/a
365.6815	0.105	731363	keystroke_l	l	n/a
365.8015	0.105	731603	keystroke_a	a	n/a
365.8765	0.135	731753	keystroke_s	s	n/a
366.0415	0.105	732083	keystroke_Key.space	Key.space	n/a
366.2215	0.105	732443	keystroke_s	s	n/a
366.2815	0.075	732563	keystroke_l	l	n/a
366.4165	0.1195	732833	keystroke_o	o	n/a
366.686	0.135	733372	keystroke_v	v	n/a
366.836	0.105	733672	keystroke_a	a	n/a
366.956	0.1055	733912	keystroke_k	k	n/a
367.241	0.09	734482	keystroke_Key.space	Key.space	n/a
367.676	0.105	735352	keystroke_a	a	n/a
367.751	0.09	735502	keystroke_s	s	n/a
367.901	0.135	735802	keystroke_p	p	n/a
368.021	0.135	736042	keystroke_e	e	n/a
368.171	0.1055	736342	keystroke_c	c	n/a
368.426	0.1505	736852	keystroke_t	t	n/a
368.5015	0.1345	737003	keystroke_s	s	n/a
368.6065	0.1195	737213	keystroke_Key.enter	Key.enter	n/a
368.731	7.947	737462	prompt	n/a	bind subscriptions athletic married\n
369.446	0.0905	738892	keystroke_b	b	n/a
370.1665	0.12	740333	keystroke_i	i	n/a
370.2115	0.1355	740423	keystroke_n	n	n/a
370.332	0.105	740664	keystroke_d	d	n/a
370.4815	0.06	740963	keystroke_Key.space	Key.space	n/a
370.6165	0.075	741233	keystroke_s	s	n/a
370.6765	0.1355	741353	keystroke_u	u	n/a
371.6215	0.09	743243	keystroke_b	b	n/a
371.9365	0.105	743873	keystroke_s	s	n/a
372.0115	0.075	744023	keystroke_c	c	n/a
372.3115	0.12	744623	keystroke_r	r	n/a
372.4165	0.1055	744833	keystroke_i	i	n/a
372.492	0.15	744984	keystroke_p	p	n/a
372.942	0.075	745884	keystroke_t	t	n/a
372.972	0.135	745944	keystroke_i	i	n/a
373.047	0.135	746094	keystroke_o	o	n/a
373.092	0.18	746184	keystroke_n	n	n/a
373.272	0.12	746544	keystroke_s	s	n/a
373.482	0.105	746964	keystroke_Key.space	Key.space	n/a
373.7515	0.09	747503	keystroke_a	a	n/a
373.9615	0.075	747923	keystroke_t	t	n/a
374.0515	0.0905	748103	keystroke_h	h	n/a
374.367	0.12	748734	keystroke_l	l	n/a
374.757	0.09	749514	keystroke_e	e	n/a
375.0115	0.06	750023	keystroke_t	t	n/a
375.1165	0.105	750233	keystroke_i	i	n/a
375.2365	0.09	750473	keystroke_c	c	n/a
375.3715	0.105	750743	keystroke_Key.space	Key.space	n/a
375.7465	0.105	751493	keystroke_m	m	n/a
375.8525	0.104	751705	keystroke_a	a	n/a
375.8965	0.09	751793	keystroke_r	r	n/a
376.0465	0.09	752093	keystroke_r	r	n/a
376.287	0.09	752574	keystroke_i	i	n/a
376.362	0.075	752724	keystroke_e	e	n/a
376.512	0.105	753024	keystroke_d	d	n/a
376.571	0.105	753142	keystroke_Key.enter	Key.enter	n/a
376.6815	5.9965	753363	prompt	n/a	blast vegetation recreational stop\n
377.472	0.12	754944	keystroke_b	b	n/a
377.577	0.15	755154	keystroke_l	l	n/a
377.652	0.1945	755304	keystroke_a	a	n/a
377.7415	0.225	755483	keystroke_s	s	n/a
377.952	0.1195	755904	keystroke_t	t	n/a
378.1915	0.105	756383	keystroke_Key.space	Key.space	n/a
378.627	0.119	757254	keystroke_v	v	n/a
378.702	0.135	757404	keystroke_e	e	n/a
379.436	0.09	758872	keystroke_g	g	n/a
379.511	0.09	759022	keystroke_e	e	n/a
379.751	0.09	759502	keystroke_t	t	n/a
379.872	0.119	759744	keystroke_a	a	n/a
380.066	0.121	760132	keystroke_t	t	n/a
380.141	0.12	760282	keystroke_i	i	n/a
380.201	0.105	760402	keystroke_o	o	n/a
380.231	0.226	760462	keystroke_n	n	n/a
380.441	0.1055	760882	keystroke_Key.space	Key.space	n/a
380.5615	0.09	761123	keystroke_r	r	n/a
380.6365	0.06	761273	keystroke_e	e	n/a
380.8165	0.0595	761633	keystroke_c	c	n/a
380.981	0.09	761962	keystroke_r	r	n/a
381.011	0.135	762022	keystroke_e	e	n/a
381.266	0.105	762532	keystroke_a	a	n/a
381.461	0.106	762922	keystroke_t	t	n/a
381.536	0.12	763072	keystroke_i	i	n/a
381.596	0.105	763192	keystroke_o	o	n/a
381.642	0.149	763284	keystroke_n	n	n/a
381.8215	0.105	763643	keystroke_a	a	n/a
381.8965	0.135	763793	keystroke_l	l	n/a
382.0165	0.09	764033	keystroke_Key.space	Key.space	n/a
382.2565	0.09	764513	keystroke_s	s	n/a
382.3165	0.12	764633	keystroke_t	t	n/a
382.3615	0.12	764723	keystroke_o	o	n/a
382.4365	0.105	764873	keystroke_p	p	n/a
382.5265	0.15	765053	keystroke_Key.enter	Key.enter	n/a
382.687	6.921	765374	prompt	n/a	loving prescribed expired continue\n
383.2465	0.075	766493	keystroke_l	l	n/a
383.3965	0.06	766793	keystroke_o	o	n/a
383.4415	0.09	766883	keystroke_v	v	n/a
383.5465	0.09	767093	keystroke_i	i	n/a
383.5765	0.135	767153	keystroke_n	n	n/a
383.6965	0.09	767393	keystroke_g	g	n/a
383.8165	0.075	767633	keystroke_Key.space	Key.space	n/a
383.9065	0.15	767813	keystroke_p	p	n/a
383.9965	0.09	767993	keystroke_r	r	n/a
384.0415	0.09	768083	keystroke_e	e	n/a
384.9565	0.105	769913	keystroke_s	s	n/a
385.0165	0.12	770033	keystroke_e	e	n/a
385.2265	0.06	770453	keystroke_c	c	n/a
385.466	0.06	770932	keystroke_Key.backspace	Key.backspace	n/a
385.601	0.075	771202	keystroke_Key.backspace	Key.backspace	n/a
385.691	0.09	771382	keystroke_c	c	n/a
385.8865	0.105	771773	keystroke_r	r	n/a
385.9765	0.09	771953	keystroke_i	i	n/a
386.142	0.1195	772284	keystroke_b	b	n/a
386.2915	0.075	772583	keystroke_e	e	n/a
386.4715	0.0755	772943	keystroke_d	d	n/a
386.622	0.09	773244	keystroke_Key.space	Key.space	n/a
386.952	0.06	773904	keystroke_e	e	n/a
387.147	0.06	774294	keystroke_x	x	n/a
387.222	0.0895	774444	keystroke_p	p	n/a
387.3265	0.09	774653	keystroke_e	e	n/a
387.687	0.06	775374	keystroke_Key.backspace	Key.backspace	n/a
387.897	0.0895	775794	keystroke_i	i	n/a
387.9565	0.09	775913	keystroke_r	r	n/a
388.0165	0.06	776033	keystroke_e	e	n/a
388.1815	0.09	776363	keystroke_d	d	n/a
388.3165	0.09	776633	keystroke_Key.space	Key.space	n/a
388.4815	0.12	776963	keystroke_c	c	n/a
388.5565	0.0755	777113	keystroke_o	o	n/a
388.5865	0.1055	777173	keystroke_n	n	n/a
388.977	0.03	777954	keystroke_t	t	n/a
388.992	0.12	777984	keystroke_i	i	n/a
389.067	0.09	778134	keystroke_n	n	n/a
389.292	0.09	778584	keystroke_u	u	n/a
389.397	0.075	778794	keystroke_e	e	n/a
389.502	0.105	779004	keystroke_Key.enter	Key.enter	n/a
389.6105	3.5375	779221	prompt	n/a	is skip manor herb\n
390.2965	0.12	780593	keystroke_i	i	n/a
390.4175	0.074	780835	keystroke_s	s	n/a
390.5065	0.09	781013	keystroke_Key.space	Key.space	n/a
390.6265	0.09	781253	keystroke_s	s	n/a
390.6865	0.075	781373	keystroke_k	k	n/a
390.8065	0.18	781613	keystroke_i	i	n/a
391.1515	0.09	782303	keystroke_p	p	n/a
391.407	0.075	782814	keystroke_Key.space	Key.space	n/a
391.707	0.075	783414	keystroke_m	m	n/a
391.797	0.105	783594	keystroke_a	a	n/a
391.932	0.075	783864	keystroke_n	n	n/a
392.127	0.12	784254	keystroke_o	o	n/a
392.262	0.105	784524	keystroke_r	r	n/a
392.382	0.09	784764	keystroke_Key.space	Key.space	n/a
392.592	0.119	785184	keystroke_h	h	n/a
392.666	0.12	785332	keystroke_e	e	n/a
392.741	0.105	785482	keystroke_r	r	n/a
392.891	0.075	785782	keystroke_b	b	n/a
393.011	0.135	786022	keystroke_Key.enter	Key.enter	n/a
393.1535	5.1695	786307	prompt	n/a	principle police stylish britain\n
393.702	0.089	787404	keystroke_p	p	n/a
393.806	0.076	787612	keystroke_r	r	n/a
393.896	0.075	787792	keystroke_i	i	n/a
393.956	0.091	787912	keystroke_n	n	n/a
394.346	0.09	788692	keystroke_c	c	n/a
394.407	0.104	788814	keystroke_i	i	n/a
394.661	0.135	789322	keystroke_p	p	n/a
394.706	0.166	789412	keystroke_l	l	n/a
394.857	0.074	789714	keystroke_e	e	n/a
395.006	0.1055	790012	keystroke_Key.space	Key.space	n/a
395.2315	0.09	790463	keystroke_p	p	n/a
395.2765	0.105	790553	keystroke_o	o	n/a
395.4865	0.135	790973	keystroke_l	l	n/a
395.5465	0.15	791093	keystroke_i	i	n/a
395.6515	0.135	791303	keystroke_c	c	n/a
395.7265	0.135	791453	keystroke_e	e	n/a
395.8465	0.105	791693	keystroke_Key.space	Key.space	n/a
396.0265	0.105	792053	keystroke_s	s	n/a
396.0865	0.12	792173	keystroke_t	t	n/a
396.1615	0.105	792323	keystroke_y	y	n/a
396.806	0.091	793612	keystroke_l	l	n/a
396.971	0.075	793942	keystroke_i	i	n/a
397.076	0.09	794152	keystroke_s	s	n/a
397.136	0.136	794272	keystroke_h	h	n/a
397.256	0.09	794512	keystroke_Key.space	Key.space	n/a
397.466	0.075	794932	keystroke_b	b	n/a
397.556	0.075	795112	keystroke_r	r	n/a
397.616	0.12	795232	keystroke_i	i	n/a
397.841	0.105	795682	keystroke_t	t	n/a
397.947	0.134	795894	keystroke_a	a	n/a
398.021	0.105	796042	keystroke_i	i	n/a
398.066	0.09	796132	keystroke_n	n	n/a
398.201	0.12	796402	keystroke_Key.enter	Key.enter	n/a
398.326	5.667	796652	prompt	n/a	paperback expense preservation mask\n
399.011	0.12	798022	keystroke_p	p	n/a
399.161	0.075	798322	keystroke_a	a	n/a
399.266	0.105	798532	keystroke_p	p	n/a
399.431	0.0905	798862	keystroke_e	e	n/a
399.476	0.0905	798952	keystroke_r	r	n/a
399.8665	0.1055	799733	keystroke_b	b	n/a
399.987	0.105	799974	keystroke_a	a	n/a
400.017	0.135	800034	keystroke_c	c	n/a
400.122	0.135	800244	keystroke_k	k	n/a
400.242	0.105	800484	keystroke_Key.space	Key.space	n/a
400.482	0.075	800964	keystroke_e	e	n/a
400.692	0.09	801384	keystroke_x	x	n/a
400.812	0.1345	801624	keystroke_p	p	n/a
400.9315	0.12	801863	keystroke_e	e	n/a
401.2015	0.105	802403	keystroke_n	n	n/a
401.3215	0.105	802643	keystroke_s	s	n/a
401.3665	0.12	802733	keystroke_e	e	n/a
401.5165	0.105	803033	keystroke_Key.space	Key.space	n/a
401.6815	0.135	803363	keystroke_p	p	n/a
401.7565	0.12	803513	keystroke_r	r	n/a
401.8015	0.09	803603	keystroke_e	e	n/a
401.9965	0.15	803993	keystroke_s	s	n/a
402.1015	0.1205	804203	keystroke_e	e	n/a
402.2965	0.105	804593	keystroke_r	r	n/a
402.657	0.09	805314	keystroke_v	v	n/a
402.777	0.12	805554	keystroke_a	a	n/a
402.987	0.104	805974	keystroke_t	t	n/a
403.047	0.15	806094	keystroke_i	i	n/a
403.122	0.12	806244	keystroke_o	o	n/a
403.167	0.165	806334	keystroke_n	n	n/a
403.347	0.075	806694	keystroke_Key.space	Key.space	n/a
403.497	0.1045	806994	keystroke_m	m	n/a
403.5865	0.105	807173	keystroke_a	a	n/a
403.6465	0.12	807293	keystroke_s	s	n/a
403.7215	0.09	807443	keystroke_k	k	n/a
403.8865	0.105	807773	keystroke_Key.enter	Key.enter	n/a
403.996	4.2575	807992	prompt	n/a	any profits knit favorite\n
404.742	0.09	809484	keystroke_a	a	n/a
404.802	0.06	809604	keystroke_n	n	n/a
404.966	0.076	809932	keystroke_y	y	n/a
405.056	0.09	810112	keystroke_Key.space	Key.space	n/a
405.207	0.09	810414	keystroke_p	p	n/a
405.312	0.09	810624	keystroke_r	r	n/a
405.371	0.09	810742	keystroke_o	o	n/a
405.507	0.119	811014	keystroke_f	f	n/a
405.656	0.135	811312	keystroke_i	i	n/a
405.762	0.164	811524	keystroke_t	t	n/a
405.852	0.119	811704	keystroke_s	s	n/a
405.987	0.089	811974	keystroke_Key.space	Key.space	n/a
406.286	0.12	812572	keystroke_k	k	n/a
406.316	0.106	812632	keystroke_n	n	n/a
406.496	0.1205	812992	keystroke_i	i	n/a
406.7365	0.06	813473	keystroke_t	t	n/a
407.0665	0.105	814133	keystroke_Key.space	Key.space	n/a
407.2465	0.105	814493	keystroke_f	f	n/a
407.3065	0.09	814613	keystroke_a	a	n/a
407.5615	0.105	815123	keystroke_v	v	n/a
407.6665	0.09	815333	keystroke_o	o	n/a
407.7865	0.09	815573	keystroke_r	r	n/a
407.9065	0.09	815813	keystroke_i	i	n/a
408.0115	0.09	816023	keystroke_t	t	n/a
408.0415	0.105	816083	keystroke_e	e	n/a
408.1615	0.09	816323	keystroke_Key.enter	Key.enter	n/a
408.257	4.2415	816514	prompt	n/a	moving connecting mountains push\n
408.867	0.105	817734	keystroke_m	m	n/a
408.942	0.075	817884	keystroke_o	o	n/a
409.032	0.0745	818064	keystroke_v	v	n/a
409.1075	0.104	818215	keystroke_i	i	n/a
409.1365	0.12	818273	keystroke_n	n	n/a
409.2265	0.09	818453	keystroke_g	g	n/a
409.3615	0.09	818723	keystroke_Key.space	Key.space	n/a
409.5115	0.135	819023	keystroke_c	c	n/a
409.6015	0.06	819203	keystroke_o	o	n/a
409.6165	0.06	819233	keystroke_n	n	n/a
409.7365	0.105	819473	keystroke_n	n	n/a
409.8265	0.105	819653	keystroke_e	e	n/a
409.8865	0.06	819773	keystroke_c	c	n/a
410.0815	0.075	820163	keystroke_t	t	n/a
410.1865	0.105	820373	keystroke_i	i	n/a
410.2165	0.12	820433	keystroke_n	n	n/a
410.3515	0.075	820703	keystroke_g	g	n/a
410.4565	0.09	820913	keystroke_Key.space	Key.space	n/a
410.6815	0.105	821363	keystroke_m	m	n/a
410.7565	0.105	821513	keystroke_o	o	n/a
410.8765	0.0905	821753	keystroke_u	u	n/a
411.072	0.09	822144	keystroke_n	n	n/a
411.342	0.105	822684	keystroke_t	t	n/a
411.417	0.105	822834	keystroke_a	a	n/a
411.537	0.09	823074	keystroke_i	i	n/a
