onset	duration	sample	value	key	prompt_text
5.7205	69.165	11441	prompt	n/a	the quick brown fox jumps over a lazy dog\n
67.887	0.028	135774	keystroke	t	n/a
67.9	0.119	135800	keystroke	h	n/a
67.96	0.135	135920	keystroke	e	n/a
68.08	0.089	136160	keystroke	Key.space	n/a
68.335	0.075	136670	keystroke	u	n/a
68.8595	0.06	137719	keystroke	Key.backspace	n/a
69.5945	0.09	139189	keystroke	q	n/a
69.7455	0.09	139491	keystroke	u	n/a
69.8795	0.075	139759	keystroke	i	n/a
69.9845	0.09	139969	keystroke	c	n/a
70.0895	0.12	140179	keystroke	k	n/a
70.165	0.1045	140330	keystroke	Key.space	n/a
70.5695	0.0755	141139	keystroke	b	n/a
70.7495	0.09	141499	keystroke	r	n/a
70.8245	0.12	141649	keystroke	o	n/a
70.9595	0.076	141919	keystroke	w	n/a
71.0355	0.104	142071	keystroke	n	n/a
71.1245	0.075	142249	keystroke	Key.space	n/a
71.2745	0.075	142549	keystroke	f	n/a
71.3505	0.12	142701	keystroke	o	n/a
71.575	0.09	143150	keystroke	x	n/a
71.71	0.09	143420	keystroke	Key.space	n/a
71.845	0.09	143690	keystroke	j	n/a
71.995	0.06	143990	keystroke	u	n/a
72.145	0.075	144290	keystroke	m	n/a
72.295	0.12	144590	keystroke	p	n/a
72.43	0.075	144860	keystroke	s	n/a
72.535	0.105	145070	keystroke	Key.space	n/a
72.61	0.105	145220	keystroke	o	n/a
72.745	0.1045	145490	keystroke	v	n/a
72.8495	0.1205	145699	keystroke	e	n/a
72.955	0.1045	145910	keystroke	r	n/a
73.015	0.0745	146030	keystroke	Key.space	n/a
73.2695	0.0905	146539	keystroke	a	n/a
73.375	0.075	146750	keystroke	Key.space	n/a
73.5695	0.1055	147139	keystroke	l	n/a
73.84	0.09	147680	keystroke	a	n/a
74.035	0.075	148070	keystroke	z	n/a
74.14	0.09	148280	keystroke	y	n/a
74.245	0.075	148490	keystroke	Key.space	n/a
74.455	0.075	148910	keystroke	d	n/a
74.515	0.1055	149030	keystroke	o	n/a
74.6345	0.06	149269	keystroke	g	n/a
74.7995	0.075	149599	keystroke	Key.enter	n/a
74.8965	4.0155	149793	prompt	n/a	simply horses themes turns\n
75.5795	0.1205	151159	keystroke	s	n/a
75.685	0.075	151370	keystroke	i	n/a
75.79	0.09	151580	keystroke	m	n/a
75.94	0.09	151880	keystroke	p	n/a
76.0905	0.12	152181	keystroke	l	n/a
76.2255	0.09	152451	keystroke	y	n/a
76.2995	0.075	152599	keystroke	Key.space	n/a
76.4505	0.105	152901	keystroke	h	n/a
76.5255	0.105	153051	keystroke	o	n/a
76.6155	0.09	153231	keystroke	r	n/a
76.7805	0.105	153561	keystroke	s	n/a
76.8705	0.1495	153741	keystroke	e	n/a
77.005	0.12	154010	keystroke	s	n/a
77.14	0.09	154280	keystroke	Key.space	n/a
77.3655	0.075	154731	keystroke	t	n/a
77.4255	0.074	154851	keystroke	h	n/a
77.5155	0.09	155031	keystroke	e	n/a
77.6355	0.074	155271	keystroke	m	n/a
77.7245	0.18	155449	keystroke	e	n/a
77.8905	0.074	155781	keystroke	s	n/a
77.9795	0.0755	155959	keystroke	Key.space	n/a
78.1305	0.0445	156261	keystroke	t	n/a
78.28	0.06	156560	keystroke	u	n/a
78.4155	0.06	156831	keystroke	r	n/a
78.5505	0.06	157101	keystroke	n	n/a
78.6705	0.09	157341	keystroke	s	n/a
78.8355	0.075	157671	keystroke	Key.enter	n/a
78.9155	6.0415	157831	prompt	n/a	thumbs respiratory cite challenges\n
79.6305	0.06	159261	keystroke	t	n/a
79.7055	0.06	159411	keystroke	h	n/a
79.8405	0.06	159681	keystroke	u	n/a
80.0055	0.075	160011	keystroke	m	n/a
80.1105	0.09	160221	keystroke	b	n/a
80.3055	0.075	160611	keystroke	s	n/a
80.4255	0.09	160851	keystroke	Key.space	n/a
80.695	0.1195	161390	keystroke	r	n/a
80.7995	0.105	161599	keystroke	e	n/a
81.4005	0.09	162801	keystroke	s	n/a
81.5355	0.075	163071	keystroke	p	n/a
81.7605	0.06	163521	keystroke	i	n/a
81.8805	0.105	163761	keystroke	r	n/a
82.09	0.12	164180	keystroke	a	n/a
82.195	0.075	164390	keystroke	t	n/a
82.3	0.105	164600	keystroke	o	n/a
82.42	0.0755	164840	keystroke	r	n/a
82.5405	0.105	165081	keystroke	y	n/a
82.6305	0.075	165261	keystroke	Key.space	n/a
82.855	0.075	165710	keystroke	c	n/a
82.945	0.06	165890	keystroke	i	n/a
83.065	0.12	166130	keystroke	t	n/a
83.306	0.059	166612	keystroke	e	n/a
83.395	0.105	166790	keystroke	Key.space	n/a
83.606	0.074	167212	keystroke	c	n/a
83.695	0.075	167390	keystroke	h	n/a
83.8	0.09	167600	keystroke	a	n/a
83.905	0.06	167810	keystroke	l	n/a
84.025	0.0905	168050	keystroke	l	n/a
84.1605	0.06	168321	keystroke	e	n/a
84.2655	0.075	168531	keystroke	n	n/a
84.4605	0.105	168921	keystroke	g	n/a
84.5505	0.135	169101	keystroke	e	n/a
84.7005	0.09	169401	keystroke	s	n/a
84.8505	0.105	169701	keystroke	Key.enter	n/a
84.96	4.452	169920	prompt	n/a	alloy grave papers writes\n
85.616	0.104	171232	keystroke	a	n/a
85.736	0.059	171472	keystroke	l	n/a
85.855	0.091	171710	keystroke	l	n/a
86.036	0.074	172072	keystroke	o	n/a
86.17	0.09	172340	keystroke	y	n/a
86.275	0.06	172550	keystroke	Key.space	n/a
86.47	0.075	172940	keystroke	g	n/a
86.62	0.135	173240	keystroke	r	n/a
86.77	0.12	173540	keystroke	a	n/a
86.95	0.105	173900	keystroke	v	n/a
87.025	0.105	174050	keystroke	e	n/a
87.16	0.12	174320	keystroke	Key.space	n/a
87.295	0.09	174590	keystroke	p	n/a
87.415	0.105	174830	keystroke	a	n/a
87.55	0.076	175100	keystroke	p	n/a
87.685	0.105	175370	keystroke	e	n/a
87.775	0.1505	175550	keystroke	r	n/a
88.0455	0.0605	176091	keystroke	s	n/a
88.166	0.075	176332	keystroke	Key.space	n/a
88.3605	0.075	176721	keystroke	w	n/a
88.5555	0.075	177111	keystroke	r	n/a
88.6905	0.0605	177381	keystroke	i	n/a
88.856	0.1045	177712	keystroke	t	n/a
88.9305	0.12	177861	keystroke	e	n/a
89.081	0.1195	178162	keystroke	s	n/a
89.3505	0.06	178701	keystroke	Key.enter	n/a
89.415	4.812	178830	prompt	n/a	raid square inherited treated\n
90.0405	0.135	180081	keystroke	r	n/a
90.1605	0.135	180321	keystroke	a	n/a
90.2805	0.09	180561	keystroke	i	n/a
90.4455	0.0745	180891	keystroke	d	n/a
90.5355	0.0895	181071	keystroke	Key.space	n/a
90.82	0.105	181640	keystroke	s	n/a
91.03	0.105	182060	keystroke	q	n/a
91.195	0.06	182390	keystroke	u	n/a
91.375	0.15	182750	keystroke	a	n/a
91.51	0.165	183020	keystroke	r	n/a
91.615	0.106	183230	keystroke	e	n/a
91.765	0.105	183530	keystroke	Key.space	n/a
91.9	0.1205	183800	keystroke	i	n/a
92.0055	0.09	184011	keystroke	n	n/a
92.2005	0.06	184401	keystroke	h	n/a
92.3355	0.12	184671	keystroke	e	n/a
92.4105	0.105	184821	keystroke	r	n/a
92.5605	0.075	185121	keystroke	i	n/a
92.6955	0.105	185391	keystroke	t	n/a
92.7705	0.105	185541	keystroke	e	n/a
92.9655	0.06	185931	keystroke	d	n/a
93.0405	0.09	186081	keystroke	Key.space	n/a
93.2505	0.0895	186501	keystroke	t	n/a
93.4305	0.12	186861	keystroke	r	n/a
93.5205	0.1355	187041	keystroke	e	n/a
93.6405	0.1355	187281	keystroke	a	n/a
93.7155	0.135	187431	keystroke	t	n/a
93.806	0.12	187612	keystroke	e	n/a
94.0005	0.0895	188001	keystroke	d	n/a
94.135	0.09	188270	keystroke	Key.enter	n/a
94.23	5.6675	188460	prompt	n/a	money hdtv community speeches\n
94.946	0.119	189892	keystroke	m	n/a
95.05	0.12	190100	keystroke	o	n/a
95.155	0.091	190310	keystroke	n	n/a
95.276	0.09	190552	keystroke	e	n/a
95.395	0.106	190790	keystroke	y	n/a
95.47	0.105	190940	keystroke	Key.space	n/a
95.635	0.0755	191270	keystroke	h	n/a
95.9055	0.075	191811	keystroke	d	n/a
96.1455	0.0755	192291	keystroke	t	n/a
96.416	0.075	192832	keystroke	v	n/a
96.551	0.0745	193102	keystroke	Key.space	n/a
96.8205	0.075	193641	keystroke	c	n/a
96.9105	0.09	193821	keystroke	o	n/a
96.9555	0.075	193911	keystroke	m	n/a
97.3305	0.0745	194661	keystroke	m	n/a
97.616	0.06	195232	keystroke	u	n/a
97.796	0.075	195592	keystroke	n	n/a
97.901	0.075	195802	keystroke	i	n/a
98.006	0.0745	196012	keystroke	t	n/a
98.0955	0.135	196191	keystroke	y	n/a
98.1855	0.075	196371	keystroke	Key.space	n/a
98.5605	0.09	197121	keystroke	s	n/a
98.846	0.06	197692	keystroke	p	n/a
98.951	0.06	197902	keystroke	e	n/a
99.101	0.06	198202	keystroke	e	n/a
99.281	0.075	198562	keystroke	c	n/a
99.371	0.075	198742	keystroke	h	n/a
99.491	0.06	198982	keystroke	e	n/a
99.701	0.06	199402	keystroke	s	n/a
99.851	0.045	199702	keystroke	Key.enter	n/a
99.9025	6.5805	199805	prompt	n/a	barbados prepare simpson allergy\n
100.7505	0.09	201501	keystroke	b	n/a
100.8855	0.12	201771	keystroke	a	n/a
101.0805	0.075	202161	keystroke	r	n/a
101.456	0.09	202912	keystroke	b	n/a
101.591	0.09	203182	keystroke	a	n/a
101.831	0.015	203662	keystroke	d	n/a
102.2505	0.075	204501	keystroke	o	n/a
102.3705	0.06	204741	keystroke	s	n/a
102.5655	0.075	205131	keystroke	Key.space	n/a
102.7455	0.09	205491	keystroke	p	n/a
103.0455	0.12	206091	keystroke	r	n/a
103.1505	0.105	206301	keystroke	e	n/a
103.3155	0.075	206631	keystroke	p	n/a
103.5105	0.12	207021	keystroke	a	n/a
103.6155	0.09	207231	keystroke	r	n/a
103.7505	0.09	207501	keystroke	e	n/a
103.9155	0.09	207831	keystroke	Key.space	n/a
104.17	0.075	208340	keystroke	s	n/a
104.3655	0.105	208731	keystroke	i	n/a
104.4555	0.12	208911	keystroke	m	n/a
104.6205	0.09	209241	keystroke	p	n/a
104.7405	0.09	209481	keystroke	s	n/a
104.8605	0.105	209721	keystroke	o	n/a
104.9355	0.105	209871	keystroke	n	n/a
105.0555	0.09	210111	keystroke	Key.space	n/a
105.446	0.105	210892	keystroke	a	n/a
105.5655	0.045	211131	keystroke	l	n/a
105.6855	0.075	211371	keystroke	l	n/a
105.7905	0.105	211581	keystroke	e	n/a
105.8805	0.12	211761	keystroke	r	n/a
106.135	0.06	212270	keystroke	g	n/a
106.21	0.075	212420	keystroke	y	n/a
106.421	0.06	212842	keystroke	Key.enter	n/a
106.486	5.6365	212972	prompt	n/a	relocation entering anime suffered\n
107.441	0.12	214882	keystroke	r	n/a
107.501	0.135	215002	keystroke	e	n/a
107.651	0.075	215302	keystroke	l	n/a
107.846	0.075	215692	keystroke	o	n/a
108.1005	0.09	216201	keystroke	c	n/a
108.2205	0.1205	216441	keystroke	a	n/a
108.371	0.06	216742	keystroke	t	n/a
108.476	0.09	216952	keystroke	i	n/a
108.521	0.12	217042	keystroke	o	n/a
108.596	0.12	217192	keystroke	n	n/a
108.701	0.09	217402	keystroke	Key.space	n/a
108.866	0.075	217732	keystroke	e	n/a
108.971	0.075	217942	keystroke	n	n/a
109.091	0.105	218182	keystroke	t	n/a
109.166	0.135	218332	keystroke	e	n/a
109.271	0.09	218542	keystroke	r	n/a
109.376	0.105	218752	keystroke	i	n/a
109.451	0.105	218902	keystroke	n	n/a
109.571	0.06	219142	keystroke	g	n/a
109.661	0.09	219322	keystroke	Key.space	n/a
109.901	0.105	219802	keystroke	a	n/a
109.991	0.075	219982	keystroke	n	n/a
110.081	0.12	220162	keystroke	i	n/a
110.216	0.09	220432	keystroke	m	n/a
110.351	0.075	220702	keystroke	e	n/a
110.456	0.09	220912	keystroke	Key.space	n/a
110.666	0.0905	221332	keystroke	s	n/a
110.7865	0.059	221573	keystroke	u	n/a
110.9665	0.044	221933	keystroke	f	n/a
111.071	0.09	222142	keystroke	f	n/a
111.296	0.09	222592	keystroke	e	n/a
111.446	0.135	222892	keystroke	r	n/a
111.521	0.105	223042	keystroke	e	n/a
111.731	0.06	223462	keystroke	d	n/a
112.061	0.06	224122	keystroke	Key.enter	n/a
112.126	8.8465	224252	prompt	n/a	settlement challenging telecommunications kirk\n
112.796	0.105	225592	keystroke	s	n/a
113.021	0.105	226042	keystroke	e	n/a
113.201	0.075	226402	keystroke	t	n/a
113.336	0.09	226672	keystroke	t	n/a
113.501	0.09	227002	keystroke	l	n/a
113.606	0.045	227212	keystroke	e	n/a
113.681	0.09	227362	keystroke	m	n/a
113.786	0.075	227572	keystroke	e	n/a
113.891	0.075	227782	keystroke	n	n/a
113.981	0.075	227962	keystroke	t	n/a
114.086	0.09	228172	keystroke	Key.space	n/a
114.4615	0.104	228923	keystroke	c	n/a
114.5815	0.075	229163	keystroke	a	n/a
114.6405	0.076	229281	keystroke	h	n/a
115.1955	0.045	230391	keystroke	Key.backspace	n/a
115.3155	0.06	230631	keystroke	Key.backspace	n/a
115.4965	0.075	230993	keystroke	h	n/a
115.6155	0.061	231231	keystroke	a	n/a
115.6905	0.061	231381	keystroke	l	n/a
115.8265	0.074	231653	keystroke	l	n/a
115.9155	0.06	231831	keystroke	e	n/a
116.0205	0.0605	232041	keystroke	n	n/a
116.186	0.06	232372	keystroke	g	n/a
116.261	0.09	232522	keystroke	i	n/a
116.306	0.1045	232612	keystroke	n	n/a
116.6205	0.06	233241	keystroke	g	n/a
116.7105	0.0755	233421	keystroke	Key.space	n/a
117.026	0.165	234052	keystroke	t	n/a
117.176	0.075	234352	keystroke	e	n/a
117.326	0.12	234652	keystroke	l	n/a
117.806	0.075	235612	keystroke	e	n/a
118.076	0.0455	236152	keystroke	c	n/a
118.1665	0.135	236333	keystroke	o	n/a
118.2565	0.09	236513	keystroke	m	n/a
118.4215	0.06	236843	keystroke	m	n/a
118.586	0.0455	237172	keystroke	u	n/a
118.721	0.075	237442	keystroke	n	n/a
118.826	0.09	237652	keystroke	i	n/a
118.991	0.075	237982	keystroke	c	n/a
119.111	0.135	238222	keystroke	a	n/a
119.2155	0.1055	238431	keystroke	t	n/a
119.306	0.105	238612	keystroke	i	n/a
119.396	0.105	238792	keystroke	o	n/a
119.456	0.105	238912	keystroke	n	n/a
119.606	0.09	239212	keystroke	s	n/a
119.981	0.075	239962	keystroke	Key.space	n/a
120.176	0.045	240352	keystroke	k	n/a
120.281	0.075	240562	keystroke	i	n/a
120.461	0.06	240922	keystroke	r	n/a
120.7005	0.045	241401	keystroke	k	n/a
120.9555	0.015	241911	keystroke	Key.enter	n/a
120.977	7.5255	241954	prompt	n/a	hardcover greene kinda resolutions\n
121.7955	0.075	243591	keystroke	h	n/a
121.9155	0.136	243831	keystroke	a	n/a
122.0665	0.045	244133	keystroke	r	n/a
122.2615	0.075	244523	keystroke	d	n/a
122.7115	0.09	245423	keystroke	c	n/a
122.7865	0.105	245573	keystroke	o	n/a
122.9215	0.12	245843	keystroke	v	n/a
123.0565	0.15	246113	keystroke	e	n/a
123.1615	0.09	246323	keystroke	r	n/a
123.2665	0.104	246533	keystroke	Key.space	n/a
123.5065	0.045	247013	keystroke	g	n/a
123.6715	0.09	247343	keystroke	r	n/a
123.7315	0.09	247463	keystroke	e	n/a
123.8965	0.09	247793	keystroke	e	n/a
124.0005	0.0755	248001	keystroke	n	n/a
124.121	0.09	248242	keystroke	e	n/a
124.316	0.075	248632	keystroke	Key.space	n/a
124.496	0.09	248992	keystroke	k	n/a
124.676	0.1045	249352	keystroke	i	n/a
124.8255	0.075	249651	keystroke	n	n/a
124.9905	0.075	249981	keystroke	d	n/a
125.1105	0.105	250221	keystroke	a	n/a
125.2605	0.075	250521	keystroke	Key.space	n/a
125.5605	0.075	251121	keystroke	r	n/a
125.7105	0.09	251421	keystroke	e	n/a
126.1315	0.015	252263	keystroke	s	n/a
126.476	0.075	252952	keystroke	o	n/a
126.641	0.09	253282	keystroke	l	n/a
126.791	0.075	253582	keystroke	u	n/a
126.971	0.075	253942	keystroke	t	n/a
127.061	0.12	254122	keystroke	i	n/a
127.196	0.12	254392	keystroke	o	n/a
127.721	0.06	255442	keystroke	n	n/a
127.856	0.06	255712	keystroke	s	n/a
128.4415	0.06	256883	keystroke	Key.enter	n/a
128.5055	8.742	257011	prompt	n/a	textbooks hopkins hypothetical incorporate\n
129.191	0.1355	258382	keystroke	t	n/a
129.2815	0.105	258563	keystroke	e	n/a
129.4915	0.1945	258983	keystroke	x	n/a
129.641	0.105	259282	keystroke	t	n/a
129.941	0.045	259882	keystroke	b	n/a
130.001	0.0755	260002	keystroke	o	n/a
130.1365	0.1345	260273	keystroke	o	n/a
130.256	0.105	260512	keystroke	k	n/a
130.376	0.075	260752	keystroke	s	n/a
130.466	0.09	260932	keystroke	Key.space	n/a
130.616	0.105	261232	keystroke	h	n/a
130.691	0.105	261382	keystroke	o	n/a
130.901	0.075	261802	keystroke	p	n/a
131.246	0.045	262492	keystroke	k	n/a
131.381	0.075	262762	keystroke	i	n/a
131.441	0.09	262882	keystroke	n	n/a
131.696	0.09	263392	keystroke	s	n/a
131.831	0.06	263662	keystroke	Key.space	n/a
132.056	0.06	264112	keystroke	h	n/a
132.266	0.06	264532	keystroke	y	n/a
132.476	0.06	264952	keystroke	p	n/a
132.7905	0.075	265581	keystroke	o	n/a
133.0605	0.0755	266121	keystroke	t	n/a
133.151	0.06	266302	keystroke	h	n/a
133.256	0.075	266512	keystroke	e	n/a
133.571	0.06	267142	keystroke	t	n/a
133.661	0.075	267322	keystroke	i	n/a
133.796	0.105	267592	keystroke	c	n/a
133.976	0.15	267952	keystroke	a	n/a
134.141	0.1055	268282	keystroke	l	n/a
134.2465	0.089	268493	keystroke	Key.space	n/a
134.4715	0.074	268943	keystroke	i	n/a
134.6215	0.089	269243	keystroke	n	n/a
135.0255	0.03	270051	keystroke	o	n/a
135.371	0.06	270742	keystroke	Key.backspace	n/a
135.476	0.045	270952	keystroke	f	n/a
135.8055	0.03	271611	keystroke	Key.backspace	n/a
135.8955	0.075	271791	keystroke	c	n/a
136.0455	0.075	272091	keystroke	o	n/a
136.1955	0.075	272391	keystroke	r	n/a
136.436	0.12	272872	keystroke	p	n/a
136.526	0.09	273052	keystroke	o	n/a
136.601	0.09	273202	keystroke	r	n/a
136.781	0.135	273562	keystroke	a	n/a
136.871	0.12	273742	keystroke	t	n/a
136.976	0.075	273952	keystroke	e	n/a
137.186	0.06	274372	keystroke	Key.enter	n/a
137.251	6.1615	274502	prompt	n/a	silver profession shelf calculation\n
137.846	0.135	275692	keystroke	s	n/a
137.936	0.09	275872	keystroke	i	n/a
138.0855	0.09	276171	keystroke	l	n/a
138.2355	0.135	276471	keystroke	v	n/a
138.3715	0.149	276743	keystroke	e	n/a
138.4755	0.09	276951	keystroke	r	n/a
138.5505	0.12	277101	keystroke	Key.space	n/a
138.6855	0.105	277371	keystroke	p	n/a
138.8355	0.075	277671	keystroke	r	n/a
138.9405	0.075	277881	keystroke	o	n/a
139.1205	0.105	278241	keystroke	f	n/a
139.2105	0.09	278421	keystroke	e	n/a
139.376	0.09	278752	keystroke	s	n/a
139.511	0.09	279022	keystroke	s	n/a
139.586	0.18	279172	keystroke	i	n/a
139.721	0.12	279442	keystroke	o	n/a
139.796	0.15	279592	keystroke	n	n/a
139.931	0.09	279862	keystroke	Key.space	n/a
140.276	0.09	280552	keystroke	s	n/a
140.366	0.105	280732	keystroke	h	n/a
140.516	0.06	281032	keystroke	e	n/a
140.636	0.075	281272	keystroke	l	n/a
140.7705	0.075	281541	keystroke	f	n/a
140.8605	0.105	281721	keystroke	Key.space	n/a
141.0405	0.1205	282081	keystroke	c	n/a
141.191	0.1045	282382	keystroke	a	n/a
141.326	0.075	282652	keystroke	l	n/a
141.5205	0.12	283041	keystroke	c	n/a
141.7155	0.09	283431	keystroke	i	n/a
142.046	0.045	284092	keystroke	Key.backspace	n/a
142.271	0.045	284542	keystroke	u	n/a
142.631	0.06	285262	keystroke	l	n/a
142.751	0.105	285502	keystroke	a	n/a
142.841	0.075	285682	keystroke	t	n/a
142.931	0.135	285862	keystroke	i	n/a
143.006	0.12	286012	keystroke	o	n/a
143.081	0.09	286162	keystroke	n	n/a
143.366	0.045	286732	keystroke	Key.enter	n/a
143.415	9.0875	286830	prompt	n/a	remote heel sound filed\n
144.0705	0.105	288141	keystroke	r	n/a
144.1455	0.1055	288291	keystroke	e	n/a
144.3405	0.105	288681	keystroke	o	n/a
144.5805	0.09	289161	keystroke	t	n/a
144.6255	0.105	289251	keystroke	e	n/a
144.7755	0.135	289551	keystroke	Key.space	n/a
144.8955	0.09	289791	keystroke	h	n/a
145.0015	0.059	290003	keystroke	e	n/a
145.1365	0.0745	290273	keystroke	e	n/a
145.226	0.105	290452	keystroke	l	n/a
145.286	0.105	290572	keystroke	Key.space	n/a
145.466	0.1045	290932	keystroke	s	n/a
145.5555	0.105	291111	keystroke	o	n/a
145.6305	0.075	291261	keystroke	u	n/a
146.0205	0.06	292041	keystroke	Key.backspace	n/a
146.5755	0.045	293151	keystroke	Key.backspace	n/a
146.6955	0.06	293391	keystroke	Key.backspace	n/a
146.8305	0.06	293661	keystroke	Key.backspace	n/a
146.9655	0.045	293931	keystroke	Key.backspace	n/a
147.1005	0.045	294201	keystroke	Key.backspace	n/a
147.2355	0.045	294471	keystroke	Key.backspace	n/a
147.3555	0.06	294711	keystroke	Key.backspace	n/a
147.4905	0.06	294981	keystroke	Key.backspace	n/a
147.626	0.0595	295252	keystroke	Key.backspace	n/a
147.7455	0.09	295491	keystroke	Key.backspace	n/a
148.2265	0.044	296453	keystroke	Key.backspace	n/a
148.4655	0.091	296931	keystroke	m	n/a
148.6455	0.076	297291	keystroke	o	n/a
148.901	0.12	297802	keystroke	t	n/a
148.976	0.135	297952	keystroke	e	n/a
149.096	0.075	298192	keystroke	Key.space	n/a
149.216	0.0595	298432	keystroke	h	n/a
149.2905	0.075	298581	keystroke	e	n/a
149.4405	0.075	298881	keystroke	e	n/a
149.5305	0.091	299061	keystroke	l	n/a
149.5755	0.105	299151	keystroke	Key.space	n/a
149.7255	0.09	299451	keystroke	s	n/a
149.8305	0.09	299661	keystroke	o	n/a
149.8905	0.075	299781	keystroke	u	n/a
150.056	0.0745	300112	keystroke	n	n/a
150.1605	0.075	300321	keystroke	d	n/a
150.2655	0.075	300531	keystroke	Key.space	n/a
150.6115	0.075	301223	keystroke	f	n/a
150.7165	0.044	301433	keystroke	i	n/a
151.1815	0.074	302363	keystroke	l	n/a
151.2715	0.06	302543	keystroke	e	n/a
151.4515	0.06	302903	keystroke	d	n/a
151.5265	0.074	303053	keystroke	Key.space	n/a
152.441	0.06	304882	keystroke	Key.enter	n/a
152.508	6.6695	305016	prompt	n/a	angola domains destruction complaints\n
153.386	0.09	306772	keystroke	a	n/a
153.491	0.075	306982	keystroke	n	n/a
153.626	0.09	307252	keystroke	g	n/a
153.746	0.075	307492	keystroke	o	n/a
153.896	0.105	307792	keystroke	l	n/a
154.241	0.09	308482	keystroke	a	n/a
154.376	0.1045	308752	keystroke	Key.space	n/a
154.6605	0.06	309321	keystroke	d	n/a
154.7355	0.165	309471	keystroke	o	n/a
154.8705	0.09	309741	keystroke	m	n/a
154.9755	0.09	309951	keystroke	a	n/a
155.0955	0.09	310191	keystroke	i	n/a
155.1555	0.105	310311	keystroke	n	n/a
155.3505	0.06	310701	keystroke	s	n/a
155.4255	0.075	310851	keystroke	Key.space	n/a
155.8455	0.075	311691	keystroke	d	n/a
155.9955	0.1505	311991	keystroke	e	n/a
156.1615	0.12	312323	keystroke	s	n/a
156.2665	0.0745	312533	keystroke	t	n/a
156.431	0.0905	312862	keystroke	r	n/a
156.5665	0.09	313133	keystroke	u	n/a
156.8215	0.0745	313643	keystroke	c	n/a
157.0015	0.0745	314003	keystroke	t	n/a
157.0915	0.12	314183	keystroke	i	n/a
157.1815	0.135	314363	keystroke	o	n/a
157.2565	0.1195	314513	keystroke	n	n/a
157.3615	0.074	314723	keystroke	Key.space	n/a
157.5255	0.09	315051	keystroke	c	n/a
157.5855	0.15	315171	keystroke	o	n/a
157.6905	0.1205	315381	keystroke	m	n/a
157.8255	0.135	315651	keystroke	p	n/a
158.1865	0.075	316373	keystroke	l	n/a
158.2915	0.12	316583	keystroke	a	n/a
158.4415	0.105	316883	keystroke	i	n/a
158.5315	0.09	317063	keystroke	n	n/a
158.7115	0.06	317423	keystroke	t	n/a
158.8905	0.09	317781	keystroke	s	n/a
159.1305	0.045	318261	keystroke	Key.enter	n/a
159.1805	5.877	318361	prompt	n/a	title apartment bermuda science\n
159.8515	0.06	319703	keystroke	t	n/a
159.9255	0.076	319851	keystroke	i	n/a
160.0305	0.0905	320061	keystroke	t	n/a
160.181	0.105	320362	keystroke	l	n/a
160.271	0.06	320542	keystroke	e	n/a
160.346	0.12	320692	keystroke	Key.space	n/a
160.5115	0.119	321023	keystroke	a	n/a
160.6455	0.0755	321291	keystroke	p	n/a
160.781	0.15	321562	keystroke	a	n/a
160.901	0.09	321802	keystroke	r	n/a
161.081	0.075	322162	keystroke	t	n/a
161.6815	0.075	323363	keystroke	m	n/a
161.8015	0.06	323603	keystroke	e	n/a
161.9205	0.06	323841	keystroke	n	n/a
162.0115	0.074	324023	keystroke	t	n/a
162.1155	0.105	324231	keystroke	Key.space	n/a
162.3415	0.075	324683	keystroke	b	n/a
162.4915	0.119	324983	keystroke	e	n/a
162.6265	0.089	325253	keystroke	r	n/a
162.7465	0.09	325493	keystroke	m	n/a
162.926	0.075	325852	keystroke	u	n/a
163.241	0.09	326482	keystroke	d	n/a
163.406	0.12	326812	keystroke	a	n/a
163.541	0.09	327082	keystroke	Key.space	n/a
163.721	0.075	327442	keystroke	s	n/a
163.931	0.075	327862	keystroke	c	n/a
164.051	0.105	328102	keystroke	i	n/a
164.201	0.0895	328402	keystroke	e	n/a
164.3055	0.075	328611	keystroke	n	n/a
164.5455	0.075	329091	keystroke	c	n/a
164.7855	0.045	329571	keystroke	e	n/a
164.9955	0.06	329991	keystroke	Key.enter	n/a
165.0605	6.012	330121	prompt	n/a	says lanka haven't what've\n
165.7015	0.06	331403	keystroke	s	n/a
165.8065	0.105	331613	keystroke	a	n/a
165.8965	0.075	331793	keystroke	y	n/a
166.0315	0.0895	332063	keystroke	s	n/a
166.106	0.09	332212	keystroke	Key.space	n/a
166.241	0.105	332482	keystroke	l	n/a
166.361	0.0905	332722	keystroke	a	n/a
166.4655	0.091	332931	keystroke	n	n/a
166.7815	0.075	333563	keystroke	k	n/a
166.9315	0.0895	333863	keystroke	a	n/a
167.036	0.075	334072	keystroke	Key.space	n/a
167.456	0.0905	334912	keystroke	h	n/a
167.5465	0.09	335093	keystroke	a	n/a
167.6965	0.045	335393	keystroke	n	n/a
168.056	0.045	336112	keystroke	Key.backspace	n/a
168.161	0.12	336322	keystroke	v	n/a
168.266	0.0755	336532	keystroke	e	n/a
168.4315	0.045	336863	keystroke	n	n/a
168.6265	0.06	337253	keystroke	'	n/a
168.9715	0.059	337943	keystroke	t	n/a
169.0755	0.09	338151	keystroke	Key.space	n/a
169.5415	0.09	339083	keystroke	w	n/a
169.7065	0.059	339413	keystroke	h	n/a
169.7965	0.135	339593	keystroke	a	n/a
169.8855	0.075	339771	keystroke	t	n/a
170.1255	0.06	340251	keystroke	'	n/a
170.4555	0.121	340911	keystroke	v	n/a
170.5315	0.105	341063	keystroke	e	n/a
170.9955	0.0755	341991	keystroke	Key.enter	n/a
171.0755	7.182	342151	prompt	n/a	corporation we're vocational visa\n
171.626	0.06	343252	keystroke	s	n/a
172.121	0.06	344242	keystroke	Key.backspace	n/a
172.256	0.09	344512	keystroke	c	n/a
172.406	0.0905	344812	keystroke	o	n/a
172.5715	0.0895	345143	keystroke	r	n/a
172.736	0.15	345472	keystroke	p	n/a
172.871	0.09	345742	keystroke	o	n/a
172.961	0.075	345922	keystroke	r	n/a
173.2465	0.075	346493	keystroke	t	n/a
173.756	0.0445	347512	keystroke	Key.backspace	n/a
174.776	0.12	349552	keystroke	a	n/a
174.881	0.06	349762	keystroke	t	n/a
175.031	0.12	350062	keystroke	i	n/a
175.091	0.135	350182	keystroke	o	n/a
175.166	0.135	350332	keystroke	n	n/a
175.316	0.0745	350632	keystroke	Key.space	n/a
175.4805	0.091	350961	keystroke	w	n/a
175.5565	0.135	351113	keystroke	e	n/a
175.7065	0.09	351413	keystroke	'	n/a
175.8415	0.12	351683	keystroke	r	n/a
175.9015	0.105	351803	keystroke	e	n/a
176.1405	0.076	352281	keystroke	Key.space	n/a
176.4265	0.074	352853	keystroke	v	n/a
176.5305	0.091	353061	keystroke	o	n/a
176.6955	0.075	353391	keystroke	c	n/a
176.8155	0.15	353631	keystroke	a	n/a
176.9505	0.06	353901	keystroke	t	n/a
177.0555	0.105	354111	keystroke	i	n/a
177.1305	0.12	354261	keystroke	o	n/a
177.2055	0.12	354411	keystroke	n	n/a
177.3105	0.09	354621	keystroke	a	n/a
177.4305	0.09	354861	keystroke	l	n/a
177.5055	0.09	355011	keystroke	Key.space	n/a
177.7005	0.09	355401	keystroke	v	n/a
177.8055	0.0605	355611	keystroke	i	n/a
177.926	0.075	355852	keystroke	s	n/a
178.031	0.1045	356062	keystroke	a	n/a
178.1805	0.075	356361	keystroke	Key.enter	n/a
178.263	7.315	356526	prompt	n/a	factors transaction complaint generators\n
178.9015	0.105	357803	keystroke	f	n/a
179.0365	0.105	358073	keystroke	a	n/a
179.216	0.1045	358432	keystroke	c	n/a
179.3805	0.09	358761	keystroke	t	n/a
179.4855	0.09	358971	keystroke	o	n/a
179.6055	0.09	359211	keystroke	r	n/a
179.8905	0.045	359781	keystroke	s	n/a
180.0105	0.091	360021	keystroke	Key.space	n/a
180.3415	0.06	360683	keystroke	t	n/a
180.4765	0.105	360953	keystroke	r	n/a
180.6115	0.105	361223	keystroke	a	n/a
180.7315	0.09	361463	keystroke	n	n/a
180.8665	0.09	361733	keystroke	s	n/a
181.3315	0.09	362663	keystroke	a	n/a
181.4965	0.0745	362993	keystroke	c	n/a
181.631	0.075	363262	keystroke	t	n/a
181.751	0.105	363502	keystroke	i	n/a
181.826	0.15	363652	keystroke	o	n/a
181.946	0.09	363892	keystroke	n	n/a
182.006	0.09	364012	keystroke	Key.space	n/a
182.201	0.075	364402	keystroke	c	n/a
182.291	0.195	364582	keystroke	o	n/a
182.456	0.09	364912	keystroke	m	n/a
182.636	0.075	365272	keystroke	p	n/a
182.816	0.075	365632	keystroke	l	n/a
182.876	0.12	365752	keystroke	a	n/a
183.011	0.105	366022	keystroke	i	n/a
183.086	0.09	366172	keystroke	n	n/a
183.3415	0.029	366683	keystroke	t	n/a
183.8355	0.09	367671	keystroke	Key.space	n/a
184.0465	0.09	368093	keystroke	g	n/a
184.1815	0.075	368363	keystroke	e	n/a
184.3015	0.075	368603	keystroke	n	n/a
184.4065	0.135	368813	keystroke	e	n/a
184.5265	0.09	369053	keystroke	r	n/a
184.6915	0.12	369383	keystroke	a	n/a
184.8715	0.06	369743	keystroke	t	n/a
184.9915	0.105	369983	keystroke	o	n/a
185.1115	0.09	370223	keystroke	r	n/a
185.3515	0.06	370703	keystroke	s	n/a
185.5165	0.06	371033	keystroke	Key.enter	n/a
185.5805	7.5275	371161	prompt	n/a	practical contracting threatening mature\n
186.176	0.015	372352	keystroke	g	n/a
186.6715	0.075	373343	keystroke	Key.backspace	n/a
186.9115	0.075	373823	keystroke	p	n/a
187.0315	0.06	374063	keystroke	r	n/a
187.1815	0.15	374363	keystroke	a	n/a
187.4065	0.105	374813	keystroke	c	n/a
187.5865	0.075	375173	keystroke	t	n/a
187.7215	0.075	375443	keystroke	i	n/a
187.8715	0.135	375743	keystroke	c	n/a
188.0215	0.1045	376043	keystroke	a	n/a
188.171	0.09	376342	keystroke	l	n/a
188.231	0.105	376462	keystroke	Key.space	n/a
188.486	0.075	376972	keystroke	c	n/a
188.576	0.0595	377152	keystroke	o	n/a
188.6215	0.074	377243	keystroke	n	n/a
188.8165	0.06	377633	keystroke	t	n/a
188.9655	0.091	377931	keystroke	r	n/a
189.086	0.1195	378172	keystroke	a	n/a
189.2655	0.075	378531	keystroke	c	n/a
189.4605	0.061	378921	keystroke	t	n/a
189.5505	0.1055	379101	keystroke	i	n/a
189.611	0.1195	379222	keystroke	n	n/a
189.7165	0.059	379433	keystroke	g	n/a
189.7905	0.09	379581	keystroke	Key.space	n/a
189.9855	0.091	379971	keystroke	t	n/a
190.0915	0.09	380183	keystroke	h	n/a
190.2715	0.165	380543	keystroke	r	n/a
190.4065	0.09	380813	keystroke	e	n/a
190.6465	0.06	381293	keystroke	a	n/a
191.2465	0.075	382493	keystroke	t	n/a
191.4415	0.075	382883	keystroke	e	n/a
191.5765	0.105	383153	keystroke	n	n/a
191.6965	0.12	383393	keystroke	i	n/a
191.7865	0.09	383573	keystroke	n	n/a
191.8915	0.075	383783	keystroke	g	n/a
191.9965	0.1045	383993	keystroke	Key.space	n/a
192.176	0.09	384352	keystroke	m	n/a
192.296	0.1495	384592	keystroke	a	n/a
192.4765	0.045	384953	keystroke	t	n/a
192.6565	0.06	385313	keystroke	u	n/a
192.7465	0.1195	385493	keystroke	r	n/a
192.8215	0.1195	385643	keystroke	e	n/a
193.046	0.06	386092	keystroke	Key.enter	n/a
193.1105	6.3125	386221	prompt	n/a	hugo stereo exciting scientist\n
193.781	0.0455	387562	keystroke	h	n/a
193.916	0.06	387832	keystroke	u	n/a
194.021	0.075	388042	keystroke	g	n/a
194.171	0.1045	388342	keystroke	o	n/a
194.2765	0.074	388553	keystroke	Key.space	n/a
194.4405	0.105	388881	keystroke	s	n/a
194.591	0.12	389182	keystroke	t	n/a
194.696	0.12	389392	keystroke	e	n/a
194.771	0.15	389542	keystroke	r	n/a
195.011	0.09	390022	keystroke	e	n/a
195.206	0.105	390412	keystroke	o	n/a
195.296	0.09	390592	keystroke	Key.space	n/a
195.611	0.075	391222	keystroke	e	n/a
195.821	0.06	391642	keystroke	x	n/a
196.016	0.09	392032	keystroke	c	n/a
196.136	0.075	392272	keystroke	i	n/a
196.256	0.06	392512	keystroke	t	n/a
196.331	0.15	392662	keystroke	i	n/a
196.436	0.105	392872	keystroke	n	n/a
196.556	0.0605	393112	keystroke	g	n/a
196.6315	0.09	393263	keystroke	Key.space	n/a
196.9165	0.044	393833	keystroke	e	n/a
197.3805	0.0605	394761	keystroke	Key.backspace	n/a
197.456	0.075	394912	keystroke	s	n/a
197.651	0.075	395302	keystroke	c	n/a
197.831	0.09	395662	keystroke	i	n/a
197.996	0.075	395992	keystroke	e	n/a
198.101	0.09	396202	keystroke	n	n/a
198.221	0.075	396442	keystroke	t	n/a
198.356	0.09	396712	keystroke	i	n/a
198.731	0.12	397462	keystroke	s	n/a
198.866	0.06	397732	keystroke	t	n/a
199.346	0.075	398692	keystroke	Key.enter	n/a
199.428	8.1995	398856	prompt	n/a	herein enormous temperature clear\n
200.081	0.075	400162	keystroke	h	n/a
200.201	0.105	400402	keystroke	e	n/a
200.321	0.09	400642	keystroke	i	n/a
200.486	0.06	400972	keystroke	r	n/a
201.041	0.105	402082	keystroke	i	n/a
201.2815	0.06	402563	keystroke	n	n/a
201.791	0.06	403582	keystroke	Key.backspace	n/a
201.926	0.075	403852	keystroke	Key.backspace	n/a
202.0765	0.06	404153	keystroke	Key.backspace	n/a
202.2115	0.075	404423	keystroke	Key.backspace	n/a
202.3165	0.105	404633	keystroke	e	n/a
202.9315	0.045	405863	keystroke	Key.backspace	n/a
203.0815	0.12	406163	keystroke	r	n/a
203.1565	0.105	406313	keystroke	e	n/a
203.4265	0.1345	406853	keystroke	i	n/a
203.546	0.105	407092	keystroke	n	n/a
203.711	0.0605	407422	keystroke	Key.space	n/a
203.9365	0.104	407873	keystroke	e	n/a
204.0555	0.106	408111	keystroke	n	n/a
204.1755	0.106	408351	keystroke	o	n/a
204.2965	0.059	408593	keystroke	r	n/a
204.4005	0.105	408801	keystroke	m	n/a
204.5665	0.104	409133	keystroke	o	n/a
204.6565	0.074	409313	keystroke	u	n/a
204.7755	0.076	409551	keystroke	s	n/a
204.8665	0.075	409733	keystroke	Key.space	n/a
205.0615	0.075	410123	keystroke	t	n/a
205.1515	0.15	410303	keystroke	e	n/a
205.3165	0.09	410633	keystroke	m	n/a
205.4665	0.0895	410933	keystroke	p	n/a
205.601	0.09	411202	keystroke	e	n/a
205.676	0.09	411352	keystroke	r	n/a
205.856	0.135	411712	keystroke	a	n/a
205.946	0.09	411892	keystroke	t	n/a
206.1265	0.09	412253	keystroke	u	n/a
206.2615	0.12	412523	keystroke	r	n/a
206.3515	0.135	412703	keystroke	e	n/a
206.5015	0.105	413003	keystroke	Key.space	n/a
206.6815	0.12	413363	keystroke	c	n/a
206.8165	0.075	413633	keystroke	l	n/a
206.9365	0.18	413873	keystroke	e	n/a
207.1165	0.18	414233	keystroke	a	n/a
207.2515	0.09	414503	keystroke	r	n/a
207.5515	0.075	415103	keystroke	Key.enter	n/a
207.631	9.0115	415262	prompt	n/a	nomination faith economies equilibrium\n
208.3315	0.1495	416663	keystroke	h	n/a
208.4515	0.015	416903	keystroke	o	n/a
208.901	0.075	417802	keystroke	m	n/a
209.5455	0.0605	419091	keystroke	Key.backspace	n/a
209.696	0.0595	419392	keystroke	Key.backspace	n/a
209.8455	0.075	419691	keystroke	Key.backspace	n/a
210.056	0.03	420112	keystroke	Key.backspace	n/a
210.356	0.105	420712	keystroke	n	n/a
210.446	0.105	420892	keystroke	o	n/a
210.581	0.075	421162	keystroke	m	n/a
210.746	0.09	421492	keystroke	i	n/a
210.851	0.075	421702	keystroke	n	n/a
211.016	0.15	422032	keystroke	a	n/a
211.136	0.06	422272	keystroke	t	n/a
211.226	0.12	422452	keystroke	i	n/a
211.316	0.12	422632	keystroke	o	n/a
211.376	0.12	422752	keystroke	n	n/a
211.481	0.075	422962	keystroke	Key.space	n/a
211.646	0.09	423292	keystroke	f	n/a
211.796	0.12	423592	keystroke	a	n/a
211.931	0.06	423862	keystroke	i	n/a
212.036	0.09	424072	keystroke	t	n/a
212.141	0.09	424282	keystroke	h	n/a
212.321	0.06	424642	keystroke	Key.space	n/a
212.621	0.045	425242	keystroke	e	n/a
212.8615	0.06	425723	keystroke	c	n/a
212.9515	0.1345	425903	keystroke	o	n/a
213.1615	0.1045	426323	keystroke	n	n/a
213.281	0.135	426562	keystroke	o	n/a
213.476	0.12	426952	keystroke	m	n/a
213.776	0.045	427552	keystroke	i	n/a
213.851	0.135	427702	keystroke	e	n/a
213.971	0.105	427942	keystroke	s	n/a
214.106	0.09	428212	keystroke	Key.space	n/a
214.391	0.09	428782	keystroke	e	n/a
214.601	0.105	429202	keystroke	q	n/a
214.736	0.105	429472	keystroke	u	n/a
214.856	0.12	429712	keystroke	i	n/a
215.051	0.105	430102	keystroke	l	n/a
215.216	0.075	430432	keystroke	i	n/a
215.426	0.045	430852	keystroke	b	n/a
215.606	0.075	431212	keystroke	r	n/a
215.846	0.09	431692	keystroke	i	n/a
215.966	0.105	431932	keystroke	u	n/a
216.191	0.06	432382	keystroke	m	n/a
216.566	0.075	433132	keystroke	Key.enter	n/a
216.6455	5.967	433291	prompt	n/a	builders cork medicaid crowd\n
217.301	0.06	434602	keystroke	b	n/a
217.4215	0.075	434843	keystroke	u	n/a
217.5865	0.09	435173	keystroke	i	n/a
217.7365	0.105	435473	keystroke	l	n/a
217.8565	0.06	435713	keystroke	d	n/a
218.0065	0.1045	436013	keystroke	e	n/a
218.066	0.12	436132	keystroke	r	n/a
218.306	0.075	436612	keystroke	s	n/a
218.396	0.09	436792	keystroke	Key.space	n/a
218.591	0.075	437182	keystroke	c	n/a
218.696	0.09	437392	keystroke	o	n/a
218.846	0.075	437692	keystroke	r	n/a
219.011	0.06	438022	keystroke	k	n/a
219.101	0.075	438202	keystroke	Key.space	n/a
219.311	0.09	438622	keystroke	m	n/a
219.536	0.075	439072	keystroke	e	n/a
219.731	0.09	439462	keystroke	d	n/a
219.866	0.075	439732	keystroke	i	n/a
220.466	0.075	440932	keystroke	c	n/a
220.7065	0.105	441413	keystroke	a	n/a
220.946	0.075	441892	keystroke	i	n/a
221.1415	0.0745	442283	keystroke	d	n/a
221.2465	0.1045	442493	keystroke	Key.space	n/a
221.651	0.105	443302	keystroke	c	n/a
221.9065	0.105	443813	keystroke	r	n/a
222.0715	0.075	444143	keystroke	o	n/a
222.1765	0.06	444353	keystroke	w	n/a
222.401	0.045	444802	keystroke	d	n/a
222.551	0.06	445102	keystroke	Key.enter	n/a
222.6155	7.257	445231	prompt	n/a	minolta reseller holds quotes\n
223.151	0.09	446302	keystroke	m	n/a
223.271	0.03	446542	keystroke	e	n/a
223.376	0.09	446752	keystroke	i	n/a
223.871	0.06	447742	keystroke	Key.backspace	n/a
224.111	0.075	448222	keystroke	Key.backspace	n/a
224.3815	0.105	448763	keystroke	i	n/a
224.4555	0.106	448911	keystroke	n	n/a
224.6215	0.09	449243	keystroke	o	n/a
224.7715	0.105	449543	keystroke	l	n/a
225.0855	0.091	450171	keystroke	t	n/a
225.1915	0.1345	450383	keystroke	a	n/a
225.3115	0.0895	450623	keystroke	Key.space	n/a
225.7015	0.105	451403	keystroke	r	n/a
225.7915	0.09	451583	keystroke	e	n/a
226.3315	0.09	452663	keystroke	s	n/a
226.4965	0.09	452993	keystroke	e	n/a
226.7515	0.06	453503	keystroke	l	n/a
226.9015	0.06	453803	keystroke	l	n/a
226.9915	0.15	453983	keystroke	e	n/a
227.1265	0.075	454253	keystroke	r	n/a
227.2165	0.104	454433	keystroke	Key.space	n/a
227.4865	0.105	454973	keystroke	h	n/a
227.5465	0.105	455093	keystroke	o	n/a
227.7265	0.12	455453	keystroke	l	n/a
227.8615	0.09	455723	keystroke	d	n/a
227.9965	0.105	455993	keystroke	s	n/a
228.5965	0.06	457193	keystroke	Key.space	n/a
228.8365	0.09	457673	keystroke	q	n/a
228.9415	0.105	457883	keystroke	u	n/a
229.2865	0.06	458573	keystroke	o	n/a
229.3615	0.1355	458723	keystroke	t	n/a
229.436	0.181	458872	keystroke	e	n/a
229.587	0.104	459174	keystroke	s	n/a
229.796	0.075	459592	keystroke	Key.enter	n/a
229.876	4.782	459752	prompt	n/a	nails movements idle disposal\n
230.4565	0.09	460913	keystroke	n	n/a
230.5615	0.09	461123	keystroke	a	n/a
230.6665	0.105	461333	keystroke	i	n/a
230.7565	0.12	461513	keystroke	l	n/a
230.8465	0.105	461693	keystroke	s	n/a
230.9815	0.119	461963	keystroke	Key.space	n/a
231.1165	0.105	462233	keystroke	m	n/a
231.2065	0.105	462413	keystroke	o	n/a
231.3565	0.0895	462713	keystroke	v	n/a
231.431	0.1055	462862	keystroke	e	n/a
231.642	0.0895	463284	keystroke	m	n/a
231.7765	0.105	463553	keystroke	e	n/a
231.897	0.0595	463794	keystroke	n	n/a
232.0015	0.075	464003	keystroke	t	n/a
232.1665	0.09	464333	keystroke	s	n/a
232.2865	0.075	464573	keystroke	Key.space	n/a
232.4815	0.09	464963	keystroke	i	n/a
232.6315	0.09	465263	keystroke	d	n/a
232.7665	0.105	465533	keystroke	l	n/a
232.8865	0.09	465773	keystroke	e	n/a
233.0065	0.075	466013	keystroke	Key.space	n/a
233.2615	0.075	466523	keystroke	d	n/a
233.3665	0.06	466733	keystroke	i	n/a
233.5015	0.06	467003	keystroke	s	n/a
233.6815	0.105	467363	keystroke	p	n/a
233.8165	0.09	467633	keystroke	o	n/a
234.1015	0.0905	468203	keystroke	s	n/a
234.2215	0.12	468443	keystroke	a	n/a
234.3865	0.09	468773	keystroke	l	n/a
234.5955	0.061	469191	keystroke	Key.enter	n/a
234.661	4.152	469322	prompt	n/a	housing wendy device noted\n
235.2115	0.09	470423	keystroke	h	n/a
235.3015	0.105	470603	keystroke	o	n/a
235.3915	0.075	470783	keystroke	u	n/a
235.4515	0.1195	470903	keystroke	s	n/a
235.601	0.105	471202	keystroke	i	n/a
235.661	0.12	471322	keystroke	n	n/a
235.766	0.06	471532	keystroke	g	n/a
235.841	0.09	471682	keystroke	Key.space	n/a
236.1265	0.105	472253	keystroke	w	n/a
236.2165	0.105	472433	keystroke	e	n/a
236.3365	0.075	472673	keystroke	n	n/a
236.4715	0.09	472943	keystroke	d	n/a
236.6065	0.09	473213	keystroke	y	n/a
236.6815	0.06	473363	keystroke	Key.space	n/a
237.0265	0.075	474053	keystroke	d	n/a
237.2065	0.06	474413	keystroke	e	n/a
237.3865	0.09	474773	keystroke	v	n/a
237.4915	0.09	474983	keystroke	i	n/a
237.6115	0.09	475223	keystroke	c	n/a
237.8065	0.0595	475613	keystroke	e	n/a
237.896	0.09	475792	keystroke	Key.space	n/a
238.0465	0.105	476093	keystroke	n	n/a
238.137	0.1045	476274	keystroke	o	n/a
238.2265	0.195	476453	keystroke	t	n/a
238.3915	0.15	476783	keystroke	e	n/a
238.6015	0.075	477203	keystroke	d	n/a
238.7515	0.06	477503	keystroke	Key.enter	n/a
238.8155	5.1725	477631	prompt	n/a	acid genes tickets underlying\n
239.501	0.091	479002	keystroke	a	n/a
239.637	0.09	479274	keystroke	c	n/a
239.787	0.06	479574	keystroke	i	n/a
239.951	0.0905	479902	keystroke	d	n/a
240.0715	0.09	480143	keystroke	Key.space	n/a
240.2965	0.09	480593	keystroke	g	n/a
240.4315	0.105	480863	keystroke	e	n/a
240.5815	0.06	481163	keystroke	n	n/a
240.6565	0.09	481313	keystroke	e	n/a
240.882	0.0745	481764	keystroke	s	n/a
241.0165	0.09	482033	keystroke	Key.space	n/a
241.2265	0.075	482453	keystroke	t	n/a
241.3165	0.075	482633	keystroke	i	n/a
241.4515	0.09	482903	keystroke	c	n/a
241.5565	0.06	483113	keystroke	k	n/a
241.7065	0.09	483413	keystroke	e	n/a
241.8415	0.105	483683	keystroke	t	n/a
241.9765	0.105	483953	keystroke	s	n/a
242.1105	0.076	484221	keystroke	Key.space	n/a
242.2465	0.075	484493	keystroke	u	n/a
242.4415	0.075	484883	keystroke	n	n/a
242.5605	0.046	485121	keystroke	d	n/a
242.907	0.09	485814	keystroke	e	n/a
242.981	0.106	485962	keystroke	r	n/a
243.266	0.0905	486532	keystroke	l	n/a
243.3715	0.09	486743	keystroke	y	n/a
243.5215	0.12	487043	keystroke	i	n/a
243.6265	0.09	487253	keystroke	n	n/a
243.7165	0.06	487433	keystroke	g	n/a
243.9265	0.06	487853	keystroke	Key.enter	n/a
243.9905	8.8625	487981	prompt	n/a	samples anniversary disability entities\n
244.6165	0.03	489233	keystroke	s	n/a
244.9915	0.045	489983	keystroke	m	n/a
245.3215	0.06	490643	keystroke	Key.backspace	n/a
245.4565	0.09	490913	keystroke	a	n/a
245.5615	0.075	491123	keystroke	m	n/a
245.7115	0.135	491423	keystroke	p	n/a
245.8915	0.09	491783	keystroke	l	n/a
245.9965	0.135	491993	keystroke	e	n/a
246.1165	0.12	492233	keystroke	s	n/a
246.2065	0.09	492413	keystroke	Key.space	n/a
246.4015	0.105	492803	keystroke	a	n/a
246.5075	0.059	493015	keystroke	n	n/a
246.6415	0.075	493283	keystroke	n	n/a
246.7465	0.0895	493493	keystroke	i	n/a
246.8665	0.105	493733	keystroke	v	n/a
246.9565	0.165	493913	keystroke	e	n/a
247.076	0.1055	494152	keystroke	r	n/a
247.346	0.0755	494692	keystroke	s	n/a
247.4515	0.12	494903	keystroke	a	n/a
247.7065	0.06	495413	keystroke	r	n/a
247.8865	0.105	495773	keystroke	y	n/a
247.9765	0.075	495953	keystroke	Key.space	n/a
248.3215	0.075	496643	keystroke	d	n/a
248.4565	0.06	496913	keystroke	i	n/a
248.6365	0.1345	497273	keystroke	s	n/a
248.801	0.12	497602	keystroke	a	n/a
248.981	0.06	497962	keystroke	b	n/a
249.116	0.09	498232	keystroke	i	n/a
249.326	0.12	498652	keystroke	o	n/a
249.986	0.06	499972	keystroke	Key.backspace	n/a
250.226	0.135	500452	keystroke	l	n/a
250.346	0.09	500692	keystroke	i	n/a
250.451	0.09	500902	keystroke	t	n/a
250.631	0.09	501262	keystroke	y	n/a
250.736	0.06	501472	keystroke	Key.space	n/a
251.666	0.075	503332	keystroke	e	n/a
251.816	0.075	503632	keystroke	n	n/a
252.011	0.06	504022	keystroke	t	n/a
252.101	0.06	504202	keystroke	i	n/a
252.206	0.1055	504412	keystroke	t	n/a
252.341	0.0605	504682	keystroke	i	n/a
252.431	0.135	504862	keystroke	e	n/a
252.536	0.12	505072	keystroke	s	n/a
252.791	0.06	505582	keystroke	Key.enter	n/a
252.8595	5.6035	505719	prompt	n/a	frederick symbol lisa happens\n
253.511	0.136	507022	keystroke	f	n/a
254.3515	0.09	508703	keystroke	r	n/a
254.4865	0.09	508973	keystroke	e	n/a
254.7415	0.06	509483	keystroke	d	n/a
254.9215	0.1195	509843	keystroke	e	n/a
254.9815	0.1195	509963	keystroke	r	n/a
255.146	0.0755	510292	keystroke	i	n/a
255.2665	0.09	510533	keystroke	c	n/a
255.3865	0.105	510773	keystroke	k	n/a
255.476	0.1205	510952	keystroke	Key.space	n/a
255.7315	0.075	511463	keystroke	s	n/a
255.8515	0.075	511703	keystroke	y	n/a
256.0615	0.075	512123	keystroke	m	n/a
256.3015	0.075	512603	keystroke	b	n/a
256.4215	0.09	512843	keystroke	o	n/a
256.6165	0.09	513233	keystroke	l	n/a
256.7365	0.09	513473	keystroke	Key.space	n/a
256.9765	0.09	513953	keystroke	l	n/a
257.0515	0.105	514103	keystroke	i	n/a
257.1715	0.09	514343	keystroke	s	n/a
257.3365	0.1195	514673	keystroke	a	n/a
257.471	0.075	514942	keystroke	Key.space	n/a
257.606	0.076	515212	keystroke	h	n/a
257.711	0.105	515422	keystroke	a	n/a
257.832	0.059	515664	keystroke	p	n/a
257.951	0.0905	515902	keystroke	p	n/a
258.0715	0.06	516143	keystroke	e	n/a
258.1465	0.06	516293	keystroke	n	n/a
258.266	0.105	516532	keystroke	s	n/a
258.401	0.06	516802	keystroke	Key.enter	n/a
258.4655	6.207	516931	prompt	n/a	retreat foto chess suggesting\n
259.121	0.12	518242	keystroke	r	n/a
259.256	0.135	518512	keystroke	e	n/a
259.4965	0.06	518993	keystroke	t	n/a
259.6615	0.15	519323	keystroke	r	n/a
259.7665	0.12	519533	keystroke	e	n/a
259.9015	0.255	519803	keystroke	a	n/a
260.0965	0.075	520193	keystroke	t	n/a
260.3365	0.075	520673	keystroke	Key.space	n/a
260.5765	0.075	521153	keystroke	f	n/a
260.6515	0.09	521303	keystroke	o	n/a
260.8315	0.06	521663	keystroke	t	n/a
260.9065	0.12	521813	keystroke	o	n/a
261.0115	0.09	522023	keystroke	Key.space	n/a
261.2815	0.075	522563	keystroke	c	n/a
261.3715	0.06	522743	keystroke	h	n/a
261.4605	0.0615	522921	keystroke	e	n/a
261.5665	0.0755	523133	keystroke	l	n/a
261.7015	0.09	523403	keystroke	l	n/a
261.971	0.0605	523942	keystroke	Key.space	n/a
262.1965	0.06	524393	keystroke	Key.backspace	n/a
262.3315	0.0595	524663	keystroke	Key.backspace	n/a
262.451	0.075	524902	keystroke	Key.backspace	n/a
262.541	0.0755	525082	keystroke	s	n/a
262.6915	0.0895	525383	keystroke	s	n/a
262.7965	0.105	525593	keystroke	Key.space	n/a
263.2915	0.12	526583	keystroke	s	n/a
263.4265	0.045	526853	keystroke	u	n/a
263.5465	0.045	527093	keystroke	g	n/a
263.6665	0.135	527333	keystroke	g	n/a
263.7865	0.12	527573	keystroke	e	n/a
263.8915	0.135	527783	keystroke	s	n/a
263.9815	0.105	527963	keystroke	t	n/a
264.1165	0.105	528233	keystroke	i	n/a
264.1915	0.105	528383	keystroke	n	n/a
264.3115	0.045	528623	keystroke	g	n/a
264.6115	0.059	529223	keystroke	Key.enter	n/a
264.676	5.067	529352	prompt	n/a	extras hard receptors group\n
265.226	0.09	530452	keystroke	e	n/a
265.496	0.09	530992	keystroke	x	n/a
265.706	0.06	531412	keystroke	t	n/a
265.826	0.105	531652	keystroke	r	n/a
265.946	0.0905	531892	keystroke	a	n/a
266.0815	0.105	532163	keystroke	s	n/a
266.2165	0.075	532433	keystroke	Key.space	n/a
266.4405	0.0765	532881	keystroke	h	n/a
266.5305	0.1505	533061	keystroke	a	n/a
266.6355	0.0905	533271	keystroke	r	n/a
266.832	0.089	533664	keystroke	d	n/a
266.922	0.089	533844	keystroke	Key.space	n/a
267.191	0.1055	534382	keystroke	r	n/a
267.2815	0.09	534563	keystroke	e	n/a
267.4915	0.09	534983	keystroke	c	n/a
267.7165	0.045	535433	keystroke	e	n/a
267.8215	0.1045	535643	keystroke	p	n/a
267.971	0.06	535942	keystroke	t	n/a
268.061	0.105	536122	keystroke	o	n/a
268.151	0.105	536302	keystroke	r	n/a
268.361	0.09	536722	keystroke	s	n/a
268.481	0.09	536962	keystroke	Key.space	n/a
268.691	0.06	537382	keystroke	g	n/a
268.856	0.09	537712	keystroke	r	n/a
268.961	0.3	537922	keystroke	o	n/a
269.051	0.15	538102	keystroke	u	n/a
269.216	0.09	538432	keystroke	p	n/a
269.666	0.075	539332	keystroke	Key.enter	n/a
269.746	8.0515	539492	prompt	n/a	fragrances monthly chronicles retain\n
270.326	0.075	540652	keystroke	f	n/a
270.521	0.06	541042	keystroke	r	n/a
270.671	0.12	541342	keystroke	a	n/a
270.941	0.045	541882	keystroke	g	n/a
271.091	0.09	542182	keystroke	r	n/a
271.196	0.105	542392	keystroke	a	n/a
271.331	0.06	542662	keystroke	n	n/a
271.421	0.09	542842	keystroke	c	n/a
271.616	0.15	543232	keystroke	e	n/a
271.706	0.135	543412	keystroke	s	n/a
271.856	0.09	543712	keystroke	Key.space	n/a
271.961	0.1205	543922	keystroke	m	n/a
272.0965	0.105	544193	keystroke	o	n/a
272.2165	0.075	544433	keystroke	n	n/a
272.5315	0.09	545063	keystroke	t	n/a
272.6365	0.09	545273	keystroke	h	n/a
272.8015	0.165	545603	keystroke	l	n/a
272.9365	0.105	545873	keystroke	y	n/a
273.0265	0.06	546053	keystroke	Key.space	n/a
273.3265	0.105	546653	keystroke	c	n/a
273.4765	0.03	546953	keystroke	o	n/a
273.9865	0.06	547973	keystroke	Key.backspace	n/a
274.1965	0.075	548393	keystroke	h	n/a
274.3165	0.09	548633	keystroke	r	n/a
274.4215	0.12	548843	keystroke	o	n/a
274.5265	0.09	549053	keystroke	n	n/a
274.6315	0.09	549263	keystroke	i	n/a
274.8265	0.075	549653	keystroke	c	n/a
275.0065	0.045	550013	keystroke	e	n/a
275.0665	0.09	550133	keystroke	l	n/a
275.5315	0.06	551063	keystroke	Key.backspace	n/a
275.6515	0.075	551303	keystroke	Key.backspace	n/a
275.906	0.06	551812	keystroke	l	n/a
276.0565	0.09	552113	keystroke	e	n/a
276.1615	0.12	552323	keystroke	s	n/a
276.2965	0.09	552593	keystroke	Key.space	n/a
276.6565	0.12	553313	keystroke	r	n/a
276.7165	0.18	553433	keystroke	e	n/a
276.8815	0.0895	553763	keystroke	t	n/a
277.001	0.135	554002	keystroke	a	n/a
277.137	0.149	554274	keystroke	i	n/a
277.241	0.09	554482	keystroke	n	n/a
277.736	0.06	555472	keystroke	Key.enter	n/a
277.801	8.4725	555602	prompt	n/a	practitioners designated please expiration\n
278.411	0.09	556822	keystroke	p	n/a
278.546	0.12	557092	keystroke	r	n/a
278.696	0.1355	557392	keystroke	a	n/a
278.906	0.09	557812	keystroke	c	n/a
279.086	0.0605	558172	keystroke	i	n/a
279.416	0.045	558832	keystroke	Key.backspace	n/a
279.6715	0.06	559343	keystroke	t	n/a
279.836	0.0605	559672	keystroke	i	n/a
279.971	0.075	559942	keystroke	t	n/a
280.316	0.06	560632	keystroke	i	n/a
280.736	0.136	561472	keystroke	o	n/a
280.856	0.09	561712	keystroke	n	n/a
281.201	0.105	562402	keystroke	e	n/a
281.261	0.09	562522	keystroke	r	n/a
281.4715	0.075	562943	keystroke	s	n/a
281.5615	0.075	563123	keystroke	Key.space	n/a
282.0115	0.0745	564023	keystroke	d	n/a
282.161	0.105	564322	keystroke	e	n/a
282.281	0.105	564562	keystroke	s	n/a
282.416	0.09	564832	keystroke	i	n/a
282.551	0.06	565102	keystroke	g	n/a
282.716	0.06	565432	keystroke	n	n/a
282.821	0.165	565642	keystroke	a	n/a
282.9565	0.105	565913	keystroke	t	n/a
283.0315	0.12	566063	keystroke	e	n/a
283.2115	0.09	566423	keystroke	d	n/a
283.3165	0.075	566633	keystroke	Key.space	n/a
283.5115	0.09	567023	keystroke	p	n/a
283.7065	0.09	567413	keystroke	l	n/a
283.7815	0.12	567563	keystroke	e	n/a
283.8715	0.135	567743	keystroke	a	n/a
283.9465	0.21	567893	keystroke	s	n/a
284.0815	0.12	568163	keystroke	e	n/a
284.4105	0.075	568821	keystroke	Key.space	n/a
284.6815	0.09	569363	keystroke	e	n/a
284.9065	0.119	569813	keystroke	x	n/a
285.0715	0.09	570143	keystroke	p	n/a
285.2515	0.044	570503	keystroke	i	n/a
285.3715	0.09	570743	keystroke	r	n/a
285.536	0.135	571072	keystroke	a	n/a
285.626	0.09	571252	keystroke	t	n/a
285.731	0.15	571462	keystroke	i	n/a
285.836	0.1345	571672	keystroke	o	n/a
285.926	0.1195	571852	keystroke	n	n/a
286.2105	0.06	572421	keystroke	Key.enter	n/a
286.2765	5.7415	572553	prompt	n/a	oven grass batman mortgage\n
286.931	0.075	573862	keystroke	o	n/a
287.051	0.12	574102	keystroke	v	n/a
287.186	0.1205	574372	keystroke	e	n/a
287.2765	0.09	574553	keystroke	r	n/a
287.8015	0.045	575603	keystroke	Key.backspace	n/a
287.9965	0.075	575993	keystroke	n	n/a
288.0715	0.09	576143	keystroke	Key.space	n/a
288.2815	0.06	576563	keystroke	g	n/a
288.4465	0.09	576893	keystroke	r	n/a
288.5665	0.1045	577133	keystroke	a	n/a
288.776	0.045	577552	keystroke	s	n/a
288.896	0.075	577792	keystroke	s	n/a
288.986	0.075	577972	keystroke	Key.space	n/a
289.181	0.06	578362	keystroke	b	n/a
289.256	0.165	578512	keystroke	a	n/a
289.451	0.06	578902	keystroke	t	n/a
289.601	0.1055	579202	keystroke	m	n/a
289.721	0.105	579442	keystroke	a	n/a
289.841	0.09	579682	keystroke	n	n/a
289.932	0.089	579864	keystroke	Key.space	n/a
290.126	0.09	580252	keystroke	m	n/a
290.231	0.075	580462	keystroke	o	n/a
290.366	0.075	580732	keystroke	r	n/a
290.5315	0.075	581063	keystroke	t	n/a
290.8465	0.15	581693	keystroke	g	n/a
290.9665	0.1495	581933	keystroke	a	n/a
291.086	0.135	582172	keystroke	g	n/a
291.281	0.105	582562	keystroke	e	n/a
291.926	0.09	583852	keystroke	Key.enter	n/a
292.0205	6.312	584041	prompt	n/a	strategic celebrity scores lucy\n
292.601	0.105	585202	keystroke	s	n/a
292.751	0.09	585502	keystroke	t	n/a
292.901	0.1205	585802	keystroke	r	n/a
293.1715	0.15	586343	keystroke	a	n/a
293.3065	0.09	586613	keystroke	t	n/a
293.4865	0.06	586973	keystroke	e	n/a
293.6515	0.06	587303	keystroke	g	n/a
293.7715	0.09	587543	keystroke	i	n/a
293.9515	0.075	587903	keystroke	c	n/a
294.041	0.105	588082	keystroke	Key.space	n/a
294.191	0.06	588382	keystroke	d	n/a
294.836	0.06	589672	keystroke	Key.backspace	n/a
294.941	0.075	589882	keystroke	c	n/a
295.166	0.06	590332	keystroke	e	n/a
295.286	0.06	590572	keystroke	l	n/a
295.376	0.09	590752	keystroke	e	n/a
295.601	0.075	591202	keystroke	b	n/a
295.796	0.06	591592	keystroke	r	n/a
295.931	0.075	591862	keystroke	i	n/a
296.1865	0.075	592373	keystroke	t	n/a
296.3515	0.09	592703	keystroke	y	n/a
296.4265	0.0745	592853	keystroke	Key.space	n/a
296.606	0.09	593212	keystroke	s	n/a
296.921	0.075	593842	keystroke	c	n/a
297.026	0.105	594052	keystroke	o	n/a
297.176	0.09	594352	keystroke	r	n/a
297.206	0.1955	594412	keystroke	e	n/a
297.3565	0.135	594713	keystroke	s	n/a
297.4765	0.09	594953	keystroke	Key.space	n/a
297.7015	0.075	595403	keystroke	l	n/a
297.8365	0.075	595673	keystroke	u	n/a
297.9565	0.0745	595913	keystroke	c	n/a
298.0765	0.06	596153	keystroke	y	n/a
298.2715	0.06	596543	keystroke	Key.enter	n/a
298.3355	4.857	596671	prompt	n/a	manner elderly graphics frog\n
298.886	0.075	597772	keystroke	m	n/a
298.976	0.105	597952	keystroke	a	n/a
299.096	0.03	598192	keystroke	n	n/a
299.2015	0.075	598403	keystroke	n	n/a
299.2915	0.12	598583	keystroke	e	n/a
299.3815	0.09	598763	keystroke	r	n/a
299.4265	0.105	598853	keystroke	Key.space	n/a
299.6515	0.06	599303	keystroke	e	n/a
299.8165	0.075	599633	keystroke	l	n/a
300.0865	0.075	600173	keystroke	d	n/a
300.2515	0.12	600503	keystroke	e	n/a
300.3265	0.09	600653	keystroke	r	n/a
300.4915	0.1195	600983	keystroke	l	n/a
300.626	0.09	601252	keystroke	y	n/a
300.701	0.075	601402	keystroke	Key.space	n/a
300.986	0.06	601972	keystroke	g	n/a
301.151	0.09	602302	keystroke	r	n/a
301.256	0.105	602512	keystroke	a	n/a
301.526	0.075	603052	keystroke	p	n/a
301.631	0.09	603262	keystroke	h	n/a
301.766	0.09	603532	keystroke	i	n/a
301.886	0.1055	603772	keystroke	c	n/a
302.111	0.09	604222	keystroke	s	n/a
302.202	0.074	604404	keystroke	Key.space	n/a
302.516	0.06	605032	keystroke	f	n/a
302.651	0.06	605302	keystroke	r	n/a
302.741	0.105	605482	keystroke	o	n/a
302.906	0.045	605812	keystroke	g	n/a
303.1155	0.0755	606231	keystroke	Key.enter	n/a
303.1955	7.6315	606391	prompt	n/a	appointed pond admission handed\n
304.031	0.1205	608062	keystroke	a	n/a
304.3165	0.075	608633	keystroke	p	n/a
304.4515	0.165	608903	keystroke	p	n/a
304.781	0.12	609562	keystroke	o	n/a
304.871	0.135	609742	keystroke	i	n/a
304.976	0.12	609952	keystroke	n	n/a
305.186	0.105	610372	keystroke	t	n/a
305.276	0.075	610552	keystroke	e	n/a
305.441	0.06	610882	keystroke	d	n/a
305.591	0.075	611182	keystroke	Key.space	n/a
306.2365	0.134	612473	keystroke	p	n/a
306.3865	0.164	612773	keystroke	o	n/a
306.5065	0.105	613013	keystroke	n	n/a
306.7315	0.074	613463	keystroke	d	n/a
307.8705	0.09	615741	keystroke	Key.space	n/a
308.0655	0.075	616131	keystroke	a	n/a
308.2005	0.09	616401	keystroke	m	n/a
308.591	0.0445	617182	keystroke	Key.backspace	n/a
308.681	0.0595	617362	keystroke	d	n/a
308.8005	0.09	617601	keystroke	m	n/a
308.966	0.06	617932	keystroke	i	n/a
309.056	0.06	618112	keystroke	s	n/a
309.236	0.075	618472	keystroke	s	n/a
309.386	0.135	618772	keystroke	i	n/a
309.491	0.12	618982	keystroke	o	n/a
309.551	0.12	619102	keystroke	n	n/a
309.656	0.105	619312	keystroke	Key.space	n/a
309.986	0.075	619972	keystroke	h	n/a
310.046	0.09	620092	keystroke	a	n/a
310.166	0.075	620332	keystroke	n	n/a
310.271	0.075	620542	keystroke	d	n/a
310.406	0.12	620812	keystroke	e	n/a
310.616	0.075	621232	keystroke	d	n/a
310.796	0.03	621592	keystroke	Key.enter	n/a
310.83	10.767	621660	prompt	n/a	submissions experimental myspace daily\n
311.5755	0.12	623151	keystroke	s	n/a
311.6965	0.089	623393	keystroke	u	n/a
311.9955	0.0605	623991	keystroke	b	n/a
313.001	0.075	626002	keystroke	m	n/a
313.331	0.06	626662	keystroke	i	n/a
313.436	0.06	626872	keystroke	s	n/a
313.571	0.075	627142	keystroke	s	n/a
313.661	0.135	627322	keystroke	i	n/a
313.751	0.135	627502	keystroke	o	n/a
313.841	0.105	627682	keystroke	n	n/a
314.126	0.09	628252	keystroke	s	n/a
314.41	0.075	628820	keystroke	Key.space	n/a
314.846	0.075	629692	keystroke	e	n/a
315.026	0.105	630052	keystroke	x	n/a
315.116	0.075	630232	keystroke	p	n/a
315.61	0.135	631220	keystroke	e	n/a
315.73	0.09	631460	keystroke	r	n/a
316.121	0.074	632242	keystroke	i	n/a
316.495	0.0605	632990	keystroke	m	n/a
316.721	0.074	633442	keystroke	e	n/a
317.2005	0.06	634401	keystroke	n	n/a
317.8305	0.09	635661	keystroke	t	n/a
317.9655	0.1055	635931	keystroke	a	n/a
318.086	0.09	636172	keystroke	l	n/a
318.701	0.1045	637402	keystroke	Key.space	n/a
318.8505	0.075	637701	keystroke	m	n/a
319.0455	0.045	638091	keystroke	y	n/a
319.1055	0.09	638211	keystroke	s	n/a
319.3155	0.06	638631	keystroke	p	n/a
319.3905	0.105	638781	keystroke	a	n/a
319.6005	0.09	639201	keystroke	c	n/a
319.7955	0.06	639591	keystroke	e	n/a
319.8705	0.09	639741	keystroke	Key.space	n/a
320.32	0.106	640640	keystroke	d	n/a
320.561	0.075	641122	keystroke	a	n/a
320.831	0.135	641662	keystroke	i	n/a
320.951	0.15	641902	keystroke	l	n/a
321.116	0.059	642232	keystroke	y	n/a
321.55	0.045	643100	keystroke	Key.enter	n/a
321.6	8.5175	643200	prompt	n/a	connecticut guinea renew websites\n
322.436	0.06	644872	keystroke	c	n/a
322.511	0.09	645022	keystroke	o	n/a
322.571	0.075	645142	keystroke	n	n/a
322.721	0.075	645442	keystroke	n	n/a
322.901	0.06	645802	keystroke	e	n/a
323.096	0.09	646192	keystroke	c	n/a
323.306	0.06	646612	keystroke	t	n/a
323.456	0.045	646912	keystroke	i	n/a
323.636	0.0895	647272	keystroke	c	n/a
323.7555	0.075	647511	keystroke	u	n/a
323.8755	0.075	647751	keystroke	t	n/a
323.9955	0.09	647991	keystroke	Key.space	n/a
324.2955	0.06	648591	keystroke	g	n/a
324.4005	0.075	648801	keystroke	u	n/a
324.5655	0.09	649131	keystroke	i	n/a
324.7155	0.06	649431	keystroke	n	n/a
326.036	0.105	652072	keystroke	e	n/a
326.201	0.135	652402	keystroke	a	n/a
326.351	0.0895	652702	keystroke	Key.space	n/a
326.515	0.121	653030	keystroke	r	n/a
326.621	0.119	653242	keystroke	e	n/a
326.726	0.06	653452	keystroke	w	n/a
326.846	0.075	653692	keystroke	n	n/a
327.146	0.015	654292	keystroke	Key.backspace	n/a
327.265	0.076	654530	keystroke	Key.backspace	n/a
327.536	0.045	655072	keystroke	n	n/a
327.626	0.12	655252	keystroke	e	n/a
327.701	0.12	655402	keystroke	w	n/a
327.836	0.075	655672	keystroke	Key.space	n/a
328.3305	0.15	656661	keystroke	w	n/a
328.4205	0.09	656841	keystroke	e	n/a
328.6455	0.075	657291	keystroke	b	n/a
328.7805	0.105	657561	keystroke	s	n/a
328.9305	0.075	657861	keystroke	i	n/a
329.336	0.105	658672	keystroke	t	n/a
329.366	0.105	658732	keystroke	e	n/a
329.7405	0.075	659481	keystroke	s	n/a
330.041	0.075	660082	keystroke	Key.enter	n/a
330.1225	5.425	660245	prompt	n/a	nevertheless receive permits anyone\n
330.761	0.09	661522	keystroke	n	n/a
330.836	0.09	661672	keystroke	e	n/a
331.001	0.105	662002	keystroke	v	n/a
331.091	0.15	662182	keystroke	e	n/a
331.196	0.09	662392	keystroke	r	n/a
331.361	0.075	662722	keystroke	t	n/a
331.481	0.09	662962	keystroke	h	n/a
331.586	0.09	663172	keystroke	e	n/a
331.976	0.075	663952	keystroke	l	n/a
332.066	0.075	664132	keystroke	e	n/a
332.171	0.12	664342	keystroke	s	n/a
332.381	0.09	664762	keystroke	s	n/a
332.441	0.12	664882	keystroke	Key.space	n/a
332.636	0.105	665272	keystroke	r	n/a
332.726	0.105	665452	keystroke	e	n/a
332.9505	0.105	665901	keystroke	c	n/a
333.1905	0.09	666381	keystroke	e	n/a
333.2955	0.075	666591	keystroke	i	n/a
333.4155	0.12	666831	keystroke	v	n/a
333.5055	0.105	667011	keystroke	e	n/a
333.6255	0.105	667251	keystroke	Key.space	n/a
333.7455	0.075	667491	keystroke	p	n/a
333.8505	0.15	667701	keystroke	e	n/a
333.9705	0.105	667941	keystroke	r	n/a
334.0905	0.06	668181	keystroke	m	n/a
334.2105	0.09	668421	keystroke	i	n/a
334.3155	0.075	668631	keystroke	t	n/a
334.5255	0.045	669051	keystroke	s	n/a
334.5855	0.075	669171	keystroke	Key.space	n/a
334.7505	0.09	669501	keystroke	a	n/a
334.8555	0.06	669711	keystroke	n	n/a
335.0205	0.06	670041	keystroke	y	n/a
335.1255	0.15	670251	keystroke	o	n/a
335.2455	0.105	670491	keystroke	n	n/a
335.3355	0.06	670671	keystroke	e	n/a
335.4705	0.075	670941	keystroke	Key.enter	n/a
335.55	4.527	671100	prompt	n/a	learned eyed thumb held\n
336.0855	0.045	672171	keystroke	n	n/a
336.4155	0.075	672831	keystroke	Key.backspace	n/a
336.6555	0.09	673311	keystroke	l	n/a
336.7465	0.119	673493	keystroke	e	n/a
336.9105	0.18	673821	keystroke	a	n/a
337.0605	0.075	674121	keystroke	r	n/a
337.2405	0.075	674481	keystroke	n	n/a
337.3305	0.0905	674661	keystroke	e	n/a
337.526	0.12	675052	keystroke	d	n/a
337.661	0.09	675322	keystroke	Key.space	n/a
337.826	0.075	675652	keystroke	e	n/a
337.991	0.0595	675982	keystroke	y	n/a
338.0955	0.105	676191	keystroke	e	n/a
338.3955	0.06	676791	keystroke	d	n/a
338.4705	0.09	676941	keystroke	Key.space	n/a
338.6805	0.06	677361	keystroke	t	n/a
338.7255	0.075	677451	keystroke	h	n/a
338.8905	0.06	677781	keystroke	u	n/a
339.0555	0.06	678111	keystroke	m	n/a
339.1455	0.06	678291	keystroke	b	n/a
339.2655	0.09	678531	keystroke	Key.space	n/a
339.4605	0.06	678921	keystroke	h	n/a
339.5505	0.075	679101	keystroke	e	n/a
339.6555	0.09	679311	keystroke	l	n/a
339.7905	0.105	679581	keystroke	d	n/a
340.0005	0.0745	680001	keystroke	Key.enter	n/a
340.0795	5.518	680159	prompt	n/a	listings turn ranked balanced\n
340.72	0.12	681440	keystroke	l	n/a
340.825	0.09	681650	keystroke	i	n/a
340.93	0.09	681860	keystroke	s	n/a
341.125	0.045	682250	keystroke	i	n/a
341.44	0.09	682880	keystroke	Key.backspace	n/a
341.545	0.06	683090	keystroke	t	n/a
341.665	0.105	683330	keystroke	i	n/a
341.725	0.106	683450	keystroke	n	n/a
341.875	0.06	683750	keystroke	g	n/a
342.056	0.09	684112	keystroke	s	n/a
342.161	0.09	684322	keystroke	Key.space	n/a
342.446	0.06	684892	keystroke	t	n/a
342.671	0.06	685342	keystroke	u	n/a
342.791	0.06	685582	keystroke	r	n/a
342.911	0.09	685822	keystroke	n	n/a
343.015	0.09	686030	keystroke	Key.space	n/a
343.27	0.105	686540	keystroke	r	n/a
343.39	0.135	686780	keystroke	a	n/a
343.54	0.046	687080	keystroke	n	n/a
343.646	0.089	687292	keystroke	k	n/a
343.75	0.0905	687500	keystroke	e	n/a
343.9455	0.0755	687891	keystroke	d	n/a
344.0215	0.0895	688043	keystroke	Key.space	n/a
344.261	0.0745	688522	keystroke	b	n/a
344.396	0.09	688792	keystroke	a	n/a
344.516	0.0895	689032	keystroke	l	n/a
344.6205	0.105	689241	keystroke	a	n/a
344.7705	0.09	689541	keystroke	n	n/a
344.981	0.09	689962	keystroke	c	n/a
345.1905	0.06	690381	keystroke	e	n/a
345.3555	0.06	690711	keystroke	d	n/a
345.535	0.06	691070	keystroke	Key.enter	n/a
345.6015	7.1805	691203	prompt	n/a	subscribers swim lawyers romance\n
346.24	0.121	692480	keystroke	s	n/a
346.391	0.075	692782	keystroke	u	n/a
346.511	0.059	693022	keystroke	b	n/a
346.69	0.091	693380	keystroke	s	n/a
346.9	0.09	693800	keystroke	c	n/a
347.065	0.075	694130	keystroke	r	n/a
347.2	0.075	694400	keystroke	i	n/a
347.335	0.09	694670	keystroke	b	n/a
347.4705	0.15	694941	keystroke	e	n/a
347.5905	0.105	695181	keystroke	r	n/a
347.7555	0.105	695511	keystroke	s	n/a
347.8755	0.105	695751	keystroke	Key.space	n/a
347.9955	0.1055	695991	keystroke	s	n/a
348.206	0.089	696412	keystroke	w	n/a
348.356	0.135	696712	keystroke	i	n/a
348.476	0.089	696952	keystroke	n	n/a
349.181	0.045	698362	keystroke	Key.backspace	n/a
349.361	0.075	698722	keystroke	m	n/a
349.4655	0.09	698931	keystroke	Key.space	n/a
349.6305	0.105	699261	keystroke	l	n/a
349.7955	0.12	699591	keystroke	a	n/a
350.0805	0.09	700161	keystroke	w	n/a
350.5305	0.075	701061	keystroke	y	n/a
350.6955	0.15	701391	keystroke	e	n/a
350.8305	0.12	701661	keystroke	r	n/a
351.0405	0.09	702081	keystroke	s	n/a
351.1605	0.09	702321	keystroke	Key.space	n/a
351.4005	0.105	702801	keystroke	r	n/a
351.5505	0.12	703101	keystroke	o	n/a
351.6555	0.09	703311	keystroke	m	n/a
351.7605	0.12	703521	keystroke	a	n/a
351.9705	0.06	703941	keystroke	n	n/a
352.0755	0.06	704151	keystroke	c	n/a
352.2555	0.0605	704511	keystroke	e	n/a
352.7055	0.075	705411	keystroke	Key.enter	n/a
352.7845	7.0625	705569	prompt	n/a	picnic jade nutrition handles\n
353.3805	0.0905	706761	keystroke	p	n/a
353.501	0.09	707002	keystroke	i	n/a
353.621	0.075	707242	keystroke	c	n/a
353.8155	0.075	707631	keystroke	h	n/a
354.2805	0.075	708561	keystroke	Key.backspace	n/a
354.4905	0.105	708981	keystroke	n	n/a
354.5805	0.09	709161	keystroke	i	n/a
354.7005	0.09	709401	keystroke	c	n/a
354.8355	0.09	709671	keystroke	Key.space	n/a
355.0905	0.06	710181	keystroke	j	n/a
355.1955	0.105	710391	keystroke	a	n/a
355.3305	0.015	710661	keystroke	n	n/a
355.6455	0.0595	711291	keystroke	Key.backspace	n/a
355.75	0.075	711500	keystroke	d	n/a
355.9305	0.06	711861	keystroke	e	n/a
356.051	0.075	712102	keystroke	Key.space	n/a
356.426	0.09	712852	keystroke	n	n/a
356.576	0.075	713152	keystroke	u	n/a
356.726	0.075	713452	keystroke	t	n/a
357.146	0.075	714292	keystroke	r	n/a
357.296	0.075	714592	keystroke	i	n/a
357.461	0.045	714922	keystroke	t	n/a
357.566	0.12	715132	keystroke	i	n/a
357.791	0.135	715582	keystroke	o	n/a
358.181	0.059	716362	keystroke	n	n/a
358.39	0.075	716780	keystroke	Key.space	n/a
358.751	0.075	717502	keystroke	h	n/a
358.9	0.121	717800	keystroke	a	n/a
359.08	0.06	718160	keystroke	n	n/a
359.185	0.0755	718370	keystroke	d	n/a
359.291	0.089	718582	keystroke	l	n/a
359.396	0.1645	718792	keystroke	e	n/a
359.5455	0.12	719091	keystroke	s	n/a
359.8005	0.045	719601	keystroke	Key.enter	n/a
359.8505	6.657	719701	prompt	n/a	equilibrium innovations landing jesus\n
360.506	0.135	721012	keystroke	e	n/a
360.686	0.105	721372	keystroke	q	n/a
360.791	0.12	721582	keystroke	u	n/a
360.941	0.12	721882	keystroke	i	n/a
361.3155	0.15	722631	keystroke	l	n/a
361.5555	0.09	723111	keystroke	i	n/a
361.8405	0.0605	723681	keystroke	b	n/a
362.0505	0.06	724101	keystroke	r	n/a
362.1705	0.09	724341	keystroke	i	n/a
362.3955	0.06	724791	keystroke	u	n/a
362.5605	0.105	725121	keystroke	m	n/a
362.6955	0.09	725391	keystroke	Key.space	n/a
362.8755	0.09	725751	keystroke	i	n/a
362.9805	0.075	725961	keystroke	n	n/a
363.1305	0.0755	726261	keystroke	n	n/a
363.251	0.0895	726502	keystroke	o	n/a
363.476	0.09	726952	keystroke	v	n/a
363.581	0.165	727162	keystroke	a	n/a
363.731	0.075	727462	keystroke	t	n/a
363.851	0.09	727702	keystroke	i	n/a
363.926	0.12	727852	keystroke	o	n/a
364.031	0.09	728062	keystroke	n	n/a
364.151	0.06	728302	keystroke	s	n/a
364.271	0.075	728542	keystroke	Key.space	n/a
364.4805	0.09	728961	keystroke	l	n/a
364.5855	0.0905	729171	keystroke	a	n/a
364.691	0.06	729382	keystroke	n	n/a
364.796	0.09	729592	keystroke	d	n/a
364.931	0.09	729862	keystroke	i	n/a
365.006	0.105	730012	keystroke	n	n/a
365.096	0.06	730192	keystroke	g	n/a
365.171	0.105	730342	keystroke	Key.space	n/a
365.426	0.06	730852	keystroke	j	n/a
365.546	0.06	731092	keystroke	e	n/a
365.741	0.06	731482	keystroke	s	n/a
365.906	0.06	731812	keystroke	u	n/a
366.0555	0.09	732111	keystroke	s	n/a
366.4455	0.06	732891	keystroke	Key.enter	n/a
366.51	6.4025	733020	prompt	n/a	downloads performance real occupied\n
367.2405	0.0905	734481	keystroke	d	n/a
367.3455	0.09	734691	keystroke	o	n/a
367.4805	0.09	734961	keystroke	w	n/a
367.6155	0.075	735231	keystroke	n	n/a
368.036	0.075	736072	keystroke	l	n/a
368.201	0.075	736402	keystroke	o	n/a
368.261	0.12	736522	keystroke	a	n/a
368.486	0.06	736972	keystroke	d	n/a
368.726	0.09	737452	keystroke	s	n/a
368.861	0.089	737722	keystroke	Key.space	n/a
369.131	0.075	738262	keystroke	p	n/a
369.221	0.105	738442	keystroke	e	n/a
369.296	0.104	738592	keystroke	r	n/a
369.551	0.075	739102	keystroke	f	n/a
369.656	0.0745	739312	keystroke	o	n/a
369.776	0.0745	739552	keystroke	r	n/a
369.9255	0.0755	739851	keystroke	m	n/a
370.0605	0.076	740121	keystroke	a	n/a
370.1655	0.06	740331	keystroke	n	n/a
370.2555	0.06	740511	keystroke	c	n/a
370.4215	0.059	740843	keystroke	e	n/a
370.5105	0.09	741021	keystroke	Key.space	n/a
370.6755	0.105	741351	keystroke	r	n/a
370.7655	0.12	741531	keystroke	e	n/a
370.8555	0.1505	741711	keystroke	a	n/a
371.021	0.0895	742042	keystroke	l	n/a
371.066	0.1045	742132	keystroke	Key.space	n/a
371.306	0.075	742612	keystroke	o	n/a
371.501	0.06	743002	keystroke	c	n/a
371.651	0.06	743302	keystroke	c	n/a
371.771	0.0595	743542	keystroke	u	n/a
372.056	0.09	744112	keystroke	p	n/a
372.2055	0.061	744411	keystroke	i	n/a
372.2955	0.091	744591	keystroke	e	n/a
372.4765	0.059	744953	keystroke	d	n/a
372.851	0.06	745702	keystroke	Key.enter	n/a
372.916	8.0065	745832	prompt	n/a	frank excel geographic formerly\n
373.601	0.06	747202	keystroke	f	n/a
373.781	0.09	747562	keystroke	r	n/a
373.946	0.12	747892	keystroke	a	n/a
374.066	0.0895	748132	keystroke	n	n/a
374.1855	0.12	748371	keystroke	k	n/a
374.2905	0.105	748581	keystroke	Key.space	n/a
374.4255	0.09	748851	keystroke	e	n/a
374.6355	0.075	749271	keystroke	x	n/a
374.8305	0.075	749661	keystroke	c	n/a
375.0255	0.09	750051	keystroke	e	n/a
375.1455	0.09	750291	keystroke	l	n/a
375.1905	0.1205	750381	keystroke	Key.space	n/a
375.716	0.105	751432	keystroke	g	n/a
375.851	0.12	751702	keystroke	e	n/a
376.016	0.1045	752032	keystroke	o	n/a
376.691	0.075	753382	keystroke	g	n/a
376.886	0.09	753772	keystroke	r	n/a
377.006	0.165	754012	keystroke	a	n/a
377.156	0.09	754312	keystroke	p	n/a
377.306	0.15	754612	keystroke	h	n/a
377.426	0.105	754852	keystroke	i	n/a
377.651	0.075	755302	keystroke	c	n/a
378.671	0.075	757342	keystroke	Key.space	n/a
378.956	0.09	757912	keystroke	p	n/a
379.3005	0.0605	758601	keystroke	Key.backspace	n/a
379.436	0.135	758872	keystroke	f	n/a
379.6455	0.075	759291	keystroke	o	n/a
379.7655	0.15	759531	keystroke	r	n/a
380.0355	0.075	760071	keystroke	m	n/a
380.1405	0.135	760281	keystroke	e	n/a
380.2455	0.105	760491	keystroke	r	n/a
380.5155	0.09	761031	keystroke	l	n/a
380.6655	0.075	761331	keystroke	y	n/a
380.8455	0.075	761691	keystroke	Key.enter	n/a
380.925	5.592	761850	prompt	n/a	highway legislation trucks boundary\n
381.641	0.015	763282	keystroke	h	n/a
381.686	0.105	763372	keystroke	i	n/a
381.896	0.06	763792	keystroke	g	n/a
381.971	0.06	763942	keystroke	h	n/a
382.0905	0.0905	764181	keystroke	w	n/a
382.211	0.1495	764422	keystroke	a	n/a
382.3455	0.106	764691	keystroke	y	n/a
382.4355	0.075	764871	keystroke	Key.space	n/a
382.6915	0.09	765383	keystroke	l	n/a
382.7505	0.106	765501	keystroke	e	n/a
382.9465	0.074	765893	keystroke	g	n/a
383.0515	0.104	766103	keystroke	i	n/a
383.1865	0.164	766373	keystroke	s	n/a
383.5455	0.1055	767091	keystroke	l	n/a
383.652	0.134	767304	keystroke	a	n/a
383.756	0.09	767512	keystroke	t	n/a
383.831	0.12	767662	keystroke	i	n/a
383.906	0.135	767812	keystroke	o	n/a
383.996	0.12	767992	keystroke	n	n/a
384.101	0.075	768202	keystroke	Key.space	n/a
384.371	0.06	768742	keystroke	t	n/a
384.506	0.09	769012	keystroke	r	n/a
384.626	0.06	769252	keystroke	u	n/a
384.761	0.09	769522	keystroke	c	n/a
384.866	0.105	769732	keystroke	k	n/a
385.016	0.045	770032	keystroke	s	n/a
385.091	0.105	770182	keystroke	Key.space	n/a
385.331	0.06	770662	keystroke	b	n/a
385.436	0.105	770872	keystroke	o	n/a
385.511	0.075	771022	keystroke	u	n/a
385.6915	0.075	771383	keystroke	n	n/a
385.8115	0.12	771623	keystroke	d	n/a
385.901	0.135	771802	keystroke	a	n/a
386.096	0.075	772192	keystroke	r	n/a
386.2315	0.089	772463	keystroke	y	n/a
386.4405	0.075	772881	keystroke	Key.enter	n/a
386.52	7.0325	773040	prompt	n/a	personalized tension please tracks\n
387.1155	0.09	774231	keystroke	p	n/a
387.2205	0.12	774441	keystroke	e	n/a
387.2955	0.151	774591	keystroke	r	n/a
387.6105	0.075	775221	keystroke	s	n/a
387.7315	0.134	775463	keystroke	o	n/a
387.8505	0.09	775701	keystroke	n	n/a
388.0005	0.0755	776001	keystroke	a	n/a
388.106	0.135	776212	keystroke	l	n/a
388.196	0.09	776392	keystroke	i	n/a
388.346	0.105	776692	keystroke	z	n/a
388.496	0.06	776992	keystroke	e	n/a
388.676	0.075	777352	keystroke	d	n/a
388.766	0.09	777532	keystroke	Key.space	n/a
389.201	0.09	778402	keystroke	t	n/a
389.3515	0.075	778703	keystroke	e	n/a
389.5315	0.089	779063	keystroke	n	n/a
389.7115	0.105	779423	keystroke	s	n/a
389.8765	0.119	779753	keystroke	i	n/a
389.9665	0.164	779933	keystroke	o	n/a
390.0855	0.121	780171	keystroke	n	n/a
390.1905	0.105	780381	keystroke	Key.space	n/a
390.4005	0.12	780801	keystroke	p	n/a
390.5805	0.105	781161	keystroke	l	n/a
390.6565	0.119	781313	keystroke	e	n/a
390.7605	0.15	781521	keystroke	a	n/a
390.8365	0.119	781673	keystroke	s	n/a
390.9255	0.105	781851	keystroke	e	n/a
391.1055	0.06	782211	keystroke	Key.space	n/a
391.4505	0.09	782901	keystroke	t	n/a
391.6455	0.12	783291	keystroke	r	n/a
391.7805	0.1055	783561	keystroke	a	n/a
392.036	0.06	784072	keystroke	c	n/a
392.186	0.075	784372	keystroke	k	n/a
392.681	0.0755	785362	keystroke	s	n/a
393.491	0.06	786982	keystroke	Key.enter	n/a
393.5565	5.426	787113	prompt	n/a	update packard founded debt\n
394.211	0.135	788422	keystroke	u	n/a
394.316	0.12	788632	keystroke	p	n/a
394.526	0.09	789052	keystroke	d	n/a
394.631	0.12	789262	keystroke	a	n/a
394.961	0.105	789922	keystroke	t	n/a
395.021	0.12	790042	keystroke	e	n/a
395.186	0.09	790372	keystroke	Key.space	n/a
395.306	0.105	790612	keystroke	p	n/a
395.456	0.09	790912	keystroke	a	n/a
395.591	0.105	791182	keystroke	c	n/a
395.681	0.0745	791362	keystroke	k	n/a
395.7855	0.105	791571	keystroke	a	n/a
396.026	0.075	792052	keystroke	r	n/a
396.2505	0.076	792501	keystroke	d	n/a
396.3405	0.0755	792681	keystroke	Key.space	n/a
396.551	0.075	793102	keystroke	f	n/a
396.656	0.09	793312	keystroke	o	n/a
396.701	0.105	793402	keystroke	u	n/a
396.926	0.075	793852	keystroke	n	n/a
397.6455	0.0605	795291	keystroke	d	n/a
397.766	0.09	795532	keystroke	e	n/a
397.931	0.0895	795862	keystroke	d	n/a
398.0355	0.075	796071	keystroke	Key.space	n/a
398.1405	0.09	796281	keystroke	d	n/a
398.2915	0.075	796583	keystroke	e	n/a
398.4555	0.06	796911	keystroke	b	n/a
398.6655	0.091	797331	keystroke	t	n/a
398.9055	0.075	797811	keystroke	Key.enter	n/a
398.987	6.1305	797974	prompt	n/a	workshops japanese brunei quad\n
399.7005	0.09	799401	keystroke	w	n/a
399.7755	0.12	799551	keystroke	o	n/a
399.9105	0.045	799821	keystroke	r	n/a
400.0005	0.106	800001	keystroke	k	n/a
400.1215	0.09	800243	keystroke	s	n/a
400.2265	0.15	800453	keystroke	h	n/a
400.3315	0.135	800663	keystroke	o	n/a
400.6315	0.06	801263	keystroke	p	n/a
401.336	0.0895	802672	keystroke	s	n/a
401.4555	0.09	802911	keystroke	Key.space	n/a
401.6815	0.074	803363	keystroke	j	n/a
401.7705	0.075	803541	keystroke	a	n/a
401.9355	0.09	803871	keystroke	p	n/a
402.0555	0.106	804111	keystroke	a	n/a
402.175	0.0755	804350	keystroke	n	n/a
402.2955	0.15	804591	keystroke	e	n/a
402.4305	0.151	804861	keystroke	s	n/a
402.5655	0.075	805131	keystroke	e	n/a
402.6855	0.0755	805371	keystroke	Key.space	n/a
403.001	0.06	806002	keystroke	b	n/a
403.211	0.09	806422	keystroke	r	n/a
403.346	0.075	806692	keystroke	u	n/a
403.526	0.075	807052	keystroke	n	n/a
403.721	0.06	807442	keystroke	e	n/a
403.871	0.075	807742	keystroke	i	n/a
404.186	0.075	808372	keystroke	Key.space	n/a
404.426	0.09	808852	keystroke	q	n/a
404.546	0.09	809092	keystroke	u	n/a
404.696	0.135	809392	keystroke	a	n/a
404.8605	0.075	809721	keystroke	d	n/a
405.0555	0.0605	810111	keystroke	Key.enter	n/a
405.12	6.6275	810240	prompt	n/a	dept boundaries hence counted\n
405.956	0.075	811912	keystroke	d	n/a
406.106	0.06	812212	keystroke	e	n/a
406.361	0.045	812722	keystroke	b	n/a
406.766	0.09	813532	keystroke	Key.backspace	n/a
407.006	0.09	814012	keystroke	p	n/a
407.111	0.075	814222	keystroke	t	n/a
407.231	0.06	814462	keystroke	Key.space	n/a
407.756	0.09	815512	keystroke	b	n/a
407.861	0.12	815722	keystroke	o	n/a
407.936	0.075	815872	keystroke	u	n/a
408.101	0.075	816202	keystroke	n	n/a
408.161	0.1795	816322	keystroke	d	n/a
408.281	0.195	816562	keystroke	a	n/a
408.446	0.105	816892	keystroke	r	n/a
408.596	0.075	817192	keystroke	i	n/a
408.686	0.105	817372	keystroke	e	n/a
408.776	0.12	817552	keystroke	s	n/a
408.956	0.045	817912	keystroke	Key.space	n/a
409.196	0.075	818392	keystroke	h	n/a
409.286	0.075	818572	keystroke	e	n/a
409.4065	0.0745	818813	keystroke	n	n/a
409.7655	0.075	819531	keystroke	c	n/a
409.9455	0.06	819891	keystroke	e	n/a
410.036	0.075	820072	keystroke	Key.space	n/a
410.276	0.075	820552	keystroke	c	n/a
410.366	0.09	820732	keystroke	o	n/a
410.411	0.09	820822	keystroke	u	n/a
410.666	0.015	821332	keystroke	n	n/a
410.741	0.12	821482	keystroke	t	n/a
410.816	0.12	821632	keystroke	e	n/a
411.0265	0.074	822053	keystroke	d	n/a
411.6855	0.06	823371	keystroke	Key.enter	n/a
411.7505	6.492	823501	prompt	n/a	others combines manga infections\n
412.4805	0.075	824961	keystroke	o	n/a
412.6155	0.075	825231	keystroke	t	n/a
412.7205	0.105	825441	keystroke	h	n/a
412.7955	0.105	825591	keystroke	e	n/a
412.8555	0.135	825711	keystroke	r	n/a
413.0655	0.105	826131	keystroke	s	n/a
413.1555	0.09	826311	keystroke	Key.space	n/a
413.3205	0.105	826641	keystroke	c	n/a
413.4105	0.1655	826821	keystroke	o	n/a
413.516	0.12	827032	keystroke	m	n/a
413.8165	0.075	827633	keystroke	b	n/a
413.9355	0.1055	827871	keystroke	i	n/a
414.0265	0.0895	828053	keystroke	n	n/a
414.191	0.15	828382	keystroke	e	n/a
414.311	0.135	828622	keystroke	s	n/a
414.431	0.09	828862	keystroke	Key.space	n/a
414.611	0.075	829222	keystroke	m	n/a
414.731	0.075	829462	keystroke	a	n/a
414.851	0.06	829702	keystroke	n	n/a
414.986	0.09	829972	keystroke	g	n/a
415.091	0.09	830182	keystroke	a	n/a
415.226	0.075	830452	keystroke	Key.space	n/a
415.4965	0.119	830993	keystroke	i	n/a
415.5705	0.105	831141	keystroke	n	n/a
415.7055	0.076	831411	keystroke	f	n/a
415.9005	0.075	831801	keystroke	e	n/a
416.1415	0.074	832283	keystroke	c	n/a
416.3205	0.06	832641	keystroke	t	n/a
416.3955	0.135	832791	keystroke	i	n/a
416.5005	0.12	833001	keystroke	o	n/a
416.5755	0.121	833151	keystroke	n	n/a
416.7255	0.09	833451	keystroke	s	n/a
418.166	0.075	836332	keystroke	Key.enter	n/a
418.246	5.2165	836492	prompt	n/a	sessions idaho actor mercy\n
418.826	0.06	837652	keystroke	s	n/a
418.916	0.09	837832	keystroke	e	n/a
419.081	0.0755	838162	keystroke	s	n/a
419.2165	0.089	838433	keystroke	s	n/a
419.3665	0.105	838733	keystroke	i	n/a
419.4565	0.12	838913	keystroke	o	n/a
419.5465	0.105	839093	keystroke	n	n/a
419.6815	0.09	839363	keystroke	s	n/a
419.7865	0.09	839573	keystroke	Key.space	n/a
419.9665	0.075	839933	keystroke	i	n/a
420.1455	0.09	840291	keystroke	d	n/a
420.2655	0.12	840531	keystroke	a	n/a
420.4465	0.134	840893	keystroke	h	n/a
420.5355	0.12	841071	keystroke	o	n/a
420.6705	0.0905	841341	keystroke	Key.space	n/a
421.196	0.06	842392	keystroke	c	n/a
421.4965	0.045	842993	keystroke	Key.backspace	n/a
421.571	0.12	843142	keystroke	a	n/a
421.7215	0.09	843443	keystroke	c	n/a
421.9165	0.075	843833	keystroke	t	n/a
422.0515	0.09	844103	keystroke	o	n/a
422.1555	0.076	844311	keystroke	r	n/a
422.2605	0.105	844521	keystroke	Key.space	n/a
422.3955	0.105	844791	keystroke	m	n/a
422.5155	0.075	845031	keystroke	e	n/a
422.6805	0.06	845361	keystroke	r	n/a
423.0405	0.075	846081	keystroke	c	n/a
423.1615	0.074	846323	keystroke	y	n/a
423.3855	0.075	846771	keystroke	Key.enter	n/a
423.465	4.6775	846930	prompt	n/a	you herein mirror bolivia\n
424.166	0.12	848332	keystroke	y	n/a
424.271	0.12	848542	keystroke	o	n/a
424.361	0.105	848722	keystroke	u	n/a
424.436	0.105	848872	keystroke	Key.space	n/a
424.646	0.075	849292	keystroke	h	n/a
424.811	0.15	849622	keystroke	e	n/a
424.961	0.075	849922	keystroke	r	n/a
425.186	0.075	850372	keystroke	e	n/a
425.411	0.105	850822	keystroke	i	n/a
425.561	0.09	851122	keystroke	n	n/a
425.666	0.075	851332	keystroke	Key.space	n/a
425.891	0.0895	851782	keystroke	m	n/a
426.1905	0.061	852381	keystroke	i	n/a
426.2805	0.06	852561	keystroke	r	n/a
426.4155	0.0605	852831	keystroke	r	n/a
426.536	0.09	853072	keystroke	o	n/a
426.656	0.075	853312	keystroke	r	n/a
426.761	0.075	853522	keystroke	Key.space	n/a
427.0155	0.06	854031	keystroke	b	n/a
427.1355	0.075	854271	keystroke	o	n/a
427.331	0.09	854662	keystroke	l	n/a
427.451	0.09	854902	keystroke	i	n/a
427.616	0.06	855232	keystroke	v	n/a
427.736	0.075	855472	keystroke	i	n/a
427.871	0.09	855742	keystroke	a	n/a
428.081	0.06	856162	keystroke	Key.enter	n/a
428.145	6.2825	856290	prompt	n/a	retrieved univ advice stereo\n
428.7115	0.15	857423	keystroke	r	n/a
428.9215	0.075	857843	keystroke	e	n/a
429.1765	0.075	858353	keystroke	t	n/a
429.3415	0.09	858683	keystroke	r	n/a
429.5515	0.075	859103	keystroke	e	n/a
429.9265	0.075	859853	keystroke	Key.backspace	n/a
430.1515	0.059	860303	keystroke	i	n/a
430.1965	0.09	860393	keystroke	e	n/a
430.3615	0.135	860723	keystroke	v	n/a
430.4815	0.075	860963	keystroke	e	n/a
430.7055	0.046	861411	keystroke	d	n/a
430.8115	0.089	861623	keystroke	Key.space	n/a
430.9465	0.075	861893	keystroke	u	n/a
431.0965	0.105	862193	keystroke	n	n/a
431.2165	0.09	862433	keystroke	i	n/a
431.5165	0.089	863033	keystroke	v	n/a
431.6505	0.075	863301	keystroke	Key.space	n/a
432.1305	0.105	864261	keystroke	a	n/a
432.2515	0.074	864503	keystroke	d	n/a
432.4605	0.075	864921	keystroke	v	n/a
432.6265	0.06	865253	keystroke	i	n/a
432.7155	0.075	865431	keystroke	c	n/a
432.8955	0.045	865791	keystroke	e	n/a
432.9855	0.075	865971	keystroke	Key.space	n/a
433.1815	0.105	866363	keystroke	s	n/a
433.3905	0.106	866781	keystroke	t	n/a
433.5115	0.135	867023	keystroke	e	n/a
433.6005	0.135	867201	keystroke	r	n/a
433.7515	0.104	867503	keystroke	e	n/a
434.0655	0.09	868131	keystroke	o	n/a
434.3505	0.075	868701	keystroke	Key.enter	n/a
434.4305	6.537	868861	prompt	n/a	prove paste projected processors\n
434.9955	0.09	869991	keystroke	p	n/a
435.1005	0.106	870201	keystroke	r	n/a
435.2215	0.0895	870443	keystroke	o	n/a
435.371	0.1205	870742	keystroke	v	n/a
435.461	0.105	870922	keystroke	e	n/a
435.551	0.105	871102	keystroke	Key.space	n/a
435.791	0.075	871582	keystroke	p	n/a
435.896	0.135	871792	keystroke	a	n/a
436.016	0.165	872032	keystroke	s	n/a
436.151	0.165	872302	keystroke	t	n/a
436.271	0.105	872542	keystroke	e	n/a
436.391	0.105	872782	keystroke	Key.space	n/a
436.526	0.09	873052	keystroke	p	n/a
436.766	0.045	873532	keystroke	f	n/a
437.636	0.06	875272	keystroke	Key.backspace	n/a
437.741	0.075	875482	keystroke	r	n/a
437.906	0.09	875812	keystroke	o	n/a
438.086	0.06	876172	keystroke	j	n/a
438.236	0.06	876472	keystroke	e	n/a
438.431	0.09	876862	keystroke	c	n/a
438.611	0.15	877222	keystroke	t	n/a
438.731	0.105	877462	keystroke	e	n/a
438.926	0.09	877852	keystroke	d	n/a
439.061	0.075	878122	keystroke	Key.space	n/a
439.256	0.09	878512	keystroke	p	n/a
439.376	0.0895	878752	keystroke	r	n/a
439.5255	0.0755	879051	keystroke	o	n/a
439.661	0.09	879322	keystroke	c	n/a
439.856	0.12	879712	keystroke	e	n/a
439.931	0.1055	879862	keystroke	s	n/a
440.0965	0.105	880193	keystroke	s	n/a
440.2165	0.09	880433	keystroke	o	n/a
440.3665	0.09	880733	keystroke	r	n/a
440.6215	0.075	881243	keystroke	s	n/a
440.9215	0.0445	881843	keystroke	Key.enter	n/a
440.9705	5.187	881941	prompt	n/a	month proc pale metadata\n
441.986	0.0745	883972	keystroke	m	n/a
442.106	0.105	884212	keystroke	o	n/a
442.271	0.075	884542	keystroke	n	n/a
442.391	0.075	884782	keystroke	t	n/a
442.481	0.09	884962	keystroke	h	n/a
442.556	0.075	885112	keystroke	Key.space	n/a
442.781	0.06	885562	keystroke	p	n/a
443.126	0.06	886252	keystroke	r	n/a
443.321	0.075	886642	keystroke	o	n/a
443.471	0.075	886942	keystroke	c	n/a
443.621	0.076	887242	keystroke	Key.space	n/a
443.861	0.09	887722	keystroke	p	n/a
443.966	0.105	887932	keystroke	a	n/a
444.086	0.075	888172	keystroke	l	n/a
444.176	0.06	888352	keystroke	e	n/a
444.281	0.105	888562	keystroke	Key.space	n/a
444.446	0.075	888892	keystroke	m	n/a
444.551	0.06	889102	keystroke	e	n/a
444.731	0.09	889462	keystroke	t	n/a
444.851	0.15	889702	keystroke	a	n/a
444.956	0.0905	889912	keystroke	t	n/a
445.2865	0.06	890573	keystroke	Key.backspace	n/a
445.4065	0.134	890813	keystroke	d	n/a
445.5255	0.166	891051	keystroke	a	n/a
445.6605	0.121	891321	keystroke	t	n/a
445.7505	0.12	891501	keystroke	a	n/a
446.081	0.075	892162	keystroke	Key.enter	n/a
446.16	7.4825	892320	prompt	n/a	turkey podcast editors oliver\n
446.801	0.03	893602	keystroke	g	n/a
446.816	0.06	893632	keystroke	t	n/a
446.906	0.075	893812	keystroke	u	n/a
447.011	0.09	894022	keystroke	r	n/a
447.146	0.09	894292	keystroke	k	n/a
447.251	0.075	894502	keystroke	e	n/a
447.371	0.1055	894742	keystroke	y	n/a
447.416	0.1345	894832	keystroke	Key.space	n/a
447.6705	0.091	895341	keystroke	p	n/a
447.941	0.06	895882	keystroke	Key.backspace	n/a
448.091	0.06	896182	keystroke	Key.backspace	n/a
448.226	0.075	896452	keystroke	Key.backspace	n/a
448.376	0.06	896752	keystroke	Key.backspace	n/a
448.526	0.045	897052	keystroke	Key.backspace	n/a
448.6465	0.06	897293	keystroke	Key.backspace	n/a
448.7815	0.06	897563	keystroke	Key.backspace	n/a
448.916	0.06	897832	keystroke	Key.backspace	n/a
449.0515	0.0745	898103	keystroke	Key.backspace	n/a
449.2015	0.075	898403	keystroke	t	n/a
449.4265	0.015	898853	keystroke	u	n/a
449.4715	0.09	898943	keystroke	r	n/a
449.7115	0.045	899423	keystroke	k	n/a
449.7865	0.09	899573	keystroke	e	n/a
449.9215	0.09	899843	keystroke	y	n/a
449.9965	0.075	899993	keystroke	Key.space	n/a
450.1315	0.105	900263	keystroke	p	n/a
450.3265	0.09	900653	keystroke	o	n/a
450.4905	0.075	900981	keystroke	d	n/a
450.7605	0.105	901521	keystroke	c	n/a
450.8955	0.105	901791	keystroke	a	n/a
451.0605	0.09	902121	keystroke	s	n/a
451.2555	0.09	902511	keystroke	t	n/a
451.3755	0.09	902751	keystroke	Key.space	n/a
451.5105	0.09	903021	keystroke	e	n/a
451.7355	0.076	903471	keystroke	d	n/a
451.9005	0.06	903801	keystroke	i	n/a
452.0515	0.075	904103	keystroke	t	n/a
452.1715	0.1045	904343	keystroke	o	n/a
452.291	0.0755	904582	keystroke	r	n/a
452.4715	0.075	904943	keystroke	s	n/a
452.5475	0.104	905095	keystroke	Key.space	n/a
452.6665	0.105	905333	keystroke	o	n/a
452.8765	0.09	905753	keystroke	l	n/a
452.9515	0.105	905903	keystroke	i	n/a
453.0415	0.105	906083	keystroke	v	n/a
453.1315	0.0895	906263	keystroke	e	n/a
453.386	0.075	906772	keystroke	r	n/a
453.566	0.075	907132	keystroke	Key.enter	n/a
453.646	7.8265	907292	prompt	n/a	attachment runs paste reception\n
454.196	0.12	908392	keystroke	a	n/a
454.406	0.06	908812	keystroke	t	n/a
454.541	0.1045	909082	keystroke	t	n/a
454.661	0.0895	909322	keystroke	a	n/a
454.8855	0.09	909771	keystroke	c	n/a
455.0655	0.061	910131	keystroke	h	n/a
455.2905	0.045	910581	keystroke	m	n/a
455.3505	0.091	910701	keystroke	e	n/a
455.4705	0.075	910941	keystroke	n	n/a
455.5755	0.09	911151	keystroke	t	n/a
455.7255	0.09	911451	keystroke	Key.space	n/a
456.1615	0.075	912323	keystroke	r	n/a
456.2515	0.06	912503	keystroke	u	n/a
456.4015	0.09	912803	keystroke	n	n/a
456.7015	0.09	913403	keystroke	s	n/a
456.8365	0.075	913673	keystroke	Key.space	n/a
456.9715	0.09	913943	keystroke	p	n/a
457.0765	0.105	914153	keystroke	a	n/a
457.2415	0.15	914483	keystroke	s	n/a
457.3615	0.12	914723	keystroke	t	n/a
457.5115	0.105	915023	keystroke	e	n/a
457.6315	0.09	915263	keystroke	Key.space	n/a
458.096	0.12	916192	keystroke	r	n/a
458.201	0.09	916402	keystroke	w	n/a
458.261	0.031	916522	keystroke	e	n/a
458.726	0.045	917452	keystroke	Key.backspace	n/a
458.891	0.045	917782	keystroke	Key.backspace	n/a
459.011	0.075	918022	keystroke	e	n/a
459.251	0.075	918502	keystroke	c	n/a
460.1665	0.0745	920333	keystroke	e	n/a
460.4655	0.076	920931	keystroke	p	n/a
460.6305	0.075	921261	keystroke	t	n/a
460.7215	0.134	921443	keystroke	i	n/a
460.8255	0.121	921651	keystroke	o	n/a
460.9165	0.105	921833	keystroke	n	n/a
461.411	0.06	922822	keystroke	Key.enter	n/a
461.478	7.8395	922956	prompt	n/a	existence liberty enrolled regardless\n
462.026	0.09	924052	keystroke	e	n/a
462.941	0.06	925882	keystroke	x	n/a
463.286	0.075	926572	keystroke	i	n/a
463.4665	0.105	926933	keystroke	s	n/a
463.631	0.09	927262	keystroke	t	n/a
463.766	0.105	927532	keystroke	e	n/a
463.901	0.075	927802	keystroke	n	n/a
464.0355	0.105	928071	keystroke	c	n/a
464.2455	0.06	928491	keystroke	e	n/a
464.321	0.105	928642	keystroke	Key.space	n/a
464.5905	0.091	929181	keystroke	l	n/a
464.711	0.09	929422	keystroke	i	n/a
464.8015	0.089	929603	keystroke	b	n/a
464.981	0.1645	929962	keystroke	e	n/a
465.0855	0.1055	930171	keystroke	r	n/a
465.2805	0.06	930561	keystroke	y	n/a
465.611	0.06	931222	keystroke	Key.backspace	n/a
465.716	0.06	931432	keystroke	t	n/a
465.851	0.105	931702	keystroke	y	n/a
465.941	0.06	931882	keystroke	Key.space	n/a
466.346	0.045	932692	keystroke	e	n/a
466.496	0.06	932992	keystroke	n	n/a
466.646	0.09	933292	keystroke	r	n/a
466.781	0.06	933562	keystroke	o	n/a
466.946	0.075	933892	keystroke	l	n/a
467.081	0.09	934162	keystroke	l	n/a
467.201	0.09	934402	keystroke	e	n/a
467.396	0.1045	934792	keystroke	d	n/a
467.4705	0.106	934941	keystroke	Key.space	n/a
467.6355	0.105	935271	keystroke	r	n/a
467.7105	0.105	935421	keystroke	e	n/a
467.921	0.075	935842	keystroke	g	n/a
468.1165	0.195	936233	keystroke	a	n/a
468.2665	0.12	936533	keystroke	r	n/a
468.4915	0.09	936983	keystroke	d	n/a
468.5965	0.12	937193	keystroke	l	n/a
468.7015	0.135	937403	keystroke	e	n/a
468.8065	0.105	937613	keystroke	s	n/a
468.9865	0.09	937973	keystroke	s	n/a
469.2565	0.06	938513	keystroke	Key.enter	n/a
469.321	5.8015	938642	prompt	n/a	troubleshooting conflict you devoted\n
469.976	0.09	939952	keystroke	t	n/a
470.186	0.075	940372	keystroke	r	n/a
470.306	0.105	940612	keystroke	o	n/a
470.366	0.09	940732	keystroke	u	n/a
470.576	0.06	941152	keystroke	b	n/a
470.696	0.105	941392	keystroke	l	n/a
470.801	0.09	941602	keystroke	e	n/a
471.0405	0.105	942081	keystroke	s	n/a
471.1755	0.105	942351	keystroke	h	n/a
471.2505	0.075	942501	keystroke	o	n/a
471.4155	0.0755	942831	keystroke	o	n/a
471.536	0.06	943072	keystroke	t	n/a
471.656	0.105	943312	keystroke	i	n/a
471.731	0.105	943462	keystroke	n	n/a
471.851	0.06	943702	keystroke	g	n/a
471.926	0.09	943852	keystroke	Key.space	n/a
472.226	0.09	944452	keystroke	c	n/a
472.301	0.09	944602	keystroke	o	n/a
472.361	0.105	944722	keystroke	n	n/a
472.496	0.075	944992	keystroke	f	n/a
472.901	0.09	945802	keystroke	l	n/a
472.976	0.075	945952	keystroke	i	n/a
473.126	0.105	946252	keystroke	c	n/a
473.351	0.06	946702	keystroke	t	n/a
473.456	0.09	946912	keystroke	Key.space	n/a
473.591	0.1205	947182	keystroke	y	n/a
473.6815	0.15	947363	keystroke	o	n/a
473.7865	0.105	947573	keystroke	u	n/a
473.8465	0.105	947693	keystroke	Key.space	n/a
473.9665	0.0745	947933	keystroke	d	n/a
474.116	0.075	948232	keystroke	e	n/a
474.281	0.12	948562	keystroke	v	n/a
474.401	0.105	948802	keystroke	o	n/a
474.536	0.135	949072	keystroke	t	n/a
474.641	0.105	949282	keystroke	e	n/a
474.851	0.06	949702	keystroke	d	n/a
475.0615	0.0595	950123	keystroke	Key.enter	n/a
475.1255	8.232	950251	prompt	n/a	advise tray coalition chevrolet\n
475.7655	0.105	951531	keystroke	a	n/a
475.9155	0.075	951831	keystroke	d	n/a
476.081	0.105	952162	keystroke	v	n/a
476.216	0.09	952432	keystroke	i	n/a
476.366	0.1045	952732	keystroke	c	n/a
476.8005	0.075	953601	keystroke	Key.backspace	n/a
476.9065	0.134	953813	keystroke	s	n/a
476.9815	0.089	953963	keystroke	e	n/a
477.1155	0.09	954231	keystroke	Key.space	n/a
477.2815	0.075	954563	keystroke	t	n/a
477.4305	0.121	954861	keystroke	r	n/a
477.5365	0.104	955073	keystroke	a	n/a
477.6565	0.09	955313	keystroke	y	n/a
477.7155	0.09	955431	keystroke	Key.space	n/a
478.0155	0.09	956031	keystroke	c	n/a
478.1515	0.089	956303	keystroke	o	n/a
478.3005	0.105	956601	keystroke	a	n/a
478.4215	0.09	956843	keystroke	l	n/a
478.5865	0.0445	957173	keystroke	t	n/a
478.676	0.075	957352	keystroke	i	n/a
478.946	0.06	957892	keystroke	Key.backspace	n/a
479.081	0.0445	958162	keystroke	Key.backspace	n/a
479.3055	0.03	958611	keystroke	i	n/a
479.6505	0.046	959301	keystroke	t	n/a
479.9655	0.135	959931	keystroke	i	n/a
480.0855	0.12	960171	keystroke	o	n/a
480.1605	0.135	960321	keystroke	n	n/a
480.3105	0.06	960621	keystroke	Key.space	n/a
480.5655	0.0755	961131	keystroke	c	n/a
480.6555	0.0755	961311	keystroke	h	n/a
480.926	0.09	961852	keystroke	e	n/a
481.136	0.0745	962272	keystroke	v	n/a
481.2255	0.045	962451	keystroke	e	n/a
481.481	0.0445	962962	keystroke	r	n/a
481.766	0.075	963532	keystroke	Key.backspace	n/a
481.976	0.0605	963952	keystroke	Key.backspace	n/a
482.126	0.06	964252	keystroke	r	n/a
482.291	0.09	964582	keystroke	o	n/a
482.516	0.12	965032	keystroke	l	n/a
482.621	0.15	965242	keystroke	e	n/a
482.756	0.09	965512	keystroke	t	n/a
483.2955	0.06	966591	keystroke	Key.enter	n/a
483.361	9.3715	966722	prompt	n/a	odds oriented substantially pantyhose\n
483.9865	0.089	967973	keystroke	o	n/a
484.0605	0.06	968121	keystroke	d	n/a
484.1955	0.06	968391	keystroke	d	n/a
484.4505	0.09	968901	keystroke	s	n/a
484.571	0.105	969142	keystroke	Key.space	n/a
484.691	0.105	969382	keystroke	o	n/a
484.886	0.075	969772	keystroke	r	n/a
485.006	0.075	970012	keystroke	i	n/a
485.066	0.075	970132	keystroke	e	n/a
485.201	0.09	970402	keystroke	n	n/a
485.336	0.09	970672	keystroke	t	n/a
485.441	0.045	970882	keystroke	3	n/a
485.456	0.045	970912	keystroke	e	n/a
485.696	0.075	971392	keystroke	d	n/a
485.861	0.0605	971722	keystroke	Key.space	n/a
486.0855	0.075	972171	keystroke	Key.backspace	n/a
486.2205	0.075	972441	keystroke	Key.backspace	n/a
486.3555	0.075	972711	keystroke	Key.backspace	n/a
486.4905	0.09	972981	keystroke	Key.backspace	n/a
486.5955	0.105	973191	keystroke	e	n/a
486.7455	0.091	973491	keystroke	d	n/a
486.8505	0.06	973701	keystroke	Key.space	n/a
487.1065	0.0895	974213	keystroke	s	n/a
487.2105	0.06	974421	keystroke	u	n/a
487.391	0.06	974782	keystroke	b	n/a
487.571	0.135	975142	keystroke	s	n/a
487.721	0.105	975442	keystroke	t	n/a
487.856	0.12	975712	keystroke	a	n/a
488.021	0.045	976042	keystroke	n	n/a
488.126	0.075	976252	keystroke	t	n/a
488.216	0.09	976432	keystroke	i	n/a
488.336	0.075	976672	keystroke	a	n/a
488.441	0.075	976882	keystroke	l	n/a
488.591	0.21	977182	keystroke	l	n/a
488.786	0.075	977572	keystroke	y	n/a
488.802	0.044	977604	keystroke	u	n/a
489.311	0.03	978622	keystroke	Key.backspace	n/a
489.701	0.06	979402	keystroke	Key.space	n/a
490.046	0.03	980092	keystroke	o	n/a
490.376	0.06	980752	keystroke	Key.backspace	n/a
490.601	0.075	981202	keystroke	p	n/a
490.721	0.09	981442	keystroke	a	n/a
490.901	0.09	981802	keystroke	n	n/a
491.111	0.06	982222	keystroke	y	n/a
491.7555	0.06	983511	keystroke	Key.backspace	n/a
491.8765	0.059	983753	keystroke	t	n/a
491.9805	0.0905	983961	keystroke	y	n/a
492.2065	0.105	984413	keystroke	h	n/a
492.2665	0.1495	984533	keystroke	o	n/a
492.431	0.1195	984862	keystroke	s	n/a
492.5055	0.09	985011	keystroke	e	n/a
492.6405	0.09	985281	keystroke	Key.enter	n/a
492.7355	6.867	985471	prompt	n/a	window butler maternity directive\n
493.631	0.09	987262	keystroke	w	n/a
493.722	0.089	987444	keystroke	i	n/a
493.826	0.09	987652	keystroke	n	n/a
493.931	0.09	987862	keystroke	d	n/a
494.051	0.105	988102	keystroke	o	n/a
494.141	0.09	988282	keystroke	w	n/a
494.261	0.12	988522	keystroke	Key.space	n/a
494.486	0.075	988972	keystroke	b	n/a
494.576	0.075	989152	keystroke	u	n/a
494.726	0.075	989452	keystroke	t	n/a
494.831	0.12	989662	keystroke	l	n/a
494.966	0.105	989932	keystroke	e	n/a
495.116	0.091	990232	keystroke	r	n/a
495.2665	0.1045	990533	keystroke	Key.space	n/a
495.4315	0.0895	990863	keystroke	m	n/a
495.536	0.165	991072	keystroke	a	n/a
495.686	0.12	991372	keystroke	t	n/a
495.821	0.135	991642	keystroke	e	n/a
495.926	0.09	991852	keystroke	r	n/a
496.0605	0.135	992121	keystroke	n	n/a
496.1655	0.105	992331	keystroke	i	n/a
496.3155	0.061	992631	keystroke	t	n/a
496.4505	0.12	992901	keystroke	y	n/a
496.5255	0.09	993051	keystroke	Key.space	n/a
497.096	0.06	994192	keystroke	d	n/a
497.4415	0.075	994883	keystroke	i	n/a
497.7115	0.03	995423	keystroke	r	n/a
497.7265	0.06	995453	keystroke	e	n/a
498.5515	0.09	997103	keystroke	c	n/a
498.7915	0.06	997583	keystroke	t	n/a
498.8965	0.075	997793	keystroke	i	n/a
499.0315	0.15	998063	keystroke	v	n/a
499.1365	0.12	998273	keystroke	e	n/a
499.5265	0.0745	999053	keystroke	Key.enter	n/a
499.6055	10.857	999211	prompt	n/a	music interior reuters receives\n
500.141	0.0895	1000282	keystroke	m	n/a
500.3205	0.06	1000641	keystroke	u	n/a
500.366	0.1345	1000732	keystroke	a	n/a
500.5305	0.09	1001061	keystroke	i	n/a
500.7705	0.045	1001541	keystroke	x	n/a
500.8455	0.0755	1001691	keystroke	Key.space	n/a
501.131	0.045	1002262	keystroke	Key.backspace	n/a
501.251	0.06	1002502	keystroke	Key.backspace	n/a
501.386	0.06	1002772	keystroke	Key.backspace	n/a
501.521	0.075	1003042	keystroke	Key.backspace	n/a
501.626	0.075	1003252	keystroke	a	n/a
501.791	0.045	1003582	keystroke	i	n/a
501.926	0.075	1003852	keystroke	x	n/a
502.2705	0.045	1004541	keystroke	Key.backspace	n/a
502.3905	0.075	1004781	keystroke	Key.backspace	n/a
502.5255	0.09	1005051	keystroke	Key.backspace	n/a
503.1865	0.089	1006373	keystroke	s	n/a
503.3055	0.075	1006611	keystroke	i	n/a
503.4265	0.089	1006853	keystroke	c	n/a
503.5455	0.075	1007091	keystroke	Key.space	n/a
504.116	0.09	1008232	keystroke	i	n/a
504.2655	0.0755	1008531	keystroke	n	n/a
504.416	0.1195	1008832	keystroke	t	n/a
504.551	0.15	1009102	keystroke	e	n/a
504.671	0.105	1009342	keystroke	r	n/a
504.851	0.15	1009702	keystroke	i	n/a
504.986	0.1955	1009972	keystroke	o	n/a
505.1965	0.06	1010393	keystroke	r	n/a
505.3465	0.075	1010693	keystroke	Key.space	n/a
505.661	0.105	1011322	keystroke	r	n/a
505.946	0.105	1011892	keystroke	e	n/a
506.081	0.075	1012162	keystroke	u	n/a
506.306	0.1055	1012612	keystroke	t	n/a
506.4415	0.12	1012883	keystroke	e	n/a
506.5165	0.18	1013033	keystroke	r	n/a
506.7115	0.075	1013423	keystroke	s	n/a
506.8005	0.106	1013601	keystroke	Key.space	n/a
506.9515	0.15	1013903	keystroke	r	n/a
507.0715	0.12	1014143	keystroke	e	n/a
507.3105	0.09	1014621	keystroke	c	n/a
507.4155	0.075	1014831	keystroke	i	n/a
508.0005	0.061	1016001	keystroke	Key.backspace	n/a
508.1815	0.075	1016363	keystroke	e	n/a
508.4065	0.0295	1016813	keystroke	i	n/a
508.556	0.015	1017112	keystroke	i	n/a
509.096	0.0305	1018192	keystroke	Key.backspace	n/a
509.6965	0.06	1019393	keystroke	v	n/a
509.8165	0.105	1019633	keystroke	e	n/a
509.966	0.12	1019932	keystroke	s	n/a
510.386	0.0755	1020772	keystroke	Key.enter	n/a
510.4655	8.772	1020931	prompt	n/a	ventures sublimedirectory thumbzilla brooklyn\n
511.181	0.105	1022362	keystroke	v	n/a
511.331	0.105	1022662	keystroke	e	n/a
511.451	0.06	1022902	keystroke	n	n/a
511.601	0.045	1023202	keystroke	t	n/a
511.676	0.075	1023352	keystroke	u	n/a
511.826	0.105	1023652	keystroke	r	n/a
512.231	0.09	1024462	keystroke	e	n/a
512.366	0.12	1024732	keystroke	s	n/a
512.501	0.09	1025002	keystroke	Key.space	n/a
512.711	0.09	1025422	keystroke	s	n/a
512.861	0.075	1025722	keystroke	u	n/a
512.996	0.075	1025992	keystroke	b	n/a
513.161	0.12	1026322	keystroke	l	n/a
513.251	0.12	1026502	keystroke	i	n/a
513.386	0.105	1026772	keystroke	m	n/a
513.581	0.075	1027162	keystroke	e	n/a
513.761	0.09	1027522	keystroke	d	n/a
514.001	0.06	1028002	keystroke	i	n/a
514.136	0.09	1028272	keystroke	r	n/a
514.346	0.03	1028692	keystroke	e	n/a
514.901	0.075	1029802	keystroke	c	n/a
515.096	0.075	1030192	keystroke	t	n/a
515.231	0.105	1030462	keystroke	o	n/a
515.426	0.105	1030852	keystroke	r	n/a
515.8915	0.12	1031783	keystroke	y	n/a
515.9965	0.059	1031993	keystroke	Key.space	n/a
516.2515	0.09	1032503	keystroke	t	n/a
516.3565	0.06	1032713	keystroke	h	n/a
516.4905	0.076	1032981	keystroke	u	n/a
516.6565	0.075	1033313	keystroke	m	n/a
516.7465	0.075	1033493	keystroke	b	n/a
517.1065	0.09	1034213	keystroke	z	n/a
517.2265	0.075	1034453	keystroke	i	n/a
517.4215	0.075	1034843	keystroke	l	n/a
517.5565	0.09	1035113	keystroke	l	n/a
517.6615	0.105	1035323	keystroke	a	n/a
517.7815	0.0595	1035563	keystroke	Key.space	n/a
518.021	0.06	1036042	keystroke	b	n/a
518.216	0.06	1036432	keystroke	r	n/a
518.336	0.06	1036672	keystroke	o	n/a
518.456	0.135	1036912	keystroke	o	n/a
518.576	0.12	1037152	keystroke	k	n/a
518.741	0.09	1037482	keystroke	l	n/a
518.816	0.075	1037632	keystroke	y	n/a
518.981	0.075	1037962	keystroke	n	n/a
519.176	0.06	1038352	keystroke	Key.enter	n/a
519.241	6.552	1038482	prompt	n/a	blogging wheat herbal starsmerchant\n
519.911	0.075	1039822	keystroke	b	n/a
520.121	0.09	1040242	keystroke	l	n/a
520.301	0.075	1040602	keystroke	o	n/a
520.391	0.06	1040782	keystroke	g	n/a
520.541	0.075	1041082	keystroke	g	n/a
520.631	0.135	1041262	keystroke	i	n/a
520.721	0.105	1041442	keystroke	n	n/a
520.841	0.075	1041682	keystroke	g	n/a
520.901	0.105	1041802	keystroke	Key.space	n/a
521.036	0.09	1042072	keystroke	w	n/a
521.141	0.075	1042282	keystroke	h	n/a
521.231	0.105	1042462	keystroke	e	n/a
521.366	0.1655	1042732	keystroke	a	n/a
521.4715	0.12	1042943	keystroke	t	n/a
521.6215	0.09	1043243	keystroke	Key.space	n/a
522.041	0.06	1044082	keystroke	h	n/a
522.116	0.09	1044232	keystroke	e	n/a
522.356	0.075	1044712	keystroke	r	n/a
522.611	0.075	1045222	keystroke	b	n/a
522.8365	0.105	1045673	keystroke	a	n/a
523.1065	0.044	1046213	keystroke	l	n/a
523.1205	0.075	1046241	keystroke	Key.space	n/a
523.2405	0.121	1046481	keystroke	s	n/a
523.3915	0.089	1046783	keystroke	t	n/a
523.6155	0.196	1047231	keystroke	a	n/a
523.7965	0.059	1047593	keystroke	r	n/a
524.0665	0.06	1048133	keystroke	s	n/a
524.6065	0.06	1049213	keystroke	m	n/a
524.7115	0.105	1049423	keystroke	e	n/a
524.8465	0.09	1049693	keystroke	r	n/a
525.0715	0.12	1050143	keystroke	c	n/a
525.1765	0.075	1050353	keystroke	h	n/a
525.2665	0.12	1050533	keystroke	a	n/a
525.3565	0.075	1050713	keystroke	n	n/a
525.5365	0.06	1051073	keystroke	t	n/a
525.7165	0.075	1051433	keystroke	Key.enter	n/a
525.797	7.286	1051594	prompt	n/a	challenging implies tickets genetics\n
526.527	0.134	1053054	keystroke	c	n/a
526.721	0.075	1053442	keystroke	h	n/a
526.886	0.105	1053772	keystroke	a	n/a
527.051	0.075	1054102	keystroke	l	n/a
527.171	0.075	1054342	keystroke	e	n/a
527.306	0.09	1054612	keystroke	e	n/a
527.697	0.044	1055394	keystroke	Key.backspace	n/a
527.816	0.06	1055632	keystroke	Key.backspace	n/a
528.176	0.045	1056352	keystroke	l	n/a
528.296	0.06	1056592	keystroke	l	n/a
528.371	0.075	1056742	keystroke	e	n/a
528.476	0.075	1056952	keystroke	n	n/a
528.626	0.045	1057252	keystroke	g	n/a
528.761	0.075	1057522	keystroke	i	n/a
528.791	0.105	1057582	keystroke	n	n/a
528.911	0.06	1057822	keystroke	g	n/a
528.986	0.105	1057972	keystroke	Key.space	n/a
529.2265	0.09	1058453	keystroke	i	n/a
529.2865	0.12	1058573	keystroke	m	n/a
529.451	0.0905	1058902	keystroke	p	n/a
529.691	0.09	1059382	keystroke	l	n/a
529.811	0.105	1059622	keystroke	i	n/a
529.931	0.1205	1059862	keystroke	e	n/a
529.991	0.1505	1059982	keystroke	s	n/a
530.1265	0.075	1060253	keystroke	Key.space	n/a
530.3965	0.06	1060793	keystroke	t	n/a
530.6805	0.075	1061361	keystroke	i	n/a
530.8305	0.0905	1061661	keystroke	c	n/a
530.936	0.075	1061872	keystroke	k	n/a
531.071	0.1355	1062142	keystroke	e	n/a
531.176	0.1355	1062352	keystroke	t	n/a
531.3415	0.105	1062683	keystroke	s	n/a
