onset	duration	sample	value	key	prompt_text
2.7125	5.7575	5425	prompt	n/a	the quick brown fox jumps over a lazy dog\n
4.601	0.0135	9202	keystroke	t	n/a
4.602	0.0725	9204	keystroke	h	n/a
4.7195	0.044	9439	keystroke	e	n/a
4.794	0.09	9588	keystroke	Key.space	n/a
4.899	0.135	9798	keystroke	q	n/a
5.019	0.12	10038	keystroke	u	n/a
5.094	0.09	10188	keystroke	i	n/a
5.229	0.09	10458	keystroke	c	n/a
5.289	0.09	10578	keystroke	k	n/a
5.364	0.045	10728	keystroke	Key.space	n/a
5.469	0.075	10938	keystroke	b	n/a
5.559	0.086	11118	keystroke	r	n/a
5.66	0.0455	11320	keystroke	o	n/a
5.7355	0.09	11471	keystroke	w	n/a
5.7955	0.06	11591	keystroke	n	n/a
5.8705	0.105	11741	keystroke	Key.space	n/a
5.9155	0.075	11831	keystroke	f	n/a
6.0055	0.075	12011	keystroke	o	n/a
6.1115	0.0755	12223	keystroke	x	n/a
6.172	0.09	12344	keystroke	Key.space	n/a
6.247	0.0595	12494	keystroke	j	n/a
6.3815	0.09	12763	keystroke	u	n/a
6.577	0.0455	13154	keystroke	m	n/a
6.7275	0.09	13455	keystroke	p	n/a
6.8175	0.0895	13635	keystroke	s	n/a
6.8775	0.0895	13755	keystroke	Key.space	n/a
6.922	0.09	13844	keystroke	o	n/a
6.998	0.074	13996	keystroke	v	n/a
7.147	0.106	14294	keystroke	e	n/a
7.207	0.105	14414	keystroke	r	n/a
7.3725	0.105	14745	keystroke	Key.space	n/a
7.5075	0.09	15015	keystroke	a	n/a
7.5825	0.12	15165	keystroke	Key.space	n/a
7.6275	0.1345	15255	keystroke	l	n/a
7.7475	0.0755	15495	keystroke	a	n/a
7.912	0.075	15824	keystroke	z	n/a
7.972	0.09	15944	keystroke	y	n/a
8.017	0.1055	16034	keystroke	Key.space	n/a
8.092	0.0905	16184	keystroke	d	n/a
8.1975	0.0595	16395	keystroke	o	n/a
8.2875	0.09	16575	keystroke	g	n/a
8.3925	0.075	16785	keystroke	Key.enter	n/a
8.474	5.275	16948	prompt	n/a	bowling blade faqs fraction\n
9.1875	0.06	18375	keystroke	b	n/a
9.3525	0.075	18705	keystroke	o	n/a
9.4285	0.104	18857	keystroke	w	n/a
9.5475	0.045	19095	keystroke	l	n/a
9.6825	0.0445	19365	keystroke	i	n/a
9.802	0.06	19604	keystroke	n	n/a
9.847	0.06	19694	keystroke	g	n/a
9.922	0.0605	19844	keystroke	Key.space	n/a
10.2225	0.045	20445	keystroke	l	n/a
10.5375	0.06	21075	keystroke	Key.backspace	n/a
10.748	0.044	21496	keystroke	b	n/a
10.912	0.09	21824	keystroke	l	n/a
11.017	0.03	22034	keystroke	a	n/a
11.137	0.075	22274	keystroke	d	n/a
11.317	0.045	22634	keystroke	e	n/a
11.407	0.075	22814	keystroke	Key.space	n/a
11.497	0.06	22994	keystroke	f	n/a
11.527	0.105	23054	keystroke	a	n/a
11.707	0.0755	23414	keystroke	q	n/a
11.9775	0.06	23955	keystroke	s	n/a
12.5475	0.09	25095	keystroke	Key.space	n/a
12.6375	0.06	25275	keystroke	f	n/a
12.7725	0.075	25545	keystroke	r	n/a
12.8325	0.135	25665	keystroke	a	n/a
12.9825	0.09	25965	keystroke	c	n/a
13.1925	0.09	26385	keystroke	t	n/a
13.2675	0.105	26535	keystroke	i	n/a
13.3425	0.045	26685	keystroke	o	n/a
13.5075	0.075	27015	keystroke	n	n/a
13.6725	0.075	27345	keystroke	Key.enter	n/a
13.752	3.7175	27504	prompt	n/a	yale muslim reads praise\n
14.363	0.075	28726	keystroke	y	n/a
14.483	0.0745	28966	keystroke	a	n/a
14.5725	0.0745	29145	keystroke	l	n/a
14.678	0.06	29356	keystroke	e	n/a
14.722	0.105	29444	keystroke	Key.space	n/a
14.843	0.044	29686	keystroke	m	n/a
15.038	0.059	30076	keystroke	u	n/a
15.172	0.046	30344	keystroke	s	n/a
15.248	0.074	30496	keystroke	l	n/a
15.427	0.031	30854	keystroke	i	n/a
15.6525	0.03	31305	keystroke	m	n/a
15.6675	0.105	31335	keystroke	Key.space	n/a
16.1925	0.09	32385	keystroke	r	n/a
16.2075	0.105	32415	keystroke	e	n/a
16.2975	0.076	32595	keystroke	a	n/a
16.4775	0.12	32955	keystroke	d	n/a
16.5835	0.119	33167	keystroke	s	n/a
16.6575	0.105	33315	keystroke	Key.space	n/a
16.7325	0.09	33465	keystroke	p	n/a
16.8535	0.0895	33707	keystroke	r	n/a
16.9125	0.12	33825	keystroke	a	n/a
17.0475	0.075	34095	keystroke	i	n/a
17.1525	0.075	34305	keystroke	s	n/a
17.2885	0.104	34577	keystroke	e	n/a
17.3775	0.09	34755	keystroke	Key.enter	n/a
17.473	5.2915	34946	prompt	n/a	davidson tattoo backed cookie\n
18.098	0.09	36196	keystroke	d	n/a
18.233	0.1195	36466	keystroke	a	n/a
18.3675	0.0905	36735	keystroke	v	n/a
18.5185	0.1195	37037	keystroke	i	n/a
18.638	0.045	37276	keystroke	d	n/a
19.1775	0.045	38355	keystroke	s	n/a
19.2375	0.06	38475	keystroke	o	n/a
19.4175	0.09	38835	keystroke	n	n/a
19.4625	0.09	38925	keystroke	Key.space	n/a
19.5675	0.1205	39135	keystroke	t	n/a
19.793	0.09	39586	keystroke	a	n/a
20.003	0.06	40006	keystroke	t	n/a
20.138	0.075	40276	keystroke	t	n/a
20.273	0.03	40546	keystroke	o	n/a
20.378	0.12	40756	keystroke	o	n/a
20.483	0.06	40966	keystroke	Key.space	n/a
20.648	0.045	41296	keystroke	b	n/a
20.738	0.135	41476	keystroke	a	n/a
20.813	0.09	41626	keystroke	c	n/a
20.888	0.075	41776	keystroke	k	n/a
20.978	0.045	41956	keystroke	e	n/a
21.128	0.06	42256	keystroke	d	n/a
21.203	0.075	42406	keystroke	Key.space	n/a
21.4425	0.06	42885	keystroke	v	n/a
21.8035	0.0585	43607	keystroke	Key.backspace	n/a
22.058	0.06	44116	keystroke	c	n/a
22.148	0.0445	44296	keystroke	o	n/a
22.2685	0.045	44537	keystroke	o	n/a
22.418	0.045	44836	keystroke	k	n/a
22.5235	0.0745	45047	keystroke	i	n/a
22.613	0.0595	45226	keystroke	e	n/a
22.688	0.074	45376	keystroke	Key.enter	n/a
22.768	4.7065	45536	prompt	n/a	paid hansen institute grow\n
23.4085	0.06	46817	keystroke	p	n/a
23.4835	0.074	46967	keystroke	a	n/a
23.5735	0.0595	47147	keystroke	i	n/a
23.6485	0.089	47297	keystroke	d	n/a
23.708	0.0745	47416	keystroke	Key.space	n/a
23.8425	0.045	47685	keystroke	h	n/a
23.9025	0.075	47805	keystroke	a	n/a
24.0085	0.045	48017	keystroke	n	n/a
24.0825	0.045	48165	keystroke	d	n/a
24.5175	0.06	49035	keystroke	Key.backspace	n/a
24.7125	0.03	49425	keystroke	s	n/a
24.8475	0.0605	49695	keystroke	e	n/a
24.923	0.03	49846	keystroke	n	n/a
24.9685	0.104	49937	keystroke	Key.space	n/a
25.1025	0.045	50205	keystroke	i	n/a
25.2375	0.06	50475	keystroke	n	n/a
25.3425	0.045	50685	keystroke	s	n/a
26.0775	0.075	52155	keystroke	t	n/a
26.2135	0.074	52427	keystroke	i	n/a
26.3325	0.091	52665	keystroke	t	n/a
26.4375	0.06	52875	keystroke	u	n/a
26.513	0.0595	53026	keystroke	t	n/a
26.633	0.075	53266	keystroke	e	n/a
26.7825	0.0755	53565	keystroke	Key.space	n/a
26.9175	0.06	53835	keystroke	g	n/a
27.0825	0.09	54165	keystroke	r	n/a
27.2175	0.09	54435	keystroke	o	n/a
27.2775	0.105	54555	keystroke	w	n/a
27.3975	0.075	54795	keystroke	Key.enter	n/a
27.478	5.0365	54956	prompt	n/a	memories guilty connect please\n
28.0885	0.044	56177	keystroke	m	n/a
28.1775	0.06	56355	keystroke	e	n/a
28.2525	0.03	56505	keystroke	m	n/a
28.388	0.06	56776	keystroke	o	n/a
28.449	0.0595	56898	keystroke	r	n/a
28.5375	0.06	57075	keystroke	i	n/a
28.5985	0.06	57197	keystroke	e	n/a
28.7625	0.091	57525	keystroke	s	n/a
28.8385	0.089	57677	keystroke	Key.space	n/a
28.9425	0.091	57885	keystroke	g	n/a
29.0185	0.09	58037	keystroke	u	n/a
29.0635	0.09	58127	keystroke	i	n/a
29.258	0.075	58516	keystroke	l	n/a
29.393	0.045	58786	keystroke	t	n/a
29.543	0.045	59086	keystroke	y	n/a
29.573	0.09	59146	keystroke	Key.space	n/a
29.783	0.09	59566	keystroke	c	n/a
29.858	0.06	59716	keystroke	o	n/a
30.023	0.03	60046	keystroke	n	n/a
30.128	0.06	60256	keystroke	n	n/a
30.233	0.12	60466	keystroke	e	n/a
30.593	0.06	61186	keystroke	t	n/a
31.013	0.075	62026	keystroke	Key.backspace	n/a
31.178	0.09	62356	keystroke	c	n/a
31.403	0.06	62806	keystroke	t	n/a
31.448	0.09	62896	keystroke	Key.space	n/a
31.553	0.06	63106	keystroke	p	n/a
31.733	0.075	63466	keystroke	l	n/a
31.883	0.09	63766	keystroke	e	n/a
31.928	0.075	63856	keystroke	a	n/a
32.168	0.045	64336	keystroke	s	n/a
32.288	0.06	64576	keystroke	e	n/a
32.438	0.075	64876	keystroke	Key.enter	n/a
32.518	4.4065	65036	prompt	n/a	until invoice dangerous runs\n
33.218	0.06	66436	keystroke	u	n/a
33.323	0.0305	66646	keystroke	n	n/a
33.4125	0.09	66825	keystroke	t	n/a
33.4885	0.045	66977	keystroke	i	n/a
33.668	0.075	67336	keystroke	l	n/a
33.728	0.105	67456	keystroke	Key.space	n/a
33.908	0.09	67816	keystroke	i	n/a
34.103	0.03	68206	keystroke	n	n/a
34.268	0.045	68536	keystroke	v	n/a
34.373	0.105	68746	keystroke	o	n/a
34.418	0.09	68836	keystroke	i	n/a
34.553	0.09	69106	keystroke	c	n/a
34.598	0.105	69196	keystroke	e	n/a
34.733	0.075	69466	keystroke	Key.space	n/a
34.883	0.0595	69766	keystroke	d	n/a
35.0475	0.12	70095	keystroke	a	n/a
35.1525	0.075	70305	keystroke	n	n/a
35.2425	0.06	70485	keystroke	g	n/a
35.528	0.015	71056	keystroke	e	n/a
35.543	0.0595	71086	keystroke	r	n/a
36.053	0.12	72106	keystroke	o	n/a
36.128	0.075	72256	keystroke	u	n/a
36.218	0.075	72436	keystroke	s	n/a
36.353	0.075	72706	keystroke	Key.space	n/a
36.473	0.03	72946	keystroke	r	n/a
36.518	0.045	73036	keystroke	u	n/a
36.683	0.045	73366	keystroke	n	n/a
36.729	0.074	73458	keystroke	s	n/a
36.848	0.0745	73696	keystroke	Key.enter	n/a
36.9295	4.2555	73859	prompt	n/a	permission friend forums sisters\n
37.493	0.06	74986	keystroke	p	n/a
37.568	0.09	75136	keystroke	e	n/a
37.643	0.06	75286	keystroke	r	n/a
37.793	0.06	75586	keystroke	m	n/a
38.018	0.06	76036	keystroke	i	n/a
38.093	0.06	76186	keystroke	s	n/a
38.258	0.045	76516	keystroke	s	n/a
38.318	0.09	76636	keystroke	i	n/a
38.363	0.075	76726	keystroke	o	n/a
38.543	0.06	77086	keystroke	n	n/a
38.588	0.09	77176	keystroke	Key.space	n/a
38.663	0.0605	77326	keystroke	f	n/a
38.8135	0.045	77627	keystroke	r	n/a
38.8735	0.0445	77747	keystroke	i	n/a
38.948	0.06	77896	keystroke	e	n/a
39.023	0.06	78046	keystroke	n	n/a
39.128	0.06	78256	keystroke	d	n/a
39.203	0.09	78406	keystroke	Key.space	n/a
39.338	0.045	78676	keystroke	f	n/a
39.368	0.075	78736	keystroke	o	n/a
39.4585	0.075	78917	keystroke	r	n/a
39.5485	0.045	79097	keystroke	u	n/a
39.728	0.045	79456	keystroke	m	n/a
39.818	0.06	79636	keystroke	s	n/a
39.923	0.105	79846	keystroke	Key.space	n/a
40.013	0.075	80026	keystroke	s	n/a
40.103	0.075	80206	keystroke	i	n/a
40.193	0.045	80386	keystroke	s	n/a
40.343	0.06	80686	keystroke	t	n/a
40.448	0.12	80896	keystroke	e	n/a
40.553	0.075	81106	keystroke	r	n/a
40.883	0.075	81766	keystroke	s	n/a
41.093	0.09	82186	keystroke	Key.enter	n/a
41.1885	3.911	82377	prompt	n/a	awful valued parks locator\n
41.7535	0.09	83507	keystroke	a	n/a
41.9035	0.075	83807	keystroke	w	n/a
42.0835	0.075	84167	keystroke	f	n/a
42.1285	0.075	84257	keystroke	u	n/a
42.3085	0.135	84617	keystroke	l	n/a
42.3835	0.12	84767	keystroke	Key.space	n/a
42.5635	0.03	85127	keystroke	v	n/a
42.5785	0.075	85157	keystroke	a	n/a
42.6235	0.06	85247	keystroke	l	n/a
42.8035	0.0895	85607	keystroke	u	n/a
42.894	0.044	85788	keystroke	e	n/a
43.178	0.075	86356	keystroke	d	n/a
43.703	0.105	87406	keystroke	Key.space	n/a
43.793	0.06	87586	keystroke	p	n/a
43.898	0.075	87796	keystroke	a	n/a
43.913	0.12	87826	keystroke	r	n/a
44.048	0.015	88096	keystroke	k	n/a
44.108	0.0605	88216	keystroke	s	n/a
44.1825	0.105	88365	keystroke	Key.space	n/a
44.2425	0.075	88485	keystroke	l	n/a
44.4085	0.089	88817	keystroke	o	n/a
44.5425	0.105	89085	keystroke	c	n/a
44.6035	0.104	89207	keystroke	a	n/a
44.7835	0.075	89567	keystroke	t	n/a
44.8435	0.1045	89687	keystroke	o	n/a
44.948	0.09	89896	keystroke	r	n/a
45.023	0.075	90046	keystroke	Key.enter	n/a
45.1025	4.872	90205	prompt	n/a	term story ties specified\n
45.728	0.06	91456	keystroke	t	n/a
45.863	0.09	91726	keystroke	e	n/a
45.938	0.09	91876	keystroke	r	n/a
46.013	0.075	92026	keystroke	m	n/a
46.073	0.105	92146	keystroke	Key.space	n/a
46.193	0.06	92386	keystroke	s	n/a
46.373	0.045	92746	keystroke	t	n/a
46.433	0.075	92866	keystroke	o	n/a
46.538	0.06	93076	keystroke	r	n/a
46.643	0.09	93286	keystroke	y	n/a
46.688	0.105	93376	keystroke	Key.space	n/a
46.808	0.06	93616	keystroke	t	n/a
46.883	0.105	93766	keystroke	i	n/a
47.0025	0.015	94005	keystroke	e	n/a
47.1225	0.0455	94245	keystroke	s	n/a
47.1975	0.09	94395	keystroke	Key.space	n/a
47.273	0.0595	94546	keystroke	s	n/a
47.3625	0.0905	94725	keystroke	p	n/a
47.4375	0.0305	94875	keystroke	e	n/a
47.618	0.075	95236	keystroke	c	n/a
47.798	0.0755	95596	keystroke	f	n/a
48.2785	0.075	96557	keystroke	Key.backspace	n/a
49.343	0.045	98686	keystroke	i	n/a
49.433	0.09	98866	keystroke	f	n/a
49.508	0.06	99016	keystroke	i	n/a
49.598	0.06	99196	keystroke	e	n/a
49.793	0.075	99586	keystroke	d	n/a
49.868	0.105	99736	keystroke	Key.enter	n/a
49.979	3.2205	99958	prompt	n/a	outside nowhere clay gold\n
50.618	0.12	101236	keystroke	o	n/a
50.663	0.135	101326	keystroke	u	n/a
50.753	0.06	101506	keystroke	t	n/a
50.903	0.105	101806	keystroke	s	n/a
50.993	0.06	101986	keystroke	i	n/a
51.068	0.075	102136	keystroke	d	n/a
51.203	0.09	102406	keystroke	e	n/a
51.308	0.105	102616	keystroke	Key.space	n/a
51.368	0.135	102736	keystroke	n	n/a
51.473	0.09	102946	keystroke	o	n/a
51.593	0.09	103186	keystroke	w	n/a
51.728	0.045	103456	keystroke	h	n/a
51.758	0.105	103516	keystroke	e	n/a
51.848	0.135	103696	keystroke	r	n/a
51.938	0.105	103876	keystroke	e	n/a
52.028	0.09	104056	keystroke	Key.space	n/a
52.208	0.09	104416	keystroke	c	n/a
52.283	0.075	104566	keystroke	l	n/a
52.403	0.09	104806	keystroke	a	n/a
52.508	0.105	105016	keystroke	y	n/a
52.598	0.105	105196	keystroke	Key.space	n/a
52.688	0.06	105376	keystroke	g	n/a
52.763	0.075	105526	keystroke	o	n/a
52.913	0.075	105826	keystroke	l	n/a
52.973	0.06	105946	keystroke	d	n/a
53.123	0.075	106246	keystroke	Key.enter	n/a
53.203	4.6765	106406	prompt	n/a	issues basis headphones christopher\n
53.8285	0.075	107657	keystroke	i	n/a
53.9185	0.06	107837	keystroke	s	n/a
54.0535	0.045	108107	keystroke	s	n/a
54.1285	0.075	108257	keystroke	u	n/a
54.2185	0.03	108437	keystroke	e	n/a
54.3685	0.045	108737	keystroke	s	n/a
54.4285	0.075	108857	keystroke	Key.space	n/a
54.5485	0.075	109097	keystroke	b	n/a
54.6085	0.075	109217	keystroke	a	n/a
54.7435	0.09	109487	keystroke	s	n/a
54.8485	0.1045	109697	keystroke	i	n/a
54.938	0.075	109876	keystroke	s	n/a
54.983	0.12	109966	keystroke	Key.space	n/a
55.088	0.06	110176	keystroke	h	n/a
55.163	0.075	110326	keystroke	e	n/a
55.253	0.106	110506	keystroke	a	n/a
55.418	0.09	110836	keystroke	d	n/a
55.523	0.075	111046	keystroke	p	n/a
55.688	0.075	111376	keystroke	h	n/a
55.748	0.075	111496	keystroke	o	n/a
55.913	0.06	111826	keystroke	n	n/a
55.943	0.06	111886	keystroke	e	n/a
56.108	0.075	112216	keystroke	s	n/a
56.198	0.09	112396	keystroke	Key.space	n/a
56.318	0.045	112636	keystroke	c	n/a
56.378	0.0755	112756	keystroke	h	n/a
56.4985	0.045	112997	keystroke	r	n/a
56.5735	0.075	113147	keystroke	i	n/a
56.6785	0.06	113357	keystroke	s	n/a
56.8435	0.0745	113687	keystroke	t	n/a
56.963	0.075	113926	keystroke	o	n/a
57.428	0.03	114856	keystroke	p	n/a
57.548	0.075	115096	keystroke	h	n/a
57.624	0.104	115248	keystroke	e	n/a
57.698	0.1045	115396	keystroke	r	n/a
57.7875	0.09	115575	keystroke	Key.enter	n/a
57.8825	4.4525	115765	prompt	n/a	pleased login pages bryan\n
58.8375	0.045	117675	keystroke	p	n/a
59.018	0.046	118036	keystroke	l	n/a
59.108	0.061	118216	keystroke	e	n/a
59.6035	0.075	119207	keystroke	a	n/a
59.8435	0.09	119687	keystroke	s	n/a
60.0535	0.0445	120107	keystroke	e	n/a
60.218	0.06	120436	keystroke	d	n/a
60.308	0.09	120616	keystroke	Key.space	n/a
60.368	0.075	120736	keystroke	l	n/a
60.518	0.075	121036	keystroke	o	n/a
60.638	0.06	121276	keystroke	g	n/a
60.713	0.045	121426	keystroke	i	n/a
60.848	0.075	121696	keystroke	n	n/a
60.893	0.135	121786	keystroke	Key.space	n/a
61.029	0.119	122058	keystroke	p	n/a
61.118	0.075	122236	keystroke	a	n/a
61.163	0.135	122326	keystroke	g	n/a
61.268	0.075	122536	keystroke	e	n/a
61.463	0.075	122926	keystroke	s	n/a
61.523	0.06	123046	keystroke	Key.space	n/a
61.6435	0.075	123287	keystroke	b	n/a
61.7485	0.06	123497	keystroke	r	n/a
61.8535	0.075	123707	keystroke	y	n/a
61.9885	0.09	123977	keystroke	a	n/a
62.0935	0.075	124187	keystroke	n	n/a
62.2285	0.105	124457	keystroke	Key.enter	n/a
62.339	6.881	124678	prompt	n/a	iraqi breeds philippines camps\n
63.0385	0.09	126077	keystroke	i	n/a
63.1585	0.1045	126317	keystroke	r	n/a
63.548	0.075	127096	keystroke	a	n/a
63.743	0.075	127486	keystroke	q	n/a
63.908	0.075	127816	keystroke	u	n/a
64.493	0.045	128986	keystroke	Key.backspace	n/a
64.718	0.0455	129436	keystroke	i	n/a
64.8235	0.075	129647	keystroke	Key.space	n/a
65.0035	0.045	130007	keystroke	b	n/a
65.0635	0.045	130127	keystroke	r	n/a
65.2735	0.06	130547	keystroke	e	n/a
65.3935	0.075	130787	keystroke	e	n/a
65.5885	0.1195	131177	keystroke	d	n/a
65.693	0.09	131386	keystroke	s	n/a
65.813	0.09	131626	keystroke	Key.space	n/a
65.948	0.075	131896	keystroke	p	n/a
66.203	0.045	132406	keystroke	h	n/a
66.443	0.045	132886	keystroke	i	n/a
66.6835	0.03	133367	keystroke	l	n/a
66.9535	0.06	133907	keystroke	i	n/a
67.478	0.045	134956	keystroke	p	n/a
67.613	0.045	135226	keystroke	p	n/a
67.778	0.06	135556	keystroke	i	n/a
67.973	0.09	135946	keystroke	n	n/a
68.078	0.0605	136156	keystroke	e	n/a
68.2285	0.105	136457	keystroke	s	n/a
68.3335	0.06	136667	keystroke	Key.space	n/a
68.4385	0.135	136877	keystroke	c	n/a
68.5285	0.105	137057	keystroke	a	n/a
68.5885	0.06	137177	keystroke	m	n/a
68.7985	0.135	137597	keystroke	p	n/a
68.8885	0.075	137777	keystroke	s	n/a
69.1285	0.09	138257	keystroke	Key.enter	n/a
69.2225	5.202	138445	prompt	n/a	meaningful lies valuable demonstrates\n
69.848	0.075	139696	keystroke	m	n/a
69.938	0.12	139876	keystroke	e	n/a
70.013	0.0905	140026	keystroke	a	n/a
70.0735	0.06	140147	keystroke	n	n/a
70.2385	0.06	140477	keystroke	i	n/a
70.3735	0.09	140747	keystroke	n	n/a
70.4335	0.06	140867	keystroke	g	n/a
70.6135	0.075	141227	keystroke	f	n/a
70.6285	0.09	141257	keystroke	u	n/a
70.8835	0.06	141767	keystroke	l	n/a
70.9585	0.135	141917	keystroke	Key.space	n/a
71.0935	0.09	142187	keystroke	l	n/a
71.2735	0.075	142547	keystroke	i	n/a
71.3785	0.045	142757	keystroke	e	n/a
71.5285	0.09	143057	keystroke	s	n/a
71.5885	0.09	143177	keystroke	Key.space	n/a
71.7085	0.12	143417	keystroke	v	n/a
71.8135	0.105	143627	keystroke	a	n/a
71.8735	0.06	143747	keystroke	l	n/a
72.0535	0.059	144107	keystroke	u	n/a
72.1585	0.09	144317	keystroke	a	n/a
72.2635	0.045	144527	keystroke	b	n/a
72.4285	0.06	144857	keystroke	l	n/a
72.4585	0.06	144917	keystroke	e	n/a
72.6085	0.075	145217	keystroke	Key.space	n/a
72.6685	0.06	145337	keystroke	d	n/a
72.8475	0.0755	145695	keystroke	e	n/a
72.953	0.045	145906	keystroke	m	n/a
73.133	0.045	146266	keystroke	o	n/a
73.268	0.075	146536	keystroke	n	n/a
73.358	0.03	146716	keystroke	s	n/a
73.508	0.045	147016	keystroke	t	n/a
73.658	0.075	147316	keystroke	r	n/a
73.718	0.09	147436	keystroke	a	n/a
73.883	0.135	147766	keystroke	t	n/a
74.033	0.075	148066	keystroke	e	n/a
74.213	0.075	148426	keystroke	s	n/a
74.348	0.075	148696	keystroke	Key.enter	n/a
74.428	4.002	148856	prompt	n/a	chase legacy retail fields\n
75.0535	0.06	150107	keystroke	c	n/a
75.1285	0.09	150257	keystroke	h	n/a
75.2335	0.045	150467	keystroke	a	n/a
75.4585	0.015	150917	keystroke	s	n/a
75.5325	0.045	151065	keystroke	e	n/a
75.5925	0.105	151185	keystroke	Key.space	n/a
75.6385	0.12	151277	keystroke	l	n/a
75.7135	0.06	151427	keystroke	e	n/a
75.8325	0.09	151665	keystroke	g	n/a
75.8925	0.075	151785	keystroke	a	n/a
76.0885	0.09	152177	keystroke	c	n/a
76.1335	0.074	152267	keystroke	y	n/a
76.1625	0.105	152325	keystroke	Key.space	n/a
76.4785	0.03	152957	keystroke	r	n/a
76.4935	0.045	152987	keystroke	e	n/a
76.6275	0.075	153255	keystroke	t	n/a
76.6735	0.09	153347	keystroke	a	n/a
76.8085	0.075	153617	keystroke	i	n/a
77.6175	0.091	155235	keystroke	l	n/a
77.6785	0.059	155357	keystroke	Key.space	n/a
77.7835	0.0745	155567	keystroke	f	n/a
77.873	0.045	155746	keystroke	i	n/a
77.948	0.06	155896	keystroke	e	n/a
78.053	0.075	156106	keystroke	l	n/a
78.143	0.0905	156286	keystroke	d	n/a
78.218	0.1055	156436	keystroke	s	n/a
78.3525	0.0755	156705	keystroke	Key.enter	n/a
78.433	4.4065	156866	prompt	n/a	impossible tremendous brain hard\n
79.0285	0.059	158057	keystroke	i	n/a
79.208	0.0445	158416	keystroke	m	n/a
79.3575	0.1205	158715	keystroke	p	n/a
79.4025	0.105	158805	keystroke	o	n/a
79.5085	0.044	159017	keystroke	s	n/a
79.6285	0.09	159257	keystroke	s	n/a
79.7185	0.045	159437	keystroke	i	n/a
79.7785	0.075	159557	keystroke	b	n/a
79.8985	0.03	159797	keystroke	l	n/a
79.9435	0.075	159887	keystroke	e	n/a
80.0635	0.09	160127	keystroke	Key.space	n/a
80.1385	0.075	160277	keystroke	t	n/a
80.288	0.105	160576	keystroke	r	n/a
80.348	0.075	160696	keystroke	e	n/a
80.408	0.075	160816	keystroke	m	n/a
80.498	0.075	160996	keystroke	e	n/a
81.008	0.075	162016	keystroke	n	n/a
81.128	0.075	162256	keystroke	d	n/a
81.248	0.045	162496	keystroke	o	n/a
81.278	0.0755	162556	keystroke	u	n/a
81.4285	0.03	162857	keystroke	s	n/a
81.4735	0.09	162947	keystroke	Key.space	n/a
81.6535	0.075	163307	keystroke	b	n/a
81.7735	0.12	163547	keystroke	r	n/a
81.8485	0.12	163697	keystroke	a	n/a
81.9685	0.03	163937	keystroke	i	n/a
82.103	0.09	164206	keystroke	n	n/a
82.178	0.075	164356	keystroke	Key.space	n/a
82.343	0.045	164686	keystroke	h	n/a
82.403	0.09	164806	keystroke	a	n/a
82.478	0.06	164956	keystroke	r	n/a
82.658	0.075	165316	keystroke	d	n/a
82.763	0.075	165526	keystroke	Key.enter	n/a
82.843	4.362	165686	prompt	n/a	modifications courtesy raleigh flat\n
83.543	0.06	167086	keystroke	m	n/a
83.723	0.06	167446	keystroke	o	n/a
83.798	0.06	167596	keystroke	d	n/a
83.888	0.06	167776	keystroke	i	n/a
83.948	0.045	167896	keystroke	f	n/a
84.053	0.06	168106	keystroke	i	n/a
84.143	0.105	168286	keystroke	c	n/a
84.263	0.075	168526	keystroke	a	n/a
84.428	0.075	168856	keystroke	t	n/a
84.488	0.0755	168976	keystroke	i	n/a
84.548	0.045	169096	keystroke	o	n/a
84.683	0.075	169366	keystroke	n	n/a
84.728	0.075	169456	keystroke	s	n/a
84.833	0.0905	169666	keystroke	Key.space	n/a
84.9385	0.075	169877	keystroke	c	n/a
85.0285	0.0895	170057	keystroke	o	n/a
85.058	0.075	170116	keystroke	u	n/a
85.148	0.06	170296	keystroke	r	n/a
85.328	0.045	170656	keystroke	t	n/a
85.418	0.075	170836	keystroke	e	n/a
85.613	0.075	171226	keystroke	s	n/a
85.673	0.075	171346	keystroke	y	n/a
85.733	0.09	171466	keystroke	Key.space	n/a
86.003	0.105	172006	keystroke	r	n/a
86.063	0.09	172126	keystroke	a	n/a
86.168	0.105	172336	keystroke	l	n/a
86.288	0.03	172576	keystroke	e	n/a
86.363	0.075	172726	keystroke	i	n/a
86.468	0.06	172936	keystroke	g	n/a
86.529	0.074	173058	keystroke	h	n/a
86.588	0.0905	173176	keystroke	Key.space	n/a
86.7685	0.075	173537	keystroke	f	n/a
86.8435	0.0895	173687	keystroke	l	n/a
86.918	0.12	173836	keystroke	a	n/a
87.008	0.075	174016	keystroke	t	n/a
87.113	0.09	174226	keystroke	Key.enter	n/a
87.208	4.752	174416	prompt	n/a	sake prev particularly consoles\n
87.833	0.045	175666	keystroke	s	n/a
87.983	0.06	175966	keystroke	a	n/a
88.058	0.075	176116	keystroke	k	n/a
88.118	0.0755	176236	keystroke	e	n/a
88.2085	0.09	176417	keystroke	Key.space	n/a
88.3135	0.06	176627	keystroke	p	n/a
88.3435	0.09	176687	keystroke	r	n/a
88.4485	0.045	176897	keystroke	e	n/a
88.7485	0.105	177497	keystroke	v	n/a
89.1235	0.1345	178247	keystroke	Key.space	n/a
89.243	0.06	178486	keystroke	p	n/a
89.303	0.09	178606	keystroke	a	n/a
89.363	0.075	178726	keystroke	r	n/a
89.558	0.06	179116	keystroke	t	n/a
89.648	0.06	179296	keystroke	i	n/a
89.783	0.09	179566	keystroke	c	n/a
89.888	0.075	179776	keystroke	u	n/a
90.098	0.045	180196	keystroke	l	n/a
90.158	0.105	180316	keystroke	a	n/a
90.218	0.075	180436	keystroke	r	n/a
90.308	0.09	180616	keystroke	l	n/a
90.578	0.06	181156	keystroke	y	n/a
90.639	0.089	181278	keystroke	Key.space	n/a
90.803	0.0905	181606	keystroke	c	n/a
90.833	0.045	181666	keystroke	o	n/a
91.1035	0.09	182207	keystroke	n	n/a
91.2235	0.06	182447	keystroke	s	n/a
91.3285	0.06	182657	keystroke	o	n/a
91.493	0.105	182986	keystroke	l	n/a
91.553	0.06	183106	keystroke	e	n/a
91.7335	0.06	183467	keystroke	s	n/a
91.898	0.06	183796	keystroke	Key.enter	n/a
91.9645	4.7355	183929	prompt	n/a	tripadvisor seattle word handle\n
92.708	0.06	185416	keystroke	t	n/a
92.858	0.076	185716	keystroke	r	n/a
92.904	0.105	185808	keystroke	i	n/a
92.979	0.135	185958	keystroke	p	n/a
93.099	0.06	186198	keystroke	a	n/a
93.233	0.076	186466	keystroke	d	n/a
93.398	0.0755	186796	keystroke	v	n/a
93.5035	0.105	187007	keystroke	i	n/a
93.6235	0.06	187247	keystroke	s	n/a
93.7285	0.075	187457	keystroke	o	n/a
93.8185	0.06	187637	keystroke	t	n/a
94.2835	0.06	188567	keystroke	Key.backspace	n/a
94.4035	0.09	188807	keystroke	r	n/a
94.5085	0.1045	189017	keystroke	Key.space	n/a
94.628	0.075	189256	keystroke	s	n/a
94.823	0.09	189646	keystroke	e	n/a
94.929	0.089	189858	keystroke	a	n/a
95.0635	0.045	190127	keystroke	t	n/a
95.1835	0.075	190367	keystroke	t	n/a
95.2735	0.075	190547	keystroke	l	n/a
95.3335	0.075	190667	keystroke	e	n/a
95.4235	0.105	190847	keystroke	Key.space	n/a
95.5135	0.105	191027	keystroke	w	n/a
95.6185	0.045	191237	keystroke	o	n/a
95.6485	0.075	191297	keystroke	r	n/a
95.9335	0.0605	191867	keystroke	d	n/a
96.023	0.06	192046	keystroke	Key.space	n/a
96.128	0.061	192256	keystroke	h	n/a
96.218	0.075	192436	keystroke	a	n/a
96.309	0.044	192618	keystroke	n	n/a
96.398	0.061	192796	keystroke	d	n/a
96.473	0.06	192946	keystroke	l	n/a
96.548	0.076	193096	keystroke	e	n/a
96.608	0.09	193216	keystroke	Key.enter	n/a
96.703	4.3025	193406	prompt	n/a	stays reviewing respected counters\n
97.313	0.075	194626	keystroke	s	n/a
97.463	0.105	194926	keystroke	t	n/a
97.538	0.075	195076	keystroke	a	n/a
97.599	0.075	195198	keystroke	y	n/a
97.703	0.0755	195406	keystroke	s	n/a
97.7635	0.09	195527	keystroke	Key.space	n/a
97.8385	0.105	195677	keystroke	r	n/a
97.8985	0.075	195797	keystroke	e	n/a
98.0635	0.06	196127	keystroke	v	n/a
98.1385	0.075	196277	keystroke	i	n/a
98.2435	0.105	196487	keystroke	e	n/a
98.3185	0.105	196637	keystroke	w	n/a
98.4085	0.06	196817	keystroke	i	n/a
98.5885	0.03	197177	keystroke	n	n/a
98.6185	0.075	197237	keystroke	g	n/a
98.7235	0.09	197447	keystroke	Key.space	n/a
99.068	0.106	198136	keystroke	r	n/a
99.128	0.075	198256	keystroke	e	n/a
99.308	0.045	198616	keystroke	s	n/a
99.368	0.09	198736	keystroke	p	n/a
99.428	0.09	198856	keystroke	e	n/a
99.608	0.075	199216	keystroke	c	n/a
99.7885	0.105	199577	keystroke	t	n/a
99.9085	0.045	199817	keystroke	e	n/a
100.043	0.06	200086	keystroke	d	n/a
100.118	0.09	200236	keystroke	Key.space	n/a
100.209	0.089	200418	keystroke	c	n/a
100.283	0.105	200566	keystroke	o	n/a
100.328	0.075	200656	keystroke	u	n/a
100.478	0.075	200956	keystroke	n	n/a
100.538	0.075	201076	keystroke	t	n/a
100.658	0.105	201316	keystroke	e	n/a
100.703	0.09	201406	keystroke	r	n/a
100.853	0.1205	201706	keystroke	s	n/a
100.913	0.0905	201826	keystroke	Key.enter	n/a
101.009	3.536	202018	prompt	n/a	whole permitted dubai barrier\n
101.633	0.03	203266	keystroke	w	n/a
101.648	0.06	203296	keystroke	h	n/a
101.723	0.091	203446	keystroke	o	n/a
101.873	0.075	203746	keystroke	l	n/a
101.918	0.0605	203836	keystroke	e	n/a
101.9935	0.105	203987	keystroke	Key.space	n/a
102.0535	0.09	204107	keystroke	p	n/a
102.1135	0.075	204227	keystroke	e	n/a
102.1895	0.059	204379	keystroke	r	n/a
102.2635	0.045	204527	keystroke	m	n/a
102.4135	0.06	204827	keystroke	i	n/a
102.4585	0.03	204917	keystroke	t	n/a
102.5635	0.075	205127	keystroke	t	n/a
102.6835	0.06	205367	keystroke	e	n/a
102.8485	0.045	205697	keystroke	d	n/a
102.8935	0.0895	205787	keystroke	Key.space	n/a
102.998	0.105	205996	keystroke	d	n/a
103.058	0.06	206116	keystroke	u	n/a
103.208	0.06	206416	keystroke	b	n/a
103.283	0.06	206566	keystroke	a	n/a
103.358	0.09	206716	keystroke	i	n/a
103.433	0.075	206866	keystroke	Key.space	n/a
103.553	0.075	207106	keystroke	b	n/a
103.613	0.12	207226	keystroke	a	n/a
103.658	0.09	207316	keystroke	r	n/a
103.838	0.045	207676	keystroke	r	n/a
103.868	0.09	207736	keystroke	i	n/a
103.928	0.075	207856	keystroke	e	n/a
104.3185	0.06	208637	keystroke	r	n/a
104.4835	0.06	208967	keystroke	Key.enter	n/a
104.548	3.852	209096	prompt	n/a	emergency loops fossil union\n
105.1435	0.075	210287	keystroke	e	n/a
105.2335	0.075	210467	keystroke	m	n/a
105.3235	0.075	210647	keystroke	e	n/a
105.4135	0.015	210827	keystroke	r	n/a
105.5485	0.09	211097	keystroke	g	n/a
105.5935	0.135	211187	keystroke	e	n/a
105.7135	0.03	211427	keystroke	n	n/a
105.8335	0.09	211667	keystroke	c	n/a
105.9385	0.09	211877	keystroke	y	n/a
106.0135	0.075	212027	keystroke	Key.space	n/a
106.193	0.06	212386	keystroke	l	n/a
106.358	0.045	212716	keystroke	o	n/a
106.463	0.06	212926	keystroke	o	n/a
106.613	0.06	213226	keystroke	p	n/a
106.658	0.09	213316	keystroke	s	n/a
106.763	0.09	213526	keystroke	Key.space	n/a
106.808	0.075	213616	keystroke	f	n/a
106.898	0.12	213796	keystroke	o	n/a
106.988	0.045	213976	keystroke	s	n/a
107.108	0.105	214216	keystroke	s	n/a
107.168	0.06	214336	keystroke	i	n/a
107.348	0.075	214696	keystroke	l	n/a
107.408	0.1055	214816	keystroke	Key.space	n/a
107.5735	0.06	215147	keystroke	u	n/a
107.7385	0.045	215477	keystroke	n	n/a
107.9335	0.09	215867	keystroke	i	n/a
107.9935	0.1055	215987	keystroke	o	n/a
108.1585	0.0595	216317	keystroke	n	n/a
108.308	0.09	216616	keystroke	Key.enter	n/a
108.403	3.957	216806	prompt	n/a	females brazil fotos cruise\n
108.998	0.075	217996	keystroke	f	n/a
109.088	0.135	218176	keystroke	e	n/a
109.5085	0.0895	219017	keystroke	m	n/a
109.643	0.045	219286	keystroke	a	n/a
109.703	0.075	219406	keystroke	l	n/a
109.793	0.03	219586	keystroke	e	n/a
109.928	0.075	219856	keystroke	s	n/a
109.973	0.045	219946	keystroke	Key.space	n/a
110.063	0.09	220126	keystroke	b	n/a
110.123	0.105	220246	keystroke	r	n/a
110.198	0.09	220396	keystroke	a	n/a
110.453	0.075	220906	keystroke	z	n/a
110.5735	0.06	221147	keystroke	i	n/a
110.844	0.0295	221688	keystroke	l	n/a
110.8585	0.1055	221717	keystroke	Key.space	n/a
110.9785	0.09	221957	keystroke	f	n/a
111.0835	0.105	222167	keystroke	o	n/a
111.2185	0.09	222437	keystroke	t	n/a
111.2935	0.075	222587	keystroke	o	n/a
111.4585	0.09	222917	keystroke	s	n/a
111.5635	0.09	223127	keystroke	Key.space	n/a
111.6685	0.075	223337	keystroke	c	n/a
111.8635	0.075	223727	keystroke	r	n/a
111.9235	0.105	223847	keystroke	u	n/a
111.9835	0.15	223967	keystroke	i	n/a
112.0735	0.045	224147	keystroke	s	n/a
112.1785	0.12	224357	keystroke	e	n/a
112.2535	0.1045	224507	keystroke	Key.enter	n/a
112.363	3.777	224726	prompt	n/a	simple brands islamic cloud\n
112.928	0.091	225856	keystroke	s	n/a
113.004	0.059	226008	keystroke	i	n/a
113.184	0.044	226368	keystroke	m	n/a
113.303	0.076	226606	keystroke	p	n/a
113.423	0.105	226846	keystroke	l	n/a
113.483	0.075	226966	keystroke	e	n/a
113.559	0.074	227118	keystroke	Key.space	n/a
113.663	0.075	227326	keystroke	b	n/a
113.693	0.105	227386	keystroke	r	n/a
113.754	0.089	227508	keystroke	a	n/a
113.888	0.06	227776	keystroke	n	n/a
113.978	0.12	227956	keystroke	d	n/a
114.083	0.136	228166	keystroke	s	n/a
114.173	0.09	228346	keystroke	Key.space	n/a
114.293	0.09	228586	keystroke	i	n/a
114.428	0.075	228856	keystroke	s	n/a
114.518	0.075	229036	keystroke	l	n/a
114.6535	0.09	229307	keystroke	a	n/a
114.7135	0.06	229427	keystroke	m	n/a
114.8935	0.06	229787	keystroke	i	n/a
114.9385	0.09	229877	keystroke	c	n/a
115.043	0.09	230086	keystroke	Key.space	n/a
115.373	0.09	230746	keystroke	c	n/a
115.478	0.045	230956	keystroke	l	n/a
115.643	0.12	231286	keystroke	o	n/a
115.703	0.12	231406	keystroke	u	n/a
115.778	0.09	231556	keystroke	d	n/a
116.093	0.045	232186	keystroke	Key.enter	n/a
116.1455	4.6745	232291	prompt	n/a	oasis speak avatar existed\n
116.7535	0.105	233507	keystroke	o	n/a
116.8285	0.0895	233657	keystroke	a	n/a
117.008	0.06	234016	keystroke	s	n/a
117.099	0.105	234198	keystroke	i	n/a
117.189	0.06	234378	keystroke	s	n/a
117.263	0.1205	234526	keystroke	Key.space	n/a
117.339	0.0745	234678	keystroke	s	n/a
117.4435	0.075	234887	keystroke	p	n/a
117.5485	0.1055	235097	keystroke	e	n/a
117.609	0.09	235218	keystroke	a	n/a
117.6685	0.0755	235337	keystroke	k	n/a
117.7125	0.1055	235425	keystroke	Key.space	n/a
117.863	0.105	235726	keystroke	a	n/a
118.028	0.12	236056	keystroke	v	n/a
118.133	0.12	236266	keystroke	a	n/a
118.328	0.075	236656	keystroke	t	n/a
118.538	0.136	237076	keystroke	a	n/a
118.643	0.09	237286	keystroke	r	n/a
118.778	0.105	237556	keystroke	Key.space	n/a
118.913	0.075	237826	keystroke	e	n/a
119.7685	0.0745	239537	keystroke	x	n/a
119.9935	0.09	239987	keystroke	i	n/a
120.0985	0.075	240197	keystroke	s	n/a
120.2935	0.075	240587	keystroke	t	n/a
120.413	0.105	240826	keystroke	e	n/a
120.578	0.105	241156	keystroke	d	n/a
120.7135	0.105	241427	keystroke	Key.enter	n/a
120.823	7.587	241646	prompt	n/a	arrived experiments beings stewart\n
121.4785	0.0895	242957	keystroke	a	n/a
121.613	0.0605	243226	keystroke	r	n/a
121.7485	0.06	243497	keystroke	r	n/a
121.8235	0.09	243647	keystroke	i	n/a
121.9285	0.105	243857	keystroke	v	n/a
121.9885	0.09	243977	keystroke	e	n/a
122.1685	0.09	244337	keystroke	d	n/a
122.2735	0.075	244547	keystroke	Key.space	n/a
122.3635	0.045	244727	keystroke	e	n/a
122.649	0.0895	245298	keystroke	x	n/a
122.8585	0.1055	245717	keystroke	p	n/a
122.9935	0.06	245987	keystroke	e	n/a
123.039	0.105	246078	keystroke	r	n/a
123.129	0.06	246258	keystroke	i	n/a
123.2185	0.075	246437	keystroke	e	n/a
123.3235	0.075	246647	keystroke	m	n/a
124.5385	0.075	249077	keystroke	Key.backspace	n/a
124.6735	0.075	249347	keystroke	Key.backspace	n/a
124.9285	0.075	249857	keystroke	m	n/a
124.9885	0.075	249977	keystroke	e	n/a
125.1235	0.075	250247	keystroke	n	n/a
125.1835	0.06	250367	keystroke	t	n/a
125.3635	0.09	250727	keystroke	s	n/a
125.4385	0.075	250877	keystroke	Key.space	n/a
125.753	0.06	251506	keystroke	e	n/a
126.068	0.06	252136	keystroke	Key.backspace	n/a
126.294	0.045	252588	keystroke	b	n/a
126.369	0.09	252738	keystroke	e	n/a
126.459	0.06	252918	keystroke	i	n/a
126.579	0.075	253158	keystroke	n	n/a
126.609	0.075	253218	keystroke	g	n/a
126.789	0.06	253578	keystroke	s	n/a
126.864	0.0895	253728	keystroke	Key.space	n/a
126.9685	0.06	253937	keystroke	s	n/a
127.1335	0.06	254267	keystroke	t	n/a
127.2835	0.12	254567	keystroke	e	n/a
127.3585	0.165	254717	keystroke	w	n/a
127.5535	0.1205	255107	keystroke	a	n/a
127.6585	0.075	255317	keystroke	r	n/a
128.0935	0.015	256187	keystroke	t	n/a
128.3335	0.075	256667	keystroke	Key.enter	n/a
128.4135	5.4715	256827	prompt	n/a	some collection southwest supervision\n
129.0535	0.1195	258107	keystroke	s	n/a
129.1135	0.0745	258227	keystroke	o	n/a
129.263	0.075	258526	keystroke	m	n/a
129.353	0.0605	258706	keystroke	e	n/a
129.4285	0.105	258857	keystroke	Key.space	n/a
129.5485	0.075	259097	keystroke	c	n/a
129.6085	0.06	259217	keystroke	o	n/a
129.7585	0.045	259517	keystroke	l	n/a
129.8785	0.06	259757	keystroke	l	n/a
129.9535	0.1505	259907	keystroke	e	n/a
130.0285	0.1055	260057	keystroke	c	n/a
130.284	0.075	260568	keystroke	t	n/a
130.374	0.105	260748	keystroke	o	n/a
130.809	0.06	261618	keystroke	Key.backspace	n/a
131.049	0.135	262098	keystroke	i	n/a
131.168	0.061	262336	keystroke	o	n/a
131.319	0.074	262638	keystroke	n	n/a
131.394	0.164	262788	keystroke	Key.space	n/a
131.483	0.06	262966	keystroke	s	n/a
131.603	0.136	263206	keystroke	o	n/a
131.663	0.106	263326	keystroke	u	n/a
131.784	0.06	263568	keystroke	t	n/a
131.874	0.06	263748	keystroke	h	n/a
131.994	0.09	263988	keystroke	w	n/a
132.039	0.075	264078	keystroke	e	n/a
132.234	0.075	264468	keystroke	s	n/a
132.429	0.045	264858	keystroke	t	n/a
132.474	0.09	264948	keystroke	Key.space	n/a
132.594	0.075	265188	keystroke	s	n/a
132.654	0.075	265308	keystroke	u	n/a
132.789	0.134	265578	keystroke	p	n/a
132.864	0.044	265728	keystroke	e	n/a
132.878	0.09	265756	keystroke	r	n/a
133.208	0.06	266416	keystroke	v	n/a
133.253	0.03	266506	keystroke	i	n/a
133.358	0.075	266716	keystroke	s	n/a
133.388	0.135	266776	keystroke	i	n/a
133.508	0.09	267016	keystroke	o	n/a
133.673	0.075	267346	keystroke	n	n/a
133.778	0.105	267556	keystroke	Key.enter	n/a
133.8875	6.2525	267775	prompt	n/a	spouse specific peterson camcorders\n
134.454	0.06	268908	keystroke	s	n/a
134.634	0.075	269268	keystroke	p	n/a
134.829	0.1345	269658	keystroke	o	n/a
134.9785	0.09	269957	keystroke	u	n/a
135.0985	0.075	270197	keystroke	s	n/a
135.2485	0.06	270497	keystroke	e	n/a
135.3235	0.105	270647	keystroke	Key.space	n/a
135.4435	0.075	270887	keystroke	s	n/a
135.5195	0.104	271039	keystroke	p	n/a
135.6085	0.105	271217	keystroke	e	n/a
135.9085	0.105	271817	keystroke	c	n/a
136.0285	0.075	272057	keystroke	i	n/a
136.1335	0.075	272267	keystroke	f	n/a
136.2235	0.045	272447	keystroke	i	n/a
136.3135	0.105	272627	keystroke	c	n/a
136.4335	0.075	272867	keystroke	Key.space	n/a
136.8385	0.1205	273677	keystroke	p	n/a
137.589	0.015	275178	keystroke	e	n/a
137.648	0.075	275296	keystroke	t	n/a
137.814	0.075	275628	keystroke	e	n/a
137.858	0.076	275716	keystroke	r	n/a
138.038	0.09	276076	keystroke	s	n/a
138.098	0.045	276196	keystroke	o	n/a
138.2335	0.09	276467	keystroke	n	n/a
138.2935	0.105	276587	keystroke	Key.space	n/a
138.4885	0.105	276977	keystroke	c	n/a
138.5785	0.09	277157	keystroke	a	n/a
138.6535	0.06	277307	keystroke	m	n/a
138.8485	0.075	277697	keystroke	c	n/a
138.9385	0.09	277877	keystroke	o	n/a
139.0585	0.045	278117	keystroke	r	n/a
139.4485	0.075	278897	keystroke	d	n/a
139.643	0.075	279286	keystroke	e	n/a
139.688	0.09	279376	keystroke	r	n/a
139.883	0.075	279766	keystroke	s	n/a
140.063	0.075	280126	keystroke	Key.enter	n/a
140.143	5.067	280286	prompt	n/a	daisy stands wizard sheffield\n
140.798	0.09	281596	keystroke	d	n/a
140.963	0.06	281926	keystroke	a	n/a
141.068	0.075	282136	keystroke	i	n/a
141.173	0.075	282346	keystroke	s	n/a
141.278	0.09	282556	keystroke	y	n/a
141.323	0.09	282646	keystroke	Key.space	n/a
141.488	0.075	282976	keystroke	s	n/a
141.683	0.076	283366	keystroke	t	n/a
141.743	0.09	283486	keystroke	a	n/a
141.848	0.06	283696	keystroke	n	n/a
141.953	0.12	283906	keystroke	d	n/a
142.028	0.105	284056	keystroke	s	n/a
142.148	0.105	284296	keystroke	Key.space	n/a
142.298	0.09	284596	keystroke	w	n/a
142.463	0.12	284926	keystroke	i	n/a
142.598	0.06	285196	keystroke	z	n/a
142.778	0.075	285556	keystroke	e	n/a
143.423	0.135	286846	keystroke	Key.backspace	n/a
143.5735	0.105	287147	keystroke	a	n/a
143.6485	0.075	287297	keystroke	r	n/a
143.8435	0.06	287687	keystroke	d	n/a
143.9335	0.09	287867	keystroke	Key.space	n/a
144.0535	0.0905	288107	keystroke	s	n/a
144.173	0.075	288346	keystroke	h	n/a
144.278	0.06	288556	keystroke	e	n/a
144.488	0.045	288976	keystroke	f	n/a
144.624	0.045	289248	keystroke	f	n/a
144.653	0.106	289306	keystroke	i	n/a
144.773	0.046	289546	keystroke	e	n/a
144.863	0.076	289726	keystroke	l	n/a
144.953	0.0755	289906	keystroke	d	n/a
145.118	0.09	290236	keystroke	Key.enter	n/a
145.216	5.2745	290432	prompt	n/a	planner prefix should've notes\n
145.779	0.075	291558	keystroke	p	n/a
145.973	0.06	291946	keystroke	l	n/a
146.064	0.09	292128	keystroke	a	n/a
146.169	0.03	292338	keystroke	n	n/a
146.274	0.06	292548	keystroke	n	n/a
146.334	0.1045	292668	keystroke	e	n/a
146.4085	0.09	292817	keystroke	r	n/a
146.4835	0.12	292967	keystroke	Key.space	n/a
146.5885	0.105	293177	keystroke	p	n/a
146.6785	0.105	293357	keystroke	r	n/a
146.7535	0.09	293507	keystroke	e	n/a
147.054	0.09	294108	keystroke	f	n/a
147.204	0.09	294408	keystroke	i	n/a
147.504	0.075	295008	keystroke	x	n/a
147.759	0.12	295518	keystroke	Key.space	n/a
147.939	0.09	295878	keystroke	s	n/a
148.074	0.0895	296148	keystroke	h	n/a
148.1785	0.165	296357	keystroke	o	n/a
148.2985	0.075	296597	keystroke	u	n/a
149.048	0.016	298096	keystroke	l	n/a
149.079	0.135	298158	keystroke	d	n/a
149.319	0.03	298638	keystroke	'	n/a
149.484	0.105	298968	keystroke	v	n/a
149.529	0.15	299058	keystroke	e	n/a
149.618	0.136	299236	keystroke	Key.space	n/a
149.769	0.075	299538	keystroke	n	n/a
149.799	0.135	299598	keystroke	o	n/a
149.874	0.21	299748	keystroke	t	n/a
150.039	0.105	300078	keystroke	e	n/a
150.309	0.06	300618	keystroke	s	n/a
150.429	0.0595	300858	keystroke	Key.enter	n/a
150.4945	5.1855	300989	prompt	n/a	scales mines aspect eclipse\n
151.1485	0.075	302297	keystroke	s	n/a
151.2985	0.105	302597	keystroke	c	n/a
151.3735	0.105	302747	keystroke	a	n/a
151.5085	0.1195	303017	keystroke	l	n/a
151.5835	0.09	303167	keystroke	e	n/a
151.7635	0.0905	303527	keystroke	s	n/a
151.839	0.105	303678	keystroke	Key.space	n/a
151.914	0.075	303828	keystroke	m	n/a
152.079	0.06	304158	keystroke	i	n/a
152.244	0.06	304488	keystroke	n	n/a
152.319	0.03	304638	keystroke	e	n/a
152.469	0.1045	304938	keystroke	s	n/a
152.5585	0.09	305117	keystroke	Key.space	n/a
152.7385	0.06	305477	keystroke	a	n/a
152.9035	0.0755	305807	keystroke	s	n/a
152.9635	0.1205	305927	keystroke	p	n/a
153.0685	0.06	306137	keystroke	e	n/a
153.2635	0.09	306527	keystroke	c	n/a
153.549	0.1045	307098	keystroke	t	n/a
153.6685	0.075	307337	keystroke	Key.space	n/a
153.7135	0.06	307427	keystroke	e	n/a
154.2235	0.075	308447	keystroke	c	n/a
154.3735	0.06	308747	keystroke	l	n/a
155.1085	0.105	310217	keystroke	i	n/a
155.1835	0.12	310367	keystroke	p	n/a
155.3335	0.06	310667	keystroke	s	n/a
155.4535	0.09	310907	keystroke	e	n/a
155.5735	0.1045	311147	keystroke	Key.enter	n/a
155.6835	7.6465	311367	prompt	n/a	sociology freight printing aluminum\n
156.2785	0.075	312557	keystroke	s	n/a
156.4285	0.1205	312857	keystroke	o	n/a
156.6235	0.06	313247	keystroke	c	n/a
156.7135	0.075	313427	keystroke	i	n/a
156.9235	0.06	313847	keystroke	o	n/a
157.0735	0.06	314147	keystroke	i	n/a
157.9735	0.075	315947	keystroke	Key.backspace	n/a
158.8885	0.03	317777	keystroke	l	n/a
159.0235	0.075	318047	keystroke	o	n/a
159.2035	0.06	318407	keystroke	g	n/a
159.2785	0.075	318557	keystroke	y	n/a
159.3235	0.105	318647	keystroke	Key.space	n/a
159.4735	0.06	318947	keystroke	f	n/a
159.6685	0.075	319337	keystroke	r	n/a
159.7135	0.105	319427	keystroke	e	n/a
159.8635	0.075	319727	keystroke	i	n/a
159.9535	0.06	319907	keystroke	g	n/a
160.029	0.075	320058	keystroke	h	n/a
160.119	0.075	320238	keystroke	t	n/a
160.194	0.105	320388	keystroke	Key.space	n/a
160.239	0.105	320478	keystroke	p	n/a
160.344	0.105	320688	keystroke	r	n/a
160.434	0.06	320868	keystroke	i	n/a
160.569	0.045	321138	keystroke	n	n/a
160.629	0.09	321258	keystroke	t	n/a
160.734	0.03	321468	keystroke	i	n/a
160.839	0.0595	321678	keystroke	n	n/a
160.8835	0.09	321767	keystroke	g	n/a
160.9885	0.075	321977	keystroke	Key.space	n/a
161.0485	0.135	322097	keystroke	a	n/a
161.1385	0.09	322277	keystroke	l	n/a
161.2585	0.09	322517	keystroke	b	n/a
161.993	0.06	323986	keystroke	Key.backspace	n/a
162.218	0.06	324436	keystroke	u	n/a
162.413	0.075	324826	keystroke	m	n/a
162.593	0.045	325186	keystroke	i	n/a
162.713	0.0905	325426	keystroke	n	n/a
162.9235	0.045	325847	keystroke	u	n/a
163.0885	0.105	326177	keystroke	m	n/a
163.2235	0.105	326447	keystroke	Key.enter	n/a
163.333	6.657	326666	prompt	n/a	angle compression toshiba instruction\n
164.004	0.09	328008	keystroke	a	n/a
164.0485	0.075	328097	keystroke	n	n/a
164.1685	0.0905	328337	keystroke	g	n/a
164.229	0.09	328458	keystroke	l	n/a
164.304	0.09	328608	keystroke	e	n/a
164.378	0.106	328756	keystroke	Key.space	n/a
164.514	0.105	329028	keystroke	c	n/a
164.604	0.075	329208	keystroke	o	n/a
164.874	0.045	329748	keystroke	p	n/a
165.279	0.075	330558	keystroke	Key.backspace	n/a
165.489	0.045	330978	keystroke	m	n/a
165.9085	0.075	331817	keystroke	p	n/a
166.0735	0.12	332147	keystroke	r	n/a
166.1485	0.075	332297	keystroke	e	n/a
166.3585	0.045	332717	keystroke	s	n/a
166.5085	0.075	333017	keystroke	s	n/a
166.5535	0.075	333107	keystroke	i	n/a
166.5985	0.09	333197	keystroke	o	n/a
166.7635	0.09	333527	keystroke	n	n/a
166.8235	0.105	333647	keystroke	Key.space	n/a
166.9585	0.105	333917	keystroke	t	n/a
167.0485	0.105	334097	keystroke	o	n/a
167.1835	0.075	334367	keystroke	s	n/a
167.3035	0.09	334607	keystroke	h	n/a
167.7985	0.06	335597	keystroke	i	n/a
167.9335	0.075	335867	keystroke	b	n/a
168.0235	0.12	336047	keystroke	a	n/a
168.0985	0.12	336197	keystroke	Key.space	n/a
168.1885	0.045	336377	keystroke	i	n/a
168.3235	0.06	336647	keystroke	n	n/a
168.3985	0.045	336797	keystroke	s	n/a
168.5335	0.075	337067	keystroke	t	n/a
168.7135	0.045	337427	keystroke	r	n/a
168.7735	0.075	337547	keystroke	u	n/a
169.2385	0.06	338477	keystroke	c	n/a
169.4935	0.1055	338987	keystroke	t	n/a
169.569	0.105	339138	keystroke	i	n/a
169.629	0.0895	339258	keystroke	o	n/a
169.7785	0.06	339557	keystroke	n	n/a
169.8985	0.09	339797	keystroke	Key.enter	n/a
169.9935	5.2015	339987	prompt	n/a	subscription declared picks hostel\n
170.5735	0.09	341147	keystroke	s	n/a
170.6645	0.089	341329	keystroke	u	n/a
170.8285	0.06	341657	keystroke	b	n/a
171.1585	0.09	342317	keystroke	s	n/a
171.2785	0.09	342557	keystroke	c	n/a
171.5035	0.06	343007	keystroke	r	n/a
171.9235	0.06	343847	keystroke	i	n/a
172.1035	0.09	344207	keystroke	p	n/a
172.6285	0.045	345257	keystroke	t	n/a
172.6885	0.105	345377	keystroke	i	n/a
172.7635	0.075	345527	keystroke	o	n/a
172.943	0.09	345886	keystroke	n	n/a
173.003	0.09	346006	keystroke	Key.space	n/a
173.168	0.075	346336	keystroke	d	n/a
173.3335	0.06	346667	keystroke	e	n/a
173.513	0.0755	347026	keystroke	c	n/a
173.5735	0.0905	347147	keystroke	l	n/a
173.679	0.09	347358	keystroke	a	n/a
173.724	0.135	347448	keystroke	r	n/a
173.814	0.06	347628	keystroke	e	n/a
173.964	0.09	347928	keystroke	d	n/a
174.009	0.12	348018	keystroke	Key.space	n/a
174.099	0.09	348198	keystroke	p	n/a
174.144	0.0895	348288	keystroke	i	n/a
174.2345	0.044	348469	keystroke	c	n/a
174.3235	0.075	348647	keystroke	k	n/a
174.4135	0.09	348827	keystroke	s	n/a
174.4735	0.165	348947	keystroke	Key.space	n/a
174.5335	0.12	349067	keystroke	h	n/a
174.5935	0.12	349187	keystroke	o	n/a
174.6685	0.06	349337	keystroke	s	n/a
174.8335	0.0605	349667	keystroke	t	n/a
174.969	0.0595	349938	keystroke	e	n/a
175.014	0.0445	350028	keystroke	l	n/a
175.1335	0.06	350267	keystroke	Key.enter	n/a
175.198	4.677	350396	prompt	n/a	archive second hockey bought\n
175.7935	0.09	351587	keystroke	a	n/a
175.9135	0.09	351827	keystroke	r	n/a
176.184	0.075	352368	keystroke	c	n/a
176.274	0.09	352548	keystroke	h	n/a
176.3935	0.075	352787	keystroke	i	n/a
176.4985	0.12	352997	keystroke	v	n/a
176.5735	0.105	353147	keystroke	e	n/a
176.6485	0.105	353297	keystroke	Key.space	n/a
176.8135	0.045	353627	keystroke	s	n/a
177.084	0.105	354168	keystroke	c	n/a
177.579	0.0445	355158	keystroke	Key.backspace	n/a
177.6385	0.09	355277	keystroke	e	n/a
177.7885	0.105	355577	keystroke	c	n/a
177.8785	0.06	355757	keystroke	o	n/a
177.9985	0.06	355997	keystroke	n	n/a
178.0435	0.105	356087	keystroke	d	n/a
178.1335	0.09	356267	keystroke	Key.space	n/a
178.2085	0.09	356417	keystroke	h	n/a
178.3885	0.09	356777	keystroke	o	n/a
178.5685	0.03	357137	keystroke	c	n/a
178.6135	0.06	357227	keystroke	k	n/a
178.7485	0.075	357497	keystroke	e	n/a
178.8535	0.0745	357707	keystroke	y	n/a
178.898	0.075	357796	keystroke	Key.space	n/a
179.2735	0.045	358547	keystroke	b	n/a
179.4385	0.105	358877	keystroke	o	n/a
179.4985	0.075	358997	keystroke	u	n/a
179.5585	0.075	359117	keystroke	g	n/a
179.6635	0.045	359327	keystroke	h	n/a
179.7235	0.1055	359447	keystroke	t	n/a
179.7835	0.0895	359567	keystroke	Key.enter	n/a
179.8795	6.5355	359759	prompt	n/a	introducing forever deluxe supplies\n
180.443	0.061	360886	keystroke	i	n/a
180.609	0.059	361218	keystroke	n	n/a
180.624	0.075	361248	keystroke	t	n/a
180.774	0.059	361548	keystroke	r	n/a
180.848	0.076	361696	keystroke	o	n/a
180.984	0.0295	361968	keystroke	d	n/a
181.0285	0.075	362057	keystroke	u	n/a
181.1185	0.075	362237	keystroke	c	n/a
181.2085	0.045	362417	keystroke	i	n/a
181.3135	0.06	362627	keystroke	n	n/a
181.4185	0.045	362837	keystroke	g	n/a
181.5685	0.12	363137	keystroke	Key.space	n/a
181.854	0.06	363708	keystroke	f	n/a
181.869	0.09	363738	keystroke	o	n/a
181.973	0.106	363946	keystroke	r	n/a
182.064	0.09	364128	keystroke	e	n/a
182.244	0.075	364488	keystroke	v	n/a
182.4385	0.045	364877	keystroke	e	n/a
182.4685	0.105	364937	keystroke	r	n/a
182.6935	0.075	365387	keystroke	Key.space	n/a
182.8285	0.1055	365657	keystroke	d	n/a
183.039	0.074	366078	keystroke	e	n/a
183.129	0.059	366258	keystroke	l	n/a
183.4135	0.09	366827	keystroke	u	n/a
184.2985	0.09	368597	keystroke	z	n/a
184.718	0.075	369436	keystroke	Key.backspace	n/a
184.838	0.106	369676	keystroke	x	n/a
185.0785	0.09	370157	keystroke	e	n/a
185.1835	0.075	370367	keystroke	Key.space	n/a
185.2735	0.0595	370547	keystroke	s	n/a
185.318	0.06	370636	keystroke	u	n/a
185.484	0.075	370968	keystroke	p	n/a
185.619	0.06	371238	keystroke	p	n/a
185.769	0.06	371538	keystroke	l	n/a
185.948	0.091	371896	keystroke	i	n/a
185.994	0.045	371988	keystroke	e	n/a
186.174	0.075	372348	keystroke	s	n/a
186.324	0.0895	372648	keystroke	Key.enter	n/a
186.4185	5.7115	372837	prompt	n/a	cemetery added reservation ability\n
187.403	0.105	374806	keystroke	c	n/a
187.463	0.09	374926	keystroke	e	n/a
187.614	0.044	375228	keystroke	m	n/a
187.674	0.075	375348	keystroke	e	n/a
187.839	0.045	375678	keystroke	t	n/a
187.9585	0.06	375917	keystroke	e	n/a
188.0035	0.06	376007	keystroke	r	n/a
188.0485	0.06	376097	keystroke	y	n/a
188.8585	0.1045	377717	keystroke	Key.space	n/a
188.979	0.075	377958	keystroke	a	n/a
189.159	0.045	378318	keystroke	d	n/a
189.279	0.075	378558	keystroke	d	n/a
189.444	0.06	378888	keystroke	e	n/a
189.579	0.09	379158	keystroke	d	n/a
189.669	0.0895	379338	keystroke	Key.space	n/a
189.7735	0.1345	379547	keystroke	r	n/a
189.863	0.091	379726	keystroke	e	n/a
190.028	0.06	380056	keystroke	s	n/a
190.134	0.09	380268	keystroke	e	n/a
190.208	0.06	380416	keystroke	r	n/a
190.389	0.074	380778	keystroke	v	n/a
190.569	0.0895	381138	keystroke	a	n/a
190.7035	0.09	381407	keystroke	t	n/a
190.7635	0.105	381527	keystroke	i	n/a
190.8085	0.09	381617	keystroke	o	n/a
190.9885	0.0905	381977	keystroke	n	n/a
191.064	0.09	382128	keystroke	Key.space	n/a
191.139	0.075	382278	keystroke	a	n/a
191.214	0.06	382428	keystroke	b	n/a
191.3785	0.075	382757	keystroke	i	n/a
191.5585	0.075	383117	keystroke	l	n/a
191.7385	0.0745	383477	keystroke	i	n/a
191.829	0.09	383658	keystroke	t	n/a
191.904	0.074	383808	keystroke	y	n/a
192.008	0.12	384016	keystroke	Key.enter	n/a
192.1325	5.398	384265	prompt	n/a	mazda calculate focusing expansion\n
192.849	0.074	385698	keystroke	m	n/a
192.968	0.015	385936	keystroke	a	n/a
193.148	0.09	386296	keystroke	z	n/a
193.463	0.12	386926	keystroke	d	n/a
193.523	0.106	387046	keystroke	a	n/a
193.643	0.105	387286	keystroke	Key.space	n/a
193.868	0.09	387736	keystroke	c	n/a
193.928	0.105	387856	keystroke	a	n/a
193.988	0.076	387976	keystroke	l	n/a
194.603	0.0905	389206	keystroke	c	n/a
194.6785	0.045	389357	keystroke	u	n/a
194.8435	0.09	389687	keystroke	l	n/a
194.9485	0.105	389897	keystroke	a	n/a
195.0085	0.105	390017	keystroke	t	n/a
195.1435	0.06	390287	keystroke	e	n/a
195.2185	0.1205	390437	keystroke	Key.space	n/a
195.3235	0.06	390647	keystroke	f	n/a
195.3835	0.075	390767	keystroke	o	n/a
195.5485	0.09	391097	keystroke	c	n/a
195.6085	0.09	391217	keystroke	u	n/a
195.7285	0.09	391457	keystroke	s	n/a
195.7885	0.06	391577	keystroke	i	n/a
195.9085	0.06	391817	keystroke	n	n/a
195.9535	0.075	391907	keystroke	g	n/a
196.0435	0.105	392087	keystroke	Key.space	n/a
196.1335	0.045	392267	keystroke	e	n/a
196.3585	0.09	392717	keystroke	x	n/a
196.5685	0.09	393137	keystroke	p	n/a
196.6735	0.075	393347	keystroke	a	n/a
196.7635	0.06	393527	keystroke	n	n/a
196.9435	0.105	393887	keystroke	s	n/a
197.1085	0.12	394217	keystroke	i	n/a
197.1685	0.09	394337	keystroke	o	n/a
197.3335	0.06	394667	keystroke	n	n/a
197.4385	0.09	394877	keystroke	Key.enter	n/a
197.5355	3.565	395071	prompt	n/a	business blake fred provide\n
198.1585	0.045	396317	keystroke	b	n/a
198.324	0.075	396648	keystroke	u	n/a
198.429	0.075	396858	keystroke	s	n/a
198.489	0.06	396978	keystroke	i	n/a
198.624	0.075	397248	keystroke	n	n/a
198.669	0.045	397338	keystroke	e	n/a
198.849	0.0445	397698	keystroke	s	n/a
198.9985	0.075	397997	keystroke	s	n/a
199.0435	0.075	398087	keystroke	Key.space	n/a
199.1485	0.06	398297	keystroke	b	n/a
199.3435	0.045	398687	keystroke	l	n/a
199.4035	0.075	398807	keystroke	a	n/a
199.5235	0.0305	399047	keystroke	k	n/a
199.5685	0.03	399137	keystroke	e	n/a
199.6435	0.105	399287	keystroke	Key.space	n/a
199.7335	0.06	399467	keystroke	f	n/a
199.8985	0.09	399797	keystroke	r	n/a
199.9435	0.075	399887	keystroke	e	n/a
200.1085	0.09	400217	keystroke	d	n/a
200.1835	0.09	400367	keystroke	Key.space	n/a
200.2435	0.075	400487	keystroke	p	n/a
200.3635	0.03	400727	keystroke	r	n/a
200.4085	0.06	400817	keystroke	o	n/a
200.5135	0.09	401027	keystroke	v	n/a
200.6185	0.06	401237	keystroke	i	n/a
200.739	0.06	401478	keystroke	d	n/a
200.934	0.075	401868	keystroke	e	n/a
201.024	0.074	402048	keystroke	Key.enter	n/a
201.103	5.5625	402206	prompt	n/a	sleeps suddenly temporarily black\n
201.834	0.075	403668	keystroke	s	n/a
201.924	0.09	403848	keystroke	l	n/a
201.999	0.06	403998	keystroke	e	n/a
202.149	0.06	404298	keystroke	e	n/a
202.194	0.105	404388	keystroke	p	n/a
202.329	0.074	404658	keystroke	s	n/a
202.389	0.074	404778	keystroke	Key.space	n/a
202.494	0.075	404988	keystroke	s	n/a
202.554	0.075	405108	keystroke	u	n/a
202.674	0.21	405348	keystroke	d	n/a
203.0635	0.09	406127	keystroke	d	n/a
203.3485	0.09	406697	keystroke	e	n/a
203.8585	0.045	407717	keystroke	n	n/a
204.0535	0.0455	408107	keystroke	l	n/a
204.234	0.09	408468	keystroke	y	n/a
204.293	0.0905	408586	keystroke	Key.space	n/a
204.3995	0.0735	408799	keystroke	t	n/a
204.548	0.09	409096	keystroke	e	n/a
204.6845	0.0295	409369	keystroke	m	n/a
204.863	0.0765	409726	keystroke	p	n/a
205.0135	0.075	410027	keystroke	o	n/a
205.1045	0.104	410209	keystroke	r	n/a
205.1945	0.104	410389	keystroke	a	n/a
205.3135	0.061	410627	keystroke	r	n/a
205.4185	0.075	410837	keystroke	i	n/a
205.6445	0.044	411289	keystroke	l	n/a
205.8535	0.076	411707	keystroke	y	n/a
205.9135	0.075	411827	keystroke	Key.space	n/a
206.0785	0.031	412157	keystroke	b	n/a
206.2295	0.09	412459	keystroke	l	n/a
206.3335	0.0905	412667	keystroke	a	n/a
206.3635	0.1355	412727	keystroke	c	n/a
206.454	0.075	412908	keystroke	k	n/a
206.574	0.09	413148	keystroke	Key.enter	n/a
206.6705	3.91	413341	prompt	n/a	monday micro seating writing\n
207.414	0.06	414828	keystroke	m	n/a
207.579	0.06	415158	keystroke	o	n/a
207.834	0.06	415668	keystroke	n	n/a
207.954	0.09	415908	keystroke	d	n/a
208.029	0.09	416058	keystroke	a	n/a
208.134	0.06	416268	keystroke	y	n/a
208.149	0.09	416298	keystroke	Key.space	n/a
208.359	0.075	416718	keystroke	m	n/a
208.539	0.09	417078	keystroke	i	n/a
208.584	0.09	417168	keystroke	c	n/a
208.809	0.1045	417618	keystroke	r	n/a
208.869	0.0895	417738	keystroke	o	n/a
208.9435	0.09	417887	keystroke	Key.space	n/a
209.0785	0.06	418157	keystroke	s	n/a
209.2885	0.105	418577	keystroke	e	n/a
209.3785	0.075	418757	keystroke	a	n/a
209.5135	0.09	419027	keystroke	t	n/a
209.5435	0.045	419087	keystroke	i	n/a
209.6785	0.075	419357	keystroke	n	n/a
209.7385	0.075	419477	keystroke	g	n/a
209.8285	0.105	419657	keystroke	Key.space	n/a
209.9035	0.09	419807	keystroke	w	n/a
209.9785	0.09	419957	keystroke	r	n/a
210.0535	0.075	420107	keystroke	i	n/a
210.1435	0.12	420287	keystroke	t	n/a
210.2035	0.075	420407	keystroke	i	n/a
210.3235	0.075	420647	keystroke	n	n/a
210.3685	0.1055	420737	keystroke	g	n/a
210.504	0.075	421008	keystroke	Key.enter	n/a
210.583	4.9025	421166	prompt	n/a	painted mines acer potential\n
211.239	0.075	422478	keystroke	p	n/a
211.314	0.09	422628	keystroke	a	n/a
211.419	0.045	422838	keystroke	i	n/a
211.539	0.075	423078	keystroke	n	n/a
211.554	0.105	423108	keystroke	t	n/a
212.0185	0.06	424037	keystroke	e	n/a
212.1835	0.09	424367	keystroke	d	n/a
212.2435	0.105	424487	keystroke	Key.space	n/a
212.3785	0.075	424757	keystroke	m	n/a
212.5585	0.06	425117	keystroke	i	n/a
212.6935	0.075	425387	keystroke	n	n/a
212.7385	0.06	425477	keystroke	e	n/a
212.889	0.104	425778	keystroke	s	n/a
213.0085	0.09	426017	keystroke	Key.space	n/a
213.114	0.105	426228	keystroke	a	n/a
213.1735	0.09	426347	keystroke	c	n/a
213.398	0.0755	426796	keystroke	e	n/a
213.459	0.074	426918	keystroke	r	n/a
213.593	0.091	427186	keystroke	Key.space	n/a
213.744	0.06	427488	keystroke	p	n/a
213.984	0.075	427968	keystroke	o	n/a
214.179	0.06	428358	keystroke	t	n/a
214.8085	0.105	429617	keystroke	e	n/a
214.8835	0.09	429767	keystroke	n	n/a
215.0185	0.075	430037	keystroke	t	n/a
215.0785	0.075	430157	keystroke	i	n/a
215.1835	0.09	430367	keystroke	a	n/a
215.2885	0.045	430577	keystroke	l	n/a
215.3785	0.105	430757	keystroke	Key.enter	n/a
215.4885	4.7815	430977	prompt	n/a	peru referred cove appear\n
216.159	0.075	432318	keystroke	e	n/a
216.279	0.045	432558	keystroke	r	n/a
216.699	0.075	433398	keystroke	Key.backspace	n/a
216.834	0.0745	433668	keystroke	Key.backspace	n/a
217.0735	0.075	434147	keystroke	p	n/a
217.2085	0.0605	434417	keystroke	e	n/a
217.2385	0.0905	434477	keystroke	r	n/a
217.374	0.09	434748	keystroke	u	n/a
217.4485	0.075	434897	keystroke	Key.space	n/a
217.5085	0.12	435017	keystroke	r	n/a
217.599	0.0745	435198	keystroke	e	n/a
217.7335	0.09	435467	keystroke	f	n/a
217.9135	0.06	435827	keystroke	e	n/a
218.0185	0.06	436037	keystroke	r	n/a
218.1685	0.105	436337	keystroke	r	n/a
218.2585	0.105	436517	keystroke	e	n/a
218.439	0.09	436878	keystroke	d	n/a
218.514	0.09	437028	keystroke	Key.space	n/a
218.604	0.09	437208	keystroke	c	n/a
218.709	0.09	437418	keystroke	o	n/a
218.814	0.06	437628	keystroke	v	n/a
219.039	0.12	438078	keystroke	e	n/a
219.549	0.06	439098	keystroke	Key.space	n/a
219.699	0.075	439398	keystroke	a	n/a
219.819	0.03	439638	keystroke	p	n/a
219.909	0.105	439818	keystroke	p	n/a
219.954	0.105	439908	keystroke	e	n/a
220.044	0.135	440088	keystroke	a	n/a
220.164	0.06	440328	keystroke	r	n/a
220.194	0.074	440388	keystroke	Key.enter	n/a
220.273	4.633	440546	prompt	n/a	laos assets prospect graduation\n
220.9895	0.119	441979	keystroke	l	n/a
221.1235	0.045	442247	keystroke	a	n/a
221.3485	0.06	442697	keystroke	o	n/a
221.4385	0.09	442877	keystroke	s	n/a
221.5135	0.105	443027	keystroke	Key.space	n/a
221.739	0.06	443478	keystroke	a	n/a
221.9035	0.06	443807	keystroke	s	n/a
222.0385	0.06	444077	keystroke	s	n/a
222.1735	0.12	444347	keystroke	e	n/a
222.3685	0.045	444737	keystroke	t	n/a
222.5185	0.09	445037	keystroke	s	n/a
222.5785	0.12	445157	keystroke	Key.space	n/a
222.6535	0.1055	445307	keystroke	p	n/a
222.774	0.03	445548	keystroke	r	n/a
222.834	0.0895	445668	keystroke	o	n/a
222.9385	0.09	445877	keystroke	s	n/a
223.0295	0.119	446059	keystroke	p	n/a
223.1335	0.075	446267	keystroke	e	n/a
223.3135	0.075	446627	keystroke	c	n/a
223.5085	0.09	447017	keystroke	t	n/a
223.6585	0.06	447317	keystroke	Key.space	n/a
223.7335	0.075	447467	keystroke	g	n/a
223.8835	0.075	447767	keystroke	r	n/a
223.9285	0.09	447857	keystroke	a	n/a
224.1395	0.045	448279	keystroke	d	n/a
224.1695	0.09	448339	keystroke	u	n/a
224.3345	0.09	448669	keystroke	a	n/a
224.4095	0.12	448819	keystroke	t	n/a
224.5135	0.06	449027	keystroke	i	n/a
224.5445	0.0895	449089	keystroke	o	n/a
224.709	0.075	449418	keystroke	n	n/a
224.814	0.09	449628	keystroke	Key.enter	n/a
224.9085	3.597	449817	prompt	n/a	eyes these scale helmet\n
225.579	0.075	451158	keystroke	e	n/a
225.744	0.075	451488	keystroke	y	n/a
225.804	0.075	451608	keystroke	e	n/a
226.089	0.09	452178	keystroke	s	n/a
226.179	0.09	452358	keystroke	Key.space	n/a
226.284	0.105	452568	keystroke	t	n/a
226.374	0.06	452748	keystroke	h	n/a
226.449	0.075	452898	keystroke	e	n/a
226.629	0.0455	453258	keystroke	s	n/a
226.7645	0.0595	453529	keystroke	e	n/a
226.869	0.105	453738	keystroke	Key.space	n/a
226.959	0.09	453918	keystroke	s	n/a
227.109	0.12	454218	keystroke	c	n/a
227.214	0.075	454428	keystroke	a	n/a
227.304	0.045	454608	keystroke	l	n/a
227.394	0.06	454788	keystroke	e	n/a
227.469	0.105	454938	keystroke	Key.space	n/a
227.769	0.075	455538	keystroke	h	n/a
227.889	0.105	455778	keystroke	e	n/a
228.024	0.06	456048	keystroke	l	n/a
228.174	0.045	456348	keystroke	m	n/a
228.234	0.06	456468	keystroke	e	n/a
228.384	0.09	456768	keystroke	t	n/a
228.414	0.09	456828	keystroke	Key.enter	n/a
228.5085	6.312	457017	prompt	n/a	deviation civic philips isn't\n
229.194	0.045	458388	keystroke	d	n/a
229.3435	0.075	458687	keystroke	e	n/a
229.554	0.075	459108	keystroke	v	n/a
229.614	0.105	459228	keystroke	i	n/a
229.764	0.09	459528	keystroke	a	n/a
229.839	0.105	459678	keystroke	t	n/a
229.929	0.09	459858	keystroke	i	n/a
229.989	0.09	459978	keystroke	o	n/a
230.139	0.105	460278	keystroke	n	n/a
230.229	0.09	460458	keystroke	Key.space	n/a
230.394	0.09	460788	keystroke	c	n/a
230.499	0.09	460998	keystroke	i	n/a
230.634	0.075	461268	keystroke	v	n/a
230.694	0.09	461388	keystroke	i	n/a
231.5345	0.074	463069	keystroke	c	n/a
231.6385	0.075	463277	keystroke	Key.space	n/a
231.7735	0.091	463547	keystroke	p	n/a
232.0745	0.06	464149	keystroke	i	n/a
232.629	0.06	465258	keystroke	Key.backspace	n/a
233.004	0.06	466008	keystroke	h	n/a
233.139	0.09	466278	keystroke	i	n/a
233.349	0.06	466698	keystroke	l	n/a
233.544	0.075	467088	keystroke	i	n/a
233.7835	0.015	467567	keystroke	p	n/a
233.8135	0.075	467627	keystroke	s	n/a
233.9485	0.03	467897	keystroke	Key.space	n/a
233.9635	0.06	467927	keystroke	i	n/a
234.0835	0.06	468167	keystroke	s	n/a
234.1585	0.045	468317	keystroke	n	n/a
234.3385	0.03	468677	keystroke	'	n/a
234.4285	0.075	468857	keystroke	t	n/a
234.7135	0.105	469427	keystroke	Key.enter	n/a
234.8235	3.507	469647	prompt	n/a	central party ideas employ\n
235.5085	0.1055	471017	keystroke	c	n/a
235.599	0.105	471198	keystroke	e	n/a
235.674	0.075	471348	keystroke	n	n/a
235.779	0.06	471558	keystroke	t	n/a
235.944	0.045	471888	keystroke	r	n/a
235.959	0.105	471918	keystroke	a	n/a
236.004	0.09	472008	keystroke	l	n/a
236.079	0.105	472158	keystroke	Key.space	n/a
236.199	0.09	472398	keystroke	p	n/a
236.274	0.09	472548	keystroke	a	n/a
236.304	0.105	472608	keystroke	r	n/a
236.484	0.09	472968	keystroke	t	n/a
236.529	0.06	473058	keystroke	y	n/a
236.574	0.075	473148	keystroke	Key.space	n/a
236.694	0.09	473388	keystroke	i	n/a
236.769	0.045	473538	keystroke	d	n/a
236.9185	0.09	473837	keystroke	e	n/a
237.0235	0.075	474047	keystroke	a	n/a
237.1885	0.06	474377	keystroke	s	n/a
237.2635	0.09	474527	keystroke	Key.space	n/a
237.3385	0.105	474677	keystroke	e	n/a
237.4585	0.045	474917	keystroke	m	n/a
237.609	0.0595	475218	keystroke	p	n/a
237.7735	0.075	475547	keystroke	l	n/a
237.9385	0.075	475877	keystroke	o	n/a
238.1335	0.045	476267	keystroke	y	n/a
238.2535	0.075	476507	keystroke	Key.enter	n/a
238.3335	5.532	476667	prompt	n/a	diameter resorts regularly lows\n
239.064	0.045	478128	keystroke	s	n/a
239.3935	0.09	478787	keystroke	Key.backspace	n/a
239.7545	0.074	479509	keystroke	d	n/a
240.0535	0.075	480107	keystroke	i	n/a
240.2485	0.09	480497	keystroke	a	n/a
240.3835	0.075	480767	keystroke	m	n/a
240.5035	0.06	481007	keystroke	e	n/a
240.6385	0.075	481277	keystroke	t	n/a
240.7885	0.06	481577	keystroke	e	n/a
240.8335	0.09	481667	keystroke	r	n/a
240.9385	0.09	481877	keystroke	Key.space	n/a
241.0135	0.12	482027	keystroke	r	n/a
241.0735	0.075	482147	keystroke	e	n/a
241.2245	0.135	482449	keystroke	s	n/a
241.3735	0.075	482747	keystroke	o	n/a
241.4785	0.105	482957	keystroke	r	n/a
241.6595	0.075	483319	keystroke	t	n/a
241.8385	0.09	483677	keystroke	s	n/a
241.9885	0.06	483977	keystroke	Key.space	n/a
242.0935	0.075	484187	keystroke	r	n/a
242.1385	0.075	484277	keystroke	e	n/a
242.3035	0.09	484607	keystroke	g	n/a
242.3335	0.075	484667	keystroke	u	n/a
242.5285	0.105	485057	keystroke	l	n/a
242.6185	0.1205	485237	keystroke	a	n/a
242.6785	0.1055	485357	keystroke	r	n/a
242.814	0.075	485628	keystroke	l	n/a
243.054	0.075	486108	keystroke	y	n/a
243.114	0.075	486228	keystroke	Key.space	n/a
243.339	0.075	486678	keystroke	l	n/a
243.474	0.09	486948	keystroke	o	n/a
243.534	0.075	487068	keystroke	w	n/a
243.7135	0.09	487427	keystroke	s	n/a
243.7735	0.09	487547	keystroke	Key.enter	n/a
243.8685	3.627	487737	prompt	n/a	sunday coated legend november\n
244.4785	0.105	488957	keystroke	s	n/a
244.5385	0.06	489077	keystroke	u	n/a
244.7035	0.045	489407	keystroke	n	n/a
244.7785	0.12	489557	keystroke	d	n/a
244.8385	0.12	489677	keystroke	a	n/a
244.9435	0.075	489887	keystroke	y	n/a
244.9885	0.09	489977	keystroke	Key.space	n/a
245.154	0.09	490308	keystroke	c	n/a
245.214	0.1045	490428	keystroke	o	n/a
245.3335	0.1055	490667	keystroke	a	n/a
245.424	0.1355	490848	keystroke	t	n/a
245.5595	0.06	491119	keystroke	e	n/a
245.7235	0.075	491447	keystroke	d	n/a
245.8135	0.075	491627	keystroke	Key.space	n/a
245.979	0.075	491958	keystroke	l	n/a
246.039	0.075	492078	keystroke	e	n/a
246.159	0.09	492318	keystroke	g	n/a
246.219	0.09	492438	keystroke	e	n/a
246.324	0.06	492648	keystroke	n	n/a
246.414	0.06	492828	keystroke	d	n/a
246.489	0.06	492978	keystroke	Key.space	n/a
246.609	0.045	493218	keystroke	n	n/a
246.7135	0.0905	493427	keystroke	o	n/a
246.789	0.075	493578	keystroke	v	n/a
246.9835	0.09	493967	keystroke	e	n/a
247.0585	0.06	494117	keystroke	m	n/a
247.2085	0.045	494417	keystroke	b	n/a
247.2985	0.06	494597	keystroke	r	n/a
247.3135	0.015	494627	keystroke	e	n/a
247.4035	0.09	494807	keystroke	Key.enter	n/a
247.4985	5.877	494997	prompt	n/a	tomorrow classics projector safety\n
248.5295	0.059	497059	keystroke	t	n/a
248.5745	0.074	497149	keystroke	o	n/a
248.7545	0.044	497509	keystroke	m	n/a
248.8735	0.09	497747	keystroke	o	n/a
248.9485	0.03	497897	keystroke	r	n/a
249.0535	0.0755	498107	keystroke	r	n/a
249.189	0.0745	498378	keystroke	o	n/a
249.3535	0.075	498707	keystroke	w	n/a
249.4585	0.105	498917	keystroke	Key.space	n/a
249.6095	0.075	499219	keystroke	c	n/a
249.6685	0.061	499337	keystroke	l	n/a
249.7445	0.059	499489	keystroke	a	n/a
249.9235	0.03	499847	keystroke	s	n/a
250.0435	0.06	500087	keystroke	s	n/a
250.1185	0.045	500237	keystroke	i	n/a
250.1935	0.09	500387	keystroke	c	n/a
250.2685	0.12	500537	keystroke	s	n/a
250.3285	0.105	500657	keystroke	Key.space	n/a
250.5385	0.06	501077	keystroke	r	n/a
250.974	0.06	501948	keystroke	Key.backspace	n/a
251.244	0.09	502488	keystroke	p	n/a
251.3635	0.075	502727	keystroke	r	n/a
251.4235	0.09	502847	keystroke	o	n/a
251.5885	0.075	503177	keystroke	j	n/a
251.6785	0.075	503357	keystroke	e	n/a
251.874	0.045	503748	keystroke	c	n/a
252.054	0.06	504108	keystroke	t	n/a
252.144	0.075	504288	keystroke	o	n/a
252.219	0.09	504438	keystroke	r	n/a
252.324	0.09	504648	keystroke	Key.space	n/a
252.429	0.075	504858	keystroke	s	n/a
252.594	0.075	505188	keystroke	a	n/a
252.654	0.1045	505308	keystroke	f	n/a
252.8635	0.075	505727	keystroke	e	n/a
253.0135	0.12	506027	keystroke	t	n/a
253.0735	0.09	506147	keystroke	y	n/a
253.2385	0.135	506477	keystroke	Key.enter	n/a
253.378	3.6275	506756	prompt	n/a	remove erik skills course\n
254.1845	0.119	508369	keystroke	r	n/a
254.2745	0.119	508549	keystroke	e	n/a
254.4245	0.075	508849	keystroke	m	n/a
254.6195	0.12	509239	keystroke	o	n/a
254.7245	0.105	509449	keystroke	v	n/a
254.8145	0.059	509629	keystroke	e	n/a
254.8885	0.1055	509777	keystroke	Key.space	n/a
255.009	0.06	510018	keystroke	e	n/a
255.054	0.09	510108	keystroke	r	n/a
255.129	0.06	510258	keystroke	i	n/a
255.309	0.075	510618	keystroke	k	n/a
255.369	0.09	510738	keystroke	Key.space	n/a
255.46	0.074	510920	keystroke	s	n/a
255.519	0.045	511038	keystroke	k	n/a
255.669	0.045	511338	keystroke	i	n/a
255.849	0.015	511698	keystroke	l	n/a
255.924	0.075	511848	keystroke	l	n/a
256.014	0.09	512028	keystroke	s	n/a
256.119	0.1045	512238	keystroke	Key.space	n/a
256.2085	0.105	512417	keystroke	c	n/a
256.2985	0.075	512597	keystroke	o	n/a
256.3435	0.12	512687	keystroke	u	n/a
256.4785	0.06	512957	keystroke	r	n/a
256.6585	0.076	513317	keystroke	s	n/a
256.8085	0.0755	513617	keystroke	e	n/a
256.914	0.09	513828	keystroke	Key.enter	n/a
257.0085	5.577	514017	prompt	n/a	beverages activation modems decline\n
257.814	0.03	515628	keystroke	b	n/a
257.829	0.075	515658	keystroke	e	n/a
258.024	0.06	516048	keystroke	v	n/a
258.189	0.075	516378	keystroke	e	n/a
258.249	0.075	516498	keystroke	r	n/a
258.384	0.09	516768	keystroke	a	n/a
258.459	0.12	516918	keystroke	g	n/a
258.564	0.075	517128	keystroke	e	n/a
258.729	0.075	517458	keystroke	s	n/a
258.804	0.09	517608	keystroke	Key.space	n/a
258.9535	0.075	517907	keystroke	a	n/a
259.5095	0.074	519019	keystroke	c	n/a
259.7335	0.06	519467	keystroke	t	n/a
259.8235	0.075	519647	keystroke	i	n/a
259.9745	0.089	519949	keystroke	v	n/a
260.0335	0.12	520067	keystroke	a	n/a
260.2135	0.105	520427	keystroke	t	n/a
260.2735	0.091	520547	keystroke	i	n/a
260.3485	0.075	520697	keystroke	o	n/a
260.5135	0.105	521027	keystroke	n	n/a
260.6335	0.06	521267	keystroke	Key.space	n/a
260.7535	0.06	521507	keystroke	m	n/a
260.9185	0.09	521837	keystroke	o	n/a
260.9935	0.045	521987	keystroke	d	n/a
261.1435	0.06	522287	keystroke	e	n/a
261.2485	0.045	522497	keystroke	m	n/a
261.3235	0.06	522647	keystroke	s	n/a
261.4285	0.045	522857	keystroke	Key.space	n/a
261.5035	0.06	523007	keystroke	d	n/a
261.6685	0.045	523337	keystroke	e	n/a
261.8335	0.075	523667	keystroke	c	n/a
261.9235	0.06	523847	keystroke	l	n/a
262.1185	0.045	524237	keystroke	i	n/a
262.299	0.03	524598	keystroke	n	n/a
262.359	0.06	524718	keystroke	e	n/a
262.494	0.09	524988	keystroke	Key.enter	n/a
262.5905	8.485	525181	prompt	n/a	curriculum meet highs australian\n
263.2295	0.09	526459	keystroke	c	n/a
264.0545	0.06	528109	keystroke	u	n/a
264.3095	0.06	528619	keystroke	r	n/a
264.4895	0.06	528979	keystroke	r	n/a
264.8945	0.075	529789	keystroke	i	n/a
265.0735	0.075	530147	keystroke	c	n/a
265.1795	0.045	530359	keystroke	u	n/a
265.4035	0.061	530807	keystroke	l	n/a
265.8245	0.06	531649	keystroke	m	n/a
266.439	0.045	532878	keystroke	Key.backspace	n/a
266.679	0.03	533358	keystroke	u	n/a
266.859	0.075	533718	keystroke	m	n/a
267.024	0.09	534048	keystroke	Key.space	n/a
267.099	0.045	534198	keystroke	m	n/a
267.204	0.045	534408	keystroke	e	n/a
267.354	0.06	534708	keystroke	e	n/a
267.609	0.03	535218	keystroke	t	n/a
267.8185	0.06	535637	keystroke	Key.space	n/a
267.999	0.09	535998	keystroke	h	n/a
268.059	0.075	536118	keystroke	i	n/a
268.179	0.045	536358	keystroke	g	n/a
268.239	0.06	536478	keystroke	h	n/a
268.419	0.03	536838	keystroke	s	n/a
268.914	0.09	537828	keystroke	Key.space	n/a
269.019	0.0895	538038	keystroke	a	n/a
269.1835	0.075	538367	keystroke	u	n/a
269.2735	0.09	538547	keystroke	s	n/a
269.6185	0.105	539237	keystroke	r	n/a
270.0085	0.06	540017	keystroke	Key.backspace	n/a
270.1885	0.045	540377	keystroke	t	n/a
270.3385	0.09	540677	keystroke	r	n/a
270.3985	0.09	540797	keystroke	a	n/a
270.4735	0.045	540947	keystroke	l	n/a
270.6385	0.0605	541277	keystroke	i	n/a
270.714	0.0895	541428	keystroke	a	n/a
270.864	0.0145	541728	keystroke	n	n/a
270.969	0.105	541938	keystroke	Key.enter	n/a
271.079	8.6815	542158	prompt	n/a	thinking empirical document wherever\n
271.734	0.105	543468	keystroke	h	n/a
271.824	0.06	543648	keystroke	i	n/a
272.049	0.12	544098	keystroke	n	n/a
272.274	0.12	544548	keystroke	k	n/a
272.8435	0.016	545687	keystroke	Key.backspace	n/a
272.9035	0.045	545807	keystroke	Key.backspace	n/a
273.1285	0.0455	546257	keystroke	Key.backspace	n/a
273.444	0.06	546888	keystroke	Key.backspace	n/a
273.7285	0.09	547457	keystroke	t	n/a
273.8335	0.12	547667	keystroke	h	n/a
273.9085	0.075	547817	keystroke	i	n/a
274.1035	0.105	548207	keystroke	n	n/a
274.1785	0.09	548357	keystroke	k	n/a
274.3885	0.045	548777	keystroke	i	n/a
274.5235	0.06	549047	keystroke	n	n/a
274.5985	0.075	549197	keystroke	g	n/a
274.6885	0.105	549377	keystroke	Key.space	n/a
274.7635	0.045	549527	keystroke	e	n/a
275.004	0.075	550008	keystroke	x	n/a
275.454	0.09	550908	keystroke	Key.backspace	n/a
275.6935	0.06	551387	keystroke	m	n/a
275.919	0.045	551838	keystroke	p	n/a
276.5035	0.06	553007	keystroke	i	n/a
276.6685	0.06	553337	keystroke	r	n/a
276.7435	0.09	553487	keystroke	i	n/a
276.9085	0.135	553817	keystroke	c	n/a
277.0285	0.06	554057	keystroke	a	n/a
277.0895	0.074	554179	keystroke	l	n/a
277.2685	0.09	554537	keystroke	Key.space	n/a
277.3895	0.074	554779	keystroke	d	n/a
277.7485	0.09	555497	keystroke	o	n/a
277.9285	0.075	555857	keystroke	c	n/a
278.0045	0.044	556009	keystroke	u	n/a
278.2135	0.03	556427	keystroke	m	n/a
278.2885	0.105	556577	keystroke	e	n/a
278.3785	0.045	556757	keystroke	n	n/a
278.4835	0.09	556967	keystroke	t	n/a
278.5585	0.1055	557117	keystroke	Key.space	n/a
278.709	0.06	557418	keystroke	w	n/a
278.784	0.06	557568	keystroke	h	n/a
278.859	0.0745	557718	keystroke	e	n/a
278.9185	0.15	557837	keystroke	r	n/a
279.0085	0.105	558017	keystroke	e	n/a
279.2035	0.075	558407	keystroke	v	n/a
279.3985	0.12	558797	keystroke	e	n/a
279.4735	0.075	558947	keystroke	r	n/a
279.6535	0.1055	559307	keystroke	Key.enter	n/a
279.7645	5.021	559529	prompt	n/a	jamie lamb seed nomination\n
280.659	0.075	561318	keystroke	j	n/a
280.809	0.105	561618	keystroke	a	n/a
280.884	0.045	561768	keystroke	m	n/a
281.064	0.06	562128	keystroke	i	n/a
281.139	0.1055	562278	keystroke	e	n/a
281.1845	0.1495	562369	keystroke	Key.space	n/a
281.289	0.09	562578	keystroke	l	n/a
281.38	0.119	562760	keystroke	a	n/a
281.484	0.075	562968	keystroke	m	n/a
281.664	0.0605	563328	keystroke	b	n/a
281.7845	0.104	563569	keystroke	Key.space	n/a
281.9045	0.045	563809	keystroke	s	n/a
282.0835	0.046	564167	keystroke	e	n/a
282.2785	0.091	564557	keystroke	e	n/a
282.5345	0.075	565069	keystroke	d	n/a
282.6395	0.045	565279	keystroke	Key.space	n/a
282.849	0.045	565698	keystroke	n	n/a
283.209	0.045	566418	keystroke	o	n/a
283.704	0.06	567408	keystroke	m	n/a
283.944	0.045	567888	keystroke	i	n/a
284.094	0.03	568188	keystroke	n	n/a
284.199	0.09	568398	keystroke	a	n/a
284.274	0.1045	568548	keystroke	t	n/a
284.3485	0.12	568697	keystroke	i	n/a
284.4085	0.09	568817	keystroke	o	n/a
284.5735	0.045	569147	keystroke	n	n/a
284.6785	0.105	569357	keystroke	Key.enter	n/a
284.7885	4.647	569577	prompt	n/a	highs virgin presenting guam\n
285.3835	0.105	570767	keystroke	h	n/a
285.4735	0.075	570947	keystroke	i	n/a
285.5935	0.075	571187	keystroke	g	n/a
285.6535	0.06	571307	keystroke	h	n/a
285.8335	0.03	571667	keystroke	s	n/a
285.8785	0.105	571757	keystroke	Key.space	n/a
286.1185	0.075	572237	keystroke	v	n/a
286.1945	0.0895	572389	keystroke	i	n/a
286.329	0.06	572658	keystroke	r	n/a
286.494	0.09	572988	keystroke	g	n/a
286.569	0.03	573138	keystroke	i	n/a
286.704	0.075	573408	keystroke	n	n/a
286.794	0.09	573588	keystroke	Key.space	n/a
286.899	0.075	573798	keystroke	p	n/a
286.959	0.12	573918	keystroke	r	n/a
287.364	0.075	574728	keystroke	e	n/a
287.574	0.045	575148	keystroke	s	n/a
287.709	0.09	575418	keystroke	e	n/a
287.814	0.075	575628	keystroke	n	n/a
287.919	0.105	575838	keystroke	t	n/a
288.009	0.06	576018	keystroke	i	n/a
288.1585	0.06	576317	keystroke	n	n/a
288.2195	0.044	576439	keystroke	g	n/a
288.3085	0.09	576617	keystroke	Key.space	n/a
288.3835	0.075	576767	keystroke	g	n/a
288.4885	0.075	576977	keystroke	u	n/a
289.1035	0.075	578207	keystroke	a	n/a
289.1935	0.031	578387	keystroke	m	n/a
289.3585	0.075	578717	keystroke	Key.enter	n/a
289.4385	4.0325	578877	prompt	n/a	rooms inches things contributing\n
290.064	0.06	580128	keystroke	r	n/a
290.139	0.06	580278	keystroke	o	n/a
290.289	0.03	580578	keystroke	o	n/a
290.424	0.06	580848	keystroke	m	n/a
290.529	0.075	581058	keystroke	s	n/a
290.634	0.06	581268	keystroke	Key.space	n/a
290.679	0.06	581358	keystroke	i	n/a
290.814	0.06	581628	keystroke	n	n/a
290.9035	0.06	581807	keystroke	c	n/a
291.0235	0.03	582047	keystroke	h	n/a
291.0835	0.06	582167	keystroke	e	n/a
291.2635	0.045	582527	keystroke	s	n/a
291.3535	0.075	582707	keystroke	Key.space	n/a
291.4435	0.09	582887	keystroke	t	n/a
291.5485	0.075	583097	keystroke	h	n/a
291.5935	0.075	583187	keystroke	i	n/a
291.7435	0.06	583487	keystroke	n	n/a
291.7885	0.075	583577	keystroke	g	n/a
291.9685	0.06	583937	keystroke	s	n/a
292.0435	0.105	584087	keystroke	Key.space	n/a
292.1635	0.09	584327	keystroke	c	n/a
292.2385	0.06	584477	keystroke	o	n/a
292.3585	0.105	584717	keystroke	n	n/a
292.4485	0.06	584897	keystroke	t	n/a
292.5835	0.075	585167	keystroke	r	n/a
292.6735	0.0755	585347	keystroke	i	n/a
292.7795	0.0745	585559	keystroke	b	n/a
292.869	0.09	585738	keystroke	u	n/a
293.004	0.09	586008	keystroke	t	n/a
293.064	0.075	586128	keystroke	i	n/a
293.199	0.075	586398	keystroke	n	n/a
293.259	0.09	586518	keystroke	g	n/a
293.364	0.105	586728	keystroke	Key.enter	n/a
293.4735	2.877	586947	prompt	n/a	tabs hanging high legends\n
294.0535	0.091	588107	keystroke	t	n/a
294.1285	0.106	588257	keystroke	a	n/a
294.2195	0.06	588439	keystroke	b	n/a
294.3395	0.075	588679	keystroke	s	n/a
294.3985	0.075	588797	keystroke	Key.space	n/a
294.5195	0.015	589039	keystroke	h	n/a
294.5645	0.075	589129	keystroke	a	n/a
294.6545	0.06	589309	keystroke	n	n/a
294.7295	0.075	589459	keystroke	g	n/a
294.8195	0.045	589639	keystroke	i	n/a
294.9395	0.0745	589879	keystroke	n	n/a
295.029	0.075	590058	keystroke	g	n/a
295.089	0.105	590178	keystroke	Key.space	n/a
295.134	0.135	590268	keystroke	h	n/a
295.224	0.09	590448	keystroke	i	n/a
295.344	0.075	590688	keystroke	g	n/a
295.404	0.105	590808	keystroke	h	n/a
295.464	0.075	590928	keystroke	Key.space	n/a
295.659	0.09	591318	keystroke	l	n/a
295.719	0.06	591438	keystroke	e	n/a
295.839	0.09	591678	keystroke	g	n/a
295.899	0.075	591798	keystroke	e	n/a
296.004	0.045	592008	keystroke	n	n/a
296.124	0.075	592248	keystroke	d	n/a
296.184	0.105	592368	keystroke	s	n/a
296.274	0.0745	592548	keystroke	Key.enter	n/a
296.353	6.3875	592706	prompt	n/a	blackjack berkeley ribbon explanation\n
297.0845	0.029	594169	keystroke	b	n/a
297.2635	0.075	594527	keystroke	l	n/a
297.4135	0.09	594827	keystroke	a	n/a
297.4285	0.12	594857	keystroke	c	n/a
297.4885	0.076	594977	keystroke	k	n/a
297.6685	0.0605	595337	keystroke	j	n/a
297.744	0.075	595488	keystroke	a	n/a
297.774	0.09	595548	keystroke	c	n/a
297.879	0.03	595758	keystroke	k	n/a
298.074	0.075	596148	keystroke	Key.space	n/a
298.239	0.075	596478	keystroke	b	n/a
298.389	0.075	596778	keystroke	e	n/a
298.554	0.075	597108	keystroke	r	n/a
299.169	0.0745	598338	keystroke	k	n/a
299.3485	0.09	598697	keystroke	e	n/a
299.8435	0.03	599687	keystroke	l	n/a
300.0235	0.075	600047	keystroke	e	n/a
300.1135	0.0905	600227	keystroke	y	n/a
300.1735	0.105	600347	keystroke	Key.space	n/a
300.3085	0.03	600617	keystroke	r	n/a
300.3685	0.0605	600737	keystroke	i	n/a
300.519	0.045	601038	keystroke	b	n/a
300.639	0.045	601278	keystroke	b	n/a
300.804	0.045	601608	keystroke	o	n/a
300.924	0.075	601848	keystroke	n	n/a
300.984	0.09	601968	keystroke	Key.space	n/a
301.4335	0.046	602867	keystroke	e	n/a
301.6745	0.0745	603349	keystroke	x	n/a
301.764	0.06	603528	keystroke	p	n/a
301.914	0.06	603828	keystroke	l	n/a
301.989	0.0745	603978	keystroke	a	n/a
302.0785	0.061	604157	keystroke	n	n/a
302.1835	0.045	604367	keystroke	a	n/a
302.2595	0.104	604519	keystroke	t	n/a
302.3345	0.119	604669	keystroke	i	n/a
302.4095	0.089	604819	keystroke	o	n/a
302.5445	0.06	605089	keystroke	n	n/a
302.6335	0.105	605267	keystroke	Key.enter	n/a
302.743	3.7475	605486	prompt	n/a	thereafter smith guyana showing\n
303.399	0.06	606798	keystroke	t	n/a
303.474	0.06	606948	keystroke	h	n/a
303.519	0.075	607038	keystroke	e	n/a
303.609	0.09	607218	keystroke	r	n/a
303.684	0.09	607368	keystroke	e	n/a
303.804	0.12	607608	keystroke	a	n/a
303.879	0.09	607758	keystroke	f	n/a
304.044	0.075	608088	keystroke	t	n/a
304.179	0.09	608358	keystroke	e	n/a
304.239	0.075	608478	keystroke	r	n/a
304.344	0.075	608688	keystroke	Key.space	n/a
304.434	0.105	608868	keystroke	s	n/a
304.524	0.0595	609048	keystroke	m	n/a
304.6885	0.09	609377	keystroke	i	n/a
304.7935	0.075	609587	keystroke	t	n/a
304.8535	0.09	609707	keystroke	h	n/a
304.9135	0.075	609827	keystroke	Key.space	n/a
305.0035	0.06	610007	keystroke	g	n/a
305.0785	0.06	610157	keystroke	u	n/a
305.2285	0.045	610457	keystroke	y	n/a
305.3185	0.075	610637	keystroke	a	n/a
305.4385	0.075	610877	keystroke	n	n/a
305.5435	0.075	611087	keystroke	a	n/a
305.6195	0.09	611239	keystroke	Key.space	n/a
305.8595	0.09	611719	keystroke	s	n/a
305.9035	0.09	611807	keystroke	h	n/a
305.9795	0.105	611959	keystroke	o	n/a
306.0695	0.105	612139	keystroke	w	n/a
306.1445	0.059	612289	keystroke	i	n/a
306.264	0.075	612528	keystroke	n	n/a
306.324	0.09	612648	keystroke	g	n/a
306.399	0.09	612798	keystroke	Key.enter	n/a
306.4935	5.382	612987	prompt	n/a	submissions victor stolen maple\n
307.119	0.075	614238	keystroke	s	n/a
307.195	0.089	614390	keystroke	u	n/a
307.3895	0.045	614779	keystroke	b	n/a
307.5695	0.0595	615139	keystroke	m	n/a
307.7785	0.03	615557	keystroke	i	n/a
307.8235	0.06	615647	keystroke	s	n/a
307.9585	0.1055	615917	keystroke	s	n/a
308.0185	0.0905	616037	keystroke	i	n/a
308.544	0.06	617088	keystroke	o	n/a
308.739	0.06	617478	keystroke	n	n/a
308.904	0.075	617808	keystroke	s	n/a
309.039	0.09	618078	keystroke	Key.space	n/a
309.294	0.075	618588	keystroke	v	n/a
309.384	0.075	618768	keystroke	i	n/a
309.504	0.045	619008	keystroke	c	n/a
309.684	0.0605	619368	keystroke	t	n/a
309.7295	0.06	619459	keystroke	o	n/a
309.8335	0.091	619667	keystroke	r	n/a
309.9095	0.105	619819	keystroke	Key.space	n/a
310.0295	0.09	620059	keystroke	s	n/a
310.1945	0.12	620389	keystroke	t	n/a
310.2695	0.06	620539	keystroke	o	n/a
310.4045	0.075	620809	keystroke	l	n/a
310.5095	0.06	621019	keystroke	e	n/a
311.0335	0.076	622067	keystroke	n	n/a
311.0935	0.105	622187	keystroke	Key.space	n/a
311.2295	0.06	622459	keystroke	m	n/a
311.3185	0.09	622637	keystroke	a	n/a
311.4535	0.075	622907	keystroke	p	n/a
311.6045	0.074	623209	keystroke	l	n/a
311.6645	0.0595	623329	keystroke	e	n/a
311.784	0.09	623568	keystroke	Key.enter	n/a
311.8785	3.8075	623757	prompt	n/a	draw season let's approved\n
312.549	0.075	625098	keystroke	d	n/a
312.759	0.105	625518	keystroke	r	n/a
312.834	0.105	625668	keystroke	a	n/a
313.044	0.06	626088	keystroke	w	n/a
313.149	0.12	626298	keystroke	Key.space	n/a
313.284	0.0595	626568	keystroke	s	n/a
313.4185	0.075	626837	keystroke	e	n/a
313.5985	0.09	627197	keystroke	a	n/a
313.7785	0.075	627557	keystroke	s	n/a
313.8385	0.06	627677	keystroke	o	n/a
313.9735	0.075	627947	keystroke	n	n/a
314.0495	0.0895	628099	keystroke	Key.space	n/a
314.154	0.12	628308	keystroke	l	n/a
314.334	0.015	628668	keystroke	e	n/a
314.424	0.075	628848	keystroke	t	n/a
314.499	0.075	628998	keystroke	'	n/a
314.589	0.105	629178	keystroke	s	n/a
314.679	0.075	629358	keystroke	Key.space	n/a
314.769	0.09	629538	keystroke	a	n/a
314.844	0.06	629688	keystroke	p	n/a
314.949	0.075	629898	keystroke	p	n/a
315.039	0.045	630078	keystroke	r	n/a
315.114	0.075	630228	keystroke	o	n/a
315.249	0.105	630498	keystroke	v	n/a
315.324	0.0905	630648	keystroke	e	n/a
315.534	0.045	631068	keystroke	d	n/a
315.594	0.09	631188	keystroke	Key.enter	n/a
315.69	3.641	631380	prompt	n/a	memphis delight france chrome\n
316.3285	0.06	632657	keystroke	m	n/a
316.419	0.075	632838	keystroke	e	n/a
316.5085	0.03	633017	keystroke	m	n/a
316.6435	0.075	633287	keystroke	p	n/a
316.869	0.105	633738	keystroke	h	n/a
316.944	0.075	633888	keystroke	i	n/a
317.02	0.074	634040	keystroke	s	n/a
317.109	0.105	634218	keystroke	Key.space	n/a
317.199	0.045	634398	keystroke	d	n/a
317.364	0.06	634728	keystroke	e	n/a
317.439	0.045	634878	keystroke	l	n/a
317.589	0.06	635178	keystroke	i	n/a
317.664	0.045	635328	keystroke	g	n/a
317.724	0.075	635448	keystroke	h	n/a
317.814	0.075	635628	keystroke	t	n/a
317.904	0.075	635808	keystroke	Key.space	n/a
318.009	0.06	636018	keystroke	f	n/a
318.144	0.0905	636288	keystroke	r	n/a
318.2195	0.089	636439	keystroke	a	n/a
318.2945	0.075	636589	keystroke	n	n/a
318.4295	0.105	636859	keystroke	c	n/a
318.5045	0.075	637009	keystroke	e	n/a
318.5945	0.06	637189	keystroke	Key.space	n/a
318.6845	0.075	637369	keystroke	c	n/a
318.7745	0.045	637549	keystroke	h	n/a
318.8795	0.075	637759	keystroke	r	n/a
318.9245	0.075	637849	keystroke	o	n/a
319.0895	0.045	638179	keystroke	m	n/a
319.1345	0.06	638269	keystroke	e	n/a
319.2395	0.09	638479	keystroke	Key.enter	n/a
319.3335	6.117	638667	prompt	n/a	comparative positioning attractions herb\n
320.0635	0.031	640127	keystroke	c	n/a
320.1085	0.045	640217	keystroke	o	n/a
320.2585	0.045	640517	keystroke	m	n/a
320.4385	0.06	640877	keystroke	p	n/a
321.069	0.06	642138	keystroke	a	n/a
321.234	0.0895	642468	keystroke	r	n/a
321.2935	0.105	642587	keystroke	a	n/a
321.5635	0.06	643127	keystroke	t	n/a
321.6685	0.075	643337	keystroke	i	n/a
321.8185	0.09	643637	keystroke	v	n/a
321.8635	0.105	643727	keystroke	e	n/a
321.9385	0.105	643877	keystroke	Key.space	n/a
322.0285	0.106	644057	keystroke	p	n/a
322.1035	0.075	644207	keystroke	o	n/a
322.1935	0.061	644387	keystroke	s	n/a
322.2845	0.075	644569	keystroke	i	n/a
322.3895	0.0595	644779	keystroke	t	n/a
322.4795	0.1645	644959	keystroke	i	n/a
322.629	0.12	645258	keystroke	o	n/a
322.914	0.0605	645828	keystroke	n	n/a
323.0645	0.0445	646129	keystroke	i	n/a
323.199	0.06	646398	keystroke	n	n/a
323.274	0.075	646548	keystroke	g	n/a
323.334	0.12	646668	keystroke	Key.space	n/a
323.4395	0.0745	646879	keystroke	a	n/a
323.529	0.075	647058	keystroke	t	n/a
323.6645	0.0895	647329	keystroke	t	n/a
323.844	0.06	647688	keystroke	r	n/a
323.874	0.12	647748	keystroke	a	n/a
324.039	0.09	648078	keystroke	c	n/a
324.4885	0.09	648977	keystroke	t	n/a
324.5635	0.1355	649127	keystroke	i	n/a
324.669	0.09	649338	keystroke	o	n/a
324.834	0.075	649668	keystroke	n	n/a
324.894	0.09	649788	keystroke	s	n/a
324.969	0.075	649938	keystroke	Key.space	n/a
325.059	0.09	650118	keystroke	h	n/a
325.134	0.06	650268	keystroke	e	n/a
325.179	0.09	650358	keystroke	r	n/a
325.254	0.105	650508	keystroke	b	n/a
325.344	0.105	650688	keystroke	Key.enter	n/a
325.454	4.722	650908	prompt	n/a	samples drivers potentially geek\n
326.064	0.045	652128	keystroke	s	n/a
326.214	0.09	652428	keystroke	a	n/a
326.274	0.06	652548	keystroke	m	n/a
326.439	0.045	652878	keystroke	p	n/a
326.559	0.09	653118	keystroke	l	n/a
326.604	0.075	653208	keystroke	e	n/a
326.784	0.09	653568	keystroke	s	n/a
326.889	0.09	653778	keystroke	Key.space	n/a
326.964	0.06	653928	keystroke	d	n/a
327.144	0.03	654288	keystroke	r	n/a
327.234	0.09	654468	keystroke	i	n/a
327.325	0.059	654650	keystroke	v	n/a
327.459	0.105	654918	keystroke	e	n/a
327.519	0.09	655038	keystroke	r	n/a
327.7295	0.075	655459	keystroke	s	n/a
327.7595	0.09	655519	keystroke	Key.space	n/a
328.2395	0.09	656479	keystroke	p	n/a
328.404	0.075	656808	keystroke	o	n/a
328.584	0.09	657168	keystroke	t	n/a
328.734	0.09	657468	keystroke	e	n/a
328.809	0.075	657618	keystroke	n	n/a
328.929	0.075	657858	keystroke	t	n/a
329.019	0.06	658038	keystroke	i	n/a
329.124	0.09	658248	keystroke	a	n/a
329.244	0.045	658488	keystroke	l	n/a
329.364	0.06	658728	keystroke	l	n/a
329.574	0.075	659148	keystroke	y	n/a
329.634	0.075	659268	keystroke	Key.space	n/a
329.724	0.105	659448	keystroke	g	n/a
329.814	0.06	659628	keystroke	e	n/a
329.979	0.075	659958	keystroke	e	n/a
330.039	0.06	660078	keystroke	k	n/a
330.084	0.09	660168	keystroke	Key.enter	n/a
330.1785	5.667	660357	prompt	n/a	journalist movements ireland assess\n
330.8345	0.045	661669	keystroke	j	n/a
331.0295	0.135	662059	keystroke	o	n/a
331.0745	0.135	662149	keystroke	u	n/a
331.2245	0.06	662449	keystroke	r	n/a
331.2995	0.045	662599	keystroke	n	n/a
331.4195	0.06	662839	keystroke	a	n/a
331.4945	0.06	662989	keystroke	l	n/a
331.689	0.0905	663378	keystroke	i	n/a
331.9895	0.06	663979	keystroke	s	n/a
332.1695	0.105	664339	keystroke	t	n/a
332.2595	0.09	664519	keystroke	Key.space	n/a
332.3345	0.075	664669	keystroke	m	n/a
332.7395	0.06	665479	keystroke	o	n/a
332.8445	0.1345	665689	keystroke	v	n/a
332.934	0.09	665868	keystroke	e	n/a
333.039	0.06	666078	keystroke	m	n/a
333.129	0.075	666258	keystroke	e	n/a
333.729	0.06	667458	keystroke	n	n/a
333.804	0.075	667608	keystroke	t	n/a
333.999	0.0455	667998	keystroke	s	n/a
334.0895	0.06	668179	keystroke	Key.space	n/a
334.1495	0.06	668299	keystroke	i	n/a
334.2995	0.06	668599	keystroke	r	n/a
334.3295	0.09	668659	keystroke	e	n/a
334.4345	0.06	668869	keystroke	l	n/a
334.5245	0.075	669049	keystroke	a	n/a
334.5995	0.075	669199	keystroke	n	n/a
334.6895	0.105	669379	keystroke	d	n/a
334.7795	0.105	669559	keystroke	Key.space	n/a
334.8695	0.075	669739	keystroke	a	n/a
335.0495	0.06	670099	keystroke	s	n/a
335.1245	0.12	670249	keystroke	s	n/a
335.3345	0.06	670669	keystroke	e	n/a
335.5295	0.045	671059	keystroke	s	n/a
335.6495	0.075	671299	keystroke	s	n/a
335.7395	0.105	671479	keystroke	Key.enter	n/a
335.849	5.172	671698	prompt	n/a	hospitals competitions vulnerable love\n
336.6095	0.075	673219	keystroke	h	n/a
336.7745	0.075	673549	keystroke	o	n/a
336.8495	0.0445	673699	keystroke	s	n/a
336.954	0.105	673908	keystroke	p	n/a
337.014	0.105	674028	keystroke	i	n/a
337.134	0.06	674268	keystroke	t	n/a
337.164	0.0895	674328	keystroke	a	n/a
337.2685	0.09	674537	keystroke	l	n/a
337.3745	0.045	674749	keystroke	s	n/a
337.4335	0.105	674867	keystroke	Key.space	n/a
337.6295	0.089	675259	keystroke	c	n/a
337.6895	0.0445	675379	keystroke	o	n/a
337.854	0.03	675708	keystroke	m	n/a
338.034	0.06	676068	keystroke	p	n/a
338.169	0.06	676338	keystroke	e	n/a
338.379	0.075	676758	keystroke	t	n/a
338.455	0.074	676910	keystroke	i	n/a
338.574	0.09	677148	keystroke	t	n/a
338.665	0.074	677330	keystroke	i	n/a
338.709	0.06	677418	keystroke	o	n/a
338.889	0.045	677778	keystroke	n	n/a
338.9935	0.0605	677987	keystroke	s	n/a
339.0835	0.075	678167	keystroke	Key.space	n/a
339.219	0.105	678438	keystroke	v	n/a
339.3085	0.075	678617	keystroke	u	n/a
339.5035	0.075	679007	keystroke	l	n/a
339.759	0.045	679518	keystroke	n	n/a
339.894	0.09	679788	keystroke	e	n/a
339.969	0.06	679938	keystroke	r	n/a
340.059	0.12	680118	keystroke	a	n/a
340.149	0.045	680298	keystroke	b	n/a
340.329	0.06	680658	keystroke	l	n/a
340.404	0.06	680808	keystroke	e	n/a
340.479	0.075	680958	keystroke	Key.space	n/a
340.629	0.06	681258	keystroke	l	n/a
340.749	0.06	681498	keystroke	o	n/a
340.779	0.105	681558	keystroke	v	n/a
340.869	0.09	681738	keystroke	e	n/a
340.974	0.045	681948	keystroke	Key.enter	n/a
341.0235	5.0375	682047	prompt	n/a	cheque yeah theoretical minute\n
341.7695	0.09	683539	keystroke	c	n/a
341.8745	0.09	683749	keystroke	h	n/a
341.9795	0.06	683959	keystroke	e	n/a
342.1445	0.06	684289	keystroke	q	n/a
342.2045	0.09	684409	keystroke	u	n/a
342.3095	0.045	684619	keystroke	e	n/a
342.5645	0.09	685129	keystroke	Key.space	n/a
342.6995	0.03	685399	keystroke	y	n/a
342.7745	0.09	685549	keystroke	e	n/a
342.8345	0.0745	685669	keystroke	a	n/a
342.894	0.12	685788	keystroke	h	n/a
342.969	0.0895	685938	keystroke	Key.space	n/a
343.0895	0.074	686179	keystroke	t	n/a
343.1795	0.045	686359	keystroke	h	n/a
343.6445	0.045	687289	keystroke	e	n/a
343.8845	0.075	687769	keystroke	o	n/a
344.0195	0.1495	688039	keystroke	r	n/a
344.424	0.076	688848	keystroke	e	n/a
344.635	0.059	689270	keystroke	t	n/a
344.71	0.089	689420	keystroke	i	n/a
344.889	0.1055	689778	keystroke	c	n/a
344.9345	0.12	689869	keystroke	a	n/a
345.0095	0.075	690019	keystroke	l	n/a
345.0695	0.075	690139	keystroke	Key.space	n/a
345.2195	0.045	690439	keystroke	m	n/a
345.3845	0.045	690769	keystroke	i	n/a
345.5195	0.075	691039	keystroke	n	n/a
345.6995	0.075	691399	keystroke	u	n/a
345.7295	0.075	691459	keystroke	t	n/a
345.8945	0.075	691789	keystroke	e	n/a
345.9695	0.09	691939	keystroke	Key.enter	n/a
346.064	5.3665	692128	prompt	n/a	buyer prospects infinite restored\n
346.7195	0.075	693439	keystroke	b	n/a
346.914	0.045	693828	keystroke	u	n/a
347.049	0.09	694098	keystroke	y	n/a
347.6645	0.09	695329	keystroke	e	n/a
347.7395	0.075	695479	keystroke	r	n/a
347.7995	0.09	695599	keystroke	Key.space	n/a
347.8445	0.105	695689	keystroke	p	n/a
347.9195	0.06	695839	keystroke	r	n/a
348.0245	0.075	696049	keystroke	o	n/a
348.1145	0.075	696229	keystroke	s	n/a
348.2045	0.105	696409	keystroke	p	n/a
348.2945	0.06	696589	keystroke	e	n/a
348.4445	0.075	696889	keystroke	c	n/a
348.6245	0.06	697249	keystroke	t	n/a
348.8195	0.0895	697639	keystroke	s	n/a
348.939	0.09	697878	keystroke	Key.space	n/a
348.999	0.06	697998	keystroke	i	n/a
349.134	0.075	698268	keystroke	n	n/a
349.21	0.044	698420	keystroke	f	n/a
349.284	0.105	698568	keystroke	i	n/a
349.974	0.06	699948	keystroke	n	n/a
350.109	0.09	700218	keystroke	i	n/a
350.169	0.075	700338	keystroke	t	n/a
350.334	0.0605	700668	keystroke	e	n/a
350.4095	0.075	700819	keystroke	Key.space	n/a
350.4845	0.09	700969	keystroke	r	n/a
350.5145	0.06	701029	keystroke	e	n/a
350.6945	0.06	701389	keystroke	s	n/a
350.8745	0.06	701749	keystroke	t	n/a
350.9795	0.075	701959	keystroke	o	n/a
351.0695	0.075	702139	keystroke	r	n/a
351.0845	0.09	702169	keystroke	e	n/a
351.2945	0.09	702589	keystroke	d	n/a
351.3695	0.06	702739	keystroke	Key.enter	n/a
351.4335	5.2475	702867	prompt	n/a	coordinate premises levitra livestock\n
352.1195	0.06	704239	keystroke	c	n/a
352.2095	0.075	704419	keystroke	o	n/a
352.3295	0.09	704659	keystroke	o	n/a
352.3895	0.075	704779	keystroke	r	n/a
352.5395	0.075	705079	keystroke	d	n/a
352.5995	0.045	705199	keystroke	i	n/a
352.7345	0.075	705469	keystroke	n	n/a
352.7945	0.1045	705589	keystroke	a	n/a
352.8545	0.0895	705709	keystroke	t	n/a
352.974	0.075	705948	keystroke	e	n/a
353.109	0.135	706218	keystroke	Key.space	n/a
353.199	0.06	706398	keystroke	p	n/a
353.274	0.09	706548	keystroke	r	n/a
353.349	0.09	706698	keystroke	e	n/a
353.454	0.075	706908	keystroke	m	n/a
353.679	0.03	707358	keystroke	i	n/a
353.694	0.046	707388	keystroke	s	n/a
353.829	0.045	707658	keystroke	e	n/a
354.009	0.045	708018	keystroke	s	n/a
354.069	0.12	708138	keystroke	Key.space	n/a
354.159	0.12	708318	keystroke	l	n/a
354.249	0.045	708498	keystroke	e	n/a
354.414	0.09	708828	keystroke	v	n/a
354.519	0.12	709038	keystroke	i	n/a
354.64	0.074	709280	keystroke	t	n/a
354.819	0.06	709638	keystroke	r	n/a
354.849	0.09	709698	keystroke	a	n/a
354.924	0.0605	709848	keystroke	Key.space	n/a
355.0745	0.09	710149	keystroke	l	n/a
355.509	0.1205	711018	keystroke	i	n/a
355.6445	0.105	711289	keystroke	v	n/a
355.704	0.0605	711408	keystroke	e	n/a
355.899	0.0605	711798	keystroke	s	n/a
356.0795	0.09	712159	keystroke	t	n/a
356.2445	0.09	712489	keystroke	o	n/a
356.4095	0.09	712819	keystroke	c	n/a
356.4545	0.075	712909	keystroke	k	n/a
356.5895	0.09	713179	keystroke	Key.enter	n/a
356.684	3.852	713368	prompt	n/a	carry than regression shell\n
357.2945	0.09	714589	keystroke	c	n/a
357.3995	0.075	714799	keystroke	a	n/a
357.5195	0.06	715039	keystroke	r	n/a
357.6395	0.09	715279	keystroke	r	n/a
357.6995	0.09	715399	keystroke	y	n/a
357.7595	0.075	715519	keystroke	Key.space	n/a
357.8795	0.09	715759	keystroke	t	n/a
357.9095	0.075	715819	keystroke	h	n/a
358.0745	0.09	716149	keystroke	a	n/a
358.1195	0.09	716239	keystroke	n	n/a
358.1945	0.075	716389	keystroke	Key.space	n/a
358.3295	0.09	716659	keystroke	r	n/a
358.4045	0.06	716809	keystroke	e	n/a
358.5545	0.075	717109	keystroke	g	n/a
359.124	0.09	718248	keystroke	r	n/a
359.199	0.06	718398	keystroke	e	n/a
359.349	0.076	718698	keystroke	s	n/a
359.499	0.09	718998	keystroke	s	n/a
359.559	0.076	719118	keystroke	i	n/a
359.604	0.075	719208	keystroke	o	n/a
359.784	0.06	719568	keystroke	n	n/a
359.799	0.12	719598	keystroke	Key.space	n/a
359.904	0.045	719808	keystroke	s	n/a
359.964	0.075	719928	keystroke	h	n/a
360.054	0.075	720108	keystroke	e	n/a
360.159	0.075	720318	keystroke	l	n/a
360.294	0.09	720588	keystroke	l	n/a
360.4295	0.105	720859	keystroke	Key.enter	n/a
360.5395	4.782	721079	prompt	n/a	popular husband memorial aspects\n
361.1945	0.09	722389	keystroke	p	n/a
361.3145	0.12	722629	keystroke	o	n/a
361.3745	0.12	722749	keystroke	p	n/a
361.5245	0.105	723049	keystroke	u	n/a
361.7195	0.0745	723439	keystroke	l	n/a
361.8095	0.0755	723619	keystroke	a	n/a
361.854	0.091	723708	keystroke	r	n/a
361.929	0.075	723858	keystroke	Key.space	n/a
362.019	0.075	724038	keystroke	h	n/a
362.199	0.09	724398	keystroke	u	n/a
362.35	0.089	724700	keystroke	s	n/a
362.424	0.06	724848	keystroke	b	n/a
362.545	0.044	725090	keystroke	a	n/a
362.59	0.059	725180	keystroke	n	n/a
362.694	0.06	725388	keystroke	d	n/a
362.739	0.105	725478	keystroke	Key.space	n/a
362.814	0.0755	725628	keystroke	m	n/a
362.9195	0.09	725839	keystroke	e	n/a
362.9945	0.03	725989	keystroke	m	n/a
363.1295	0.075	726259	keystroke	o	n/a
363.2045	0.06	726409	keystroke	r	n/a
363.2945	0.075	726589	keystroke	i	n/a
363.3995	0.075	726799	keystroke	a	n/a
363.4895	0.12	726979	keystroke	l	n/a
363.5645	0.105	727129	keystroke	Key.space	n/a
363.6845	0.045	727369	keystroke	s	n/a
364.0595	0.06	728119	keystroke	Key.backspace	n/a
364.2695	0.06	728539	keystroke	a	n/a
364.4195	0.0745	728839	keystroke	s	n/a
364.4795	0.075	728959	keystroke	p	n/a
364.5995	0.0595	729199	keystroke	e	n/a
364.7645	0.075	729529	keystroke	c	n/a
364.945	0.044	729890	keystroke	t	n/a
365.109	0.06	730218	keystroke	s	n/a
365.229	0.09	730458	keystroke	Key.enter	n/a
365.324	5.757	730648	prompt	n/a	january arising common demand\n
365.95	0.045	731900	keystroke	h	n/a
366.054	0.105	732108	keystroke	a	n/a
366.144	0.045	732288	keystroke	n	n/a
366.324	0.045	732648	keystroke	u	n/a
366.714	0.045	733428	keystroke	Key.backspace	n/a
366.894	0.0305	733788	keystroke	Key.backspace	n/a
367.0595	0.03	734119	keystroke	Key.backspace	n/a
367.3895	0.03	734779	keystroke	Key.backspace	n/a
367.63	0.059	735260	keystroke	j	n/a
367.7495	0.09	735499	keystroke	a	n/a
367.7945	0.06	735589	keystroke	n	n/a
367.9595	0.06	735919	keystroke	u	n/a
368.0495	0.06	736099	keystroke	a	n/a
368.0795	0.0895	736159	keystroke	r	n/a
368.154	0.076	736308	keystroke	y	n/a
368.199	0.09	736398	keystroke	Key.space	n/a
368.304	0.075	736608	keystroke	a	n/a
368.439	0.09	736878	keystroke	r	n/a
368.559	0.075	737118	keystroke	i	n/a
368.694	0.075	737388	keystroke	s	n/a
368.739	0.06	737478	keystroke	i	n/a
368.8895	0.06	737779	keystroke	n	n/a
368.9645	0.075	737929	keystroke	g	n/a
369.5645	0.06	739129	keystroke	Key.space	n/a
369.6845	0.1045	739369	keystroke	c	n/a
369.759	0.06	739518	keystroke	o	n/a
369.924	0.045	739848	keystroke	m	n/a
370.059	0.075	740118	keystroke	m	n/a
370.194	0.06	740388	keystroke	o	n/a
370.329	0.105	740658	keystroke	n	n/a
370.419	0.06	740838	keystroke	Key.space	n/a
370.464	0.045	740928	keystroke	d	n/a
370.599	0.06	741198	keystroke	e	n/a
370.69	0.045	741380	keystroke	m	n/a
370.78	0.0445	741560	keystroke	a	n/a
370.84	0.0295	741680	keystroke	n	n/a
370.9445	0.0745	741889	keystroke	d	n/a
371.0045	0.0755	742009	keystroke	Key.enter	n/a
371.0835	5.2325	742167	prompt	n/a	developmental gimme conversion has\n
372.0695	0.105	744139	keystroke	d	n/a
372.2795	0.045	744559	keystroke	e	n/a
372.4445	0.105	744889	keystroke	v	n/a
372.5045	0.12	745009	keystroke	e	n/a
372.5945	0.075	745189	keystroke	l	n/a
372.8045	0.1045	745609	keystroke	o	n/a
372.8645	0.0745	745729	keystroke	p	n/a
373.044	0.075	746088	keystroke	m	n/a
373.134	0.0605	746268	keystroke	e	n/a
373.2245	0.06	746449	keystroke	n	n/a
373.3145	0.105	746629	keystroke	t	n/a
373.4045	0.09	746809	keystroke	a	n/a
373.4795	0.09	746959	keystroke	l	n/a
373.5395	0.12	747079	keystroke	Key.space	n/a
373.6895	0.06	747379	keystroke	g	n/a
373.7795	0.045	747559	keystroke	i	n/a
373.9745	0.06	747949	keystroke	m	n/a
374.079	0.045	748158	keystroke	m	n/a
374.154	0.06	748308	keystroke	e	n/a
374.244	0.105	748488	keystroke	Key.space	n/a
374.364	0.06	748728	keystroke	c	n/a
374.439	0.03	748878	keystroke	o	n/a
374.559	0.09	749118	keystroke	n	n/a
374.604	0.075	749208	keystroke	v	n/a
374.784	0.09	749568	keystroke	e	n/a
375.309	0.06	750618	keystroke	r	n/a
375.474	0.075	750948	keystroke	s	n/a
375.534	0.105	751068	keystroke	i	n/a
375.624	0.075	751248	keystroke	o	n/a
375.759	0.075	751518	keystroke	n	n/a
375.849	0.075	751698	keystroke	Key.space	n/a
375.954	0.09	751908	keystroke	h	n/a
376.014	0.075	752028	keystroke	a	n/a
376.164	0.105	752328	keystroke	s	n/a
376.224	0.09	752448	keystroke	Key.enter	n/a
376.322	5.229	752644	prompt	n/a	observation isn't championships chicks\n
376.9745	0.06	753949	keystroke	o	n/a
377.1095	0.0755	754219	keystroke	b	n/a
377.17	0.0745	754340	keystroke	s	n/a
377.3045	0.075	754609	keystroke	e	n/a
377.365	0.0445	754730	keystroke	r	n/a
377.56	0.09	755120	keystroke	v	n/a
377.7395	0.105	755479	keystroke	a	n/a
377.8745	0.089	755749	keystroke	t	n/a
377.9495	0.105	755899	keystroke	i	n/a
378.0395	0.09	756079	keystroke	o	n/a
378.2045	0.075	756409	keystroke	n	n/a
378.2945	0.09	756589	keystroke	Key.space	n/a
378.3995	0.075	756799	keystroke	i	n/a
378.5495	0.09	757099	keystroke	s	n/a
378.6095	0.06	757219	keystroke	n	n/a
378.804	0.0605	757608	keystroke	'	n/a
378.895	0.059	757790	keystroke	t	n/a
379.044	0.076	758088	keystroke	Key.space	n/a
379.165	0.105	758330	keystroke	c	n/a
379.255	0.06	758510	keystroke	h	n/a
379.389	0.105	758778	keystroke	a	n/a
379.48	0.029	758960	keystroke	m	n/a
379.659	0.075	759318	keystroke	p	n/a
379.854	0.135	759708	keystroke	i	n/a
379.959	0.09	759918	keystroke	o	n/a
380.139	0.105	760278	keystroke	n	n/a
380.259	0.045	760518	keystroke	s	n/a
380.334	0.075	760668	keystroke	h	n/a
380.514	0.1205	761028	keystroke	i	n/a
380.6045	0.135	761209	keystroke	p	n/a
380.7545	0.09	761509	keystroke	Key.space	n/a
380.8895	0.0755	761779	keystroke	c	n/a
380.98	0.105	761960	keystroke	h	n/a
381.055	0.075	762110	keystroke	i	n/a
381.175	0.06	762350	keystroke	c	n/a
381.249	0.061	762498	keystroke	k	n/a
381.34	0.09	762680	keystroke	s	n/a
381.445	0.104	762890	keystroke	Key.enter	n/a
381.554	4.257	763108	prompt	n/a	the quick brown fox jumps over a lazy dog\n
382.2095	0.09	764419	keystroke	t	n/a
382.2845	0.075	764569	keystroke	h	n/a
382.3745	0.06	764749	keystroke	e	n/a
382.4645	0.075	764929	keystroke	Key.space	n/a
382.5845	0.06	765169	keystroke	q	n/a
382.6145	0.105	765229	keystroke	u	n/a
382.7195	0.045	765439	keystroke	i	n/a
382.8545	0.045	765709	keystroke	c	n/a
382.8695	0.09	765739	keystroke	k	n/a
382.9445	0.045	765889	keystroke	Key.space	n/a
383.0795	0.06	766159	keystroke	b	n/a
383.1545	0.075	766309	keystroke	r	n/a
383.2595	0.075	766519	keystroke	o	n/a
383.3195	0.0895	766639	keystroke	w	n/a
383.454	0.03	766908	keystroke	n	n/a
383.469	0.105	766938	keystroke	Key.space	n/a
383.529	0.06	767058	keystroke	f	n/a
383.634	0.09	767268	keystroke	o	n/a
383.739	0.0605	767478	keystroke	x	n/a
