onset	duration	sample	value	key	prompt_text
0.256	0.1935	512	keystroke_Key.space	Key.space	n/a
25.1935	0.089	50387	keystroke_j	j	n/a
25.339	0.1575	50678	keystroke_s	s	n/a
25.44	0.09	50880	keystroke_e	e	n/a
25.6315	0.0675	51263	keystroke_e	e	n/a
25.6875	0.124	51375	keystroke_l	l	n/a
25.755	0.1015	51510	keystroke_y	y	n/a
25.9015	0.079	51803	keystroke_Key.tab	Key.tab	n/a
26.329	0.09	52658	keystroke_Key.down	Key.down	n/a
26.5205	0.09	53041	keystroke_Key.down	Key.down	n/a
27.285	0.146	54570	keystroke_Key.down	Key.down	n/a
28.05	0.09	56100	keystroke_Key.enter	Key.enter	n/a
28.3655	0.146	56731	keystroke_Key.tab	Key.tab	n/a
28.849	0.169	57698	keystroke_v	v	n/a
30.6375	0.135	61275	keystroke_o	o	n/a
30.694	0.1235	61388	keystroke_n	n	n/a
32.5055	0.2585	65011	keystroke_Key.shift	Key.shift	n/a
32.584	0.1125	65168	keystroke__	_	n/a
32.8765	0.09	65753	keystroke_k	k	n/a
32.9775	0.0905	65955	keystroke_e	e	n/a
33.079	0.113	66158	keystroke_y	y	n/a
33.2475	0.1355	66495	keystroke_b	b	n/a
33.394	0.1015	66788	keystroke_o	o	n/a
33.5065	0.1125	67013	keystroke_a	a	n/a
33.5755	0.1675	67151	keystroke_r	r	n/a
33.6755	0.101	67351	keystroke_d	d	n/a
33.7435	0.134	67487	keystroke_Key.space	Key.space	n/a
33.855	0.1015	67710	keystroke_p	p	n/a
33.968	0.091	67936	keystroke_r	r	n/a
34.069	0.1125	68138	keystroke_o	o	n/a
34.204	0.135	68408	keystroke_t	t	n/a
34.328	0.0895	68656	keystroke_o	o	n/a
34.519	0.101	69038	keystroke_c	c	n/a
34.598	0.0785	69196	keystroke_o	o	n/a
34.8005	0.1255	69601	keystroke_l	l	n/a
34.868	0.1465	69736	keystroke_Key.space	Key.space	n/a
35.262	0.0555	70524	keystroke_6	6	n/a
35.3295	0.135	70659	keystroke_.	.	n/a
35.532	0.1005	71064	keystroke_3	3	n/a
37.883	0.225	75766	keystroke_Key.ctrl	Key.ctrl	n/a
37.9955	0.09	75991	keystroke_Key.tab	Key.tab	n/a
44.104	0.1125	88208	keystroke_j	j	n/a
44.239	0.1465	88478	keystroke_s	s	n/a
44.329	0.09	88658	keystroke_e	e	n/a
44.554	0.0235	89108	keystroke_e	e	n/a
44.566	0.123	89132	keystroke_l	l	n/a
44.6335	0.1005	89267	keystroke_y	y	n/a
44.869	0.0795	89738	keystroke_Key.enter	Key.enter	n/a
47.525	0.157	95050	keystroke_1	1	n/a
53.456	8.1225	106912	prompt	n/a	the quick brown fox jumps over a lazy dog\n
55.1635	0.09	110327	keystroke_t	t	n/a
55.298	0.091	110596	keystroke_h	h	n/a
55.3885	0.0785	110777	keystroke_e	e	n/a
55.5235	0.09	111047	keystroke_Key.space	Key.space	n/a
55.693	0.112	111386	keystroke_q	q	n/a
55.771	0.1245	111542	keystroke_u	u	n/a
55.8505	0.112	111701	keystroke_i	i	n/a
55.9735	0.0785	111947	keystroke_c	c	n/a
56.0635	0.1345	112127	keystroke_k	k	n/a
56.1425	0.135	112285	keystroke_Key.space	Key.space	n/a
56.255	0.0785	112510	keystroke_b	b	n/a
56.4575	0.0895	112915	keystroke_r	r	n/a
56.5595	0.089	113119	keystroke_o	o	n/a
56.7835	0.1595	113567	keystroke_n	n	n/a
56.8735	0.056	113747	keystroke_Key.space	Key.space	n/a
57.132	0.068	114264	keystroke_Key.backspace	Key.backspace	n/a
57.3125	0.09	114625	keystroke_Key.backspace	Key.backspace	n/a
57.8755	0.078	115751	keystroke_w	w	n/a
58.111	0.1235	116222	keystroke_n	n	n/a
58.201	0.0895	116402	keystroke_Key.space	Key.space	n/a
58.393	0.078	116786	keystroke_f	f	n/a
58.4715	0.089	116943	keystroke_o	o	n/a
58.5945	0.09	117189	keystroke_x	x	n/a
58.718	0.1245	117436	keystroke_Key.space	Key.space	n/a
58.876	0.0785	117752	keystroke_j	j	n/a
59.067	0.0675	118134	keystroke_u	u	n/a
59.213	0.1355	118426	keystroke_m	m	n/a
59.315	0.1455	118630	keystroke_p	p	n/a
59.427	0.101	118854	keystroke_s	s	n/a
59.5285	0.146	119057	keystroke_Key.space	Key.space	n/a
59.63	0.1245	119260	keystroke_o	o	n/a
59.7305	0.102	119461	keystroke_v	v	n/a
59.9	0.112	119800	keystroke_e	e	n/a
59.978	0.124	119956	keystroke_r	r	n/a
60.0795	0.1015	120159	keystroke_Key.space	Key.space	n/a
60.192	0.09	120384	keystroke_a	a	n/a
60.293	0.135	120586	keystroke_Key.space	Key.space	n/a
60.406	0.1345	120812	keystroke_l	l	n/a
60.507	0.09	121014	keystroke_a	a	n/a
60.7095	0.146	121419	keystroke_z	z	n/a
60.8335	0.1125	121667	keystroke_y	y	n/a
60.8895	0.1015	121779	keystroke_Key.space	Key.space	n/a
60.9795	0.1125	121959	keystroke_d	d	n/a
61.0805	0.1015	122161	keystroke_o	o	n/a
61.216	0.112	122432	keystroke_g	g	n/a
61.497	0.079	122994	keystroke_Key.enter	Key.enter	n/a
61.5825	5.0905	123165	prompt	n/a	subscribe divorce shaw empire\n
62.2845	0.1035	124569	keystroke_s	s	n/a
62.4195	0.09	124839	keystroke_u	u	n/a
62.521	0.0895	125042	keystroke_b	b	n/a
62.7005	0.09	125401	keystroke_s	s	n/a
62.8805	0.079	125761	keystroke_c	c	n/a
63.0605	0.079	126121	keystroke_r	r	n/a
63.196	0.101	126392	keystroke_i	i	n/a
63.308	0.0795	126616	keystroke_b	b	n/a
63.488	0.079	126976	keystroke_e	e	n/a
63.5895	0.1235	127179	keystroke_Key.space	Key.space	n/a
63.702	0.09	127404	keystroke_d	d	n/a
63.814	0.0905	127628	keystroke_i	i	n/a
63.9155	0.1015	127831	keystroke_v	v	n/a
64.028	0.1125	128056	keystroke_o	o	n/a
64.163	0.113	128326	keystroke_r	r	n/a
64.3995	0.09	128799	keystroke_c	c	n/a
64.6135	0.045	129227	keystroke_e	e	n/a
64.7705	0.079	129541	keystroke_Key.space	Key.space	n/a
64.9285	0.1235	129857	keystroke_s	s	n/a
65.063	0.124	130126	keystroke_h	h	n/a
65.2435	0.146	130487	keystroke_a	a	n/a
65.4005	0.1015	130801	keystroke_w	w	n/a
65.5695	0.1235	131139	keystroke_Key.space	Key.space	n/a
65.716	0.0785	131432	keystroke_e	e	n/a
65.828	0.135	131656	keystroke_m	m	n/a
65.941	0.146	131882	keystroke_p	p	n/a
66.166	0.1235	132332	keystroke_i	i	n/a
66.3235	0.1585	132647	keystroke_r	r	n/a
66.4245	0.124	132849	keystroke_e	e	n/a
66.5705	0.1015	133141	keystroke_Key.enter	Key.enter	n/a
66.6765	4.395	133353	prompt	n/a	sheep hopkins gives centres\n
67.3815	0.067	134763	keystroke_s	s	n/a
67.459	0.079	134918	keystroke_h	h	n/a
67.572	0.0785	135144	keystroke_e	e	n/a
67.752	0.08	135504	keystroke_e	e	n/a
67.854	0.1345	135708	keystroke_p	p	n/a
67.91	0.135	135820	keystroke_Key.space	Key.space	n/a
68.1005	0.1695	136201	keystroke_h	h	n/a
68.258	0.18	136516	keystroke_o	o	n/a
68.382	0.1235	136764	keystroke_p	p	n/a
68.5955	0.0905	137191	keystroke_k	k	n/a
68.7755	0.1125	137551	keystroke_i	i	n/a
68.832	0.1345	137664	keystroke_n	n	n/a
68.933	0.101	137866	keystroke_s	s	n/a
69.023	0.1585	138046	keystroke_Key.space	Key.space	n/a
69.1695	0.0895	138339	keystroke_g	g	n/a
69.293	0.1015	138586	keystroke_i	i	n/a
69.417	0.146	138834	keystroke_v	v	n/a
69.4955	0.1465	138991	keystroke_e	e	n/a
69.563	0.1245	139126	keystroke_s	s	n/a
69.6755	0.1575	139351	keystroke_Key.space	Key.space	n/a
69.8445	0.068	139689	keystroke_c	c	n/a
70.0245	0.0455	140049	keystroke_e	e	n/a
70.1145	0.1125	140229	keystroke_n	n	n/a
70.2155	0.09	140431	keystroke_t	t	n/a
70.4075	0.2025	140815	keystroke_r	r	n/a
70.497	0.18	140994	keystroke_e	e	n/a
70.587	0.158	141174	keystroke_s	s	n/a
70.9695	0.101	141939	keystroke_Key.enter	Key.enter	n/a
71.075	3.7435	142150	prompt	n/a	brave estonia pine stated\n
71.7125	0.1005	143425	keystroke_b	b	n/a
71.9255	0.1235	143851	keystroke_r	r	n/a
72.038	0.1125	144076	keystroke_a	a	n/a
72.1845	0.135	144369	keystroke_v	v	n/a
72.2745	0.067	144549	keystroke_e	e	n/a
72.3755	0.135	144751	keystroke_Key.space	Key.space	n/a
72.4655	0.079	144931	keystroke_e	e	n/a
72.6345	0.101	145269	keystroke_s	s	n/a
72.7025	0.112	145405	keystroke_t	t	n/a
72.7695	0.1235	145539	keystroke_o	o	n/a
72.8705	0.124	145741	keystroke_n	n	n/a
72.9945	0.124	145989	keystroke_i	i	n/a
73.118	0.1015	146236	keystroke_a	a	n/a
73.2305	0.102	146461	keystroke_Key.space	Key.space	n/a
73.388	0.1465	146776	keystroke_p	p	n/a
73.5245	0.141	147049	keystroke_i	i	n/a
73.602	0.1235	147204	keystroke_n	n	n/a
73.7145	0.0785	147429	keystroke_e	e	n/a
73.8045	0.146	147609	keystroke_Key.space	Key.space	n/a
73.9055	0.1125	147811	keystroke_s	s	n/a
73.9845	0.1125	147969	keystroke_t	t	n/a
74.108	0.124	148216	keystroke_a	a	n/a
74.198	0.2025	148396	keystroke_t	t	n/a
74.288	0.124	148576	keystroke_e	e	n/a
74.547	0.101	149094	keystroke_d	d	n/a
74.693	0.124	149386	keystroke_Key.enter	Key.enter	n/a
74.8215	5.3405	149643	prompt	n/a	debian hartford journal boots\n
75.5595	0.091	151119	keystroke_d	d	n/a
75.7505	0.0565	151501	keystroke_e	e	n/a
75.953	0.079	151906	keystroke_b	b	n/a
76.0545	0.09	152109	keystroke_i	i	n/a
76.1555	0.124	152311	keystroke_a	a	n/a
76.2455	0.1125	152491	keystroke_n	n	n/a
76.313	0.1125	152626	keystroke_Key.space	Key.space	n/a
76.4725	0.122	152945	keystroke_h	h	n/a
76.5155	0.1125	153031	keystroke_a	a	n/a
76.617	0.1235	153234	keystroke_r	r	n/a
76.6845	0.135	153369	keystroke_d	d	n/a
77.1125	0.078	154225	keystroke_Key.backspace	Key.backspace	n/a
77.3595	0.091	154719	keystroke_t	t	n/a
77.6295	0.1125	155259	keystroke_f	f	n/a
77.753	0.1015	155506	keystroke_o	o	n/a
77.8655	0.1465	155731	keystroke_r	r	n/a
77.9555	0.1125	155911	keystroke_d	d	n/a
78.023	0.135	156046	keystroke_Key.space	Key.space	n/a
78.282	0.102	156564	keystroke_j	j	n/a
78.642	0.1585	157284	keystroke_o	o	n/a
78.732	0.1245	157464	keystroke_u	u	n/a
78.856	0.135	157712	keystroke_r	r	n/a
79.0135	0.1125	158027	keystroke_n	n	n/a
79.1595	0.1125	158319	keystroke_a	a	n/a
79.2505	0.123	158501	keystroke_l	l	n/a
79.317	0.135	158634	keystroke_Key.space	Key.space	n/a
79.463	0.1015	158926	keystroke_b	b	n/a
79.5765	0.078	159153	keystroke_o	o	n/a
79.767	0.0675	159534	keystroke_o	o	n/a
79.868	0.126	159736	keystroke_t	t	n/a
79.947	0.101	159894	keystroke_s	s	n/a
80.0595	0.1015	160119	keystroke_Key.enter	Key.enter	n/a
80.1655	4.564	160331	prompt	n/a	closure indicator attached dark\n
80.903	0.1015	161806	keystroke_c	c	n/a
81.0155	0.0675	162031	keystroke_l	l	n/a
81.207	0.0675	162414	keystroke_o	o	n/a
81.308	0.09	162616	keystroke_s	s	n/a
81.4325	0.078	162865	keystroke_u	u	n/a
81.5225	0.1345	163045	keystroke_r	r	n/a
81.6005	0.1125	163201	keystroke_e	e	n/a
81.668	0.102	163336	keystroke_Key.space	Key.space	n/a
81.8145	0.1125	163629	keystroke_i	i	n/a
81.882	0.113	163764	keystroke_n	n	n/a
82.0055	0.1015	164011	keystroke_d	d	n/a
82.0955	0.1125	164191	keystroke_i	i	n/a
82.2195	0.101	164439	keystroke_c	c	n/a
82.3995	0.1235	164799	keystroke_a	a	n/a
82.4785	0.112	164957	keystroke_t	t	n/a
82.5795	0.1135	165159	keystroke_o	o	n/a
82.703	0.1015	165406	keystroke_r	r	n/a
82.7935	0.1685	165587	keystroke_Key.space	Key.space	n/a
82.906	0.1125	165812	keystroke_a	a	n/a
83.0295	0.0785	166059	keystroke_t	t	n/a
83.2205	0.124	166441	keystroke_t	t	n/a
83.2995	0.09	166599	keystroke_a	a	n/a
83.4685	0.1125	166937	keystroke_c	c	n/a
83.5935	0.1	167187	keystroke_h	h	n/a
83.6935	0.0675	167387	keystroke_e	e	n/a
83.8735	0.0675	167747	keystroke_d	d	n/a
83.997	0.135	167994	keystroke_Key.space	Key.space	n/a
84.087	0.1125	168174	keystroke_d	d	n/a
84.2335	0.157	168467	keystroke_a	a	n/a
84.3345	0.1125	168669	keystroke_r	r	n/a
84.413	0.09	168826	keystroke_k	k	n/a
84.627	0.101	169254	keystroke_Key.enter	Key.enter	n/a
84.7355	5.1245	169471	prompt	n/a	cams humanity dynamic interracial\n
85.538	0.124	171076	keystroke_c	c	n/a
85.6505	0.1125	171301	keystroke_a	a	n/a
85.7635	0.1125	171527	keystroke_m	m	n/a
85.865	0.09	171730	keystroke_s	s	n/a
85.9655	0.124	171931	keystroke_Key.space	Key.space	n/a
86.2355	0.079	172471	keystroke_h	h	n/a
86.427	0.0675	172854	keystroke_u	u	n/a
86.5955	0.0675	173191	keystroke_m	m	n/a
86.7195	0.124	173439	keystroke_a	a	n/a
86.787	0.124	173574	keystroke_n	n	n/a
86.9	0.0895	173800	keystroke_i	i	n/a
87.0355	0.112	174071	keystroke_t	t	n/a
87.125	0.1125	174250	keystroke_y	y	n/a
87.203	0.09	174406	keystroke_Key.space	Key.space	n/a
87.282	0.101	174564	keystroke_d	d	n/a
87.395	0.0905	174790	keystroke_y	y	n/a
87.5855	0.09	175171	keystroke_n	n	n/a
87.7325	0.1005	175465	keystroke_a	a	n/a
87.7885	0.124	175577	keystroke_m	m	n/a
87.878	0.1125	175756	keystroke_i	i	n/a
87.9685	0.0895	175937	keystroke_c	c	n/a
88.081	0.101	176162	keystroke_Key.space	Key.space	n/a
88.2045	0.1235	176409	keystroke_i	i	n/a
88.261	0.157	176522	keystroke_n	n	n/a
88.3505	0.09	176701	keystroke_t	t	n/a
88.4975	0.1005	176995	keystroke_e	e	n/a
88.576	0.0895	177152	keystroke_r	r	n/a
88.778	0.1125	177556	keystroke_r	r	n/a
88.902	0.1355	177804	keystroke_a	a	n/a
89.2175	0.1015	178435	keystroke_c	c	n/a
89.3305	0.1	178661	keystroke_i	i	n/a
89.443	0.1	178886	keystroke_a	a	n/a
89.5435	0.0895	179087	keystroke_l	l	n/a
89.7575	0.1015	179515	keystroke_Key.enter	Key.enter	n/a
89.8635	4.0345	179727	prompt	n/a	valium prepare saudi mere\n
90.5785	0.1235	181157	keystroke_v	v	n/a
90.713	0.124	181426	keystroke_a	a	n/a
90.8145	0.146	181629	keystroke_l	l	n/a
90.9155	0.1125	181831	keystroke_i	i	n/a
91.04	0.123	182080	keystroke_u	u	n/a
91.321	0.146	182642	keystroke_m	m	n/a
91.4335	0.101	182867	keystroke_Key.space	Key.space	n/a
91.6135	0.1015	183227	keystroke_p	p	n/a
91.703	0.1355	183406	keystroke_r	r	n/a
91.782	0.0905	183564	keystroke_e	e	n/a
91.8605	0.151	183721	keystroke_p	p	n/a
92.0115	0.119	184023	keystroke_a	a	n/a
92.086	0.1575	184172	keystroke_r	r	n/a
92.176	0.1125	184352	keystroke_e	e	n/a
92.2885	0.1465	184577	keystroke_Key.space	Key.space	n/a
92.412	0.114	184824	keystroke_s	s	n/a
92.57	0.146	185140	keystroke_a	a	n/a
92.727	0.0785	185454	keystroke_u	u	n/a
92.8285	0.112	185657	keystroke_d	d	n/a
92.963	0.1245	185926	keystroke_i	i	n/a
93.053	0.135	186106	keystroke_Key.space	Key.space	n/a
93.2785	0.124	186557	keystroke_m	m	n/a
93.357	0.1805	186714	keystroke_e	e	n/a
93.481	0.225	186962	keystroke_r	r	n/a
93.6385	0.124	187277	keystroke_e	e	n/a
93.773	0.124	187546	keystroke_Key.enter	Key.enter	n/a
93.902	3.563	187804	prompt	n/a	ncaa tanks combo apple\n
94.551	0.1565	189102	keystroke_n	n	n/a
94.752	0.0905	189504	keystroke_c	c	n/a
95.034	0.1005	190068	keystroke_a	a	n/a
95.247	0.09	190494	keystroke_a	a	n/a
95.3595	0.1255	190719	keystroke_Key.space	Key.space	n/a
95.4945	0.135	190989	keystroke_t	t	n/a
95.596	0.1125	191192	keystroke_a	a	n/a
95.652	0.135	191304	keystroke_n	n	n/a
95.7535	0.113	191507	keystroke_k	k	n/a
95.832	0.1125	191664	keystroke_s	s	n/a
95.934	0.1235	191868	keystroke_Key.space	Key.space	n/a
96.057	0.1015	192114	keystroke_c	c	n/a
96.147	0.124	192294	keystroke_o	o	n/a
96.203	0.124	192406	keystroke_m	m	n/a
96.338	0.1015	192676	keystroke_b	b	n/a
96.4285	0.112	192857	keystroke_o	o	n/a
96.5185	0.1125	193037	keystroke_Key.space	Key.space	n/a
96.642	0.1235	193284	keystroke_a	a	n/a
96.755	0.079	193510	keystroke_p	p	n/a
96.935	0.078	193870	keystroke_p	p	n/a
97.103	0.113	194206	keystroke_l	l	n/a
97.216	0.1015	194432	keystroke_e	e	n/a
97.3625	0.101	194725	keystroke_Key.enter	Key.enter	n/a
97.4695	4.731	194939	prompt	n/a	aged evil beads referrals\n
98.106	0.1	196212	keystroke_a	a	n/a
98.2395	0.1015	196479	keystroke_g	g	n/a
98.386	0.1125	196772	keystroke_e	e	n/a
98.6045	0.0965	197209	keystroke_d	d	n/a
98.746	0.1125	197492	keystroke_Key.space	Key.space	n/a
98.8475	0.1125	197695	keystroke_e	e	n/a
98.9705	0.1475	197941	keystroke_v	v	n/a
99.106	0.1575	198212	keystroke_i	i	n/a
99.2075	0.146	198415	keystroke_l	l	n/a
99.2975	0.1685	198595	keystroke_Key.space	Key.space	n/a
99.7695	0.068	199539	keystroke_b	b	n/a
100.062	0.068	200124	keystroke_e	e	n/a
100.31	0.112	200620	keystroke_a	a	n/a
100.5235	0.1575	201047	keystroke_d	d	n/a
100.6135	0.1235	201227	keystroke_s	s	n/a
100.771	0.146	201542	keystroke_Key.space	Key.space	n/a
100.906	0.146	201812	keystroke_r	r	n/a
101.0185	0.101	202037	keystroke_e	e	n/a
101.2095	0.09	202419	keystroke_f	f	n/a
101.345	0.1345	202690	keystroke_e	e	n/a
101.4345	0.09	202869	keystroke_r	r	n/a
101.6145	0.1475	203229	keystroke_r	r	n/a
101.728	0.1005	203456	keystroke_a	a	n/a
101.817	0.124	203634	keystroke_l	l	n/a
101.941	0.101	203882	keystroke_s	s	n/a
102.076	0.1235	204152	keystroke_Key.enter	Key.enter	n/a
102.204	5.464	204408	prompt	n/a	susan yukon characterized europe\n
102.931	0.1145	205862	keystroke_s	s	n/a
103.0785	0.1225	206157	keystroke_u	u	n/a
103.1785	0.101	206357	keystroke_s	s	n/a
103.336	0.135	206672	keystroke_a	a	n/a
103.4485	0.1235	206897	keystroke_n	n	n/a
103.531	0.099	207062	keystroke_Key.space	Key.space	n/a
103.7185	0.1015	207437	keystroke_y	y	n/a
103.9435	0.09	207887	keystroke_u	u	n/a
104.1685	0.1125	208337	keystroke_k	k	n/a
104.45	0.1575	208900	keystroke_o	o	n/a
104.54	0.1795	209080	keystroke_n	n	n/a
104.652	0.1585	209304	keystroke_Key.space	Key.space	n/a
105.0125	0.101	210025	keystroke_c	c	n/a
105.125	0.101	210250	keystroke_h	h	n/a
105.2375	0.1015	210475	keystroke_a	a	n/a
105.2935	0.169	210587	keystroke_r	r	n/a
105.4285	0.1125	210857	keystroke_a	a	n/a
105.62	0.101	211240	keystroke_c	c	n/a
105.7895	0.123	211579	keystroke_t	t	n/a
105.923	0.1245	211846	keystroke_e	e	n/a
106.0135	0.1235	212027	keystroke_r	r	n/a
106.16	0.135	212320	keystroke_i	i	n/a
106.295	0.1235	212590	keystroke_z	z	n/a
106.3735	0.1125	212747	keystroke_e	e	n/a
106.576	0.09	213152	keystroke_d	d	n/a
106.689	0.134	213378	keystroke_Key.space	Key.space	n/a
106.812	0.09	213624	keystroke_e	e	n/a
106.914	0.112	213828	keystroke_u	u	n/a
107.037	0.1355	214074	keystroke_r	r	n/a
107.139	0.168	214278	keystroke_o	o	n/a
107.2285	0.135	214457	keystroke_p	p	n/a
107.3745	0.09	214749	keystroke_e	e	n/a
107.566	0.101	215132	keystroke_Key.enter	Key.enter	n/a
107.6715	5.7795	215343	prompt	n/a	prepare paxil departments inter\n
108.3195	0.124	216639	keystroke_p	p	n/a
108.4325	0.1235	216865	keystroke_r	r	n/a
108.4995	0.1465	216999	keystroke_e	e	n/a
108.6125	0.135	217225	keystroke_p	p	n/a
108.9045	0.18	217809	keystroke_a	a	n/a
109.141	0.1795	218282	keystroke_r	r	n/a
109.2535	0.1235	218507	keystroke_e	e	n/a
109.422	0.1355	218844	keystroke_Key.space	Key.space	n/a
109.5805	0.1345	219161	keystroke_p	p	n/a
109.67	0.0895	219340	keystroke_a	a	n/a
109.8725	0.1005	219745	keystroke_x	x	n/a
109.951	0.191	219902	keystroke_i	i	n/a
110.052	0.1465	220104	keystroke_l	l	n/a
110.176	0.1235	220352	keystroke_Key.space	Key.space	n/a
110.413	0.078	220826	keystroke_d	d	n/a
110.6035	0.067	221207	keystroke_e	e	n/a
110.716	0.1685	221432	keystroke_p	p	n/a
110.795	0.1355	221590	keystroke_a	a	n/a
110.897	0.0665	221794	keystroke_r	r	n/a
111.042	0.1125	222084	keystroke_t	t	n/a
111.1995	0.045	222399	keystroke_n	n	n/a
111.5595	0.0675	223119	keystroke_Key.backspace	Key.backspace	n/a
111.7975	0.077	223595	keystroke_m	m	n/a
111.9535	0.1345	223907	keystroke_e	e	n/a
112.066	0.135	224132	keystroke_n	n	n/a
112.2135	0.1225	224427	keystroke_t	t	n/a
112.2685	0.135	224537	keystroke_s	s	n/a
112.3475	0.112	224695	keystroke_Key.space	Key.space	n/a
112.472	0.179	224944	keystroke_i	i	n/a
112.5495	0.181	225099	keystroke_n	n	n/a
112.6845	0.124	225369	keystroke_t	t	n/a
112.9545	0.135	225909	keystroke_e	e	n/a
113.0445	0.1465	226089	keystroke_r	r	n/a
113.326	0.1235	226652	keystroke_Key.enter	Key.enter	n/a
113.454	3.9455	226908	prompt	n/a	turkish safely drugs silly\n
114.2035	0.113	228407	keystroke_t	t	n/a
114.3385	0.101	228677	keystroke_u	u	n/a
114.4285	0.135	228857	keystroke_r	r	n/a
114.5415	0.0895	229083	keystroke_k	k	n/a
114.811	0.0115	229622	keystroke_i	i	n/a
114.8335	0.079	229667	keystroke_s	s	n/a
114.8895	0.1355	229779	keystroke_h	h	n/a
114.9685	0.1235	229937	keystroke_Key.space	Key.space	n/a
115.0585	0.0785	230117	keystroke_s	s	n/a
115.1595	0.1125	230319	keystroke_a	a	n/a
115.261	0.147	230522	keystroke_f	f	n/a
115.351	0.101	230702	keystroke_e	e	n/a
115.587	0.18	231174	keystroke_l	l	n/a
115.6545	0.135	231309	keystroke_y	y	n/a
115.711	0.1125	231422	keystroke_Key.space	Key.space	n/a
115.8685	0.1235	231737	keystroke_d	d	n/a
116.0485	0.1125	232097	keystroke_r	r	n/a
116.172	0.1025	232344	keystroke_u	u	n/a
116.308	0.134	232616	keystroke_g	g	n/a
116.3635	0.1015	232727	keystroke_s	s	n/a
116.476	0.1125	232952	keystroke_Key.space	Key.space	n/a
116.5885	0.101	233177	keystroke_s	s	n/a
116.667	0.169	233334	keystroke_i	i	n/a
116.78	0.0895	233560	keystroke_l	l	n/a
116.982	0.135	233964	keystroke_l	l	n/a
117.0835	0.0785	234167	keystroke_y	y	n/a
117.297	0.1015	234594	keystroke_Key.enter	Key.enter	n/a
117.402	6.455	234804	prompt	n/a	central privilege sleeping interesting\n
118.0845	0.09	236169	keystroke_c	c	n/a
118.2985	0.0675	236597	keystroke_e	e	n/a
118.4	0.101	236800	keystroke_n	n	n/a
118.4895	0.102	236979	keystroke_t	t	n/a
118.6695	0.158	237339	keystroke_r	r	n/a
118.7485	0.135	237497	keystroke_a	a	n/a
118.827	0.135	237654	keystroke_l	l	n/a
118.917	0.113	237834	keystroke_Key.space	Key.space	n/a
119.052	0.1465	238104	keystroke_p	p	n/a
119.187	0.09	238374	keystroke_r	r	n/a
119.2885	0.135	238577	keystroke_i	i	n/a
119.3895	0.1015	238779	keystroke_v	v	n/a
120.0535	0.08	240107	keystroke_i	i	n/a
120.256	0.135	240512	keystroke_l	l	n/a
120.571	0.1135	241142	keystroke_e	e	n/a
120.841	0.146	241682	keystroke_g	g	n/a
120.976	0.1015	241952	keystroke_e	e	n/a
121.145	0.1125	242290	keystroke_Key.space	Key.space	n/a
121.291	0.1125	242582	keystroke_s	s	n/a
121.3925	0.1245	242785	keystroke_l	l	n/a
121.551	0.0775	243102	keystroke_e	e	n/a
121.73	0.101	243460	keystroke_e	e	n/a
121.82	0.1155	243640	keystroke_p	p	n/a
121.9775	0.1345	243955	keystroke_i	i	n/a
122.056	0.1125	244112	keystroke_n	n	n/a
122.146	0.09	244292	keystroke_g	g	n/a
122.2475	0.1235	244495	keystroke_Key.space	Key.space	n/a
122.416	0.124	244832	keystroke_i	i	n/a
122.4735	0.145	244947	keystroke_n	n	n/a
122.596	0.101	245192	keystroke_t	t	n/a
122.731	0.124	245462	keystroke_e	e	n/a
122.834	0.246	245668	keystroke_r	r	n/a
122.956	0.18	245912	keystroke_e	e	n/a
123.091	0.2025	246182	keystroke_s	s	n/a
123.2375	0.1135	246475	keystroke_t	t	n/a
123.3275	0.1345	246655	keystroke_i	i	n/a
123.3945	0.1355	246789	keystroke_n	n	n/a
123.5185	0.1015	247037	keystroke_g	g	n/a
123.755	0.101	247510	keystroke_Key.enter	Key.enter	n/a
123.8605	4.913	247721	prompt	n/a	airport shell stadium moscow\n
124.475	0.1125	248950	keystroke_a	a	n/a
124.5985	0.1125	249197	keystroke_i	i	n/a
124.7	0.1135	249400	keystroke_r	r	n/a
124.801	0.169	249602	keystroke_p	p	n/a
124.925	0.1345	249850	keystroke_o	o	n/a
125.026	0.0785	250052	keystroke_r	r	n/a
125.1835	0.1235	250367	keystroke_t	t	n/a
125.2965	0.1005	250593	keystroke_Key.space	Key.space	n/a
125.3525	0.1235	250705	keystroke_s	s	n/a
125.487	0.1135	250974	keystroke_h	h	n/a
125.5885	0.1125	251177	keystroke_e	e	n/a
125.7135	0.055	251427	keystroke_l	l	n/a
125.892	0.1125	251784	keystroke_l	l	n/a
125.937	0.1575	251874	keystroke_Key.space	Key.space	n/a
126.027	0.0905	252054	keystroke_s	s	n/a
126.106	0.101	252212	keystroke_t	t	n/a
126.23	0.124	252460	keystroke_a	a	n/a
126.3195	0.1125	252639	keystroke_t	t	n/a
126.725	0.067	253450	keystroke_Key.backspace	Key.backspace	n/a
126.905	0.1125	253810	keystroke_d	d	n/a
127.0395	0.135	254079	keystroke_i	i	n/a
127.186	0.1235	254372	keystroke_u	u	n/a
127.4225	0.146	254845	keystroke_m	m	n/a
127.501	0.135	255002	keystroke_Key.space	Key.space	n/a
127.726	0.135	255452	keystroke_m	m	n/a
127.828	0.123	255656	keystroke_o	o	n/a
127.9635	0.089	255927	keystroke_s	s	n/a
128.176	0.1125	256352	keystroke_c	c	n/a
128.311	0.124	256622	keystroke_o	o	n/a
128.446	0.09	256892	keystroke_w	w	n/a
128.66	0.1125	257320	keystroke_Key.enter	Key.enter	n/a
128.7765	5.262	257553	prompt	n/a	diameter cabinet workflow third\n
129.436	0.09	258872	keystroke_d	d	n/a
129.6165	0.112	259233	keystroke_i	i	n/a
129.7625	0.1125	259525	keystroke_a	a	n/a
129.897	0.136	259794	keystroke_m	m	n/a
130.021	0.18	260042	keystroke_e	e	n/a
130.191	0.168	260382	keystroke_t	t	n/a
130.3485	0.145	260697	keystroke_e	e	n/a
130.4485	0.135	260897	keystroke_r	r	n/a
130.606	0.136	261212	keystroke_Key.space	Key.space	n/a
130.7305	0.1005	261461	keystroke_c	c	n/a
130.8985	0.1015	261797	keystroke_a	a	n/a
131.045	0.1235	262090	keystroke_b	b	n/a
131.1585	0.1675	262317	keystroke_i	i	n/a
131.236	0.18	262472	keystroke_n	n	n/a
131.427	0.1015	262854	keystroke_e	e	n/a
131.642	0.1005	263284	keystroke_t	t	n/a
131.7535	0.124	263507	keystroke_Key.space	Key.space	n/a
131.9785	0.0905	263957	keystroke_w	w	n/a
132.0795	0.1015	264159	keystroke_o	o	n/a
132.1925	0.112	264385	keystroke_r	r	n/a
132.2935	0.09	264587	keystroke_k	k	n/a
132.4285	0.113	264857	keystroke_f	f	n/a
132.542	0.078	265084	keystroke_l	l	n/a
132.7325	0.079	265465	keystroke_o	o	n/a
132.8	0.101	265600	keystroke_w	w	n/a
132.925	0.111	265850	keystroke_Key.space	Key.space	n/a
133.0475	0.146	266095	keystroke_t	t	n/a
133.171	0.147	266342	keystroke_h	h	n/a
133.306	0.124	266612	keystroke_i	i	n/a
133.419	0.191	266838	keystroke_r	r	n/a
133.554	0.123	267108	keystroke_d	d	n/a
133.9365	0.101	267873	keystroke_Key.enter	Key.enter	n/a
134.0435	5.991	268087	prompt	n/a	implement facility mild regulations\n
134.701	0.147	269402	keystroke_i	i	n/a
134.792	0.168	269584	keystroke_m	m	n/a
134.915	0.101	269830	keystroke_p	p	n/a
135.1065	0.1125	270213	keystroke_l	l	n/a
135.242	0.0895	270484	keystroke_e	e	n/a
135.354	0.101	270708	keystroke_m	m	n/a
135.4665	0.101	270933	keystroke_e	e	n/a
135.5785	0.113	271157	keystroke_n	n	n/a
135.68	0.102	271360	keystroke_t	t	n/a
135.77	0.1575	271540	keystroke_Key.space	Key.space	n/a
136.006	0.1355	272012	keystroke_f	f	n/a
136.0965	0.112	272193	keystroke_a	a	n/a
136.276	0.113	272552	keystroke_c	c	n/a
136.389	0.1235	272778	keystroke_i	i	n/a
136.5915	0.157	273183	keystroke_l	l	n/a
136.6925	0.101	273385	keystroke_i	i	n/a
136.85	0.101	273700	keystroke_t	t	n/a
136.9405	0.112	273881	keystroke_y	y	n/a
137.0185	0.1015	274037	keystroke_Key.space	Key.space	n/a
137.2215	0.0895	274443	keystroke_m	m	n/a
137.3785	0.124	274757	keystroke_i	i	n/a
137.57	0.1235	275140	keystroke_l	l	n/a
137.7385	0.09	275477	keystroke_d	d	n/a
137.84	0.135	275680	keystroke_Key.space	Key.space	n/a
137.998	0.123	275996	keystroke_r	r	n/a
138.065	0.1235	276130	keystroke_e	e	n/a
138.3125	0.079	276625	keystroke_g	g	n/a
138.4025	0.1235	276805	keystroke_u	u	n/a
138.571	0.1465	277142	keystroke_l	l	n/a
138.7285	0.1575	277457	keystroke_a	a	n/a
138.865	0.145	277730	keystroke_t	t	n/a
139.0325	0.1575	278065	keystroke_i	i	n/a
139.1675	0.169	278335	keystroke_o	o	n/a
139.292	0.1455	278584	keystroke_n	n	n/a
139.505	0.1125	279010	keystroke_s	s	n/a
139.91	0.1235	279820	keystroke_Key.enter	Key.enter	n/a
140.0375	4.8235	280075	prompt	n/a	climate sending section sorted\n
140.7535	0.124	281507	keystroke_c	c	n/a
140.8665	0.158	281733	keystroke_l	l	n/a
140.9575	0.168	281915	keystroke_i	i	n/a
141.058	0.1795	282116	keystroke_m	m	n/a
141.2265	0.1235	282453	keystroke_a	a	n/a
141.361	0.1475	282722	keystroke_t	t	n/a
141.4515	0.101	282903	keystroke_e	e	n/a
141.586	0.124	283172	keystroke_Key.space	Key.space	n/a
141.7215	0.1125	283443	keystroke_s	s	n/a
141.9125	0.1465	283825	keystroke_e	e	n/a
142.0475	0.1235	284095	keystroke_n	n	n/a
142.1825	0.09	284365	keystroke_d	d	n/a
142.2835	0.1125	284567	keystroke_i	i	n/a
142.3515	0.112	284703	keystroke_n	n	n/a
142.43	0.1125	284860	keystroke_g	g	n/a
142.5535	0.158	285107	keystroke_Key.space	Key.space	n/a
142.711	0.124	285422	keystroke_s	s	n/a
142.7675	0.1235	285535	keystroke_e	e	n/a
143.0265	0.0785	286053	keystroke_c	c	n/a
143.2175	0.1125	286435	keystroke_t	t	n/a
143.3525	0.2365	286705	keystroke_i	i	n/a
143.465	0.135	286930	keystroke_o	o	n/a
143.5325	0.158	287065	keystroke_n	n	n/a
143.6225	0.1125	287245	keystroke_Key.space	Key.space	n/a
143.7465	0.1125	287493	keystroke_s	s	n/a
143.8925	0.101	287785	keystroke_o	o	n/a
144.016	0.079	288032	keystroke_r	r	n/a
144.1965	0.1235	288393	keystroke_t	t	n/a
144.264	0.112	288528	keystroke_e	e	n/a
144.4775	0.09	288955	keystroke_d	d	n/a
144.736	0.124	289472	keystroke_Key.enter	Key.enter	n/a
144.866	7.1165	289732	prompt	n/a	phoenix modern telescope sandy\n
145.625	0.1125	291250	keystroke_p	p	n/a
145.805	0.135	291610	keystroke_h	h	n/a
146.616	0.123	293232	keystroke_e	e	n/a
146.795	0.1015	293590	keystroke_o	o	n/a
147.02	0.101	294040	keystroke_n	n	n/a
147.155	0.1125	294310	keystroke_i	i	n/a
147.29	0.1125	294580	keystroke_x	x	n/a
147.4025	0.1685	294805	keystroke_Key.space	Key.space	n/a
147.516	0.145	295032	keystroke_m	m	n/a
147.605	0.146	295210	keystroke_o	o	n/a
147.74	0.09	295480	keystroke_d	d	n/a
147.9425	0.1355	295885	keystroke_e	e	n/a
148.021	0.1355	296042	keystroke_r	r	n/a
148.1115	0.157	296223	keystroke_n	n	n/a
148.2125	0.1575	296425	keystroke_Key.space	Key.space	n/a
149.608	0.112	299216	keystroke_t	t	n/a
149.731	0.1125	299462	keystroke_e	e	n/a
149.9005	0.135	299801	keystroke_l	l	n/a
149.9785	0.135	299957	keystroke_e	e	n/a
150.193	0.101	300386	keystroke_s	s	n/a
150.4085	0.122	300817	keystroke_c	c	n/a
150.519	0.1795	301038	keystroke_o	o	n/a
150.631	0.1125	301262	keystroke_p	p	n/a
150.721	0.0905	301442	keystroke_e	e	n/a
150.8225	0.1805	301645	keystroke_Key.space	Key.space	n/a
151.0135	0.169	302027	keystroke_s	s	n/a
151.2055	0.136	302411	keystroke_a	a	n/a
151.329	0.101	302658	keystroke_n	n	n/a
151.4525	0.101	302905	keystroke_d	d	n/a
151.61	0.09	303220	keystroke_y	y	n/a
151.8915	0.0895	303783	keystroke_Key.enter	Key.enter	n/a
151.985	4.0925	303970	prompt	n/a	diffs sand enabling canyon\n
152.499	0.09	304998	keystroke_d	d	n/a
152.6675	0.091	305335	keystroke_i	i	n/a
152.725	0.0775	305450	keystroke_f	f	n/a
152.9265	0.1235	305853	keystroke_f	f	n/a
153.005	0.1125	306010	keystroke_s	s	n/a
153.1415	0.1445	306283	keystroke_Key.space	Key.space	n/a
153.275	0.1015	306550	keystroke_s	s	n/a
153.4215	0.112	306843	keystroke_a	a	n/a
153.534	0.112	307068	keystroke_n	n	n/a
153.625	0.1005	307250	keystroke_d	d	n/a
153.7255	0.101	307451	keystroke_Key.space	Key.space	n/a
153.86	0.09	307720	keystroke_e	e	n/a
153.9385	0.1245	307877	keystroke_n	n	n/a
154.075	0.1345	308150	keystroke_a	a	n/a
154.1975	0.1235	308395	keystroke_b	b	n/a
154.333	0.2025	308666	keystroke_l	l	n/a
154.4115	0.158	308823	keystroke_i	i	n/a
154.5015	0.124	309003	keystroke_n	n	n/a
154.569	0.1015	309138	keystroke_g	g	n/a
154.715	0.1575	309430	keystroke_Key.space	Key.space	n/a
155.0975	0.0905	310195	keystroke_c	c	n/a
155.1875	0.1355	310375	keystroke_a	a	n/a
155.3115	0.0785	310623	keystroke_n	n	n/a
155.514	0.1125	311028	keystroke_y	y	n/a
155.66	0.1465	311320	keystroke_o	o	n/a
155.773	0.101	311546	keystroke_n	n	n/a
155.9865	0.09	311973	keystroke_Key.enter	Key.enter	n/a
156.0805	5.757	312161	prompt	n/a	supposed vernon commonly freelance\n
156.729	0.1125	313458	keystroke_s	s	n/a
156.8525	0.124	313705	keystroke_u	u	n/a
156.954	0.101	313908	keystroke_p	p	n/a
157.168	0.1685	314336	keystroke_p	p	n/a
157.2465	0.18	314493	keystroke_o	o	n/a
157.3815	0.1125	314763	keystroke_s	s	n/a
157.4375	0.1015	314875	keystroke_e	e	n/a
157.641	0.0675	315282	keystroke_d	d	n/a
157.7305	0.1685	315461	keystroke_Key.space	Key.space	n/a
157.8655	0.0895	315731	keystroke_v	v	n/a
158.0225	0.113	316045	keystroke_e	e	n/a
158.1015	0.124	316203	keystroke_r	r	n/a
158.4165	0.1125	316833	keystroke_n	n	n/a
158.608	0.1235	317216	keystroke_o	o	n/a
158.6975	0.1575	317395	keystroke_n	n	n/a
158.8215	0.1235	317643	keystroke_Key.space	Key.space	n/a
159.08	0.1125	318160	keystroke_c	c	n/a
159.204	0.191	318408	keystroke_o	o	n/a
159.429	0.146	318858	keystroke_m	m	n/a
159.7105	0.113	319421	keystroke_m	m	n/a
159.9125	0.124	319825	keystroke_o	o	n/a
159.9915	0.1125	319983	keystroke_n	n	n/a
160.205	0.158	320410	keystroke_l	l	n/a
160.273	0.1345	320546	keystroke_y	y	n/a
160.341	0.125	320682	keystroke_Key.space	Key.space	n/a
160.4865	0.0905	320973	keystroke_f	f	n/a
160.689	0.101	321378	keystroke_r	r	n/a
160.7455	0.0895	321491	keystroke_e	e	n/a
160.914	0.101	321828	keystroke_e	e	n/a
161.0375	0.124	322075	keystroke_l	l	n/a
161.1725	0.1015	322345	keystroke_a	a	n/a
161.285	0.126	322570	keystroke_n	n	n/a
161.3865	0.0905	322773	keystroke_c	c	n/a
161.6115	0.056	323223	keystroke_e	e	n/a
161.7125	0.124	323425	keystroke_Key.enter	Key.enter	n/a
161.8405	4.4865	323681	prompt	n/a	trailer any oklahoma caught\n
162.5225	0.079	325045	keystroke_t	t	n/a
162.7025	0.158	325405	keystroke_r	r	n/a
162.7815	0.1235	325563	keystroke_a	a	n/a
162.8715	0.191	325743	keystroke_i	i	n/a
162.984	0.146	325968	keystroke_l	l	n/a
163.04	0.1575	326080	keystroke_e	e	n/a
163.1415	0.1235	326283	keystroke_r	r	n/a
163.2315	0.1235	326463	keystroke_Key.space	Key.space	n/a
163.378	0.101	326756	keystroke_a	a	n/a
163.4675	0.09	326935	keystroke_n	n	n/a
163.67	0.1125	327340	keystroke_y	y	n/a
163.7375	0.1125	327475	keystroke_Key.space	Key.space	n/a
163.8615	0.1235	327723	keystroke_o	o	n/a
164.0975	0.09	328195	keystroke_k	k	n/a
164.605	0.145	329210	keystroke_l	l	n/a
164.784	0.1125	329568	keystroke_a	a	n/a
164.9075	0.124	329815	keystroke_h	h	n/a
165.02	0.1465	330040	keystroke_o	o	n/a
165.1215	0.124	330243	keystroke_m	m	n/a
165.2565	0.09	330513	keystroke_a	a	n/a
165.3355	0.146	330671	keystroke_Key.space	Key.space	n/a
165.4815	0.1125	330963	keystroke_c	c	n/a
165.65	0.1015	331300	keystroke_a	a	n/a
165.7515	0.0675	331503	keystroke_u	u	n/a
165.864	0.101	331728	keystroke_g	g	n/a
165.9545	0.0895	331909	keystroke_h	h	n/a
166.0775	0.1015	332155	keystroke_t	t	n/a
166.2125	0.1125	332425	keystroke_Key.enter	Key.enter	n/a
166.33	5.6555	332660	prompt	n/a	brutal million physically determines\n
167.045	0.09	334090	keystroke_b	b	n/a
167.2815	0.101	334563	keystroke_r	r	n/a
167.4165	0.1125	334833	keystroke_u	u	n/a
167.5175	0.1575	335035	keystroke_t	t	n/a
167.664	0.124	335328	keystroke_a	a	n/a
167.743	0.135	335486	keystroke_l	l	n/a
167.844	0.1125	335688	keystroke_Key.space	Key.space	n/a
167.9675	0.1575	335935	keystroke_m	m	n/a
168.1145	0.1685	336229	keystroke_i	i	n/a
168.227	0.1235	336454	keystroke_l	l	n/a
168.452	0.112	336904	keystroke_l	l	n/a
168.6315	0.191	337263	keystroke_i	i	n/a
168.767	0.168	337534	keystroke_o	o	n/a
168.8675	0.1575	337735	keystroke_n	n	n/a
168.98	0.158	337960	keystroke_Key.space	Key.space	n/a
169.295	0.1245	338590	keystroke_p	p	n/a
169.385	0.1195	338770	keystroke_h	h	n/a
169.599	0.079	339198	keystroke_y	y	n/a
169.7565	0.0905	339513	keystroke_s	s	n/a
169.8355	0.1345	339671	keystroke_i	i	n/a
169.982	0.1345	339964	keystroke_c	c	n/a
170.105	0.147	340210	keystroke_a	a	n/a
170.2405	0.0565	340481	keystroke_l	l	n/a
170.432	0.1575	340864	keystroke_l	l	n/a
170.488	0.1345	340976	keystroke_y	y	n/a
170.5445	0.1345	341089	keystroke_Key.space	Key.space	n/a
170.645	0.09	341290	keystroke_d	d	n/a
170.8365	0.0785	341673	keystroke_e	e	n/a
170.9715	0.113	341943	keystroke_t	t	n/a
171.118	0.135	342236	keystroke_e	e	n/a
171.2195	0.1005	342439	keystroke_r	r	n/a
171.298	0.101	342596	keystroke_m	m	n/a
171.433	0.1235	342866	keystroke_i	i	n/a
171.5115	0.1355	343023	keystroke_n	n	n/a
171.59	0.1695	343180	keystroke_e	e	n/a
171.6925	0.1345	343385	keystroke_s	s	n/a
171.883	0.1015	343766	keystroke_Key.enter	Key.enter	n/a
171.9885	5.8355	343977	prompt	n/a	rising physically shaped disorders\n
172.6815	0.1235	345363	keystroke_r	r	n/a
172.8165	0.113	345633	keystroke_i	i	n/a
172.9175	0.1125	345835	keystroke_s	s	n/a
173.0425	0.1565	346085	keystroke_i	i	n/a
173.132	0.135	346264	keystroke_n	n	n/a
173.2445	0.101	346489	keystroke_g	g	n/a
173.3225	0.1125	346645	keystroke_Key.space	Key.space	n/a
173.5145	0.123	347029	keystroke_p	p	n/a
173.593	0.0785	347186	keystroke_h	h	n/a
173.7955	0.0675	347591	keystroke_y	y	n/a
173.919	0.113	347838	keystroke_s	s	n/a
174.0315	0.1125	348063	keystroke_i	i	n/a
174.1555	0.135	348311	keystroke_c	c	n/a
174.2905	0.1125	348581	keystroke_a	a	n/a
174.393	0.0885	348786	keystroke_l	l	n/a
174.594	0.135	349188	keystroke_l	l	n/a
174.64	0.123	349280	keystroke_y	y	n/a
174.696	0.1235	349392	keystroke_Key.space	Key.space	n/a
174.9205	0.101	349841	keystroke_s	s	n/a
175.044	0.1015	350088	keystroke_h	h	n/a
175.179	0.124	350358	keystroke_a	a	n/a
175.314	0.1125	350628	keystroke_p	p	n/a
175.404	0.1015	350808	keystroke_e	e	n/a
175.607	0.079	351214	keystroke_d	d	n/a
175.7305	0.09	351461	keystroke_Key.space	Key.space	n/a
175.843	0.056	351686	keystroke_s	s	n/a
176.2145	0.101	352429	keystroke_Key.backspace	Key.backspace	n/a
176.462	0.112	352924	keystroke_d	d	n/a
176.586	0.0895	353172	keystroke_i	i	n/a
176.6865	0.1235	353373	keystroke_s	s	n/a
176.8445	0.0895	353689	keystroke_o	o	n/a
176.9565	0.147	353913	keystroke_r	r	n/a
177.092	0.101	354184	keystroke_d	d	n/a
177.2945	0.112	354589	keystroke_e	e	n/a
177.373	0.2025	354746	keystroke_r	r	n/a
177.531	0.1235	355062	keystroke_s	s	n/a
177.711	0.1115	355422	keystroke_Key.enter	Key.enter	n/a
177.8285	4.507	355657	prompt	n/a	anniversary revenge remix coin\n
178.3965	0.147	356793	keystroke_a	a	n/a
178.5315	0.09	357063	keystroke_n	n	n/a
178.7115	0.1125	357423	keystroke_n	n	n/a
178.813	0.1235	357626	keystroke_i	i	n/a
178.948	0.079	357896	keystroke_v	v	n/a
179.1055	0.101	358211	keystroke_e	e	n/a
179.184	0.1695	358368	keystroke_r	r	n/a
179.3085	0.0895	358617	keystroke_s	s	n/a
179.5665	0.1465	359133	keystroke_a	a	n/a
179.679	0.1245	359358	keystroke_r	r	n/a
179.7805	0.1575	359561	keystroke_y	y	n/a
179.8705	0.1245	359741	keystroke_Key.space	Key.space	n/a
180.062	0.1345	360124	keystroke_r	r	n/a
180.163	0.079	360326	keystroke_e	e	n/a
180.354	0.0675	360708	keystroke_v	v	n/a
180.4555	0.124	360911	keystroke_e	e	n/a
180.602	0.113	361204	keystroke_n	n	n/a
180.7145	0.1235	361429	keystroke_g	g	n/a
180.8045	0.0785	361609	keystroke_e	e	n/a
180.883	0.1235	361766	keystroke_Key.space	Key.space	n/a
181.029	0.1575	362058	keystroke_r	r	n/a
181.1195	0.1235	362239	keystroke_e	e	n/a
181.198	0.135	362396	keystroke_m	m	n/a
181.2995	0.135	362599	keystroke_i	i	n/a
181.4005	0.1125	362801	keystroke_x	x	n/a
181.5355	0.1235	363071	keystroke_Key.space	Key.space	n/a
181.682	0.135	363364	keystroke_c	c	n/a
181.783	0.214	363566	keystroke_o	o	n/a
181.873	0.1575	363746	keystroke_i	i	n/a
181.952	0.1345	363904	keystroke_n	n	n/a
182.233	0.101	364466	keystroke_Key.enter	Key.enter	n/a
182.339	6.195	364678	prompt	n/a	throw survivor tomatoes referenced\n
183.009	0.1035	366018	keystroke_t	t	n/a
183.122	0.101	366244	keystroke_h	h	n/a
183.2345	0.146	366469	keystroke_r	r	n/a
183.358	0.09	366716	keystroke_o	o	n/a
183.4815	0.091	366963	keystroke_w	w	n/a
183.5835	0.1125	367167	keystroke_Key.space	Key.space	n/a
183.696	0.101	367392	keystroke_s	s	n/a
183.8415	0.09	367683	keystroke_u	u	n/a
183.9205	0.0785	367841	keystroke_r	r	n/a
184.1235	0.078	368247	keystroke_v	v	n/a
184.224	0.0795	368448	keystroke_i	i	n/a
184.3145	0.112	368629	keystroke_v	v	n/a
184.438	0.102	368876	keystroke_o	o	n/a
184.5845	0.101	369169	keystroke_r	r	n/a
184.686	0.1345	369372	keystroke_Key.space	Key.space	n/a
184.832	0.1125	369664	keystroke_t	t	n/a
184.923	0.134	369846	keystroke_o	o	n/a
185.0005	0.1465	370001	keystroke_m	m	n/a
185.158	0.1015	370316	keystroke_a	a	n/a
185.237	0.1365	370474	keystroke_t	t	n/a
185.407	0.1115	370814	keystroke_o	o	n/a
185.518	0.214	371036	keystroke_e	e	n/a
185.6645	0.1345	371329	keystroke_s	s	n/a
185.8105	0.1575	371621	keystroke_Key.space	Key.space	n/a
185.9905	0.135	371981	keystroke_r	r	n/a
186.092	0.1345	372184	keystroke_e	e	n/a
186.2495	0.058	372499	keystroke_e	e	n/a
186.486	0.112	372972	keystroke_f	f	n/a
186.868	0.0785	373736	keystroke_Key.backspace	Key.backspace	n/a
187.0705	0.0785	374141	keystroke_Key.backspace	Key.backspace	n/a
187.161	0.101	374322	keystroke_f	f	n/a
187.3745	0.1125	374749	keystroke_e	e	n/a
187.442	0.1815	374884	keystroke_r	r	n/a
187.5765	0.1135	375153	keystroke_e	e	n/a
187.746	0.112	375492	keystroke_n	n	n/a
187.8695	0.09	375739	keystroke_c	c	n/a
188.0945	0.0685	376189	keystroke_e	e	n/a
188.2855	0.0675	376571	keystroke_d	d	n/a
188.432	0.101	376864	keystroke_Key.enter	Key.enter	n/a
188.5375	6.443	377075	prompt	n/a	philosophy submitted parameter vampire\n
189.2315	0.134	378463	keystroke_p	p	n/a
189.411	0.1235	378822	keystroke_h	h	n/a
189.5905	0.1355	379181	keystroke_i	i	n/a
189.9395	0.09	379879	keystroke_l	l	n/a
190.153	0.1015	380306	keystroke_o	o	n/a
190.345	0.0895	380690	keystroke_s	s	n/a
190.446	0.1375	380892	keystroke_o	o	n/a
190.616	0.1675	381232	keystroke_p	p	n/a
190.7385	0.0785	381477	keystroke_h	h	n/a
190.9295	0.104	381859	keystroke_y	y	n/a
191.0085	0.101	382017	keystroke_Key.space	Key.space	n/a
191.1	0.111	382200	keystroke_s	s	n/a
191.222	0.1125	382444	keystroke_u	u	n/a
191.368	0.101	382736	keystroke_b	b	n/a
191.492	0.135	382984	keystroke_m	m	n/a
191.5935	0.146	383187	keystroke_i	i	n/a
191.6835	0.1125	383367	keystroke_t	t	n/a
191.908	0.125	383816	keystroke_t	t	n/a
191.9755	0.101	383951	keystroke_e	e	n/a
192.1895	0.067	384379	keystroke_d	d	n/a
192.313	0.1015	384626	keystroke_Key.space	Key.space	n/a
192.4885	0.1395	384977	keystroke_p	p	n/a
192.5605	0.124	385121	keystroke_a	a	n/a
192.651	0.191	385302	keystroke_r	r	n/a
192.808	0.0915	385616	keystroke_a	a	n/a
192.9205	0.1355	385841	keystroke_m	m	n/a
193.0225	0.146	386045	keystroke_e	e	n/a
193.135	0.1565	386270	keystroke_t	t	n/a
193.2695	0.1475	386539	keystroke_e	e	n/a
193.383	0.134	386766	keystroke_r	r	n/a
193.528	0.135	387056	keystroke_Key.space	Key.space	n/a
193.9105	0.1125	387821	keystroke_v	v	n/a
194.0345	0.1355	388069	keystroke_a	a	n/a
194.1355	0.1695	388271	keystroke_m	m	n/a
194.2935	0.112	388587	keystroke_p	p	n/a
194.473	0.1235	388946	keystroke_i	i	n/a
194.608	0.158	389216	keystroke_r	r	n/a
194.7095	0.124	389419	keystroke_e	e	n/a
194.867	0.112	389734	keystroke_Key.enter	Key.enter	n/a
194.9845	6.9715	389969	prompt	n/a	partial autumn sync dairy\n
195.5755	0.169	391151	keystroke_p	p	n/a
195.7105	0.124	391421	keystroke_a	a	n/a
195.7895	0.09	391579	keystroke_r	r	n/a
195.9805	0.1015	391961	keystroke_t	t	n/a
196.093	0.1125	392186	keystroke_i	i	n/a
196.228	0.101	392456	keystroke_a	a	n/a
196.318	0.1355	392636	keystroke_l	l	n/a
196.397	0.1235	392794	keystroke_Key.space	Key.space	n/a
196.4985	0.1015	392997	keystroke_a	a	n/a
197.016	0.1235	394032	keystroke_u	u	n/a
197.252	0.135	394504	keystroke_t	t	n/a
197.432	0.09	394864	keystroke_u	u	n/a
197.6245	0.067	395249	keystroke_m	m	n/a
197.792	0.124	395584	keystroke_n	n	n/a
197.8595	0.124	395719	keystroke_Key.space	Key.space	n/a
198.017	0.1125	396034	keystroke_s	s	n/a
198.141	0.101	396282	keystroke_y	y	n/a
198.4335	0.011	396867	keystroke_n	n	n/a
198.456	0.1025	396912	keystroke_c	c	n/a
198.5455	0.1465	397091	keystroke_Key.space	Key.space	n/a
198.749	0.0895	397498	keystroke_d	d	n/a
198.8835	0.1245	397767	keystroke_i	i	n/a
199.0295	0.09	398059	keystroke_a	a	n/a
199.367	0.0575	398734	keystroke_Key.backspace	Key.backspace	n/a
199.547	0.0785	399094	keystroke_Key.backspace	Key.backspace	n/a
199.705	0.1905	399410	keystroke_a	a	n/a
199.8845	0.146	399769	keystroke_r	r	n/a
200.2895	0.0785	400579	keystroke_y	y	n/a
200.7735	0.0785	401547	keystroke_Key.backspace	Key.backspace	n/a
200.9645	0.09	401929	keystroke_Key.backspace	Key.backspace	n/a
201.212	0.09	402424	keystroke_i	i	n/a
201.392	0.125	402784	keystroke_r	r	n/a
201.561	0.0675	403122	keystroke_y	y	n/a
201.876	0.0785	403752	keystroke_Key.enter	Key.enter	n/a
201.959	4.2715	403918	prompt	n/a	lyrics gotten complete guinea\n
202.63	0.0785	405260	keystroke_l	l	n/a
202.8205	0.08	405641	keystroke_y	y	n/a
202.9565	0.123	405913	keystroke_r	r	n/a
203.057	0.1125	406114	keystroke_i	i	n/a
203.192	0.0915	406384	keystroke_c	c	n/a
203.3835	0.101	406767	keystroke_s	s	n/a
203.5185	0.1125	407037	keystroke_Key.space	Key.space	n/a
203.6195	0.124	407239	keystroke_g	g	n/a
203.7545	0.1125	407509	keystroke_o	o	n/a
203.878	0.079	407756	keystroke_t	t	n/a
204.092	0.0675	408184	keystroke_t	t	n/a
204.1145	0.1125	408229	keystroke_e	e	n/a
204.218	0.1335	408436	keystroke_n	n	n/a
204.306	0.1235	408612	keystroke_Key.space	Key.space	n/a
204.419	0.123	408838	keystroke_c	c	n/a
204.497	0.237	408994	keystroke_o	o	n/a
204.6095	0.136	409219	keystroke_m	m	n/a
204.666	0.1235	409332	keystroke_p	p	n/a
204.857	0.135	409714	keystroke_l	l	n/a
204.947	0.1125	409894	keystroke_e	e	n/a
205.037	0.18	410074	keystroke_t	t	n/a
205.15	0.112	410300	keystroke_e	e	n/a
205.2845	0.1125	410569	keystroke_Key.space	Key.space	n/a
205.3745	0.1125	410749	keystroke_g	g	n/a
205.4645	0.124	410929	keystroke_u	u	n/a
205.5675	0.134	411135	keystroke_i	i	n/a
205.6895	0.1575	411379	keystroke_n	n	n/a
205.8135	0.1795	411627	keystroke_e	e	n/a
205.937	0.1465	411874	keystroke_a	a	n/a
206.128	0.1015	412256	keystroke_Key.enter	Key.enter	n/a
206.2355	5.2715	412471	prompt	n/a	readers international classes females\n
206.961	0.18	413922	keystroke_r	r	n/a
207.0395	0.1465	414079	keystroke_e	e	n/a
207.1745	0.1465	414349	keystroke_a	a	n/a
207.3095	0.1015	414619	keystroke_d	d	n/a
207.501	0.1125	415002	keystroke_e	e	n/a
207.557	0.1685	415114	keystroke_r	r	n/a
207.6585	0.135	415317	keystroke_s	s	n/a
207.7485	0.135	415497	keystroke_Key.space	Key.space	n/a
207.85	0.1345	415700	keystroke_i	i	n/a
207.929	0.1235	415858	keystroke_n	n	n/a
207.996	0.09	415992	keystroke_t	t	n/a
208.1425	0.146	416285	keystroke_e	e	n/a
208.2435	0.1575	416487	keystroke_r	r	n/a
208.379	0.1055	416758	keystroke_n	n	n/a
208.491	0.1125	416982	keystroke_a	a	n/a
208.5695	0.124	417139	keystroke_t	t	n/a
208.637	0.1925	417274	keystroke_i	i	n/a
208.7045	0.135	417409	keystroke_o	o	n/a
208.7625	0.1445	417525	keystroke_n	n	n/a
208.9185	0.09	417837	keystroke_a	a	n/a
208.986	0.135	417972	keystroke_l	l	n/a
209.0535	0.1465	418107	keystroke_Key.space	Key.space	n/a
209.279	0.1005	418558	keystroke_c	c	n/a
209.391	0.113	418782	keystroke_l	l	n/a
209.5035	0.1235	419007	keystroke_a	a	n/a
209.571	0.101	419142	keystroke_s	s	n/a
209.807	0.079	419614	keystroke_s	s	n/a
209.8745	0.1915	419749	keystroke_e	e	n/a
209.9985	0.124	419997	keystroke_s	s	n/a
210.156	0.1125	420312	keystroke_Key.space	Key.space	n/a
210.291	0.1235	420582	keystroke_f	f	n/a
210.5275	0.1345	421055	keystroke_e	e	n/a
210.7075	0.146	421415	keystroke_m	m	n/a
210.921	0.1235	421842	keystroke_a	a	n/a
211.056	0.1235	422112	keystroke_l	l	n/a
211.1575	0.1685	422315	keystroke_e	e	n/a
211.27	0.112	422540	keystroke_s	s	n/a
211.3935	0.112	422787	keystroke_Key.enter	Key.enter	n/a
211.511	4.9015	423022	prompt	n/a	root techniques bread working\n
212.26	0.101	424520	keystroke_r	r	n/a
212.3495	0.079	424699	keystroke_o	o	n/a
212.541	0.1015	425082	keystroke_o	o	n/a
212.687	0.09	425374	keystroke_t	t	n/a
212.811	0.135	425622	keystroke_Key.space	Key.space	n/a
213.1375	0.1345	426275	keystroke_t	t	n/a
213.2385	0.114	426477	keystroke_e	e	n/a
213.4635	0.0905	426927	keystroke_c	c	n/a
213.576	0.09	427152	keystroke_h	h	n/a
213.7785	0.1125	427557	keystroke_n	n	n/a
213.88	0.1235	427760	keystroke_i	i	n/a
214.026	0.101	428052	keystroke_q	q	n/a
214.1385	0.09	428277	keystroke_u	u	n/a
214.1945	0.192	428389	keystroke_e	e	n/a
214.307	0.1125	428614	keystroke_s	s	n/a
214.4085	0.1235	428817	keystroke_Key.space	Key.space	n/a
214.634	0.0895	429268	keystroke_b	b	n/a
214.8585	0.1795	429717	keystroke_r	r	n/a
214.9485	0.1345	429897	keystroke_e	e	n/a
215.061	0.124	430122	keystroke_a	a	n/a
215.207	0.1125	430414	keystroke_d	d	n/a
215.376	0.1235	430752	keystroke_Key.space	Key.space	n/a
215.511	0.112	431022	keystroke_w	w	n/a
215.5785	0.1015	431157	keystroke_o	o	n/a
215.736	0.101	431472	keystroke_r	r	n/a
215.826	0.0785	431652	keystroke_k	k	n/a
216.017	0.102	432034	keystroke_i	i	n/a
216.0735	0.113	432147	keystroke_n	n	n/a
216.208	0.0675	432416	keystroke_g	g	n/a
216.2985	0.1125	432597	keystroke_Key.enter	Key.enter	n/a
216.4185	4.0625	432837	prompt	n/a	i controlling villa holly\n
217.12	0.112	434240	keystroke_i	i	n/a
217.1985	0.1235	434397	keystroke_Key.space	Key.space	n/a
217.356	0.101	434712	keystroke_c	c	n/a
217.4235	0.135	434847	keystroke_o	o	n/a
217.5245	0.1125	435049	keystroke_n	n	n/a
217.6595	0.09	435319	keystroke_t	t	n/a
217.862	0.079	435724	keystroke_r	r	n/a
217.931	0.0775	435862	keystroke_o	o	n/a
218.1545	0.0565	436309	keystroke_l	l	n/a
218.324	0.18	436648	keystroke_l	l	n/a
218.4245	0.135	436849	keystroke_i	i	n/a
218.5145	0.1125	437029	keystroke_n	n	n/a
218.6165	0.0665	437233	keystroke_g	g	n/a
218.7395	0.113	437479	keystroke_Key.space	Key.space	n/a
218.8745	0.1015	437749	keystroke_v	v	n/a
218.965	0.1465	437930	keystroke_i	i	n/a
219.1	0.079	438200	keystroke_l	l	n/a
219.2685	0.101	438537	keystroke_l	l	n/a
219.4145	0.09	438829	keystroke_a	a	n/a
219.4935	0.135	438987	keystroke_Key.space	Key.space	n/a
219.5945	0.1245	439189	keystroke_h	h	n/a
219.6965	0.078	439393	keystroke_o	o	n/a
219.9095	0.0675	439819	keystroke_l	l	n/a
220.0785	0.135	440157	keystroke_l	l	n/a
220.1795	0.102	440359	keystroke_y	y	n/a
220.3725	0.107	440745	keystroke_Key.enter	Key.enter	n/a
220.4855	5.5675	440971	prompt	n/a	raises fitness fraser eggs\n
221.26	0.147	442520	keystroke_r	r	n/a
221.3945	0.1015	442789	keystroke_a	a	n/a
221.53	0.0895	443060	keystroke_i	i	n/a
221.6535	0.101	443307	keystroke_s	s	n/a
221.7995	0.1915	443599	keystroke_e	e	n/a
221.9245	0.1115	443849	keystroke_s	s	n/a
222.0695	0.1015	444139	keystroke_Key.space	Key.space	n/a
222.182	0.091	444364	keystroke_f	f	n/a
222.2835	0.09	444567	keystroke_i	i	n/a
222.3965	0.09	444793	keystroke_t	t	n/a
222.5195	0.1015	445039	keystroke_n	n	n/a
222.6095	0.135	445219	keystroke_e	e	n/a
222.69	0.1	445380	keystroke_s	s	n/a
222.891	0.0675	445782	keystroke_s	s	n/a
223.0485	0.125	446097	keystroke_Key.space	Key.space	n/a
223.1065	0.0545	446213	keystroke_f	f	n/a
223.262	0.1125	446524	keystroke_r	r	n/a
223.802	0.1015	447604	keystroke_a	a	n/a
223.9825	0.101	447965	keystroke_s	s	n/a
224.1845	0.135	448369	keystroke_e	e	n/a
224.297	0.1015	448594	keystroke_r	r	n/a
224.4095	0.124	448819	keystroke_Key.space	Key.space	n/a
224.5445	0.046	449089	keystroke_g	g	n/a
224.601	0.124	449202	keystroke_e	e	n/a
224.939	0.079	449878	keystroke_Key.backspace	Key.backspace	n/a
225.119	0.0895	450238	keystroke_Key.backspace	Key.backspace	n/a
225.1975	0.0895	450395	keystroke_e	e	n/a
225.377	0.0795	450754	keystroke_g	g	n/a
225.5575	0.112	451115	keystroke_g	g	n/a
225.7485	0.1125	451497	keystroke_s	s	n/a
225.951	0.101	451902	keystroke_Key.enter	Key.enter	n/a
226.058	6.2395	452116	prompt	n/a	ward chevy english winner\n
227.661	0.101	455322	keystroke_w	w	n/a
227.7845	0.1575	455569	keystroke_a	a	n/a
227.8975	0.112	455795	keystroke_r	r	n/a
228.1445	0.079	456289	keystroke_d	d	n/a
228.2685	0.1125	456537	keystroke_Key.space	Key.space	n/a
228.551	0.0775	457102	keystroke_c	c	n/a
228.685	0.101	457370	keystroke_h	h	n/a
228.775	0.067	457550	keystroke_e	e	n/a
228.9775	0.0785	457955	keystroke_v	v	n/a
229.0785	0.101	458157	keystroke_y	y	n/a
229.1355	0.1005	458271	keystroke_Key.space	Key.space	n/a
230.406	0.0785	460812	keystroke_e	e	n/a
230.5425	0.077	461085	keystroke_n	n	n/a
230.6535	0.0675	461307	keystroke_g	g	n/a
230.732	0.1125	461464	keystroke_l	l	n/a
230.811	0.1125	461622	keystroke_i	i	n/a
230.935	0.0905	461870	keystroke_s	s	n/a
231.07	0.135	462140	keystroke_h	h	n/a
231.1485	0.135	462297	keystroke_Key.space	Key.space	n/a
231.363	0.0895	462726	keystroke_w	w	n/a
231.486	0.101	462972	keystroke_i	i	n/a
231.644	0.0895	463288	keystroke_n	n	n/a
231.8235	0.1125	463647	keystroke_n	n	n/a
231.9595	0.134	463919	keystroke_e	e	n/a
232.06	0.1015	464120	keystroke_r	r	n/a
232.195	0.101	464390	keystroke_Key.enter	Key.enter	n/a
232.3005	6.523	464601	prompt	n/a	overcome wayne nevertheless philosophy\n
233.095	0.09	466190	keystroke_o	o	n/a
233.21	0.0995	466420	keystroke_v	v	n/a
233.3765	0.1005	466753	keystroke_e	e	n/a
233.4555	0.078	466911	keystroke_r	r	n/a
233.6465	0.0895	467293	keystroke_c	c	n/a
233.7475	0.1345	467495	keystroke_o	o	n/a
233.8375	0.112	467675	keystroke_m	m	n/a
233.916	0.101	467832	keystroke_e	e	n/a
234.0285	0.1235	468057	keystroke_Key.space	Key.space	n/a
234.1635	0.101	468327	keystroke_w	w	n/a
234.231	0.169	468462	keystroke_a	a	n/a
234.546	0.08	469092	keystroke_y	y	n/a
234.749	0.0785	469498	keystroke_n	n	n/a
234.8725	0.0675	469745	keystroke_e	e	n/a
234.985	0.1015	469970	keystroke_Key.space	Key.space	n/a
235.256	0.1115	470512	keystroke_n	n	n/a
235.3	0.1685	470600	keystroke_e	e	n/a
235.4915	0.112	470983	keystroke_v	v	n/a
235.694	0.112	471388	keystroke_e	e	n/a
235.761	0.09	471522	keystroke_r	r	n/a
235.9525	0.0785	471905	keystroke_t	t	n/a
236.02	0.09	472040	keystroke_h	h	n/a
236.166	0.1015	472332	keystroke_e	e	n/a
236.301	0.1015	472602	keystroke_l	l	n/a
236.3915	0.1455	472783	keystroke_e	e	n/a
236.493	0.101	472986	keystroke_s	s	n/a
236.6835	0.09	473367	keystroke_s	s	n/a
236.819	0.112	473638	keystroke_Key.space	Key.space	n/a
236.9425	0.1235	473885	keystroke_p	p	n/a
237.1115	0.101	474223	keystroke_h	h	n/a
237.2575	0.112	474515	keystroke_i	i	n/a
237.4725	0.0775	474945	keystroke_l	l	n/a
237.6625	0.0795	475325	keystroke_o	o	n/a
237.775	0.0895	475550	keystroke_s	s	n/a
237.8765	0.157	475753	keystroke_o	o	n/a
238.0225	0.1795	476045	keystroke_p	p	n/a
238.1685	0.0905	476337	keystroke_h	h	n/a
238.394	0.067	476788	keystroke_y	y	n/a
238.731	0.0915	477462	keystroke_Key.enter	Key.enter	n/a
238.828	7.1945	477656	prompt	n/a	earn sodium treasury prozac\n
239.5075	0.191	479015	keystroke_e	e	n/a
239.6535	0.1575	479307	keystroke_a	a	n/a
239.755	0.1235	479510	keystroke_r	r	n/a
239.834	0.112	479668	keystroke_n	n	n/a
239.9235	0.079	479847	keystroke_Key.space	Key.space	n/a
239.9685	0.079	479937	keystroke_d	d	n/a
240.115	0.1235	480230	keystroke_o	o	n/a
240.6775	0.0675	481355	keystroke_Key.backspace	Key.backspace	n/a
240.8575	0.0785	481715	keystroke_Key.backspace	Key.backspace	n/a
241.06	0.0915	482120	keystroke_s	s	n/a
241.139	0.146	482278	keystroke_o	o	n/a
241.7355	0.0895	483471	keystroke_d	d	n/a
241.8925	0.135	483785	keystroke_i	i	n/a
242.005	0.1015	484010	keystroke_u	u	n/a
242.23	0.135	484460	keystroke_m	m	n/a
242.3315	0.1445	484663	keystroke_Key.space	Key.space	n/a
242.476	0.1025	484952	keystroke_t	t	n/a
242.669	0.1685	485338	keystroke_r	r	n/a
243.0515	0.1235	486103	keystroke_e	e	n/a
243.2425	0.1255	486485	keystroke_a	a	n/a
243.31	0.135	486620	keystroke_s	s	n/a
243.5575	0.101	487115	keystroke_u	u	n/a
243.726	0.1015	487452	keystroke_r	r	n/a
243.8725	0.1235	487745	keystroke_y	y	n/a
243.94	0.113	487880	keystroke_Key.space	Key.space	n/a
244.1315	0.1125	488263	keystroke_p	p	n/a
244.2325	0.102	488465	keystroke_r	r	n/a
244.345	0.129	488690	keystroke_o	o	n/a
245.0875	0.09	490175	keystroke_z	z	n/a
245.3015	0.112	490603	keystroke_a	a	n/a
245.5825	0.09	491165	keystroke_c	c	n/a
245.92	0.1015	491840	keystroke_Key.enter	Key.enter	n/a
246.026	9.9755	492052	prompt	n/a	pose southeast disaster vary\n
249.8125	0.056	499625	keystroke_Key.media_volume_mute	Key.media_volume_mute	n/a
252.074	0.1685	504148	keystroke_p	p	n/a
252.2095	0.147	504419	keystroke_o	o	n/a
252.344	0.1235	504688	keystroke_s	s	n/a
252.4	0.1125	504800	keystroke_e	e	n/a
252.481	0.1215	504962	keystroke_Key.space	Key.space	n/a
252.7035	0.103	505407	keystroke_s	s	n/a
252.794	0.146	505588	keystroke_o	o	n/a
252.8835	0.1015	505767	keystroke_u	u	n/a
252.975	0.1	505950	keystroke_t	t	n/a
253.0865	0.101	506173	keystroke_h	h	n/a
253.1765	0.1465	506353	keystroke_e	e	n/a
253.3335	0.169	506667	keystroke_a	a	n/a
253.4465	0.18	506893	keystroke_s	s	n/a
253.5925	0.1015	507185	keystroke_t	t	n/a
253.7065	0.1225	507413	keystroke_Key.space	Key.space	n/a
253.975	0.09	507950	keystroke_d	d	n/a
254.02	0.17	508040	keystroke_i	i	n/a
254.302	0.078	508604	keystroke_s	s	n/a
254.504	0.1695	509008	keystroke_a	a	n/a
254.6615	0.146	509323	keystroke_s	s	n/a
254.8415	0.112	509683	keystroke_t	t	n/a
254.999	0.124	509998	keystroke_e	e	n/a
255.0775	0.09	510155	keystroke_r	r	n/a
255.2015	0.146	510403	keystroke_Key.space	Key.space	n/a
255.325	0.1245	510650	keystroke_v	v	n/a
255.494	0.135	510988	keystroke_a	a	n/a
255.5835	0.124	511167	keystroke_r	r	n/a
255.6625	0.1015	511325	keystroke_y	y	n/a
255.91	0.09	511820	keystroke_Key.enter	Key.enter	n/a
256.006	4.124	512012	prompt	n/a	hong honey virginia chris\n
256.5965	0.1235	513193	keystroke_h	h	n/a
256.7325	0.145	513465	keystroke_o	o	n/a
256.8325	0.1245	513665	keystroke_n	n	n/a
256.9905	0.101	513981	keystroke_g	g	n/a
257.069	0.135	514138	keystroke_Key.space	Key.space	n/a
257.2265	0.135	514453	keystroke_h	h	n/a
257.3615	0.135	514723	keystroke_o	o	n/a
257.463	0.101	514926	keystroke_n	n	n/a
257.5975	0.1125	515195	keystroke_e	e	n/a
257.7325	0.1125	515465	keystroke_y	y	n/a
257.8	0.1015	515600	keystroke_Key.space	Key.space	n/a
257.9805	0.1025	515961	keystroke_v	v	n/a
258.104	0.1125	516208	keystroke_i	i	n/a
258.228	0.0785	516456	keystroke_r	r	n/a
258.419	0.079	516838	keystroke_g	g	n/a
258.4995	0.088	516999	keystroke_i	i	n/a
258.7005	0.0785	517401	keystroke_n	n	n/a
258.88	0.0905	517760	keystroke_i	i	n/a
259.0265	0.101	518053	keystroke_a	a	n/a
259.1395	0.1345	518279	keystroke_Key.space	Key.space	n/a
259.3755	0.101	518751	keystroke_c	c	n/a
259.499	0.1125	518998	keystroke_h	h	n/a
259.6235	0.1005	519247	keystroke_r	r	n/a
259.7465	0.1235	519493	keystroke_i	i	n/a
259.859	0.124	519718	keystroke_s	s	n/a
260.028	0.101	520056	keystroke_Key.enter	Key.enter	n/a
260.133	4.8235	520266	prompt	n/a	outside church lecture muscle\n
260.8265	0.1475	521653	keystroke_o	o	n/a
260.9275	0.124	521855	keystroke_u	u	n/a
261.0175	0.124	522035	keystroke_t	t	n/a
261.209	0.09	522418	keystroke_s	s	n/a
261.333	0.135	522666	keystroke_i	i	n/a
261.4575	0.0665	522915	keystroke_d	d	n/a
261.6475	0.079	523295	keystroke_e	e	n/a
261.749	0.1125	523498	keystroke_Key.space	Key.space	n/a
261.874	0.1225	523748	keystroke_c	c	n/a
262.008	0.0675	524016	keystroke_h	h	n/a
262.199	0.092	524398	keystroke_u	u	n/a
262.2775	0.1015	524555	keystroke_r	r	n/a
262.5025	0.1125	525005	keystroke_c	c	n/a
262.5925	0.112	525185	keystroke_h	h	n/a
262.7045	0.136	525409	keystroke_Key.space	Key.space	n/a
262.795	0.135	525590	keystroke_l	l	n/a
262.919	0.101	525838	keystroke_e	e	n/a
263.1325	0.0795	526265	keystroke_c	c	n/a
263.335	0.1125	526670	keystroke_t	t	n/a
263.47	0.09	526940	keystroke_u	u	n/a
263.5825	0.135	527165	keystroke_r	r	n/a
263.674	0.0885	527348	keystroke_e	e	n/a
263.729	0.1685	527458	keystroke_Key.space	Key.space	n/a
263.83	0.1125	527660	keystroke_m	m	n/a
264.1	0.079	528200	keystroke_u	u	n/a
264.2015	0.09	528403	keystroke_s	s	n/a
264.4045	0.1125	528809	keystroke_c	c	n/a
264.528	0.1345	529056	keystroke_l	l	n/a
264.6745	0.078	529349	keystroke_e	e	n/a
264.854	0.101	529708	keystroke_Key.enter	Key.enter	n/a
264.961	4.4165	529922	prompt	n/a	hero billy patents welsh\n
265.5965	0.1355	531193	keystroke_h	h	n/a
265.7765	0.0795	531553	keystroke_e	e	n/a
265.9685	0.123	531937	keystroke_r	r	n/a
266.114	0.113	532228	keystroke_o	o	n/a
266.215	0.135	532430	keystroke_Key.space	Key.space	n/a
266.4175	0.1245	532835	keystroke_b	b	n/a
266.5195	0.168	533039	keystroke_i	i	n/a
266.6425	0.09	533285	keystroke_l	l	n/a
266.845	0.1465	533690	keystroke_l	l	n/a
266.969	0.1685	533938	keystroke_y	y	n/a
267.0815	0.1235	534163	keystroke_Key.space	Key.space	n/a
267.1825	0.158	534365	keystroke_p	p	n/a
267.319	0.1	534638	keystroke_a	a	n/a
267.408	0.0895	534816	keystroke_t	t	n/a
267.5425	0.09	535085	keystroke_e	e	n/a
267.668	0.1225	535336	keystroke_n	n	n/a
267.7795	0.123	535559	keystroke_t	t	n/a
267.88	0.079	535760	keystroke_s	s	n/a
267.9475	0.135	535895	keystroke_Key.space	Key.space	n/a
268.1615	0.1135	536323	keystroke_w	w	n/a
268.3415	0.124	536683	keystroke_e	e	n/a
268.499	0.146	536998	keystroke_l	l	n/a
268.87	0.124	537740	keystroke_s	s	n/a
269.05	0.0795	538100	keystroke_h	h	n/a
269.2975	0.079	538595	keystroke_Key.enter	Key.enter	n/a
269.3805	5.172	538761	prompt	n/a	remaining veteran array leaving\n
270.085	0.1465	540170	keystroke_r	r	n/a
270.187	0.1235	540374	keystroke_e	e	n/a
270.389	0.1355	540778	keystroke_m	m	n/a
270.5915	0.1015	541183	keystroke_a	a	n/a
270.704	0.1685	541408	keystroke_i	i	n/a
270.8395	0.135	541679	keystroke_n	n	n/a
270.985	0.1255	541970	keystroke_i	i	n/a
271.0645	0.123	542129	keystroke_n	n	n/a
271.178	0.1105	542356	keystroke_g	g	n/a
271.278	0.1685	542556	keystroke_Key.space	Key.space	n/a
271.5025	0.1015	543005	keystroke_v	v	n/a
271.694	0.135	543388	keystroke_e	e	n/a
271.84	0.135	543680	keystroke_t	t	n/a
272.02	0.125	544040	keystroke_e	e	n/a
272.1105	0.18	544221	keystroke_r	r	n/a
272.3015	0.1015	544603	keystroke_a	a	n/a
272.414	0.169	544828	keystroke_n	n	n/a
272.515	0.113	545030	keystroke_Key.space	Key.space	n/a
272.7515	0.146	545503	keystroke_a	a	n/a
272.954	0.101	545908	keystroke_r	r	n/a
273.1565	0.146	546313	keystroke_r	r	n/a
273.2465	0.117	546493	keystroke_a	a	n/a
273.337	0.1125	546674	keystroke_y	y	n/a
273.4045	0.1125	546809	keystroke_Key.space	Key.space	n/a
273.5615	0.1235	547123	keystroke_l	l	n/a
273.6515	0.1235	547303	keystroke_e	e	n/a
273.8315	0.09	547663	keystroke_a	a	n/a
273.9555	0.1235	547911	keystroke_v	v	n/a
274.113	0.112	548226	keystroke_i	i	n/a
274.1805	0.1345	548361	keystroke_n	n	n/a
274.304	0.1125	548608	keystroke_g	g	n/a
274.462	0.0895	548924	keystroke_Key.enter	Key.enter	n/a
274.556	4.6545	549112	prompt	n/a	susan tamil rugby projects\n
275.238	0.09	550476	keystroke_s	s	n/a
275.384	0.1125	550768	keystroke_u	u	n/a
275.508	0.0795	551016	keystroke_s	s	n/a
275.6765	0.1015	551353	keystroke_a	a	n/a
275.778	0.1575	551556	keystroke_n	n	n/a
275.879	0.147	551758	keystroke_Key.space	Key.space	n/a
276.0705	0.135	552141	keystroke_t	t	n/a
276.194	0.1125	552388	keystroke_a	a	n/a
276.2955	0.1575	552591	keystroke_m	m	n/a
276.4415	0.1915	552883	keystroke_i	i	n/a
276.554	0.169	553108	keystroke_l	l	n/a
276.712	0.0895	553424	keystroke_Key.space	Key.space	n/a
276.8465	0.101	553693	keystroke_r	r	n/a
276.959	0.1125	553918	keystroke_u	u	n/a
277.094	0.101	554188	keystroke_g	g	n/a
277.443	0.101	554886	keystroke_b	b	n/a
277.6455	0.1235	555291	keystroke_y	y	n/a
277.713	0.146	555426	keystroke_Key.space	Key.space	n/a
278.0395	0.1125	556079	keystroke_p	p	n/a
278.163	0.112	556326	keystroke_r	r	n/a
278.264	0.1575	556528	keystroke_o	o	n/a
278.3545	0.1795	556709	keystroke_j	j	n/a
278.4785	0.1115	556957	keystroke_e	e	n/a
278.6915	0.09	557383	keystroke_c	c	n/a
278.8825	0.1465	557765	keystroke_t	t	n/a
278.95	0.124	557900	keystroke_s	s	n/a
279.0855	0.1235	558171	keystroke_Key.enter	Key.enter	n/a
279.2135	6.061	558427	prompt	n/a	plasma smart consistently essence\n
279.8505	0.056	559701	keystroke_s	s	n/a
280.008	0.0445	560016	keystroke_p	p	n/a
280.2665	0.08	560533	keystroke_Key.backspace	Key.backspace	n/a
280.458	0.0675	560916	keystroke_Key.backspace	Key.backspace	n/a
280.6945	0.123	561389	keystroke_p	p	n/a
280.919	0.135	561838	keystroke_l	l	n/a
281.043	0.157	562086	keystroke_a	a	n/a
281.1445	0.1005	562289	keystroke_s	s	n/a
281.2805	0.111	562561	keystroke_m	m	n/a
281.381	0.1115	562762	keystroke_a	a	n/a
281.504	0.1355	563008	keystroke_Key.space	Key.space	n/a
281.6505	0.0895	563301	keystroke_s	s	n/a
281.7855	0.113	563571	keystroke_m	m	n/a
281.8755	0.157	563751	keystroke_a	a	n/a
281.999	0.0675	563998	keystroke_r	r	n/a
282.181	0.0765	564362	keystroke_t	t	n/a
282.269	0.101	564538	keystroke_Key.space	Key.space	n/a
282.404	0.09	564808	keystroke_c	c	n/a
282.487	0.1535	564974	keystroke_o	o	n/a
282.573	0.125	565146	keystroke_n	n	n/a
282.664	0.111	565328	keystroke_s	s	n/a
282.8205	0.1125	565641	keystroke_i	i	n/a
282.944	0.1365	565888	keystroke_s	s	n/a
283.068	0.1345	566136	keystroke_t	t	n/a
283.214	0.1125	566428	keystroke_e	e	n/a
283.3605	0.112	566721	keystroke_n	n	n/a
283.4505	0.114	566901	keystroke_t	t	n/a
283.598	0.1785	567196	keystroke_l	l	n/a
283.687	0.157	567374	keystroke_y	y	n/a
283.7655	0.1235	567531	keystroke_Key.space	Key.space	n/a
283.8555	0.1685	567711	keystroke_e	e	n/a
284.014	0.156	568028	keystroke_s	s	n/a
284.3055	0.1685	568611	keystroke_s	s	n/a
284.4675	0.119	568935	keystroke_e	e	n/a
284.6315	0.1235	569263	keystroke_n	n	n/a
284.778	0.102	569556	keystroke_c	c	n/a
285.0145	0.0675	570029	keystroke_e	e	n/a
285.149	0.1235	570298	keystroke_Key.enter	Key.enter	n/a
285.277	7.467	570554	prompt	n/a	left agency absolutely potato\n
285.869	0.1125	571738	keystroke_l	l	n/a
285.959	0.1465	571918	keystroke_e	e	n/a
286.0715	0.101	572143	keystroke_f	f	n/a
286.286	0.112	572572	keystroke_t	t	n/a
286.4205	0.1235	572841	keystroke_Key.space	Key.space	n/a
286.4765	0.1235	572953	keystroke_a	a	n/a
286.578	0.1355	573156	keystroke_g	g	n/a
286.724	0.1015	573448	keystroke_e	e	n/a
286.8375	0.1005	573675	keystroke_n	n	n/a
286.994	0.101	573988	keystroke_c	c	n/a
287.1065	0.124	574213	keystroke_y	y	n/a
287.174	0.124	574348	keystroke_Key.space	Key.space	n/a
287.2875	0.089	574575	keystroke_a	a	n/a
287.489	0.079	574978	keystroke_b	b	n/a
287.669	0.09	575338	keystroke_s	s	n/a
287.793	0.0895	575586	keystroke_o	o	n/a
288.0175	0.113	576035	keystroke_l	l	n/a
288.0965	0.1125	576193	keystroke_u	u	n/a
288.2205	0.1235	576441	keystroke_t	t	n/a
288.3215	0.1915	576643	keystroke_l	l	n/a
288.4115	0.135	576823	keystroke_y	y	n/a
288.524	0.1575	577048	keystroke_Key.space	Key.space	n/a
288.997	0.0675	577994	keystroke_Key.backspace	Key.backspace	n/a
289.1765	0.079	578353	keystroke_Key.backspace	Key.backspace	n/a
289.334	0.1235	578668	keystroke_e	e	n/a
289.469	0.169	578938	keystroke_l	l	n/a
289.5485	0.134	579097	keystroke_y	y	n/a
289.593	0.1345	579186	keystroke_Key.space	Key.space	n/a
290.0315	0.0785	580063	keystroke_Key.backspace	Key.backspace	n/a
290.2455	0.079	580491	keystroke_Key.backspace	Key.backspace	n/a
290.448	0.081	580896	keystroke_Key.backspace	Key.backspace	n/a
290.6625	0.0555	581325	keystroke_Key.backspace	Key.backspace	n/a
290.8305	0.0675	581661	keystroke_Key.backspace	Key.backspace	n/a
291.1565	0.1015	582313	keystroke_e	e	n/a
291.3255	0.1705	582651	keystroke_l	l	n/a
291.404	0.135	582808	keystroke_y	y	n/a
291.483	0.101	582966	keystroke_Key.space	Key.space	n/a
291.6295	0.112	583259	keystroke_p	p	n/a
291.809	0.124	583618	keystroke_o	o	n/a
291.946	0.1	583892	keystroke_t	t	n/a
292.0905	0.146	584181	keystroke_a	a	n/a
292.1915	0.135	584383	keystroke_t	t	n/a
292.304	0.092	584608	keystroke_o	o	n/a
292.6305	0.1125	585261	keystroke_Key.enter	Key.enter	n/a
292.749	5.396	585498	prompt	n/a	forgot george beautifully articles\n
293.4405	0.1015	586881	keystroke_f	f	n/a
293.5755	0.101	587151	keystroke_o	o	n/a
293.6655	0.101	587331	keystroke_r	r	n/a
293.8905	0.0675	587781	keystroke_g	g	n/a
293.969	0.1015	587938	keystroke_o	o	n/a
294.082	0.0805	588164	keystroke_t	t	n/a
294.183	0.135	588366	keystroke_Key.space	Key.space	n/a
294.296	0.1235	588592	keystroke_g	g	n/a
294.5995	0.0795	589199	keystroke_e	e	n/a
294.813	0.1125	589626	keystroke_o	o	n/a
294.948	0.1015	589896	keystroke_r	r	n/a
295.1845	0.1235	590369	keystroke_g	g	n/a
295.2865	0.089	590573	keystroke_e	e	n/a
295.443	0.1465	590886	keystroke_Key.space	Key.space	n/a
295.5895	0.067	591179	keystroke_b	b	n/a
295.758	0.1575	591516	keystroke_e	e	n/a
295.893	0.146	591786	keystroke_a	a	n/a
296.062	0.101	592124	keystroke_u	u	n/a
296.1865	0.112	592373	keystroke_t	t	n/a
296.3205	0.0905	592641	keystroke_i	i	n/a
296.4445	0.1125	592889	keystroke_f	f	n/a
296.5235	0.113	593047	keystroke_u	u	n/a
296.6465	0.079	593293	keystroke_l	l	n/a
296.861	0.1455	593722	keystroke_l	l	n/a
296.917	0.124	593834	keystroke_y	y	n/a
296.984	0.103	593968	keystroke_Key.space	Key.space	n/a
297.074	0.1125	594148	keystroke_a	a	n/a
297.12	0.101	594240	keystroke_r	r	n/a
297.2995	0.1015	594599	keystroke_t	t	n/a
297.4235	0.114	594847	keystroke_i	i	n/a
297.5245	0.1125	595049	keystroke_c	c	n/a
297.6705	0.1125	595341	keystroke_l	l	n/a
297.7945	0.169	595589	keystroke_e	e	n/a
297.884	0.1465	595768	keystroke_s	s	n/a
298.0415	0.1015	596083	keystroke_Key.enter	Key.enter	n/a
298.149	5.4635	596298	prompt	n/a	pension ctrl loves uploaded\n
298.7505	0.1365	597501	keystroke_p	p	n/a
298.863	0.1125	597726	keystroke_e	e	n/a
299.0315	0.113	598063	keystroke_n	n	n/a
299.212	0.1245	598424	keystroke_s	s	n/a
299.347	0.18	598694	keystroke_i	i	n/a
299.437	0.158	598874	keystroke_o	o	n/a
299.538	0.146	599076	keystroke_n	n	n/a
299.6285	0.157	599257	keystroke_Key.space	Key.space	n/a
299.8195	0.1125	599639	keystroke_c	c	n/a
300.1575	0.0895	600315	keystroke_t	t	n/a
300.3705	0.1015	600741	keystroke_r	r	n/a
300.483	0.135	600966	keystroke_l	l	n/a
300.573	0.146	601146	keystroke_Key.space	Key.space	n/a
300.742	0.09	601484	keystroke_l	l	n/a
300.945	0.1005	601890	keystroke_o	o	n/a
301.068	0.079	602136	keystroke_v	v	n/a
301.237	0.1795	602474	keystroke_e	e	n/a
301.338	0.135	602676	keystroke_s	s	n/a
301.462	0.1575	602924	keystroke_Key.space	Key.space	n/a
301.608	0.1025	603216	keystroke_o	o	n/a
301.9345	0.056	603869	keystroke_Key.backspace	Key.backspace	n/a
302.161	0.122	604322	keystroke_u	u	n/a
302.3055	0.124	604611	keystroke_p	p	n/a
302.5305	0.0675	605061	keystroke_l	l	n/a
302.711	0.09	605422	keystroke_o	o	n/a
302.8685	0.135	605737	keystroke_a	a	n/a
302.9805	0.101	605961	keystroke_d	d	n/a
303.1835	0.0895	606367	keystroke_e	e	n/a
303.386	0.1005	606772	keystroke_d	d	n/a
303.4985	0.1125	606997	keystroke_Key.enter	Key.enter	n/a
303.616	7.3195	607232	prompt	n/a	constitutes scotia preston architect\n
304.466	0.1005	608932	keystroke_c	c	n/a
304.5445	0.1575	609089	keystroke_o	o	n/a
304.6345	0.146	609269	keystroke_n	n	n/a
304.9615	0.0445	609923	keystroke_t	t	n/a
305.0845	0.0895	610169	keystroke_s	s	n/a
305.3545	0.0675	610709	keystroke_Key.backspace	Key.backspace	n/a
305.523	0.101	611046	keystroke_Key.backspace	Key.backspace	n/a
305.6355	0.124	611271	keystroke_s	s	n/a
305.76	0.123	611520	keystroke_t	t	n/a
305.9955	0.1235	611991	keystroke_i	i	n/a
306.2435	0.0895	612487	keystroke_t	t	n/a
306.468	0.1015	612936	keystroke_u	u	n/a
306.6375	0.1115	613275	keystroke_t	t	n/a
306.7605	0.191	613521	keystroke_e	e	n/a
306.862	0.146	613724	keystroke_s	s	n/a
307.0415	0.124	614083	keystroke_Key.space	Key.space	n/a
307.2445	0.112	614489	keystroke_s	s	n/a
307.6945	0.09	615389	keystroke_c	c	n/a
307.886	0.112	615772	keystroke_o	o	n/a
308.133	0.1125	616266	keystroke_t	t	n/a
308.257	0.101	616514	keystroke_i	i	n/a
308.369	0.106	616738	keystroke_a	a	n/a
308.4815	0.113	616963	keystroke_Key.space	Key.space	n/a
308.6165	0.1575	617233	keystroke_p	p	n/a
308.7295	0.202	617459	keystroke_r	r	n/a
308.8195	0.191	617639	keystroke_e	e	n/a
308.921	0.1905	617842	keystroke_s	s	n/a
309.2355	0.1125	618471	keystroke_t	t	n/a
309.3255	0.1575	618651	keystroke_o	o	n/a
309.4045	0.1795	618809	keystroke_n	n	n/a
309.494	0.1465	618988	keystroke_Key.space	Key.space	n/a
309.6405	0.1135	619281	keystroke_a	a	n/a
309.742	0.079	619484	keystroke_r	r	n/a
309.9215	0.102	619843	keystroke_c	c	n/a
310.001	0.1455	620002	keystroke_h	h	n/a
310.102	0.1465	620204	keystroke_i	i	n/a
310.158	0.1575	620316	keystroke_t	t	n/a
310.2705	0.113	620541	keystroke_e	e	n/a
310.473	0.101	620946	keystroke_c	c	n/a
310.6985	0.113	621397	keystroke_t	t	n/a
310.8215	0.1125	621643	keystroke_Key.enter	Key.enter	n/a
310.94	6.7455	621880	prompt	n/a	needle describes bigger celebrate\n
311.632	0.011	623264	keystroke_h	h	n/a
311.992	0.101	623984	keystroke_Key.backspace	Key.backspace	n/a
312.307	0.1125	624614	keystroke_n	n	n/a
312.498	0.1135	624996	keystroke_e	e	n/a
312.7005	0.1015	625401	keystroke_e	e	n/a
312.9145	0.0895	625829	keystroke_d	d	n/a
313.0275	0.112	626055	keystroke_l	l	n/a
313.1395	0.09	626279	keystroke_e	e	n/a
313.252	0.157	626504	keystroke_Key.space	Key.space	n/a
313.3645	0.0895	626729	keystroke_d	d	n/a
313.545	0.1685	627090	keystroke_e	e	n/a
313.6345	0.1235	627269	keystroke_s	s	n/a
313.882	0.1015	627764	keystroke_c	c	n/a
314.107	0.112	628214	keystroke_r	r	n/a
314.3095	0.135	628619	keystroke_i	i	n/a
314.5005	0.1015	629001	keystroke_b	b	n/a
314.7145	0.1685	629429	keystroke_e	e	n/a
314.805	0.1345	629610	keystroke_s	s	n/a
314.9505	0.146	629901	keystroke_Key.space	Key.space	n/a
315.108	0.113	630216	keystroke_b	b	n/a
315.277	0.0905	630554	keystroke_i	i	n/a
315.367	0.0785	630734	keystroke_g	g	n/a
315.558	0.0675	631116	keystroke_g	g	n/a
315.705	0.1455	631410	keystroke_e	e	n/a
315.8055	0.1125	631611	keystroke_r	r	n/a
315.952	0.1235	631904	keystroke_Key.space	Key.space	n/a
316.0305	0.1125	632061	keystroke_c	c	n/a
316.2675	0.078	632535	keystroke_e	e	n/a
316.38	0.1345	632760	keystroke_l	l	n/a
316.4355	0.1125	632871	keystroke_e	e	n/a
316.7055	0.1015	633411	keystroke_b	b	n/a
316.9305	0.1575	633861	keystroke_r	r	n/a
317.0995	0.1125	634199	keystroke_a	a	n/a
317.1895	0.2135	634379	keystroke_t	t	n/a
317.291	0.1805	634582	keystroke_e	e	n/a
317.4145	0.1125	634829	keystroke_s	s	n/a
317.5615	0.123	635123	keystroke_Key.enter	Key.enter	n/a
317.6885	4.0355	635377	prompt	n/a	http dryer hats project\n
318.348	0.09	636696	keystroke_h	h	n/a
318.562	0.09	637124	keystroke_t	t	n/a
318.8545	0.011	637709	keystroke_t	t	n/a
318.877	0.146	637754	keystroke_p	p	n/a
318.9785	0.1345	637957	keystroke_Key.space	Key.space	n/a
319.1805	0.0915	638361	keystroke_d	d	n/a
319.3725	0.1005	638745	keystroke_r	r	n/a
319.518	0.1015	639036	keystroke_y	y	n/a
319.6425	0.169	639285	keystroke_e	e	n/a
319.7435	0.1235	639487	keystroke_r	r	n/a
319.8895	0.146	639779	keystroke_Key.space	Key.space	n/a
320.058	0.1355	640116	keystroke_h	h	n/a
320.182	0.135	640364	keystroke_a	a	n/a
320.328	0.1465	640656	keystroke_t	t	n/a
320.452	0.101	640904	keystroke_s	s	n/a
320.5195	0.1465	641039	keystroke_Key.space	Key.space	n/a
320.6655	0.1355	641331	keystroke_p	p	n/a
320.8015	0.1115	641603	keystroke_r	r	n/a
320.8905	0.158	641781	keystroke_o	o	n/a
320.9805	0.1465	641961	keystroke_j	j	n/a
321.071	0.112	642142	keystroke_e	e	n/a
321.307	0.09	642614	keystroke_c	c	n/a
321.5205	0.101	643041	keystroke_t	t	n/a
321.611	0.112	643222	keystroke_Key.enter	Key.enter	n/a
321.728	4.2375	643456	prompt	n/a	ends audio julie restricted\n
322.455	0.1005	644910	keystroke_e	e	n/a
322.6005	0.1125	645201	keystroke_n	n	n/a
322.725	0.1575	645450	keystroke_d	d	n/a
322.792	0.1355	645584	keystroke_s	s	n/a
322.938	0.102	645876	keystroke_Key.space	Key.space	n/a
323.0505	0.1125	646101	keystroke_a	a	n/a
323.1635	0.0895	646327	keystroke_u	u	n/a
323.2875	0.1235	646575	keystroke_d	d	n/a
323.366	0.1685	646732	keystroke_i	i	n/a
323.4675	0.135	646935	keystroke_o	o	n/a
323.546	0.146	647092	keystroke_Key.space	Key.space	n/a
323.6805	0.08	647361	keystroke_j	j	n/a
323.8725	0.0895	647745	keystroke_u	u	n/a
323.962	0.1685	647924	keystroke_l	l	n/a
324.075	0.123	648150	keystroke_i	i	n/a
324.2105	0.1005	648421	keystroke_e	e	n/a
324.333	0.1575	648666	keystroke_Key.space	Key.space	n/a
324.4795	0.1685	648959	keystroke_r	r	n/a
324.558	0.1575	649116	keystroke_e	e	n/a
324.6705	0.169	649341	keystroke_s	s	n/a
324.8055	0.1015	649611	keystroke_t	t	n/a
325.008	0.09	650016	keystroke_r	r	n/a
325.1095	0.124	650219	keystroke_i	i	n/a
325.2115	0.1005	650423	keystroke_c	c	n/a
325.4135	0.1235	650827	keystroke_t	t	n/a
325.492	0.1015	650984	keystroke_e	e	n/a
325.718	0.0665	651436	keystroke_d	d	n/a
325.863	0.1015	651726	keystroke_Key.enter	Key.enter	n/a
325.9685	4.711	651937	prompt	n/a	germany crash permitted michel\n
326.7075	0.1005	653415	keystroke_g	g	n/a
326.898	0.135	653796	keystroke_e	e	n/a
326.988	0.1245	653976	keystroke_r	r	n/a
327.123	0.124	654246	keystroke_m	m	n/a
327.2805	0.09	654561	keystroke_a	a	n/a
327.3825	0.0895	654765	keystroke_n	n	n/a
327.5955	0.1125	655191	keystroke_y	y	n/a
327.6525	0.1345	655305	keystroke_Key.space	Key.space	n/a
327.7645	0.101	655529	keystroke_c	c	n/a
327.9445	0.158	655889	keystroke_r	r	n/a
328.0905	0.1465	656181	keystroke_a	a	n/a
328.1695	0.146	656339	keystroke_s	s	n/a
328.3045	0.1235	656609	keystroke_h	h	n/a
328.3945	0.101	656789	keystroke_Key.space	Key.space	n/a
328.5295	0.124	657059	keystroke_p	p	n/a
328.608	0.124	657216	keystroke_e	e	n/a
328.676	0.1345	657352	keystroke_r	r	n/a
328.7995	0.135	657599	keystroke_m	m	n/a
328.9005	0.1355	657801	keystroke_i	i	n/a
329.0025	0.0895	658005	keystroke_t	t	n/a
329.216	0.09	658432	keystroke_t	t	n/a
329.2615	0.1005	658523	keystroke_e	e	n/a
329.4635	0.101	658927	keystroke_d	d	n/a
329.587	0.135	659174	keystroke_Key.space	Key.space	n/a
329.6545	0.1465	659309	keystroke_m	m	n/a
329.7785	0.1125	659557	keystroke_i	i	n/a
329.902	0.1125	659804	keystroke_c	c	n/a
330.0035	0.112	660007	keystroke_h	h	n/a
330.172	0.101	660344	keystroke_e	e	n/a
330.307	0.124	660614	keystroke_l	l	n/a
330.5775	0.101	661155	keystroke_Key.enter	Key.enter	n/a
330.683	4.745	661366	prompt	n/a	focus wood reconstruction refer\n
331.3645	0.101	662729	keystroke_f	f	n/a
331.4545	0.1125	662909	keystroke_o	o	n/a
331.5895	0.1125	663179	keystroke_c	c	n/a
331.7135	0.101	663427	keystroke_u	u	n/a
331.826	0.0785	663652	keystroke_s	s	n/a
331.927	0.1235	663854	keystroke_Key.space	Key.space	n/a
332.062	0.101	664124	keystroke_w	w	n/a
332.197	0.0675	664394	keystroke_o	o	n/a
332.388	0.079	664776	keystroke_o	o	n/a
332.501	0.1125	665002	keystroke_d	d	n/a
332.602	0.1685	665204	keystroke_Key.space	Key.space	n/a
332.748	0.1465	665496	keystroke_r	r	n/a
332.8385	0.101	665677	keystroke_e	e	n/a
333.0635	0.101	666127	keystroke_c	c	n/a
333.1765	0.123	666353	keystroke_o	o	n/a
333.232	0.1685	666464	keystroke_n	n	n/a
333.3445	0.1015	666689	keystroke_s	s	n/a
333.412	0.1015	666824	keystroke_t	t	n/a
333.627	0.1115	667254	keystroke_r	r	n/a
333.783	0.1125	667566	keystroke_u	u	n/a
333.907	0.09	667814	keystroke_c	c	n/a
334.1205	0.1015	668241	keystroke_t	t	n/a
334.233	0.2255	668466	keystroke_i	i	n/a
334.301	0.146	668602	keystroke_o	o	n/a
334.357	0.1805	668714	keystroke_n	n	n/a
334.436	0.146	668872	keystroke_Key.space	Key.space	n/a
334.527	0.134	669054	keystroke_r	r	n/a
334.616	0.112	669232	keystroke_e	e	n/a
334.8295	0.1125	669659	keystroke_f	f	n/a
335.01	0.1795	670020	keystroke_e	e	n/a
335.1445	0.124	670289	keystroke_r	r	n/a
335.313	0.113	670626	keystroke_Key.enter	Key.enter	n/a
335.431	4.417	670862	prompt	n/a	choice violin menu openings\n
336.101	0.1235	672202	keystroke_c	c	n/a
336.203	0.1235	672406	keystroke_h	h	n/a
336.292	0.2025	672584	keystroke_o	o	n/a
336.4045	0.1685	672809	keystroke_i	i	n/a
336.517	0.101	673034	keystroke_c	c	n/a
336.731	0.079	673462	keystroke_e	e	n/a
336.832	0.1125	673664	keystroke_Key.space	Key.space	n/a
336.967	0.124	673934	keystroke_v	v	n/a
337.0695	0.1675	674139	keystroke_i	i	n/a
337.17	0.112	674340	keystroke_o	o	n/a
337.4055	0.2025	674811	keystroke_l	l	n/a
337.507	0.169	675014	keystroke_i	i	n/a
337.597	0.1465	675194	keystroke_n	n	n/a
337.7095	0.1465	675419	keystroke_Key.space	Key.space	n/a
337.845	0.0895	675690	keystroke_m	m	n/a
337.957	0.113	675914	keystroke_e	e	n/a
338.0585	0.079	676117	keystroke_n	n	n/a
338.261	0.0895	676522	keystroke_u	u	n/a
338.362	0.1575	676724	keystroke_Key.space	Key.space	n/a
338.5645	0.1575	677129	keystroke_o	o	n/a
338.6885	0.157	677377	keystroke_p	p	n/a
338.891	0.1235	677782	keystroke_e	e	n/a
339.0035	0.1235	678007	keystroke_n	n	n/a
339.1495	0.146	678299	keystroke_i	i	n/a
339.2395	0.147	678479	keystroke_n	n	n/a
339.397	0.113	678794	keystroke_g	g	n/a
339.5435	0.1235	679087	keystroke_s	s	n/a
339.7345	0.1125	679469	keystroke_Key.enter	Key.enter	n/a
339.851	6.4555	679702	prompt	n/a	punch muscles exemption generator\n
340.579	0.1345	681158	keystroke_p	p	n/a
340.7695	0.1125	681539	keystroke_u	u	n/a
340.9955	0.078	681991	keystroke_n	n	n/a
341.1635	0.124	682327	keystroke_c	c	n/a
341.2535	0.1235	682507	keystroke_h	h	n/a
341.3545	0.1355	682709	keystroke_Key.space	Key.space	n/a
341.479	0.0895	682958	keystroke_m	m	n/a
341.692	0.09	683384	keystroke_u	u	n/a
341.827	0.09	683654	keystroke_s	s	n/a
342.041	0.1125	684082	keystroke_c	c	n/a
342.1875	0.125	684375	keystroke_l	l	n/a
342.2995	0.184	684599	keystroke_e	e	n/a
342.401	0.1465	684802	keystroke_s	s	n/a
342.536	0.146	685072	keystroke_Key.space	Key.space	n/a
342.637	0.1125	685274	keystroke_e	e	n/a
342.851	0.1125	685702	keystroke_x	x	n/a
343.087	0.0675	686174	keystroke_e	e	n/a
343.2335	0.1125	686467	keystroke_p	p	n/a
343.852	0.079	687704	keystroke_Key.backspace	Key.backspace	n/a
344.077	0.1125	688154	keystroke_m	m	n/a
344.291	0.1125	688582	keystroke_p	p	n/a
344.46	0.136	688920	keystroke_t	t	n/a
344.606	0.2485	689212	keystroke_i	i	n/a
344.7075	0.157	689415	keystroke_o	o	n/a
344.775	0.1575	689550	keystroke_n	n	n/a
344.8755	0.1245	689751	keystroke_Key.space	Key.space	n/a
345.0105	0.0795	690021	keystroke_g	g	n/a
345.1575	0.0785	690315	keystroke_e	e	n/a
345.281	0.146	690562	keystroke_n	n	n/a
345.3485	0.191	690697	keystroke_e	e	n/a
345.495	0.1235	690990	keystroke_r	r	n/a
345.641	0.1465	691282	keystroke_a	a	n/a
345.7545	0.1115	691509	keystroke_t	t	n/a
345.866	0.1235	691732	keystroke_o	o	n/a
346.001	0.1235	692002	keystroke_r	r	n/a
346.192	0.113	692384	keystroke_Key.enter	Key.enter	n/a
346.31	5.3065	692620	prompt	n/a	fees invoice stuffed projected\n
346.913	0.1005	693826	keystroke_f	f	n/a
347.092	0.1015	694184	keystroke_e	e	n/a
347.2725	0.101	694545	keystroke_e	e	n/a
347.452	0.1125	694904	keystroke_s	s	n/a
347.576	0.135	695152	keystroke_Key.space	Key.space	n/a
347.801	0.135	695602	keystroke_i	i	n/a
347.8685	0.146	695737	keystroke_n	n	n/a
348.015	0.112	696030	keystroke_v	v	n/a
348.1385	0.1685	696277	keystroke_o	o	n/a
348.2395	0.1355	696479	keystroke_i	i	n/a
348.3295	0.1015	696659	keystroke_c	c	n/a
348.5435	0.1015	697087	keystroke_e	e	n/a
348.656	0.101	697312	keystroke_Key.space	Key.space	n/a
348.9485	0.101	697897	keystroke_s	s	n/a
349.027	0.124	698054	keystroke_t	t	n/a
349.241	0.09	698482	keystroke_u	u	n/a
349.355	0.077	698710	keystroke_f	f	n/a
349.567	0.1125	699134	keystroke_f	f	n/a
349.6465	0.101	699293	keystroke_e	e	n/a
349.8485	0.0785	699697	keystroke_d	d	n/a
349.9615	0.135	699923	keystroke_Key.space	Key.space	n/a
350.254	0.112	700508	keystroke_p	p	n/a
350.3775	0.1235	700755	keystroke_r	r	n/a
350.4805	0.133	700961	keystroke_o	o	n/a
350.557	0.169	701114	keystroke_j	j	n/a
350.67	0.1235	701340	keystroke_e	e	n/a
350.906	0.0905	701812	keystroke_c	c	n/a
351.098	0.123	702196	keystroke_t	t	n/a
351.176	0.101	702352	keystroke_e	e	n/a
351.3795	0.089	702759	keystroke_d	d	n/a
351.491	0.124	702982	keystroke_Key.enter	Key.enter	n/a
351.62	5.8015	703240	prompt	n/a	repairs patrick nudist displaying\n
352.459	0.1455	704918	keystroke_r	r	n/a
352.5375	0.112	705075	keystroke_e	e	n/a
352.7845	0.1575	705569	keystroke_p	p	n/a
352.9645	0.1465	705929	keystroke_a	a	n/a
353.122	0.135	706244	keystroke_i	i	n/a
353.28	0.169	706560	keystroke_r	r	n/a
353.381	0.135	706762	keystroke_s	s	n/a
353.5385	0.158	707077	keystroke_Key.space	Key.space	n/a
354.0225	0.158	708045	keystroke_p	p	n/a
354.1135	0.1115	708227	keystroke_a	a	n/a
354.214	0.101	708428	keystroke_t	t	n/a
354.4385	0.079	708877	keystroke_r	r	n/a
354.5395	0.124	709079	keystroke_i	i	n/a
354.6745	0.124	709349	keystroke_c	c	n/a
354.765	0.1235	709530	keystroke_k	k	n/a
354.8435	0.135	709687	keystroke_Key.space	Key.space	n/a
355.001	0.079	710002	keystroke_n	n	n/a
355.2035	0.0675	710407	keystroke_u	u	n/a
355.3275	0.09	710655	keystroke_d	d	n/a
355.418	0.1235	710836	keystroke_i	i	n/a
355.5525	0.1235	711105	keystroke_s	s	n/a
355.631	0.1125	711262	keystroke_t	t	n/a
355.6985	0.146	711397	keystroke_Key.space	Key.space	n/a
355.901	0.101	711802	keystroke_d	d	n/a
355.991	0.135	711982	keystroke_i	i	n/a
356.1265	0.078	712253	keystroke_s	s	n/a
356.25	0.1125	712500	keystroke_p	p	n/a
356.441	0.124	712882	keystroke_l	l	n/a
356.621	0.1125	713242	keystroke_a	a	n/a
356.711	0.124	713422	keystroke_y	y	n/a
356.8805	0.1345	713761	keystroke_i	i	n/a
356.9585	0.113	713917	keystroke_n	n	n/a
357.071	0.1245	714142	keystroke_g	g	n/a
357.3185	0.102	714637	keystroke_Key.enter	Key.enter	n/a
357.4255	4.6085	714851	prompt	n/a	wholesale rating folder hughes\n
358.2975	0.1125	716595	keystroke_w	w	n/a
358.376	0.135	716752	keystroke_h	h	n/a
358.4885	0.1025	716977	keystroke_o	o	n/a
358.691	0.1125	717382	keystroke_l	l	n/a
358.7585	0.1125	717517	keystroke_e	e	n/a
358.961	0.124	717922	keystroke_s	s	n/a
359.1305	0.123	718261	keystroke_a	a	n/a
359.2425	0.1125	718485	keystroke_l	l	n/a
359.355	0.0675	718710	keystroke_e	e	n/a
359.4335	0.169	718867	keystroke_Key.space	Key.space	n/a
359.5465	0.1345	719093	keystroke_r	r	n/a
359.692	0.1355	719384	keystroke_a	a	n/a
359.7935	0.1125	719587	keystroke_t	t	n/a
359.897	0.1105	719794	keystroke_i	i	n/a
359.94	0.124	719880	keystroke_n	n	n/a
360.0305	0.1005	720061	keystroke_g	g	n/a
360.12	0.1235	720240	keystroke_Key.space	Key.space	n/a
360.255	0.1125	720510	keystroke_f	f	n/a
360.38	0.0555	720760	keystroke_o	o	n/a
360.57	0.101	721140	keystroke_l	l	n/a
360.683	0.078	721366	keystroke_d	d	n/a
360.864	0.0995	721728	keystroke_e	e	n/a
360.9305	0.101	721861	keystroke_r	r	n/a
361.0315	0.123	722063	keystroke_Key.space	Key.space	n/a
361.133	0.0895	722266	keystroke_h	h	n/a
361.3235	0.09	722647	keystroke_u	u	n/a
361.4585	0.079	722917	keystroke_g	g	n/a
361.5485	0.1015	723097	keystroke_h	h	n/a
361.661	0.18	723322	keystroke_e	e	n/a
361.7635	0.145	723527	keystroke_s	s	n/a
361.92	0.113	723840	keystroke_Key.enter	Key.enter	n/a
362.0375	6.3755	724075	prompt	n/a	alignment marilyn ultimate idle\n
362.685	0.1235	725370	keystroke_a	a	n/a
362.82	0.1575	725640	keystroke_l	l	n/a
362.9325	0.1235	725865	keystroke_i	i	n/a
363.08	0.111	726160	keystroke_g	g	n/a
363.181	0.1115	726362	keystroke_n	n	n/a
363.4055	0.078	726811	keystroke_m	m	n/a
363.531	0.1	727062	keystroke_e	e	n/a
363.641	0.09	727282	keystroke_n	n	n/a
363.7425	0.101	727485	keystroke_t	t	n/a
363.8105	0.1455	727621	keystroke_Key.space	Key.space	n/a
363.98	0.134	727960	keystroke_m	m	n/a
364.136	0.135	728272	keystroke_a	a	n/a
364.226	0.135	728452	keystroke_r	r	n/a
366.105	0.1125	732210	keystroke_i	i	n/a
366.353	0.1455	732706	keystroke_l	l	n/a
366.488	0.0895	732976	keystroke_y	y	n/a
366.691	0.1	733382	keystroke_n	n	n/a
366.7685	0.147	733537	keystroke_Key.space	Key.space	n/a
366.926	0.135	733852	keystroke_u	u	n/a
367.0385	0.09	734077	keystroke_l	l	n/a
367.151	0.124	734302	keystroke_t	t	n/a
367.2415	0.124	734483	keystroke_i	i	n/a
367.3085	0.1465	734617	keystroke_m	m	n/a
367.3985	0.09	734797	keystroke_a	a	n/a
367.4775	0.136	734955	keystroke_t	t	n/a
367.556	0.139	735112	keystroke_e	e	n/a
367.6465	0.1235	735293	keystroke_Key.space	Key.space	n/a
367.804	0.113	735608	keystroke_i	i	n/a
367.9165	0.101	735833	keystroke_d	d	n/a
368.0515	0.101	736103	keystroke_l	l	n/a
368.1415	0.0785	736283	keystroke_e	e	n/a
368.299	0.113	736598	keystroke_Key.enter	Key.enter	n/a
368.4175	5.1365	736835	prompt	n/a	breaking specific recording junior\n
369.098	0.1005	738196	keystroke_b	b	n/a
369.3335	0.214	738667	keystroke_r	r	n/a
369.4355	0.1685	738871	keystroke_e	e	n/a
369.5585	0.1465	739117	keystroke_a	a	n/a
369.671	0.09	739342	keystroke_k	k	n/a
369.8625	0.101	739725	keystroke_i	i	n/a
369.9075	0.1125	739815	keystroke_n	n	n/a
370.02	0.0905	740040	keystroke_g	g	n/a
370.099	0.112	740198	keystroke_Key.space	Key.space	n/a
370.223	0.1125	740446	keystroke_s	s	n/a
370.358	0.1345	740716	keystroke_p	p	n/a
370.4475	0.09	740895	keystroke_e	e	n/a
370.661	0.09	741322	keystroke_c	c	n/a
370.7965	0.0785	741593	keystroke_i	i	n/a
370.886	0.113	741772	keystroke_f	f	n/a
371.021	0.079	742042	keystroke_i	i	n/a
371.111	0.0905	742222	keystroke_c	c	n/a
371.224	0.146	742448	keystroke_Key.space	Key.space	n/a
371.3585	0.135	742717	keystroke_r	r	n/a
371.4375	0.1135	742875	keystroke_e	e	n/a
371.6625	0.101	743325	keystroke_c	c	n/a
371.8315	0.112	743663	keystroke_o	o	n/a
371.967	0.123	743934	keystroke_r	r	n/a
372.045	0.1125	744090	keystroke_d	d	n/a
372.169	0.101	744338	keystroke_i	i	n/a
372.203	0.123	744406	keystroke_n	n	n/a
372.3165	0.0995	744633	keystroke_g	g	n/a
372.394	0.1345	744788	keystroke_Key.space	Key.space	n/a
372.4735	0.1115	744947	keystroke_j	j	n/a
372.6865	0.067	745373	keystroke_u	u	n/a
372.8665	0.079	745733	keystroke_n	n	n/a
373.0015	0.1685	746003	keystroke_i	i	n/a
373.1365	0.113	746273	keystroke_o	o	n/a
373.3055	0.1125	746611	keystroke_r	r	n/a
373.4515	0.1015	746903	keystroke_Key.enter	Key.enter	n/a
373.557	7.5345	747114	prompt	n/a	refurbished responsible administered certificate\n
374.2505	0.1685	748501	keystroke_r	r	n/a
374.3065	0.1685	748613	keystroke_e	e	n/a
374.6	0.1225	749200	keystroke_f	f	n/a
374.7565	0.101	749513	keystroke_u	u	n/a
374.869	0.112	749738	keystroke_r	r	n/a
375.5665	0.0785	751133	keystroke_b	b	n/a
375.69	0.1125	751380	keystroke_i	i	n/a
375.825	0.1125	751650	keystroke_s	s	n/a
375.95	0.112	751900	keystroke_h	h	n/a
376.062	0.0895	752124	keystroke_e	e	n/a
376.2525	0.0795	752505	keystroke_d	d	n/a
376.365	0.1355	752730	keystroke_Key.space	Key.space	n/a
376.4825	0.209	752965	keystroke_r	r	n/a
376.5565	0.191	753113	keystroke_e	e	n/a
376.7025	0.1685	753405	keystroke_s	s	n/a
376.861	0.1455	753722	keystroke_p	p	n/a
376.995	0.169	753990	keystroke_o	o	n/a
377.085	0.124	754170	keystroke_n	n	n/a
377.1975	0.09	754395	keystroke_s	s	n/a
377.311	0.1115	754622	keystroke_i	i	n/a
377.434	0.1125	754868	keystroke_b	b	n/a
377.558	0.101	755116	keystroke_l	l	n/a
377.6475	0.08	755295	keystroke_e	e	n/a
377.7495	0.146	755499	keystroke_Key.space	Key.space	n/a
377.8615	0.1235	755723	keystroke_a	a	n/a
377.974	0.1015	755948	keystroke_d	d	n/a
378.064	0.1135	756128	keystroke_m	m	n/a
378.211	0.1005	756422	keystroke_i	i	n/a
378.289	0.1125	756578	keystroke_n	n	n/a
378.4575	0.17	756915	keystroke_i	i	n/a
378.615	0.1355	757230	keystroke_s	s	n/a
378.739	0.1125	757478	keystroke_t	t	n/a
378.9075	0.1125	757815	keystroke_e	e	n/a
378.9975	0.169	757995	keystroke_r	r	n/a
379.111	0.1115	758222	keystroke_e	e	n/a
379.3125	0.1015	758625	keystroke_d	d	n/a
379.459	0.124	758918	keystroke_Key.space	Key.space	n/a
379.5275	0.1115	759055	keystroke_c	c	n/a
379.74	0.135	759480	keystroke_e	e	n/a
379.819	0.09	759638	keystroke_r	r	n/a
380.01	0.0905	760020	keystroke_t	t	n/a
380.134	0.0785	760268	keystroke_i	i	n/a
380.2465	0.101	760493	keystroke_f	f	n/a
380.359	0.114	760718	keystroke_i	i	n/a
380.4375	0.1245	760875	keystroke_c	c	n/a
380.619	0.1225	761238	keystroke_a	a	n/a
380.7075	0.1575	761415	keystroke_t	t	n/a
380.809	0.1125	761618	keystroke_e	e	n/a
380.9775	0.1125	761955	keystroke_Key.enter	Key.enter	n/a
381.0945	6.23	762189	prompt	n/a	offering cruz portions potentially\n
381.765	0.1915	763530	keystroke_o	o	n/a
381.99	0.0905	763980	keystroke_f	f	n/a
382.1925	0.0905	764385	keystroke_f	f	n/a
382.3615	0.135	764723	keystroke_e	e	n/a
382.4515	0.124	764903	keystroke_r	r	n/a
382.5865	0.1125	765173	keystroke_i	i	n/a
382.654	0.101	765308	keystroke_n	n	n/a
382.733	0.1125	765466	keystroke_g	g	n/a
382.846	0.1345	765692	keystroke_Key.space	Key.space	n/a
382.9575	0.09	765915	keystroke_c	c	n/a
383.149	0.101	766298	keystroke_r	r	n/a
383.2505	0.09	766501	keystroke_u	u	n/a
383.3965	0.1125	766793	keystroke_z	z	n/a
383.4755	0.158	766951	keystroke_Key.space	Key.space	n/a
383.633	0.136	767266	keystroke_p	p	n/a
383.734	0.146	767468	keystroke_o	o	n/a
383.858	0.0785	767716	keystroke_r	r	n/a
384.049	0.1015	768098	keystroke_t	t	n/a
384.1615	0.225	768323	keystroke_i	i	n/a
384.2525	0.145	768505	keystroke_o	o	n/a
384.3195	0.112	768639	keystroke_n	n	n/a
384.4425	0.079	768885	keystroke_s	s	n/a
384.5325	0.124	769065	keystroke_Key.space	Key.space	n/a
384.679	0.113	769358	keystroke_p	p	n/a
384.915	0.1015	769830	keystroke_r	r	n/a
385.2755	0.045	770551	keystroke_Key.backspace	Key.backspace	n/a
385.489	0.101	770978	keystroke_o	o	n/a
385.849	0.09	771698	keystroke_t	t	n/a
386.03	0.089	772060	keystroke_e	e	n/a
386.1415	0.1125	772283	keystroke_n	n	n/a
386.3105	0.1015	772621	keystroke_t	t	n/a
386.4115	0.102	772823	keystroke_i	i	n/a
386.5355	0.09	773071	keystroke_a	a	n/a
386.6365	0.079	773273	keystroke_l	l	n/a
386.839	0.135	773678	keystroke_l	l	n/a
386.9185	0.123	773837	keystroke_y	y	n/a
387.2325	0.0905	774465	keystroke_Key.enter	Key.enter	n/a
387.3275	4.935	774655	prompt	n/a	sweden isn't draws peer\n
388.0315	0.1235	776063	keystroke_s	s	n/a
388.3245	0.0895	776649	keystroke_w	w	n/a
388.988	0.112	777976	keystroke_e	e	n/a
389.2135	0.101	778427	keystroke_d	d	n/a
389.4265	0.0785	778853	keystroke_e	e	n/a
389.5275	0.124	779055	keystroke_n	n	n/a
389.63	0.1795	779260	keystroke_Key.space	Key.space	n/a
389.7975	0.135	779595	keystroke_i	i	n/a
389.9555	0.1345	779911	keystroke_s	s	n/a
390.0455	0.09	780091	keystroke_n	n	n/a
390.1805	0.124	780361	keystroke_'	'	n/a
390.338	0.0895	780676	keystroke_t	t	n/a
390.405	0.1575	780810	keystroke_Key.space	Key.space	n/a
390.529	0.1235	781058	keystroke_d	d	n/a
390.687	0.1795	781374	keystroke_r	r	n/a
390.8555	0.157	781711	keystroke_a	a	n/a
390.9905	0.1145	781981	keystroke_w	w	n/a
391.2155	0.101	782431	keystroke_s	s	n/a
391.306	0.179	782612	keystroke_Key.space	Key.space	n/a
391.463	0.1345	782926	keystroke_p	p	n/a
391.588	0.077	783176	keystroke_e	e	n/a
391.7665	0.1015	783533	keystroke_e	e	n/a
392.014	0.1125	784028	keystroke_r	r	n/a
392.1605	0.101	784321	keystroke_Key.enter	Key.enter	n/a
392.267	7.263	784534	prompt	n/a	upgrades trace catholic herbal\n
394.613	0.135	789226	keystroke_u	u	n/a
394.7715	0.134	789543	keystroke_p	p	n/a
394.939	0.101	789878	keystroke_g	g	n/a
395.1415	0.1685	790283	keystroke_r	r	n/a
395.2765	0.1575	790553	keystroke_a	a	n/a
395.4005	0.112	790801	keystroke_d	d	n/a
395.6165	0.1435	791233	keystroke_e	e	n/a
395.6925	0.1355	791385	keystroke_s	s	n/a
395.839	0.135	791678	keystroke_Key.space	Key.space	n/a
395.929	0.09	791858	keystroke_t	t	n/a
396.1205	0.135	792241	keystroke_r	r	n/a
396.233	0.1345	792466	keystroke_a	a	n/a
396.4465	0.102	792893	keystroke_c	c	n/a
396.6715	0.0675	793343	keystroke_e	e	n/a
396.7955	0.1235	793591	keystroke_Key.space	Key.space	n/a
396.908	0.0905	793816	keystroke_c	c	n/a
397.1555	0.112	794311	keystroke_a	a	n/a
397.415	0.0895	794830	keystroke_t	t	n/a
397.538	0.1125	795076	keystroke_h	h	n/a
397.639	0.101	795278	keystroke_o	o	n/a
397.853	0.18	795706	keystroke_l	l	n/a
397.9545	0.135	795909	keystroke_i	i	n/a
398.1115	0.1245	796223	keystroke_c	c	n/a
398.2245	0.1575	796449	keystroke_Key.space	Key.space	n/a
398.3485	0.112	796697	keystroke_h	h	n/a
398.449	0.146	796898	keystroke_e	e	n/a
398.5505	0.1235	797101	keystroke_r	r	n/a
398.832	0.0895	797664	keystroke_b	b	n/a
399.0235	0.1455	798047	keystroke_a	a	n/a
399.1805	0.1015	798361	keystroke_l	l	n/a
399.428	0.101	798856	keystroke_Key.enter	Key.enter	n/a
399.533	5.1275	799066	prompt	n/a	seekers ruled controller offense\n
400.1365	0.09	800273	keystroke_s	s	n/a
400.328	0.0785	800656	keystroke_e	e	n/a
400.508	0.0785	801016	keystroke_e	e	n/a
400.6435	0.134	801287	keystroke_k	k	n/a
400.744	0.124	801488	keystroke_e	e	n/a
400.834	0.2025	801668	keystroke_r	r	n/a
400.9695	0.101	801939	keystroke_s	s	n/a
401.0815	0.125	802163	keystroke_Key.space	Key.space	n/a
401.206	0.1115	802412	keystroke_r	r	n/a
401.329	0.1465	802658	keystroke_u	u	n/a
401.431	0.1585	802862	keystroke_l	l	n/a
401.4865	0.1125	802973	keystroke_e	e	n/a
401.7235	0.078	803447	keystroke_d	d	n/a
401.869	0.101	803738	keystroke_Key.space	Key.space	n/a
402.016	0.112	804032	keystroke_c	c	n/a
402.139	0.1575	804278	keystroke_o	o	n/a
402.2515	0.135	804503	keystroke_n	n	n/a
402.376	0.1025	804752	keystroke_t	t	n/a
402.5895	0.1015	805179	keystroke_r	r	n/a
402.691	0.0895	805382	keystroke_o	o	n/a
402.904	0.0565	805808	keystroke_l	l	n/a
403.073	0.1235	806146	keystroke_l	l	n/a
403.174	0.135	806348	keystroke_e	e	n/a
403.2755	0.101	806551	keystroke_r	r	n/a
403.389	0.145	806778	keystroke_Key.space	Key.space	n/a
403.523	0.1235	807046	keystroke_o	o	n/a
403.624	0.079	807248	keystroke_f	f	n/a
403.839	0.0775	807678	keystroke_f	f	n/a
403.9615	0.124	807923	keystroke_e	e	n/a
404.1415	0.124	808283	keystroke_n	n	n/a
404.289	0.179	808578	keystroke_s	s	n/a
404.3895	0.1235	808779	keystroke_e	e	n/a
404.5465	0.1125	809093	keystroke_Key.enter	Key.enter	n/a
404.663	4.981	809326	prompt	n/a	seriously satin reform purchases\n
405.2335	0.0895	810467	keystroke_s	s	n/a
405.4465	0.124	810893	keystroke_e	e	n/a
405.5365	0.1355	811073	keystroke_r	r	n/a
405.694	0.1575	811388	keystroke_i	i	n/a
405.818	0.2025	811636	keystroke_o	o	n/a
405.9755	0.1235	811951	keystroke_u	u	n/a
406.1105	0.1125	812221	keystroke_s	s	n/a
406.268	0.169	812536	keystroke_l	l	n/a
406.3355	0.124	812671	keystroke_y	y	n/a
406.4145	0.1235	812829	keystroke_Key.space	Key.space	n/a
406.483	0.1	812966	keystroke_s	s	n/a
406.6845	0.112	813369	keystroke_a	a	n/a
406.7855	0.1135	813571	keystroke_t	t	n/a
406.898	0.1465	813796	keystroke_i	i	n/a
406.966	0.157	813932	keystroke_n	n	n/a
407.0895	0.135	814179	keystroke_Key.space	Key.space	n/a
407.258	0.158	814516	keystroke_r	r	n/a
407.3705	0.1125	814741	keystroke_e	e	n/a
407.629	0.124	815258	keystroke_f	f	n/a
407.7755	0.124	815551	keystroke_o	o	n/a
407.978	0.0785	815956	keystroke_r	r	n/a
408.0905	0.101	816181	keystroke_m	m	n/a
408.158	0.1125	816316	keystroke_Key.space	Key.space	n/a
408.3045	0.158	816609	keystroke_p	p	n/a
408.3945	0.1125	816789	keystroke_u	u	n/a
408.4955	0.1125	816991	keystroke_r	r	n/a
408.7205	0.135	817441	keystroke_c	c	n/a
408.867	0.0895	817734	keystroke_h	h	n/a
409.0015	0.1015	818003	keystroke_a	a	n/a
409.0915	0.1015	818183	keystroke_s	s	n/a
409.1705	0.2475	818341	keystroke_e	e	n/a
409.3395	0.1525	818679	keystroke_s	s	n/a
409.5305	0.1125	819061	keystroke_Key.enter	Key.enter	n/a
409.6465	5.871	819293	prompt	n/a	cricket style maximize specific\n
410.2285	0.09	820457	keystroke_s	s	n/a
410.7235	0.0895	821447	keystroke_Key.backspace	Key.backspace	n/a
410.7905	0.09	821581	keystroke_c	c	n/a
411.004	0.1125	822008	keystroke_r	r	n/a
411.128	0.101	822256	keystroke_i	i	n/a
411.2515	0.1015	822503	keystroke_c	c	n/a
411.364	0.1125	822728	keystroke_k	k	n/a
411.499	0.1125	822998	keystroke_e	e	n/a
411.578	0.1235	823156	keystroke_t	t	n/a
411.679	0.124	823358	keystroke_Key.space	Key.space	n/a
411.7915	0.1015	823583	keystroke_s	s	n/a
411.859	0.114	823718	keystroke_t	t	n/a
411.973	0.145	823946	keystroke_y	y	n/a
412.084	0.135	824168	keystroke_l	l	n/a
412.1965	0.09	824393	keystroke_e	e	n/a
412.264	0.1465	824528	keystroke_Key.space	Key.space	n/a
412.366	0.1345	824732	keystroke_m	m	n/a
412.5115	0.0905	825023	keystroke_a	a	n/a
412.7255	0.1475	825451	keystroke_z	z	n/a
413.119	0.0795	826238	keystroke_Key.backspace	Key.backspace	n/a
413.254	0.124	826508	keystroke_x	x	n/a
413.423	0.146	826846	keystroke_i	i	n/a
413.659	0.135	827318	keystroke_m	m	n/a
413.773	0.134	827546	keystroke_i	i	n/a
413.884	0.1355	827768	keystroke_z	z	n/a
414.019	0.102	828038	keystroke_e	e	n/a
414.19	0.1335	828380	keystroke_Key.space	Key.space	n/a
414.3115	0.1125	828623	keystroke_s	s	n/a
414.469	0.135	828938	keystroke_p	p	n/a
414.559	0.079	829118	keystroke_e	e	n/a
414.7615	0.1125	829523	keystroke_c	c	n/a
414.8855	0.101	829771	keystroke_i	i	n/a
414.998	0.1235	829996	keystroke_f	f	n/a
415.122	0.101	830244	keystroke_i	i	n/a
415.2115	0.124	830423	keystroke_c	c	n/a
415.403	0.1135	830806	keystroke_Key.enter	Key.enter	n/a
415.521	5.9815	831042	prompt	n/a	russian kathy ukraine refer\n
416.168	0.1125	832336	keystroke_r	r	n/a
416.3145	0.09	832629	keystroke_u	u	n/a
416.427	0.079	832854	keystroke_s	s	n/a
416.5955	0.09	833191	keystroke_s	s	n/a
416.6965	0.1125	833393	keystroke_i	i	n/a
416.8315	0.124	833663	keystroke_a	a	n/a
416.933	0.146	833866	keystroke_n	n	n/a
417.0005	0.135	834001	keystroke_Key.space	Key.space	n/a
417.2815	0.1465	834563	keystroke_k	k	n/a
417.417	0.124	834834	keystroke_a	a	n/a
417.5515	0.102	835103	keystroke_t	t	n/a
417.664	0.09	835328	keystroke_h	h	n/a
417.8665	0.1015	835733	keystroke_y	y	n/a
417.934	0.1245	835868	keystroke_Key.space	Key.space	n/a
418.1035	0.1465	836207	keystroke_r	r	n/a
418.3735	0.0555	836747	keystroke_Key.backspace	Key.backspace	n/a
418.5865	0.08	837173	keystroke_u	u	n/a
418.7555	0.135	837511	keystroke_k	k	n/a
419.1165	0.1675	838233	keystroke_r	r	n/a
419.3855	0.148	838771	keystroke_a	a	n/a
419.5545	0.146	839109	keystroke_i	i	n/a
419.6225	0.1345	839245	keystroke_n	n	n/a
419.734	0.1015	839468	keystroke_e	e	n/a
420.432	0.112	840864	keystroke_Key.space	Key.space	n/a
420.578	0.135	841156	keystroke_r	r	n/a
420.668	0.1235	841336	keystroke_e	e	n/a
420.9045	0.1235	841809	keystroke_f	f	n/a
421.1085	0.1445	842217	keystroke_e	e	n/a
421.2195	0.1125	842439	keystroke_r	r	n/a
421.3655	0.135	842731	keystroke_Key.enter	Key.enter	n/a
421.505	6.0715	843010	prompt	n/a	grenada concerns responses counting\n
422.277	0.101	844554	keystroke_g	g	n/a
422.492	0.145	844984	keystroke_r	r	n/a
422.592	0.101	845184	keystroke_e	e	n/a
422.7155	0.1235	845431	keystroke_n	n	n/a
422.8505	0.1125	845701	keystroke_a	a	n/a
423.0305	0.1685	846061	keystroke_d	d	n/a
423.177	0.1235	846354	keystroke_a	a	n/a
423.323	0.124	846646	keystroke_Key.space	Key.space	n/a
423.447	0.09	846894	keystroke_c	c	n/a
423.548	0.1575	847096	keystroke_o	o	n/a
423.627	0.169	847254	keystroke_n	n	n/a
423.7505	0.0785	847501	keystroke_c	c	n/a
423.9535	0.123	847907	keystroke_e	e	n/a
424.0315	0.158	848063	keystroke_r	r	n/a
424.1895	0.102	848379	keystroke_n	n	n/a
424.302	0.1015	848604	keystroke_s	s	n/a
424.392	0.146	848784	keystroke_Key.space	Key.space	n/a
424.606	0.1905	849212	keystroke_r	r	n/a
424.696	0.146	849392	keystroke_e	e	n/a
424.9655	0.135	849931	keystroke_p	p	n/a
425.3255	0.09	850651	keystroke_Key.backspace	Key.backspace	n/a
425.4495	0.101	850899	keystroke_s	s	n/a
425.6525	0.1455	851305	keystroke_p	p	n/a
425.787	0.18	851574	keystroke_o	o	n/a
425.8775	0.146	851755	keystroke_n	n	n/a
425.9895	0.1015	851979	keystroke_s	s	n/a
426.1025	0.1905	852205	keystroke_e	e	n/a
426.2255	0.124	852451	keystroke_s	s	n/a
426.3715	0.124	852743	keystroke_Key.space	Key.space	n/a
426.507	0.09	853014	keystroke_c	c	n/a
426.5855	0.135	853171	keystroke_o	o	n/a
426.6645	0.101	853329	keystroke_u	u	n/a
426.8555	0.113	853711	keystroke_n	n	n/a
426.9795	0.1125	853959	keystroke_t	t	n/a
427.0805	0.1125	854161	keystroke_i	i	n/a
427.137	0.135	854274	keystroke_n	n	n/a
427.272	0.101	854544	keystroke_g	g	n/a
427.463	0.1125	854926	keystroke_Key.enter	Key.enter	n/a
427.5795	5.848	855159	prompt	n/a	armstrong consequently tree logan\n
428.273	0.147	856546	keystroke_a	a	n/a
428.5325	0.1125	857065	keystroke_r	r	n/a
428.633	0.124	857266	keystroke_m	m	n/a
428.791	0.112	857582	keystroke_s	s	n/a
428.8695	0.101	857739	keystroke_t	t	n/a
429.083	0.1125	858166	keystroke_r	r	n/a
429.1855	0.1225	858371	keystroke_o	o	n/a
429.252	0.1125	858504	keystroke_n	n	n/a
429.3645	0.0785	858729	keystroke_g	g	n/a
