onset	duration	sample	value	key	prompt_text
18.6365	6.5995	37273	prompt	n/a	the quick brown fox jumps over a lazy dog\n
20.016	0.0425	40032	keystroke_t	t	n/a
20.1035	0.0295	40207	keystroke_h	h	n/a
20.149	0.0895	40298	keystroke_e	e	n/a
20.2525	0.0755	40505	keystroke_Key.space	Key.space	n/a
20.373	0.09	40746	keystroke_q	q	n/a
20.464	0.119	40928	keystroke_u	u	n/a
20.5535	0.075	41107	keystroke_i	i	n/a
20.6725	0.09	41345	keystroke_c	c	n/a
20.748	0.0755	41496	keystroke_k	k	n/a
20.8525	0.075	41705	keystroke_Key.space	Key.space	n/a
20.9735	0.074	41947	keystroke_b	b	n/a
21.0775	0.091	42155	keystroke_r	r	n/a
21.1535	0.0745	42307	keystroke_o	o	n/a
21.3475	0.0755	42695	keystroke_n	n	n/a
21.6785	0.0745	43357	keystroke_Key.backspace	Key.backspace	n/a
21.874	0.075	43748	keystroke_w	w	n/a
21.963	0.075	43926	keystroke_n	n	n/a
22.113	0.06	44226	keystroke_Key.space	Key.space	n/a
22.188	0.09	44376	keystroke_f	f	n/a
22.293	0.06	44586	keystroke_o	o	n/a
22.4285	0.0895	44857	keystroke_x	x	n/a
22.5335	0.075	45067	keystroke_Key.space	Key.space	n/a
22.6685	0.0595	45337	keystroke_j	j	n/a
22.818	0.0605	45636	keystroke_u	u	n/a
22.999	0.0745	45998	keystroke_m	m	n/a
23.193	0.0455	46386	keystroke_p	p	n/a
23.2685	0.0745	46537	keystroke_s	s	n/a
23.358	0.03	46716	keystroke_Key.space	Key.space	n/a
23.4335	0.0755	46867	keystroke_o	o	n/a
23.523	0.0605	47046	keystroke_v	v	n/a
23.6735	0.0745	47347	keystroke_e	e	n/a
23.778	0.0895	47556	keystroke_r	r	n/a
23.883	0.075	47766	keystroke_Key.space	Key.space	n/a
23.973	0.076	47946	keystroke_a	a	n/a
24.033	0.0755	48066	keystroke_Key.space	Key.space	n/a
24.168	0.0755	48336	keystroke_l	l	n/a
24.228	0.076	48456	keystroke_a	a	n/a
24.4385	0.09	48877	keystroke_z	z	n/a
24.5135	0.06	49027	keystroke_y	y	n/a
24.6185	0.075	49237	keystroke_Key.space	Key.space	n/a
24.708	0.105	49416	keystroke_d	d	n/a
24.828	0.045	49656	keystroke_o	o	n/a
24.9785	0.0595	49957	keystroke_g	g	n/a
25.158	0.0755	50316	keystroke_Key.enter	Key.enter	n/a
25.241	5.725	50482	prompt	n/a	practical microwave chaos determination\n
25.8485	0.0595	51697	keystroke_p	p	n/a
25.9385	0.074	51877	keystroke_r	r	n/a
26.0435	0.0895	52087	keystroke_a	a	n/a
26.239	0.0745	52478	keystroke_c	c	n/a
26.463	0.06	52926	keystroke_t	t	n/a
26.5385	0.0755	53077	keystroke_i	i	n/a
26.7185	0.0755	53437	keystroke_c	c	n/a
26.869	0.0745	53738	keystroke_a	a	n/a
26.9285	0.0455	53857	keystroke_l	l	n/a
27.0185	0.06	54037	keystroke_Key.space	Key.space	n/a
27.1385	0.089	54277	keystroke_m	m	n/a
27.3485	0.06	54697	keystroke_i	i	n/a
27.4225	0.0455	54845	keystroke_c	c	n/a
27.618	0.0605	55236	keystroke_r	r	n/a
27.739	0.0745	55478	keystroke_o	o	n/a
27.859	0.0745	55718	keystroke_w	w	n/a
28.053	0.0905	56106	keystroke_a	a	n/a
28.2335	0.06	56467	keystroke_v	v	n/a
28.384	0.075	56768	keystroke_e	e	n/a
28.443	0.0755	56886	keystroke_Key.space	Key.space	n/a
28.578	0.0905	57156	keystroke_c	c	n/a
28.623	0.076	57246	keystroke_h	h	n/a
28.744	0.1045	57488	keystroke_a	a	n/a
28.818	0.075	57636	keystroke_o	o	n/a
28.939	0.0895	57878	keystroke_s	s	n/a
29.013	0.0745	58026	keystroke_Key.space	Key.space	n/a
29.1035	0.0895	58207	keystroke_d	d	n/a
29.2535	0.0755	58507	keystroke_e	e	n/a
29.403	0.0755	58806	keystroke_t	t	n/a
29.5085	0.1345	59017	keystroke_e	e	n/a
29.613	0.105	59226	keystroke_r	r	n/a
29.6735	0.0595	59347	keystroke_m	m	n/a
29.883	0.045	59766	keystroke_i	i	n/a
30.033	0.0755	60066	keystroke_n	n	n/a
30.0635	0.0905	60127	keystroke_a	a	n/a
30.318	0.015	60636	keystroke_t	t	n/a
30.348	0.045	60696	keystroke_i	i	n/a
30.379	0.0745	60758	keystroke_o	o	n/a
30.588	0.06	61176	keystroke_n	n	n/a
30.9035	0.06	61807	keystroke_Key.enter	Key.enter	n/a
30.9705	4.45	61941	prompt	n/a	reporter bases paypal cleanup\n
31.7435	0.06	63487	keystroke_r	r	n/a
31.8485	0.1045	63697	keystroke_e	e	n/a
31.9385	0.1045	63877	keystroke_p	p	n/a
31.998	0.06	63996	keystroke_o	o	n/a
32.073	0.09	64146	keystroke_r	r	n/a
32.2535	0.0595	64507	keystroke_t	t	n/a
32.358	0.0905	64716	keystroke_e	e	n/a
32.418	0.1055	64836	keystroke_r	r	n/a
32.508	0.0605	65016	keystroke_Key.space	Key.space	n/a
32.6285	0.075	65257	keystroke_b	b	n/a
32.6885	0.1205	65377	keystroke_a	a	n/a
32.7635	0.0895	65527	keystroke_s	s	n/a
32.9585	0.075	65917	keystroke_e	e	n/a
33.168	0.0755	66336	keystroke_s	s	n/a
33.2885	0.045	66577	keystroke_Key.space	Key.space	n/a
33.424	0.089	66848	keystroke_p	p	n/a
33.528	0.0755	67056	keystroke_a	a	n/a
33.634	0.0445	67268	keystroke_y	y	n/a
33.813	0.06	67626	keystroke_p	p	n/a
33.918	0.09	67836	keystroke_a	a	n/a
33.978	0.075	67956	keystroke_l	l	n/a
34.143	0.045	68286	keystroke_Key.space	Key.space	n/a
34.2485	0.0745	68497	keystroke_c	c	n/a
34.309	0.0595	68618	keystroke_l	l	n/a
34.4435	0.075	68887	keystroke_e	e	n/a
34.5485	0.12	69097	keystroke_a	a	n/a
34.6695	0.044	69339	keystroke_n	n	n/a
34.8635	0.0445	69727	keystroke_u	u	n/a
35.088	0.075	70176	keystroke_p	p	n/a
35.358	0.0605	70716	keystroke_Key.enter	Key.enter	n/a
35.425	4.406	70850	prompt	n/a	lost lexmark editorial chronicle\n
35.989	0.074	71978	keystroke_l	l	n/a
36.198	0.0455	72396	keystroke_o	o	n/a
36.2735	0.09	72547	keystroke_s	s	n/a
36.468	0.0605	72936	keystroke_t	t	n/a
36.543	0.0605	73086	keystroke_Key.space	Key.space	n/a
36.709	0.059	73418	keystroke_l	l	n/a
36.753	0.0755	73506	keystroke_e	e	n/a
36.979	0.0735	73958	keystroke_x	x	n/a
37.0385	0.0755	74077	keystroke_m	m	n/a
37.1425	0.1205	74285	keystroke_a	a	n/a
37.2485	0.0755	74497	keystroke_r	r	n/a
37.324	0.0745	74648	keystroke_k	k	n/a
37.428	0.0905	74856	keystroke_Key.space	Key.space	n/a
37.5335	0.0595	75067	keystroke_e	e	n/a
37.698	0.075	75396	keystroke_d	d	n/a
37.774	0.0445	75548	keystroke_i	i	n/a
37.878	0.061	75756	keystroke_t	t	n/a
37.954	0.074	75908	keystroke_o	o	n/a
38.0735	0.0895	76147	keystroke_r	r	n/a
38.148	0.06	76296	keystroke_i	i	n/a
38.283	0.106	76566	keystroke_a	a	n/a
38.374	0.074	76748	keystroke_l	l	n/a
38.493	0.0605	76986	keystroke_Key.space	Key.space	n/a
38.628	0.0605	77256	keystroke_c	c	n/a
38.703	0.0755	77406	keystroke_h	h	n/a
38.8535	0.075	77707	keystroke_r	r	n/a
38.9135	0.045	77827	keystroke_o	o	n/a
39.0335	0.089	78067	keystroke_n	n	n/a
39.198	0.06	78396	keystroke_i	i	n/a
39.243	0.0755	78486	keystroke_c	c	n/a
39.4535	0.075	78907	keystroke_l	l	n/a
39.5285	0.06	79057	keystroke_e	e	n/a
39.7685	0.06	79537	keystroke_Key.enter	Key.enter	n/a
39.8355	4.84	79671	prompt	n/a	those cingular contributing specify\n
40.5485	0.06	81097	keystroke_t	t	n/a
40.6235	0.06	81247	keystroke_h	h	n/a
40.759	0.0595	81518	keystroke_o	o	n/a
40.8035	0.075	81607	keystroke_s	s	n/a
40.9385	0.075	81877	keystroke_e	e	n/a
40.9985	0.09	81997	keystroke_Key.space	Key.space	n/a
41.2385	0.0745	82477	keystroke_c	c	n/a
41.328	0.06	82656	keystroke_i	i	n/a
41.493	0.075	82986	keystroke_n	n	n/a
41.5985	0.0745	83197	keystroke_g	g	n/a
41.688	0.0605	83376	keystroke_u	u	n/a
41.8685	0.0755	83737	keystroke_l	l	n/a
41.9445	0.1045	83889	keystroke_a	a	n/a
42.0635	0.1045	84127	keystroke_r	r	n/a
42.1535	0.075	84307	keystroke_Key.space	Key.space	n/a
42.3935	0.075	84787	keystroke_c	c	n/a
42.4385	0.045	84877	keystroke_o	o	n/a
42.5885	0.075	85177	keystroke_n	n	n/a
42.6785	0.045	85357	keystroke_t	t	n/a
42.7985	0.09	85597	keystroke_r	r	n/a
42.8735	0.06	85747	keystroke_i	i	n/a
43.0085	0.09	86017	keystroke_b	b	n/a
43.0685	0.075	86137	keystroke_u	u	n/a
43.2185	0.0755	86437	keystroke_t	t	n/a
43.2785	0.0605	86557	keystroke_i	i	n/a
43.429	0.12	86858	keystroke_n	n	n/a
43.504	0.059	87008	keystroke_g	g	n/a
43.579	0.059	87158	keystroke_Key.space	Key.space	n/a
43.684	0.06	87368	keystroke_s	s	n/a
43.729	0.074	87458	keystroke_p	p	n/a
43.834	0.0745	87668	keystroke_e	e	n/a
44.0435	0.06	88087	keystroke_c	c	n/a
44.0735	0.06	88147	keystroke_i	i	n/a
44.2835	0.015	88567	keystroke_f	f	n/a
44.3135	0.045	88627	keystroke_y	y	n/a
44.6135	0.06	89227	keystroke_Key.enter	Key.enter	n/a
44.6805	5.0505	89361	prompt	n/a	stainless tested clone stanley\n
45.273	0.0905	90546	keystroke_s	s	n/a
45.439	0.075	90878	keystroke_t	t	n/a
45.529	0.119	91058	keystroke_a	a	n/a
45.589	0.075	91178	keystroke_i	i	n/a
45.739	0.059	91478	keystroke_n	n	n/a
45.919	0.075	91838	keystroke_l	l	n/a
45.949	0.089	91898	keystroke_e	e	n/a
46.143	0.0755	92286	keystroke_s	s	n/a
46.279	0.0895	92558	keystroke_s	s	n/a
46.353	0.075	92706	keystroke_Key.space	Key.space	n/a
46.5035	0.075	93007	keystroke_t	t	n/a
46.5935	0.09	93187	keystroke_e	e	n/a
46.7885	0.09	93577	keystroke_s	s	n/a
46.834	0.06	93668	keystroke_t	t	n/a
46.9985	0.075	93997	keystroke_e	e	n/a
47.1635	0.09	94327	keystroke_d	d	n/a
47.2385	0.0905	94477	keystroke_Key.space	Key.space	n/a
47.4035	0.0905	94807	keystroke_c	c	n/a
47.508	0.076	95016	keystroke_l	l	n/a
47.704	0.059	95408	keystroke_o	o	n/a
47.884	0.0895	95768	keystroke_n	n	n/a
47.959	0.09	95918	keystroke_e	e	n/a
48.0935	0.0745	96187	keystroke_Key.space	Key.space	n/a
48.213	0.0755	96426	keystroke_s	s	n/a
48.3785	0.0745	96757	keystroke_t	t	n/a
48.5135	0.105	97027	keystroke_a	a	n/a
48.573	0.06	97146	keystroke_n	n	n/a
48.7835	0.075	97567	keystroke_l	l	n/a
48.979	0.0895	97958	keystroke_e	e	n/a
49.1285	0.0455	98257	keystroke_y	y	n/a
49.6535	0.0755	99307	keystroke_Key.enter	Key.enter	n/a
49.735	5.5905	99470	prompt	n/a	discounts nylon hayes title\n
50.629	0.0745	101258	keystroke_d	d	n/a
50.7185	0.06	101437	keystroke_o	o	n/a
51.0935	0.045	102187	keystroke_Key.backspace	Key.backspace	n/a
51.3035	0.0595	102607	keystroke_i	i	n/a
51.394	0.059	102788	keystroke_s	s	n/a
51.558	0.09	103116	keystroke_c	c	n/a
51.604	0.059	103208	keystroke_o	o	n/a
51.783	0.045	103566	keystroke_u	u	n/a
51.933	0.0905	103866	keystroke_n	n	n/a
52.0085	0.0895	104017	keystroke_t	t	n/a
52.1885	0.09	104377	keystroke_s	s	n/a
52.2635	0.075	104527	keystroke_Key.space	Key.space	n/a
52.4285	0.06	104857	keystroke_n	n	n/a
52.6385	0.045	105277	keystroke_y	y	n/a
52.8485	0.0605	105697	keystroke_l	l	n/a
53.059	0.0445	106118	keystroke_o	o	n/a
53.2385	0.0755	106477	keystroke_n	n	n/a
53.3885	0.09	106777	keystroke_Key.space	Key.space	n/a
53.5985	0.0455	107197	keystroke_h	h	n/a
53.6735	0.12	107347	keystroke_a	a	n/a
53.8085	0.075	107617	keystroke_y	y	n/a
53.9435	0.105	107887	keystroke_e	e	n/a
54.2735	0.075	108547	keystroke_s	s	n/a
54.3635	0.09	108727	keystroke_Key.space	Key.space	n/a
54.5735	0.06	109147	keystroke_t	t	n/a
54.6345	0.0745	109269	keystroke_i	i	n/a
54.724	0.09	109448	keystroke_t	t	n/a
54.874	0.09	109748	keystroke_l	l	n/a
54.964	0.075	109928	keystroke_e	e	n/a
55.2635	0.06	110527	keystroke_Key.enter	Key.enter	n/a
55.3335	5.5265	110667	prompt	n/a	sentence timer comments doors\n
56.1035	0.09	112207	keystroke_s	s	n/a
56.269	0.0895	112538	keystroke_e	e	n/a
56.4035	0.06	112807	keystroke_n	n	n/a
56.4935	0.06	112987	keystroke_t	t	n/a
57.349	0.074	114698	keystroke_e	e	n/a
57.468	0.0755	114936	keystroke_n	n	n/a
57.664	0.075	115328	keystroke_c	c	n/a
57.8885	0.075	115777	keystroke_e	e	n/a
57.9635	0.09	115927	keystroke_Key.space	Key.space	n/a
58.1135	0.0905	116227	keystroke_t	t	n/a
58.189	0.045	116378	keystroke_i	i	n/a
58.354	0.075	116708	keystroke_m	m	n/a
58.414	0.105	116828	keystroke_e	e	n/a
58.564	0.074	117128	keystroke_r	r	n/a
58.653	0.075	117306	keystroke_Key.space	Key.space	n/a
58.818	0.061	117636	keystroke_c	c	n/a
58.879	0.0445	117758	keystroke_o	o	n/a
59.059	0.06	118118	keystroke_m	m	n/a
59.1635	0.075	118327	keystroke_m	m	n/a
59.2535	0.045	118507	keystroke_e	e	n/a
59.3435	0.075	118687	keystroke_n	n	n/a
59.4335	0.0755	118867	keystroke_t	t	n/a
59.5685	0.09	119137	keystroke_s	s	n/a
59.6435	0.09	119287	keystroke_Key.space	Key.space	n/a
59.7485	0.1055	119497	keystroke_d	d	n/a
59.839	0.045	119678	keystroke_o	o	n/a
59.943	0.0905	119886	keystroke_o	o	n/a
60.0485	0.0895	120097	keystroke_r	r	n/a
60.484	0.0745	120968	keystroke_s	s	n/a
60.7535	0.105	121507	keystroke_Key.enter	Key.enter	n/a
60.863	5.322	121726	prompt	n/a	opening engine starter judy\n
61.6835	0.105	123367	keystroke_o	o	n/a
61.7435	0.0745	123487	keystroke_p	p	n/a
61.8485	0.1045	123697	keystroke_e	e	n/a
61.998	0.076	123996	keystroke_n	n	n/a
62.1935	0.045	124387	keystroke_i	i	n/a
62.3285	0.105	124657	keystroke_n	n	n/a
62.449	0.075	124898	keystroke_g	g	n/a
62.5685	0.09	125137	keystroke_Key.space	Key.space	n/a
62.9285	0.105	125857	keystroke_e	e	n/a
63.0485	0.075	126097	keystroke_n	n	n/a
63.1835	0.1055	126367	keystroke_g	g	n/a
63.2735	0.0595	126547	keystroke_i	i	n/a
63.409	0.104	126818	keystroke_n	n	n/a
63.498	0.09	126996	keystroke_e	e	n/a
63.6035	0.0605	127207	keystroke_Key.space	Key.space	n/a
63.723	0.075	127446	keystroke_s	s	n/a
63.873	0.076	127746	keystroke_t	t	n/a
63.979	0.15	127958	keystroke_a	a	n/a
64.0985	0.105	128197	keystroke_r	r	n/a
64.293	0.09	128586	keystroke_t	t	n/a
64.399	0.119	128798	keystroke_e	e	n/a
64.4735	0.1195	128947	keystroke_r	r	n/a
64.6085	0.06	129217	keystroke_Key.space	Key.space	n/a
64.7435	0.06	129487	keystroke_j	j	n/a
64.924	0.0745	129848	keystroke_u	u	n/a
65.0285	0.09	130057	keystroke_d	d	n/a
65.149	0.0745	130298	keystroke_y	y	n/a
66.0485	0.135	132097	keystroke_Key.enter	Key.enter	n/a
66.1885	6.072	132377	prompt	n/a	packed designation introduces ignored\n
66.963	0.09	133926	keystroke_p	p	n/a
67.054	0.0745	134108	keystroke_a	a	n/a
67.218	0.09	134436	keystroke_c	c	n/a
67.2935	0.0745	134587	keystroke_k	k	n/a
67.443	0.075	134886	keystroke_e	e	n/a
67.638	0.075	135276	keystroke_d	d	n/a
67.698	0.09	135396	keystroke_Key.space	Key.space	n/a
67.803	0.09	135606	keystroke_d	d	n/a
67.983	0.0755	135966	keystroke_e	e	n/a
68.118	0.075	136236	keystroke_s	s	n/a
68.178	0.075	136356	keystroke_i	i	n/a
68.299	0.074	136598	keystroke_g	g	n/a
68.403	0.075	136806	keystroke_n	n	n/a
68.8535	0.1205	137707	keystroke_a	a	n/a
69.0785	0.0905	138157	keystroke_t	t	n/a
69.1535	0.09	138307	keystroke_i	i	n/a
69.1985	0.09	138397	keystroke_o	o	n/a
69.454	0.09	138908	keystroke_n	n	n/a
69.6785	0.075	139357	keystroke_Key.space	Key.space	n/a
69.964	0.0445	139928	keystroke_i	i	n/a
70.1285	0.075	140257	keystroke_n	n	n/a
70.1885	0.075	140377	keystroke_t	t	n/a
70.3985	0.075	140797	keystroke_r	r	n/a
70.4585	0.09	140917	keystroke_o	o	n/a
70.5785	0.075	141157	keystroke_d	d	n/a
70.669	0.0745	141338	keystroke_u	u	n/a
70.7585	0.09	141517	keystroke_c	c	n/a
70.9535	0.075	141907	keystroke_e	e	n/a
71.1335	0.075	142267	keystroke_s	s	n/a
71.1935	0.045	142387	keystroke_Key.space	Key.space	n/a
71.2985	0.075	142597	keystroke_i	i	n/a
71.4035	0.075	142807	keystroke_g	g	n/a
71.494	0.059	142988	keystroke_n	n	n/a
71.6585	0.06	143317	keystroke_o	o	n/a
71.6885	0.105	143377	keystroke_r	r	n/a
71.7935	0.135	143587	keystroke_e	e	n/a
72.0035	0.105	144007	keystroke_d	d	n/a
72.2135	0.0445	144427	keystroke_Key.enter	Key.enter	n/a
72.264	4.5715	144528	prompt	n/a	cite yukon messages filed\n
72.919	0.075	145838	keystroke_c	c	n/a
73.0085	0.0605	146017	keystroke_i	i	n/a
73.158	0.06	146316	keystroke_t	t	n/a
73.278	0.091	146556	keystroke_e	e	n/a
73.383	0.0905	146766	keystroke_Key.space	Key.space	n/a
73.669	0.075	147338	keystroke_y	y	n/a
73.8335	0.075	147667	keystroke_u	u	n/a
74.0585	0.0755	148117	keystroke_k	k	n/a
74.2385	0.0605	148477	keystroke_o	o	n/a
74.449	0.074	148898	keystroke_n	n	n/a
74.598	0.045	149196	keystroke_Key.space	Key.space	n/a
74.763	0.076	149526	keystroke_m	m	n/a
74.809	0.089	149618	keystroke_e	e	n/a
75.019	0.074	150038	keystroke_s	s	n/a
75.1535	0.075	150307	keystroke_s	s	n/a
75.2885	0.12	150577	keystroke_a	a	n/a
75.3485	0.075	150697	keystroke_g	g	n/a
75.4835	0.09	150967	keystroke_e	e	n/a
75.6935	0.06	151387	keystroke_s	s	n/a
75.7385	0.075	151477	keystroke_Key.space	Key.space	n/a
75.8735	0.075	151747	keystroke_f	f	n/a
75.9185	0.06	151837	keystroke_i	i	n/a
76.0835	0.075	152167	keystroke_l	l	n/a
76.1435	0.09	152287	keystroke_e	e	n/a
76.534	0.0895	153068	keystroke_d	d	n/a
76.7885	0.045	153577	keystroke_Key.enter	Key.enter	n/a
76.84	4.135	153680	prompt	n/a	refused hotel ordinance feof\n
77.404	0.0745	154808	keystroke_r	r	n/a
77.524	0.075	155048	keystroke_e	e	n/a
77.6885	0.075	155377	keystroke_f	f	n/a
77.7785	0.0755	155557	keystroke_u	u	n/a
77.869	0.075	155738	keystroke_s	s	n/a
78.049	0.075	156098	keystroke_e	e	n/a
78.214	0.075	156428	keystroke_d	d	n/a
78.274	0.0595	156548	keystroke_Key.space	Key.space	n/a
78.4085	0.0595	156817	keystroke_h	h	n/a
78.56	0.0885	157120	keystroke_o	o	n/a
78.633	0.061	157266	keystroke_t	t	n/a
78.769	0.0895	157538	keystroke_e	e	n/a
78.7985	0.105	157597	keystroke_l	l	n/a
78.9635	0.075	157927	keystroke_Key.space	Key.space	n/a
79.1135	0.075	158227	keystroke_o	o	n/a
79.2035	0.09	158407	keystroke_r	r	n/a
79.429	0.059	158858	keystroke_d	d	n/a
79.459	0.06	158918	keystroke_i	i	n/a
79.639	0.06	159278	keystroke_n	n	n/a
79.729	0.074	159458	keystroke_a	a	n/a
79.789	0.074	159578	keystroke_n	n	n/a
80.013	0.016	160026	keystroke_c	c	n/a
80.134	0.06	160268	keystroke_e	e	n/a
80.208	0.091	160416	keystroke_Key.space	Key.space	n/a
80.299	0.0595	160598	keystroke_f	f	n/a
80.389	0.0895	160778	keystroke_e	e	n/a
80.479	0.0895	160958	keystroke_o	o	n/a
80.6285	0.075	161257	keystroke_f	f	n/a
80.9285	0.045	161857	keystroke_Key.enter	Key.enter	n/a
80.9785	4.377	161957	prompt	n/a	colleges erotica cooler secure\n
81.633	0.06	163266	keystroke_c	c	n/a
81.694	0.074	163388	keystroke_o	o	n/a
81.888	0.045	163776	keystroke_l	l	n/a
81.9935	0.0755	163987	keystroke_l	l	n/a
82.0385	0.075	164077	keystroke_e	e	n/a
82.2185	0.0595	164437	keystroke_g	g	n/a
82.353	0.106	164706	keystroke_e	e	n/a
82.518	0.09	165036	keystroke_s	s	n/a
82.623	0.075	165246	keystroke_Key.space	Key.space	n/a
82.728	0.075	165456	keystroke_e	e	n/a
82.818	0.09	165636	keystroke_r	r	n/a
82.938	0.076	165876	keystroke_o	o	n/a
83.028	0.06	166056	keystroke_t	t	n/a
83.118	0.06	166236	keystroke_i	i	n/a
83.254	0.09	166508	keystroke_c	c	n/a
83.3735	0.0905	166747	keystroke_a	a	n/a
83.448	0.0755	166896	keystroke_Key.space	Key.space	n/a
83.569	0.09	167138	keystroke_c	c	n/a
83.6435	0.045	167287	keystroke_o	o	n/a
83.764	0.0585	167528	keystroke_o	o	n/a
83.9585	0.045	167917	keystroke_l	l	n/a
83.9735	0.12	167947	keystroke_e	e	n/a
84.0785	0.1055	168157	keystroke_r	r	n/a
84.1985	0.0895	168397	keystroke_Key.space	Key.space	n/a
84.319	0.089	168638	keystroke_s	s	n/a
84.4685	0.06	168937	keystroke_e	e	n/a
84.6785	0.075	169357	keystroke_c	c	n/a
84.7685	0.06	169537	keystroke_u	u	n/a
84.8885	0.0905	169777	keystroke_r	r	n/a
85.039	0.0895	170078	keystroke_e	e	n/a
85.3085	0.0455	170617	keystroke_Key.enter	Key.enter	n/a
85.359	4.8865	170718	prompt	n/a	orchestra delete junior barry\n
85.969	0.0745	171938	keystroke_o	o	n/a
86.0285	0.075	172057	keystroke_r	r	n/a
86.2385	0.075	172477	keystroke_c	c	n/a
86.2985	0.0595	172597	keystroke_h	h	n/a
86.4335	0.075	172867	keystroke_e	e	n/a
86.5835	0.09	173167	keystroke_s	s	n/a
86.7635	0.075	173527	keystroke_t	t	n/a
86.8985	0.15	173797	keystroke_r	r	n/a
87.019	0.1345	174038	keystroke_a	a	n/a
87.2135	0.09	174427	keystroke_Key.space	Key.space	n/a
87.5285	0.09	175057	keystroke_d	d	n/a
87.7085	0.09	175417	keystroke_e	e	n/a
87.7835	0.075	175567	keystroke_l	l	n/a
87.8735	0.0605	175747	keystroke_e	e	n/a
88.0535	0.045	176107	keystroke_t	t	n/a
88.1885	0.075	176377	keystroke_e	e	n/a
88.3085	0.075	176617	keystroke_Key.space	Key.space	n/a
88.549	0.06	177098	keystroke_j	j	n/a
88.7135	0.045	177427	keystroke_u	u	n/a
88.879	0.0595	177758	keystroke_n	n	n/a
89.059	0.12	178118	keystroke_i	i	n/a
89.134	0.105	178268	keystroke_o	o	n/a
89.254	0.0595	178508	keystroke_r	r	n/a
89.3285	0.0755	178657	keystroke_Key.space	Key.space	n/a
89.4635	0.09	178927	keystroke_b	b	n/a
89.5685	0.075	179137	keystroke_a	a	n/a
89.7035	0.075	179407	keystroke_r	r	n/a
89.8385	0.0755	179677	keystroke_r	r	n/a
89.8985	0.0755	179797	keystroke_y	y	n/a
90.1685	0.0745	180337	keystroke_Key.enter	Key.enter	n/a
90.25	3.925	180500	prompt	n/a	cake proper houses harbor\n
90.858	0.12	181716	keystroke_c	c	n/a
91.1135	0.1495	182227	keystroke_a	a	n/a
91.218	0.0905	182436	keystroke_k	k	n/a
91.368	0.075	182736	keystroke_e	e	n/a
91.4585	0.0745	182917	keystroke_Key.space	Key.space	n/a
91.608	0.1055	183216	keystroke_p	p	n/a
91.698	0.075	183396	keystroke_r	r	n/a
91.818	0.105	183636	keystroke_o	o	n/a
91.938	0.09	183876	keystroke_p	p	n/a
92.103	0.105	184206	keystroke_e	e	n/a
92.253	0.091	184506	keystroke_r	r	n/a
92.358	0.075	184716	keystroke_Key.space	Key.space	n/a
92.523	0.0605	185046	keystroke_h	h	n/a
92.674	0.06	185348	keystroke_o	o	n/a
92.8385	0.06	185677	keystroke_u	u	n/a
92.8835	0.075	185767	keystroke_s	s	n/a
93.0035	0.105	186007	keystroke_e	e	n/a
93.1685	0.105	186337	keystroke_s	s	n/a
93.2585	0.06	186517	keystroke_Key.space	Key.space	n/a
93.3785	0.0755	186757	keystroke_h	h	n/a
93.469	0.075	186938	keystroke_a	a	n/a
93.574	0.09	187148	keystroke_r	r	n/a
93.634	0.075	187268	keystroke_b	b	n/a
93.814	0.059	187628	keystroke_o	o	n/a
93.903	0.0605	187806	keystroke_r	r	n/a
94.129	0.044	188258	keystroke_Key.enter	Key.enter	n/a
94.1795	4.2105	188359	prompt	n/a	sending medication denial pools\n
94.833	0.061	189666	keystroke_s	s	n/a
94.984	0.074	189968	keystroke_e	e	n/a
95.0735	0.0595	190147	keystroke_n	n	n/a
95.1785	0.09	190357	keystroke_d	d	n/a
95.254	0.0595	190508	keystroke_i	i	n/a
95.403	0.06	190806	keystroke_n	n	n/a
95.449	0.06	190898	keystroke_g	g	n/a
95.5235	0.0595	191047	keystroke_Key.space	Key.space	n/a
95.6435	0.0595	191287	keystroke_m	m	n/a
95.6885	0.0905	191377	keystroke_e	e	n/a
95.898	0.045	191796	keystroke_d	d	n/a
95.958	0.0605	191916	keystroke_i	i	n/a
96.033	0.09	192066	keystroke_c	c	n/a
96.213	0.105	192426	keystroke_a	a	n/a
96.378	0.076	192756	keystroke_t	t	n/a
96.4385	0.0745	192877	keystroke_i	i	n/a
96.483	0.076	192966	keystroke_o	o	n/a
96.678	0.076	193356	keystroke_n	n	n/a
96.7835	0.075	193567	keystroke_Key.space	Key.space	n/a
96.8585	0.0595	193717	keystroke_d	d	n/a
96.993	0.09	193986	keystroke_e	e	n/a
97.053	0.06	194106	keystroke_n	n	n/a
97.233	0.0455	194466	keystroke_i	i	n/a
97.338	0.075	194676	keystroke_a	a	n/a
97.428	0.075	194856	keystroke_l	l	n/a
97.548	0.075	195096	keystroke_Key.space	Key.space	n/a
97.683	0.1355	195366	keystroke_p	p	n/a
97.7735	0.075	195547	keystroke_o	o	n/a
97.9235	0.075	195847	keystroke_o	o	n/a
98.0885	0.0755	196177	keystroke_l	l	n/a
98.1785	0.09	196357	keystroke_s	s	n/a
98.329	0.059	196658	keystroke_Key.enter	Key.enter	n/a
98.394	5.0205	196788	prompt	n/a	humanity empirical alto closes\n
98.9735	0.075	197947	keystroke_h	h	n/a
99.1685	0.06	198337	keystroke_u	u	n/a
99.3635	0.0295	198727	keystroke_m	m	n/a
99.438	0.06	198876	keystroke_a	a	n/a
99.559	0.1045	199118	keystroke_n	n	n/a
100.143	0.0605	200286	keystroke_i	i	n/a
100.294	0.0895	200588	keystroke_t	t	n/a
100.4885	0.0745	200977	keystroke_y	y	n/a
100.548	0.0755	201096	keystroke_Key.space	Key.space	n/a
100.713	0.121	201426	keystroke_e	e	n/a
100.788	0.075	201576	keystroke_m	m	n/a
100.983	0.0605	201966	keystroke_p	p	n/a
101.1485	0.06	202297	keystroke_i	i	n/a
101.2535	0.0445	202507	keystroke_r	r	n/a
101.313	0.076	202626	keystroke_i	i	n/a
101.493	0.09	202986	keystroke_c	c	n/a
101.673	0.075	203346	keystroke_a	a	n/a
101.719	0.074	203438	keystroke_l	l	n/a
101.838	0.075	203676	keystroke_Key.space	Key.space	n/a
101.914	0.089	203828	keystroke_a	a	n/a
101.9885	0.0895	203977	keystroke_l	l	n/a
102.123	0.09	204246	keystroke_t	t	n/a
102.184	0.074	204368	keystroke_o	o	n/a
102.303	0.075	204606	keystroke_Key.space	Key.space	n/a
102.468	0.075	204936	keystroke_c	c	n/a
102.513	0.075	205026	keystroke_l	l	n/a
102.678	0.06	205356	keystroke_o	o	n/a
102.753	0.075	205506	keystroke_s	s	n/a
102.8885	0.1045	205777	keystroke_e	e	n/a
103.1135	0.0755	206227	keystroke_s	s	n/a
103.338	0.0745	206676	keystroke_Key.enter	Key.enter	n/a
103.4175	3.628	206835	prompt	n/a	casey ways strain passage\n
103.954	0.075	207908	keystroke_c	c	n/a
104.0885	0.12	208177	keystroke_a	a	n/a
104.1485	0.135	208297	keystroke_s	s	n/a
104.328	0.091	208656	keystroke_e	e	n/a
104.419	0.0595	208838	keystroke_y	y	n/a
104.553	0.0905	209106	keystroke_Key.space	Key.space	n/a
104.6435	0.03	209287	keystroke_w	w	n/a
104.7485	0.15	209497	keystroke_a	a	n/a
104.8535	0.075	209707	keystroke_y	y	n/a
104.9885	0.0905	209977	keystroke_s	s	n/a
105.0635	0.075	210127	keystroke_Key.space	Key.space	n/a
105.198	0.0755	210396	keystroke_s	s	n/a
105.3635	0.075	210727	keystroke_t	t	n/a
105.528	0.091	211056	keystroke_r	r	n/a
105.6335	0.105	211267	keystroke_a	a	n/a
105.7085	0.06	211417	keystroke_i	i	n/a
105.8735	0.075	211747	keystroke_n	n	n/a
106.0085	0.075	212017	keystroke_Key.space	Key.space	n/a
106.1435	0.075	212287	keystroke_p	p	n/a
106.1885	0.1055	212377	keystroke_a	a	n/a
106.309	0.074	212618	keystroke_s	s	n/a
106.459	0.105	212918	keystroke_s	s	n/a
106.593	0.12	213186	keystroke_a	a	n/a
106.684	0.074	213368	keystroke_g	g	n/a
106.804	0.089	213608	keystroke_e	e	n/a
106.9835	0.06	213967	keystroke_Key.enter	Key.enter	n/a
107.0535	5.6315	214107	prompt	n/a	deployment hilton statutes receipt\n
107.599	0.09	215198	keystroke_d	d	n/a
107.779	0.074	215558	keystroke_e	e	n/a
107.884	0.074	215768	keystroke_p	p	n/a
108.033	0.06	216066	keystroke_l	l	n/a
108.1685	0.0745	216337	keystroke_o	o	n/a
108.288	0.0455	216576	keystroke_y	y	n/a
108.363	0.0755	216726	keystroke_m	m	n/a
108.498	0.075	216996	keystroke_e	e	n/a
108.588	0.076	217176	keystroke_n	n	n/a
108.694	0.074	217388	keystroke_t	t	n/a
108.7835	0.075	217567	keystroke_Key.space	Key.space	n/a
109.0385	0.0605	218077	keystroke_h	h	n/a
109.218	0.0605	218436	keystroke_i	i	n/a
109.3685	0.09	218737	keystroke_l	l	n/a
109.459	0.0745	218918	keystroke_t	t	n/a
109.5635	0.045	219127	keystroke_o	o	n/a
109.7285	0.075	219457	keystroke_n	n	n/a
109.8635	0.0595	219727	keystroke_Key.space	Key.space	n/a
109.953	0.06	219906	keystroke_s	s	n/a
110.104	0.104	220208	keystroke_t	t	n/a
110.4185	0.09	220837	keystroke_a	a	n/a
110.7935	0.09	221587	keystroke_t	t	n/a
110.913	0.075	221826	keystroke_u	u	n/a
111.048	0.0605	222096	keystroke_t	t	n/a
111.1985	0.0895	222397	keystroke_e	e	n/a
111.424	0.0595	222848	keystroke_s	s	n/a
111.4985	0.0605	222997	keystroke_Key.space	Key.space	n/a
111.6185	0.075	223237	keystroke_r	r	n/a
111.7235	0.09	223447	keystroke_e	e	n/a
111.9485	0.075	223897	keystroke_c	c	n/a
112.1585	0.06	224317	keystroke_e	e	n/a
112.189	0.0745	224378	keystroke_i	i	n/a
112.2935	0.09	224587	keystroke_p	p	n/a
112.4285	0.075	224857	keystroke_t	t	n/a
112.6235	0.06	225247	keystroke_Key.enter	Key.enter	n/a
112.689	3.8815	225378	prompt	n/a	pass regards consisting alert\n
113.253	0.075	226506	keystroke_p	p	n/a
113.3135	0.15	226627	keystroke_a	a	n/a
113.448	0.1055	226896	keystroke_s	s	n/a
113.6285	0.0895	227257	keystroke_s	s	n/a
113.7335	0.0745	227467	keystroke_Key.space	Key.space	n/a
113.823	0.075	227646	keystroke_r	r	n/a
113.913	0.0905	227826	keystroke_e	e	n/a
114.018	0.06	228036	keystroke_g	g	n/a
114.108	0.0905	228216	keystroke_a	a	n/a
114.2585	0.09	228517	keystroke_r	r	n/a
114.409	0.1345	228818	keystroke_d	d	n/a
114.5285	0.12	229057	keystroke_s	s	n/a
114.6785	0.06	229357	keystroke_Key.space	Key.space	n/a
114.7835	0.075	229567	keystroke_c	c	n/a
114.8735	0.06	229747	keystroke_o	o	n/a
115.0385	0.06	230077	keystroke_n	n	n/a
115.1135	0.075	230227	keystroke_s	s	n/a
115.2485	0.0455	230497	keystroke_i	i	n/a
115.2785	0.075	230557	keystroke_s	s	n/a
115.4285	0.075	230857	keystroke_t	t	n/a
115.5045	0.059	231009	keystroke_i	i	n/a
115.6535	0.075	231307	keystroke_n	n	n/a
115.7435	0.075	231487	keystroke_g	g	n/a
115.8035	0.075	231607	keystroke_Key.space	Key.space	n/a
115.9235	0.0895	231847	keystroke_a	a	n/a
115.9985	0.0445	231997	keystroke_l	l	n/a
116.089	0.0745	232178	keystroke_e	e	n/a
116.193	0.09	232386	keystroke_r	r	n/a
116.388	0.09	232776	keystroke_t	t	n/a
116.508	0.06	233016	keystroke_Key.enter	Key.enter	n/a
116.575	4.69	233150	prompt	n/a	floor photographers semester bother\n
117.168	0.075	234336	keystroke_f	f	n/a
117.2885	0.075	234577	keystroke_l	l	n/a
117.484	0.0445	234968	keystroke_o	o	n/a
117.604	0.0595	235208	keystroke_o	o	n/a
117.679	0.0745	235358	keystroke_r	r	n/a
117.7385	0.075	235477	keystroke_Key.space	Key.space	n/a
117.919	0.075	235838	keystroke_p	p	n/a
118.053	0.06	236106	keystroke_h	h	n/a
118.129	0.06	236258	keystroke_o	o	n/a
118.234	0.075	236468	keystroke_t	t	n/a
118.293	0.061	236586	keystroke_o	o	n/a
118.428	0.09	236856	keystroke_g	g	n/a
118.593	0.06	237186	keystroke_r	r	n/a
118.728	0.105	237456	keystroke_a	a	n/a
118.7735	0.061	237547	keystroke_p	p	n/a
118.9685	0.075	237937	keystroke_h	h	n/a
119.0285	0.075	238057	keystroke_e	e	n/a
119.1185	0.09	238237	keystroke_r	r	n/a
119.2685	0.09	238537	keystroke_s	s	n/a
119.3435	0.075	238687	keystroke_Key.space	Key.space	n/a
119.4635	0.075	238927	keystroke_s	s	n/a
119.6135	0.06	239227	keystroke_e	e	n/a
119.6885	0.075	239377	keystroke_m	m	n/a
119.7785	0.075	239557	keystroke_e	e	n/a
119.9135	0.0895	239827	keystroke_s	s	n/a
120.063	0.0755	240126	keystroke_t	t	n/a
120.214	0.09	240428	keystroke_e	e	n/a
120.2735	0.09	240547	keystroke_r	r	n/a
120.394	0.0745	240788	keystroke_Key.space	Key.space	n/a
120.529	0.075	241058	keystroke_b	b	n/a
120.5735	0.0755	241147	keystroke_o	o	n/a
120.7235	0.075	241447	keystroke_t	t	n/a
120.784	0.075	241568	keystroke_h	h	n/a
120.9035	0.09	241807	keystroke_e	e	n/a
120.964	0.105	241928	keystroke_r	r	n/a
121.2035	0.06	242407	keystroke_Key.enter	Key.enter	n/a
121.269	5.8315	242538	prompt	n/a	humanity recommends discounted automated\n
121.984	0.059	243968	keystroke_h	h	n/a
122.148	0.06	244296	keystroke_u	u	n/a
122.359	0.03	244718	keystroke_m	m	n/a
122.403	0.091	244806	keystroke_a	a	n/a
122.4785	0.0595	244957	keystroke_n	n	n/a
122.644	0.059	245288	keystroke_i	i	n/a
122.688	0.075	245376	keystroke_t	t	n/a
122.8685	0.045	245737	keystroke_y	y	n/a
122.9285	0.045	245857	keystroke_Key.space	Key.space	n/a
123.033	0.091	246066	keystroke_r	r	n/a
123.153	0.075	246306	keystroke_e	e	n/a
123.364	0.0745	246728	keystroke_c	c	n/a
123.4235	0.06	246847	keystroke_o	o	n/a
123.6185	0.045	247237	keystroke_m	m	n/a
123.7235	0.06	247447	keystroke_m	m	n/a
123.7985	0.0755	247597	keystroke_e	e	n/a
123.903	0.061	247806	keystroke_n	n	n/a
124.008	0.0905	248016	keystroke_d	d	n/a
124.0835	0.15	248167	keystroke_s	s	n/a
124.219	0.0595	248438	keystroke_Key.space	Key.space	n/a
124.519	0.089	249038	keystroke_d	d	n/a
124.6235	0.0905	249247	keystroke_i	i	n/a
124.909	0.0745	249818	keystroke_s	s	n/a
125.104	0.059	250208	keystroke_c	c	n/a
125.164	0.059	250328	keystroke_o	o	n/a
125.3435	0.045	250687	keystroke_u	u	n/a
125.509	0.0595	251018	keystroke_n	n	n/a
125.524	0.0595	251048	keystroke_t	t	n/a
125.629	0.1045	251258	keystroke_e	e	n/a
125.8085	0.09	251617	keystroke_d	d	n/a
125.8835	0.075	251767	keystroke_Key.space	Key.space	n/a
126.0185	0.0605	252037	keystroke_a	a	n/a
126.064	0.075	252128	keystroke_u	u	n/a
126.1685	0.09	252337	keystroke_t	t	n/a
126.2285	0.06	252457	keystroke_o	o	n/a
126.379	0.0745	252758	keystroke_m	m	n/a
126.4085	0.09	252817	keystroke_a	a	n/a
126.5435	0.075	253087	keystroke_t	t	n/a
126.664	0.105	253328	keystroke_e	e	n/a
126.844	0.075	253688	keystroke_d	d	n/a
127.0685	0.03	254137	keystroke_Key.enter	Key.enter	n/a
127.1045	5.186	254209	prompt	n/a	wishes charger petition lessons\n
127.7585	0.06	255517	keystroke_w	w	n/a
127.8185	0.06	255637	keystroke_i	i	n/a
127.9535	0.0755	255907	keystroke_s	s	n/a
128.0135	0.075	256027	keystroke_h	h	n/a
128.119	0.0745	256238	keystroke_e	e	n/a
128.3135	0.075	256627	keystroke_s	s	n/a
128.3735	0.06	256747	keystroke_Key.space	Key.space	n/a
128.524	0.0895	257048	keystroke_c	c	n/a
128.6285	0.0605	257257	keystroke_h	h	n/a
128.7185	0.09	257437	keystroke_a	a	n/a
128.8385	0.075	257677	keystroke_r	r	n/a
128.9285	0.0755	257857	keystroke_g	g	n/a
128.989	0.1045	257978	keystroke_e	e	n/a
129.079	0.1045	258158	keystroke_r	r	n/a
129.1985	0.06	258397	keystroke_Key.space	Key.space	n/a
129.439	0.0595	258878	keystroke_p	p	n/a
129.4685	0.075	258937	keystroke_e	e	n/a
129.649	0.075	259298	keystroke_t	t	n/a
129.709	0.06	259418	keystroke_i	i	n/a
129.814	0.075	259628	keystroke_t	t	n/a
129.859	0.105	259718	keystroke_i	i	n/a
129.934	0.105	259868	keystroke_o	o	n/a
130.159	0.09	260318	keystroke_n	n	n/a
130.309	0.075	260618	keystroke_Key.space	Key.space	n/a
130.549	0.075	261098	keystroke_l	l	n/a
130.669	0.09	261338	keystroke_e	e	n/a
130.8935	0.0755	261787	keystroke_s	s	n/a
131.029	0.0745	262058	keystroke_o	o	n/a
131.4485	0.06	262897	keystroke_Key.backspace	Key.backspace	n/a
131.599	0.0745	263198	keystroke_s	s	n/a
131.689	0.0595	263378	keystroke_o	o	n/a
131.8685	0.075	263737	keystroke_n	n	n/a
131.959	0.0745	263918	keystroke_s	s	n/a
132.2285	0.06	264457	keystroke_Key.enter	Key.enter	n/a
132.2945	5.8455	264589	prompt	n/a	properties abandoned jefferson harmful\n
133.054	0.06	266108	keystroke_p	p	n/a
133.144	0.12	266288	keystroke_r	r	n/a
133.279	0.0445	266558	keystroke_o	o	n/a
133.459	0.0595	266918	keystroke_p	p	n/a
133.4735	0.1055	266947	keystroke_e	e	n/a
133.594	0.1045	267188	keystroke_r	r	n/a
133.8035	0.076	267607	keystroke_t	t	n/a
133.8635	0.0755	267727	keystroke_i	i	n/a
133.954	0.0895	267908	keystroke_e	e	n/a
134.104	0.12	268208	keystroke_s	s	n/a
134.1785	0.09	268357	keystroke_Key.space	Key.space	n/a
134.299	0.105	268598	keystroke_a	a	n/a
134.479	0.09	268958	keystroke_b	b	n/a
134.614	0.075	269228	keystroke_a	a	n/a
134.7485	0.0605	269497	keystroke_n	n	n/a
134.8385	0.1055	269677	keystroke_d	d	n/a
134.959	0.045	269918	keystroke_o	o	n/a
135.123	0.076	270246	keystroke_n	n	n/a
135.184	0.074	270368	keystroke_e	e	n/a
135.364	0.0745	270728	keystroke_d	d	n/a
135.4235	0.06	270847	keystroke_Key.space	Key.space	n/a
135.5435	0.0605	271087	keystroke_j	j	n/a
135.5885	0.0605	271177	keystroke_e	e	n/a
135.724	0.09	271448	keystroke_f	f	n/a
135.874	0.089	271748	keystroke_f	f	n/a
136.024	0.075	272048	keystroke_e	e	n/a
136.144	0.09	272288	keystroke_r	r	n/a
136.3385	0.0745	272677	keystroke_s	s	n/a
136.3985	0.0605	272797	keystroke_o	o	n/a
136.5935	0.0455	273187	keystroke_n	n	n/a
136.7285	0.045	273457	keystroke_Key.space	Key.space	n/a
136.999	0.0595	273998	keystroke_h	h	n/a
137.0435	0.1055	274087	keystroke_a	a	n/a
137.2085	0.09	274417	keystroke_r	r	n/a
137.299	0.0595	274598	keystroke_m	m	n/a
137.494	0.0595	274988	keystroke_f	f	n/a
137.5385	0.045	275077	keystroke_u	u	n/a
137.763	0.075	275526	keystroke_l	l	n/a
138.093	0.0455	276186	keystroke_Key.enter	Key.enter	n/a
138.1445	7.436	276289	prompt	n/a	reflections licence aboriginal activists\n
138.7235	0.12	277447	keystroke_r	r	n/a
138.889	0.0895	277778	keystroke_e	e	n/a
139.0085	0.1195	278017	keystroke_f	f	n/a
139.114	0.075	278228	keystroke_l	l	n/a
139.234	0.074	278468	keystroke_e	e	n/a
139.459	0.09	278918	keystroke_c	c	n/a
139.7135	0.075	279427	keystroke_t	t	n/a
139.7735	0.105	279547	keystroke_i	i	n/a
139.8335	0.075	279667	keystroke_o	o	n/a
140.029	0.09	280058	keystroke_n	n	n/a
140.1035	0.06	280207	keystroke_s	s	n/a
140.1635	0.075	280327	keystroke_Key.space	Key.space	n/a
140.2985	0.0755	280597	keystroke_l	l	n/a
140.4785	0.06	280957	keystroke_i	i	n/a
140.5235	0.0755	281047	keystroke_c	c	n/a
140.7185	0.0605	281437	keystroke_e	e	n/a
140.7935	0.0605	281587	keystroke_n	n	n/a
140.974	0.059	281948	keystroke_c	c	n/a
141.183	0.09	282366	keystroke_e	e	n/a
141.288	0.045	282576	keystroke_Key.space	Key.space	n/a
141.558	0.076	283116	keystroke_a	a	n/a
141.828	0.046	283656	keystroke_b	b	n/a
141.874	0.075	283748	keystroke_o	o	n/a
142.024	0.06	284048	keystroke_r	r	n/a
142.099	0.06	284198	keystroke_i	i	n/a
142.249	0.045	284498	keystroke_g	g	n/a
142.279	0.045	284558	keystroke_i	i	n/a
142.444	0.045	284888	keystroke_n	n	n/a
142.5185	0.06	285037	keystroke_a	a	n/a
142.7135	0.1055	285427	keystroke_k	k	n/a
143.358	0.0605	286716	keystroke_Key.backspace	Key.backspace	n/a
143.6285	0.075	287257	keystroke_l	l	n/a
143.8235	0.06	287647	keystroke_Key.space	Key.space	n/a
144.0035	0.075	288007	keystroke_a	a	n/a
144.1835	0.0755	288367	keystroke_c	c	n/a
144.439	0.06	288878	keystroke_t	t	n/a
144.5135	0.0605	289027	keystroke_i	i	n/a
144.6335	0.075	289267	keystroke_v	v	n/a
144.7235	0.06	289447	keystroke_i	i	n/a
144.8135	0.075	289627	keystroke_s	s	n/a
144.9935	0.0755	289987	keystroke_t	t	n/a
145.1435	0.075	290287	keystroke_s	s	n/a
145.488	0.0905	290976	keystroke_Key.enter	Key.enter	n/a
145.5855	6.325	291171	prompt	n/a	beautiful projection relax distributed\n
146.344	0.075	292688	keystroke_b	b	n/a
146.359	0.12	292718	keystroke_e	e	n/a
146.509	0.105	293018	keystroke_a	a	n/a
146.599	0.075	293198	keystroke_u	u	n/a
146.719	0.0895	293438	keystroke_t	t	n/a
146.7935	0.045	293587	keystroke_i	i	n/a
146.9135	0.105	293827	keystroke_f	f	n/a
146.959	0.0745	293918	keystroke_u	u	n/a
147.1535	0.045	294307	keystroke_l	l	n/a
147.2435	0.075	294487	keystroke_Key.space	Key.space	n/a
147.393	0.09	294786	keystroke_p	p	n/a
147.588	0.076	295176	keystroke_r	r	n/a
147.619	0.059	295238	keystroke_o	o	n/a
147.829	0.089	295658	keystroke_j	j	n/a
148.264	0.075	296528	keystroke_e	e	n/a
148.4735	0.06	296947	keystroke_c	c	n/a
148.6535	0.075	297307	keystroke_t	t	n/a
148.7435	0.105	297487	keystroke_i	i	n/a
148.8185	0.0755	297637	keystroke_o	o	n/a
149.014	0.09	298028	keystroke_n	n	n/a
149.134	0.09	298268	keystroke_Key.space	Key.space	n/a
149.194	0.105	298388	keystroke_r	r	n/a
149.269	0.135	298538	keystroke_e	e	n/a
149.419	0.075	298838	keystroke_l	l	n/a
149.494	0.09	298988	keystroke_a	a	n/a
149.689	0.09	299378	keystroke_x	x	n/a
149.794	0.0745	299588	keystroke_Key.space	Key.space	n/a
149.929	0.0745	299858	keystroke_d	d	n/a
150.0185	0.0605	300037	keystroke_i	i	n/a
150.094	0.09	300188	keystroke_s	s	n/a
150.289	0.06	300578	keystroke_t	t	n/a
150.439	0.075	300878	keystroke_r	r	n/a
150.979	0.06	301958	keystroke_i	i	n/a
151.1445	0.0745	302289	keystroke_b	b	n/a
151.264	0.075	302528	keystroke_u	u	n/a
151.383	0.061	302766	keystroke_t	t	n/a
151.534	0.089	303068	keystroke_e	e	n/a
151.7135	0.075	303427	keystroke_d	d	n/a
151.8335	0.075	303667	keystroke_Key.enter	Key.enter	n/a
151.9155	6.505	303831	prompt	n/a	journalism receives decade humanitarian\n
152.614	0.0745	305228	keystroke_j	j	n/a
152.764	0.0595	305528	keystroke_o	o	n/a
152.8835	0.075	305767	keystroke_u	u	n/a
152.9885	0.075	305977	keystroke_r	r	n/a
153.0785	0.0605	306157	keystroke_n	n	n/a
153.199	0.075	306398	keystroke_a	a	n/a
153.258	0.0755	306516	keystroke_l	l	n/a
153.4385	0.06	306877	keystroke_i	i	n/a
153.5435	0.0755	307087	keystroke_s	s	n/a
153.634	0.075	307268	keystroke_m	m	n/a
153.754	0.075	307508	keystroke_Key.space	Key.space	n/a
153.814	0.075	307628	keystroke_r	r	n/a
153.904	0.09	307808	keystroke_e	e	n/a
154.159	0.06	308318	keystroke_c	c	n/a
154.369	0.045	308738	keystroke_e	e	n/a
154.459	0.075	308918	keystroke_i	i	n/a
154.563	0.076	309126	keystroke_v	v	n/a
154.744	0.075	309488	keystroke_e	e	n/a
154.909	0.075	309818	keystroke_s	s	n/a
155.014	0.074	310028	keystroke_Key.space	Key.space	n/a
155.119	0.075	310238	keystroke_d	d	n/a
155.284	0.06	310568	keystroke_e	e	n/a
155.4785	0.0605	310957	keystroke_c	c	n/a
155.6285	0.135	311257	keystroke_a	a	n/a
155.7635	0.135	311527	keystroke_d	d	n/a
155.9435	0.105	311887	keystroke_e	e	n/a
156.0185	0.09	312037	keystroke_Key.space	Key.space	n/a
156.169	0.075	312338	keystroke_h	h	n/a
156.349	0.06	312698	keystroke_u	u	n/a
156.529	0.075	313058	keystroke_m	m	n/a
156.619	0.09	313238	keystroke_a	a	n/a
157.0835	0.1045	314167	keystroke_n	n	n/a
157.309	0.06	314618	keystroke_i	i	n/a
157.384	0.09	314768	keystroke_t	t	n/a
157.549	0.09	315098	keystroke_a	a	n/a
157.744	0.075	315488	keystroke_r	r	n/a
157.849	0.075	315698	keystroke_i	i	n/a
157.984	0.09	315968	keystroke_a	a	n/a
158.059	0.089	316118	keystroke_n	n	n/a
158.359	0.06	316718	keystroke_Key.enter	Key.enter	n/a
158.425	5.9955	316850	prompt	n/a	dispute imports destroyed attachments\n
159.0185	0.105	318037	keystroke_d	d	n/a
159.1385	0.045	318277	keystroke_i	i	n/a
159.214	0.1045	318428	keystroke_s	s	n/a
159.304	0.06	318608	keystroke_p	p	n/a
159.4985	0.06	318997	keystroke_u	u	n/a
159.544	0.0745	319088	keystroke_t	t	n/a
159.6635	0.075	319327	keystroke_e	e	n/a
159.7235	0.075	319447	keystroke_Key.space	Key.space	n/a
159.8435	0.0605	319687	keystroke_i	i	n/a
160.0235	0.06	320047	keystroke_m	m	n/a
160.1885	0.12	320377	keystroke_p	p	n/a
160.2485	0.09	320497	keystroke_o	o	n/a
160.3535	0.0755	320707	keystroke_r	r	n/a
160.5035	0.09	321007	keystroke_t	t	n/a
161.4335	0.09	322867	keystroke_s	s	n/a
161.5535	0.075	323107	keystroke_Key.space	Key.space	n/a
161.6885	0.0905	323377	keystroke_d	d	n/a
161.869	0.0745	323738	keystroke_e	e	n/a
162.019	0.09	324038	keystroke_s	s	n/a
162.1835	0.075	324367	keystroke_t	t	n/a
162.349	0.0745	324698	keystroke_r	r	n/a
162.4085	0.06	324817	keystroke_o	o	n/a
162.5885	0.075	325177	keystroke_y	y	n/a
162.664	0.0745	325328	keystroke_e	e	n/a
162.8435	0.075	325687	keystroke_d	d	n/a
162.8885	0.075	325777	keystroke_Key.space	Key.space	n/a
163.0235	0.075	326047	keystroke_a	a	n/a
163.144	0.06	326288	keystroke_t	t	n/a
163.264	0.0745	326528	keystroke_t	t	n/a
163.3085	0.0605	326617	keystroke_a	a	n/a
163.4735	0.09	326947	keystroke_c	c	n/a
163.5485	0.06	327097	keystroke_h	h	n/a
163.758	0.045	327516	keystroke_m	m	n/a
163.818	0.06	327636	keystroke_e	e	n/a
163.8935	0.0755	327787	keystroke_n	n	n/a
164.014	0.075	328028	keystroke_t	t	n/a
164.194	0.09	328388	keystroke_s	s	n/a
164.343	0.075	328686	keystroke_Key.enter	Key.enter	n/a
164.425	5.8905	328850	prompt	n/a	radar pleased licensed mirrors\n
164.943	0.061	329886	keystroke_r	r	n/a
165.0935	0.09	330187	keystroke_a	a	n/a
165.2135	0.1055	330427	keystroke_f	f	n/a
165.349	0.09	330698	keystroke_a	a	n/a
165.454	0.09	330908	keystroke_r	r	n/a
165.619	0.09	331238	keystroke_Key.space	Key.space	n/a
165.994	0.044	331988	keystroke_Key.backspace	Key.backspace	n/a
166.143	0.0455	332286	keystroke_Key.backspace	Key.backspace	n/a
166.2935	0.06	332587	keystroke_Key.backspace	Key.backspace	n/a
166.473	0.045	332946	keystroke_Key.backspace	Key.backspace	n/a
166.594	0.1045	333188	keystroke_d	d	n/a
166.743	0.136	333486	keystroke_a	a	n/a
166.893	0.09	333786	keystroke_r	r	n/a
167.013	0.09	334026	keystroke_Key.space	Key.space	n/a
167.254	0.074	334508	keystroke_p	p	n/a
167.404	0.09	334808	keystroke_l	l	n/a
167.448	0.075	334896	keystroke_e	e	n/a
167.553	0.1505	335106	keystroke_a	a	n/a
167.644	0.1345	335288	keystroke_s	s	n/a
167.794	0.1195	335588	keystroke_e	e	n/a
167.989	0.105	335978	keystroke_d	d	n/a
168.079	0.06	336158	keystroke_Key.space	Key.space	n/a
168.169	0.09	336338	keystroke_l	l	n/a
168.379	0.045	336758	keystroke_i	i	n/a
168.439	0.03	336878	keystroke_c	c	n/a
168.589	0.09	337178	keystroke_e	e	n/a
168.6635	0.0605	337327	keystroke_n	n	n/a
168.784	0.0745	337568	keystroke_s	s	n/a
168.919	0.105	337838	keystroke_e	e	n/a
169.114	0.105	338228	keystroke_d	d	n/a
169.234	0.06	338468	keystroke_Key.space	Key.space	n/a
169.4285	0.075	338857	keystroke_m	m	n/a
169.6085	0.06	339217	keystroke_i	i	n/a
169.684	0.06	339368	keystroke_r	r	n/a
169.8335	0.045	339667	keystroke_r	r	n/a
169.879	0.074	339758	keystroke_o	o	n/a
169.983	0.076	339966	keystroke_r	r	n/a
170.1335	0.075	340267	keystroke_s	s	n/a
170.2535	0.06	340507	keystroke_Key.enter	Key.enter	n/a
170.32	5.3655	340640	prompt	n/a	earnings essentially anthony odds\n
170.8085	0.105	341617	keystroke_e	e	n/a
170.9735	0.135	341947	keystroke_a	a	n/a
171.139	0.105	342278	keystroke_r	r	n/a
171.2585	0.06	342517	keystroke_n	n	n/a
171.409	0.0745	342818	keystroke_i	i	n/a
171.5885	0.0605	343177	keystroke_n	n	n/a
171.6635	0.0605	343327	keystroke_g	g	n/a
171.799	0.09	343598	keystroke_s	s	n/a
171.8735	0.0745	343747	keystroke_Key.space	Key.space	n/a
172.294	0.1045	344588	keystroke_e	e	n/a
172.489	0.075	344978	keystroke_s	s	n/a
172.684	0.045	345368	keystroke_s	s	n/a
172.789	0.09	345578	keystroke_e	e	n/a
172.894	0.06	345788	keystroke_n	n	n/a
172.984	0.09	345968	keystroke_t	t	n/a
173.089	0.06	346178	keystroke_i	i	n/a
173.149	0.09	346298	keystroke_a	a	n/a
173.284	0.059	346568	keystroke_l	l	n/a
173.3735	0.1055	346747	keystroke_l	l	n/a
173.4485	0.06	346897	keystroke_y	y	n/a
173.9435	0.075	347887	keystroke_Key.space	Key.space	n/a
174.048	0.075	348096	keystroke_a	a	n/a
174.138	0.075	348276	keystroke_n	n	n/a
174.273	0.076	348546	keystroke_t	t	n/a
174.333	0.06	348666	keystroke_h	h	n/a
174.468	0.06	348936	keystroke_o	o	n/a
174.619	0.0895	349238	keystroke_n	n	n/a
174.6635	0.075	349327	keystroke_y	y	n/a
174.7535	0.06	349507	keystroke_Key.space	Key.space	n/a
174.8885	0.06	349777	keystroke_o	o	n/a
174.964	0.0895	349928	keystroke_d	d	n/a
175.1285	0.1205	350257	keystroke_d	d	n/a
175.2185	0.1205	350437	keystroke_s	s	n/a
175.6235	0.06	351247	keystroke_Key.enter	Key.enter	n/a
175.693	4.553	351386	prompt	n/a	pork plot himself jamaica\n
176.2535	0.075	352507	keystroke_p	p	n/a
176.4335	0.0755	352867	keystroke_o	o	n/a
176.5685	0.0905	353137	keystroke_r	r	n/a
176.6285	0.075	353257	keystroke_k	k	n/a
176.7635	0.075	353527	keystroke_Key.space	Key.space	n/a
176.884	0.15	353768	keystroke_p	p	n/a
177.0035	0.09	354007	keystroke_l	l	n/a
177.1835	0.075	354367	keystroke_o	o	n/a
177.2735	0.0755	354547	keystroke_t	t	n/a
177.3635	0.06	354727	keystroke_Key.space	Key.space	n/a
177.4985	0.06	354997	keystroke_h	h	n/a
177.6635	0.045	355327	keystroke_i	i	n/a
177.8285	0.06	355657	keystroke_m	m	n/a
177.8735	0.075	355747	keystroke_s	s	n/a
177.9935	0.0905	355987	keystroke_e	e	n/a
178.0535	0.09	356107	keystroke_l	l	n/a
178.189	0.0895	356378	keystroke_f	f	n/a
178.249	0.0595	356498	keystroke_Key.space	Key.space	n/a
178.3685	0.06	356737	keystroke_j	j	n/a
178.4735	0.0905	356947	keystroke_a	a	n/a
179.044	0.06	358088	keystroke_m	m	n/a
179.149	0.0895	358298	keystroke_a	a	n/a
179.313	0.06	358626	keystroke_i	i	n/a
179.554	0.0895	359108	keystroke_c	c	n/a
179.733	0.091	359466	keystroke_a	a	n/a
180.1685	0.075	360337	keystroke_Key.enter	Key.enter	n/a
180.25	6.2655	360500	prompt	n/a	substantially buried emission outlets\n
180.8585	0.06	361717	keystroke_s	s	n/a
180.9485	0.06	361897	keystroke_u	u	n/a
181.0985	0.0755	362197	keystroke_b	b	n/a
181.1435	0.075	362287	keystroke_s	s	n/a
181.2935	0.0755	362587	keystroke_t	t	n/a
181.384	0.105	362768	keystroke_a	a	n/a
181.608	0.06	363216	keystroke_n	n	n/a
182.103	0.09	364206	keystroke_t	t	n/a
182.2095	0.0735	364419	keystroke_i	i	n/a
182.403	0.091	364806	keystroke_t	t	n/a
182.914	0.059	365828	keystroke_Key.backspace	Key.backspace	n/a
183.063	0.09	366126	keystroke_a	a	n/a
183.1835	0.06	366367	keystroke_l	l	n/a
183.3035	0.09	366607	keystroke_l	l	n/a
183.409	0.06	366818	keystroke_y	y	n/a
183.5285	0.075	367057	keystroke_Key.space	Key.space	n/a
183.739	0.06	367478	keystroke_b	b	n/a
183.9035	0.06	367807	keystroke_u	u	n/a
183.9785	0.0745	367957	keystroke_r	r	n/a
184.068	0.0605	368136	keystroke_i	i	n/a
184.143	0.091	368286	keystroke_e	e	n/a
184.338	0.076	368676	keystroke_d	d	n/a
184.414	0.074	368828	keystroke_Key.space	Key.space	n/a
184.578	0.0605	369156	keystroke_e	e	n/a
184.653	0.076	369306	keystroke_m	m	n/a
184.8335	0.0905	369667	keystroke_i	i	n/a
184.938	0.0455	369876	keystroke_s	s	n/a
185.059	0.059	370118	keystroke_s	s	n/a
185.133	0.0755	370266	keystroke_i	i	n/a
185.178	0.0605	370356	keystroke_o	o	n/a
185.358	0.076	370716	keystroke_n	n	n/a
185.493	0.0755	370986	keystroke_Key.space	Key.space	n/a
185.629	0.0595	371258	keystroke_o	o	n/a
185.7635	0.06	371527	keystroke_u	u	n/a
185.8385	0.075	371677	keystroke_t	t	n/a
185.9585	0.075	371917	keystroke_l	l	n/a
186.0485	0.06	372097	keystroke_e	e	n/a
186.1985	0.06	372397	keystroke_t	t	n/a
186.3485	0.06	372697	keystroke_s	s	n/a
186.4535	0.0605	372907	keystroke_Key.enter	Key.enter	n/a
186.52	5.9505	373040	prompt	n/a	corporations travelers tickets needle\n
187.264	0.074	374528	keystroke_c	c	n/a
187.323	0.075	374646	keystroke_o	o	n/a
187.488	0.0605	374976	keystroke_r	r	n/a
187.518	0.151	375036	keystroke_p	p	n/a
187.608	0.076	375216	keystroke_o	o	n/a
187.698	0.06	375396	keystroke_r	r	n/a
188.4335	0.09	376867	keystroke_a	a	n/a
188.704	0.0595	377408	keystroke_t	t	n/a
188.749	0.105	377498	keystroke_i	i	n/a
188.809	0.0895	377618	keystroke_o	o	n/a
189.019	0.0745	378038	keystroke_n	n	n/a
189.109	0.075	378218	keystroke_s	s	n/a
189.199	0.06	378398	keystroke_Key.space	Key.space	n/a
189.319	0.0595	378638	keystroke_t	t	n/a
189.4835	0.0755	378967	keystroke_r	r	n/a
189.5735	0.0895	379147	keystroke_a	a	n/a
189.754	0.075	379508	keystroke_v	v	n/a
189.918	0.061	379836	keystroke_e	e	n/a
189.993	0.061	379986	keystroke_l	l	n/a
190.084	0.089	380168	keystroke_e	e	n/a
190.204	0.09	380408	keystroke_r	r	n/a
190.369	0.075	380738	keystroke_s	s	n/a
190.458	0.076	380916	keystroke_Key.space	Key.space	n/a
190.608	0.075	381216	keystroke_t	t	n/a
190.714	0.045	381428	keystroke_i	i	n/a
190.834	0.059	381668	keystroke_c	c	n/a
190.9085	0.0755	381817	keystroke_k	k	n/a
191.059	0.059	382118	keystroke_e	e	n/a
191.208	0.091	382416	keystroke_t	t	n/a
191.374	0.104	382748	keystroke_s	s	n/a
191.493	0.0755	382986	keystroke_Key.space	Key.space	n/a
191.688	0.06	383376	keystroke_n	n	n/a
191.793	0.09	383586	keystroke_e	e	n/a
191.944	0.075	383888	keystroke_e	e	n/a
192.1235	0.06	384247	keystroke_d	d	n/a
192.169	0.0745	384338	keystroke_l	l	n/a
192.3035	0.075	384607	keystroke_e	e	n/a
192.409	0.0595	384818	keystroke_Key.enter	Key.enter	n/a
192.475	5.7555	384950	prompt	n/a	grad collection teenage renewal\n
193.219	0.0445	386438	keystroke_g	g	n/a
193.249	0.075	386498	keystroke_r	r	n/a
193.354	0.135	386708	keystroke_a	a	n/a
193.504	0.075	387008	keystroke_d	d	n/a
193.579	0.075	387158	keystroke_Key.space	Key.space	n/a
193.7285	0.045	387457	keystroke_c	c	n/a
193.759	0.0595	387518	keystroke_o	o	n/a
193.9235	0.1955	387847	keystroke_l	l	n/a
194.0885	0.0755	388177	keystroke_e	e	n/a
194.644	0.0445	389288	keystroke_Key.backspace	Key.backspace	n/a
194.8385	0.0755	389677	keystroke_l	l	n/a
194.8985	0.075	389797	keystroke_e	e	n/a
195.139	0.0445	390278	keystroke_c	c	n/a
195.319	0.075	390638	keystroke_t	t	n/a
195.409	0.09	390818	keystroke_i	i	n/a
195.468	0.075	390936	keystroke_o	o	n/a
195.663	0.076	391326	keystroke_n	n	n/a
195.769	0.09	391538	keystroke_Key.space	Key.space	n/a
195.843	0.091	391686	keystroke_t	t	n/a
196.009	0.075	392018	keystroke_e	e	n/a
196.158	0.076	392316	keystroke_e	e	n/a
196.234	0.075	392468	keystroke_n	n	n/a
196.353	0.076	392706	keystroke_a	a	n/a
196.519	0.059	393038	keystroke_g	g	n/a
196.638	0.106	393276	keystroke_e	e	n/a
196.758	0.075	393516	keystroke_Key.space	Key.space	n/a
196.953	0.076	393906	keystroke_r	r	n/a
197.059	0.1045	394118	keystroke_e	e	n/a
197.1485	0.06	394297	keystroke_n	n	n/a
197.254	0.075	394508	keystroke_e	e	n/a
197.479	0.075	394958	keystroke_w	w	n/a
197.674	0.075	395348	keystroke_a	a	n/a
197.793	0.015	395586	keystroke_l	l	n/a
198.183	0.045	396366	keystroke_Key.enter	Key.enter	n/a
198.235	5.695	396470	prompt	n/a	bacteria porsche decor genetics\n
199.024	0.06	398048	keystroke_b	b	n/a
199.099	0.075	398198	keystroke_a	a	n/a
199.249	0.0895	398498	keystroke_c	c	n/a
199.504	0.045	399008	keystroke_t	t	n/a
199.7885	0.105	399577	keystroke_e	e	n/a
199.9985	0.0905	399997	keystroke_r	r	n/a
200.1935	0.09	400387	keystroke_i	i	n/a
200.3435	0.075	400687	keystroke_a	a	n/a
200.4485	0.0745	400897	keystroke_Key.space	Key.space	n/a
200.614	0.06	401228	keystroke_p	p	n/a
200.763	0.076	401526	keystroke_o	o	n/a
200.868	0.106	401736	keystroke_r	r	n/a
201.094	0.075	402188	keystroke_s	s	n/a
201.2885	0.06	402577	keystroke_c	c	n/a
201.334	0.074	402668	keystroke_h	h	n/a
201.514	0.059	403028	keystroke_e	e	n/a
201.588	0.0755	403176	keystroke_Key.space	Key.space	n/a
201.7385	0.0455	403477	keystroke_d	d	n/a
201.889	0.0745	403778	keystroke_e	e	n/a
202.0985	0.0745	404197	keystroke_c	c	n/a
202.189	0.059	404378	keystroke_o	o	n/a
202.3385	0.0745	404677	keystroke_r	r	n/a
202.5035	0.0595	405007	keystroke_Key.space	Key.space	n/a
202.759	0.059	405518	keystroke_g	g	n/a
202.833	0.076	405666	keystroke_e	e	n/a
202.954	0.0745	405908	keystroke_n	n	n/a
203.014	0.0595	406028	keystroke_e	e	n/a
203.1785	0.075	406357	keystroke_t	t	n/a
203.2535	0.0745	406507	keystroke_i	i	n/a
203.403	0.091	406806	keystroke_c	c	n/a
203.5985	0.0755	407197	keystroke_s	s	n/a
203.868	0.0605	407736	keystroke_Key.enter	Key.enter	n/a
203.9335	5.502	407867	prompt	n/a	jazz marcus american screensaver\n
204.679	0.06	409358	keystroke_j	j	n/a
204.754	0.075	409508	keystroke_a	a	n/a
204.9485	0.12	409897	keystroke_z	z	n/a
205.1285	0.075	410257	keystroke_z	z	n/a
205.293	0.09	410586	keystroke_Key.space	Key.space	n/a
205.489	0.074	410978	keystroke_m	m	n/a
205.548	0.091	411096	keystroke_a	a	n/a
205.713	0.076	411426	keystroke_r	r	n/a
205.9235	0.076	411847	keystroke_c	c	n/a
205.9835	0.075	411967	keystroke_u	u	n/a
206.1035	0.0905	412207	keystroke_s	s	n/a
206.1485	0.075	412297	keystroke_Key.space	Key.space	n/a
206.299	0.105	412598	keystroke_a	a	n/a
206.374	0.075	412748	keystroke_m	m	n/a
206.524	0.075	413048	keystroke_e	e	n/a
206.629	0.105	413258	keystroke_r	r	n/a
206.749	0.09	413498	keystroke_i	i	n/a
206.899	0.09	413798	keystroke_c	c	n/a
207.079	0.06	414158	keystroke_a	a	n/a
207.154	0.06	414308	keystroke_n	n	n/a
207.454	0.06	414908	keystroke_Key.space	Key.space	n/a
207.589	0.075	415178	keystroke_s	s	n/a
207.799	0.09	415598	keystroke_c	c	n/a
208.024	0.075	416048	keystroke_r	r	n/a
208.144	0.09	416288	keystroke_e	e	n/a
208.294	0.09	416588	keystroke_e	e	n/a
208.399	0.075	416798	keystroke_n	n	n/a
208.504	0.075	417008	keystroke_s	s	n/a
208.639	0.09	417278	keystroke_a	a	n/a
208.744	0.075	417488	keystroke_v	v	n/a
208.894	0.09	417788	keystroke_e	e	n/a
209.044	0.09	418088	keystroke_r	r	n/a
209.374	0.06	418748	keystroke_Key.enter	Key.enter	n/a
209.4395	5.3205	418879	prompt	n/a	eminem kitchen aqua exclusively\n
210.034	0.0895	420068	keystroke_e	e	n/a
210.1085	0.0905	420217	keystroke_m	m	n/a
210.3185	0.045	420637	keystroke_i	i	n/a
210.483	0.061	420966	keystroke_n	n	n/a
210.559	0.0745	421118	keystroke_e	e	n/a
210.649	0.059	421298	keystroke_m	m	n/a
210.798	0.045	421596	keystroke_Key.space	Key.space	n/a
210.949	0.06	421898	keystroke_k	k	n/a
211.084	0.075	422168	keystroke_i	i	n/a
211.144	0.074	422288	keystroke_t	t	n/a
211.354	0.1195	422708	keystroke_c	c	n/a
211.4585	0.0455	422917	keystroke_h	h	n/a
211.6085	0.06	423217	keystroke_e	e	n/a
211.6535	0.075	423307	keystroke_n	n	n/a
211.7885	0.075	423577	keystroke_Key.space	Key.space	n/a
212.343	0.0605	424686	keystroke_a	a	n/a
212.553	0.0755	425106	keystroke_q	q	n/a
212.6435	0.0895	425287	keystroke_u	u	n/a
212.823	0.075	425646	keystroke_a	a	n/a
212.913	0.09	425826	keystroke_Key.space	Key.space	n/a
213.153	0.075	426306	keystroke_e	e	n/a
213.3935	0.045	426787	keystroke_x	x	n/a
213.468	0.09	426936	keystroke_c	c	n/a
213.543	0.075	427086	keystroke_l	l	n/a
213.738	0.0605	427476	keystroke_u	u	n/a
213.7985	0.075	427597	keystroke_s	s	n/a
213.9485	0.075	427897	keystroke_i	i	n/a
214.038	0.075	428076	keystroke_v	v	n/a
214.2175	0.0605	428435	keystroke_e	e	n/a
214.2925	0.09	428585	keystroke_l	l	n/a
214.458	0.0755	428916	keystroke_y	y	n/a
214.698	0.06	429396	keystroke_Key.enter	Key.enter	n/a
214.764	4.72	429528	prompt	n/a	superintendent edition send meeting\n
215.4635	0.089	430927	keystroke_s	s	n/a
215.5375	0.0455	431075	keystroke_u	u	n/a
215.6735	0.0745	431347	keystroke_p	p	n/a
215.733	0.105	431466	keystroke_e	e	n/a
215.8385	0.104	431677	keystroke_r	r	n/a
215.9275	0.045	431855	keystroke_i	i	n/a
216.0925	0.06	432185	keystroke_n	n	n/a
216.123	0.0745	432246	keystroke_t	t	n/a
216.2575	0.09	432515	keystroke_e	e	n/a
216.3335	0.06	432667	keystroke_n	n	n/a
216.4375	0.09	432875	keystroke_d	d	n/a
216.723	0.105	433446	keystroke_e	e	n/a
216.843	0.09	433686	keystroke_n	n	n/a
216.978	0.075	433956	keystroke_t	t	n/a
217.068	0.075	434136	keystroke_Key.space	Key.space	n/a
217.1725	0.075	434345	keystroke_e	e	n/a
217.3675	0.045	434735	keystroke_d	d	n/a
217.3825	0.045	434765	keystroke_i	i	n/a
217.503	0.074	435006	keystroke_t	t	n/a
217.548	0.1045	435096	keystroke_i	i	n/a
217.6225	0.075	435245	keystroke_o	o	n/a
217.802	0.076	435604	keystroke_n	n	n/a
217.907	0.06	435814	keystroke_Key.space	Key.space	n/a
217.997	0.075	435994	keystroke_s	s	n/a
218.1325	0.09	436265	keystroke_e	e	n/a
218.2075	0.0755	436415	keystroke_n	n	n/a
218.3275	0.0895	436655	keystroke_d	d	n/a
218.3725	0.06	436745	keystroke_Key.space	Key.space	n/a
218.507	0.0605	437014	keystroke_m	m	n/a
218.582	0.06	437164	keystroke_e	e	n/a
218.763	0.074	437526	keystroke_e	e	n/a
218.9575	0.075	437915	keystroke_t	t	n/a
219.017	0.0605	438034	keystroke_i	i	n/a
219.197	0.0755	438394	keystroke_n	n	n/a
219.2875	0.0595	438575	keystroke_g	g	n/a
219.452	0.0305	438904	keystroke_Key.enter	Key.enter	n/a
219.4885	4.526	438977	prompt	n/a	joan handmade homeland karl\n
220.157	0.075	440314	keystroke_j	j	n/a
220.2925	0.06	440585	keystroke_o	o	n/a
220.412	0.0905	440824	keystroke_a	a	n/a
220.5175	0.0745	441035	keystroke_n	n	n/a
220.652	0.075	441304	keystroke_Key.space	Key.space	n/a
220.8625	0.0445	441725	keystroke_h	h	n/a
220.922	0.0905	441844	keystroke_a	a	n/a
221.0265	0.061	442053	keystroke_n	n	n/a
221.1025	0.074	442205	keystroke_d	d	n/a
221.2225	0.059	442445	keystroke_m	m	n/a
221.297	0.1045	442594	keystroke_a	a	n/a
221.387	0.1055	442774	keystroke_d	d	n/a
221.5525	0.09	443105	keystroke_e	e	n/a
221.6565	0.06	443313	keystroke_Key.space	Key.space	n/a
221.8225	0.06	443645	keystroke_h	h	n/a
221.9575	0.045	443915	keystroke_o	o	n/a
222.0925	0.0745	444185	keystroke_m	m	n/a
222.152	0.09	444304	keystroke_e	e	n/a
222.272	0.0755	444544	keystroke_l	l	n/a
222.3625	0.105	444725	keystroke_a	a	n/a
222.4975	0.06	444995	keystroke_n	n	n/a
222.602	0.06	445204	keystroke_d	d	n/a
222.7065	0.046	445413	keystroke_Key.space	Key.space	n/a
223.262	0.06	446524	keystroke_k	k	n/a
223.3375	0.0745	446675	keystroke_a	a	n/a
223.472	0.075	446944	keystroke_r	r	n/a
223.562	0.0605	447124	keystroke_l	l	n/a
223.967	0.045	447934	keystroke_Key.enter	Key.enter	n/a
224.018	4.0455	448036	prompt	n/a	scanning suffering sets jobs\n
224.567	0.0745	449134	keystroke_s	s	n/a
224.7475	0.0595	449495	keystroke_c	c	n/a
224.882	0.0895	449764	keystroke_a	a	n/a
224.9265	0.061	449853	keystroke_n	n	n/a
225.077	0.06	450154	keystroke_n	n	n/a
225.3015	0.0155	450603	keystroke_i	i	n/a
225.3765	0.075	450753	keystroke_n	n	n/a
225.4365	0.075	450873	keystroke_g	g	n/a
225.5265	0.075	451053	keystroke_Key.space	Key.space	n/a
225.6765	0.045	451353	keystroke_s	s	n/a
225.737	0.0445	451474	keystroke_u	u	n/a
225.842	0.0745	451684	keystroke_f	f	n/a
225.9915	0.075	451983	keystroke_f	f	n/a
226.1865	0.075	452373	keystroke_e	e	n/a
226.292	0.09	452584	keystroke_r	r	n/a
226.382	0.059	452764	keystroke_i	i	n/a
226.5165	0.0905	453033	keystroke_n	n	n/a
226.651	0.015	453302	keystroke_g	g	n/a
226.696	0.075	453392	keystroke_Key.space	Key.space	n/a
226.831	0.075	453662	keystroke_s	s	n/a
226.981	0.075	453962	keystroke_e	e	n/a
227.131	0.1055	454262	keystroke_t	t	n/a
227.297	0.075	454594	keystroke_s	s	n/a
227.342	0.075	454684	keystroke_Key.space	Key.space	n/a
227.462	0.075	454924	keystroke_j	j	n/a
227.612	0.06	455224	keystroke_o	o	n/a
227.657	0.09	455314	keystroke_b	b	n/a
227.867	0.0745	455734	keystroke_s	s	n/a
227.9865	0.0755	455973	keystroke_Key.enter	Key.enter	n/a
228.068	5.9355	456136	prompt	n/a	isaac diverse championship establishment\n
228.7815	0.06	457563	keystroke_i	i	n/a
228.8715	0.0755	457743	keystroke_s	s	n/a
229.0365	0.075	458073	keystroke_a	a	n/a
229.1865	0.0895	458373	keystroke_a	a	n/a
229.381	0.075	458762	keystroke_c	c	n/a
229.441	0.075	458882	keystroke_Key.space	Key.space	n/a
229.5915	0.045	459183	keystroke_d	d	n/a
229.6515	0.06	459303	keystroke_i	i	n/a
229.7865	0.0605	459573	keystroke_v	v	n/a
229.9365	0.06	459873	keystroke_e	e	n/a
230.0115	0.09	460023	keystroke_r	r	n/a
230.1915	0.075	460383	keystroke_s	s	n/a
230.3115	0.09	460623	keystroke_e	e	n/a
230.4165	0.075	460833	keystroke_Key.space	Key.space	n/a
230.5665	0.06	461133	keystroke_c	c	n/a
230.6415	0.045	461283	keystroke_h	h	n/a
230.7315	0.075	461463	keystroke_a	a	n/a
230.8215	0.075	461643	keystroke_m	m	n/a
231.0015	0.0755	462003	keystroke_p	p	n/a
231.1665	0.12	462333	keystroke_i	i	n/a
231.2415	0.105	462483	keystroke_o	o	n/a
231.467	0.06	462934	keystroke_n	n	n/a
231.5415	0.075	463083	keystroke_s	s	n/a
231.7365	0.0755	463473	keystroke_h	h	n/a
231.797	0.0745	463594	keystroke_i	i	n/a
231.947	0.0745	463894	keystroke_p	p	n/a
232.0965	0.074	464193	keystroke_Key.space	Key.space	n/a
232.2315	0.06	464463	keystroke_e	e	n/a
232.3965	0.075	464793	keystroke_s	s	n/a
232.547	0.0745	465094	keystroke_t	t	n/a
232.6965	0.075	465393	keystroke_a	a	n/a
232.862	0.0595	465724	keystroke_b	b	n/a
232.9215	0.06	465843	keystroke_l	l	n/a
233.0715	0.06	466143	keystroke_i	i	n/a
233.1465	0.0755	466293	keystroke_s	s	n/a
233.2365	0.06	466473	keystroke_h	h	n/a
233.446	0.06	466892	keystroke_m	m	n/a
233.521	0.09	467042	keystroke_e	e	n/a
233.641	0.061	467282	keystroke_n	n	n/a
233.746	0.09	467492	keystroke_t	t	n/a
233.9415	0.06	467883	keystroke_Key.enter	Key.enter	n/a
234.0105	3.6675	468021	prompt	n/a	revisions owns offense that\n
234.571	0.0755	469142	keystroke_r	r	n/a
234.676	0.09	469352	keystroke_e	e	n/a
234.8865	0.0745	469773	keystroke_v	v	n/a
234.932	0.06	469864	keystroke_i	i	n/a
235.051	0.09	470102	keystroke_s	s	n/a
235.096	0.105	470192	keystroke_i	i	n/a
235.1865	0.0745	470373	keystroke_o	o	n/a
235.381	0.061	470762	keystroke_n	n	n/a
235.457	0.0745	470914	keystroke_s	s	n/a
235.546	0.0595	471092	keystroke_Key.space	Key.space	n/a
235.7265	0.059	471453	keystroke_o	o	n/a
235.831	0.0595	471662	keystroke_w	w	n/a
235.9215	0.074	471843	keystroke_n	n	n/a
236.056	0.0755	472112	keystroke_s	s	n/a
236.1465	0.06	472293	keystroke_Key.space	Key.space	n/a
236.2815	0.06	472563	keystroke_o	o	n/a
236.3565	0.075	472713	keystroke_f	f	n/a
236.507	0.074	473014	keystroke_f	f	n/a
236.6415	0.105	473283	keystroke_e	e	n/a
236.7305	0.06	473461	keystroke_n	n	n/a
236.8515	0.075	473703	keystroke_s	s	n/a
237.0165	0.0595	474033	keystroke_e	e	n/a
237.0765	0.074	474153	keystroke_Key.space	Key.space	n/a
237.1815	0.0755	474363	keystroke_t	t	n/a
237.257	0.074	474514	keystroke_h	h	n/a
237.346	0.09	474692	keystroke_a	a	n/a
237.481	0.09	474962	keystroke_t	t	n/a
237.616	0.06	475232	keystroke_Key.enter	Key.enter	n/a
237.682	4.376	475364	prompt	n/a	songs drill generates perth\n
238.1865	0.09	476373	keystroke_s	s	n/a
238.2615	0.045	476523	keystroke_o	o	n/a
238.4255	0.0615	476851	keystroke_n	n	n/a
238.4715	0.045	476943	keystroke_g	g	n/a
238.6065	0.0745	477213	keystroke_s	s	n/a
238.6815	0.0595	477363	keystroke_Key.space	Key.space	n/a
238.7865	0.09	477573	keystroke_d	d	n/a
238.9815	0.06	477963	keystroke_r	r	n/a
239.0265	0.06	478053	keystroke_i	i	n/a
239.2065	0.195	478413	keystroke_l	l	n/a
239.8205	0.091	479641	keystroke_l	l	n/a
239.9865	0.075	479973	keystroke_Key.space	Key.space	n/a
240.0765	0.045	480153	keystroke_g	g	n/a
240.2265	0.09	480453	keystroke_e	e	n/a
240.3315	0.06	480663	keystroke_n	n	n/a
240.4215	0.09	480843	keystroke_e	e	n/a
240.5415	0.09	481083	keystroke_r	r	n/a
240.6615	0.09	481323	keystroke_a	a	n/a
240.8265	0.06	481653	keystroke_t	t	n/a
240.9465	0.09	481893	keystroke_e	e	n/a
241.1115	0.09	482223	keystroke_s	s	n/a
241.1865	0.06	482373	keystroke_Key.space	Key.space	n/a
241.2915	0.075	482583	keystroke_p	p	n/a
241.3815	0.089	482763	keystroke_e	e	n/a
241.486	0.12	482972	keystroke_r	r	n/a
241.696	0.075	483392	keystroke_t	t	n/a
241.7415	0.0745	483483	keystroke_h	h	n/a
241.981	0.075	483962	keystroke_Key.enter	Key.enter	n/a
242.0625	7.091	484125	prompt	n/a	marketplace invited arbor motorola\n
242.626	0.075	485252	keystroke_m	m	n/a
242.7155	0.075	485431	keystroke_a	a	n/a
242.8205	0.106	485641	keystroke_r	r	n/a
242.8815	0.09	485763	keystroke_k	k	n/a
242.9865	0.074	485973	keystroke_e	e	n/a
243.1365	0.0745	486273	keystroke_t	t	n/a
243.226	0.135	486452	keystroke_p	p	n/a
243.346	0.075	486692	keystroke_l	l	n/a
243.451	0.0755	486902	keystroke_a	a	n/a
243.616	0.0755	487232	keystroke_c	c	n/a
243.8115	0.06	487623	keystroke_e	e	n/a
243.8865	0.045	487773	keystroke_Key.space	Key.space	n/a
243.991	0.06	487982	keystroke_i	i	n/a
244.1415	0.0595	488283	keystroke_n	n	n/a
244.202	0.075	488404	keystroke_v	v	n/a
244.3365	0.0595	488673	keystroke_i	i	n/a
244.426	0.075	488852	keystroke_t	t	n/a
244.576	0.075	489152	keystroke_e	e	n/a
244.7265	0.09	489453	keystroke_d	d	n/a
244.8165	0.0595	489633	keystroke_Key.space	Key.space	n/a
244.9815	0.1195	489963	keystroke_a	a	n/a
245.1765	0.0745	490353	keystroke_r	r	n/a
245.281	0.0755	490562	keystroke_b	b	n/a
245.4615	0.0595	490923	keystroke_o	o	n/a
245.5665	0.075	491133	keystroke_r	r	n/a
245.611	0.075	491222	keystroke_Key.space	Key.space	n/a
245.7465	0.075	491493	keystroke_m	m	n/a
245.911	0.06	491822	keystroke_o	o	n/a
245.986	0.0755	491972	keystroke_t	t	n/a
246.076	0.06	492152	keystroke_o	o	n/a
246.181	0.09	492362	keystroke_r	r	n/a
246.8255	0.09	493651	keystroke_a	a	n/a
247.396	0.0605	494792	keystroke_Key.backspace	Key.backspace	n/a
247.6665	0.045	495333	keystroke_o	o	n/a
247.8615	0.075	495723	keystroke_l	l	n/a
248.4015	0.0895	496803	keystroke_a	a	n/a
249.061	0.09	498122	keystroke_Key.enter	Key.enter	n/a
249.158	4.81	498316	prompt	n/a	restriction brook flour between\n
249.7505	0.09	499501	keystroke_r	r	n/a
249.8415	0.074	499683	keystroke_e	e	n/a
250.0815	0.06	500163	keystroke_s	s	n/a
250.3805	0.06	500761	keystroke_t	t	n/a
250.5755	0.046	501151	keystroke_r	r	n/a
250.6355	0.0905	501271	keystroke_i	i	n/a
250.8005	0.091	501601	keystroke_c	c	n/a
251.056	0.0745	502112	keystroke_t	t	n/a
251.116	0.1045	502232	keystroke_i	i	n/a
251.191	0.0895	502382	keystroke_o	o	n/a
251.3865	0.075	502773	keystroke_n	n	n/a
251.5055	0.075	503011	keystroke_Key.space	Key.space	n/a
251.6415	0.074	503283	keystroke_b	b	n/a
251.7315	0.06	503463	keystroke_r	r	n/a
251.8515	0.06	503703	keystroke_o	o	n/a
251.9865	0.105	503973	keystroke_o	o	n/a
252.0465	0.105	504093	keystroke_k	k	n/a
252.2105	0.09	504421	keystroke_Key.space	Key.space	n/a
252.331	0.075	504662	keystroke_f	f	n/a
252.391	0.0755	504782	keystroke_l	l	n/a
252.541	0.061	505082	keystroke_o	o	n/a
252.677	0.0745	505354	keystroke_u	u	n/a
252.767	0.074	505534	keystroke_r	r	n/a
252.811	0.0605	505622	keystroke_Key.space	Key.space	n/a
252.9615	0.0595	505923	keystroke_b	b	n/a
253.006	0.0755	506012	keystroke_e	e	n/a
253.1715	0.0745	506343	keystroke_t	t	n/a
253.3215	0.105	506643	keystroke_w	w	n/a
253.3965	0.105	506793	keystroke_e	e	n/a
253.5615	0.09	507123	keystroke_e	e	n/a
253.6665	0.06	507333	keystroke_n	n	n/a
253.9065	0.0595	507813	keystroke_Key.enter	Key.enter	n/a
253.9715	5.502	507943	prompt	n/a	frequently photograph sell emacs\n
254.567	0.06	509134	keystroke_f	f	n/a
254.731	0.075	509462	keystroke_r	r	n/a
254.8515	0.0905	509703	keystroke_e	e	n/a
255.106	0.09	510212	keystroke_q	q	n/a
255.331	0.075	510662	keystroke_u	u	n/a
255.4815	0.0755	510963	keystroke_e	e	n/a
255.631	0.045	511262	keystroke_n	n	n/a
255.7365	0.0745	511473	keystroke_t	t	n/a
255.856	0.0605	511712	keystroke_l	l	n/a
255.992	0.0745	511984	keystroke_y	y	n/a
256.081	0.075	512162	keystroke_Key.space	Key.space	n/a
256.2915	0.0595	512583	keystroke_p	p	n/a
256.366	0.075	512732	keystroke_h	h	n/a
256.4705	0.091	512941	keystroke_o	o	n/a
256.5765	0.0745	513153	keystroke_t	t	n/a
256.666	0.075	513332	keystroke_o	o	n/a
256.846	0.075	513692	keystroke_g	g	n/a
257.072	0.044	514144	keystroke_r	r	n/a
257.1915	0.09	514383	keystroke_a	a	n/a
257.2515	0.0595	514503	keystroke_p	p	n/a
257.461	0.0605	514922	keystroke_h	h	n/a
257.5665	0.0895	515133	keystroke_Key.space	Key.space	n/a
257.671	0.06	515342	keystroke_s	s	n/a
257.8365	0.09	515673	keystroke_e	e	n/a
257.9115	0.06	515823	keystroke_l	l	n/a
257.9865	0.1045	515973	keystroke_l	l	n/a
258.5715	0.06	517143	keystroke_Key.space	Key.space	n/a
258.6615	0.09	517323	keystroke_e	e	n/a
258.7515	0.075	517503	keystroke_m	m	n/a
258.842	0.0895	517684	keystroke_a	a	n/a
259.052	0.06	518104	keystroke_c	c	n/a
259.2015	0.0755	518403	keystroke_s	s	n/a
259.381	0.09	518762	keystroke_Key.enter	Key.enter	n/a
259.478	5.53	518956	prompt	n/a	terrace electoral beast hear\n
260.072	0.089	520144	keystroke_t	t	n/a
260.251	0.091	520502	keystroke_e	e	n/a
260.372	0.0895	520744	keystroke_r	r	n/a
260.5215	0.075	521043	keystroke_r	r	n/a
260.627	0.0745	521254	keystroke_a	a	n/a
260.807	0.0895	521614	keystroke_c	c	n/a
261.0165	0.06	522033	keystroke_e	e	n/a
261.0915	0.075	522183	keystroke_Key.space	Key.space	n/a
261.1815	0.0755	522363	keystroke_e	e	n/a
261.271	0.0755	522542	keystroke_l	l	n/a
261.3315	0.075	522663	keystroke_e	e	n/a
261.5715	0.0755	523143	keystroke_c	c	n/a
261.8115	0.06	523623	keystroke_t	t	n/a
261.992	0.0595	523984	keystroke_r	r	n/a
262.0815	0.09	524163	keystroke_o	o	n/a
262.7265	0.045	525453	keystroke_Key.backspace	Key.backspace	n/a
262.8615	0.045	525723	keystroke_Key.backspace	Key.backspace	n/a
263.0865	0.06	526173	keystroke_o	o	n/a
263.1915	0.0605	526383	keystroke_r	r	n/a
263.3115	0.09	526623	keystroke_a	a	n/a
263.3865	0.09	526773	keystroke_l	l	n/a
263.5355	0.076	527071	keystroke_Key.space	Key.space	n/a
263.732	0.075	527464	keystroke_b	b	n/a
263.776	0.0905	527552	keystroke_e	e	n/a
263.8965	0.1345	527793	keystroke_a	a	n/a
263.9715	0.1055	527943	keystroke_s	s	n/a
264.1815	0.09	528363	keystroke_t	t	n/a
264.2865	0.045	528573	keystroke_Key.space	Key.space	n/a
264.4215	0.0605	528843	keystroke_h	h	n/a
264.4515	0.0895	528903	keystroke_e	e	n/a
264.601	0.091	529202	keystroke_a	a	n/a
264.677	0.0895	529354	keystroke_r	r	n/a
264.9315	0.075	529863	keystroke_Key.enter	Key.enter	n/a
265.013	4.7055	530026	prompt	n/a	serves surprising bloggers previous\n
265.636	0.075	531272	keystroke_s	s	n/a
265.801	0.1055	531602	keystroke_e	e	n/a
265.8915	0.1045	531783	keystroke_r	r	n/a
266.011	0.0605	532022	keystroke_v	v	n/a
266.116	0.0905	532232	keystroke_e	e	n/a
266.341	0.075	532682	keystroke_s	s	n/a
266.431	0.0605	532862	keystroke_Key.space	Key.space	n/a
266.551	0.0755	533102	keystroke_s	s	n/a
266.641	0.045	533282	keystroke_u	u	n/a
266.7615	0.0445	533523	keystroke_r	r	n/a
266.821	0.0605	533642	keystroke_p	p	n/a
266.912	0.0745	533824	keystroke_r	r	n/a
267.016	0.06	534032	keystroke_i	i	n/a
267.106	0.105	534212	keystroke_s	s	n/a
267.226	0.045	534452	keystroke_i	i	n/a
267.3765	0.075	534753	keystroke_n	n	n/a
267.4365	0.075	534873	keystroke_g	g	n/a
267.5265	0.075	535053	keystroke_Key.space	Key.space	n/a
267.6765	0.075	535353	keystroke_b	b	n/a
267.737	0.0595	535474	keystroke_l	l	n/a
267.9015	0.045	535803	keystroke_o	o	n/a
268.0065	0.06	536013	keystroke_g	g	n/a
268.1715	0.03	536343	keystroke_g	g	n/a
268.3065	0.0755	536613	keystroke_e	e	n/a
268.3965	0.1055	536793	keystroke_r	r	n/a
268.5315	0.105	537063	keystroke_s	s	n/a
268.6515	0.0445	537303	keystroke_Key.space	Key.space	n/a
268.786	0.06	537572	keystroke_p	p	n/a
268.816	0.075	537632	keystroke_r	r	n/a
268.9215	0.0745	537843	keystroke_e	e	n/a
269.117	0.075	538234	keystroke_v	v	n/a
269.146	0.1205	538292	keystroke_i	i	n/a
269.2215	0.075	538443	keystroke_o	o	n/a
269.3865	0.0745	538773	keystroke_u	u	n/a
269.446	0.0605	538892	keystroke_s	s	n/a
269.641	0.0755	539282	keystroke_Key.enter	Key.enter	n/a
269.7235	4.7795	539447	prompt	n/a	optimization neural writings gains\n
270.2865	0.09	540573	keystroke_o	o	n/a
270.4215	0.075	540843	keystroke_p	p	n/a
270.5565	0.09	541113	keystroke_t	t	n/a
270.6465	0.06	541293	keystroke_i	i	n/a
270.8265	0.06	541653	keystroke_m	m	n/a
270.9915	0.06	541983	keystroke_i	i	n/a
271.1415	0.0745	542283	keystroke_z	z	n/a
271.3365	0.075	542673	keystroke_a	a	n/a
271.5465	0.0745	543093	keystroke_t	t	n/a
271.5765	0.105	543153	keystroke_i	i	n/a
271.651	0.105	543302	keystroke_o	o	n/a
271.8615	0.075	543723	keystroke_n	n	n/a
271.9815	0.06	543963	keystroke_Key.space	Key.space	n/a
272.1015	0.06	544203	keystroke_n	n	n/a
272.132	0.1045	544264	keystroke_e	e	n/a
272.2965	0.0755	544593	keystroke_u	u	n/a
272.3865	0.0595	544773	keystroke_r	r	n/a
272.4915	0.1055	544983	keystroke_a	a	n/a
272.6115	0.0595	545223	keystroke_l	l	n/a
272.731	0.075	545462	keystroke_Key.space	Key.space	n/a
272.836	0.0905	545672	keystroke_w	w	n/a
272.987	0.059	545974	keystroke_r	r	n/a
273.0615	0.0595	546123	keystroke_i	i	n/a
273.181	0.075	546362	keystroke_t	t	n/a
273.242	0.059	546484	keystroke_i	i	n/a
273.391	0.075	546782	keystroke_n	n	n/a
273.4215	0.0595	546843	keystroke_g	g	n/a
273.541	0.105	547082	keystroke_s	s	n/a
273.631	0.06	547262	keystroke_Key.space	Key.space	n/a
273.856	0.06	547712	keystroke_g	g	n/a
273.977	0.09	547954	keystroke_a	a	n/a
274.036	0.046	548072	keystroke_i	i	n/a
274.202	0.0595	548404	keystroke_n	n	n/a
274.246	0.091	548492	keystroke_s	s	n/a
274.456	0.045	548912	keystroke_Key.enter	Key.enter	n/a
274.5075	4.4215	549015	prompt	n/a	outer determine formation estimate\n
275.087	0.074	550174	keystroke_o	o	n/a
275.267	0.06	550534	keystroke_u	u	n/a
275.297	0.0745	550594	keystroke_t	t	n/a
275.4615	0.0755	550923	keystroke_e	e	n/a
275.521	0.091	551042	keystroke_r	r	n/a
275.626	0.0755	551252	keystroke_Key.space	Key.space	n/a
275.747	0.105	551494	keystroke_d	d	n/a
275.927	0.06	551854	keystroke_e	e	n/a
276.062	0.075	552124	keystroke_t	t	n/a
276.167	0.105	552334	keystroke_e	e	n/a
276.242	0.105	552484	keystroke_r	r	n/a
276.362	0.0445	552724	keystroke_m	m	n/a
276.512	0.045	553024	keystroke_i	i	n/a
276.662	0.075	553324	keystroke_n	n	n/a
276.721	0.076	553442	keystroke_e	e	n/a
276.827	0.059	553654	keystroke_Key.space	Key.space	n/a
276.9015	0.0905	553803	keystroke_f	f	n/a
277.0065	0.045	554013	keystroke_o	o	n/a
277.082	0.074	554164	keystroke_r	r	n/a
277.1715	0.0745	554343	keystroke_m	m	n/a
277.247	0.0895	554494	keystroke_a	a	n/a
277.3815	0.0895	554763	keystroke_t	t	n/a
277.4265	0.1045	554853	keystroke_i	i	n/a
277.501	0.09	555002	keystroke_o	o	n/a
277.6965	0.075	555393	keystroke_n	n	n/a
277.8165	0.075	555633	keystroke_Key.space	Key.space	n/a
277.9065	0.09	555813	keystroke_e	e	n/a
278.1005	0.061	556201	keystroke_s	s	n/a
278.2665	0.0745	556533	keystroke_t	t	n/a
278.326	0.045	556652	keystroke_i	i	n/a
278.476	0.0605	556952	keystroke_m	m	n/a
278.5065	0.0745	557013	keystroke_a	a	n/a
278.626	0.075	557252	keystroke_t	t	n/a
278.7315	0.0895	557463	keystroke_e	e	n/a
278.8665	0.06	557733	keystroke_Key.enter	Key.enter	n/a
278.933	4.4205	557866	prompt	n/a	entering remember charitable suffer\n
279.5565	0.09	559113	keystroke_e	e	n/a
279.6165	0.075	559233	keystroke_n	n	n/a
279.7215	0.0905	559443	keystroke_t	t	n/a
279.8565	0.105	559713	keystroke_e	e	n/a
279.9165	0.1055	559833	keystroke_r	r	n/a
280.037	0.06	560074	keystroke_i	i	n/a
280.187	0.0745	560374	keystroke_n	n	n/a
280.247	0.0595	560494	keystroke_g	g	n/a
280.337	0.075	560674	keystroke_Key.space	Key.space	n/a
280.487	0.075	560974	keystroke_r	r	n/a
280.622	0.075	561244	keystroke_e	e	n/a
280.727	0.06	561454	keystroke_m	m	n/a
280.802	0.074	561604	keystroke_e	e	n/a
280.862	0.074	561724	keystroke_m	m	n/a
281.057	0.0605	562114	keystroke_b	b	n/a
281.1015	0.0905	562203	keystroke_e	e	n/a
281.2075	0.0745	562415	keystroke_r	r	n/a
281.297	0.09	562594	keystroke_Key.space	Key.space	n/a
281.522	0.06	563044	keystroke_c	c	n/a
281.597	0.075	563194	keystroke_h	h	n/a
281.6865	0.075	563373	keystroke_a	a	n/a
281.7915	0.075	563583	keystroke_r	r	n/a
281.8965	0.06	563793	keystroke_i	i	n/a
281.9715	0.0605	563943	keystroke_t	t	n/a
282.0915	0.0905	564183	keystroke_a	a	n/a
282.272	0.09	564544	keystroke_b	b	n/a
282.347	0.06	564694	keystroke_l	l	n/a
282.452	0.075	564904	keystroke_e	e	n/a
282.542	0.059	565084	keystroke_Key.space	Key.space	n/a
282.617	0.09	565234	keystroke_s	s	n/a
282.722	0.045	565444	keystroke_u	u	n/a
282.782	0.09	565564	keystroke_f	f	n/a
282.917	0.105	565834	keystroke_f	f	n/a
283.052	0.104	566104	keystroke_e	e	n/a
283.141	0.091	566282	keystroke_r	r	n/a
283.291	0.061	566582	keystroke_Key.enter	Key.enter	n/a
283.3575	5.4415	566715	prompt	n/a	starsmerchant kept donna tamil\n
284.2215	0.09	568443	keystroke_s	s	n/a
284.4015	0.0755	568803	keystroke_t	t	n/a
284.537	0.12	569074	keystroke_a	a	n/a
284.672	0.09	569344	keystroke_r	r	n/a
284.852	0.0745	569704	keystroke_s	s	n/a
285.062	0.06	570124	keystroke_m	m	n/a
285.137	0.074	570274	keystroke_e	e	n/a
285.2415	0.0755	570483	keystroke_r	r	n/a
285.467	0.074	570934	keystroke_c	c	n/a
285.557	0.06	571114	keystroke_h	h	n/a
285.662	0.045	571324	keystroke_a	a	n/a
285.737	0.074	571474	keystroke_n	n	n/a
285.8575	0.0745	571715	keystroke_t	t	n/a
285.947	0.075	571894	keystroke_Key.space	Key.space	n/a
286.127	0.0745	572254	keystroke_k	k	n/a
286.1865	0.0755	572373	keystroke_e	e	n/a
286.322	0.06	572644	keystroke_p	p	n/a
286.412	0.075	572824	keystroke_t	t	n/a
286.502	0.0595	573004	keystroke_Key.space	Key.space	n/a
286.682	0.0745	573364	keystroke_d	d	n/a
286.7415	0.0455	573483	keystroke_o	o	n/a
286.9365	0.0305	573873	keystroke_n	n	n/a
286.9965	0.09	573993	keystroke_n	n	n/a
287.1315	0.045	574263	keystroke_a	a	n/a
287.4765	0.0755	574953	keystroke_Key.space	Key.space	n/a
287.582	0.075	575164	keystroke_t	t	n/a
287.777	0.104	575554	keystroke_a	a	n/a
287.867	0.074	575734	keystroke_m	m	n/a
288.346	0.0465	576692	keystroke_i	i	n/a
288.5275	0.0745	577055	keystroke_l	l	n/a
288.7515	0.045	577503	keystroke_Key.enter	Key.enter	n/a
288.8035	4.945	577607	prompt	n/a	memorial green wait pleasant\n
289.382	0.075	578764	keystroke_m	m	n/a
289.472	0.09	578944	keystroke_e	e	n/a
289.547	0.06	579094	keystroke_m	m	n/a
289.712	0.06	579424	keystroke_o	o	n/a
289.802	0.0905	579604	keystroke_r	r	n/a
289.907	0.045	579814	keystroke_i	i	n/a
290.012	0.105	580024	keystroke_a	a	n/a
290.132	0.06	580264	keystroke_l	l	n/a
290.3265	0.045	580653	keystroke_Key.space	Key.space	n/a
290.5065	0.046	581013	keystroke_g	g	n/a
290.567	0.06	581134	keystroke_r	r	n/a
290.6575	0.089	581315	keystroke_e	e	n/a
290.8225	0.0895	581645	keystroke_e	e	n/a
290.897	0.0745	581794	keystroke_n	n	n/a
291.017	0.075	582034	keystroke_Key.space	Key.space	n/a
291.107	0.0745	582214	keystroke_w	w	n/a
291.2715	0.0755	582543	keystroke_a	a	n/a
291.332	0.075	582664	keystroke_i	i	n/a
291.4815	0.0755	582963	keystroke_t	t	n/a
291.5265	0.075	583053	keystroke_Key.space	Key.space	n/a
291.6765	0.0455	583353	keystroke_p	p	n/a
291.8115	0.0755	583623	keystroke_l	l	n/a
291.902	0.03	583804	keystroke_a	a	n/a
292.2165	0.0595	584433	keystroke_Key.backspace	Key.backspace	n/a
292.3225	0.0745	584645	keystroke_e	e	n/a
292.471	0.2415	584942	keystroke_a	a	n/a
292.487	0.135	584974	keystroke_s	s	n/a
293.221	0.0905	586442	keystroke_a	a	n/a
293.3265	0.06	586653	keystroke_n	n	n/a
293.492	0.0745	586984	keystroke_t	t	n/a
293.6865	0.061	587373	keystroke_Key.enter	Key.enter	n/a
293.7525	3.251	587505	prompt	n/a	least slide trend abuse\n
294.3315	0.075	588663	keystroke_l	l	n/a
294.3915	0.09	588783	keystroke_e	e	n/a
294.5115	0.1655	589023	keystroke_a	a	n/a
294.572	0.1195	589144	keystroke_s	s	n/a
294.7965	0.075	589593	keystroke_t	t	n/a
294.8865	0.09	589773	keystroke_Key.space	Key.space	n/a
295.022	0.075	590044	keystroke_s	s	n/a
295.1115	0.06	590223	keystroke_l	l	n/a
295.2915	0.06	590583	keystroke_i	i	n/a
295.3215	0.0605	590643	keystroke_d	d	n/a
295.4415	0.09	590883	keystroke_e	e	n/a
295.5015	0.0755	591003	keystroke_Key.space	Key.space	n/a
295.6215	0.075	591243	keystroke_t	t	n/a
295.7865	0.1055	591573	keystroke_r	r	n/a
295.8765	0.105	591753	keystroke_e	e	n/a
296.0115	0.06	592023	keystroke_n	n	n/a
296.1615	0.0605	592323	keystroke_d	d	n/a
296.2365	0.0755	592473	keystroke_Key.space	Key.space	n/a
296.3715	0.09	592743	keystroke_a	a	n/a
296.4315	0.0755	592863	keystroke_b	b	n/a
296.5965	0.075	593193	keystroke_u	u	n/a
296.687	0.0595	593374	keystroke_s	s	n/a
296.8065	0.09	593613	keystroke_e	e	n/a
296.9415	0.06	593883	keystroke_Key.enter	Key.enter	n/a
297.0115	4.2075	594023	prompt	n/a	governments shakira several like\n
297.6625	0.0745	595325	keystroke_g	g	n/a
297.722	0.06	595444	keystroke_o	o	n/a
297.8275	0.09	595655	keystroke_v	v	n/a
297.992	0.075	595984	keystroke_e	e	n/a
298.082	0.09	596164	keystroke_r	r	n/a
298.157	0.06	596314	keystroke_n	n	n/a
298.3225	0.0595	596645	keystroke_m	m	n/a
298.397	0.09	596794	keystroke_e	e	n/a
298.502	0.075	597004	keystroke_n	n	n/a
298.592	0.0895	597184	keystroke_t	t	n/a
298.7725	0.0745	597545	keystroke_s	s	n/a
298.832	0.075	597664	keystroke_Key.space	Key.space	n/a
298.997	0.045	597994	keystroke_s	s	n/a
299.0275	0.0445	598055	keystroke_h	h	n/a
299.147	0.075	598294	keystroke_a	a	n/a
299.207	0.075	598414	keystroke_k	k	n/a
299.357	0.0745	598714	keystroke_i	i	n/a
299.4165	0.0755	598833	keystroke_r	r	n/a
299.5215	0.121	599043	keystroke_a	a	n/a
299.612	0.0745	599224	keystroke_Key.space	Key.space	n/a
299.7475	0.0745	599495	keystroke_s	s	n/a
299.912	0.075	599824	keystroke_e	e	n/a
300.017	0.06	600034	keystroke_v	v	n/a
300.0925	0.0895	600185	keystroke_e	e	n/a
300.197	0.09	600394	keystroke_r	r	n/a
300.302	0.105	600604	keystroke_a	a	n/a
300.362	0.075	600724	keystroke_l	l	n/a
300.497	0.075	600994	keystroke_Key.space	Key.space	n/a
300.617	0.06	601234	keystroke_l	l	n/a
300.782	0.06	601564	keystroke_i	i	n/a
300.9315	0.075	601863	keystroke_k	k	n/a
301.022	0.0895	602044	keystroke_e	e	n/a
301.1565	0.06	602313	keystroke_Key.enter	Key.enter	n/a
301.2235	5.905	602447	prompt	n/a	reproduce watts electron philip\n
301.877	0.104	603754	keystroke_e	e	n/a
302.311	0.076	604622	keystroke_Key.backspace	Key.backspace	n/a
302.477	0.089	604954	keystroke_r	r	n/a
302.582	0.089	605164	keystroke_e	e	n/a
302.7165	0.0905	605433	keystroke_p	p	n/a
302.881	0.076	605762	keystroke_r	r	n/a
303.002	0.0605	606004	keystroke_o	o	n/a
303.1365	0.09	606273	keystroke_d	d	n/a
303.2565	0.0605	606513	keystroke_u	u	n/a
303.362	0.075	606724	keystroke_c	c	n/a
303.557	0.06	607114	keystroke_e	e	n/a
303.632	0.06	607264	keystroke_Key.space	Key.space	n/a
303.722	0.06	607444	keystroke_w	w	n/a
303.872	0.075	607744	keystroke_a	a	n/a
303.932	0.06	607864	keystroke_t	t	n/a
304.052	0.09	608104	keystroke_t	t	n/a
304.127	0.0745	608254	keystroke_s	s	n/a
304.2465	0.075	608493	keystroke_Key.space	Key.space	n/a
304.532	0.09	609064	keystroke_e	e	n/a
304.637	0.06	609274	keystroke_l	l	n/a
304.712	0.06	609424	keystroke_e	e	n/a
304.907	0.0745	609814	keystroke_c	c	n/a
305.117	0.06	610234	keystroke_t	t	n/a
305.296	0.0755	610592	keystroke_r	r	n/a
305.4615	0.075	610923	keystroke_o	o	n/a
305.702	0.075	611404	keystroke_n	n	n/a
305.9415	0.075	611883	keystroke_Key.space	Key.space	n/a
306.1515	0.075	612303	keystroke_p	p	n/a
306.3015	0.0605	612603	keystroke_h	h	n/a
306.3765	0.0605	612753	keystroke_i	i	n/a
306.5715	0.0455	613143	keystroke_l	l	n/a
306.7215	0.06	613443	keystroke_i	i	n/a
306.872	0.045	613744	keystroke_p	p	n/a
307.066	0.061	614132	keystroke_Key.enter	Key.enter	n/a
307.1325	6.626	614265	prompt	n/a	calvin nottingham monitored bestsellers\n
307.817	0.09	615634	keystroke_c	c	n/a
307.967	0.09	615934	keystroke_a	a	n/a
308.042	0.075	616084	keystroke_l	l	n/a
308.192	0.0605	616384	keystroke_v	v	n/a
308.2665	0.045	616533	keystroke_i	i	n/a
308.4625	0.029	616925	keystroke_n	n	n/a
308.5365	0.06	617073	keystroke_Key.space	Key.space	n/a
308.6575	0.0445	617315	keystroke_n	n	n/a
308.7925	0.0595	617585	keystroke_o	o	n/a
308.867	0.045	617734	keystroke_t	t	n/a
308.972	0.09	617944	keystroke_t	t	n/a
309.062	0.045	618124	keystroke_i	i	n/a
309.227	0.06	618454	keystroke_n	n	n/a
309.3015	0.075	618603	keystroke_g	g	n/a
309.7225	0.0745	619445	keystroke_a	a	n/a
310.157	0.0595	620314	keystroke_Key.backspace	Key.backspace	n/a
310.277	0.0905	620554	keystroke_h	h	n/a
310.487	0.09	620974	keystroke_a	a	n/a
310.5615	0.06	621123	keystroke_m	m	n/a
310.7415	0.0605	621483	keystroke_Key.space	Key.space	n/a
310.9825	0.074	621965	keystroke_m	m	n/a
311.1615	0.061	622323	keystroke_o	o	n/a
311.3125	0.0595	622625	keystroke_n	n	n/a
311.477	0.059	622954	keystroke_i	i	n/a
311.552	0.074	623104	keystroke_t	t	n/a
311.642	0.06	623284	keystroke_o	o	n/a
311.747	0.105	623494	keystroke_r	r	n/a
311.837	0.1045	623674	keystroke_e	e	n/a
312.031	0.076	624062	keystroke_d	d	n/a
312.122	0.06	624244	keystroke_Key.space	Key.space	n/a
312.271	0.0615	624542	keystroke_b	b	n/a
312.3165	0.0745	624633	keystroke_e	e	n/a
312.466	0.075	624932	keystroke_s	s	n/a
312.6315	0.06	625263	keystroke_t	t	n/a
312.8115	0.045	625623	keystroke_s	s	n/a
312.9315	0.09	625863	keystroke_e	e	n/a
313.0515	0.075	626103	keystroke_l	l	n/a
313.172	0.0895	626344	keystroke_l	l	n/a
313.2465	0.0755	626493	keystroke_e	e	n/a
313.3525	0.0895	626705	keystroke_r	r	n/a
313.547	0.075	627094	keystroke_s	s	n/a
313.682	0.075	627364	keystroke_Key.enter	Key.enter	n/a
313.7625	4.331	627525	prompt	n/a	crest hear impacts cleaner\n
314.357	0.09	628714	keystroke_c	c	n/a
314.582	0.075	629164	keystroke_r	r	n/a
314.702	0.09	629404	keystroke_e	e	n/a
314.836	0.106	629672	keystroke_s	s	n/a
315.001	0.076	630002	keystroke_t	t	n/a
315.092	0.044	630184	keystroke_Key.space	Key.space	n/a
315.197	0.075	630394	keystroke_h	h	n/a
315.227	0.1045	630454	keystroke_e	e	n/a
315.3915	0.0905	630783	keystroke_a	a	n/a
315.4215	0.12	630843	keystroke_r	r	n/a
315.872	0.0745	631744	keystroke_Key.space	Key.space	n/a
316.322	0.045	632644	keystroke_i	i	n/a
316.5015	0.045	633003	keystroke_m	m	n/a
316.652	0.0595	633304	keystroke_p	p	n/a
316.697	0.0745	633394	keystroke_a	a	n/a
316.862	0.0745	633724	keystroke_c	c	n/a
316.982	0.0595	633964	keystroke_t	t	n/a
317.0565	0.075	634113	keystroke_s	s	n/a
317.1465	0.075	634293	keystroke_Key.space	Key.space	n/a
317.2815	0.1055	634563	keystroke_c	c	n/a
317.372	0.075	634744	keystroke_l	l	n/a
317.4765	0.06	634953	keystroke_e	e	n/a
317.5825	0.089	635165	keystroke_a	a	n/a
317.6875	0.045	635375	keystroke_n	n	n/a
317.762	0.1055	635524	keystroke_e	e	n/a
317.852	0.0755	635704	keystroke_r	r	n/a
318.032	0.06	636064	keystroke_Key.enter	Key.enter	n/a
318.0985	5.6505	636197	prompt	n/a	troubleshooting mediawiki evans holding\n
318.737	0.06	637474	keystroke_t	t	n/a
318.9175	0.06	637835	keystroke_r	r	n/a
318.992	0.045	637984	keystroke_o	o	n/a
319.127	0.06	638254	keystroke_u	u	n/a
319.202	0.045	638404	keystroke_b	b	n/a
319.307	0.09	638614	keystroke_l	l	n/a
319.382	0.0605	638764	keystroke_e	e	n/a
319.5765	0.075	639153	keystroke_s	s	n/a
319.622	0.06	639244	keystroke_h	h	n/a
319.787	0.0595	639574	keystroke_o	o	n/a
319.9225	0.074	639845	keystroke_o	o	n/a
320.0125	0.089	640025	keystroke_t	t	n/a
320.1165	0.0455	640233	keystroke_i	i	n/a
320.252	0.09	640504	keystroke_n	n	n/a
320.3265	0.03	640653	keystroke_g	g	n/a
320.387	0.0595	640774	keystroke_Key.space	Key.space	n/a
320.507	0.06	641014	keystroke_m	m	n/a
320.552	0.09	641104	keystroke_e	e	n/a
320.747	0.075	641494	keystroke_d	d	n/a
320.807	0.06	641614	keystroke_i	i	n/a
320.897	0.075	641794	keystroke_a	a	n/a
321.122	0.0605	642244	keystroke_w	w	n/a
321.2415	0.06	642483	keystroke_i	i	n/a
321.437	0.06	642874	keystroke_k	k	n/a
321.632	0.06	643264	keystroke_i	i	n/a
321.8865	0.075	643773	keystroke_Key.space	Key.space	n/a
321.9915	0.075	643983	keystroke_e	e	n/a
322.187	0.075	644374	keystroke_v	v	n/a
322.3065	0.105	644613	keystroke_a	a	n/a
322.4125	0.074	644825	keystroke_n	n	n/a
322.5165	0.1055	645033	keystroke_s	s	n/a
322.607	0.0595	645214	keystroke_Key.space	Key.space	n/a
322.7415	0.061	645483	keystroke_h	h	n/a
322.9075	0.059	645815	keystroke_o	o	n/a
323.0415	0.0905	646083	keystroke_l	l	n/a
323.1165	0.0755	646233	keystroke_d	d	n/a
323.237	0.075	646474	keystroke_i	i	n/a
323.4015	0.0755	646803	keystroke_n	n	n/a
323.5075	0.06	647015	keystroke_g	g	n/a
323.6715	0.075	647343	keystroke_Key.enter	Key.enter	n/a
323.753	3.985	647506	prompt	n/a	oils albert phantom flush\n
324.362	0.06	648724	keystroke_o	o	n/a
324.5715	0.045	649143	keystroke_i	i	n/a
324.7365	0.075	649473	keystroke_l	l	n/a
324.872	0.0745	649744	keystroke_s	s	n/a
324.977	0.0745	649954	keystroke_Key.space	Key.space	n/a
325.1715	0.076	650343	keystroke_a	a	n/a
325.2015	0.075	650403	keystroke_l	l	n/a
325.412	0.045	650824	keystroke_b	b	n/a
325.457	0.0895	650914	keystroke_e	e	n/a
325.5615	0.105	651123	keystroke_r	r	n/a
325.7865	0.0605	651573	keystroke_t	t	n/a
325.862	0.075	651724	keystroke_Key.space	Key.space	n/a
326.087	0.0755	652174	keystroke_p	p	n/a
326.2815	0.0455	652563	keystroke_h	h	n/a
326.357	0.1195	652714	keystroke_a	a	n/a
326.462	0.06	652924	keystroke_n	n	n/a
326.627	0.075	653254	keystroke_t	t	n/a
326.6875	0.059	653375	keystroke_o	o	n/a
326.8515	0.0605	653703	keystroke_m	m	n/a
326.9415	0.09	653883	keystroke_Key.space	Key.space	n/a
327.047	0.0895	654094	keystroke_f	f	n/a
327.122	0.0595	654244	keystroke_l	l	n/a
327.302	0.06	654604	keystroke_u	u	n/a
327.377	0.075	654754	keystroke_s	s	n/a
327.467	0.06	654934	keystroke_h	h	n/a
327.6915	0.045	655383	keystroke_Key.enter	Key.enter	n/a
327.742	4.451	655484	prompt	n/a	dependence harbor clearly discs\n
328.307	0.075	656614	keystroke_d	d	n/a
328.4865	0.0595	656973	keystroke_e	e	n/a
328.532	0.0595	657064	keystroke_p	p	n/a
328.637	0.075	657274	keystroke_e	e	n/a
328.742	0.06	657484	keystroke_n	n	n/a
328.8915	0.06	657783	keystroke_d	d	n/a
329.042	0.0595	658084	keystroke_e	e	n/a
329.117	0.0595	658234	keystroke_n	n	n/a
329.3565	0.0605	658713	keystroke_c	c	n/a
329.612	0.075	659224	keystroke_e	e	n/a
329.747	0.06	659494	keystroke_Key.space	Key.space	n/a
329.9125	0.044	659825	keystroke_h	h	n/a
329.9715	0.09	659943	keystroke_a	a	n/a
330.0925	0.105	660185	keystroke_r	r	n/a
330.1825	0.075	660365	keystroke_b	b	n/a
330.3625	0.044	660725	keystroke_o	o	n/a
330.452	0.0595	660904	keystroke_r	r	n/a
330.4965	0.075	660993	keystroke_Key.space	Key.space	n/a
330.6615	0.0755	661323	keystroke_c	c	n/a
330.722	0.0595	661444	keystroke_l	l	n/a
330.8575	0.06	661715	keystroke_e	e	n/a
330.962	0.1195	661924	keystroke_a	a	n/a
331.0525	0.105	662105	keystroke_r	r	n/a
331.1715	0.061	662343	keystroke_l	l	n/a
331.3225	0.044	662645	keystroke_y	y	n/a
331.397	0.075	662794	keystroke_Key.space	Key.space	n/a
331.5475	0.06	663095	keystroke_d	d	n/a
331.6075	0.059	663215	keystroke_i	i	n/a
331.6825	0.0595	663365	keystroke_s	s	n/a
331.8475	0.0745	663695	keystroke_c	c	n/a
331.982	0.0595	663964	keystroke_s	s	n/a
332.132	0.0595	664264	keystroke_Key.enter	Key.enter	n/a
332.1965	5.187	664393	prompt	n/a	peers somebody telecommunications arab\n
332.8075	0.06	665615	keystroke_p	p	n/a
332.882	0.09	665764	keystroke_e	e	n/a
333.047	0.09	666094	keystroke_e	e	n/a
333.1515	0.0905	666303	keystroke_r	r	n/a
333.332	0.0595	666664	keystroke_s	s	n/a
333.4365	0.03	666873	keystroke_Key.space	Key.space	n/a
333.4965	0.0755	666993	keystroke_s	s	n/a
333.5565	0.045	667113	keystroke_o	o	n/a
333.7065	0.0755	667413	keystroke_m	m	n/a
333.7365	0.0755	667473	keystroke_e	e	n/a
333.9465	0.0455	667893	keystroke_b	b	n/a
334.007	0.075	668014	keystroke_o	o	n/a
334.0975	0.09	668195	keystroke_d	d	n/a
334.217	0.0595	668434	keystroke_y	y	n/a
334.3365	0.09	668673	keystroke_Key.space	Key.space	n/a
334.4875	0.075	668975	keystroke_t	t	n/a
334.6225	0.09	669245	keystroke_e	e	n/a
334.6975	0.074	669395	keystroke_l	l	n/a
334.787	0.0755	669574	keystroke_e	e	n/a
334.9965	0.0605	669993	keystroke_c	c	n/a
335.0415	0.06	670083	keystroke_o	o	n/a
335.2065	0.06	670413	keystroke_m	m	n/a
335.3275	0.105	670655	keystroke_m	m	n/a
335.5225	0.0445	671045	keystroke_u	u	n/a
335.6715	0.075	671343	keystroke_n	n	n/a
335.8225	0.0445	671645	keystroke_i	i	n/a
335.8515	0.075	671703	keystroke_c	c	n/a
336.002	0.0895	672004	keystroke_a	a	n/a
336.197	0.0745	672394	keystroke_t	t	n/a
336.2425	0.104	672485	keystroke_i	i	n/a
336.3015	0.09	672603	keystroke_o	o	n/a
336.4975	0.089	672995	keystroke_n	n	n/a
336.5715	0.06	673143	keystroke_s	s	n/a
336.6465	0.0905	673293	keystroke_Key.space	Key.space	n/a
336.7665	0.076	673533	keystroke_a	a	n/a
336.9015	0.076	673803	keystroke_r	r	n/a
337.007	0.12	674014	keystroke_a	a	n/a
337.082	0.0755	674164	keystroke_b	b	n/a
337.3365	0.0455	674673	keystroke_Key.enter	Key.enter	n/a
337.388	5.2305	674776	prompt	n/a	breaks concentrations transport sounds\n
338.072	0.06	676144	keystroke_b	b	n/a
338.1325	0.119	676265	keystroke_r	r	n/a
338.2215	0.1205	676443	keystroke_e	e	n/a
338.3565	0.1055	676713	keystroke_a	a	n/a
338.477	0.075	676954	keystroke_k	k	n/a
338.567	0.09	677134	keystroke_s	s	n/a
338.6865	0.075	677373	keystroke_Key.space	Key.space	n/a
338.9125	0.06	677825	keystroke_c	c	n/a
338.9575	0.06	677915	keystroke_o	o	n/a
339.1375	0.045	678275	keystroke_n	n	n/a
339.1525	0.075	678305	keystroke_c	c	n/a
339.3325	0.075	678665	keystroke_e	e	n/a
339.4225	0.0745	678845	keystroke_n	n	n/a
339.557	0.0605	679114	keystroke_t	t	n/a
339.7075	0.075	679415	keystroke_r	r	n/a
339.8125	0.09	679625	keystroke_a	a	n/a
339.9775	0.074	679955	keystroke_t	t	n/a
340.0375	0.09	680075	keystroke_i	i	n/a
340.1125	0.075	680225	keystroke_o	o	n/a
340.2925	0.075	680585	keystroke_n	n	n/a
340.3825	0.03	680765	keystroke_s	s	n/a
340.4275	0.075	680855	keystroke_Key.space	Key.space	n/a
340.5325	0.075	681065	keystroke_t	t	n/a
340.712	0.075	681424	keystroke_r	r	n/a
340.832	0.0905	681664	keystroke_a	a	n/a
340.9375	0.075	681875	keystroke_n	n	n/a
341.0275	0.0745	682055	keystroke_s	s	n/a
341.1775	0.134	682355	keystroke_p	p	n/a
341.2675	0.0745	682535	keystroke_o	o	n/a
341.3565	0.09	682713	keystroke_r	r	n/a
341.552	0.075	683104	keystroke_t	t	n/a
341.642	0.075	683284	keystroke_Key.space	Key.space	n/a
341.822	0.075	683644	keystroke_s	s	n/a
341.912	0.075	683824	keystroke_o	o	n/a
342.107	0.06	684214	keystroke_u	u	n/a
342.2725	0.0595	684545	keystroke_n	n	n/a
342.302	0.09	684604	keystroke_d	d	n/a
342.422	0.075	684844	keystroke_s	s	n/a
342.542	0.075	685084	keystroke_Key.enter	Key.enter	n/a
342.6235	3.791	685247	prompt	n/a	phantom yarn deemed be\n
343.3525	0.06	686705	keystroke_p	p	n/a
343.5475	0.045	687095	keystroke_h	h	n/a
343.6215	0.076	687243	keystroke_a	a	n/a
343.7125	0.074	687425	keystroke_n	n	n/a
343.8475	0.0745	687695	keystroke_t	t	n/a
343.907	0.0605	687814	keystroke_o	o	n/a
344.057	0.0895	688114	keystroke_m	m	n/a
344.192	0.0595	688384	keystroke_Key.space	Key.space	n/a
344.3715	0.06	688743	keystroke_y	y	n/a
344.5075	0.0895	689015	keystroke_a	a	n/a
344.7165	0.09	689433	keystroke_r	r	n/a
344.8215	0.0455	689643	keystroke_n	n	n/a
345.0015	0.0755	690003	keystroke_Key.space	Key.space	n/a
345.197	0.0605	690394	keystroke_d	d	n/a
345.362	0.06	690724	keystroke_e	e	n/a
345.4975	0.0895	690995	keystroke_e	e	n/a
345.572	0.06	691144	keystroke_m	m	n/a
345.677	0.075	691354	keystroke_e	e	n/a
345.8575	0.0745	691715	keystroke_d	d	n/a
345.917	0.045	691834	keystroke_Key.space	Key.space	n/a
346.037	0.075	692074	keystroke_b	b	n/a
346.1275	0.0745	692255	keystroke_e	e	n/a
346.367	0.045	692734	keystroke_Key.enter	Key.enter	n/a
346.4185	4.9005	692837	prompt	n/a	remembered comments scenario locked\n
347.0125	0.075	694025	keystroke_r	r	n/a
347.1165	0.1055	694233	keystroke_e	e	n/a
347.207	0.06	694414	keystroke_m	m	n/a
347.2975	0.075	694595	keystroke_e	e	n/a
347.3565	0.061	694713	keystroke_m	m	n/a
347.5375	0.045	695075	keystroke_b	b	n/a
347.5675	0.0745	695135	keystroke_e	e	n/a
347.657	0.12	695314	keystroke_r	r	n/a
347.792	0.0905	695584	keystroke_e	e	n/a
347.9725	0.1045	695945	keystroke_d	d	n/a
348.062	0.06	696124	keystroke_Key.space	Key.space	n/a
348.167	0.1055	696334	keystroke_c	c	n/a
348.257	0.045	696514	keystroke_o	o	n/a
348.4225	0.045	696845	keystroke_m	m	n/a
348.542	0.0755	697084	keystroke_m	m	n/a
348.632	0.06	697264	keystroke_e	e	n/a
348.752	0.0455	697504	keystroke_n	n	n/a
348.8125	0.09	697625	keystroke_t	t	n/a
348.9925	0.09	697985	keystroke_s	s	n/a
349.112	0.06	698224	keystroke_Key.space	Key.space	n/a
349.202	0.0605	698404	keystroke_s	s	n/a
349.367	0.075	698734	keystroke_c	c	n/a
349.682	0.075	699364	keystroke_e	e	n/a
349.8175	0.0595	699635	keystroke_n	n	n/a
349.952	0.075	699904	keystroke_a	a	n/a
350.1025	0.075	700205	keystroke_r	r	n/a
350.1915	0.09	700383	keystroke_i	i	n/a
350.2375	0.104	700475	keystroke_o	o	n/a
350.4165	0.0605	700833	keystroke_Key.space	Key.space	n/a
350.5525	0.0745	701105	keystroke_l	l	n/a
350.702	0.0605	701404	keystroke_o	o	n/a
350.747	0.0755	701494	keystroke_c	c	n/a
350.882	0.06	701764	keystroke_k	k	n/a
350.9575	0.0745	701915	keystroke_e	e	n/a
351.1525	0.0595	702305	keystroke_d	d	n/a
351.257	0.0605	702514	keystroke_Key.enter	Key.enter	n/a
351.3235	4.2415	702647	prompt	n/a	nike photoshop chair superior\n
351.8875	0.045	703775	keystroke_n	n	n/a
352.0365	0.046	704073	keystroke_i	i	n/a
352.1875	0.075	704375	keystroke_k	k	n/a
352.2475	0.075	704495	keystroke_e	e	n/a
352.3375	0.045	704675	keystroke_Key.space	Key.space	n/a
352.4275	0.089	704855	keystroke_p	p	n/a
352.5325	0.075	705065	keystroke_h	h	n/a
352.6225	0.075	705245	keystroke_o	o	n/a
352.7275	0.075	705455	keystroke_t	t	n/a
352.7875	0.06	705575	keystroke_o	o	n/a
352.9075	0.075	705815	keystroke_s	s	n/a
353.1015	0.061	706203	keystroke_h	h	n/a
353.1475	0.105	706295	keystroke_o	o	n/a
353.237	0.0455	706474	keystroke_p	p	n/a
353.6725	0.074	707345	keystroke_Key.space	Key.space	n/a
353.7765	0.0755	707553	keystroke_c	c	n/a
353.897	0.045	707794	keystroke_h	h	n/a
353.972	0.1055	707944	keystroke_a	a	n/a
354.062	0.061	708124	keystroke_i	i	n/a
354.1675	0.0745	708335	keystroke_r	r	n/a
354.2725	0.0745	708545	keystroke_Key.space	Key.space	n/a
354.4975	0.0445	708995	keystroke_s	s	n/a
354.557	0.0455	709114	keystroke_u	u	n/a
354.722	0.06	709444	keystroke_p	p	n/a
354.767	0.0755	709534	keystroke_e	e	n/a
354.857	0.12	709714	keystroke_r	r	n/a
354.962	0.0905	709924	keystroke_i	i	n/a
355.007	0.09	710014	keystroke_o	o	n/a
355.172	0.0755	710344	keystroke_r	r	n/a
355.5025	0.06	711005	keystroke_Key.enter	Key.enter	n/a
355.569	5.1105	711138	prompt	n/a	linear namespace convinced blink\n
356.2225	0.06	712445	keystroke_l	l	n/a
356.4175	0.03	712835	keystroke_i	i	n/a
356.5675	0.0455	713135	keystroke_n	n	n/a
356.597	0.0905	713194	keystroke_e	e	n/a
356.747	0.105	713494	keystroke_a	a	n/a
356.822	0.105	713644	keystroke_r	r	n/a
356.9425	0.0445	713885	keystroke_Key.space	Key.space	n/a
357.062	0.075	714124	keystroke_n	n	n/a
357.152	0.0755	714304	keystroke_a	a	n/a
357.2425	0.06	714485	keystroke_m	m	n/a
357.2875	0.0745	714575	keystroke_e	e	n/a
357.4525	0.0895	714905	keystroke_s	s	n/a
357.5575	0.045	715115	keystroke_p	p	n/a
357.632	0.0905	715264	keystroke_a	a	n/a
357.8275	0.045	715655	keystroke_c	c	n/a
357.9925	0.06	715985	keystroke_e	e	n/a
358.0825	0.0745	716165	keystroke_Key.space	Key.space	n/a
358.2025	0.0895	716405	keystroke_c	c	n/a
358.2775	0.045	716555	keystroke_o	o	n/a
358.4275	0.06	716855	keystroke_n	n	n/a
358.4725	0.06	716945	keystroke_v	v	n/a
358.608	0.0595	717216	keystroke_i	i	n/a
358.7565	0.076	717513	keystroke_n	n	n/a
358.818	0.059	717636	keystroke_c	c	n/a
359.0125	0.06	718025	keystroke_e	e	n/a
359.178	0.0595	718356	keystroke_d	d	n/a
359.2515	0.061	718503	keystroke_Key.space	Key.space	n/a
359.4325	0.075	718865	keystroke_b	b	n/a
359.4625	0.105	718925	keystroke_l	l	n/a
359.6725	0.06	719345	keystroke_i	i	n/a
359.867	0.06	719734	keystroke_k	k	n/a
360.167	0.06	720334	keystroke_Key.backspace	Key.backspace	n/a
360.2875	0.075	720575	keystroke_n	n	n/a
360.3765	0.076	720753	keystroke_k	k	n/a
360.6165	0.06	721233	keystroke_Key.enter	Key.enter	n/a
360.686	4.6285	721372	prompt	n/a	trainers ensuring signup remained\n
361.3075	0.075	722615	keystroke_t	t	n/a
361.503	0.0895	723006	keystroke_r	r	n/a
361.757	0.1055	723514	keystroke_a	a	n/a
361.847	0.06	723694	keystroke_i	i	n/a
362.042	0.06	724084	keystroke_n	n	n/a
362.117	0.075	724234	keystroke_e	e	n/a
362.2225	0.0895	724445	keystroke_r	r	n/a
362.387	0.0755	724774	keystroke_s	s	n/a
362.507	0.075	725014	keystroke_Key.space	Key.space	n/a
362.6425	0.0745	725285	keystroke_e	e	n/a
362.733	0.0745	725466	keystroke_n	n	n/a
362.8675	0.0745	725735	keystroke_s	s	n/a
362.957	0.045	725914	keystroke_u	u	n/a
363.0625	0.0895	726125	keystroke_r	r	n/a
363.137	0.03	726274	keystroke_i	i	n/a
363.287	0.075	726574	keystroke_n	n	n/a
363.317	0.06	726634	keystroke_g	g	n/a
363.437	0.075	726874	keystroke_Key.space	Key.space	n/a
363.557	0.075	727114	keystroke_s	s	n/a
363.6325	0.0595	727265	keystroke_i	i	n/a
363.7975	0.0445	727595	keystroke_g	g	n/a
363.812	0.075	727624	keystroke_n	n	n/a
364.0075	0.0595	728015	keystroke_u	u	n/a
364.1425	0.074	728285	keystroke_p	p	n/a
364.2775	0.075	728555	keystroke_Key.space	Key.space	n/a
364.3675	0.075	728735	keystroke_r	r	n/a
364.4875	0.135	728975	keystroke_e	e	n/a
364.5775	0.075	729155	keystroke_m	m	n/a
364.6825	0.105	729365	keystroke_a	a	n/a
364.7885	0.044	729577	keystroke_i	i	n/a
364.9375	0.075	729875	keystroke_n	n	n/a
364.9825	0.075	729965	keystroke_e	e	n/a
365.1475	0.09	730295	keystroke_d	d	n/a
365.2525	0.06	730505	keystroke_Key.enter	Key.enter	n/a
365.3185	6.9405	730637	prompt	n/a	dividend chapter playstation customs\n
365.8825	0.0745	731765	keystroke_d	d	n/a
365.972	0.06	731944	keystroke_i	i	n/a
366.1075	0.0595	732215	keystroke_v	v	n/a
366.1825	0.0745	732365	keystroke_i	i	n/a
366.8275	0.075	733655	keystroke_d	d	n/a
367.0375	0.075	734075	keystroke_e	e	n/a
367.1575	0.075	734315	keystroke_n	n	n/a
367.4425	0.0605	734885	keystroke_d	d	n/a
367.5925	0.09	735185	keystroke_Key.space	Key.space	n/a
367.9375	0.075	735875	keystroke_c	c	n/a
367.9975	0.075	735995	keystroke_h	h	n/a
368.103	0.0895	736206	keystroke_a	a	n/a
368.2075	0.06	736415	keystroke_p	p	n/a
368.283	0.0445	736566	keystroke_t	t	n/a
368.3875	0.135	736775	keystroke_e	e	n/a
368.4625	0.12	736925	keystroke_r	r	n/a
368.5975	0.075	737195	keystroke_Key.space	Key.space	n/a
368.8375	0.045	737675	keystroke_p	p	n/a
368.9725	0.075	737945	keystroke_l	l	n/a
369.0025	0.075	738005	keystroke_a	a	n/a
369.212	0.045	738424	keystroke_y	y	n/a
369.2725	0.09	738545	keystroke_s	s	n/a
369.4375	0.075	738875	keystroke_t	t	n/a
369.5575	0.105	739115	keystroke_a	a	n/a
369.7075	0.105	739415	keystroke_t	t	n/a
369.8575	0.12	739715	keystroke_i	i	n/a
