onset	duration	sample	value	key	prompt_text
2.2915	10.4915	4583	prompt	n/a	the quick brown fox jumps over a lazy dog\n
4.399	0.057	8798	keystroke_t	t	n/a
4.441	0.105	8882	keystroke_h	h	n/a
4.576	0.1345	9152	keystroke_e	e	n/a
4.681	0.1185	9362	keystroke_Key.space	Key.space	n/a
4.8145	0.12	9629	keystroke_q	q	n/a
5.0845	0.135	10169	keystroke_u	u	n/a
5.1895	0.12	10379	keystroke_i	i	n/a
5.2945	0.15	10589	keystroke_c	c	n/a
5.4595	0.18	10919	keystroke_k	k	n/a
5.5795	0.135	11159	keystroke_Key.space	Key.space	n/a
6.135	0.09	12270	keystroke_b	b	n/a
6.36	0.12	12720	keystroke_r	r	n/a
6.45	0.075	12900	keystroke_o	o	n/a
6.585	0.12	13170	keystroke_w	w	n/a
6.75	0.105	13500	keystroke_n	n	n/a
6.81	0.135	13620	keystroke_Key.space	Key.space	n/a
7.26	0.12	14520	keystroke_f	f	n/a
7.4245	0.075	14849	keystroke_o	o	n/a
7.5295	0.15	15059	keystroke_x	x	n/a
7.7395	0.1205	15479	keystroke_Key.space	Key.space	n/a
8.25	0.075	16500	keystroke_j	j	n/a
8.505	0.015	17010	keystroke_u	u	n/a
8.655	0.09	17310	keystroke_m	m	n/a
8.715	0.135	17430	keystroke_p	p	n/a
8.865	0.12	17730	keystroke_s	s	n/a
9.045	0.135	18090	keystroke_Key.space	Key.space	n/a
9.525	0.045	19050	keystroke_o	o	n/a
9.585	0.06	19170	keystroke_v	v	n/a
9.66	0.165	19320	keystroke_e	e	n/a
9.795	0.1345	19590	keystroke_r	r	n/a
9.9145	0.105	19829	keystroke_Key.space	Key.space	n/a
10.0795	0.105	20159	keystroke_a	a	n/a
10.1995	0.12	20399	keystroke_Key.space	Key.space	n/a
10.4845	0.12	20969	keystroke_z	z	n/a
10.6195	0.135	21239	keystroke_l	l	n/a
10.9945	0.06	21989	keystroke_Key.backspace	Key.backspace	n/a
11.1145	0.09	22229	keystroke_Key.backspace	Key.backspace	n/a
11.3395	0.105	22679	keystroke_l	l	n/a
11.4305	0.059	22861	keystroke_a	a	n/a
11.6545	0.1505	23309	keystroke_z	z	n/a
11.805	0.1195	23610	keystroke_y	y	n/a
11.8945	0.105	23789	keystroke_Key.space	Key.space	n/a
12.2545	0.09	24509	keystroke_d	d	n/a
12.3595	0.09	24719	keystroke_o	o	n/a
12.4945	0.105	24989	keystroke_g	g	n/a
12.7195	0.06	25439	keystroke_Key.enter	Key.enter	n/a
12.7915	6.065	25583	prompt	n/a	pill adding surgical bags\n
13.5145	0.135	27029	keystroke_p	p	n/a
13.6345	0.15	27269	keystroke_i	i	n/a
13.8455	0.1045	27691	keystroke_l	l	n/a
14.04	0.105	28080	keystroke_l	l	n/a
14.07	0.165	28140	keystroke_Key.space	Key.space	n/a
14.31	0.105	28620	keystroke_d	d	n/a
14.55	0.09	29100	keystroke_a	a	n/a
14.985	0.06	29970	keystroke_Key.backspace	Key.backspace	n/a
15.12	0.105	30240	keystroke_Key.backspace	Key.backspace	n/a
15.2395	0.1205	30479	keystroke_a	a	n/a
15.375	0.0895	30750	keystroke_d	d	n/a
15.555	0.0895	31110	keystroke_d	d	n/a
15.6755	0.1495	31351	keystroke_i	i	n/a
15.78	0.15	31560	keystroke_n	n	n/a
15.87	0.105	31740	keystroke_g	g	n/a
15.959	0.1355	31918	keystroke_Key.space	Key.space	n/a
16.1555	0.12	32311	keystroke_s	s	n/a
16.2755	0.105	32551	keystroke_u	u	n/a
16.4255	0.075	32851	keystroke_r	r	n/a
16.6945	0.12	33389	keystroke_g	g	n/a
16.8295	0.1055	33659	keystroke_i	i	n/a
17.16	0.165	34320	keystroke_c	c	n/a
17.295	0.1495	34590	keystroke_a	a	n/a
17.4595	0.105	34919	keystroke_l	l	n/a
17.5345	0.135	35069	keystroke_Key.space	Key.space	n/a
17.9845	0.105	35969	keystroke_b	b	n/a
18.1045	0.12	36209	keystroke_a	a	n/a
18.3595	0.12	36719	keystroke_g	g	n/a
18.5245	0.15	37049	keystroke_s	s	n/a
18.7645	0.09	37529	keystroke_Key.enter	Key.enter	n/a
18.863	10.959	37726	prompt	n/a	truth harder anne shouldn't've\n
19.6645	0.1055	39329	keystroke_t	t	n/a
19.905	0.09	39810	keystroke_r	r	n/a
20.16	0.09	40320	keystroke_u	u	n/a
20.73	0.09	41460	keystroke_t	t	n/a
20.895	0.15	41790	keystroke_h	h	n/a
21.06	0.12	42120	keystroke_Key.space	Key.space	n/a
21.405	0.075	42810	keystroke_h	h	n/a
21.51	0.12	43020	keystroke_a	a	n/a
21.57	0.09	43140	keystroke_r	r	n/a
21.78	0.105	43560	keystroke_d	d	n/a
21.99	0.105	43980	keystroke_Key.space	Key.space	n/a
22.32	0.09	44640	keystroke_Key.backspace	Key.backspace	n/a
22.62	0.15	45240	keystroke_e	e	n/a
22.725	0.18	45450	keystroke_r	r	n/a
22.98	0.165	45960	keystroke_Key.space	Key.space	n/a
23.625	0.12	47250	keystroke_a	a	n/a
23.73	0.09	47460	keystroke_n	n	n/a
23.895	0.105	47790	keystroke_n	n	n/a
24.015	0.09	48030	keystroke_e	e	n/a
24.24	0.105	48480	keystroke_Key.space	Key.space	n/a
24.465	0.12	48930	keystroke_s	s	n/a
24.57	0.12	49140	keystroke_h	h	n/a
24.66	0.135	49320	keystroke_o	o	n/a
25.9055	0.105	51811	keystroke_u	u	n/a
26.1745	0.151	52349	keystroke_l	l	n/a
26.7605	0.104	53521	keystroke_d	d	n/a
27.2725	0.1475	54545	keystroke_n	n	n/a
27.405	0.165	54810	keystroke_'	'	n/a
27.585	0.105	55170	keystroke_t	t	n/a
28.9655	0.15	57931	keystroke_'	'	n/a
29.2505	0.1345	58501	keystroke_v	v	n/a
29.37	0.15	58740	keystroke_e	e	n/a
29.715	0.1055	59430	keystroke_Key.enter	Key.enter	n/a
29.8285	6.339	59657	prompt	n/a	agenda motherboard power sync\n
30.4805	0.135	60961	keystroke_a	a	n/a
30.6305	0.12	61261	keystroke_g	g	n/a
30.7355	0.105	61471	keystroke_e	e	n/a
30.8255	0.12	61651	keystroke_n	n	n/a
31.1105	0.15	62221	keystroke_d	d	n/a
31.2455	0.165	62491	keystroke_a	a	n/a
31.4545	0.136	62909	keystroke_Key.space	Key.space	n/a
31.7705	0.134	63541	keystroke_m	m	n/a
31.8745	0.12	63749	keystroke_o	o	n/a
31.9805	0.12	63961	keystroke_t	t	n/a
32.1155	0.105	64231	keystroke_h	h	n/a
32.2055	0.135	64411	keystroke_e	e	n/a
32.2805	0.135	64561	keystroke_r	r	n/a
32.64	0.09	65280	keystroke_b	b	n/a
32.745	0.06	65490	keystroke_o	o	n/a
32.8505	0.1045	65701	keystroke_a	a	n/a
32.91	0.105	65820	keystroke_r	r	n/a
33.09	0.15	66180	keystroke_d	d	n/a
33.3	0.12	66600	keystroke_Key.space	Key.space	n/a
33.615	0.1355	67230	keystroke_p	p	n/a
33.735	0.1355	67470	keystroke_o	o	n/a
33.8845	0.136	67769	keystroke_w	w	n/a
34.0055	0.15	68011	keystroke_e	e	n/a
34.1405	0.105	68281	keystroke_r	r	n/a
34.3045	0.106	68609	keystroke_Key.space	Key.space	n/a
34.4705	0.09	68941	keystroke_s	s	n/a
34.7105	0.06	69421	keystroke_y	y	n/a
35.0555	0.12	70111	keystroke_n	n	n/a
35.4155	0.12	70831	keystroke_x	x	n/a
35.7895	0.0915	71579	keystroke_Key.backspace	Key.backspace	n/a
35.865	0.12	71730	keystroke_c	c	n/a
36.045	0.12	72090	keystroke_Key.enter	Key.enter	n/a
36.173	10.254	72346	prompt	n/a	reviewed detective hewlett flashing\n
36.84	0.105	73680	keystroke_r	r	n/a
36.915	0.105	73830	keystroke_e	e	n/a
37.155	0.135	74310	keystroke_v	v	n/a
37.291	0.1045	74582	keystroke_i	i	n/a
37.4255	0.12	74851	keystroke_e	e	n/a
37.5155	0.119	75031	keystroke_w	w	n/a
37.8	0.09	75600	keystroke_e	e	n/a
38.1	0.135	76200	keystroke_d	d	n/a
38.715	0.135	77430	keystroke_Key.space	Key.space	n/a
39.135	0.06	78270	keystroke_d	d	n/a
39.315	0.06	78630	keystroke_e	e	n/a
39.5245	0.105	79049	keystroke_t	t	n/a
39.6145	0.105	79229	keystroke_e	e	n/a
39.87	0.09	79740	keystroke_c	c	n/a
40.05	0.105	80100	keystroke_t	t	n/a
40.23	0.105	80460	keystroke_i	i	n/a
40.38	0.195	80760	keystroke_v	v	n/a
40.545	0.12	81090	keystroke_e	e	n/a
40.68	0.09	81360	keystroke_Key.space	Key.space	n/a
40.935	0.075	81870	keystroke_h	h	n/a
41.04	0.165	82080	keystroke_e	e	n/a
41.25	0.15	82500	keystroke_l	l	n/a
41.61	0.075	83220	keystroke_Key.backspace	Key.backspace	n/a
41.715	0.1345	83430	keystroke_w	w	n/a
42.1945	0.105	84389	keystroke_l	l	n/a
42.81	0.075	85620	keystroke_e	e	n/a
43.035	0.105	86070	keystroke_t	t	n/a
43.275	0.15	86550	keystroke_t	t	n/a
43.665	0.1195	87330	keystroke_Key.space	Key.space	n/a
43.995	0.09	87990	keystroke_f	f	n/a
44.235	0.18	88470	keystroke_l	l	n/a
44.37	0.105	88740	keystroke_a	a	n/a
44.64	0.12	89280	keystroke_s	s	n/a
44.85	0.15	89700	keystroke_h	h	n/a
44.97	0.21	89940	keystroke_i	i	n/a
45.225	0.15	90450	keystroke_n	n	n/a
45.465	0.12	90930	keystroke_g	g	n/a
46.3205	0.105	92641	keystroke_Key.enter	Key.enter	n/a
46.446	7.631	92892	prompt	n/a	upgrade valium multi revision\n
47.1455	0.105	94291	keystroke_u	u	n/a
47.49	0.12	94980	keystroke_p	p	n/a
47.8205	0.075	95641	keystroke_g	g	n/a
47.9855	0.135	95971	keystroke_r	r	n/a
48.0755	0.12	96151	keystroke_a	a	n/a
48.3305	0.105	96661	keystroke_d	d	n/a
48.5555	0.105	97111	keystroke_e	e	n/a
48.7655	0.12	97531	keystroke_Key.space	Key.space	n/a
49.1855	0.135	98371	keystroke_v	v	n/a
49.2905	0.165	98581	keystroke_a	a	n/a
49.5155	0.165	99031	keystroke_l	l	n/a
49.6955	0.1345	99391	keystroke_i	i	n/a
50.175	0.105	100350	keystroke_u	u	n/a
50.895	0.135	101790	keystroke_m	m	n/a
51.15	0.105	102300	keystroke_Key.space	Key.space	n/a
51.54	0.135	103080	keystroke_m	m	n/a
51.8705	0.12	103741	keystroke_u	u	n/a
51.9455	0.195	103891	keystroke_l	l	n/a
52.2155	0.09	104431	keystroke_t	t	n/a
52.3505	0.1345	104701	keystroke_i	i	n/a
52.65	0.12	105300	keystroke_Key.space	Key.space	n/a
52.875	0.12	105750	keystroke_r	r	n/a
52.965	0.12	105930	keystroke_e	e	n/a
53.205	0.105	106410	keystroke_v	v	n/a
53.28	0.09	106560	keystroke_i	i	n/a
53.445	0.12	106890	keystroke_s	s	n/a
53.49	0.135	106980	keystroke_i	i	n/a
53.595	0.15	107190	keystroke_o	o	n/a
53.67	0.165	107340	keystroke_n	n	n/a
54.015	0.06	108030	keystroke_Key.enter	Key.enter	n/a
54.082	13.991	108164	prompt	n/a	politicians rely interests elephant\n
54.81	0.09	109620	keystroke_p	p	n/a
55.005	0.105	110010	keystroke_o	o	n/a
55.23	0.105	110460	keystroke_l	l	n/a
55.305	0.135	110610	keystroke_i	i	n/a
55.575	0.15	111150	keystroke_c	c	n/a
55.74	0.105	111480	keystroke_i	i	n/a
55.95	0.135	111900	keystroke_a	a	n/a
56.07	0.135	112140	keystroke_n	n	n/a
56.385	0.12	112770	keystroke_s	s	n/a
56.535	0.135	113070	keystroke_Key.space	Key.space	n/a
56.955	0.09	113910	keystroke_r	r	n/a
57.03	0.15	114060	keystroke_e	e	n/a
57.15	0.135	114300	keystroke_l	l	n/a
57.345	0.1795	114690	keystroke_y	y	n/a
57.5845	0.105	115169	keystroke_Key.space	Key.space	n/a
57.8405	0.18	115681	keystroke_i	i	n/a
57.9305	0.165	115861	keystroke_n	n	n/a
58.0805	0.255	116161	keystroke_t	t	n/a
60.735	0.135	121470	keystroke_t	t	n/a
60.855	0.105	121710	keystroke_i	i	n/a
61.095	0.12	122190	keystroke_c	c	n/a
61.2	0.105	122400	keystroke_i	i	n/a
61.365	0.12	122730	keystroke_a	a	n/a
61.486	0.119	122972	keystroke_n	n	n/a
61.62	0.135	123240	keystroke_s	s	n/a
61.815	0.135	123630	keystroke_Key.space	Key.space	n/a
61.995	0.135	123990	keystroke_r	r	n/a
62.085	0.165	124170	keystroke_e	e	n/a
62.265	0.1205	124530	keystroke_l	l	n/a
62.6405	0.075	125281	keystroke_y	y	n/a
62.8655	0.15	125731	keystroke_Key.space	Key.space	n/a
63.2105	0.15	126421	keystroke_i	i	n/a
63.3005	0.135	126601	keystroke_n	n	n/a
63.4505	0.135	126901	keystroke_t	t	n/a
63.6005	0.165	127201	keystroke_e	e	n/a
63.7655	0.195	127531	keystroke_r	r	n/a
63.9605	0.135	127921	keystroke_e	e	n/a
64.0805	0.21	128161	keystroke_s	s	n/a
64.2005	0.105	128401	keystroke_t	t	n/a
64.2755	0.12	128551	keystroke_e	e	n/a
64.5455	0.12	129091	keystroke_s	s	n/a
65.0255	0.06	130051	keystroke_Key.backspace	Key.backspace	n/a
65.1455	0.089	130291	keystroke_Key.backspace	Key.backspace	n/a
65.2055	0.15	130411	keystroke_s	s	n/a
65.3845	0.181	130769	keystroke_Key.space	Key.space	n/a
65.895	0.075	131790	keystroke_e	e	n/a
66	0.135	132000	keystroke_l	l	n/a
66.12	0.09	132240	keystroke_e	e	n/a
66.27	0.12	132540	keystroke_p	p	n/a
66.391	0.164	132782	keystroke_h	h	n/a
66.525	0.12	133050	keystroke_o	o	n/a
66.66	0.12	133320	keystroke_n	n	n/a
66.81	0.165	133620	keystroke_a	a	n/a
67.125	0.06	134250	keystroke_Key.backspace	Key.backspace	n/a
67.275	0.09	134550	keystroke_Key.backspace	Key.backspace	n/a
67.4395	0.075	134879	keystroke_Key.backspace	Key.backspace	n/a
67.4995	0.135	134999	keystroke_a	a	n/a
67.6495	0.091	135299	keystroke_n	n	n/a
67.8295	0.106	135659	keystroke_t	t	n/a
67.9805	0.09	135961	keystroke_Key.enter	Key.enter	n/a
68.083	8.2235	136166	prompt	n/a	findings bench someone rays\n
68.8355	0.105	137671	keystroke_f	f	n/a
68.9105	0.165	137821	keystroke_i	i	n/a
69.0305	0.135	138061	keystroke_n	n	n/a
69.1505	0.105	138301	keystroke_g	g	n/a
70.1705	0.105	140341	keystroke_Key.backspace	Key.backspace	n/a
70.605	0.0605	141210	keystroke_d	d	n/a
70.7255	0.165	141451	keystroke_i	i	n/a
70.845	0.1655	141690	keystroke_n	n	n/a
71.055	0.12	142110	keystroke_g	g	n/a
71.8655	0.105	143731	keystroke_s	s	n/a
72.405	0.015	144810	keystroke_Key.space	Key.space	n/a
72.6145	0.076	145229	keystroke_b	b	n/a
72.6745	0.121	145349	keystroke_e	e	n/a
73.1695	0.135	146339	keystroke_n	n	n/a
73.3495	0.15	146699	keystroke_c	c	n/a
73.5295	0.15	147059	keystroke_h	h	n/a
73.6345	0.135	147269	keystroke_Key.space	Key.space	n/a
73.9205	0.135	147841	keystroke_s	s	n/a
74.0405	0.105	148081	keystroke_o	o	n/a
74.1155	0.135	148231	keystroke_m	m	n/a
74.5205	0.15	149041	keystroke_e	e	n/a
74.7905	0.15	149581	keystroke_o	o	n/a
74.8805	0.165	149761	keystroke_n	n	n/a
75.1355	0.06	150271	keystroke_e	e	n/a
75.3155	0.135	150631	keystroke_Key.space	Key.space	n/a
75.5855	0.135	151171	keystroke_r	r	n/a
75.6905	0.12	151381	keystroke_a	a	n/a
75.8255	0.105	151651	keystroke_y	y	n/a
75.9445	0.12	151889	keystroke_s	s	n/a
76.2	0.105	152400	keystroke_Key.enter	Key.enter	n/a
76.313	5.1835	152626	prompt	n/a	wide yoga bones highly\n
77.1	0.075	154200	keystroke_w	w	n/a
77.19	0.105	154380	keystroke_i	i	n/a
77.31	0.075	154620	keystroke_d	d	n/a
77.49	0.1045	154980	keystroke_e	e	n/a
77.6245	0.18	155249	keystroke_Key.space	Key.space	n/a
77.82	0.2095	155640	keystroke_o	o	n/a
78.2545	0.045	156509	keystroke_Key.backspace	Key.backspace	n/a
78.4355	0.135	156871	keystroke_y	y	n/a
78.5105	0.165	157021	keystroke_o	o	n/a
78.7505	0.12	157501	keystroke_g	g	n/a
78.8405	0.165	157681	keystroke_a	a	n/a
79.0495	0.135	158099	keystroke_Key.space	Key.space	n/a
79.4105	0.105	158821	keystroke_b	b	n/a
79.5455	0.12	159091	keystroke_o	o	n/a
79.6355	0.135	159271	keystroke_n	n	n/a
79.8005	0.135	159601	keystroke_e	e	n/a
79.9205	0.1195	159841	keystroke_s	s	n/a
80.07	0.1195	160140	keystroke_Key.space	Key.space	n/a
80.295	0.12	160590	keystroke_h	h	n/a
80.37	0.1495	160740	keystroke_i	i	n/a
80.595	0.0745	161190	keystroke_g	g	n/a
80.7745	0.15	161549	keystroke_h	h	n/a
80.9545	0.21	161909	keystroke_l	l	n/a
81.1495	0.105	162299	keystroke_y	y	n/a
81.405	0.0895	162810	keystroke_Key.enter	Key.enter	n/a
81.5015	9.7155	163003	prompt	n/a	mill dicke talented pulling\n
82.185	0.165	164370	keystroke_m	m	n/a
82.305	0.1495	164610	keystroke_i	i	n/a
82.4405	0.089	164881	keystroke_l	l	n/a
82.6045	0.165	165209	keystroke_l	l	n/a
82.7545	0.15	165509	keystroke_Key.space	Key.space	n/a
83.0405	0.134	166081	keystroke_d	d	n/a
83.3545	0.12	166709	keystroke_i	i	n/a
83.7895	0.135	167579	keystroke_c	c	n/a
83.9405	0.1795	167881	keystroke_k	k	n/a
84.24	0.1195	168480	keystroke_e	e	n/a
84.5245	0.15	169049	keystroke_Key.space	Key.space	n/a
84.8995	0.105	169799	keystroke_t	t	n/a
84.9895	0.12	169979	keystroke_e	e	n/a
85.1245	0.105	170249	keystroke_l	l	n/a
85.2305	0.089	170461	keystroke_e	e	n/a
85.3945	0.105	170789	keystroke_n	n	n/a
85.9795	0.1355	171959	keystroke_t	t	n/a
86.175	0.105	172350	keystroke_e	e	n/a
86.58	0.075	173160	keystroke_Key.backspace	Key.backspace	n/a
86.745	0.09	173490	keystroke_Key.backspace	Key.backspace	n/a
86.94	0.045	173880	keystroke_Key.backspace	Key.backspace	n/a
87.27	0.06	174540	keystroke_Key.backspace	Key.backspace	n/a
87.42	0.105	174840	keystroke_Key.backspace	Key.backspace	n/a
87.78	0.09	175560	keystroke_Key.backspace	Key.backspace	n/a
88.0495	0.195	176099	keystroke_a	a	n/a
88.5745	0.135	177149	keystroke_l	l	n/a
88.7695	0.135	177539	keystroke_e	e	n/a
88.9195	0.12	177839	keystroke_n	n	n/a
89.0995	0.165	178199	keystroke_t	t	n/a
89.2795	0.105	178559	keystroke_e	e	n/a
89.5195	0.105	179039	keystroke_d	d	n/a
89.7295	0.12	179459	keystroke_Key.space	Key.space	n/a
90.135	0.12	180270	keystroke_p	p	n/a
90.225	0.135	180450	keystroke_u	u	n/a
90.405	0.105	180810	keystroke_l	l	n/a
90.615	0.15	181230	keystroke_l	l	n/a
90.735	0.165	181470	keystroke_i	i	n/a
90.81	0.15	181620	keystroke_n	n	n/a
90.93	0.12	181860	keystroke_g	g	n/a
91.14	0.075	182280	keystroke_Key.enter	Key.enter	n/a
91.2225	6.564	182445	prompt	n/a	includes wrong beads ranked\n
91.905	0.135	183810	keystroke_i	i	n/a
91.98	0.135	183960	keystroke_n	n	n/a
92.1	0.135	184200	keystroke_c	c	n/a
92.205	0.18	184410	keystroke_l	l	n/a
92.28	0.1345	184560	keystroke_u	u	n/a
92.4295	0.09	184859	keystroke_d	d	n/a
92.6695	0.09	185339	keystroke_e	e	n/a
92.7445	0.15	185489	keystroke_s	s	n/a
92.8645	0.12	185729	keystroke_Key.space	Key.space	n/a
93.0445	0.09	186089	keystroke_w	w	n/a
93.1795	0.135	186359	keystroke_r	r	n/a
93.3595	0.12	186719	keystroke_o	o	n/a
93.4345	0.15	186869	keystroke_n	n	n/a
93.5695	0.135	187139	keystroke_g	g	n/a
93.7645	0.135	187529	keystroke_Key.space	Key.space	n/a
94.11	0.105	188220	keystroke_b	b	n/a
94.23	0.135	188460	keystroke_e	e	n/a
94.725	0.06	189450	keystroke_e	e	n/a
95.34	0.09	190680	keystroke_Key.backspace	Key.backspace	n/a
95.445	0.0905	190890	keystroke_d	d	n/a
95.625	0.105	191250	keystroke_s	s	n/a
95.8645	0.12	191729	keystroke_Key.space	Key.space	n/a
96.2395	0.12	192479	keystroke_r	r	n/a
96.3445	0.105	192689	keystroke_a	a	n/a
96.4345	0.105	192869	keystroke_n	n	n/a
96.5845	0.18	193169	keystroke_k	k	n/a
96.7495	0.135	193499	keystroke_e	e	n/a
96.8695	0.105	193739	keystroke_s	s	n/a
97.395	0.074	194790	keystroke_Key.backspace	Key.backspace	n/a
97.47	0.1205	194940	keystroke_d	d	n/a
97.65	0.134	195300	keystroke_Key.enter	Key.enter	n/a
97.792	10.0745	195584	prompt	n/a	lynn relocation integrated harvey\n
98.4605	0.149	196921	keystroke_l	l	n/a
98.6245	0.151	197249	keystroke_y	y	n/a
98.9405	0.089	197881	keystroke_n	n	n/a
99.1195	0.135	198239	keystroke_n	n	n/a
99.2695	0.15	198539	keystroke_Key.space	Key.space	n/a
99.8255	0.1795	199651	keystroke_r	r	n/a
99.96	0.135	199920	keystroke_e	e	n/a
100.425	0.135	200850	keystroke_c	c	n/a
100.68	0.18	201360	keystroke_o	o	n/a
101.145	0.045	202290	keystroke_Key.backspace	Key.backspace	n/a
101.265	0.09	202530	keystroke_Key.backspace	Key.backspace	n/a
101.475	0.12	202950	keystroke_l	l	n/a
101.7	0.15	203400	keystroke_c	c	n/a
102.1645	0.075	204329	keystroke_Key.backspace	Key.backspace	n/a
102.405	0.105	204810	keystroke_o	o	n/a
102.81	0.0595	205620	keystroke_c	c	n/a
102.8845	0.12	205769	keystroke_a	a	n/a
103.0345	0.12	206069	keystroke_t	t	n/a
103.0945	0.09	206189	keystroke_i	i	n/a
103.1695	0.18	206339	keystroke_o	o	n/a
103.2445	0.195	206489	keystroke_n	n	n/a
103.4245	0.135	206849	keystroke_Key.space	Key.space	n/a
103.6645	0.18	207329	keystroke_i	i	n/a
103.7545	0.15	207509	keystroke_n	n	n/a
103.9495	0.1505	207899	keystroke_t	t	n/a
104.07	0.15	208140	keystroke_e	e	n/a
104.415	0.075	208830	keystroke_g	g	n/a
104.595	0.135	209190	keystroke_r	r	n/a
104.715	0.105	209430	keystroke_a	a	n/a
104.865	0.12	209730	keystroke_t	t	n/a
104.97	0.105	209940	keystroke_e	e	n/a
105.195	0.075	210390	keystroke_d	d	n/a
105.315	0.09	210630	keystroke_Key.space	Key.space	n/a
105.45	0.1345	210900	keystroke_h	h	n/a
105.6	0.105	211200	keystroke_e	e	n/a
105.6895	0.105	211379	keystroke_a	a	n/a
105.7645	0.12	211529	keystroke_r	r	n/a
106.08	0.12	212160	keystroke_v	v	n/a
106.395	0.06	212790	keystroke_Key.backspace	Key.backspace	n/a
106.56	0.075	213120	keystroke_Key.backspace	Key.backspace	n/a
106.71	0.075	213420	keystroke_Key.backspace	Key.backspace	n/a
106.86	0.105	213720	keystroke_Key.backspace	Key.backspace	n/a
106.98	0.105	213960	keystroke_a	a	n/a
107.01	0.12	214020	keystroke_r	r	n/a
107.295	0.1045	214590	keystroke_v	v	n/a
107.3845	0.165	214769	keystroke_e	e	n/a
107.5345	0.09	215069	keystroke_y	y	n/a
107.7745	0.09	215549	keystroke_Key.enter	Key.enter	n/a
107.8725	5.544	215745	prompt	n/a	full happiness prefer turn\n
108.5855	0.1045	217171	keystroke_f	f	n/a
108.674	0.121	217348	keystroke_u	u	n/a
108.765	0.105	217530	keystroke_l	l	n/a
108.959	0.151	217918	keystroke_l	l	n/a
109.02	0.119	218040	keystroke_Key.space	Key.space	n/a
109.215	0.104	218430	keystroke_h	h	n/a
109.35	0.119	218700	keystroke_a	a	n/a
109.455	0.075	218910	keystroke_p	p	n/a
109.6205	0.105	219241	keystroke_p	p	n/a
109.8445	0.1345	219689	keystroke_i	i	n/a
109.965	0.1345	219930	keystroke_n	n	n/a
110.1145	0.09	220229	keystroke_e	e	n/a
110.1755	0.164	220351	keystroke_s	s	n/a
110.5945	0.105	221189	keystroke_s	s	n/a
110.8045	0.12	221609	keystroke_Key.space	Key.space	n/a
111.3445	0.15	222689	keystroke_p	p	n/a
111.5395	0.12	223079	keystroke_r	r	n/a
111.6295	0.136	223259	keystroke_e	e	n/a
111.8845	0.165	223769	keystroke_f	f	n/a
112.0645	0.165	224129	keystroke_e	e	n/a
112.2445	0.135	224489	keystroke_r	r	n/a
112.4255	0.134	224851	keystroke_Key.space	Key.space	n/a
112.6655	0.09	225331	keystroke_t	t	n/a
112.7695	0.076	225539	keystroke_u	u	n/a
112.8745	0.136	225749	keystroke_r	r	n/a
113.0245	0.12	226049	keystroke_n	n	n/a
113.3395	0.075	226679	keystroke_Key.enter	Key.enter	n/a
113.4215	8.62	226843	prompt	n/a	communist sound semiconductor marketing\n
114.255	0.165	228510	keystroke_c	c	n/a
114.495	0.135	228990	keystroke_o	o	n/a
114.6	0.135	229200	keystroke_m	m	n/a
115.095	0.105	230190	keystroke_m	m	n/a
115.44	0.075	230880	keystroke_u	u	n/a
115.935	0.135	231870	keystroke_n	n	n/a
116.04	0.12	232080	keystroke_i	i	n/a
116.19	0.15	232380	keystroke_s	s	n/a
116.355	0.135	232710	keystroke_t	t	n/a
116.519	0.121	233038	keystroke_Key.space	Key.space	n/a
116.745	0.165	233490	keystroke_s	s	n/a
116.82	0.135	233640	keystroke_o	o	n/a
116.895	0.12	233790	keystroke_u	u	n/a
117.135	0.135	234270	keystroke_n	n	n/a
117.285	0.105	234570	keystroke_d	d	n/a
117.405	0.12	234810	keystroke_Key.space	Key.space	n/a
117.51	0.15	235020	keystroke_s	s	n/a
117.78	0.105	235560	keystroke_e	e	n/a
117.915	0.165	235830	keystroke_m	m	n/a
118.065	0.15	236130	keystroke_i	i	n/a
118.47	0.15	236940	keystroke_c	c	n/a
118.605	0.09	237210	keystroke_o	o	n/a
118.815	0.12	237630	keystroke_n	n	n/a
119.13	0.105	238260	keystroke_d	d	n/a
119.265	0.09	238530	keystroke_u	u	n/a
119.4	0.105	238800	keystroke_c	c	n/a
119.67	0.105	239340	keystroke_t	t	n/a
119.85	0.135	239700	keystroke_o	o	n/a
120.015	0.12	240030	keystroke_r	r	n/a
120.45	0.149	240900	keystroke_Key.space	Key.space	n/a
120.96	0.12	241920	keystroke_m	m	n/a
121.11	0.135	242220	keystroke_a	a	n/a
121.155	0.135	242310	keystroke_r	r	n/a
121.275	0.105	242550	keystroke_k	k	n/a
121.395	0.105	242790	keystroke_e	e	n/a
121.455	0.12	242910	keystroke_t	t	n/a
121.59	0.15	243180	keystroke_i	i	n/a
121.68	0.135	243360	keystroke_n	n	n/a
121.755	0.12	243510	keystroke_g	g	n/a
121.964	0.075	243928	keystroke_Key.enter	Key.enter	n/a
122.0465	14.0495	244093	prompt	n/a	stunning cheese miniature uploaded\n
122.805	0.09	245610	keystroke_s	s	n/a
122.85	0.135	245700	keystroke_t	t	n/a
122.97	0.075	245940	keystroke_u	u	n/a
123.21	0.06	246420	keystroke_n	n	n/a
123.36	0.09	246720	keystroke_n	n	n/a
123.435	0.18	246870	keystroke_i	i	n/a
123.585	0.12	247170	keystroke_n	n	n/a
123.645	0.09	247290	keystroke_g	g	n/a
123.8995	0.12	247799	keystroke_Key.space	Key.space	n/a
124.0945	0.15	248189	keystroke_c	c	n/a
124.2295	0.105	248459	keystroke_h	h	n/a
124.3945	0.105	248789	keystroke_e	e	n/a
124.6795	0.105	249359	keystroke_s	s	n/a
125.1145	0.075	250229	keystroke_Key.backspace	Key.backspace	n/a
125.2495	0.15	250499	keystroke_e	e	n/a
125.3845	0.195	250769	keystroke_s	s	n/a
125.8195	0.1355	251639	keystroke_e	e	n/a
126.5245	0.135	253049	keystroke_Key.space	Key.space	n/a
127.0495	0.165	254099	keystroke_m	m	n/a
127.2295	0.1805	254459	keystroke_i	i	n/a
127.3655	0.1495	254731	keystroke_n	n	n/a
127.725	0.1495	255450	keystroke_a	a	n/a
127.8595	0.106	255719	keystroke_t	t	n/a
128.0245	0.09	256049	keystroke_u	u	n/a
128.145	0.09	256290	keystroke_r	r	n/a
128.205	0.15	256410	keystroke_e	e	n/a
128.385	0.135	256770	keystroke_Key.space	Key.space	n/a
128.79	0.12	257580	keystroke_u	u	n/a
128.88	0.135	257760	keystroke_p	p	n/a
129.225	0.12	258450	keystroke_l	l	n/a
129.45	0.105	258900	keystroke_a	a	n/a
129.48	0.105	258960	keystroke_o	o	n/a
129.9145	0.06	259829	keystroke_Key.backspace	Key.backspace	n/a
130.0345	0.075	260069	keystroke_Key.backspace	Key.backspace	n/a
130.1995	0.075	260399	keystroke_Key.backspace	Key.backspace	n/a
130.3795	0.075	260759	keystroke_Key.backspace	Key.backspace	n/a
130.5595	0.075	261119	keystroke_Key.backspace	Key.backspace	n/a
130.7245	0.075	261449	keystroke_Key.backspace	Key.backspace	n/a
130.9195	0.075	261839	keystroke_Key.backspace	Key.backspace	n/a
131.0995	0.075	262199	keystroke_Key.backspace	Key.backspace	n/a
131.2795	0.105	262559	keystroke_Key.backspace	Key.backspace	n/a
131.4745	0.105	262949	keystroke_Key.backspace	Key.backspace	n/a
131.9545	0.045	263909	keystroke_Key.backspace	Key.backspace	n/a
132.5105	0.134	265021	keystroke_i	i	n/a
132.6595	0.12	265319	keystroke_n	n	n/a
133.0045	0.075	266009	keystroke_Key.backspace	Key.backspace	n/a
133.1105	0.164	266221	keystroke_a	a	n/a
133.3045	0.09	266609	keystroke_t	t	n/a
133.3495	0.075	266699	keystroke_u	u	n/a
133.5595	0.09	267119	keystroke_r	r	n/a
133.6195	0.15	267239	keystroke_e	e	n/a
133.8145	0.1345	267629	keystroke_Key.space	Key.space	n/a
134.1	0.1345	268200	keystroke_u	u	n/a
134.1895	0.135	268379	keystroke_p	p	n/a
134.4295	0.106	268859	keystroke_l	l	n/a
134.6395	0.12	269279	keystroke_o	o	n/a
134.8955	0.12	269791	keystroke_a	a	n/a
135.4045	0.106	270809	keystroke_d	d	n/a
135.6595	0.075	271319	keystroke_e	e	n/a
135.8705	0.12	271741	keystroke_d	d	n/a
136.0045	0.09	272009	keystroke_Key.enter	Key.enter	n/a
136.102	10.524	272204	prompt	n/a	phases reduces assessments temperatures\n
136.86	0.12	273720	keystroke_p	p	n/a
137.13	0.105	274260	keystroke_h	h	n/a
137.295	0.1045	274590	keystroke_a	a	n/a
137.5945	0.105	275189	keystroke_s	s	n/a
138.0895	0.1205	276179	keystroke_e	e	n/a
138.42	0.135	276840	keystroke_s	s	n/a
138.749	0.136	277498	keystroke_Key.space	Key.space	n/a
139.11	0.075	278220	keystroke_r	r	n/a
139.17	0.165	278340	keystroke_e	e	n/a
139.77	0.105	279540	keystroke_d	d	n/a
139.95	0.09	279900	keystroke_u	u	n/a
140.085	0.1345	280170	keystroke_c	c	n/a
140.4745	0.105	280949	keystroke_e	e	n/a
140.7905	0.15	281581	keystroke_s	s	n/a
141.0595	0.12	282119	keystroke_Key.space	Key.space	n/a
141.4045	0.09	282809	keystroke_a	a	n/a
141.6295	0.091	283259	keystroke_s	s	n/a
141.8245	0.12	283649	keystroke_s	s	n/a
141.8995	0.135	283799	keystroke_e	e	n/a
142.965	0.075	285930	keystroke_s	s	n/a
143.175	0.06	286350	keystroke_s	s	n/a
143.355	0.105	286710	keystroke_m	m	n/a
143.505	0.09	287010	keystroke_e	e	n/a
143.655	0.105	287310	keystroke_n	n	n/a
143.79	0.09	287580	keystroke_t	t	n/a
143.94	0.135	287880	keystroke_s	s	n/a
144.105	0.134	288210	keystroke_Key.space	Key.space	n/a
144.36	0.119	288720	keystroke_t	t	n/a
144.465	0.15	288930	keystroke_e	e	n/a
144.585	0.164	289170	keystroke_m	m	n/a
144.72	0.104	289440	keystroke_p	p	n/a
145.094	0.151	290188	keystroke_e	e	n/a
145.26	0.12	290520	keystroke_r	r	n/a
145.425	0.135	290850	keystroke_a	a	n/a
145.53	0.135	291060	keystroke_t	t	n/a
145.739	0.121	291478	keystroke_u	u	n/a
145.89	0.105	291780	keystroke_r	r	n/a
145.965	0.165	291930	keystroke_e	e	n/a
146.099	0.1655	292198	keystroke_s	s	n/a
146.5195	0.105	293039	keystroke_Key.enter	Key.enter	n/a
146.6315	8.8895	293263	prompt	n/a	nails north holdem heritage\n
147.615	0.045	295230	keystroke_n	n	n/a
147.675	0.03	295350	keystroke_a	a	n/a
147.69	0.12	295380	keystroke_i	i	n/a
147.765	0.195	295530	keystroke_l	l	n/a
147.885	0.15	295770	keystroke_s	s	n/a
148.2295	0.1495	296459	keystroke_Key.space	Key.space	n/a
148.589	0.061	297178	keystroke_o	o	n/a
148.769	0.121	297538	keystroke_n	n	n/a
149.054	0.075	298108	keystroke_Key.backspace	Key.backspace	n/a
149.2045	0.0745	298409	keystroke_Key.backspace	Key.backspace	n/a
149.4155	0.135	298831	keystroke_n	n	n/a
149.4905	0.1635	298981	keystroke_o	o	n/a
149.804	0.076	299608	keystroke_r	r	n/a
150.015	0.089	300030	keystroke_t	t	n/a
150.135	0.1345	300270	keystroke_h	h	n/a
150.3145	0.15	300629	keystroke_Key.space	Key.space	n/a
150.6295	0.105	301259	keystroke_h	h	n/a
150.6895	0.106	301379	keystroke_o	o	n/a
150.8995	0.12	301799	keystroke_l	l	n/a
151.0045	0.12	302009	keystroke_d	d	n/a
151.5305	0.09	303061	keystroke_e	e	n/a
151.7995	0.151	303599	keystroke_m	m	n/a
151.9345	0.12	303869	keystroke_Key.space	Key.space	n/a
152.445	0.075	304890	keystroke_h	h	n/a
152.55	0.15	305100	keystroke_e	e	n/a
153.375	0.135	306750	keystroke_r	r	n/a
153.525	0.105	307050	keystroke_i	i	n/a
154.6045	0.12	309209	keystroke_t	t	n/a
154.7095	0.21	309419	keystroke_a	a	n/a
154.9205	0.149	309841	keystroke_g	g	n/a
155.0545	0.15	310109	keystroke_e	e	n/a
155.4145	0.105	310829	keystroke_Key.enter	Key.enter	n/a
155.5285	6.233	311057	prompt	n/a	ultra tabs medication paying\n
156.2095	0.1055	312419	keystroke_u	u	n/a
156.33	0.195	312660	keystroke_l	l	n/a
156.48	0.09	312960	keystroke_t	t	n/a
156.69	0.12	313380	keystroke_r	r	n/a
157.035	0.12	314070	keystroke_Key.space	Key.space	n/a
157.365	0.1045	314730	keystroke_Key.backspace	Key.backspace	n/a
157.4845	0.18	314969	keystroke_a	a	n/a
157.6495	0.165	315299	keystroke_Key.space	Key.space	n/a
158.1445	0.1205	316289	keystroke_t	t	n/a
158.2495	0.1505	316499	keystroke_a	a	n/a
158.415	0.135	316830	keystroke_b	b	n/a
158.64	0.135	317280	keystroke_s	s	n/a
158.8495	0.0905	317699	keystroke_Key.space	Key.space	n/a
159.075	0.12	318150	keystroke_m	m	n/a
159.165	0.075	318330	keystroke_e	e	n/a
159.39	0.0895	318780	keystroke_d	d	n/a
159.5245	0.0905	319049	keystroke_i	i	n/a
159.7645	0.12	319529	keystroke_c	c	n/a
159.8995	0.135	319799	keystroke_a	a	n/a
160.1545	0.09	320309	keystroke_t	t	n/a
160.3195	0.105	320639	keystroke_i	i	n/a
160.3945	0.21	320789	keystroke_o	o	n/a
160.4995	0.15	320999	keystroke_n	n	n/a
160.5895	0.15	321179	keystroke_Key.space	Key.space	n/a
160.7845	0.12	321569	keystroke_p	p	n/a
160.9345	0.165	321869	keystroke_a	a	n/a
161.0545	0.09	322109	keystroke_y	y	n/a
161.2945	0.135	322589	keystroke_i	i	n/a
161.3695	0.135	322739	keystroke_n	n	n/a
161.5195	0.105	323039	keystroke_g	g	n/a
161.6845	0.075	323369	keystroke_Key.enter	Key.enter	n/a
161.769	8.0925	323538	prompt	n/a	dayton expired programming motorcycles\n
162.63	0.09	325260	keystroke_d	d	n/a
162.81	0.135	325620	keystroke_a	a	n/a
163.005	0.12	326010	keystroke_y	y	n/a
163.41	0.105	326820	keystroke_t	t	n/a
163.53	0.18	327060	keystroke_o	o	n/a
163.635	0.21	327270	keystroke_n	n	n/a
163.86	0.165	327720	keystroke_Key.space	Key.space	n/a
164.07	0.09	328140	keystroke_e	e	n/a
164.309	0.106	328618	keystroke_x	x	n/a
164.415	0.105	328830	keystroke_p	p	n/a
164.625	0.135	329250	keystroke_i	i	n/a
164.819	0.121	329638	keystroke_r	r	n/a
164.954	0.12	329908	keystroke_e	e	n/a
165.21	0.12	330420	keystroke_d	d	n/a
165.464	0.135	330928	keystroke_Key.space	Key.space	n/a
165.765	0.104	331530	keystroke_p	p	n/a
165.915	0.09	331830	keystroke_r	r	n/a
166.019	0.091	332038	keystroke_o	o	n/a
166.185	0.06	332370	keystroke_g	g	n/a
166.3495	0.12	332699	keystroke_r	r	n/a
166.4405	0.164	332881	keystroke_a	a	n/a
166.4995	0.135	332999	keystroke_m	m	n/a
166.7845	0.106	333569	keystroke_m	m	n/a
166.9945	0.18	333989	keystroke_i	i	n/a
167.1155	0.164	334231	keystroke_n	n	n/a
167.2195	0.12	334439	keystroke_g	g	n/a
167.3695	0.1355	334739	keystroke_Key.space	Key.space	n/a
167.64	0.12	335280	keystroke_m	m	n/a
167.73	0.135	335460	keystroke_o	o	n/a
167.88	0.12	335760	keystroke_t	t	n/a
168.255	0.135	336510	keystroke_o	o	n/a
168.554	0.136	337108	keystroke_c	c	n/a
168.72	0.12	337440	keystroke_y	y	n/a
169.065	0.12	338130	keystroke_c	c	n/a
169.14	0.179	338280	keystroke_l	l	n/a
169.349	0.121	338698	keystroke_e	e	n/a
169.455	0.165	338910	keystroke_s	s	n/a
169.755	0.105	339510	keystroke_Key.enter	Key.enter	n/a
169.866	16.841	339732	prompt	n/a	preferred ain't accommodate neutral\n
170.5355	0.104	341071	keystroke_p	p	n/a
170.6545	0.12	341309	keystroke_r	r	n/a
170.7295	0.12	341459	keystroke_e	e	n/a
170.9545	0.09	341909	keystroke_f	f	n/a
171.4945	0.105	342989	keystroke_e	e	n/a
171.7195	0.12	343439	keystroke_r	r	n/a
171.9445	0.15	343889	keystroke_r	r	n/a
172.0955	0.104	344191	keystroke_e	e	n/a
172.35	0.1195	344700	keystroke_d	d	n/a
172.5895	0.105	345179	keystroke_Key.space	Key.space	n/a
172.8595	0.12	345719	keystroke_a	a	n/a
172.9945	0.12	345989	keystroke_i	i	n/a
173.1895	0.15	346379	keystroke_d	d	n/a
173.3845	0.09	346769	keystroke_n	n	n/a
173.6995	0.075	347399	keystroke_Key.backspace	Key.backspace	n/a
173.8495	0.045	347699	keystroke_Key.backspace	Key.backspace	n/a
174.0745	0.105	348149	keystroke_n	n	n/a
174.1495	0.1655	348299	keystroke_'	'	n/a
174.2845	0.1205	348569	keystroke_t	t	n/a
174.644	0.12	349288	keystroke_Key.space	Key.space	n/a
174.93	0.09	349860	keystroke_a	a	n/a
175.155	0.105	350310	keystroke_c	c	n/a
175.365	0.12	350730	keystroke_c	c	n/a
175.44	0.15	350880	keystroke_o	o	n/a
175.53	0.15	351060	keystroke_m	m	n/a
175.935	0.135	351870	keystroke_o	o	n/a
176.235	0.1345	352470	keystroke_d	d	n/a
176.6255	0.149	353251	keystroke_a	a	n/a
176.7445	0.166	353489	keystroke_t	t	n/a
176.8945	0.165	353789	keystroke_e	e	n/a
177.1045	0.12	354209	keystroke_Key.space	Key.space	n/a
177.3745	0.1205	354749	keystroke_n	n	n/a
177.705	0.12	355410	keystroke_e	e	n/a
177.81	0.15	355620	keystroke_w	w	n/a
178.9345	0.09	357869	keystroke_Key.backspace	Key.backspace	n/a
179.1445	0.09	358289	keystroke_Key.backspace	Key.backspace	n/a
179.3545	0.075	358709	keystroke_Key.backspace	Key.backspace	n/a
179.5495	0.075	359099	keystroke_Key.backspace	Key.backspace	n/a
179.7895	0.121	359579	keystroke_Key.backspace	Key.backspace	n/a
180.9445	0.135	361889	keystroke_m	m	n/a
181.0945	0.195	362189	keystroke_o	o	n/a
181.2595	0.135	362519	keystroke_n	n	n/a
181.7845	0.09	363569	keystroke_Key.backspace	Key.backspace	n/a
181.9345	0.09	363869	keystroke_d	d	n/a
181.9955	0.149	363991	keystroke_a	a	n/a
182.1895	0.135	364379	keystroke_t	t	n/a
182.3095	0.18	364619	keystroke_e	e	n/a
182.5045	0.09	365009	keystroke_Key.space	Key.space	n/a
182.7145	0.12	365429	keystroke_m	m	n/a
182.9395	0.12	365879	keystroke_e	e	n/a
183.1945	0.09	366389	keystroke_u	u	n/a
183.5695	0.06	367139	keystroke_Key.backspace	Key.backspace	n/a
183.7045	0.1355	367409	keystroke_Key.backspace	Key.backspace	n/a
184.245	0.045	368490	keystroke_Key.backspace	Key.backspace	n/a
184.4395	0.105	368879	keystroke_n	n	n/a
184.6945	0.105	369389	keystroke_u	u	n/a
184.8745	0.15	369749	keystroke_e	e	n/a
185.1445	0.06	370289	keystroke_Key.backspace	Key.backspace	n/a
185.2795	0.09	370559	keystroke_Key.backspace	Key.backspace	n/a
185.3545	0.1355	370709	keystroke_e	e	n/a
185.475	0.105	370950	keystroke_u	u	n/a
185.97	0.09	371940	keystroke_t	t	n/a
186.165	0.12	372330	keystroke_r	r	n/a
186.255	0.1945	372510	keystroke_a	a	n/a
186.3745	0.105	372749	keystroke_l	l	n/a
186.6445	0.06	373289	keystroke_Key.enter	Key.enter	n/a
186.713	9.6535	373426	prompt	n/a	klein prescribed quizzes provincial\n
187.3795	0.1345	374759	keystroke_k	k	n/a
187.62	0.164	375240	keystroke_l	l	n/a
187.8895	0.195	375779	keystroke_e	e	n/a
188.1145	0.165	376229	keystroke_i	i	n/a
188.2645	0.18	376529	keystroke_n	n	n/a
188.5345	0.15	377069	keystroke_Key.space	Key.space	n/a
188.8345	0.105	377669	keystroke_p	p	n/a
188.9695	0.12	377939	keystroke_r	r	n/a
189.0595	0.15	378119	keystroke_e	e	n/a
189.5395	0.105	379079	keystroke_s	s	n/a
189.7945	0.12	379589	keystroke_c	c	n/a
190.0345	0.09	380069	keystroke_r	r	n/a
190.1695	0.135	380339	keystroke_i	i	n/a
190.3345	0.135	380669	keystroke_b	b	n/a
190.4845	0.12	380969	keystroke_e	e	n/a
190.7395	0.105	381479	keystroke_d	d	n/a
190.9045	0.12	381809	keystroke_Key.space	Key.space	n/a
191.3245	0.15	382649	keystroke_q	q	n/a
191.4595	0.12	382919	keystroke_u	u	n/a
191.5195	0.195	383039	keystroke_i	i	n/a
191.7895	0.09	383579	keystroke_e	e	n/a
192.2695	0.075	384539	keystroke_Key.backspace	Key.backspace	n/a
192.3745	0.0905	384749	keystroke_z	z	n/a
192.57	0.105	385140	keystroke_z	z	n/a
192.795	0.09	385590	keystroke_e	e	n/a
193.005	0.15	386010	keystroke_s	s	n/a
193.23	0.12	386460	keystroke_Key.space	Key.space	n/a
193.44	0.12	386880	keystroke_p	p	n/a
193.59	0.105	387180	keystroke_r	r	n/a
193.74	0.135	387480	keystroke_o	o	n/a
194.4145	0.09	388829	keystroke_v	v	n/a
194.5345	0.075	389069	keystroke_i	i	n/a
195.1195	0.15	390239	keystroke_n	n	n/a
195.6145	0.09	391229	keystroke_c	c	n/a
195.7495	0.06	391499	keystroke_i	i	n/a
195.8845	0.135	391769	keystroke_a	a	n/a
196.0045	0.135	392009	keystroke_l	l	n/a
196.2895	0.075	392579	keystroke_Key.enter	Key.enter	n/a
196.371	7.6	392742	prompt	n/a	reports couldn't beginner convenient\n
197.0845	0.12	394169	keystroke_r	r	n/a
197.1745	0.15	394349	keystroke_e	e	n/a
197.2645	0.135	394529	keystroke_p	p	n/a
197.3695	0.15	394739	keystroke_o	o	n/a
197.4745	0.105	394949	keystroke_r	r	n/a
197.6855	0.119	395371	keystroke_t	t	n/a
197.8345	0.135	395669	keystroke_s	s	n/a
198.0445	0.135	396089	keystroke_Key.space	Key.space	n/a
198.45	0.15	396900	keystroke_c	c	n/a
198.495	0.135	396990	keystroke_o	o	n/a
198.57	0.105	397140	keystroke_u	u	n/a
198.795	0.135	397590	keystroke_l	l	n/a
198.945	0.15	397890	keystroke_d	d	n/a
199.08	0.135	398160	keystroke_n	n	n/a
199.2	0.135	398400	keystroke_'	'	n/a
199.29	0.12	398580	keystroke_t	t	n/a
199.44	0.15	398880	keystroke_Key.space	Key.space	n/a
200.07	0.075	400140	keystroke_b	b	n/a
200.13	0.165	400260	keystroke_e	e	n/a
200.549	0.09	401098	keystroke_g	g	n/a
200.699	0.135	401398	keystroke_i	i	n/a
200.774	0.105	401548	keystroke_n	n	n/a
200.954	0.106	401908	keystroke_n	n	n/a
201.149	0.165	402298	keystroke_e	e	n/a
201.299	0.136	402598	keystroke_r	r	n/a
201.615	0.134	403230	keystroke_Key.space	Key.space	n/a
202.094	0.121	404188	keystroke_c	c	n/a
202.169	0.105	404338	keystroke_o	o	n/a
202.23	0.15	404460	keystroke_n	n	n/a
202.395	0.15	404790	keystroke_v	v	n/a
202.71	0.134	405420	keystroke_e	e	n/a
202.86	0.18	405720	keystroke_n	n	n/a
203.025	0.165	406050	keystroke_i	i	n/a
203.355	0.09	406710	keystroke_e	e	n/a
203.475	0.12	406950	keystroke_n	n	n/a
203.624	0.121	407248	keystroke_t	t	n/a
203.864	0.105	407728	keystroke_Key.enter	Key.enter	n/a
203.977	8.289	407954	prompt	n/a	tent rubber experienced carrier\n
204.87	0.12	409740	keystroke_t	t	n/a
205.02	0.135	410040	keystroke_e	e	n/a
205.185	0.135	410370	keystroke_n	n	n/a
205.335	0.15	410670	keystroke_t	t	n/a
206.055	0.09	412110	keystroke_Key.space	Key.space	n/a
206.22	0.12	412440	keystroke_r	r	n/a
206.37	0.09	412740	keystroke_u	u	n/a
206.565	0.075	413130	keystroke_b	b	n/a
206.88	0.09	413760	keystroke_g	g	n/a
207.4045	0.075	414809	keystroke_Key.backspace	Key.backspace	n/a
207.4945	0.09	414989	keystroke_b	b	n/a
207.5995	0.18	415199	keystroke_e	e	n/a
207.7345	0.15	415469	keystroke_r	r	n/a
207.9295	0.135	415859	keystroke_Key.space	Key.space	n/a
208.2295	0.06	416459	keystroke_e	e	n/a
208.4395	0.105	416879	keystroke_x	x	n/a
208.5745	0.105	417149	keystroke_p	p	n/a
208.6945	0.15	417389	keystroke_e	e	n/a
208.8145	0.15	417629	keystroke_r	r	n/a
208.9945	0.105	417989	keystroke_i	i	n/a
209.0695	0.09	418139	keystroke_e	e	n/a
209.2345	0.135	418469	keystroke_n	n	n/a
209.3545	0.12	418709	keystroke_c	c	n/a
209.594	0.075	419188	keystroke_e	e	n/a
209.819	0.075	419638	keystroke_d	d	n/a
209.909	0.1055	419818	keystroke_Key.space	Key.space	n/a
210.239	0.105	420478	keystroke_c	c	n/a
210.329	0.12	420658	keystroke_a	a	n/a
210.5995	0.09	421199	keystroke_r	r	n/a
211.4995	0.09	422999	keystroke_r	r	n/a
211.6795	0.09	423359	keystroke_i	i	n/a
211.7995	0.15	423599	keystroke_e	e	n/a
211.9195	0.18	423839	keystroke_r	r	n/a
212.1745	0.09	424349	keystroke_Key.enter	Key.enter	n/a
212.271	5.395	424542	prompt	n/a	sony import yesterday reads\n
212.9245	0.165	425849	keystroke_s	s	n/a
213.0745	0.09	426149	keystroke_o	o	n/a
213.1495	0.105	426299	keystroke_n	n	n/a
213.3895	0.12	426779	keystroke_y	y	n/a
213.4795	0.105	426959	keystroke_Key.space	Key.space	n/a
213.7195	0.12	427439	keystroke_i	i	n/a
213.7645	0.12	427529	keystroke_m	m	n/a
213.8545	0.15	427709	keystroke_p	p	n/a
213.9895	0.15	427979	keystroke_o	o	n/a
214.1245	0.105	428249	keystroke_r	r	n/a
214.3495	0.105	428699	keystroke_t	t	n/a
214.499	0.165	428998	keystroke_Key.space	Key.space	n/a
214.649	0.12	429298	keystroke_y	y	n/a
214.874	0.196	429748	keystroke_e	e	n/a
215.025	0.135	430050	keystroke_s	s	n/a
215.114	0.135	430228	keystroke_t	t	n/a
215.235	0.134	430470	keystroke_e	e	n/a
215.355	0.074	430710	keystroke_r	r	n/a
215.489	0.18	430978	keystroke_d	d	n/a
215.685	0.1645	431370	keystroke_a	a	n/a
215.714	0.1505	431428	keystroke_y	y	n/a
216.2245	0.1345	432449	keystroke_Key.space	Key.space	n/a
216.495	0.0895	432990	keystroke_d	d	n/a
216.8245	0.105	433649	keystroke_Key.backspace	Key.backspace	n/a
216.8695	0.09	433739	keystroke_r	r	n/a
216.9145	0.105	433829	keystroke_e	e	n/a
216.9745	0.105	433949	keystroke_a	a	n/a
217.1245	0.121	434249	keystroke_d	d	n/a
217.3495	0.1205	434699	keystroke_s	s	n/a
217.574	0.09	435148	keystroke_Key.enter	Key.enter	n/a
217.671	5.215	435342	prompt	n/a	monsters priced dome bonus\n
218.369	0.105	436738	keystroke_m	m	n/a
218.46	0.1495	436920	keystroke_o	o	n/a
218.5795	0.135	437159	keystroke_n	n	n/a
218.7445	0.12	437489	keystroke_s	s	n/a
218.9095	0.12	437819	keystroke_t	t	n/a
219.0145	0.15	438029	keystroke_e	e	n/a
219.1495	0.105	438299	keystroke_r	r	n/a
219.2695	0.12	438539	keystroke_s	s	n/a
219.4645	0.135	438929	keystroke_Key.space	Key.space	n/a
219.6145	0.105	439229	keystroke_p	p	n/a
219.7345	0.09	439469	keystroke_r	r	n/a
219.8395	0.1045	439679	keystroke_i	i	n/a
219.974	0.09	439948	keystroke_c	c	n/a
220.2	0.075	440400	keystroke_e	e	n/a
220.41	0.075	440820	keystroke_d	d	n/a
220.514	0.12	441028	keystroke_Key.space	Key.space	n/a
220.874	0.105	441748	keystroke_d	d	n/a
220.964	0.135	441928	keystroke_o	o	n/a
221.069	0.15	442138	keystroke_m	m	n/a
221.249	0.105	442498	keystroke_e	e	n/a
221.549	0.12	443098	keystroke_Key.space	Key.space	n/a
221.9395	0.105	443879	keystroke_b	b	n/a
222.0595	0.12	444119	keystroke_o	o	n/a
222.1495	0.12	444299	keystroke_n	n	n/a
222.389	0.091	444778	keystroke_u	u	n/a
222.554	0.12	445108	keystroke_s	s	n/a
222.794	0.09	445588	keystroke_Key.enter	Key.enter	n/a
222.891	16.5405	445782	prompt	n/a	accounts jerusalem worry declaration\n
224.34	0.09	448680	keystroke_a	a	n/a
224.55	0.12	449100	keystroke_c	c	n/a
224.775	0.089	449550	keystroke_c	c	n/a
224.85	0.12	449700	keystroke_o	o	n/a
224.894	0.106	449788	keystroke_u	u	n/a
225.135	0.105	450270	keystroke_n	n	n/a
225.285	0.105	450570	keystroke_t	t	n/a
225.39	0.12	450780	keystroke_s	s	n/a
225.554	0.105	451108	keystroke_Key.space	Key.space	n/a
225.81	0.105	451620	keystroke_j	j	n/a
225.93	0.12	451860	keystroke_e	e	n/a
226.11	0.12	452220	keystroke_r	r	n/a
226.35	0.105	452700	keystroke_u	u	n/a
226.889	0.135	453778	keystroke_s	s	n/a
226.98	0.195	453960	keystroke_a	a	n/a
227.624	0.136	455248	keystroke_l	l	n/a
227.969	0.135	455938	keystroke_e	e	n/a
228.135	0.179	456270	keystroke_m	m	n/a
228.329	0.18	456658	keystroke_Key.space	Key.space	n/a
230.024	0.075	460048	keystroke_Key.backspace	Key.backspace	n/a
230.219	0.0755	460438	keystroke_Key.backspace	Key.backspace	n/a
230.399	0.075	460798	keystroke_Key.backspace	Key.backspace	n/a
230.5945	0.045	461189	keystroke_Key.backspace	Key.backspace	n/a
231.5095	0.12	463019	keystroke_l	l	n/a
231.6445	0.135	463289	keystroke_e	e	n/a
231.7945	0.15	463589	keystroke_m	m	n/a
231.9595	0.165	463919	keystroke_Key.space	Key.space	n/a
235.3525	0.057	470705	keystroke_w	w	n/a
235.3795	0.105	470759	keystroke_o	o	n/a
235.5145	0.075	471029	keystroke_r	r	n/a
235.6945	0.105	471389	keystroke_r	r	n/a
235.8145	0.105	471629	keystroke_y	y	n/a
235.8595	0.165	471719	keystroke_Key.space	Key.space	n/a
236.0395	0.09	472079	keystroke_d	d	n/a
236.2195	0.09	472439	keystroke_e	e	n/a
236.7	0.105	473400	keystroke_c	c	n/a
236.849	0.106	473698	keystroke_l	l	n/a
236.984	0.135	473968	keystroke_a	a	n/a
237.15	0.149	474300	keystroke_r	r	n/a
237.21	0.15	474420	keystroke_i	i	n/a
238.4395	0.075	476879	keystroke_Key.backspace	Key.backspace	n/a
238.6645	0.105	477329	keystroke_a	a	n/a
238.7845	0.15	477569	keystroke_t	t	n/a
238.9045	0.09	477809	keystroke_i	i	n/a
238.9645	0.1355	477929	keystroke_o	o	n/a
239.0395	0.195	478079	keystroke_n	n	n/a
239.3095	0.12	478619	keystroke_Key.enter	Key.enter	n/a
239.437	8.799	478874	prompt	n/a	prostate gravity trees paste\n
240.1945	0.12	480389	keystroke_p	p	n/a
240.4645	0.09	480929	keystroke_r	r	n/a
240.585	0.12	481170	keystroke_o	o	n/a
240.706	0.148	481412	keystroke_s	s	n/a
240.885	0.134	481770	keystroke_t	t	n/a
241.0945	0.1505	482189	keystroke_a	a	n/a
241.275	0.15	482550	keystroke_t	t	n/a
241.589	0.106	483178	keystroke_e	e	n/a
241.844	0.15	483688	keystroke_Key.space	Key.space	n/a
242.204	0.06	484408	keystroke_g	g	n/a
242.3845	0.105	484769	keystroke_r	r	n/a
242.4445	0.15	484889	keystroke_a	a	n/a
242.805	0.089	485610	keystroke_v	v	n/a
242.924	0.121	485848	keystroke_i	i	n/a
243.059	0.09	486118	keystroke_t	t	n/a
243.255	0.134	486510	keystroke_y	y	n/a
243.329	0.15	486658	keystroke_Key.space	Key.space	n/a
243.659	0.076	487318	keystroke_t	t	n/a
243.825	0.1045	487650	keystroke_r	r	n/a
243.8995	0.105	487799	keystroke_e	e	n/a
244.1095	0.075	488219	keystroke_s	s	n/a
244.2895	0.105	488579	keystroke_s	s	n/a
244.4995	0.15	488999	keystroke_Key.space	Key.space	n/a
245.6835	0.076	491367	keystroke_Key.backspace	Key.backspace	n/a
245.849	0.075	491698	keystroke_Key.backspace	Key.backspace	n/a
245.999	0.12	491998	keystroke_Key.backspace	Key.backspace	n/a
246.135	0.104	492270	keystroke_e	e	n/a
246.209	0.151	492418	keystroke_s	s	n/a
246.869	0.12	493738	keystroke_Key.space	Key.space	n/a
247.154	0.12	494308	keystroke_p	p	n/a
247.304	0.211	494608	keystroke_a	a	n/a
247.5	0.18	495000	keystroke_s	s	n/a
247.665	0.179	495330	keystroke_t	t	n/a
247.83	0.15	495660	keystroke_e	e	n/a
248.159	0.075	496318	keystroke_Key.enter	Key.enter	n/a
248.2405	10.525	496481	prompt	n/a	separately murray satisfied delivering\n
249.0445	0.12	498089	keystroke_s	s	n/a
249.1795	0.135	498359	keystroke_e	e	n/a
249.3445	0.09	498689	keystroke_p	p	n/a
249.4645	0.12	498929	keystroke_e	e	n/a
249.884	0.075	499768	keystroke_Key.backspace	Key.backspace	n/a
250.02	0.164	500040	keystroke_a	a	n/a
250.169	0.136	500338	keystroke_r	r	n/a
250.349	0.151	500698	keystroke_a	a	n/a
250.6645	0.165	501329	keystroke_t	t	n/a
250.8145	0.15	501629	keystroke_e	e	n/a
250.9795	0.21	501959	keystroke_l	l	n/a
251.0845	0.195	502169	keystroke_y	y	n/a
251.2045	0.135	502409	keystroke_Key.space	Key.space	n/a
251.624	0.105	503248	keystroke_m	m	n/a
251.849	0.091	503698	keystroke_u	u	n/a
251.9845	0.075	503969	keystroke_r	r	n/a
252.1795	0.15	504359	keystroke_r	r	n/a
252.3895	0.1645	504779	keystroke_a	a	n/a
252.599	0.135	505198	keystroke_y	y	n/a
252.689	0.15	505378	keystroke_Key.space	Key.space	n/a
253.094	0.15	506188	keystroke_s	s	n/a
253.424	0.12	506848	keystroke_a	a	n/a
255.014	0.12	510028	keystroke_t	t	n/a
255.179	0.135	510358	keystroke_i	i	n/a
255.464	0.135	510928	keystroke_s	s	n/a
255.989	0.105	511978	keystroke_f	f	n/a
256.169	0.1355	512338	keystroke_i	i	n/a
256.3195	0.09	512639	keystroke_e	e	n/a
256.5595	0.1045	513119	keystroke_d	d	n/a
256.769	0.135	513538	keystroke_Key.space	Key.space	n/a
257.129	0.075	514258	keystroke_d	d	n/a
257.324	0.075	514648	keystroke_e	e	n/a
257.5045	0.15	515009	keystroke_l	l	n/a
257.5945	0.1495	515189	keystroke_i	i	n/a
257.6835	0.106	515367	keystroke_v	v	n/a
257.774	0.1645	515548	keystroke_e	e	n/a
257.9095	0.12	515819	keystroke_r	r	n/a
258.2395	0.1805	516479	keystroke_i	i	n/a
258.3585	0.165	516717	keystroke_n	n	n/a
258.4635	0.12	516927	keystroke_g	g	n/a
258.674	0.09	517348	keystroke_Key.enter	Key.enter	n/a
258.7725	5.604	517545	prompt	n/a	clock admin find charles\n
259.514	0.045	519028	keystroke_d	d	n/a
259.904	0.075	519808	keystroke_Key.backspace	Key.backspace	n/a
259.994	0.135	519988	keystroke_c	c	n/a
260.13	0.089	520260	keystroke_l	l	n/a
260.324	0.09	520648	keystroke_o	o	n/a
260.474	0.135	520948	keystroke_c	c	n/a
260.624	0.135	521248	keystroke_k	k	n/a
260.714	0.135	521428	keystroke_Key.space	Key.space	n/a
260.999	0.075	521998	keystroke_s	s	n/a
261.329	0.09	522658	keystroke_Key.backspace	Key.backspace	n/a
261.4205	0.1185	522841	keystroke_a	a	n/a
261.5095	0.1345	523019	keystroke_d	d	n/a
261.599	0.135	523198	keystroke_m	m	n/a
261.689	0.195	523378	keystroke_i	i	n/a
261.899	0.165	523798	keystroke_n	n	n/a
262.049	0.165	524098	keystroke_Key.space	Key.space	n/a
262.4695	0.12	524939	keystroke_f	f	n/a
262.6045	0.1195	525209	keystroke_i	i	n/a
262.664	0.135	525328	keystroke_n	n	n/a
262.784	0.09	525568	keystroke_d	d	n/a
262.859	0.12	525718	keystroke_Key.space	Key.space	n/a
263.024	0.15	526048	keystroke_c	c	n/a
263.159	0.09	526318	keystroke_h	h	n/a
263.369	0.09	526738	keystroke_a	a	n/a
263.414	0.15	526828	keystroke_r	r	n/a
263.594	0.15	527188	keystroke_l	l	n/a
263.759	0.15	527518	keystroke_e	e	n/a
263.894	0.135	527788	keystroke_s	s	n/a
264.269	0.105	528538	keystroke_Key.enter	Key.enter	n/a
264.381	6.97	528762	prompt	n/a	celebrate incurred homeless moves\n
265.455	0.104	530910	keystroke_c	c	n/a
265.709	0.09	531418	keystroke_e	e	n/a
265.814	0.151	531628	keystroke_l	l	n/a
265.934	0.075	531868	keystroke_e	e	n/a
266.175	0.074	532350	keystroke_b	b	n/a
266.399	0.09	532798	keystroke_r	r	n/a
266.49	0.119	532980	keystroke_a	a	n/a
266.624	0.105	533248	keystroke_t	t	n/a
266.744	0.12	533488	keystroke_e	e	n/a
266.969	0.09	533938	keystroke_Key.space	Key.space	n/a
267.194	0.12	534388	keystroke_i	i	n/a
267.269	0.1345	534538	keystroke_n	n	n/a
267.4195	0.104	534839	keystroke_c	c	n/a
267.8085	0.091	535617	keystroke_u	u	n/a
268.0185	0.061	536037	keystroke_r	r	n/a
268.3645	0.104	536729	keystroke_r	r	n/a
268.5895	0.074	537179	keystroke_e	e	n/a
268.814	0.105	537628	keystroke_d	d	n/a
269.054	0.135	538108	keystroke_Key.space	Key.space	n/a
269.354	0.12	538708	keystroke_h	h	n/a
269.459	0.165	538918	keystroke_o	o	n/a
269.594	0.12	539188	keystroke_m	m	n/a
269.699	0.09	539398	keystroke_e	e	n/a
269.834	0.135	539668	keystroke_l	l	n/a
269.984	0.075	539968	keystroke_e	e	n/a
270.194	0.09	540388	keystroke_s	s	n/a
270.389	0.105	540778	keystroke_s	s	n/a
270.479	0.135	540958	keystroke_Key.space	Key.space	n/a
270.644	0.135	541288	keystroke_m	m	n/a
270.734	0.15	541468	keystroke_o	o	n/a
270.854	0.1205	541708	keystroke_v	v	n/a
270.959	0.1355	541918	keystroke_e	e	n/a
271.0795	0.1345	542159	keystroke_s	s	n/a
271.2445	0.1045	542489	keystroke_Key.enter	Key.enter	n/a
271.3655	4.4105	542731	prompt	n/a	passed saved snow solar\n
272.054	0.09	544108	keystroke_p	p	n/a
272.129	0.12	544258	keystroke_a	a	n/a
272.264	0.1205	544528	keystroke_s	s	n/a
272.459	0.15	544918	keystroke_s	s	n/a
272.594	0.09	545188	keystroke_e	e	n/a
272.8345	0.06	545669	keystroke_d	d	n/a
272.9095	0.12	545819	keystroke_Key.space	Key.space	n/a
273.0595	0.135	546119	keystroke_s	s	n/a
273.1795	0.165	546359	keystroke_a	a	n/a
273.3745	0.09	546749	keystroke_v	v	n/a
273.4195	0.135	546839	keystroke_e	e	n/a
273.7045	0.105	547409	keystroke_d	d	n/a
273.8985	0.106	547797	keystroke_Key.space	Key.space	n/a
274.0945	0.105	548189	keystroke_s	s	n/a
274.2145	0.15	548429	keystroke_n	n	n/a
274.3185	0.12	548637	keystroke_o	o	n/a
274.3795	0.105	548759	keystroke_w	w	n/a
274.5735	0.12	549147	keystroke_Key.space	Key.space	n/a
274.7095	0.1195	549419	keystroke_s	s	n/a
274.889	0.105	549778	keystroke_o	o	n/a
275.099	0.09	550198	keystroke_l	l	n/a
275.384	0.121	550768	keystroke_a	a	n/a
275.489	0.15	550978	keystroke_r	r	n/a
275.684	0.09	551368	keystroke_Key.enter	Key.enter	n/a
275.7875	9.2895	551575	prompt	n/a	road budapest it'll prospective\n
276.524	0.165	553048	keystroke_r	r	n/a
276.704	0.1205	553408	keystroke_o	o	n/a
276.8095	0.089	553619	keystroke_a	a	n/a
276.9735	0.12	553947	keystroke_d	d	n/a
277.1385	0.12	554277	keystroke_Key.space	Key.space	n/a
277.4095	0.105	554819	keystroke_b	b	n/a
277.6045	0.12	555209	keystroke_u	u	n/a
277.7395	0.12	555479	keystroke_d	d	n/a
278.3995	0.12	556799	keystroke_p	p	n/a
278.789	0.1055	557578	keystroke_Key.backspace	Key.backspace	n/a
278.849	0.1355	557698	keystroke_a	a	n/a
279.059	0.12	558118	keystroke_p	p	n/a
279.554	0.105	559108	keystroke_a	a	n/a
279.989	0.091	559978	keystroke_Key.backspace	Key.backspace	n/a
280.094	0.105	560188	keystroke_e	e	n/a
280.2	0.149	560400	keystroke_s	s	n/a
280.334	0.12	560668	keystroke_t	t	n/a
280.514	0.135	561028	keystroke_Key.space	Key.space	n/a
280.964	0.135	561928	keystroke_i	i	n/a
281.204	0.09	562408	keystroke_t	t	n/a
281.429	0.135	562858	keystroke_'	'	n/a
281.774	0.09	563548	keystroke_l	l	n/a
281.9695	0.135	563939	keystroke_l	l	n/a
282.0745	0.12	564149	keystroke_Key.space	Key.space	n/a
282.464	0.09	564928	keystroke_p	p	n/a
282.614	0.09	565228	keystroke_r	r	n/a
282.674	0.1205	565348	keystroke_o	o	n/a
283.1245	0.12	566249	keystroke_s	s	n/a
283.2745	0.105	566549	keystroke_p	p	n/a
283.3945	0.105	566789	keystroke_e	e	n/a
283.6345	0.09	567269	keystroke_c	c	n/a
283.8295	0.0745	567659	keystroke_t	t	n/a
283.934	0.12	567868	keystroke_i	i	n/a
284.069	0.106	568138	keystroke_v	v	n/a
284.144	0.195	568288	keystroke_e	e	n/a
284.939	0.136	569878	keystroke_Key.enter	Key.enter	n/a
285.082	7.644	570164	prompt	n/a	plays somewhere importantly baker\n
285.794	0.105	571588	keystroke_p	p	n/a
285.974	0.15	571948	keystroke_a	a	n/a
286.004	0.135	572008	keystroke_l	l	n/a
286.199	0.135	572398	keystroke_y	y	n/a
286.469	0.12	572938	keystroke_s	s	n/a
286.634	0.075	573268	keystroke_Key.backspace	Key.backspace	n/a
286.8285	0.076	573657	keystroke_Key.backspace	Key.backspace	n/a
287.0545	0.075	574109	keystroke_Key.backspace	Key.backspace	n/a
287.2185	0.075	574437	keystroke_Key.backspace	Key.backspace	n/a
287.429	0.12	574858	keystroke_l	l	n/a
287.564	0.135	575128	keystroke_a	a	n/a
287.684	0.09	575368	keystroke_y	y	n/a
287.804	0.105	575608	keystroke_s	s	n/a
287.924	0.12	575848	keystroke_Key.space	Key.space	n/a
288.179	0.15	576358	keystroke_s	s	n/a
288.299	0.12	576598	keystroke_o	o	n/a
288.374	0.15	576748	keystroke_m	m	n/a
288.554	0.135	577108	keystroke_e	e	n/a
289.1395	0.105	578279	keystroke_w	w	n/a
289.2295	0.12	578459	keystroke_h	h	n/a
289.3495	0.12	578699	keystroke_e	e	n/a
289.4395	0.135	578879	keystroke_r	r	n/a
289.5445	0.135	579089	keystroke_e	e	n/a
289.6495	0.135	579299	keystroke_Key.space	Key.space	n/a
290.0095	0.12	580019	keystroke_i	i	n/a
290.0695	0.165	580139	keystroke_m	m	n/a
290.1895	0.18	580379	keystroke_p	p	n/a
290.3545	0.105	580709	keystroke_o	o	n/a
290.3995	0.105	580799	keystroke_r	r	n/a
290.6995	0.1495	581399	keystroke_t	t	n/a
290.834	0.15	581668	keystroke_a	a	n/a
291.0285	0.151	582057	keystroke_n	n	n/a
291.2085	0.165	582417	keystroke_t	t	n/a
291.4485	0.195	582897	keystroke_l	l	n/a
291.6295	0.134	583259	keystroke_y	y	n/a
291.719	0.15	583438	keystroke_Key.space	Key.space	n/a
292.0495	0.119	584099	keystroke_b	b	n/a
292.1545	0.104	584309	keystroke_a	a	n/a
292.2735	0.151	584547	keystroke_k	k	n/a
292.4395	0.105	584879	keystroke_e	e	n/a
292.6345	0.09	585269	keystroke_Key.enter	Key.enter	n/a
292.7315	12.2345	585463	prompt	n/a	interference mighty recognized bowl\n
293.909	0.136	587818	keystroke_i	i	n/a
293.984	0.15	587968	keystroke_n	n	n/a
294.164	0.075	588328	keystroke_t	t	n/a
294.224	0.165	588448	keystroke_e	e	n/a
294.359	0.12	588718	keystroke_r	r	n/a
294.689	0.12	589378	keystroke_f	f	n/a
294.794	0.105	589588	keystroke_e	e	n/a
295.049	0.135	590098	keystroke_c	c	n/a
295.844	0.09	591688	keystroke_Key.backspace	Key.backspace	n/a
295.979	0.18	591958	keystroke_r	r	n/a
296.129	0.135	592258	keystroke_e	e	n/a
296.384	0.135	592768	keystroke_n	n	n/a
296.489	0.12	592978	keystroke_c	c	n/a
296.729	0.0905	593458	keystroke_e	e	n/a
296.9395	0.12	593879	keystroke_Key.space	Key.space	n/a
297.449	0.105	594898	keystroke_m	m	n/a
297.539	0.12	595078	keystroke_i	i	n/a
297.644	0.105	595288	keystroke_g	g	n/a
297.764	0.105	595528	keystroke_h	h	n/a
297.884	0.105	595768	keystroke_t	t	n/a
298.004	0.18	596008	keystroke_l	l	n/a
298.094	0.165	596188	keystroke_y	y	n/a
298.214	0.15	596428	keystroke_Key.space	Key.space	n/a
298.859	0.075	597718	keystroke_Key.backspace	Key.backspace	n/a
299.039	0.075	598078	keystroke_Key.backspace	Key.backspace	n/a
299.204	0.075	598408	keystroke_Key.backspace	Key.backspace	n/a
299.369	0.09	598738	keystroke_Key.backspace	Key.backspace	n/a
299.969	0.1205	599938	keystroke_t	t	n/a
300.12	0.1485	600240	keystroke_y	y	n/a
300.2085	0.136	600417	keystroke_Key.space	Key.space	n/a
300.854	0.091	601708	keystroke_r	r	n/a
300.914	0.09	601828	keystroke_e	e	n/a
301.155	0.12	602310	keystroke_c	c	n/a
301.289	0.09	602578	keystroke_o	o	n/a
301.559	0.105	603118	keystroke_g	g	n/a
301.649	0.151	603298	keystroke_n	n	n/a
301.754	0.135	603508	keystroke_i	i	n/a
301.979	0.09	603958	keystroke_a	a	n/a
302.5795	0.09	605159	keystroke_Key.backspace	Key.backspace	n/a
302.6845	0.09	605369	keystroke_z	z	n/a
302.894	0.075	605788	keystroke_e	e	n/a
303.119	0.075	606238	keystroke_d	d	n/a
303.284	0.12	606568	keystroke_Key.space	Key.space	n/a
303.719	0.1505	607438	keystroke_b	b	n/a
304.1835	0.105	608367	keystroke_o	o	n/a
304.3335	0.105	608667	keystroke_w	w	n/a
304.5885	0.121	609177	keystroke_l	l	n/a
304.8745	0.09	609749	keystroke_Key.enter	Key.enter	n/a
304.9715	8.9945	609943	prompt	n/a	adjustments appliance prescribed byte\n
305.6545	0.12	611309	keystroke_a	a	n/a
305.7895	0.15	611579	keystroke_d	d	n/a
305.9245	0.09	611849	keystroke_j	j	n/a
306.1495	0.06	612299	keystroke_u	u	n/a
306.3295	0.12	612659	keystroke_s	s	n/a
306.3895	0.12	612779	keystroke_t	t	n/a
306.6445	0.105	613289	keystroke_m	m	n/a
306.7645	0.12	613529	keystroke_e	e	n/a
306.8995	0.134	613799	keystroke_n	n	n/a
307.0195	0.089	614039	keystroke_t	t	n/a
307.1685	0.135	614337	keystroke_s	s	n/a
307.3185	0.121	614637	keystroke_Key.space	Key.space	n/a
307.5145	0.105	615029	keystroke_a	a	n/a
307.6795	0.105	615359	keystroke_p	p	n/a
307.844	0.1205	615688	keystroke_p	p	n/a
308.084	0.1055	616168	keystroke_l	l	n/a
308.1295	0.15	616259	keystroke_i	i	n/a
308.3545	0.1795	616709	keystroke_a	a	n/a
308.549	0.0905	617098	keystroke_n	n	n/a
308.6695	0.0895	617339	keystroke_c	c	n/a
308.8935	0.09	617787	keystroke_e	e	n/a
309.0585	0.135	618117	keystroke_Key.space	Key.space	n/a
309.4495	0.104	618899	keystroke_p	p	n/a
309.5685	0.105	619137	keystroke_r	r	n/a
309.6435	0.121	619287	keystroke_e	e	n/a
309.9585	0.106	619917	keystroke_c	c	n/a
310.2145	0.105	620429	keystroke_e	e	n/a
310.6035	0.06	621207	keystroke_Key.backspace	Key.backspace	n/a
310.7385	0.12	621477	keystroke_Key.backspace	Key.backspace	n/a
310.8145	0.105	621629	keystroke_s	s	n/a
311.1585	0.09	622317	keystroke_c	c	n/a
311.4885	0.135	622977	keystroke_r	r	n/a
311.6245	0.105	623249	keystroke_i	i	n/a
311.7885	0.12	623577	keystroke_b	b	n/a
312.0285	0.121	624057	keystroke_e	e	n/a
312.2985	0.151	624597	keystroke_d	d	n/a
312.5245	0.12	625049	keystroke_Key.space	Key.space	n/a
312.8395	0.1195	625679	keystroke_b	b	n/a
312.989	0.15	625978	keystroke_y	y	n/a
313.379	0.165	626758	keystroke_t	t	n/a
313.664	0.15	627328	keystroke_e	e	n/a
313.844	0.12	627688	keystroke_Key.enter	Key.enter	n/a
313.9715	7.75	627943	prompt	n/a	holds hill nirvana controversial\n
314.639	0.12	629278	keystroke_h	h	n/a
314.714	0.135	629428	keystroke_o	o	n/a
314.939	0.135	629878	keystroke_l	l	n/a
315.044	0.12	630088	keystroke_d	d	n/a
315.209	0.12	630418	keystroke_s	s	n/a
315.374	0.15	630748	keystroke_Key.space	Key.space	n/a
315.494	0.135	630988	keystroke_h	h	n/a
315.584	0.15	631168	keystroke_i	i	n/a
315.764	0.105	631528	keystroke_l	l	n/a
315.974	0.12	631948	keystroke_l	l	n/a
316.034	0.12	632068	keystroke_Key.space	Key.space	n/a
316.229	0.135	632458	keystroke_n	n	n/a
316.304	0.165	632608	keystroke_i	i	n/a
316.8895	0.105	633779	keystroke_r	r	n/a
317.759	0.135	635518	keystroke_v	v	n/a
317.879	0.135	635758	keystroke_a	a	n/a
318.314	0.12	636628	keystroke_n	n	n/a
318.449	0.135	636898	keystroke_a	a	n/a
318.689	0.105	637378	keystroke_Key.space	Key.space	n/a
318.9445	0.06	637889	keystroke_a	a	n/a
319.3495	0.075	638699	keystroke_Key.backspace	Key.backspace	n/a
319.4695	0.12	638939	keystroke_c	c	n/a
319.5595	0.21	639119	keystroke_o	o	n/a
319.6495	0.18	639299	keystroke_n	n	n/a
319.7995	0.075	639599	keystroke_t	t	n/a
319.9945	0.075	639989	keystroke_r	r	n/a
320.0845	0.105	640169	keystroke_o	o	n/a
320.3845	0.12	640769	keystroke_v	v	n/a
320.5195	0.165	641039	keystroke_e	e	n/a
320.6545	0.105	641309	keystroke_r	r	n/a
320.9685	0.121	641937	keystroke_s	s	n/a
321.1345	0.09	642269	keystroke_i	i	n/a
321.2385	0.18	642477	keystroke_a	a	n/a
321.4045	0.104	642809	keystroke_l	l	n/a
321.6585	0.06	643317	keystroke_Key.enter	Key.enter	n/a
321.727	5.0195	643454	prompt	n/a	pack boat meter phases\n
322.409	0.09	644818	keystroke_p	p	n/a
322.484	0.09	644968	keystroke_a	a	n/a
322.679	0.135	645358	keystroke_c	c	n/a
322.799	0.135	645598	keystroke_k	k	n/a
322.904	0.135	645808	keystroke_Key.space	Key.space	n/a
323.234	0.12	646468	keystroke_b	b	n/a
323.324	0.105	646648	keystroke_o	o	n/a
323.444	0.12	646888	keystroke_a	a	n/a
323.579	0.12	647158	keystroke_t	t	n/a
323.744	0.105	647488	keystroke_Key.space	Key.space	n/a
324.029	0.135	648058	keystroke_m	m	n/a
324.149	0.165	648298	keystroke_e	e	n/a
324.299	0.12	648598	keystroke_t	t	n/a
324.449	0.15	648898	keystroke_e	e	n/a
324.569	0.135	649138	keystroke_r	r	n/a
324.674	0.135	649348	keystroke_Key.space	Key.space	n/a
324.794	0.2105	649588	keystroke_p	p	n/a
324.9745	0.135	649949	keystroke_h	h	n/a
325.3195	0.12	650639	keystroke_a	a	n/a
325.6045	0.135	651209	keystroke_s	s	n/a
326.2195	0.119	652439	keystroke_e	e	n/a
326.3835	0.135	652767	keystroke_s	s	n/a
326.6545	0.09	653309	keystroke_Key.enter	Key.enter	n/a
326.7535	11.6925	653507	prompt	n/a	bowl twiki effective they've\n
327.509	0.091	655018	keystroke_b	b	n/a
327.629	0.105	655258	keystroke_o	o	n/a
327.809	0.09	655618	keystroke_w	w	n/a
327.974	0.181	655948	keystroke_l	l	n/a
328.334	0.135	656668	keystroke_Key.space	Key.space	n/a
328.919	0.1495	657838	keystroke_w	w	n/a
329.4445	0.134	658889	keystroke_r	r	n/a
329.9245	0.074	659849	keystroke_Key.backspace	Key.backspace	n/a
330.0885	0.09	660177	keystroke_Key.backspace	Key.backspace	n/a
330.1185	0.136	660237	keystroke_t	t	n/a
330.2245	0.165	660449	keystroke_w	w	n/a
330.5245	0.134	661049	keystroke_i	i	n/a
331.1535	0.105	662307	keystroke_k	k	n/a
331.3785	0.165	662757	keystroke_i	i	n/a
331.5585	0.12	663117	keystroke_Key.space	Key.space	n/a
331.7985	0.12	663597	keystroke_e	e	n/a
333.4645	0.089	666929	keystroke_f	f	n/a
333.6435	0.135	667287	keystroke_f	f	n/a
333.7485	0.12	667497	keystroke_e	e	n/a
333.9885	0.09	667977	keystroke_i	i	n/a
334.0495	0.15	668099	keystroke_c	c	n/a
334.5585	0.075	669117	keystroke_Key.backspace	Key.backspace	n/a
334.6935	0.12	669387	keystroke_Key.backspace	Key.backspace	n/a
334.8435	0.121	669687	keystroke_c	c	n/a
335.6695	0.06	671339	keystroke_t	t	n/a
335.7595	0.12	671519	keystroke_i	i	n/a
335.9095	0.12	671819	keystroke_v	v	n/a
336.0135	0.121	672027	keystroke_e	e	n/a
336.1035	0.105	672207	keystroke_Key.space	Key.space	n/a
336.3295	0.12	672659	keystroke_h	h	n/a
336.5095	0.135	673019	keystroke_e	e	n/a
336.7935	0.09	673587	keystroke_Key.backspace	Key.backspace	n/a
336.8995	0.134	673799	keystroke_Key.backspace	Key.backspace	n/a
337.0035	0.105	674007	keystroke_t	t	n/a
337.3335	0.0755	674667	keystroke_h	h	n/a
337.469	0.135	674938	keystroke_e	e	n/a
337.5895	0.0445	675179	keystroke_y	y	n/a
337.7395	0.1495	675479	keystroke_'	'	n/a
337.874	0.0905	675748	keystroke_v	v	n/a
337.949	0.165	675898	keystroke_e	e	n/a
338.3395	0.1195	676679	keystroke_Key.space	Key.space	n/a
338.354	0.09	676708	keystroke_Key.enter	Key.enter	n/a
338.4495	18.341	676899	prompt	n/a	responsibility halo lucia display\n
339.1485	0.106	678297	keystroke_r	r	n/a
339.2385	0.12	678477	keystroke_e	e	n/a
339.3745	0.209	678749	keystroke_p	p	n/a
339.5845	0.149	679169	keystroke_o	o	n/a
339.6585	0.135	679317	keystroke_n	n	n/a
339.7795	0.135	679559	keystroke_s	s	n/a
339.9445	0.089	679889	keystroke_i	i	n/a
340.1235	0.106	680247	keystroke_b	b	n/a
340.3795	0.164	680759	keystroke_l	l	n/a
340.4995	0.105	680999	keystroke_i	i	n/a
340.6495	0.105	681299	keystroke_t	t	n/a
340.7245	0.105	681449	keystroke_i	i	n/a
340.9335	0.105	681867	keystroke_y	y	n/a
341.0235	0.135	682047	keystroke_Key.space	Key.space	n/a
341.4585	0.091	682917	keystroke_h	h	n/a
341.6085	0.121	683217	keystroke_a	a	n/a
341.6985	0.105	683397	keystroke_l	l	n/a
342.9295	0.104	685859	keystroke_Key.backspace	Key.backspace	n/a
343.1245	0.119	686249	keystroke_Key.backspace	Key.backspace	n/a
343.5285	0.121	687057	keystroke_i	i	n/a
343.8295	0.135	687659	keystroke_b	b	n/a
344.0545	0.12	688109	keystroke_i	i	n/a
344.1585	0.181	688317	keystroke_l	l	n/a
344.2795	0.12	688559	keystroke_i	i	n/a
344.4145	0.105	688829	keystroke_t	t	n/a
344.5495	0.12	689099	keystroke_y	y	n/a
344.6245	0.119	689249	keystroke_Key.space	Key.space	n/a
344.8945	0.089	689789	keystroke_h	h	n/a
345.014	0.135	690028	keystroke_a	a	n/a
345.134	0.12	690268	keystroke_l	l	n/a
346.454	0.075	692908	keystroke_Key.backspace	Key.backspace	n/a
346.634	0.075	693268	keystroke_Key.backspace	Key.backspace	n/a
346.829	0.06	693658	keystroke_Key.backspace	Key.backspace	n/a
347.009	0.06	694018	keystroke_Key.backspace	Key.backspace	n/a
347.174	0.06	694348	keystroke_Key.backspace	Key.backspace	n/a
347.354	0.0445	694708	keystroke_Key.backspace	Key.backspace	n/a
347.5035	0.075	695007	keystroke_Key.backspace	Key.backspace	n/a
347.6685	0.135	695337	keystroke_s	s	n/a
347.8335	0.195	695667	keystroke_p	p	n/a
348.0135	0.18	696027	keystroke_o	o	n/a
348.1185	0.135	696237	keystroke_n	n	n/a
348.2385	0.135	696477	keystroke_s	s	n/a
348.3885	0.09	696777	keystroke_i	i	n/a
348.5835	0.105	697167	keystroke_b	b	n/a
348.8385	0.06	697677	keystroke_i	i	n/a
348.8835	0.1955	697767	keystroke_l	l	n/a
349.034	0.105	698068	keystroke_i	i	n/a
349.154	0.105	698308	keystroke_t	t	n/a
349.244	0.106	698488	keystroke_i	i	n/a
349.424	0.12	698848	keystroke_y	y	n/a
349.514	0.135	699028	keystroke_Key.space	Key.space	n/a
349.874	0.105	699748	keystroke_h	h	n/a
350.234	0.075	700468	keystroke_Key.backspace	Key.backspace	n/a
350.429	0.06	700858	keystroke_Key.backspace	Key.backspace	n/a
350.609	0.06	701218	keystroke_Key.backspace	Key.backspace	n/a
350.789	0.075	701578	keystroke_Key.backspace	Key.backspace	n/a
350.969	0.0755	701938	keystroke_Key.backspace	Key.backspace	n/a
351.1645	0.075	702329	keystroke_Key.backspace	Key.backspace	n/a
351.3445	0.09	702689	keystroke_Key.backspace	Key.backspace	n/a
352.3045	0.1045	704609	keystroke_l	l	n/a
352.379	0.12	704758	keystroke_i	i	n/a
352.529	0.105	705058	keystroke_t	t	n/a
352.664	0.105	705328	keystroke_y	y	n/a
352.784	0.12	705568	keystroke_Key.space	Key.space	n/a
353.1295	0.135	706259	keystroke_h	h	n/a
353.2045	0.135	706409	keystroke_o	o	n/a
353.6545	0.045	707309	keystroke_Key.backspace	Key.backspace	n/a
353.7445	0.15	707489	keystroke_a	a	n/a
353.8795	0.105	707759	keystroke_l	l	n/a
354.0895	0.12	708179	keystroke_o	o	n/a
354.1945	0.12	708389	keystroke_Key.space	Key.space	n/a
354.4795	0.15	708959	keystroke_l	l	n/a
354.6145	0.105	709229	keystroke_u	u	n/a
354.8245	0.135	709649	keystroke_c	c	n/a
354.9445	0.135	709889	keystroke_i	i	n/a
355.1245	0.12	710249	keystroke_a	a	n/a
355.1995	0.134	710399	keystroke_Key.space	Key.space	n/a
355.4995	0.105	710999	keystroke_d	d	n/a
355.6195	0.12	711239	keystroke_i	i	n/a
355.7245	0.12	711449	keystroke_s	s	n/a
355.9795	0.09	711959	keystroke_p	p	n/a
356.1895	0.105	712379	keystroke_l	l	n/a
356.3095	0.12	712619	keystroke_a	a	n/a
356.4145	0.104	712829	keystroke_y	y	n/a
356.6995	0.089	713399	keystroke_Key.enter	Key.enter	n/a
356.798	7.898	713596	prompt	n/a	uncertainty he's incorporated treo\n
357.434	0.105	714868	keystroke_u	u	n/a
357.704	0.09	715408	keystroke_n	n	n/a
357.869	0.12	715738	keystroke_c	c	n/a
358.139	0.21	716278	keystroke_e	e	n/a
358.334	0.12	716668	keystroke_r	r	n/a
358.604	0.12	717208	keystroke_t	t	n/a
358.694	0.15	717388	keystroke_a	a	n/a
358.829	0.105	717658	keystroke_i	i	n/a
358.889	0.1805	717778	keystroke_n	n	n/a
359.0985	0.135	718197	keystroke_l	l	n/a
359.4585	0.09	718917	keystroke_Key.backspace	Key.backspace	n/a
359.5335	0.1215	719067	keystroke_t	t	n/a
359.7585	0.12	719517	keystroke_y	y	n/a
359.834	0.1195	719668	keystroke_Key.space	Key.space	n/a
360.3135	0.135	720627	keystroke_h	h	n/a
360.4635	0.105	720927	keystroke_e	e	n/a
360.6285	0.12	721257	keystroke_'	'	n/a
360.7935	0.135	721587	keystroke_s	s	n/a
360.9585	0.1205	721917	keystroke_Key.space	Key.space	n/a
361.514	0.105	723028	keystroke_i	i	n/a
361.574	0.135	723148	keystroke_n	n	n/a
361.724	0.135	723448	keystroke_c	c	n/a
361.844	0.135	723688	keystroke_o	o	n/a
362.024	0.135	724048	keystroke_r	r	n/a
362.264	0.1495	724528	keystroke_p	p	n/a
362.4445	0.149	724889	keystroke_o	o	n/a
362.6095	0.149	725219	keystroke_r	r	n/a
362.7885	0.121	725577	keystroke_a	a	n/a
362.8935	0.135	725787	keystroke_t	t	n/a
363.0135	0.105	726027	keystroke_e	e	n/a
363.2385	0.09	726477	keystroke_d	d	n/a
363.4035	0.105	726807	keystroke_Key.space	Key.space	n/a
363.7185	0.075	727437	keystroke_t	t	n/a
363.9135	0.135	727827	keystroke_r	r	n/a
364.0185	0.15	728037	keystroke_e	e	n/a
364.3035	0.121	728607	keystroke_o	o	n/a
364.6335	0.06	729267	keystroke_Key.enter	Key.enter	n/a
364.7005	15.5355	729401	prompt	n/a	excel elementary highlights manually\n
365.384	0.075	730768	keystroke_e	e	n/a
365.789	0.18	731578	keystroke_c	c	n/a
366.314	0.075	732628	keystroke_x	x	n/a
366.494	0.075	732988	keystroke_Key.backspace	Key.backspace	n/a
366.659	0.105	733318	keystroke_Key.backspace	Key.backspace	n/a
366.734	0.105	733468	keystroke_x	x	n/a
366.84	0.149	733680	keystroke_c	c	n/a
367.1385	0.105	734277	keystroke_e	e	n/a
367.3335	0.2555	734667	keystroke_l	l	n/a
368.294	0.0155	736588	keystroke_Key.space	Key.space	n/a
368.9995	0.105	737999	keystroke_e	e	n/a
369.3445	0.134	738689	keystroke_l	l	n/a
369.4195	0.104	738839	keystroke_e	e	n/a
369.8095	0.104	739619	keystroke_m	m	n/a
369.9145	0.12	739829	keystroke_e	e	n/a
370.0495	0.134	740099	keystroke_n	n	n/a
370.1695	0.089	740339	keystroke_t	t	n/a
370.5745	0.06	741149	keystroke_a	a	n/a
370.6195	0.135	741239	keystroke_r	r	n/a
370.8435	0.151	741687	keystroke_y	y	n/a
370.9495	0.164	741899	keystroke_Key.space	Key.space	n/a
371.3835	0.135	742767	keystroke_h	h	n/a
371.4885	0.136	742977	keystroke_i	i	n/a
371.6385	0.09	743277	keystroke_g	g	n/a
371.7435	0.09	743487	keystroke_h	h	n/a
371.8635	0.09	743727	keystroke_t	t	n/a
372.0135	0.15	744027	keystroke_l	l	n/a
372.1035	0.166	744207	keystroke_i	i	n/a
372.2835	0.0905	744567	keystroke_g	g	n/a
372.404	0.1205	744808	keystroke_h	h	n/a
372.599	0.075	745198	keystroke_t	t	n/a
373.214	0.06	746428	keystroke_s	s	n/a
373.319	0.12	746638	keystroke_Key.space	Key.space	n/a
373.649	0.12	747298	keystroke_m	m	n/a
373.799	0.15	747598	keystroke_a	a	n/a
373.934	0.075	747868	keystroke_n	n	n/a
374.144	0.105	748288	keystroke_u	u	n/a
374.324	0.105	748648	keystroke_a	a	n/a
374.414	0.09	748828	keystroke_l	l	n/a
374.609	0.15	749218	keystroke_l	l	n/a
374.744	0.105	749488	keystroke_y	y	n/a
376.0785	0.09	752157	keystroke_Key.backspace	Key.backspace	n/a
376.2735	0.075	752547	keystroke_Key.backspace	Key.backspace	n/a
376.4535	0.06	752907	keystroke_Key.backspace	Key.backspace	n/a
376.6185	0.075	753237	keystroke_Key.backspace	Key.backspace	n/a
376.7835	0.105	753567	keystroke_Key.backspace	Key.backspace	n/a
377.0685	0.1655	754137	keystroke_l	l	n/a
377.159	0.15	754318	keystroke_i	i	n/a
377.324	0.1055	754648	keystroke_g	g	n/a
377.4445	0.134	754889	keystroke_h	h	n/a
377.5945	0.09	755189	keystroke_t	t	n/a
377.7135	0.151	755427	keystroke_s	s	n/a
377.9235	0.165	755847	keystroke_Key.space	Key.space	n/a
378.0745	0.135	756149	keystroke_m	m	n/a
378.2845	0.135	756569	keystroke_a	a	n/a
378.3895	0.09	756779	keystroke_n	n	n/a
378.7795	0.105	757559	keystroke_n	n	n/a
379.259	0.075	758518	keystroke_Key.backspace	Key.backspace	n/a
379.454	0.075	758908	keystroke_u	u	n/a
379.559	0.165	759118	keystroke_a	a	n/a
379.664	0.09	759328	keystroke_l	l	n/a
379.844	0.135	759688	keystroke_l	l	n/a
379.949	0.12	759898	keystroke_y	y	n/a
380.174	0.06	760348	keystroke_Key.enter	Key.enter	n/a
380.2405	7.15	760481	prompt	n/a	fragrances sellers lord reduction\n
380.924	0.09	761848	keystroke_f	f	n/a
381.119	0.135	762238	keystroke_r	r	n/a
381.194	0.15	762388	keystroke_a	a	n/a
381.419	0.075	762838	keystroke_n	n	n/a
381.809	0.06	763618	keystroke_Key.backspace	Key.backspace	n/a
381.839	0.075	763678	keystroke_g	g	n/a
382.019	0.105	764038	keystroke_r	r	n/a
382.094	0.12	764188	keystroke_a	a	n/a
382.199	0.12	764398	keystroke_n	n	n/a
382.4085	0.09	764817	keystroke_c	c	n/a
382.6495	0.134	765299	keystroke_e	e	n/a
382.7685	0.12	765537	keystroke_s	s	n/a
382.9935	0.105	765987	keystroke_Key.space	Key.space	n/a
383.384	0.12	766768	keystroke_s	s	n/a
383.534	0.135	767068	keystroke_e	e	n/a
383.684	0.105	767368	keystroke_l	l	n/a
383.879	0.105	767758	keystroke_l	l	n/a
384.224	0.15	768448	keystroke_e	e	n/a
384.329	0.135	768658	keystroke_r	r	n/a
384.554	0.105	769108	keystroke_s	s	n/a
384.749	0.105	769498	keystroke_Key.space	Key.space	n/a
384.899	0.105	769798	keystroke_l	l	n/a
385.109	0.105	770218	keystroke_o	o	n/a
385.199	0.135	770398	keystroke_r	r	n/a
385.484	0.135	770968	keystroke_d	d	n/a
385.679	0.12	771358	keystroke_Key.space	Key.space	n/a
386.099	0.105	772198	keystroke_r	r	n/a
386.174	0.105	772348	keystroke_e	e	n/a
386.429	0.075	772858	keystroke_d	d	n/a
386.534	0.09	773068	keystroke_u	u	n/a
386.654	0.075	773308	keystroke_c	c	n/a
386.864	0.09	773728	keystroke_t	t	n/a
386.924	0.09	773848	keystroke_i	i	n/a
386.984	0.12	773968	keystroke_o	o	n/a
387.029	0.1945	774058	keystroke_n	n	n/a
387.2685	0.121	774537	keystroke_Key.enter	Key.enter	n/a
387.3955	6.46	774791	prompt	n/a	means acts looksmart sunday\n
388.019	0.12	776038	keystroke_m	m	n/a
388.1545	0.09	776309	keystroke_e	e	n/a
388.2295	0.09	776459	keystroke_a	a	n/a
388.3045	0.12	776609	keystroke_n	n	n/a
388.4395	0.105	776879	keystroke_s	s	n/a
388.5745	0.1345	777149	keystroke_Key.space	Key.space	n/a
388.829	0.09	777658	keystroke_s	s	n/a
389.159	0.105	778318	keystroke_Key.backspace	Key.backspace	n/a
389.249	0.075	778498	keystroke_a	a	n/a
389.399	0.12	778798	keystroke_c	c	n/a
389.654	0.165	779308	keystroke_t	t	n/a
390.089	0.12	780178	keystroke_s	s	n/a
390.374	0.135	780748	keystroke_Key.space	Key.space	n/a
390.794	0.09	781588	keystroke_l	l	n/a
391.004	0.075	782008	keystroke_o	o	n/a
391.169	0.105	782338	keystroke_o	o	n/a
391.229	0.165	782458	keystroke_k	k	n/a
391.469	0.105	782938	keystroke_s	s	n/a
391.829	0.105	783658	keystroke_m	m	n/a
391.979	0.105	783958	keystroke_a	a	n/a
392.054	0.105	784108	keystroke_r	r	n/a
392.279	0.09	784558	keystroke_t	t	n/a
392.4435	0.135	784887	keystroke_Key.space	Key.space	n/a
392.7435	0.09	785487	keystroke_s	s	n/a
392.8345	0.089	785669	keystroke_u	u	n/a
393.0585	0.09	786117	keystroke_n	n	n/a
393.1635	0.1655	786327	keystroke_d	d	n/a
393.374	0.105	786748	keystroke_y	y	n/a
393.749	0.105	787498	keystroke_Key.enter	Key.enter	n/a
393.861	7.8695	787722	prompt	n/a	urls surgeon combat but\n
394.694	0.12	789388	keystroke_u	u	n/a
394.859	0.105	789718	keystroke_r	r	n/a
394.979	0.135	789958	keystroke_l	l	n/a
395.159	0.12	790318	keystroke_s	s	n/a
395.384	0.12	790768	keystroke_Key.space	Key.space	n/a
395.789	0.12	791578	keystroke_s	s	n/a
395.894	0.12	791788	keystroke_u	u	n/a
396.029	0.075	792058	keystroke_r	r	n/a
396.269	0.15	792538	keystroke_g	g	n/a
396.464	0.135	792928	keystroke_e	e	n/a
396.629	0.12	793258	keystroke_n	n	n/a
397.4535	0.075	794907	keystroke_Key.backspace	Key.backspace	n/a
397.6035	0.09	795207	keystroke_Key.backspace	Key.backspace	n/a
398.2345	0.165	796469	keystroke_e	e	n/a
398.3835	0.195	796767	keystroke_o	o	n/a
398.5485	0.21	797097	keystroke_n	n	n/a
399.389	0.12	798778	keystroke_Key.space	Key.space	n/a
399.899	0.135	799798	keystroke_c	c	n/a
399.959	0.105	799918	keystroke_o	o	n/a
400.019	0.15	800038	keystroke_m	m	n/a
400.199	0.135	800398	keystroke_b	b	n/a
400.319	0.12	800638	keystroke_a	a	n/a
400.679	0.105	801358	keystroke_t	t	n/a
400.844	0.12	801688	keystroke_Key.space	Key.space	n/a
401.039	0.165	802078	keystroke_b	b	n/a
401.2785	0.075	802557	keystroke_u	u	n/a
401.4435	0.135	802887	keystroke_t	t	n/a
401.6385	0.09	803277	keystroke_Key.enter	Key.enter	n/a
401.7385	17.527	803477	prompt	n/a	statutory tutorials experimental females\n
402.539	0.12	805078	keystroke_s	s	n/a
402.839	0.12	805678	keystroke_t	t	n/a
402.959	0.179	805918	keystroke_a	a	n/a
403.499	0.06	806998	keystroke_Key.backspace	Key.backspace	n/a
403.679	0.045	807358	keystroke_Key.backspace	Key.backspace	n/a
404.249	0.12	808498	keystroke_t	t	n/a
404.369	0.15	808738	keystroke_a	a	n/a
405.1335	0.09	810267	keystroke_t	t	n/a
405.2535	0.1205	810507	keystroke_u	u	n/a
405.764	0.09	811528	keystroke_t	t	n/a
405.869	0.135	811738	keystroke_o	o	n/a
405.989	0.135	811978	keystroke_r	r	n/a
406.154	0.135	812308	keystroke_y	y	n/a
406.274	0.15	812548	keystroke_Key.space	Key.space	n/a
406.619	0.09	813238	keystroke_t	t	n/a
406.754	0.12	813508	keystroke_u	u	n/a
406.874	0.105	813748	keystroke_r	r	n/a
407.9235	0.075	815847	keystroke_Key.backspace	Key.backspace	n/a
408.0135	0.105	816027	keystroke_t	t	n/a
408.1645	0.104	816329	keystroke_o	o	n/a
408.2985	0.105	816597	keystroke_r	r	n/a
408.4785	0.09	816957	keystroke_i	i	n/a
408.6285	0.12	817257	keystroke_a	a	n/a
408.7335	0.135	817467	keystroke_l	l	n/a
408.8985	0.105	817797	keystroke_s	s	n/a
409.0635	0.15	818127	keystroke_Key.space	Key.space	n/a
409.289	0.105	818578	keystroke_e	e	n/a
409.544	0.105	819088	keystroke_x	x	n/a
409.679	0.12	819358	keystroke_p	p	n/a
409.844	0.195	819688	keystroke_e	e	n/a
410.054	0.135	820108	keystroke_r	r	n/a
410.234	0.12	820468	keystroke_i	i	n/a
410.369	0.12	820738	keystroke_e	e	n/a
410.624	0.105	821248	keystroke_m	m	n/a
410.759	0.105	821518	keystroke_e	e	n/a
410.894	0.105	821788	keystroke_n	n	n/a
410.984	0.105	821968	keystroke_t	t	n/a
411.509	0.12	823018	keystroke_a	a	n/a
411.659	0.15	823318	keystroke_l	l	n/a
411.749	0.135	823498	keystroke_Key.space	Key.space	n/a
413.249	0.0745	826498	keystroke_Key.backspace	Key.backspace	n/a
413.4435	0.075	826887	keystroke_Key.backspace	Key.backspace	n/a
413.6235	0.075	827247	keystroke_Key.backspace	Key.backspace	n/a
415.3485	0.135	830697	keystroke_m	m	n/a
415.5885	0.165	831177	keystroke_e	e	n/a
415.9035	0.045	831807	keystroke_Key.backspace	Key.backspace	n/a
416.0535	0.09	832107	keystroke_Key.backspace	Key.backspace	n/a
416.3685	0.165	832737	keystroke_i	i	n/a
416.6535	0.105	833307	keystroke_m	m	n/a
416.8635	0.12	833727	keystroke_e	e	n/a
416.9985	0.135	833997	keystroke_n	n	n/a
417.1935	0.1505	834387	keystroke_t	t	n/a
417.3135	0.165	834627	keystroke_a	a	n/a
417.4635	0.165	834927	keystroke_l	l	n/a
417.5535	0.135	835107	keystroke_Key.space	Key.space	n/a
418.0335	0.105	836067	keystroke_f	f	n/a
418.1235	0.12	836247	keystroke_e	e	n/a
418.2735	0.12	836547	keystroke_m	m	n/a
418.4535	0.09	836907	keystroke_a	a	n/a
418.5735	0.165	837147	keystroke_l	l	n/a
418.7685	0.165	837537	keystroke_e	e	n/a
418.9345	0.149	837869	keystroke_s	s	n/a
419.1735	0.09	838347	keystroke_Key.enter	Key.enter	n/a
419.27	6.0855	838540	prompt	n/a	wire something fired necessary\n
420.014	0.09	840028	keystroke_w	w	n/a
420.134	0.12	840268	keystroke_i	i	n/a
420.194	0.15	840388	keystroke_r	r	n/a
420.314	0.15	840628	keystroke_e	e	n/a
420.524	0.105	841048	keystroke_Key.space	Key.space	n/a
420.659	0.12	841318	keystroke_s	s	n/a
420.779	0.12	841558	keystroke_o	o	n/a
420.869	0.135	841738	keystroke_m	m	n/a
420.974	0.105	841948	keystroke_e	e	n/a
421.184	0.09	842368	keystroke_t	t	n/a
421.244	0.12	842488	keystroke_h	h	n/a
421.319	0.195	842638	keystroke_i	i	n/a
421.469	0.135	842938	keystroke_n	n	n/a
421.559	0.09	843118	keystroke_g	g	n/a
421.679	0.149	843358	keystroke_Key.space	Key.space	n/a
421.964	0.075	843928	keystroke_f	f	n/a
422.039	0.12	844078	keystroke_i	i	n/a
422.174	0.12	844348	keystroke_r	r	n/a
422.309	0.1045	844618	keystroke_e	e	n/a
422.5635	0.09	845127	keystroke_d	d	n/a
422.6835	0.105	845367	keystroke_Key.space	Key.space	n/a
422.9385	0.09	845877	keystroke_n	n	n/a
423.0435	0.075	846087	keystroke_e	e	n/a
423.2985	0.121	846597	keystroke_c	c	n/a
423.5235	0.12	847047	keystroke_c	c	n/a
424.0635	0.075	848127	keystroke_Key.backspace	Key.backspace	n/a
424.1695	0.074	848339	keystroke_e	e	n/a
424.4385	0.075	848877	keystroke_s	s	n/a
424.6195	0.089	849239	keystroke_s	s	n/a
424.7535	0.135	849507	keystroke_a	a	n/a
424.8735	0.196	849747	keystroke_r	r	n/a
424.9945	0.119	849989	keystroke_y	y	n/a
425.2635	0.09	850527	keystroke_Key.enter	Key.enter	n/a
425.3605	6.2195	850721	prompt	n/a	pending accurate honor threatened\n
426.0135	0.12	852027	keystroke_p	p	n/a
426.1485	0.09	852297	keystroke_e	e	n/a
426.2685	0.105	852537	keystroke_n	n	n/a
426.4035	0.09	852807	keystroke_d	d	n/a
426.5385	0.135	853077	keystroke_i	i	n/a
426.6285	0.15	853257	keystroke_n	n	n/a
426.7335	0.075	853467	keystroke_g	g	n/a
426.8235	0.15	853647	keystroke_Key.space	Key.space	n/a
427.0485	0.09	854097	keystroke_a	a	n/a
427.2735	0.1055	854547	keystroke_c	c	n/a
427.4835	0.09	854967	keystroke_c	c	n/a
427.6185	0.105	855237	keystroke_u	u	n/a
427.7535	0.15	855507	keystroke_r	r	n/a
427.9035	0.135	855807	keystroke_a	a	n/a
428.0535	0.09	856107	keystroke_t	t	n/a
428.1285	0.105	856257	keystroke_e	e	n/a
428.2635	0.135	856527	keystroke_Key.space	Key.space	n/a
428.3835	0.165	856767	keystroke_h	h	n/a
428.4735	0.1355	856947	keystroke_o	o	n/a
428.6535	0.12	857307	keystroke_n	n	n/a
428.8335	0.135	857667	keystroke_o	o	n/a
428.9835	0.09	857967	keystroke_r	r	n/a
429.0885	0.12	858177	keystroke_Key.space	Key.space	n/a
429.404	0.09	858808	keystroke_t	t	n/a
429.509	0.12	859018	keystroke_h	h	n/a
429.689	0.165	859378	keystroke_r	r	n/a
429.839	0.12	859678	keystroke_e	e	n/a
430.094	0.105	860188	keystroke_a	a	n/a
430.229	0.135	860458	keystroke_t	t	n/a
430.574	0.12	861148	keystroke_e	e	n/a
430.709	0.15	861418	keystroke_n	n	n/a
431.114	0.075	862228	keystroke_e	e	n/a
431.339	0.105	862678	keystroke_d	d	n/a
431.474	0.105	862948	keystroke_Key.enter	Key.enter	n/a
431.5845	10.3905	863169	prompt	n/a	vegas count geometry junction\n
432.374	0.0745	864748	keystroke_v	v	n/a
432.4335	0.12	864867	keystroke_e	e	n/a
432.6435	0.135	865287	keystroke_g	g	n/a
432.7635	0.105	865527	keystroke_a	a	n/a
433.0035	0.105	866007	keystroke_s	s	n/a
433.2285	0.09	866457	keystroke_Key.space	Key.space	n/a
433.454	0.165	866908	keystroke_c	c	n/a
433.529	0.135	867058	keystroke_o	o	n/a
433.604	0.105	867208	keystroke_u	u	n/a
433.844	0.12	867688	keystroke_n	n	n/a
433.934	0.105	867868	keystroke_t	t	n/a
434.084	0.135	868168	keystroke_Key.space	Key.space	n/a
434.279	0.12	868558	keystroke_g	g	n/a
434.369	0.165	868738	keystroke_e	e	n/a
435.8235	0.12	871647	keystroke_o	o	n/a
436.0485	0.196	872097	keystroke_m	m	n/a
436.6485	0.135	873297	keystroke_e	e	n/a
436.9035	0.075	873807	keystroke_t	t	n/a
437.0985	0.135	874197	keystroke_r	r	n/a
437.2635	0.1655	874527	keystroke_y	y	n/a
437.3695	0.134	874739	keystroke_Key.space	Key.space	n/a
437.9535	0.105	875907	keystroke_j	j	n/a
438.1635	0.09	876327	keystroke_u	u	n/a
438.2835	0.135	876567	keystroke_c	c	n/a
438.5835	0.09	877167	keystroke_t	t	n/a
438.7185	0.105	877437	keystroke_i	i	n/a
438.8085	0.12	877617	keystroke_o	o	n/a
439.1085	0.075	878217	keystroke_Key.backspace	Key.backspace	n/a
439.2735	0.075	878547	keystroke_Key.backspace	Key.backspace	n/a
439.424	0.075	878848	keystroke_Key.backspace	Key.backspace	n/a
439.574	0.075	879148	keystroke_Key.backspace	Key.backspace	n/a
439.769	0.09	879538	keystroke_n	n	n/a
439.919	0.12	879838	keystroke_c	c	n/a
440.114	0.09	880228	keystroke_u	u	n/a
440.249	0.135	880498	keystroke_t	t	n/a
440.639	0.075	881278	keystroke_Key.backspace	Key.backspace	n/a
441.104	0.09	882208	keystroke_Key.backspace	Key.backspace	n/a
441.269	0.09	882538	keystroke_t	t	n/a
441.374	0.1495	882748	keystroke_i	i	n/a
441.5085	0.15	883017	keystroke_o	o	n/a
441.5835	0.195	883167	keystroke_n	n	n/a
441.8835	0.09	883767	keystroke_Key.enter	Key.enter	n/a
441.981	18.069	883962	prompt	n/a	identifier holdings introduces britannica\n
442.979	0.105	885958	keystroke_i	i	n/a
443.114	0.105	886228	keystroke_d	d	n/a
443.324	0.09	886648	keystroke_e	e	n/a
443.429	0.12	886858	keystroke_n	n	n/a
443.774	0.105	887548	keystroke_f	f	n/a
443.864	0.105	887728	keystroke_i	i	n/a
444.029	0.09	888058	keystroke_t	t	n/a
444.134	0.135	888268	keystroke_i	i	n/a
444.314	0.12	888628	keystroke_f	f	n/a
444.449	0.18	888898	keystroke_e	e	n/a
444.599	0.195	889198	keystroke_r	r	n/a
445.453	0.045	890906	keystroke_Key.backspace	Key.backspace	n/a
445.603	0.075	891206	keystroke_Key.backspace	Key.backspace	n/a
445.754	0.104	891508	keystroke_Key.backspace	Key.backspace	n/a
445.949	0.179	891898	keystroke_e	e	n/a
446.414	0.09	892828	keystroke_Key.backspace	Key.backspace	n/a
447.134	0.119	894268	keystroke_f	f	n/a
447.239	0.105	894478	keystroke_i	i	n/a
447.404	0.12	894808	keystroke_e	e	n/a
447.494	0.15	894988	keystroke_r	r	n/a
447.673	0.136	895346	keystroke_Key.space	Key.space	n/a
448.484	0.39	896968	keystroke_Key.backspace	Key.backspace	n/a
449.008	0.091	898016	keystroke_Key.backspace	Key.backspace	n/a
449.204	0.075	898408	keystroke_Key.backspace	Key.backspace	n/a
449.383	0.076	898766	keystroke_Key.backspace	Key.backspace	n/a
449.564	0.075	899128	keystroke_Key.backspace	Key.backspace	n/a
449.744	0.075	899488	keystroke_Key.backspace	Key.backspace	n/a
449.924	0.074	899848	keystroke_Key.backspace	Key.backspace	n/a
450.103	0.106	900206	keystroke_Key.backspace	Key.backspace	n/a
450.644	0.089	901288	keystroke_Key.backspace	Key.backspace	n/a
451.124	0.105	902248	keystroke_t	t	n/a
451.274	0.105	902548	keystroke_i	i	n/a
451.409	0.1355	902818	keystroke_f	f	n/a
451.5285	0.09	903057	keystroke_i	i	n/a
451.8435	0.12	903687	keystroke_e	e	n/a
451.9485	0.135	903897	keystroke_r	r	n/a
452.2335	0.12	904467	keystroke_Key.space	Key.space	n/a
452.564	0.12	905128	keystroke_h	h	n/a
452.623	0.121	905246	keystroke_o	o	n/a
452.848	0.121	905696	keystroke_l	l	n/a
452.9545	0.1035	905909	keystroke_d	d	n/a
453.073	0.1665	906146	keystroke_i	i	n/a
453.163	0.1655	906326	keystroke_n	n	n/a
453.2985	0.1345	906597	keystroke_g	g	n/a
453.419	0.15	906838	keystroke_s	s	n/a
453.584	0.12	907168	keystroke_Key.space	Key.space	n/a
453.884	0.18	907768	keystroke_i	i	n/a
453.989	0.12	907978	keystroke_n	n	n/a
454.154	0.075	908308	keystroke_t	t	n/a
454.334	0.09	908668	keystroke_r	r	n/a
454.439	0.12	908878	keystroke_o	o	n/a
454.574	0.105	909148	keystroke_d	d	n/a
454.664	0.12	909328	keystroke_u	u	n/a
454.799	0.09	909598	keystroke_c	c	n/a
455.024	0.121	910048	keystroke_e	e	n/a
455.129	0.1495	910258	keystroke_s	s	n/a
455.3535	0.1205	910707	keystroke_Key.space	Key.space	n/a
455.894	0.045	911788	keystroke_b	b	n/a
456.029	0.105	912058	keystroke_r	r	n/a
456.179	0.135	912358	keystroke_i	i	n/a
457.244	0.1345	914488	keystroke_t	t	n/a
457.349	0.165	914698	keystroke_a	a	n/a
457.634	0.135	915268	keystroke_n	n	n/a
457.904	0.15	915808	keystroke_n	n	n/a
458.039	0.165	916078	keystroke_i	i	n/a
458.234	0.135	916468	keystroke_a	a	n/a
459.419	0.09	918838	keystroke_Key.backspace	Key.backspace	n/a
459.494	0.12	918988	keystroke_c	c	n/a
459.584	0.15	919168	keystroke_a	a	n/a
459.974	0.075	919948	keystroke_Key.enter	Key.enter	n/a
460.057	6.083	920114	prompt	n/a	calm verizon aids collar\n
460.844	0.12	921688	keystroke_c	c	n/a
461.024	0.075	922048	keystroke_l	l	n/a
461.084	0.135	922168	keystroke_a	a	n/a
461.264	0.15	922528	keystroke_m	m	n/a
461.414	0.1345	922828	keystroke_Key.space	Key.space	n/a
461.7285	0.105	923457	keystroke_v	v	n/a
461.8185	0.165	923637	keystroke_e	e	n/a
461.9685	0.09	923937	keystroke_r	r	n/a
462.1185	0.105	924237	keystroke_i	i	n/a
462.3135	0.1505	924627	keystroke_z	z	n/a
462.433	0.135	924866	keystroke_o	o	n/a
462.523	0.121	925046	keystroke_n	n	n/a
462.614	0.104	925228	keystroke_Key.space	Key.space	n/a
462.838	0.105	925676	keystroke_a	a	n/a
463.004	0.105	926008	keystroke_i	i	n/a
463.094	0.104	926188	keystroke_d	d	n/a
463.498	0.1355	926996	keystroke_e	e	n/a
464.1135	0.075	928227	keystroke_Key.backspace	Key.backspace	n/a
464.2035	0.12	928407	keystroke_s	s	n/a
464.3535	0.12	928707	keystroke_Key.space	Key.space	n/a
464.5935	0.15	929187	keystroke_c	c	n/a
464.7135	0.09	929427	keystroke_o	o	n/a
464.9235	0.075	929847	keystroke_l	l	n/a
465.0885	0.15	930177	keystroke_l	l	n/a
465.2235	0.075	930447	keystroke_a	a	n/a
465.2835	0.135	930567	keystroke_r	r	n/a
466.004	0.135	932008	keystroke_Key.enter	Key.enter	n/a
466.1465	6.894	932293	prompt	n/a	label cafe long claim\n
466.829	0.12	933658	keystroke_l	l	n/a
466.949	0.105	933898	keystroke_a	a	n/a
467.354	0.0595	934708	keystroke_e	e	n/a
467.6685	0.06	935337	keystroke_Key.backspace	Key.backspace	n/a
467.7135	0.105	935427	keystroke_b	b	n/a
467.804	0.1345	935608	keystroke_e	e	n/a
467.9685	0.165	935937	keystroke_l	l	n/a
468.0735	0.15	936147	keystroke_Key.space	Key.space	n/a
468.5385	0.15	937077	keystroke_f	f	n/a
468.6435	0.12	937287	keystroke_a	a	n/a
468.9285	0.075	937857	keystroke_Key.backspace	Key.backspace	n/a
469.2135	0.015	938427	keystroke_Key.backspace	Key.backspace	n/a
469.2435	0.06	938487	keystroke_c	c	n/a
469.2735	0.105	938547	keystroke_a	a	n/a
469.4685	0.1505	938937	keystroke_f	f	n/a
469.604	0.135	939208	keystroke_e	e	n/a
469.874	0.135	939748	keystroke_Key.space	Key.space	n/a
470.159	0.09	940318	keystroke_l	l	n/a
470.354	0.15	940708	keystroke_o	o	n/a
470.459	0.165	940918	keystroke_n	n	n/a
470.549	0.12	941098	keystroke_g	g	n/a
470.684	0.12	941368	keystroke_Key.space	Key.space	n/a
470.849	0.12	941698	keystroke_c	c	n/a
470.924	0.12	941848	keystroke_l	l	n/a
471.134	0.105	942268	keystroke_a	a	n/a
471.224	0.135	942448	keystroke_i	i	n/a
471.299	0.21	942598	keystroke_m	m	n/a
472.918	0.12	945836	keystroke_Key.enter	Key.enter	n/a
473.0455	7.2545	946091	prompt	n/a	vegetable surrounding sessions dubai\n
473.8635	0.12	947727	keystroke_v	v	n/a
473.9685	0.196	947937	keystroke_e	e	n/a
474.3735	0.105	948747	keystroke_g	g	n/a
474.4795	0.135	948959	keystroke_e	e	n/a
475.1985	0.135	950397	keystroke_t	t	n/a
475.3185	0.12	950637	keystroke_a	a	n/a
475.5145	0.12	951029	keystroke_b	b	n/a
475.6635	0.135	951327	keystroke_l	l	n/a
475.7835	0.09	951567	keystroke_e	e	n/a
475.9185	0.09	951837	keystroke_Key.space	Key.space	n/a
475.9935	0.12	951987	keystroke_s	s	n/a
476.1435	0.09	952287	keystroke_u	u	n/a
476.4135	0.06	952827	keystroke_r	r	n/a
476.6085	0.09	953217	keystroke_r	r	n/a
476.7135	0.135	953427	keystroke_o	o	n/a
476.8035	0.075	953607	keystroke_u	u	n/a
477.0435	0.075	954087	keystroke_n	n	n/a
477.1035	0.12	954207	keystroke_d	d	n/a
477.2685	0.1795	954537	keystroke_i	i	n/a
477.3435	0.1955	954687	keystroke_n	n	n/a
477.478	0.09	954956	keystroke_g	g	n/a
477.584	0.1345	955168	keystroke_Key.space	Key.space	n/a
477.7635	0.135	955527	keystroke_s	s	n/a
477.8535	0.12	955707	keystroke_e	e	n/a
478.1385	0.09	956277	keystroke_s	s	n/a
478.3335	0.09	956667	keystroke_s	s	n/a
478.4085	0.12	956817	keystroke_i	i	n/a
478.4985	0.165	956997	keystroke_o	o	n/a
478.6035	0.15	957207	keystroke_n	n	n/a
478.7235	0.105	957447	keystroke_s	s	n/a
478.8435	0.135	957687	keystroke_Key.space	Key.space	n/a
479.0085	0.12	958017	keystroke_d	d	n/a
479.1585	0.106	958317	keystroke_u	u	n/a
479.5485	0.135	959097	keystroke_b	b	n/a
479.6685	0.135	959337	keystroke_a	a	n/a
479.9085	0.09	959817	keystroke_i	i	n/a
480.2235	0.075	960447	keystroke_Key.enter	Key.enter	n/a
480.306	6.3995	960612	prompt	n/a	investment intro sheep caught\n
481.0035	0.12	962007	keystroke_i	i	n/a
481.0935	0.135	962187	keystroke_n	n	n/a
481.2585	0.106	962517	keystroke_v	v	n/a
481.3485	0.15	962697	keystroke_e	e	n/a
481.4835	0.15	962967	keystroke_s	s	n/a
481.6035	0.135	963207	keystroke_t	t	n/a
481.7985	0.12	963597	keystroke_m	m	n/a
481.9035	0.12	963807	keystroke_e	e	n/a
482.0835	0.09	964167	keystroke_n	n	n/a
482.1745	0.119	964349	keystroke_t	t	n/a
482.3985	0.12	964797	keystroke_Key.space	Key.space	n/a
482.8035	0.18	965607	keystroke_i	i	n/a
482.9235	0.135	965847	keystroke_n	n	n/a
483.0885	0.09	966177	keystroke_t	t	n/a
483.2985	0.105	966597	keystroke_r	r	n/a
483.4485	0.135	966897	keystroke_o	o	n/a
483.5985	0.105	967197	keystroke_Key.space	Key.space	n/a
483.7185	0.12	967437	keystroke_s	s	n/a
483.8535	0.12	967707	keystroke_h	h	n/a
484.1085	0.09	968217	keystroke_e	e	n/a
484.3185	0.09	968637	keystroke_e	e	n/a
484.3935	0.15	968787	keystroke_p	p	n/a
484.4835	0.135	968967	keystroke_Key.space	Key.space	n/a
484.8135	0.09	969627	keystroke_c	c	n/a
484.8735	0.12	969747	keystroke_a	a	n/a
485.0235	0.09	970047	keystroke_u	u	n/a
485.3985	0.09	970797	keystroke_t	t	n/a
485.759	0.06	971518	keystroke_Key.backspace	Key.backspace	n/a
485.834	0.075	971668	keystroke_g	g	n/a
486.134	0.105	972268	keystroke_h	h	n/a
486.299	0.075	972598	keystroke_t	t	n/a
486.614	0.09	973228	keystroke_Key.enter	Key.enter	n/a
486.7105	7.66	973421	prompt	n/a	belly kinda recommendations deal\n
487.6185	0.0905	975237	keystroke_b	b	n/a
487.934	0.105	975868	keystroke_e	e	n/a
488.129	0.09	976258	keystroke_l	l	n/a
488.324	0.15	976648	keystroke_l	l	n/a
488.459	0.15	976918	keystroke_y	y	n/a
488.564	0.135	977128	keystroke_Key.space	Key.space	n/a
488.984	0.12	977968	keystroke_k	k	n/a
489.224	0.135	978448	keystroke_i	i	n/a
489.284	0.15	978568	keystroke_n	n	n/a
489.374	0.12	978748	keystroke_d	d	n/a
489.764	0.149	979528	keystroke_a	a	n/a
490.273	0.105	980546	keystroke_Key.space	Key.space	n/a
490.679	0.104	981358	keystroke_r	r	n/a
490.768	0.091	981536	keystroke_e	e	n/a
490.993	0.105	981986	keystroke_c	c	n/a
491.099	0.089	982198	keystroke_o	o	n/a
491.144	0.239	982288	keystroke_m	m	n/a
491.489	0.104	982978	keystroke_m	m	n/a
491.7435	0.105	983487	keystroke_e	e	n/a
491.8935	0.12	983787	keystroke_n	n	n/a
492.0585	0.12	984117	keystroke_d	d	n/a
492.1795	0.119	984359	keystroke_a	a	n/a
492.3435	0.1205	984687	keystroke_t	t	n/a
492.479	0.105	984958	keystroke_i	i	n/a
492.569	0.135	985138	keystroke_o	o	n/a
492.614	0.165	985228	keystroke_n	n	n/a
492.749	0.135	985498	keystroke_s	s	n/a
492.959	0.135	985918	keystroke_Key.space	Key.space	n/a
493.664	0.045	987328	keystroke_d	d	n/a
493.769	0.12	987538	keystroke_e	e	n/a
493.844	0.164	987688	keystroke_a	a	n/a
493.993	0.105	987986	keystroke_l	l	n/a
494.248	0.12	988496	keystroke_Key.enter	Key.enter	n/a
494.376	10.374	988752	prompt	n/a	choir operations plains barriers\n
495.073	0.166	990146	keystroke_c	c	n/a
495.328	0.136	990656	keystroke_h	h	n/a
495.479	0.134	990958	keystroke_o	o	n/a
495.7485	0.121	991497	keystroke_r	r	n/a
496.3485	0.075	992697	keystroke_Key.backspace	Key.backspace	n/a
496.5585	0.12	993117	keystroke_i	i	n/a
496.6635	0.105	993327	keystroke_r	r	n/a
496.9185	0.18	993837	keystroke_Key.space	Key.space	n/a
497.443	0.046	994886	keystroke_Key.backspace	Key.backspace	n/a
497.7435	0.12	995487	keystroke_Key.space	Key.space	n/a
498.0585	0.165	996117	keystroke_o	o	n/a
498.2085	0.135	996417	keystroke_p	p	n/a
498.3735	0.105	996747	keystroke_e	e	n/a
498.4495	0.179	996899	keystroke_r	r	n/a
498.5985	0.165	997197	keystroke_a	a	n/a
498.7485	0.12	997497	keystroke_t	t	n/a
498.8545	0.089	997709	keystroke_i	i	n/a
498.9135	0.195	997827	keystroke_o	o	n/a
499.0335	0.21	998067	keystroke_n	n	n/a
499.1835	0.165	998367	keystroke_s	s	n/a
499.6785	0.1205	999357	keystroke_Key.backspace	Key.backspace	n/a
499.904	0.105	999808	keystroke_Key.backspace	Key.backspace	n/a
500.759	0.1045	1001518	keystroke_n	n	n/a
500.8935	0.135	1001787	keystroke_s	s	n/a
501.0585	0.12	1002117	keystroke_Key.space	Key.space	n/a
501.3435	0.105	1002687	keystroke_p	p	n/a
501.5535	0.09	1003107	keystroke_l	l	n/a
501.6585	0.1055	1003317	keystroke_a	a	n/a
501.779	0.15	1003558	keystroke_i	i	n/a
501.869	0.164	1003738	keystroke_n	n	n/a
502.003	0.136	1004006	keystroke_s	s	n/a
502.213	0.12	1004426	keystroke_Key.space	Key.space	n/a
502.6935	0.12	1005387	keystroke_b	b	n/a
502.8285	0.15	1005657	keystroke_a	a	n/a
503.1585	0.09	1006317	keystroke_r	r	n/a
503.6685	0.0905	1007337	keystroke_r	r	n/a
503.864	0.09	1007728	keystroke_i	i	n/a
504.014	0.15	1008028	keystroke_e	e	n/a
504.119	0.135	1008238	keystroke_r	r	n/a
504.344	0.105	1008688	keystroke_s	s	n/a
504.658	0.09	1009316	keystroke_Key.enter	Key.enter	n/a
504.7555	6.6395	1009511	prompt	n/a	attach renewable theme battery\n
505.424	0.09	1010848	keystroke_a	a	n/a
505.484	0.105	1010968	keystroke_t	t	n/a
505.694	0.074	1011388	keystroke_t	t	n/a
505.709	0.134	1011418	keystroke_a	a	n/a
505.933	0.135	1011866	keystroke_c	c	n/a
506.128	0.136	1012256	keystroke_h	h	n/a
506.488	0.135	1012976	keystroke_Key.space	Key.space	n/a
506.698	0.105	1013396	keystroke_r	r	n/a
506.789	0.119	1013578	keystroke_e	e	n/a
507.089	0.104	1014178	keystroke_n	n	n/a
507.223	0.15	1014446	keystroke_e	e	n/a
507.329	0.1195	1014658	keystroke_w	w	n/a
507.6885	0.1805	1015377	keystroke_a	a	n/a
507.869	0.105	1015738	keystroke_b	b	n/a
508.049	0.12	1016098	keystroke_l	l	n/a
508.184	0.09	1016368	keystroke_e	e	n/a
508.319	0.12	1016638	keystroke_Key.space	Key.space	n/a
508.559	0.105	1017118	keystroke_t	t	n/a
508.679	0.075	1017358	keystroke_h	h	n/a
508.769	0.12	1017538	keystroke_e	e	n/a
508.904	0.15	1017808	keystroke_m	m	n/a
509.159	0.15	1018318	keystroke_e	e	n/a
509.429	0.12	1018858	keystroke_Key.space	Key.space	n/a
510.058	0.09	1020116	keystroke_b	b	n/a
510.179	0.12	1020358	keystroke_a	a	n/a
510.404	0.09	1020808	keystroke_t	t	n/a
510.628	0.12	1021256	keystroke_t	t	n/a
510.763	0.121	1021526	keystroke_e	e	n/a
510.868	0.21	1021736	keystroke_r	r	n/a
511.048	0.105	1022096	keystroke_y	y	n/a
511.289	0.104	1022578	keystroke_Key.enter	Key.enter	n/a
511.3995	8.2305	1022799	prompt	n/a	sync dosage result ocean\n
512.1135	0.105	1024227	keystroke_s	s	n/a
512.2485	0.075	1024497	keystroke_y	y	n/a
512.5035	0.15	1025007	keystroke_c	c	n/a
512.8185	0.12	1025637	keystroke_Key.space	Key.space	n/a
513.1335	0.06	1026267	keystroke_Key.backspace	Key.backspace	n/a
513.2835	0.1195	1026567	keystroke_Key.backspace	Key.backspace	n/a
513.6735	0.09	1027347	keystroke_n	n	n/a
513.7935	0.15	1027587	keystroke_c	c	n/a
514.0185	0.12	1028037	keystroke_Key.space	Key.space	n/a
514.514	0.105	1029028	keystroke_d	d	n/a
514.619	0.12	1029238	keystroke_o	o	n/a
514.784	0.06	1029568	keystroke_s	s	n/a
515.128	0.136	1030256	keystroke_a	a	n/a
515.324	0.119	1030648	keystroke_g	g	n/a
515.429	0.135	1030858	keystroke_e	e	n/a
515.653	0.1205	1031306	keystroke_Key.space	Key.space	n/a
516.1335	0.105	1032267	keystroke_r	r	n/a
516.2085	0.105	1032417	keystroke_e	e	n/a
516.4335	0.09	1032867	keystroke_s	s	n/a
516.5535	0.135	1033107	keystroke_u	u	n/a
516.6285	0.195	1033257	keystroke_l	l	n/a
516.8835	0.135	1033767	keystroke_e	e	n/a
517.1535	0.135	1034307	keystroke_Key.space	Key.space	n/a
517.5285	0.075	1035057	keystroke_Key.backspace	Key.backspace	n/a
517.6635	0.105	1035327	keystroke_Key.backspace	Key.backspace	n/a
517.7535	0.1055	1035507	keystroke_t	t	n/a
517.86	0.149	1035720	keystroke_Key.space	Key.space	n/a
518.069	0.15	1036138	keystroke_o	o	n/a
518.7585	0.105	1037517	keystroke_c	c	n/a
519.0135	0.135	1038027	keystroke_e	e	n/a
519.134	0.1345	1038268	keystroke_a	a	n/a
519.2835	0.12	1038567	keystroke_n	n	n/a
519.5235	0.105	1039047	keystroke_Key.enter	Key.enter	n/a
519.635	9.04	1039270	prompt	n/a	intervals muscles yamaha listprice\n
520.4385	0.18	1040877	keystroke_i	i	n/a
520.5435	0.165	1041087	keystroke_n	n	n/a
520.8435	0.105	1041687	keystroke_t	t	n/a
520.9185	0.18	1041837	keystroke_e	e	n/a
521.0685	0.105	1042137	keystroke_r	r	n/a
521.6835	0.1355	1043367	keystroke_v	v	n/a
521.834	0.12	1043668	keystroke_a	a	n/a
521.984	0.135	1043968	keystroke_l	l	n/a
522.134	0.105	1044268	keystroke_s	s	n/a
522.344	0.0895	1044688	keystroke_Key.space	Key.space	n/a
522.5685	0.105	1045137	keystroke_m	m	n/a
522.7935	0.075	1045587	keystroke_u	u	n/a
522.9135	0.09	1045827	keystroke_s	s	n/a
523.3785	0.09	1046757	keystroke_c	c	n/a
523.4985	0.12	1046997	keystroke_l	l	n/a
523.6635	0.1505	1047327	keystroke_e	e	n/a
523.828	0.18	1047656	keystroke_s	s	n/a
524.129	0.104	1048258	keystroke_Key.space	Key.space	n/a
524.534	0.075	1049068	keystroke_y	y	n/a
524.669	0.12	1049338	keystroke_a	a	n/a
524.894	0.104	1049788	keystroke_m	m	n/a
525.044	0.104	1050088	keystroke_a	a	n/a
525.284	0.12	1050568	keystroke_h	h	n/a
525.419	0.104	1050838	keystroke_a	a	n/a
525.614	0.105	1051228	keystroke_Key.space	Key.space	n/a
526.213	0.135	1052426	keystroke_l	l	n/a
526.273	0.195	1052546	keystroke_i	i	n/a
526.424	0.179	1052848	keystroke_s	s	n/a
526.618	0.135	1053236	keystroke_t	t	n/a
527.248	0.1355	1054496	keystroke_p	p	n/a
527.8035	0.1055	1055607	keystroke_r	r	n/a
527.924	0.104	1055848	keystroke_i	i	n/a
528.059	0.12	1056118	keystroke_c	c	n/a
528.284	0.105	1056568	keystroke_e	e	n/a
528.538	0.135	1057076	keystroke_Key.enter	Key.enter	n/a
528.6805	7.375	1057361	prompt	n/a	bangladesh tree naked overnight\n
529.589	0.12	1059178	keystroke_b	b	n/a
529.679	0.135	1059358	keystroke_a	a	n/a
529.828	0.106	1059656	keystroke_n	n	n/a
529.994	0.134	1059988	keystroke_g	g	n/a
530.218	0.15	1060436	keystroke_l	l	n/a
530.413	0.12	1060826	keystroke_a	a	n/a
530.984	0.059	1061968	keystroke_d	d	n/a
531.148	0.09	1062296	keystroke_e	e	n/a
531.464	0.12	1062928	keystroke_s	s	n/a
531.644	0.149	1063288	keystroke_h	h	n/a
531.763	0.12	1063526	keystroke_Key.space	Key.space	n/a
532.048	0.09	1064096	keystroke_t	t	n/a
532.243	0.09	1064486	keystroke_r	r	n/a
532.303	0.106	1064606	keystroke_e	e	n/a
532.484	0.12	1064968	keystroke_e	e	n/a
532.618	0.105	1065236	keystroke_Key.space	Key.space	n/a
532.844	0.075	1065688	keystroke_n	n	n/a
532.934	0.09	1065868	keystroke_a	a	n/a
533.069	0.12	1066138	keystroke_k	k	n/a
533.174	0.105	1066348	keystroke_e	e	n/a
534.0735	0.18	1068147	keystroke_d	d	n/a
534.3885	0.12	1068777	keystroke_Key.space	Key.space	n/a
534.6885	0.12	1069377	keystroke_o	o	n/a
