onset	duration	sample	value	key	prompt_text
11.357	0.089	22714	keystroke	a	n/a
11.761	0.1205	23522	keystroke	d	n/a
11.7765	0.09	23553	keystroke	s	n/a
11.8965	0.15	23793	keystroke	f	n/a
11.986	0.0755	23972	keystroke	a	n/a
12.0165	0.075	24033	keystroke	s	n/a
12.0315	0.075	24063	keystroke	d	n/a
12.6915	0.075	25383	keystroke	Key.backspace	n/a
12.8265	0.0745	25653	keystroke	Key.backspace	n/a
12.9765	0.0745	25953	keystroke	Key.backspace	n/a
13.156	0.0605	26312	keystroke	Key.backspace	n/a
13.2915	0.075	26583	keystroke	Key.backspace	n/a
13.456	0.06	26912	keystroke	Key.backspace	n/a
13.6215	0.06	27243	keystroke	Key.backspace	n/a
13.786	0.0455	27572	keystroke	Key.backspace	n/a
13.9065	0.09	27813	keystroke	Key.backspace	n/a
34.727	0.12	69454	keystroke	a	n/a
34.817	0.105	69634	keystroke	d	n/a
34.907	0.1045	69814	keystroke	a	n/a
34.982	0.0895	69964	keystroke	m	n/a
35.177	0.0745	70354	keystroke	b	n/a
39.932	0.3025	79864	keystroke	Key.cmd	n/a
40.142	0.1205	80284	keystroke	1	n/a
48.122	0.1655	96244	keystroke	Key.cmd	n/a
48.242	0.09	96484	keystroke	c	n/a
48.467	0.21	96934	keystroke	Key.cmd	n/a
48.5865	0.0605	97173	keystroke	2	n/a
49.847	0.195	99694	keystroke	Key.cmd	n/a
50.012	0.0595	100024	keystroke	v	n/a
54.6375	13.7965	109275	prompt	n/a	the quick brown fox jumps over a lazy dog\n
62.747	0.09	125494	keystroke	t	n/a
62.852	0.0755	125704	keystroke	h	n/a
62.942	0.06	125884	keystroke	e	n/a
63.002	0.09	126004	keystroke	Key.space	n/a
63.1525	0.1345	126305	keystroke	q	n/a
63.272	0.12	126544	keystroke	u	n/a
63.3325	0.0895	126665	keystroke	i	n/a
63.4365	0.1055	126873	keystroke	c	n/a
63.587	0.0905	127174	keystroke	k	n/a
63.6325	0.1345	127265	keystroke	Key.space	n/a
63.782	0.075	127564	keystroke	b	n/a
64.037	0.015	128074	keystroke	r	n/a
64.067	0.105	128134	keystroke	o	n/a
64.1575	0.0595	128315	keystroke	w	n/a
64.2475	0.1045	128495	keystroke	n	n/a
64.337	0.105	128674	keystroke	Key.space	n/a
64.8625	0.0595	129725	keystroke	f	n/a
64.937	0.105	129874	keystroke	o	n/a
65.087	0.06	130174	keystroke	x	n/a
65.177	0.12	130354	keystroke	Key.space	n/a
65.402	0.075	130804	keystroke	j	n/a
65.702	0.09	131404	keystroke	u	n/a
65.927	0.15	131854	keystroke	m	n/a
66.032	0.135	132064	keystroke	p	n/a
66.182	0.0755	132364	keystroke	s	n/a
66.287	0.135	132574	keystroke	Key.space	n/a
66.497	0.105	132994	keystroke	o	n/a
66.6165	0.0905	133233	keystroke	v	n/a
66.7975	0.1355	133595	keystroke	e	n/a
66.872	0.1055	133744	keystroke	r	n/a
66.9925	0.12	133985	keystroke	Key.space	n/a
67.1275	0.0895	134255	keystroke	a	n/a
67.232	0.105	134464	keystroke	Key.space	n/a
67.4125	0.0745	134825	keystroke	l	n/a
67.442	0.09	134884	keystroke	a	n/a
67.6375	0.1345	135275	keystroke	z	n/a
67.787	0.1055	135574	keystroke	y	n/a
67.877	0.12	135754	keystroke	Key.space	n/a
68.027	0.0905	136054	keystroke	d	n/a
68.147	0.0905	136294	keystroke	o	n/a
68.2675	0.0745	136535	keystroke	g	n/a
68.3575	0.075	136715	keystroke	Key.enter	n/a
68.4375	5.351	136875	prompt	n/a	caught adjustments annex humanity\n
69.0925	0.105	138185	keystroke	c	n/a
69.2125	0.12	138425	keystroke	a	n/a
69.3475	0.0445	138695	keystroke	u	n/a
69.4075	0.09	138815	keystroke	g	n/a
69.5125	0.1045	139025	keystroke	h	n/a
69.572	0.0755	139144	keystroke	t	n/a
69.6625	0.1345	139325	keystroke	Key.space	n/a
69.902	0.09	139804	keystroke	a	n/a
70.0225	0.1195	140045	keystroke	d	n/a
70.1275	0.0595	140255	keystroke	j	n/a
70.2625	0.09	140525	keystroke	u	n/a
70.3375	0.075	140675	keystroke	s	n/a
70.4125	0.09	140825	keystroke	t	n/a
70.6375	0.09	141275	keystroke	m	n/a
70.7575	0.075	141515	keystroke	e	n/a
70.8175	0.09	141635	keystroke	n	n/a
70.8925	0.075	141785	keystroke	t	n/a
71.0425	0.0745	142085	keystroke	s	n/a
71.1475	0.12	142295	keystroke	Key.space	n/a
71.3575	0.06	142715	keystroke	a	n/a
71.522	0.0605	143044	keystroke	n	n/a
71.642	0.1055	143284	keystroke	n	n/a
71.7475	0.06	143495	keystroke	e	n/a
71.9425	0.105	143885	keystroke	x	n/a
72.1075	0.12	144215	keystroke	Key.space	n/a
72.602	0.0905	145204	keystroke	h	n/a
72.7975	0.045	145595	keystroke	u	n/a
72.977	0.0605	145954	keystroke	m	n/a
73.0825	0.0895	146165	keystroke	a	n/a
73.1575	0.09	146315	keystroke	n	n/a
73.3225	0.105	146645	keystroke	i	n/a
73.4425	0.09	146885	keystroke	t	n/a
73.5475	0.0445	147095	keystroke	y	n/a
73.7125	0.0745	147425	keystroke	Key.enter	n/a
73.7915	9.0875	147583	prompt	n/a	champion didn't cruises options\n
74.387	0.0905	148774	keystroke	c	n/a
74.4325	0.09	148865	keystroke	h	n/a
74.7175	0.1055	149435	keystroke	a	n/a
75.272	0.1355	150544	keystroke	m	n/a
75.3775	0.2095	150755	keystroke	p	n/a
75.6175	0.105	151235	keystroke	o	n/a
76.1125	0.0745	152225	keystroke	Key.backspace	n/a
76.337	0.135	152674	keystroke	i	n/a
76.487	0.1655	152974	keystroke	o	n/a
76.6825	0.1045	153365	keystroke	n	n/a
76.802	0.1055	153604	keystroke	Key.space	n/a
76.9225	0.06	153845	keystroke	d	n/a
77.0125	0.0895	154025	keystroke	i	n/a
77.087	0.1205	154174	keystroke	d	n/a
77.1925	0.075	154385	keystroke	n	n/a
77.3425	0.105	154685	keystroke	'	n/a
77.462	0.0905	154924	keystroke	t	n/a
77.5825	0.1195	155165	keystroke	Key.space	n/a
77.852	0.0755	155704	keystroke	c	n/a
78.0325	0.0895	156065	keystroke	r	n/a
78.1375	0.1345	156275	keystroke	u	n/a
78.2275	0.0745	156455	keystroke	i	n/a
78.3175	0.09	156635	keystroke	s	n/a
78.5425	0.075	157085	keystroke	e	n/a
78.7075	0.09	157415	keystroke	s	n/a
78.8125	0.12	157625	keystroke	Key.space	n/a
79.0825	0.1195	158165	keystroke	o	n/a
79.2775	0.1045	158555	keystroke	t	n/a
79.787	0.0905	159574	keystroke	Key.backspace	n/a
80.2825	0.0605	160565	keystroke	[	n/a
81.3625	0.075	162725	keystroke	Key.backspace	n/a
81.8425	0.09	163685	keystroke	p	n/a
82.0375	0.075	164075	keystroke	t	n/a
82.202	0.1655	164404	keystroke	i	n/a
82.3525	0.195	164705	keystroke	o	n/a
82.502	0.1355	165004	keystroke	n	n/a
82.6675	0.09	165335	keystroke	s	n/a
82.772	0.106	165544	keystroke	Key.enter	n/a
82.882	7.2265	165764	prompt	n/a	hundreds genetics strategy browsing\n
84.213	0.0295	168426	keystroke	h	n/a
84.3325	0.06	168665	keystroke	u	n/a
84.5275	0.0745	169055	keystroke	n	n/a
84.6325	0.075	169265	keystroke	d	n/a
84.7825	0.1195	169565	keystroke	r	n/a
84.872	0.0605	169744	keystroke	e	n/a
85.323	0.0895	170646	keystroke	d	n/a
85.3975	0.1045	170795	keystroke	s	n/a
85.6225	0.075	171245	keystroke	Key.space	n/a
85.953	0.0445	171906	keystroke	g	n/a
86.0575	0.09	172115	keystroke	e	n/a
86.1625	0.105	172325	keystroke	n	n/a
86.2825	0.045	172565	keystroke	e	n/a
86.402	0.1055	172804	keystroke	t	n/a
86.6575	0.09	173315	keystroke	i	n/a
86.8225	0.1495	173645	keystroke	c	n/a
86.9125	0.105	173825	keystroke	s	n/a
87.077	0.1055	174154	keystroke	Key.space	n/a
87.348	0.0745	174696	keystroke	s	n/a
87.4825	0.075	174965	keystroke	t	n/a
87.6175	0.12	175235	keystroke	r	n/a
87.7525	0.21	175505	keystroke	a	n/a
87.887	0.1205	175774	keystroke	t	n/a
87.9925	0.105	175985	keystroke	e	n/a
88.2175	0.075	176435	keystroke	g	n/a
88.337	0.0905	176674	keystroke	y	n/a
88.4425	0.105	176885	keystroke	Key.space	n/a
88.8475	0.06	177695	keystroke	b	n/a
89.0275	0.09	178055	keystroke	r	n/a
89.1475	0.1355	178295	keystroke	o	n/a
89.2525	0.075	178505	keystroke	w	n/a
89.4475	0.15	178895	keystroke	s	n/a
89.6575	0.18	179315	keystroke	i	n/a
89.7475	0.135	179495	keystroke	n	n/a
89.8975	0.1045	179795	keystroke	g	n/a
90.0325	0.075	180065	keystroke	Key.enter	n/a
90.1115	8.802	180223	prompt	n/a	reception organized subaru conviction\n
90.947	0.0905	181894	keystroke	r	n/a
91.0225	0.09	182045	keystroke	e	n/a
91.2325	0.225	182465	keystroke	c	n/a
91.3825	0.135	182765	keystroke	e	n/a
91.5925	0.135	183185	keystroke	p	n/a
91.7425	0.09	183485	keystroke	t	n/a
91.8475	0.42	183695	keystroke	i	n/a
91.9825	0.225	183965	keystroke	o	n/a
92.8075	0.075	185615	keystroke	n	n/a
92.9275	0.0755	185855	keystroke	Key.space	n/a
93.753	0.1045	187506	keystroke	o	n/a
93.8275	0.0745	187655	keystroke	r	n/a
93.9925	0.09	187985	keystroke	g	n/a
94.097	0.075	188194	keystroke	a	n/a
94.202	0.1055	188404	keystroke	n	n/a
94.277	0.0905	188554	keystroke	i	n/a
94.3975	0.1045	188795	keystroke	z	n/a
94.6675	0.1205	189335	keystroke	e	n/a
94.8775	0.105	189755	keystroke	d	n/a
95.0575	0.075	190115	keystroke	Key.space	n/a
95.417	0.0905	190834	keystroke	s	n/a
95.5375	0.09	191075	keystroke	u	n/a
95.6575	0.09	191315	keystroke	b	n/a
95.8375	0.105	191675	keystroke	a	n/a
95.9125	0.075	191825	keystroke	r	n/a
96.1975	0.1045	192395	keystroke	u	n/a
96.5575	0.09	193115	keystroke	Key.space	n/a
97.1425	0.105	194285	keystroke	c	n/a
97.2325	0.12	194465	keystroke	o	n/a
97.2925	0.12	194585	keystroke	n	n/a
97.923	0.0595	195846	keystroke	v	n/a
97.9975	0.12	195995	keystroke	i	n/a
98.1925	0.075	196385	keystroke	c	n/a
98.4175	0.09	196835	keystroke	t	n/a
98.4925	0.1795	196985	keystroke	i	n/a
98.5525	0.1345	197105	keystroke	o	n/a
98.6275	0.09	197255	keystroke	n	n/a
98.8075	0.105	197615	keystroke	Key.enter	n/a
98.917	7.3915	197834	prompt	n/a	yarn sensors development modem\n
99.6175	0.06	199235	keystroke	y	n/a
99.7375	0.1345	199475	keystroke	a	n/a
99.7825	0.12	199565	keystroke	r	n/a
99.902	0.1355	199804	keystroke	n	n/a
100.0225	0.105	200045	keystroke	Key.space	n/a
100.202	0.0455	200404	keystroke	s	n/a
100.5775	0.075	201155	keystroke	e	n/a
100.6825	0.0895	201365	keystroke	n	n/a
100.8475	0.105	201695	keystroke	s	n/a
101.0125	0.105	202025	keystroke	o	n/a
101.1325	0.105	202265	keystroke	r	n/a
101.3125	0.105	202625	keystroke	s	n/a
101.4325	0.12	202865	keystroke	Key.space	n/a
101.7475	0.06	203495	keystroke	d	n/a
101.8525	0.09	203705	keystroke	e	n/a
102.018	0.1195	204036	keystroke	v	n/a
102.1225	0.09	204245	keystroke	e	n/a
102.258	0.0895	204516	keystroke	l	n/a
102.7525	0.1345	205505	keystroke	o	n/a
102.858	0.1195	205716	keystroke	p	n/a
103.278	0.0895	206556	keystroke	m	n/a
103.4125	0.105	206825	keystroke	e	n/a
103.472	0.0905	206944	keystroke	n	n/a
103.608	0.089	207216	keystroke	t	n/a
103.6525	0.1195	207305	keystroke	Key.space	n/a
104.4925	0.0755	208985	keystroke	n	n/a
104.568	0.1045	209136	keystroke	o	n/a
105.333	0.06	210666	keystroke	Key.backspace	n/a
105.4525	0.076	210905	keystroke	Key.backspace	n/a
105.663	0.12	211326	keystroke	m	n/a
105.753	0.1045	211506	keystroke	o	n/a
105.828	0.0745	211656	keystroke	d	n/a
105.978	0.0895	211956	keystroke	e	n/a
106.038	0.09	212076	keystroke	m	n/a
106.2025	0.105	212405	keystroke	Key.enter	n/a
106.3145	10.194	212629	prompt	n/a	quantitative certificate expect apartments\n
107.418	0.06	214836	keystroke	q	n/a
107.523	0.075	215046	keystroke	u	n/a
107.628	0.1345	215256	keystroke	a	n/a
107.733	0.12	215466	keystroke	n	n/a
107.883	0.0895	215766	keystroke	t	n/a
107.943	0.09	215886	keystroke	i	n/a
108.093	0.06	216186	keystroke	t	n/a
108.138	0.075	216276	keystroke	i	n/a
109.398	0.0595	218796	keystroke	Key.backspace	n/a
109.4875	0.1205	218975	keystroke	a	n/a
109.563	0.075	219126	keystroke	t	n/a
109.653	0.1345	219306	keystroke	i	n/a
109.7875	0.0905	219575	keystroke	v	n/a
109.878	0.09	219756	keystroke	e	n/a
110.163	0.12	220326	keystroke	Key.space	n/a
110.493	0.03	220986	keystroke	a	n/a
110.583	0.06	221166	keystroke	c	n/a
110.7025	0.12	221405	keystroke	e	n/a
110.793	0.045	221586	keystroke	r	n/a
111.108	0.06	222216	keystroke	Key.backspace	n/a
111.228	0.0745	222456	keystroke	Key.backspace	n/a
111.3775	0.0755	222755	keystroke	Key.backspace	n/a
111.528	0.09	223056	keystroke	Key.backspace	n/a
111.633	0.075	223266	keystroke	c	n/a
111.753	0.105	223506	keystroke	e	n/a
111.828	0.0595	223656	keystroke	r	n/a
111.978	0.0595	223956	keystroke	t	n/a
112.0525	0.0755	224105	keystroke	i	n/a
112.1725	0.0755	224345	keystroke	f	n/a
112.278	0.075	224556	keystroke	i	n/a
112.413	0.0895	224826	keystroke	c	n/a
112.7725	0.1955	225545	keystroke	a	n/a
112.938	0.105	225876	keystroke	t	n/a
112.998	0.1045	225996	keystroke	e	n/a
113.193	0.1045	226386	keystroke	Key.space	n/a
113.343	0.0445	226686	keystroke	e	n/a
113.6875	0.0905	227375	keystroke	x	n/a
113.883	0.1045	227766	keystroke	p	n/a
114.048	0.105	228096	keystroke	e	n/a
114.2875	0.0605	228575	keystroke	c	n/a
114.453	0.075	228906	keystroke	t	n/a
114.948	0.09	229896	keystroke	Key.space	n/a
115.1725	0.1055	230345	keystroke	a	n/a
115.308	0.105	230616	keystroke	p	n/a
115.5025	0.1355	231005	keystroke	a	n/a
115.608	0.075	231216	keystroke	r	n/a
115.758	0.09	231516	keystroke	t	n/a
115.8625	0.0455	231725	keystroke	m	n/a
115.983	0.1045	231966	keystroke	e	n/a
115.998	0.0745	231996	keystroke	n	n/a
116.163	0.075	232326	keystroke	t	n/a
116.298	0.105	232596	keystroke	s	n/a
116.433	0.0745	232866	keystroke	Key.enter	n/a
116.5115	5.0225	233023	prompt	n/a	adam steal regulation intend\n
117.093	0.09	234186	keystroke	a	n/a
117.198	0.1045	234396	keystroke	d	n/a
117.2875	0.0905	234575	keystroke	a	n/a
117.408	0.12	234816	keystroke	m	n/a
117.513	0.135	235026	keystroke	Key.space	n/a
117.768	0.12	235536	keystroke	s	n/a
118.128	0.105	236256	keystroke	t	n/a
118.218	0.09	236436	keystroke	e	n/a
118.398	0.12	236796	keystroke	a	n/a
118.623	0.12	237246	keystroke	l	n/a
118.743	0.12	237486	keystroke	Key.space	n/a
118.983	0.03	237966	keystroke	e	n/a
119.433	0.075	238866	keystroke	Key.backspace	n/a
119.508	0.06	239016	keystroke	r	n/a
119.539	0.089	239078	keystroke	e	n/a
119.7025	0.0755	239405	keystroke	g	n/a
119.808	0.135	239616	keystroke	u	n/a
119.928	0.12	239856	keystroke	l	n/a
120.078	0.15	240156	keystroke	a	n/a
120.213	0.0745	240426	keystroke	t	n/a
120.393	0.135	240786	keystroke	i	n/a
120.4075	0.1355	240815	keystroke	o	n/a
120.498	0.135	240996	keystroke	n	n/a
120.618	0.12	241236	keystroke	Key.space	n/a
120.798	0.1045	241596	keystroke	i	n/a
120.873	0.1045	241746	keystroke	n	n/a
120.948	0.165	241896	keystroke	t	n/a
121.068	0.09	242136	keystroke	e	n/a
121.218	0.1055	242436	keystroke	n	n/a
121.308	0.09	242616	keystroke	d	n/a
121.458	0.075	242916	keystroke	Key.enter	n/a
121.5365	6.507	243073	prompt	n/a	responding vampire impressed clearly\n
122.238	0.105	244476	keystroke	r	n/a
122.313	0.0895	244626	keystroke	e	n/a
122.463	0.09	244926	keystroke	s	n/a
122.6585	0.1345	245317	keystroke	p	n/a
122.883	0.165	245766	keystroke	o	n/a
122.9875	0.1055	245975	keystroke	n	n/a
123.123	0.105	246246	keystroke	d	n/a
123.198	0.165	246396	keystroke	i	n/a
123.2875	0.1055	246575	keystroke	n	n/a
123.378	0.0745	246756	keystroke	g	n/a
123.4675	0.09	246935	keystroke	Key.space	n/a
124.098	0.0895	248196	keystroke	v	n/a
124.2325	0.0905	248465	keystroke	a	n/a
124.413	0.165	248826	keystroke	m	n/a
124.548	0.12	249096	keystroke	p	n/a
124.8325	0.1055	249665	keystroke	i	n/a
124.9975	0.105	249995	keystroke	r	n/a
125.0725	0.0905	250145	keystroke	e	n/a
125.178	0.105	250356	keystroke	Key.space	n/a
125.4625	0.181	250925	keystroke	i	n/a
125.583	0.1195	251166	keystroke	m	n/a
125.6875	0.106	251375	keystroke	p	n/a
126.018	0.12	252036	keystroke	r	n/a
126.1075	0.1055	252215	keystroke	e	n/a
126.3935	0.0745	252787	keystroke	s	n/a
126.5875	0.0905	253175	keystroke	s	n/a
126.648	0.1045	253296	keystroke	e	n/a
126.858	0.06	253716	keystroke	d	n/a
126.933	0.135	253866	keystroke	Key.space	n/a
127.083	0.1045	254166	keystroke	c	n/a
127.158	0.135	254316	keystroke	l	n/a
127.278	0.1945	254556	keystroke	e	n/a
127.4875	0.1505	254975	keystroke	a	n/a
127.548	0.105	255096	keystroke	r	n/a
127.668	0.18	255336	keystroke	l	n/a
127.7875	0.0755	255575	keystroke	y	n/a
127.953	0.0895	255906	keystroke	Key.enter	n/a
128.0475	7.3315	256095	prompt	n/a	aluminum violin explosion notifications\n
128.643	0.105	257286	keystroke	a	n/a
128.748	0.135	257496	keystroke	l	n/a
128.823	0.09	257646	keystroke	u	n/a
129.033	0.075	258066	keystroke	m	n/a
129.2725	0.06	258545	keystroke	i	n/a
129.813	0.0595	259626	keystroke	n	n/a
129.978	0.06	259956	keystroke	u	n/a
130.1725	0.1055	260345	keystroke	m	n/a
130.263	0.12	260526	keystroke	Key.space	n/a
130.398	0.0745	260796	keystroke	v	n/a
130.4875	0.105	260975	keystroke	i	n/a
130.5635	0.0745	261127	keystroke	o	n/a
130.743	0.09	261486	keystroke	l	n/a
131.583	0.135	263166	keystroke	i	n/a
131.6875	0.1205	263375	keystroke	n	n/a
131.778	0.135	263556	keystroke	Key.space	n/a
132.063	0.045	264126	keystroke	e	n/a
132.243	0.0595	264486	keystroke	x	n/a
132.6625	0.0755	265325	keystroke	p	n/a
132.8875	0.0905	265775	keystroke	l	n/a
133.083	0.1045	266166	keystroke	o	n/a
133.428	0.0745	266856	keystroke	s	n/a
133.533	0.225	267066	keystroke	i	n/a
133.638	0.1345	267276	keystroke	o	n/a
133.728	0.1045	267456	keystroke	n	n/a
133.8175	0.1205	267635	keystroke	Key.space	n/a
133.998	0.1045	267996	keystroke	n	n/a
134.0725	0.12	268145	keystroke	o	n/a
134.208	0.0755	268416	keystroke	t	n/a
134.298	0.06	268596	keystroke	i	n/a
134.4025	0.0755	268805	keystroke	f	n/a
134.478	0.09	268956	keystroke	i	n/a
134.628	0.105	269256	keystroke	c	n/a
134.748	0.12	269496	keystroke	a	n/a
134.838	0.09	269676	keystroke	t	n/a
134.943	0.12	269886	keystroke	i	n/a
134.958	0.105	269916	keystroke	o	n/a
135.018	0.105	270036	keystroke	n	n/a
135.138	0.12	270276	keystroke	s	n/a
135.2725	0.1055	270545	keystroke	Key.enter	n/a
135.382	3.732	270764	prompt	n/a	adjust seeking lately ruth\n
135.918	0.105	271836	keystroke	a	n/a
136.068	0.1045	272136	keystroke	d	n/a
136.1875	0.0755	272375	keystroke	j	n/a
136.353	0.09	272706	keystroke	u	n/a
136.428	0.09	272856	keystroke	s	n/a
136.533	0.075	273066	keystroke	t	n/a
136.593	0.105	273186	keystroke	Key.space	n/a
136.8025	0.1055	273605	keystroke	s	n/a
136.923	0.0455	273846	keystroke	e	n/a
137.058	0.075	274116	keystroke	e	n/a
137.193	0.0755	274386	keystroke	k	n/a
137.343	0.18	274686	keystroke	i	n/a
137.418	0.12	274836	keystroke	n	n/a
137.508	0.09	275016	keystroke	g	n/a
137.569	0.1185	275138	keystroke	Key.space	n/a
137.719	0.089	275438	keystroke	l	n/a
137.793	0.1795	275586	keystroke	a	n/a
137.898	0.12	275796	keystroke	t	n/a
138.003	0.075	276006	keystroke	e	n/a
138.123	0.24	276246	keystroke	l	n/a
138.2135	0.0745	276427	keystroke	y	n/a
138.303	0.1205	276606	keystroke	Key.space	n/a
138.573	0.075	277146	keystroke	r	n/a
138.633	0.0755	277266	keystroke	u	n/a
138.783	0.0895	277566	keystroke	t	n/a
138.843	0.09	277686	keystroke	h	n/a
139.038	0.075	278076	keystroke	Key.enter	n/a
139.117	4.947	278234	prompt	n/a	seeing notice programs offer\n
139.6685	0.0595	279337	keystroke	a	n/a
140.028	0.075	280056	keystroke	Key.backspace	n/a
140.133	0.09	280266	keystroke	s	n/a
140.208	0.0905	280416	keystroke	e	n/a
140.388	0.06	280776	keystroke	e	n/a
140.553	0.1345	281106	keystroke	i	n/a
140.613	0.135	281226	keystroke	n	n/a
140.733	0.09	281466	keystroke	g	n/a
140.838	0.09	281676	keystroke	Key.space	n/a
141.1085	0.1345	282217	keystroke	n	n/a
141.1985	0.089	282397	keystroke	o	n/a
141.303	0.09	282606	keystroke	t	n/a
141.4235	0.1045	282847	keystroke	i	n/a
141.558	0.165	283116	keystroke	c	n/a
141.633	0.105	283266	keystroke	e	n/a
141.858	0.12	283716	keystroke	Key.space	n/a
142.143	0.0595	284286	keystroke	p	n/a
142.263	0.0755	284526	keystroke	r	n/a
142.338	0.135	284676	keystroke	o	n/a
142.458	0.0905	284916	keystroke	g	n/a
142.608	0.1205	285216	keystroke	r	n/a
142.7285	0.1045	285457	keystroke	a	n/a
142.923	0.135	285846	keystroke	m	n/a
143.0735	0.0745	286147	keystroke	s	n/a
143.163	0.1055	286326	keystroke	Key.space	n/a
143.3435	0.1045	286687	keystroke	o	n/a
143.433	0.0755	286866	keystroke	f	n/a
143.598	0.105	287196	keystroke	f	n/a
143.8085	0.1045	287617	keystroke	e	n/a
143.8685	0.105	287737	keystroke	r	n/a
143.988	0.075	287976	keystroke	Key.enter	n/a
144.067	4.032	288134	prompt	n/a	fitting gains climb feels\n
144.678	0.09	289356	keystroke	f	n/a
144.798	0.0605	289596	keystroke	i	n/a
144.873	0.075	289746	keystroke	t	n/a
145.0235	0.0745	290047	keystroke	t	n/a
145.113	0.1205	290226	keystroke	i	n/a
145.188	0.1055	290376	keystroke	n	n/a
145.248	0.09	290496	keystroke	g	n/a
145.323	0.1355	290646	keystroke	Key.space	n/a
145.6085	0.075	291217	keystroke	g	n/a
145.728	0.09	291456	keystroke	a	n/a
145.8335	0.1195	291667	keystroke	i	n/a
145.8935	0.1045	291787	keystroke	n	n/a
146.0135	0.0595	292027	keystroke	s	n/a
146.059	0.119	292118	keystroke	Key.space	n/a
146.268	0.12	292536	keystroke	c	n/a
146.373	0.075	292746	keystroke	l	n/a
146.8385	0.12	293677	keystroke	i	n/a
146.9135	0.1345	293827	keystroke	m	n/a
147.0335	0.105	294067	keystroke	b	n/a
147.1535	0.1345	294307	keystroke	Key.space	n/a
147.3935	0.135	294787	keystroke	f	n/a
147.4985	0.0895	294997	keystroke	e	n/a
147.6635	0.075	295327	keystroke	e	n/a
147.7985	0.1045	295597	keystroke	l	n/a
147.903	0.091	295806	keystroke	s	n/a
148.008	0.0905	296016	keystroke	Key.enter	n/a
148.102	10.662	296204	prompt	n/a	skins ain't destinations journalists\n
148.7585	0.075	297517	keystroke	s	n/a
148.8785	0.045	297757	keystroke	k	n/a
148.9985	0.1495	297997	keystroke	i	n/a
149.103	0.1055	298206	keystroke	n	n/a
149.1935	0.075	298387	keystroke	s	n/a
149.2835	0.15	298567	keystroke	Key.space	n/a
149.4485	0.09	298897	keystroke	a	n/a
149.5535	0.1195	299107	keystroke	i	n/a
149.6135	0.0745	299227	keystroke	n	n/a
149.7635	0.06	299527	keystroke	'	n/a
149.8535	0.0755	299707	keystroke	t	n/a
149.988	0.0905	299976	keystroke	Key.space	n/a
150.273	0.1205	300546	keystroke	d	n/a
150.4985	0.0745	300997	keystroke	e	n/a
150.6185	0.09	301237	keystroke	s	n/a
150.7235	0.06	301447	keystroke	t	n/a
151.2485	0.105	302497	keystroke	i	n/a
151.3085	0.105	302617	keystroke	n	n/a
151.4285	0.105	302857	keystroke	t	n/a
151.5485	0.105	303097	keystroke	a	n/a
151.6235	0.0745	303247	keystroke	t	n/a
151.6835	0.21	303367	keystroke	i	n/a
151.773	0.1955	303546	keystroke	o	n/a
151.8185	0.12	303637	keystroke	n	n/a
151.9985	0.0745	303997	keystroke	s	n/a
152.703	0.0455	305406	keystroke	Key.backspace	n/a
152.8385	0.03	305677	keystroke	Key.backspace	n/a
152.988	0.045	305976	keystroke	Key.backspace	n/a
153.2435	0.0595	306487	keystroke	Key.backspace	n/a
153.4685	0.045	306937	keystroke	Key.backspace	n/a
153.6485	0.06	307297	keystroke	Key.backspace	n/a
153.8135	0.0595	307627	keystroke	Key.backspace	n/a
154.0235	0.09	308047	keystroke	a	n/a
154.0685	0.09	308137	keystroke	t	n/a
154.203	0.1505	308406	keystroke	i	n/a
154.263	0.135	308526	keystroke	o	n/a
154.3385	0.12	308677	keystroke	n	n/a
154.4435	0.075	308887	keystroke	s	n/a
154.5785	0.105	309157	keystroke	Key.space	n/a
154.953	0.046	309906	keystroke	j	n/a
155.1185	0.045	310237	keystroke	u	n/a
155.2085	0.1645	310417	keystroke	o	n/a
155.2685	0.075	310537	keystroke	u	n/a
155.388	0.0755	310776	keystroke	r	n/a
155.538	0.0905	311076	keystroke	n	n/a
156.349	0.0595	312698	keystroke	Key.backspace	n/a
156.4685	0.06	312937	keystroke	Key.backspace	n/a
156.6185	0.075	313237	keystroke	Key.backspace	n/a
156.7835	0.0445	313567	keystroke	Key.backspace	n/a
156.9335	0.06	313867	keystroke	Key.backspace	n/a
157.173	0.0605	314346	keystroke	o	n/a
157.3685	0.075	314737	keystroke	u	n/a
157.533	0.0755	315066	keystroke	r	n/a
157.6835	0.0895	315367	keystroke	n	n/a
157.8785	0.045	315757	keystroke	a	n/a
158.0435	0.15	316087	keystroke	l	n/a
158.118	0.1355	316236	keystroke	i	n/a
158.2235	0.09	316447	keystroke	s	n/a
158.388	0.1055	316776	keystroke	t	n/a
158.5385	0.09	317077	keystroke	s	n/a
158.673	0.09	317346	keystroke	Key.enter	n/a
158.767	5.3825	317534	prompt	n/a	bound held daughter capable\n
159.4385	0.0595	318877	keystroke	b	n/a
159.513	0.1205	319026	keystroke	o	n/a
159.588	0.0455	319176	keystroke	u	n/a
159.7535	0.105	319507	keystroke	n	n/a
159.873	0.0755	319746	keystroke	d	n/a
159.9635	0.0745	319927	keystroke	Key.space	n/a
160.0685	0.075	320137	keystroke	h	n/a
160.2185	0.075	320437	keystroke	e	n/a
160.3535	0.075	320707	keystroke	l	n/a
160.473	0.0905	320946	keystroke	d	n/a
160.5785	0.135	321157	keystroke	Key.space	n/a
160.8335	0.075	321667	keystroke	d	n/a
160.9535	0.0745	321907	keystroke	u	n/a
161.028	0.12	322056	keystroke	a	n/a
161.2085	0.0895	322417	keystroke	g	n/a
161.313	0.09	322626	keystroke	h	n/a
161.4485	0.075	322897	keystroke	t	n/a
161.7485	0.1055	323497	keystroke	e	n/a
161.8385	0.06	323677	keystroke	r	n/a
161.943	0.1205	323886	keystroke	Key.space	n/a
163.2935	0.1045	326587	keystroke	c	n/a
163.3385	0.105	326677	keystroke	a	n/a
163.473	0.1355	326946	keystroke	p	n/a
163.5485	0.12	327097	keystroke	a	n/a
163.7435	0.075	327487	keystroke	b	n/a
163.8935	0.06	327787	keystroke	l	n/a
163.9685	0.09	327937	keystroke	e	n/a
164.088	0.0605	328176	keystroke	Key.enter	n/a
164.152	4.9475	328304	prompt	n/a	suse there'd burn essential\n
164.8985	0.06	329797	keystroke	s	n/a
164.9585	0.06	329917	keystroke	u	n/a
165.1685	0.09	330337	keystroke	s	n/a
165.303	0.1055	330606	keystroke	e	n/a
165.5135	0.12	331027	keystroke	Key.space	n/a
165.6785	0.06	331357	keystroke	t	n/a
165.7385	0.105	331477	keystroke	h	n/a
165.888	0.0905	331776	keystroke	e	n/a
165.9485	0.15	331897	keystroke	r	n/a
166.0835	0.06	332167	keystroke	e	n/a
166.3685	0.1195	332737	keystroke	'	n/a
166.503	0.0905	333006	keystroke	d	n/a
166.6235	0.12	333247	keystroke	Key.space	n/a
166.7585	0.105	333517	keystroke	b	n/a
166.9385	0.06	333877	keystroke	u	n/a
167.073	0.0755	334146	keystroke	r	n/a
167.1785	0.12	334357	keystroke	n	n/a
167.2835	0.1195	334567	keystroke	Key.space	n/a
167.4635	0.105	334927	keystroke	e	n/a
167.9135	0.0595	335827	keystroke	s	n/a
168.0785	0.165	336157	keystroke	s	n/a
168.2285	0.105	336457	keystroke	e	n/a
168.348	0.1055	336696	keystroke	n	n/a
168.4835	0.06	336967	keystroke	t	n/a
168.5585	0.12	337117	keystroke	i	n/a
168.709	0.1195	337418	keystroke	a	n/a
168.8435	0.0595	337687	keystroke	l	n/a
169.0235	0.075	338047	keystroke	Key.enter	n/a
169.102	5.6975	338204	prompt	n/a	parties lung humanitarian if\n
169.7285	0.105	339457	keystroke	p	n/a
169.8035	0.105	339607	keystroke	a	n/a
169.8785	0.075	339757	keystroke	r	n/a
170.0585	0.06	340117	keystroke	t	n/a
170.103	0.0905	340206	keystroke	i	n/a
170.2085	0.0745	340417	keystroke	e	n/a
170.3585	0.06	340717	keystroke	s	n/a
170.4635	0.105	340927	keystroke	Key.space	n/a
170.6285	0.15	341257	keystroke	l	n/a
170.7185	0.0755	341437	keystroke	u	n/a
170.9285	0.09	341857	keystroke	n	n/a
171.003	0.0755	342006	keystroke	g	n/a
171.094	0.1195	342188	keystroke	Key.space	n/a
171.8285	0.0445	343657	keystroke	h	n/a
172.009	0.0295	344018	keystroke	u	n/a
172.3235	0.06	344647	keystroke	a	n/a
172.7885	0.06	345577	keystroke	Key.backspace	n/a
172.9685	0.075	345937	keystroke	m	n/a
173.0585	0.105	346117	keystroke	a	n/a
173.179	0.0745	346358	keystroke	n	n/a
173.388	0.1205	346776	keystroke	i	n/a
173.8535	0.09	347707	keystroke	t	n/a
173.973	0.135	347946	keystroke	a	n/a
174.0935	0.165	348187	keystroke	r	n/a
174.3185	0.135	348637	keystroke	i	n/a
174.439	0.105	348878	keystroke	a	n/a
174.5585	0.075	349117	keystroke	n	n/a
174.7235	0.075	349447	keystroke	Key.enter	n/a
174.8025	6.237	349605	prompt	n/a	actively webcams waters drives\n
175.414	0.1345	350828	keystroke	a	n/a
175.5485	0.09	351097	keystroke	c	n/a
175.7435	0.075	351487	keystroke	t	n/a
175.803	0.0905	351606	keystroke	i	n/a
175.9385	0.1345	351877	keystroke	v	n/a
176.043	0.0905	352086	keystroke	e	n/a
176.1185	0.196	352237	keystroke	l	n/a
176.2235	0.105	352447	keystroke	y	n/a
176.2835	0.1045	352567	keystroke	Key.space	n/a
176.6285	0.0595	353257	keystroke	w	n/a
176.673	0.1205	353346	keystroke	e	n/a
176.8985	0.0745	353797	keystroke	b	n/a
177.1085	0.105	354217	keystroke	c	n/a
177.1835	0.0895	354367	keystroke	a	n/a
177.288	0.1205	354576	keystroke	m	n/a
177.4985	0.06	354997	keystroke	s	n/a
177.6185	0.105	355237	keystroke	Key.space	n/a
177.8135	0.0745	355627	keystroke	w	n/a
177.9935	0.105	355987	keystroke	a	n/a
178.0535	0.1195	356107	keystroke	t	n/a
178.2785	0.121	356557	keystroke	e	n/a
178.3385	0.105	356677	keystroke	r	n/a
178.473	0.1355	356946	keystroke	Key.space	n/a
178.8635	0.03	357727	keystroke	e	n/a
179.3285	0.09	358657	keystroke	Key.backspace	n/a
179.5535	0.09	359107	keystroke	Key.backspace	n/a
179.8235	0.0755	359647	keystroke	s	n/a
179.9285	0.12	359857	keystroke	Key.space	n/a
180.1085	0.09	360217	keystroke	d	n/a
180.2585	0.0755	360517	keystroke	r	n/a
180.364	0.0895	360728	keystroke	i	n/a
180.4685	0.1045	360937	keystroke	v	n/a
180.6185	0.12	361237	keystroke	e	n/a
180.8135	0.0895	361627	keystroke	s	n/a
180.9485	0.09	361897	keystroke	Key.enter	n/a
181.044	7.2855	362088	prompt	n/a	passion classes recruitment nominated\n
181.669	0.104	363338	keystroke	p	n/a
181.7435	0.1045	363487	keystroke	a	n/a
181.8185	0.105	363637	keystroke	s	n/a
182.0285	0.0595	364057	keystroke	s	n/a
182.239	0.194	364478	keystroke	i	n/a
182.3285	0.135	364657	keystroke	o	n/a
182.4185	0.09	364837	keystroke	n	n/a
182.4935	0.105	364987	keystroke	Key.space	n/a
182.6435	0.1355	365287	keystroke	c	n/a
182.794	0.0755	365588	keystroke	l	n/a
182.8385	0.12	365677	keystroke	a	n/a
182.9285	0.09	365857	keystroke	s	n/a
183.1535	0.09	366307	keystroke	s	n/a
183.3485	0.135	366697	keystroke	e	n/a
183.5585	0.075	367117	keystroke	s	n/a
183.708	0.1205	367416	keystroke	Key.space	n/a
184.5035	0.075	369007	keystroke	r	n/a
184.5635	0.0905	369127	keystroke	e	n/a
184.729	0.0595	369458	keystroke	c	n/a
184.8635	0.1055	369727	keystroke	r	n/a
184.9545	0.1335	369909	keystroke	u	n/a
185.0585	0.06	370117	keystroke	i	n/a
185.0735	0.105	370147	keystroke	t	n/a
185.2385	0.075	370477	keystroke	m	n/a
185.3585	0.06	370717	keystroke	e	n/a
185.4485	0.09	370897	keystroke	n	n/a
185.5235	0.09	371047	keystroke	t	n/a
185.6585	0.12	371317	keystroke	Key.space	n/a
186.3485	0.12	372697	keystroke	n	n/a
186.4535	0.1055	372907	keystroke	o	n/a
186.6035	0.12	373207	keystroke	m	n/a
186.709	0.1045	373418	keystroke	i	n/a
187.1885	0.045	374377	keystroke	n	n/a
187.714	0.1045	375428	keystroke	a	n/a
187.7885	0.1205	375577	keystroke	t	n/a
187.8935	0.09	375787	keystroke	e	n/a
188.0735	0.09	376147	keystroke	d	n/a
188.239	0.09	376478	keystroke	Key.enter	n/a
188.3325	11.1875	376665	prompt	n/a	quest myspace aluminium todd\n
189.544	0.1045	379088	keystroke	q	n/a
189.679	0.0745	379358	keystroke	u	n/a
189.769	0.0895	379538	keystroke	e	n/a
189.9035	0.12	379807	keystroke	s	n/a
190.0085	0.09	380017	keystroke	t	n/a
190.384	0.0895	380768	keystroke	Key.space	n/a
190.6685	0.12	381337	keystroke	m	n/a
190.9235	0.06	381847	keystroke	y	n/a
191.0735	0.0905	382147	keystroke	s	n/a
191.239	0.1495	382478	keystroke	p	n/a
191.344	0.0895	382688	keystroke	e	n/a
191.764	0.1045	383528	keystroke	a	n/a
192.0335	0.0455	384067	keystroke	Key.backspace	n/a
192.1385	0.075	384277	keystroke	Key.backspace	n/a
192.319	0.12	384638	keystroke	a	n/a
192.619	0.1495	385238	keystroke	c	n/a
192.709	0.0745	385418	keystroke	e	n/a
192.8135	0.105	385627	keystroke	Key.space	n/a
192.9485	0.1205	385897	keystroke	a	n/a
193.0835	0.12	386167	keystroke	l	n/a
193.1735	0.075	386347	keystroke	u	n/a
193.384	0.075	386768	keystroke	m	n/a
193.5485	0.1055	387097	keystroke	n	n/a
194.149	0.075	388298	keystroke	Key.backspace	n/a
194.344	0.0895	388688	keystroke	i	n/a
194.554	0.1195	389108	keystroke	n	n/a
194.839	0.06	389678	keystroke	u	n/a
195.409	0.06	390818	keystroke	Key.backspace	n/a
195.784	0.1345	391568	keystroke	i	n/a
195.8735	0.0755	391747	keystroke	u	n/a
196.069	0.0605	392138	keystroke	m	n/a
198.724	0.105	397448	keystroke	Key.space	n/a
198.919	0.075	397838	keystroke	t	n/a
199.0835	0.105	398167	keystroke	o	n/a
199.2035	0.0605	398407	keystroke	d	n/a
199.339	0.075	398678	keystroke	d	n/a
199.429	0.09	398858	keystroke	Key.enter	n/a
199.5225	6.3125	399045	prompt	n/a	mistakes them coating instrumental\n
200.1345	0.1045	400269	keystroke	m	n/a
200.209	0.105	400418	keystroke	i	n/a
200.524	0.06	401048	keystroke	s	n/a
200.659	0.09	401318	keystroke	t	n/a
200.8845	0.098	401769	keystroke	a	n/a
201.02	0.134	402040	keystroke	k	n/a
201.139	0.075	402278	keystroke	e	n/a
201.2885	0.0905	402577	keystroke	s	n/a
201.349	0.1505	402698	keystroke	Key.space	n/a
201.544	0.0745	403088	keystroke	t	n/a
201.6335	0.0905	403267	keystroke	h	n/a
201.844	0.09	403688	keystroke	a	n/a
202.219	0.0445	404438	keystroke	Key.backspace	n/a
202.2785	0.0755	404557	keystroke	e	n/a
202.399	0.135	404798	keystroke	m	n/a
202.519	0.12	405038	keystroke	Key.space	n/a
202.669	0.1195	405338	keystroke	c	n/a
202.759	0.09	405518	keystroke	o	n/a
202.879	0.1055	405758	keystroke	a	n/a
202.999	0.0895	405998	keystroke	t	n/a
203.149	0.135	406298	keystroke	i	n/a
203.239	0.09	406478	keystroke	n	n/a
203.2985	0.09	406597	keystroke	g	n/a
203.4035	0.1205	406807	keystroke	Key.space	n/a
203.6735	0.1205	407347	keystroke	i	n/a
203.764	0.105	407528	keystroke	n	n/a
203.884	0.03	407768	keystroke	s	n/a
203.9735	0.0755	407947	keystroke	t	n/a
204.124	0.0745	408248	keystroke	r	n/a
204.214	0.0595	408428	keystroke	u	n/a
204.394	0.075	408788	keystroke	m	n/a
204.484	0.075	408968	keystroke	e	n/a
205.099	0.0895	410198	keystroke	n	n/a
205.234	0.09	410468	keystroke	t	n/a
205.384	0.0895	410768	keystroke	a	n/a
205.564	0.09	411128	keystroke	l	n/a
205.7885	0.0455	411577	keystroke	Key.enter	n/a
205.838	6.162	411676	prompt	n/a	zoning newton watches bolt\n
206.599	0.12	413198	keystroke	z	n/a
206.794	0.09	413588	keystroke	o	n/a
207.169	0.045	414338	keystroke	i	n/a
207.199	0.0895	414398	keystroke	n	n/a
207.5885	0.0455	415177	keystroke	Key.backspace	n/a
207.679	0.075	415358	keystroke	Key.backspace	n/a
207.8735	0.0755	415747	keystroke	n	n/a
208.009	0.12	416018	keystroke	i	n/a
208.099	0.0745	416198	keystroke	n	n/a
208.2035	0.0905	416407	keystroke	g	n/a
208.279	0.12	416558	keystroke	Key.space	n/a
208.459	0.09	416918	keystroke	n	n/a
208.564	0.15	417128	keystroke	e	n/a
208.6685	0.0905	417337	keystroke	w	n/a
208.864	0.09	417728	keystroke	t	n/a
208.999	0.12	417998	keystroke	o	n/a
209.1035	0.1055	418207	keystroke	n	n/a
209.224	0.1195	418448	keystroke	Key.space	n/a
209.464	0.075	418928	keystroke	w	n/a
209.599	0.1045	419198	keystroke	a	n/a
209.6735	0.0605	419347	keystroke	t	n/a
209.9735	0.0755	419947	keystroke	h	n/a
210.259	0.075	420518	keystroke	Key.backspace	n/a
210.319	0.12	420638	keystroke	c	n/a
210.469	0.09	420938	keystroke	h	n/a
210.5735	0.075	421147	keystroke	e	n/a
210.7245	0.1045	421449	keystroke	s	n/a
210.844	0.105	421688	keystroke	Key.space	n/a
211.084	0.1195	422168	keystroke	b	n/a
211.2185	0.045	422437	keystroke	o	n/a
211.384	0.1195	422768	keystroke	l	n/a
211.519	0.075	423038	keystroke	t	n/a
211.909	0.09	423818	keystroke	Key.enter	n/a
212.0025	6.2975	424005	prompt	n/a	findlaw nvidia nest requesting\n
213.0035	0.0755	426007	keystroke	f	n/a
213.109	0.135	426218	keystroke	i	n/a
213.184	0.1195	426368	keystroke	n	n/a
213.2735	0.0755	426547	keystroke	d	n/a
213.454	0.09	426908	keystroke	l	n/a
213.6035	0.1205	427207	keystroke	a	n/a
213.679	0.09	427358	keystroke	w	n/a
213.859	0.105	427718	keystroke	Key.space	n/a
214.3985	0.105	428797	keystroke	n	n/a
214.519	0.06	429038	keystroke	v	n/a
214.684	0.0895	429368	keystroke	i	n/a
215.0585	0.0905	430117	keystroke	d	n/a
215.179	0.105	430358	keystroke	i	n/a
215.254	0.105	430508	keystroke	a	n/a
215.7635	0.1355	431527	keystroke	Key.space	n/a
216.094	0.09	432188	keystroke	n	n/a
216.199	0.1045	432398	keystroke	e	n/a
216.394	0.135	432788	keystroke	s	n/a
216.514	0.105	433028	keystroke	t	n/a
216.634	0.12	433268	keystroke	Key.space	n/a
217.1885	0.0755	434377	keystroke	r	n/a
217.234	0.09	434468	keystroke	e	n/a
217.294	0.12	434588	keystroke	q	n/a
217.445	0.104	434890	keystroke	u	n/a
217.519	0.09	435038	keystroke	e	n/a
217.654	0.1195	435308	keystroke	s	n/a
217.759	0.105	435518	keystroke	t	n/a
217.849	0.15	435698	keystroke	i	n/a
217.939	0.1345	435878	keystroke	n	n/a
218.059	0.0895	436118	keystroke	g	n/a
218.224	0.075	436448	keystroke	Key.enter	n/a
218.3045	5.2755	436609	prompt	n/a	exists agreed tribal hormone\n
218.9735	0.0605	437947	keystroke	e	n/a
219.3035	0.1055	438607	keystroke	x	n/a
219.529	0.105	439058	keystroke	i	n/a
219.694	0.135	439388	keystroke	s	n/a
219.859	0.09	439718	keystroke	t	n/a
219.964	0.06	439928	keystroke	s	n/a
220.129	0.0895	440258	keystroke	Key.space	n/a
220.309	0.12	440618	keystroke	a	n/a
220.429	0.0745	440858	keystroke	g	n/a
220.639	0.09	441278	keystroke	r	n/a
220.699	0.0895	441398	keystroke	e	n/a
220.879	0.075	441758	keystroke	e	n/a
221.059	0.1055	442118	keystroke	d	n/a
221.194	0.105	442388	keystroke	Key.space	n/a
221.359	0.09	442718	keystroke	t	n/a
221.554	0.06	443108	keystroke	r	n/a
221.644	0.105	443288	keystroke	i	n/a
221.779	0.075	443558	keystroke	b	n/a
222.004	0.045	444008	keystroke	a	n/a
222.1085	0.1355	444217	keystroke	l	n/a
222.229	0.105	444458	keystroke	Key.space	n/a
222.469	0.09	444938	keystroke	h	n/a
222.634	0.1195	445268	keystroke	o	n/a
222.769	0.1045	445538	keystroke	r	n/a
222.8885	0.0905	445777	keystroke	m	n/a
223.144	0.0295	446288	keystroke	o	n/a
223.159	0.075	446318	keystroke	n	n/a
223.294	0.0895	446588	keystroke	e	n/a
223.504	0.075	447008	keystroke	Key.enter	n/a
223.583	9.1615	447166	prompt	n/a	plan coupled alabama packets\n
224.4035	0.1055	448807	keystroke	p	n/a
224.584	0.1345	449168	keystroke	l	n/a
224.6585	0.12	449317	keystroke	a	n/a
224.824	0.12	449648	keystroke	n	n/a
224.929	0.12	449858	keystroke	Key.space	n/a
225.184	0.1195	450368	keystroke	c	n/a
226.0845	0.15	452169	keystroke	o	n/a
226.744	0.0595	453488	keystroke	i	n/a
226.999	0.1045	453998	keystroke	p	n/a
227.3735	0.0605	454747	keystroke	Key.backspace	n/a
227.464	0.1055	454928	keystroke	Key.backspace	n/a
227.719	0.105	455438	keystroke	u	n/a
227.944	0.09	455888	keystroke	p	n/a
228.364	0.09	456728	keystroke	l	n/a
228.5135	0.06	457027	keystroke	e	n/a
228.679	0.105	457358	keystroke	d	n/a
228.814	0.12	457628	keystroke	Key.space	n/a
229.354	0.1195	458708	keystroke	a	n/a
229.444	0.12	458888	keystroke	l	n/a
229.549	0.1195	459098	keystroke	a	n/a
229.759	0.0895	459518	keystroke	b	n/a
229.969	0.1045	459938	keystroke	a	n/a
230.344	0.135	460688	keystroke	m	n/a
230.4335	0.1205	460867	keystroke	a	n/a
230.584	0.1195	461168	keystroke	Key.space	n/a
231.634	0.105	463268	keystroke	p	n/a
231.7085	0.1205	463417	keystroke	a	n/a
231.814	0.135	463628	keystroke	c	n/a
231.934	0.105	463868	keystroke	k	n/a
232.069	0.1345	464138	keystroke	e	n/a
232.159	0.105	464318	keystroke	t	n/a
232.369	0.1045	464738	keystroke	s	n/a
232.6395	0.104	465279	keystroke	Key.enter	n/a
232.7475	5.8625	465495	prompt	n/a	needed myself mineral hours\n
233.419	0.105	466838	keystroke	n	n/a
233.539	0.075	467078	keystroke	e	n/a
233.6885	0.0755	467377	keystroke	e	n/a
233.884	0.06	467768	keystroke	d	n/a
234.019	0.075	468038	keystroke	e	n/a
234.199	0.075	468398	keystroke	d	n/a
234.2885	0.0905	468577	keystroke	Key.space	n/a
234.439	0.09	468878	keystroke	m	n/a
234.649	0.09	469298	keystroke	y	n/a
234.784	0.1045	469568	keystroke	s	n/a
234.8735	0.0755	469747	keystroke	e	n/a
234.979	0.15	469958	keystroke	f	n/a
235.534	0.075	471068	keystroke	Key.backspace	n/a
235.729	0.105	471458	keystroke	l	n/a
235.849	0.105	471698	keystroke	f	n/a
235.939	0.12	471878	keystroke	Key.space	n/a
236.1785	0.0905	472357	keystroke	m	n/a
236.314	0.135	472628	keystroke	i	n/a
236.419	0.105	472838	keystroke	n	n/a
236.629	0.165	473258	keystroke	e	n/a
236.779	0.15	473558	keystroke	r	n/a
236.944	0.075	473888	keystroke	a	n/a
237.199	0.1195	474398	keystroke	l	n/a
237.319	0.105	474638	keystroke	Key.space	n/a
237.604	0.12	475208	keystroke	h	n/a
238.009	0.1355	476018	keystroke	o	n/a
238.084	0.075	476168	keystroke	u	n/a
238.2035	0.0905	476407	keystroke	r	n/a
238.384	0.0895	476768	keystroke	s	n/a
238.534	0.075	477068	keystroke	Key.enter	n/a
238.613	5.997	477226	prompt	n/a	french standings raises encounter\n
239.2845	0.0295	478569	keystroke	f	n/a
239.404	0.091	478808	keystroke	r	n/a
239.479	0.105	478958	keystroke	e	n/a
239.659	0.06	479318	keystroke	n	n/a
239.779	0.1355	479558	keystroke	c	n/a
239.8545	0.1045	479709	keystroke	h	n/a
239.9735	0.1055	479947	keystroke	Key.space	n/a
240.094	0.0905	480188	keystroke	s	n/a
240.199	0.0745	480398	keystroke	t	n/a
240.319	0.09	480638	keystroke	a	n/a
240.394	0.135	480788	keystroke	n	n/a
240.5885	0.0905	481177	keystroke	d	n/a
240.754	0.1195	481508	keystroke	i	n/a
240.784	0.15	481568	keystroke	n	n/a
240.919	0.12	481838	keystroke	g	n/a
241.009	0.06	482018	keystroke	s	n/a
241.114	0.12	482228	keystroke	Key.space	n/a
241.2795	0.0745	482559	keystroke	r	n/a
241.369	0.1195	482738	keystroke	a	n/a
241.5035	0.1355	483007	keystroke	i	n/a
241.654	0.105	483308	keystroke	s	n/a
241.924	0.075	483848	keystroke	s	n/a
242.2395	0.0905	484479	keystroke	Key.backspace	n/a
242.344	0.0445	484688	keystroke	e	n/a
242.659	0.09	485318	keystroke	s	n/a
242.794	0.105	485588	keystroke	Key.space	n/a
243.0645	0.0745	486129	keystroke	e	n/a
243.169	0.06	486338	keystroke	n	n/a
243.274	0.12	486548	keystroke	c	n/a
243.619	0.15	487238	keystroke	o	n/a
243.649	0.105	487298	keystroke	u	n/a
243.8885	0.1205	487777	keystroke	n	n/a
244.129	0.09	488258	keystroke	t	n/a
244.324	0.105	488648	keystroke	e	n/a
244.384	0.0895	488768	keystroke	r	n/a
244.5185	0.0905	489037	keystroke	Key.enter	n/a
244.613	8.1575	489226	prompt	n/a	offerings activation romania beijing\n
246.454	0.075	492908	keystroke	o	n/a
246.619	0.075	493238	keystroke	f	n/a
246.769	0.105	493538	keystroke	f	n/a
246.949	0.12	493898	keystroke	e	n/a
247.039	0.105	494078	keystroke	r	n/a
247.1885	0.1055	494377	keystroke	i	n/a
247.25	0.1195	494500	keystroke	n	n/a
247.309	0.105	494618	keystroke	g	n/a
247.3545	0.1045	494709	keystroke	s	n/a
247.4885	0.1055	494977	keystroke	Key.space	n/a
247.624	0.135	495248	keystroke	a	n/a
247.744	0.075	495488	keystroke	c	n/a
247.909	0.06	495818	keystroke	t	n/a
247.9995	0.0745	495999	keystroke	i	n/a
248.089	0.12	496178	keystroke	v	n/a
248.254	0.12	496508	keystroke	a	n/a
248.344	0.075	496688	keystroke	t	n/a
248.4345	0.1645	496869	keystroke	i	n/a
248.494	0.135	496988	keystroke	o	n/a
248.5695	0.119	497139	keystroke	n	n/a
248.6595	0.1195	497319	keystroke	Key.space	n/a
248.929	0.09	497858	keystroke	r	n/a
249.049	0.1205	498098	keystroke	o	n/a
249.139	0.1055	498278	keystroke	m	n/a
249.244	0.1055	498488	keystroke	a	n/a
249.6195	0.0895	499239	keystroke	n	n/a
249.784	0.1045	499568	keystroke	i	n/a
249.934	0.0755	499868	keystroke	a	n/a
250.024	0.09	500048	keystroke	Key.space	n/a
250.474	0.075	500948	keystroke	b	n/a
250.804	0.075	501608	keystroke	e	n/a
251.2095	0.075	502419	keystroke	i	n/a
251.4795	0.0745	502959	keystroke	l	n/a
251.7945	0.0445	503589	keystroke	Key.backspace	n/a
251.989	0.06	503978	keystroke	j	n/a
252.139	0.135	504278	keystroke	i	n/a
252.2295	0.12	504459	keystroke	n	n/a
252.439	0.09	504878	keystroke	g	n/a
252.7095	0.06	505419	keystroke	Key.enter	n/a
252.7735	6.792	505547	prompt	n/a	mainly michigan paths pretty\n
253.519	0.0905	507038	keystroke	m	n/a
253.5945	0.105	507189	keystroke	a	n/a
253.7145	0.135	507429	keystroke	i	n/a
253.789	0.1055	507578	keystroke	n	n/a
254.074	0.1505	508148	keystroke	l	n/a
254.1645	0.075	508329	keystroke	y	n/a
254.254	0.1055	508508	keystroke	Key.space	n/a
254.8095	0.105	509619	keystroke	m	n/a
254.9295	0.135	509859	keystroke	i	n/a
255.334	0.0905	510668	keystroke	c	n/a
255.4395	0.075	510879	keystroke	h	n/a
255.5145	0.075	511029	keystroke	i	n/a
255.7695	0.09	511539	keystroke	g	n/a
255.904	0.1055	511808	keystroke	a	n/a
256.0095	0.12	512019	keystroke	n	n/a
256.1145	0.135	512229	keystroke	Key.space	n/a
256.3545	0.105	512709	keystroke	p	n/a
256.4445	0.09	512889	keystroke	a	n/a
256.5195	0.075	513039	keystroke	t	n/a
256.6545	0.105	513309	keystroke	h	n/a
256.789	0.0755	513578	keystroke	s	n/a
256.8945	0.12	513789	keystroke	Key.space	n/a
257.225	0.089	514450	keystroke	r	n/a
257.5845	0.045	515169	keystroke	Key.backspace	n/a
257.8395	0.1195	515679	keystroke	p	n/a
258.0795	0.105	516159	keystroke	r	n/a
258.1395	0.105	516279	keystroke	e	n/a
258.5295	0.0595	517059	keystroke	t	n/a
258.7245	0.06	517449	keystroke	y	n/a
259.0245	0.09	518049	keystroke	Key.backspace	n/a
259.0995	0.0895	518199	keystroke	t	n/a
259.2495	0.09	518499	keystroke	y	n/a
259.474	0.0905	518948	keystroke	Key.enter	n/a
259.5685	7.5265	519137	prompt	n/a	perception ultram spears bras\n
260.344	0.0905	520688	keystroke	p	n/a
260.7645	0.15	521529	keystroke	r	n/a
261.1845	0.06	522369	keystroke	Key.backspace	n/a
261.2595	0.12	522519	keystroke	e	n/a
261.3645	0.105	522729	keystroke	r	n/a
261.9645	0.165	523929	keystroke	c	n/a
262.1445	0.1195	524289	keystroke	e	n/a
262.295	0.1195	524590	keystroke	p	n/a
262.504	0.091	525008	keystroke	t	n/a
262.6545	0.165	525309	keystroke	i	n/a
262.7595	0.165	525519	keystroke	o	n/a
262.8795	0.1345	525759	keystroke	n	n/a
263.014	0.1505	526028	keystroke	Key.space	n/a
263.374	0.0905	526748	keystroke	u	n/a
263.5695	0.09	527139	keystroke	l	n/a
263.7945	0.09	527589	keystroke	t	n/a
263.974	0.1205	527948	keystroke	r	n/a
264.0495	0.0895	528099	keystroke	a	n/a
264.2595	0.135	528519	keystroke	m	n/a
264.4695	0.1045	528939	keystroke	Key.space	n/a
264.874	0.06	529748	keystroke	s	n/a
264.9645	0.12	529929	keystroke	p	n/a
265.0695	0.18	530139	keystroke	e	n/a
265.2645	0.09	530529	keystroke	a	n/a
265.2945	0.12	530589	keystroke	r	n/a
265.474	0.1355	530948	keystroke	s	n/a
265.624	0.1205	531248	keystroke	Key.space	n/a
265.8195	0.075	531639	keystroke	b	n/a
266.0295	0.09	532059	keystroke	r	n/a
266.2245	0.105	532449	keystroke	a	n/a
266.449	0.0905	532898	keystroke	s	n/a
267.0495	0.045	534099	keystroke	Key.enter	n/a
267.0985	5.832	534197	prompt	n/a	theory ebook declared street\n
267.8145	0.0895	535629	keystroke	t	n/a
267.889	0.0755	535778	keystroke	h	n/a
267.979	0.1055	535958	keystroke	e	n/a
268.1295	0.0745	536259	keystroke	o	n/a
268.249	0.0905	536498	keystroke	r	n/a
268.3695	0.1045	536739	keystroke	y	n/a
268.5195	0.105	537039	keystroke	Key.space	n/a
268.9695	0.06	537939	keystroke	e	n/a
269.1795	0.075	538359	keystroke	b	n/a
269.704	0.0605	539408	keystroke	o	n/a
269.8695	0.1195	539739	keystroke	o	n/a
269.9445	0.135	539889	keystroke	k	n/a
270.0945	0.0905	540189	keystroke	Key.space	n/a
270.4095	0.03	540819	keystroke	d	n/a
270.514	0.06	541028	keystroke	e	n/a
270.6495	0.12	541299	keystroke	c	n/a
270.7995	0.135	541599	keystroke	l	n/a
270.9495	0.1355	541899	keystroke	a	n/a
271.039	0.135	542078	keystroke	r	n/a
271.1595	0.075	542319	keystroke	e	n/a
271.3395	0.09	542679	keystroke	d	n/a
271.474	0.0905	542948	keystroke	Key.space	n/a
271.6845	0.045	543369	keystroke	t	n/a
271.9695	0.0595	543939	keystroke	Key.backspace	n/a
271.9995	0.1045	543999	keystroke	s	n/a
272.1495	0.075	544299	keystroke	t	n/a
272.2995	0.1045	544599	keystroke	r	n/a
272.389	0.0455	544778	keystroke	e	n/a
272.5245	0.09	545049	keystroke	e	n/a
272.674	0.1055	545348	keystroke	t	n/a
272.8245	0.105	545649	keystroke	Key.enter	n/a
272.935	5.8605	545870	prompt	n/a	food proved india trash\n
273.77	0.0595	547540	keystroke	f	n/a
273.874	0.075	547748	keystroke	o	n/a
274.0245	0.105	548049	keystroke	o	n/a
274.0845	0.0895	548169	keystroke	d	n/a
274.189	0.1055	548378	keystroke	Key.space	n/a
274.355	0.119	548710	keystroke	p	n/a
274.474	0.0605	548948	keystroke	r	n/a
274.5645	0.135	549129	keystroke	o	n/a
274.7595	0.105	549519	keystroke	v	n/a
275.1345	0.06	550269	keystroke	d	n/a
275.2995	0.045	550599	keystroke	e	n/a
275.6145	0.0595	551229	keystroke	Key.backspace	n/a
275.7345	0.075	551469	keystroke	Key.backspace	n/a
275.8545	0.075	551709	keystroke	e	n/a
276.0345	0.09	552069	keystroke	d	n/a
276.1395	0.09	552279	keystroke	Key.space	n/a
276.6945	0.1795	553389	keystroke	i	n/a
276.7845	0.1195	553569	keystroke	n	n/a
276.889	0.1055	553778	keystroke	d	n/a
277.0095	0.12	554019	keystroke	i	n/a
277.1295	0.105	554259	keystroke	a	n/a
277.2645	0.12	554529	keystroke	Key.space	n/a
277.489	0.0605	554978	keystroke	t	n/a
277.6395	0.075	555279	keystroke	r	n/a
277.9095	0.09	555819	keystroke	a	n/a
278.3145	0.0745	556629	keystroke	s	n/a
278.4645	0.09	556929	keystroke	h	n/a
278.704	0.0905	557408	keystroke	Key.enter	n/a
278.798	9.118	557596	prompt	n/a	hungary restructuring gains acids\n
279.7695	0.06	559539	keystroke	h	n/a
279.904	0.0755	559808	keystroke	u	n/a
280.5645	0.105	561129	keystroke	n	n/a
280.6845	0.0895	561369	keystroke	g	n/a
281.0295	0.0745	562059	keystroke	a	n/a
281.2095	0.075	562419	keystroke	Key.backspace	n/a
281.3445	0.075	562689	keystroke	Key.backspace	n/a
281.8545	0.09	563709	keystroke	g	n/a
282.004	0.1055	564008	keystroke	a	n/a
282.0945	0.075	564189	keystroke	r	n/a
282.1995	0.0745	564399	keystroke	y	n/a
282.3495	0.09	564699	keystroke	Key.space	n/a
282.589	0.0905	565178	keystroke	r	n/a
282.7995	0.1195	565599	keystroke	s	n/a
283.2345	0.0755	566469	keystroke	Key.backspace	n/a
283.2945	0.075	566589	keystroke	e	n/a
283.4445	0.075	566889	keystroke	s	n/a
283.5945	0.06	567189	keystroke	t	n/a
283.7295	0.0745	567459	keystroke	r	n/a
283.8345	0.09	567669	keystroke	u	n/a
283.9395	0.09	567879	keystroke	c	n/a
284.1345	0.075	568269	keystroke	t	n/a
284.4495	0.075	568899	keystroke	u	n/a
284.5845	0.0895	569169	keystroke	r	n/a
284.689	0.15	569378	keystroke	i	n/a
284.7645	0.12	569529	keystroke	n	n/a
284.8545	0.075	569709	keystroke	g	n/a
284.945	0.1195	569890	keystroke	Key.space	n/a
285.874	0.0905	571748	keystroke	g	n/a
286.0395	0.0745	572079	keystroke	a	n/a
286.1595	0.15	572319	keystroke	i	n/a
286.2645	0.105	572529	keystroke	n	n/a
286.3845	0.075	572769	keystroke	s	n/a
286.4295	0.12	572859	keystroke	Key.space	n/a
286.6845	0.0595	573369	keystroke	a	n/a
286.7145	0.135	573429	keystroke	c	n/a
286.9095	0.105	573819	keystroke	i	n/a
286.9845	0.1045	573969	keystroke	d	n/a
287.1345	0.105	574269	keystroke	s	n/a
287.8245	0.0905	575649	keystroke	Key.enter	n/a
287.9195	31.061	575839	prompt	n/a	gossip bands worse dividend\n
288.6495	0.075	577299	keystroke	g	n/a
288.7695	0.1045	577539	keystroke	o	n/a
289.324	0.091	578648	keystroke	s	n/a
289.489	0.1205	578978	keystroke	s	n/a
289.6395	0.1345	579279	keystroke	i	n/a
289.7595	0.135	579519	keystroke	p	n/a
289.9245	0.12	579849	keystroke	Key.space	n/a
290.0895	0.075	580179	keystroke	b	n/a
290.2095	0.09	580419	keystroke	a	n/a
290.3445	0.105	580689	keystroke	n	n/a
290.4345	0.09	580869	keystroke	d	n/a
290.5095	0.0895	581019	keystroke	s	n/a
290.974	0.06	581948	keystroke	Key.space	n/a
316.61	0.09	633220	keystroke	w	n/a
316.715	0.0895	633430	keystroke	o	n/a
316.7745	0.0905	633549	keystroke	r	n/a
316.9855	0.104	633971	keystroke	s	n/a
317.06	0.105	634120	keystroke	e	n/a
317.18	0.12	634360	keystroke	Key.space	n/a
317.345	0.0895	634690	keystroke	d	n/a
317.4645	0.0905	634929	keystroke	i	n/a
317.57	0.09	635140	keystroke	v	n/a
317.6745	0.0755	635349	keystroke	i	n/a
317.765	0.06	635530	keystroke	d	n/a
318.065	0.075	636130	keystroke	e	n/a
318.215	0.0895	636430	keystroke	n	n/a
318.365	0.1055	636730	keystroke	d	n/a
318.9205	0.059	637841	keystroke	Key.enter	n/a
318.9835	6.8825	637967	prompt	n/a	americans postcard geographical agent\n
319.7	0.105	639400	keystroke	a	n/a
319.82	0.09	639640	keystroke	m	n/a
319.925	0.135	639850	keystroke	e	n/a
320.015	0.09	640030	keystroke	r	n/a
320.12	0.12	640240	keystroke	i	n/a
320.225	0.135	640450	keystroke	c	n/a
320.3895	0.1355	640779	keystroke	a	n/a
320.54	0.1345	641080	keystroke	n	n/a
320.6595	0.0755	641319	keystroke	s	n/a
320.75	0.105	641500	keystroke	Key.space	n/a
321.156	0.1185	642312	keystroke	p	n/a
321.2895	0.1055	642579	keystroke	o	n/a
321.41	0.105	642820	keystroke	s	n/a
321.515	0.0595	643030	keystroke	t	n/a
321.9045	0.1055	643809	keystroke	c	n/a
322.1	0.135	644200	keystroke	a	n/a
322.16	0.09	644320	keystroke	r	n/a
322.37	0.1045	644740	keystroke	d	n/a
322.46	0.1195	644920	keystroke	Key.space	n/a
322.5945	0.0905	645189	keystroke	g	n/a
322.715	0.105	645430	keystroke	e	n/a
322.865	0.09	645730	keystroke	o	n/a
323.09	0.09	646180	keystroke	g	n/a
323.27	0.075	646540	keystroke	r	n/a
323.315	0.105	646630	keystroke	a	n/a
323.4045	0.0755	646809	keystroke	p	n/a
323.465	0.135	646930	keystroke	h	n/a
323.6745	0.1055	647349	keystroke	i	n/a
323.795	0.15	647590	keystroke	c	n/a
323.9	0.0895	647800	keystroke	a	n/a
324.065	0.12	648130	keystroke	l	n/a
324.5895	0.0905	649179	keystroke	Key.space	n/a
325.085	0.1195	650170	keystroke	a	n/a
325.3255	0.0745	650651	keystroke	g	n/a
325.475	0.105	650950	keystroke	e	n/a
325.565	0.105	651130	keystroke	n	n/a
325.685	0.06	651370	keystroke	t	n/a
325.7755	0.0895	651551	keystroke	Key.enter	n/a
325.8685	4.8125	651737	prompt	n/a	depending users tuning ratings\n
326.495	0.06	652990	keystroke	d	n/a
326.63	0.09	653260	keystroke	e	n/a
326.735	0.105	653470	keystroke	p	n/a
326.795	0.09	653590	keystroke	e	n/a
326.93	0.105	653860	keystroke	n	n/a
327.0045	0.1205	654009	keystroke	d	n/a
327.14	0.12	654280	keystroke	i	n/a
327.23	0.0745	654460	keystroke	n	n/a
327.2745	0.0905	654549	keystroke	g	n/a
327.395	0.105	654790	keystroke	Key.space	n/a
327.83	0.0745	655660	keystroke	u	n/a
327.98	0.075	655960	keystroke	s	n/a
328.025	0.105	656050	keystroke	e	n/a
328.085	0.1195	656170	keystroke	r	n/a
328.265	0.0895	656530	keystroke	s	n/a
328.3995	0.105	656799	keystroke	Key.space	n/a
328.685	0.075	657370	keystroke	t	n/a
328.7745	0.0755	657549	keystroke	u	n/a
328.955	0.09	657910	keystroke	n	n/a
329.1045	0.1505	658209	keystroke	i	n/a
329.21	0.09	658420	keystroke	n	n/a
329.285	0.1045	658570	keystroke	g	n/a
329.3745	0.1355	658749	keystroke	Key.space	n/a
329.72	0.105	659440	keystroke	r	n/a
329.84	0.12	659680	keystroke	a	n/a
329.93	0.09	659860	keystroke	t	n/a
330.125	0.1205	660250	keystroke	i	n/a
330.185	0.1195	660370	keystroke	n	n/a
330.2745	0.1205	660549	keystroke	g	n/a
330.365	0.12	660730	keystroke	s	n/a
330.6045	0.0755	661209	keystroke	Key.enter	n/a
330.6835	4.8125	661367	prompt	n/a	polar fired coming phase\n
331.49	0.12	662980	keystroke	p	n/a
331.64	0.1345	663280	keystroke	o	n/a
331.925	0.12	663850	keystroke	l	n/a
332.1045	0.1355	664209	keystroke	a	n/a
332.1805	0.1045	664361	keystroke	r	n/a
332.3	0.12	664600	keystroke	Key.space	n/a
332.54	0.091	665080	keystroke	f	n/a
332.8245	0.106	665649	keystroke	i	n/a
332.9895	0.1205	665979	keystroke	r	n/a
333.0655	0.0895	666131	keystroke	e	n/a
333.245	0.105	666490	keystroke	d	n/a
333.365	0.1045	666730	keystroke	Key.space	n/a
333.56	0.135	667120	keystroke	c	n/a
333.68	0.105	667360	keystroke	o	n/a
333.8	0.135	667600	keystroke	m	n/a
333.995	0.15	667990	keystroke	i	n/a
334.07	0.1345	668140	keystroke	n	n/a
334.1895	0.1055	668379	keystroke	g	n/a
334.28	0.12	668560	keystroke	Key.space	n/a
334.52	0.105	669040	keystroke	p	n/a
334.595	0.1205	669190	keystroke	h	n/a
334.7445	0.1055	669489	keystroke	a	n/a
335.06	0.09	670120	keystroke	s	n/a
335.135	0.105	670270	keystroke	e	n/a
335.4195	0.0755	670839	keystroke	Key.enter	n/a
335.499	5.997	670998	prompt	n/a	ties ntsc illustration senate\n
336.14	0.075	672280	keystroke	t	n/a
336.2745	0.1055	672549	keystroke	i	n/a
336.35	0.075	672700	keystroke	e	n/a
336.62	0.105	673240	keystroke	Key.space	n/a
337.13	0.0745	674260	keystroke	Key.backspace	n/a
337.235	0.0895	674470	keystroke	s	n/a
337.37	0.075	674740	keystroke	Key.space	n/a
337.61	0.075	675220	keystroke	n	n/a
337.685	0.0895	675370	keystroke	t	n/a
338.06	0.105	676120	keystroke	s	n/a
338.135	0.105	676270	keystroke	c	n/a
338.57	0.09	677140	keystroke	Key.space	n/a
338.735	0.09	677470	keystroke	i	n/a
338.915	0.0595	677830	keystroke	l	n/a
339.0355	0.1795	678071	keystroke	l	n/a
339.125	0.075	678250	keystroke	u	n/a
339.2295	0.075	678459	keystroke	s	n/a
339.35	0.075	678700	keystroke	t	n/a
339.5	0.0895	679000	keystroke	r	n/a
339.6045	0.1355	679209	keystroke	a	n/a
339.71	0.0895	679420	keystroke	t	n/a
339.83	0.195	679660	keystroke	i	n/a
339.86	0.18	679720	keystroke	o	n/a
339.995	0.09	679990	keystroke	n	n/a
340.085	0.1045	680170	keystroke	Key.space	n/a
340.25	0.09	680500	keystroke	s	n/a
340.37	0.06	680740	keystroke	e	n/a
340.73	0.105	681460	keystroke	n	n/a
340.88	0.2095	681760	keystroke	a	n/a
341.06	0.15	682120	keystroke	t	n/a
341.195	0.09	682390	keystroke	e	n/a
341.3895	0.1055	682779	keystroke	Key.enter	n/a
341.4985	6.763	682997	prompt	n/a	socket patient mcdonald sword\n
343.655	0.075	687310	keystroke	s	n/a
343.76	0.1055	687520	keystroke	o	n/a
343.835	0.135	687670	keystroke	c	n/a
343.9855	0.119	687971	keystroke	k	n/a
344.0745	0.1505	688149	keystroke	e	n/a
344.18	0.09	688360	keystroke	t	n/a
344.285	0.105	688570	keystroke	Key.space	n/a
344.435	0.12	688870	keystroke	p	n/a
344.51	0.09	689020	keystroke	a	n/a
344.615	0.105	689230	keystroke	t	n/a
344.735	0.1055	689470	keystroke	i	n/a
344.87	0.105	689740	keystroke	e	n/a
344.96	0.12	689920	keystroke	n	n/a
345.065	0.09	690130	keystroke	t	n/a
345.17	0.075	690340	keystroke	Key.space	n/a
345.455	0.12	690910	keystroke	m	n/a
345.68	0.12	691360	keystroke	c	n/a
345.86	0.105	691720	keystroke	d	n/a
345.995	0.12	691990	keystroke	o	n/a
346.1	0.15	692200	keystroke	n	n/a
346.2045	0.121	692409	keystroke	a	n/a
346.37	0.1345	692740	keystroke	l	n/a
346.52	0.09	693040	keystroke	d	n/a
346.6555	0.1045	693311	keystroke	Key.space	n/a
347.2255	0.0595	694451	keystroke	s	n/a
347.3895	0.0605	694779	keystroke	w	n/a
347.6155	0.0895	695231	keystroke	o	n/a
347.855	0.075	695710	keystroke	r	n/a
348.05	0.105	696100	keystroke	d	n/a
348.185	0.075	696370	keystroke	Key.enter	n/a
348.264	7.497	696528	prompt	n/a	ntsc secrets seeing arrangements\n
348.9805	0.1045	697961	keystroke	n	n/a
349.25	0.075	698500	keystroke	t	n/a
349.4455	0.1345	698891	keystroke	s	n/a
349.5955	0.135	699191	keystroke	c	n/a
349.775	0.105	699550	keystroke	Key.space	n/a
350	0.0605	700000	keystroke	s	n/a
350.12	0.075	700240	keystroke	e	n/a
350.285	0.076	700570	keystroke	c	n/a
350.4505	0.1195	700901	keystroke	r	n/a
350.5555	0.18	701111	keystroke	e	n/a
350.75	0.12	701500	keystroke	t	n/a
351.1705	0.09	702341	keystroke	s	n/a
351.365	0.06	702730	keystroke	Key.space	n/a
351.5455	0.0895	703091	keystroke	s	n/a
351.65	0.0905	703300	keystroke	e	n/a
351.8005	0.0895	703601	keystroke	e	n/a
351.905	0.135	703810	keystroke	i	n/a
351.9955	0.105	703991	keystroke	n	n/a
352.055	0.105	704110	keystroke	g	n/a
352.175	0.1055	704350	keystroke	Key.space	n/a
352.355	0.105	704710	keystroke	a	n/a
352.5205	0.075	705041	keystroke	r	n/a
352.67	0.105	705340	keystroke	r	n/a
352.805	0.12	705610	keystroke	a	n/a
352.94	0.1055	705880	keystroke	g	n/a
353.3605	0.0745	706721	keystroke	e	n/a
353.5705	0.09	707141	keystroke	m	n/a
354.08	0.0605	708160	keystroke	Key.backspace	n/a
354.1855	0.075	708371	keystroke	Key.backspace	n/a
354.3355	0.0745	708671	keystroke	Key.backspace	n/a
354.5455	0.0895	709091	keystroke	n	n/a
354.6655	0.09	709331	keystroke	g	n/a
354.8	0.09	709600	keystroke	e	n/a
354.9355	0.09	709871	keystroke	m	n/a
355.0855	0.1045	710171	keystroke	e	n/a
355.175	0.06	710350	keystroke	n	n/a
355.3405	0.0895	710681	keystroke	t	n/a
355.5205	0.09	711041	keystroke	s	n/a
355.6855	0.075	711371	keystroke	Key.enter	n/a
355.7645	5.277	711529	prompt	n/a	knight plains cats assessed\n
356.4655	0.09	712931	keystroke	k	n/a
356.525	0.1355	713050	keystroke	n	n/a
356.6605	0.12	713321	keystroke	i	n/a
356.8255	0.075	713651	keystroke	g	n/a
356.9305	0.105	713861	keystroke	h	n/a
357.0205	0.075	714041	keystroke	t	n/a
357.14	0.135	714280	keystroke	Key.space	n/a
357.366	0.0745	714732	keystroke	p	n/a
357.5305	0.12	715061	keystroke	l	n/a
357.6355	0.09	715271	keystroke	a	n/a
357.7405	0.1495	715481	keystroke	i	n/a
357.8455	0.135	715691	keystroke	n	n/a
357.9355	0.09	715871	keystroke	s	n/a
358.0555	0.105	716111	keystroke	Key.space	n/a
358.205	0.1505	716410	keystroke	c	n/a
358.4005	0.135	716801	keystroke	a	n/a
358.505	0.1055	717010	keystroke	t	n/a
358.7005	0.0895	717401	keystroke	s	n/a
358.8505	0.09	717701	keystroke	Key.space	n/a
359.001	0.1345	718002	keystroke	a	n/a
359.1655	0.09	718331	keystroke	s	n/a
359.4655	0.105	718931	keystroke	s	n/a
360.155	0.0905	720310	keystroke	e	n/a
360.35	0.0905	720700	keystroke	s	n/a
360.5305	0.12	721061	keystroke	s	n/a
360.6355	0.075	721271	keystroke	e	n/a
360.8155	0.105	721631	keystroke	d	n/a
360.9655	0.075	721931	keystroke	Key.enter	n/a
361.0445	6.477	722089	prompt	n/a	bass resolved deliver utilities\n
361.7005	0.0895	723401	keystroke	b	n/a
361.8655	0.135	723731	keystroke	a	n/a
362.0305	0.105	724061	keystroke	s	n/a
362.2105	0.105	724421	keystroke	s	n/a
362.436	0.1195	724872	keystroke	r	n/a
362.8255	0.06	725651	keystroke	Key.backspace	n/a
362.9	0.09	725800	keystroke	Key.space	n/a
363.0205	0.09	726041	keystroke	r	n/a
363.0655	0.06	726131	keystroke	e	n/a
363.2005	0.12	726401	keystroke	s	n/a
363.305	0.0905	726610	keystroke	o	n/a
363.4855	0.0745	726971	keystroke	l	n/a
363.5155	0.1345	727031	keystroke	v	n/a
363.6655	0.12	727331	keystroke	e	n/a
363.89	0.1055	727780	keystroke	d	n/a
364.0105	0.105	728021	keystroke	Key.space	n/a
364.1305	0.0595	728261	keystroke	d	n/a
364.2805	0.0905	728561	keystroke	e	n/a
364.4005	0.18	728801	keystroke	l	n/a
364.475	0.1205	728950	keystroke	i	n/a
364.6105	0.12	729221	keystroke	v	n/a
364.805	0.1355	729610	keystroke	e	n/a
364.8955	0.105	729791	keystroke	r	n/a
365.0305	0.09	730061	keystroke	Key.space	n/a
365.165	0.1055	730330	keystroke	u	n/a
365.3005	0.0895	730601	keystroke	t	n/a
365.405	0.2105	730810	keystroke	l	n/a
365.5105	0.15	731021	keystroke	i	n/a
366.29	0.0455	732580	keystroke	Key.backspace	n/a
366.3955	0.06	732791	keystroke	Key.backspace	n/a
366.575	0.0905	733150	keystroke	i	n/a
366.7705	0.18	733541	keystroke	l	n/a
366.8605	0.105	733721	keystroke	i	n/a
367.0105	0.09	734021	keystroke	t	n/a
367.0855	0.0895	734171	keystroke	i	n/a
367.19	0.0755	734380	keystroke	e	n/a
367.3255	0.105	734651	keystroke	s	n/a
367.4155	0.105	734831	keystroke	Key.enter	n/a
367.5245	7.692	735049	prompt	n/a	healthy relatives description involved\n
368.241	0.1045	736482	keystroke	h	n/a
368.405	0.0905	736810	keystroke	e	n/a
368.5705	0.1045	737141	keystroke	a	n/a
368.99	0.0755	737980	keystroke	l	n/a
369.395	0.1055	738790	keystroke	t	n/a
369.4705	0.075	738941	keystroke	h	n/a
369.6505	0.105	739301	keystroke	y	n/a
369.7405	0.105	739481	keystroke	Key.space	n/a
369.905	0.0905	739810	keystroke	r	n/a
369.9655	0.075	739931	keystroke	e	n/a
370.0555	0.12	740111	keystroke	l	n/a
370.1605	0.12	740321	keystroke	a	n/a
370.3705	0.075	740741	keystroke	t	n/a
370.505	0.1205	741010	keystroke	i	n/a
370.6105	0.12	741221	keystroke	v	n/a
370.7605	0.09	741521	keystroke	e	n/a
370.9255	0.105	741851	keystroke	s	n/a
371.09	0.1205	742180	keystroke	Key.space	n/a
371.6005	0.0745	743201	keystroke	d	n/a
371.7505	0.076	743501	keystroke	e	n/a
371.9005	0.135	743801	keystroke	s	n/a
371.99	0.0755	743980	keystroke	c	n/a
372.1705	0.09	744341	keystroke	r	n/a
372.275	0.1505	744550	keystroke	i	n/a
372.3955	0.165	744791	keystroke	p	n/a
372.5455	0.09	745091	keystroke	t	n/a
372.9805	0.345	745961	keystroke	i	n/a
373.1005	0.2105	746201	keystroke	o	n/a
373.2505	0.165	746501	keystroke	n	n/a
373.475	0.136	746950	keystroke	Key.space	n/a
374.1055	0.15	748211	keystroke	i	n/a
374.1805	0.105	748361	keystroke	n	n/a
374.3005	0.0745	748601	keystroke	v	n/a
374.39	0.0605	748780	keystroke	o	n/a
374.5405	0.105	749081	keystroke	l	n/a
374.6305	0.12	749261	keystroke	v	n/a
374.7805	0.12	749561	keystroke	e	n/a
375.005	0.1055	750010	keystroke	d	n/a
375.1255	0.09	750251	keystroke	Key.enter	n/a
375.219	5.4425	750438	prompt	n/a	doubt burst behavior laptops\n
375.875	0.1055	751750	keystroke	d	n/a
376.0105	0.15	752021	keystroke	o	n/a
376.0555	0.09	752111	keystroke	u	n/a
376.19	0.0905	752380	keystroke	b	n/a
376.4005	0.0745	752801	keystroke	t	n/a
376.505	0.1055	753010	keystroke	Key.space	n/a
376.79	0.0905	753580	keystroke	b	n/a
376.9405	0.075	753881	keystroke	u	n/a
377.0455	0.075	754091	keystroke	r	n/a
377.2405	0.12	754481	keystroke	s	n/a
377.3305	0.09	754661	keystroke	t	n/a
377.4655	0.105	754931	keystroke	Key.space	n/a
377.69	0.0605	755380	keystroke	b	n/a
377.8255	0.075	755651	keystroke	e	n/a
377.9305	0.0745	755861	keystroke	h	n/a
378.0355	0.09	756071	keystroke	a	n/a
378.2005	0.1195	756401	keystroke	v	n/a
378.4105	0.135	756821	keystroke	i	n/a
378.531	0.1495	757062	keystroke	o	n/a
378.6355	0.105	757271	keystroke	r	n/a
378.7855	0.1045	757571	keystroke	Key.space	n/a
379.0255	0.075	758051	keystroke	l	n/a
379.49	0.1055	758980	keystroke	a	n/a
379.6555	0.09	759311	keystroke	p	n/a
379.8505	0.09	759701	keystroke	t	n/a
379.9405	0.1495	759881	keystroke	o	n/a
380.105	0.1505	760210	keystroke	p	n/a
380.3155	0.0745	760631	keystroke	s	n/a
380.5555	0.105	761111	keystroke	Key.enter	n/a
380.6645	6.402	761329	prompt	n/a	cord preparing authorities pierre\n
381.4105	0.105	762821	keystroke	c	n/a
381.5305	0.0745	763061	keystroke	o	n/a
381.605	0.0755	763210	keystroke	r	n/a
381.801	0.104	763602	keystroke	d	n/a
381.9205	0.09	763841	keystroke	Key.space	n/a
382.0555	0.105	764111	keystroke	p	n/a
382.175	0.1355	764350	keystroke	r	n/a
382.2655	0.09	764531	keystroke	e	n/a
382.6105	0.105	765221	keystroke	p	n/a
382.76	0.1055	765520	keystroke	a	n/a
382.8355	0.075	765671	keystroke	r	n/a
382.9705	0.15	765941	keystroke	i	n/a
383.0455	0.135	766091	keystroke	n	n/a
383.1355	0.09	766271	keystroke	g	n/a
383.2405	0.12	766481	keystroke	Key.space	n/a
383.5405	0.12	767081	keystroke	a	n/a
383.675	0.0455	767350	keystroke	u	n/a
384.2455	0.075	768491	keystroke	t	n/a
384.3205	0.105	768641	keystroke	h	n/a
384.4405	0.105	768881	keystroke	o	n/a
384.6205	0.09	769241	keystroke	r	n/a
384.8155	0.0745	769631	keystroke	i	n/a
384.9505	0.105	769901	keystroke	t	n/a
385.086	0.089	770172	keystroke	i	n/a
385.5355	0.075	771071	keystroke	e	n/a
385.7005	0.12	771401	keystroke	s	n/a
385.8655	0.12	771731	keystroke	Key.space	n/a
386.105	0.1055	772210	keystroke	p	n/a
386.2555	0.09	772511	keystroke	i	n/a
386.3605	0.0895	772721	keystroke	e	n/a
386.6	0.075	773200	keystroke	r	n/a
386.7655	0.1195	773531	keystroke	r	n/a
386.8705	0.075	773741	keystroke	e	n/a
386.975	0.0905	773950	keystroke	Key.enter	n/a
387.069	5.877	774138	prompt	n/a	tray cleanup ranked mostly\n
387.6955	0.06	775391	keystroke	t	n/a
387.8305	0.105	775661	keystroke	r	n/a
387.9505	0.09	775901	keystroke	a	n/a
388.1455	0.075	776291	keystroke	y	n/a
388.2355	0.12	776471	keystroke	Key.space	n/a
388.4455	0.105	776891	keystroke	c	n/a
388.535	0.105	777070	keystroke	l	n/a
388.6255	0.075	777251	keystroke	e	n/a
388.7305	0.105	777461	keystroke	a	n/a
388.8205	0.09	777641	keystroke	n	n/a
389.135	0.121	778270	keystroke	u	n/a
389.5855	0.0895	779171	keystroke	p	n/a
389.705	0.1205	779410	keystroke	Key.space	n/a
390.6205	0.09	781241	keystroke	r	n/a
390.7405	0.045	781481	keystroke	a	n/a
390.8005	0.09	781601	keystroke	n	n/a
390.9805	0.0745	781961	keystroke	e	n/a
391.3555	0.0595	782711	keystroke	Key.backspace	n/a
391.566	0.1195	783132	keystroke	k	n/a
391.715	0.09	783430	keystroke	e	n/a
391.8955	0.09	783791	keystroke	d	n/a
391.9555	0.1195	783911	keystroke	Key.space	n/a
392.1205	0.15	784241	keystroke	m	n/a
392.2255	0.1195	784451	keystroke	o	n/a
392.3005	0.1045	784601	keystroke	s	n/a
392.4355	0.105	784871	keystroke	t	n/a
392.5705	0.165	785141	keystroke	l	n/a
392.705	0.0305	785410	keystroke	y	n/a
392.8405	0.1045	785681	keystroke	Key.enter	n/a
392.9485	8.713	785897	prompt	n/a	anthony refers successful cathedral\n
393.7405	0.045	787481	keystroke	a	n/a
393.7705	0.09	787541	keystroke	n	n/a
394.175	0.09	788350	keystroke	t	n/a
394.2205	0.09	788441	keystroke	h	n/a
394.3255	0.135	788651	keystroke	o	n/a
394.4455	0.09	788891	keystroke	n	n/a
394.5805	0.0605	789161	keystroke	e	n/a
394.7155	0.105	789431	keystroke	y	n/a
395.0455	0.06	790091	keystroke	Key.backspace	n/a
395.1505	0.0605	790301	keystroke	Key.backspace	n/a
395.3155	0.105	790631	keystroke	y	n/a
395.4355	0.135	790871	keystroke	Key.space	n/a
395.7355	0.09	791471	keystroke	r	n/a
395.8115	0.104	791623	keystroke	e	n/a
395.99	0.0905	791980	keystroke	f	n/a
396.1855	0.1045	792371	keystroke	e	n/a
396.2455	0.12	792491	keystroke	r	n/a
396.4405	0.105	792881	keystroke	s	n/a
396.5455	0.135	793091	keystroke	Key.space	n/a
396.6955	0.045	793391	keystroke	s	n/a
396.8005	0.0895	793601	keystroke	u	n/a
396.9205	0.075	793841	keystroke	c	n/a
397.0855	0.1045	794171	keystroke	c	n/a
397.1455	0.09	794291	keystroke	e	n/a
397.2955	0.0895	794591	keystroke	s	n/a
397.46	0.1055	794920	keystroke	s	n/a
397.6105	0.105	795221	keystroke	f	n/a
397.76	0.0605	795520	keystroke	u	n/a
397.9855	0.0895	795971	keystroke	l	n/a
398.12	0.1355	796240	keystroke	Key.space	n/a
398.6005	0.1345	797201	keystroke	c	n/a
398.75	0.135	797500	keystroke	a	n/a
398.8405	0.075	797681	keystroke	t	n/a
398.9605	0.105	797921	keystroke	h	n/a
399.275	0.0905	798550	keystroke	e	n/a
399.5455	0.0895	799091	keystroke	d	n/a
399.681	0.0745	799362	keystroke	a	n/a
399.9355	0.075	799871	keystroke	r	n/a
400.205	0.18	800410	keystroke	Key.backspace	n/a
400.3555	0.105	800711	keystroke	r	n/a
400.6255	0.06	801251	keystroke	Key.backspace	n/a
400.805	0.0605	801610	keystroke	Key.backspace	n/a
401.1205	0.105	802241	keystroke	r	n/a
401.2405	0.091	802481	keystroke	a	n/a
401.4955	0.015	802991	keystroke	l	n/a
401.5705	0.09	803141	keystroke	Key.enter	n/a
401.6645	5.8465	803329	prompt	n/a	alphabetical basement blogs registered\n
402.2305	0.105	804461	keystroke	a	n/a
402.366	0.0745	804732	keystroke	l	n/a
402.5305	0.1355	805061	keystroke	p	n/a
402.62	0.1055	805240	keystroke	h	n/a
402.7105	0.1055	805421	keystroke	a	n/a
402.9505	0.0595	805901	keystroke	b	n/a
403.116	0.0745	806232	keystroke	e	n/a
403.2655	0.09	806531	keystroke	t	n/a
403.371	0.104	806742	keystroke	i	n/a
403.49	0.1505	806980	keystroke	c	n/a
403.5955	0.1205	807191	keystroke	a	n/a
403.7455	0.1055	807491	keystroke	l	n/a
403.8205	0.12	807641	keystroke	Key.space	n/a
403.9855	0.0895	807971	keystroke	b	n/a
404.1805	0.12	808361	keystroke	a	n/a
404.405	0.0755	808810	keystroke	s	n/a
404.495	0.091	808990	keystroke	e	n/a
404.705	0.106	809410	keystroke	m	n/a
404.841	0.12	809682	keystroke	e	n/a
404.9305	0.1055	809861	keystroke	n	n/a
405.0955	0.0755	810191	keystroke	t	n/a
405.171	0.1195	810342	keystroke	Key.space	n/a
405.3515	0.0595	810703	keystroke	b	n/a
405.5015	0.074	811003	keystroke	l	n/a
405.6515	0.089	811303	keystroke	o	n/a
405.7255	0.105	811451	keystroke	g	n/a
406.0255	0.015	812051	keystroke	s	n/a
406.056	0.1045	812112	keystroke	Key.space	n/a
406.175	0.091	812350	keystroke	r	n/a
406.2515	0.0595	812503	keystroke	e	n/a
406.4005	0.075	812801	keystroke	g	n/a
406.5205	0.075	813041	keystroke	i	n/a
406.6255	0.075	813251	keystroke	s	n/a
406.7155	0.075	813431	keystroke	t	n/a
406.881	0.105	813762	keystroke	e	n/a
406.971	0.1195	813942	keystroke	r	n/a
407.0755	0.1055	814151	keystroke	e	n/a
407.2705	0.0905	814541	keystroke	d	n/a
407.4205	0.09	814841	keystroke	Key.enter	n/a
407.514	6.5675	815028	prompt	n/a	matters pediatric fish surfaces\n
408.1255	0.0605	816251	keystroke	n	n/a
408.5755	0.046	817151	keystroke	Key.backspace	n/a
408.756	0.06	817512	keystroke	m	n/a
408.9055	0.09	817811	keystroke	a	n/a
409.056	0.075	818112	keystroke	t	n/a
409.2215	0.074	818443	keystroke	t	n/a
409.401	0.1045	818802	keystroke	e	n/a
409.446	0.09	818892	keystroke	r	n/a
409.8955	0.075	819791	keystroke	s	n/a
409.9855	0.12	819971	keystroke	Key.space	n/a
410.5105	0.1205	821021	keystroke	p	n/a
410.616	0.0595	821232	keystroke	e	n/a
410.751	0.1045	821502	keystroke	d	n/a
410.826	0.0895	821652	keystroke	i	n/a
410.9155	0.105	821831	keystroke	a	n/a
411.201	0.0745	822402	keystroke	t	n/a
411.411	0.045	822822	keystroke	r	n/a
411.531	0.09	823062	keystroke	i	n/a
411.666	0.12	823332	keystroke	c	n/a
411.846	0.075	823692	keystroke	Key.space	n/a
412.101	0.06	824202	keystroke	f	n/a
412.2055	0.1205	824411	keystroke	i	n/a
412.311	0.105	824622	keystroke	s	n/a
412.446	0.105	824892	keystroke	h	n/a
412.596	0.105	825192	keystroke	Key.space	n/a
412.851	0.09	825702	keystroke	s	n/a
412.956	0.06	825912	keystroke	u	n/a
413.061	0.0295	826122	keystroke	r	n/a
413.316	0.015	826632	keystroke	f	n/a
413.346	0.1345	826692	keystroke	a	n/a
413.451	0.165	826902	keystroke	c	n/a
413.556	0.09	827112	keystroke	e	n/a
413.751	0.105	827502	keystroke	s	n/a
414.066	0.0145	828132	keystroke	Key.enter	n/a
414.0845	4.6175	828169	prompt	n/a	turner won't love fares\n
414.7555	0.0605	829511	keystroke	t	n/a
414.8755	0.0605	829751	keystroke	u	n/a
414.966	0.105	829932	keystroke	r	n/a
415.086	0.0895	830172	keystroke	n	n/a
415.236	0.075	830472	keystroke	e	n/a
415.296	0.1045	830592	keystroke	r	n/a
415.566	0.045	831132	keystroke	Key.space	n/a
415.8055	0.1055	831611	keystroke	w	n/a
415.896	0.105	831792	keystroke	o	n/a
415.956	0.09	831912	keystroke	n	n/a
416.196	0.075	832392	keystroke	t	n/a
416.526	0.06	833052	keystroke	Key.backspace	n/a
416.7205	0.0905	833441	keystroke	'	n/a
416.871	0.09	833742	keystroke	t	n/a
416.9755	0.1055	833951	keystroke	Key.space	n/a
417.156	0.075	834312	keystroke	l	n/a
417.3205	0.0755	834641	keystroke	o	n/a
417.396	0.105	834792	keystroke	v	n/a
417.546	0.09	835092	keystroke	e	n/a
417.666	0.12	835332	keystroke	Key.space	n/a
417.816	0.105	835632	keystroke	f	n/a
417.981	0.135	835962	keystroke	a	n/a
418.146	0.1655	836292	keystroke	r	n/a
418.266	0.12	836532	keystroke	e	n/a
418.4905	0.09	836981	keystroke	s	n/a
418.5955	0.1055	837191	keystroke	Key.enter	n/a
418.7065	7.061	837413	prompt	n/a	speeches graphic regarding photographs\n
419.3755	0.0605	838751	keystroke	s	n/a
419.526	0.09	839052	keystroke	p	n/a
419.631	0.0745	839262	keystroke	e	n/a
419.781	0.0895	839562	keystroke	e	n/a
419.946	0.12	839892	keystroke	c	n/a
420.051	0.09	840102	keystroke	h	n/a
420.156	0.0905	840312	keystroke	e	n/a
420.336	0.075	840672	keystroke	s	n/a
420.486	0.06	840972	keystroke	Key.space	n/a
420.756	0.075	841512	keystroke	g	n/a
420.951	0.075	841902	keystroke	r	n/a
421.011	0.09	842022	keystroke	a	n/a
421.116	0.15	842232	keystroke	p	n/a
421.236	0.06	842472	keystroke	h	n/a
421.416	0.015	842832	keystroke	h	n/a
421.881	0.045	843762	keystroke	Key.backspace	n/a
422.061	0.105	844122	keystroke	i	n/a
422.181	0.1045	844362	keystroke	c	n/a
422.301	0.1045	844602	keystroke	Key.space	n/a
422.526	0.075	845052	keystroke	r	n/a
422.7055	0.1055	845411	keystroke	e	n/a
422.916	0.0745	845832	keystroke	g	n/a
423.096	0.09	846192	keystroke	a	n/a
423.141	0.075	846282	keystroke	r	n/a
423.321	0.105	846642	keystroke	d	n/a
423.456	0.1345	846912	keystroke	i	n/a
423.5465	0.149	847093	keystroke	n	n/a
423.651	0.09	847302	keystroke	g	n/a
423.8005	0.105	847601	keystroke	Key.space	n/a
423.981	0.09	847962	keystroke	p	n/a
424.086	0.1045	848172	keystroke	h	n/a
424.1755	0.0905	848351	keystroke	o	n/a
424.371	0.09	848742	keystroke	t	n/a
424.431	0.105	848862	keystroke	o	n/a
424.7755	0.0455	849551	keystroke	g	n/a
424.926	0.0595	849852	keystroke	r	n/a
425.0005	0.09	850001	keystroke	a	n/a
425.151	0.1795	850302	keystroke	p	n/a
425.3455	0.1205	850691	keystroke	h	n/a
425.586	0.0445	851172	keystroke	s	n/a
425.6755	0.091	851351	keystroke	Key.enter	n/a
425.7705	6.8215	851541	prompt	n/a	qatar doom fantasy levels\n
426.726	0.075	853452	keystroke	q	n/a
426.9205	0.1055	853841	keystroke	a	n/a
427.1755	0.03	854351	keystroke	u	n/a
427.596	0.075	855192	keystroke	Key.backspace	n/a
427.656	0.105	855312	keystroke	t	n/a
427.866	0.12	855732	keystroke	a	n/a
428.046	0.0595	856092	keystroke	r	n/a
428.1805	0.1055	856361	keystroke	Key.space	n/a
428.571	0.09	857142	keystroke	d	n/a
428.646	0.0445	857292	keystroke	o	n/a
428.811	0.045	857622	keystroke	o	n/a
428.946	0.12	857892	keystroke	m	n/a
429.081	0.09	858162	keystroke	Key.space	n/a
429.501	0.0745	859002	keystroke	f	n/a
429.561	0.12	859122	keystroke	a	n/a
429.696	0.09	859392	keystroke	n	n/a
429.831	0.0745	859662	keystroke	t	n/a
430.011	0.12	860022	keystroke	a	n/a
430.1005	0.1205	860201	keystroke	s	n/a
430.341	0.09	860682	keystroke	y	n/a
430.8365	0.1045	861673	keystroke	Key.space	n/a
431.061	0.06	862122	keystroke	l	n/a
431.6905	0.1055	863381	keystroke	e	n/a
431.901	0.0895	863802	keystroke	v	n/a
432.066	0.09	864132	keystroke	e	n/a
432.246	0.105	864492	keystroke	l	n/a
432.366	0.075	864732	keystroke	s	n/a
432.486	0.1045	864972	keystroke	Key.enter	n/a
432.595	5.937	865190	prompt	n/a	demonstrate hello stainless delhi\n
433.251	0.0595	866502	keystroke	d	n/a
433.416	0.045	866832	keystroke	e	n/a
433.4905	0.0905	866981	keystroke	m	n/a
433.626	0.1495	867252	keystroke	o	n/a
433.716	0.105	867432	keystroke	n	n/a
433.836	0.06	867672	keystroke	s	n/a
433.956	0.09	867912	keystroke	t	n/a
434.121	0.105	868242	keystroke	r	n/a
434.241	0.1345	868482	keystroke	a	n/a
434.346	0.09	868692	keystroke	t	n/a
434.7205	0.0755	869441	keystroke	e	n/a
434.856	0.1345	869712	keystroke	Key.space	n/a
435.096	0.09	870192	keystroke	h	n/a
435.2155	0.0755	870431	keystroke	e	n/a
435.321	0.075	870642	keystroke	l	n/a
435.486	0.075	870972	keystroke	l	n/a
435.6055	0.151	871211	keystroke	o	n/a
435.741	0.075	871482	keystroke	Key.space	n/a
436.191	0.045	872382	keystroke	s	n/a
436.296	0.09	872592	keystroke	t	n/a
436.461	0.0745	872922	keystroke	a	n/a
436.581	0.15	873162	keystroke	i	n/a
436.686	0.0895	873372	keystroke	n	n/a
436.881	0.06	873762	keystroke	l	n/a
436.971	0.075	873942	keystroke	e	n/a
437.1505	0.0605	874301	keystroke	s	n/a
437.316	0.0595	874632	keystroke	s	n/a
437.4055	0.0905	874811	keystroke	Key.space	n/a
437.6755	0.0605	875351	keystroke	d	n/a
437.826	0.075	875652	keystroke	e	n/a
437.946	0.0895	875892	keystroke	l	n/a
438.156	0.1055	876312	keystroke	h	n/a
438.2755	0.0905	876551	keystroke	i	n/a
438.456	0.075	876912	keystroke	Key.enter	n/a
438.535	7.6015	877070	prompt	n/a	parenting attitudes location wrapping\n
439.371	0.1045	878742	keystroke	p	n/a
439.4905	0.1055	878981	keystroke	a	n/a
439.5655	0.0605	879131	keystroke	r	n/a
440.331	0.09	880662	keystroke	e	n/a
440.451	0.09	880902	keystroke	n	n/a
440.571	0.075	881142	keystroke	t	n/a
440.7055	0.1055	881411	keystroke	i	n/a
440.871	0.1045	881742	keystroke	n	n/a
440.9905	0.09	881981	keystroke	g	n/a
441.126	0.12	882252	keystroke	Key.space	n/a
441.6055	0.0755	883211	keystroke	a	n/a
441.741	0.09	883482	keystroke	t	n/a
441.936	0.03	883872	keystroke	t	n/a
441.996	0.12	883992	keystroke	i	n/a
442.251	0.075	884502	keystroke	t	n/a
442.371	0.09	884742	keystroke	u	n/a
442.4755	0.1055	884951	keystroke	d	n/a
442.656	0.075	885312	keystroke	e	n/a
443.046	0.09	886092	keystroke	s	n/a
443.3755	0.1055	886751	keystroke	Key.space	n/a
443.6315	0.074	887263	keystroke	l	n/a
443.766	0.135	887532	keystroke	o	n/a
443.8415	0.12	887683	keystroke	c	n/a
443.9615	0.1195	887923	keystroke	a	n/a
444.096	0.0895	888192	keystroke	t	n/a
444.261	0.18	888522	keystroke	i	n/a
444.336	0.135	888672	keystroke	o	n/a
444.426	0.105	888852	keystroke	n	n/a
444.516	0.12	889032	keystroke	Key.space	n/a
444.786	0.045	889572	keystroke	w	n/a
444.936	0.105	889872	keystroke	r	n/a
445.056	0.075	890112	keystroke	a	n/a
445.176	0.045	890352	keystroke	p	n/a
445.3115	0.1045	890623	keystroke	p	n/a
445.716	0.12	891432	keystroke	i	n/a
445.7755	0.1205	891551	keystroke	n	n/a
445.8815	0.0895	891763	keystroke	g	n/a
446.046	0.0895	892092	keystroke	Key.enter	n/a
446.1395	5.3975	892279	prompt	n/a	matched saying trick browse\n
446.796	0.09	893592	keystroke	m	n/a
446.871	0.1045	893742	keystroke	a	n/a
446.946	0.075	893892	keystroke	t	n/a
447.126	0.12	894252	keystroke	c	n/a
447.216	0.0745	894432	keystroke	h	n/a
447.306	0.075	894612	keystroke	e	n/a
447.486	0.06	894972	keystroke	d	n/a
447.5615	0.1045	895123	keystroke	Key.space	n/a
447.726	0.075	895452	keystroke	s	n/a
447.8905	0.076	895781	keystroke	a	n/a
448.011	0.075	896022	keystroke	y	n/a
448.1615	0.1495	896323	keystroke	i	n/a
448.251	0.105	896502	keystroke	n	n/a
448.326	0.105	896652	keystroke	g	n/a
448.446	0.105	896892	keystroke	Key.space	n/a
448.581	0.0745	897162	keystroke	t	n/a
448.701	0.09	897402	keystroke	r	n/a
448.866	0.09	897732	keystroke	i	n/a
448.986	0.105	897972	keystroke	c	n/a
449.091	0.076	898182	keystroke	k	n/a
449.346	0.09	898692	keystroke	Key.space	n/a
449.721	0.075	899442	keystroke	b	n/a
449.916	0.0745	899832	keystroke	r	n/a
450.5015	0.089	901003	keystroke	o	n/a
450.816	0.0595	901632	keystroke	w	n/a
451.026	0.12	902052	keystroke	s	n/a
451.1615	0.1045	902323	keystroke	e	n/a
451.4905	0.0455	902981	keystroke	Key.enter	n/a
451.54	5.487	903080	prompt	n/a	subtle girls listing florida\n
452.1965	0.0745	904393	keystroke	s	n/a
452.316	0.075	904632	keystroke	u	n/a
452.4215	0.0595	904843	keystroke	b	n/a
452.6015	0.0745	905203	keystroke	t	n/a
452.781	0.1055	905562	keystroke	l	n/a
452.871	0.0905	905742	keystroke	e	n/a
452.976	0.12	905952	keystroke	Key.space	n/a
453.141	0.075	906282	keystroke	g	n/a
453.291	0.1055	906582	keystroke	i	n/a
453.411	0.0755	906822	keystroke	r	n/a
453.546	0.12	907092	keystroke	l	n/a
453.636	0.12	907272	keystroke	s	n/a
453.741	0.1205	907482	keystroke	Key.space	n/a
453.9215	0.105	907843	keystroke	l	n/a
453.9665	0.105	907933	keystroke	i	n/a
454.0565	0.06	908113	keystroke	s	n/a
454.1465	0.075	908293	keystroke	t	n/a
454.3265	0.1495	908653	keystroke	i	n/a
454.416	0.1055	908832	keystroke	n	n/a
454.506	0.06	909012	keystroke	g	n/a
454.596	0.12	909192	keystroke	Key.space	n/a
454.8365	0.1045	909673	keystroke	f	n/a
454.9265	0.0455	909853	keystroke	l	n/a
455.076	0.06	910152	keystroke	o	n/a
455.2715	0.06	910543	keystroke	r	n/a
455.391	0.1055	910782	keystroke	i	n/a
455.511	0.0755	911022	keystroke	d	n/a
455.691	0.045	911382	keystroke	e	n/a
456.0665	0.0745	912133	keystroke	Key.backspace	n/a
456.156	0.09	912312	keystroke	a	n/a
456.9665	0.0595	913933	keystroke	Key.enter	n/a
457.03	6.5825	914060	prompt	n/a	waiver warning wrestling fate\n
457.656	0.075	915312	keystroke	w	n/a
457.8215	0.0895	915643	keystroke	a	n/a
457.9415	0.0895	915883	keystroke	i	n/a
458.091	0.1205	916182	keystroke	v	n/a
458.3015	0.12	916603	keystroke	e	n/a
458.376	0.0905	916752	keystroke	r	n/a
458.5115	0.105	917023	keystroke	Key.space	n/a
458.6015	0.135	917203	keystroke	w	n/a
458.8415	0.12	917683	keystroke	a	n/a
458.8865	0.1045	917773	keystroke	r	n/a
459.0665	0.105	918133	keystroke	n	n/a
459.1865	0.135	918373	keystroke	i	n/a
459.291	0.1055	918582	keystroke	n	n/a
459.3515	0.075	918703	keystroke	g	n/a
459.4565	0.1045	918913	keystroke	Key.space	n/a
459.6515	0.105	919303	keystroke	w	n/a
459.8465	0.105	919693	keystroke	r	n/a
460.0115	0.075	920023	keystroke	s	n/a
460.1315	0.12	920263	keystroke	e	n/a
460.311	0.1055	920622	keystroke	s	n/a
460.6265	0.06	921253	keystroke	Key.backspace	n/a
460.7465	0.0595	921493	keystroke	Key.backspace	n/a
460.8815	0.09	921763	keystroke	Key.backspace	n/a
460.9865	0.09	921973	keystroke	e	n/a
461.106	0.1055	922212	keystroke	s	n/a
461.2265	0.09	922453	keystroke	t	n/a
461.3615	0.06	922723	keystroke	l	n/a
461.7665	0.135	923533	keystroke	i	n/a
461.8715	0.09	923743	keystroke	n	n/a
461.9765	0.105	923953	keystroke	g	n/a
462.3515	0.12	924703	keystroke	Key.space	n/a
462.6965	0.09	925393	keystroke	f	n/a
462.8465	0.12	925693	keystroke	a	n/a
462.9365	0.06	925873	keystroke	t	n/a
463.3115	0.105	926623	keystroke	e	n/a
463.521	0.0905	927042	keystroke	Key.enter	n/a
463.6155	5.5175	927231	prompt	n/a	terrace kernel ozone tunisia\n
464.2415	0.075	928483	keystroke	t	n/a
464.4215	0.12	928843	keystroke	e	n/a
464.5715	0.06	929143	keystroke	r	n/a
464.706	0.0755	929412	keystroke	r	n/a
464.8115	0.0895	929623	keystroke	a	n/a
464.991	0.1805	929982	keystroke	c	n/a
465.1415	0.105	930283	keystroke	e	n/a
465.276	0.0905	930552	keystroke	Key.space	n/a
465.3815	0.135	930763	keystroke	k	n/a
465.5015	0.0745	931003	keystroke	e	n/a
465.5615	0.105	931123	keystroke	r	n/a
465.6965	0.105	931393	keystroke	n	n/a
465.9965	0.075	931993	keystroke	e	n/a
466.1615	0.105	932323	keystroke	l	n/a
466.2665	0.09	932533	keystroke	Key.space	n/a
466.596	0.0755	933192	keystroke	o	n/a
466.8215	0.09	933643	keystroke	z	n/a
467.0165	0.105	934033	keystroke	o	n/a
467.1665	0.15	934333	keystroke	n	n/a
467.3615	0.075	934723	keystroke	e	n/a
467.4815	0.09	934963	keystroke	Key.space	n/a
467.7365	0.09	935473	keystroke	t	n/a
467.9165	0.0445	935833	keystroke	u	n/a
468.1865	0.1045	936373	keystroke	n	n/a
468.276	0.1205	936552	keystroke	i	n/a
468.4115	0.075	936823	keystroke	s	n/a
468.7565	0.105	937513	keystroke	i	n/a
468.891	0.1055	937782	keystroke	a	n/a
469.0415	0.09	938083	keystroke	Key.enter	n/a
469.1355	4.947	938271	prompt	n/a	intend vocal enabled highs\n
469.7465	0.135	939493	keystroke	i	n/a
469.821	0.1205	939642	keystroke	n	n/a
469.9565	0.105	939913	keystroke	t	n/a
470.0315	0.09	940063	keystroke	e	n/a
470.1815	0.105	940363	keystroke	n	n/a
470.3015	0.0895	940603	keystroke	d	n/a
470.421	0.1355	940842	keystroke	Key.space	n/a
470.6165	0.0895	941233	keystroke	v	n/a
470.7215	0.09	941443	keystroke	o	n/a
470.8415	0.1495	941683	keystroke	c	n/a
470.9315	0.12	941863	keystroke	a	n/a
471.1565	0.1195	942313	keystroke	l	n/a
471.2465	0.105	942493	keystroke	Key.space	n/a
471.5465	0.075	943093	keystroke	e	n/a
471.6365	0.0745	943273	keystroke	n	n/a
471.7265	0.135	943453	keystroke	a	n/a
471.9365	0.135	943873	keystroke	b	n/a
472.3715	0.06	944743	keystroke	l	n/a
472.491	0.0755	944982	keystroke	e	n/a
472.6865	0.0895	945373	keystroke	d	n/a
472.806	0.1355	945612	keystroke	Key.space	n/a
473.2265	0.09	946453	keystroke	h	n/a
473.3165	0.15	946633	keystroke	i	n/a
473.5115	0.0905	947023	keystroke	g	n/a
473.616	0.1055	947232	keystroke	h	n/a
473.8715	0.075	947743	keystroke	s	n/a
473.976	0.1055	947952	keystroke	Key.enter	n/a
474.0855	5.232	948171	prompt	n/a	mainstream thereof felt circuits\n
474.801	0.0605	949602	keystroke	m	n/a
474.8465	0.105	949693	keystroke	a	n/a
474.9665	0.1205	949933	keystroke	i	n/a
475.0415	0.09	950083	keystroke	n	n/a
475.1465	0.075	950293	keystroke	s	n/a
475.2815	0.075	950563	keystroke	t	n/a
475.4165	0.165	950833	keystroke	r	n/a
475.5215	0.12	951043	keystroke	e	n/a
475.6715	0.09	951343	keystroke	a	n/a
475.791	0.1205	951582	keystroke	m	n/a
475.8965	0.105	951793	keystroke	Key.space	n/a
476.1365	0.075	952273	keystroke	t	n/a
476.196	0.1055	952392	keystroke	h	n/a
476.3315	0.0745	952663	keystroke	e	n/a
476.437	0.1045	952874	keystroke	r	n/a
476.5115	0.09	953023	keystroke	e	n/a
476.826	0.0755	953652	keystroke	o	n/a
476.9465	0.105	953893	keystroke	f	n/a
477.0665	0.135	954133	keystroke	Key.space	n/a
477.3665	0.0895	954733	keystroke	f	n/a
477.4415	0.12	954883	keystroke	e	n/a
477.622	0.1045	955244	keystroke	l	n/a
477.7415	0.075	955483	keystroke	t	n/a
477.8615	0.12	955723	keystroke	Key.space	n/a
478.1315	0.105	956263	keystroke	c	n/a
478.2515	0.09	956503	keystroke	i	n/a
478.3715	0.045	956743	keystroke	r	n/a
478.5365	0.105	957073	keystroke	c	n/a
478.6565	0.1195	957313	keystroke	u	n/a
478.8215	0.075	957643	keystroke	i	n/a
478.9265	0.075	957853	keystroke	t	n/a
479.106	0.1055	958212	keystroke	s	n/a
479.2265	0.09	958453	keystroke	Key.enter	n/a
479.32	5.217	958640	prompt	n/a	streets serve dans forces\n
479.8865	0.075	959773	keystroke	s	n/a
480.021	0.0755	960042	keystroke	t	n/a
480.2015	0.06	960403	keystroke	r	n/a
480.2165	0.1045	960433	keystroke	e	n/a
480.3965	0.09	960793	keystroke	e	n/a
480.5465	0.09	961093	keystroke	t	n/a
480.7115	0.09	961423	keystroke	s	n/a
480.8465	0.12	961693	keystroke	Key.space	n/a
481.0265	0.135	962053	keystroke	s	n/a
481.206	0.0755	962412	keystroke	e	n/a
481.2365	0.09	962473	keystroke	r	n/a
481.4615	0.09	962923	keystroke	v	n/a
481.6115	0.105	963223	keystroke	e	n/a
481.776	0.09	963552	keystroke	Key.space	n/a
481.8965	0.15	963793	keystroke	f	n/a
482.1365	0.075	964273	keystroke	a	n/a
482.391	0.0455	964782	keystroke	Key.backspace	n/a
482.4815	0.075	964963	keystroke	Key.backspace	n/a
482.7665	0.09	965533	keystroke	d	n/a
482.8715	0.105	965743	keystroke	a	n/a
483.0215	0.135	966043	keystroke	n	n/a
483.1715	0.09	966343	keystroke	s	n/a
483.291	0.105	966582	keystroke	Key.space	n/a
483.6365	0.075	967273	keystroke	f	n/a
483.7415	0.09	967483	keystroke	o	n/a
483.8165	0.0745	967633	keystroke	r	n/a
484.0265	0.15	968053	keystroke	c	n/a
484.1015	0.12	968203	keystroke	e	n/a
484.3115	0.105	968623	keystroke	s	n/a
484.4315	0.1045	968863	keystroke	Key.enter	n/a
484.5395	4.7675	969079	prompt	n/a	races savings childrens bent\n
485.2415	0.015	970483	keystroke	r	n/a
485.3165	0.12	970633	keystroke	a	n/a
485.4215	0.24	970843	keystroke	c	n/a
485.6015	0.1045	971203	keystroke	e	n/a
485.781	0.0905	971562	keystroke	s	n/a
485.8865	0.1045	971773	keystroke	Key.space	n/a
486.0215	0.12	972043	keystroke	s	n/a
486.1265	0.1495	972253	keystroke	a	n/a
486.306	0.135	972612	keystroke	v	n/a
486.4715	0.1345	972943	keystroke	i	n/a
486.5615	0.105	973123	keystroke	n	n/a
486.591	0.121	973182	keystroke	g	n/a
486.8165	0.105	973633	keystroke	s	n/a
486.9365	0.1195	973873	keystroke	Key.space	n/a
487.191	0.1055	974382	keystroke	c	n/a
487.2515	0.15	974503	keystroke	h	n/a
487.3565	0.1195	974713	keystroke	i	n/a
487.4315	0.105	974863	keystroke	l	n/a
487.5215	0.105	975043	keystroke	d	n/a
487.7315	0.105	975463	keystroke	r	n/a
487.806	0.1055	975612	keystroke	e	n/a
487.9415	0.1345	975883	keystroke	n	n/a
488.091	0.0605	976182	keystroke	s	n/a
488.1665	0.09	976333	keystroke	Key.space	n/a
488.391	0.0755	976782	keystroke	b	n/a
488.5565	0.0905	977113	keystroke	e	n/a
488.6165	0.12	977233	keystroke	n	n/a
488.797	0.0745	977594	keystroke	t	n/a
489.2165	0.0895	978433	keystroke	Key.enter	n/a
489.3095	9.779	978619	prompt	n/a	builders strengths trusts stephanie\n
490.0115	0.09	980023	keystroke	b	n/a
490.1165	0.1495	980233	keystroke	u	n/a
490.206	0.1055	980412	keystroke	i	n/a
490.2815	0.12	980563	keystroke	l	n/a
490.4315	0.09	980863	keystroke	d	n/a
490.7165	0.135	981433	keystroke	e	n/a
490.8365	0.105	981673	keystroke	r	n/a
491.061	0.0755	982122	keystroke	s	n/a
491.1665	0.12	982333	keystroke	Key.space	n/a
491.2865	0.046	982573	keystroke	s	n/a
491.3615	0.075	982723	keystroke	t	n/a
491.541	0.0755	983082	keystroke	r	n/a
491.5865	0.1045	983173	keystroke	e	n/a
491.9465	0.12	983893	keystroke	n	n/a
492.0965	0.1045	984193	keystroke	g	n/a
492.5615	0.0755	985123	keystroke	h	n/a
492.6815	0.075	985363	keystroke	t	n/a
493.1165	0.0595	986233	keystroke	Key.backspace	n/a
493.2215	0.06	986443	keystroke	Key.backspace	n/a
493.3415	0.0905	986683	keystroke	t	n/a
493.6865	0.045	987373	keystroke	s	n/a
493.9565	0.075	987913	keystroke	Key.backspace	n/a
494.167	0.0745	988334	keystroke	h	n/a
494.317	0.089	988634	keystroke	s	n/a
494.4215	0.105	988843	keystroke	Key.space	n/a
494.6165	0.0895	989233	keystroke	s	n/a
494.7215	0.06	989443	keystroke	t	n/a
494.8715	0.075	989743	keystroke	r	n/a
494.9615	0.06	989923	keystroke	u	n/a
495.1265	0.12	990253	keystroke	s	n/a
495.2615	0.0445	990523	keystroke	t	n/a
495.4565	0.105	990913	keystroke	s	n/a
496.6265	0.105	993253	keystroke	Key.space	n/a
497.0315	0.0445	994063	keystroke	s	n/a
497.1965	0.1045	994393	keystroke	t	n/a
497.9165	0.0895	995833	keystroke	e	n/a
498.171	0.135	996342	keystroke	p	n/a
498.276	0.1205	996552	keystroke	h	n/a
498.4565	0.1195	996913	keystroke	a	n/a
498.6065	0.105	997213	keystroke	n	n/a
498.7115	0.09	997423	keystroke	i	n/a
498.8165	0.0745	997633	keystroke	e	n/a
498.9965	0.09	997993	keystroke	Key.enter	n/a
499.0935	5.064	998187	prompt	n/a	pregnancy printer push spot\n
499.7315	0.09	999463	keystroke	p	n/a
499.8365	0.15	999673	keystroke	r	n/a
499.9115	0.105	999823	keystroke	e	n/a
500.1225	0.089	1000245	keystroke	g	n/a
500.406	0.0905	1000812	keystroke	n	n/a
500.496	0.0905	1000992	keystroke	a	n/a
500.6015	0.06	1001203	keystroke	n	n/a
500.691	0.1355	1001382	keystroke	c	n/a
500.8415	0.075	1001683	keystroke	y	n/a
501.0215	0.075	1002043	keystroke	Key.space	n/a
501.2615	0.1505	1002523	keystroke	p	n/a
501.4265	0.075	1002853	keystroke	r	n/a
501.5315	0.105	1003063	keystroke	i	n/a
501.591	0.1055	1003182	keystroke	n	n/a
501.6965	0.105	1003393	keystroke	t	n/a
501.9065	0.105	1003813	keystroke	e	n/a
501.9665	0.075	1003933	keystroke	r	n/a
502.0715	0.1195	1004143	keystroke	Key.space	n/a
502.2665	0.12	1004533	keystroke	p	n/a
502.3265	0.075	1004653	keystroke	u	n/a
502.5515	0.075	1005103	keystroke	s	n/a
502.6265	0.105	1005253	keystroke	h	n/a
503.167	0.0745	1006334	keystroke	Key.space	n/a
503.5265	0.12	1007053	keystroke	s	n/a
503.661	0.1205	1007322	keystroke	p	n/a
503.872	0.0895	1007744	keystroke	o	n/a
503.991	0.0905	1007982	keystroke	t	n/a
504.0965	0.06	1008193	keystroke	Key.enter	n/a
504.1605	6.4465	1008321	prompt	n/a	amendments religions blair award\n
504.8015	0.1045	1009603	keystroke	a	n/a
504.981	0.1055	1009962	keystroke	m	n/a
505.1015	0.0745	1010203	keystroke	e	n/a
505.2365	0.09	1010473	keystroke	n	n/a
505.3415	0.09	1010683	keystroke	d	n/a
505.6415	0.105	1011283	keystroke	m	n/a
505.7615	0.075	1011523	keystroke	e	n/a
505.837	0.105	1011674	keystroke	n	n/a
505.927	0.0895	1011854	keystroke	t	n/a
506.091	0.1055	1012182	keystroke	s	n/a
506.2265	0.12	1012453	keystroke	Key.space	n/a
506.4215	0.12	1012843	keystroke	r	n/a
506.5265	0.06	1013053	keystroke	e	n/a
506.8415	0.135	1013683	keystroke	l	n/a
506.9015	0.1045	1013803	keystroke	i	n/a
507.0965	0.09	1014193	keystroke	g	n/a
507.3965	0.12	1014793	keystroke	i	n/a
507.6215	0.15	1015243	keystroke	o	n/a
507.7415	0.12	1015483	keystroke	n	n/a
507.876	0.1355	1015752	keystroke	s	n/a
508.0265	0.075	1016053	keystroke	Key.space	n/a
508.2665	0.075	1016533	keystroke	b	n/a
508.4165	0.105	1016833	keystroke	l	n/a
508.5515	0.09	1017103	keystroke	a	n/a
508.7165	0.1045	1017433	keystroke	i	n/a
508.8515	0.06	1017703	keystroke	r	n/a
508.9715	0.0905	1017943	keystroke	Key.space	n/a
509.4515	0.0605	1018903	keystroke	a	n/a
509.5865	0.0895	1019173	keystroke	w	n/a
509.7815	0.075	1019563	keystroke	a	n/a
509.9625	0.134	1019925	keystroke	r	n/a
510.3515	0.09	1020703	keystroke	d	n/a
510.5015	0.1045	1021003	keystroke	Key.enter	n/a
510.61	7.3625	1021220	prompt	n/a	notice demographic occur printed\n
511.222	0.1045	1022444	keystroke	n	n/a
511.3415	0.09	1022683	keystroke	o	n/a
511.4165	0.0895	1022833	keystroke	t	n/a
511.5365	0.105	1023073	keystroke	i	n/a
511.6565	0.165	1023313	keystroke	c	n/a
511.8515	0.075	1023703	keystroke	e	n/a
512.047	0.0895	1024094	keystroke	Key.space	n/a
512.3165	0.0595	1024633	keystroke	d	n/a
512.4815	0.0605	1024963	keystroke	e	n/a
512.5715	0.1195	1025143	keystroke	m	n/a
512.6765	0.105	1025353	keystroke	o	n/a
513.0215	0.09	1026043	keystroke	g	n/a
513.2015	0.12	1026403	keystroke	r	n/a
513.262	0.105	1026524	keystroke	a	n/a
513.367	0.1045	1026734	keystroke	p	n/a
513.4865	0.105	1026973	keystroke	h	n/a
513.6065	0.0905	1027213	keystroke	i	n/a
513.712	0.1345	1027424	keystroke	c	n/a
513.8915	0.12	1027783	keystroke	Key.space	n/a
514.312	0.0895	1028624	keystroke	c	n/a
514.6865	0.06	1029373	keystroke	Key.backspace	n/a
514.8825	0.074	1029765	keystroke	o	n/a
514.9865	0.105	1029973	keystroke	c	n/a
515.257	0.0745	1030514	keystroke	u	n/a
515.422	0.0895	1030844	keystroke	r	n/a
515.557	0.0745	1031114	keystroke	Key.space	n/a
516.037	0.0445	1032074	keystroke	Key.backspace	n/a
516.1415	0.075	1032283	keystroke	Key.backspace	n/a
516.276	0.076	1032552	keystroke	Key.backspace	n/a
516.3815	0.0905	1032763	keystroke	c	n/a
516.472	0.0745	1032944	keystroke	u	n/a
516.5915	0.075	1033183	keystroke	r	n/a
516.6965	0.1205	1033393	keystroke	Key.space	n/a
517.0415	0.076	1034083	keystroke	p	n/a
517.1615	0.075	1034323	keystroke	r	n/a
517.2675	0.119	1034535	keystroke	i	n/a
517.3415	0.09	1034683	keystroke	n	n/a
517.417	0.089	1034834	keystroke	t	n/a
517.6115	0.06	1035223	keystroke	e	n/a
517.7765	0.1055	1035553	keystroke	d	n/a
517.897	0.0745	1035794	keystroke	Key.enter	n/a
517.975	7.1975	1035950	prompt	n/a	crystal compression myers interactions\n
518.632	0.0895	1037264	keystroke	c	n/a
518.8115	0.091	1037623	keystroke	r	n/a
518.9315	0.075	1037863	keystroke	y	n/a
519.0665	0.06	1038133	keystroke	s	n/a
519.172	0.1045	1038344	keystroke	t	n/a
519.367	0.0745	1038734	keystroke	a	n/a
519.472	0.1195	1038944	keystroke	l	n/a
519.5765	0.12	1039153	keystroke	Key.space	n/a
519.9065	0.0905	1039813	keystroke	c	n/a
519.997	0.165	1039994	keystroke	o	n/a
520.132	0.1345	1040264	keystroke	m	n/a
520.2065	0.1205	1040413	keystroke	p	n/a
520.627	0.135	1041254	keystroke	r	n/a
520.717	0.12	1041434	keystroke	e	n/a
520.927	0.0745	1041854	keystroke	s	n/a
521.137	0.06	1042274	keystroke	s	n/a
521.3015	0.15	1042603	keystroke	i	n/a
521.3915	0.1655	1042783	keystroke	o	n/a
521.5265	0.105	1043053	keystroke	n	n/a
521.602	0.1195	1043204	keystroke	Key.space	n/a
521.812	0.06	1043624	keystroke	m	n/a
522.0065	0.0755	1044013	keystroke	y	n/a
522.247	0.1345	1044494	keystroke	e	n/a
522.352	0.1195	1044704	keystroke	r	n/a
522.5765	0.105	1045153	keystroke	s	n/a
522.7565	0.0905	1045513	keystroke	Key.space	n/a
523.087	0.1355	1046174	keystroke	i	n/a
523.1765	0.1055	1046353	keystroke	n	n/a
523.297	0.075	1046594	keystroke	t	n/a
523.4915	0.09	1046983	keystroke	e	n/a
523.5515	0.0905	1047103	keystroke	r	n/a
523.7465	0.1055	1047493	keystroke	a	n/a
523.882	0.105	1047764	keystroke	c	n/a
524.062	0.09	1048124	keystroke	t	n/a
524.1815	0.15	1048363	keystroke	i	n/a
524.287	0.1345	1048574	keystroke	o	n/a
524.362	0.1195	1048724	keystroke	n	n/a
524.5115	0.1055	1049023	keystroke	s	n/a
525.082	0.09	1050164	keystroke	Key.enter	n/a
525.1755	5.622	1050351	prompt	n/a	tests lighting parallel minimum\n
525.832	0.0745	1051664	keystroke	t	n/a
525.952	0.105	1051904	keystroke	e	n/a
526.1015	0.0605	1052203	keystroke	s	n/a
526.162	0.105	1052324	keystroke	t	n/a
526.282	0.105	1052564	keystroke	s	n/a
526.432	0.105	1052864	keystroke	Key.space	n/a
526.657	0.1345	1053314	keystroke	l	n/a
526.717	0.105	1053434	keystroke	i	n/a
526.837	0.09	1053674	keystroke	g	n/a
526.987	0.0895	1053974	keystroke	h	n/a
527.332	0.0745	1054664	keystroke	t	n/a
527.737	0.075	1055474	keystroke	i	n/a
527.857	0.1495	1055714	keystroke	n	n/a
527.962	0.09	1055924	keystroke	g	n/a
528.082	0.105	1056164	keystroke	Key.space	n/a
528.337	0.09	1056674	keystroke	p	n/a
528.4425	0.0595	1056885	keystroke	a	n/a
528.517	0.0895	1057034	keystroke	r	n/a
528.622	0.09	1057244	keystroke	a	n/a
529.042	0.06	1058084	keystroke	l	n/a
529.1765	0.0755	1058353	keystroke	l	n/a
529.3115	0.0605	1058623	keystroke	e	n/a
529.402	0.0745	1058804	keystroke	l	n/a
529.537	0.09	1059074	keystroke	Key.space	n/a
529.8065	0.0905	1059613	keystroke	m	n/a
529.927	0.105	1059854	keystroke	i	n/a
530.017	0.0745	1060034	keystroke	n	n/a
530.1065	0.1055	1060213	keystroke	i	n/a
530.272	0.09	1060544	keystroke	m	n/a
530.452	0.045	1060904	keystroke	u	n/a
530.617	0.045	1061234	keystroke	m	n/a
530.752	0.045	1061504	keystroke	Key.enter	n/a
530.801	7.2865	1061602	prompt	n/a	cognitive enrollment antibodies result\n
531.5765	0.0905	1063153	keystroke	c	n/a
531.667	0.075	1063334	keystroke	o	n/a
531.757	0.105	1063514	keystroke	g	n/a
531.847	0.105	1063694	keystroke	n	n/a
531.9215	0.0755	1063843	keystroke	i	n/a
532.0125	0.1045	1064025	keystroke	t	n/a
532.102	0.0745	1064204	keystroke	i	n/a
532.237	0.12	1064474	keystroke	v	n/a
532.372	0.1045	1064744	keystroke	e	n/a
532.567	0.105	1065134	keystroke	Key.space	n/a
532.882	0.075	1065764	keystroke	e	n/a
532.942	0.105	1065884	keystroke	n	n/a
533.0765	0.075	1066153	keystroke	r	n/a
533.197	0.06	1066394	keystroke	o	n/a
533.3765	0.0455	1066753	keystroke	l	n/a
533.527	0.06	1067054	keystroke	l	n/a
533.842	0.09	1067684	keystroke	m	n/a
534.0395	0.0875	1068079	keystroke	n	n/a
534.412	0.045	1068824	keystroke	Key.backspace	n/a
534.502	0.0745	1069004	keystroke	e	n/a
534.6065	0.1055	1069213	keystroke	n	n/a
534.757	0.09	1069514	keystroke	t	n/a
534.832	0.09	1069664	keystroke	Key.space	n/a
535.102	0.06	1070204	keystroke	a	n/a
535.1915	0.1055	1070383	keystroke	n	n/a
535.327	0.09	1070654	keystroke	t	n/a
535.402	0.1045	1070804	keystroke	i	n/a
535.627	0.0745	1071254	keystroke	b	n/a
535.7165	0.09	1071433	keystroke	o	n/a
535.837	0.09	1071674	keystroke	d	n/a
535.942	0.12	1071884	keystroke	i	n/a
536.0465	0.06	1072093	keystroke	e	n/a
536.167	0.105	1072334	keystroke	s	n/a
536.287	0.0895	1072574	keystroke	Key.space	n/a
536.722	0.09	1073444	keystroke	r	n/a
536.917	0.1045	1073834	keystroke	s	n/a
537.337	0.06	1074674	keystroke	Key.backspace	n/a
537.427	0.075	1074854	keystroke	e	n/a
537.547	0.105	1075094	keystroke	s	n/a
537.667	0.09	1075334	keystroke	u	n/a
537.742	0.09	1075484	keystroke	l	n/a
537.8765	0.09	1075753	keystroke	t	n/a
538.012	0.075	1076024	keystroke	Key.enter	n/a
538.0905	5.4575	1076181	prompt	n/a	adjustable tells hamilton alias\n
538.702	0.0745	1077404	keystroke	a	n/a
538.822	0.105	1077644	keystroke	d	n/a
538.9115	0.0605	1077823	keystroke	j	n/a
539.0765	0.0605	1078153	keystroke	u	n/a
539.137	0.09	1078274	keystroke	s	n/a
539.227	0.045	1078454	keystroke	t	n/a
539.347	0.12	1078694	keystroke	a	n/a
539.5415	0.0905	1079083	keystroke	b	n/a
539.6915	0.1055	1079383	keystroke	l	n/a
539.812	0.06	1079624	keystroke	e	n/a
539.932	0.105	1079864	keystroke	Key.space	n/a
540.2915	0.0905	1080583	keystroke	t	n/a
540.412	0.105	1080824	keystroke	e	n/a
540.622	0.045	1081244	keystroke	l	n/a
540.772	0.1045	1081544	keystroke	l	n/a
540.9065	0.0755	1081813	keystroke	s	n/a
541.012	0.09	1082024	keystroke	Key.space	n/a
541.237	0.09	1082474	keystroke	h	n/a
541.417	0.0595	1082834	keystroke	a	n/a
541.5215	0.1055	1083043	keystroke	m	n/a
541.672	0.06	1083344	keystroke	i	n/a
541.762	0.12	1083524	keystroke	l	n/a
541.957	0.09	1083914	keystroke	t	n/a
542.1065	0.0605	1084213	keystroke	o	n/a
542.332	0.105	1084664	keystroke	n	n/a
542.452	0.105	1084904	keystroke	Key.space	n/a
542.7515	0.0755	1085503	keystroke	a	n/a
542.872	0.09	1085744	keystroke	l	n/a
543.067	0.06	1086134	keystroke	i	n/a
543.142	0.12	1086284	keystroke	a	n/a
543.2765	0.105	1086553	keystroke	s	n/a
543.457	0.09	1086914	keystroke	Key.enter	n/a
543.5505	4.7675	1087101	prompt	n/a	villa equality busy likes\n
544.252	0.105	1088504	keystroke	v	n/a
544.327	0.075	1088654	keystroke	i	n/a
544.5065	0.0605	1089013	keystroke	l	n/a
544.642	0.075	1089284	keystroke	l	n/a
544.702	0.12	1089404	keystroke	a	n/a
544.7765	0.1355	1089553	keystroke	Key.space	n/a
545.137	0.105	1090274	keystroke	e	n/a
545.257	0.105	1090514	keystroke	q	n/a
545.4065	0.1205	1090813	keystroke	u	n/a
545.6765	0.1055	1091353	keystroke	a	n/a
545.827	0.1195	1091654	keystroke	l	n/a
546.142	0.09	1092284	keystroke	i	n/a
546.247	0.0755	1092494	keystroke	t	n/a
546.352	0.075	1092704	keystroke	y	n/a
546.562	0.0745	1093124	keystroke	Key.space	n/a
546.757	0.075	1093514	keystroke	b	n/a
