onset	duration	sample	value	key	prompt_text
167.93	0.123	335860	keystroke_s	s	n/a
168.0415	0.079	336083	keystroke_e	e	n/a
168.0865	0.1015	336173	keystroke_a	a	n/a
168.154	0.1125	336308	keystroke_n	n	n/a
168.4015	0.09	336803	keystroke_b	b	n/a
168.5035	0.0895	337007	keystroke_i	i	n/a
168.604	0.079	337208	keystroke_t	t	n/a
168.7615	0.1125	337523	keystroke_t	t	n/a
168.908	0.113	337816	keystroke_n	n	n/a
169.01	0.1015	338020	keystroke_e	e	n/a
169.0995	0.067	338199	keystroke_r	r	n/a
169.1785	0.078	338357	keystroke_Key.tab	Key.tab	n/a
169.504	0.045	339008	keystroke_o	o	n/a
169.5155	0.1125	339031	keystroke_n	n	n/a
169.6165	0.079	339233	keystroke_Key.tab	Key.tab	n/a
170.247	0.1235	340494	keystroke_Key.cmd	Key.cmd	n/a
170.303	0.0335	340606	keystroke_v	v	n/a
171.1805	0.0565	342361	keystroke_Key.tab	Key.tab	n/a
171.4055	0.101	342811	keystroke_Key.tab	Key.tab	n/a
172.4405	0.0675	344881	keystroke_Key.enter	Key.enter	n/a
178.8845	9.6665	357769	prompt	n/a	the quick brown fox jumps over a lazy dog\n
181.024	0.09	362048	keystroke_t	t	n/a
182.127	0.101	364254	keystroke_Key.esc	Key.esc	n/a
182.8805	0.0795	365761	keystroke_t	t	n/a
182.982	0.101	365964	keystroke_h	h	n/a
183.0495	0.0675	366099	keystroke_e	e	n/a
183.173	0.1125	366346	keystroke_Key.space	Key.space	n/a
183.2965	0.034	366593	keystroke_q	q	n/a
183.364	0.158	366728	keystroke_u	u	n/a
183.4435	0.123	366887	keystroke_i	i	n/a
183.578	0.0785	367156	keystroke_c	c	n/a
183.668	0.146	367336	keystroke_k	k	n/a
183.7805	0.113	367561	keystroke_Key.space	Key.space	n/a
183.8815	0.079	367763	keystroke_b	b	n/a
184.0955	0.0785	368191	keystroke_r	r	n/a
184.1965	0.0675	368393	keystroke_o	o	n/a
184.2985	0.0785	368597	keystroke_w	w	n/a
184.399	0.1125	368798	keystroke_n	n	n/a
184.489	0.1125	368978	keystroke_Key.space	Key.space	n/a
184.984	0.1125	369968	keystroke_f	f	n/a
185.0965	0.09	370193	keystroke_o	o	n/a
185.209	0.1125	370418	keystroke_x	x	n/a
185.4455	0.101	370891	keystroke_Key.space	Key.space	n/a
185.67	0.0565	371340	keystroke_j	j	n/a
185.8165	0.09	371633	keystroke_u	u	n/a
186.0305	0.1685	372061	keystroke_m	m	n/a
186.0865	0.101	372173	keystroke_p	p	n/a
186.21	0.079	372420	keystroke_s	s	n/a
186.345	0.09	372690	keystroke_Key.space	Key.space	n/a
186.5365	0.0785	373073	keystroke_o	o	n/a
186.6265	0.0675	373253	keystroke_v	v	n/a
186.795	0.1125	373590	keystroke_e	e	n/a
186.8625	0.1125	373725	keystroke_r	r	n/a
186.942	0.1015	373884	keystroke_Key.space	Key.space	n/a
187.077	0.078	374154	keystroke_a	a	n/a
187.2115	0.101	374423	keystroke_Key.space	Key.space	n/a
187.617	0.078	375234	keystroke_l	l	n/a
187.6845	0.0675	375369	keystroke_a	a	n/a
187.875	0.079	375750	keystroke_z	z	n/a
187.965	0.09	375930	keystroke_y	y	n/a
188.0215	0.1125	376043	keystroke_Key.space	Key.space	n/a
188.145	0.0675	376290	keystroke_d	d	n/a
188.235	0.113	376470	keystroke_o	o	n/a
188.3475	0.0565	376695	keystroke_g	g	n/a
188.494	0.056	376988	keystroke_Key.enter	Key.enter	n/a
188.5545	22.159	377109	prompt	n/a	late harbor blackjack stated\n
205.4245	0.0675	410849	keystroke_Key.esc	Key.esc	n/a
206.4145	0.079	412829	keystroke_l	l	n/a
206.482	0.124	412964	keystroke_a	a	n/a
206.5945	0.1465	413189	keystroke_t	t	n/a
206.6735	0.0785	413347	keystroke_e	e	n/a
206.7635	0.1235	413527	keystroke_Key.space	Key.space	n/a
206.955	0.067	413910	keystroke_h	h	n/a
206.9885	0.1235	413977	keystroke_a	a	n/a
207.0785	0.101	414157	keystroke_r	r	n/a
207.337	0.0115	414674	keystroke_b	b	n/a
207.416	0.09	414832	keystroke_o	o	n/a
207.517	0.0675	415034	keystroke_r	r	n/a
207.6185	0.125	415237	keystroke_Key.space	Key.space	n/a
207.9335	0.135	415867	keystroke_b	b	n/a
208.451	0.056	416902	keystroke_l	l	n/a
208.586	0.0905	417172	keystroke_a	a	n/a
208.6875	0.101	417375	keystroke_c	c	n/a
208.7995	0.1015	417599	keystroke_k	k	n/a
209.0475	0.067	418095	keystroke_j	j	n/a
209.148	0.0675	418296	keystroke_a	a	n/a
209.306	0.067	418612	keystroke_c	c	n/a
209.3845	0.1355	418769	keystroke_k	k	n/a
209.486	0.1125	418972	keystroke_Key.space	Key.space	n/a
209.936	0.0905	419872	keystroke_s	s	n/a
210.003	0.102	420006	keystroke_t	t	n/a
210.1275	0.157	420255	keystroke_a	a	n/a
210.228	0.1245	420456	keystroke_t	t	n/a
210.341	0.0445	420682	keystroke_e	e	n/a
210.498	0.09	420996	keystroke_d	d	n/a
210.6785	0.034	421357	keystroke_Key.enter	Key.enter	n/a
210.7165	7.613	421433	prompt	n/a	accurately compaq commissioner every\n
211.578	0.0905	423156	keystroke_a	a	n/a
211.8145	0.034	423629	keystroke_c	c	n/a
211.9385	0.112	423877	keystroke_c	c	n/a
212.0845	0.1125	424169	keystroke_u	u	n/a
212.1855	0.079	424371	keystroke_r	r	n/a
212.277	0.0665	424554	keystroke_a	a	n/a
213.266	0.1125	426532	keystroke_t	t	n/a
213.334	0.0895	426668	keystroke_e	e	n/a
213.4575	0.1125	426915	keystroke_l	l	n/a
213.5025	0.135	427005	keystroke_y	y	n/a
213.5815	0.0895	427163	keystroke_Key.space	Key.space	n/a
213.9185	0.0895	427837	keystroke_c	c	n/a
213.997	0.1235	427994	keystroke_o	o	n/a
214.031	0.135	428062	keystroke_m	m	n/a
214.132	0.1235	428264	keystroke_p	p	n/a
214.346	0.09	428692	keystroke_a	a	n/a
214.8185	0.0785	429637	keystroke_q	q	n/a
215.032	0.1125	430064	keystroke_Key.space	Key.space	n/a
215.2125	0.0895	430425	keystroke_c	c	n/a
215.2455	0.1125	430491	keystroke_o	o	n/a
215.3245	0.1125	430649	keystroke_m	m	n/a
216.1685	0.101	432337	keystroke_m	m	n/a
216.3935	0.09	432787	keystroke_i	i	n/a
216.4945	0.056	432989	keystroke_s	s	n/a
216.663	0.0675	433326	keystroke_s	s	n/a
216.7645	0.1575	433529	keystroke_i	i	n/a
216.821	0.0895	433642	keystroke_o	o	n/a
216.8655	0.113	433731	keystroke_n	n	n/a
217.1135	0.1235	434227	keystroke_e	e	n/a
217.192	0.09	434384	keystroke_r	r	n/a
217.3395	0.1335	434679	keystroke_Key.space	Key.space	n/a
217.631	0.067	435262	keystroke_e	e	n/a
217.7885	0.101	435577	keystroke_v	v	n/a
217.991	0.0895	435982	keystroke_e	e	n/a
218.047	0.08	436094	keystroke_r	r	n/a
218.137	0.09	436274	keystroke_y	y	n/a
218.272	0.0565	436544	keystroke_Key.enter	Key.enter	n/a
218.3325	6.8935	436665	prompt	n/a	chapel adjustable maldives chuck\n
219.003	0.102	438006	keystroke_c	c	n/a
219.0825	0.112	438165	keystroke_h	h	n/a
219.2175	0.1005	438435	keystroke_a	a	n/a
219.3185	0.067	438637	keystroke_p	p	n/a
219.453	0.0675	438906	keystroke_e	e	n/a
219.555	0.1125	439110	keystroke_l	l	n/a
219.633	0.09	439266	keystroke_Key.space	Key.space	n/a
219.802	0.09	439604	keystroke_a	a	n/a
220.005	0.09	440010	keystroke_d	d	n/a
220.2075	0.0555	440415	keystroke_j	j	n/a
220.3875	0.09	440775	keystroke_u	u	n/a
220.488	0.102	440976	keystroke_s	s	n/a
220.578	0.0905	441156	keystroke_t	t	n/a
220.758	0.1245	441516	keystroke_a	a	n/a
220.8705	0.1125	441741	keystroke_b	b	n/a
221.0175	0.067	442035	keystroke_l	l	n/a
221.107	0.0675	442214	keystroke_e	e	n/a
221.243	0.0895	442486	keystroke_Key.space	Key.space	n/a
221.625	0.123	443250	keystroke_m	m	n/a
221.7145	0.09	443429	keystroke_a	a	n/a
222.1645	0.101	444329	keystroke_l	l	n/a
222.3445	0.101	444689	keystroke_d	d	n/a
222.592	0.09	445184	keystroke_i	i	n/a
222.626	0.135	445252	keystroke_v	v	n/a
223.053	0.1245	446106	keystroke_e	e	n/a
223.1665	0.067	446333	keystroke_s	s	n/a
223.29	0.101	446580	keystroke_Key.space	Key.space	n/a
223.616	0.0785	447232	keystroke_c	c	n/a
223.6835	0.0785	447367	keystroke_h	h	n/a
224.4145	0.0675	448829	keystroke_u	u	n/a
224.471	0.0785	448942	keystroke_c	c	n/a
224.561	0.1125	449122	keystroke_k	k	n/a
225.1795	0.045	450359	keystroke_Key.enter	Key.enter	n/a
225.2295	8.4895	450459	prompt	n/a	hanging salvador independent parliamentary\n
226.012	0.1125	452024	keystroke_h	h	n/a
226.102	0.101	452204	keystroke_a	a	n/a
226.293	0.0565	452586	keystroke_g	g	n/a
226.6435	0.0545	453287	keystroke_Key.backspace	Key.backspace	n/a
226.8445	0.09	453689	keystroke_n	n	n/a
226.9005	0.079	453801	keystroke_g	g	n/a
227.295	0.1005	454590	keystroke_i	i	n/a
227.328	0.1125	454656	keystroke_n	n	n/a
227.407	0.0675	454814	keystroke_g	g	n/a
227.553	0.079	455106	keystroke_Key.space	Key.space	n/a
227.8685	0.0895	455737	keystroke_s	s	n/a
228.1385	0.0335	456277	keystroke_l	l	n/a
228.532	0.0675	457064	keystroke_Key.backspace	Key.backspace	n/a
228.6105	0.1015	457221	keystroke_a	a	n/a
228.7455	0.079	457491	keystroke_l	l	n/a
228.903	0.1355	457806	keystroke_v	v	n/a
229.072	0.1015	458144	keystroke_a	a	n/a
229.252	0.0785	458504	keystroke_d	d	n/a
229.41	0.067	458820	keystroke_o	o	n/a
229.4995	0.0565	458999	keystroke_r	r	n/a
229.578	0.1015	459156	keystroke_Key.space	Key.space	n/a
229.702	0.1245	459404	keystroke_i	i	n/a
229.7805	0.1015	459561	keystroke_n	n	n/a
229.8705	0.09	459741	keystroke_d	d	n/a
230.073	0.045	460146	keystroke_e	e	n/a
230.22	0.09	460440	keystroke_p	p	n/a
230.58	0.078	461160	keystroke_e	e	n/a
230.7705	0.09	461541	keystroke_n	n	n/a
230.895	0.078	461790	keystroke_d	d	n/a
231.108	0.0565	462216	keystroke_e	e	n/a
231.2325	0.0895	462465	keystroke_n	n	n/a
231.3445	0.056	462689	keystroke_t	t	n/a
231.446	0.101	462892	keystroke_Key.space	Key.space	n/a
231.6145	0.1235	463229	keystroke_p	p	n/a
231.8505	0.1575	463701	keystroke_a	a	n/a
232.11	0.0675	464220	keystroke_r	r	n/a
232.278	0.09	464556	keystroke_l	l	n/a
232.4245	0.0785	464849	keystroke_i	i	n/a
232.5145	0.1235	465029	keystroke_a	a	n/a
232.6495	0.0675	465299	keystroke_m	m	n/a
232.8745	0.0785	465749	keystroke_e	e	n/a
232.987	0.1125	465974	keystroke_n	n	n/a
233.1105	0.0565	466221	keystroke_t	t	n/a
233.268	0.1015	466536	keystroke_a	a	n/a
233.37	0.067	466740	keystroke_r	r	n/a
233.527	0.101	467054	keystroke_y	y	n/a
233.662	0.056	467324	keystroke_Key.enter	Key.enter	n/a
233.722	6.2745	467444	prompt	n/a	bang would've elections uzbekistan\n
234.405	0.0785	468810	keystroke_b	b	n/a
234.5055	0.1015	469011	keystroke_a	a	n/a
234.652	0.09	469304	keystroke_n	n	n/a
234.731	0.101	469462	keystroke_g	g	n/a
234.8435	0.1235	469687	keystroke_Key.space	Key.space	n/a
234.9785	0.0785	469957	keystroke_w	w	n/a
235.3275	0.0895	470655	keystroke_o	o	n/a
235.361	0.18	470722	keystroke_u	u	n/a
235.53	0.0895	471060	keystroke_l	l	n/a
235.631	0.0455	471262	keystroke_d	d	n/a
236.0355	0.1015	472071	keystroke_'	'	n/a
236.148	0.1015	472296	keystroke_v	v	n/a
236.2155	0.0675	472431	keystroke_e	e	n/a
236.317	0.09	472634	keystroke_Key.space	Key.space	n/a
236.5765	0.0105	473153	keystroke_e	e	n/a
236.6205	0.1125	473241	keystroke_l	l	n/a
236.7445	0.056	473489	keystroke_e	e	n/a
236.9585	0.056	473917	keystroke_c	c	n/a
237.1155	0.079	474231	keystroke_t	t	n/a
237.206	0.1235	474412	keystroke_i	i	n/a
237.217	0.101	474434	keystroke_o	o	n/a
237.2735	0.101	474547	keystroke_n	n	n/a
237.3635	0.101	474727	keystroke_s	s	n/a
237.498	0.1015	474996	keystroke_Key.space	Key.space	n/a
238.0945	0.09	476189	keystroke_u	u	n/a
238.252	0.09	476504	keystroke_z	z	n/a
238.5335	0.146	477067	keystroke_b	b	n/a
238.77	0.033	477540	keystroke_e	e	n/a
238.882	0.0785	477764	keystroke_k	k	n/a
239.062	0.09	478124	keystroke_i	i	n/a
239.1405	0.1015	478281	keystroke_s	s	n/a
239.298	0.09	478596	keystroke_t	t	n/a
239.422	0.0785	478844	keystroke_a	a	n/a
239.568	0.1125	479136	keystroke_n	n	n/a
239.9395	0.056	479879	keystroke_Key.enter	Key.enter	n/a
240.002	4.7985	480004	prompt	n/a	perry trails cradle coast\n
240.8625	0.033	481725	keystroke_p	p	n/a
240.9295	0.101	481859	keystroke_e	e	n/a
241.042	0.011	482084	keystroke_r	r	n/a
241.211	0.067	482422	keystroke_r	r	n/a
241.3905	0.1015	482781	keystroke_y	y	n/a
241.4805	0.0795	482961	keystroke_Key.space	Key.space	n/a
241.6945	0.079	483389	keystroke_t	t	n/a
241.8855	0.125	483771	keystroke_r	r	n/a
241.9755	0.1015	483951	keystroke_a	a	n/a
242.437	0.124	484874	keystroke_i	i	n/a
242.5045	0.0675	485009	keystroke_l	l	n/a
242.5835	0.0675	485167	keystroke_s	s	n/a
242.6845	0.135	485369	keystroke_Key.space	Key.space	n/a
242.9545	0.135	485909	keystroke_c	c	n/a
243.1795	0.1235	486359	keystroke_r	r	n/a
243.292	0.124	486584	keystroke_a	a	n/a
243.4045	0.1125	486809	keystroke_d	d	n/a
243.5955	0.102	487191	keystroke_l	l	n/a
243.697	0.09	487394	keystroke_e	e	n/a
243.821	0.101	487642	keystroke_Key.space	Key.space	n/a
244.0685	0.1125	488137	keystroke_c	c	n/a
244.192	0.1125	488384	keystroke_o	o	n/a
244.316	0.0675	488632	keystroke_a	a	n/a
244.3495	0.0675	488699	keystroke_s	s	n/a
244.5295	0.09	489059	keystroke_t	t	n/a
244.7105	0.089	489421	keystroke_Key.enter	Key.enter	n/a
244.8035	6.7355	489607	prompt	n/a	advisors independent html downloads\n
245.5195	0.1125	491039	keystroke_a	a	n/a
245.587	0.1125	491174	keystroke_d	d	n/a
245.846	0.09	491692	keystroke_v	v	n/a
245.9245	0.0785	491849	keystroke_i	i	n/a
246.4875	0.09	492975	keystroke_s	s	n/a
246.6105	0.079	493221	keystroke_o	o	n/a
246.802	0.101	493604	keystroke_r	r	n/a
247.0155	0.057	494031	keystroke_s	s	n/a
247.117	0.101	494234	keystroke_Key.space	Key.space	n/a
247.286	0.1125	494572	keystroke_i	i	n/a
247.331	0.157	494662	keystroke_n	n	n/a
247.4545	0.0675	494909	keystroke_d	d	n/a
247.6795	0.0565	495359	keystroke_p	p	n/a
248.1405	0.079	496281	keystroke_Key.backspace	Key.backspace	n/a
248.2305	0.068	496461	keystroke_e	e	n/a
248.332	0.1125	496664	keystroke_p	p	n/a
248.4555	0.09	496911	keystroke_e	e	n/a
248.613	0.09	497226	keystroke_n	n	n/a
248.761	0.0665	497522	keystroke_d	d	n/a
248.917	0.0785	497834	keystroke_e	e	n/a
249.0295	0.101	498059	keystroke_n	n	n/a
249.142	0.0675	498284	keystroke_t	t	n/a
249.333	0.09	498666	keystroke_Key.space	Key.space	n/a
249.513	0.079	499026	keystroke_h	h	n/a
249.6595	0.056	499319	keystroke_t	t	n/a
249.8175	0.157	499635	keystroke_m	m	n/a
249.8735	0.1235	499747	keystroke_l	l	n/a
250.0645	0.1125	500129	keystroke_Key.space	Key.space	n/a
250.233	0.135	500466	keystroke_d	d	n/a
250.402	0.101	500804	keystroke_o	o	n/a
250.5145	0.09	501029	keystroke_w	w	n/a
250.6155	0.1125	501231	keystroke_n	n	n/a
250.7845	0.056	501569	keystroke_l	l	n/a
250.9985	0.0895	501997	keystroke_o	o	n/a
251.0995	0.1125	502199	keystroke_a	a	n/a
251.178	0.169	502356	keystroke_d	d	n/a
251.2905	0.1355	502581	keystroke_s	s	n/a
251.461	0.077	502922	keystroke_Key.enter	Key.enter	n/a
251.542	6.096	503084	prompt	n/a	gateway launched weed disputes\n
252.2695	0.18	504539	keystroke_g	g	n/a
252.3595	0.124	504719	keystroke_a	a	n/a
252.562	0.135	505124	keystroke_t	t	n/a
252.663	0.0675	505326	keystroke_e	e	n/a
253.417	0.191	506834	keystroke_w	w	n/a
253.496	0.1235	506992	keystroke_a	a	n/a
253.687	0.0905	507374	keystroke_y	y	n/a
253.833	0.124	507666	keystroke_Key.space	Key.space	n/a
254.272	0.09	508544	keystroke_l	l	n/a
254.373	0.0225	508746	keystroke_a	a	n/a
254.4295	0.0675	508859	keystroke_u	u	n/a
254.6105	0.0665	509221	keystroke_n	n	n/a
254.688	0.079	509376	keystroke_c	c	n/a
254.8235	0.101	509647	keystroke_h	h	n/a
254.936	0.0785	509872	keystroke_e	e	n/a
255.127	0.1125	510254	keystroke_d	d	n/a
255.2505	0.09	510501	keystroke_Key.space	Key.space	n/a
255.4195	0.2135	510839	keystroke_w	w	n/a
255.622	0.045	511244	keystroke_e	e	n/a
255.768	0.0675	511536	keystroke_e	e	n/a
255.9595	0.101	511919	keystroke_d	d	n/a
256.083	0.09	512166	keystroke_Key.space	Key.space	n/a
256.3755	0.079	512751	keystroke_d	d	n/a
256.5105	0.1355	513021	keystroke_i	i	n/a
256.6345	0.1125	513269	keystroke_s	s	n/a
256.837	0.0785	513674	keystroke_u	u	n/a
256.9045	0.0675	513809	keystroke_p	p	n/a
257.197	0.1475	514394	keystroke_t	t	n/a
257.332	0.1015	514664	keystroke_e	e	n/a
257.422	0.0905	514844	keystroke_s	s	n/a
257.602	0.0345	515204	keystroke_Key.enter	Key.enter	n/a
257.641	5.0705	515282	prompt	n/a	angels semi authors void\n
258.232	0.1015	516464	keystroke_a	a	n/a
258.322	0.124	516644	keystroke_n	n	n/a
258.457	0.09	516914	keystroke_g	g	n/a
258.603	0.1015	517206	keystroke_l	l	n/a
258.694	0.135	517388	keystroke_e	e	n/a
258.817	0.056	517634	keystroke_s	s	n/a
258.8955	0.113	517791	keystroke_Key.space	Key.space	n/a
259.053	0.158	518106	keystroke_s	s	n/a
259.1655	0.1125	518331	keystroke_e	e	n/a
259.3795	0.146	518759	keystroke_m	m	n/a
259.492	0.045	518984	keystroke_i	i	n/a
259.6045	0.135	519209	keystroke_Key.space	Key.space	n/a
260.0775	0.112	520155	keystroke_a	a	n/a
260.2005	0.09	520401	keystroke_u	u	n/a
260.3695	0.0675	520739	keystroke_t	t	n/a
260.448	0.1125	520896	keystroke_h	h	n/a
260.505	0.0675	521010	keystroke_o	o	n/a
260.6055	0.1575	521211	keystroke_r	r	n/a
260.7075	0.123	521415	keystroke_s	s	n/a
260.911	0.0885	521822	keystroke_Key.space	Key.space	n/a
261.1905	0.135	522381	keystroke_v	v	n/a
261.3375	0.168	522675	keystroke_i	i	n/a
261.3375	0.1005	522675	keystroke_o	o	n/a
262.0005	0.0565	524001	keystroke_Key.backspace	Key.backspace	n/a
262.1135	0.067	524227	keystroke_Key.backspace	Key.backspace	n/a
262.383	0.09	524766	keystroke_o	o	n/a
262.4175	0.078	524835	keystroke_i	i	n/a
262.4845	0.0785	524969	keystroke_d	d	n/a
262.653	0.0565	525306	keystroke_Key.enter	Key.enter	n/a
262.7155	8.1515	525431	prompt	n/a	magazine security living worldwide\n
263.5535	0.067	527107	keystroke_m	m	n/a
263.891	0.067	527782	keystroke_a	a	n/a
263.9695	0.135	527939	keystroke_g	g	n/a
264.071	0.112	528142	keystroke_a	a	n/a
264.5655	0.113	529131	keystroke_z	z	n/a
264.78	0.1005	529560	keystroke_i	i	n/a
265.1505	0.1015	530301	keystroke_n	n	n/a
265.2745	0.068	530549	keystroke_e	e	n/a
265.3985	0.0895	530797	keystroke_Key.space	Key.space	n/a
265.59	0.112	531180	keystroke_s	s	n/a
265.7245	0.09	531449	keystroke_e	e	n/a
265.972	0.0675	531944	keystroke_c	c	n/a
266.523	0.0905	533046	keystroke_u	u	n/a
267.0405	0.079	534081	keystroke_r	r	n/a
267.1755	0.102	534351	keystroke_i	i	n/a
267.288	0.0675	534576	keystroke_t	t	n/a
267.401	0.101	534802	keystroke_y	y	n/a
267.4795	0.101	534959	keystroke_Key.space	Key.space	n/a
267.637	0.1575	535274	keystroke_l	l	n/a
267.772	0.0335	535544	keystroke_i	i	n/a
268.312	0.09	536624	keystroke_v	v	n/a
268.492	0.102	536984	keystroke_i	i	n/a
268.582	0.135	537164	keystroke_n	n	n/a
268.672	0.0565	537344	keystroke_g	g	n/a
268.7395	0.1125	537479	keystroke_Key.space	Key.space	n/a
268.9645	0.113	537929	keystroke_w	w	n/a
269.111	0.0785	538222	keystroke_o	o	n/a
269.2455	0.079	538491	keystroke_r	r	n/a
269.3355	0.1015	538671	keystroke_l	l	n/a
269.448	0.0795	538896	keystroke_d	d	n/a
269.752	0.1015	539504	keystroke_w	w	n/a
269.988	0.113	539976	keystroke_i	i	n/a
270.0785	0.0335	540157	keystroke_e	e	n/a
270.4495	0.0565	540899	keystroke_Key.backspace	Key.backspace	n/a
270.517	0.09	541034	keystroke_d	d	n/a
270.6635	0.101	541327	keystroke_e	e	n/a
270.7985	0.0675	541597	keystroke_Key.enter	Key.enter	n/a
270.87	5.1265	541740	prompt	n/a	regulation grows chen episodes\n
271.687	0.101	543374	keystroke_r	r	n/a
271.7775	0.067	543555	keystroke_e	e	n/a
271.957	0.0565	543914	keystroke_g	g	n/a
272.0245	0.135	544049	keystroke_u	u	n/a
272.092	0.079	544184	keystroke_l	l	n/a
272.1485	0.1125	544297	keystroke_a	a	n/a
272.2275	0.078	544455	keystroke_t	t	n/a
272.351	0.146	544702	keystroke_i	i	n/a
272.3845	0.079	544769	keystroke_o	o	n/a
272.452	0.1015	544904	keystroke_n	n	n/a
272.531	0.09	545062	keystroke_Key.space	Key.space	n/a
272.812	0.0785	545624	keystroke_g	g	n/a
273.003	0.091	546006	keystroke_r	r	n/a
273.217	0.09	546434	keystroke_o	o	n/a
273.397	0.045	546794	keystroke_w	w	n/a
273.5655	0.079	547131	keystroke_s	s	n/a
273.712	0.09	547424	keystroke_Key.space	Key.space	n/a
273.937	0.1015	547874	keystroke_c	c	n/a
274.0495	0.09	548099	keystroke_h	h	n/a
274.151	0.056	548302	keystroke_e	e	n/a
274.297	0.1235	548594	keystroke_n	n	n/a
274.387	0.101	548774	keystroke_Key.space	Key.space	n/a
274.938	0.1125	549876	keystroke_e	e	n/a
275.062	0.0675	550124	keystroke_p	p	n/a
275.0955	0.1125	550191	keystroke_i	i	n/a
275.253	0.1015	550506	keystroke_s	s	n/a
275.478	0.0675	550956	keystroke_o	o	n/a
275.557	0.0675	551114	keystroke_d	d	n/a
275.737	0.101	551474	keystroke_e	e	n/a
275.816	0.0895	551632	keystroke_s	s	n/a
275.928	0.0675	551856	keystroke_Key.enter	Key.enter	n/a
275.9995	6.1395	551999	prompt	n/a	tribunal fridge marathon profits\n
276.8845	0.0565	553769	keystroke_t	t	n/a
277.4245	0.0565	554849	keystroke_r	r	n/a
277.5485	0.1235	555097	keystroke_i	i	n/a
277.7055	0.0565	555411	keystroke_b	b	n/a
277.8405	0.09	555681	keystroke_u	u	n/a
278.167	0.079	556334	keystroke_n	n	n/a
278.2345	0.1125	556469	keystroke_a	a	n/a
278.358	0.079	556716	keystroke_l	l	n/a
278.4255	0.1025	556851	keystroke_Key.space	Key.space	n/a
278.6055	0.079	557211	keystroke_f	f	n/a
278.932	0.101	557864	keystroke_r	r	n/a
279.0895	0.1125	558179	keystroke_i	i	n/a
279.157	0.0785	558314	keystroke_d	d	n/a
279.382	0.1575	558764	keystroke_g	g	n/a
279.528	0.079	559056	keystroke_e	e	n/a
279.675	0.09	559350	keystroke_Key.space	Key.space	n/a
279.8655	0.1125	559731	keystroke_m	m	n/a
279.9895	0.0905	559979	keystroke_a	a	n/a
280.023	0.1125	560046	keystroke_r	r	n/a
280.226	0.1015	560452	keystroke_a	a	n/a
280.44	0.078	560880	keystroke_t	t	n/a
280.5855	0.1125	561171	keystroke_h	h	n/a
280.6985	0.18	561397	keystroke_o	o	n/a
280.8785	0.1015	561757	keystroke_n	n	n/a
280.9575	0.1005	561915	keystroke_Key.space	Key.space	n/a
281.1255	0.079	562251	keystroke_p	p	n/a
281.2495	0.068	562499	keystroke_r	r	n/a
281.3625	0.067	562725	keystroke_o	o	n/a
281.452	0.1355	562904	keystroke_f	f	n/a
281.598	0.135	563196	keystroke_i	i	n/a
281.823	0.1465	563646	keystroke_t	t	n/a
281.9355	0.09	563871	keystroke_s	s	n/a
282.037	0.101	564074	keystroke_Key.enter	Key.enter	n/a
282.142	3.5185	564284	prompt	n/a	are nine herein battle\n
282.7905	0.0785	565581	keystroke_a	a	n/a
282.8355	0.135	565671	keystroke_r	r	n/a
282.9255	0.0785	565851	keystroke_e	e	n/a
283.038	0.1125	566076	keystroke_Key.space	Key.space	n/a
283.1845	0.1235	566369	keystroke_n	n	n/a
283.2745	0.135	566549	keystroke_i	i	n/a
283.398	0.1135	566796	keystroke_n	n	n/a
283.5215	0.0905	567043	keystroke_e	e	n/a
283.668	0.09	567336	keystroke_Key.space	Key.space	n/a
283.8935	0.112	567787	keystroke_h	h	n/a
283.9945	0.101	567989	keystroke_e	e	n/a
284.0395	0.1575	568079	keystroke_r	r	n/a
284.1855	0.045	568371	keystroke_e	e	n/a
284.343	0.09	568686	keystroke_i	i	n/a
284.378	0.145	568756	keystroke_n	n	n/a
284.512	0.0785	569024	keystroke_Key.space	Key.space	n/a
284.8155	0.1125	569631	keystroke_b	b	n/a
284.9845	0.112	569969	keystroke_a	a	n/a
285.074	0.0675	570148	keystroke_t	t	n/a
285.232	0.1125	570464	keystroke_t	t	n/a
285.412	0.09	570824	keystroke_l	l	n/a
285.4905	0.0675	570981	keystroke_e	e	n/a
285.592	0.0675	571184	keystroke_Key.enter	Key.enter	n/a
285.6645	4.2035	571329	prompt	n/a	length camp seller built\n
286.503	0.09	573006	keystroke_l	l	n/a
286.5595	0.1015	573119	keystroke_e	e	n/a
286.695	0.1455	573390	keystroke_n	n	n/a
286.773	0.079	573546	keystroke_g	g	n/a
286.9755	0.0785	573951	keystroke_t	t	n/a
287.088	0.1465	574176	keystroke_h	h	n/a
287.178	0.1125	574356	keystroke_Key.space	Key.space	n/a
287.403	0.1465	574806	keystroke_c	c	n/a
287.538	0.101	575076	keystroke_a	a	n/a
287.628	0.1125	575256	keystroke_m	m	n/a
287.6505	0.079	575301	keystroke_p	p	n/a
288.3705	0.079	576741	keystroke_Key.space	Key.space	n/a
288.517	0.135	577034	keystroke_s	s	n/a
288.5955	0.1125	577191	keystroke_e	e	n/a
288.787	0.045	577574	keystroke_l	l	n/a
288.9555	0.1015	577911	keystroke_l	l	n/a
289.0455	0.079	578091	keystroke_e	e	n/a
289.0905	0.079	578181	keystroke_r	r	n/a
289.158	0.1125	578316	keystroke_Key.space	Key.space	n/a
289.3615	0.1005	578723	keystroke_b	b	n/a
289.4505	0.101	578901	keystroke_u	u	n/a
289.473	0.09	578946	keystroke_i	i	n/a
289.5405	0.09	579081	keystroke_l	l	n/a
289.642	0.0785	579284	keystroke_t	t	n/a
289.788	0.079	579576	keystroke_Key.enter	Key.enter	n/a
289.871	5.689	579742	prompt	n/a	annual aimed proceeds smithsonian\n
290.643	0.0785	581286	keystroke_a	a	n/a
290.823	0.056	581646	keystroke_n	n	n/a
290.9355	0.09	581871	keystroke_n	n	n/a
291.138	0.0675	582276	keystroke_u	u	n/a
291.217	0.101	582434	keystroke_a	a	n/a
291.3295	0.1125	582659	keystroke_l	l	n/a
291.4305	0.1015	582861	keystroke_Key.space	Key.space	n/a
291.8805	0.101	583761	keystroke_a	a	n/a
291.993	0.146	583986	keystroke_i	i	n/a
292.0945	0.1235	584189	keystroke_m	m	n/a
292.2065	0.124	584413	keystroke_e	e	n/a
292.409	0.1125	584818	keystroke_d	d	n/a
292.488	0.101	584976	keystroke_Key.space	Key.space	n/a
292.634	0.113	585268	keystroke_p	p	n/a
292.7695	0.0895	585539	keystroke_r	r	n/a
292.893	0.1015	585786	keystroke_o	o	n/a
293.0165	0.068	586033	keystroke_c	c	n/a
293.219	0.1125	586438	keystroke_e	e	n/a
293.422	0.09	586844	keystroke_e	e	n/a
293.6015	0.124	587203	keystroke_d	d	n/a
293.6915	0.1245	587383	keystroke_s	s	n/a
293.804	0.1245	587608	keystroke_Key.space	Key.space	n/a
293.962	0.101	587924	keystroke_s	s	n/a
294.074	0.147	588148	keystroke_m	m	n/a
294.164	0.1145	588328	keystroke_i	i	n/a
294.288	0.0785	588576	keystroke_t	t	n/a
294.3785	0.1015	588757	keystroke_h	h	n/a
294.5805	0.1465	589161	keystroke_s	s	n/a
294.738	0.0785	589476	keystroke_o	o	n/a
294.8055	0.1235	589611	keystroke_n	n	n/a
295.109	0.1125	590218	keystroke_i	i	n/a
295.256	0.078	590512	keystroke_a	a	n/a
295.4015	0.057	590803	keystroke_n	n	n/a
295.481	0.078	590962	keystroke_Key.enter	Key.enter	n/a
295.5635	4.778	591127	prompt	n/a	varying inner integrating results\n
296.3465	0.09	592693	keystroke_v	v	n/a
296.4705	0.135	592941	keystroke_a	a	n/a
296.5715	0.0675	593143	keystroke_r	r	n/a
296.6505	0.1125	593301	keystroke_y	y	n/a
296.8755	0.09	593751	keystroke_i	i	n/a
296.9095	0.135	593819	keystroke_n	n	n/a
296.999	0.113	593998	keystroke_g	g	n/a
297.1125	0.0895	594225	keystroke_Key.space	Key.space	n/a
297.303	0.1125	594606	keystroke_i	i	n/a
297.3365	0.0915	594673	keystroke_n	n	n/a
297.5285	0.078	595057	keystroke_n	n	n/a
297.708	0.09	595416	keystroke_e	e	n/a
297.753	0.09	595506	keystroke_r	r	n/a
297.854	0.079	595708	keystroke_Key.space	Key.space	n/a
298.057	0.101	596114	keystroke_i	i	n/a
298.113	0.1125	596226	keystroke_n	n	n/a
298.237	0.0785	596474	keystroke_t	t	n/a
298.3715	0.124	596743	keystroke_e	e	n/a
298.5515	0.09	597103	keystroke_g	g	n/a
298.788	0.1125	597576	keystroke_r	r	n/a
298.889	0.135	597778	keystroke_a	a	n/a
299.013	0.101	598026	keystroke_t	t	n/a
299.1255	0.158	598251	keystroke_i	i	n/a
299.159	0.147	598318	keystroke_n	n	n/a
299.2945	0.0895	598589	keystroke_g	g	n/a
299.4635	0.09	598927	keystroke_Key.space	Key.space	n/a
299.699	0.135	599398	keystroke_r	r	n/a
299.7665	0.09	599533	keystroke_e	e	n/a
299.8455	0.1235	599691	keystroke_s	s	n/a
299.9355	0.135	599871	keystroke_u	u	n/a
300.003	0.09	600006	keystroke_l	l	n/a
300.059	0.1125	600118	keystroke_t	t	n/a
300.1265	0.1125	600253	keystroke_s	s	n/a
300.273	0.0675	600546	keystroke_Key.enter	Key.enter	n/a
300.3465	5.856	600693	prompt	n/a	highly trigger assessing surprise\n
301.027	0.101	602054	keystroke_h	h	n/a
301.3415	0.0675	602683	keystroke_i	i	n/a
301.4205	0.0785	602841	keystroke_g	g	n/a
301.4655	0.101	602931	keystroke_h	h	n/a
301.634	0.1465	603268	keystroke_l	l	n/a
301.769	0.0565	603538	keystroke_y	y	n/a
301.7915	0.1015	603583	keystroke_Key.space	Key.space	n/a
302.0955	0.0785	604191	keystroke_t	t	n/a
302.354	0.0905	604708	keystroke_r	r	n/a
302.5115	0.102	605023	keystroke_i	i	n/a
302.591	0.09	605182	keystroke_g	g	n/a
302.7815	0.08	605563	keystroke_g	g	n/a
302.984	0.09	605968	keystroke_e	e	n/a
303.0295	0.0895	606059	keystroke_r	r	n/a
303.1085	0.1005	606217	keystroke_Key.space	Key.space	n/a
303.4235	0.0225	606847	keystroke_a	a	n/a
303.434	0.0675	606868	keystroke_s	s	n/a
303.614	0.1575	607228	keystroke_s	s	n/a
303.7835	0.078	607567	keystroke_e	e	n/a
303.8955	0.113	607791	keystroke_s	s	n/a
304.109	0.102	608218	keystroke_s	s	n/a
304.334	0.1125	608668	keystroke_i	i	n/a
304.3685	0.1685	608737	keystroke_n	n	n/a
304.481	0.0675	608962	keystroke_g	g	n/a
304.6265	0.09	609253	keystroke_Key.space	Key.space	n/a
304.8515	0.1125	609703	keystroke_s	s	n/a
304.9985	0.0675	609997	keystroke_u	u	n/a
305.0995	0.1125	610199	keystroke_r	r	n/a
305.2235	0.1005	610447	keystroke_p	p	n/a
305.516	0.0895	611032	keystroke_r	r	n/a
305.7635	0.1235	611527	keystroke_i	i	n/a
305.8985	0.1005	611797	keystroke_s	s	n/a
305.9655	0.046	611931	keystroke_e	e	n/a
306.1455	0.056	612291	keystroke_Key.enter	Key.enter	n/a
306.2055	5.7235	612411	prompt	n/a	delivered ascii victorian survey\n
306.854	0.0795	613708	keystroke_d	d	n/a
307.046	0.0675	614092	keystroke_e	e	n/a
307.136	0.078	614272	keystroke_l	l	n/a
307.169	0.113	614338	keystroke_i	i	n/a
307.2485	0.1005	614497	keystroke_v	v	n/a
307.4505	0.101	614901	keystroke_e	e	n/a
307.529	0.1575	615058	keystroke_r	r	n/a
307.653	0.068	615306	keystroke_e	e	n/a
307.8335	0.09	615667	keystroke_d	d	n/a
307.934	0.1125	615868	keystroke_Key.space	Key.space	n/a
308.069	0.135	616138	keystroke_a	a	n/a
308.1815	0.1015	616363	keystroke_s	s	n/a
308.441	0.078	616882	keystroke_c	c	n/a
308.6315	0.09	617263	keystroke_i	i	n/a
308.8685	0.1005	617737	keystroke_i	i	n/a
309.003	0.1235	618006	keystroke_Key.space	Key.space	n/a
309.206	0.1455	618412	keystroke_v	v	n/a
309.453	0.0785	618906	keystroke_i	i	n/a
309.5425	0.147	619085	keystroke_c	c	n/a
309.779	0.0675	619558	keystroke_t	t	n/a
309.914	0.079	619828	keystroke_o	o	n/a
309.9815	0.08	619963	keystroke_r	r	n/a
310.095	0.123	620190	keystroke_i	i	n/a
310.2065	0.09	620413	keystroke_a	a	n/a
310.3085	0.1455	620617	keystroke_n	n	n/a
310.4435	0.078	620887	keystroke_Key.space	Key.space	n/a
310.589	0.135	621178	keystroke_s	s	n/a
310.7585	0.1005	621517	keystroke_u	u	n/a
310.8365	0.057	621673	keystroke_r	r	n/a
311.0165	0.1015	622033	keystroke_v	v	n/a
311.1965	0.079	622393	keystroke_e	e	n/a
311.2865	0.135	622573	keystroke_y	y	n/a
311.8155	0.1125	623631	keystroke_Key.enter	Key.enter	n/a
311.932	4.43	623864	prompt	n/a	suggest happened rope summer\n
312.6365	0.1125	625273	keystroke_s	s	n/a
312.8505	0.067	625701	keystroke_u	u	n/a
312.974	0.113	625948	keystroke_g	g	n/a
313.1765	0.0565	626353	keystroke_g	g	n/a
313.368	0.101	626736	keystroke_e	e	n/a
313.4575	0.1465	626915	keystroke_s	s	n/a
313.559	0.079	627118	keystroke_t	t	n/a
313.6605	0.157	627321	keystroke_Key.space	Key.space	n/a
313.7955	0.1125	627591	keystroke_h	h	n/a
313.8965	0.1015	627793	keystroke_a	a	n/a
314.0315	0.056	628063	keystroke_p	p	n/a
314.189	0.1015	628378	keystroke_p	p	n/a
314.3015	0.1125	628603	keystroke_e	e	n/a
314.425	0.1805	628850	keystroke_n	n	n/a
314.5265	0.09	629053	keystroke_e	e	n/a
314.7175	0.113	629435	keystroke_d	d	n/a
314.8415	0.09	629683	keystroke_Key.space	Key.space	n/a
315.0445	0.079	630089	keystroke_r	r	n/a
315.134	0.0675	630268	keystroke_o	o	n/a
315.1675	0.0905	630335	keystroke_p	p	n/a
315.314	0.09	630628	keystroke_e	e	n/a
315.438	0.09	630876	keystroke_Key.space	Key.space	n/a
315.595	0.079	631190	keystroke_s	s	n/a
315.685	0.0675	631370	keystroke_u	u	n/a
315.899	0.0565	631798	keystroke_m	m	n/a
316.0225	0.124	632045	keystroke_m	m	n/a
316.158	0.067	632316	keystroke_e	e	n/a
316.169	0.135	632338	keystroke_r	r	n/a
316.3155	0.0445	632631	keystroke_Key.enter	Key.enter	n/a
316.3655	8.0965	632731	prompt	n/a	literally photographers endorsement honor\n
317.0805	0.135	634161	keystroke_l	l	n/a
317.159	0.146	634318	keystroke_i	i	n/a
317.2945	0.078	634589	keystroke_t	t	n/a
317.4065	0.124	634813	keystroke_e	e	n/a
317.4965	0.1805	634993	keystroke_r	r	n/a
317.5865	0.101	635173	keystroke_a	a	n/a
317.745	0.0215	635490	keystroke_l	l	n/a
317.8685	0.134	635737	keystroke_l	l	n/a
317.969	0.135	635938	keystroke_y	y	n/a
318.0595	0.1355	636119	keystroke_Key.space	Key.space	n/a
318.374	0.0115	636748	keystroke_h	h	n/a
319.128	0.0335	638256	keystroke_Key.backspace	Key.backspace	n/a
319.2855	0.101	638571	keystroke_p	p	n/a
319.3865	0.101	638773	keystroke_h	h	n/a
319.612	0.033	639224	keystroke_o	o	n/a
319.7465	0.011	639493	keystroke_t	t	n/a
319.814	0.09	639628	keystroke_o	o	n/a
319.96	0.09	639920	keystroke_g	g	n/a
320.174	0.1465	640348	keystroke_r	r	n/a
320.2865	0.09	640573	keystroke_a	a	n/a
320.3765	0.1125	640753	keystroke_p	p	n/a
320.41	0.124	640820	keystroke_h	h	n/a
320.546	0.112	641092	keystroke_e	e	n/a
320.613	0.135	641226	keystroke_r	r	n/a
320.714	0.1015	641428	keystroke_s	s	n/a
320.8265	0.1015	641653	keystroke_Key.space	Key.space	n/a
321.074	0.1125	642148	keystroke_e	e	n/a
321.198	0.0785	642396	keystroke_n	n	n/a
321.288	0.0905	642576	keystroke_d	d	n/a
321.389	0.09	642778	keystroke_o	o	n/a
321.4905	0.1345	642981	keystroke_r	r	n/a
321.614	0.1685	643228	keystroke_s	s	n/a
321.7265	0.09	643453	keystroke_e	e	n/a
321.884	0.101	643768	keystroke_m	m	n/a
321.974	0.0675	643948	keystroke_e	e	n/a
322.0975	0.09	644195	keystroke_n	n	n/a
322.5025	0.1125	645005	keystroke_e	e	n/a
323.11	0.0795	646220	keystroke_Key.backspace	Key.backspace	n/a
323.178	0.0895	646356	keystroke_t	t	n/a
323.279	0.101	646558	keystroke_Key.space	Key.space	n/a
323.4475	0.09	646895	keystroke_h	h	n/a
323.605	0.1245	647210	keystroke_o	o	n/a
323.7175	0.09	647435	keystroke_n	n	n/a
324.269	0.0675	648538	keystroke_o	o	n/a
324.28	0.0675	648560	keystroke_r	r	n/a
324.359	0.101	648718	keystroke_Key.enter	Key.enter	n/a
324.4655	4.552	648931	prompt	n/a	customs whats nominated lisa\n
325.214	0.0565	650428	keystroke_c	c	n/a
325.349	0.101	650698	keystroke_u	u	n/a
325.439	0.1015	650878	keystroke_s	s	n/a
325.484	0.1125	650968	keystroke_t	t	n/a
325.608	0.09	651216	keystroke_o	o	n/a
325.6865	0.09	651373	keystroke_m	m	n/a
325.7875	0.0905	651575	keystroke_s	s	n/a
325.9115	0.1125	651823	keystroke_Key.space	Key.space	n/a
326.3165	0.135	652633	keystroke_w	w	n/a
326.5755	0.0895	653151	keystroke_h	h	n/a
326.6315	0.135	653263	keystroke_a	a	n/a
326.744	0.112	653488	keystroke_t	t	n/a
326.879	0.079	653758	keystroke_s	s	n/a
326.981	0.0895	653962	keystroke_Key.space	Key.space	n/a
327.228	0.112	654456	keystroke_n	n	n/a
327.3515	0.112	654703	keystroke_o	o	n/a
327.475	0.09	654950	keystroke_m	m	n/a
327.655	0.1125	655310	keystroke_i	i	n/a
327.734	0.1125	655468	keystroke_n	n	n/a
327.8245	0.1115	655649	keystroke_a	a	n/a
327.9025	0.1245	655805	keystroke_t	t	n/a
328.0035	0.068	656007	keystroke_e	e	n/a
328.15	0.079	656300	keystroke_d	d	n/a
328.2625	0.1125	656525	keystroke_Key.space	Key.space	n/a
328.42	0.09	656840	keystroke_l	l	n/a
328.4765	0.1015	656953	keystroke_i	i	n/a
328.5445	0.089	657089	keystroke_s	s	n/a
328.825	0.0675	657650	keystroke_a	a	n/a
328.9825	0.034	657965	keystroke_Key.enter	Key.enter	n/a
329.0205	4.0355	658041	prompt	n/a	mason firm americas streams\n
329.68	0.068	659360	keystroke_m	m	n/a
329.7475	0.101	659495	keystroke_a	a	n/a
329.8375	0.0675	659675	keystroke_s	s	n/a
330.0175	0.0675	660035	keystroke_o	o	n/a
330.029	0.146	660058	keystroke_n	n	n/a
330.0965	0.1125	660193	keystroke_Key.space	Key.space	n/a
330.265	0.1015	660530	keystroke_f	f	n/a
330.355	0.079	660710	keystroke_i	i	n/a
330.445	0.0675	660890	keystroke_r	r	n/a
330.524	0.0895	661048	keystroke_m	m	n/a
330.6025	0.09	661205	keystroke_Key.space	Key.space	n/a
330.704	0.146	661408	keystroke_a	a	n/a
330.94	0.0565	661880	keystroke_m	m	n/a
331.0415	0.1235	662083	keystroke_e	e	n/a
331.1315	0.0895	662263	keystroke_r	r	n/a
331.334	0.09	662668	keystroke_i	i	n/a
331.4125	0.124	662825	keystroke_c	c	n/a
331.525	0.1575	663050	keystroke_a	a	n/a
331.6945	0.068	663389	keystroke_s	s	n/a
331.8175	0.135	663635	keystroke_Key.space	Key.space	n/a
332.1325	0.09	664265	keystroke_s	s	n/a
332.2565	0.0785	664513	keystroke_t	t	n/a
332.4475	0.135	664895	keystroke_r	r	n/a
332.515	0.135	665030	keystroke_e	e	n/a
332.595	0.1225	665190	keystroke_a	a	n/a
332.706	0.1465	665412	keystroke_m	m	n/a
332.8415	0.045	665683	keystroke_s	s	n/a
332.965	0.09	665930	keystroke_Key.enter	Key.enter	n/a
333.0595	4.1815	666119	prompt	n/a	bodies jackets colors wage\n
333.7525	0.0905	667505	keystroke_b	b	n/a
333.854	0.0675	667708	keystroke_o	o	n/a
333.9665	0.0675	667933	keystroke_d	d	n/a
334.09	0.1015	668180	keystroke_i	i	n/a
334.214	0.1235	668428	keystroke_e	e	n/a
334.326	0.1025	668652	keystroke_s	s	n/a
334.4285	0.078	668857	keystroke_Key.space	Key.space	n/a
334.529	0.0895	669058	keystroke_j	j	n/a
334.6075	0.0785	669215	keystroke_a	a	n/a
334.754	0.0785	669508	keystroke_c	c	n/a
334.866	0.09	669732	keystroke_k	k	n/a
334.9785	0.1125	669957	keystroke_e	e	n/a
335.1025	0.1575	670205	keystroke_t	t	n/a
335.2485	0.057	670497	keystroke_s	s	n/a
335.306	0.1115	670612	keystroke_Key.space	Key.space	n/a
335.688	0.0785	671376	keystroke_c	c	n/a
335.778	0.0555	671556	keystroke_o	o	n/a
335.935	0.0795	671870	keystroke_l	l	n/a
336.082	0.078	672164	keystroke_o	o	n/a
336.1485	0.1135	672297	keystroke_r	r	n/a
336.2285	0.0775	672457	keystroke_s	s	n/a
336.3175	0.1125	672635	keystroke_Key.space	Key.space	n/a
336.678	0.0895	673356	keystroke_w	w	n/a
336.8575	0.1125	673715	keystroke_a	a	n/a
336.9475	0.135	673895	keystroke_g	g	n/a
337.015	0.0785	674030	keystroke_e	e	n/a
337.15	0.09	674300	keystroke_Key.enter	Key.enter	n/a
337.245	5.407	674490	prompt	n/a	books insert receivers electronic\n
337.87	0.113	675740	keystroke_b	b	n/a
338.0165	0.0335	676033	keystroke_o	o	n/a
338.1515	0.1015	676303	keystroke_o	o	n/a
338.241	0.1015	676482	keystroke_k	k	n/a
338.3765	0.09	676753	keystroke_s	s	n/a
338.478	0.112	676956	keystroke_Key.space	Key.space	n/a
338.624	0.1235	677248	keystroke_i	i	n/a
338.669	0.1235	677338	keystroke_n	n	n/a
338.759	0.1695	677518	keystroke_s	s	n/a
338.905	0.101	677810	keystroke_e	e	n/a
338.9615	0.0785	677923	keystroke_r	r	n/a
339.1415	0.0785	678283	keystroke_t	t	n/a
339.265	0.09	678530	keystroke_Key.space	Key.space	n/a
339.6025	0.1235	679205	keystroke_r	r	n/a
339.6925	0.0785	679385	keystroke_e	e	n/a
339.9285	0.1015	679857	keystroke_c	c	n/a
340.21	0.0335	680420	keystroke_e	e	n/a
340.401	0.0565	680802	keystroke_i	i	n/a
340.5025	0.113	681005	keystroke_v	v	n/a
340.6715	0.146	681343	keystroke_e	e	n/a
340.806	0.1125	681612	keystroke_r	r	n/a
340.896	0.0795	681792	keystroke_s	s	n/a
341.0205	0.123	682041	keystroke_Key.space	Key.space	n/a
341.2115	0.067	682423	keystroke_e	e	n/a
341.346	0.0675	682692	keystroke_l	l	n/a
341.4025	0.0785	682805	keystroke_e	e	n/a
341.616	0.09	683232	keystroke_c	c	n/a
341.7965	0.0895	683593	keystroke_t	t	n/a
341.976	0.068	683952	keystroke_r	r	n/a
342.078	0.135	684156	keystroke_o	o	n/a
342.201	0.124	684402	keystroke_n	n	n/a
342.291	0.102	684582	keystroke_i	i	n/a
342.381	0.09	684762	keystroke_c	c	n/a
342.5615	0.0895	685123	keystroke_Key.enter	Key.enter	n/a
342.655	5.352	685310	prompt	n/a	absent trunk drawings album\n
343.4385	0.1015	686877	keystroke_a	a	n/a
343.5175	0.1125	687035	keystroke_b	b	n/a
343.6185	0.169	687237	keystroke_s	s	n/a
343.7985	0.135	687597	keystroke_e	e	n/a
344.1135	0.135	688227	keystroke_n	n	n/a
344.238	0.0675	688476	keystroke_t	t	n/a
344.3615	0.112	688723	keystroke_Key.space	Key.space	n/a
344.531	0.0665	689062	keystroke_t	t	n/a
344.71	0.09	689420	keystroke_r	r	n/a
344.8115	0.0785	689623	keystroke_u	u	n/a
345.0025	0.1575	690005	keystroke_n	n	n/a
345.081	0.1575	690162	keystroke_k	k	n/a
345.1715	0.1235	690343	keystroke_Key.space	Key.space	n/a
345.385	0.0675	690770	keystroke_d	d	n/a
345.565	0.1575	691130	keystroke_r	r	n/a
345.7	0.18	691400	keystroke_a	a	n/a
345.7675	0.1235	691535	keystroke_w	w	n/a
346.7575	0.09	693515	keystroke_i	i	n/a
346.78	0.1235	693560	keystroke_n	n	n/a
346.8585	0.1125	693717	keystroke_g	g	n/a
346.9375	0.0785	693875	keystroke_s	s	n/a
347.1285	0.09	694257	keystroke_Key.space	Key.space	n/a
347.2975	0.09	694595	keystroke_a	a	n/a
347.41	0.09	694820	keystroke_l	l	n/a
347.556	0.09	695112	keystroke_b	b	n/a
347.6685	0.0675	695337	keystroke_u	u	n/a
347.8485	0.057	695697	keystroke_m	m	n/a
347.9505	0.0555	695901	keystroke_Key.enter	Key.enter	n/a
348.01	6.1285	696020	prompt	n/a	auburn what reservation retailers\n
348.771	0.102	697542	keystroke_a	a	n/a
348.9735	0.09	697947	keystroke_u	u	n/a
349.1535	0.1125	698307	keystroke_b	b	n/a
349.323	0.09	698646	keystroke_u	u	n/a
349.446	0.0675	698892	keystroke_r	r	n/a
349.548	0.123	699096	keystroke_n	n	n/a
349.638	0.1005	699276	keystroke_Key.space	Key.space	n/a
349.7725	0.1235	699545	keystroke_w	w	n/a
349.9075	0.09	699815	keystroke_h	h	n/a
349.986	0.124	699972	keystroke_a	a	n/a
350.0985	0.0675	700197	keystroke_t	t	n/a
350.1785	0.089	700357	keystroke_Key.space	Key.space	n/a
350.571	0.169	701142	keystroke_r	r	n/a
350.6835	0.124	701367	keystroke_e	e	n/a
350.819	0.157	701638	keystroke_s	s	n/a
350.9425	0.101	701885	keystroke_e	e	n/a
351.01	0.068	702020	keystroke_r	r	n/a
351.235	0.101	702470	keystroke_v	v	n/a
351.37	0.1585	702740	keystroke_a	a	n/a
351.494	0.078	702988	keystroke_t	t	n/a
351.64	0.157	703280	keystroke_i	i	n/a
351.7075	0.0785	703415	keystroke_o	o	n/a
351.741	0.1015	703482	keystroke_n	n	n/a
351.775	0.146	703550	keystroke_Key.space	Key.space	n/a
351.9325	0.1235	703865	keystroke_r	r	n/a
351.9885	0.079	703977	keystroke_e	e	n/a
352.3935	0.136	704787	keystroke_a	a	n/a
352.5175	0.045	705035	keystroke_t	t	n/a
353.215	0.056	706430	keystroke_Key.backspace	Key.backspace	n/a
353.3505	0.078	706701	keystroke_Key.backspace	Key.backspace	n/a
353.4405	0.1345	706881	keystroke_t	t	n/a
353.541	0.102	707082	keystroke_a	a	n/a
353.631	0.0795	707262	keystroke_i	i	n/a
353.6535	0.09	707307	keystroke_l	l	n/a
353.8005	0.135	707601	keystroke_e	e	n/a
353.8785	0.1465	707757	keystroke_r	r	n/a
354.0135	0.0565	708027	keystroke_s	s	n/a
354.081	0.0565	708162	keystroke_Key.enter	Key.enter	n/a
354.1415	5.093	708283	prompt	n/a	tags investment using entrance\n
355.026	0.1125	710052	keystroke_t	t	n/a
355.15	0.1125	710300	keystroke_a	a	n/a
355.3635	0.1015	710727	keystroke_g	g	n/a
355.78	0.068	711560	keystroke_s	s	n/a
355.8585	0.1125	711717	keystroke_Key.space	Key.space	n/a
356.0295	0.1105	712059	keystroke_i	i	n/a
356.073	0.123	712146	keystroke_n	n	n/a
356.185	0.146	712370	keystroke_v	v	n/a
356.3425	0.18	712685	keystroke_e	e	n/a
356.5115	0.146	713023	keystroke_s	s	n/a
356.6235	0.09	713247	keystroke_t	t	n/a
356.77	0.1125	713540	keystroke_m	m	n/a
356.8935	0.09	713787	keystroke_e	e	n/a
356.9725	0.0785	713945	keystroke_n	n	n/a
357.0855	0.067	714171	keystroke_t	t	n/a
357.141	0.1125	714282	keystroke_Key.space	Key.space	n/a
357.771	0.0675	715542	keystroke_u	u	n/a
357.816	0.09	715632	keystroke_s	s	n/a
357.94	0.101	715880	keystroke_i	i	n/a
357.9735	0.158	715947	keystroke_n	n	n/a
358.0975	0.079	716195	keystroke_g	g	n/a
358.165	0.1125	716330	keystroke_Key.space	Key.space	n/a
358.345	0.0675	716690	keystroke_e	e	n/a
358.424	0.101	716848	keystroke_n	n	n/a
358.5365	0.056	717073	keystroke_t	t	n/a
358.7275	0.1015	717455	keystroke_r	r	n/a
358.8175	0.045	717635	keystroke_a	a	n/a
358.874	0.101	717748	keystroke_n	n	n/a
358.975	0.045	717950	keystroke_c	c	n/a
359.144	0.045	718288	keystroke_e	e	n/a
359.177	0.057	718354	keystroke_Key.enter	Key.enter	n/a
359.2375	8.018	718475	prompt	n/a	conversation refused health brunei\n
359.9645	0.09	719929	keystroke_c	c	n/a
360.044	0.09	720088	keystroke_o	o	n/a
360.089	0.1125	720178	keystroke_n	n	n/a
360.179	0.0555	720358	keystroke_c	c	n/a
360.887	0.0225	721774	keystroke_Key.backspace	Key.backspace	n/a
360.899	0.1005	721798	keystroke_v	v	n/a
361.079	0.146	722158	keystroke_e	e	n/a
361.169	0.18	722338	keystroke_r	r	n/a
361.337	0.1125	722674	keystroke_s	s	n/a
361.7645	0.113	723529	keystroke_a	a	n/a
361.8435	0.09	723687	keystroke_t	t	n/a
361.9225	0.146	723845	keystroke_i	i	n/a
361.967	0.09	723934	keystroke_o	o	n/a
362.0125	0.1235	724025	keystroke_n	n	n/a
362.091	0.09	724182	keystroke_Key.space	Key.space	n/a
362.2145	0.1015	724429	keystroke_r	r	n/a
362.9345	0.09	725869	keystroke_e	e	n/a
363.126	0.101	726252	keystroke_f	f	n/a
363.2495	0.102	726499	keystroke_u	u	n/a
363.902	0.1125	727804	keystroke_s	s	n/a
363.992	0.0795	727984	keystroke_e	e	n/a
364.2285	0.1235	728457	keystroke_d	d	n/a
364.634	0.1005	729268	keystroke_Key.space	Key.space	n/a
365.072	0.0905	730144	keystroke_h	h	n/a
365.2745	0.1125	730549	keystroke_e	e	n/a
365.567	0.124	731134	keystroke_a	a	n/a
365.702	0.09	731404	keystroke_l	l	n/a
365.849	0.1005	731698	keystroke_t	t	n/a
365.9615	0.0895	731923	keystroke_h	h	n/a
366.063	0.089	732126	keystroke_Key.space	Key.space	n/a
366.3095	0.1125	732619	keystroke_b	b	n/a
366.557	0.0675	733114	keystroke_r	r	n/a
366.6365	0.0785	733273	keystroke_u	u	n/a
366.827	0.09	733654	keystroke_n	n	n/a
366.962	0.045	733924	keystroke_e	e	n/a
367.041	0.0785	734082	keystroke_i	i	n/a
367.187	0.0675	734374	keystroke_Key.enter	Key.enter	n/a
367.2585	6.893	734517	prompt	n/a	reviewed born risks phentermine\n
367.8735	0.1125	735747	keystroke_r	r	n/a
367.941	0.09	735882	keystroke_e	e	n/a
368.132	0.1015	736264	keystroke_v	v	n/a
368.245	0.101	736490	keystroke_i	i	n/a
368.3575	0.101	736715	keystroke_e	e	n/a
368.47	0.2135	736940	keystroke_w	w	n/a
368.672	0.1015	737344	keystroke_e	e	n/a
368.9645	0.0675	737929	keystroke_d	d	n/a
369.246	0.1125	738492	keystroke_Key.space	Key.space	n/a
369.4375	0.112	738875	keystroke_b	b	n/a
369.562	0.1005	739124	keystroke_o	o	n/a
369.685	0.09	739370	keystroke_r	r	n/a
369.7855	0.124	739571	keystroke_n	n	n/a
369.8645	0.1125	739729	keystroke_Key.space	Key.space	n/a
370.079	0.0555	740158	keystroke_r	r	n/a
370.1685	0.1235	740337	keystroke_i	i	n/a
370.3035	0.1235	740607	keystroke_s	s	n/a
370.472	0.1125	740944	keystroke_k	k	n/a
370.607	0.1015	741214	keystroke_s	s	n/a
370.832	0.09	741664	keystroke_Key.space	Key.space	n/a
371.4295	0.055	742859	keystroke_p	p	n/a
371.7995	0.09	743599	keystroke_h	h	n/a
371.9795	0.102	743959	keystroke_e	e	n/a
372.137	0.1125	744274	keystroke_n	n	n/a
372.317	0.101	744634	keystroke_t	t	n/a
372.497	0.09	744994	keystroke_e	e	n/a
373.352	0.0785	746704	keystroke_r	r	n/a
373.645	0.0895	747290	keystroke_m	m	n/a
373.8695	0.101	747739	keystroke_i	i	n/a
373.903	0.1125	747806	keystroke_n	n	n/a
373.982	0.0675	747964	keystroke_e	e	n/a
374.0835	0.067	748167	keystroke_Key.enter	Key.enter	n/a
374.157	4.822	748314	prompt	n/a	acceptance watt plate charging\n
374.781	0.079	749562	keystroke_a	a	n/a
374.9605	0.0565	749921	keystroke_c	c	n/a
375.1075	0.0555	750215	keystroke_c	c	n/a
375.3205	0.0565	750641	keystroke_e	e	n/a
375.422	0.0785	750844	keystroke_p	p	n/a
375.5125	0.0895	751025	keystroke_t	t	n/a
375.6355	0.0795	751271	keystroke_a	a	n/a
375.7375	0.1005	751475	keystroke_n	n	n/a
375.85	0.0555	751700	keystroke_c	c	n/a
376.0185	0.0785	752037	keystroke_e	e	n/a
376.1535	0.101	752307	keystroke_Key.space	Key.space	n/a
376.2655	0.1575	752531	keystroke_w	w	n/a
376.502	0.1575	753004	keystroke_a	a	n/a
376.772	0.0675	753544	keystroke_t	t	n/a
376.952	0.09	753904	keystroke_t	t	n/a
377.0535	0.067	754107	keystroke_Key.space	Key.space	n/a
377.1095	0.1235	754219	keystroke_p	p	n/a
377.245	0.0785	754490	keystroke_l	l	n/a
377.312	0.1125	754624	keystroke_a	a	n/a
377.3905	0.124	754781	keystroke_t	t	n/a
377.492	0.0675	754984	keystroke_e	e	n/a
377.593	0.079	755186	keystroke_Key.space	Key.space	n/a
377.762	0.0785	755524	keystroke_c	c	n/a
377.908	0.079	755816	keystroke_h	h	n/a
377.987	0.1355	755974	keystroke_a	a	n/a
378.088	0.0905	756176	keystroke_r	r	n/a
378.302	0.0785	756604	keystroke_g	g	n/a
378.6395	0.09	757279	keystroke_i	i	n/a
378.6955	0.1125	757391	keystroke_n	n	n/a
378.798	0.0775	757596	keystroke_g	g	n/a
378.887	0.09	757774	keystroke_Key.enter	Key.enter	n/a
378.983	4.461	757966	prompt	n/a	keywords bank highly little\n
379.618	0.102	759236	keystroke_k	k	n/a
379.6855	0.079	759371	keystroke_e	e	n/a
379.798	0.079	759596	keystroke_y	y	n/a
379.9785	0.1345	759957	keystroke_w	w	n/a
380.1245	0.0455	760249	keystroke_o	o	n/a
380.1805	0.135	760361	keystroke_r	r	n/a
380.338	0.135	760676	keystroke_d	d	n/a
380.4395	0.101	760879	keystroke_s	s	n/a
380.5525	0.1005	761105	keystroke_Key.space	Key.space	n/a
380.7775	0.078	761555	keystroke_b	b	n/a
381.103	0.1125	762206	keystroke_a	a	n/a
381.227	0.1805	762454	keystroke_n	n	n/a
381.3055	0.1125	762611	keystroke_k	k	n/a
381.396	0.079	762792	keystroke_Key.space	Key.space	n/a
381.7785	0.0895	763557	keystroke_h	h	n/a
381.902	0.0905	763804	keystroke_i	i	n/a
382.015	0.078	764030	keystroke_g	g	n/a
382.105	0.078	764210	keystroke_h	h	n/a
382.285	0.135	764570	keystroke_l	l	n/a
382.3855	0.1125	764771	keystroke_y	y	n/a
382.431	0.101	764862	keystroke_Key.space	Key.space	n/a
382.667	0.113	765334	keystroke_l	l	n/a
382.768	0.09	765536	keystroke_i	i	n/a
382.8925	0.0555	765785	keystroke_t	t	n/a
383.027	0.0785	766054	keystroke_t	t	n/a
383.117	0.101	766234	keystroke_l	l	n/a
383.23	0.1125	766460	keystroke_e	e	n/a
383.353	0.09	766706	keystroke_Key.enter	Key.enter	n/a
383.447	6.027	766894	prompt	n/a	viewers nextel developments registry\n
384.0845	0.1125	768169	keystroke_v	v	n/a
384.242	0.0785	768484	keystroke_i	i	n/a
384.287	0.1235	768574	keystroke_e	e	n/a
384.377	0.169	768754	keystroke_w	w	n/a
384.512	0.18	769024	keystroke_e	e	n/a
384.6695	0.135	769339	keystroke_r	r	n/a
384.782	0.113	769564	keystroke_s	s	n/a
384.917	0.101	769834	keystroke_Key.space	Key.space	n/a
385.086	0.1345	770172	keystroke_n	n	n/a
385.187	0.1125	770374	keystroke_e	e	n/a
385.4345	0.101	770869	keystroke_x	x	n/a
385.5245	0.09	771049	keystroke_t	t	n/a
385.6935	0.078	771387	keystroke_e	e	n/a
385.862	0.1125	771724	keystroke_l	l	n/a
385.9635	0.1125	771927	keystroke_Key.space	Key.space	n/a
386.1435	0.1125	772287	keystroke_d	d	n/a
386.3465	0.044	772693	keystroke_e	e	n/a
386.492	0.1575	772984	keystroke_v	v	n/a
386.662	0.0435	773324	keystroke_e	e	n/a
386.7735	0.101	773547	keystroke_l	l	n/a
386.9755	0.135	773951	keystroke_o	o	n/a
387.066	0.1125	774132	keystroke_p	p	n/a
387.302	0.0785	774604	keystroke_m	m	n/a
387.392	0.135	774784	keystroke_e	e	n/a
387.538	0.079	775076	keystroke_n	n	n/a
387.6285	0.112	775257	keystroke_t	t	n/a
387.7745	0.1125	775549	keystroke_s	s	n/a
388.0215	0.1355	776043	keystroke_Key.space	Key.space	n/a
388.348	0.102	776696	keystroke_r	r	n/a
388.438	0.0905	776876	keystroke_e	e	n/a
388.6075	0.0895	777215	keystroke_g	g	n/a
388.787	0.0675	777574	keystroke_i	i	n/a
388.8655	0.135	777731	keystroke_s	s	n/a
388.967	0.0785	777934	keystroke_t	t	n/a
389.158	0.1125	778316	keystroke_r	r	n/a
389.282	0.0785	778564	keystroke_y	y	n/a
389.4285	0.0445	778857	keystroke_Key.enter	Key.enter	n/a
389.4785	5.373	778957	prompt	n/a	tool peninsula designation solutions\n
390.1815	0.0565	780363	keystroke_t	t	n/a
390.272	0.0565	780544	keystroke_o	o	n/a
390.418	0.09	780836	keystroke_o	o	n/a
390.6205	0.146	781241	keystroke_l	l	n/a
390.7105	0.135	781421	keystroke_Key.space	Key.space	n/a
390.8565	0.124	781713	keystroke_p	p	n/a
390.9915	0.079	781983	keystroke_e	e	n/a
391.1045	0.0675	782209	keystroke_n	n	n/a
391.408	0.0115	782816	keystroke_i	i	n/a
391.498	0.079	782996	keystroke_n	n	n/a
391.679	0.1005	783358	keystroke_s	s	n/a
391.847	0.0675	783694	keystroke_u	u	n/a
392.027	0.067	784054	keystroke_l	l	n/a
392.1055	0.1245	784211	keystroke_a	a	n/a
392.263	0.09	784526	keystroke_Key.space	Key.space	n/a
392.443	0.102	784886	keystroke_d	d	n/a
392.668	0.012	785336	keystroke_e	e	n/a
392.6905	0.135	785381	keystroke_s	s	n/a
393.0295	0.0775	786059	keystroke_i	i	n/a
393.208	0.0785	786416	keystroke_g	g	n/a
393.298	0.1235	786596	keystroke_n	n	n/a
393.433	0.101	786866	keystroke_a	a	n/a
393.501	0.0895	787002	keystroke_t	t	n/a
393.6245	0.1795	787249	keystroke_i	i	n/a
393.6805	0.1125	787361	keystroke_o	o	n/a
393.748	0.135	787496	keystroke_n	n	n/a
393.827	0.0895	787654	keystroke_Key.space	Key.space	n/a
393.9505	0.0905	787901	keystroke_s	s	n/a
394.018	0.068	788036	keystroke_o	o	n/a
394.176	0.1455	788352	keystroke_l	l	n/a
394.2885	0.135	788577	keystroke_u	u	n/a
394.4125	0.089	788825	keystroke_t	t	n/a
394.524	0.1575	789048	keystroke_i	i	n/a
394.569	0.079	789138	keystroke_o	o	n/a
394.6145	0.0895	789229	keystroke_n	n	n/a
394.693	0.0785	789386	keystroke_s	s	n/a
394.783	0.0675	789566	keystroke_Key.enter	Key.enter	n/a
394.854	6.185	789708	prompt	n/a	keywords conservation suggestion tribes\n
395.469	0.1125	790938	keystroke_k	k	n/a
395.593	0.079	791186	keystroke_e	e	n/a
395.683	0.09	791366	keystroke_y	y	n/a
395.8065	0.1575	791613	keystroke_w	w	n/a
395.9755	0.0785	791951	keystroke_o	o	n/a
396.1215	0.0905	792243	keystroke_r	r	n/a
396.3585	0.123	792717	keystroke_d	d	n/a
396.437	0.112	792874	keystroke_s	s	n/a
396.6055	0.1125	793211	keystroke_Key.space	Key.space	n/a
396.999	0.1015	793998	keystroke_c	c	n/a
397.1005	0.124	794201	keystroke_o	o	n/a
397.1685	0.1345	794337	keystroke_n	n	n/a
397.3815	0.1915	794763	keystroke_s	s	n/a
397.5625	0.134	795125	keystroke_e	e	n/a
397.6065	0.1015	795213	keystroke_r	r	n/a
397.8205	0.09	795641	keystroke_v	v	n/a
397.9895	0.146	795979	keystroke_a	a	n/a
398.068	0.101	796136	keystroke_t	t	n/a
398.214	0.1465	796428	keystroke_i	i	n/a
398.248	0.101	796496	keystroke_o	o	n/a
398.338	0.09	796676	keystroke_n	n	n/a
398.3945	0.101	796789	keystroke_Key.space	Key.space	n/a
398.5965	0.09	797193	keystroke_s	s	n/a
398.7205	0.068	797441	keystroke_u	u	n/a
398.799	0.08	797598	keystroke_g	g	n/a
398.9905	0.0335	797981	keystroke_g	g	n/a
399.296	0.1	798592	keystroke_e	e	n/a
399.4295	0.124	798859	keystroke_s	s	n/a
399.5085	0.0895	799017	keystroke_t	t	n/a
399.654	0.1695	799308	keystroke_i	i	n/a
399.7215	0.0675	799443	keystroke_o	o	n/a
399.756	0.1345	799512	keystroke_n	n	n/a
399.8565	0.102	799713	keystroke_Key.space	Key.space	n/a
400.1265	0.0565	800253	keystroke_t	t	n/a
400.3295	0.0895	800659	keystroke_r	r	n/a
400.453	0.101	800906	keystroke_i	i	n/a
400.5655	0.09	801131	keystroke_b	b	n/a
400.7565	0.0905	801513	keystroke_e	e	n/a
400.8245	0.101	801649	keystroke_s	s	n/a
400.982	0.056	801964	keystroke_Key.enter	Key.enter	n/a
401.042	5.8245	802084	prompt	n/a	maps criticism card classroom\n
401.612	0.1795	803224	keystroke_m	m	n/a
401.6905	0.0785	803381	keystroke_a	a	n/a
401.7695	0.079	803539	keystroke_p	p	n/a
401.893	0.0785	803786	keystroke_s	s	n/a
401.994	0.1015	803988	keystroke_Key.space	Key.space	n/a
402.1855	0.1125	804371	keystroke_c	c	n/a
402.3655	0.09	804731	keystroke_r	r	n/a
402.5455	0.034	805091	keystroke_i	i	n/a
402.6355	0.09	805271	keystroke_t	t	n/a
402.8155	0.09	805631	keystroke_i	i	n/a
402.9165	0.079	805833	keystroke_c	c	n/a
403.1195	0.101	806239	keystroke_s	s	n/a
404.2785	0.056	808557	keystroke_Key.backspace	Key.backspace	n/a
404.458	0.0675	808916	keystroke_i	i	n/a
404.514	0.079	809028	keystroke_s	s	n/a
404.638	0.056	809276	keystroke_m	m	n/a
404.739	0.1125	809478	keystroke_Key.space	Key.space	n/a
404.998	0.1015	809996	keystroke_c	c	n/a
405.088	0.146	810176	keystroke_a	a	n/a
405.213	0.1335	810426	keystroke_r	r	n/a
405.324	0.0675	810648	keystroke_d	d	n/a
405.414	0.1125	810828	keystroke_Key.space	Key.space	n/a
405.684	0.0565	811368	keystroke_c	c	n/a
405.7855	0.0675	811571	keystroke_l	l	n/a
405.8415	0.124	811683	keystroke_a	a	n/a
405.932	0.0445	811864	keystroke_s	s	n/a
406.089	0.09	812178	keystroke_s	s	n/a
406.292	0.056	812584	keystroke_r	r	n/a
406.3705	0.0565	812741	keystroke_o	o	n/a
406.494	0.1015	812988	keystroke_o	o	n/a
406.6635	0.078	813327	keystroke_m	m	n/a
406.798	0.0675	813596	keystroke_Key.enter	Key.enter	n/a
406.869	5.0375	813738	prompt	n/a	promised prev phillips significant\n
407.5855	0.101	815171	keystroke_p	p	n/a
407.698	0.0785	815396	keystroke_r	r	n/a
407.7655	0.135	815531	keystroke_o	o	n/a
407.8665	0.1015	815733	keystroke_m	m	n/a
408.148	0.0335	816296	keystroke_i	i	n/a
408.193	0.146	816386	keystroke_s	s	n/a
408.329	0.044	816658	keystroke_e	e	n/a
408.474	0.1125	816948	keystroke_d	d	n/a
408.598	0.09	817196	keystroke_Key.space	Key.space	n/a
408.699	0.1015	817398	keystroke_p	p	n/a
408.7555	0.1235	817511	keystroke_r	r	n/a
408.834	0.0565	817668	keystroke_e	e	n/a
409.0035	0.09	818007	keystroke_v	v	n/a
409.116	0.112	818232	keystroke_Key.space	Key.space	n/a
409.3515	0.102	818703	keystroke_p	p	n/a
409.4085	0.1005	818817	keystroke_h	h	n/a
409.5435	0.101	819087	keystroke_i	i	n/a
409.779	0.045	819558	keystroke_l	l	n/a
409.8925	0.1115	819785	keystroke_l	l	n/a
410.0155	0.1465	820031	keystroke_i	i	n/a
410.094	0.079	820188	keystroke_p	p	n/a
410.2295	0.101	820459	keystroke_s	s	n/a
410.3415	0.0675	820683	keystroke_Key.space	Key.space	n/a
410.488	0.0785	820976	keystroke_s	s	n/a
410.5785	0.1015	821157	keystroke_i	i	n/a
410.7015	0.0565	821403	keystroke_g	g	n/a
410.792	0.09	821584	keystroke_n	n	n/a
410.9495	0.101	821899	keystroke_i	i	n/a
411.063	0.0665	822126	keystroke_f	f	n/a
411.174	0.091	822348	keystroke_i	i	n/a
411.2755	0.0675	822551	keystroke_c	c	n/a
411.479	0.089	822958	keystroke_a	a	n/a
411.624	0.0905	823248	keystroke_n	n	n/a
411.7255	0.056	823451	keystroke_t	t	n/a
411.838	0.0675	823676	keystroke_Key.enter	Key.enter	n/a
411.909	5.353	823818	prompt	n/a	clearly becoming sometimes cameroon\n
412.614	0.0565	825228	keystroke_c	c	n/a
412.7265	0.0565	825453	keystroke_l	l	n/a
412.8165	0.158	825633	keystroke_e	e	n/a
412.9065	0.135	825813	keystroke_a	a	n/a
412.963	0.09	825926	keystroke_r	r	n/a
413.064	0.1015	826128	keystroke_l	l	n/a
413.1315	0.135	826263	keystroke_y	y	n/a
413.1995	0.0895	826399	keystroke_Key.space	Key.space	n/a
413.4695	0.101	826939	keystroke_b	b	n/a
413.638	0.09	827276	keystroke_e	e	n/a
413.818	0.056	827636	keystroke_c	c	n/a
413.8855	0.135	827771	keystroke_o	o	n/a
413.9755	0.1125	827951	keystroke_m	m	n/a
414.2795	0.146	828559	keystroke_i	i	n/a
414.313	0.135	828626	keystroke_n	n	n/a
414.4375	0.078	828875	keystroke_g	g	n/a
414.527	0.101	829054	keystroke_Key.space	Key.space	n/a
414.6625	0.101	829325	keystroke_s	s	n/a
414.7745	0.09	829549	keystroke_o	o	n/a
414.8195	0.101	829639	keystroke_m	m	n/a
414.9205	0.1015	829841	keystroke_e	e	n/a
414.999	0.1015	829998	keystroke_t	t	n/a
415.146	0.101	830292	keystroke_i	i	n/a
415.168	0.1465	830336	keystroke_m	m	n/a
415.3255	0.09	830651	keystroke_e	e	n/a
415.4045	0.112	830809	keystroke_s	s	n/a
415.563	0.1225	831126	keystroke_Key.space	Key.space	n/a
416.0795	0.09	832159	keystroke_c	c	n/a
416.203	0.135	832406	keystroke_a	a	n/a
416.383	0.09	832766	keystroke_m	m	n/a
416.518	0.135	833036	keystroke_e	e	n/a
416.6305	0.09	833261	keystroke_r	r	n/a
416.833	0.045	833666	keystroke_o	o	n/a
416.9565	0.135	833913	keystroke_o	o	n/a
417.058	0.1125	834116	keystroke_n	n	n/a
417.2265	0.0345	834453	keystroke_Key.enter	Key.enter	n/a
417.2645	4.103	834529	prompt	n/a	folding mars bryant redeem\n
417.9015	0.09	835803	keystroke_f	f	n/a
418.0035	0.033	836007	keystroke_o	o	n/a
418.149	0.0905	836298	keystroke_l	l	n/a
418.239	0.0565	836478	keystroke_d	d	n/a
418.3065	0.1245	836613	keystroke_i	i	n/a
418.386	0.0785	836772	keystroke_n	n	n/a
418.4535	0.1005	836907	keystroke_g	g	n/a
418.566	0.1005	837132	keystroke_Key.space	Key.space	n/a
418.7685	0.0895	837537	keystroke_m	m	n/a
418.847	0.112	837694	keystroke_a	a	n/a
418.9145	0.0895	837829	keystroke_r	r	n/a
419.061	0.067	838122	keystroke_s	s	n/a
419.1625	0.1235	838325	keystroke_Key.space	Key.space	n/a
419.3415	0.0905	838683	keystroke_b	b	n/a
419.567	0.0565	839134	keystroke_r	r	n/a
419.634	0.102	839268	keystroke_y	y	n/a
419.7915	0.102	839583	keystroke_a	a	n/a
419.904	0.079	839808	keystroke_n	n	n/a
420.039	0.057	840078	keystroke_t	t	n/a
420.1065	0.102	840213	keystroke_Key.space	Key.space	n/a
420.4115	0.145	840823	keystroke_r	r	n/a
420.501	0.0895	841002	keystroke_e	e	n/a
420.714	0.0565	841428	keystroke_d	d	n/a
420.9165	0.048	841833	keystroke_e	e	n/a
421.0855	0.0675	842171	keystroke_e	e	n/a
421.1415	0.113	842283	keystroke_m	m	n/a
421.3105	0.056	842621	keystroke_Key.enter	Key.enter	n/a
421.3705	7.816	842741	prompt	n/a	calibration stainless deluxe richard\n
422.053	0.1015	844106	keystroke_c	c	n/a
422.1995	0.101	844399	keystroke_a	a	n/a
422.368	0.1125	844736	keystroke_l	l	n/a
422.414	0.1455	844828	keystroke_i	i	n/a
422.5255	0.135	845051	keystroke_b	b	n/a
423.032	0.09	846064	keystroke_r	r	n/a
423.167	0.1235	846334	keystroke_a	a	n/a
423.257	0.0785	846514	keystroke_t	t	n/a
423.358	0.135	846716	keystroke_i	i	n/a
423.403	0.0785	846806	keystroke_o	o	n/a
423.4485	0.123	846897	keystroke_n	n	n/a
423.5265	0.09	847053	keystroke_Key.space	Key.space	n/a
423.729	0.124	847458	keystroke_t	t	n/a
424.438	0.0785	848876	keystroke_Key.backspace	Key.backspace	n/a
424.494	0.102	848988	keystroke_s	s	n/a
424.5625	0.135	849125	keystroke_t	t	n/a
424.6855	0.079	849371	keystroke_a	a	n/a
424.753	0.1575	849506	keystroke_i	i	n/a
424.832	0.135	849664	keystroke_n	n	n/a
425.113	0.0675	850226	keystroke_l	l	n/a
425.214	0.0905	850428	keystroke_e	e	n/a
425.4055	0.0575	850811	keystroke_s	s	n/a
425.563	0.079	851126	keystroke_s	s	n/a
425.653	0.1125	851306	keystroke_Key.space	Key.space	n/a
425.8555	0.135	851711	keystroke_d	d	n/a
426.0805	0.0225	852161	keystroke_e	e	n/a
426.137	0.1125	852274	keystroke_l	l	n/a
426.294	0.091	852588	keystroke_u	u	n/a
426.373	0.101	852746	keystroke_x	x	n/a
426.5645	0.056	853129	keystroke_e	e	n/a
426.733	0.09	853466	keystroke_d	d	n/a
426.8455	0.09	853691	keystroke_Key.space	Key.space	n/a
427.2625	0.089	854525	keystroke_r	r	n/a
427.9815	0.057	855963	keystroke_Key.backspace	Key.backspace	n/a
428.139	0.057	856278	keystroke_Key.backspace	Key.backspace	n/a
428.274	0.124	856548	keystroke_Key.backspace	Key.backspace	n/a
428.3865	0.113	856773	keystroke_Key.space	Key.space	n/a
428.488	0.045	856976	keystroke_r	r	n/a
428.589	0.102	857178	keystroke_i	i	n/a
428.6795	0.0785	857359	keystroke_c	c	n/a
428.7915	0.1015	857583	keystroke_h	h	n/a
428.882	0.112	857764	keystroke_a	a	n/a
428.938	0.09	857876	keystroke_r	r	n/a
429.039	0.135	858078	keystroke_d	d	n/a
429.1295	0.0565	858259	keystroke_Key.enter	Key.enter	n/a
429.1895	8.761	858379	prompt	n/a	converter texture everywhere convertible\n
429.8265	0.09	859653	keystroke_c	c	n/a
429.928	0.068	859856	keystroke_o	o	n/a
429.9625	0.101	859925	keystroke_n	n	n/a
430.052	0.1015	860104	keystroke_v	v	n/a
430.2995	0.067	860599	keystroke_e	e	n/a
430.3555	0.0785	860711	keystroke_r	r	n/a
430.58	0.0905	861160	keystroke_t	t	n/a
430.7155	0.0785	861431	keystroke_e	e	n/a
430.8625	0.1345	861725	keystroke_r	r	n/a
431.0755	0.068	862151	keystroke_Key.space	Key.space	n/a
431.638	0.1125	863276	keystroke_t	t	n/a
431.7165	0.08	863433	keystroke_e	e	n/a
432.066	0.09	864132	keystroke_x	x	n/a
432.1665	0.09	864333	keystroke_t	t	n/a
432.9655	0.0785	865931	keystroke_u	u	n/a
433.022	0.124	866044	keystroke_r	r	n/a
433.134	0.046	866268	keystroke_e	e	n/a
433.1905	0.09	866381	keystroke_Key.space	Key.space	n/a
433.348	0.09	866696	keystroke_e	e	n/a
433.5395	0.1345	867079	keystroke_v	v	n/a
433.7415	0.1015	867483	keystroke_e	e	n/a
433.809	0.1125	867618	keystroke_r	r	n/a
433.9325	0.068	867865	keystroke_y	y	n/a
434.124	0.09	868248	keystroke_w	w	n/a
434.2365	0.079	868473	keystroke_h	h	n/a
434.349	0.1015	868698	keystroke_e	e	n/a
434.428	0.146	868856	keystroke_r	r	n/a
434.5515	0.09	869103	keystroke_e	e	n/a
434.6755	0.112	869351	keystroke_Key.space	Key.space	n/a
435.182	0.09	870364	keystroke_c	c	n/a
435.2495	0.101	870499	keystroke_o	o	n/a
435.3055	0.1015	870611	keystroke_n	n	n/a
435.3845	0.101	870769	keystroke_v	v	n/a
435.609	0.1015	871218	keystroke_e	e	n/a
435.677	0.09	871354	keystroke_r	r	n/a
435.868	0.0675	871736	keystroke_t	t	n/a
436.1265	0.0675	872253	keystroke_b	b	n/a
436.138	0.0675	872276	keystroke_i	i	n/a
436.734	0.0795	873468	keystroke_Key.backspace	Key.backspace	n/a
436.8915	0.09	873783	keystroke_Key.backspace	Key.backspace	n/a
437.0605	0.0675	874121	keystroke_i	i	n/a
437.0715	0.079	874143	keystroke_b	b	n/a
437.758	0.0675	875516	keystroke_l	l	n/a
437.8145	0.0675	875629	keystroke_e	e	n/a
437.893	0.0565	875786	keystroke_Key.enter	Key.enter	n/a
437.9535	6.7015	875907	prompt	n/a	performing exhibits bush mobility\n
438.658	0.124	877316	keystroke_p	p	n/a
438.7705	0.079	877541	keystroke_e	e	n/a
438.793	0.067	877586	keystroke_r	r	n/a
439.0295	0.0785	878059	keystroke_f	f	n/a
439.119	0.0795	878238	keystroke_o	o	n/a
439.209	0.079	878418	keystroke_r	r	n/a
439.299	0.0675	878598	keystroke_m	m	n/a
439.6815	0.0905	879363	keystroke_i	i	n/a
439.7155	0.101	879431	keystroke_n	n	n/a
439.805	0.0795	879610	keystroke_g	g	n/a
439.8845	0.112	879769	keystroke_Key.space	Key.space	n/a
440.019	0.101	880038	keystroke_e	e	n/a
440.255	0.0675	880510	keystroke_x	x	n/a
440.4015	0.068	880803	keystroke_h	h	n/a
440.6605	0.1355	881321	keystroke_i	i	n/a
440.863	0.146	881726	keystroke_b	b	n/a
441.819	0.101	883638	keystroke_i	i	n/a
441.8865	0.124	883773	keystroke_t	t	n/a
441.9765	0.0785	883953	keystroke_s	s	n/a
442.0555	0.101	884111	keystroke_Key.space	Key.space	n/a
442.2805	0.0675	884561	keystroke_b	b	n/a
442.371	0.078	884742	keystroke_u	u	n/a
442.4715	0.0785	884943	keystroke_s	s	n/a
442.563	0.0665	885126	keystroke_h	h	n/a
442.584	0.135	885168	keystroke_Key.space	Key.space	n/a
442.854	0.124	885708	keystroke_m	m	n/a
442.933	0.113	885866	keystroke_o	o	n/a
443.6865	0.0785	887373	keystroke_b	b	n/a
443.7765	0.101	887553	keystroke_i	i	n/a
443.9	0.1575	887800	keystroke_l	l	n/a
443.99	0.1465	887980	keystroke_i	i	n/a
444.1475	0.0675	888295	keystroke_t	t	n/a
444.339	0.1015	888678	keystroke_y	y	n/a
444.5755	0.0785	889151	keystroke_Key.enter	Key.enter	n/a
444.6595	5.699	889319	prompt	n/a	stockings clear assigned midlands\n
445.3515	0.124	890703	keystroke_s	s	n/a
445.453	0.0785	890906	keystroke_t	t	n/a
445.543	0.0675	891086	keystroke_o	o	n/a
445.678	0.068	891356	keystroke_c	c	n/a
445.746	0.078	891492	keystroke_k	k	n/a
446.0265	0.0785	892053	keystroke_i	i	n/a
446.038	0.112	892076	keystroke_n	n	n/a
446.1165	0.09	892233	keystroke_g	g	n/a
446.285	0.1015	892570	keystroke_s	s	n/a
446.4425	0.1015	892885	keystroke_Key.space	Key.space	n/a
446.7135	0.0665	893427	keystroke_c	c	n/a
446.7915	0.0675	893583	keystroke_l	l	n/a
446.915	0.169	893830	keystroke_e	e	n/a
447.0165	0.1235	894033	keystroke_a	a	n/a
447.1065	0.056	894213	keystroke_r	r	n/a
447.1515	0.101	894303	keystroke_Key.space	Key.space	n/a
447.725	0.09	895450	keystroke_a	a	n/a
447.996	0.067	895992	keystroke_s	s	n/a
448.164	0.0675	896328	keystroke_s	s	n/a
448.2875	0.079	896575	keystroke_i	i	n/a
448.4115	0.0785	896823	keystroke_g	g	n/a
448.569	0.0785	897138	keystroke_n	n	n/a
448.7375	0.034	897475	keystroke_e	e	n/a
448.9175	0.079	897835	keystroke_d	d	n/a
449.0075	0.1465	898015	keystroke_Key.space	Key.space	n/a
449.413	0.135	898826	keystroke_m	m	n/a
449.4805	0.112	898961	keystroke_i	i	n/a
449.5815	0.0785	899163	keystroke_d	d	n/a
449.7275	0.0795	899455	keystroke_l	l	n/a
449.8175	0.0795	899635	keystroke_a	a	n/a
449.9645	0.09	899929	keystroke_n	n	n/a
450.077	0.123	900154	keystroke_d	d	n/a
450.1665	0.113	900333	keystroke_s	s	n/a
450.29	0.0675	900580	keystroke_Key.enter	Key.enter	n/a
450.3615	4.598	900723	prompt	n/a	advocacy unity maps alter\n
451.1115	0.056	902223	keystroke_a	a	n/a
451.2465	0.1235	902493	keystroke_d	d	n/a
451.674	0.09	903348	keystroke_v	v	n/a
451.809	0.0565	903618	keystroke_o	o	n/a
451.989	0.091	903978	keystroke_c	c	n/a
452.147	0.112	904294	keystroke_a	a	n/a
452.338	0.101	904676	keystroke_c	c	n/a
452.496	0.134	904992	keystroke_y	y	n/a
452.6525	0.09	905305	keystroke_Key.space	Key.space	n/a
452.9675	0.0565	905935	keystroke_u	u	n/a
453.1365	0.113	906273	keystroke_n	n	n/a
453.1815	0.135	906363	keystroke_i	i	n/a
453.294	0.0675	906588	keystroke_t	t	n/a
453.3965	0.1225	906793	keystroke_y	y	n/a
453.474	0.09	906948	keystroke_Key.space	Key.space	n/a
453.654	0.1235	907308	keystroke_m	m	n/a
453.9465	0.056	907893	keystroke_a	a	n/a
454.0365	0.101	908073	keystroke_p	p	n/a
454.149	0.101	908298	keystroke_s	s	n/a
454.261	0.0685	908522	keystroke_Key.space	Key.space	n/a
454.363	0.1235	908726	keystroke_a	a	n/a
454.4975	0.0565	908995	keystroke_l	l	n/a
454.599	0.0675	909198	keystroke_t	t	n/a
454.779	0.09	909558	keystroke_e	e	n/a
454.8135	0.1115	909627	keystroke_r	r	n/a
454.88	0.079	909760	keystroke_Key.enter	Key.enter	n/a
454.9625	5.994	909925	prompt	n/a	collections wanted nelson predicted\n
455.6795	0.0895	911359	keystroke_c	c	n/a
455.769	0.09	911538	keystroke_o	o	n/a
455.9825	0.045	911965	keystroke_l	l	n/a
456.1065	0.101	912213	keystroke_l	l	n/a
456.1635	0.089	912327	keystroke_e	e	n/a
456.3655	0.0675	912731	keystroke_c	c	n/a
456.5005	0.079	913001	keystroke_t	t	n/a
456.59	0.1245	913180	keystroke_i	i	n/a
456.6245	0.067	913249	keystroke_o	o	n/a
456.669	0.113	913338	keystroke_n	n	n/a
456.782	0.0675	913564	keystroke_s	s	n/a
456.9395	0.078	913879	keystroke_Key.space	Key.space	n/a
457.1975	0.1125	914395	keystroke_w	w	n/a
457.2765	0.1235	914553	keystroke_a	a	n/a
457.446	0.089	914892	keystroke_n	n	n/a
457.5355	0.112	915071	keystroke_t	t	n/a
457.592	0.0675	915184	keystroke_3	3	n/a
457.8055	0.034	915611	keystroke_d	d	n/a
458.177	0.0555	916354	keystroke_Key.backspace	Key.backspace	n/a
458.345	0.0565	916690	keystroke_Key.backspace	Key.backspace	n/a
458.4915	0.0785	916983	keystroke_e	e	n/a
458.6825	0.034	917365	keystroke_d	d	n/a
458.75	0.1015	917500	keystroke_Key.space	Key.space	n/a
458.885	0.09	917770	keystroke_n	n	n/a
458.9865	0.0905	917973	keystroke_e	e	n/a
459.0875	0.0675	918175	keystroke_l	l	n/a
459.2465	0.033	918493	keystroke_s	s	n/a
459.335	0.09	918670	keystroke_o	o	n/a
459.437	0.1005	918874	keystroke_n	n	n/a
459.572	0.1005	919144	keystroke_Key.space	Key.space	n/a
459.785	0.0675	919570	keystroke_p	p	n/a
459.8645	0.123	919729	keystroke_r	r	n/a
459.9425	0.079	919885	keystroke_e	e	n/a
460.1	0.09	920200	keystroke_d	d	n/a
460.235	0.09	920470	keystroke_i	i	n/a
460.3365	0.09	920673	keystroke_c	c	n/a
460.483	0.124	920966	keystroke_t	t	n/a
460.595	0.079	921190	keystroke_e	e	n/a
460.775	0.0795	921550	keystroke_d	d	n/a
460.8875	0.0675	921775	keystroke_Key.enter	Key.enter	n/a
460.9595	5.0815	921919	prompt	n/a	of oriented affects hungary\n
461.7875	0.056	923575	keystroke_o	o	n/a
461.855	0.079	923710	keystroke_f	f	n/a
461.9115	0.0895	923823	keystroke_Key.space	Key.space	n/a
462.0575	0.09	924115	keystroke_o	o	n/a
462.5075	0.09	925015	keystroke_r	r	n/a
462.6315	0.09	925263	keystroke_i	i	n/a
462.6875	0.101	925375	keystroke_e	e	n/a
462.8795	0.0895	925759	keystroke_n	n	n/a
463.0145	0.1005	926029	keystroke_t	t	n/a
463.0925	0.079	926185	keystroke_e	e	n/a
463.3065	0.0675	926613	keystroke_d	d	n/a
463.4075	0.09	926815	keystroke_Key.space	Key.space	n/a
463.5545	0.1455	927109	keystroke_a	a	n/a
463.745	0.0565	927490	keystroke_f	f	n/a
463.925	0.079	927850	keystroke_f	f	n/a
464.1055	0.067	928211	keystroke_e	e	n/a
464.342	0.033	928684	keystroke_c	c	n/a
464.4875	0.1125	928975	keystroke_t	t	n/a
464.6675	0.034	929335	keystroke_s	s	n/a
464.7575	0.09	929515	keystroke_Key.space	Key.space	n/a
464.9375	0.0225	929875	keystroke_h	h	n/a
465.0725	0.0905	930145	keystroke_u	u	n/a
465.275	0.0335	930550	keystroke_n	n	n/a
465.32	0.1015	930640	keystroke_g	g	n/a
465.557	0.1345	931114	keystroke_a	a	n/a
465.6575	0.0675	931315	keystroke_r	r	n/a
465.7925	0.1015	931585	keystroke_y	y	n/a
465.9615	0.0785	931923	keystroke_Key.enter	Key.enter	n/a
466.044	6.4545	932088	prompt	n/a	personally applicable theoretical lived\n
466.7715	0.0785	933543	keystroke_p	p	n/a
467.019	0.112	934038	keystroke_e	e	n/a
467.0755	0.146	934151	keystroke_r	r	n/a
467.2215	0.1015	934443	keystroke_s	s	n/a
467.334	0.079	934668	keystroke_o	o	n/a
467.39	0.135	934780	keystroke_n	n	n/a
467.514	0.0675	935028	keystroke_a	a	n/a
467.593	0.0335	935186	keystroke_l	l	n/a
467.7165	0.1465	935433	keystroke_l	l	n/a
467.83	0.123	935660	keystroke_y	y	n/a
467.908	0.101	935816	keystroke_Key.space	Key.space	n/a
468.2905	0.068	936581	keystroke_a	a	n/a
468.3915	0.079	936783	keystroke_p	p	n/a
468.5265	0.09	937053	keystroke_p	p	n/a
468.718	0.0785	937436	keystroke_l	l	n/a
468.763	0.1125	937526	keystroke_i	i	n/a
468.8305	0.101	937661	keystroke_c	c	n/a
468.954	0.1345	937908	keystroke_a	a	n/a
469.147	0.1445	938294	keystroke_b	b	n/a
469.3815	0.09	938763	keystroke_l	l	n/a
469.4825	0.079	938965	keystroke_e	e	n/a
469.573	0.1235	939146	keystroke_Key.space	Key.space	n/a
469.8085	0.0455	939617	keystroke_t	t	n/a
469.966	0.0345	939932	keystroke_h	h	n/a
470.0565	0.0675	940113	keystroke_e	e	n/a
470.169	0.0675	940338	keystroke_o	o	n/a
470.293	0.1235	940586	keystroke_r	r	n/a
470.709	0.124	941418	keystroke_e	e	n/a
470.8105	0.0785	941621	keystroke_t	t	n/a
470.946	0.1225	941892	keystroke_i	i	n/a
471.0805	0.1125	942161	keystroke_c	c	n/a
471.181	0.1015	942362	keystroke_a	a	n/a
471.2935	0.079	942587	keystroke_l	l	n/a
471.5185	0.1015	943037	keystroke_Key.space	Key.space	n/a
471.89	0.1125	943780	keystroke_l	l	n/a
471.969	0.113	943938	keystroke_i	i	n/a
472.059	0.1125	944118	keystroke_v	v	n/a
472.1605	0.0785	944321	keystroke_e	e	n/a
472.3515	0.056	944703	keystroke_d	d	n/a
472.4415	0.056	944883	keystroke_Key.enter	Key.enter	n/a
472.501	4.7	945002	prompt	n/a	marine emacs charging change\n
473.2295	0.089	946459	keystroke_m	m	n/a
473.2965	0.09	946593	keystroke_a	a	n/a
473.341	0.09	946682	keystroke_r	r	n/a
473.488	0.112	946976	keystroke_i	i	n/a
473.555	0.0915	947110	keystroke_n	n	n/a
473.645	0.079	947290	keystroke_e	e	n/a
473.7575	0.101	947515	keystroke_Key.space	Key.space	n/a
473.8925	0.101	947785	keystroke_e	e	n/a
474.005	0.0675	948010	keystroke_m	m	n/a
474.084	0.0675	948168	keystroke_a	a	n/a
474.2075	0.09	948415	keystroke_c	c	n/a
474.41	0.09	948820	keystroke_s	s	n/a
474.5335	0.1015	949067	keystroke_Key.space	Key.space	n/a
474.8825	0.0905	949765	keystroke_c	c	n/a
475.018	0.079	950036	keystroke_h	h	n/a
475.085	0.1125	950170	keystroke_a	a	n/a
475.164	0.0785	950328	keystroke_r	r	n/a
475.389	0.056	950778	keystroke_g	g	n/a
475.5235	0.1015	951047	keystroke_i	i	n/a
475.58	0.1125	951160	keystroke_n	n	n/a
475.7265	0.112	951453	keystroke_g	g	n/a
475.9175	0.1015	951835	keystroke_Key.space	Key.space	n/a
476.165	0.09	952330	keystroke_c	c	n/a
476.2435	0.09	952487	keystroke_h	h	n/a
476.4575	0.1125	952915	keystroke_a	a	n/a
476.6485	0.1125	953297	keystroke_n	n	n/a
476.7835	0.169	953567	keystroke_g	g	n/a
476.941	0.09	953882	keystroke_e	e	n/a
477.0875	0.1125	954175	keystroke_Key.enter	Key.enter	n/a
477.204	4.3955	954408	prompt	n/a	resorts suit been maternity\n
477.8305	0.123	955661	keystroke_r	r	n/a
477.886	0.102	955772	keystroke_e	e	n/a
477.976	0.1245	955952	keystroke_s	s	n/a
478.1	0.0785	956200	keystroke_o	o	n/a
478.201	0.1125	956402	keystroke_r	r	n/a
478.505	0.1255	957010	keystroke_t	t	n/a
478.6175	0.1015	957235	keystroke_s	s	n/a
478.82	0.079	957640	keystroke_Key.space	Key.space	n/a
479.113	0.112	958226	keystroke_s	s	n/a
479.225	0.1015	958450	keystroke_u	u	n/a
479.259	0.1235	958518	keystroke_i	i	n/a
479.394	0.0785	958788	keystroke_t	t	n/a
479.54	0.101	959080	keystroke_Key.space	Key.space	n/a
479.81	0.0785	959620	keystroke_b	b	n/a
480.0235	0.034	960047	keystroke_e	e	n/a
480.1585	0.0795	960317	keystroke_e	e	n/a
480.193	0.123	960386	keystroke_n	n	n/a
480.2825	0.1235	960565	keystroke_Key.space	Key.space	n/a
480.418	0.079	960836	keystroke_m	m	n/a
480.4965	0.1235	960993	keystroke_a	a	n/a
480.586	0.0675	961172	keystroke_t	t	n/a
480.7435	0.1125	961487	keystroke_e	e	n/a
480.811	0.09	961622	keystroke_r	r	n/a
480.935	0.169	961870	keystroke_n	n	n/a
481.081	0.1125	962162	keystroke_i	i	n/a
481.205	0.0785	962410	keystroke_t	t	n/a
481.318	0.09	962636	keystroke_y	y	n/a
481.531	0.0675	963062	keystroke_Key.enter	Key.enter	n/a
481.6025	6.342	963205	prompt	n/a	beginner demands phantom mono\n
482.23	0.0885	964460	keystroke_b	b	n/a
482.398	0.135	964796	keystroke_e	e	n/a
482.521	0.147	965042	keystroke_g	g	n/a
482.7235	0.09	965447	keystroke_i	i	n/a
482.8925	0.056	965785	keystroke_n	n	n/a
483.0725	0.091	966145	keystroke_n	n	n/a
483.298	0.0895	966596	keystroke_e	e	n/a
483.3535	0.09	966707	keystroke_r	r	n/a
483.466	0.1015	966932	keystroke_Key.space	Key.space	n/a
483.6355	0.079	967271	keystroke_d	d	n/a
483.815	0.079	967630	keystroke_e	e	n/a
483.939	0.091	967878	keystroke_m	m	n/a
484.04	0.0785	968080	keystroke_a	a	n/a
484.175	0.1015	968350	keystroke_n	n	n/a
484.299	0.146	968598	keystroke_d	d	n/a
484.513	0.123	969026	keystroke_s	s	n/a
485.053	0.1005	970106	keystroke_Key.space	Key.space	n/a
485.334	0.0895	970668	keystroke_p	p	n/a
485.39	0.135	970780	keystroke_h	h	n/a
485.536	0.079	971072	keystroke_a	a	n/a
485.6495	0.078	971299	keystroke_n	n	n/a
485.7615	0.0785	971523	keystroke_t	t	n/a
485.8515	0.1235	971703	keystroke_o	o	n/a
485.9415	0.101	971883	keystroke_m	m	n/a
486.2795	0.1005	972559	keystroke_Key.space	Key.space	n/a
486.864	0.112	973728	keystroke_m	m	n/a
487.0775	0.0785	974155	keystroke_o	o	n/a
487.145	0.135	974290	keystroke_n	n	n/a
487.2575	0.101	974515	keystroke_o	o	n/a
487.8765	0.067	975753	keystroke_Key.enter	Key.enter	n/a
487.9475	5.397	975895	prompt	n/a	discount degrees india metric\n
488.5175	0.079	977035	keystroke_d	d	n/a
488.6075	0.101	977215	keystroke_i	i	n/a
488.675	0.09	977350	keystroke_s	s	n/a
488.855	0.0785	977710	keystroke_c	c	n/a
488.911	0.09	977822	keystroke_o	o	n/a
488.956	0.0905	977912	keystroke_u	u	n/a
489.1585	0.079	978317	keystroke_n	n	n/a
489.2375	0.0675	978475	keystroke_t	t	n/a
489.316	0.135	978632	keystroke_Key.space	Key.space	n/a
489.463	0.067	978926	keystroke_d	d	n/a
489.8	0.056	979600	keystroke_g	g	n/a
490.498	0.078	980996	keystroke_Key.backspace	Key.backspace	n/a
490.61	0.1125	981220	keystroke_e	e	n/a
490.7675	0.09	981535	keystroke_g	g	n/a
491.0045	0.1455	982009	keystroke_r	r	n/a
491.1385	0.0675	982277	keystroke_e	e	n/a
491.3075	0.0675	982615	keystroke_e	e	n/a
491.4765	0.101	982953	keystroke_s	s	n/a
491.6	0.113	983200	keystroke_Key.space	Key.space	n/a
491.814	0.1125	983628	keystroke_i	i	n/a
491.87	0.1125	983740	keystroke_n	n	n/a
491.9375	0.1015	983875	keystroke_d	d	n/a
492.084	0.101	984168	keystroke_i	i	n/a
492.1965	0.101	984393	keystroke_a	a	n/a
492.331	0.135	984662	keystroke_Key.space	Key.space	n/a
492.5225	0.091	985045	keystroke_m	m	n/a
492.6235	0.1245	985247	keystroke_e	e	n/a
492.714	0.0785	985428	keystroke_t	t	n/a
492.905	0.09	985810	keystroke_r	r	n/a
493.04	0.0905	986080	keystroke_i	i	n/a
493.141	0.0675	986282	keystroke_c	c	n/a
493.265	0.0785	986530	keystroke_Key.enter	Key.enter	n/a
493.3475	4.801	986695	prompt	n/a	information insertion talking prisoner\n
493.951	0.09	987902	keystroke_i	i	n/a
493.9855	0.112	987971	keystroke_n	n	n/a
494.053	0.1005	988106	keystroke_f	f	n/a
494.143	0.1005	988286	keystroke_o	o	n/a
494.2555	0.0895	988511	keystroke_r	r	n/a
494.356	0.1125	988712	keystroke_m	m	n/a
494.4805	0.0895	988961	keystroke_a	a	n/a
494.559	0.067	989118	keystroke_t	t	n/a
494.615	0.135	989230	keystroke_i	i	n/a
494.6375	0.0895	989275	keystroke_o	o	n/a
494.6825	0.1355	989365	keystroke_n	n	n/a
494.7835	0.102	989567	keystroke_Key.space	Key.space	n/a
494.897	0.123	989794	keystroke_i	i	n/a
494.9645	0.123	989929	keystroke_n	n	n/a
495.031	0.1915	990062	keystroke_s	s	n/a
495.211	0.09	990422	keystroke_e	e	n/a
495.2335	0.113	990467	keystroke_r	r	n/a
495.4135	0.1125	990827	keystroke_t	t	n/a
495.8865	0.157	991773	keystroke_i	i	n/a
495.9535	0.0675	991907	keystroke_o	o	n/a
495.9985	0.1245	991997	keystroke_n	n	n/a
496.1335	0.1015	992267	keystroke_Key.space	Key.space	n/a
496.471	0.113	992942	keystroke_t	t	n/a
496.561	0.0795	993122	keystroke_a	a	n/a
496.6285	0.09	993257	keystroke_l	l	n/a
496.6855	0.1005	993371	keystroke_k	k	n/a
496.921	0.1125	993842	keystroke_i	i	n/a
496.966	0.124	993932	keystroke_n	n	n/a
497.1015	0.101	994203	keystroke_g	g	n/a
497.2025	0.0785	994405	keystroke_Key.space	Key.space	n/a
497.2925	0.1125	994585	keystroke_p	p	n/a
497.416	0.079	994832	keystroke_r	r	n/a
497.5065	0.101	995013	keystroke_i	i	n/a
497.6185	0.079	995237	keystroke_s	s	n/a
497.7085	0.1015	995417	keystroke_o	o	n/a
497.765	0.1015	995530	keystroke_n	n	n/a
497.9225	0.1245	995845	keystroke_e	e	n/a
497.98	0.1	995960	keystroke_r	r	n/a
498.091	0.0565	996182	keystroke_Key.enter	Key.enter	n/a
498.1515	5.6895	996303	prompt	n/a	hurricane michael weapons laden\n
498.8225	0.0675	997645	keystroke_h	h	n/a
498.9915	0.09	997983	keystroke_u	u	n/a
499.07	0.0565	998140	keystroke_r	r	n/a
499.216	0.1015	998432	keystroke_r	r	n/a
499.351	0.1015	998702	keystroke_i	i	n/a
499.5425	0.146	999085	keystroke_c	c	n/a
499.6775	0.09	999355	keystroke_a	a	n/a
499.7785	0.1125	999557	keystroke_n	n	n/a
499.925	0.1125	999850	keystroke_e	e	n/a
500.071	0.09	1000142	keystroke_Key.space	Key.space	n/a
500.1725	0.169	1000345	keystroke_m	m	n/a
500.33	0.124	1000660	keystroke_i	i	n/a
500.4425	0.09	1000885	keystroke_c	c	n/a
500.544	0.09	1001088	keystroke_h	h	n/a
500.6805	0.0995	1001361	keystroke_a	a	n/a
500.8025	0.1125	1001605	keystroke_e	e	n/a
500.9375	0.135	1001875	keystroke_l	l	n/a
501.05	0.1015	1002100	keystroke_Key.space	Key.space	n/a
501.5	0.114	1003000	keystroke_w	w	n/a
501.58	0.1115	1003160	keystroke_e	e	n/a
501.6915	0.1235	1003383	keystroke_a	a	n/a
501.8265	0.101	1003653	keystroke_p	p	n/a
502.422	0.113	1004844	keystroke_o	o	n/a
502.49	0.124	1004980	keystroke_n	n	n/a
502.6025	0.0785	1005205	keystroke_s	s	n/a
502.8615	0.09	1005723	keystroke_Key.space	Key.space	n/a
503.21	0.0675	1006420	keystroke_l	l	n/a
503.2775	0.09	1006555	keystroke_a	a	n/a
503.356	0.0675	1006712	keystroke_d	d	n/a
503.604	0.0785	1007208	keystroke_e	e	n/a
503.6715	0.0785	1007343	keystroke_n	n	n/a
503.7725	0.0675	1007545	keystroke_Key.enter	Key.enter	n/a
503.8435	9.0875	1007687	prompt	n/a	architecture miscellaneous hawaiian proposal\n
504.7625	0.1015	1009525	keystroke_a	a	n/a
504.8525	0.045	1009705	keystroke_r	r	n/a
505.01	0.124	1010020	keystroke_c	c	n/a
505.1225	0.135	1010245	keystroke_h	h	n/a
505.19	0.1015	1010380	keystroke_i	i	n/a
505.28	0.124	1010560	keystroke_t	t	n/a
505.37	0.1015	1010740	keystroke_e	e	n/a
505.63	0.089	1011260	keystroke_c	c	n/a
505.7645	0.089	1011529	keystroke_t	t	n/a
506.045	0.0675	1012090	keystroke_u	u	n/a
506.1235	0.1125	1012247	keystroke_r	r	n/a
506.1685	0.09	1012337	keystroke_e	e	n/a
506.27	0.101	1012540	keystroke_Key.space	Key.space	n/a
506.4045	0.159	1012809	keystroke_l	l	n/a
506.5515	0.067	1013103	keystroke_i	i	n/a
507.5975	0.056	1015195	keystroke_Key.backspace	Key.backspace	n/a
507.721	0.0675	1015442	keystroke_Key.backspace	Key.backspace	n/a
507.89	0.1015	1015780	keystroke_m	m	n/a
507.9345	0.113	1015869	keystroke_i	i	n/a
508.002	0.0795	1016004	keystroke_s	s	n/a
508.2045	0.1125	1016409	keystroke_c	c	n/a
508.4415	0.078	1016883	keystroke_e	e	n/a
508.576	0.045	1017152	keystroke_l	l	n/a
508.722	0.0905	1017444	keystroke_l	l	n/a
508.8235	0.101	1017647	keystroke_a	a	n/a
508.9475	0.068	1017895	keystroke_n	n	n/a
509.1955	0.135	1018391	keystroke_e	e	n/a
509.4085	0.09	1018817	keystroke_o	o	n/a
509.4425	0.09	1018885	keystroke_u	u	n/a
509.6	0.056	1019200	keystroke_s	s	n/a
509.667	0.113	1019334	keystroke_Key.space	Key.space	n/a
509.87	0.101	1019740	keystroke_h	h	n/a
509.96	0.112	1019920	keystroke_a	a	n/a
510.3195	0.135	1020639	keystroke_w	w	n/a
510.432	0.1125	1020864	keystroke_a	a	n/a
510.601	0.1015	1021202	keystroke_i	i	n/a
510.8145	0.079	1021629	keystroke_i	i	n/a
510.9945	0.0795	1021989	keystroke_a	a	n/a
511.062	0.068	1022124	keystroke_n	n	n/a
511.377	0.0905	1022754	keystroke_Key.space	Key.space	n/a
511.501	0.113	1023002	keystroke_p	p	n/a
511.6025	0.079	1023205	keystroke_r	r	n/a
511.704	0.112	1023408	keystroke_o	o	n/a
511.7935	0.113	1023587	keystroke_p	p	n/a
511.884	0.113	1023768	keystroke_o	o	n/a
512.03	0.1575	1024060	keystroke_s	s	n/a
512.255	0.067	1024510	keystroke_a	a	n/a
512.4345	0.09	1024869	keystroke_l	l	n/a
512.8965	0.0335	1025793	keystroke_Key.enter	Key.enter	n/a
512.934	5.159	1025868	prompt	n/a	precision coupons importantly invitations\n
513.6605	0.0785	1027321	keystroke_p	p	n/a
513.7055	0.124	1027411	keystroke_r	r	n/a
513.7505	0.09	1027501	keystroke_e	e	n/a
513.9755	0.056	1027951	keystroke_c	c	n/a
514.043	0.079	1028086	keystroke_i	i	n/a
514.1445	0.1015	1028289	keystroke_s	s	n/a
514.2565	0.158	1028513	keystroke_i	i	n/a
514.302	0.09	1028604	keystroke_o	o	n/a
514.358	0.1345	1028716	keystroke_n	n	n/a
514.4475	0.09	1028895	keystroke_Key.space	Key.space	n/a
514.65	0.0675	1029300	keystroke_c	c	n/a
514.707	0.123	1029414	keystroke_o	o	n/a
514.752	0.123	1029504	keystroke_u	u	n/a
514.864	0.113	1029728	keystroke_p	p	n/a
515.0325	0.1575	1030065	keystroke_o	o	n/a
515.1225	0.169	1030245	keystroke_n	n	n/a
515.28	0.1125	1030560	keystroke_Key.space	Key.space	n/a
515.505	0.1125	1031010	keystroke_i	i	n/a
515.539	0.157	1031078	keystroke_m	m	n/a
515.629	0.101	1031258	keystroke_p	p	n/a
515.685	0.1465	1031370	keystroke_o	o	n/a
515.8315	0.078	1031663	keystroke_r	r	n/a
515.9885	0.101	1031977	keystroke_t	t	n/a
516.101	0.113	1032202	keystroke_a	a	n/a
516.2695	0.0905	1032539	keystroke_n	n	n/a
516.3715	0.0555	1032743	keystroke_t	t	n/a
516.472	0.102	1032944	keystroke_l	l	n/a
516.5395	0.124	1033079	keystroke_y	y	n/a
516.63	0.101	1033260	keystroke_Key.space	Key.space	n/a
516.7985	0.1125	1033597	keystroke_i	i	n/a
516.866	0.113	1033732	keystroke_n	n	n/a
516.956	0.101	1033912	keystroke_v	v	n/a
517.0685	0.0785	1034137	keystroke_i	i	n/a
517.203	0.079	1034406	keystroke_t	t	n/a
517.271	0.09	1034542	keystroke_i	i	n/a
517.406	0.135	1034812	keystroke_a	a	n/a
517.507	0.09	1035014	keystroke_t	t	n/a
517.687	0.1235	1035374	keystroke_i	i	n/a
517.7095	0.09	1035419	keystroke_o	o	n/a
517.766	0.1135	1035532	keystroke_n	n	n/a
517.89	0.067	1035780	keystroke_s	s	n/a
518.0135	0.0785	1036027	keystroke_Key.enter	Key.enter	n/a
518.096	5.6345	1036192	prompt	n/a	craft holocaust cool committee\n
518.8005	0.0675	1037601	keystroke_c	c	n/a
518.969	0.1015	1037938	keystroke_r	r	n/a
519.059	0.136	1038118	keystroke_a	a	n/a
519.1715	0.0575	1038343	keystroke_f	f	n/a
519.363	0.0335	1038726	keystroke_t	t	n/a
519.4755	0.101	1038951	keystroke_Key.space	Key.space	n/a
519.622	0.1465	1039244	keystroke_h	h	n/a
519.734	0.0675	1039468	keystroke_o	o	n/a
519.892	0.0785	1039784	keystroke_l	l	n/a
520.0605	0.1015	1040121	keystroke_o	o	n/a
520.173	0.0785	1040346	keystroke_c	c	n/a
520.398	0.0785	1040796	keystroke_a	a	n/a
520.5555	0.0785	1041111	keystroke_u	u	n/a
520.6905	0.1355	1041381	keystroke_s	s	n/a
520.7915	0.0905	1041583	keystroke_t	t	n/a
520.9605	0.09	1041921	keystroke_Key.space	Key.space	n/a
521.3995	0.08	1042799	keystroke_c	c	n/a
521.4795	0.0545	1042959	keystroke_o	o	n/a
521.624	0.0675	1043248	keystroke_o	o	n/a
521.782	0.0895	1043564	keystroke_l	l	n/a
521.849	0.091	1043698	keystroke_Key.space	Key.space	n/a
521.973	0.1125	1043946	keystroke_c	c	n/a
522.0515	0.124	1044103	keystroke_o	o	n/a
522.1865	0.135	1044373	keystroke_m	m	n/a
522.3555	0.1125	1044711	keystroke_m	m	n/a
522.5695	0.067	1045139	keystroke_i	i	n/a
522.6705	0.102	1045341	keystroke_t	t	n/a
522.918	0.034	1045836	keystroke_t	t	n/a
523.0985	0.033	1046197	keystroke_e	e	n/a
523.2555	0.09	1046511	keystroke_e	e	n/a
523.6605	0.0685	1047321	keystroke_Key.enter	Key.enter	n/a
523.734	6.0925	1047468	prompt	n/a	iran achievements steven meditation\n
524.358	0.124	1048716	keystroke_i	i	n/a
524.448	0.1125	1048896	keystroke_r	r	n/a
524.5725	0.067	1049145	keystroke_a	a	n/a
524.6505	0.1125	1049301	keystroke_n	n	n/a
524.73	0.123	1049460	keystroke_Key.space	Key.space	n/a
524.865	0.0555	1049730	keystroke_a	a	n/a
525.033	0.0675	1050066	keystroke_c	c	n/a
525.1685	0.112	1050337	keystroke_h	h	n/a
525.2475	0.135	1050495	keystroke_i	i	n/a
525.416	0.0795	1050832	keystroke_e	e	n/a
525.5955	0.1465	1051191	keystroke_v	v	n/a
525.697	0.101	1051394	keystroke_e	e	n/a
525.8885	0.112	1051777	keystroke_m	m	n/a
526.0125	0.123	1052025	keystroke_e	e	n/a
526.147	0.056	1052294	keystroke_n	n	n/a
526.248	0.135	1052496	keystroke_t	t	n/a
526.372	0.09	1052744	keystroke_s	s	n/a
526.777	0.0675	1053554	keystroke_Key.space	Key.space	n/a
526.9125	0.168	1053825	keystroke_s	s	n/a
527.0695	0.1125	1054139	keystroke_t	t	n/a
527.1595	0.101	1054319	keystroke_e	e	n/a
527.441	0.1575	1054882	keystroke_v	v	n/a
527.5645	0.1125	1055129	keystroke_e	e	n/a
527.7795	0.1335	1055559	keystroke_n	n	n/a
528.397	0.0455	1056794	keystroke_Key.space	Key.space	n/a
528.51	0.1355	1057020	keystroke_m	m	n/a
528.7125	0.011	1057425	keystroke_e	e	n/a
528.8135	0.101	1057627	keystroke_d	d	n/a
528.9255	0.079	1057851	keystroke_i	i	n/a
529.027	0.0675	1058054	keystroke_t	t	n/a
529.1735	0.1345	1058347	keystroke_a	a	n/a
529.2635	0.112	1058527	keystroke_t	t	n/a
529.477	0.1125	1058954	keystroke_i	i	n/a
529.511	0.0895	1059022	keystroke_o	o	n/a
529.533	0.135	1059066	keystroke_n	n	n/a
529.758	0.0675	1059516	keystroke_Key.enter	Key.enter	n/a
529.831	6.7685	1059662	prompt	n/a	robert unexpected preference advert\n
530.501	0.0785	1061002	keystroke_r	r	n/a
530.602	0.079	1061204	keystroke_o	o	n/a
530.703	0.079	1061406	keystroke_b	b	n/a
530.8945	0.113	1061789	keystroke_e	e	n/a
530.9955	0.0455	1061991	keystroke_r	r	n/a
531.142	0.0675	1062284	keystroke_t	t	n/a
531.2435	0.1355	1062487	keystroke_Key.space	Key.space	n/a
531.4685	0.056	1062937	keystroke_u	u	n/a
531.6255	0.079	1063251	keystroke_n	n	n/a
531.7155	0.079	1063431	keystroke_e	e	n/a
531.93	0.078	1063860	keystroke_x	x	n/a
532.0305	0.0675	1064061	keystroke_p	p	n/a
532.132	0.0785	1064264	keystroke_e	e	n/a
532.346	0.0675	1064692	keystroke_c	c	n/a
532.5255	0.0905	1065051	keystroke_t	t	n/a
532.6045	0.045	1065209	keystroke_e	e	n/a
532.763	0.067	1065526	keystroke_d	d	n/a
532.8635	0.09	1065727	keystroke_Key.space	Key.space	n/a
533.044	0.0895	1066088	keystroke_p	p	n/a
533.122	0.1125	1066244	keystroke_r	r	n/a
533.1795	0.1	1066359	keystroke_e	e	n/a
533.347	0.1125	1066694	keystroke_f	f	n/a
533.4935	0.1235	1066987	keystroke_e	e	n/a
533.5835	0.1575	1067167	keystroke_r	r	n/a
533.7295	0.0675	1067459	keystroke_e	e	n/a
534.483	0.0795	1068966	keystroke_n	n	n/a
534.5735	0.056	1069147	keystroke_c	c	n/a
534.7985	0.09	1069597	keystroke_e	e	n/a
534.9	0.079	1069800	keystroke_Key.space	Key.space	n/a
535.181	0.1015	1070362	keystroke_a	a	n/a
535.2485	0.0785	1070497	keystroke_d	d	n/a
535.44	0.0785	1070880	keystroke_v	v	n/a
535.631	0.09	1071262	keystroke_e	e	n/a
535.6875	0.0785	1071375	keystroke_r	r	n/a
536.126	0.09	1072252	keystroke_t	t	n/a
536.543	0.0555	1073086	keystroke_Key.enter	Key.enter	n/a
536.6025	5.938	1073205	prompt	n/a	birds concerts dayton impressive\n
537.2735	0.09	1074547	keystroke_b	b	n/a
537.375	0.1235	1074750	keystroke_i	i	n/a
537.611	0.0685	1075222	keystroke_r	r	n/a
537.6675	0.0785	1075335	keystroke_d	d	n/a
537.9035	0.1125	1075807	keystroke_s	s	n/a
538.1175	0.0785	1076235	keystroke_Key.space	Key.space	n/a
538.3535	0.09	1076707	keystroke_c	c	n/a
538.432	0.0905	1076864	keystroke_o	o	n/a
538.4885	0.1125	1076977	keystroke_n	n	n/a
538.556	0.102	1077112	keystroke_c	c	n/a
538.792	0.079	1077584	keystroke_e	e	n/a
538.837	0.1015	1077674	keystroke_r	r	n/a
539.04	0.1345	1078080	keystroke_t	t	n/a
539.186	0.0675	1078372	keystroke_s	s	n/a
539.332	0.091	1078664	keystroke_Key.space	Key.space	n/a
539.58	0.101	1079160	keystroke_d	d	n/a
539.7145	0.0675	1079429	keystroke_a	a	n/a
539.8275	0.0785	1079655	keystroke_y	y	n/a
540.0185	0.1015	1080037	keystroke_t	t	n/a
540.109	0.0785	1080218	keystroke_o	o	n/a
540.1315	0.1685	1080263	keystroke_n	n	n/a
540.2215	0.1125	1080443	keystroke_Key.space	Key.space	n/a
540.435	0.169	1080870	keystroke_i	i	n/a
540.5925	0.09	1081185	keystroke_m	m	n/a
540.626	0.124	1081252	keystroke_p	p	n/a
540.7835	0.124	1081567	keystroke_r	r	n/a
540.8735	0.1015	1081747	keystroke_e	e	n/a
541.11	0.0785	1082220	keystroke_s	s	n/a
541.29	0.0675	1082580	keystroke_s	s	n/a
541.4475	0.1015	1082895	keystroke_i	i	n/a
541.5375	0.124	1083075	keystroke_v	v	n/a
541.6275	0.0675	1083255	keystroke_e	e	n/a
542.46	0.079	1084920	keystroke_Key.enter	Key.enter	n/a
542.543	6.871	1085086	prompt	n/a	anytime time pickup browsing\n
543.18	0.079	1086360	keystroke_a	a	n/a
543.4725	0.0675	1086945	keystroke_n	n	n/a
543.6525	0.0675	1087305	keystroke_y	y	n/a
543.8665	0.0675	1087733	keystroke_t	t	n/a
543.945	0.1015	1087890	keystroke_i	i	n/a
544.0015	0.09	1088003	keystroke_m	m	n/a
544.0695	0.0785	1088139	keystroke_e	e	n/a
544.193	0.101	1088386	keystroke_Key.space	Key.space	n/a
544.3275	0.0675	1088655	keystroke_t	t	n/a
544.4065	0.101	1088813	keystroke_i	i	n/a
544.44	0.124	1088880	keystroke_m	m	n/a
544.5525	0.045	1089105	keystroke_e	e	n/a
544.654	0.09	1089308	keystroke_Key.space	Key.space	n/a
545.1265	0.112	1090253	keystroke_p	p	n/a
545.183	0.0895	1090366	keystroke_i	i	n/a
545.34	0.09	1090680	keystroke_c	c	n/a
545.4185	0.113	1090837	keystroke_k	k	n/a
545.4975	0.1585	1090995	keystroke_u	u	n/a
545.599	0.079	1091198	keystroke_p	p	n/a
545.678	0.101	1091356	keystroke_Key.space	Key.space	n/a
546.4535	0.0675	1092907	keystroke_b	b	n/a
546.994	0.112	1093988	keystroke_r	r	n/a
547.073	0.1235	1094146	keystroke_w	w	n/a
547.185	0.079	1094370	keystroke_o	o	n/a
548.04	0.0565	1096080	keystroke_Key.backspace	Key.backspace	n/a
548.175	0.079	1096350	keystroke_Key.backspace	Key.backspace	n/a
548.4	0.0675	1096800	keystroke_o	o	n/a
548.6255	0.0895	1097251	keystroke_w	w	n/a
548.918	0.0795	1097836	keystroke_s	s	n/a
549.0645	0.1115	1098129	keystroke_i	i	n/a
549.1205	0.146	1098241	keystroke_n	n	n/a
549.188	0.09	1098376	keystroke_g	g	n/a
549.311	0.102	1098622	keystroke_Key.enter	Key.enter	n/a
549.4175	5.1715	1098835	prompt	n/a	altered cleaning holidays sage\n
550.4815	0.0785	1100963	keystroke_a	a	n/a
550.5375	0.079	1101075	keystroke_l	l	n/a
550.65	0.0675	1101300	keystroke_t	t	n/a
550.774	0.1125	1101548	keystroke_e	e	n/a
550.864	0.146	1101728	keystroke_r	r	n/a
550.9765	0.09	1101953	keystroke_e	e	n/a
551.1675	0.1025	1102335	keystroke_d	d	n/a
551.2805	0.112	1102561	keystroke_Key.space	Key.space	n/a
551.404	0.0785	1102808	keystroke_c	c	n/a
551.528	0.0895	1103056	keystroke_l	l	n/a
551.6075	0.145	1103215	keystroke_e	e	n/a
551.742	0.1005	1103484	keystroke_a	a	n/a
551.854	0.1125	1103708	keystroke_n	n	n/a
552.0565	0.124	1104113	keystroke_i	i	n/a
552.1135	0.1005	1104227	keystroke_n	n	n/a
552.2815	0.0335	1104563	keystroke_g	g	n/a
552.3155	0.101	1104631	keystroke_Key.space	Key.space	n/a
552.45	0.09	1104900	keystroke_h	h	n/a
552.529	0.0785	1105058	keystroke_o	o	n/a
552.72	0.113	1105440	keystroke_l	l	n/a
552.8215	0.1575	1105643	keystroke_i	i	n/a
553.069	0.1015	1106138	keystroke_d	d	n/a
553.5535	0.078	1107107	keystroke_a	a	n/a
553.6765	0.1235	1107353	keystroke_y	y	n/a
553.8115	0.0785	1107623	keystroke_s	s	n/a
553.9355	0.09	1107871	keystroke_Key.space	Key.space	n/a
554.149	0.124	1108298	keystroke_s	s	n/a
554.2615	0.1355	1108523	keystroke_a	a	n/a
554.3515	0.124	1108703	keystroke_g	g	n/a
554.4075	0.079	1108815	keystroke_e	e	n/a
554.52	0.068	1109040	keystroke_Key.enter	Key.enter	n/a
554.592	6.398	1109184	prompt	n/a	resort vary handled outputs\n
555.297	0.1005	1110594	keystroke_r	r	n/a
555.3075	0.1575	1110615	keystroke_e	e	n/a
555.454	0.09	1110908	keystroke_s	s	n/a
555.555	0.079	1111110	keystroke_o	o	n/a
555.69	0.1015	1111380	keystroke_r	r	n/a
555.859	0.09	1111718	keystroke_t	t	n/a
555.994	0.1125	1111988	keystroke_Key.space	Key.space	n/a
556.1515	0.124	1112303	keystroke_v	v	n/a
556.264	0.1685	1112528	keystroke_a	a	n/a
556.4215	0.0675	1112843	keystroke_r	r	n/a
556.5455	0.146	1113091	keystroke_y	y	n/a
556.7255	0.0895	1113451	keystroke_Key.space	Key.space	n/a
556.9615	0.1125	1113923	keystroke_h	h	n/a
557.085	0.0565	1114170	keystroke_a	a	n/a
557.1305	0.0895	1114261	keystroke_n	n	n/a
557.299	0.09	1114598	keystroke_d	d	n/a
557.4	0.0905	1114800	keystroke_l	l	n/a
557.5355	0.0675	1115071	keystroke_e	e	n/a
557.704	0.0785	1115408	keystroke_d	d	n/a
557.794	0.09	1115588	keystroke_Key.space	Key.space	n/a
558.211	0.123	1116422	keystroke_o	o	n/a
558.278	0.09	1116556	keystroke_u	u	n/a
558.379	0.068	1116758	keystroke_t	t	n/a
558.4805	0.101	1116961	keystroke_p	p	n/a
558.548	0.1235	1117096	keystroke_u	u	n/a
558.649	0.124	1117298	keystroke_t	t	n/a
558.7505	0.09	1117501	keystroke_s	s	n/a
558.8855	0.1235	1117771	keystroke_.	.	n/a
559.4815	0.079	1118963	keystroke_Key.backspace	Key.backspace	n/a
560.9215	0.0675	1121843	keystroke_Key.enter	Key.enter	n/a
560.993	8.199	1121986	prompt	n/a	required relocation engines attractions\n
563.465	0.056	1126930	keystroke_Key.esc	Key.esc	n/a
564.274	0.0795	1128548	keystroke_r	r	n/a
564.2855	0.191	1128571	keystroke_e	e	n/a
564.466	0.045	1128932	keystroke_q	q	n/a
564.589	0.1015	1129178	keystroke_u	u	n/a
564.6005	0.079	1129201	keystroke_i	i	n/a
564.7015	0.113	1129403	keystroke_r	r	n/a
564.7475	0.078	1129495	keystroke_e	e	n/a
564.938	0.0675	1129876	keystroke_d	d	n/a
565.0615	0.1125	1130123	keystroke_Key.space	Key.space	n/a
565.354	0.1125	1130708	keystroke_r	r	n/a
565.4105	0.124	1130821	keystroke_e	e	n/a
565.523	0.0455	1131046	keystroke_l	l	n/a
565.6695	0.0895	1131339	keystroke_o	o	n/a
565.849	0.1245	1131698	keystroke_c	c	n/a
566.1645	0.112	1132329	keystroke_a	a	n/a
566.221	0.09	1132442	keystroke_t	t	n/a
566.322	0.1575	1132644	keystroke_i	i	n/a
566.3895	0.0675	1132779	keystroke_o	o	n/a
566.423	0.1245	1132846	keystroke_n	n	n/a
566.491	0.09	1132982	keystroke_Key.space	Key.space	n/a
566.6145	0.09	1133229	keystroke_e	e	n/a
566.716	0.101	1133432	keystroke_n	n	n/a
566.8735	0.112	1133747	keystroke_g	g	n/a
567.4245	0.09	1134849	keystroke_i	i	n/a
567.458	0.124	1134916	keystroke_n	n	n/a
567.5255	0.124	1135051	keystroke_e	e	n/a
567.6605	0.1015	1135321	keystroke_s	s	n/a
567.773	0.0785	1135546	keystroke_Key.space	Key.space	n/a
567.9195	0.09	1135839	keystroke_a	a	n/a
568.0095	0.034	1136019	keystroke_t	t	n/a
568.1335	0.067	1136267	keystroke_t	t	n/a
568.291	0.101	1136582	keystroke_r	r	n/a
568.3815	0.078	1136763	keystroke_a	a	n/a
568.5495	0.056	1137099	keystroke_c	c	n/a
568.696	0.0785	1137392	keystroke_t	t	n/a
568.7855	0.1355	1137571	keystroke_i	i	n/a
568.831	0.0785	1137662	keystroke_o	o	n/a
568.876	0.1235	1137752	keystroke_n	n	n/a
568.9885	0.045	1137977	keystroke_s	s	n/a
569.157	0.034	1138314	keystroke_Key.enter	Key.enter	n/a
569.195	3.4955	1138390	prompt	n/a	meta many projection setup\n
569.855	0.112	1139710	keystroke_m	m	n/a
569.9005	0.1	1139801	keystroke_e	e	n/a
569.9785	0.146	1139957	keystroke_t	t	n/a
570.0905	0.0675	1140181	keystroke_a	a	n/a
570.192	0.09	1140384	keystroke_Key.space	Key.space	n/a
570.2595	0.101	1140519	keystroke_m	m	n/a
570.3495	0.09	1140699	keystroke_a	a	n/a
570.4505	0.079	1140901	keystroke_n	n	n/a
570.6645	0.0785	1141329	keystroke_y	y	n/a
570.732	0.0785	1141464	keystroke_Key.space	Key.space	n/a
570.822	0.1235	1141644	keystroke_p	p	n/a
570.9575	0.09	1141915	keystroke_r	r	n/a
571.081	0.112	1142162	keystroke_o	o	n/a
571.137	0.1125	1142274	keystroke_j	j	n/a
571.2605	0.09	1142521	keystroke_e	e	n/a
571.4855	0.057	1142971	keystroke_c	c	n/a
571.6205	0.09	1143241	keystroke_t	t	n/a
571.778	0.1125	1143556	keystroke_i	i	n/a
571.7895	0.056	1143579	keystroke_o	o	n/a
571.812	0.1235	1143624	keystroke_n	n	n/a
571.9025	0.09	1143805	keystroke_Key.space	Key.space	n/a
572.06	0.1455	1144120	keystroke_s	s	n/a
572.217	0.1235	1144434	keystroke_e	e	n/a
572.262	0.136	1144524	keystroke_t	t	n/a
572.398	0.0775	1144796	keystroke_u	u	n/a
572.408	0.079	1144816	keystroke_p	p	n/a
572.633	0.0565	1145266	keystroke_Key.enter	Key.enter	n/a
572.6935	8.7835	1145387	prompt	n/a	release philosophy corporations pediatric\n
573.4655	0.124	1146931	keystroke_r	r	n/a
573.5225	0.1005	1147045	keystroke_e	e	n/a
573.668	0.0675	1147336	keystroke_l	l	n/a
573.7695	0.1125	1147539	keystroke_e	e	n/a
573.938	0.102	1147876	keystroke_a	a	n/a
573.995	0.1455	1147990	keystroke_s	s	n/a
574.085	0.09	1148170	keystroke_e	e	n/a
574.2425	0.1005	1148485	keystroke_Key.space	Key.space	n/a
574.4225	0.1005	1148845	keystroke_p	p	n/a
574.4555	0.135	1148911	keystroke_h	h	n/a
574.613	0.1125	1149226	keystroke_i	i	n/a
574.782	0.0785	1149564	keystroke_l	l	n/a
574.9735	0.056	1149947	keystroke_o	o	n/a
575.1195	0.1235	1150239	keystroke_s	s	n/a
575.2545	0.1125	1150509	keystroke_o	o	n/a
575.468	0.124	1150936	keystroke_p	p	n/a
575.558	0.079	1151116	keystroke_h	h	n/a
575.772	0.0675	1151544	keystroke_y	y	n/a
575.9295	0.102	1151859	keystroke_Key.space	Key.space	n/a
576.1325	0.0785	1152265	keystroke_c	c	n/a
576.2445	0.056	1152489	keystroke_o	o	n/a
576.458	0.102	1152916	keystroke_r	r	n/a
576.548	0.102	1153096	keystroke_p	p	n/a
576.6045	0.1235	1153209	keystroke_o	o	n/a
576.818	0.135	1153636	keystroke_r	r	n/a
577.8315	0.123	1155663	keystroke_a	a	n/a
577.8985	0.101	1155797	keystroke_t	t	n/a
578.045	0.1905	1156090	keystroke_i	i	n/a
578.0785	0.079	1156157	keystroke_o	o	n/a
578.146	0.102	1156292	keystroke_n	n	n/a
578.248	0.0775	1156496	keystroke_s	s	n/a
578.3935	0.0895	1156787	keystroke_Key.space	Key.space	n/a
578.7085	0.101	1157417	keystroke_p	p	n/a
578.8205	0.1015	1157641	keystroke_e	e	n/a
579.0345	0.079	1158069	keystroke_d	d	n/a
579.2035	0.0895	1158407	keystroke_i	i	n/a
579.2825	0.067	1158565	keystroke_c	c	n/a
579.383	0.079	1158766	keystroke_a	a	n/a
580.1035	0.045	1160207	keystroke_Key.backspace	Key.backspace	n/a
580.227	0.0785	1160454	keystroke_Key.backspace	Key.backspace	n/a
580.812	0.1125	1161624	keystroke_a	a	n/a
580.902	0.0675	1161804	keystroke_t	t	n/a
581.082	0.0675	1162164	keystroke_r	r	n/a
581.1835	0.09	1162367	keystroke_i	i	n/a
581.2845	0.0565	1162569	keystroke_c	c	n/a
581.3985	0.0775	1162797	keystroke_Key.enter	Key.enter	n/a
581.4795	5.8815	1162959	prompt	n/a	towards fraud clocks graphics\n
582.207	0.091	1164414	keystroke_t	t	n/a
582.3315	0.067	1164663	keystroke_o	o	n/a
582.387	0.09	1164774	keystroke_w	w	n/a
582.567	0.124	1165134	keystroke_a	a	n/a
582.657	0.1015	1165314	keystroke_r	r	n/a
582.747	0.1125	1165494	keystroke_d	d	n/a
582.849	0.1005	1165698	keystroke_s	s	n/a
583.0395	0.09	1166079	keystroke_Key.space	Key.space	n/a
583.3095	0.1015	1166619	keystroke_f	f	n/a
583.546	0.09	1167092	keystroke_r	r	n/a
583.9285	0.1125	1167857	keystroke_a	a	n/a
584.176	0.079	1168352	keystroke_u	u	n/a
584.3	0.0675	1168600	keystroke_d	d	n/a
584.3785	0.1015	1168757	keystroke_Key.space	Key.space	n/a
584.6035	0.0675	1169207	keystroke_c	c	n/a
584.682	0.0565	1169364	keystroke_l	l	n/a
584.84	0.0785	1169680	keystroke_o	o	n/a
585.032	0.078	1170064	keystroke_c	c	n/a
585.1325	0.0785	1170265	keystroke_k	k	n/a
585.267	0.0905	1170534	keystroke_s	s	n/a
585.4135	0.079	1170827	keystroke_Key.space	Key.space	n/a
585.706	0.0675	1171412	keystroke_g	g	n/a
585.9315	0.0895	1171863	keystroke_a	a	n/a
586.37	0.0785	1172740	keystroke_Key.backspace	Key.backspace	n/a
