onset	duration	sample	value	key	prompt_text
9.6845	11.7255	19369	prompt	n/a	the quick brown fox jumps over a lazy dog\n
11.556	0.042	23112	keystroke_t	t	n/a
11.556	0.087	23112	keystroke_h	h	n/a
11.763	0.105	23526	keystroke_e	e	n/a
11.9125	0.105	23825	keystroke_Key.space	Key.space	n/a
12.2135	0.089	24427	keystroke_q	q	n/a
12.3625	0.121	24725	keystroke_u	u	n/a
12.4235	0.089	24847	keystroke_i	i	n/a
12.587	0.0755	25174	keystroke_c	c	n/a
12.678	0.074	25356	keystroke_k	k	n/a
12.782	0.06	25564	keystroke_Key.space	Key.space	n/a
12.933	0.1045	25866	keystroke_b	b	n/a
13.098	0.075	26196	keystroke_r	r	n/a
13.188	0.1035	26376	keystroke_o	o	n/a
13.3225	0.089	26645	keystroke_w	w	n/a
13.4865	0.09	26973	keystroke_n	n	n/a
13.5925	0.0745	27185	keystroke_Key.space	Key.space	n/a
14.1475	0.06	28295	keystroke_f	f	n/a
14.5675	0.0745	29135	keystroke_o	o	n/a
14.7475	0.0445	29495	keystroke_x	x	n/a
14.807	0.09	29614	keystroke_Key.space	Key.space	n/a
15.3625	0.06	30725	keystroke_j	j	n/a
15.5275	0.045	31055	keystroke_u	u	n/a
15.933	0.1195	31866	keystroke_m	m	n/a
16.0375	0.12	32075	keystroke_p	p	n/a
16.203	0.1045	32406	keystroke_s	s	n/a
16.337	0.0905	32674	keystroke_Key.space	Key.space	n/a
17.132	0.075	34264	keystroke_o	o	n/a
17.192	0.0905	34384	keystroke_v	v	n/a
17.4625	0.061	34925	keystroke_e	e	n/a
17.4775	0.09	34955	keystroke_r	r	n/a
17.5825	0.075	35165	keystroke_Key.space	Key.space	n/a
17.7175	0.09	35435	keystroke_a	a	n/a
17.7775	0.09	35555	keystroke_Key.space	Key.space	n/a
18.0025	0.1205	36005	keystroke_l	l	n/a
18.1975	0.12	36395	keystroke_a	a	n/a
18.288	0.09	36576	keystroke_z	z	n/a
18.498	0.06	36996	keystroke_y	y	n/a
18.617	0.09	37234	keystroke_Key.space	Key.space	n/a
19.832	0.0755	39664	keystroke_d	d	n/a
19.922	0.075	39844	keystroke_o	o	n/a
20.102	0.061	40204	keystroke_g	g	n/a
21.332	0.075	42664	keystroke_Key.enter	Key.enter	n/a
21.4185	8.39	42837	prompt	n/a	telescope apple delay perception\n
22.607	0.105	45214	keystroke_t	t	n/a
22.6825	0.0745	45365	keystroke_e	e	n/a
22.9065	0.09	45813	keystroke_l	l	n/a
23.042	0.091	46084	keystroke_e	e	n/a
23.552	0.06	47104	keystroke_s	s	n/a
23.7925	0.059	47585	keystroke_c	c	n/a
23.9865	0.12	47973	keystroke_o	o	n/a
24.0765	0.076	48153	keystroke_p	p	n/a
24.1815	0.1065	48363	keystroke_e	e	n/a
24.362	0.1045	48724	keystroke_Key.space	Key.space	n/a
24.7225	0.104	49445	keystroke_a	a	n/a
24.8715	0.0755	49743	keystroke_p	p	n/a
24.993	0.06	49986	keystroke_p	p	n/a
25.1275	0.09	50255	keystroke_l	l	n/a
25.232	0.0895	50464	keystroke_e	e	n/a
25.3515	0.09	50703	keystroke_Key.space	Key.space	n/a
25.487	0.0745	50974	keystroke_d	d	n/a
25.6825	0.0745	51365	keystroke_e	e	n/a
25.7725	0.0735	51545	keystroke_l	l	n/a
25.861	0.0905	51722	keystroke_a	a	n/a
26.0865	0.0605	52173	keystroke_y	y	n/a
26.1615	0.0905	52323	keystroke_Key.space	Key.space	n/a
26.7925	0.075	53585	keystroke_p	p	n/a
26.9275	0.0895	53855	keystroke_e	e	n/a
26.972	0.105	53944	keystroke_r	r	n/a
27.212	0.1055	54424	keystroke_c	c	n/a
27.2875	0.09	54575	keystroke_e	e	n/a
27.3925	0.0745	54785	keystroke_p	p	n/a
27.512	0.075	55024	keystroke_t	t	n/a
27.662	0.1205	55324	keystroke_i	i	n/a
27.7675	0.165	55535	keystroke_o	o	n/a
27.917	0.1045	55834	keystroke_n	n	n/a
29.7175	0.0895	59435	keystroke_Key.enter	Key.enter	n/a
29.8125	11.4265	59625	prompt	n/a	foundations present refined chronicles\n
31.472	0.0755	62944	keystroke_f	f	n/a
31.5165	0.09	63033	keystroke_o	o	n/a
31.5625	0.0745	63125	keystroke_u	u	n/a
31.7425	0.0905	63485	keystroke_n	n	n/a
31.802	0.09	63604	keystroke_d	d	n/a
31.937	0.09	63874	keystroke_a	a	n/a
32.132	0.0605	64264	keystroke_t	t	n/a
32.2225	0.0745	64445	keystroke_i	i	n/a
32.267	0.12	64534	keystroke_o	o	n/a
32.477	0.0895	64954	keystroke_n	n	n/a
32.5825	0.089	65165	keystroke_s	s	n/a
32.687	0.1045	65374	keystroke_Key.space	Key.space	n/a
33.317	0.089	66634	keystroke_p	p	n/a
33.4225	0.0745	66845	keystroke_r	r	n/a
33.452	0.09	66904	keystroke_e	e	n/a
33.647	0.06	67294	keystroke_s	s	n/a
33.7975	0.0895	67595	keystroke_e	e	n/a
33.917	0.0895	67834	keystroke_n	n	n/a
34.0215	0.0755	68043	keystroke_t	t	n/a
34.1115	0.09	68223	keystroke_Key.space	Key.space	n/a
36.438	0.044	72876	keystroke_r	r	n/a
36.439	0.103	72878	keystroke_e	e	n/a
36.587	0.12	73174	keystroke_f	f	n/a
36.752	0.135	73504	keystroke_i	i	n/a
36.827	0.135	73654	keystroke_n	n	n/a
37.0075	0.0905	74015	keystroke_e	e	n/a
37.1725	0.09	74345	keystroke_d	d	n/a
37.2765	0.0905	74553	keystroke_Key.space	Key.space	n/a
37.5175	0.09	75035	keystroke_c	c	n/a
37.6225	0.105	75245	keystroke_h	h	n/a
37.7575	0.0745	75515	keystroke_r	r	n/a
38.147	0.135	76294	keystroke_o	o	n/a
38.237	0.1195	76474	keystroke_n	n	n/a
39.497	0.0745	78994	keystroke_i	i	n/a
39.722	0.09	79444	keystroke_c	c	n/a
39.9615	0.1205	79923	keystroke_l	l	n/a
40.097	0.0905	80194	keystroke_e	e	n/a
40.292	0.09	80584	keystroke_s	s	n/a
41.1915	0.045	82383	keystroke_Key.enter	Key.enter	n/a
41.252	7.276	82504	prompt	n/a	factors lands ship qatar\n
42.452	0.075	84904	keystroke_f	f	n/a
42.497	0.1355	84994	keystroke_a	a	n/a
42.6325	0.059	85265	keystroke_c	c	n/a
42.8115	0.045	85623	keystroke_t	t	n/a
42.9165	0.075	85833	keystroke_o	o	n/a
43.201	0.136	86402	keystroke_r	r	n/a
43.337	0.1205	86674	keystroke_s	s	n/a
43.487	0.104	86974	keystroke_Key.space	Key.space	n/a
43.997	0.105	87994	keystroke_l	l	n/a
44.087	0.0905	88174	keystroke_a	a	n/a
44.237	0.09	88474	keystroke_n	n	n/a
44.312	0.12	88624	keystroke_d	d	n/a
44.402	0.09	88804	keystroke_s	s	n/a
44.462	0.075	88924	keystroke_Key.space	Key.space	n/a
44.6265	0.0755	89253	keystroke_s	s	n/a
44.732	0.165	89464	keystroke_h	h	n/a
44.837	0.09	89674	keystroke_i	i	n/a
45.062	0.09	90124	keystroke_p	p	n/a
45.2865	0.075	90573	keystroke_Key.space	Key.space	n/a
45.946	0.0755	91892	keystroke_q	q	n/a
46.246	0.091	92492	keystroke_a	a	n/a
46.5315	0.06	93063	keystroke_t	t	n/a
46.6675	0.165	93335	keystroke_a	a	n/a
46.8165	0.076	93633	keystroke_r	r	n/a
48.4515	0.0745	96903	keystroke_Key.enter	Key.enter	n/a
48.539	14.3895	97078	prompt	n/a	combinations configured discounts katrina\n
50.071	0.076	100142	keystroke_c	c	n/a
50.132	0.12	100264	keystroke_o	o	n/a
50.222	0.09	100444	keystroke_m	m	n/a
51.032	0.0745	102064	keystroke_b	b	n/a
51.1365	0.0905	102273	keystroke_i	i	n/a
51.1665	0.121	102333	keystroke_n	n	n/a
53.6885	0.0285	107377	keystroke_a	a	n/a
53.792	0.06	107584	keystroke_t	t	n/a
53.867	0.105	107734	keystroke_i	i	n/a
53.927	0.09	107854	keystroke_o	o	n/a
54.136	0.106	108272	keystroke_n	n	n/a
54.226	0.091	108452	keystroke_s	s	n/a
54.347	0.09	108694	keystroke_Key.space	Key.space	n/a
54.632	0.105	109264	keystroke_c	c	n/a
54.706	0.1065	109412	keystroke_o	o	n/a
54.767	0.1055	109534	keystroke_n	n	n/a
54.8575	0.074	109715	keystroke_f	f	n/a
54.947	0.0745	109894	keystroke_i	i	n/a
55.097	0.075	110194	keystroke_g	g	n/a
55.3215	0.09	110643	keystroke_u	u	n/a
55.4425	0.1495	110885	keystroke_r	r	n/a
55.5465	0.105	111093	keystroke_e	e	n/a
55.7415	0.12	111483	keystroke_d	d	n/a
55.8465	0.105	111693	keystroke_Key.space	Key.space	n/a
56.4915	0.075	112983	keystroke_d	d	n/a
56.5525	0.0895	113105	keystroke_i	i	n/a
56.6565	0.075	113313	keystroke_s	s	n/a
56.8215	0.06	113643	keystroke_c	c	n/a
56.8965	0.0905	113793	keystroke_o	o	n/a
56.9565	0.06	113913	keystroke_u	u	n/a
57.1365	0.105	114273	keystroke_n	n	n/a
57.2265	0.075	114453	keystroke_t	t	n/a
57.317	0.075	114634	keystroke_s	s	n/a
57.437	0.1045	114874	keystroke_Key.space	Key.space	n/a
58.262	0.0455	116524	keystroke_k	k	n/a
58.2775	0.089	116555	keystroke_a	a	n/a
58.4865	0.121	116973	keystroke_t	t	n/a
58.5615	0.075	117123	keystroke_r	r	n/a
58.742	0.0745	117484	keystroke_i	i	n/a
58.757	0.0445	117514	keystroke_u	u	n/a
58.7865	0.121	117573	keystroke_n	n	n/a
59.042	0.105	118084	keystroke_a	a	n/a
60.182	0.0745	120364	keystroke_Key.backspace	Key.backspace	n/a
60.3915	0.0755	120783	keystroke_Key.backspace	Key.backspace	n/a
60.572	0.0745	121144	keystroke_Key.backspace	Key.backspace	n/a
61.682	0.029	123364	keystroke_n	n	n/a
61.8315	0.09	123663	keystroke_a	a	n/a
62.8515	0.075	125703	keystroke_Key.enter	Key.enter	n/a
62.9335	12.9405	125867	prompt	n/a	believed suitable boulevard prepare\n
63.8565	0.0755	127713	keystroke_b	b	n/a
63.9925	0.105	127985	keystroke_e	e	n/a
64.1425	0.045	128285	keystroke_k	k	n/a
64.937	0.06	129874	keystroke_=	=	n/a
65.8065	0.03	131613	keystroke_Key.backspace	Key.backspace	n/a
65.897	0.0745	131794	keystroke_Key.backspace	Key.backspace	n/a
66.722	0.075	133444	keystroke_l	l	n/a
66.917	0.0595	133834	keystroke_i	i	n/a
67.052	0.09	134104	keystroke_e	e	n/a
67.112	0.1805	134224	keystroke_v	v	n/a
67.2615	0.09	134523	keystroke_e	e	n/a
67.442	0.089	134884	keystroke_d	d	n/a
67.562	0.0745	135124	keystroke_Key.space	Key.space	n/a
68.2965	0.105	136593	keystroke_s	s	n/a
68.446	0.136	136892	keystroke_u	u	n/a
68.567	0.089	137134	keystroke_i	i	n/a
68.672	0.105	137344	keystroke_t	t	n/a
69.5575	0.104	139115	keystroke_a	a	n/a
69.767	0.075	139534	keystroke_b	b	n/a
69.9325	0.0745	139865	keystroke_l	l	n/a
70.007	0.09	140014	keystroke_e	e	n/a
70.1565	0.075	140313	keystroke_Key.space	Key.space	n/a
70.7415	0.06	141483	keystroke_b	b	n/a
70.8615	0.1205	141723	keystroke_o	o	n/a
70.9365	0.09	141873	keystroke_u	u	n/a
71.0865	0.1055	142173	keystroke_l	l	n/a
71.2675	0.1045	142535	keystroke_e	e	n/a
71.4925	0.0745	142985	keystroke_v	v	n/a
71.657	0.0905	143314	keystroke_a	a	n/a
71.9415	0.09	143883	keystroke_r	r	n/a
72.167	0.0745	144334	keystroke_d	d	n/a
72.2865	0.09	144573	keystroke_Key.space	Key.space	n/a
74.131	0.105	148262	keystroke_p	p	n/a
74.387	0.105	148774	keystroke_r	r	n/a
74.4465	0.0905	148893	keystroke_e	e	n/a
74.521	0.09	149042	keystroke_p	p	n/a
74.656	0.0755	149312	keystroke_a	a	n/a
74.777	0.149	149554	keystroke_r	r	n/a
74.866	0.105	149732	keystroke_e	e	n/a
75.8115	0.06	151623	keystroke_Key.enter	Key.enter	n/a
75.879	18.7595	151758	prompt	n/a	churches powerful property glad\n
76.7565	0.09	153513	keystroke_c	c	n/a
76.9065	0.091	153813	keystroke_h	h	n/a
77.0125	0.09	154025	keystroke_u	u	n/a
77.1175	0.075	154235	keystroke_r	r	n/a
77.2365	0.075	154473	keystroke_h	h	n/a
77.5225	0.074	155045	keystroke_e	e	n/a
77.7165	0.1055	155433	keystroke_s	s	n/a
77.7765	0.09	155553	keystroke_Key.space	Key.space	n/a
78.1225	0.134	156245	keystroke_p	p	n/a
78.1825	0.119	156365	keystroke_o	o	n/a
78.2865	0.0905	156573	keystroke_w	w	n/a
78.511	0.0905	157022	keystroke_e	e	n/a
78.5715	0.0755	157143	keystroke_r	r	n/a
78.737	0.075	157474	keystroke_f	f	n/a
78.827	0.089	157654	keystroke_u	u	n/a
79.007	0.089	158014	keystroke_l	l	n/a
79.127	0.105	158254	keystroke_Key.space	Key.space	n/a
80.1315	0.075	160263	keystroke_p	p	n/a
80.2515	0.0745	160503	keystroke_r	r	n/a
80.372	0.075	160744	keystroke_o	o	n/a
80.522	0.105	161044	keystroke_p	p	n/a
80.7625	0.105	161525	keystroke_r	r	n/a
82.862	0.045	165724	keystroke_Key.backspace	Key.backspace	n/a
83.057	0.06	166114	keystroke_Key.backspace	Key.backspace	n/a
83.2815	0.075	166563	keystroke_Key.backspace	Key.backspace	n/a
83.552	0.0605	167104	keystroke_Key.backspace	Key.backspace	n/a
83.7915	0.045	167583	keystroke_Key.backspace	Key.backspace	n/a
84.0165	0.075	168033	keystroke_Key.backspace	Key.backspace	n/a
84.2565	0.0605	168513	keystroke_Key.backspace	Key.backspace	n/a
84.4815	0.06	168963	keystroke_Key.backspace	Key.backspace	n/a
84.7065	0.06	169413	keystroke_Key.backspace	Key.backspace	n/a
84.931	0.06	169862	keystroke_Key.backspace	Key.backspace	n/a
85.142	0.06	170284	keystroke_Key.backspace	Key.backspace	n/a
85.321	0.061	170642	keystroke_Key.backspace	Key.backspace	n/a
85.531	0.06	171062	keystroke_Key.backspace	Key.backspace	n/a
85.727	0.075	171454	keystroke_Key.backspace	Key.backspace	n/a
85.936	0.06	171872	keystroke_Key.backspace	Key.backspace	n/a
86.1465	0.06	172293	keystroke_Key.backspace	Key.backspace	n/a
86.342	0.0595	172684	keystroke_Key.backspace	Key.backspace	n/a
86.4915	0.0605	172983	keystroke_Key.backspace	Key.backspace	n/a
87.3015	0.09	174603	keystroke_c	c	n/a
87.437	0.075	174874	keystroke_h	h	n/a
87.572	0.165	175144	keystroke_e	e	n/a
87.752	0.03	175504	keystroke_s	s	n/a
87.827	0.09	175654	keystroke_Key.space	Key.space	n/a
88.742	0.105	177484	keystroke_p	p	n/a
88.802	0.0895	177604	keystroke_o	o	n/a
88.9065	0.135	177813	keystroke_w	w	n/a
88.9815	0.12	177963	keystroke_e	e	n/a
89.237	0.075	178474	keystroke_r	r	n/a
89.417	0.0755	178834	keystroke_f	f	n/a
89.5975	0.1195	179195	keystroke_u	u	n/a
90.1675	0.0595	180335	keystroke_l	l	n/a
90.6015	0.135	181203	keystroke_Key.space	Key.space	n/a
91.0065	0.105	182013	keystroke_p	p	n/a
91.217	0.0905	182434	keystroke_r	r	n/a
91.3365	0.12	182673	keystroke_o	o	n/a
91.4415	0.12	182883	keystroke_p	p	n/a
91.6365	0.106	183273	keystroke_e	e	n/a
91.697	0.09	183394	keystroke_r	r	n/a
91.8915	0.0905	183783	keystroke_t	t	n/a
92.102	0.075	184204	keystroke_y	y	n/a
92.2515	0.0905	184503	keystroke_Key.space	Key.space	n/a
93.1075	0.074	186215	keystroke_g	g	n/a
93.242	0.0755	186484	keystroke_l	l	n/a
93.452	0.1345	186904	keystroke_a	a	n/a
93.542	0.1205	187084	keystroke_d	d	n/a
94.562	0.0745	189124	keystroke_Key.enter	Key.enter	n/a
94.645	15.73	189290	prompt	n/a	assumes medline relevant catalyst\n
95.492	0.1195	190984	keystroke_a	a	n/a
95.5365	0.09	191073	keystroke_s	s	n/a
95.6865	0.105	191373	keystroke_s	s	n/a
95.8065	0.075	191613	keystroke_u	u	n/a
96.047	0.075	192094	keystroke_m	m	n/a
96.077	0.09	192154	keystroke_e	e	n/a
96.242	0.105	192484	keystroke_s	s	n/a
96.377	0.075	192754	keystroke_Key.space	Key.space	n/a
96.782	0.0895	193564	keystroke_m	m	n/a
96.8415	0.075	193683	keystroke_e	e	n/a
97.0365	0.075	194073	keystroke_d	d	n/a
97.217	0.06	194434	keystroke_i	i	n/a
99.425	0.001	198850	keystroke_Key.backspace	Key.backspace	n/a
99.872	0.06	199744	keystroke_l	l	n/a
100.3815	0.1055	200763	keystroke_i	i	n/a
100.457	0.045	200914	keystroke_n	n	n/a
100.517	0.1045	201034	keystroke_e	e	n/a
100.6965	0.121	201393	keystroke_Key.space	Key.space	n/a
105.29	0.058	210580	keystroke_r	r	n/a
105.29	0.118	210580	keystroke_e	e	n/a
105.678	0.09	211356	keystroke_l	l	n/a
105.858	0.105	211716	keystroke_e	e	n/a
106.0235	0.1045	212047	keystroke_v	v	n/a
106.217	0.106	212434	keystroke_a	a	n/a
106.428	0.105	212856	keystroke_n	n	n/a
106.563	0.075	213126	keystroke_t	t	n/a
106.6675	0.0905	213335	keystroke_Key.space	Key.space	n/a
107.163	0.1345	214326	keystroke_c	c	n/a
107.238	0.106	214476	keystroke_a	a	n/a
107.4475	0.0905	214895	keystroke_t	t	n/a
107.6135	0.105	215227	keystroke_a	a	n/a
108.3785	0.0745	216757	keystroke_l	l	n/a
109.2035	0.045	218407	keystroke_y	y	n/a
109.308	0.0905	218616	keystroke_s	s	n/a
109.4285	0.0755	218857	keystroke_t	t	n/a
110.2985	0.075	220597	keystroke_Key.enter	Key.enter	n/a
110.379	8.6075	220758	prompt	n/a	sherman titles leadership ghost\n
111.3795	0.104	222759	keystroke_s	s	n/a
111.5145	0.075	223029	keystroke_h	h	n/a
111.6485	0.1355	223297	keystroke_e	e	n/a
111.7085	0.1205	223417	keystroke_r	r	n/a
112.264	0.0605	224528	keystroke_m	m	n/a
112.3535	0.09	224707	keystroke_a	a	n/a
112.4595	0.074	224919	keystroke_n	n	n/a
112.549	0.1195	225098	keystroke_Key.space	Key.space	n/a
112.999	0.0895	225998	keystroke_t	t	n/a
113.1055	0.0885	226211	keystroke_i	i	n/a
113.164	0.09	226328	keystroke_t	t	n/a
114.484	0.075	228968	keystroke_l	l	n/a
114.739	0.15	229478	keystroke_e	e	n/a
114.8445	0.135	229689	keystroke_s	s	n/a
114.9935	0.09	229987	keystroke_Key.space	Key.space	n/a
115.1895	0.104	230379	keystroke_l	l	n/a
115.2795	0.1045	230559	keystroke_e	e	n/a
115.37	0.149	230740	keystroke_a	a	n/a
115.459	0.105	230918	keystroke_d	d	n/a
115.669	0.0905	231338	keystroke_e	e	n/a
115.7295	0.104	231459	keystroke_r	r	n/a
115.8635	0.091	231727	keystroke_s	s	n/a
115.9995	0.12	231999	keystroke_h	h	n/a
116.0895	0.0905	232179	keystroke_i	i	n/a
116.2995	0.09	232599	keystroke_p	p	n/a
116.4345	0.09	232869	keystroke_Key.space	Key.space	n/a
116.9895	0.09	233979	keystroke_g	g	n/a
117.1245	0.09	234249	keystroke_h	h	n/a
117.2745	0.106	234549	keystroke_o	o	n/a
117.3955	0.1045	234791	keystroke_s	s	n/a
117.4855	0.0745	234971	keystroke_t	t	n/a
117.665	0.12	235330	keystroke_'	'	n/a
118.61	0.06	237220	keystroke_Key.backspace	Key.backspace	n/a
118.895	0.09	237790	keystroke_Key.enter	Key.enter	n/a
118.991	9.1315	237982	prompt	n/a	unions couples fossil normal\n
119.96	0.135	239920	keystroke_u	u	n/a
120.0505	0.1055	240101	keystroke_n	n	n/a
120.29	0.09	240580	keystroke_u	u	n/a
120.395	0.06	240790	keystroke_o	o	n/a
121.37	0.075	242740	keystroke_Key.backspace	Key.backspace	n/a
121.8505	0.06	243701	keystroke_Key.backspace	Key.backspace	n/a
122.676	0.0895	245352	keystroke_i	i	n/a
122.721	0.0745	245442	keystroke_o	o	n/a
122.9305	0.0755	245861	keystroke_n	n	n/a
123.021	0.104	246042	keystroke_s	s	n/a
123.14	0.091	246280	keystroke_Key.space	Key.space	n/a
124.071	0.075	248142	keystroke_c	c	n/a
124.176	0.105	248352	keystroke_o	o	n/a
124.236	0.09	248472	keystroke_u	u	n/a
124.446	0.12	248892	keystroke_p	p	n/a
124.506	0.0905	249012	keystroke_l	l	n/a
124.581	0.135	249162	keystroke_e	e	n/a
124.671	0.105	249342	keystroke_s	s	n/a
124.82	0.091	249640	keystroke_Key.space	Key.space	n/a
125.271	0.09	250542	keystroke_f	f	n/a
125.376	0.075	250752	keystroke_o	o	n/a
125.616	0.0755	251232	keystroke_s	s	n/a
125.7515	0.0895	251503	keystroke_s	s	n/a
125.826	0.091	251652	keystroke_i	i	n/a
126.036	0.09	252072	keystroke_l	l	n/a
126.111	0.09	252222	keystroke_Key.space	Key.space	n/a
126.666	0.12	253332	keystroke_n	n	n/a
126.726	0.105	253452	keystroke_o	o	n/a
126.801	0.06	253602	keystroke_r	r	n/a
126.9215	0.0895	253843	keystroke_m	m	n/a
126.9965	0.09	253993	keystroke_a	a	n/a
127.1455	0.0765	254291	keystroke_l	l	n/a
127.3115	0.06	254623	keystroke_Key.space	Key.space	n/a
128.061	0.06	256122	keystroke_Key.enter	Key.enter	n/a
128.127	8.983	256254	prompt	n/a	casting doug appointments thorough\n
129.1415	0.15	258283	keystroke_c	c	n/a
129.2615	0.09	258523	keystroke_a	a	n/a
129.4115	0.106	258823	keystroke_s	s	n/a
129.6365	0.075	259273	keystroke_t	t	n/a
129.7565	0.1205	259513	keystroke_i	i	n/a
129.832	0.09	259664	keystroke_n	n	n/a
129.907	0.09	259814	keystroke_g	g	n/a
130.012	0.074	260024	keystroke_Key.space	Key.space	n/a
130.731	0.09	261462	keystroke_d	d	n/a
130.8675	0.1495	261735	keystroke_o	o	n/a
130.9575	0.09	261915	keystroke_u	u	n/a
131.0625	0.09	262125	keystroke_g	g	n/a
131.362	0.09	262724	keystroke_Key.space	Key.space	n/a
131.7665	0.1055	263533	keystroke_a	a	n/a
132.757	0.06	265514	keystroke_p	p	n/a
132.878	0.0595	265756	keystroke_p	p	n/a
133.1025	0.0905	266205	keystroke_o	o	n/a
133.2975	0.075	266595	keystroke_i	i	n/a
133.5225	0.075	267045	keystroke_n	n	n/a
133.5825	0.075	267165	keystroke_t	t	n/a
133.733	0.0745	267466	keystroke_m	m	n/a
133.8225	0.09	267645	keystroke_e	e	n/a
133.943	0.0745	267886	keystroke_n	n	n/a
134.003	0.0735	268006	keystroke_t	t	n/a
134.182	0.075	268364	keystroke_s	s	n/a
134.2875	0.0745	268575	keystroke_Key.space	Key.space	n/a
134.768	0.135	269536	keystroke_t	t	n/a
134.872	0.12	269744	keystroke_h	h	n/a
135.1725	0.09	270345	keystroke_o	o	n/a
135.2925	0.105	270585	keystroke_r	r	n/a
135.458	0.1055	270916	keystroke_o	o	n/a
135.8625	0.075	271725	keystroke_u	u	n/a
135.9675	0.075	271935	keystroke_g	g	n/a
136.0725	0.091	272145	keystroke_h	h	n/a
136.2525	0.06	272505	keystroke_Key.space	Key.space	n/a
137.063	0.045	274126	keystroke_Key.enter	Key.enter	n/a
137.117	18.4585	274234	prompt	n/a	committees rear housewares investigations\n
138.4135	0.075	276827	keystroke_c	c	n/a
138.5185	0.136	277037	keystroke_o	o	n/a
138.6085	0.09	277217	keystroke_m	m	n/a
138.7735	0.075	277547	keystroke_m	m	n/a
138.9685	0.075	277937	keystroke_i	i	n/a
139.0885	0.09	278177	keystroke_t	t	n/a
139.2545	0.104	278509	keystroke_t	t	n/a
139.4335	0.105	278867	keystroke_e	e	n/a
139.6735	0.075	279347	keystroke_s	s	n/a
139.824	0.09	279648	keystroke_s	s	n/a
140.123	0.0755	280246	keystroke_Key.space	Key.space	n/a
140.8435	0.06	281687	keystroke_=	=	n/a
141.0685	0.0755	282137	keystroke_=	=	n/a
141.803	0.045	283606	keystroke_Key.backspace	Key.backspace	n/a
141.954	0.045	283908	keystroke_Key.backspace	Key.backspace	n/a
142.074	0.0745	284148	keystroke_Key.backspace	Key.backspace	n/a
142.1935	0.075	284387	keystroke_Key.backspace	Key.backspace	n/a
142.6135	0.045	285227	keystroke_Key.backspace	Key.backspace	n/a
143.3485	0.075	286697	keystroke_e	e	n/a
143.83	0.074	287660	keystroke_s	s	n/a
143.934	0.09	287868	keystroke_Key.space	Key.space	n/a
145.059	0.1345	290118	keystroke_r	r	n/a
145.1345	0.1355	290269	keystroke_e	e	n/a
145.3445	0.165	290689	keystroke_a	a	n/a
145.464	0.1045	290928	keystroke_r	r	n/a
145.629	0.0895	291258	keystroke_Key.space	Key.space	n/a
146.2445	0.075	292489	keystroke_b	b	n/a
146.8885	0.12	293777	keystroke_=	=	n/a
147.9545	0.0895	295909	keystroke_Key.backspace	Key.backspace	n/a
148.1035	0.09	296207	keystroke_Key.backspace	Key.backspace	n/a
148.869	0.0745	297738	keystroke_h	h	n/a
149.0795	0.135	298159	keystroke_o	o	n/a
149.1695	0.075	298339	keystroke_u	u	n/a
149.2595	0.1195	298519	keystroke_s	s	n/a
149.3345	0.12	298669	keystroke_e	e	n/a
149.6795	0.104	299359	keystroke_w	w	n/a
149.874	0.1205	299748	keystroke_a	a	n/a
150.0545	0.15	300109	keystroke_r	r	n/a
150.144	0.12	300288	keystroke_e	e	n/a
150.324	0.075	300648	keystroke_Key.space	Key.space	n/a
151.3885	0.0605	302777	keystroke_Key.backspace	Key.backspace	n/a
151.509	0.1055	303018	keystroke_s	s	n/a
151.914	0.09	303828	keystroke_Key.space	Key.space	n/a
152.874	0.12	305748	keystroke_i	i	n/a
152.934	0.1055	305868	keystroke_n	n	n/a
153.024	0.12	306048	keystroke_v	v	n/a
153.084	0.075	306168	keystroke_e	e	n/a
153.354	0.015	306708	keystroke_s	s	n/a
153.459	0.045	306918	keystroke_t	t	n/a
153.519	0.09	307038	keystroke_i	i	n/a
153.624	0.09	307248	keystroke_a	a	n/a
153.715	0.089	307430	keystroke_g	g	n/a
153.924	0.046	307848	keystroke_t	t	n/a
153.984	0.09	307968	keystroke_i	i	n/a
154.029	0.1055	308058	keystroke_o	o	n/a
154.178	0.106	308356	keystroke_n	n	n/a
154.269	0.12	308538	keystroke_s	s	n/a
155.484	0.089	310968	keystroke_Key.enter	Key.enter	n/a
155.5795	11.141	311159	prompt	n/a	bill feed medicaid photograph\n
156.6085	0.09	313217	keystroke_b	b	n/a
157.0735	0.06	314147	keystroke_i	i	n/a
157.2695	0.044	314539	keystroke_l	l	n/a
157.3735	0.075	314747	keystroke_l	l	n/a
157.659	0.0905	315318	keystroke_f	f	n/a
158.424	0.09	316848	keystroke_=	=	n/a
158.679	0.12	317358	keystroke_Key.backspace	Key.backspace	n/a
158.859	0.075	317718	keystroke_Key.backspace	Key.backspace	n/a
159.009	0.105	318018	keystroke_Key.space	Key.space	n/a
159.624	0.105	319248	keystroke_f	f	n/a
159.7595	0.105	319519	keystroke_e	e	n/a
159.939	0.09	319878	keystroke_e	e	n/a
160.1045	0.0895	320209	keystroke_d	d	n/a
160.2235	0.0905	320447	keystroke_Key.space	Key.space	n/a
160.719	0.075	321438	keystroke_m	m	n/a
160.779	0.0905	321558	keystroke_e	e	n/a
160.899	0.105	321798	keystroke_d	d	n/a
161.109	0.075	322218	keystroke_i	i	n/a
161.244	0.121	322488	keystroke_c	c	n/a
161.319	0.105	322638	keystroke_a	a	n/a
161.454	0.09	322908	keystroke_i	i	n/a
161.589	0.105	323178	keystroke_d	d	n/a
161.709	0.12	323418	keystroke_Key.space	Key.space	n/a
164.306	0.013	328612	keystroke_p	p	n/a
164.3345	0.0595	328669	keystroke_h	h	n/a
164.439	0.075	328878	keystroke_o	o	n/a
164.5435	0.0905	329087	keystroke_t	t	n/a
164.649	0.0745	329298	keystroke_o	o	n/a
165.0085	0.1205	330017	keystroke_g	g	n/a
165.083	0.091	330166	keystroke_r	r	n/a
165.2795	0.12	330559	keystroke_a	a	n/a
165.3835	0.0755	330767	keystroke_p	p	n/a
165.6095	0.074	331219	keystroke_h	h	n/a
165.699	0.09	331398	keystroke_s	s	n/a
166.644	0.075	333288	keystroke_Key.enter	Key.enter	n/a
166.724	6.855	333448	prompt	n/a	acrylic solar arranged african\n
167.589	0.12	335178	keystroke_a	a	n/a
167.6485	0.1055	335297	keystroke_c	c	n/a
167.859	0.075	335718	keystroke_r	r	n/a
168.0385	0.075	336077	keystroke_y	y	n/a
168.294	0.1195	336588	keystroke_l	l	n/a
168.549	0.0745	337098	keystroke_i	i	n/a
168.6835	0.075	337367	keystroke_c	c	n/a
168.8485	0.06	337697	keystroke_Key.space	Key.space	n/a
169.479	0.119	338958	keystroke_s	s	n/a
169.6595	0.0895	339319	keystroke_o	o	n/a
169.854	0.0895	339708	keystroke_l	l	n/a
169.9885	0.106	339977	keystroke_a	a	n/a
170.2435	0.09	340487	keystroke_r	r	n/a
170.4235	0.0755	340847	keystroke_Key.space	Key.space	n/a
170.6185	0.09	341237	keystroke_a	a	n/a
170.7685	0.06	341537	keystroke_r	r	n/a
170.904	0.0895	341808	keystroke_r	r	n/a
171.009	0.0895	342018	keystroke_a	a	n/a
171.1135	0.0905	342227	keystroke_n	n	n/a
171.1885	0.105	342377	keystroke_g	g	n/a
171.2785	0.09	342557	keystroke_e	e	n/a
171.4435	0.09	342887	keystroke_d	d	n/a
171.5485	0.0755	343097	keystroke_Key.space	Key.space	n/a
171.9835	0.105	343967	keystroke_a	a	n/a
172.2235	0.0605	344447	keystroke_f	f	n/a
172.4035	0.0305	344807	keystroke_r	r	n/a
172.5085	0.105	345017	keystroke_i	i	n/a
172.5985	0.091	345197	keystroke_c	c	n/a
172.659	0.0895	345318	keystroke_a	a	n/a
172.7195	0.074	345439	keystroke_n	n	n/a
173.468	0.106	346936	keystroke_Key.enter	Key.enter	n/a
173.5985	5.3915	347197	prompt	n/a	card existed node farm\n
174.594	0.1345	349188	keystroke_c	c	n/a
174.669	0.105	349338	keystroke_a	a	n/a
174.864	0.06	349728	keystroke_r	r	n/a
175.014	0.09	350028	keystroke_d	d	n/a
175.088	0.091	350176	keystroke_Key.space	Key.space	n/a
175.224	0.06	350448	keystroke_e	e	n/a
175.389	0.105	350778	keystroke_x	x	n/a
175.538	0.091	351076	keystroke_i	i	n/a
175.644	0.105	351288	keystroke_s	s	n/a
175.8385	0.075	351677	keystroke_t	t	n/a
175.9735	0.075	351947	keystroke_e	e	n/a
176.289	0.105	352578	keystroke_d	d	n/a
176.4085	0.0895	352817	keystroke_Key.space	Key.space	n/a
176.6485	0.135	353297	keystroke_n	n	n/a
176.754	0.105	353508	keystroke_o	o	n/a
176.889	0.089	353778	keystroke_d	d	n/a
177.084	0.06	354168	keystroke_e	e	n/a
177.159	0.09	354318	keystroke_Key.space	Key.space	n/a
177.279	0.06	354558	keystroke_f	f	n/a
177.399	0.074	354798	keystroke_a	a	n/a
177.5785	0.06	355157	keystroke_m	m	n/a
177.969	0.0745	355938	keystroke_Key.backspace	Key.backspace	n/a
178.1035	0.105	356207	keystroke_r	r	n/a
178.2535	0.1045	356507	keystroke_m	m	n/a
178.8835	0.1045	357767	keystroke_Key.enter	Key.enter	n/a
178.9945	13.9	357989	prompt	n/a	passengers flyer apartment its\n
179.8445	0.089	359689	keystroke_a	a	n/a
181.298	0.0745	362596	keystroke_Key.backspace	Key.backspace	n/a
181.7035	0.0595	363407	keystroke_p	p	n/a
181.7935	0.1345	363587	keystroke_a	a	n/a
181.868	0.0905	363736	keystroke_s	s	n/a
182.033	0.0915	364066	keystroke_s	s	n/a
182.228	0.09	364456	keystroke_e	e	n/a
182.333	0.09	364666	keystroke_n	n	n/a
182.454	0.075	364908	keystroke_g	g	n/a
182.693	0.075	365386	keystroke_a	a	n/a
182.934	0.1045	365868	keystroke_e	e	n/a
182.993	0.1055	365986	keystroke_r	r	n/a
184.328	0.045	368656	keystroke_Key.backspace	Key.backspace	n/a
184.463	0.0755	368926	keystroke_Key.backspace	Key.backspace	n/a
185.0185	0.074	370037	keystroke_Key.backspace	Key.backspace	n/a
185.139	0.1185	370278	keystroke_e	e	n/a
185.2125	0.0755	370425	keystroke_r	r	n/a
185.3935	0.105	370787	keystroke_s	s	n/a
185.6335	0.089	371267	keystroke_Key.space	Key.space	n/a
186.428	0.06	372856	keystroke_f	f	n/a
186.6835	0.075	373367	keystroke_y	y	n/a
186.908	0.09	373816	keystroke_l	l	n/a
188.288	0.06	376576	keystroke_Key.backspace	Key.backspace	n/a
188.378	0.0895	376756	keystroke_Key.backspace	Key.backspace	n/a
189.1135	0.06	378227	keystroke_l	l	n/a
189.5785	0.075	379157	keystroke_y	y	n/a
189.7735	0.119	379547	keystroke_e	e	n/a
189.848	0.0755	379696	keystroke_r	r	n/a
190.0875	0.075	380175	keystroke_Key.space	Key.space	n/a
190.5375	0.076	381075	keystroke_a	a	n/a
190.6585	0.075	381317	keystroke_p	p	n/a
190.7185	0.075	381437	keystroke_a	a	n/a
190.9585	0.104	381917	keystroke_r	r	n/a
191.0185	0.1045	382037	keystroke_t	t	n/a
191.2135	0.105	382427	keystroke_m	m	n/a
191.333	0.1205	382666	keystroke_e	e	n/a
191.4685	0.09	382937	keystroke_n	n	n/a
191.5135	0.09	383027	keystroke_t	t	n/a
192.1125	0.105	384225	keystroke_Key.space	Key.space	n/a
192.4575	0.0905	384915	keystroke_i	i	n/a
192.5485	0.104	385097	keystroke_t	t	n/a
192.6375	0.0915	385275	keystroke_s	s	n/a
192.7875	0.105	385575	keystroke_Key.enter	Key.enter	n/a
192.8985	11.8905	385797	prompt	n/a	caps democrats pass quebec\n
193.673	0.18	387346	keystroke_c	c	n/a
193.7785	0.119	387557	keystroke_a	a	n/a
193.9125	0.06	387825	keystroke_o	o	n/a
194.0935	0.119	388187	keystroke_s	s	n/a
194.2875	0.1055	388575	keystroke_Key.space	Key.space	n/a
195.592	0.061	391184	keystroke_Key.backspace	Key.backspace	n/a
195.758	0.06	391516	keystroke_Key.backspace	Key.backspace	n/a
195.863	0.075	391726	keystroke_Key.backspace	Key.backspace	n/a
196.913	0.06	393826	keystroke_p	p	n/a
197.033	0.09	394066	keystroke_s	s	n/a
197.213	0.09	394426	keystroke_Key.space	Key.space	n/a
197.363	0.0895	394726	keystroke_d	d	n/a
197.573	0.0595	395146	keystroke_e	e	n/a
198.608	0.1205	397216	keystroke_m	m	n/a
198.682	0.091	397364	keystroke_o	o	n/a
198.983	0.075	397966	keystroke_c	c	n/a
199.178	0.0895	398356	keystroke_r	r	n/a
199.2985	0.1045	398597	keystroke_a	a	n/a
199.4485	0.0595	398897	keystroke_t	t	n/a
199.8375	0.105	399675	keystroke_s	s	n/a
200.0025	0.09	400005	keystroke_Key.space	Key.space	n/a
200.8585	0.0745	401717	keystroke_p	p	n/a
200.8885	0.1345	401777	keystroke_a	a	n/a
200.9635	0.09	401927	keystroke_s	s	n/a
201.113	0.12	402226	keystroke_s	s	n/a
201.248	0.06	402496	keystroke_Key.space	Key.space	n/a
202.4785	0.1045	404957	keystroke_q	q	n/a
202.5975	0.0755	405195	keystroke_u	u	n/a
202.7175	0.091	405435	keystroke_e	e	n/a
203.108	0.06	406216	keystroke_b	b	n/a
204.1725	0.1055	408345	keystroke_e	e	n/a
204.233	0.105	408466	keystroke_c	c	n/a
204.667	0.12	409334	keystroke_Key.enter	Key.enter	n/a
204.792	15.2375	409584	prompt	n/a	price george browsing association\n
205.643	0.0595	411286	keystroke_o	o	n/a
205.7625	0.0905	411525	keystroke_r	r	n/a
206.123	0.0745	412246	keystroke_i	i	n/a
206.1675	0.165	412335	keystroke_c	c	n/a
206.2425	0.1205	412485	keystroke_e	e	n/a
206.4075	0.09	412815	keystroke_Key.space	Key.space	n/a
206.8575	0.09	413715	keystroke_g	g	n/a
206.963	0.09	413926	keystroke_e	e	n/a
207.0825	0.12	414165	keystroke_o	o	n/a
207.2175	0.1355	414435	keystroke_r	r	n/a
207.3075	0.12	414615	keystroke_g	g	n/a
207.488	0.0895	414976	keystroke_e	e	n/a
207.5925	0.09	415185	keystroke_Key.space	Key.space	n/a
208.0725	0.1055	416145	keystroke_b	b	n/a
208.1925	0.075	416385	keystroke_r	r	n/a
208.328	0.105	416656	keystroke_o	o	n/a
208.3875	0.09	416775	keystroke_w	w	n/a
208.5675	0.09	417135	keystroke_i	i	n/a
209.378	0.09	418756	keystroke_Key.backspace	Key.backspace	n/a
209.558	0.0895	419116	keystroke_Key.backspace	Key.backspace	n/a
209.7365	0.06	419473	keystroke_Key.backspace	Key.backspace	n/a
210.3075	0.06	420615	keystroke_Key.backspace	Key.backspace	n/a
210.4275	0.2395	420855	keystroke_Key.backspace	Key.backspace	n/a
210.802	0.0605	421604	keystroke_Key.backspace	Key.backspace	n/a
210.937	0.0605	421874	keystroke_Key.backspace	Key.backspace	n/a
211.0875	0.075	422175	keystroke_Key.backspace	Key.backspace	n/a
211.237	0.075	422474	keystroke_Key.backspace	Key.backspace	n/a
211.477	0.015	422954	keystroke_Key.backspace	Key.backspace	n/a
211.5375	0.06	423075	keystroke_Key.backspace	Key.backspace	n/a
211.6725	0.06	423345	keystroke_Key.backspace	Key.backspace	n/a
211.792	0.0455	423584	keystroke_Key.backspace	Key.backspace	n/a
211.8825	0.059	423765	keystroke_Key.backspace	Key.backspace	n/a
212.0315	0.015	424063	keystroke_Key.backspace	Key.backspace	n/a
212.1065	0.061	424213	keystroke_Key.backspace	Key.backspace	n/a
212.2265	0.061	424453	keystroke_Key.backspace	Key.backspace	n/a
212.3325	0.045	424665	keystroke_Key.backspace	Key.backspace	n/a
212.4675	0.059	424935	keystroke_Key.backspace	Key.backspace	n/a
213.1125	0.09	426225	keystroke_p	p	n/a
213.2325	0.09	426465	keystroke_r	r	n/a
213.3975	0.09	426795	keystroke_i	i	n/a
213.8025	0.1205	427605	keystroke_c	c	n/a
213.862	0.091	427724	keystroke_e	e	n/a
213.9675	0.0745	427935	keystroke_Key.space	Key.space	n/a
214.477	0.075	428954	keystroke_g	g	n/a
214.597	0.0905	429194	keystroke_e	e	n/a
214.702	0.0905	429404	keystroke_o	o	n/a
214.838	0.105	429676	keystroke_r	r	n/a
214.913	0.104	429826	keystroke_g	g	n/a
215.0775	0.0905	430155	keystroke_e	e	n/a
215.197	0.09	430394	keystroke_Key.space	Key.space	n/a
215.992	0.1055	431984	keystroke_b	b	n/a
216.0525	0.075	432105	keystroke_r	r	n/a
216.1575	0.105	432315	keystroke_o	o	n/a
216.2925	0.09	432585	keystroke_w	w	n/a
216.5175	0.09	433035	keystroke_s	s	n/a
216.6375	0.18	433275	keystroke_i	i	n/a
216.802	0.06	433604	keystroke_n	n	n/a
216.8325	0.0595	433665	keystroke_g	g	n/a
217.747	0.09	435494	keystroke_Key.space	Key.space	n/a
218.2725	0.1345	436545	keystroke_a	a	n/a
218.3475	0.0895	436695	keystroke_s	s	n/a
218.498	0.1045	436996	keystroke_s	s	n/a
218.8125	0.105	437625	keystroke_o	o	n/a
219.0075	0.09	438015	keystroke_c	c	n/a
219.1875	0.075	438375	keystroke_i	i	n/a
219.2475	0.09	438495	keystroke_a	a	n/a
219.4125	0.09	438825	keystroke_t	t	n/a
219.4875	0.09	438975	keystroke_i	i	n/a
219.5475	0.105	439095	keystroke_o	o	n/a
219.6975	0.105	439395	keystroke_n	n	n/a
219.9225	0.1045	439845	keystroke_Key.enter	Key.enter	n/a
220.0365	8.017	440073	prompt	n/a	arms initially helicopter spouse\n
220.792	0.0905	441584	keystroke_a	a	n/a
220.927	0.075	441854	keystroke_r	r	n/a
221.092	0.091	442184	keystroke_m	m	n/a
221.1975	0.12	442395	keystroke_s	s	n/a
221.392	0.105	442784	keystroke_Key.space	Key.space	n/a
221.7225	0.1345	443445	keystroke_i	i	n/a
221.7825	0.12	443565	keystroke_n	n	n/a
221.947	0.09	443894	keystroke_i	i	n/a
222.067	0.075	444134	keystroke_t	t	n/a
222.1725	0.09	444345	keystroke_i	i	n/a
222.2925	0.075	444585	keystroke_a	a	n/a
222.427	0.06	444854	keystroke_l	l	n/a
222.562	0.09	445124	keystroke_l	l	n/a
222.742	0.0895	445484	keystroke_y	y	n/a
222.8465	0.09	445693	keystroke_Key.space	Key.space	n/a
223.612	0.0895	447224	keystroke_h	h	n/a
223.7325	0.09	447465	keystroke_e	e	n/a
224.0175	0.089	448035	keystroke_l	l	n/a
224.2275	0.059	448455	keystroke_i	i	n/a
224.542	0.0895	449084	keystroke_c	c	n/a
224.6615	0.1205	449323	keystroke_o	o	n/a
224.737	0.0895	449474	keystroke_p	p	n/a
224.902	0.06	449804	keystroke_t	t	n/a
225.0665	0.0905	450133	keystroke_e	e	n/a
225.112	0.0905	450224	keystroke_r	r	n/a
225.427	0.075	450854	keystroke_Key.space	Key.space	n/a
225.757	0.105	451514	keystroke_s	s	n/a
226.3565	0.075	452713	keystroke_p	p	n/a
226.612	0.104	453224	keystroke_o	o	n/a
226.852	0.06	453704	keystroke_u	u	n/a
227.032	0.135	454064	keystroke_s	s	n/a
227.107	0.105	454214	keystroke_e	e	n/a
227.9915	0.06	455983	keystroke_Key.enter	Key.enter	n/a
228.0585	6.5045	456117	prompt	n/a	alex prostate raid early\n
228.7265	0.1055	457453	keystroke_a	a	n/a
228.9365	0.0905	457873	keystroke_l	l	n/a
229.0415	0.0905	458083	keystroke_e	e	n/a
229.267	0.0895	458534	keystroke_x	x	n/a
229.4465	0.09	458893	keystroke_Key.space	Key.space	n/a
229.9715	0.0895	459943	keystroke_p	p	n/a
230.106	0.136	460212	keystroke_r	r	n/a
230.7675	0.1195	461535	keystroke_s	s	n/a
230.916	0.0905	461832	keystroke_o	o	n/a
231.306	0.09	462612	keystroke_Key.backspace	Key.backspace	n/a
231.4715	0.0895	462943	keystroke_Key.backspace	Key.backspace	n/a
232.148	0.0735	464296	keystroke_o	o	n/a
232.2065	0.075	464413	keystroke_s	s	n/a
232.3575	0.105	464715	keystroke_t	t	n/a
232.5215	0.075	465043	keystroke_a	a	n/a
232.581	0.135	465162	keystroke_t	t	n/a
232.701	0.1065	465402	keystroke_e	e	n/a
232.822	0.09	465644	keystroke_Key.space	Key.space	n/a
233.0915	0.1205	466183	keystroke_r	r	n/a
233.2565	0.105	466513	keystroke_a	a	n/a
233.422	0.105	466844	keystroke_i	i	n/a
233.512	0.12	467024	keystroke_d	d	n/a
233.632	0.075	467264	keystroke_Key.space	Key.space	n/a
233.7365	0.076	467473	keystroke_e	e	n/a
233.902	0.09	467804	keystroke_a	a	n/a
234.007	0.075	468014	keystroke_r	r	n/a
234.142	0.09	468284	keystroke_l	l	n/a
234.321	0.061	468642	keystroke_y	y	n/a
234.456	0.105	468912	keystroke_Key.enter	Key.enter	n/a
234.5705	6.0975	469141	prompt	n/a	victims joyce complex account\n
235.627	0.0595	471254	keystroke_v	v	n/a
235.761	0.076	471522	keystroke_i	i	n/a
235.821	0.047	471642	keystroke_c	c	n/a
236.002	0.045	472004	keystroke_t	t	n/a
236.107	0.1355	472214	keystroke_i	i	n/a
236.1975	0.09	472395	keystroke_m	m	n/a
236.332	0.1045	472664	keystroke_s	s	n/a
236.4215	0.09	472843	keystroke_Key.space	Key.space	n/a
236.8425	0.09	473685	keystroke_j	j	n/a
236.9625	0.104	473925	keystroke_o	o	n/a
237.1725	0.075	474345	keystroke_y	y	n/a
237.3225	0.1645	474645	keystroke_c	c	n/a
237.4275	0.1045	474855	keystroke_e	e	n/a
237.5765	0.0895	475153	keystroke_Key.space	Key.space	n/a
237.922	0.09	475844	keystroke_c	c	n/a
238.057	0.12	476114	keystroke_o	o	n/a
238.117	0.105	476234	keystroke_m	m	n/a
238.311	0.166	476622	keystroke_p	p	n/a
238.432	0.075	476864	keystroke_l	l	n/a
238.5665	0.09	477133	keystroke_e	e	n/a
238.8215	0.0905	477643	keystroke_x	x	n/a
238.942	0.104	477884	keystroke_Key.space	Key.space	n/a
239.2415	0.0755	478483	keystroke_c	c	n/a
239.5405	0.091	479081	keystroke_Key.backspace	Key.backspace	n/a
239.677	0.1195	479354	keystroke_a	a	n/a
239.752	0.105	479504	keystroke_c	c	n/a
239.917	0.089	479834	keystroke_c	c	n/a
240.1415	0.1205	480283	keystroke_o	o	n/a
240.2175	0.0585	480435	keystroke_u	u	n/a
240.3675	0.0885	480735	keystroke_n	n	n/a
240.442	0.059	480884	keystroke_t	t	n/a
240.5915	0.075	481183	keystroke_Key.enter	Key.enter	n/a
240.673	10.6455	481346	prompt	n/a	spokesman owners lucky outlined\n
241.686	0.091	483372	keystroke_s	s	n/a
241.792	0.1195	483584	keystroke_o	o	n/a
241.851	0.105	483702	keystroke_i	i	n/a
242.076	0.0905	484152	keystroke_k	k	n/a
242.151	0.0605	484302	keystroke_e	e	n/a
242.3165	0.0605	484633	keystroke_s	s	n/a
243.741	0.0605	487482	keystroke_Key.backspace	Key.backspace	n/a
244.026	0.076	488052	keystroke_Key.backspace	Key.backspace	n/a
244.207	0.045	488414	keystroke_Key.backspace	Key.backspace	n/a
244.341	0.06	488682	keystroke_Key.backspace	Key.backspace	n/a
244.641	0.0755	489282	keystroke_Key.backspace	Key.backspace	n/a
245.287	0.104	490574	keystroke_p	p	n/a
245.346	0.076	490692	keystroke_o	o	n/a
245.5275	0.074	491055	keystroke_k	k	n/a
245.6465	0.074	491293	keystroke_e	e	n/a
245.811	0.0905	491622	keystroke_s	s	n/a
245.931	0.091	491862	keystroke_m	m	n/a
246.0815	0.0895	492163	keystroke_a	a	n/a
246.2015	0.0595	492403	keystroke_n	n	n/a
246.441	0.075	492882	keystroke_Key.space	Key.space	n/a
246.816	0.091	493632	keystroke_o	o	n/a
246.922	0.1045	493844	keystroke_w	w	n/a
247.1015	0.09	494203	keystroke_n	n	n/a
247.4615	0.105	494923	keystroke_e	e	n/a
247.5365	0.09	495073	keystroke_r	r	n/a
247.7465	0.105	495493	keystroke_s	s	n/a
247.9415	0.105	495883	keystroke_Key.space	Key.space	n/a
248.662	0.075	497324	keystroke_l	l	n/a
248.812	0.09	497624	keystroke_u	u	n/a
248.977	0.105	497954	keystroke_c	c	n/a
249.126	0.075	498252	keystroke_y	y	n/a
249.216	0.105	498432	keystroke_Key.space	Key.space	n/a
250.0865	0.1045	500173	keystroke_o	o	n/a
250.1465	0.0745	500293	keystroke_u	u	n/a
250.251	0.0755	500502	keystroke_t	t	n/a
250.6555	0.0915	501311	keystroke_l	l	n/a
250.9115	0.0905	501823	keystroke_i	i	n/a
250.9715	0.0755	501943	keystroke_n	n	n/a
251.0165	0.12	502033	keystroke_e	e	n/a
251.1065	0.105	502213	keystroke_s	s	n/a
251.2115	0.104	502423	keystroke_Key.enter	Key.enter	n/a
251.3375	7.587	502675	prompt	n/a	certainly colored benchmark topic\n
252.307	0.1045	504614	keystroke_c	c	n/a
252.546	0.121	505092	keystroke_e	e	n/a
252.606	0.091	505212	keystroke_r	r	n/a
252.787	0.0745	505574	keystroke_t	t	n/a
252.952	0.0745	505904	keystroke_a	a	n/a
253.056	0.12	506112	keystroke_i	i	n/a
253.132	0.089	506264	keystroke_n	n	n/a
253.296	0.091	506592	keystroke_l	l	n/a
253.462	0.075	506924	keystroke_y	y	n/a
253.626	0.0605	507252	keystroke_Key.space	Key.space	n/a
254.616	0.076	509232	keystroke_c	c	n/a
254.7655	0.0755	509531	keystroke_o	o	n/a
254.9315	0.0605	509863	keystroke_l	l	n/a
255.081	0.0905	510162	keystroke_o	o	n/a
255.2015	0.12	510403	keystroke_r	r	n/a
255.2765	0.105	510553	keystroke_e	e	n/a
255.4415	0.1045	510883	keystroke_d	d	n/a
255.561	0.105	511122	keystroke_Key.space	Key.space	n/a
256.566	0.075	513132	keystroke_b	b	n/a
256.671	0.09	513342	keystroke_e	e	n/a
256.791	0.09	513582	keystroke_n	n	n/a
256.896	0.105	513792	keystroke_c	c	n/a
257.016	0.06	514032	keystroke_h	h	n/a
257.211	0.075	514422	keystroke_m	m	n/a
257.286	0.09	514572	keystroke_a	a	n/a
257.406	0.105	514812	keystroke_r	r	n/a
257.571	0.105	515142	keystroke_k	k	n/a
257.7365	0.0895	515473	keystroke_Key.space	Key.space	n/a
258.231	0.075	516462	keystroke_t	t	n/a
258.321	0.136	516642	keystroke_o	o	n/a
258.3965	0.12	516793	keystroke_p	p	n/a
258.5615	0.074	517123	keystroke_i	i	n/a
258.6505	0.0905	517301	keystroke_c	c	n/a
258.816	0.104	517632	keystroke_Key.enter	Key.enter	n/a
258.9295	5.5725	517859	prompt	n/a	moment hired seem infection\n
259.851	0.075	519702	keystroke_m	m	n/a
259.956	0.18	519912	keystroke_o	o	n/a
260.106	0.105	520212	keystroke_m	m	n/a
260.286	0.12	520572	keystroke_e	e	n/a
260.435	0.105	520870	keystroke_n	n	n/a
260.525	0.076	521050	keystroke_t	t	n/a
260.646	0.0895	521292	keystroke_Key.space	Key.space	n/a
261.441	0.12	522882	keystroke_h	h	n/a
261.516	0.09	523032	keystroke_i	i	n/a
261.5305	0.1205	523061	keystroke_r	r	n/a
261.606	0.09	523212	keystroke_e	e	n/a
261.756	0.135	523512	keystroke_d	d	n/a
261.9055	0.105	523811	keystroke_Key.space	Key.space	n/a
262.4005	0.0755	524801	keystroke_s	s	n/a
262.6105	0.0445	525221	keystroke_e	e	n/a
262.716	0.1045	525432	keystroke_e	e	n/a
262.836	0.0745	525672	keystroke_m	m	n/a
262.956	0.0895	525912	keystroke_Key.space	Key.space	n/a
263.2705	0.136	526541	keystroke_i	i	n/a
263.3155	0.1055	526631	keystroke_n	n	n/a
263.466	0.0895	526932	keystroke_f	f	n/a
263.6155	0.1345	527231	keystroke_e	e	n/a
263.7055	0.1055	527411	keystroke_c	c	n/a
263.946	0.045	527892	keystroke_t	t	n/a
264.021	0.075	528042	keystroke_i	i	n/a
264.036	0.135	528072	keystroke_o	o	n/a
264.201	0.105	528402	keystroke_n	n	n/a
264.396	0.105	528792	keystroke_Key.enter	Key.enter	n/a
264.505	8.667	529010	prompt	n/a	also together wrapping complement\n
265.236	0.1055	530472	keystroke_a	a	n/a
265.386	0.059	530772	keystroke_l	l	n/a
265.461	0.075	530922	keystroke_s	s	n/a
265.581	0.09	531162	keystroke_o	o	n/a
265.656	0.0745	531312	keystroke_Key.space	Key.space	n/a
265.9105	0.0605	531821	keystroke_t	t	n/a
266.001	0.089	532002	keystroke_o	o	n/a
266.091	0.06	532182	keystroke_g	g	n/a
266.241	0.09	532482	keystroke_e	e	n/a
266.4805	0.09	532961	keystroke_t	t	n/a
266.5405	0.0755	533081	keystroke_h	h	n/a
266.7205	0.105	533441	keystroke_e	e	n/a
266.796	0.0895	533592	keystroke_r	r	n/a
266.991	0.1045	533982	keystroke_Key.space	Key.space	n/a
267.2755	0.1205	534551	keystroke_w	w	n/a
267.3505	0.1055	534701	keystroke_r	r	n/a
267.5305	0.075	535061	keystroke_a	a	n/a
267.6655	0.015	535331	keystroke_p	p	n/a
267.756	0.0895	535512	keystroke_p	p	n/a
267.9955	0.09	535991	keystroke_i	i	n/a
268.0555	0.075	536111	keystroke_n	n	n/a
268.116	0.0595	536232	keystroke_g	g	n/a
268.2355	0.105	536471	keystroke_Key.space	Key.space	n/a
268.6715	0.089	537343	keystroke_c	c	n/a
268.7455	0.105	537491	keystroke_o	o	n/a
268.805	0.076	537610	keystroke_m	m	n/a
268.941	0.119	537882	keystroke_p	p	n/a
269.106	0.105	538212	keystroke_e	e	n/a
270.426	0.0605	540852	keystroke_=	=	n/a
271.5505	0.105	543101	keystroke_Key.backspace	Key.backspace	n/a
271.7155	0.0745	543431	keystroke_Key.backspace	Key.backspace	n/a
272.4205	0.061	544841	keystroke_l	l	n/a
272.4965	0.0745	544993	keystroke_e	e	n/a
272.6305	0.09	545261	keystroke_m	m	n/a
272.7065	0.0895	545413	keystroke_e	e	n/a
272.855	0.091	545710	keystroke_n	n	n/a
272.931	0.0595	545862	keystroke_t	t	n/a
273.0655	0.105	546131	keystroke_Key.enter	Key.enter	n/a
273.178	6.759	546356	prompt	n/a	hill ticket linked mixer\n
274.836	0.089	549672	keystroke_h	h	n/a
274.865	0.1055	549730	keystroke_i	i	n/a
275.3295	0.0455	550659	keystroke_l	l	n/a
275.496	0.0735	550992	keystroke_l	l	n/a
275.6	0.0905	551200	keystroke_Key.space	Key.space	n/a
276.26	0.0755	552520	keystroke_t	t	n/a
276.365	0.105	552730	keystroke_i	i	n/a
276.516	0.1045	553032	keystroke_c	c	n/a
276.665	0.0755	553330	keystroke_k	k	n/a
276.785	0.135	553570	keystroke_e	e	n/a
276.845	0.09	553690	keystroke_t	t	n/a
276.9805	0.0745	553961	keystroke_Key.space	Key.space	n/a
277.4905	0.1055	554981	keystroke_l	l	n/a
277.7305	0.105	555461	keystroke_i	i	n/a
277.791	0.1185	555582	keystroke_n	n	n/a
277.9405	0.09	555881	keystroke_k	k	n/a
278.0605	0.105	556121	keystroke_e	e	n/a
278.271	0.0755	556542	keystroke_d	d	n/a
278.3305	0.09	556661	keystroke_Key.space	Key.space	n/a
278.54	0.0755	557080	keystroke_m	m	n/a
278.706	0.0745	557412	keystroke_i	i	n/a
278.9605	0.075	557921	keystroke_x	x	n/a
279.2755	0.06	558551	keystroke_e	e	n/a
279.4715	0.0585	558943	keystroke_r	r	n/a
279.8305	0.1045	559661	keystroke_Key.enter	Key.enter	n/a
279.9405	7.946	559881	prompt	n/a	blvd sage relate haven't\n
281.241	0.0735	562482	keystroke_b	b	n/a
281.39	0.0905	562780	keystroke_l	l	n/a
281.5105	0.135	563021	keystroke_v	v	n/a
281.856	0.089	563712	keystroke_d	d	n/a
281.975	0.09	563950	keystroke_Key.space	Key.space	n/a
282.6205	0.15	565241	keystroke_s	s	n/a
282.6955	0.104	565391	keystroke_a	a	n/a
282.9945	0.136	565989	keystroke_g	g	n/a
283.0995	0.091	566199	keystroke_e	e	n/a
283.2505	0.12	566501	keystroke_Key.space	Key.space	n/a
283.5955	0.1195	567191	keystroke_r	r	n/a
283.6845	0.0905	567369	keystroke_e	e	n/a
283.7895	0.0905	567579	keystroke_l	l	n/a
283.91	0.0905	567820	keystroke_a	a	n/a
284.0155	0.135	568031	keystroke_t	t	n/a
284.1355	0.089	568271	keystroke_e	e	n/a
284.2705	0.09	568541	keystroke_Key.space	Key.space	n/a
285.2445	0.0755	570489	keystroke_h	h	n/a
285.2905	0.1205	570581	keystroke_a	a	n/a
285.455	0.0745	570910	keystroke_v	v	n/a
285.5	0.09	571000	keystroke_e	e	n/a
286.1905	0.06	572381	keystroke_n	n	n/a
287.03	0.09	574060	keystroke_"	"	n/a
287.33	0.06	574660	keystroke_t	t	n/a
287.795	0.0895	575590	keystroke_Key.enter	Key.enter	n/a
287.89	9.793	575780	prompt	n/a	responded reservations maybe surname\n
289.0105	0.15	578021	keystroke_e	e	n/a
289.13	0.0605	578260	keystroke_w	w	n/a
289.52	0.0905	579040	keystroke_Key.backspace	Key.backspace	n/a
289.685	0.09	579370	keystroke_Key.backspace	Key.backspace	n/a
290.075	0.0905	580150	keystroke_r	r	n/a
290.1045	0.0755	580209	keystroke_e	e	n/a
290.2995	0.0765	580599	keystroke_s	s	n/a
290.436	0.0885	580872	keystroke_p	p	n/a
290.675	0.15	581350	keystroke_o	o	n/a
290.765	0.106	581530	keystroke_n	n	n/a
290.84	0.075	581680	keystroke_d	d	n/a
291.02	0.0605	582040	keystroke_e	e	n/a
291.14	0.091	582280	keystroke_d	d	n/a
291.245	0.106	582490	keystroke_Key.space	Key.space	n/a
291.845	0.1195	583690	keystroke_r	r	n/a
291.9055	0.0895	583811	keystroke_e	e	n/a
292.0855	0.1045	584171	keystroke_s	s	n/a
292.595	0.1055	585190	keystroke_e	e	n/a
292.655	0.09	585310	keystroke_r	r	n/a
292.925	0.075	585850	keystroke_v	v	n/a
293.12	0.075	586240	keystroke_a	a	n/a
293.255	0.06	586510	keystroke_t	t	n/a
293.5105	0.12	587021	keystroke_i	i	n/a
293.525	0.12	587050	keystroke_o	o	n/a
293.7955	0.0745	587591	keystroke_n	n	n/a
293.8545	0.121	587709	keystroke_s	s	n/a
293.9895	0.105	587979	keystroke_Key.space	Key.space	n/a
294.4095	0.09	588819	keystroke_m	m	n/a
294.5305	0.105	589061	keystroke_a	a	n/a
294.89	0.12	589780	keystroke_y	y	n/a
294.9505	0.104	589901	keystroke_b	b	n/a
295.07	0.1205	590140	keystroke_e	e	n/a
295.1755	0.089	590351	keystroke_Key.space	Key.space	n/a
295.97	0.0755	591940	keystroke_s	s	n/a
296.0895	0.0755	592179	keystroke_u	u	n/a
296.1795	0.0755	592359	keystroke_r	r	n/a
296.2855	0.089	592571	keystroke_n	n	n/a
296.405	0.0755	592810	keystroke_a	a	n/a
296.525	0.0895	593050	keystroke_m	m	n/a
296.6445	0.091	593289	keystroke_e	e	n/a
297.5295	0.15	595059	keystroke_Key.enter	Key.enter	n/a
297.6935	8.7775	595387	prompt	n/a	density phone strategic quality\n
298.6405	0.0895	597281	keystroke_d	d	n/a
298.835	0.0755	597670	keystroke_e	e	n/a
298.9695	0.105	597939	keystroke_s	s	n/a
299.0755	0.089	598151	keystroke_n	n	n/a
299.225	0.0755	598450	keystroke_i	i	n/a
299.4645	0.075	598929	keystroke_t	t	n/a
299.6745	0.0455	599349	keystroke_y	y	n/a
299.7645	0.0905	599529	keystroke_Key.space	Key.space	n/a
300.35	0.0905	600700	keystroke_p	p	n/a
300.47	0.06	600940	keystroke_h	h	n/a
300.575	0.1355	601150	keystroke_o	o	n/a
300.65	0.09	601300	keystroke_n	n	n/a
300.7255	0.0895	601451	keystroke_e	e	n/a
300.86	0.09	601720	keystroke_Key.space	Key.space	n/a
300.935	0.075	601870	keystroke_s	s	n/a
301.115	0.135	602230	keystroke_t	t	n/a
301.175	0.09	602350	keystroke_r	r	n/a
301.355	0.1345	602710	keystroke_a	a	n/a
301.475	0.12	602950	keystroke_t	t	n/a
301.7895	0.09	603579	keystroke_e	e	n/a
301.9695	0.09	603939	keystroke_g	g	n/a
302.5845	0.09	605169	keystroke_i	i	n/a
302.75	0.105	605500	keystroke_c	c	n/a
302.8695	0.1205	605739	keystroke_Key.space	Key.space	n/a
304.3395	0.09	608679	keystroke_q	q	n/a
304.609	0.1055	609218	keystroke_u	u	n/a
304.774	0.106	609548	keystroke_a	a	n/a
305.029	0.106	610058	keystroke_l	l	n/a
305.194	0.091	610388	keystroke_t	t	n/a
305.33	0.105	610660	keystroke_i	i	n/a
305.749	0.091	611498	keystroke_y	y	n/a
306.35	0.1185	612700	keystroke_Key.enter	Key.enter	n/a
306.479	15.247	612958	prompt	n/a	out assignments guru marked\n
307.565	0.1045	615130	keystroke_o	o	n/a
307.6105	0.0895	615221	keystroke_u	u	n/a
307.6545	0.075	615309	keystroke_t	t	n/a
307.8495	0.075	615699	keystroke_Key.space	Key.space	n/a
307.9395	0.1195	615879	keystroke_a	a	n/a
308.03	0.074	616060	keystroke_s	s	n/a
308.1645	0.105	616329	keystroke_s	s	n/a
308.2995	0.09	616599	keystroke_i	i	n/a
308.4345	0.075	616869	keystroke_g	g	n/a
308.5395	0.076	617079	keystroke_n	n	n/a
308.6895	0.105	617379	keystroke_e	e	n/a
308.8095	0.091	617619	keystroke_m	m	n/a
309.0505	0.105	618101	keystroke_e	e	n/a
309.6645	0.09	619329	keystroke_Key.backspace	Key.backspace	n/a
309.859	0.045	619718	keystroke_Key.backspace	Key.backspace	n/a
309.9945	0.075	619989	keystroke_Key.backspace	Key.backspace	n/a
311.4495	0.075	622899	keystroke_m	m	n/a
311.5395	0.105	623079	keystroke_e	e	n/a
311.689	0.076	623378	keystroke_n	n	n/a
311.779	0.0765	623558	keystroke_t	t	n/a
311.96	0.0895	623920	keystroke_s	s	n/a
312.0645	0.0755	624129	keystroke_Key.space	Key.space	n/a
312.739	0.076	625478	keystroke_g	g	n/a
312.86	0.075	625720	keystroke_u	u	n/a
312.965	0.1195	625930	keystroke_r	r	n/a
313.085	0.09	626170	keystroke_e	e	n/a
313.099	0.076	626198	keystroke_u	u	n/a
313.774	0.0755	627548	keystroke_Key.backspace	Key.backspace	n/a
313.9395	0.089	627879	keystroke_Key.backspace	Key.backspace	n/a
314.6145	0.06	629229	keystroke_u	u	n/a
314.7045	0.075	629409	keystroke_e	e	n/a
314.855	0.0745	629710	keystroke_Key.space	Key.space	n/a
315.4245	0.0605	630849	keystroke_m	m	n/a
315.4855	0.104	630971	keystroke_a	a	n/a
315.5745	0.09	631149	keystroke_r	r	n/a
315.6795	0.0905	631359	keystroke_k	k	n/a
315.785	0.074	631570	keystroke_e	e	n/a
315.919	0.12	631838	keystroke_d	d	n/a
316.084	0.09	632168	keystroke_Key.space	Key.space	n/a
317.824	0.075	635648	keystroke_Key.backspace	Key.backspace	n/a
318.0045	0.075	636009	keystroke_Key.backspace	Key.backspace	n/a
318.1995	0.0595	636399	keystroke_Key.backspace	Key.backspace	n/a
318.364	0.075	636728	keystroke_Key.backspace	Key.backspace	n/a
318.545	0.074	637090	keystroke_Key.backspace	Key.backspace	n/a
318.7095	0.0595	637419	keystroke_Key.backspace	Key.backspace	n/a
318.8745	0.06	637749	keystroke_Key.backspace	Key.backspace	n/a
319.0395	0.06	638079	keystroke_Key.backspace	Key.backspace	n/a
319.1745	0.0755	638349	keystroke_Key.backspace	Key.backspace	n/a
319.939	0.09	639878	keystroke_Key.space	Key.space	n/a
320.1645	0.075	640329	keystroke_m	m	n/a
320.284	0.105	640568	keystroke_a	a	n/a
320.464	0.076	640928	keystroke_r	r	n/a
320.57	0.0895	641140	keystroke_k	k	n/a
320.7495	0.09	641499	keystroke_e	e	n/a
320.9295	0.075	641859	keystroke_d	d	n/a
321.6645	0.06	643329	keystroke_Key.enter	Key.enter	n/a
321.732	7.284	643464	prompt	n/a	teams reject sydney chargers\n
322.58	0.12	645160	keystroke_t	t	n/a
322.655	0.1045	645310	keystroke_e	e	n/a
322.8045	0.12	645609	keystroke_a	a	n/a
322.9995	0.029	645999	keystroke_m	m	n/a
323.2695	0.105	646539	keystroke_s	s	n/a
323.3895	0.105	646779	keystroke_Key.space	Key.space	n/a
323.8395	0.105	647679	keystroke_r	r	n/a
323.9145	0.12	647829	keystroke_e	e	n/a
324.3945	0.075	648789	keystroke_j	j	n/a
324.4845	0.135	648969	keystroke_e	e	n/a
324.559	0.0905	649118	keystroke_c	c	n/a
324.7985	0.075	649597	keystroke_t	t	n/a
324.9345	0.09	649869	keystroke_Key.space	Key.space	n/a
326.014	0.106	652028	keystroke_s	s	n/a
326.255	0.0745	652510	keystroke_y	y	n/a
326.404	0.12	652808	keystroke_d	d	n/a
326.554	0.09	653108	keystroke_n	n	n/a
326.764	0.121	653528	keystroke_e	e	n/a
327.1545	0.059	654309	keystroke_y	y	n/a
327.2895	0.0895	654579	keystroke_Key.space	Key.space	n/a
327.7995	0.09	655599	keystroke_c	c	n/a
327.9045	0.075	655809	keystroke_h	h	n/a
328.0245	0.12	656049	keystroke_a	a	n/a
328.1145	0.09	656229	keystroke_r	r	n/a
328.3395	0.09	656679	keystroke_g	g	n/a
328.5045	0.1195	657009	keystroke_e	e	n/a
328.594	0.09	657188	keystroke_r	r	n/a
328.774	0.075	657548	keystroke_s	s	n/a
328.8795	0.1345	657759	keystroke_Key.enter	Key.enter	n/a
329.0205	8.5015	658041	prompt	n/a	must've modem tribute rebound\n
329.9745	0.09	659949	keystroke_m	m	n/a
330.4685	0.06	660937	keystroke_u	u	n/a
330.5735	0.076	661147	keystroke_s	s	n/a
330.6795	0.105	661359	keystroke_t	t	n/a
331.4	0.0595	662800	keystroke_'	'	n/a
331.954	0.135	663908	keystroke_v	v	n/a
332.0445	0.0895	664089	keystroke_e	e	n/a
332.1945	0.09	664389	keystroke_Key.space	Key.space	n/a
333.184	0.12	666368	keystroke_m	m	n/a
333.274	0.15	666548	keystroke_o	o	n/a
333.379	0.076	666758	keystroke_d	d	n/a
333.559	0.09	667118	keystroke_e	e	n/a
333.62	0.074	667240	keystroke_r	r	n/a
333.724	0.1055	667448	keystroke_n	n	n/a
333.874	0.09	667748	keystroke_Key.space	Key.space	n/a
334.609	0.1205	669218	keystroke_t	t	n/a
334.6695	0.12	669339	keystroke_r	r	n/a
334.925	0.1195	669850	keystroke_i	i	n/a
335.0295	0.09	670059	keystroke_b	b	n/a
335.2095	0.075	670419	keystroke_u	u	n/a
335.2995	0.165	670599	keystroke_t	t	n/a
335.389	0.12	670778	keystroke_e	e	n/a
335.5535	0.1205	671107	keystroke_Key.space	Key.space	n/a
335.944	0.105	671888	keystroke_r	r	n/a
335.989	0.121	671978	keystroke_e	e	n/a
336.485	0.0735	672970	keystroke_b	b	n/a
336.6485	0.1205	673297	keystroke_o	o	n/a
336.709	0.1055	673418	keystroke_u	u	n/a
336.919	0.075	673838	keystroke_n	n	n/a
336.979	0.09	673958	keystroke_d	d	n/a
337.384	0.135	674768	keystroke_Key.enter	Key.enter	n/a
337.543	7.043	675086	prompt	n/a	gravity andrea schemes velvet\n
338.4635	0.1355	676927	keystroke_g	g	n/a
338.5245	0.1045	677049	keystroke_r	r	n/a
338.7495	0.089	677499	keystroke_a	a	n/a
338.8235	0.091	677647	keystroke_v	v	n/a
339.0785	0.105	678157	keystroke_i	i	n/a
339.394	0.0895	678788	keystroke_t	t	n/a
339.5585	0.0755	679117	keystroke_y	y	n/a
339.679	0.1055	679358	keystroke_Key.space	Key.space	n/a
339.934	0.105	679868	keystroke_a	a	n/a
340.144	0.105	680288	keystroke_n	n	n/a
340.294	0.09	680588	keystroke_d	d	n/a
340.519	0.105	681038	keystroke_r	r	n/a
340.564	0.105	681128	keystroke_e	e	n/a
340.744	0.105	681488	keystroke_a	a	n/a
340.894	0.09	681788	keystroke_Key.space	Key.space	n/a
341.4045	0.1195	682809	keystroke_s	s	n/a
341.479	0.0905	682958	keystroke_c	c	n/a
341.555	0.0735	683110	keystroke_h	h	n/a
341.6735	0.06	683347	keystroke_e	e	n/a
341.779	0.105	683558	keystroke_m	m	n/a
341.8695	0.0595	683739	keystroke_e	e	n/a
342.049	0.075	684098	keystroke_s	s	n/a
342.154	0.105	684308	keystroke_Key.space	Key.space	n/a
342.784	0.106	685568	keystroke_v	v	n/a
342.859	0.105	685718	keystroke_e	e	n/a
342.979	0.06	685958	keystroke_l	l	n/a
343.174	0.106	686348	keystroke_v	v	n/a
343.265	0.1045	686530	keystroke_e	e	n/a
343.489	0.06	686978	keystroke_t	t	n/a
344.4785	0.106	688957	keystroke_Key.enter	Key.enter	n/a
344.59	8.861	689180	prompt	n/a	stream these protecting electro\n
345.4685	0.0905	690937	keystroke_s	s	n/a
345.799	0.1345	691598	keystroke_t	t	n/a
345.814	0.2255	691628	keystroke_r	r	n/a
346.399	0.075	692798	keystroke_e	e	n/a
346.684	0.0905	693368	keystroke_a	a	n/a
346.804	0.105	693608	keystroke_m	m	n/a
346.9385	0.12	693877	keystroke_Key.space	Key.space	n/a
347.479	0.1195	694958	keystroke_t	t	n/a
347.5385	0.091	695077	keystroke_h	h	n/a
347.7795	0.0595	695559	keystroke_e	e	n/a
347.959	0.0455	695918	keystroke_s	s	n/a
348.1095	0.1195	696219	keystroke_e	e	n/a
348.214	0.06	696428	keystroke_Key.space	Key.space	n/a
348.529	0.075	697058	keystroke_r	r	n/a
348.8735	0.135	697747	keystroke_Key.backspace	Key.backspace	n/a
349.2345	0.1045	698469	keystroke_p	p	n/a
349.353	0.076	698706	keystroke_r	r	n/a
349.4885	0.06	698977	keystroke_o	o	n/a
349.6395	0.1035	699279	keystroke_t	t	n/a
349.728	0.106	699456	keystroke_e	e	n/a
349.969	0.075	699938	keystroke_c	c	n/a
350.194	0.149	700388	keystroke_t	t	n/a
350.3595	0.1185	700719	keystroke_i	i	n/a
350.418	0.106	700836	keystroke_n	n	n/a
350.508	0.0905	701016	keystroke_g	g	n/a
350.6295	0.0895	701259	keystroke_Key.space	Key.space	n/a
351.2885	0.091	702577	keystroke_e	e	n/a
351.978	0.106	703956	keystroke_l	l	n/a
352.099	0.135	704198	keystroke_e	e	n/a
352.173	0.105	704346	keystroke_c	c	n/a
352.474	0.06	704948	keystroke_t	t	n/a
352.819	0.105	705638	keystroke_r	r	n/a
352.954	0.09	705908	keystroke_o	o	n/a
353.344	0.104	706688	keystroke_Key.enter	Key.enter	n/a
353.455	9.685	706910	prompt	n/a	illustration dominant naval catherine\n
354.379	0.045	708758	keystroke_i	i	n/a
354.6485	0.045	709297	keystroke_l	l	n/a
354.7535	0.0605	709507	keystroke_l	l	n/a
354.964	0.0595	709928	keystroke_u	u	n/a
354.9935	0.09	709987	keystroke_s	s	n/a
355.2195	0.119	710439	keystroke_t	t	n/a
355.2785	0.09	710557	keystroke_r	r	n/a
355.489	0.1205	710978	keystroke_a	a	n/a
355.564	0.0895	711128	keystroke_t	t	n/a
355.6985	0.151	711397	keystroke_i	i	n/a
355.804	0.1805	711608	keystroke_o	o	n/a
355.9385	0.121	711877	keystroke_n	n	n/a
356.179	0.1045	712358	keystroke_s	s	n/a
356.299	0.09	712598	keystroke_Key.space	Key.space	n/a
356.869	0.075	713738	keystroke_d	d	n/a
356.884	0.104	713768	keystroke_o	o	n/a
356.959	0.0895	713918	keystroke_m	m	n/a
357.139	0.105	714278	keystroke_i	i	n/a
357.199	0.09	714398	keystroke_n	n	n/a
357.2735	0.0905	714547	keystroke_a	a	n/a
357.394	0.09	714788	keystroke_n	n	n/a
357.499	0.0605	714998	keystroke_t	t	n/a
357.888	0.105	715776	keystroke_Key.space	Key.space	n/a
358.293	0.0755	716586	keystroke_n	n	n/a
358.369	0.104	716738	keystroke_e	e	n/a
358.654	0.06	717308	keystroke_v	v	n/a
358.834	0.1055	717668	keystroke_a	a	n/a
358.984	0.105	717968	keystroke_l	l	n/a
359.119	0.0895	718238	keystroke_Key.space	Key.space	n/a
359.8385	0.06	719677	keystroke_a	a	n/a
360.1685	0.1055	720337	keystroke_Key.backspace	Key.backspace	n/a
360.303	0.106	720606	keystroke_c	c	n/a
360.363	0.0765	720726	keystroke_a	a	n/a
360.6195	0.105	721239	keystroke_t	t	n/a
360.679	0.075	721358	keystroke_h	h	n/a
360.8585	0.1045	721717	keystroke_e	e	n/a
360.918	0.091	721836	keystroke_r	r	n/a
361.0385	0.1355	722077	keystroke_i	i	n/a
361.114	0.1045	722228	keystroke_n	n	n/a
361.203	0.0915	722406	keystroke_e	e	n/a
363.034	0.104	726068	keystroke_Key.enter	Key.enter	n/a
363.1485	16.582	726297	prompt	n/a	payments each clan cingular\n
363.9935	0.06	727987	keystroke_o	o	n/a
364.0685	0.12	728137	keystroke_a	a	n/a
364.3385	0.075	728677	keystroke_y	y	n/a
364.4585	0.09	728917	keystroke_m	m	n/a
364.5945	0.1035	729189	keystroke_e	e	n/a
365.643	0.06	731286	keystroke_Key.backspace	Key.backspace	n/a
365.808	0.0605	731616	keystroke_Key.backspace	Key.backspace	n/a
365.9885	0.06	731977	keystroke_Key.backspace	Key.backspace	n/a
366.154	0.0595	732308	keystroke_Key.backspace	Key.backspace	n/a
366.3185	0.075	732637	keystroke_Key.backspace	Key.backspace	n/a
367.128	0.0605	734256	keystroke_p	p	n/a
367.234	0.089	734468	keystroke_a	a	n/a
367.473	0.0605	734946	keystroke_y	y	n/a
367.6235	0.09	735247	keystroke_m	m	n/a
367.7435	0.0905	735487	keystroke_e	e	n/a
367.849	0.075	735698	keystroke_n	n	n/a
367.909	0.059	735818	keystroke_t	t	n/a
368.089	0.075	736178	keystroke_s	s	n/a
368.209	0.0745	736418	keystroke_Key.space	Key.space	n/a
368.599	0.089	737198	keystroke_e	e	n/a
368.794	0.1055	737588	keystroke_a	a	n/a
368.8685	0.0905	737737	keystroke_c	c	n/a
369.018	0.0905	738036	keystroke_h	h	n/a
369.138	0.0605	738276	keystroke_Key.space	Key.space	n/a
370.2635	0.09	740527	keystroke_c	c	n/a
371.1945	0.0745	742389	keystroke_l	l	n/a
371.344	0.1355	742688	keystroke_a	a	n/a
371.644	0.075	743288	keystroke_n	n	n/a
371.763	0.091	743526	keystroke_Key.space	Key.space	n/a
372.949	0.06	745898	keystroke_c	c	n/a
373.038	0.135	746076	keystroke_i	i	n/a
373.098	0.0905	746196	keystroke_n	n	n/a
373.8185	0.075	747637	keystroke_g	g	n/a
374.0135	0.0905	748027	keystroke_u	u	n/a
374.2385	0.06	748477	keystroke_l	l	n/a
374.254	0.0295	748508	keystroke_k	k	n/a
374.343	0.12	748686	keystroke_a	a	n/a
374.4035	0.1045	748807	keystroke_r	r	n/a
375.888	0.075	751776	keystroke_Key.backspace	Key.backspace	n/a
376.038	0.09	752076	keystroke_Key.backspace	Key.backspace	n/a
376.203	0.0905	752406	keystroke_Key.backspace	Key.backspace	n/a
376.383	0.0755	752766	keystroke_Key.backspace	Key.backspace	n/a
377.4785	0.06	754957	keystroke_l	l	n/a
378.139	0.1185	756278	keystroke_a	a	n/a
378.2285	0.044	756457	keystroke_r	r	n/a
379.6835	0.044	759367	keystroke_Key.enter	Key.enter	n/a
379.7365	8.29	759473	prompt	n/a	faith hats pirates cent\n
380.794	0.075	761588	keystroke_f	f	n/a
380.854	0.1045	761708	keystroke_a	a	n/a
381.1675	0.106	762335	keystroke_i	i	n/a
381.3635	0.1205	762727	keystroke_t	t	n/a
381.4235	0.09	762847	keystroke_h	h	n/a
381.6935	0.1195	763387	keystroke_e	e	n/a
381.768	0.075	763536	keystroke_r	r	n/a
382.878	0.075	765756	keystroke_Key.backspace	Key.backspace	n/a
383.043	0.061	766086	keystroke_Key.backspace	Key.backspace	n/a
383.7185	0.1045	767437	keystroke_Key.space	Key.space	n/a
384.6935	0.075	769387	keystroke_h	h	n/a
384.7535	0.1055	769507	keystroke_a	a	n/a
384.829	0.0895	769658	keystroke_t	t	n/a
385.0085	0.09	770017	keystroke_s	s	n/a
385.0835	0.09	770167	keystroke_Key.space	Key.space	n/a
385.7135	0.136	771427	keystroke_p	p	n/a
385.7735	0.12	771547	keystroke_i	i	n/a
385.9085	0.1355	771817	keystroke_r	r	n/a
386.0135	0.1055	772027	keystroke_a	a	n/a
386.163	0.151	772326	keystroke_t	t	n/a
386.449	0.089	772898	keystroke_e	e	n/a
386.658	0.091	773316	keystroke_s	s	n/a
386.793	0.12	773586	keystroke_Key.space	Key.space	n/a
387.169	0.119	774338	keystroke_c	c	n/a
387.2275	0.121	774455	keystroke_e	e	n/a
387.363	0.12	774726	keystroke_n	n	n/a
387.468	0.076	774936	keystroke_t	t	n/a
387.9185	0.105	775837	keystroke_Key.enter	Key.enter	n/a
388.0365	15.1235	776073	prompt	n/a	roman input built returns\n
388.8335	0.075	777667	keystroke_r	r	n/a
388.9535	0.15	777907	keystroke_o	o	n/a
389.044	0.1195	778088	keystroke_m	m	n/a
389.149	0.104	778298	keystroke_a	a	n/a
389.2835	0.105	778567	keystroke_n	n	n/a
389.3735	0.0895	778747	keystroke_Key.space	Key.space	n/a
389.838	0.105	779676	keystroke_i	i	n/a
389.883	0.105	779766	keystroke_n	n	n/a
390.199	0.0745	780398	keystroke_o	o	n/a
390.2435	0.1195	780487	keystroke_u	u	n/a
390.3935	0.1045	780787	keystroke_t	t	n/a
391.9975	0.06	783995	keystroke_Key.backspace	Key.backspace	n/a
392.1325	0.061	784265	keystroke_Key.backspace	Key.backspace	n/a
392.5535	0.075	785107	keystroke_Key.backspace	Key.backspace	n/a
393.408	0.105	786816	keystroke_o	o	n/a
393.468	0.09	786936	keystroke_u	u	n/a
393.528	0.075	787056	keystroke_t	t	n/a
393.7235	0.089	787447	keystroke_Key.space	Key.space	n/a
394.713	0.06	789426	keystroke_b	b	n/a
394.848	0.15	789696	keystroke_u	u	n/a
394.923	0.1055	789846	keystroke_i	i	n/a
395.163	0.075	790326	keystroke_l	l	n/a
395.209	0.0895	790418	keystroke_t	t	n/a
396.8275	0.03	793655	keystroke_Key.backspace	Key.backspace	n/a
396.978	0.06	793956	keystroke_Key.backspace	Key.backspace	n/a
397.143	0.06	794286	keystroke_Key.backspace	Key.backspace	n/a
397.323	0.045	794646	keystroke_Key.backspace	Key.backspace	n/a
397.488	0.06	794976	keystroke_Key.backspace	Key.backspace	n/a
397.653	0.045	795306	keystroke_Key.backspace	Key.backspace	n/a
397.788	0.0455	795576	keystroke_Key.backspace	Key.backspace	n/a
397.938	0.0595	795876	keystroke_Key.backspace	Key.backspace	n/a
398.0875	0.0755	796175	keystroke_Key.backspace	Key.backspace	n/a
399.018	0.1205	798036	keystroke_o	o	n/a
399.078	0.1055	798156	keystroke_u	u	n/a
399.153	0.075	798306	keystroke_t	t	n/a
399.363	0.09	798726	keystroke_Key.space	Key.space	n/a
400.068	0.075	800136	keystroke_b	b	n/a
400.248	0.105	800496	keystroke_u	u	n/a
400.293	0.09	800586	keystroke_i	i	n/a
400.518	0.075	801036	keystroke_l	l	n/a
400.563	0.105	801126	keystroke_t	t	n/a
400.773	0.0905	801546	keystroke_Key.space	Key.space	n/a
401.1925	0.1215	802385	keystroke_r	r	n/a
401.2535	0.104	802507	keystroke_e	e	n/a
401.419	0.0595	802838	keystroke_t	t	n/a
401.523	0.1205	803046	keystroke_u	u	n/a
401.6445	0.074	803289	keystroke_r	r	n/a
401.7335	0.074	803467	keystroke_n	n	n/a
401.823	0.1055	803646	keystroke_s	s	n/a
403.0525	0.105	806105	keystroke_Key.enter	Key.enter	n/a
403.1645	8.305	806329	prompt	n/a	currency tubes dispatch adaptive\n
404.088	0.075	808176	keystroke_c	c	n/a
404.253	0.06	808506	keystroke_u	u	n/a
404.343	0.0445	808686	keystroke_r	r	n/a
404.478	0.105	808956	keystroke_r	r	n/a
404.568	0.1055	809136	keystroke_e	e	n/a
404.674	0.0885	809348	keystroke_n	n	n/a
404.8085	0.09	809617	keystroke_c	c	n/a
404.9585	0.075	809917	keystroke_y	y	n/a
405.063	0.09	810126	keystroke_Key.space	Key.space	n/a
405.8135	0.09	811627	keystroke_t	t	n/a
405.9485	0.074	811897	keystroke_u	u	n/a
406.1585	0.0745	812317	keystroke_b	b	n/a
406.218	0.1655	812436	keystroke_e	e	n/a
406.308	0.12	812616	keystroke_s	s	n/a
406.412	0.091	812824	keystroke_Key.space	Key.space	n/a
407.013	0.09	814026	keystroke_d	d	n/a
407.283	0.09	814566	keystroke_s	s	n/a
407.748	0.12	815496	keystroke_Key.backspace	Key.backspace	n/a
408.0185	0.0745	816037	keystroke_i	i	n/a
408.108	0.09	816216	keystroke_s	s	n/a
408.468	0.09	816936	keystroke_p	p	n/a
408.573	0.12	817146	keystroke_a	a	n/a
408.918	0.09	817836	keystroke_t	t	n/a
409.248	0.105	818496	keystroke_c	c	n/a
409.323	0.075	818646	keystroke_h	h	n/a
409.488	0.105	818976	keystroke_Key.space	Key.space	n/a
409.9525	0.121	819905	keystroke_a	a	n/a
410.0125	0.121	820025	keystroke_d	d	n/a
410.1485	0.1185	820297	keystroke_a	a	n/a
410.282	0.0915	820564	keystroke_p	p	n/a
410.4775	0.061	820955	keystroke_t	t	n/a
410.658	0.075	821316	keystroke_i	i	n/a
410.7925	0.1205	821585	keystroke_v	v	n/a
410.868	0.09	821736	keystroke_e	e	n/a
411.362	0.105	822724	keystroke_Key.enter	Key.enter	n/a
411.475	6.2945	822950	prompt	n/a	status dragon attorney configure\n
412.233	0.09	824466	keystroke_s	s	n/a
412.413	0.0755	824826	keystroke_t	t	n/a
412.5035	0.1195	825007	keystroke_a	a	n/a
412.593	0.075	825186	keystroke_t	t	n/a
412.7285	0.074	825457	keystroke_u	u	n/a
412.8625	0.106	825725	keystroke_s	s	n/a
412.983	0.0895	825966	keystroke_Key.space	Key.space	n/a
413.1785	0.075	826357	keystroke_d	d	n/a
413.3735	0.0595	826747	keystroke_r	r	n/a
413.388	0.135	826776	keystroke_a	a	n/a
413.628	0.045	827256	keystroke_g	g	n/a
413.703	0.135	827406	keystroke_o	o	n/a
413.778	0.105	827556	keystroke_n	n	n/a
413.868	0.09	827736	keystroke_Key.space	Key.space	n/a
414.858	0.105	829716	keystroke_a	a	n/a
415.068	0.045	830136	keystroke_t	t	n/a
415.203	0.045	830406	keystroke_t	t	n/a
415.262	0.106	830524	keystroke_o	o	n/a
415.369	0.0745	830738	keystroke_r	r	n/a
415.473	0.089	830946	keystroke_n	n	n/a
415.788	0.09	831576	keystroke_e	e	n/a
415.953	0.09	831906	keystroke_y	y	n/a
416.0875	0.1055	832175	keystroke_Key.space	Key.space	n/a
416.7785	0.0745	833557	keystroke_c	c	n/a
416.793	0.1355	833586	keystroke_o	o	n/a
416.8675	0.135	833735	keystroke_n	n	n/a
417.0185	0.044	834037	keystroke_f	f	n/a
417.093	0.1045	834186	keystroke_i	i	n/a
417.3025	0.06	834605	keystroke_g	g	n/a
417.3925	0.09	834785	keystroke_u	u	n/a
417.4975	0.12	834995	keystroke_r	r	n/a
417.5725	0.09	835145	keystroke_e	e	n/a
417.6775	0.0905	835355	keystroke_Key.enter	Key.enter	n/a
417.7735	10.8125	835547	prompt	n/a	lucy positive robots factors\n
418.6835	0.104	837367	keystroke_l	l	n/a
418.8485	0.089	837697	keystroke_u	u	n/a
418.968	0.1045	837936	keystroke_c	c	n/a
419.1025	0.075	838205	keystroke_y	y	n/a
419.1775	0.1055	838355	keystroke_Key.space	Key.space	n/a
420.993	0.12	841986	keystroke_p	p	n/a
421.098	0.06	842196	keystroke_o	o	n/a
421.203	0.135	842406	keystroke_s	s	n/a
421.5035	0.0585	843007	keystroke_t	t	n/a
421.6075	0.1055	843215	keystroke_i	i	n/a
423.1375	0.045	846275	keystroke_Key.backspace	Key.backspace	n/a
423.2575	0.06	846515	keystroke_Key.backspace	Key.backspace	n/a
424.038	0.0895	848076	keystroke_i	i	n/a
424.1425	0.0605	848285	keystroke_t	t	n/a
424.248	0.09	848496	keystroke_i	i	n/a
424.443	0.149	848886	keystroke_v	v	n/a
424.533	0.135	849066	keystroke_e	e	n/a
424.683	0.075	849366	keystroke_Key.space	Key.space	n/a
425.298	0.09	850596	keystroke_r	r	n/a
425.372	0.105	850744	keystroke_o	o	n/a
425.553	0.0755	851106	keystroke_b	b	n/a
425.643	0.12	851286	keystroke_o	o	n/a
425.792	0.061	851584	keystroke_t	t	n/a
426.018	0.0755	852036	keystroke_s	s	n/a
426.108	0.09	852216	keystroke_Key.space	Key.space	n/a
426.483	0.0605	852966	keystroke_d	d	n/a
427.038	0.0595	854076	keystroke_Key.backspace	Key.backspace	n/a
427.188	0.1045	854376	keystroke_f	f	n/a
427.309	0.1185	854618	keystroke_a	a	n/a
427.4135	0.1195	854827	keystroke_c	c	n/a
427.6525	0.0755	855305	keystroke_t	t	n/a
427.757	0.1065	855514	keystroke_o	o	n/a
427.8785	0.1185	855757	keystroke_r	r	n/a
427.982	0.106	855964	keystroke_s	s	n/a
428.102	0.0905	856204	keystroke_Key.space	Key.space	n/a
428.477	0.106	856954	keystroke_Key.enter	Key.enter	n/a
428.5975	9.377	857195	prompt	n/a	quantity essay bringing predict\n
429.5735	0.12	859147	keystroke_q	q	n/a
429.7385	0.089	859477	keystroke_u	u	n/a
429.9025	0.135	859805	keystroke_a	a	n/a
430.1135	0.0895	860227	keystroke_n	n	n/a
430.293	0.1055	860586	keystroke_t	t	n/a
430.428	0.105	860856	keystroke_i	i	n/a
430.534	0.1045	861068	keystroke_t	t	n/a
430.773	0.045	861546	keystroke_t	t	n/a
430.953	0.03	861906	keystroke_y	y	n/a
431.957	0.075	863914	keystroke_Key.backspace	Key.backspace	n/a
432.093	0.074	864186	keystroke_Key.backspace	Key.backspace	n/a
432.2285	0.0895	864457	keystroke_y	y	n/a
432.3925	0.0905	864785	keystroke_Key.space	Key.space	n/a
433.4125	0.105	866825	keystroke_e	e	n/a
433.623	0.0755	867246	keystroke_s	s	n/a
433.7735	0.104	867547	keystroke_s	s	n/a
433.9235	0.1195	867847	keystroke_a	a	n/a
434.0575	0.075	868115	keystroke_y	y	n/a
434.208	0.075	868416	keystroke_Key.space	Key.space	n/a
434.9125	0.1055	869825	keystroke_b	b	n/a
435.002	0.075	870004	keystroke_r	r	n/a
435.092	0.151	870184	keystroke_i	i	n/a
435.197	0.121	870394	keystroke_n	n	n/a
435.2725	0.061	870545	keystroke_g	g	n/a
435.348	0.1055	870696	keystroke_i	i	n/a
435.408	0.105	870816	keystroke_n	n	n/a
435.558	0.06	871116	keystroke_g	g	n/a
436.0225	0.0755	872045	keystroke_Key.space	Key.space	n/a
436.997	0.106	873994	keystroke_p	p	n/a
437.088	0.1355	874176	keystroke_r	r	n/a
437.178	0.09	874356	keystroke_e	e	n/a
437.3575	0.105	874715	keystroke_d	d	n/a
437.4775	0.0895	874955	keystroke_i	i	n/a
437.582	0.0905	875164	keystroke_c	c	n/a
437.7925	0.045	875585	keystroke_t	t	n/a
437.8675	0.105	875735	keystroke_Key.enter	Key.enter	n/a
437.982	11.0025	875964	prompt	n/a	holocaust paying danny bits\n
439.068	0.075	878136	keystroke_h	h	n/a
439.158	0.075	878316	keystroke_o	o	n/a
439.322	0.0605	878644	keystroke_l	l	n/a
439.5025	0.045	879005	keystroke_o	o	n/a
439.7125	0.075	879425	keystroke_c	c	n/a
439.9075	0.1055	879815	keystroke_a	a	n/a
440.0875	0.09	880175	keystroke_u	u	n/a
440.2225	0.075	880445	keystroke_s	s	n/a
440.4025	0.06	880805	keystroke_t	t	n/a
440.4925	0.0755	880985	keystroke_Key.space	Key.space	n/a
441.5425	0.075	883085	keystroke_p	p	n/a
441.6325	0.105	883265	keystroke_a	a	n/a
441.993	0.06	883986	keystroke_y	y	n/a
442.143	0.135	884286	keystroke_i	i	n/a
442.202	0.106	884404	keystroke_n	n	n/a
442.428	0.105	884856	keystroke_Key.space	Key.space	n/a
443.3125	0.1055	886625	keystroke_Key.backspace	Key.backspace	n/a
444.1075	0.0745	888215	keystroke_g	g	n/a
444.167	0.09	888334	keystroke_Key.space	Key.space	n/a
444.453	0.1195	888906	keystroke_d	d	n/a
444.513	0.1355	889026	keystroke_a	a	n/a
444.6335	0.059	889267	keystroke_n	n	n/a
444.7525	0.09	889505	keystroke_n	n	n/a
444.9625	0.016	889925	keystroke_y	y	n/a
445.6375	0.09	891275	keystroke_Key.space	Key.space	n/a
448.535	0.042	897070	keystroke_b	b	n/a
448.535	0.072	897070	keystroke_i	i	n/a
448.578	0.105	897156	keystroke_t	t	n/a
448.668	0.105	897336	keystroke_s	s	n/a
448.877	0.105	897754	keystroke_Key.enter	Key.enter	n/a
448.9905	8.6945	897981	prompt	n/a	communicate contract propose recently\n
449.8975	0.06	899795	keystroke_c	c	n/a
449.9875	0.1205	899975	keystroke_o	o	n/a
450.2125	0.075	900425	keystroke_m	m	n/a
450.3475	0.075	900695	keystroke_m	m	n/a
450.5875	0.09	901175	keystroke_u	u	n/a
450.6325	0.1055	901265	keystroke_n	n	n/a
450.7825	0.105	901565	keystroke_i	i	n/a
450.9325	0.135	901865	keystroke_c	c	n/a
451.0525	0.09	902105	keystroke_a	a	n/a
451.233	0.134	902466	keystroke_t	t	n/a
451.3525	0.12	902705	keystroke_e	e	n/a
451.533	0.104	903066	keystroke_Key.space	Key.space	n/a
452.0125	0.075	904025	keystroke_c	c	n/a
452.1025	0.135	904205	keystroke_o	o	n/a
452.1775	0.1055	904355	keystroke_n	n	n/a
452.298	0.1495	904596	keystroke_t	t	n/a
452.4325	0.12	904865	keystroke_r	r	n/a
452.6725	0.1195	905345	keystroke_a	a	n/a
452.7475	0.105	905495	keystroke_c	c	n/a
452.9725	0.075	905945	keystroke_t	t	n/a
453.1075	0.09	906215	keystroke_Key.space	Key.space	n/a
453.3625	0.1055	906725	keystroke_p	p	n/a
453.4825	0.09	906965	keystroke_r	r	n/a
453.6025	0.09	907205	keystroke_o	o	n/a
453.992	0.165	907984	keystroke_p	p	n/a
454.458	0.0895	908916	keystroke_s	s	n/a
454.532	0.1505	909064	keystroke_o	o	n/a
454.982	0.0755	909964	keystroke_Key.backspace	Key.backspace	n/a
455.1325	0.0595	910265	keystroke_Key.backspace	Key.backspace	n/a
455.372	0.0905	910744	keystroke_o	o	n/a
455.508	0.1195	911016	keystroke_s	s	n/a
455.5675	0.09	911135	keystroke_e	e	n/a
455.6725	0.09	911345	keystroke_Key.space	Key.space	n/a
456.1675	0.1055	912335	keystroke_r	r	n/a
456.243	0.0895	912486	keystroke_e	e	n/a
456.4225	0.075	912845	keystroke_c	c	n/a
456.4675	0.1655	912935	keystroke_e	e	n/a
456.648	0.0895	913296	keystroke_n	n	n/a
456.7525	0.105	913505	keystroke_t	t	n/a
456.9025	0.1345	913805	keystroke_l	l	n/a
457.248	0.09	914496	keystroke_y	y	n/a
457.592	0.09	915184	keystroke_Key.enter	Key.enter	n/a
457.6885	6.7755	915377	prompt	n/a	like analyze filter shan't\n
458.478	0.06	916956	keystroke_l	l	n/a
458.687	0.075	917374	keystroke_i	i	n/a
458.853	0.075	917706	keystroke_k	k	n/a
458.943	0.09	917886	keystroke_e	e	n/a
459.047	0.09	918094	keystroke_Key.space	Key.space	n/a
459.1685	0.074	918337	keystroke_a	a	n/a
459.2575	0.075	918515	keystroke_n	n	n/a
459.3475	0.09	918695	keystroke_a	a	n/a
459.4675	0.0905	918935	keystroke_l	l	n/a
459.753	0.0745	919506	keystroke_y	y	n/a
460.1725	0.0895	920345	keystroke_z	z	n/a
460.427	0.06	920854	keystroke_e	e	n/a
460.547	0.09	921094	keystroke_Key.space	Key.space	n/a
461.2825	0.09	922565	keystroke_f	f	n/a
461.3575	0.06	922715	keystroke_i	i	n/a
461.5515	0.061	923103	keystroke_l	l	n/a
461.6425	0.09	923285	keystroke_t	t	n/a
461.8225	0.1205	923645	keystroke_e	e	n/a
461.8825	0.1055	923765	keystroke_r	r	n/a
462.0175	0.0895	924035	keystroke_Key.space	Key.space	n/a
462.5425	0.09	925085	keystroke_s	s	n/a
462.693	0.1045	925386	keystroke_h	h	n/a
462.812	0.0755	925624	keystroke_a	a	n/a
462.963	0.059	925926	keystroke_n	n	n/a
463.6065	0.091	927213	keystroke_'	'	n/a
463.7575	0.0755	927515	keystroke_t	t	n/a
464.3875	0.074	928775	keystroke_Key.enter	Key.enter	n/a
464.468	6.8055	928936	prompt	n/a	hard wires measure printer\n
465.678	0.0895	931356	keystroke_h	h	n/a
465.7525	0.0905	931505	keystroke_a	a	n/a
465.903	0.045	931806	keystroke_r	r	n/a
466.037	0.106	932074	keystroke_d	d	n/a
466.157	0.09	932314	keystroke_Key.space	Key.space	n/a
466.262	0.09	932524	keystroke_w	w	n/a
466.367	0.0905	932734	keystroke_i	i	n/a
466.488	0.105	932976	keystroke_r	r	n/a
466.788	0.15	933576	keystroke_s	s	n/a
466.908	0.104	933816	keystroke_e	e	n/a
467.432	0.09	934864	keystroke_Key.backspace	Key.backspace	n/a
467.5975	0.0745	935195	keystroke_Key.backspace	Key.backspace	n/a
467.793	0.15	935586	keystroke_e	e	n/a
467.867	0.136	935734	keystroke_s	s	n/a
468.032	0.1055	936064	keystroke_Key.space	Key.space	n/a
468.722	0.0905	937444	keystroke_m	m	n/a
468.7965	0.091	937593	keystroke_e	e	n/a
468.8875	0.1805	937775	keystroke_a	a	n/a
468.9925	0.0905	937985	keystroke_s	s	n/a
469.1725	0.09	938345	keystroke_u	u	n/a
469.278	0.134	938556	keystroke_r	r	n/a
469.352	0.1055	938704	keystroke_e	e	n/a
469.4875	0.09	938975	keystroke_Key.space	Key.space	n/a
470.2525	0.075	940505	keystroke_p	p	n/a
470.3425	0.075	940685	keystroke_r	r	n/a
470.477	0.12	940954	keystroke_i	i	n/a
470.5525	0.1195	941105	keystroke_n	n	n/a
470.627	0.09	941254	keystroke_t	t	n/a
470.7625	0.1345	941525	keystroke_e	e	n/a
470.8375	0.1055	941675	keystroke_r	r	n/a
471.2125	0.0595	942425	keystroke_Key.enter	Key.enter	n/a
471.2765	7.122	942553	prompt	n/a	smoking extended silence executive\n
472.068	0.09	944136	keystroke_s	s	n/a
472.143	0.06	944286	keystroke_m	m	n/a
472.2775	0.1495	944555	keystroke_o	o	n/a
472.367	0.0905	944734	keystroke_k	k	n/a
472.5925	0.12	945185	keystroke_i	i	n/a
472.652	0.0905	945304	keystroke_n	n	n/a
472.7275	0.075	945455	keystroke_g	g	n/a
472.8325	0.104	945665	keystroke_Key.space	Key.space	n/a
472.9665	0.0755	945933	keystroke_e	e	n/a
473.193	0.075	946386	keystroke_x	x	n/a
473.702	0.1355	947404	keystroke_t	t	n/a
473.8225	0.1045	947645	keystroke_e	e	n/a
473.957	0.09	947914	keystroke_n	n	n/a
474.077	0.105	948154	keystroke_d	d	n/a
474.2875	0.0605	948575	keystroke_e	e	n/a
474.408	0.105	948816	keystroke_d	d	n/a
474.527	0.075	949054	keystroke_Key.space	Key.space	n/a
474.7825	0.09	949565	keystroke_s	s	n/a
474.8875	0.105	949775	keystroke_i	i	n/a
475.1125	0.0605	950225	keystroke_l	l	n/a
475.2025	0.089	950405	keystroke_e	e	n/a
475.3065	0.091	950613	keystroke_n	n	n/a
475.4275	0.12	950855	keystroke_c	c	n/a
475.503	0.1045	951006	keystroke_e	e	n/a
475.5915	0.106	951183	keystroke_Key.space	Key.space	n/a
476.0125	0.09	952025	keystroke_e	e	n/a
476.3425	0.075	952685	keystroke_x	x	n/a
476.5975	0.105	953195	keystroke_e	e	n/a
476.7175	0.045	953435	keystroke_c	c	n/a
477.3625	0.0605	954725	keystroke_u	u	n/a
477.4375	0.06	954875	keystroke_t	t	n/a
477.6175	0.075	955235	keystroke_i	i	n/a
477.7225	0.1345	955445	keystroke_v	v	n/a
477.872	0.1055	955744	keystroke_e	e	n/a
478.3225	0.0745	956645	keystroke_Key.enter	Key.enter	n/a
478.403	7.7225	956806	prompt	n/a	prevention women blues morning\n
479.252	0.06	958504	keystroke_p	p	n/a
479.327	0.15	958654	keystroke_r	r	n/a
479.463	0.104	958926	keystroke_e	e	n/a
479.673	0.1045	959346	keystroke_v	v	n/a
479.7785	0.1185	959557	keystroke_e	e	n/a
479.9115	0.076	959823	keystroke_n	n	n/a
480.0015	0.076	960003	keystroke_t	t	n/a
480.182	0.1045	960364	keystroke_i	i	n/a
480.272	0.15	960544	keystroke_o	o	n/a
480.4065	0.075	960813	keystroke_n	n	n/a
480.5565	0.1055	961113	keystroke_Key.space	Key.space	n/a
481.3525	0.12	962705	keystroke_w	w	n/a
481.427	0.1205	962854	keystroke_o	o	n/a
481.5025	0.105	963005	keystroke_m	m	n/a
481.6525	0.0895	963305	keystroke_e	e	n/a
481.757	0.075	963514	keystroke_n	n	n/a
481.862	0.12	963724	keystroke_Key.space	Key.space	n/a
482.6125	0.0895	965225	keystroke_b	b	n/a
482.7765	0.091	965553	keystroke_l	l	n/a
483.017	0.105	966034	keystroke_u	u	n/a
483.152	0.09	966304	keystroke_e	e	n/a
483.362	0.091	966724	keystroke_s	s	n/a
483.467	0.06	966934	keystroke_Key.space	Key.space	n/a
483.677	0.1055	967354	keystroke_m	m	n/a
483.812	0.18	967624	keystroke_o	o	n/a
484.3825	0.089	968765	keystroke_r	r	n/a
484.7415	0.076	969483	keystroke_Key.backspace	Key.backspace	n/a
485.087	0.075	970174	keystroke_r	r	n/a
485.2065	0.1055	970413	keystroke_n	n	n/a
485.373	0.135	970746	keystroke_i	i	n/a
485.463	0.074	970926	keystroke_n	n	n/a
485.522	0.0895	971044	keystroke_g	g	n/a
485.6265	0.105	971253	keystroke_Key.space	Key.space	n/a
486.0175	0.105	972035	keystroke_Key.enter	Key.enter	n/a
486.1355	8.5855	972271	prompt	n/a	cellular immunology rooms harmony\n
487.053	0.1345	974106	keystroke_c	c	n/a
487.1425	0.1045	974285	keystroke_e	e	n/a
487.2775	0.21	974555	keystroke_l	l	n/a
488.1325	0.0895	976265	keystroke_l	l	n/a
488.402	0.105	976804	keystroke_u	u	n/a
488.627	0.1055	977254	keystroke_l	l	n/a
488.897	0.135	977794	keystroke_a	a	n/a
488.972	0.121	977944	keystroke_r	r	n/a
489.107	0.09	978214	keystroke_Key.space	Key.space	n/a
489.917	0.0755	979834	keystroke_i	i	n/a
490.1265	0.0605	980253	keystroke_m	m	n/a
490.2475	0.06	980495	keystroke_m	m	n/a
490.4425	0.105	980885	keystroke_u	u	n/a
490.5025	0.105	981005	keystroke_n	n	n/a
490.6815	0.075	981363	keystroke_o	o	n/a
490.8615	0.075	981723	keystroke_l	l	n/a
491.028	0.0745	982056	keystroke_o	o	n/a
491.0875	0.09	982175	keystroke_g	g	n/a
491.4625	0.06	982925	keystroke_y	y	n/a
491.672	0.0895	983344	keystroke_Key.space	Key.space	n/a
491.9725	0.09	983945	keystroke_r	r	n/a
492.1075	0.075	984215	keystroke_o	o	n/a
492.2575	0.12	984515	keystroke_o	o	n/a
492.422	0.105	984844	keystroke_m	m	n/a
492.543	0.119	985086	keystroke_s	s	n/a
492.647	0.09	985294	keystroke_Key.space	Key.space	n/a
493.367	0.09	986734	keystroke_h	h	n/a
493.562	0.15	987124	keystroke_a	a	n/a
493.667	0.0905	987334	keystroke_r	r	n/a
493.8325	0.0745	987665	keystroke_m	m	n/a
494.012	0.12	988024	keystroke_o	o	n/a
494.208	0.104	988416	keystroke_n	n	n/a
494.357	0.06	988714	keystroke_y	y	n/a
494.597	0.12	989194	keystroke_Key.enter	Key.enter	n/a
494.7375	14.141	989475	prompt	n/a	inappropriate notion handbags mission\n
495.677	0.105	991354	keystroke_i	i	n/a
495.873	0.104	991746	keystroke_n	n	n/a
496.112	0.105	992224	keystroke_a	a	n/a
496.487	0.076	992974	keystroke_p	p	n/a
496.668	0.029	993336	keystroke_p	p	n/a
497.087	0.09	994174	keystroke_r	r	n/a
497.5675	0.0595	995135	keystroke_o	o	n/a
497.733	0.0745	995466	keystroke_p	p	n/a
499.925	0.012	999850	keystroke_Key.backspace	Key.backspace	n/a
500.0715	0.076	1000143	keystroke_Key.backspace	Key.backspace	n/a
500.252	0.075	1000504	keystroke_Key.backspace	Key.backspace	n/a
500.432	0.075	1000864	keystroke_Key.backspace	Key.backspace	n/a
500.627	0.0895	1001254	keystroke_Key.backspace	Key.backspace	n/a
501.017	0.075	1002034	keystroke_Key.backspace	Key.backspace	n/a
501.7825	0.1045	1003565	keystroke_a	a	n/a
501.9925	0.0595	1003985	keystroke_p	p	n/a
502.097	0.09	1004194	keystroke_p	p	n/a
502.247	0.0905	1004494	keystroke_r	r	n/a
502.7125	0.045	1005425	keystroke_o	o	n/a
503.8375	0.03	1007675	keystroke_p	p	n/a
503.9115	0.106	1007823	keystroke_r	r	n/a
504.4665	0.0755	1008933	keystroke_i	i	n/a
504.5715	0.1205	1009143	keystroke_a	a	n/a
504.7065	0.1655	1009413	keystroke_t	t	n/a
504.8265	0.1205	1009653	keystroke_e	e	n/a
504.9925	0.03	1009985	keystroke_Key.space	Key.space	n/a
505.1575	0.1045	1010315	keystroke_n	n	n/a
505.2325	0.1195	1010465	keystroke_o	o	n/a
505.367	0.0605	1010734	keystroke_t	t	n/a
505.577	0.104	1011154	keystroke_i	i	n/a
505.6375	0.1345	1011275	keystroke_o	o	n/a
505.8175	0.09	1011635	keystroke_n	n	n/a
505.922	0.105	1011844	keystroke_Key.space	Key.space	n/a
506.3575	0.0745	1012715	keystroke_h	h	n/a
506.447	0.12	1012894	keystroke_a	a	n/a
506.582	0.09	1013164	keystroke_n	n	n/a
506.702	0.06	1013404	keystroke_d	d	n/a
506.853	0.089	1013706	keystroke_b	b	n/a
506.9725	0.1045	1013945	keystroke_a	a	n/a
507.1225	0.0605	1014245	keystroke_g	g	n/a
507.2125	0.1045	1014425	keystroke_s	s	n/a
507.377	0.09	1014754	keystroke_Key.space	Key.space	n/a
507.8565	0.09	1015713	keystroke_m	m	n/a
508.0075	0.09	1016015	keystroke_i	i	n/a
508.1425	0.075	1016285	keystroke_s	s	n/a
508.2925	0.104	1016585	keystroke_s	s	n/a
508.3815	0.091	1016763	keystroke_i	i	n/a
508.457	0.135	1016914	keystroke_o	o	n/a
508.576	0.106	1017152	keystroke_n	n	n/a
508.772	0.105	1017544	keystroke_Key.enter	Key.enter	n/a
508.8825	10.466	1017765	prompt	n/a	toolkit sporting nodes customers\n
509.927	0.06	1019854	keystroke_t	t	n/a
510.002	0.06	1020004	keystroke_o	o	n/a
510.167	0.0755	1020334	keystroke_l	l	n/a
512.192	0.075	1024384	keystroke_Key.backspace	Key.backspace	n/a
512.8075	0.074	1025615	keystroke_p	p	n/a
513.272	0.1195	1026544	keystroke_Key.backspace	Key.backspace	n/a
513.5415	0.0755	1027083	keystroke_o	o	n/a
513.9325	0.075	1027865	keystroke_l	l	n/a
514.2775	0.0595	1028555	keystroke_k	k	n/a
514.427	0.075	1028854	keystroke_i	i	n/a
514.562	0.075	1029124	keystroke_t	t	n/a
514.9675	0.0595	1029935	keystroke_Key.space	Key.space	n/a
515.5665	0.105	1031133	keystroke_s	s	n/a
515.6575	0.059	1031315	keystroke_p	p	n/a
515.852	0.0755	1031704	keystroke_o	o	n/a
515.9115	0.135	1031823	keystroke_r	r	n/a
516.1215	0.0755	1032243	keystroke_t	t	n/a
516.2265	0.1355	1032453	keystroke_i	i	n/a
516.3165	0.0755	1032633	keystroke_n	n	n/a
516.377	0.09	1032754	keystroke_g	g	n/a
516.512	0.075	1033024	keystroke_Key.space	Key.space	n/a
516.7665	0.1355	1033533	keystroke_n	n	n/a
516.8865	0.1055	1033773	keystroke_o	o	n/a
517.022	0.105	1034044	keystroke_d	d	n/a
517.232	0.045	1034464	keystroke_e	e	n/a
517.682	0.0905	1035364	keystroke_s	s	n/a
517.802	0.075	1035604	keystroke_Key.space	Key.space	n/a
518.222	0.0895	1036444	keystroke_c	c	n/a
518.3275	0.089	1036655	keystroke_u	u	n/a
518.4015	0.075	1036803	keystroke_s	s	n/a
518.5515	0.076	1037103	keystroke_t	t	n/a
518.6715	0.121	1037343	keystroke_o	o	n/a
518.7625	0.09	1037525	keystroke_m	m	n/a
518.7625	0.105	1037525	keystroke_e	e	n/a
518.8375	0.074	1037675	keystroke_r	r	n/a
518.9575	0.12	1037915	keystroke_s	s	n/a
519.2265	0.12	1038453	keystroke_Key.enter	Key.enter	n/a
519.355	10.268	1038710	prompt	n/a	altered confirmation he'll soldier\n
520.052	0.105	1040104	keystroke_a	a	n/a
520.142	0.105	1040284	keystroke_l	l	n/a
520.337	0.09	1040674	keystroke_t	t	n/a
520.502	0.1055	1041004	keystroke_e	e	n/a
520.562	0.18	1041124	keystroke_r	r	n/a
520.6825	0.1495	1041365	keystroke_e	e	n/a
520.847	0.105	1041694	keystroke_d	d	n/a
521.012	0.1045	1042024	keystroke_Key.space	Key.space	n/a
521.327	0.0745	1042654	keystroke_c	c	n/a
521.4165	0.106	1042833	keystroke_o	o	n/a
521.462	0.1195	1042924	keystroke_n	n	n/a
521.6275	0.0885	1043255	keystroke_f	f	n/a
521.732	0.0905	1043464	keystroke_i	i	n/a
521.942	0.09	1043884	keystroke_r	r	n/a
522.137	0.0895	1044274	keystroke_m	m	n/a
522.257	0.09	1044514	keystroke_a	a	n/a
522.4065	0.061	1044813	keystroke_t	t	n/a
522.5115	0.105	1045023	keystroke_i	i	n/a
522.587	0.1645	1045174	keystroke_o	o	n/a
522.767	0.0745	1045534	keystroke_n	n	n/a
522.9015	0.1055	1045803	keystroke_Key.space	Key.space	n/a
523.577	0.09	1047154	keystroke_g	g	n/a
523.636	0.106	1047272	keystroke_e	e	n/a
524.207	0.03	1048414	keystroke_=	=	n/a
524.357	0.06	1048714	keystroke_Key.backspace	Key.backspace	n/a
524.987	0.105	1049974	keystroke_Key.backspace	Key.backspace	n/a
525.152	0.075	1050304	keystroke_Key.backspace	Key.backspace	n/a
525.947	0.135	1051894	keystroke_h	h	n/a
526.142	0.12	1052284	keystroke_e	e	n/a
526.6215	0.0605	1053243	keystroke_'	'	n/a
527.1915	0.0455	1054383	keystroke_l	l	n/a
527.281	0.061	1054562	keystroke_l	l	n/a
527.386	0.0905	1054772	keystroke_Key.space	Key.space	n/a
528.542	0.09	1057084	keystroke_s	s	n/a
528.617	0.06	1057234	keystroke_o	o	n/a
528.7665	0.075	1057533	keystroke_l	l	n/a
528.827	0.1045	1057654	keystroke_d	d	n/a
529.052	0.089	1058104	keystroke_e	e	n/a
529.096	0.076	1058192	keystroke_r	r	n/a
529.5165	0.105	1059033	keystroke_Key.enter	Key.enter	n/a
529.64	7.1085	1059280	prompt	n/a	lawrence rolls addiction pension\n
530.522	0.09	1061044	keystroke_l	l	n/a
530.582	0.1495	1061164	keystroke_a	a	n/a
530.717	0.1045	1061434	keystroke_w	w	n/a
530.9265	0.09	1061853	keystroke_r	r	n/a
531.167	0.09	1062334	keystroke_e	e	n/a
531.3015	0.09	1062603	keystroke_n	n	n/a
531.4065	0.151	1062813	keystroke_c	c	n/a
531.497	0.0905	1062994	keystroke_e	e	n/a
531.6315	0.0905	1063263	keystroke_Key.space	Key.space	n/a
532.3675	0.059	1064735	keystroke_r	r	n/a
532.457	0.0745	1064914	keystroke_o	o	n/a
532.637	0.1055	1065274	keystroke_l	l	n/a
532.817	0.0595	1065634	keystroke_l	l	n/a
532.9515	0.105	1065903	keystroke_s	s	n/a
533.1015	0.09	1066203	keystroke_Key.space	Key.space	n/a
533.491	0.091	1066982	keystroke_a	a	n/a
533.597	0.0445	1067194	keystroke_d	d	n/a
533.7315	0.06	1067463	keystroke_d	d	n/a
533.8665	0.091	1067733	keystroke_i	i	n/a
533.9415	0.061	1067883	keystroke_c	c	n/a
534.1515	0.0605	1068303	keystroke_t	t	n/a
534.287	0.104	1068574	keystroke_i	i	n/a
534.347	0.18	1068694	keystroke_o	o	n/a
534.497	0.1055	1068994	keystroke_n	n	n/a
534.647	0.075	1069294	keystroke_Key.space	Key.space	n/a
535.5615	0.076	1071123	keystroke_p	p	n/a
535.742	0.1045	1071484	keystroke_r	r	n/a
535.802	0.0895	1071604	keystroke_e	e	n/a
535.9065	0.0915	1071813	keystroke_n	n	n/a
536.012	0.09	1072024	keystroke_s	s	n/a
536.207	0.0755	1072414	keystroke_i	i	n/a
536.267	0.135	1072534	keystroke_o	o	n/a
536.417	0.075	1072834	keystroke_n	n	n/a
536.672	0.075	1073344	keystroke_Key.enter	Key.enter	n/a
536.7665	7.167	1073533	prompt	n/a	pepper physics spanish decisions\n
538.052	0.06	1076104	keystroke_p	p	n/a
538.157	0.09	1076314	keystroke_e	e	n/a
538.262	0.059	1076524	keystroke_p	p	n/a
538.382	0.09	1076764	keystroke_p	p	n/a
538.5915	0.09	1077183	keystroke_e	e	n/a
538.6515	0.091	1077303	keystroke_r	r	n/a
538.772	0.075	1077544	keystroke_Key.space	Key.space	n/a
539.057	0.089	1078114	keystroke_p	p	n/a
539.327	0.0755	1078654	keystroke_h	h	n/a
539.522	0.045	1079044	keystroke_y	y	n/a
539.5825	0.0895	1079165	keystroke_s	s	n/a
539.747	0.06	1079494	keystroke_i	i	n/a
539.838	0.1185	1079676	keystroke_c	c	n/a
539.942	0.1055	1079884	keystroke_s	s	n/a
540.091	0.076	1080182	keystroke_Key.space	Key.space	n/a
540.722	0.089	1081444	keystroke_s	s	n/a
540.826	0.106	1081652	keystroke_p	p	n/a
540.962	0.075	1081924	keystroke_a	a	n/a
541.082	0.0905	1082164	keystroke_n	n	n/a
541.262	0.09	1082524	keystroke_i	i	n/a
541.366	0.0905	1082732	keystroke_s	s	n/a
541.4865	0.0755	1082973	keystroke_h	h	n/a
541.5765	0.105	1083153	keystroke_Key.space	Key.space	n/a
542.702	0.09	1085404	keystroke_d	d	n/a
542.912	0.0295	1085824	keystroke_e	e	n/a
543.0775	0.059	1086155	keystroke_c	c	n/a
543.1815	0.0905	1086363	keystroke_i	i	n/a
543.3325	0.0745	1086665	keystroke_s	s	n/a
543.392	0.089	1086784	keystroke_i	i	n/a
543.527	0.12	1087054	keystroke_o	o	n/a
543.602	0.1055	1087204	keystroke_n	n	n/a
543.842	0.09	1087684	keystroke_Key.enter	Key.enter	n/a
543.9405	10.208	1087881	prompt	n/a	steam returned includes interpreted\n
544.8465	0.09	1089693	keystroke_s	s	n/a
545.1625	0.1335	1090325	keystroke_t	t	n/a
545.237	0.089	1090474	keystroke_r	r	n/a
545.3875	0.134	1090775	keystroke_w	w	n/a
545.6425	0.089	1091285	keystroke_m	m	n/a
546.062	0.045	1092124	keystroke_Key.backspace	Key.backspace	n/a
546.271	0.045	1092542	keystroke_Key.backspace	Key.backspace	n/a
546.332	0.06	1092664	keystroke_Key.backspace	Key.backspace	n/a
547.577	0.1355	1095154	keystroke_e	e	n/a
547.637	0.12	1095274	keystroke_a	a	n/a
547.802	0.089	1095604	keystroke_m	m	n/a
547.906	0.12	1095812	keystroke_Key.space	Key.space	n/a
548.837	0.1345	1097674	keystroke_r	r	n/a
548.912	0.1345	1097824	keystroke_e	e	n/a
549.062	0.0905	1098124	keystroke_t	t	n/a
549.1975	0.1045	1098395	keystroke_u	u	n/a
549.272	0.1195	1098544	keystroke_r	r	n/a
549.4215	0.075	1098843	keystroke_n	n	n/a
549.467	0.0905	1098934	keystroke_e	e	n/a
549.647	0.09	1099294	keystroke_d	d	n/a
549.7215	0.09	1099443	keystroke_Key.space	Key.space	n/a
550.0225	0.09	1100045	keystroke_i	i	n/a
550.0515	0.121	1100103	keystroke_n	n	n/a
550.2625	0.0895	1100525	keystroke_c	c	n/a
550.382	0.15	1100764	keystroke_l	l	n/a
550.697	0.075	1101394	keystroke_u	u	n/a
550.937	0.1345	1101874	keystroke_d	d	n/a
551.1625	0.0445	1102325	keystroke_e	e	n/a
551.312	0.09	1102624	keystroke_s	s	n/a
551.447	0.0895	1102894	keystroke_Key.space	Key.space	n/a
552.0765	0.1205	1104153	keystroke_i	i	n/a
552.1365	0.121	1104273	keystroke_n	n	n/a
552.2425	0.089	1104485	keystroke_t	t	n/a
552.392	0.119	1104784	keystroke_e	e	n/a
552.451	0.1215	1104902	keystroke_r	r	n/a
552.797	0.09	1105594	keystroke_p	p	n/a
552.9625	0.1345	1105925	keystroke_r	r	n/a
553.022	0.1205	1106044	keystroke_e	e	n/a
553.292	0.075	1106584	keystroke_t	t	n/a
553.427	0.09	1106854	keystroke_e	e	n/a
553.591	0.075	1107182	keystroke_d	d	n/a
553.7265	0.0605	1107453	keystroke_Key.space	Key.space	n/a
554.057	0.09	1108114	keystroke_Key.enter	Key.enter	n/a
554.1525	8.3055	1108305	prompt	n/a	concentration viking making testament\n
554.9725	0.074	1109945	keystroke_c	c	n/a
555.1225	0.12	1110245	keystroke_o	o	n/a
555.1825	0.105	1110365	keystroke_n	n	n/a
555.2725	0.104	1110545	keystroke_c	c	n/a
555.3465	0.106	1110693	keystroke_e	e	n/a
555.4375	0.089	1110875	keystroke_n	n	n/a
555.572	0.0895	1111144	keystroke_t	t	n/a
555.7975	0.1045	1111595	keystroke_r	r	n/a
556.022	0.135	1112044	keystroke_a	a	n/a
556.9225	0.06	1113845	keystroke_t	t	n/a
556.9975	0.0745	1113995	keystroke_i	i	n/a
557.0275	0.149	1114055	keystroke_o	o	n/a
557.1925	0.104	1114385	keystroke_n	n	n/a
557.3115	0.105	1114623	keystroke_Key.space	Key.space	n/a
558.062	0.06	1116124	keystroke_v	v	n/a
558.107	0.075	1116214	keystroke_i	i	n/a
558.287	0.075	1116574	keystroke_k	k	n/a
558.482	0.1045	1116964	keystroke_i	i	n/a
558.542	0.105	1117084	keystroke_n	n	n/a
558.617	0.12	1117234	keystroke_g	g	n/a
558.752	0.075	1117504	keystroke_Key.space	Key.space	n/a
558.932	0.09	1117864	keystroke_m	m	n/a
559.037	0.105	1118074	keystroke_a	a	n/a
559.112	0.0895	1118224	keystroke_k	k	n/a
559.4265	0.1355	1118853	keystroke_i	i	n/a
559.487	0.105	1118974	keystroke_n	n	n/a
559.577	0.09	1119154	keystroke_g	g	n/a
559.697	0.119	1119394	keystroke_Key.space	Key.space	n/a
560.4765	0.1055	1120953	keystroke_d	d	n/a
560.8365	0.09	1121673	keystroke_Key.backspace	Key.backspace	n/a
561.002	0.12	1122004	keystroke_t	t	n/a
561.107	0.075	1122214	keystroke_e	e	n/a
561.287	0.074	1122574	keystroke_s	s	n/a
561.4525	0.0745	1122905	keystroke_t	t	n/a
561.737	0.075	1123474	keystroke_a	a	n/a
561.931	0.0765	1123862	keystroke_m	m	n/a
562.037	0.075	1124074	keystroke_e	e	n/a
562.141	0.076	1124282	keystroke_n	n	n/a
562.217	0.06	1124434	keystroke_t	t	n/a
562.381	0.075	1124762	keystroke_Key.enter	Key.enter	n/a
562.4615	9.7625	1124923	prompt	n/a	crawford calculate packages parade\n
563.402	0.06	1126804	keystroke_c	c	n/a
563.612	0.12	1127224	keystroke_r	r	n/a
563.672	0.1355	1127344	keystroke_e	e	n/a
565.217	0.06	1130434	keystroke_Key.backspace	Key.backspace	n/a
565.5615	0.1205	1131123	keystroke_a	a	n/a
565.6665	0.091	1131333	keystroke_w	w	n/a
565.907	0.0745	1131814	keystroke_f	f	n/a
566.2215	0.0755	1132443	keystroke_o	o	n/a
566.312	0.0595	1132624	keystroke_r	r	n/a
566.4615	0.09	1132923	keystroke_d	d	n/a
566.5665	0.09	1133133	keystroke_Key.space	Key.space	n/a
566.8215	0.1045	1133643	keystroke_c	c	n/a
566.911	0.106	1133822	keystroke_a	a	n/a
567.0325	0.0895	1134065	keystroke_l	l	n/a
567.182	0.059	1134364	keystroke_c	c	n/a
567.377	0.06	1134754	keystroke_u	u	n/a
567.587	0.075	1135174	keystroke_l	l	n/a
567.647	0.09	1135294	keystroke_a	a	n/a
567.767	0.12	1135534	keystroke_t	t	n/a
567.8725	0.0895	1135745	keystroke_e	e	n/a
567.9765	0.075	1135953	keystroke_Key.space	Key.space	n/a
569.282	0.09	1138564	keystroke_p	p	n/a
569.4325	0.15	1138865	keystroke_a	a	n/a
569.507	0.1205	1139014	keystroke_c	c	n/a
569.837	0.0755	1139674	keystroke_k	k	n/a
569.957	0.136	1139914	keystroke_a	a	n/a
570.272	0.0155	1140544	keystroke_g	g	n/a
570.542	0.075	1141084	keystroke_e	e	n/a
570.692	0.12	1141384	keystroke_s	s	n/a
570.827	0.09	1141654	keystroke_Key.space	Key.space	n/a
571.3365	0.09	1142673	keystroke_p	p	n/a
571.411	0.091	1142822	keystroke_a	a	n/a
571.547	0.105	1143094	keystroke_r	r	n/a
571.667	0.164	1143334	keystroke_a	a	n/a
571.802	0.09	1143604	keystroke_d	d	n/a
572.012	0.075	1144024	keystroke_e	e	n/a
572.117	0.1045	1144234	keystroke_Key.enter	Key.enter	n/a
572.2285	5.351	1144457	prompt	n/a	retained bored oils enemy\n
573.0775	0.135	1146155	keystroke_r	r	n/a
573.122	0.149	1146244	keystroke_e	e	n/a
573.4365	0.076	1146873	keystroke_t	t	n/a
573.6025	0.0895	1147205	keystroke_a	a	n/a
573.722	0.135	1147444	keystroke_i	i	n/a
573.812	0.105	1147624	keystroke_n	n	n/a
573.902	0.0755	1147804	keystroke_e	e	n/a
574.052	0.089	1148104	keystroke_d	d	n/a
574.127	0.089	1148254	keystroke_Key.space	Key.space	n/a
574.367	0.09	1148734	keystroke_b	b	n/a
574.5325	0.1045	1149065	keystroke_o	o	n/a
574.592	0.105	1149184	keystroke_r	r	n/a
574.6525	0.0895	1149305	keystroke_e	e	n/a
574.772	0.09	1149544	keystroke_d	d	n/a
574.847	0.075	1149694	keystroke_Key.space	Key.space	n/a
575.0275	0.1045	1150055	keystroke_o	o	n/a
575.207	0.135	1150414	keystroke_i	i	n/a
575.357	0.09	1150714	keystroke_l	l	n/a
575.492	0.105	1150984	keystroke_s	s	n/a
575.5815	0.0895	1151163	keystroke_Key.space	Key.space	n/a
575.7925	0.1045	1151585	keystroke_e	e	n/a
575.882	0.09	1151764	keystroke_n	n	n/a
575.973	0.089	1151946	keystroke_e	e	n/a
577.202	0.09	1154404	keystroke_m	m	n/a
577.277	0.06	1154554	keystroke_y	y	n/a
577.502	0.075	1155004	keystroke_Key.enter	Key.enter	n/a
577.5875	7.387	1155175	prompt	n/a	excluded invalid missing warrior\n
578.507	0.075	1157014	keystroke_e	e	n/a
578.807	0.09	1157614	keystroke_x	x	n/a
579.017	0.06	1158034	keystroke_c	c	n/a
579.092	0.075	1158184	keystroke_l	l	n/a
579.302	0.06	1158604	keystroke_u	u	n/a
579.602	0.1205	1159204	keystroke_d	d	n/a
581.131	0.0765	1162262	keystroke_e	e	n/a
581.296	0.091	1162592	keystroke_d	d	n/a
581.401	0.09	1162802	keystroke_Key.space	Key.space	n/a
581.866	0.105	1163732	keystroke_i	i	n/a
581.9115	0.1205	1163823	keystroke_n	n	n/a
582.016	0.075	1164032	keystroke_v	v	n/a
582.167	0.105	1164334	keystroke_a	a	n/a
582.287	0.074	1164574	keystroke_l	l	n/a
582.4975	0.0735	1164995	keystroke_i	i	n/a
582.5865	0.1065	1165173	keystroke_d	d	n/a
582.677	0.09	1165354	keystroke_Key.space	Key.space	n/a
582.857	0.0745	1165714	keystroke_m	m	n/a
582.992	0.089	1165984	keystroke_i	i	n/a
583.112	0.074	1166224	keystroke_s	s	n/a
583.2325	0.1195	1166465	keystroke_s	s	n/a
583.337	0.104	1166674	keystroke_i	i	n/a
583.3965	0.1055	1166793	keystroke_n	n	n/a
583.517	0.075	1167034	keystroke_g	g	n/a
583.606	0.1055	1167212	keystroke_Key.space	Key.space	n/a
584.012	0.06	1168024	keystroke_w	w	n/a
584.162	0.105	1168324	keystroke_a	a	n/a
584.327	0.0595	1168654	keystroke_r	r	n/a
584.4465	0.0755	1168893	keystroke_r	r	n/a
584.552	0.135	1169104	keystroke_i	i	n/a
584.642	0.089	1169284	keystroke_o	o	n/a
584.6715	0.0755	1169343	keystroke_r	r	n/a
584.866	0.105	1169732	keystroke_Key.enter	Key.enter	n/a
584.9935	13.6145	1169987	prompt	n/a	department physical sympathy arabic\n
585.7525	0.074	1171505	keystroke_d	d	n/a
585.932	0.0745	1171864	keystroke_e	e	n/a
586.022	0.0895	1172044	keystroke_p	p	n/a
586.1125	0.1045	1172225	keystroke_a	a	n/a
586.232	0.0895	1172464	keystroke_r	r	n/a
586.4565	0.06	1172913	keystroke_t	t	n/a
586.5765	0.1055	1173153	keystroke_m	m	n/a
586.6665	0.075	1173333	keystroke_e	e	n/a
586.7865	0.076	1173573	keystroke_n	n	n/a
586.832	0.0755	1173664	keystroke_t	t	n/a
586.9515	0.09	1173903	keystroke_Key.space	Key.space	n/a
587.2965	0.076	1174593	keystroke_p	p	n/a
587.4915	0.075	1174983	keystroke_h	h	n/a
587.6415	0.0915	1175283	keystroke_y	y	n/a
587.748	0.074	1175496	keystroke_s	s	n/a
587.896	0.075	1175792	keystroke_i	i	n/a
587.956	0.1065	1175912	keystroke_c	c	n/a
588.077	0.089	1176154	keystroke_a	a	n/a
588.181	0.0755	1176362	keystroke_l	l	n/a
588.2865	0.0755	1176573	keystroke_Key.space	Key.space	n/a
588.557	0.06	1177114	keystroke_s	s	n/a
588.917	0.06	1177834	keystroke_y	y	n/a
589.172	0.0595	1178344	keystroke_m	m	n/a
589.3515	0.06	1178703	keystroke_o	o	n/a
589.4415	0.045	1178883	keystroke_a	a	n/a
589.6815	0.1205	1179363	keystroke_t	t	n/a
589.7415	0.0905	1179483	keystroke_h	h	n/a
589.9365	0.0605	1179873	keystroke_y	y	n/a
590.056	0.1205	1180112	keystroke_Key.space	Key.space	n/a
590.477	0.15	1180954	keystroke_a	a	n/a
590.8075	0.1335	1181615	keystroke_r	r	n/a
590.986	0.1055	1181972	keystroke_a	a	n/a
591.287	0.0745	1182574	keystroke_b	b	n/a
591.6165	0.0745	1183233	keystroke_i	i	n/a
591.706	0.106	1183412	keystroke_c	c	n/a
593.8985	0.001	1187797	keystroke_Key.backspace	Key.backspace	n/a
593.9705	0.061	1187941	keystroke_Key.backspace	Key.backspace	n/a
594.1065	0.075	1188213	keystroke_Key.backspace	Key.backspace	n/a
594.2415	0.09	1188483	keystroke_Key.backspace	Key.backspace	n/a
594.3765	0.045	1188753	keystroke_Key.backspace	Key.backspace	n/a
594.4815	0.12	1188963	keystroke_Key.backspace	Key.backspace	n/a
594.662	0.059	1189324	keystroke_Key.backspace	Key.backspace	n/a
594.7965	0.0595	1189593	keystroke_Key.backspace	Key.backspace	n/a
594.9315	0.0895	1189863	keystroke_Key.backspace	Key.backspace	n/a
595.081	0.075	1190162	keystroke_Key.backspace	Key.backspace	n/a
595.2315	0.0905	1190463	keystroke_Key.backspace	Key.backspace	n/a
595.696	0.0605	1191392	keystroke_Key.backspace	Key.backspace	n/a
