onset	duration	sample	value	key	prompt_text
2.9585	18.4435	5917	prompt	n/a	the quick brown fox jumps over a lazy dog\n
7.3785	0	14757	keystroke	t	n/a
7.4925	0.0445	14985	keystroke	h	n/a
7.597	0.075	15194	keystroke	e	n/a
7.747	0.09	15494	keystroke	Key.space	n/a
8.4225	0.105	16845	keystroke	q	n/a
8.6175	0.075	17235	keystroke	u	n/a
8.7825	0.09	17565	keystroke	i	n/a
8.9325	0.075	17865	keystroke	c	n/a
9.0375	0.09	18075	keystroke	k	n/a
9.2175	0.075	18435	keystroke	Key.space	n/a
9.5775	0.075	19155	keystroke	b	n/a
9.7875	0.1045	19575	keystroke	r	n/a
10.312	0.0755	20624	keystroke	o	n/a
10.4175	0.09	20835	keystroke	w	n/a
10.5375	0.075	21075	keystroke	n	n/a
10.7175	0.075	21435	keystroke	Key.space	n/a
10.9275	0.075	21855	keystroke	f	n/a
10.9875	0.15	21975	keystroke	o	n/a
11.4975	0.075	22995	keystroke	c	n/a
12.007	0.075	24014	keystroke	Key.backspace	n/a
12.112	0.106	24224	keystroke	x	n/a
12.3225	0.09	24645	keystroke	Key.space	n/a
13.672	0.075	27344	keystroke	u	n/a
13.928	0.104	27856	keystroke	m	n/a
14.257	0.06	28514	keystroke	p	n/a
14.5275	0.0595	29055	keystroke	Key.backspace	n/a
14.6775	0.075	29355	keystroke	Key.backspace	n/a
14.8425	0.0595	29685	keystroke	Key.backspace	n/a
15.5325	0.0595	31065	keystroke	j	n/a
16.4325	0.06	32865	keystroke	u	n/a
16.7025	0.09	33405	keystroke	m	n/a
16.8825	0.1055	33765	keystroke	p	n/a
17.078	0.074	34156	keystroke	s	n/a
17.182	0.09	34364	keystroke	Key.space	n/a
17.377	0.091	34754	keystroke	o	n/a
17.527	0.076	35054	keystroke	v	n/a
17.678	0.134	35356	keystroke	e	n/a
17.782	0.061	35564	keystroke	r	n/a
17.917	0.06	35834	keystroke	Key.space	n/a
18.007	0.091	36014	keystroke	a	n/a
18.143	0.089	36286	keystroke	Key.space	n/a
18.472	0.075	36944	keystroke	l	n/a
18.787	0.09	37574	keystroke	a	n/a
19.1325	0.135	38265	keystroke	z	n/a
19.3875	0.075	38775	keystroke	y	n/a
19.6425	0.09	39285	keystroke	Key.space	n/a
19.9575	0.06	39915	keystroke	d	n/a
20.0475	0.09	40095	keystroke	o	n/a
20.2425	0.075	40485	keystroke	g	n/a
21.3225	0.075	42645	keystroke	Key.enter	n/a
21.4085	11.286	42817	prompt	n/a	tracks community blackberry symbols\n
22.0725	0.09	44145	keystroke	t	n/a
22.2675	0.105	44535	keystroke	r	n/a
22.4775	0.12	44955	keystroke	a	n/a
22.9275	0.075	45855	keystroke	c	n/a
23.1075	0.075	46215	keystroke	k	n/a
23.1975	0.075	46395	keystroke	s	n/a
23.3625	0.06	46725	keystroke	Key.space	n/a
23.7075	0.09	47415	keystroke	c	n/a
23.8425	0.09	47685	keystroke	o	n/a
24.0525	0.075	48105	keystroke	m	n/a
24.2025	0.06	48405	keystroke	m	n/a
24.3825	0.075	48765	keystroke	u	n/a
24.5475	0.075	49095	keystroke	n	n/a
24.7125	0.075	49425	keystroke	i	n/a
24.8325	0.09	49665	keystroke	t	n/a
24.9375	0.045	49875	keystroke	y	n/a
25.1325	0.075	50265	keystroke	Key.space	n/a
25.3425	0.06	50685	keystroke	b	n/a
25.4775	0.09	50955	keystroke	l	n/a
25.5975	0.09	51195	keystroke	a	n/a
25.7175	0.075	51435	keystroke	c	n/a
25.8075	0.075	51615	keystroke	k	n/a
26.1525	0.06	52305	keystroke	b	n/a
26.3625	0.075	52725	keystroke	e	n/a
26.6025	0.045	53205	keystroke	t	n/a
26.7225	0.06	53445	keystroke	t	n/a
26.9025	0.06	53805	keystroke	y	n/a
27.6825	0.06	55365	keystroke	Key.backspace	n/a
27.8475	0.06	55695	keystroke	Key.backspace	n/a
27.9825	0.045	55965	keystroke	Key.backspace	n/a
28.5675	0.045	57135	keystroke	r	n/a
28.7025	0.03	57405	keystroke	r	n/a
28.7625	0.06	57525	keystroke	y	n/a
29.3025	0.09	58605	keystroke	Key.space	n/a
29.5575	0.06	59115	keystroke	s	n/a
29.8875	0.06	59775	keystroke	y	n/a
30.1425	0.075	60285	keystroke	m	n/a
30.6225	0.075	61245	keystroke	b	n/a
30.8625	0.09	61725	keystroke	o	n/a
31.1025	0.09	62205	keystroke	l	n/a
31.2375	0.075	62475	keystroke	s	n/a
32.6325	0.06	65265	keystroke	Key.enter	n/a
32.699	11.246	65398	prompt	n/a	vocal threshold claire spread\n
33.4425	0.105	66885	keystroke	v	n/a
33.7575	0.06	67515	keystroke	o	n/a
34.0425	0.105	68085	keystroke	c	n/a
34.1775	0.075	68355	keystroke	a	n/a
34.2825	0.075	68565	keystroke	l	n/a
34.4775	0.075	68955	keystroke	Key.space	n/a
34.7925	0.06	69585	keystroke	t	n/a
34.9425	0.06	69885	keystroke	r	n/a
35.1975	0.06	70395	keystroke	h	n/a
35.7075	0.06	71415	keystroke	Key.backspace	n/a
35.8425	0.06	71685	keystroke	Key.backspace	n/a
36.0675	0.09	72135	keystroke	h	n/a
36.1875	0.105	72375	keystroke	r	n/a
36.2475	0.105	72495	keystroke	e	n/a
36.5475	0.09	73095	keystroke	s	n/a
36.7425	0.09	73485	keystroke	h	n/a
36.9975	0.09	73995	keystroke	o	n/a
37.6875	0.075	75375	keystroke	l	n/a
37.942	0.076	75884	keystroke	d	n/a
38.062	0.075	76124	keystroke	Key.space	n/a
38.318	0.104	76636	keystroke	c	n/a
38.467	0.09	76934	keystroke	l	n/a
38.663	0.059	77326	keystroke	a	n/a
38.858	0.074	77716	keystroke	i	n/a
39.128	0.12	78256	keystroke	r	n/a
39.353	0.09	78706	keystroke	e	n/a
40.102	0.06	80204	keystroke	Key.space	n/a
40.328	0.09	80656	keystroke	s	n/a
40.492	0.09	80984	keystroke	p	n/a
40.658	0.105	81316	keystroke	r	n/a
40.718	0.12	81436	keystroke	e	n/a
42.9125	0.04	85825	keystroke	a	n/a
43.0575	0.09	86115	keystroke	d	n/a
43.8825	0.06	87765	keystroke	Key.enter	n/a
43.9525	14.7155	87905	prompt	n/a	muscle forward missile transcript\n
44.6175	0.06	89235	keystroke	m	n/a
44.8275	0.06	89655	keystroke	u	n/a
44.9325	0.105	89865	keystroke	s	n/a
45.0375	0.105	90075	keystroke	c	n/a
45.1275	0.075	90255	keystroke	l	n/a
45.2475	0.06	90495	keystroke	e	n/a
45.3675	0.075	90735	keystroke	Key.space	n/a
45.9975	0.045	91995	keystroke	f	n/a
46.1325	0.075	92265	keystroke	o	n/a
46.2975	0.09	92595	keystroke	r	n/a
46.5075	0.075	93015	keystroke	w	n/a
46.6725	0.075	93345	keystroke	a	n/a
46.7625	0.105	93525	keystroke	r	n/a
46.9875	0.075	93975	keystroke	d	n/a
47.1075	0.075	94215	keystroke	Key.space	n/a
47.5275	0.06	95055	keystroke	m	n/a
47.7075	0.06	95415	keystroke	i	n/a
47.8725	0.06	95745	keystroke	s	n/a
48.0075	0.075	96015	keystroke	s	n/a
48.0975	0.075	96195	keystroke	l	n/a
48.2475	0.09	96495	keystroke	Key.space	n/a
48.2925	0.03	96585	keystroke	e	n/a
48.7875	0.075	97575	keystroke	Key.backspace	n/a
48.9375	0.075	97875	keystroke	Key.backspace	n/a
49.0875	0.09	98175	keystroke	e	n/a
49.8825	0.075	99765	keystroke	Key.space	n/a
52.2255	0	104451	keystroke	Key.backspace	n/a
52.3125	0.06	104625	keystroke	Key.backspace	n/a
52.4775	0.075	104955	keystroke	Key.backspace	n/a
53.0925	0.075	106185	keystroke	i	n/a
53.3325	0.015	106665	keystroke	l	n/a
53.3775	0.075	106755	keystroke	e	n/a
53.6625	0.09	107325	keystroke	Key.space	n/a
55.1925	0.09	110385	keystroke	t	n/a
55.3575	0.105	110715	keystroke	r	n/a
55.5525	0.1205	111105	keystroke	a	n/a
56.2745	0.075	112549	keystroke	n	n/a
56.6805	0.06	113361	keystroke	s	n/a
56.8155	0.0905	113631	keystroke	c	n/a
57.1315	0.075	114263	keystroke	r	n/a
57.5675	0.09	115135	keystroke	i	n/a
57.733	0.09	115466	keystroke	p	n/a
57.853	0.0755	115706	keystroke	t	n/a
58.605	0.06	117210	keystroke	Key.enter	n/a
58.673	9.752	117346	prompt	n/a	pleasure liquid cocktail sheffield\n
60.259	0.09	120518	keystroke	p	n/a
60.439	0.0905	120878	keystroke	l	n/a
60.6045	0.1205	121209	keystroke	e	n/a
60.74	0.15	121480	keystroke	a	n/a
60.875	0.1055	121750	keystroke	s	n/a
61.1305	0.0755	122261	keystroke	u	n/a
61.221	0.075	122442	keystroke	r	n/a
61.266	0.1055	122532	keystroke	e	n/a
61.4315	0.09	122863	keystroke	Key.space	n/a
61.627	0.09	123254	keystroke	l	n/a
61.8225	0.075	123645	keystroke	i	n/a
62.124	0.0905	124248	keystroke	q	n/a
62.3035	0.0905	124607	keystroke	u	n/a
62.469	0.09	124938	keystroke	i	n/a
62.8145	0.0605	125629	keystroke	d	n/a
62.935	0.06	125870	keystroke	Key.space	n/a
63.266	0.075	126532	keystroke	c	n/a
63.386	0.09	126772	keystroke	o	n/a
63.6865	0.0755	127373	keystroke	c	n/a
63.792	0.075	127584	keystroke	k	n/a
64.1525	0.0905	128305	keystroke	t	n/a
64.318	0.1055	128636	keystroke	e	n/a
64.7845	0.075	129569	keystroke	Key.backspace	n/a
64.9345	0.0755	129869	keystroke	a	n/a
65.055	0.09	130110	keystroke	i	n/a
65.2505	0.105	130501	keystroke	l	n/a
65.8365	0.0755	131673	keystroke	Key.space	n/a
66.107	0.0755	132214	keystroke	s	n/a
66.2575	0.0755	132515	keystroke	h	n/a
66.408	0.075	132816	keystroke	e	n/a
66.7085	0.03	133417	keystroke	f	n/a
66.829	0.045	133658	keystroke	f	n/a
67.2045	0.0755	134409	keystroke	i	n/a
67.355	0.0755	134710	keystroke	e	n/a
67.4755	0.09	134951	keystroke	l	n/a
67.6405	0.0905	135281	keystroke	d	n/a
68.3775	0.045	136755	keystroke	Key.enter	n/a
68.4295	14.6825	136859	prompt	n/a	diagnosis wisconsin adware sender\n
69.3395	0.06	138679	keystroke	d	n/a
69.61	0.1355	139220	keystroke	i	n/a
69.926	0.09	139852	keystroke	g	n/a
70.3165	0.06	140633	keystroke	a	n/a
71.0235	0.06	142047	keystroke	Key.backspace	n/a
71.1735	0.075	142347	keystroke	Key.backspace	n/a
71.324	0.135	142648	keystroke	a	n/a
71.6245	0.045	143249	keystroke	g	n/a
71.865	0.075	143730	keystroke	n	n/a
72.0455	0.09	144091	keystroke	o	n/a
72.271	0.06	144542	keystroke	s	n/a
72.361	0.075	144722	keystroke	i	n/a
72.421	0.0755	144842	keystroke	s	n/a
72.722	0.075	145444	keystroke	Key.space	n/a
73.158	0.09	146316	keystroke	w	n/a
73.3235	0.09	146647	keystroke	i	n/a
73.669	0.0605	147338	keystroke	s	n/a
73.8495	0.105	147699	keystroke	c	n/a
74.09	0.1355	148180	keystroke	o	n/a
74.1955	0.09	148391	keystroke	n	n/a
74.661	0.0915	149322	keystroke	s	n/a
74.7965	0.06	149593	keystroke	i	n/a
75.879	0.075	151758	keystroke	n	n/a
76.1645	0.0605	152329	keystroke	Key.space	n/a
79.37	0.027	158740	keystroke	a	n/a
79.998	0.0905	159996	keystroke	d	n/a
80.374	0.0905	160748	keystroke	w	n/a
80.5695	0.06	161139	keystroke	a	n/a
80.6595	0.12	161319	keystroke	r	n/a
80.7345	0.1055	161469	keystroke	e	n/a
81.0655	0.075	162131	keystroke	Key.space	n/a
81.5915	0.075	163183	keystroke	s	n/a
81.7415	0.1055	163483	keystroke	e	n/a
81.907	0.0905	163814	keystroke	n	n/a
82.0875	0.06	164175	keystroke	d	n/a
82.253	0.12	164506	keystroke	e	n/a
82.328	0.09	164656	keystroke	r	n/a
83.0645	0.045	166129	keystroke	Key.enter	n/a
83.1185	10.589	166237	prompt	n/a	politicians aluminium heat whereas\n
83.876	0.015	167752	keystroke	p	n/a
84.192	0.09	168384	keystroke	o	n/a
84.402	0.0905	168804	keystroke	l	n/a
84.628	0.075	169256	keystroke	i	n/a
84.9735	0.075	169947	keystroke	t	n/a
85.5595	0.0755	171119	keystroke	i	n/a
85.755	0.105	171510	keystroke	c	n/a
86.732	0.06	173464	keystroke	i	n/a
86.8525	0.105	173705	keystroke	a	n/a
87.0175	0.075	174035	keystroke	n	n/a
87.4685	0.06	174937	keystroke	Key.space	n/a
87.9795	0.09	175959	keystroke	a	n/a
88.1295	0.0905	176259	keystroke	l	n/a
88.325	0.0905	176650	keystroke	u	n/a
88.5505	0.09	177101	keystroke	m	n/a
88.776	0.0905	177552	keystroke	i	n/a
88.9565	0.09	177913	keystroke	n	n/a
89.1665	0.0905	178333	keystroke	u	n/a
89.3925	0.09	178785	keystroke	m	n/a
89.6625	0.045	179325	keystroke	Key.space	n/a
90.49	0.075	180980	keystroke	h	n/a
90.579	0.105	181158	keystroke	e	n/a
90.699	0.166	181398	keystroke	a	n/a
90.9105	0.09	181821	keystroke	t	n/a
91.0455	0.075	182091	keystroke	Key.space	n/a
91.4065	0.075	182813	keystroke	w	n/a
91.5865	0.06	183173	keystroke	h	n/a
91.7065	0.1355	183413	keystroke	e	n/a
91.827	0.1205	183654	keystroke	r	n/a
91.9325	0.075	183865	keystroke	e	n/a
92.2625	0.151	184525	keystroke	a	n/a
92.4585	0.105	184917	keystroke	s	n/a
93.6605	0.045	187321	keystroke	Key.enter	n/a
93.717	8.27	187434	prompt	n/a	namely constitutes plate go\n
94.6225	0.09	189245	keystroke	n	n/a
94.9525	0.1205	189905	keystroke	a	n/a
95.1035	0.075	190207	keystroke	m	n/a
95.2235	0.075	190447	keystroke	e	n/a
95.5385	0.0755	191077	keystroke	l	n/a
95.7345	0.045	191469	keystroke	y	n/a
95.9295	0.075	191859	keystroke	Key.space	n/a
96.5005	0.0755	193001	keystroke	c	n/a
96.621	0.12	193242	keystroke	o	n/a
96.711	0.09	193422	keystroke	n	n/a
96.9515	0.09	193903	keystroke	s	n/a
97.132	0.09	194264	keystroke	t	n/a
97.282	0.075	194564	keystroke	i	n/a
97.943	0.075	195886	keystroke	t	n/a
98.078	0.0755	196156	keystroke	u	n/a
98.8295	0.0905	197659	keystroke	t	n/a
98.98	0.105	197960	keystroke	e	n/a
99.2355	0.09	198471	keystroke	s	n/a
99.4155	0.06	198831	keystroke	Key.space	n/a
99.8815	0.09	199763	keystroke	p	n/a
100.0765	0.09	200153	keystroke	l	n/a
100.2115	0.1355	200423	keystroke	a	n/a
100.467	0.105	200934	keystroke	t	n/a
100.587	0.0905	201174	keystroke	e	n/a
100.813	0.075	201626	keystroke	Key.space	n/a
101.068	0.06	202136	keystroke	g	n/a
101.173	0.0905	202346	keystroke	o	n/a
101.9095	0.075	203819	keystroke	Key.enter	n/a
101.993	15.925	203986	prompt	n/a	seemed namespace dirty harvey\n
102.856	0.0755	205712	keystroke	s	n/a
103.0815	0.06	206163	keystroke	e	n/a
103.2015	0.075	206403	keystroke	e	n/a
103.3665	0.0755	206733	keystroke	m	n/a
103.427	0.075	206854	keystroke	e	n/a
103.652	0.075	207304	keystroke	d	n/a
103.787	0.0755	207574	keystroke	Key.space	n/a
104.148	0.075	208296	keystroke	n	n/a
104.253	0.1655	208506	keystroke	a	n/a
104.4035	0.075	208807	keystroke	m	n/a
104.929	0.06	209858	keystroke	e	n/a
105.2295	0.075	210459	keystroke	s	n/a
105.5	0.075	211000	keystroke	c	n/a
106.0855	0.105	212171	keystroke	a	n/a
106.2055	0.075	212411	keystroke	p	n/a
106.416	0.09	212832	keystroke	e	n/a
106.566	0.075	213132	keystroke	Key.space	n/a
106.806	0.075	213612	keystroke	d	n/a
106.956	0.075	213912	keystroke	i	n/a
107.1665	0.045	214333	keystroke	r	n/a
107.4065	0.0595	214813	keystroke	t	n/a
107.601	0.06	215202	keystroke	y	n/a
110.6625	0.012	221325	keystroke	Key.backspace	n/a
110.7645	0.06	221529	keystroke	Key.backspace	n/a
110.93	0.0595	221860	keystroke	Key.backspace	n/a
111.0795	0.06	222159	keystroke	Key.backspace	n/a
111.2295	0.06	222459	keystroke	Key.backspace	n/a
111.3945	0.06	222789	keystroke	Key.backspace	n/a
111.544	0.0755	223088	keystroke	Key.backspace	n/a
111.7095	0.075	223419	keystroke	Key.backspace	n/a
111.8595	0.06	223719	keystroke	Key.backspace	n/a
112.024	0.06	224048	keystroke	Key.backspace	n/a
112.189	0.06	224378	keystroke	Key.backspace	n/a
112.9535	0.09	225907	keystroke	s	n/a
113.0885	0.105	226177	keystroke	p	n/a
113.2385	0.105	226477	keystroke	a	n/a
113.3445	0.1485	226689	keystroke	c	n/a
113.478	0.105	226956	keystroke	e	n/a
113.688	0.06	227376	keystroke	Key.space	n/a
114.542	0.09	229084	keystroke	d	n/a
114.692	0.075	229384	keystroke	i	n/a
114.8275	0.075	229655	keystroke	r	n/a
114.992	0.06	229984	keystroke	t	n/a
115.097	0.06	230194	keystroke	y	n/a
115.307	0.075	230614	keystroke	Key.space	n/a
115.727	0.075	231454	keystroke	h	n/a
115.863	0.1485	231726	keystroke	a	n/a
116.463	0.0735	232926	keystroke	r	n/a
116.6865	0.09	233373	keystroke	v	n/a
116.956	0.075	233912	keystroke	e	n/a
117.106	0.06	234212	keystroke	y	n/a
117.856	0.06	235712	keystroke	Key.enter	n/a
117.922	7.702	235844	prompt	n/a	monkey modes pass exceed\n
118.5305	0.075	237061	keystroke	m	n/a
118.6655	0.06	237331	keystroke	a	n/a
118.7405	0.09	237481	keystroke	o	n/a
118.8155	0.0895	237631	keystroke	n	n/a
119.055	0.06	238110	keystroke	k	n/a
119.4	0.0595	238800	keystroke	Key.backspace	n/a
119.5645	0.045	239129	keystroke	Key.backspace	n/a
119.7295	0.06	239459	keystroke	Key.backspace	n/a
119.8795	0.0595	239759	keystroke	Key.backspace	n/a
120.164	0.12	240328	keystroke	o	n/a
120.254	0.09	240508	keystroke	n	n/a
120.555	0.089	241110	keystroke	k	n/a
120.779	0.075	241558	keystroke	e	n/a
120.9285	0.06	241857	keystroke	y	n/a
121.1385	0.06	242277	keystroke	Key.space	n/a
121.334	0.06	242668	keystroke	m	n/a
121.498	0.0905	242996	keystroke	o	n/a
121.6935	0.06	243387	keystroke	d	n/a
121.8585	0.09	243717	keystroke	e	n/a
122.038	0.075	244076	keystroke	s	n/a
122.128	0.075	244256	keystroke	Key.space	n/a
122.353	0.09	244706	keystroke	p	n/a
122.473	0.0895	244946	keystroke	a	n/a
122.6975	0.075	245395	keystroke	s	n/a
122.833	0.075	245666	keystroke	s	n/a
123.0425	0.075	246085	keystroke	Key.space	n/a
123.2975	0.09	246595	keystroke	e	n/a
123.6125	0.09	247225	keystroke	x	n/a
124.1675	0.075	248335	keystroke	c	n/a
124.4675	0.06	248935	keystroke	e	n/a
124.588	0.059	249176	keystroke	e	n/a
124.767	0.105	249534	keystroke	d	n/a
125.5615	0.0595	251123	keystroke	Key.enter	n/a
125.629	7.7755	251258	prompt	n/a	impressive earlier sizes wales\n
126.386	0.075	252772	keystroke	i	n/a
126.551	0.09	253102	keystroke	m	n/a
126.731	0.09	253462	keystroke	p	n/a
127.017	0.134	254034	keystroke	r	n/a
127.3915	0.074	254783	keystroke	e	n/a
127.7505	0.06	255501	keystroke	s	n/a
127.8705	0.0755	255741	keystroke	s	n/a
128.0505	0.0755	256101	keystroke	i	n/a
128.156	0.074	256312	keystroke	v	n/a
128.29	0.075	256580	keystroke	e	n/a
128.41	0.075	256820	keystroke	Key.space	n/a
128.68	0.09	257360	keystroke	e	n/a
128.83	0.12	257660	keystroke	a	n/a
129.085	0.0745	258170	keystroke	r	n/a
129.3095	0.09	258619	keystroke	l	n/a
129.4895	0.09	258979	keystroke	i	n/a
129.6095	0.1045	259219	keystroke	e	n/a
129.954	0.06	259908	keystroke	r	n/a
130.119	0.075	260238	keystroke	Key.space	n/a
130.419	0.09	260838	keystroke	s	n/a
130.554	0.075	261108	keystroke	i	n/a
130.8535	0.135	261707	keystroke	z	n/a
131.124	0.075	262248	keystroke	e	n/a
131.4985	0.06	262997	keystroke	s	n/a
131.6485	0.09	263297	keystroke	Key.space	n/a
131.9335	0.12	263867	keystroke	w	n/a
132.1285	0.105	264257	keystroke	a	n/a
132.308	0.09	264616	keystroke	l	n/a
132.503	0.06	265006	keystroke	e	n/a
132.668	0.1045	265336	keystroke	s	n/a
133.3425	0.06	266685	keystroke	Key.enter	n/a
133.41	8.345	266820	prompt	n/a	dakota cross perth radical\n
134.227	0.075	268454	keystroke	d	n/a
134.512	0.045	269024	keystroke	a	n/a
134.7815	0.075	269563	keystroke	k	n/a
135.1715	0.075	270343	keystroke	o	n/a
135.486	0.105	270972	keystroke	t	n/a
135.741	0.0745	271482	keystroke	a	n/a
135.9055	0.0605	271811	keystroke	Key.space	n/a
136.176	0.0745	272352	keystroke	c	n/a
136.4305	0.06	272861	keystroke	r	n/a
136.6855	0.0745	273371	keystroke	o	n/a
136.985	0.06	273970	keystroke	s	n/a
137.15	0.03	274300	keystroke	s	n/a
137.225	0.09	274450	keystroke	Key.space	n/a
137.45	0.075	274900	keystroke	p	n/a
137.54	0.135	275080	keystroke	e	n/a
137.645	0.09	275290	keystroke	r	n/a
137.87	0.06	275740	keystroke	t	n/a
138.035	0.06	276070	keystroke	h	n/a
138.23	0.0745	276460	keystroke	Key.space	n/a
138.904	0.12	277808	keystroke	r	n/a
138.964	0.12	277928	keystroke	e	n/a
139.744	0.0745	279488	keystroke	Key.backspace	n/a
139.8635	0.121	279727	keystroke	a	n/a
140.1935	0.09	280387	keystroke	d	n/a
140.4185	0.075	280837	keystroke	i	n/a
140.7185	0.1195	281437	keystroke	c	n/a
140.8535	0.1195	281707	keystroke	a	n/a
140.988	0.09	281976	keystroke	l	n/a
141.693	0.06	283386	keystroke	Key.enter	n/a
141.7615	10.0385	283523	prompt	n/a	material modes surgery private\n
142.6225	0.06	285245	keystroke	m	n/a
142.7875	0.105	285575	keystroke	e	n/a
143.2825	0.075	286565	keystroke	Key.backspace	n/a
143.3875	0.1345	286775	keystroke	a	n/a
143.657	0.06	287314	keystroke	t	n/a
143.822	0.15	287644	keystroke	e	n/a
143.957	0.0895	287914	keystroke	r	n/a
144.7215	0.06	289443	keystroke	i	n/a
145.0215	0.075	290043	keystroke	a	n/a
145.186	0.075	290372	keystroke	l	n/a
145.396	0.06	290792	keystroke	Key.space	n/a
145.6815	0.06	291363	keystroke	m	n/a
145.8615	0.09	291723	keystroke	o	n/a
145.9665	0.105	291933	keystroke	d	n/a
146.191	0.06	292382	keystroke	e	n/a
146.551	0.045	293102	keystroke	s	n/a
146.806	0.06	293612	keystroke	Key.space	n/a
147.136	0.0895	294272	keystroke	s	n/a
147.3305	0.075	294661	keystroke	u	n/a
147.5105	0.075	295021	keystroke	r	n/a
147.8405	0.06	295681	keystroke	g	n/a
148.0055	0.195	296011	keystroke	e	n/a
148.1855	0.0895	296371	keystroke	r	n/a
148.425	0.06	296850	keystroke	y	n/a
148.665	0.09	297330	keystroke	Key.space	n/a
149.0845	0.09	298169	keystroke	p	n/a
149.4595	0.075	298919	keystroke	i	n/a
149.8795	0.075	299759	keystroke	Key.backspace	n/a
150.0145	0.06	300029	keystroke	r	n/a
150.1495	0.09	300299	keystroke	i	n/a
150.434	0.09	300868	keystroke	v	n/a
150.584	0.135	301168	keystroke	a	n/a
150.749	0.1045	301498	keystroke	t	n/a
150.8835	0.09	301767	keystroke	e	n/a
151.7535	0.045	303507	keystroke	Key.enter	n/a
151.804	7.942	303608	prompt	n/a	phones essentially control median\n
152.458	0.09	304916	keystroke	p	n/a
152.683	0.075	305366	keystroke	h	n/a
152.863	0.1345	305726	keystroke	o	n/a
152.9525	0.105	305905	keystroke	n	n/a
153.1325	0.075	306265	keystroke	e	n/a
153.2975	0.09	306595	keystroke	s	n/a
153.4325	0.06	306865	keystroke	Key.space	n/a
153.7625	0.06	307525	keystroke	e	n/a
153.9875	0.06	307975	keystroke	s	n/a
154.1225	0.09	308245	keystroke	s	n/a
154.3025	0.09	308605	keystroke	e	n/a
154.452	0.075	308904	keystroke	n	n/a
154.647	0.09	309294	keystroke	t	n/a
154.842	0.075	309684	keystroke	i	n/a
155.1265	0.105	310253	keystroke	a	n/a
155.3815	0.06	310763	keystroke	l	n/a
155.5015	0.09	311003	keystroke	l	n/a
155.6815	0.06	311363	keystroke	y	n/a
155.8915	0.0895	311783	keystroke	Key.space	n/a
156.101	0.09	312202	keystroke	c	n/a
156.221	0.12	312442	keystroke	o	n/a
156.311	0.075	312622	keystroke	n	n/a
156.491	0.075	312982	keystroke	t	n/a
156.641	0.0895	313282	keystroke	r	n/a
156.7455	0.09	313491	keystroke	o	n/a
156.926	0.0895	313852	keystroke	l	n/a
157.0755	0.09	314151	keystroke	Key.space	n/a
157.3905	0.06	314781	keystroke	m	n/a
157.6155	0.06	315231	keystroke	e	n/a
157.9155	0.03	315831	keystroke	d	n/a
158.575	0.06	317150	keystroke	i	n/a
158.725	0.09	317450	keystroke	a	n/a
158.86	0.06	317720	keystroke	n	n/a
159.6845	0.06	319369	keystroke	Key.enter	n/a
159.751	14.464	319502	prompt	n/a	landing proprietary projected pictures\n
160.509	0.09	321018	keystroke	l	n/a
160.689	0.075	321378	keystroke	a	n/a
160.779	0.075	321558	keystroke	n	n/a
160.974	0.075	321948	keystroke	d	n/a
161.139	0.1045	322278	keystroke	i	n/a
161.2135	0.09	322427	keystroke	n	n/a
161.6335	0.03	323267	keystroke	g	n/a
161.7685	0.06	323537	keystroke	Key.space	n/a
162.2335	0.075	324467	keystroke	p	n/a
162.3835	0.075	324767	keystroke	r	n/a
162.5335	0.09	325067	keystroke	o	n/a
163.223	0.09	326446	keystroke	Key.backspace	n/a
164.1525	0.075	328305	keystroke	o	n/a
164.3625	0.075	328725	keystroke	p	n/a
165.037	0.06	330074	keystroke	r	n/a
165.9515	0.075	331903	keystroke	i	n/a
166.3565	0.09	332713	keystroke	e	n/a
166.776	0.09	333552	keystroke	t	n/a
166.986	0.12	333972	keystroke	a	n/a
167.091	0.075	334182	keystroke	r	n/a
167.196	0.075	334392	keystroke	y	n/a
167.406	0.09	334812	keystroke	Key.space	n/a
167.631	0.09	335262	keystroke	p	n/a
167.781	0.12	335562	keystroke	r	n/a
168.3505	0.09	336701	keystroke	o	n/a
168.8605	0.075	337721	keystroke	j	n/a
169.0105	0.09	338021	keystroke	e	n/a
169.1755	0.105	338351	keystroke	c	n/a
169.4155	0.1045	338831	keystroke	t	n/a
169.5355	0.0895	339071	keystroke	e	n/a
169.745	0.105	339490	keystroke	d	n/a
170.09	0.105	340180	keystroke	p	n/a
170.585	0.075	341170	keystroke	Key.backspace	n/a
171.5595	0.045	343119	keystroke	Key.space	n/a
171.8445	0.0745	343689	keystroke	p	n/a
172.054	0.09	344108	keystroke	i	n/a
172.189	0.09	344378	keystroke	c	n/a
172.459	0.075	344918	keystroke	t	n/a
172.579	0.075	345158	keystroke	u	n/a
172.759	0.105	345518	keystroke	r	n/a
172.834	0.105	345668	keystroke	e	n/a
173.7035	0.075	347407	keystroke	s	n/a
174.168	0.045	348336	keystroke	Key.enter	n/a
174.2215	18.675	348443	prompt	n/a	consortium reduced religion cholesterol\n
175.0675	0.075	350135	keystroke	c	n/a
175.2175	0.09	350435	keystroke	o	n/a
175.2925	0.09	350585	keystroke	n	n/a
175.5325	0.0745	351065	keystroke	s	n/a
175.667	0.075	351334	keystroke	o	n/a
175.847	0.075	351694	keystroke	r	n/a
176.042	0.06	352084	keystroke	t	n/a
176.537	0.06	353074	keystroke	i	n/a
176.9415	0.075	353883	keystroke	u	n/a
177.1965	0.09	354393	keystroke	m	n/a
177.4365	0.075	354873	keystroke	Key.space	n/a
177.8865	0.105	355773	keystroke	r	n/a
177.9465	0.09	355893	keystroke	e	n/a
178.276	0.09	356552	keystroke	d	n/a
178.501	0.06	357002	keystroke	u	n/a
178.711	0.09	357422	keystroke	c	n/a
178.966	0.09	357932	keystroke	e	n/a
179.176	0.0895	358352	keystroke	d	n/a
179.3105	0.075	358621	keystroke	Key.space	n/a
179.7455	0.105	359491	keystroke	r	n/a
179.8055	0.105	359611	keystroke	e	n/a
180.0755	0.075	360151	keystroke	l	n/a
180.2705	0.075	360541	keystroke	i	n/a
181.2305	0.045	362461	keystroke	g	n/a
181.425	0.06	362850	keystroke	i	n/a
182.1295	0.09	364259	keystroke	o	n/a
182.2945	0.09	364589	keystroke	n	n/a
182.714	0.06	365428	keystroke	Key.space	n/a
183.179	0.06	366358	keystroke	c	n/a
183.284	0.0895	366568	keystroke	h	n/a
183.9735	0.09	367947	keystroke	o	n/a
184.2585	0.06	368517	keystroke	l	n/a
184.4535	0.09	368907	keystroke	o	n/a
185.2935	0.075	370587	keystroke	Key.backspace	n/a
185.698	0.09	371396	keystroke	e	n/a
185.998	0.09	371996	keystroke	s	n/a
186.2525	0.075	372505	keystroke	t	n/a
186.5375	0.105	373075	keystroke	e	n/a
187.1525	0.075	374305	keystroke	Key.backspace	n/a
187.2725	0.12	374545	keystroke	r	n/a
187.3625	0.09	374725	keystroke	e	n/a
189.401	0.0905	378802	keystroke	Key.backspace	n/a
189.8355	0.121	379671	keystroke	Key.backspace	n/a
190.7665	0.09	381533	keystroke	e	n/a
191.006	0.105	382012	keystroke	r	n/a
191.276	0.075	382552	keystroke	o	n/a
191.456	0.075	382912	keystroke	l	n/a
191.621	0.0885	383242	keystroke	Key.space	n/a
192.5495	0.06	385099	keystroke	Key.backspace	n/a
192.8205	0.0735	385641	keystroke	Key.enter	n/a
192.9005	9.877	385801	prompt	n/a	newfoundland vatican into delhi\n
193.825	0.09	387650	keystroke	n	n/a
194.095	0.135	388190	keystroke	e	n/a
194.185	0.105	388370	keystroke	w	n/a
194.6635	0.046	389327	keystroke	f	n/a
194.8595	0.1185	389719	keystroke	o	n/a
194.919	0.105	389838	keystroke	u	n/a
195.129	0.075	390258	keystroke	n	n/a
195.234	0.105	390468	keystroke	d	n/a
195.399	0.105	390798	keystroke	l	n/a
195.519	0.1495	391038	keystroke	a	n/a
195.624	0.0585	391248	keystroke	n	n/a
196.2535	0.06	392507	keystroke	d	n/a
196.718	0.06	393436	keystroke	Key.space	n/a
197.198	0.075	394396	keystroke	v	n/a
197.9175	0.12	395835	keystroke	a	n/a
198.1425	0.09	396285	keystroke	t	n/a
198.2775	0.075	396555	keystroke	i	n/a
198.5775	0.0895	397155	keystroke	c	n/a
198.787	0.09	397574	keystroke	a	n/a
198.937	0.075	397874	keystroke	n	n/a
199.161	0.06	398322	keystroke	Key.space	n/a
199.492	0.105	398984	keystroke	i	n/a
199.612	0.075	399224	keystroke	n	n/a
200.0165	0.06	400033	keystroke	t	n/a
200.1215	0.09	400243	keystroke	o	n/a
200.3015	0.09	400603	keystroke	Key.space	n/a
201.171	0.06	402342	keystroke	d	n/a
201.381	0.0745	402762	keystroke	e	n/a
201.6505	0.09	403301	keystroke	l	n/a
201.8605	0.075	403721	keystroke	h	n/a
201.9955	0.105	403991	keystroke	i	n/a
202.715	0.06	405430	keystroke	Key.enter	n/a
202.783	9.3965	405566	prompt	n/a	expired robert clause thumbnails\n
203.5545	0.075	407109	keystroke	e	n/a
203.8395	0.105	407679	keystroke	x	n/a
204.0645	0.09	408129	keystroke	p	n/a
204.2745	0.075	408549	keystroke	i	n/a
204.3945	0.12	408789	keystroke	r	n/a
204.4545	0.09	408909	keystroke	e	n/a
204.6495	0.0895	409299	keystroke	d	n/a
204.784	0.075	409568	keystroke	Key.space	n/a
205.264	0.045	410528	keystroke	r	n/a
205.354	0.09	410708	keystroke	o	n/a
205.669	0.06	411338	keystroke	b	n/a
205.7735	0.135	411547	keystroke	e	n/a
205.8485	0.09	411697	keystroke	r	n/a
206.0885	0.06	412177	keystroke	t	n/a
206.2535	0.075	412507	keystroke	Key.space	n/a
206.583	0.075	413166	keystroke	c	n/a
206.733	0.09	413466	keystroke	l	n/a
206.943	0.09	413886	keystroke	a	n/a
207.153	0.06	414306	keystroke	u	n/a
207.303	0.12	414606	keystroke	s	n/a
207.408	0.09	414816	keystroke	e	n/a
207.528	0.0745	415056	keystroke	Key.space	n/a
207.7975	0.09	415595	keystroke	t	n/a
207.8725	0.075	415745	keystroke	h	n/a
208.6525	0.075	417305	keystroke	u	n/a
209.942	0.075	419884	keystroke	m	n/a
210.242	0.075	420484	keystroke	b	n/a
210.7965	0.075	421593	keystroke	n	n/a
211.0065	0.075	422013	keystroke	a	n/a
211.0965	0.09	422193	keystroke	i	n/a
211.2915	0.105	422583	keystroke	l	n/a
211.4265	0.09	422853	keystroke	s	n/a
212.116	0.06	424232	keystroke	Key.enter	n/a
212.1875	8.2675	424375	prompt	n/a	comes celtic laid constant\n
213.0005	0.12	426001	keystroke	c	n/a
213.1805	0.03	426361	keystroke	a	n/a
213.1955	0.12	426391	keystroke	o	n/a
213.2705	0.135	426541	keystroke	m	n/a
213.72	0.06	427440	keystroke	Key.backspace	n/a
213.885	0.045	427770	keystroke	Key.backspace	n/a
214.035	0.045	428070	keystroke	Key.backspace	n/a
214.29	0.15	428580	keystroke	o	n/a
214.665	0.06	429330	keystroke	m	n/a
214.98	0.09	429960	keystroke	e	n/a
215.1745	0.0905	430349	keystroke	s	n/a
215.355	0.09	430710	keystroke	Key.space	n/a
215.595	0.105	431190	keystroke	c	n/a
215.985	0.075	431970	keystroke	e	n/a
216.21	0.09	432420	keystroke	l	n/a
216.555	0.06	433110	keystroke	t	n/a
216.705	0.0745	433410	keystroke	i	n/a
216.8395	0.09	433679	keystroke	c	n/a
216.9895	0.075	433979	keystroke	Key.space	n/a
217.3345	0.09	434669	keystroke	l	n/a
217.4545	0.105	434909	keystroke	a	n/a
217.6045	0.075	435209	keystroke	i	n/a
217.7395	0.105	435479	keystroke	d	n/a
217.8445	0.075	435689	keystroke	Key.space	n/a
218.339	0.075	436678	keystroke	c	n/a
218.444	0.105	436888	keystroke	o	n/a
218.519	0.075	437038	keystroke	n	n/a
219.059	0.105	438118	keystroke	s	n/a
219.269	0.09	438538	keystroke	t	n/a
219.464	0.1645	438928	keystroke	a	n/a
219.6135	0.075	439227	keystroke	n	n/a
219.7485	0.105	439497	keystroke	t	n/a
220.393	0.06	440786	keystroke	Key.enter	n/a
220.4645	8.4775	440929	prompt	n/a	wings partially signing projects\n
221.158	0.105	442316	keystroke	w	n/a
221.323	0.105	442646	keystroke	i	n/a
221.473	0.105	442946	keystroke	n	n/a
221.833	0.075	443666	keystroke	g	n/a
222.028	0.09	444056	keystroke	s	n/a
222.223	0.06	444446	keystroke	Key.space	n/a
222.493	0.0895	444986	keystroke	p	n/a
222.6425	0.105	445285	keystroke	a	n/a
222.8525	0.075	445705	keystroke	r	n/a
223.0475	0.06	446095	keystroke	t	n/a
223.2275	0.075	446455	keystroke	i	n/a
223.512	0.075	447024	keystroke	a	n/a
223.752	0.075	447504	keystroke	l	n/a
223.887	0.09	447774	keystroke	l	n/a
224.097	0.06	448194	keystroke	y	n/a
224.307	0.09	448614	keystroke	Key.space	n/a
224.532	0.09	449064	keystroke	s	n/a
224.997	0.0745	449994	keystroke	i	n/a
225.3265	0.06	450653	keystroke	g	n/a
225.5065	0.0745	451013	keystroke	n	n/a
225.701	0.135	451402	keystroke	i	n/a
225.791	0.12	451582	keystroke	n	n/a
225.986	0.06	451972	keystroke	g	n/a
226.106	0.075	452212	keystroke	Key.space	n/a
226.316	0.09	452632	keystroke	p	n/a
226.511	0.06	453022	keystroke	r	n/a
226.616	0.0895	453232	keystroke	o	n/a
226.9005	0.075	453801	keystroke	j	n/a
227.0505	0.075	454101	keystroke	e	n/a
227.2305	0.06	454461	keystroke	c	n/a
227.4405	0.075	454881	keystroke	t	n/a
227.9205	0.075	455841	keystroke	s	n/a
228.865	0.075	457730	keystroke	Key.enter	n/a
228.948	10.8955	457896	prompt	n/a	aboriginal hormone zones members\n
229.8395	0.12	459679	keystroke	a	n/a
230.0795	0.075	460159	keystroke	b	n/a
230.2295	0.09	460459	keystroke	o	n/a
230.4695	0.075	460939	keystroke	r	n/a
230.6195	0.075	461239	keystroke	i	n/a
231.9985	0.045	463997	keystroke	g	n/a
232.3135	0.075	464627	keystroke	i	n/a
232.5685	0.09	465137	keystroke	n	n/a
232.7785	0.075	465557	keystroke	a	n/a
232.8685	0.09	465737	keystroke	l	n/a
233.0335	0.09	466067	keystroke	Key.space	n/a
233.6025	0.09	467205	keystroke	h	n/a
234.0675	0.075	468135	keystroke	o	n/a
234.2475	0.09	468495	keystroke	r	n/a
234.8475	0.0755	469695	keystroke	m	n/a
234.9975	0.1195	469995	keystroke	o	n/a
235.103	0.1055	470206	keystroke	n	n/a
235.327	0.06	470654	keystroke	e	n/a
236.197	0.075	472394	keystroke	Key.space	n/a
236.437	0.106	472874	keystroke	z	n/a
236.573	0.105	473146	keystroke	o	n/a
236.647	0.106	473294	keystroke	n	n/a
236.857	0.075	473714	keystroke	e	n/a
237.068	0.075	474136	keystroke	s	n/a
237.202	0.09	474404	keystroke	Key.space	n/a
237.5915	0.0605	475183	keystroke	m	n/a
237.712	0.076	475424	keystroke	e	n/a
237.862	0.1055	475724	keystroke	m	n/a
238.1925	0.089	476385	keystroke	b	n/a
238.3265	0.12	476653	keystroke	e	n/a
238.4015	0.106	476803	keystroke	r	n/a
239.0015	0.091	478003	keystroke	s	n/a
239.7815	0.0595	479563	keystroke	Key.enter	n/a
239.8485	16.9555	479697	prompt	n/a	governments petite criticism nicholas\n
240.592	0.06	481184	keystroke	g	n/a
240.756	0.09	481512	keystroke	o	n/a
241.161	0.0755	482322	keystroke	v	n/a
241.372	0.135	482744	keystroke	e	n/a
241.461	0.076	482922	keystroke	r	n/a
241.6105	0.075	483221	keystroke	n	n/a
241.926	0.0755	483852	keystroke	m	n/a
242.0455	0.09	484091	keystroke	e	n/a
242.1665	0.075	484333	keystroke	n	n/a
242.2855	0.06	484571	keystroke	t	n/a
242.3905	0.075	484781	keystroke	Key.space	n/a
242.7965	0.075	485593	keystroke	p	n/a
242.9765	0.09	485953	keystroke	e	n/a
243.2165	0.075	486433	keystroke	t	n/a
243.336	0.075	486672	keystroke	i	n/a
243.485	0.091	486970	keystroke	t	n/a
243.665	0.076	487330	keystroke	e	n/a
243.785	0.09	487570	keystroke	Key.space	n/a
245.016	0.12	490032	keystroke	c	n/a
245.3455	0.06	490691	keystroke	r	n/a
245.9905	0.075	491981	keystroke	i	n/a
246.3205	0.059	492641	keystroke	t	n/a
247.2655	0.075	494531	keystroke	i	n/a
247.4305	0.075	494861	keystroke	c	n/a
247.985	0.09	495970	keystroke	i	n/a
248.12	0.09	496240	keystroke	s	n/a
248.27	0.075	496540	keystroke	m	n/a
248.675	0.075	497350	keystroke	Key.space	n/a
249.215	0.0895	498430	keystroke	b	n/a
249.5895	0.06	499179	keystroke	i	n/a
249.7995	0.105	499599	keystroke	c	n/a
249.9195	0.075	499839	keystroke	h	n/a
250.0995	0.09	500199	keystroke	o	n/a
250.2645	0.09	500529	keystroke	l	n/a
250.4745	0.0895	500949	keystroke	a	n/a
250.669	0.09	501338	keystroke	s	n/a
251.389	0.06	502778	keystroke	Key.backspace	n/a
251.569	0.06	503138	keystroke	Key.backspace	n/a
251.7335	0.06	503467	keystroke	Key.backspace	n/a
251.8975	0.061	503795	keystroke	Key.backspace	n/a
252.0785	0.06	504157	keystroke	Key.backspace	n/a
252.2435	0.075	504487	keystroke	Key.backspace	n/a
252.4085	0.0745	504817	keystroke	Key.backspace	n/a
253.383	0.075	506766	keystroke	Key.backspace	n/a
254.1025	0.0755	508205	keystroke	n	n/a
254.3125	0.075	508625	keystroke	i	n/a
254.5375	0.09	509075	keystroke	c	n/a
254.6875	0.09	509375	keystroke	h	n/a
255.1375	0.075	510275	keystroke	o	n/a
255.497	0.075	510994	keystroke	l	n/a
255.677	0.12	511354	keystroke	a	n/a
255.887	0.12	511774	keystroke	s	n/a
256.7265	0.075	513453	keystroke	Key.enter	n/a
256.8085	10.582	513617	prompt	n/a	animals least buy hidden\n
257.6715	0.0895	515343	keystroke	a	n/a
257.761	0.105	515522	keystroke	n	n/a
257.986	0.105	515972	keystroke	i	n/a
258.121	0.105	516242	keystroke	m	n/a
258.286	0.09	516572	keystroke	a	n/a
258.391	0.09	516782	keystroke	l	n/a
258.571	0.105	517142	keystroke	s	n/a
258.661	0.075	517322	keystroke	Key.space	n/a
259.066	0.075	518132	keystroke	l	n/a
259.201	0.09	518402	keystroke	e	n/a
259.351	0.135	518702	keystroke	a	n/a
259.456	0.165	518912	keystroke	s	n/a
259.666	0.1045	519332	keystroke	t	n/a
259.8455	0.075	519691	keystroke	Key.space	n/a
260.2055	0.06	520411	keystroke	b	n/a
260.7305	0.0445	521461	keystroke	t	n/a
261.51	0.06	523020	keystroke	Key.backspace	n/a
261.84	0.06	523680	keystroke	u	n/a
262.02	0.09	524040	keystroke	t	n/a
262.215	0.015	524430	keystroke	Key.space	n/a
262.515	0.075	525030	keystroke	Key.backspace	n/a
262.9045	0.075	525809	keystroke	Key.backspace	n/a
263.8195	0.045	527639	keystroke	y	n/a
264.0895	0.075	528179	keystroke	Key.space	n/a
264.884	0.105	529768	keystroke	h	n/a
265.124	0.09	530248	keystroke	i	n/a
265.439	0.06	530878	keystroke	d	n/a
265.574	0.075	531148	keystroke	d	n/a
265.769	0.06	531538	keystroke	n	n/a
266.234	0.075	532468	keystroke	Key.backspace	n/a
266.429	0.06	532858	keystroke	e	n/a
266.549	0.105	533098	keystroke	n	n/a
267.3285	0.06	534657	keystroke	Key.enter	n/a
267.394	13.883	534788	prompt	n/a	hearts closure sufficiently equity\n
268.1835	0.075	536367	keystroke	h	n/a
268.3635	0.1195	536727	keystroke	e	n/a
268.663	0.15	537326	keystroke	a	n/a
268.948	0.09	537896	keystroke	r	n/a
269.158	0.0745	538316	keystroke	t	n/a
269.4425	0.09	538885	keystroke	s	n/a
269.6975	0.06	539395	keystroke	Key.space	n/a
270.0575	0.075	540115	keystroke	c	n/a
270.1925	0.09	540385	keystroke	l	n/a
270.3875	0.0745	540775	keystroke	o	n/a
270.538	0.0595	541076	keystroke	s	n/a
270.6725	0.0445	541345	keystroke	u	n/a
270.763	0.12	541526	keystroke	r	n/a
270.852	0.09	541704	keystroke	e	n/a
271.287	0.075	542574	keystroke	Key.space	n/a
271.707	0.075	543414	keystroke	s	n/a
271.887	0.075	543774	keystroke	u	n/a
272.097	0.061	544194	keystroke	f	n/a
272.233	0.059	544466	keystroke	f	n/a
272.367	0.105	544734	keystroke	i	n/a
272.697	0.091	545394	keystroke	c	n/a
272.982	0.076	545964	keystroke	i	n/a
273.3115	0.075	546623	keystroke	e	n/a
273.5215	0.075	547043	keystroke	n	n/a
273.6415	0.076	547283	keystroke	t	n/a
273.8065	0.06	547613	keystroke	y	n/a
274.586	0.06	549172	keystroke	l	n/a
274.812	0.0585	549624	keystroke	y	n/a
275.0355	0.075	550071	keystroke	Key.space	n/a
275.6955	0.06	551391	keystroke	Key.backspace	n/a
275.8605	0.06	551721	keystroke	Key.backspace	n/a
276.0255	0.075	552051	keystroke	Key.backspace	n/a
276.1755	0.09	552351	keystroke	Key.backspace	n/a
276.9115	0.074	553823	keystroke	l	n/a
277.21	0.0605	554420	keystroke	y	n/a
277.48	0.075	554960	keystroke	Key.space	n/a
279.431	0.1185	558862	keystroke	e	n/a
279.7295	0.105	559459	keystroke	q	n/a
279.9545	0.09	559909	keystroke	u	n/a
280.1055	0.104	560211	keystroke	i	n/a
280.3605	0.089	560721	keystroke	t	n/a
280.5095	0.061	561019	keystroke	y	n/a
281.2305	0.044	562461	keystroke	Key.enter	n/a
281.2815	13.7625	562563	prompt	n/a	to've unlock gamecube mediawiki\n
282.805	0.089	565610	keystroke	t	n/a
282.955	0.104	565910	keystroke	o	n/a
283.5685	0.09	567137	keystroke	'	n/a
283.7045	0.105	567409	keystroke	v	n/a
283.9145	0.06	567829	keystroke	e	n/a
284.5285	0.06	569057	keystroke	Key.space	n/a
285.368	0.09	570736	keystroke	u	n/a
285.579	0.104	571158	keystroke	n	n/a
285.818	0.091	571636	keystroke	l	n/a
285.999	0.09	571998	keystroke	o	n/a
286.179	0.09	572358	keystroke	c	n/a
286.299	0.075	572598	keystroke	k	n/a
286.463	0.09	572926	keystroke	Key.space	n/a
287.0175	0.091	574035	keystroke	g	n/a
287.1985	0.105	574397	keystroke	a	n/a
287.2875	0.076	574575	keystroke	m	n/a
287.723	0.059	575446	keystroke	e	n/a
287.962	0.09	575924	keystroke	c	n/a
288.173	0.075	576346	keystroke	u	n/a
288.443	0.06	576886	keystroke	b	n/a
288.683	0.045	577366	keystroke	e	n/a
288.817	0.061	577634	keystroke	Key.space	n/a
289.148	0.075	578296	keystroke	m	n/a
289.417	0.06	578834	keystroke	e	n/a
289.8975	0.0755	579795	keystroke	d	n/a
290.0765	0.076	580153	keystroke	i	n/a
290.3475	0.075	580695	keystroke	a	n/a
291.1275	0.09	582255	keystroke	h	n/a
291.981	0.091	583962	keystroke	Key.backspace	n/a
292.987	0.104	585974	keystroke	w	n/a
293.122	0.045	586244	keystroke	i	n/a
293.317	0.06	586634	keystroke	k	n/a
293.9165	0.06	587833	keystroke	i	n/a
294.98	0.061	589960	keystroke	Key.enter	n/a
295.049	8.017	590098	prompt	n/a	omaha compete chinese char\n
296.121	0.105	592242	keystroke	o	n/a
296.346	0.09	592692	keystroke	m	n/a
296.96	0.091	593920	keystroke	a	n/a
297.126	0.09	594252	keystroke	h	n/a
297.2755	0.09	594551	keystroke	a	n/a
297.9345	0.075	595869	keystroke	Key.space	n/a
298.865	0.09	597730	keystroke	c	n/a
299.03	0.165	598060	keystroke	o	n/a
299.15	0.105	598300	keystroke	m	n/a
299.465	0.09	598930	keystroke	p	n/a
299.78	0.09	599560	keystroke	e	n/a
300.005	0.09	600010	keystroke	t	n/a
300.11	0.12	600220	keystroke	e	n/a
300.29	0.09	600580	keystroke	Key.space	n/a
300.44	0.105	600880	keystroke	c	n/a
300.56	0.09	601120	keystroke	h	n/a
300.695	0.105	601390	keystroke	i	n/a
300.845	0.1045	601690	keystroke	n	n/a
301.01	0.0745	602020	keystroke	e	n/a
301.1895	0.105	602379	keystroke	s	n/a
301.3095	0.105	602619	keystroke	e	n/a
301.4595	0.06	602919	keystroke	Key.space	n/a
301.7745	0.09	603549	keystroke	c	n/a
301.9095	0.09	603819	keystroke	h	n/a
302.2695	0.075	604539	keystroke	a	n/a
302.4645	0.09	604929	keystroke	r	n/a
303.0045	0.06	606009	keystroke	Key.enter	n/a
303.0705	8.6195	606141	prompt	n/a	finger strap queries realty\n
303.8745	0.06	607749	keystroke	f	n/a
303.9945	0.075	607989	keystroke	i	n/a
304.1295	0.09	608259	keystroke	n	n/a
304.5195	0.075	609039	keystroke	g	n/a
304.7595	0.105	609519	keystroke	e	n/a
304.8195	0.09	609639	keystroke	r	n/a
305.0895	0.09	610179	keystroke	Key.space	n/a
305.284	0.12	610568	keystroke	s	n/a
305.539	0.06	611078	keystroke	t	n/a
305.689	0.105	611378	keystroke	r	n/a
305.929	0.105	611858	keystroke	a	n/a
306.049	0.09	612098	keystroke	p	n/a
306.259	0.075	612518	keystroke	Key.space	n/a
306.889	0.09	613778	keystroke	q	n/a
307.1435	0.09	614287	keystroke	u	n/a
307.5635	0.075	615127	keystroke	e	n/a
307.8785	0.045	615757	keystroke	r	n/a
308.0885	0.075	616177	keystroke	i	n/a
308.2535	0.105	616507	keystroke	e	n/a
308.5235	0.09	617047	keystroke	s	n/a
308.7785	0.06	617557	keystroke	Key.space	n/a
309.1085	0.105	618217	keystroke	r	n/a
309.1385	0.12	618277	keystroke	e	n/a
309.3635	0.09	618727	keystroke	a	n/a
309.5585	0.075	619117	keystroke	l	n/a
310.803	0.075	621606	keystroke	t	n/a
310.923	0.075	621846	keystroke	y	n/a
311.613	0.075	623226	keystroke	Key.enter	n/a
311.696	29.508	623392	prompt	n/a	democratic staff reproductive sheriff\n
312.4675	0.075	624935	keystroke	d	n/a
312.9625	0.0605	625925	keystroke	e	n/a
313.0975	0.09	626195	keystroke	m	n/a
313.2925	0.075	626585	keystroke	o	n/a
313.412	0.09	626824	keystroke	c	n/a
313.667	0.135	627334	keystroke	r	n/a
314.042	0.15	628084	keystroke	a	n/a
314.372	0.075	628744	keystroke	t	n/a
314.642	0.075	629284	keystroke	i	n/a
314.747	0.09	629494	keystroke	c	n/a
314.897	0.105	629794	keystroke	Key.space	n/a
315.377	0.105	630754	keystroke	s	n/a
315.557	0.105	631114	keystroke	t	n/a
315.752	0.1195	631504	keystroke	a	n/a
315.9465	0.045	631893	keystroke	f	n/a
316.0815	0.045	632163	keystroke	f	n/a
316.1715	0.09	632343	keystroke	Key.space	n/a
316.4265	0.105	632853	keystroke	r	n/a
316.5015	0.09	633003	keystroke	e	n/a
316.7565	0.075	633513	keystroke	p	n/a
316.9965	0.09	633993	keystroke	o	n/a
317.3265	0.075	634653	keystroke	r	n/a
317.8815	0.075	635763	keystroke	d	n/a
318.2865	0.075	636573	keystroke	u	n/a
318.781	0.09	637562	keystroke	c	n/a
319.141	0.0895	638282	keystroke	t	n/a
319.3355	0.09	638671	keystroke	i	n/a
319.6505	0.09	639301	keystroke	v	n/a
319.86	0.075	639720	keystroke	e	n/a
320.025	0.06	640050	keystroke	Key.space	n/a
320.4	0.105	640800	keystroke	s	n/a
320.655	0.09	641310	keystroke	h	n/a
320.88	0.165	641760	keystroke	e	n/a
321	0.09	642000	keystroke	r	n/a
330.602	0	661204	keystroke	Key.backspace	n/a
330.674	0.06	661348	keystroke	Key.backspace	n/a
330.809	0.06	661618	keystroke	Key.backspace	n/a
330.944	0.074	661888	keystroke	Key.backspace	n/a
331.094	0.075	662188	keystroke	Key.backspace	n/a
331.243	0.061	662486	keystroke	Key.backspace	n/a
331.3935	0.075	662787	keystroke	Key.backspace	n/a
331.5435	0.06	663087	keystroke	Key.backspace	n/a
331.7085	0.045	663417	keystroke	Key.backspace	n/a
331.8585	0.044	663717	keystroke	Key.backspace	n/a
332.0085	0.06	664017	keystroke	Key.backspace	n/a
332.1575	0.06	664315	keystroke	Key.backspace	n/a
332.3085	0.059	664617	keystroke	Key.backspace	n/a
332.7135	0.06	665427	keystroke	Key.backspace	n/a
333.3735	0.0745	666747	keystroke	r	n/a
333.5685	0.0445	667137	keystroke	o	n/a
333.583	0.015	667166	keystroke	i	n/a
333.748	0.075	667496	keystroke	d	n/a
333.883	0.075	667766	keystroke	u	n/a
334.528	0.09	669056	keystroke	Key.backspace	n/a
334.708	0.075	669416	keystroke	Key.backspace	n/a
334.888	0.045	669776	keystroke	Key.backspace	n/a
335.518	0.06	671036	keystroke	d	n/a
335.743	0.075	671486	keystroke	u	n/a
336.268	0.09	672536	keystroke	c	n/a
336.718	0.0895	673436	keystroke	t	n/a
337.048	0.09	674096	keystroke	i	n/a
337.213	0.1045	674426	keystroke	v	n/a
337.3775	0.075	674755	keystroke	e	n/a
337.513	0.0595	675026	keystroke	Key.space	n/a
338.4725	0.075	676945	keystroke	s	n/a
338.6075	0.06	677215	keystroke	h	n/a
338.7725	0.195	677545	keystroke	e	n/a
339.1475	0.06	678295	keystroke	r	n/a
339.3875	0.075	678775	keystroke	i	n/a
339.5975	0.045	679195	keystroke	s	n/a
340.047	0.09	680094	keystroke	Key.backspace	n/a
340.362	0.03	680724	keystroke	f	n/a
340.482	0.045	680964	keystroke	f	n/a
341.142	0.06	682284	keystroke	Key.enter	n/a
341.2095	8.633	682419	prompt	n/a	cross gross consult nintendo\n
341.817	0.075	683634	keystroke	c	n/a
342.042	0.075	684084	keystroke	r	n/a
342.207	0.09	684414	keystroke	o	n/a
342.417	0.075	684834	keystroke	s	n/a
342.582	0.045	685164	keystroke	s	n/a
342.7015	0.0755	685403	keystroke	Key.space	n/a
343.1965	0.06	686393	keystroke	h	n/a
343.6765	0.075	687353	keystroke	Key.backspace	n/a
343.8565	0.06	687713	keystroke	g	n/a
344.0815	0.075	688163	keystroke	r	n/a
344.2915	0.075	688583	keystroke	o	n/a
344.5315	0.06	689063	keystroke	s	n/a
344.6665	0.06	689333	keystroke	s	n/a
344.7865	0.075	689573	keystroke	Key.space	n/a
345.0265	0.075	690053	keystroke	c	n/a
345.1615	0.1045	690323	keystroke	o	n/a
345.2065	0.0895	690413	keystroke	n	n/a
345.371	0.09	690742	keystroke	s	n/a
345.536	0.0905	691072	keystroke	u	n/a
345.7765	0.075	691553	keystroke	l	n/a
345.986	0.06	691972	keystroke	t	n/a
346.106	0.075	692212	keystroke	Key.space	n/a
346.421	0.075	692842	keystroke	n	n/a
346.616	0.075	693232	keystroke	i	n/a
346.751	0.09	693502	keystroke	n	n/a
347.1105	0.076	694221	keystroke	t	n/a
347.3065	0.075	694613	keystroke	e	n/a
347.9355	0.06	695871	keystroke	d	n/a
348.3705	0.075	696741	keystroke	Key.backspace	n/a
348.6415	0.044	697283	keystroke	n	n/a
348.8355	0.105	697671	keystroke	d	n/a
349.0005	0.1055	698001	keystroke	o	n/a
349.78	0.06	699560	keystroke	Key.enter	n/a
349.848	10.256	699696	prompt	n/a	reid sydney painful symphony\n
350.8155	0.179	701631	keystroke	e	n/a
351.5645	0.06	703129	keystroke	Key.backspace	n/a
352.1645	0.09	704329	keystroke	r	n/a
352.3745	0.075	704749	keystroke	e	n/a
352.5545	0.075	705109	keystroke	i	n/a
352.7805	0.089	705561	keystroke	d	n/a
352.9445	0.0745	705889	keystroke	Key.space	n/a
353.379	0.09	706758	keystroke	s	n/a
353.649	0.09	707298	keystroke	y	n/a
353.949	0.075	707898	keystroke	d	n/a
354.249	0.06	708498	keystroke	e	n/a
354.76	0.074	709520	keystroke	Key.backspace	n/a
355.2545	0.074	710509	keystroke	n	n/a
355.3735	0.075	710747	keystroke	e	n/a
355.4935	0.091	710987	keystroke	y	n/a
355.733	0.075	711466	keystroke	Key.space	n/a
356.092	0.106	712184	keystroke	p	n/a
356.2565	0.105	712513	keystroke	a	n/a
356.3765	0.1205	712753	keystroke	i	n/a
356.497	0.089	712994	keystroke	n	n/a
356.9895	0.075	713979	keystroke	f	n/a
357.1245	0.0745	714249	keystroke	u	n/a
357.319	0.0755	714638	keystroke	l	n/a
357.4835	0.0895	714967	keystroke	Key.space	n/a
357.708	0.0895	715416	keystroke	s	n/a
357.9475	0.0595	715895	keystroke	y	n/a
358.2175	0.075	716435	keystroke	m	n/a
358.396	0.105	716792	keystroke	p	n/a
358.7555	0.0895	717511	keystroke	h	n/a
358.936	0.1645	717872	keystroke	o	n/a
359.0705	0.0885	718141	keystroke	n	n/a
359.3685	0.076	718737	keystroke	y	n/a
360.042	0.06	720084	keystroke	Key.enter	n/a
360.1125	5.666	720225	prompt	n/a	looks poll didn't weight\n
360.761	0.075	721522	keystroke	l	n/a
360.9695	0.061	721939	keystroke	o	n/a
361.104	0.075	722208	keystroke	o	n/a
361.24	0.0885	722480	keystroke	k	n/a
361.4045	0.0735	722809	keystroke	s	n/a
361.523	0.075	723046	keystroke	Key.space	n/a
361.8535	0.0735	723707	keystroke	p	n/a
362.063	0.0745	724126	keystroke	o	n/a
362.2725	0.0585	724545	keystroke	l	n/a
362.391	0.076	724782	keystroke	l	n/a
362.5255	0.105	725051	keystroke	Key.space	n/a
362.7065	0.0885	725413	keystroke	d	n/a
362.826	0.059	725652	keystroke	i	n/a
362.87	0.1045	725740	keystroke	d	n/a
363.4395	0.074	726879	keystroke	n	n/a
363.5595	0.0885	727119	keystroke	'	n/a
363.753	0.0895	727506	keystroke	t	n/a
363.8875	0.076	727775	keystroke	Key.space	n/a
364.233	0.0745	728466	keystroke	w	n/a
364.3975	0.1185	728795	keystroke	e	n/a
364.712	0.075	729424	keystroke	i	n/a
364.9205	0.061	729841	keystroke	g	n/a
365.0105	0.0745	730021	keystroke	h	n/a
365.131	0.075	730262	keystroke	t	n/a
365.7145	0.0605	731429	keystroke	Key.enter	n/a
365.7835	7.2835	731567	prompt	n/a	delays managed somehow scale\n
366.6	0.089	733200	keystroke	d	n/a
366.8105	0.075	733621	keystroke	e	n/a
366.989	0.106	733978	keystroke	l	n/a
367.139	0.1055	734278	keystroke	a	n/a
367.3195	0.075	734639	keystroke	y	n/a
367.514	0.076	735028	keystroke	s	n/a
367.619	0.0755	735238	keystroke	Key.space	n/a
368.025	0.0735	736050	keystroke	m	n/a
368.1595	0.105	736319	keystroke	a	n/a
368.2955	0.075	736591	keystroke	n	n/a
368.61	0.1335	737220	keystroke	a	n/a
368.895	0.075	737790	keystroke	g	n/a
369.075	0.0885	738150	keystroke	e	n/a
369.2835	0.092	738567	keystroke	d	n/a
369.51	0.06	739020	keystroke	Key.space	n/a
369.8245	0.091	739649	keystroke	s	n/a
369.9595	0.12	739919	keystroke	o	n/a
370.0505	0.0895	740101	keystroke	m	n/a
370.2	0.089	740400	keystroke	e	n/a
370.4245	0.061	740849	keystroke	h	n/a
370.5755	0.105	741151	keystroke	o	n/a
370.6945	0.1055	741389	keystroke	w	n/a
371.5505	0.074	743101	keystroke	Key.space	n/a
371.714	0.091	743428	keystroke	s	n/a
371.865	0.1345	743730	keystroke	c	n/a
372.0905	0.075	744181	keystroke	a	n/a
372.2255	0.09	744451	keystroke	l	n/a
372.375	0.075	744750	keystroke	e	n/a
373.005	0.059	746010	keystroke	Key.enter	n/a
373.0725	11.425	746145	prompt	n/a	respected everyday casio platform\n
374.205	0.1205	748410	keystroke	r	n/a
374.3105	0.105	748621	keystroke	e	n/a
374.731	0.0745	749462	keystroke	p	n/a
375.135	0.075	750270	keystroke	Key.backspace	n/a
375.2705	0.075	750541	keystroke	s	n/a
375.4505	0.0595	750901	keystroke	p	n/a
375.66	0.105	751320	keystroke	e	n/a
376.2445	0.09	752489	keystroke	c	n/a
376.545	0.15	753090	keystroke	t	n/a
376.8145	0.106	753629	keystroke	e	n/a
377.13	0.06	754260	keystroke	d	n/a
377.4755	0.0745	754951	keystroke	Key.space	n/a
377.79	0.0745	755580	keystroke	e	n/a
377.9395	0.1055	755879	keystroke	v	n/a
378.105	0.135	756210	keystroke	e	n/a
378.18	0.105	756360	keystroke	r	n/a
378.3895	0.0605	756779	keystroke	y	n/a
378.615	0.075	757230	keystroke	d	n/a
378.8845	0.076	757769	keystroke	a	n/a
379.095	0.06	758190	keystroke	y	n/a
379.3345	0.09	758669	keystroke	Key.space	n/a
379.71	0.0895	759420	keystroke	c	n/a
379.8595	0.1655	759719	keystroke	a	n/a
380.07	0.105	760140	keystroke	s	n/a
380.2945	0.09	760589	keystroke	i	n/a
380.4595	0.1055	760919	keystroke	o	n/a
380.655	0.0745	761310	keystroke	Key.space	n/a
380.8795	0.09	761759	keystroke	p	n/a
381.105	0.1045	762210	keystroke	l	n/a
381.3295	0.12	762659	keystroke	a	n/a
381.9145	0.09	763829	keystroke	t	n/a
382.65	0.075	765300	keystroke	f	n/a
382.9195	0.105	765839	keystroke	o	n/a
383.1	0.0595	766200	keystroke	r	n/a
383.1895	0.075	766379	keystroke	m	n/a
384.4345	0.06	768869	keystroke	Key.enter	n/a
384.5035	10.688	769007	prompt	n/a	exhaust claim refund belle\n
385.1695	0.0755	770339	keystroke	e	n/a
385.6795	0.0765	771359	keystroke	x	n/a
386.0545	0.075	772109	keystroke	h	n/a
386.205	0.105	772410	keystroke	a	n/a
386.43	0.0745	772860	keystroke	u	n/a
387.0295	0.075	774059	keystroke	Key.backspace	n/a
387.6295	0.06	775259	keystroke	u	n/a
387.825	0.0895	775650	keystroke	s	n/a
388.0655	0.074	776131	keystroke	t	n/a
388.289	0.076	776578	keystroke	Key.space	n/a
388.5745	0.075	777149	keystroke	c	n/a
388.6795	0.105	777359	keystroke	l	n/a
388.875	0.09	777750	keystroke	a	n/a
389.0395	0.105	778079	keystroke	i	n/a
389.1595	0.06	778319	keystroke	n	n/a
389.9695	0.075	779939	keystroke	Key.backspace	n/a
390.42	0.045	780840	keystroke	m	n/a
390.5845	0.075	781169	keystroke	Key.space	n/a
391.2745	0.12	782549	keystroke	r	n/a
391.3195	0.105	782639	keystroke	e	n/a
391.6195	0.075	783239	keystroke	f	n/a
391.739	0.075	783478	keystroke	u	n/a
391.934	0.061	783868	keystroke	d	n/a
392.025	0.0895	784050	keystroke	n	n/a
392.535	0.0595	785070	keystroke	Key.backspace	n/a
392.6695	0.045	785339	keystroke	Key.backspace	n/a
392.8495	0.075	785699	keystroke	n	n/a
392.985	0.09	785970	keystroke	d	n/a
393.105	0.0895	786210	keystroke	Key.space	n/a
393.8395	0.075	787679	keystroke	b	n/a
394.1095	0.075	788219	keystroke	e	n/a
394.3195	0.06	788639	keystroke	l	n/a
394.439	0.0755	788878	keystroke	l	n/a
394.5745	0.075	789149	keystroke	e	n/a
395.1445	0.045	790289	keystroke	Key.enter	n/a
395.1975	9.0545	790395	prompt	n/a	estimates electro finding education\n
395.9255	0.059	791851	keystroke	e	n/a
396.1495	0.105	792299	keystroke	s	n/a
396.3305	0.0885	792661	keystroke	t	n/a
396.434	0.09	792868	keystroke	i	n/a
396.57	0.1195	793140	keystroke	m	n/a
396.6745	0.105	793349	keystroke	a	n/a
396.8095	0.135	793619	keystroke	t	n/a
396.9455	0.074	793891	keystroke	e	n/a
397.1545	0.105	794309	keystroke	s	n/a
397.3345	0.09	794669	keystroke	Key.space	n/a
398.2345	0.076	796469	keystroke	e	n/a
398.4305	0.074	796861	keystroke	l	n/a
398.9395	0.075	797879	keystroke	e	n/a
399.1495	0.105	798299	keystroke	c	n/a
399.5095	0.0905	799019	keystroke	t	n/a
399.7045	0.075	799409	keystroke	r	n/a
399.9145	0.06	799829	keystroke	o	n/a
400.124	0.0905	800248	keystroke	Key.space	n/a
400.4095	0.06	800819	keystroke	f	n/a
400.5445	0.0895	801089	keystroke	i	n/a
400.649	0.0905	801298	keystroke	n	n/a
400.7845	0.075	801569	keystroke	d	n/a
401.0095	0.091	802019	keystroke	i	n/a
401.1145	0.075	802229	keystroke	n	n/a
401.219	0.0765	802438	keystroke	g	n/a
401.3395	0.09	802679	keystroke	Key.space	n/a
402.1795	0.12	804359	keystroke	e	n/a
402.4505	0.104	804901	keystroke	d	n/a
402.855	0.0595	805710	keystroke	u	n/a
403.0045	0.105	806009	keystroke	c	n/a
403.1705	0.089	806341	keystroke	a	n/a
403.3195	0.106	806639	keystroke	t	n/a
403.3795	0.151	806759	keystroke	i	n/a
403.4405	0.135	806881	keystroke	o	n/a
403.5145	0.105	807029	keystroke	n	n/a
404.1745	0.075	808349	keystroke	Key.enter	n/a
404.256	8.051	808512	prompt	n/a	constructed roots printing seattle\n
405.0455	0.074	810091	keystroke	c	n/a
405.2405	0.1035	810481	keystroke	o	n/a
405.3145	0.09	810629	keystroke	n	n/a
405.5995	0.09	811199	keystroke	s	n/a
405.8095	0.091	811619	keystroke	t	n/a
406.0495	0.061	812099	keystroke	r	n/a
406.409	0.0755	812818	keystroke	u	n/a
406.6805	0.089	813361	keystroke	c	n/a
406.9345	0.0755	813869	keystroke	t	n/a
407.1005	0.075	814201	keystroke	e	n/a
407.28	0.105	814560	keystroke	d	n/a
407.415	0.0905	814830	keystroke	Key.space	n/a
407.7155	0.06	815431	keystroke	r	n/a
407.895	0.06	815790	keystroke	o	n/a
408.03	0.075	816060	keystroke	o	n/a
408.135	0.09	816270	keystroke	t	n/a
408.33	0.09	816660	keystroke	s	n/a
408.465	0.0605	816930	keystroke	Key.space	n/a
408.765	0.09	817530	keystroke	p	n/a
408.96	0.06	817920	keystroke	r	n/a
409.065	0.12	818130	keystroke	i	n/a
409.23	0.12	818460	keystroke	n	n/a
409.455	0.0895	818910	keystroke	t	n/a
409.605	0.105	819210	keystroke	i	n/a
409.695	0.09	819390	keystroke	n	n/a
409.8	0.075	819600	keystroke	g	n/a
409.9345	0.075	819869	keystroke	Key.space	n/a
410.445	0.06	820890	keystroke	s	n/a
410.61	0.0895	821220	keystroke	e	n/a
410.85	0.12	821700	keystroke	a	n/a
411.105	0.075	822210	keystroke	t	n/a
411.3155	0.0595	822631	keystroke	t	n/a
411.555	0.075	823110	keystroke	l	n/a
411.675	0.0605	823350	keystroke	e	n/a
412.2455	0.06	824491	keystroke	Key.enter	n/a
412.3115	10.4205	824623	prompt	n/a	argument carpet slots delhi\n
413.13	0.06	826260	keystroke	a	n/a
414.1495	0.06	828299	keystroke	r	n/a
414.375	0.06	828750	keystroke	u	n/a
415.395	0.09	830790	keystroke	Key.backspace	n/a
415.65	0.06	831300	keystroke	g	n/a
416.28	0.0755	832560	keystroke	u	n/a
416.895	0.06	833790	keystroke	m	n/a
417.03	0.09	834060	keystroke	e	n/a
417.135	0.075	834270	keystroke	n	n/a
417.255	0.09	834510	keystroke	t	n/a
417.45	0.06	834900	keystroke	Key.space	n/a
418.02	0.0895	836040	keystroke	c	n/a
418.1845	0.1205	836369	keystroke	a	n/a
418.41	0.09	836820	keystroke	r	n/a
418.89	0.09	837780	keystroke	p	n/a
419.055	0.09	838110	keystroke	e	n/a
419.325	0.075	838650	keystroke	t	n/a
419.52	0.06	839040	keystroke	Key.space	n/a
419.775	0.09	839550	keystroke	s	n/a
419.925	0.09	839850	keystroke	l	n/a
420.12	0.075	840240	keystroke	o	n/a
420.315	0.09	840630	keystroke	t	n/a
420.51	0.075	841020	keystroke	s	n/a
420.615	0.09	841230	keystroke	Key.space	n/a
421.11	0.0595	842220	keystroke	d	n/a
421.275	0.075	842550	keystroke	e	n/a
421.575	0.0595	843150	keystroke	l	n/a
421.785	0.075	843570	keystroke	h	n/a
421.95	0.105	843900	keystroke	i	n/a
422.655	0.075	845310	keystroke	Key.enter	n/a
422.738	11.474	845476	prompt	n/a	wife modules shade there're\n
423.57	0.09	847140	keystroke	w	n/a
423.735	0.09	847470	keystroke	i	n/a
423.915	0.15	847830	keystroke	f	n/a
424.066	0.104	848132	keystroke	e	n/a
424.2	0.075	848400	keystroke	Key.space	n/a
424.485	0.075	848970	keystroke	m	n/a
424.695	0.09	849390	keystroke	o	n/a
425.07	0.06	850140	keystroke	d	n/a
425.235	0.03	850470	keystroke	u	n/a
425.445	0.0745	850890	keystroke	l	n/a
425.6245	0.09	851249	keystroke	e	n/a
425.805	0.09	851610	keystroke	s	n/a
425.91	0.06	851820	keystroke	Key.space	n/a
426.1795	0.0755	852359	keystroke	s	n/a
426.285	0.075	852570	keystroke	h	n/a
426.435	0.135	852870	keystroke	a	n/a
426.75	0.09	853500	keystroke	d	n/a
426.945	0.075	853890	keystroke	e	n/a
427.065	0.06	854130	keystroke	Key.space	n/a
427.785	0.06	855570	keystroke	t	n/a
427.875	0.06	855750	keystroke	h	n/a
427.98	0.12	855960	keystroke	e	n/a
428.07	0.15	856140	keystroke	r	n/a
428.19	0.09	856380	keystroke	e	n/a
428.37	0.075	856740	keystroke	'	n/a
430.653	0.012	861306	keystroke	r	n/a
430.755	0.06	861510	keystroke	e	n/a
434.208	0.001	868416	keystroke	Key.enter	n/a
434.2185	14.6435	868437	prompt	n/a	affiliated mazda development israel\n
435.27	0.091	870540	keystroke	a	n/a
435.495	0.061	870990	keystroke	f	n/a
435.645	0.046	871290	keystroke	f	n/a
435.8095	0.0905	871619	keystroke	i	n/a
437.2055	0.105	874411	keystroke	l	n/a
438.4205	0.09	876841	keystroke	i	n/a
438.6305	0.105	877261	keystroke	a	n/a
438.8405	0.105	877681	keystroke	t	n/a
439.1255	0.045	878251	keystroke	d	n/a
439.6055	0.06	879211	keystroke	Key.backspace	n/a
440.1005	0.09	880201	keystroke	t	n/a
440.2655	0.075	880531	keystroke	e	n/a
440.8655	0.105	881731	keystroke	d	n/a
441.0905	0.075	882181	keystroke	Key.space	n/a
441.6455	0.09	883291	keystroke	m	n/a
441.7805	0.12	883561	keystroke	a	n/a
442.1855	0.135	884371	keystroke	z	n/a
442.5305	0.09	885061	keystroke	d	n/a
442.7405	0.075	885481	keystroke	a	n/a
442.9655	0.09	885931	keystroke	Key.space	n/a
443.2205	0.075	886441	keystroke	d	n/a
443.4905	0.075	886981	keystroke	e	n/a
443.7605	0.075	887521	keystroke	v	n/a
443.9405	0.075	887881	keystroke	e	n/a
444.2855	0.075	888571	keystroke	l	n/a
444.4955	0.075	888991	keystroke	o	n/a
444.6755	0.09	889351	keystroke	p	n/a
445.4255	0.075	890851	keystroke	m	n/a
445.5455	0.105	891091	keystroke	e	n/a
445.6655	0.06	891331	keystroke	n	n/a
445.7705	0.075	891541	keystroke	t	n/a
445.8755	0.075	891751	keystroke	Key.space	n/a
446.4305	0.075	892861	keystroke	i	n/a
446.6855	0.09	893371	keystroke	s	n/a
447.1955	0.135	894391	keystroke	r	n/a
447.5405	0.12	895081	keystroke	a	n/a
447.8405	0.0755	895681	keystroke	e	n/a
448.081	0.0745	896162	keystroke	l	n/a
448.7855	0.075	897571	keystroke	Key.enter	n/a
448.867	18.6705	897734	prompt	n/a	preparation controversial continental regions\n
449.5205	0.105	899041	keystroke	p	n/a
450.0455	0.15	900091	keystroke	r	n/a
450.1805	0.15	900361	keystroke	e	n/a
450.7805	0.09	901561	keystroke	p	n/a
450.9755	0.09	901951	keystroke	a	n/a
451.1855	0.075	902371	keystroke	r	n/a
451.4405	0.09	902881	keystroke	t	n/a
452.2205	0.075	904441	keystroke	Key.backspace	n/a
452.3555	0.12	904711	keystroke	a	n/a
452.6555	0.075	905311	keystroke	t	n/a
452.7455	0.09	905491	keystroke	i	n/a
452.8055	0.135	905611	keystroke	o	n/a
452.8955	0.09	905791	keystroke	n	n/a
453.1055	0.06	906211	keystroke	Key.space	n/a
454.2155	0.075	908431	keystroke	c	n/a
454.3655	0.12	908731	keystroke	o	n/a
454.4705	0.06	908941	keystroke	n	n/a
454.9205	0.075	909841	keystroke	t	n/a
455.1005	0.09	910201	keystroke	r	n/a
455.2805	0.075	910561	keystroke	o	n/a
455.5505	0.09	911101	keystroke	v	n/a
455.7605	0.12	911521	keystroke	e	n/a
455.8355	0.09	911671	keystroke	r	n/a
456.6305	0.06	913261	keystroke	s	n/a
456.8405	0.06	913681	keystroke	i	n/a
456.9905	0.09	913981	keystroke	a	n/a
457.1255	0.09	914251	keystroke	l	n/a
457.3505	0.075	914701	keystroke	Key.space	n/a
458.1305	0.075	916261	keystroke	c	n/a
458.2805	0.105	916561	keystroke	o	n/a
458.3555	0.09	916711	keystroke	n	n/a
458.5955	0.12	917191	keystroke	t	n/a
461.4485	0.012	922897	keystroke	i	n/a
461.5805	0.075	923161	keystroke	n	n/a
461.8655	0.0745	923731	keystroke	e	n/a
462.03	0.09	924060	keystroke	n	n/a
462.3	0.105	924600	keystroke	t	n/a
462.5405	0.105	925081	keystroke	a	n/a
462.7205	0.075	925441	keystroke	l	n/a
463.4705	0.09	926941	keystroke	r	n/a
463.5005	0.105	927001	keystroke	e	n/a
463.9205	0.0745	927841	keystroke	g	n/a
464.415	0.06	928830	keystroke	Key.backspace	n/a
464.5655	0.06	929131	keystroke	Key.backspace	n/a
464.7155	0.03	929431	keystroke	Key.backspace	n/a
465.121	0.059	930242	keystroke	Key.space	n/a
465.586	0.135	931172	keystroke	r	n/a
465.69	0.135	931380	keystroke	e	n/a
466.096	0.074	932192	keystroke	g	n/a
466.26	0.136	932520	keystroke	i	n/a
466.381	0.179	932762	keystroke	o	n/a
466.546	0.089	933092	keystroke	n	n/a
466.756	0.09	933512	keystroke	s	n/a
467.461	0.074	934922	keystroke	Key.enter	n/a
467.5415	11.3225	935083	prompt	n/a	describing dominican can beneficial\n
468.346	0.075	936692	keystroke	d	n/a
468.571	0.075	937142	keystroke	e	n/a
469.081	0.089	938162	keystroke	s	n/a
469.261	0.105	938522	keystroke	c	n/a
470.1295	0.061	940259	keystroke	r	n/a
470.3255	0.074	940651	keystroke	i	n/a
470.52	0.0755	941040	keystroke	b	n/a
470.715	0.121	941430	keystroke	i	n/a
470.851	0.074	941702	keystroke	n	n/a
471.031	0.075	942062	keystroke	g	n/a
471.121	0.075	942242	keystroke	Key.space	n/a
471.571	0.075	943142	keystroke	d	n/a
471.691	0.135	943382	keystroke	o	n/a
471.811	0.09	943622	keystroke	m	n/a
472.051	0.09	944102	keystroke	i	n/a
472.171	0.105	944342	keystroke	n	n/a
472.426	0.075	944852	keystroke	i	n/a
472.876	0.09	945752	keystroke	c	n/a
473.086	0.09	946172	keystroke	a	n/a
473.206	0.075	946412	keystroke	n	n/a
473.401	0.075	946802	keystroke	Key.space	n/a
473.701	0.12	947402	keystroke	c	n/a
474.48	0.091	948960	keystroke	a	n/a
474.691	0.06	949382	keystroke	n	n/a
474.856	0.074	949712	keystroke	Key.space	n/a
475.306	0.09	950612	keystroke	b	n/a
475.8155	0.06	951631	keystroke	e	n/a
476.0405	0.075	952081	keystroke	n	n/a
476.2205	0.075	952441	keystroke	e	n/a
476.7455	0.03	953491	keystroke	f	n/a
477.105	0.076	954210	keystroke	i	n/a
477.541	0.105	955082	keystroke	c	n/a
477.706	0.105	955412	keystroke	i	n/a
477.946	0.09	955892	keystroke	a	n/a
478.081	0.075	956162	keystroke	l	n/a
478.786	0.075	957572	keystroke	Key.enter	n/a
478.8715	14.697	957743	prompt	n/a	width houston separately british\n
479.641	0.09	959282	keystroke	w	n/a
479.851	0.075	959702	keystroke	i	n/a
480.421	0.09	960842	keystroke	d	n/a
480.841	0.075	961682	keystroke	t	n/a
480.976	0.075	961952	keystroke	h	n/a
481.216	0.075	962432	keystroke	Key.space	n/a
481.576	0.09	963152	keystroke	h	n/a
481.771	0.12	963542	keystroke	o	n/a
481.816	0.12	963632	keystroke	u	n/a
482.026	0.105	964052	keystroke	s	n/a
482.191	0.105	964382	keystroke	t	n/a
482.401	0.105	964802	keystroke	o	n/a
482.431	0.12	964862	keystroke	n	n/a
482.926	0.075	965852	keystroke	Key.space	n/a
483.256	0.075	966512	keystroke	s	n/a
483.856	0.06	967712	keystroke	e	n/a
484.036	0.105	968072	keystroke	p	n/a
484.336	0.12	968672	keystroke	e	n/a
484.816	0.075	969632	keystroke	Key.backspace	n/a
484.936	0.135	969872	keystroke	a	n/a
485.281	0.0895	970562	keystroke	r	n/a
485.5055	0.135	971011	keystroke	a	n/a
486.451	0.12	972902	keystroke	t	n/a
486.751	0.105	973502	keystroke	e	n/a
487.006	0.09	974012	keystroke	l	n/a
487.216	0.06	974432	keystroke	y	n/a
487.561	0.06	975122	keystroke	Key.space	n/a
488.536	0.06	977072	keystroke	b	n/a
488.701	0.075	977402	keystroke	r	n/a
488.836	0.09	977672	keystroke	i	n/a
489.0465	0.0595	978093	keystroke	t	n/a
489.151	0.105	978302	keystroke	i	n/a
489.721	0.09	979442	keystroke	Key.backspace	n/a
490.606	0.075	981212	keystroke	i	n/a
490.741	0.075	981482	keystroke	s	n/a
490.831	0.075	981662	keystroke	h	n/a
493.564	0.001	987128	keystroke	Key.enter	n/a
493.574	7.9685	987148	prompt	n/a	picked catch gate postcards\n
494.8505	0.09	989701	keystroke	p	n/a
495.0455	0.075	990091	keystroke	i	n/a
495.226	0.075	990452	keystroke	c	n/a
495.316	0.09	990632	keystroke	k	n/a
495.451	0.075	990902	keystroke	e	n/a
495.646	0.075	991292	keystroke	d	n/a
495.736	0.0745	991472	keystroke	Key.space	n/a
496.516	0.075	993032	keystroke	c	n/a
496.696	0.135	993392	keystroke	a	n/a
496.921	0.09	993842	keystroke	t	n/a
497.161	0.09	994322	keystroke	c	n/a
497.296	0.0745	994592	keystroke	h	n/a
497.4905	0.0755	994981	keystroke	Key.space	n/a
498.0005	0.06	996001	keystroke	g	n/a
498.1805	0.075	996361	keystroke	a	n/a
498.406	0.09	996812	keystroke	t	n/a
498.556	0.105	997112	keystroke	e	n/a
498.781	0.0595	997562	keystroke	Key.space	n/a
499.0505	0.09	998101	keystroke	p	n/a
499.3055	0.09	998611	keystroke	o	n/a
499.4705	0.09	998941	keystroke	s	n/a
499.6205	0.12	999241	keystroke	t	n/a
499.9655	0.1055	999931	keystroke	c	n/a
500.116	0.135	1000232	keystroke	a	n/a
500.3555	0.12	1000711	keystroke	r	n/a
500.701	0.09	1001402	keystroke	d	n/a
500.866	0.105	1001732	keystroke	s	n/a
501.481	0.06	1002962	keystroke	Key.enter	n/a
501.5475	12.1905	1003095	prompt	n/a	cooperative sprint cause salaries\n
502.816	0.09	1005632	keystroke	c	n/a
503.071	0.075	1006142	keystroke	o	n/a
503.3705	0.075	1006741	keystroke	p	n/a
504.3905	0.06	1008781	keystroke	Key.backspace	n/a
504.7505	0.075	1009501	keystroke	o	n/a
504.9305	0.09	1009861	keystroke	p	n/a
505.1555	0.075	1010311	keystroke	e	n/a
505.5005	0.1055	1011001	keystroke	r	n/a
506.1305	0.1055	1012261	keystroke	a	n/a
506.3255	0.0755	1012651	keystroke	t	n/a
506.431	0.09	1012862	keystroke	i	n/a
506.566	0.105	1013132	keystroke	v	n/a
506.731	0.0745	1013462	keystroke	e	n/a
506.8505	0.06	1013701	keystroke	Key.space	n/a
507.0455	0.105	1014091	keystroke	s	n/a
507.166	0.09	1014332	keystroke	p	n/a
507.4505	0.075	1014901	keystroke	r	n/a
507.6155	0.0905	1015231	keystroke	i	n/a
507.721	0.0895	1015442	keystroke	n	n/a
507.8855	0.06	1015771	keystroke	g	n/a
508.006	0.075	1016012	keystroke	Key.space	n/a
508.6205	0.075	1017241	keystroke	Key.backspace	n/a
508.7555	0.075	1017511	keystroke	Key.backspace	n/a
508.8905	0.09	1017781	keystroke	t	n/a
509.0105	0.105	1018021	keystroke	Key.space	n/a
509.6855	0.09	1019371	keystroke	c	n/a
509.836	0.12	1019672	keystroke	a	n/a
510.001	0.075	1020002	keystroke	u	n/a
510.106	0.12	1020212	keystroke	s	n/a
510.181	0.12	1020362	keystroke	e	n/a
510.3605	0.0755	1020721	keystroke	Key.space	n/a
510.9005	0.06	1021801	keystroke	s	n/a
511.2755	0.105	1022551	keystroke	a	n/a
511.6055	0.09	1023211	keystroke	l	n/a
511.8005	0.09	1023601	keystroke	a	n/a
512.1605	0.075	1024321	keystroke	r	n/a
512.3105	0.09	1024621	keystroke	i	n/a
512.5955	0.015	1025191	keystroke	e	n/a
512.7005	0.09	1025401	keystroke	s	n/a
513.6905	0.045	1027381	keystroke	Key.enter	n/a
513.7435	11.874	1027487	prompt	n/a	poster invitations seafood italian\n
514.4405	0.075	1028881	keystroke	p	n/a
514.6355	0.09	1029271	keystroke	o	n/a
514.7705	0.09	1029541	keystroke	s	n/a
514.9205	0.105	1029841	keystroke	t	n/a
515.0855	0.135	1030171	keystroke	e	n/a
515.1605	0.105	1030321	keystroke	r	n/a
515.3555	0.06	1030711	keystroke	Key.space	n/a
515.5505	0.09	1031101	keystroke	i	n/a
515.6555	0.09	1031311	keystroke	n	n/a
515.806	0.075	1031612	keystroke	v	n/a
515.956	0.09	1031912	keystroke	i	n/a
516.6755	0.09	1033351	keystroke	t	n/a
516.9455	0.12	1033891	keystroke	a	n/a
517.2155	0.0905	1034431	keystroke	t	n/a
517.381	0.15	1034762	keystroke	i	n/a
517.531	0.105	1035062	keystroke	o	n/a
517.591	0.09	1035182	keystroke	n	n/a
517.786	0.075	1035572	keystroke	s	n/a
517.921	0.075	1035842	keystroke	Key.space	n/a
518.2955	0.06	1036591	keystroke	s	n/a
518.4455	0.12	1036891	keystroke	e	n/a
518.6105	0.1355	1037221	keystroke	a	n/a
518.8655	0.105	1037731	keystroke	f	n/a
519.2705	0.075	1038541	keystroke	o	n/a
519.4205	0.06	1038841	keystroke	o	n/a
519.5405	0.0905	1039081	keystroke	d	n/a
520.2305	0.0605	1040461	keystroke	Key.space	n/a
520.5305	0.09	1041061	keystroke	s	n/a
520.921	0.09	1041842	keystroke	Key.backspace	n/a
521.206	0.075	1042412	keystroke	o	n/a
521.9105	0.075	1043821	keystroke	Key.backspace	n/a
522.4055	0.075	1044811	keystroke	i	n/a
522.6605	0.09	1045321	keystroke	t	n/a
523.7555	0.09	1047511	keystroke	a	n/a
523.9055	0.09	1047811	keystroke	l	n/a
524.1905	0.075	1048381	keystroke	i	n/a
524.4905	0.075	1048981	keystroke	a	n/a
524.7005	0.075	1049401	keystroke	n	n/a
525.5555	0.06	1051111	keystroke	Key.enter	n/a
525.6225	16.0755	1051245	prompt	n/a	wired engineer deemed distinction\n
526.3505	0.03	1052701	keystroke	w	n/a
526.4855	0.09	1052971	keystroke	i	n/a
526.6355	0.135	1053271	keystroke	r	n/a
526.6955	0.105	1053391	keystroke	e	n/a
526.9205	0.09	1053841	keystroke	d	n/a
527.116	0.045	1054232	keystroke	Key.space	n/a
527.6405	0.076	1055281	keystroke	e	n/a
527.9555	0.075	1055911	keystroke	n	n/a
528.1505	0.075	1056301	keystroke	d	n/a
529.0505	0.075	1058101	keystroke	i	n/a
529.2605	0.075	1058521	keystroke	n	n/a
529.5005	0.06	1059001	keystroke	e	n/a
529.6805	0.075	1059361	keystroke	e	n/a
529.8905	0.091	1059781	keystroke	r	n/a
530.0555	0.075	1060111	keystroke	Key.space	n/a
530.297	0.0745	1060594	keystroke	d	n/a
530.536	0.06	1061072	keystroke	e	n/a
530.656	0.075	1061312	keystroke	e	n/a
530.776	0.09	1061552	keystroke	m	n/a
531.931	0.09	1063862	keystroke	Key.backspace	n/a
532.112	0.059	1064224	keystroke	Key.backspace	n/a
532.261	0.045	1064522	keystroke	Key.backspace	n/a
532.411	0.045	1064822	keystroke	Key.backspace	n/a
532.5605	0.0455	1065121	keystroke	Key.backspace	n/a
532.711	0.06	1065422	keystroke	Key.backspace	n/a
532.936	0.015	1065872	keystroke	Key.backspace	n/a
533.011	0.06	1066022	keystroke	Key.backspace	n/a
533.176	0.06	1066352	keystroke	Key.backspace	n/a
533.311	0.075	1066622	keystroke	Key.backspace	n/a
533.476	0.03	1066952	keystroke	Key.backspace	n/a
534.1655	0.06	1068331	keystroke	g	n/a
535.276	0.075	1070552	keystroke	i	n/a
535.486	0.075	1070972	keystroke	n	n/a
535.786	0.045	1071572	keystroke	e	n/a
535.892	0.089	1071784	keystroke	e	n/a
536.117	0.09	1072234	keystroke	r	n/a
536.221	0.09	1072442	keystroke	Key.space	n/a
536.536	0.09	1073072	keystroke	d	n/a
536.776	0.09	1073552	keystroke	e	n/a
536.926	0.06	1073852	keystroke	e	n/a
537.061	0.09	1074122	keystroke	m	n/a
537.181	0.075	1074362	keystroke	e	n/a
537.376	0.136	1074752	keystroke	d	n/a
537.571	0.075	1075142	keystroke	Key.space	n/a
537.886	0.09	1075772	keystroke	s	n/a
538.051	0.075	1076102	keystroke	i	n/a
538.546	0.075	1077092	keystroke	Key.backspace	n/a
538.681	0.075	1077362	keystroke	Key.backspace	n/a
538.802	0.09	1077604	keystroke	d	n/a
538.981	0.09	1077962	keystroke	i	n/a
539.176	0.09	1078352	keystroke	s	n/a
539.401	0.075	1078802	keystroke	t	n/a
539.536	0.106	1079072	keystroke	i	n/a
539.671	0.105	1079342	keystroke	n	n/a
539.881	0.09	1079762	keystroke	c	n/a
540.301	0.076	1080602	keystroke	t	n/a
540.361	0.136	1080722	keystroke	i	n/a
540.481	0.12	1080962	keystroke	o	n/a
540.512	0.119	1081024	keystroke	n	n/a
541.6355	0.06	1083271	keystroke	Key.enter	n/a
541.702	9.9265	1083404	prompt	n/a	meditation begun burlington spirit\n
542.536	0.09	1085072	keystroke	m	n/a
542.687	0.074	1085374	keystroke	e	n/a
542.896	0.121	1085792	keystroke	d	n/a
543.091	0.09	1086182	keystroke	i	n/a
543.436	0.121	1086872	keystroke	a	n/a
543.721	0.075	1087442	keystroke	t	n/a
543.811	0.106	1087622	keystroke	i	n/a
543.871	0.135	1087742	keystroke	o	n/a
543.961	0.09	1087922	keystroke	n	n/a
544.156	0.075	1088312	keystroke	Key.space	n/a
544.592	0.075	1089184	keystroke	b	n/a
544.712	0.089	1089424	keystroke	e	n/a
545.131	0.046	1090262	keystroke	g	n/a
545.2965	0.059	1090593	keystroke	u	n/a
545.492	0.09	1090984	keystroke	n	n/a
545.7305	0.075	1091461	keystroke	Key.space	n/a
546.1055	0.0755	1092211	keystroke	b	n/a
546.3465	0.06	1092693	keystroke	u	n/a
546.6465	0.059	1093293	keystroke	r	n/a
546.962	0.075	1093924	keystroke	l	n/a
547.112	0.1045	1094224	keystroke	i	n/a
547.2315	0.12	1094463	keystroke	n	n/a
547.4115	0.06	1094823	keystroke	g	n/a
547.847	0.059	1095694	keystroke	t	n/a
547.967	0.15	1095934	keystroke	o	n/a
548.072	0.12	1096144	keystroke	n	n/a
548.356	0.061	1096712	keystroke	Key.space	n/a
548.792	0.075	1097584	keystroke	s	n/a
548.926	0.075	1097852	keystroke	p	n/a
550.112	0.06	1100224	keystroke	i	n/a
550.4715	0.06	1100943	keystroke	r	n/a
550.667	0.075	1101334	keystroke	i	n/a
550.8615	0.075	1101723	keystroke	t	n/a
551.567	0.059	1103134	keystroke	Key.enter	n/a
551.634	11.3345	1103268	prompt	n/a	estates soonest airplane birds\n
552.4065	0.12	1104813	keystroke	e	n/a
552.7965	0.09	1105593	keystroke	s	n/a
553.381	0.09	1106762	keystroke	t	n/a
553.59	0.135	1107180	keystroke	a	n/a
553.77	0.121	1107540	keystroke	t	n/a
553.9665	0.105	1107933	keystroke	e	n/a
554.1765	0.09	1108353	keystroke	s	n/a
554.3715	0.059	1108743	keystroke	Key.space	n/a
554.6265	0.09	1109253	keystroke	s	n/a
554.8515	0.06	1109703	keystroke	o	n/a
554.9865	0.075	1109973	keystroke	o	n/a
555.1065	0.075	1110213	keystroke	n	n/a
555.3155	0.106	1110631	keystroke	e	n/a
555.5865	0.12	1111173	keystroke	s	n/a
555.8115	0.09	1111623	keystroke	t	n/a
556.2465	0.06	1112493	keystroke	Key.space	n/a
556.7415	0.09	1113483	keystroke	a	n/a
556.9215	0.075	1113843	keystroke	i	n/a
557.1165	0.06	1114233	keystroke	r	n/a
557.2965	0.075	1114593	keystroke	p	n/a
557.5215	0.045	1115043	keystroke	l	n/a
557.6115	0.1205	1115223	keystroke	a	n/a
557.957	0.12	1115914	keystroke	c	n/a
558.332	0.12	1116664	keystroke	e	n/a
558.7665	0.075	1117533	keystroke	Key.backspace	n/a
558.9315	0.06	1117863	keystroke	Key.backspace	n/a
559.0215	0.12	1118043	keystroke	v	n/a
559.1565	0.045	1118313	keystroke	e	n/a
559.4565	0.06	1118913	keystroke	Key.backspace	n/a
559.5915	0.075	1119183	keystroke	Key.backspace	n/a
560.2365	0.075	1120473	keystroke	n	n/a
560.3715	0.09	1120743	keystroke	e	n/a
560.912	0.075	1121824	keystroke	Key.space	n/a
561.467	0.06	1122934	keystroke	b	n/a
561.632	0.0745	1123264	keystroke	i	n/a
561.8715	0.09	1123743	keystroke	r	n/a
562.0665	0.195	1124133	keystroke	d	n/a
562.2315	0.135	1124463	keystroke	s	n/a
562.9065	0.06	1125813	keystroke	Key.enter	n/a
562.973	10.72	1125946	prompt	n/a	noble beginner campaign destinations\n
563.732	0.0445	1127464	keystroke	n	n/a
564.6315	0.105	1129263	keystroke	o	n/a
564.8115	0.09	1129623	keystroke	b	n/a
564.9915	0.105	1129983	keystroke	l	n/a
565.1565	0.075	1130313	keystroke	e	n/a
565.2765	0.06	1130553	keystroke	Key.space	n/a
565.547	0.075	1131094	keystroke	b	n/a
565.727	0.09	1131454	keystroke	e	n/a
565.9815	0.09	1131963	keystroke	g	n/a
566.2515	0.075	1132503	keystroke	i	n/a
566.492	0.06	1132984	keystroke	n	n/a
566.627	0.075	1133254	keystroke	n	n/a
566.747	0.15	1133494	keystroke	e	n/a
566.852	0.0895	1133704	keystroke	r	n/a
567.0315	0.075	1134063	keystroke	Key.space	n/a
567.4815	0.075	1134963	keystroke	c	n/a
567.6465	0.09	1135293	keystroke	a	n/a
567.7965	0.09	1135593	keystroke	m	n/a
568.0515	0.09	1136103	keystroke	p	n/a
568.6515	0.105	1137303	keystroke	a	n/a
568.937	0.09	1137874	keystroke	i	n/a
569.342	0.045	1138684	keystroke	g	n/a
569.432	0.075	1138864	keystroke	n	n/a
569.672	0.075	1139344	keystroke	Key.space	n/a
570.257	0.06	1140514	keystroke	d	n/a
570.437	0.075	1140874	keystroke	e	n/a
570.617	0.105	1141234	keystroke	s	n/a
570.797	0.105	1141594	keystroke	t	n/a
570.9465	0.075	1141893	keystroke	i	n/a
571.4865	0.06	1142973	keystroke	n	n/a
572.3565	0.09	1144713	keystroke	a	n/a
572.5365	0.09	1145073	keystroke	t	n/a
572.6115	0.135	1145223	keystroke	i	n/a
572.7165	0.105	1145433	keystroke	o	n/a
572.7625	0.104	1145525	keystroke	n	n/a
572.9265	0.105	1145853	keystroke	s	n/a
573.6765	0.015	1147353	keystroke	Key.enter	n/a
573.6975	10.542	1147395	prompt	n/a	pass greater organization mike\n
574.3515	0.09	1148703	keystroke	p	n/a
574.5465	0.09	1149093	keystroke	a	n/a
574.7715	0.06	1149543	keystroke	s	n/a
574.9065	0.075	1149813	keystroke	s	n/a
575.0115	0.075	1150023	keystroke	Key.space	n/a
575.3565	0.075	1150713	keystroke	g	n/a
575.5665	0.135	1151133	keystroke	r	n/a
575.867	0.105	1151734	keystroke	e	n/a
576.107	0.12	1152214	keystroke	a	n/a
576.3465	0.105	1152693	keystroke	t	n/a
576.5265	0.1505	1153053	keystroke	e	n/a
576.617	0.105	1153234	keystroke	r	n/a
576.9165	0.0755	1153833	keystroke	Key.space	n/a
577.172	0.09	1154344	keystroke	o	n/a
577.367	0.0895	1154734	keystroke	r	n/a
577.6215	0.075	1155243	keystroke	g	n/a
577.8015	0.105	1155603	keystroke	a	n/a
577.9815	0.075	1155963	keystroke	n	n/a
578.2215	0.075	1156443	keystroke	i	n/a
578.672	0.105	1157344	keystroke	z	n/a
579.167	0.12	1158334	keystroke	a	n/a
579.452	0.1045	1158904	keystroke	t	n/a
579.5715	0.09	1159143	keystroke	i	n/a
579.6165	0.12	1159233	keystroke	o	n/a
579.857	0.09	1159714	keystroke	Key.space	n/a
580.517	0.0745	1161034	keystroke	Key.backspace	n/a
580.8165	0.06	1161633	keystroke	Key.space	n/a
581.4165	0.045	1162833	keystroke	Key.backspace	n/a
582.407	0.075	1164814	keystroke	n	n/a
582.602	0.075	1165204	keystroke	Key.space	n/a
582.9465	0.09	1165893	keystroke	m	n/a
583.1265	0.09	1166253	keystroke	i	n/a
583.2915	0.105	1166583	keystroke	k	n/a
583.4415	0.09	1166883	keystroke	e	n/a
584.1765	0.06	1168353	keystroke	Key.enter	n/a
584.246	16.058	1168492	prompt	n/a	sequences later garbage structural\n
585.1965	0.09	1170393	keystroke	s	n/a
585.4515	0.12	1170903	keystroke	q	n/a
586.3215	0.075	1172643	keystroke	Key.backspace	n/a
587.0265	0.06	1174053	keystroke	i	n/a
587.4765	0.075	1174953	keystroke	Key.backspace	n/a
589.3215	0.09	1178643	keystroke	e	n/a
589.6665	0.09	1179333	keystroke	q	n/a
589.8915	0.09	1179783	keystroke	u	n/a
590.1615	0.09	1180323	keystroke	e	n/a
590.9865	0.075	1181973	keystroke	n	n/a
591.0915	0.105	1182183	keystroke	c	n/a
591.2715	0.09	1182543	keystroke	e	n/a
591.5415	0.105	1183083	keystroke	s	n/a
591.7965	0.06	1183593	keystroke	Key.space	n/a
592.1565	0.09	1184313	keystroke	l	n/a
592.2615	0.09	1184523	keystroke	a	n/a
592.4415	0.105	1184883	keystroke	t	n/a
592.6065	0.15	1185213	keystroke	e	n/a
592.6815	0.105	1185363	keystroke	r	n/a
592.8465	0.09	1185693	keystroke	Key.space	n/a
593.1915	0.075	1186383	keystroke	g	n/a
593.4165	0.09	1186833	keystroke	r	n/a
593.9565	0.09	1187913	keystroke	Key.backspace	n/a
594.1215	0.09	1188243	keystroke	a	n/a
594.3165	0.09	1188633	keystroke	r	n/a
595.3515	0.075	1190703	keystroke	b	n/a
595.4865	0.12	1190973	keystroke	a	n/a
595.7115	0.0755	1191423	keystroke	g	n/a
595.8765	0.09	1191753	keystroke	e	n/a
596.3115	0.09	1192623	keystroke	Key.space	n/a
596.4915	0.105	1192983	keystroke	s	n/a
596.7315	0.09	1193463	keystroke	t	n/a
596.9265	0.09	1193853	keystroke	r	n/a
597.2115	0.075	1194423	keystroke	u	n/a
597.4215	0.135	1194843	keystroke	c	n/a
598.5465	0.075	1197093	keystroke	t	n/a
598.8465	0.075	1197693	keystroke	u	n/a
599.1315	0.09	1198263	keystroke	r	n/a
599.3415	0.06	1198683	keystroke	a	n/a
599.4315	0.09	1198863	keystroke	l	n/a
600.2415	0.06	1200483	keystroke	Key.enter	n/a
600.31	7.3745	1200620	prompt	n/a	highs except paper serial\n
601.5015	0.075	1203003	keystroke	h	n/a
601.6365	0.09	1203273	keystroke	i	n/a
601.8615	0.06	1203723	keystroke	g	n/a
601.9515	0.09	1203903	keystroke	h	n/a
602.3265	0.075	1204653	keystroke	s	n/a
602.5065	0.06	1205013	keystroke	Key.space	n/a
602.9565	0.06	1205913	keystroke	e	n/a
603.2415	0.09	1206483	keystroke	x	n/a
603.6015	0.105	1207203	keystroke	c	n/a
603.8265	0.105	1207653	keystroke	e	n/a
604.0515	0.075	1208103	keystroke	p	n/a
604.2165	0.075	1208433	keystroke	t	n/a
604.3515	0.06	1208703	keystroke	Key.space	n/a
604.5765	0.09	1209153	keystroke	p	n/a
604.6815	0.105	1209363	keystroke	a	n/a
604.8465	0.075	1209693	keystroke	p	n/a
605.0115	0.15	1210023	keystroke	e	n/a
605.1015	0.105	1210203	keystroke	r	n/a
605.2665	0.09	1210533	keystroke	Key.space	n/a
605.5815	0.09	1211163	keystroke	s	n/a
605.7465	0.12	1211493	keystroke	e	n/a
605.8215	0.09	1211643	keystroke	r	n/a
606.5865	0.075	1213173	keystroke	i	n/a
606.6915	0.105	1213383	keystroke	a	n/a
606.8265	0.105	1213653	keystroke	l	n/a
607.6215	0.06	1215243	keystroke	Key.enter	n/a
607.6925	9.8015	1215385	prompt	n/a	zoning jews towards suspension\n
608.7015	0.135	1217403	keystroke	z	n/a
608.9715	0.105	1217943	keystroke	o	n/a
609.1065	0.12	1218213	keystroke	n	n/a
609.3015	0.135	1218603	keystroke	i	n/a
609.4375	0.104	1218875	keystroke	n	n/a
609.5865	0.075	1219173	keystroke	g	n/a
609.7665	0.075	1219533	keystroke	Key.space	n/a
610.2765	0.075	1220553	keystroke	j	n/a
610.4265	0.12	1220853	keystroke	e	n/a
611.0715	0.09	1222143	keystroke	w	n/a
611.3265	0.105	1222653	keystroke	s	n/a
611.5815	0.075	1223163	keystroke	Key.space	n/a
612.1215	0.075	1224243	keystroke	t	n/a
612.2415	0.09	1224483	keystroke	o	n/a
612.5415	0.09	1225083	keystroke	w	n/a
612.8865	0.09	1225773	keystroke	a	n/a
613.0965	0.09	1226193	keystroke	r	n/a
613.3215	0.135	1226643	keystroke	d	n/a
613.4415	0.105	1226883	keystroke	s	n/a
613.6215	0.075	1227243	keystroke	Key.space	n/a
614.4015	0.075	1228803	keystroke	s	n/a
614.5815	0.075	1229163	keystroke	u	n/a
614.9715	0.105	1229943	keystroke	s	n/a
615.3465	0.075	1230693	keystroke	p	n/a
615.5565	0.076	1231113	keystroke	e	n/a
616.1715	0.06	1232343	keystroke	n	n/a
616.4415	0.09	1232883	keystroke	s	n/a
616.5765	0.09	1233153	keystroke	i	n/a
616.6215	0.15	1233243	keystroke	o	n/a
616.6815	0.12	1233363	keystroke	n	n/a
617.4165	0.075	1234833	keystroke	Key.enter	n/a
617.4985	10.3575	1234997	prompt	n/a	aims namely accessing acrobat\n
618.227	0.0745	1236454	keystroke	a	n/a
618.5415	0.105	1237083	keystroke	i	n/a
618.752	0.0895	1237504	keystroke	m	n/a
619.3815	0.075	1238763	keystroke	s	n/a
619.5315	0.06	1239063	keystroke	Key.space	n/a
619.8325	0.059	1239665	keystroke	b	n/a
619.9515	0.09	1239903	keystroke	a	n/a
620.0565	0.09	1240113	keystroke	m	n/a
620.238	0.074	1240476	keystroke	e	n/a
620.5365	0.075	1241073	keystroke	Key.backspace	n/a
620.6865	0.06	1241373	keystroke	Key.backspace	n/a
620.837	0.0595	1241674	keystroke	Key.backspace	n/a
621.0615	0.06	1242123	keystroke	Key.backspace	n/a
621.7965	0.06	1243593	keystroke	n	n/a
621.9165	0.105	1243833	keystroke	a	n/a
622.0225	0.074	1244045	keystroke	m	n/a
622.1865	0.06	1244373	keystroke	e	n/a
622.4275	0.074	1244855	keystroke	l	n/a
622.6665	0.06	1245333	keystroke	y	n/a
622.8765	0.075	1245753	keystroke	Key.space	n/a
623.2065	0.09	1246413	keystroke	a	n/a
623.4325	0.089	1246865	keystroke	c	n/a
623.8065	0.075	1247613	keystroke	c	n/a
624.0915	0.075	1248183	keystroke	e	n/a
624.377	0.045	1248754	keystroke	s	n/a
624.497	0.06	1248994	keystroke	s	n/a
624.632	0.12	1249264	keystroke	i	n/a
624.737	0.075	1249474	keystroke	n	n/a
624.902	0.046	1249804	keystroke	g	n/a
625.007	0.075	1250014	keystroke	Key.space	n/a
625.457	0.09	1250914	keystroke	a	n/a
625.712	0.091	1251424	keystroke	c	n/a
626.012	0.075	1252024	keystroke	r	n/a
626.2665	0.0915	1252533	keystroke	o	n/a
626.702	0.075	1253404	keystroke	b	n/a
626.852	0.09	1253704	keystroke	a	n/a
626.972	0.121	1253944	keystroke	t	n/a
627.767	0.075	1255534	keystroke	Key.enter	n/a
627.8605	9.1635	1255721	prompt	n/a	psychiatry pensions jake entire\n
628.502	0.09	1257004	keystroke	p	n/a
628.908	0.0735	1257816	keystroke	s	n/a
629.132	0.076	1258264	keystroke	y	n/a
629.387	0.1055	1258774	keystroke	c	n/a
629.582	0.076	1259164	keystroke	h	n/a
629.838	0.074	1259676	keystroke	i	n/a
630.422	0.105	1260844	keystroke	a	n/a
630.708	0.089	1261416	keystroke	t	n/a
630.917	0.076	1261834	keystroke	r	n/a
631.097	0.075	1262194	keystroke	y	n/a
631.307	0.09	1262614	keystroke	Key.space	n/a
631.907	0.09	1263814	keystroke	p	n/a
632.2075	0.044	1264415	keystroke	e	n/a
632.4465	0.076	1264893	keystroke	n	n/a
632.7615	0.076	1265523	keystroke	s	n/a
632.8825	0.119	1265765	keystroke	i	n/a
632.9425	0.195	1265885	keystroke	o	n/a
633.0165	0.151	1266033	keystroke	n	n/a
633.5565	0.06	1267113	keystroke	s	n/a
633.7515	0.06	1267503	keystroke	Key.space	n/a
634.2765	0.076	1268553	keystroke	j	n/a
634.4125	0.119	1268825	keystroke	a	n/a
634.6815	0.075	1269363	keystroke	k	n/a
634.8465	0.061	1269693	keystroke	e	n/a
634.9665	0.075	1269933	keystroke	Key.space	n/a
635.4165	0.06	1270833	keystroke	e	n/a
635.5075	0.075	1271015	keystroke	n	n/a
636.0015	0.045	1272003	keystroke	t	n/a
636.0765	0.09	1272153	keystroke	i	n/a
636.2115	0.121	1272423	keystroke	r	n/a
636.2865	0.121	1272573	keystroke	e	n/a
636.9765	0.045	1273953	keystroke	Key.enter	n/a
637.029	7.9895	1274058	prompt	n/a	thinks classics miss insider\n
637.7425	0.074	1275485	keystroke	t	n/a
637.8325	0.075	1275665	keystroke	h	n/a
637.9825	0.134	1275965	keystroke	i	n/a
638.4765	0.091	1276953	keystroke	n	n/a
638.5815	0.121	1277163	keystroke	k	n/a
638.7625	0.089	1277525	keystroke	s	n/a
638.8965	0.09	1277793	keystroke	Key.space	n/a
639.2875	0.09	1278575	keystroke	c	n/a
639.4825	0.075	1278965	keystroke	l	n/a
639.6925	0.1035	1279385	keystroke	a	n/a
639.976	0.061	1279952	keystroke	s	n/a
640.1115	0.06	1280223	keystroke	s	n/a
640.2165	0.076	1280433	keystroke	i	n/a
640.4275	0.09	1280855	keystroke	c	n/a
640.6665	0.076	1281333	keystroke	s	n/a
640.8465	0.06	1281693	keystroke	Key.space	n/a
641.1765	0.075	1282353	keystroke	m	n/a
641.3575	0.09	1282715	keystroke	i	n/a
641.5965	0.076	1283193	keystroke	s	n/a
641.6865	0.1045	1283373	keystroke	s	n/a
642.361	0.06	1284722	keystroke	Key.space	n/a
642.932	0.075	1285864	keystroke	i	n/a
643.0965	0.0745	1286193	keystroke	n	n/a
643.651	0.076	1287302	keystroke	s	n/a
643.772	0.089	1287544	keystroke	i	n/a
644.057	0.045	1288114	keystroke	d	n/a
644.2515	0.1195	1288503	keystroke	e	n/a
644.327	0.105	1288654	keystroke	r	n/a
644.957	0.059	1289914	keystroke	Key.enter	n/a
645.023	8.3955	1290046	prompt	n/a	seem freeware coupled designers\n
645.676	0.075	1291352	keystroke	s	n/a
645.902	0.045	1291804	keystroke	e	n/a
646.007	0.074	1292014	keystroke	e	n/a
646.142	0.075	1292284	keystroke	m	n/a
646.336	0.075	1292672	keystroke	Key.space	n/a
646.592	0.075	1293184	keystroke	f	n/a
646.817	0.104	1293634	keystroke	r	n/a
647.087	0.045	1294174	keystroke	e	n/a
647.207	0.075	1294414	keystroke	e	n/a
647.522	0.09	1295044	keystroke	w	n/a
647.687	0.104	1295374	keystroke	a	n/a
647.807	0.12	1295614	keystroke	r	n/a
647.897	0.119	1295794	keystroke	e	n/a
648.166	0.076	1296332	keystroke	Key.space	n/a
648.452	0.105	1296904	keystroke	c	n/a
648.647	0.15	1297294	keystroke	o	n/a
648.767	0.09	1297534	keystroke	u	n/a
648.992	0.105	1297984	keystroke	p	n/a
649.337	0.075	1298674	keystroke	l	n/a
649.547	0.075	1299094	keystroke	e	n/a
649.742	0.09	1299484	keystroke	d	n/a
649.876	0.075	1299752	keystroke	Key.space	n/a
650.207	0.09	1300414	keystroke	d	n/a
650.447	0.105	1300894	keystroke	e	n/a
650.731	0.09	1301462	keystroke	s	n/a
651.212	0.06	1302424	keystroke	i	n/a
651.662	0.06	1303324	keystroke	g	n/a
651.767	0.074	1303534	keystroke	n	n/a
652.141	0.136	1304282	keystroke	e	n/a
652.232	0.075	1304464	keystroke	r	n/a
652.547	0.06	1305094	keystroke	s	n/a
653.357	0.059	1306714	keystroke	Key.enter	n/a
653.424	11.74	1306848	prompt	n/a	archived several documented targets\n
654.152	0.09	1308304	keystroke	a	n/a
654.542	0.09	1309084	keystroke	r	n/a
654.767	0.105	1309534	keystroke	c	n/a
654.902	0.06	1309804	keystroke	h	n/a
655.292	0.09	1310584	keystroke	i	n/a
655.397	0.075	1310794	keystroke	v	n/a
655.577	0.09	1311154	keystroke	e	n/a
655.787	0.09	1311574	keystroke	d	n/a
655.967	0.075	1311934	keystroke	Key.space	n/a
656.267	0.075	1312534	keystroke	s	n/a
656.492	0.105	1312984	keystroke	e	n/a
656.7775	0.0745	1313555	keystroke	v	n/a
656.912	0.135	1313824	keystroke	e	n/a
657.002	0.075	1314004	keystroke	r	n/a
657.347	0.09	1314694	keystroke	a	n/a
657.497	0.06	1314994	keystroke	l	n/a
657.662	0.075	1315324	keystroke	Key.space	n/a
658.232	0.075	1316464	keystroke	s	n/a
659.057	0.09	1318114	keystroke	Key.backspace	n/a
659.237	0.06	1318474	keystroke	d	n/a
659.492	0.0905	1318984	keystroke	o	n/a
659.7475	0.075	1319495	keystroke	c	n/a
660.437	0.075	1320874	keystroke	u	n/a
660.7075	0.075	1321415	keystroke	m	n/a
660.857	0.09	1321714	keystroke	e	n/a
660.977	0.0755	1321954	keystroke	n	n/a
661.1125	0.105	1322225	keystroke	t	n/a
661.2775	0.1045	1322555	keystroke	e	n/a
661.502	0.09	1323004	keystroke	d	n/a
661.637	0.09	1323274	keystroke	Key.space	n/a
661.937	0.075	1323874	keystroke	t	n/a
662.3575	0.12	1324715	keystroke	a	n/a
663.0475	0.12	1326095	keystroke	r	n/a
663.6925	0.075	1327385	keystroke	g	n/a
663.977	0.0905	1327954	keystroke	e	n/a
664.2175	0.105	1328435	keystroke	t	n/a
664.4875	0.09	1328975	keystroke	s	n/a
665.1025	0.06	1330205	keystroke	Key.enter	n/a
665.1705	11.4545	1330341	prompt	n/a	apartments feature economic captured\n
665.8975	0.09	1331795	keystroke	a	n/a
666.0325	0.105	1332065	keystroke	p	n/a
666.4075	0.105	1332815	keystroke	a	n/a
666.5875	0.09	1333175	keystroke	r	n/a
666.8125	0.045	1333625	keystroke	t	n/a
667.5625	0.075	1335125	keystroke	m	n/a
667.8175	0.105	1335635	keystroke	e	n/a
667.9525	0.09	1335905	keystroke	n	n/a
668.1175	0.09	1336235	keystroke	t	n/a
668.4325	0.075	1336865	keystroke	s	n/a
668.5975	0.075	1337195	keystroke	Key.space	n/a
669.7375	0.09	1339475	keystroke	f	n/a
670.0075	0.075	1340015	keystroke	e	n/a
670.1875	0.12	1340375	keystroke	a	n/a
670.3675	0.105	1340735	keystroke	t	n/a
670.6225	0.075	1341245	keystroke	u	n/a
670.6975	0.09	1341395	keystroke	r	n/a
670.7575	0.075	1341515	keystroke	e	n/a
670.9675	0.075	1341935	keystroke	Key.space	n/a
671.4775	0.075	1342955	keystroke	e	n/a
671.7325	0.12	1343465	keystroke	c	n/a
671.9725	0.105	1343945	keystroke	o	n/a
672.0475	0.105	1344095	keystroke	n	n/a
673.1725	0.09	1346345	keystroke	o	n/a
673.4125	0.075	1346825	keystroke	m	n/a
673.5925	0.09	1347185	keystroke	i	n/a
673.6975	0.105	1347395	keystroke	c	n/a
673.8775	0.09	1347755	keystroke	Key.space	n/a
674.4325	0.09	1348865	keystroke	c	n/a
674.6125	0.105	1349225	keystroke	a	n/a
674.8675	0.075	1349735	keystroke	p	n/a
675.1225	0.09	1350245	keystroke	t	n/a
675.3925	0.075	1350785	keystroke	u	n/a
675.4825	0.105	1350965	keystroke	r	n/a
675.5575	0.075	1351115	keystroke	e	n/a
675.7975	0.12	1351595	keystroke	d	n/a
676.5625	0.06	1353125	keystroke	Key.enter	n/a
676.631	10.9885	1353262	prompt	n/a	remain ties utilization ourselves\n
677.4775	0.15	1354955	keystroke	e	n/a
678.1225	0.075	1356245	keystroke	Key.backspace	n/a
678.2425	0.105	1356485	keystroke	r	n/a
678.3325	0.075	1356665	keystroke	e	n/a
678.797	0.075	1357594	keystroke	m	n/a
678.917	0.1055	1357834	keystroke	a	n/a
679.0375	0.09	1358075	keystroke	i	n/a
679.1425	0.09	1358285	keystroke	n	n/a
679.337	0.0905	1358674	keystroke	Key.space	n/a
679.7725	0.045	1359545	keystroke	t	n/a
679.847	0.0905	1359694	keystroke	i	n/a
680.0275	0.075	1360055	keystroke	e	n/a
680.2375	0.0745	1360475	keystroke	s	n/a
680.327	0.09	1360654	keystroke	Key.space	n/a
680.897	0.075	1361794	keystroke	u	n/a
681.317	0.06	1362634	keystroke	t	n/a
682.052	0.09	1364104	keystroke	i	n/a
682.262	0.12	1364524	keystroke	l	n/a
682.502	0.075	1365004	keystroke	i	n/a
683.672	0.105	1367344	keystroke	z	n/a
683.957	0.135	1367914	keystroke	a	n/a
684.332	0.075	1368664	keystroke	t	n/a
684.452	0.15	1368904	keystroke	i	n/a
684.557	0.135	1369114	keystroke	o	n/a
684.617	0.105	1369234	keystroke	n	n/a
684.992	0.06	1369984	keystroke	Key.space	n/a
685.382	0.135	1370764	keystroke	o	n/a
685.457	0.09	1370914	keystroke	u	n/a
685.667	0.075	1371334	keystroke	r	n/a
685.937	0.075	1371874	keystroke	s	n/a
686.102	0.09	1372204	keystroke	e	n/a
686.252	0.09	1372504	keystroke	l	n/a
686.432	0.06	1372864	keystroke	v	n/a
686.582	0.075	1373164	keystroke	e	n/a
686.867	0.09	1373734	keystroke	s	n/a
687.602	0.015	1375204	keystroke	Key.enter	n/a
687.6265	10.988	1375253	prompt	n/a	mines economic saint potato\n
688.592	0.06	1377184	keystroke	m	n/a
688.757	0.075	1377514	keystroke	i	n/a
688.862	0.105	1377724	keystroke	n	n/a
688.997	0.09	1377994	keystroke	e	n/a
689.162	0.105	1378324	keystroke	s	n/a
689.297	0.09	1378594	keystroke	Key.space	n/a
689.567	0.075	1379134	keystroke	c	n/a
689.732	0.105	1379464	keystroke	o	n/a
689.987	0.09	1379974	keystroke	n	n/a
690.602	0.06	1381204	keystroke	Key.backspace	n/a
690.737	0.075	1381474	keystroke	Key.backspace	n/a
690.887	0.075	1381774	keystroke	Key.backspace	n/a
691.007	0.09	1382014	keystroke	e	n/a
691.457	0.075	1382914	keystroke	c	n/a
691.607	0.135	1383214	keystroke	o	n/a
692.147	0.075	1384294	keystroke	n	n/a
693.677	0.09	1387354	keystroke	o	n/a
694.397	0.06	1388794	keystroke	m	n/a
694.562	0.09	1389124	keystroke	i	n/a
694.712	0.09	1389424	keystroke	c	n/a
694.862	0.075	1389724	keystroke	Key.space	n/a
695.207	0.075	1390414	keystroke	s	n/a
695.597	0.105	1391194	keystroke	a	n/a
695.957	0.09	1391914	keystroke	i	n/a
696.077	0.09	1392154	keystroke	n	n/a
696.242	0.09	1392484	keystroke	t	n/a
696.347	0.09	1392694	keystroke	Key.space	n/a
696.572	0.09	1393144	keystroke	p	n/a
696.812	0.075	1393624	keystroke	o	n/a
697.232	0.105	1394464	keystroke	t	n/a
697.457	0.135	1394914	keystroke	a	n/a
697.622	0.105	1395244	keystroke	t	n/a
697.877	0.09	1395754	keystroke	o	n/a
698.537	0.075	1397074	keystroke	Key.enter	n/a
698.6195	9.7	1397239	prompt	n/a	journalist enabled her tape\n
700.052	0.075	1400104	keystroke	j	n/a
700.607	0.15	1401214	keystroke	o	n/a
701.072	0.075	1402144	keystroke	Key.backspace	n/a
701.657	0.075	1403314	keystroke	o	n/a
701.807	0.075	1403614	keystroke	u	n/a
702.062	0.075	1404124	keystroke	r	n/a
702.482	0.075	1404964	keystroke	n	n/a
702.617	0.09	1405234	keystroke	a	n/a
702.752	0.09	1405504	keystroke	l	n/a
702.917	0.105	1405834	keystroke	i	n/a
703.037	0.105	1406074	keystroke	s	n/a
703.217	0.09	1406434	keystroke	t	n/a
703.352	0.06	1406704	keystroke	Key.space	n/a
703.847	0.075	1407694	keystroke	e	n/a
703.953	0.074	1407906	keystroke	n	n/a
704.252	0.12	1408504	keystroke	a	n/a
704.462	0.075	1408924	keystroke	b	n/a
704.672	0.09	1409344	keystroke	l	n/a
704.822	0.075	1409644	keystroke	e	n/a
705.047	0.12	1410094	keystroke	d	n/a
705.317	0.06	1410634	keystroke	Key.space	n/a
706.367	0.075	1412734	keystroke	h	n/a
706.517	0.136	1413034	keystroke	e	n/a
706.592	0.075	1413184	keystroke	r	n/a
706.847	0.075	1413694	keystroke	Key.space	n/a
707.252	0.075	1414504	keystroke	t	n/a
707.417	0.09	1414834	keystroke	a	n/a
707.492	0.09	1414984	keystroke	p	n/a
707.642	0.09	1415284	keystroke	e	n/a
708.257	0.06	1416514	keystroke	Key.enter	n/a
708.325	9.46	1416650	prompt	n/a	bloom environments guards emotions\n
709.037	0.075	1418074	keystroke	b	n/a
709.232	0.09	1418464	keystroke	l	n/a
709.472	0.06	1418944	keystroke	o	n/a
709.592	0.09	1419184	keystroke	o	n/a
709.757	0.09	1419514	keystroke	m	n/a
709.937	0.09	1419874	keystroke	Key.space	n/a
710.147	0.0755	1420294	keystroke	e	n/a
710.252	0.09	1420504	keystroke	n	n/a
710.837	0.075	1421674	keystroke	v	n/a
711.092	0.075	1422184	keystroke	i	n/a
711.377	0.06	1422754	keystroke	r	n/a
711.482	0.12	1422964	keystroke	o	n/a
711.572	0.075	1423144	keystroke	n	n/a
711.842	0.09	1423684	keystroke	m	n/a
711.977	0.075	1423954	keystroke	e	n/a
712.097	0.09	1424194	keystroke	n	n/a
712.247	0.105	1424494	keystroke	t	n/a
712.457	0.075	1424914	keystroke	s	n/a
712.592	0.075	1425184	keystroke	Key.space	n/a
713.177	0.075	1426354	keystroke	g	n/a
714.032	0.06	1428064	keystroke	u	n/a
714.197	0.09	1428394	keystroke	a	n/a
714.392	0.091	1428784	keystroke	r	n/a
714.602	0.15	1429204	keystroke	d	n/a
714.767	0.135	1429534	keystroke	s	n/a
714.962	0.075	1429924	keystroke	Key.space	n/a
715.652	0.076	1431304	keystroke	e	n/a
715.803	0.074	1431606	keystroke	m	n/a
715.997	0.106	1431994	keystroke	o	n/a
716.582	0.075	1433164	keystroke	t	n/a
716.747	0.135	1433494	keystroke	i	n/a
716.897	0.135	1433794	keystroke	o	n/a
716.942	0.15	1433884	keystroke	n	n/a
717.197	0.09	1434394	keystroke	s	n/a
717.722	0.06	1435444	keystroke	Key.enter	n/a
717.793	20.603	1435586	prompt	n/a	recruiting voyeurweb module necklace\n
718.532	0.105	1437064	keystroke	r	n/a
718.592	0.12	1437184	keystroke	e	n/a
718.982	0.121	1437964	keystroke	c	n/a
719.328	0.075	1438656	keystroke	r	n/a
719.657	0.0605	1439314	keystroke	u	n/a
719.823	0.0895	1439646	keystroke	i	n/a
720.0325	0.075	1440065	keystroke	t	n/a
720.1685	0.135	1440337	keystroke	i	n/a
720.2875	0.105	1440575	keystroke	n	n/a
720.4225	0.076	1440845	keystroke	g	n/a
720.5575	0.075	1441115	keystroke	Key.space	n/a
721.0235	0.059	1442047	keystroke	v	n/a
721.8025	0.075	1443605	keystroke	o	n/a
722.0585	0.074	1444117	keystroke	y	n/a
722.3425	0.15	1444685	keystroke	e	n/a
722.4475	0.09	1444895	keystroke	r	n/a
723.017	0.076	1446034	keystroke	u	n/a
723.632	0.076	1447264	keystroke	r	n/a
724.112	0.09	1448224	keystroke	w	n/a
724.6825	0.075	1449365	keystroke	e	n/a
726.4375	0.09	1452875	keystroke	Key.backspace	n/a
726.6175	0.06	1453235	keystroke	Key.backspace	n/a
726.768	0.045	1453536	keystroke	Key.backspace	n/a
726.918	0.06	1453836	keystroke	Key.backspace	n/a
727.068	0.045	1454136	keystroke	Key.backspace	n/a
728.313	0.075	1456626	keystroke	u	n/a
728.478	0.09	1456956	keystroke	r	n/a
728.718	0.075	1457436	keystroke	e	n/a
728.868	0.09	1457736	keystroke	b	n/a
729.483	0.075	1458966	keystroke	Key.backspace	n/a
729.633	0.075	1459266	keystroke	Key.backspace	n/a
729.753	0.12	1459506	keystroke	w	n/a
730.053	0.09	1460106	keystroke	e	n/a
730.233	0.075	1460466	keystroke	b	n/a
730.638	0.075	1461276	keystroke	Key.space	n/a
731.448	0.075	1462896	keystroke	m	n/a
732.093	0.105	1464186	keystroke	o	n/a
732.663	0.09	1465326	keystroke	d	n/a
733.4285	0.075	1466857	keystroke	c	n/a
733.9235	0.074	1467847	keystroke	Key.backspace	n/a
734.5535	0.075	1469107	keystroke	u	n/a
734.7625	0.105	1469525	keystroke	l	n/a
735.0335	0.074	1470067	keystroke	e	n/a
735.2125	0.06	1470425	keystroke	Key.space	n/a
735.6185	0.045	1471237	keystroke	n	n/a
736.2485	0.089	1472497	keystroke	e	n/a
736.4885	0.075	1472977	keystroke	c	n/a
736.5785	0.075	1473157	keystroke	k	n/a
736.9985	0.075	1473997	keystroke	l	n/a
737.1485	0.119	1474297	keystroke	a	n/a
737.4175	0.121	1474835	keystroke	c	n/a
737.6125	0.09	1475225	keystroke	e	n/a
738.3175	0.075	1476635	keystroke	Key.enter	n/a
738.401	7.9745	1476802	prompt	n/a	arms although talk treasures\n
739.1875	0.105	1478375	keystroke	a	n/a
739.4585	0.105	1478917	keystroke	r	n/a
739.8335	0.075	1479667	keystroke	m	n/a
739.9535	0.09	1479907	keystroke	s	n/a
740.1475	0.091	1480295	keystroke	Key.space	n/a
740.5375	0.136	1481075	keystroke	a	n/a
740.6735	0.09	1481347	keystroke	l	n/a
740.9125	0.075	1481825	keystroke	t	n/a
740.9885	0.105	1481977	keystroke	h	n/a
741.1685	0.135	1482337	keystroke	o	n/a
741.2425	0.121	1482485	keystroke	u	n/a
741.4235	0.06	1482847	keystroke	g	n/a
741.5285	0.074	1483057	keystroke	h	n/a
741.7525	0.106	1483505	keystroke	Key.space	n/a
742.384	0.0745	1484768	keystroke	t	n/a
742.6825	0.091	1485365	keystroke	a	n/a
742.8485	0.12	1485697	keystroke	l	n/a
743.0285	0.105	1486057	keystroke	k	n/a
743.2235	0.105	1486447	keystroke	Key.space	n/a
743.5535	0.06	1487107	keystroke	t	n/a
743.7185	0.105	1487437	keystroke	r	n/a
743.8985	0.135	1487797	keystroke	e	n/a
744.2285	0.015	1488457	keystroke	a	n/a
744.378	0.0905	1488756	keystroke	s	n/a
744.6935	0.044	1489387	keystroke	u	n/a
744.7835	0.09	1489567	keystroke	r	n/a
744.8275	0.106	1489655	keystroke	e	n/a
745.5335	0.075	1491067	keystroke	s	n/a
746.3135	0.06	1492627	keystroke	Key.enter	n/a
746.3805	7.645	1492761	prompt	n/a	rain departure chemical having\n
747.0785	0.104	1494157	keystroke	r	n/a
747.2885	0.105	1494577	keystroke	a	n/a
747.4385	0.12	1494877	keystroke	i	n/a
747.5435	0.09	1495087	keystroke	n	n/a
747.7385	0.09	1495477	keystroke	Key.space	n/a
748.2335	0.09	1496467	keystroke	d	n/a
748.4435	0.09	1496887	keystroke	e	n/a
748.8035	0.075	1497607	keystroke	p	n/a
749.1035	0.075	1498207	keystroke	a	n/a
749.2535	0.105	1498507	keystroke	r	n/a
749.4785	0.075	1498957	keystroke	t	n/a
749.6585	0.075	1499317	keystroke	u	n/a
749.7485	0.105	1499497	keystroke	r	n/a
749.8235	0.105	1499647	keystroke	e	n/a
750.0485	0.075	1500097	keystroke	Key.space	n/a
750.5735	0.09	1501147	keystroke	c	n/a
750.7085	0.075	1501417	keystroke	h	n/a
750.9035	0.09	1501807	keystroke	e	n/a
751.0385	0.075	1502077	keystroke	m	n/a
751.2335	0.09	1502467	keystroke	i	n/a
751.4435	0.09	1502887	keystroke	c	n/a
751.5935	0.1045	1503187	keystroke	a	n/a
751.713	0.09	1503426	keystroke	l	n/a
751.878	0.09	1503756	keystroke	Key.space	n/a
752.1935	0.09	1504387	keystroke	h	n/a
752.2985	0.135	1504597	keystroke	a	n/a
752.4035	0.15	1504807	keystroke	v	n/a
752.8985	0.135	1505797	keystroke	i	n/a
753.0035	0.12	1506007	keystroke	n	n/a
753.243	0.015	1506486	keystroke	g	n/a
753.933	0.09	1507866	keystroke	Key.enter	n/a
754.03	10.4045	1508060	prompt	n/a	samuel locally dental calculator\n
754.803	0.09	1509606	keystroke	s	n/a
754.998	0.105	1509996	keystroke	a	n/a
755.148	0.105	1510296	keystroke	m	n/a
755.403	0.075	1510806	keystroke	u	n/a
755.703	0.075	1511406	keystroke	e	n/a
755.838	0.06	1511676	keystroke	l	n/a
756.018	0.12	1512036	keystroke	Key.space	n/a
757.743	0.09	1515486	keystroke	l	n/a
758.133	0.075	1516266	keystroke	o	n/a
758.3735	0.0745	1516747	keystroke	c	n/a
758.673	0.075	1517346	keystroke	a	n/a
758.853	0.06	1517706	keystroke	l	n/a
759.003	0.06	1518006	keystroke	l	n/a
759.183	0.06	1518366	keystroke	y	n/a
759.408	0.09	1518816	keystroke	Key.space	n/a
759.573	0.075	1519146	keystroke	d	n/a
759.753	0.075	1519506	keystroke	e	n/a
759.843	0.09	1519686	keystroke	n	n/a
760.053	0.105	1520106	keystroke	t	n/a
760.278	0.09	1520556	keystroke	a	n/a
760.383	0.09	1520766	keystroke	l	n/a
760.5335	0.12	1521067	keystroke	Key.space	n/a
760.8185	0.12	1521637	keystroke	c	n/a
760.9985	0.12	1521997	keystroke	a	n/a
761.1635	0.09	1522327	keystroke	l	n/a
761.6585	0.075	1523317	keystroke	c	n/a
761.9285	0.075	1523857	keystroke	u	n/a
