onset	duration	sample	value	key	prompt_text
5.0435	6.6145	10087	prompt	n/a	the quick brown fox jumps over a lazy dog\n
5.942	0.042	11884	keystroke	t	n/a
5.953	0.0905	11906	keystroke	h	n/a
6.059	0.1355	12118	keystroke	e	n/a
6.1495	0.105	12299	keystroke	Key.space	n/a
6.2695	0.12	12539	keystroke	q	n/a
6.359	0.0905	12718	keystroke	u	n/a
6.7195	0.1045	13439	keystroke	i	n/a
6.8095	0.1045	13619	keystroke	c	n/a
6.929	0.1065	13858	keystroke	k	n/a
7.0645	0.105	14129	keystroke	Key.space	n/a
7.1845	0.075	14369	keystroke	b	n/a
7.2745	0.12	14549	keystroke	r	n/a
7.3795	0.09	14759	keystroke	o	n/a
7.4845	0.1195	14969	keystroke	w	n/a
7.56	0.1195	15120	keystroke	n	n/a
7.6645	0.12	15329	keystroke	Key.space	n/a
7.7545	0.09	15509	keystroke	f	n/a
7.8595	0.105	15719	keystroke	o	n/a
8.025	0.059	16050	keystroke	c	n/a
8.3995	0.0895	16799	keystroke	Key.backspace	n/a
8.475	0.105	16950	keystroke	x	n/a
8.5645	0.12	17129	keystroke	Key.space	n/a
8.6995	0.12	17399	keystroke	j	n/a
8.9245	0.0745	17849	keystroke	u	n/a
9.09	0.09	18180	keystroke	m	n/a
9.2545	0.0905	18509	keystroke	p	n/a
9.315	0.105	18630	keystroke	s	n/a
9.4345	0.0755	18869	keystroke	Key.space	n/a
9.525	0.12	19050	keystroke	o	n/a
9.66	0.075	19320	keystroke	v	n/a
9.84	0.089	19680	keystroke	e	n/a
9.96	0.105	19920	keystroke	r	n/a
10.094	0.091	20188	keystroke	Key.space	n/a
10.14	0.105	20280	keystroke	a	n/a
10.5145	0.1205	21029	keystroke	Key.space	n/a
10.65	0.1055	21300	keystroke	l	n/a
10.7695	0.1055	21539	keystroke	a	n/a
10.934	0.136	21868	keystroke	z	n/a
11.025	0.1195	22050	keystroke	y	n/a
11.115	0.1045	22230	keystroke	Key.space	n/a
11.205	0.134	22410	keystroke	d	n/a
11.325	0.15	22650	keystroke	o	n/a
11.46	0.09	22920	keystroke	g	n/a
11.565	0.0895	23130	keystroke	Key.enter	n/a
11.6635	6.01	23327	prompt	n/a	hadn't countries category dirt\n
12.2555	0.104	24511	keystroke	h	n/a
12.375	0.09	24750	keystroke	a	n/a
12.5545	0.1355	25109	keystroke	d	n/a
12.705	0.075	25410	keystroke	n	n/a
13.185	0.015	26370	keystroke	'	n/a
13.215	0.06	26430	keystroke	t	n/a
13.35	0.105	26700	keystroke	Key.space	n/a
13.5005	0.1195	27001	keystroke	c	n/a
13.5905	0.0745	27181	keystroke	o	n/a
13.7855	0.0895	27571	keystroke	n	n/a
14.145	0.09	28290	keystroke	Key.backspace	n/a
14.4005	0.0895	28801	keystroke	u	n/a
14.5955	0.1045	29191	keystroke	n	n/a
14.655	0.09	29310	keystroke	t	n/a
14.776	0.119	29552	keystroke	r	n/a
14.865	0.1205	29730	keystroke	i	n/a
15	0.075	30000	keystroke	e	n/a
15.15	0.1055	30300	keystroke	s	n/a
15.225	0.12	30450	keystroke	Key.space	n/a
15.36	0.06	30720	keystroke	c	n/a
15.54	0.0445	31080	keystroke	a	n/a
15.78	0.06	31560	keystroke	t	n/a
15.8995	0.091	31799	keystroke	e	n/a
16.095	0.0905	32190	keystroke	g	n/a
16.2155	0.1045	32431	keystroke	o	n/a
16.3355	0.1345	32671	keystroke	r	n/a
16.44	0.15	32880	keystroke	y	n/a
16.5745	0.1205	33149	keystroke	Key.space	n/a
16.785	0.135	33570	keystroke	d	n/a
16.89	0.135	33780	keystroke	i	n/a
17.34	0.045	34680	keystroke	r	n/a
17.43	0.105	34860	keystroke	t	n/a
17.5795	0.0905	35159	keystroke	Key.enter	n/a
17.678	3.819	35356	prompt	n/a	shaved document for sunrise\n
18.301	0.0895	36602	keystroke	s	n/a
18.375	0.075	36750	keystroke	h	n/a
18.51	0.0895	37020	keystroke	a	n/a
18.5855	0.1345	37171	keystroke	v	n/a
18.6905	0.1045	37381	keystroke	e	n/a
18.8705	0.0895	37741	keystroke	d	n/a
18.945	0.09	37890	keystroke	Key.space	n/a
19.0655	0.0895	38131	keystroke	d	n/a
19.11	0.0905	38220	keystroke	o	n/a
19.2305	0.1345	38461	keystroke	c	n/a
19.305	0.0895	38610	keystroke	u	n/a
19.5155	0.0895	39031	keystroke	m	n/a
19.5905	0.1045	39181	keystroke	e	n/a
19.7105	0.1495	39421	keystroke	n	n/a
19.8005	0.1205	39601	keystroke	t	n/a
19.935	0.1205	39870	keystroke	Key.space	n/a
20.04	0.1205	40080	keystroke	f	n/a
20.13	0.1955	40260	keystroke	o	n/a
20.2655	0.105	40531	keystroke	r	n/a
20.4145	0.1055	40829	keystroke	Key.space	n/a
20.5355	0.12	41071	keystroke	s	n/a
20.5945	0.091	41189	keystroke	u	n/a
20.7905	0.12	41581	keystroke	n	n/a
20.955	0.105	41910	keystroke	r	n/a
21.045	0.165	42090	keystroke	i	n/a
21.135	0.121	42270	keystroke	s	n/a
21.315	0.105	42630	keystroke	e	n/a
21.405	0.0895	42810	keystroke	Key.enter	n/a
21.5	4.497	43000	prompt	n/a	graduates minds lime despite\n
22.186	0.1035	44372	keystroke	g	n/a
22.3805	0.0745	44761	keystroke	r	n/a
22.5605	0.089	45121	keystroke	a	n/a
22.7095	0.091	45419	keystroke	d	n/a
22.7705	0.105	45541	keystroke	u	n/a
22.9195	0.061	45839	keystroke	a	n/a
23.1	0.075	46200	keystroke	t	n/a
23.2355	0.0745	46471	keystroke	e	n/a
23.4	0.09	46800	keystroke	s	n/a
23.46	0.12	46920	keystroke	Key.space	n/a
23.565	0.0905	47130	keystroke	m	n/a
23.73	0.09	47460	keystroke	i	n/a
23.8655	0.179	47731	keystroke	n	n/a
23.94	0.0605	47880	keystroke	d	n/a
24.0755	0.1045	48151	keystroke	s	n/a
24.15	0.1355	48300	keystroke	Key.space	n/a
24.3755	0.0745	48751	keystroke	l	n/a
24.51	0.075	49020	keystroke	i	n/a
24.675	0.105	49350	keystroke	m	n/a
24.7505	0.0895	49501	keystroke	e	n/a
24.855	0.12	49710	keystroke	Key.space	n/a
24.9455	0.09	49891	keystroke	d	n/a
25.1405	0.075	50281	keystroke	e	n/a
25.2905	0.12	50581	keystroke	s	n/a
25.3805	0.15	50761	keystroke	p	n/a
25.5455	0.165	51091	keystroke	i	n/a
25.6495	0.076	51299	keystroke	t	n/a
25.7855	0.1345	51571	keystroke	e	n/a
25.905	0.09	51810	keystroke	Key.enter	n/a
26	5.712	52000	prompt	n/a	chem proprietary jade relation\n
26.5795	0.12	53159	keystroke	c	n/a
26.6855	0.089	53371	keystroke	h	n/a
26.82	0.1055	53640	keystroke	e	n/a
26.8945	0.0905	53789	keystroke	m	n/a
27.03	0.0905	54060	keystroke	Key.space	n/a
27.1355	0.12	54271	keystroke	p	n/a
27.27	0.1205	54540	keystroke	r	n/a
27.345	0.18	54690	keystroke	o	n/a
27.45	0.105	54900	keystroke	p	n/a
27.9455	0.105	55891	keystroke	i	n/a
28.0805	0.119	56161	keystroke	e	n/a
28.3355	0.1195	56671	keystroke	t	n/a
28.68	0.075	57360	keystroke	a	n/a
28.8455	0.105	57691	keystroke	r	n/a
29.5055	0.1045	59011	keystroke	y	n/a
29.6405	0.105	59281	keystroke	Key.space	n/a
29.8055	0.135	59611	keystroke	j	n/a
29.8805	0.075	59761	keystroke	a	n/a
30.0155	0.12	60031	keystroke	d	n/a
30.2105	0.135	60421	keystroke	e	n/a
30.2995	0.0905	60599	keystroke	Key.space	n/a
30.42	0.09	60840	keystroke	r	n/a
30.54	0.09	61080	keystroke	e	n/a
30.675	0.15	61350	keystroke	l	n/a
30.87	0.0455	61740	keystroke	a	n/a
31.095	0.105	62190	keystroke	t	n/a
31.155	0.1505	62310	keystroke	i	n/a
31.215	0.135	62430	keystroke	o	n/a
31.44	0.12	62880	keystroke	n	n/a
31.605	0.105	63210	keystroke	Key.enter	n/a
31.719	4.448	63438	prompt	n/a	terry summary norm october\n
32.2955	0.0745	64591	keystroke	t	n/a
32.445	0.09	64890	keystroke	e	n/a
32.595	0.09	65190	keystroke	r	n/a
32.7595	0.0905	65519	keystroke	r	n/a
32.775	0.0905	65550	keystroke	y	n/a
32.9095	0.1655	65819	keystroke	Key.space	n/a
33.09	0.105	66180	keystroke	s	n/a
33.18	0.0755	66360	keystroke	u	n/a
33.39	0.06	66780	keystroke	m	n/a
33.525	0.09	67050	keystroke	m	n/a
33.585	0.075	67170	keystroke	a	n/a
33.765	0.105	67530	keystroke	r	n/a
33.855	0.135	67710	keystroke	y	n/a
33.975	0.135	67950	keystroke	Key.space	n/a
34.3045	0.0755	68609	keystroke	n	n/a
34.5605	0.15	69121	keystroke	o	n/a
34.6955	0.105	69391	keystroke	r	n/a
34.8455	0.15	69691	keystroke	m	n/a
35.1755	0.015	70351	keystroke	Key.space	n/a
35.2355	0.12	70471	keystroke	o	n/a
35.3405	0.09	70681	keystroke	c	n/a
35.5505	0.12	71101	keystroke	t	n/a
35.6255	0.075	71251	keystroke	o	n/a
35.775	0.15	71550	keystroke	b	n/a
35.85	0.09	71700	keystroke	e	n/a
35.97	0.105	71940	keystroke	r	n/a
36.09	0.075	72180	keystroke	Key.enter	n/a
36.1735	6.4895	72347	prompt	n/a	progressive exposed connected symbols\n
36.7495	0.12	73499	keystroke	p	n/a
36.855	0.09	73710	keystroke	r	n/a
36.96	0.1195	73920	keystroke	o	n/a
37.0805	0.089	74161	keystroke	f	n/a
37.4855	0.105	74971	keystroke	Key.backspace	n/a
37.5905	0.105	75181	keystroke	g	n/a
37.7555	0.075	75511	keystroke	r	n/a
37.936	0.09	75872	keystroke	e	n/a
38.1005	0.104	76201	keystroke	s	n/a
38.25	0.1055	76500	keystroke	s	n/a
38.325	0.12	76650	keystroke	i	n/a
38.4755	0.074	76951	keystroke	v	n/a
38.6555	0.1055	77311	keystroke	e	n/a
38.7155	0.1045	77431	keystroke	Key.space	n/a
38.8505	0.0895	77701	keystroke	e	n/a
39.09	0.12	78180	keystroke	x	n/a
39.1805	0.1795	78361	keystroke	p	n/a
39.2705	0.1345	78541	keystroke	o	n/a
39.4655	0.1045	78931	keystroke	s	n/a
39.6455	0.1045	79291	keystroke	e	n/a
39.8405	0.075	79681	keystroke	d	n/a
39.9305	0.1045	79861	keystroke	Key.space	n/a
40.095	0.1505	80190	keystroke	c	n/a
40.155	0.0755	80310	keystroke	o	n/a
40.3055	0.0895	80611	keystroke	n	n/a
40.47	0.1505	80940	keystroke	n	n/a
40.545	0.076	81090	keystroke	e	n/a
40.74	0.0905	81480	keystroke	c	n/a
40.965	0.1205	81930	keystroke	t	n/a
41.1595	0.09	82319	keystroke	e	n/a
41.2805	0.104	82561	keystroke	d	n/a
41.37	0.1055	82740	keystroke	Key.space	n/a
41.49	0.1205	82980	keystroke	s	n/a
41.5655	0.075	83131	keystroke	y	n/a
41.7905	0.075	83581	keystroke	m	n/a
41.9855	0.075	83971	keystroke	b	n/a
42.1805	0.105	84361	keystroke	o	n/a
42.3755	0.12	84751	keystroke	l	n/a
42.4655	0.105	84931	keystroke	s	n/a
42.5855	0.075	85171	keystroke	Key.enter	n/a
42.6685	7.1945	85337	prompt	n/a	visit bookmarks liberia miami\n
43.71	0.09	87420	keystroke	v	n/a
43.8155	0.0895	87631	keystroke	i	n/a
43.92	0.0755	87840	keystroke	s	n/a
44.0405	0.1195	88081	keystroke	i	n/a
44.1605	0.1045	88321	keystroke	t	n/a
44.295	0.0905	88590	keystroke	Key.space	n/a
44.4305	0.0895	88861	keystroke	b	n/a
44.685	0.0605	89370	keystroke	o	n/a
44.8355	0.1045	89671	keystroke	o	n/a
44.9255	0.1195	89851	keystroke	k	n/a
45.06	0.105	90120	keystroke	s	n/a
45.5555	0.0595	91111	keystroke	Key.backspace	n/a
45.765	0.105	91530	keystroke	m	n/a
45.8855	0.0745	91771	keystroke	a	n/a
46.065	0.105	92130	keystroke	r	n/a
46.155	0.165	92310	keystroke	k	n/a
46.3655	0.105	92731	keystroke	s	n/a
46.485	0.09	92970	keystroke	Key.space	n/a
46.935	0.106	93870	keystroke	l	n/a
47.115	0.09	94230	keystroke	i	n/a
47.31	0.165	94620	keystroke	b	n/a
47.52	0.1055	95040	keystroke	e	n/a
47.8055	0.1195	95611	keystroke	r	n/a
47.8955	0.225	95791	keystroke	i	n/a
48.1955	0.1045	96391	keystroke	a	n/a
48.285	0.1345	96570	keystroke	Key.space	n/a
48.6905	0.105	97381	keystroke	m	n/a
48.87	0.0905	97740	keystroke	i	n/a
49.005	0.1205	98010	keystroke	a	n/a
49.4105	0.0745	98821	keystroke	m	n/a
49.576	0.074	99152	keystroke	i	n/a
49.77	0.09	99540	keystroke	Key.enter	n/a
49.868	7.4045	99736	prompt	n/a	o'clock manufacturers exit promotions\n
50.67	0.0905	101340	keystroke	o	n/a
51.091	0.1345	102182	keystroke	'	n/a
51.3145	0.061	102629	keystroke	c	n/a
51.405	0.12	102810	keystroke	l	n/a
51.6295	0.0905	103259	keystroke	o	n/a
51.7495	0.0905	103499	keystroke	c	n/a
51.8245	0.105	103649	keystroke	k	n/a
52.035	0.06	104070	keystroke	Key.space	n/a
52.2155	0.105	104431	keystroke	m	n/a
52.3355	0.1195	104671	keystroke	a	n/a
52.44	0.09	104880	keystroke	n	n/a
52.65	0.105	105300	keystroke	u	n/a
52.98	0.06	105960	keystroke	f	n/a
53.1455	0.06	106291	keystroke	a	n/a
53.7455	0.12	107491	keystroke	c	n/a
54.0005	0.105	108001	keystroke	t	n/a
54.0905	0.12	108181	keystroke	u	n/a
54.421	0.089	108842	keystroke	r	n/a
54.615	0.105	109230	keystroke	e	n/a
54.735	0.1205	109470	keystroke	r	n/a
54.9305	0.1045	109861	keystroke	s	n/a
55.0205	0.135	110041	keystroke	Key.space	n/a
55.1405	0.09	110281	keystroke	e	n/a
55.4105	0.105	110821	keystroke	x	n/a
55.5305	0.135	111061	keystroke	i	n/a
55.7105	0.075	111421	keystroke	t	n/a
55.7705	0.105	111541	keystroke	Key.space	n/a
55.8905	0.105	111781	keystroke	p	n/a
56.0255	0.135	112051	keystroke	r	n/a
56.1005	0.09	112201	keystroke	o	n/a
56.2955	0.0745	112591	keystroke	m	n/a
56.46	0.12	112920	keystroke	o	n/a
56.565	0.091	113130	keystroke	t	n/a
56.67	0.18	113340	keystroke	i	n/a
56.76	0.135	113520	keystroke	o	n/a
56.985	0.105	113970	keystroke	n	n/a
57.0755	0.1195	114151	keystroke	s	n/a
57.21	0.0605	114420	keystroke	Key.enter	n/a
57.2775	5.6495	114555	prompt	n/a	search missed printer seating\n
57.871	0.105	115742	keystroke	s	n/a
58.066	0.104	116132	keystroke	e	n/a
58.245	0.06	116490	keystroke	a	n/a
58.4105	0.0745	116821	keystroke	r	n/a
58.635	0.09	117270	keystroke	c	n/a
58.6655	0.1045	117331	keystroke	h	n/a
58.8755	0.105	117751	keystroke	Key.space	n/a
58.9655	0.135	117931	keystroke	m	n/a
59.1905	0.21	118381	keystroke	i	n/a
59.3105	0.1055	118621	keystroke	s	n/a
59.4755	0.1195	118951	keystroke	s	n/a
59.9105	0.119	119821	keystroke	e	n/a
60.0905	0.1195	120181	keystroke	d	n/a
60.1505	0.1195	120301	keystroke	Key.space	n/a
60.4205	0.1195	120841	keystroke	p	n/a
60.525	0.105	121050	keystroke	r	n/a
60.631	0.074	121262	keystroke	i	n/a
60.795	0.1955	121590	keystroke	n	n/a
60.885	0.075	121770	keystroke	t	n/a
61.02	0.12	122040	keystroke	e	n/a
61.155	0.105	122310	keystroke	r	n/a
61.2455	0.12	122491	keystroke	Key.space	n/a
61.38	0.12	122760	keystroke	s	n/a
61.5305	0.1345	123061	keystroke	e	n/a
62.146	0.0895	124292	keystroke	a	n/a
62.37	0.105	124740	keystroke	t	n/a
62.46	0.105	124920	keystroke	i	n/a
62.58	0.151	125160	keystroke	n	n/a
62.67	0.0905	125340	keystroke	g	n/a
62.82	0.105	125640	keystroke	Key.enter	n/a
62.9305	3.807	125861	prompt	n/a	images on armed chelsea\n
63.495	0.12	126990	keystroke	i	n/a
63.7355	0.1195	127471	keystroke	m	n/a
63.81	0.135	127620	keystroke	a	n/a
64.0355	0.0745	128071	keystroke	g	n/a
64.1855	0.09	128371	keystroke	e	n/a
64.3205	0.135	128641	keystroke	s	n/a
64.4255	0.12	128851	keystroke	Key.space	n/a
64.5455	0.09	129091	keystroke	o	n/a
64.6655	0.135	129331	keystroke	n	n/a
64.7705	0.075	129541	keystroke	Key.space	n/a
64.8305	0.09	129661	keystroke	a	n/a
65.0105	0.12	130021	keystroke	r	n/a
65.1005	0.105	130201	keystroke	m	n/a
65.2065	0.089	130413	keystroke	e	n/a
65.3555	0.105	130711	keystroke	d	n/a
65.4455	0.105	130891	keystroke	Key.space	n/a
65.5805	0.0745	131161	keystroke	c	n/a
65.64	0.09	131280	keystroke	h	n/a
65.8655	0.1345	131731	keystroke	e	n/a
65.985	0.105	131970	keystroke	l	n/a
66.2255	0.09	132451	keystroke	s	n/a
66.3905	0.09	132781	keystroke	e	n/a
66.5855	0.06	133171	keystroke	a	n/a
66.675	0.06	133350	keystroke	Key.enter	n/a
66.741	6.041	133482	prompt	n/a	administrator foul suspended risk\n
67.3505	0.1045	134701	keystroke	a	n/a
67.5155	0.12	135031	keystroke	d	n/a
67.62	0.075	135240	keystroke	m	n/a
67.7555	0.1045	135511	keystroke	i	n/a
67.92	0.09	135840	keystroke	n	n/a
68.07	0.105	136140	keystroke	i	n/a
68.295	0.09	136590	keystroke	s	n/a
68.5055	0.0745	137011	keystroke	t	n/a
68.625	0.1055	137250	keystroke	r	n/a
68.85	0.075	137700	keystroke	a	n/a
69.0455	0.1045	138091	keystroke	t	n/a
69.135	0.135	138270	keystroke	o	n/a
69.2555	0.1045	138511	keystroke	r	n/a
69.39	0.105	138780	keystroke	Key.space	n/a
69.7655	0.105	139531	keystroke	f	n/a
69.8395	0.15	139679	keystroke	o	n/a
69.9445	0.106	139889	keystroke	u	n/a
70.1705	0.09	140341	keystroke	l	n/a
70.3355	0.12	140671	keystroke	Key.space	n/a
70.515	0.1205	141030	keystroke	s	n/a
70.755	0.105	141510	keystroke	u	n/a
70.89	0.105	141780	keystroke	s	n/a
70.98	0.135	141960	keystroke	p	n/a
71.13	0.1055	142260	keystroke	e	n/a
71.2955	0.12	142591	keystroke	n	n/a
71.4605	0.1045	142921	keystroke	d	n/a
71.6855	0.0895	143371	keystroke	e	n/a
71.835	0.165	143670	keystroke	d	n/a
71.9395	0.0905	143879	keystroke	Key.space	n/a
72.12	0.06	144240	keystroke	r	n/a
72.21	0.151	144420	keystroke	i	n/a
72.4055	0.105	144811	keystroke	s	n/a
72.48	0.15	144960	keystroke	k	n/a
72.645	0.135	145290	keystroke	Key.enter	n/a
72.7865	6.895	145573	prompt	n/a	nicaragua advance courier centered\n
73.3955	0.1045	146791	keystroke	n	n/a
73.545	0.105	147090	keystroke	i	n/a
73.755	0.105	147510	keystroke	c	n/a
73.965	0.1055	147930	keystroke	a	n/a
74.2355	0.09	148471	keystroke	r	n/a
74.4455	0.075	148891	keystroke	a	n/a
74.6705	0.09	149341	keystroke	g	n/a
74.8505	0.075	149701	keystroke	u	n/a
74.9855	0.09	149971	keystroke	a	n/a
75.1195	0.12	150239	keystroke	Key.space	n/a
75.5255	0.12	151051	keystroke	a	n/a
75.7055	0.09	151411	keystroke	d	n/a
75.9605	0.075	151921	keystroke	v	n/a
76.3055	0.105	152611	keystroke	a	n/a
76.38	0.12	152760	keystroke	n	n/a
76.53	0.0755	153060	keystroke	c	n/a
76.7405	0.105	153481	keystroke	e	n/a
76.8755	0.09	153751	keystroke	Key.space	n/a
77.131	0.104	154262	keystroke	c	n/a
77.265	0.075	154530	keystroke	o	n/a
77.401	0.105	154802	keystroke	u	n/a
77.551	0.074	155102	keystroke	r	n/a
77.64	0.136	155280	keystroke	i	n/a
77.76	0.105	155520	keystroke	e	n/a
77.9105	0.1195	155821	keystroke	r	n/a
78.0455	0.09	156091	keystroke	Key.space	n/a
78.3455	0.0905	156691	keystroke	c	n/a
78.585	0.136	157170	keystroke	e	n/a
78.705	0.106	157410	keystroke	n	n/a
78.84	0.075	157680	keystroke	t	n/a
78.991	0.105	157982	keystroke	e	n/a
79.1555	0.105	158311	keystroke	r	n/a
79.2895	0.136	158579	keystroke	e	n/a
79.47	0.12	158940	keystroke	d	n/a
79.605	0.075	159210	keystroke	Key.enter	n/a
79.6855	4.2865	159371	prompt	n/a	bless taxi atomic dolls\n
80.205	0.105	160410	keystroke	b	n/a
80.4455	0.09	160891	keystroke	l	n/a
80.5055	0.09	161011	keystroke	e	n/a
80.6705	0.09	161341	keystroke	s	n/a
80.8205	0.12	161641	keystroke	s	n/a
80.9555	0.135	161911	keystroke	Key.space	n/a
81.0455	0.06	162091	keystroke	t	n/a
81.2705	0.075	162541	keystroke	a	n/a
81.4805	0.12	162961	keystroke	x	n/a
81.5555	0.18	163111	keystroke	i	n/a
81.8855	0.1195	163771	keystroke	Key.space	n/a
82.02	0.0905	164040	keystroke	a	n/a
82.26	0.075	164520	keystroke	t	n/a
82.29	0.1205	164580	keystroke	o	n/a
82.5155	0.12	165031	keystroke	m	n/a
82.7405	0.135	165481	keystroke	i	n/a
82.8455	0.09	165691	keystroke	c	n/a
83.0255	0.105	166051	keystroke	Key.space	n/a
83.2655	0.135	166531	keystroke	d	n/a
83.385	0.0755	166770	keystroke	o	n/a
83.565	0.0605	167130	keystroke	l	n/a
83.6995	0.0905	167399	keystroke	l	n/a
83.761	0.089	167522	keystroke	s	n/a
83.88	0.0905	167760	keystroke	Key.enter	n/a
83.9765	6.716	167953	prompt	n/a	fascinating deliver retro dispatch\n
84.66	0.06	169320	keystroke	d	n/a
85.005	0.09	170010	keystroke	Key.backspace	n/a
85.08	0.075	170160	keystroke	f	n/a
85.2305	0.105	170461	keystroke	a	n/a
85.351	0.104	170702	keystroke	s	n/a
85.5755	0.1205	171151	keystroke	c	n/a
85.6805	0.0595	171361	keystroke	i	n/a
85.83	0.1055	171660	keystroke	n	n/a
85.905	0.0455	171810	keystroke	a	n/a
86.0855	0.09	172171	keystroke	t	n/a
86.1455	0.075	172291	keystroke	i	n/a
86.2655	0.12	172531	keystroke	n	n/a
86.37	0.076	172740	keystroke	g	n/a
86.46	0.09	172920	keystroke	Key.space	n/a
86.5655	0.075	173131	keystroke	d	n/a
86.73	0.0895	173460	keystroke	e	n/a
86.7755	0.104	173551	keystroke	l	n/a
86.9405	0.12	173881	keystroke	i	n/a
87.0155	0.075	174031	keystroke	v	n/a
87.2105	0.105	174421	keystroke	e	n/a
87.3455	0.105	174691	keystroke	r	n/a
87.495	0.1055	174990	keystroke	Key.space	n/a
87.6155	0.075	175231	keystroke	d	n/a
87.9155	0.0745	175831	keystroke	Key.backspace	n/a
87.9605	0.105	175921	keystroke	r	n/a
88.0955	0.0745	176191	keystroke	e	n/a
88.335	0.1055	176670	keystroke	t	n/a
88.4855	0.12	176971	keystroke	r	n/a
88.5905	0.1195	177181	keystroke	o	n/a
88.89	0.06	177780	keystroke	Key.space	n/a
89.22	0.1045	178440	keystroke	d	n/a
89.4005	0.1355	178801	keystroke	i	n/a
89.536	0.134	179072	keystroke	s	n/a
89.656	0.089	179312	keystroke	p	n/a
89.94	0.075	179880	keystroke	a	n/a
90.166	0.074	180332	keystroke	t	n/a
90.39	0.105	180780	keystroke	c	n/a
90.4505	0.0895	180901	keystroke	h	n/a
90.615	0.075	181230	keystroke	Key.enter	n/a
90.698	7.809	181396	prompt	n/a	inkjet gimme documentary comprehensive\n
91.44	0.075	182880	keystroke	i	n/a
91.59	0.12	183180	keystroke	n	n/a
91.846	0.164	183692	keystroke	j	n/a
92.5955	0.0745	185191	keystroke	Key.backspace	n/a
92.88	0.0155	185760	keystroke	k	n/a
93.0305	0.12	186061	keystroke	j	n/a
93.121	0.074	186242	keystroke	e	n/a
93.2855	0.12	186571	keystroke	t	n/a
93.4355	0.0895	186871	keystroke	Key.space	n/a
94.065	0.09	188130	keystroke	g	n/a
94.1105	0.0895	188221	keystroke	i	n/a
94.2755	0.0745	188551	keystroke	m	n/a
94.4255	0.09	188851	keystroke	m	n/a
94.5005	0.135	189001	keystroke	e	n/a
94.6505	0.105	189301	keystroke	Key.space	n/a
94.935	0.1205	189870	keystroke	d	n/a
95.0255	0.0895	190051	keystroke	o	n/a
95.13	0.12	190260	keystroke	c	n/a
95.22	0.091	190440	keystroke	u	n/a
95.4305	0.06	190861	keystroke	m	n/a
95.5205	0.1195	191041	keystroke	e	n/a
95.685	0.1055	191370	keystroke	n	n/a
95.8055	0.075	191611	keystroke	t	n/a
96.0005	0.06	192001	keystroke	a	n/a
96.1355	0.12	192271	keystroke	r	n/a
96.2255	0.1045	192451	keystroke	y	n/a
96.3005	0.1045	192601	keystroke	Key.space	n/a
96.42	0.0905	192840	keystroke	c	n/a
96.525	0.0755	193050	keystroke	o	n/a
96.75	0.105	193500	keystroke	m	n/a
96.96	0.09	193920	keystroke	p	n/a
97.2155	0.12	194431	keystroke	r	n/a
97.3655	0.12	194731	keystroke	e	n/a
97.455	0.09	194910	keystroke	h	n/a
97.5605	0.105	195121	keystroke	e	n/a
97.6505	0.135	195301	keystroke	n	n/a
97.8905	0.09	195781	keystroke	s	n/a
97.9655	0.135	195931	keystroke	i	n/a
98.0855	0.09	196171	keystroke	v	n/a
98.281	0.1495	196562	keystroke	e	n/a
98.4305	0.0745	196861	keystroke	Key.enter	n/a
98.5105	7.2265	197021	prompt	n/a	obligations height municipality watson\n
99.241	0.044	198482	keystroke	o	n/a
99.51	0.0905	199020	keystroke	b	n/a
99.735	0.0455	199470	keystroke	l	n/a
99.855	0.105	199710	keystroke	i	n/a
99.931	0.09	199862	keystroke	g	n/a
100.17	0.0755	200340	keystroke	a	n/a
100.4105	0.075	200821	keystroke	t	n/a
100.47	0.1505	200940	keystroke	o	n/a
100.53	0.0455	201060	keystroke	i	n/a
100.6805	0.135	201361	keystroke	n	n/a
100.8005	0.135	201601	keystroke	s	n/a
100.9655	0.09	201931	keystroke	Key.space	n/a
101.1755	0.1045	202351	keystroke	h	n/a
101.25	0.12	202500	keystroke	e	n/a
101.385	0.0905	202770	keystroke	i	n/a
101.46	0.136	202920	keystroke	g	n/a
101.565	0.12	203130	keystroke	h	n/a
101.805	0.0755	203610	keystroke	t	n/a
101.955	0.12	203910	keystroke	Key.space	n/a
102.3155	0.074	204631	keystroke	m	n/a
102.5105	0.06	205021	keystroke	u	n/a
102.69	0.045	205380	keystroke	n	n/a
102.78	0.12	205560	keystroke	i	n/a
102.8705	0.1495	205741	keystroke	c	n/a
103.0055	0.0745	206011	keystroke	i	n/a
103.14	0.105	206280	keystroke	p	n/a
103.26	0.105	206520	keystroke	a	n/a
103.38	0.0905	206760	keystroke	l	n/a
103.53	0.121	207060	keystroke	i	n/a
103.651	0.0595	207302	keystroke	t	n/a
103.845	0.105	207690	keystroke	y	n/a
104.2655	0.09	208531	keystroke	Key.space	n/a
104.5655	0.1045	209131	keystroke	w	n/a
104.73	0.105	209460	keystroke	a	n/a
104.985	0.06	209970	keystroke	t	n/a
105.18	0.09	210360	keystroke	s	n/a
105.285	0.105	210570	keystroke	o	n/a
105.465	0.105	210930	keystroke	n	n/a
105.63	0.105	211260	keystroke	Key.enter	n/a
105.745	4.8375	211490	prompt	n/a	cooked sensor atlas review\n
106.3355	0.135	212671	keystroke	c	n/a
106.455	0.0905	212910	keystroke	o	n/a
106.6195	0.1355	213239	keystroke	o	n/a
106.77	0.1055	213540	keystroke	k	n/a
106.8605	0.0745	213721	keystroke	e	n/a
107.0405	0.104	214081	keystroke	d	n/a
107.1455	0.12	214291	keystroke	Key.space	n/a
107.3855	0.09	214771	keystroke	s	n/a
107.5495	0.106	215099	keystroke	e	n/a
107.6255	0.135	215251	keystroke	n	n/a
107.8505	0.075	215701	keystroke	s	n/a
107.985	0.0905	215970	keystroke	o	n/a
108.0905	0.12	216181	keystroke	r	n/a
108.2405	0.075	216481	keystroke	Key.space	n/a
108.51	0.075	217020	keystroke	a	n/a
108.706	0.0895	217412	keystroke	t	n/a
108.855	0.09	217710	keystroke	l	n/a
109.005	0.105	218010	keystroke	a	n/a
109.1405	0.1195	218281	keystroke	s	n/a
109.275	0.1055	218550	keystroke	Key.space	n/a
109.5455	0.1045	219091	keystroke	r	n/a
109.6955	0.1045	219391	keystroke	e	n/a
109.9205	0.0895	219841	keystroke	v	n/a
110.026	0.119	220052	keystroke	i	n/a
110.13	0.1055	220260	keystroke	e	n/a
110.31	0.0905	220620	keystroke	w	n/a
110.4155	0.165	220831	keystroke	Key.enter	n/a
110.5865	6.8355	221173	prompt	n/a	worst democrats judgment annoying\n
111.33	0.0755	222660	keystroke	s	n/a
111.6445	0.09	223289	keystroke	Key.backspace	n/a
111.7505	0.104	223501	keystroke	w	n/a
111.9155	0.1645	223831	keystroke	o	n/a
112.081	0.089	224162	keystroke	r	n/a
112.3055	0.09	224611	keystroke	s	n/a
112.515	0.0905	225030	keystroke	t	n/a
112.575	0.1205	225150	keystroke	Key.space	n/a
112.7405	0.09	225481	keystroke	d	n/a
112.906	0.1345	225812	keystroke	e	n/a
112.9795	0.09	225959	keystroke	m	n/a
113.13	0.0905	226260	keystroke	o	n/a
113.4155	0.09	226831	keystroke	c	n/a
113.6405	0.075	227281	keystroke	r	n/a
113.8505	0.06	227701	keystroke	a	n/a
114.03	0.075	228060	keystroke	t	n/a
114.1805	0.1345	228361	keystroke	s	n/a
114.3	0.12	228600	keystroke	Key.space	n/a
114.5555	0.075	229111	keystroke	j	n/a
114.705	0.135	229410	keystroke	u	n/a
114.885	0.0905	229770	keystroke	d	n/a
115.1255	0.075	230251	keystroke	g	n/a
115.2755	0.12	230551	keystroke	e	n/a
115.3655	0.15	230731	keystroke	m	n/a
115.5005	0.105	231001	keystroke	e	n/a
115.6205	0.105	231241	keystroke	n	n/a
115.7405	0.09	231481	keystroke	t	n/a
116.0405	0.1045	232081	keystroke	Key.space	n/a
116.3255	0.12	232651	keystroke	a	n/a
116.385	0.1055	232770	keystroke	n	n/a
116.55	0.09	233100	keystroke	n	n/a
116.6995	0.136	233399	keystroke	o	n/a
116.821	0.074	233642	keystroke	y	n/a
116.9245	0.0915	233849	keystroke	i	n/a
117.06	0.12	234120	keystroke	n	n/a
117.165	0.0745	234330	keystroke	g	n/a
117.3305	0.089	234661	keystroke	Key.enter	n/a
117.425	9.312	234850	prompt	n/a	unsubscribe letter latin timothy\n
118.5455	0.075	237091	keystroke	u	n/a
118.7105	0.119	237421	keystroke	n	n/a
118.8445	0.091	237689	keystroke	s	n/a
119.205	0.075	238410	keystroke	u	n/a
119.3855	0.1045	238771	keystroke	b	n/a
119.61	0.09	239220	keystroke	s	n/a
119.79	0.075	239580	keystroke	c	n/a
120.0455	0.09	240091	keystroke	r	n/a
120.12	0.0605	240240	keystroke	i	n/a
120.3005	0.12	240601	keystroke	b	n/a
120.406	0.104	240812	keystroke	e	n/a
120.525	0.09	241050	keystroke	Key.space	n/a
120.675	0.0905	241350	keystroke	l	n/a
120.735	0.105	241470	keystroke	e	n/a
120.945	0.0905	241890	keystroke	t	n/a
121.0955	0.0745	242191	keystroke	t	n/a
121.3055	0.1195	242611	keystroke	e	n/a
121.455	0.105	242910	keystroke	r	n/a
121.545	0.1205	243090	keystroke	Key.space	n/a
121.6805	0.165	243361	keystroke	l	n/a
121.846	0.074	243692	keystroke	a	n/a
122.0705	0.075	244141	keystroke	t	n/a
122.1	0.0755	244200	keystroke	i	n/a
122.2505	0.135	244501	keystroke	n	n/a
122.4005	0.09	244801	keystroke	t	n/a
122.4155	0.134	244831	keystroke	Key.space	n/a
122.5955	0.074	245191	keystroke	i	n/a
122.775	0.0745	245550	keystroke	m	n/a
122.9245	0.106	245849	keystroke	o	n/a
123.0445	0.0605	246089	keystroke	t	n/a
123.1205	0.135	246241	keystroke	h	n/a
123.2405	0.0895	246481	keystroke	y	n/a
123.57	0.09	247140	keystroke	Key.backspace	n/a
123.7355	0.0895	247471	keystroke	Key.backspace	n/a
123.9005	0.0895	247801	keystroke	Key.backspace	n/a
124.08	0.0905	248160	keystroke	Key.backspace	n/a
124.26	0.075	248520	keystroke	Key.backspace	n/a
124.4405	0.0745	248881	keystroke	Key.backspace	n/a
124.6655	0.1045	249331	keystroke	Key.backspace	n/a
125.2205	0.0745	250441	keystroke	Key.backspace	n/a
125.445	0.135	250890	keystroke	Key.space	n/a
125.6105	0.1345	251221	keystroke	t	n/a
125.7005	0.075	251401	keystroke	i	n/a
125.881	0.089	251762	keystroke	m	n/a
126.075	0.0905	252150	keystroke	o	n/a
126.2705	0.1055	252541	keystroke	t	n/a
126.36	0.12	252720	keystroke	h	n/a
126.525	0.0905	253050	keystroke	y	n/a
126.66	0.0755	253320	keystroke	Key.enter	n/a
126.7435	5.6335	253487	prompt	n/a	buying tariff section pontiac\n
127.3505	0.09	254701	keystroke	b	n/a
127.545	0.075	255090	keystroke	u	n/a
127.7255	0.0895	255451	keystroke	y	n/a
127.9495	0.076	255899	keystroke	i	n/a
128.0855	0.135	256171	keystroke	n	n/a
128.1905	0.105	256381	keystroke	g	n/a
128.3105	0.09	256621	keystroke	Key.space	n/a
128.4155	0.105	256831	keystroke	t	n/a
128.6555	0.09	257311	keystroke	a	n/a
128.8505	0.09	257701	keystroke	r	n/a
128.9855	0.1345	257971	keystroke	i	n/a
129.135	0.061	258270	keystroke	f	n/a
129.3	0.076	258600	keystroke	f	n/a
129.39	0.135	258780	keystroke	Key.space	n/a
129.6305	0.09	259261	keystroke	s	n/a
129.7805	0.0895	259561	keystroke	e	n/a
129.9895	0.06	259979	keystroke	c	n/a
130.1995	0.1055	260399	keystroke	t	n/a
130.245	0.1505	260490	keystroke	i	n/a
130.321	0.089	260642	keystroke	o	n/a
130.515	0.105	261030	keystroke	n	n/a
130.605	0.105	261210	keystroke	Key.space	n/a
130.785	0.105	261570	keystroke	p	n/a
130.9055	0.0445	261811	keystroke	r	n/a
131.1755	0.09	262351	keystroke	Key.backspace	n/a
131.3555	0.09	262711	keystroke	o	n/a
131.5655	0.105	263131	keystroke	n	n/a
131.6855	0.105	263371	keystroke	t	n/a
131.8505	0.105	263701	keystroke	i	n/a
131.9855	0.09	263971	keystroke	a	n/a
132.151	0.134	264302	keystroke	c	n/a
132.285	0.0905	264570	keystroke	Key.enter	n/a
132.3815	6.5505	264763	prompt	n/a	china reviewed vienna pulled\n
133.14	0.1205	266280	keystroke	c	n/a
133.2005	0.0745	266401	keystroke	h	n/a
133.3505	0.0595	266701	keystroke	i	n/a
133.455	0.135	266910	keystroke	n	n/a
133.5605	0.0895	267121	keystroke	a	n/a
133.77	0.09	267540	keystroke	Key.space	n/a
134.0255	0.0895	268051	keystroke	r	n/a
134.235	0.0755	268470	keystroke	e	n/a
134.43	0.09	268860	keystroke	v	n/a
134.5655	0.12	269131	keystroke	i	n/a
134.6855	0.09	269371	keystroke	e	n/a
134.8505	0.09	269701	keystroke	w	n/a
134.9855	0.1195	269971	keystroke	e	n/a
135.2855	0.105	270571	keystroke	d	n/a
135.4205	0.105	270841	keystroke	Key.space	n/a
135.7055	0.09	271411	keystroke	p	n/a
136.0055	0.075	272011	keystroke	Key.backspace	n/a
136.0805	0.09	272161	keystroke	v	n/a
136.2005	0.105	272401	keystroke	i	n/a
136.4395	0.1205	272879	keystroke	e	n/a
136.5455	0.09	273091	keystroke	n	n/a
136.6955	0.105	273391	keystroke	n	n/a
136.8605	0.12	273721	keystroke	a	n/a
136.9655	0.09	273931	keystroke	Key.space	n/a
137.145	0.0755	274290	keystroke	p	n/a
137.266	0.1195	274532	keystroke	u	n/a
137.46	0.105	274920	keystroke	l	n/a
137.5805	0.1355	275161	keystroke	l	n/a
138.5705	0.09	277141	keystroke	e	n/a
138.7205	0.135	277441	keystroke	d	n/a
138.84	0.0905	277680	keystroke	Key.enter	n/a
138.9355	7.437	277871	prompt	n/a	promoting upper deny constraint\n
139.56	0.135	279120	keystroke	p	n/a
139.65	0.1205	279300	keystroke	r	n/a
139.7255	0.0295	279451	keystroke	p	n/a
139.7405	0.1045	279481	keystroke	o	n/a
139.935	0.076	279870	keystroke	m	n/a
140.0855	0.1045	280171	keystroke	o	n/a
140.205	0.105	280410	keystroke	t	n/a
140.295	0.12	280590	keystroke	i	n/a
140.61	0.075	281220	keystroke	Key.backspace	n/a
140.79	0.0755	281580	keystroke	Key.backspace	n/a
140.955	0.0605	281910	keystroke	Key.backspace	n/a
141.12	0.0755	282240	keystroke	Key.backspace	n/a
141.285	0.075	282570	keystroke	Key.backspace	n/a
141.4655	0.0595	282931	keystroke	Key.backspace	n/a
141.676	0.119	283352	keystroke	o	n/a
141.9755	0.135	283951	keystroke	m	n/a
142.186	0.104	284372	keystroke	o	n/a
142.335	0.0755	284670	keystroke	t	n/a
142.4255	0.165	284851	keystroke	i	n/a
142.6955	0.1495	285391	keystroke	n	n/a
142.815	0.09	285630	keystroke	g	n/a
142.965	0.105	285930	keystroke	Key.space	n/a
143.251	0.0895	286502	keystroke	u	n/a
143.43	0.0755	286860	keystroke	p	n/a
143.5805	0.09	287161	keystroke	p	n/a
143.7005	0.075	287401	keystroke	e	n/a
143.8355	0.12	287671	keystroke	r	n/a
143.9705	0.12	287941	keystroke	Key.space	n/a
144.1655	0.075	288331	keystroke	d	n/a
144.346	0.089	288692	keystroke	e	n/a
144.405	0.075	288810	keystroke	n	n/a
144.601	0.134	289202	keystroke	y	n/a
144.75	0.12	289500	keystroke	Key.space	n/a
144.886	0.1195	289772	keystroke	c	n/a
144.991	0.09	289982	keystroke	o	n/a
145.141	0.1345	290282	keystroke	n	n/a
145.2455	0.075	290491	keystroke	s	n/a
145.4255	0.105	290851	keystroke	t	n/a
145.561	0.089	291122	keystroke	r	n/a
145.77	0.075	291540	keystroke	a	n/a
145.8755	0.0745	291751	keystroke	i	n/a
146.07	0.1055	292140	keystroke	n	n/a
146.1455	0.0745	292291	keystroke	t	n/a
146.2955	0.075	292591	keystroke	Key.enter	n/a
146.3765	5.621	292753	prompt	n/a	compensation machinery rover booth\n
146.9705	0.105	293941	keystroke	c	n/a
147.0605	0.09	294121	keystroke	o	n/a
147.3005	0.015	294601	keystroke	m	n/a
147.406	0.0895	294812	keystroke	p	n/a
147.496	0.1045	294992	keystroke	e	n/a
147.646	0.12	295292	keystroke	n	n/a
147.87	0.075	295740	keystroke	s	n/a
148.0655	0.045	296131	keystroke	a	n/a
148.215	0.12	296430	keystroke	t	n/a
148.2755	0.135	296551	keystroke	i	n/a
148.35	0.0905	296700	keystroke	o	n/a
148.5745	0.09	297149	keystroke	n	n/a
148.666	0.0595	297332	keystroke	Key.space	n/a
148.8455	0.075	297691	keystroke	m	n/a
148.9055	0.12	297811	keystroke	a	n/a
149.1895	0.076	298379	keystroke	c	n/a
149.2505	0.0895	298501	keystroke	h	n/a
149.431	0.06	298862	keystroke	i	n/a
149.581	0.104	299162	keystroke	n	n/a
149.6405	0.1345	299281	keystroke	e	n/a
149.82	0.1205	299640	keystroke	r	n/a
149.926	0.165	299852	keystroke	y	n/a
150.1045	0.09	300209	keystroke	Key.space	n/a
150.2255	0.1055	300451	keystroke	r	n/a
150.3155	0.1195	300631	keystroke	o	n/a
150.4655	0.09	300931	keystroke	v	n/a
150.6605	0.0905	301321	keystroke	e	n/a
150.7805	0.105	301561	keystroke	r	n/a
150.8995	0.09	301799	keystroke	Key.space	n/a
151.0805	0.09	302161	keystroke	b	n/a
151.3045	0.031	302609	keystroke	o	n/a
151.4405	0.074	302881	keystroke	o	n/a
151.5445	0.091	303089	keystroke	t	n/a
151.6805	0.105	303361	keystroke	h	n/a
151.905	0.0895	303810	keystroke	Key.enter	n/a
152.0005	5.3815	304001	prompt	n/a	shoes modems gave composed\n
152.656	0.134	305312	keystroke	s	n/a
152.761	0.0445	305522	keystroke	h	n/a
152.865	0.105	305730	keystroke	o	n/a
152.955	0.09	305910	keystroke	e	n/a
153.106	0.134	306212	keystroke	s	n/a
153.225	0.105	306450	keystroke	Key.space	n/a
153.331	0.075	306662	keystroke	m	n/a
153.481	0.119	306962	keystroke	o	n/a
153.721	0.104	307442	keystroke	d	n/a
153.96	0.076	307920	keystroke	e	n/a
154.7705	0.075	309541	keystroke	m	n/a
154.8605	0.12	309721	keystroke	s	n/a
154.9955	0.075	309991	keystroke	Key.space	n/a
155.2505	0.0755	310501	keystroke	g	n/a
155.4605	0.09	310921	keystroke	a	n/a
155.5205	0.09	311041	keystroke	v	n/a
155.6255	0.1205	311251	keystroke	e	n/a
155.7005	0.1045	311401	keystroke	Key.space	n/a
155.925	0.03	311850	keystroke	c	n/a
155.9405	0.06	311881	keystroke	o	n/a
156.151	0.1195	312302	keystroke	m	n/a
156.646	0.0895	313292	keystroke	p	n/a
156.7805	0.15	313561	keystroke	o	n/a
156.9005	0.09	313801	keystroke	s	n/a
157.0355	0.12	314071	keystroke	e	n/a
157.2455	0.09	314491	keystroke	d	n/a
157.3055	0.075	314611	keystroke	Key.enter	n/a
157.387	5.425	314774	prompt	n/a	bonus preceding scoop terrorist\n
158.0105	0.09	316021	keystroke	b	n/a
158.1905	0.09	316381	keystroke	o	n/a
158.3705	0.0905	316741	keystroke	n	n/a
158.5655	0.09	317131	keystroke	u	n/a
158.6255	0.135	317251	keystroke	s	n/a
158.7905	0.09	317581	keystroke	Key.space	n/a
158.9255	0.1205	317851	keystroke	p	n/a
159.0305	0.105	318061	keystroke	r	n/a
159.1505	0.105	318301	keystroke	e	n/a
159.3455	0.09	318691	keystroke	c	n/a
159.5705	0.105	319141	keystroke	e	n/a
159.7355	0.09	319471	keystroke	d	n/a
159.7955	0.075	319591	keystroke	i	n/a
159.9755	0.12	319951	keystroke	n	n/a
160.0655	0.09	320131	keystroke	g	n/a
160.1855	0.105	320371	keystroke	Key.space	n/a
160.2755	0.105	320551	keystroke	s	n/a
160.4555	0.0745	320911	keystroke	c	n/a
160.56	0.075	321120	keystroke	o	n/a
160.7405	0.1345	321481	keystroke	o	n/a
160.815	0.12	321630	keystroke	p	n/a
161.01	0.12	322020	keystroke	Key.space	n/a
161.1005	0.0895	322201	keystroke	t	n/a
161.265	0.09	322530	keystroke	e	n/a
161.4	0.075	322800	keystroke	r	n/a
161.55	0.1205	323100	keystroke	r	n/a
161.641	0.1195	323282	keystroke	o	n/a
162.0455	0.0745	324091	keystroke	r	n/a
162.1805	0.15	324361	keystroke	i	n/a
162.495	0.0905	324990	keystroke	s	n/a
162.6455	0.1195	325291	keystroke	t	n/a
162.75	0.06	325500	keystroke	Key.enter	n/a
162.817	5.08	325634	prompt	n/a	worst occupation savage avon\n
163.4405	0.12	326881	keystroke	w	n/a
163.5005	0.12	327001	keystroke	o	n/a
163.6205	0.09	327241	keystroke	r	n/a
163.8005	0.075	327601	keystroke	s	n/a
164.0105	0.09	328021	keystroke	t	n/a
164.085	0.1205	328170	keystroke	Key.space	n/a
164.191	0.1045	328382	keystroke	o	n/a
164.2515	0.089	328503	keystroke	c	n/a
164.4155	0.1345	328831	keystroke	c	n/a
164.5355	0.09	329071	keystroke	u	n/a
164.6855	0.15	329371	keystroke	p	n/a
164.791	0.0745	329582	keystroke	a	n/a
164.9855	0.09	329971	keystroke	t	n/a
165.0305	0.135	330061	keystroke	i	n/a
165.1065	0.089	330213	keystroke	o	n/a
165.3005	0.105	330601	keystroke	n	n/a
165.3905	0.075	330781	keystroke	Key.space	n/a
165.421	0.1195	330842	keystroke	s	n/a
165.6155	0.0905	331231	keystroke	a	n/a
165.6745	0.151	331349	keystroke	v	n/a
165.796	0.0895	331592	keystroke	a	n/a
166.5455	0.0895	333091	keystroke	g	n/a
166.7255	0.09	333451	keystroke	e	n/a
166.8005	0.1045	333601	keystroke	Key.space	n/a
167.055	0.105	334110	keystroke	a	n/a
167.3105	0.105	334621	keystroke	v	n/a
167.43	0.075	334860	keystroke	o	n/a
167.5805	0.1195	335161	keystroke	n	n/a
167.805	0.09	335610	keystroke	Key.enter	n/a
167.9035	7.659	335807	prompt	n/a	variable mentor expenditure requests\n
168.6305	0.09	337261	keystroke	v	n/a
168.8555	0.045	337711	keystroke	a	n/a
168.9905	0.105	337981	keystroke	r	n/a
169.0805	0.12	338161	keystroke	i	n/a
169.2745	0.106	338549	keystroke	a	n/a
169.3955	0.119	338791	keystroke	b	n/a
169.6205	0.09	339241	keystroke	l	n/a
169.7405	0.075	339481	keystroke	e	n/a
169.8305	0.09	339661	keystroke	Key.space	n/a
170.0705	0.12	340141	keystroke	m	n/a
170.1605	0.15	340321	keystroke	e	n/a
170.295	0.181	340590	keystroke	n	n/a
170.505	0.121	341010	keystroke	t	n/a
170.641	0.224	341282	keystroke	o	n/a
170.806	0.089	341612	keystroke	r	n/a
171.015	0.105	342030	keystroke	Key.space	n/a
171.495	0.0905	342990	keystroke	e	n/a
171.7055	0.0905	343411	keystroke	x	n/a
171.7805	0.09	343561	keystroke	p	n/a
171.9155	0.104	343831	keystroke	e	n/a
172.0055	0.12	344011	keystroke	n	n/a
172.11	0.09	344220	keystroke	s	n/a
172.2305	0.1045	344461	keystroke	i	n/a
172.6205	0.075	345241	keystroke	Key.backspace	n/a
172.7855	0.075	345571	keystroke	Key.backspace	n/a
172.8905	0.09	345781	keystroke	d	n/a
172.9805	0.105	345961	keystroke	i	n/a
173.3255	0.09	346651	keystroke	t	n/a
173.3855	0.12	346771	keystroke	u	n/a
173.6255	0.09	347251	keystroke	r	n/a
173.8205	0.09	347641	keystroke	e	n/a
173.8955	0.105	347791	keystroke	Key.space	n/a
174.2855	0.1355	348571	keystroke	r	n/a
174.4505	0.105	348901	keystroke	e	n/a
174.6155	0.12	349231	keystroke	q	n/a
174.7355	0.1055	349471	keystroke	u	n/a
174.825	0.105	349650	keystroke	e	n/a
174.99	0.106	349980	keystroke	s	n/a
175.201	0.059	350402	keystroke	t	n/a
175.395	0.076	350790	keystroke	s	n/a
175.5	0.06	351000	keystroke	Key.enter	n/a
175.5665	5.7555	351133	prompt	n/a	model begun cancel suspended\n
176.2205	0.135	352441	keystroke	m	n/a
176.4305	0.105	352861	keystroke	o	n/a
176.4905	0.105	352981	keystroke	d	n/a
176.6705	0.105	353341	keystroke	e	n/a
176.7155	0.075	353431	keystroke	l	n/a
176.8355	0.105	353671	keystroke	Key.space	n/a
176.9705	0.12	353941	keystroke	b	n/a
177.0605	0.075	354121	keystroke	e	n/a
177.2555	0.105	354511	keystroke	g	n/a
177.3155	0.105	354631	keystroke	i	n/a
177.7505	0.045	355501	keystroke	Key.backspace	n/a
177.901	0.075	355802	keystroke	u	n/a
178.0955	0.09	356191	keystroke	n	n/a
178.2605	0.075	356521	keystroke	Key.space	n/a
178.7555	0.0895	357511	keystroke	c	n/a
178.95	0.075	357900	keystroke	a	n/a
179.011	0.089	358022	keystroke	n	n/a
179.115	0.1055	358230	keystroke	c	n/a
179.341	0.089	358682	keystroke	e	n/a
179.415	0.075	358830	keystroke	l	n/a
179.55	0.12	359100	keystroke	Key.space	n/a
179.745	0.135	359490	keystroke	s	n/a
179.851	0.105	359702	keystroke	u	n/a
180.0005	0.135	360001	keystroke	s	n/a
180.12	0.076	360240	keystroke	p	n/a
180.3755	0.0745	360751	keystroke	e	n/a
180.586	0.119	361172	keystroke	n	n/a
180.781	0.0745	361562	keystroke	d	n/a
180.975	0.0905	361950	keystroke	e	n/a
181.17	0.0605	362340	keystroke	d	n/a
181.2905	0.03	362581	keystroke	Key.enter	n/a
181.326	5.801	362652	prompt	n/a	costumes century reflected tears\n
181.965	0.075	363930	keystroke	c	n/a
182.026	0.1045	364052	keystroke	o	n/a
182.1755	0.0745	364351	keystroke	s	n/a
182.371	0.0895	364742	keystroke	t	n/a
182.416	0.074	364832	keystroke	u	n/a
182.5955	0.1045	365191	keystroke	m	n/a
182.6555	0.1055	365311	keystroke	e	n/a
182.8805	0.105	365761	keystroke	s	n/a
182.986	0.089	365972	keystroke	Key.space	n/a
183.09	0.0755	366180	keystroke	c	n/a
183.3005	0.1045	366601	keystroke	e	n/a
183.3605	0.09	366721	keystroke	n	n/a
183.5115	0.089	367023	keystroke	t	n/a
183.6455	0.09	367291	keystroke	u	n/a
184.051	0.1045	368102	keystroke	r	n/a
184.1705	0.0905	368341	keystroke	y	n/a
184.32	0.12	368640	keystroke	Key.space	n/a
184.5905	0.105	369181	keystroke	r	n/a
184.756	0.1045	369512	keystroke	e	n/a
184.951	0.1045	369902	keystroke	f	n/a
185.1155	0.105	370231	keystroke	l	n/a
185.2055	0.09	370411	keystroke	e	n/a
185.4305	0.075	370861	keystroke	c	n/a
185.6405	0.09	371281	keystroke	t	n/a
185.8205	0.12	371641	keystroke	e	n/a
186.001	0.1195	372002	keystroke	d	n/a
186.1655	0.15	372331	keystroke	Key.space	n/a
186.2845	0.0905	372569	keystroke	t	n/a
186.435	0.0905	372870	keystroke	e	n/a
186.6005	0.105	373201	keystroke	a	n/a
186.7955	0.0745	373591	keystroke	r	n/a
186.9305	0.1345	373861	keystroke	s	n/a
187.08	0.0455	374160	keystroke	Key.enter	n/a
187.13	5.6375	374260	prompt	n/a	gamecube rotary formats amended\n
187.876	0.089	375752	keystroke	g	n/a
188.07	0.0905	376140	keystroke	a	n/a
188.1005	0.12	376201	keystroke	m	n/a
188.235	0.1055	376470	keystroke	e	n/a
188.4605	0.0755	376921	keystroke	c	n/a
188.5205	0.09	377041	keystroke	u	n/a
188.7155	0.12	377431	keystroke	b	n/a
188.8205	0.12	377641	keystroke	e	n/a
188.9555	0.09	377911	keystroke	Key.space	n/a
189.151	0.0895	378302	keystroke	r	n/a
189.225	0.0755	378450	keystroke	o	n/a
189.51	0.09	379020	keystroke	t	n/a
189.72	0.06	379440	keystroke	a	n/a
189.855	0.1205	379710	keystroke	r	n/a
189.93	0.1055	379860	keystroke	y	n/a
190.0355	0.1045	380071	keystroke	Key.space	n/a
190.2005	0.105	380401	keystroke	f	n/a
190.2755	0.09	380551	keystroke	o	n/a
190.381	0.1195	380762	keystroke	r	n/a
190.4855	0.105	380971	keystroke	m	n/a
190.6205	0.0605	381241	keystroke	a	n/a
190.8155	0.045	381631	keystroke	t	n/a
191.1005	0.0745	382201	keystroke	s	n/a
191.1905	0.1045	382381	keystroke	Key.space	n/a
191.5955	0.09	383191	keystroke	a	n/a
191.656	0.0895	383312	keystroke	m	n/a
191.9555	0.12	383911	keystroke	e	n/a
192.0605	0.12	384121	keystroke	n	n/a
192.1955	0.105	384391	keystroke	d	n/a
192.4205	0.06	384841	keystroke	e	n/a
192.5705	0.075	385141	keystroke	d	n/a
192.6905	0.075	385381	keystroke	Key.enter	n/a
192.7725	8.0495	385545	prompt	n/a	openings doors bearing origins\n
193.5755	0.195	387151	keystroke	o	n/a
193.6805	0.1505	387361	keystroke	p	n/a
193.8455	0.105	387691	keystroke	e	n/a
193.9515	0.149	387903	keystroke	n	n/a
194.146	0.1195	388292	keystroke	i	n/a
194.3255	0.2105	388651	keystroke	n	n/a
194.446	0.075	388892	keystroke	g	n/a
194.6255	0.135	389251	keystroke	s	n/a
194.7455	0.105	389491	keystroke	Key.space	n/a
194.881	0.105	389762	keystroke	d	n/a
195	0.1655	390000	keystroke	o	n/a
195.2255	0.18	390451	keystroke	o	n/a
195.4205	0.12	390841	keystroke	r	n/a
195.7955	0.09	391591	keystroke	s	n/a
195.9005	0.075	391801	keystroke	Key.space	n/a
196.335	0.12	392670	keystroke	b	n/a
196.4105	0.09	392821	keystroke	e	n/a
196.606	0.045	393212	keystroke	a	n/a
196.7705	0.075	393541	keystroke	r	n/a
196.8305	0.075	393661	keystroke	i	n/a
196.9495	0.1215	393899	keystroke	n	n/a
197.055	0.0905	394110	keystroke	g	n/a
197.1905	0.105	394381	keystroke	Key.space	n/a
197.445	0.091	394890	keystroke	o	n/a
197.55	0.09	395100	keystroke	r	n/a
197.67	0.1055	395340	keystroke	i	n/a
197.7905	0.075	395581	keystroke	g	n/a
198.4655	0.0905	396931	keystroke	n	n/a
198.5705	0.09	397141	keystroke	s	n/a
199.9955	0.045	399991	keystroke	Key.backspace	n/a
200.1455	0.06	400291	keystroke	Key.backspace	n/a
200.3105	0.105	400621	keystroke	i	n/a
200.506	0.119	401012	keystroke	n	n/a
200.61	0.076	401220	keystroke	s	n/a
200.7455	0.0745	401491	keystroke	Key.enter	n/a
200.827	5.6345	401654	prompt	n/a	passes manner scholarships watching\n
201.585	0.0905	403170	keystroke	p	n/a
201.645	0.1205	403290	keystroke	a	n/a
201.87	0.09	403740	keystroke	s	n/a
202.05	0.0905	404100	keystroke	s	n/a
202.2005	0.12	404401	keystroke	e	n/a
202.366	0.104	404732	keystroke	s	n/a
202.44	0.105	404880	keystroke	Key.space	n/a
202.5605	0.1205	405121	keystroke	m	n/a
202.666	0.12	405332	keystroke	a	n/a
202.786	0.075	405572	keystroke	n	n/a
202.951	0.089	405902	keystroke	n	n/a
202.98	0.106	405960	keystroke	e	n/a
203.146	0.12	406292	keystroke	r	n/a
203.3255	0.105	406651	keystroke	Key.space	n/a
203.5055	0.12	407011	keystroke	s	n/a
203.6855	0.0905	407371	keystroke	c	n/a
203.76	0.091	407520	keystroke	h	n/a
203.9405	0.0895	407881	keystroke	o	n/a
204.1355	0.1055	408271	keystroke	l	n/a
204.2255	0.0595	408451	keystroke	a	n/a
204.375	0.105	408750	keystroke	r	n/a
204.5255	0.135	409051	keystroke	s	n/a
204.6155	0.105	409231	keystroke	h	n/a
204.7655	0.1195	409531	keystroke	i	n/a
204.9455	0.0905	409891	keystroke	p	n/a
205.0495	0.1055	410099	keystroke	Key.space	n/a
205.185	0.106	410370	keystroke	w	n/a
205.41	0.06	410820	keystroke	a	n/a
205.59	0.0605	411180	keystroke	t	n/a
205.8005	0.0745	411601	keystroke	c	n/a
205.831	0.09	411662	keystroke	h	n/a
205.995	0.0755	411990	keystroke	i	n/a
206.131	0.0895	412262	keystroke	n	n/a
206.2355	0.105	412471	keystroke	g	n/a
206.3855	0.0745	412771	keystroke	Key.enter	n/a
206.465	5.337	412930	prompt	n/a	chen ready newsletters federal\n
207.03	0.105	414060	keystroke	c	n/a
207.1055	0.1045	414211	keystroke	h	n/a
207.24	0.12	414480	keystroke	e	n/a
207.4055	0.105	414811	keystroke	n	n/a
207.5855	0.12	415171	keystroke	Key.space	n/a
207.7205	0.1055	415441	keystroke	r	n/a
207.8405	0.12	415681	keystroke	e	n/a
208.0355	0.075	416071	keystroke	a	n/a
208.1405	0.12	416281	keystroke	d	n/a
208.2455	0.135	416491	keystroke	y	n/a
208.3505	0.105	416701	keystroke	Key.space	n/a
208.5155	0.165	417031	keystroke	n	n/a
208.6055	0.135	417211	keystroke	e	n/a
208.7555	0.12	417511	keystroke	w	n/a
208.8905	0.091	417781	keystroke	l	n/a
209.2355	0.075	418471	keystroke	Key.backspace	n/a
209.3405	0.12	418681	keystroke	s	n/a
209.4905	0.12	418981	keystroke	l	n/a
209.6405	0.09	419281	keystroke	e	n/a
209.836	0.0745	419672	keystroke	t	n/a
209.9855	0.075	419971	keystroke	t	n/a
210.1205	0.0905	420241	keystroke	e	n/a
210.226	0.0895	420452	keystroke	r	n/a
210.39	0.09	420780	keystroke	s	n/a
210.45	0.1505	420900	keystroke	Key.space	n/a
210.6755	0.09	421351	keystroke	f	n/a
210.855	0.1205	421710	keystroke	e	n/a
211.005	0.12	422010	keystroke	d	n/a
211.17	0.12	422340	keystroke	e	n/a
211.305	0.105	422610	keystroke	r	n/a
211.4705	0.1045	422941	keystroke	a	n/a
211.531	0.1045	423062	keystroke	l	n/a
211.6955	0.105	423391	keystroke	Key.enter	n/a
211.807	6.25	423614	prompt	n/a	patrick succeed evening ladder\n
212.4755	0.075	424951	keystroke	p	n/a
212.5355	0.12	425071	keystroke	a	n/a
212.8055	0.075	425611	keystroke	t	n/a
213.1205	0.0905	426241	keystroke	r	n/a
213.3605	0.075	426721	keystroke	c	n/a
213.7505	0.0745	427501	keystroke	Key.backspace	n/a
213.9	0.105	427800	keystroke	i	n/a
214.021	0.105	428042	keystroke	c	n/a
214.156	0.089	428312	keystroke	k	n/a
214.365	0.1205	428730	keystroke	Key.space	n/a
214.5305	0.12	429061	keystroke	s	n/a
214.635	0.105	429270	keystroke	u	n/a
214.9055	0.0905	429811	keystroke	c	n/a
215.071	0.075	430142	keystroke	c	n/a
215.296	0.0595	430592	keystroke	e	n/a
215.6855	0.0905	431371	keystroke	e	n/a
215.896	0.074	431792	keystroke	d	n/a
215.955	0.12	431910	keystroke	Key.space	n/a
216.136	0.119	432272	keystroke	e	n/a
216.3	0.12	432600	keystroke	v	n/a
216.405	0.0905	432810	keystroke	e	n/a
216.5405	0.09	433081	keystroke	n	n/a
216.6755	0.0745	433351	keystroke	i	n/a
216.796	0.1345	433592	keystroke	n	n/a
216.9155	0.09	433831	keystroke	g	n/a
217.0205	0.105	434041	keystroke	Key.space	n/a
217.1855	0.09	434371	keystroke	l	n/a
217.2605	0.0905	434521	keystroke	a	n/a
217.4105	0.09	434821	keystroke	d	n/a
217.5605	0.09	435121	keystroke	d	n/a
217.7255	0.09	435451	keystroke	e	n/a
217.8305	0.12	435661	keystroke	r	n/a
217.9655	0.09	435931	keystroke	Key.enter	n/a
218.0615	5.801	436123	prompt	n/a	pantyhose neutral cannon options\n
218.926	0.104	437852	keystroke	p	n/a
219.016	0.0595	438032	keystroke	a	n/a
219.106	0.1345	438212	keystroke	n	n/a
219.736	0.1045	439472	keystroke	t	n/a
219.8255	0.0745	439651	keystroke	y	n/a
220.096	0.1045	440192	keystroke	h	n/a
220.305	0.075	440610	keystroke	o	n/a
220.41	0.135	440820	keystroke	s	n/a
220.576	0.12	441152	keystroke	e	n/a
220.68	0.0755	441360	keystroke	Key.space	n/a
220.771	0.119	441542	keystroke	n	n/a
220.875	0.091	441750	keystroke	e	n/a
221.01	0.1655	442020	keystroke	u	n/a
221.115	0.1055	442230	keystroke	t	n/a
221.2495	0.106	442499	keystroke	r	n/a
221.4595	0.1215	442919	keystroke	a	n/a
221.5205	0.104	443041	keystroke	l	n/a
221.64	0.1195	443280	keystroke	Key.space	n/a
221.7755	0.045	443551	keystroke	c	n/a
221.971	0.0895	443942	keystroke	a	n/a
222.015	0.0755	444030	keystroke	n	n/a
222.1655	0.0905	444331	keystroke	n	n/a
222.316	0.06	444632	keystroke	o	n/a
222.42	0.1805	444840	keystroke	n	n/a
222.63	0.105	445260	keystroke	Key.space	n/a
222.84	0.1955	445680	keystroke	o	n/a
222.96	0.12	445920	keystroke	p	n/a
223.11	0.09	446220	keystroke	t	n/a
223.1855	0.165	446371	keystroke	i	n/a
223.276	0.119	446552	keystroke	o	n/a
223.485	0.136	446970	keystroke	n	n/a
223.5755	0.1045	447151	keystroke	s	n/a
223.7555	0.1045	447511	keystroke	Key.enter	n/a
223.8685	6.7285	447737	prompt	n/a	voltage reproduction british owners\n
225.2255	0.075	450451	keystroke	v	n/a
225.2705	0.075	450541	keystroke	o	n/a
225.4355	0.075	450871	keystroke	l	n/a
225.556	0.1045	451112	keystroke	t	n/a
225.811	0.105	451622	keystroke	a	n/a
225.916	0.104	451832	keystroke	g	n/a
226.006	0.12	452012	keystroke	e	n/a
226.14	0.09	452280	keystroke	Key.space	n/a
226.26	0.09	452520	keystroke	r	n/a
226.395	0.105	452790	keystroke	e	n/a
226.5	0.1805	453000	keystroke	p	n/a
226.5905	0.1345	453181	keystroke	o	n/a
227.0405	0.0745	454081	keystroke	Key.backspace	n/a
227.145	0.121	454290	keystroke	r	n/a
227.236	0.165	454472	keystroke	o	n/a
227.445	0.09	454890	keystroke	d	n/a
227.565	0.135	455130	keystroke	u	n/a
227.67	0.076	455340	keystroke	c	n/a
227.865	0.1055	455730	keystroke	t	n/a
227.925	0.135	455850	keystroke	i	n/a
228	0.105	456000	keystroke	o	n/a
228.195	0.1195	456390	keystroke	n	n/a
228.2995	0.076	456599	keystroke	Key.space	n/a
228.4055	0.15	456811	keystroke	b	n/a
228.4955	0.09	456991	keystroke	r	n/a
228.6455	0.2105	457291	keystroke	i	n/a
228.8105	0.1045	457621	keystroke	t	n/a
228.9005	0.255	457801	keystroke	i	n/a
229.1405	0.09	458281	keystroke	s	n/a
229.275	0.1655	458550	keystroke	h	n/a
229.4105	0.12	458821	keystroke	Key.space	n/a
229.605	0.12	459210	keystroke	o	n/a
229.74	0.075	459480	keystroke	w	n/a
229.875	0.136	459750	keystroke	n	n/a
229.981	0.075	459962	keystroke	e	n/a
230.2655	0.0745	460531	keystroke	r	n/a
230.46	0.076	460920	keystroke	s	n/a
230.52	0.075	461040	keystroke	Key.enter	n/a
230.6015	5.6355	461203	prompt	n/a	single email crucial antiques\n
231.1955	0.1355	462391	keystroke	s	n/a
231.2705	0.09	462541	keystroke	i	n/a
231.4505	0.09	462901	keystroke	n	n/a
231.4795	0.076	462959	keystroke	g	n/a
231.6605	0.075	463321	keystroke	l	n/a
231.7655	0.09	463531	keystroke	e	n/a
231.8855	0.09	463771	keystroke	Key.space	n/a
232.05	0.0905	464100	keystroke	e	n/a
232.126	0.119	464252	keystroke	m	n/a
232.3505	0.105	464701	keystroke	a	n/a
232.4255	0.119	464851	keystroke	i	n/a
232.6505	0.09	465301	keystroke	l	n/a
232.7705	0.135	465541	keystroke	Key.space	n/a
232.8905	0.075	465781	keystroke	c	n/a
233.1005	0.105	466201	keystroke	r	n/a
233.2205	0.105	466441	keystroke	u	n/a
233.8505	0.045	467701	keystroke	c	n/a
233.971	0.09	467942	keystroke	i	n/a
234.4955	0.0745	468991	keystroke	a	n/a
234.5555	0.1355	469111	keystroke	l	n/a
234.7655	0.12	469531	keystroke	Key.space	n/a
235.0355	0.1055	470071	keystroke	a	n/a
235.1105	0.105	470221	keystroke	n	n/a
235.3205	0.06	470641	keystroke	t	n/a
235.4255	0.09	470851	keystroke	i	n/a
235.5455	0.105	471091	keystroke	q	n/a
235.6355	0.12	471271	keystroke	u	n/a
235.7555	0.09	471511	keystroke	e	n/a
235.9355	0.0905	471871	keystroke	s	n/a
236.1605	0.075	472321	keystroke	Key.enter	n/a
236.253	5.549	472506	prompt	n/a	rugby escorts clerk emacs\n
236.986	0.0895	473972	keystroke	r	n/a
237.3155	0.075	474631	keystroke	u	n/a
238.215	0.0905	476430	keystroke	g	n/a
238.2755	0.1055	476551	keystroke	b	n/a
238.47	0.1195	476940	keystroke	y	n/a
238.6505	0.119	477301	keystroke	Key.space	n/a
238.831	0.104	477662	keystroke	e	n/a
239.04	0.09	478080	keystroke	s	n/a
239.1755	0.105	478351	keystroke	c	n/a
239.2655	0.12	478531	keystroke	o	n/a
239.446	0.1195	478892	keystroke	r	n/a
239.6405	0.0905	479281	keystroke	t	n/a
239.8355	0.09	479671	keystroke	s	n/a
239.8795	0.09	479759	keystroke	Key.space	n/a
240.0755	0.105	480151	keystroke	c	n/a
240.1955	0.105	480391	keystroke	l	n/a
240.3155	0.105	480631	keystroke	e	n/a
240.4805	0.12	480961	keystroke	r	n/a
240.5855	0.0895	481171	keystroke	k	n/a
240.72	0.1055	481440	keystroke	Key.space	n/a
240.93	0.135	481860	keystroke	e	n/a
241.0505	0.12	482101	keystroke	m	n/a
241.2	0.105	482400	keystroke	a	n/a
241.4105	0.0895	482821	keystroke	c	n/a
241.6055	0.1195	483211	keystroke	s	n/a
241.6955	0.1045	483391	keystroke	Key.enter	n/a
241.806	6.251	483612	prompt	n/a	forecast brings indicates ward\n
242.5805	0.12	485161	keystroke	f	n/a
242.6855	0.165	485371	keystroke	o	n/a
242.8205	0.09	485641	keystroke	r	n/a
243.015	0.09	486030	keystroke	e	n/a
243.21	0.0905	486420	keystroke	c	n/a
243.4055	0.135	486811	keystroke	a	n/a
243.585	0.105	487170	keystroke	s	n/a
243.81	0.105	487620	keystroke	t	n/a
243.9	0.1205	487800	keystroke	Key.space	n/a
244.006	0.1195	488012	keystroke	b	n/a
244.17	0.0905	488340	keystroke	r	n/a
244.3355	0.1045	488671	keystroke	i	n/a
244.485	0.1355	488970	keystroke	n	n/a
244.575	0.076	489150	keystroke	g	n/a
244.846	0.074	489692	keystroke	Key.space	n/a
245.16	0.075	490320	keystroke	Key.backspace	n/a
245.251	0.105	490502	keystroke	s	n/a
245.385	0.105	490770	keystroke	Key.space	n/a
245.475	0.091	490950	keystroke	i	n/a
245.64	0.136	491280	keystroke	n	n/a
245.7605	0.105	491521	keystroke	d	n/a
245.9555	0.12	491911	keystroke	i	n/a
246.1505	0.09	492301	keystroke	c	n/a
246.3905	0.06	492781	keystroke	a	n/a
246.6005	0.105	493201	keystroke	t	n/a
246.7655	0.075	493531	keystroke	e	n/a
246.9005	0.1205	493801	keystroke	s	n/a
247.0655	0.135	494131	keystroke	Key.space	n/a
247.2155	0.1045	494431	keystroke	w	n/a
247.4255	0.0445	494851	keystroke	a	n/a
247.575	0.105	495150	keystroke	r	n/a
247.8	0.1055	495600	keystroke	d	n/a
247.9505	0.1045	495901	keystroke	Key.enter	n/a
248.0605	4.4665	496121	prompt	n/a	choir dash pairs previous\n
248.7455	0.1495	497491	keystroke	c	n/a
248.8355	0.09	497671	keystroke	h	n/a
249	0.1055	498000	keystroke	o	n/a
249.135	0.1805	498270	keystroke	i	n/a
249.2705	0.105	498541	keystroke	r	n/a
249.4505	0.15	498901	keystroke	Key.space	n/a
249.5555	0.105	499111	keystroke	d	n/a
249.7655	0.09	499531	keystroke	a	n/a
249.9015	0.119	499803	keystroke	s	n/a
250.0355	0.12	500071	keystroke	h	n/a
250.1705	0.105	500341	keystroke	Key.space	n/a
250.4105	0.075	500821	keystroke	p	n/a
250.5005	0.105	501001	keystroke	a	n/a
250.6655	0.15	501331	keystroke	i	n/a
250.8305	0.09	501661	keystroke	r	n/a
251.0105	0.105	502021	keystroke	s	n/a
251.0855	0.1045	502171	keystroke	Key.space	n/a
251.25	0.135	502500	keystroke	p	n/a
251.37	0.075	502740	keystroke	r	n/a
251.505	0.09	503010	keystroke	e	n/a
251.715	0.105	503430	keystroke	v	n/a
251.806	0.1795	503612	keystroke	i	n/a
251.9255	0.0745	503851	keystroke	o	n/a
252.105	0.105	504210	keystroke	u	n/a
252.195	0.1055	504390	keystroke	s	n/a
252.4655	0.059	504931	keystroke	Key.enter	n/a
252.532	6.295	505064	prompt	n/a	strand provinces belief salem\n
253.216	0.119	506432	keystroke	s	n/a
253.4405	0.09	506881	keystroke	t	n/a
253.576	0.0895	507152	keystroke	r	n/a
253.77	0.1045	507540	keystroke	a	n/a
253.8605	0.12	507721	keystroke	n	n/a
253.9945	0.0765	507989	keystroke	g	n/a
254.13	0.09	508260	keystroke	Key.space	n/a
254.5505	0.075	509101	keystroke	Key.backspace	n/a
254.7005	0.09	509401	keystroke	Key.backspace	n/a
254.806	0.1045	509612	keystroke	d	n/a
254.8805	0.09	509761	keystroke	Key.space	n/a
255.0005	0.135	510001	keystroke	p	n/a
255.1505	0.1055	510301	keystroke	r	n/a
255.21	0.136	510420	keystroke	o	n/a
255.5105	0.1345	511021	keystroke	v	n/a
255.6155	0.0895	511231	keystroke	i	n/a
255.795	0.1505	511590	keystroke	n	n/a
255.885	0.105	511770	keystroke	c	n/a
256.14	0.09	512280	keystroke	e	n/a
256.335	0.1055	512670	keystroke	s	n/a
256.4405	0.0745	512881	keystroke	Key.space	n/a
256.6205	0.105	513241	keystroke	b	n/a
256.7555	0.075	513511	keystroke	e	n/a
256.89	0.0905	513780	keystroke	l	n/a
257.0555	0.1195	514111	keystroke	i	n/a
257.416	0.105	514832	keystroke	e	n/a
257.64	0.12	515280	keystroke	f	n/a
257.8355	0.12	515671	keystroke	Key.space	n/a
258.0005	0.105	516001	keystroke	s	n/a
258.2105	0.09	516421	keystroke	a	n/a
258.2555	0.1045	516511	keystroke	l	n/a
258.435	0.0905	516870	keystroke	e	n/a
258.48	0.1505	516960	keystroke	m	n/a
258.7205	0.105	517441	keystroke	Key.enter	n/a
258.8315	5.1555	517663	prompt	n/a	offset rated died indicates\n
259.41	0.1205	518820	keystroke	o	n/a
259.515	0.106	519030	keystroke	f	n/a
259.71	0.105	519420	keystroke	f	n/a
259.86	0.105	519720	keystroke	s	n/a
260.025	0.09	520050	keystroke	e	n/a
260.2055	0.105	520411	keystroke	t	n/a
260.2955	0.105	520591	keystroke	Key.space	n/a
260.4905	0.06	520981	keystroke	r	n/a
260.9245	0.091	521849	keystroke	a	n/a
261.0605	0.12	522121	keystroke	t	n/a
261.165	0.1055	522330	keystroke	e	n/a
261.345	0.09	522690	keystroke	d	n/a
261.4205	0.1045	522841	keystroke	Key.space	n/a
261.615	0.135	523230	keystroke	d	n/a
261.7355	0.1345	523471	keystroke	i	n/a
261.9755	0.12	523951	keystroke	e	n/a
262.1705	0.1045	524341	keystroke	d	n/a
262.26	0.105	524520	keystroke	Key.space	n/a
262.515	0.091	525030	keystroke	i	n/a
262.695	0.09	525390	keystroke	n	n/a
262.8005	0.1045	525601	keystroke	d	n/a
262.92	0.105	525840	keystroke	i	n/a
263.0705	0.105	526141	keystroke	c	n/a
263.2955	0.045	526591	keystroke	a	n/a
263.4755	0.09	526951	keystroke	t	n/a
263.6255	0.105	527251	keystroke	e	n/a
263.7905	0.1045	527581	keystroke	s	n/a
263.88	0.105	527760	keystroke	Key.enter	n/a
263.9905	6.417	527981	prompt	n/a	bulgarian practices pointing release\n
264.645	0.091	529290	keystroke	b	n/a
264.8255	0.0745	529651	keystroke	u	n/a
265.0055	0.0895	530011	keystroke	l	n/a
265.08	0.0905	530160	keystroke	g	n/a
265.3055	0.045	530611	keystroke	a	n/a
265.5305	0.105	531061	keystroke	r	n/a
265.6205	0.15	531241	keystroke	i	n/a
265.8605	0.09	531721	keystroke	a	n/a
265.9355	0.195	531871	keystroke	n	n/a
266.1905	0.09	532381	keystroke	Key.space	n/a
266.355	0.12	532710	keystroke	p	n/a
266.445	0.121	532890	keystroke	r	n/a
266.7	0.0755	533400	keystroke	a	n/a
266.8355	0.0745	533671	keystroke	c	n/a
267.045	0.0905	534090	keystroke	t	n/a
267.12	0.1355	534240	keystroke	i	n/a
267.271	0.104	534542	keystroke	c	n/a
267.4955	0.075	534991	keystroke	e	n/a
267.646	0.1195	535292	keystroke	s	n/a
267.7205	0.105	535441	keystroke	Key.space	n/a
267.8555	0.165	535711	keystroke	p	n/a
267.9605	0.135	535921	keystroke	o	n/a
268.1555	0.105	536311	keystroke	i	n/a
268.35	0.135	536700	keystroke	n	n/a
268.4555	0.105	536911	keystroke	t	n/a
268.575	0.0755	537150	keystroke	i	n/a
268.696	0.1495	537392	keystroke	n	n/a
268.83	0.0905	537660	keystroke	g	n/a
268.9055	0.1195	537811	keystroke	Key.space	n/a
269.0405	0.119	538081	keystroke	r	n/a
269.2055	0.105	538411	keystroke	e	n/a
269.3255	0.105	538651	keystroke	l	n/a
269.505	0.106	539010	keystroke	e	n/a
269.8355	0.0895	539671	keystroke	a	n/a
269.9105	0.105	539821	keystroke	s	n/a
270.136	0.0595	540272	keystroke	e	n/a
270.3005	0.1045	540601	keystroke	Key.enter	n/a
270.4125	7.5545	540825	prompt	n/a	foundation ownership please christine\n
271.0505	0.12	542101	keystroke	f	n/a
271.125	0.106	542250	keystroke	o	n/a
271.29	0.1055	542580	keystroke	u	n/a
271.5	0.136	543000	keystroke	n	n/a
271.575	0.09	543150	keystroke	d	n/a
271.785	0.046	543570	keystroke	a	n/a
271.9805	0.0445	543961	keystroke	t	n/a
272.01	0.1655	544020	keystroke	i	n/a
272.1	0.105	544200	keystroke	o	n/a
272.31	0.1355	544620	keystroke	n	n/a
272.46	0.09	544920	keystroke	Key.space	n/a
272.8655	0.075	545731	keystroke	o	n/a
273.0305	0.09	546061	keystroke	w	n/a
273.1505	0.12	546301	keystroke	n	n/a
273.7055	0.1205	547411	keystroke	e	n/a
273.84	0.1055	547680	keystroke	r	n/a
274.02	0.12	548040	keystroke	s	n/a
274.11	0.1055	548220	keystroke	h	n/a
274.275	0.12	548550	keystroke	i	n/a
274.4545	0.091	548909	keystroke	p	n/a
274.575	0.075	549150	keystroke	Key.space	n/a
274.665	0.105	549330	keystroke	p	n/a
274.845	0.12	549690	keystroke	l	n/a
274.935	0.09	549870	keystroke	e	n/a
275.13	0.09	550260	keystroke	a	n/a
275.205	0.075	550410	keystroke	s	n/a
275.4	0.105	550800	keystroke	e	n/a
275.49	0.12	550980	keystroke	Key.space	n/a
275.64	0.12	551280	keystroke	c	n/a
275.731	0.105	551462	keystroke	h	n/a
275.9105	0.1055	551821	keystroke	i	n/a
276.346	0.074	552692	keystroke	Key.backspace	n/a
276.45	0.1055	552900	keystroke	r	n/a
276.556	0.135	553112	keystroke	i	n/a
277.096	0.1195	554192	keystroke	s	n/a
277.3655	0.105	554731	keystroke	t	n/a
277.5005	0.09	555001	keystroke	i	n/a
277.681	0.1195	555362	keystroke	n	n/a
277.7555	0.0895	555511	keystroke	e	n/a
277.905	0.06	555810	keystroke	Key.enter	n/a
277.972	7.45	555944	prompt	n/a	context daisy reuters beverages\n
278.596	0.104	557192	keystroke	c	n/a
278.685	0.075	557370	keystroke	o	n/a
278.8955	0.1345	557791	keystroke	n	n/a
279.1655	0.105	558331	keystroke	t	n/a
279.3745	0.09	558749	keystroke	e	n/a
279.6155	0.06	559231	keystroke	x	n/a
279.8555	0.0895	559711	keystroke	t	n/a
279.93	0.12	559860	keystroke	Key.space	n/a
280.065	0.0905	560130	keystroke	d	n/a
280.2305	0.12	560461	keystroke	a	n/a
280.3655	0.0745	560731	keystroke	i	n/a
280.47	0.106	560940	keystroke	s	n/a
280.725	0.136	561450	keystroke	y	n/a
280.8455	0.1345	561691	keystroke	Key.space	n/a
280.965	0.075	561930	keystroke	r	n/a
281.1	0.0905	562200	keystroke	e	n/a
281.3545	0.1055	562709	keystroke	u	n/a
281.5205	0.105	563041	keystroke	t	n/a
281.9105	0.12	563821	keystroke	r	n/a
282.555	0.03	565110	keystroke	Key.backspace	n/a
282.631	0.1195	565262	keystroke	e	n/a
282.766	0.1045	565532	keystroke	r	n/a
282.9305	0.119	565861	keystroke	s	n/a
283.0195	0.105	566039	keystroke	Key.space	n/a
283.3955	0.09	566791	keystroke	b	n/a
283.755	0.1055	567510	keystroke	e	n/a
284.4305	0.1055	568861	keystroke	v	n/a
284.505	0.1205	569010	keystroke	e	n/a
284.655	0.12	569310	keystroke	r	n/a
284.85	0.1205	569700	keystroke	a	n/a
284.9405	0.105	569881	keystroke	g	n/a
285.0605	0.0745	570121	keystroke	e	n/a
285.21	0.0905	570420	keystroke	s	n/a
285.315	0.105	570630	keystroke	Key.enter	n/a
285.4275	5.9795	570855	prompt	n/a	reads income guestbook saved\n
286.4855	0.15	572971	keystroke	r	n/a
286.651	0.1345	573302	keystroke	e	n/a
286.8455	0.105	573691	keystroke	a	n/a
287.0105	0.12	574021	keystroke	d	n/a
287.1755	0.12	574351	keystroke	s	n/a
287.2805	0.12	574561	keystroke	Key.space	n/a
287.3855	0.0605	574771	keystroke	i	n/a
287.6405	0.165	575281	keystroke	n	n/a
287.8205	0.1205	575641	keystroke	c	n/a
287.9255	0.105	575851	keystroke	o	n/a
288.1055	0.165	576211	keystroke	m	n/a
288.2255	0.105	576451	keystroke	e	n/a
288.3605	0.09	576721	keystroke	Key.space	n/a
288.5705	0.09	577141	keystroke	g	n/a
288.6755	0.225	577351	keystroke	u	n/a
288.7805	0.075	577561	keystroke	e	n/a
288.9455	0.06	577891	keystroke	s	n/a
289.1255	0.1045	578251	keystroke	t	n/a
289.201	0.1195	578402	keystroke	b	n/a
289.4855	0.1055	578971	keystroke	o	n/a
289.62	0.1355	579240	keystroke	o	n/a
290.146	0.1195	580292	keystroke	k	n/a
290.3705	0.105	580741	keystroke	Key.space	n/a
290.6255	0.135	581251	keystroke	s	n/a
290.85	0.106	581700	keystroke	a	n/a
290.895	0.105	581790	keystroke	v	n/a
291.016	0.105	582032	keystroke	e	n/a
291.2255	0.1045	582451	keystroke	d	n/a
291.3	0.1055	582600	keystroke	Key.enter	n/a
291.418	8.359	582836	prompt	n/a	senate porcelain graduated terrorist\n
292.156	0.089	584312	keystroke	s	n/a
292.306	0.089	584612	keystroke	e	n/a
292.38	0.1205	584760	keystroke	n	n/a
292.53	0.076	585060	keystroke	a	n/a
292.7555	0.0595	585511	keystroke	t	n/a
292.8755	0.1195	585751	keystroke	e	n/a
292.98	0.105	585960	keystroke	Key.space	n/a
293.101	0.149	586202	keystroke	p	n/a
293.2355	0.1205	586471	keystroke	r	n/a
293.3405	0.105	586681	keystroke	o	n/a
293.76	0.0755	587520	keystroke	Key.backspace	n/a
293.91	0.0605	587820	keystroke	Key.backspace	n/a
294.031	0.1495	588062	keystroke	o	n/a
294.1055	0.12	588211	keystroke	r	n/a
294.3905	0.06	588781	keystroke	c	n/a
294.8855	0.12	589771	keystroke	e	n/a
295.1855	0.09	590371	keystroke	l	n/a
295.4105	0.105	590821	keystroke	a	n/a
295.5005	0.0755	591001	keystroke	i	n/a
295.6355	0.135	591271	keystroke	n	n/a
295.8005	0.105	591601	keystroke	Key.space	n/a
296.206	0.09	592412	keystroke	g	n/a
296.34	0.106	592680	keystroke	r	n/a
296.5505	0.0745	593101	keystroke	a	n/a
296.6705	0.09	593341	keystroke	d	n/a
296.775	0.1355	593550	keystroke	u	n/a
296.9255	0.06	593851	keystroke	a	n/a
297.1355	0.045	594271	keystroke	t	n/a
297.256	0.1045	594512	keystroke	e	n/a
297.496	0.1045	594992	keystroke	d	n/a
297.6755	0.12	595351	keystroke	Key.space	n/a
297.9755	0.09	595951	keystroke	t	n/a
298.1555	0.105	596311	keystroke	e	n/a
298.3055	0.1055	596611	keystroke	r	n/a
298.501	0.1345	597002	keystroke	r	n/a
298.591	0.1645	597182	keystroke	o	n/a
298.83	0.106	597660	keystroke	r	n/a
299.0255	0.12	598051	keystroke	i	n/a
299.356	0.1195	598712	keystroke	s	n/a
299.5805	0.075	599161	keystroke	t	n/a
299.6395	0.136	599279	keystroke	Key.enter	n/a
299.7815	5.621	599563	prompt	n/a	prominent chances starts crew\n
300.391	0.1045	600782	keystroke	p	n/a
300.4655	0.1205	600931	keystroke	r	n/a
300.5705	0.09	601141	keystroke	o	n/a
300.751	0.0895	601502	keystroke	m	n/a
300.961	0.1045	601922	keystroke	i	n/a
301.186	0.195	602372	keystroke	n	n/a
301.306	0.104	602612	keystroke	e	n/a
301.4405	0.195	602881	keystroke	n	n/a
301.575	0.1205	603150	keystroke	t	n/a
301.785	0.12	603570	keystroke	Key.space	n/a
302.085	0.09	604170	keystroke	c	n/a
302.16	0.105	604320	keystroke	h	n/a
302.326	0.075	604652	keystroke	a	n/a
302.3705	0.1645	604741	keystroke	n	n/a
302.5955	0.0745	605191	keystroke	c	n/a
302.806	0.104	605612	keystroke	e	n/a
302.985	0.136	605970	keystroke	s	n/a
303.105	0.0905	606210	keystroke	Key.space	n/a
303.421	0.0745	606842	keystroke	s	n/a
303.6005	0.105	607201	keystroke	t	n/a
303.8405	0.0905	607681	keystroke	a	n/a
304.0205	0.09	608041	keystroke	r	n/a
304.186	0.09	608372	keystroke	t	n/a
304.3805	0.105	608761	keystroke	s	n/a
304.47	0.1355	608940	keystroke	Key.space	n/a
304.606	0.074	609212	keystroke	c	n/a
304.8155	0.1345	609631	keystroke	r	n/a
304.98	0.1355	609960	keystroke	e	n/a
305.13	0.136	610260	keystroke	w	n/a
305.28	0.1205	610560	keystroke	Key.enter	n/a
305.406	6.101	610812	prompt	n/a	temperature soonest bind advisor\n
306.0305	0.075	612061	keystroke	t	n/a
306.1805	0.12	612361	keystroke	e	n/a
306.271	0.1045	612542	keystroke	m	n/a
306.646	0.134	613292	keystroke	p	n/a
306.81	0.106	613620	keystroke	e	n/a
306.961	0.1045	613922	keystroke	r	n/a
307.2005	0.09	614401	keystroke	a	n/a
307.3955	0.12	614791	keystroke	t	n/a
307.5005	0.1355	615001	keystroke	u	n/a
307.5755	0.075	615151	keystroke	r	n/a
307.7255	0.105	615451	keystroke	e	n/a
307.8605	0.09	615721	keystroke	Key.space	n/a
307.966	0.1045	615932	keystroke	s	n/a
308.0555	0.075	616111	keystroke	o	n/a
308.2205	0.0755	616441	keystroke	o	n/a
308.356	0.2095	616712	keystroke	n	n/a
308.476	0.1045	616952	keystroke	e	n/a
308.6555	0.0895	617311	keystroke	s	n/a
308.865	0.105	617730	keystroke	t	n/a
308.94	0.105	617880	keystroke	Key.space	n/a
309.03	0.091	618060	keystroke	b	n/a
309.255	0.1955	618510	keystroke	i	n/a
309.5555	0.2105	619111	keystroke	n	n/a
309.8255	0.1055	619651	keystroke	d	n/a
310.0355	0.09	620071	keystroke	Key.space	n/a
310.29	0.0755	620580	keystroke	a	n/a
310.4555	0.0605	620911	keystroke	d	n/a
310.6655	0.075	621331	keystroke	v	n/a
310.7555	0.18	621511	keystroke	i	n/a
310.9505	0.0895	621901	keystroke	s	n/a
311.086	0.1795	622172	keystroke	o	n/a
311.2205	0.075	622441	keystroke	r	n/a
311.4305	0.075	622861	keystroke	Key.enter	n/a
311.5145	5.108	623029	prompt	n/a	wanna who'd stud princess\n
312.1805	0.12	624361	keystroke	w	n/a
312.3755	0.1055	624751	keystroke	a	n/a
312.436	0.104	624872	keystroke	n	n/a
312.601	0.104	625202	keystroke	n	n/a
312.676	0.09	625352	keystroke	a	n/a
312.81	0.09	625620	keystroke	Key.space	n/a
312.931	0.105	625862	keystroke	w	n/a
312.991	0.09	625982	keystroke	h	n/a
313.14	0.105	626280	keystroke	o	n/a
313.77	0.1055	627540	keystroke	'	n/a
313.8605	0.1045	627721	keystroke	d	n/a
313.9955	0.1195	627991	keystroke	Key.space	n/a
314.625	0.12	629250	keystroke	s	n/a
314.8505	0.105	629701	keystroke	t	n/a
314.9255	0.105	629851	keystroke	u	n/a
315.1205	0.0905	630241	keystroke	d	n/a
315.2255	0.075	630451	keystroke	Key.space	n/a
315.4055	0.105	630811	keystroke	p	n/a
315.5115	0.1045	631023	keystroke	r	n/a
315.6305	0.0455	631261	keystroke	i	n/a
315.7655	0.135	631531	keystroke	n	n/a
315.8705	0.075	631741	keystroke	c	n/a
316.0655	0.105	632131	keystroke	e	n/a
316.2605	0.09	632521	keystroke	s	n/a
316.4255	0.1045	632851	keystroke	s	n/a
316.5155	0.105	633031	keystroke	Key.enter	n/a
316.6255	7.137	633251	prompt	n/a	intensive fibre underground cornwall\n
317.2955	0.075	634591	keystroke	i	n/a
317.4455	0.165	634891	keystroke	n	n/a
317.551	0.089	635102	keystroke	t	n/a
317.731	0.12	635462	keystroke	e	n/a
317.88	0.09	635760	keystroke	n	n/a
318.0905	0.075	636181	keystroke	s	n/a
318.1955	0.135	636391	keystroke	i	n/a
318.3455	0.09	636691	keystroke	v	n/a
318.54	0.105	637080	keystroke	e	n/a
318.6305	0.1045	637261	keystroke	Key.space	n/a
318.7655	0.1195	637531	keystroke	f	n/a
318.87	0.105	637740	keystroke	i	n/a
319.0355	0.165	638071	keystroke	b	n/a
319.186	0.0895	638372	keystroke	r	n/a
319.3055	0.1345	638611	keystroke	e	n/a
319.455	0.09	638910	keystroke	Key.space	n/a
319.921	0.0745	639842	keystroke	u	n/a
320.1455	0.135	640291	keystroke	n	n/a
320.236	0.0745	640472	keystroke	d	n/a
320.401	0.1195	640802	keystroke	e	n/a
320.5655	0.1055	641131	keystroke	r	n/a
320.79	0.09	641580	keystroke	g	n/a
321.0455	0.075	642091	keystroke	r	n/a
321.3755	0.12	642751	keystroke	o	n/a
321.526	0.1045	643052	keystroke	u	n/a
321.7355	0.12	643471	keystroke	n	n/a
321.7955	0.1055	643591	keystroke	d	n/a
322.035	0.09	644070	keystroke	Key.space	n/a
322.501	0.0895	645002	keystroke	c	n/a
322.635	0.1055	645270	keystroke	o	n/a
322.7705	0.105	645541	keystroke	r	n/a
322.8605	0.1195	645721	keystroke	n	n/a
323.0555	0.105	646111	keystroke	w	n/a
323.2805	0.09	646561	keystroke	a	n/a
323.3255	0.075	646651	keystroke	l	n/a
323.5055	0.06	647011	keystroke	l	n/a
323.6705	0.0895	647341	keystroke	Key.enter	n/a
323.7675	6.715	647535	prompt	n/a	ferry bored preparation orientation\n
324.3755	0.09	648751	keystroke	t	n/a
324.7355	0.075	649471	keystroke	Key.backspace	n/a
324.825	0.076	649650	keystroke	f	n/a
324.975	0.091	649950	keystroke	e	n/a
325.081	0.074	650162	keystroke	r	n/a
325.215	0.121	650430	keystroke	r	n/a
325.365	0.076	650730	keystroke	y	n/a
325.6205	0.09	651241	keystroke	Key.space	n/a
325.815	0.105	651630	keystroke	b	n/a
326.04	0.0605	652080	keystroke	o	n/a
326.1155	0.09	652231	keystroke	r	n/a
326.2505	0.105	652501	keystroke	e	n/a
326.4305	0.12	652861	keystroke	d	n/a
326.5055	0.09	653011	keystroke	Key.space	n/a
326.6705	0.105	653341	keystroke	p	n/a
326.7455	0.1055	653491	keystroke	r	n/a
326.8655	0.12	653731	keystroke	e	n/a
327.3005	0.075	654601	keystroke	p	n/a
327.4505	0.075	654901	keystroke	a	n/a
327.6455	0.105	655291	keystroke	r	n/a
327.8705	0.075	655741	keystroke	a	n/a
328.051	0.105	656102	keystroke	t	n/a
328.096	0.1645	656192	keystroke	i	n/a
328.186	0.1035	656372	keystroke	o	n/a
328.3805	0.09	656761	keystroke	n	n/a
328.4715	0.089	656943	keystroke	Key.space	n/a
328.5755	0.1045	657151	keystroke	o	n/a
328.695	0.106	657390	keystroke	r	n/a
328.8755	0.165	657751	keystroke	i	n/a
329.0255	0.135	658051	keystroke	e	n/a
329.176	0.2245	658352	keystroke	n	n/a
329.2955	0.09	658591	keystroke	t	n/a
329.536	0.0445	659072	keystroke	a	n/a
329.7305	0.1045	659461	keystroke	t	n/a
329.836	0.2095	659672	keystroke	i	n/a
329.9105	0.15	659821	keystroke	o	n/a
330.1655	0.1205	660331	keystroke	n	n/a
330.3905	0.0905	660781	keystroke	Key.enter	n/a
330.487	4.525	660974	prompt	n/a	matt suddenly hence filing\n
331.1105	0.12	662221	keystroke	m	n/a
331.2605	0.09	662521	keystroke	a	n/a
331.4705	0.045	662941	keystroke	t	n/a
331.6205	0.075	663241	keystroke	t	n/a
331.7255	0.075	663451	keystroke	Key.space	n/a
331.8455	0.105	663691	keystroke	s	n/a
331.9055	0.09	663811	keystroke	u	n/a
332.0705	0.105	664141	keystroke	d	n/a
332.2355	0.1195	664471	keystroke	d	n/a
332.4455	0.1205	664891	keystroke	e	n/a
332.5055	0.09	665011	keystroke	n	n/a
332.685	0.09	665370	keystroke	l	n/a
332.8805	0.0895	665761	keystroke	y	n/a
332.985	0.105	665970	keystroke	Key.space	n/a
333.33	0.105	666660	keystroke	h	n/a
333.4205	0.12	666841	keystroke	e	n/a
333.541	0.1345	667082	keystroke	n	n/a
333.735	0.12	667470	keystroke	c	n/a
333.9755	0.1195	667951	keystroke	e	n/a
334.065	0.0905	668130	keystroke	Key.space	n/a
334.1705	0.0905	668341	keystroke	f	n/a
334.2455	0.0895	668491	keystroke	i	n/a
334.4255	0.075	668851	keystroke	l	n/a
334.5905	0.06	669181	keystroke	i	n/a
334.7405	0.0905	669481	keystroke	n	n/a
334.785	0.09	669570	keystroke	g	n/a
334.9205	0.09	669841	keystroke	Key.enter	n/a
335.018	5.094	670036	prompt	n/a	lodging however clone comply\n
335.9405	0.105	671881	keystroke	l	n/a
336.1355	0.1195	672271	keystroke	o	n/a
336.4055	0.1045	672811	keystroke	d	n/a
336.6155	0.0895	673231	keystroke	g	n/a
336.6755	0.076	673351	keystroke	i	n/a
336.8405	0.105	673681	keystroke	n	n/a
336.9005	0.1045	673801	keystroke	g	n/a
337.05	0.105	674100	keystroke	Key.space	n/a
337.17	0.09	674340	keystroke	h	n/a
337.3205	0.1045	674641	keystroke	o	n/a
337.44	0.076	674880	keystroke	w	n/a
337.59	0.0905	675180	keystroke	e	n/a
337.71	0.12	675420	keystroke	v	n/a
337.801	0.104	675602	keystroke	e	n/a
337.935	0.105	675870	keystroke	r	n/a
338.0855	0.075	676171	keystroke	Key.space	n/a
338.46	0.105	676920	keystroke	c	n/a
338.581	0.104	677162	keystroke	l	n/a
338.76	0.0755	677520	keystroke	o	n/a
338.9405	0.105	677881	keystroke	n	n/a
339.031	0.1045	678062	keystroke	e	n/a
339.1355	0.09	678271	keystroke	Key.space	n/a
339.2405	0.12	678481	keystroke	c	n/a
339.315	0.061	678630	keystroke	o	n/a
339.465	0.0755	678930	keystroke	m	n/a
339.645	0.0605	679290	keystroke	p	n/a
339.796	0.0895	679592	keystroke	l	n/a
339.8705	0.09	679741	keystroke	y	n/a
340.005	0.1055	680010	keystroke	Key.enter	n/a
340.006	0.014	680012	keystroke	p	n/a
340.115	6.0275	680230	prompt	n/a	spent technologies looksmart oral\n
341.101	0.12	682202	keystroke	s	n/a
341.2055	0.1045	682411	keystroke	p	n/a
341.325	0.135	682650	keystroke	e	n/a
341.43	0.166	682860	keystroke	n	n/a
341.61	0.106	683220	keystroke	t	n/a
341.7305	0.075	683461	keystroke	Key.space	n/a
341.851	0.0895	683702	keystroke	t	n/a
342.0305	0.0905	684061	keystroke	e	n/a
342.2405	0.09	684481	keystroke	c	n/a
342.2705	0.0895	684541	keystroke	h	n/a
342.4205	0.09	684841	keystroke	n	n/a
342.5705	0.0905	685141	keystroke	o	n/a
342.7655	0.075	685531	keystroke	l	n/a
342.901	0.1045	685802	keystroke	o	n/a
342.9605	0.09	685921	keystroke	g	n/a
343.0955	0.12	686191	keystroke	i	n/a
343.1855	0.09	686371	keystroke	e	n/a
343.3655	0.12	686731	keystroke	s	n/a
343.4705	0.09	686941	keystroke	Key.space	n/a
343.815	0.0755	687630	keystroke	l	n/a
343.9955	0.075	687991	keystroke	o	n/a
344.161	0.089	688322	keystroke	o	n/a
344.266	0.1345	688532	keystroke	k	n/a
344.3855	0.105	688771	keystroke	s	n/a
344.8205	0.12	689641	keystroke	m	n/a
344.9555	0.06	689911	keystroke	a	n/a
345.135	0.061	690270	keystroke	r	n/a
345.286	0.0895	690572	keystroke	t	n/a
345.346	0.119	690692	keystroke	Key.space	n/a
345.495	0.105	690990	keystroke	o	n/a
345.5705	0.09	691141	keystroke	r	n/a
345.795	0.09	691590	keystroke	a	n/a
345.84	0.1205	691680	keystroke	l	n/a
346.0205	0.12	692041	keystroke	Key.enter	n/a
346.146	5.6215	692292	prompt	n/a	uganda chosen coat purposes\n
346.9505	0.105	693901	keystroke	u	n/a
347.1305	0.105	694261	keystroke	g	n/a
347.371	0.105	694742	keystroke	a	n/a
347.4605	0.1205	694921	keystroke	n	n/a
347.625	0.1205	695250	keystroke	d	n/a
347.895	0.0905	695790	keystroke	a	n/a
348.045	0.1055	696090	keystroke	Key.space	n/a
348.4965	0.134	696993	keystroke	c	n/a
348.5555	0.09	697111	keystroke	h	n/a
348.7205	0.06	697441	keystroke	o	n/a
348.7955	0.075	697591	keystroke	s	n/a
348.9455	0.106	697891	keystroke	e	n/a
349.0205	0.12	698041	keystroke	n	n/a
349.2455	0.075	698491	keystroke	Key.space	n/a
349.6505	0.1205	699301	keystroke	c	n/a
349.741	0.089	699482	keystroke	o	n/a
349.921	0.029	699842	keystroke	a	n/a
350.071	0.0895	700142	keystroke	t	n/a
350.145	0.09	700290	keystroke	Key.space	n/a
350.4905	0.1045	700981	keystroke	p	n/a
350.655	0.1205	701310	keystroke	u	n/a
350.73	0.121	701460	keystroke	r	n/a
350.8655	0.1955	701731	keystroke	p	n/a
351.001	0.15	702002	keystroke	o	n/a
351.12	0.06	702240	keystroke	s	n/a
351.271	0.074	702542	keystroke	e	n/a
351.466	0.0745	702932	keystroke	s	n/a
351.69	0.0755	703380	keystroke	Key.enter	n/a
351.772	6.161	703544	prompt	n/a	isolated classics modeling showcase\n
352.6355	0.09	705271	keystroke	i	n/a
352.8005	0.09	705601	keystroke	s	n/a
352.9055	0.105	705811	keystroke	o	n/a
353.1005	0.105	706201	keystroke	l	n/a
353.2205	0.06	706441	keystroke	a	n/a
353.4005	0.09	706801	keystroke	t	n/a
353.5505	0.12	707101	keystroke	e	n/a
353.7455	0.105	707491	keystroke	d	n/a
353.8355	0.09	707671	keystroke	Key.space	n/a
353.9855	0.075	707971	keystroke	c	n/a
354.0755	0.0905	708151	keystroke	l	n/a
354.181	0.0745	708362	keystroke	a	n/a
354.3155	0.075	708631	keystroke	s	n/a
354.466	0.12	708932	keystroke	s	n/a
354.5705	0.1205	709141	keystroke	i	n/a
354.691	0.074	709382	keystroke	c	n/a
354.8855	0.0905	709771	keystroke	s	n/a
354.96	0.09	709920	keystroke	Key.space	n/a
355.126	0.059	710252	keystroke	m	n/a
355.2605	0.0895	710521	keystroke	o	n/a
355.336	0.089	710672	keystroke	d	n/a
355.515	0.106	711030	keystroke	e	n/a
355.605	0.076	711210	keystroke	l	n/a
355.755	0.075	711510	keystroke	i	n/a
355.936	0.1045	711872	keystroke	n	n/a
355.9955	0.12	711991	keystroke	g	n/a
356.1455	0.12	712291	keystroke	Key.space	n/a
356.3105	0.0745	712621	keystroke	s	n/a
356.37	0.091	712740	keystroke	h	n/a
356.58	0.091	713160	keystroke	o	n/a
356.701	0.104	713402	keystroke	w	n/a
357.241	0.0745	714482	keystroke	c	n/a
357.45	0.0905	714900	keystroke	a	n/a
357.555	0.105	715110	keystroke	s	n/a
357.72	0.1205	715440	keystroke	e	n/a
357.8555	0.075	715711	keystroke	Key.enter	n/a
357.9375	6.37	715875	prompt	n/a	dispatch infected restriction tubes\n
358.785	0.106	717570	keystroke	d	n/a
358.905	0.0895	717810	keystroke	i	n/a
359.0405	0.0755	718081	keystroke	s	n/a
359.595	0.0755	719190	keystroke	p	n/a
359.671	0.0595	719342	keystroke	a	n/a
359.881	0.074	719762	keystroke	t	n/a
360.076	0.12	720152	keystroke	c	n/a
360.1205	0.1645	720241	keystroke	h	n/a
360.3	0.0605	720600	keystroke	Key.space	n/a
360.361	0.0745	720722	keystroke	i	n/a
360.5255	0.105	721051	keystroke	n	n/a
360.6155	0.09	721231	keystroke	f	n/a
360.7655	0.0905	721531	keystroke	e	n/a
360.961	0.074	721922	keystroke	c	n/a
361.185	0.075	722370	keystroke	t	n/a
361.305	0.1205	722610	keystroke	e	n/a
361.4555	0.12	722911	keystroke	d	n/a
361.5605	0.105	723121	keystroke	Key.space	n/a
361.695	0.1205	723390	keystroke	r	n/a
361.8305	0.1345	723661	keystroke	e	n/a
362.0405	0.0895	724081	keystroke	s	n/a
362.2355	0.1045	724471	keystroke	t	n/a
362.385	0.1205	724770	keystroke	r	n/a
362.73	0.106	725460	keystroke	i	n/a
362.805	0.075	725610	keystroke	c	n/a
363.0305	0.075	726061	keystroke	t	n/a
363.1355	0.21	726271	keystroke	i	n/a
363.256	0.1045	726512	keystroke	o	n/a
363.4655	0.075	726931	keystroke	n	n/a
363.555	0.0755	727110	keystroke	Key.space	n/a
363.6145	0.1065	727229	keystroke	t	n/a
363.705	0.091	727410	keystroke	u	n/a
363.8255	0.15	727651	keystroke	b	n/a
363.9155	0.075	727831	keystroke	e	n/a
364.081	0.1195	728162	keystroke	s	n/a
364.185	0.12	728370	keystroke	Key.enter	n/a
364.3115	5.9665	728623	prompt	n/a	grow tribe reached ranked\n
365.2655	0.0605	730531	keystroke	g	n/a
365.3555	0.1195	730711	keystroke	r	n/a
365.46	0.12	730920	keystroke	o	n/a
365.595	0.0755	731190	keystroke	w	n/a
365.7005	0.105	731401	keystroke	Key.space	n/a
365.8205	0.0905	731641	keystroke	t	n/a
365.971	0.12	731942	keystroke	r	n/a
366.1055	0.06	732211	keystroke	i	n/a
366.2855	0.165	732571	keystroke	b	n/a
366.405	0.1055	732810	keystroke	e	n/a
366.5995	0.106	733199	keystroke	Key.space	n/a
367.3355	0.045	734671	keystroke	t	n/a
367.3955	0.015	734791	keystroke	r	n/a
367.8905	0.06	735781	keystroke	Key.backspace	n/a
368.0105	0.075	736021	keystroke	Key.backspace	n/a
368.0405	0.105	736081	keystroke	r	n/a
368.1755	0.105	736351	keystroke	e	n/a
368.3555	0.0745	736711	keystroke	a	n/a
368.505	0.12	737010	keystroke	c	n/a
368.595	0.1355	737190	keystroke	h	n/a
368.7605	0.1045	737521	keystroke	e	n/a
368.9405	0.1045	737881	keystroke	d	n/a
369.0605	0.119	738121	keystroke	Key.space	n/a
369.195	0.1055	738390	keystroke	r	n/a
369.42	0.105	738840	keystroke	a	n/a
369.48	0.121	738960	keystroke	n	n/a
369.69	0.241	739380	keystroke	k	n/a
369.8855	0.12	739771	keystroke	e	n/a
370.0805	0.135	740161	keystroke	d	n/a
370.1855	0.09	740371	keystroke	Key.enter	n/a
370.2825	5.53	740565	prompt	n/a	uploaded diary epinions chassis\n
370.9655	0.075	741931	keystroke	u	n/a
371.1005	0.0905	742201	keystroke	p	n/a
371.2955	0.09	742591	keystroke	l	n/a
371.46	0.1205	742920	keystroke	o	n/a
371.5655	0.075	743131	keystroke	a	n/a
371.715	0.076	743430	keystroke	d	n/a
371.896	0.1045	743792	keystroke	e	n/a
372.1055	0.12	744211	keystroke	d	n/a
372.21	0.12	744420	keystroke	Key.space	n/a
372.345	0.076	744690	keystroke	d	n/a
372.4805	0.12	744961	keystroke	i	n/a
372.6755	0.075	745351	keystroke	a	n/a
372.8555	0.1195	745711	keystroke	r	n/a
372.9605	0.0895	745921	keystroke	y	n/a
373.0805	0.1045	746161	keystroke	Key.space	n/a
373.3505	0.1195	746701	keystroke	e	n/a
373.605	0.105	747210	keystroke	p	n/a
373.77	0.091	747540	keystroke	i	n/a
373.98	0.06	747960	keystroke	n	n/a
374.16	0.1655	748320	keystroke	i	n/a
374.2505	0.105	748501	keystroke	o	n/a
374.4155	0.12	748831	keystroke	n	n/a
374.5055	0.105	749011	keystroke	s	n/a
374.6255	0.12	749251	keystroke	Key.space	n/a
374.7305	0.105	749461	keystroke	c	n/a
374.8505	0.1045	749701	keystroke	h	n/a
374.971	0.089	749942	keystroke	a	n/a
375.075	0.09	750150	keystroke	s	n/a
375.2555	0.135	750511	keystroke	s	n/a
375.3755	0.09	750751	keystroke	i	n/a
375.5705	0.075	751141	keystroke	s	n/a
375.7205	0.09	751441	keystroke	Key.enter	n/a
375.8215	7.0405	751643	prompt	n/a	blog maldives budgets quarterly\n
376.4555	0.09	752911	keystroke	b	n/a
376.6805	0.03	753361	keystroke	l	n/a
376.935	0.1205	753870	keystroke	o	n/a
377.07	0.075	754140	keystroke	g	n/a
377.2505	0.0745	754501	keystroke	Key.space	n/a
377.611	0.104	755222	keystroke	m	n/a
377.7455	0.09	755491	keystroke	a	n/a
378.0005	0.1955	756001	keystroke	l	n/a
378.301	0.119	756602	keystroke	d	n/a
378.4355	0.21	756871	keystroke	i	n/a
378.5855	0.0905	757171	keystroke	v	n/a
378.8105	0.09	757621	keystroke	e	n/a
378.991	0.1045	757982	keystroke	s	n/a
379.14	0.165	758280	keystroke	Key.space	n/a
379.3355	0.1205	758671	keystroke	b	n/a
379.515	0.1055	759030	keystroke	u	n/a
379.605	0.12	759210	keystroke	d	n/a
379.801	0.104	759602	keystroke	g	n/a
379.92	0.105	759840	keystroke	e	n/a
380.145	0.09	760290	keystroke	t	n/a
380.3405	0.1045	760681	keystroke	s	n/a
380.46	0.09	760920	keystroke	Key.space	n/a
380.82	0.105	761640	keystroke	q	n/a
380.895	0.135	761790	keystroke	u	n/a
381.015	0.0605	762030	keystroke	e	n/a
381.36	0.0905	762720	keystroke	Key.backspace	n/a
381.465	0.06	762930	keystroke	a	n/a
381.6755	0.1045	763351	keystroke	r	n/a
381.87	0.075	763740	keystroke	t	n/a
382.231	0.089	764462	keystroke	e	n/a
382.3955	0.1055	764791	keystroke	r	n/a
382.47	0.1205	764940	keystroke	l	n/a
382.636	0.09	765272	keystroke	y	n/a
382.785	0.0755	765570	keystroke	Key.enter	n/a
382.867	7.93	765734	prompt	n/a	seemed tremendous participants belgium\n
383.6405	0.105	767281	keystroke	s	n/a
383.791	0.1195	767582	keystroke	e	n/a
383.9705	0.135	767941	keystroke	e	n/a
384.0755	0.135	768151	keystroke	m	n/a
384.226	0.0895	768452	keystroke	e	n/a
384.406	0.1045	768812	keystroke	d	n/a
384.511	0.1495	769022	keystroke	Key.space	n/a
384.736	0.0895	769472	keystroke	t	n/a
385.0055	0.105	770011	keystroke	r	n/a
385.1555	0.1045	770311	keystroke	e	n/a
385.2905	0.105	770581	keystroke	m	n/a
385.381	0.0895	770762	keystroke	e	n/a
385.7555	0.075	771511	keystroke	n	n/a
386.2205	0.0905	772441	keystroke	d	n/a
386.3555	0.135	772711	keystroke	o	n/a
386.476	0.1045	772952	keystroke	u	n/a
386.6405	0.0755	773281	keystroke	s	n/a
386.7455	0.1045	773491	keystroke	Key.space	n/a
386.925	0.0905	773850	keystroke	p	n/a
387.195	0.0905	774390	keystroke	a	n/a
387.3605	0.09	774721	keystroke	r	n/a
387.5555	0.06	775111	keystroke	t	n/a
387.9905	0.12	775981	keystroke	i	n/a
388.2165	0.104	776433	keystroke	c	n/a
388.3655	0.105	776731	keystroke	i	n/a
388.5305	0.075	777061	keystroke	p	n/a
388.7105	0.09	777421	keystroke	a	n/a
388.8305	0.135	777661	keystroke	n	n/a
388.95	0.075	777900	keystroke	t	n/a
389.1605	0.09	778321	keystroke	s	n/a
389.2355	0.089	778471	keystroke	Key.space	n/a
389.3405	0.12	778681	keystroke	b	n/a
389.5055	0.09	779011	keystroke	e	n/a
389.6405	0.106	779281	keystroke	l	n/a
389.925	0.0605	779850	keystroke	g	n/a
390.1655	0.105	780331	keystroke	i	n/a
390.3145	0.0905	780629	keystroke	u	n/a
390.54	0.0905	781080	keystroke	m	n/a
390.735	0.06	781470	keystroke	Key.enter	n/a
390.802	4.3	781604	prompt	n/a	chase bath slovak surrey\n
391.53	0.105	783060	keystroke	c	n/a
391.6205	0.1195	783241	keystroke	h	n/a
391.725	0.106	783450	keystroke	a	n/a
391.846	0.089	783692	keystroke	s	n/a
392.0105	0.1045	784021	keystroke	e	n/a
392.1005	0.0895	784201	keystroke	Key.space	n/a
392.205	0.151	784410	keystroke	b	n/a
392.266	0.104	784532	keystroke	a	n/a
392.5055	0.1195	785011	keystroke	t	n/a
392.565	0.181	785130	keystroke	h	n/a
392.79	0.075	785580	keystroke	Key.space	n/a
393.0005	0.165	786001	keystroke	s	n/a
393.1355	0.09	786271	keystroke	l	n/a
393.3155	0.09	786631	keystroke	o	n/a
393.391	0.0445	786782	keystroke	v	n/a
393.6455	0.075	787291	keystroke	a	n/a
393.736	0.1045	787472	keystroke	k	n/a
393.9155	0.15	787831	keystroke	Key.space	n/a
394.111	0.1045	788222	keystroke	s	n/a
394.2005	0.135	788401	keystroke	u	n/a
394.291	0.104	788582	keystroke	r	n/a
394.4555	0.105	788911	keystroke	r	n/a
394.7105	0.105	789421	keystroke	e	n/a
394.8005	0.09	789601	keystroke	y	n/a
395.025	0.0755	790050	keystroke	Key.enter	n/a
395.106	5.411	790212	prompt	n/a	scheme content cabinet isbn\n
395.7305	0.12	791461	keystroke	s	n/a
396.0755	0.089	792151	keystroke	c	n/a
396.2705	0.1055	792541	keystroke	h	n/a
396.42	0.1205	792840	keystroke	e	n/a
396.541	0.104	793082	keystroke	m	n/a
396.66	0.091	793320	keystroke	e	n/a
396.915	0.1055	793830	keystroke	Key.space	n/a
397.0805	0.12	794161	keystroke	c	n/a
397.1855	0.075	794371	keystroke	o	n/a
397.3205	0.135	794641	keystroke	n	n/a
397.4405	0.09	794881	keystroke	t	n/a
397.6505	0.1355	795301	keystroke	e	n/a
397.7705	0.12	795541	keystroke	n	n/a
397.9055	0.075	795811	keystroke	t	n/a
398.0255	0.105	796051	keystroke	Key.space	n/a
398.2655	0.075	796531	keystroke	c	n/a
398.46	0.075	796920	keystroke	a	n/a
398.536	0.089	797072	keystroke	b	n/a
398.9555	0.0605	797911	keystroke	i	n/a
399.0755	0.1355	798151	keystroke	n	n/a
399.1655	0.09	798331	keystroke	e	n/a
399.3605	0.09	798721	keystroke	t	n/a
399.4655	0.105	798931	keystroke	Key.space	n/a
399.6155	0.105	799231	keystroke	i	n/a
399.7055	0.135	799411	keystroke	s	n/a
399.8705	0.105	799741	keystroke	b	n/a
400.23	0.075	800460	keystroke	n	n/a
400.4255	0.09	800851	keystroke	Key.enter	n/a
400.522	9.5505	801044	prompt	n/a	flowers tissue monday arranged\n
401.191	0.1195	802382	keystroke	f	n/a
401.311	0.1185	802622	keystroke	l	n/a
401.5055	0.15	803011	keystroke	o	n/a
401.5655	0.1055	803131	keystroke	w	n/a
401.7455	0.1645	803491	keystroke	r	n/a
402.0455	0.105	804091	keystroke	s	n/a
402.165	0.1055	804330	keystroke	Key.space	n/a
402.7355	0.0595	805471	keystroke	Key.backspace	n/a
402.885	0.06	805770	keystroke	Key.backspace	n/a
403.02	0.06	806040	keystroke	Key.backspace	n/a
403.3505	0.0595	806701	keystroke	e	n/a
403.5	0.09	807000	keystroke	r	n/a
403.7255	0.12	807451	keystroke	s	n/a
403.8455	0.135	807691	keystroke	Key.space	n/a
404.1005	0.135	808201	keystroke	i	n/a
404.4905	0.045	808981	keystroke	=	n/a
404.5505	0.105	809101	keystroke	t	n/a
404.7155	0.1045	809431	keystroke	Key.backspace	n/a
404.91	0.075	809820	keystroke	Key.backspace	n/a
405.075	0.076	810150	keystroke	Key.backspace	n/a
405.211	0.1195	810422	keystroke	t	n/a
405.3155	0.135	810631	keystroke	i	n/a
405.5255	0.09	811051	keystroke	s	n/a
405.7055	0.105	811411	keystroke	s	n/a
405.7355	0.1355	811471	keystroke	u	n/a
405.9605	0.074	811921	keystroke	e	n/a
406.0205	0.104	812041	keystroke	Key.space	n/a
406.336	0.074	812672	keystroke	m	n/a
406.5	0.061	813000	keystroke	o	n/a
406.65	0.135	813300	keystroke	n	n/a
406.74	0.075	813480	keystroke	d	n/a
406.95	0.0305	813900	keystroke	a	n/a
407.145	0.1055	814290	keystroke	t	n/a
407.2655	0.12	814531	keystroke	Key.space	n/a
407.445	0.06	814890	keystroke	a	n/a
407.85	0.045	815700	keystroke	Key.backspace	n/a
407.97	0.0755	815940	keystroke	Key.backspace	n/a
408.15	0.0605	816300	keystroke	Key.backspace	n/a
408.4055	0.12	816811	keystroke	y	n/a
408.5705	0.15	817141	keystroke	Key.space	n/a
408.691	0.0745	817382	keystroke	a	n/a
408.8555	0.075	817711	keystroke	r	n/a
409.0205	0.09	818041	keystroke	r	n/a
409.2455	0.12	818491	keystroke	a	n/a
409.3505	0.09	818701	keystroke	n	n/a
409.4855	0.0895	818971	keystroke	g	n/a
409.6645	0.091	819329	keystroke	e	n/a
409.8755	0.12	819751	keystroke	d	n/a
409.965	0.105	819930	keystroke	Key.enter	n/a
410.077	6.91	820154	prompt	n/a	forms prescription spaces commander\n
410.97	0.105	821940	keystroke	f	n/a
411.0905	0.09	822181	keystroke	o	n/a
411.24	0.0605	822480	keystroke	r	n/a
411.315	0.105	822630	keystroke	m	n/a
411.48	0.12	822960	keystroke	s	n/a
411.615	0.0755	823230	keystroke	Key.space	n/a
411.705	0.1355	823410	keystroke	p	n/a
411.8105	0.0905	823621	keystroke	r	n/a
411.9305	0.1055	823861	keystroke	e	n/a
412.1555	0.1045	824311	keystroke	s	n/a
412.56	0.075	825120	keystroke	c	n/a
412.785	0.1205	825570	keystroke	r	n/a
413.01	0.12	826020	keystroke	i	n/a
413.715	0.135	827430	keystroke	p	n/a
413.865	0.1355	827730	keystroke	t	n/a
414.015	0.1955	828030	keystroke	i	n/a
414.12	0.1205	828240	keystroke	o	n/a
414.3305	0.1345	828661	keystroke	n	n/a
414.465	0.0905	828930	keystroke	Key.space	n/a
414.5705	0.1195	829141	keystroke	s	n/a
414.7055	0.075	829411	keystroke	p	n/a
414.9005	0.075	829801	keystroke	a	n/a
415.0505	0.105	830101	keystroke	c	n/a
415.2755	0.09	830551	keystroke	e	n/a
415.4255	0.1205	830851	keystroke	s	n/a
415.5005	0.1195	831001	keystroke	Key.space	n/a
415.636	0.104	831272	keystroke	c	n/a
415.71	0.0605	831420	keystroke	o	n/a
415.875	0.09	831750	keystroke	m	n/a
416.025	0.106	832050	keystroke	m	n/a
416.1005	0.1505	832201	keystroke	a	n/a
416.2955	0.1645	832591	keystroke	n	n/a
416.4	0.135	832800	keystroke	d	n/a
416.6105	0.09	833221	keystroke	e	n/a
416.745	0.136	833490	keystroke	r	n/a
416.925	0.06	833850	keystroke	Key.enter	n/a
416.991	7.0465	833982	prompt	n/a	requirements rescue strike females\n
417.69	0.1055	835380	keystroke	r	n/a
417.856	0.12	835712	keystroke	e	n/a
418.036	0.1195	836072	keystroke	q	n/a
418.1405	0.18	836281	keystroke	u	n/a
418.216	0.149	836432	keystroke	i	n/a
418.41	0.106	836820	keystroke	r	n/a
418.545	0.1355	837090	keystroke	e	n/a
418.6655	0.12	837331	keystroke	m	n/a
418.756	0.1195	837512	keystroke	e	n/a
418.8905	0.135	837781	keystroke	n	n/a
419.0715	0.089	838143	keystroke	t	n/a
419.551	0.029	839102	keystroke	s	n/a
419.6405	0.1505	839281	keystroke	Key.space	n/a
419.895	0.075	839790	keystroke	r	n/a
420.0605	0.09	840121	keystroke	e	n/a
420.2855	0.09	840571	keystroke	s	n/a
420.4505	0.105	840901	keystroke	c	n/a
420.5705	0.1355	841141	keystroke	u	n/a
420.706	0.12	841412	keystroke	e	n/a
420.8555	0.1195	841711	keystroke	Key.space	n/a
421.351	0.104	842702	keystroke	s	n/a
421.5605	0.09	843121	keystroke	t	n/a
421.6955	0.105	843391	keystroke	r	n/a
421.7705	0.24	843541	keystroke	i	n/a
422.1905	0.135	844381	keystroke	k	n/a
422.3105	0.0895	844621	keystroke	e	n/a
422.445	0.135	844890	keystroke	Key.space	n/a
422.551	0.044	845102	keystroke	s	n/a
422.9105	0.03	845821	keystroke	Key.backspace	n/a
422.9555	0.119	845911	keystroke	f	n/a
423.1055	0.12	846211	keystroke	e	n/a
423.1805	0.134	846361	keystroke	m	n/a
423.3605	0.09	846721	keystroke	a	n/a
423.4355	0.12	846871	keystroke	l	n/a
423.6755	0.074	847351	keystroke	e	n/a
423.8255	0.135	847651	keystroke	s	n/a
423.9455	0.0895	847891	keystroke	Key.enter	n/a
424.042	5.155	848084	prompt	n/a	realize anna dental homepage\n
424.801	0.1045	849602	keystroke	r	n/a
424.9505	0.1055	849901	keystroke	e	n/a
425.1155	0.12	850231	keystroke	a	n/a
425.1755	0.075	850351	keystroke	l	n/a
425.3105	0.135	850621	keystroke	i	n/a
425.4755	0.0745	850951	keystroke	z	n/a
425.8505	0.1345	851701	keystroke	e	n/a
425.9555	0.1195	851911	keystroke	Key.space	n/a
426.1205	0.105	852241	keystroke	a	n/a
426.1955	0.0905	852391	keystroke	n	n/a
426.375	0.09	852750	keystroke	n	n/a
426.435	0.09	852870	keystroke	a	n/a
426.5555	0.1195	853111	keystroke	Key.space	n/a
426.69	0.09	853380	keystroke	d	n/a
426.885	0.0905	853770	keystroke	e	n/a
426.915	0.1355	853830	keystroke	n	n/a
427.0955	0.075	854191	keystroke	t	n/a
427.2905	0.1055	854581	keystroke	a	n/a
427.3355	0.09	854671	keystroke	l	n/a
427.4555	0.12	854911	keystroke	Key.space	n/a
427.6655	0.105	855331	keystroke	h	n/a
427.981	0.104	855962	keystroke	o	n/a
428.2055	0.09	856411	keystroke	m	n/a
428.34	0.12	856680	keystroke	e	n/a
428.505	0.1055	857010	keystroke	p	n/a
428.655	0.0755	857310	keystroke	a	n/a
428.85	0.061	857700	keystroke	g	n/a
428.985	0.12	857970	keystroke	e	n/a
429.09	0.105	858180	keystroke	Key.enter	n/a
429.2005	9.777	858401	prompt	n/a	academy projects development created\n
429.9755	0.0745	859951	keystroke	a	n/a
430.17	0.06	860340	keystroke	c	n/a
430.3505	0.0905	860701	keystroke	a	n/a
430.5	0.0755	861000	keystroke	d	n/a
430.696	0.074	861392	keystroke	e	n/a
430.815	0.0905	861630	keystroke	m	n/a
430.9505	0.105	861901	keystroke	y	n/a
431.1	0.06	862200	keystroke	Key.space	n/a
431.265	0.105	862530	keystroke	p	n/a
431.49	0.135	862980	keystroke	r	n/a
431.5955	0.1205	863191	keystroke	o	n/a
431.94	0.015	863880	keystroke	h	n/a
431.971	0.089	863942	keystroke	j	n/a
432.42	0.06	864840	keystroke	Key.backspace	n/a
432.555	0.06	865110	keystroke	Key.backspace	n/a
432.721	0.1795	865442	keystroke	j	n/a
432.8105	0.0905	865621	keystroke	e	n/a
433.0205	0.105	866041	keystroke	c	n/a
433.3355	0.09	866671	keystroke	t	n/a
433.561	0.12	867122	keystroke	s	n/a
433.8455	0.1195	867691	keystroke	Key.space	n/a
434.175	0.091	868350	keystroke	d	n/a
434.3705	0.12	868741	keystroke	e	n/a
434.4455	0.09	868891	keystroke	v	n/a
434.5805	0.12	869161	keystroke	e	n/a
434.7455	0.075	869491	keystroke	l	n/a
435.0305	0.27	870061	keystroke	o	n/a
435.181	0.1495	870362	keystroke	p	n/a
435.4805	0.105	870961	keystroke	e	n/a
435.586	0.1495	871172	keystroke	m	n/a
435.7205	0.106	871441	keystroke	e	n/a
435.8555	0.1355	871711	keystroke	n	n/a
435.9755	0.12	871951	keystroke	t	n/a
436.1255	0.105	872251	keystroke	Key.space	n/a
436.576	0.0745	873152	keystroke	c	n/a
436.77	0.1355	873540	keystroke	r	n/a
436.935	0.12	873870	keystroke	e	n/a
437.1455	0.0445	874291	keystroke	a	n/a
437.34	0.076	874680	keystroke	t	n/a
437.506	0.1045	875012	keystroke	e	n/a
437.715	0.0605	875430	keystroke	d	n/a
438.885	0.09	877770	keystroke	Key.enter	n/a
438.983	6.609	877966	prompt	n/a	conditions tile enclosure bored\n
439.9655	0.1055	879931	keystroke	c	n/a
440.0555	0.075	880111	keystroke	o	n/a
440.2055	0.1045	880411	keystroke	n	n/a
440.295	0.12	880590	keystroke	d	n/a
440.4455	0.1045	880891	keystroke	i	n/a
440.596	0.0895	881192	keystroke	t	n/a
440.6705	0.1505	881341	keystroke	i	n/a
440.7455	0.105	881491	keystroke	o	n/a
440.9105	0.135	881821	keystroke	n	n/a
441.016	0.0895	882032	keystroke	s	n/a
441.1355	0.105	882271	keystroke	Key.space	n/a
441.2705	0.105	882541	keystroke	t	n/a
441.3455	0.075	882691	keystroke	i	n/a
441.4955	0.105	882991	keystroke	l	n/a
441.6005	0.09	883201	keystroke	e	n/a
441.7355	0.12	883471	keystroke	Key.space	n/a
441.9005	0.12	883801	keystroke	e	n/a
442.1555	0.105	884311	keystroke	n	n/a
442.2755	0.0895	884551	keystroke	c	n/a
442.74	0.0455	885480	keystroke	l	n/a
442.89	0.0755	885780	keystroke	o	n/a
443.175	0.106	886350	keystroke	u	n/a
443.296	0.105	886592	keystroke	s	n/a
443.8205	0.074	887641	keystroke	Key.backspace	n/a
443.9695	0.0615	887939	keystroke	Key.backspace	n/a
444.061	0.1045	888122	keystroke	s	n/a
444.1505	0.15	888301	keystroke	u	n/a
444.2845	0.1055	888569	keystroke	r	n/a
444.45	0.15	888900	keystroke	e	n/a
444.585	0.09	889170	keystroke	Key.space	n/a
444.7805	0.0905	889561	keystroke	b	n/a
444.9755	0.1195	889951	keystroke	o	n/a
445.051	0.09	890102	keystroke	r	n/a
445.186	0.12	890372	keystroke	e	n/a
445.395	0.075	890790	keystroke	d	n/a
445.5	0.0905	891000	keystroke	Key.enter	n/a
445.597	5.0495	891194	prompt	n/a	square look deeply twin\n
446.265	0.0755	892530	keystroke	s	n/a
446.505	0.105	893010	keystroke	q	n/a
446.641	0.12	893282	keystroke	u	n/a
446.761	0.0745	893522	keystroke	e	n/a
447.2105	0.075	894421	keystroke	Key.backspace	n/a
447.3005	0.06	894601	keystroke	a	n/a
447.4955	0.1045	894991	keystroke	r	n/a
447.6605	0.105	895321	keystroke	e	n/a
447.766	0.1045	895532	keystroke	Key.space	n/a
447.991	0.0745	895982	keystroke	l	n/a
448.2155	0.0755	896431	keystroke	o	n/a
448.3505	0.105	896701	keystroke	o	n/a
448.471	0.1345	896942	keystroke	k	n/a
448.6205	0.12	897241	keystroke	Key.space	n/a
448.6955	0.09	897391	keystroke	d	n/a
448.9055	0.09	897811	keystroke	e	n/a
449.0855	0.105	898171	keystroke	e	n/a
449.2055	0.09	898411	keystroke	p	n/a
449.3855	0.09	898771	keystroke	l	n/a
449.5505	0.09	899101	keystroke	y	n/a
449.6555	0.135	899311	keystroke	Key.space	n/a
449.7755	0.105	899551	keystroke	t	n/a
450.0455	0.09	900091	keystroke	w	n/a
450.1655	0.0755	900331	keystroke	i	n/a
450.3005	0.1355	900601	keystroke	n	n/a
450.51	0.1355	901020	keystroke	Key.enter	n/a
450.65	8.277	901300	prompt	n/a	butter november factory judy\n
451.276	0.105	902552	keystroke	b	n/a
451.4705	0.0905	902941	keystroke	u	n/a
451.621	0.09	903242	keystroke	t	n/a
451.83	0.046	903660	keystroke	t	n/a
451.9655	0.1055	903931	keystroke	e	n/a
452.085	0.136	904170	keystroke	r	n/a
452.205	0.105	904410	keystroke	Key.space	n/a
452.8355	0.0605	905671	keystroke	n	n/a
452.985	0.105	905970	keystroke	o	n/a
453.541	0.045	907082	keystroke	v	n/a
453.676	0.1345	907352	keystroke	e	n/a
453.901	0.119	907802	keystroke	e	n/a
453.9905	0.1045	907981	keystroke	m	n/a
454.395	0.06	908790	keystroke	Key.backspace	n/a
454.531	0.044	909062	keystroke	Key.backspace	n/a
454.711	0.105	909422	keystroke	m	n/a
454.9655	0.0755	909931	keystroke	e	n/a
455.43	0.0605	910860	keystroke	Key.backspace	n/a
455.625	0.136	911250	keystroke	b	n/a
455.73	0.0905	911460	keystroke	e	n/a
455.88	0.136	911760	keystroke	r	n/a
456.03	0.1355	912060	keystroke	Key.space	n/a
456.3005	0.105	912601	keystroke	f	n/a
456.525	0.06	913050	keystroke	a	n/a
456.6605	0.0745	913321	keystroke	c	n/a
456.8705	0.1055	913741	keystroke	t	n/a
456.9905	0.09	913981	keystroke	o	n/a
457.1105	0.12	914221	keystroke	r	n/a
457.321	0.1195	914642	keystroke	y	n/a
457.5605	0.105	915121	keystroke	Key.space	n/a
458.2955	0.0755	916591	keystroke	j	n/a
458.4455	0.105	916891	keystroke	u	n/a
458.5355	0.105	917071	keystroke	d	n/a
458.6555	0.075	917311	keystroke	y	n/a
458.8505	0.075	917701	keystroke	Key.enter	n/a
458.9345	4.7925	917869	prompt	n/a	meetup discussing math raises\n
459.555	0.151	919110	keystroke	m	n/a
459.6905	0.105	919381	keystroke	e	n/a
459.901	0.075	919802	keystroke	e	n/a
460.0505	0.1205	920101	keystroke	t	n/a
460.111	0.0905	920222	keystroke	u	n/a
460.2605	0.105	920521	keystroke	p	n/a
460.41	0.121	920820	keystroke	Key.space	n/a
460.486	0.12	920972	keystroke	d	n/a
460.62	0.151	921240	keystroke	i	n/a
460.7405	0.0905	921481	keystroke	s	n/a
460.921	0.104	921842	keystroke	c	n/a
461.0105	0.105	922021	keystroke	u	n/a
461.1455	0.075	922291	keystroke	s	n/a
461.3105	0.1055	922621	keystroke	s	n/a
461.3855	0.09	922771	keystroke	i	n/a
461.5205	0.15	923041	keystroke	n	n/a
461.6405	0.105	923281	keystroke	g	n/a
461.7755	0.105	923551	keystroke	Key.space	n/a
462.061	0.135	924122	keystroke	m	n/a
462.2105	0.06	924421	keystroke	a	n/a
462.4055	0.12	924811	keystroke	t	n/a
462.5105	0.135	925021	keystroke	h	n/a
462.6605	0.12	925321	keystroke	Key.space	n/a
462.7505	0.105	925501	keystroke	r	n/a
462.961	0.1195	925922	keystroke	a	n/a
463.0505	0.1805	926101	keystroke	i	n/a
463.1855	0.1055	926371	keystroke	s	n/a
463.3505	0.1045	926701	keystroke	e	n/a
463.546	0.0895	927092	keystroke	s	n/a
