onset	duration	sample	value	key	prompt_text
9.2605	8.583	18521	prompt	n/a	the quick brown fox jumps over a lazy dog\n
10.6735	0.073	21347	keystroke_t	t	n/a
10.6865	0.1345	21373	keystroke_h	h	n/a
10.866	0.135	21732	keystroke_e	e	n/a
11.031	0.105	22062	keystroke_Key.space	Key.space	n/a
11.091	0.15	22182	keystroke_q	q	n/a
11.256	0.12	22512	keystroke_u	u	n/a
11.331	0.09	22662	keystroke_i	i	n/a
11.466	0.105	22932	keystroke_c	c	n/a
11.556	0.09	23112	keystroke_k	k	n/a
11.616	0.105	23232	keystroke_Key.space	Key.space	n/a
11.751	0.105	23502	keystroke_b	b	n/a
11.841	0.09	23682	keystroke_r	r	n/a
11.932	0.119	23864	keystroke_o	o	n/a
12.006	0.12	24012	keystroke_w	w	n/a
12.141	0.12	24282	keystroke_n	n	n/a
12.201	0.12	24402	keystroke_Key.space	Key.space	n/a
12.351	0.09	24702	keystroke_f	f	n/a
12.456	0.105	24912	keystroke_o	o	n/a
12.651	0.135	25302	keystroke_x	x	n/a
12.801	0.105	25602	keystroke_Key.space	Key.space	n/a
12.921	0.09	25842	keystroke_j	j	n/a
13.086	0.075	26172	keystroke_u	u	n/a
13.281	0.105	26562	keystroke_m	m	n/a
13.356	0.15	26712	keystroke_p	p	n/a
13.507	0.1195	27014	keystroke_s	s	n/a
13.596	0.1055	27192	keystroke_Key.space	Key.space	n/a
13.731	0.12	27462	keystroke_o	o	n/a
13.836	0.1205	27672	keystroke_v	v	n/a
14.0615	0.45	28123	keystroke_e	e	n/a
14.1215	0.405	28243	keystroke_f	f	n/a
14.5115	0.044	29023	keystroke_r	r	n/a
14.5715	0.014	29143	keystroke_Key.space	Key.space	n/a
14.8705	0.0905	29741	keystroke_Key.backspace	Key.backspace	n/a
15.0065	0.075	30013	keystroke_Key.backspace	Key.backspace	n/a
15.3215	0.06	30643	keystroke_Key.backspace	Key.backspace	n/a
15.4565	0.105	30913	keystroke_r	r	n/a
15.5765	0.09	31153	keystroke_Key.space	Key.space	n/a
15.6815	0.105	31363	keystroke_a	a	n/a
15.7565	0.09	31513	keystroke_Key.space	Key.space	n/a
15.9365	0.18	31873	keystroke_l	l	n/a
16.0265	0.075	32053	keystroke_a	a	n/a
16.2965	0.1195	32593	keystroke_z	z	n/a
16.401	0.165	32802	keystroke_y	y	n/a
16.5065	0.105	33013	keystroke_Key.space	Key.space	n/a
16.957	0.09	33914	keystroke_d	d	n/a
17.076	0.12	34152	keystroke_o	o	n/a
17.3015	0.0745	34603	keystroke_g	g	n/a
17.7665	0.075	35533	keystroke_Key.enter	Key.enter	n/a
17.8495	5.9635	35699	prompt	n/a	both oldest championship alias\n
18.471	0.105	36942	keystroke_b	b	n/a
18.561	0.135	37122	keystroke_o	o	n/a
18.711	0.105	37422	keystroke_t	t	n/a
18.831	0.1055	37662	keystroke_h	h	n/a
18.876	0.105	37752	keystroke_Key.space	Key.space	n/a
19.011	0.105	38022	keystroke_o	o	n/a
19.221	0.1055	38442	keystroke_l	l	n/a
19.3415	0.06	38683	keystroke_d	d	n/a
19.5215	0.18	39043	keystroke_e	e	n/a
19.6265	0.135	39253	keystroke_s	s	n/a
19.8215	0.12	39643	keystroke_t	t	n/a
19.9715	0.2095	39943	keystroke_Key.space	Key.space	n/a
20.361	0.1055	40722	keystroke_c	c	n/a
20.4365	0.105	40873	keystroke_h	h	n/a
20.5265	0.12	41053	keystroke_a	a	n/a
20.7065	0.06	41413	keystroke_m	m	n/a
21.1115	0.24	42223	keystroke_p	p	n/a
21.3065	0.24	42613	keystroke_i	i	n/a
21.4865	0.225	42973	keystroke_o	o	n/a
21.6515	0.135	43303	keystroke_n	n	n/a
21.8165	0.1055	43633	keystroke_s	s	n/a
21.9365	0.195	43873	keystroke_h	h	n/a
22.0565	0.135	44113	keystroke_i	i	n/a
22.1165	0.165	44233	keystroke_p	p	n/a
22.2215	0.12	44443	keystroke_Key.space	Key.space	n/a
22.3715	0.105	44743	keystroke_a	a	n/a
22.4915	0.075	44983	keystroke_l	l	n/a
22.6865	0.105	45373	keystroke_i	i	n/a
22.8215	0.075	45643	keystroke_s	s	n/a
23.1665	0.105	46333	keystroke_Key.backspace	Key.backspace	n/a
23.2565	0.165	46513	keystroke_a	a	n/a
23.3615	0.12	46723	keystroke_s	s	n/a
23.7365	0.075	47473	keystroke_Key.enter	Key.enter	n/a
23.8155	4.915	47631	prompt	n/a	elephant comfort might glow\n
24.561	0.03	49122	keystroke_e	e	n/a
24.636	0.1505	49272	keystroke_l	l	n/a
24.8165	0.12	49633	keystroke_e	e	n/a
24.9815	0.195	49963	keystroke_p	p	n/a
25.1015	0.12	50203	keystroke_h	h	n/a
25.2365	0.09	50473	keystroke_a	a	n/a
25.3565	0.09	50713	keystroke_n	n	n/a
25.5365	0.105	51073	keystroke_t	t	n/a
25.672	0.105	51344	keystroke_Key.space	Key.space	n/a
25.927	0.1795	51854	keystroke_c	c	n/a
25.9865	0.15	51973	keystroke_o	o	n/a
26.1215	0.0735	52243	keystroke_m	m	n/a
26.18	0.134	52360	keystroke_f	f	n/a
26.328	0.0865	52656	keystroke_o	o	n/a
26.3995	0.0245	52799	keystroke_r	r	n/a
26.4315	0.0245	52863	keystroke_t	t	n/a
26.4835	0.004	52967	keystroke_Key.space	Key.space	n/a
26.581	0.12	53162	keystroke_m	m	n/a
26.686	0.1375	53372	keystroke_i	i	n/a
26.8085	0.105	53617	keystroke_g	g	n/a
26.9285	0.09	53857	keystroke_h	h	n/a
26.9885	0.12	53977	keystroke_t	t	n/a
27.1235	0.075	54247	keystroke_Key.space	Key.space	n/a
27.3485	0.06	54697	keystroke_l	l	n/a
27.6935	0.09	55387	keystroke_Key.backspace	Key.backspace	n/a
28.0235	0.105	56047	keystroke_g	g	n/a
28.1135	0.06	56227	keystroke_l	l	n/a
28.2635	0.075	56527	keystroke_o	o	n/a
28.3535	0.075	56707	keystroke_w	w	n/a
28.653	0.075	57306	keystroke_Key.enter	Key.enter	n/a
28.7335	9.4945	57467	prompt	n/a	territories fund syracuse interface\n
29.6135	0.209	59227	keystroke_t	t	n/a
30.2675	0.052	60535	keystroke_r	r	n/a
30.3435	0.0005	60687	keystroke_i	i	n/a
30.344	0.0135	60688	keystroke_t	t	n/a
30.3725	0.015	60745	keystroke_o	o	n/a
30.4025	0.09	60805	keystroke_r	r	n/a
30.5075	0.1065	61015	keystroke_i	i	n/a
30.567	0.227	61134	keystroke_e	e	n/a
30.689	0.15	61378	keystroke_s	s	n/a
30.854	0.105	61708	keystroke_Key.space	Key.space	n/a
31.079	0.1195	62158	keystroke_f	f	n/a
31.1995	0.1345	62399	keystroke_u	u	n/a
31.289	0.15	62578	keystroke_n	n	n/a
31.379	0.1045	62758	keystroke_d	d	n/a
31.5135	0.09	63027	keystroke_Key.space	Key.space	n/a
32.009	0.105	64018	keystroke_s	s	n/a
32.339	0.09	64678	keystroke_y	y	n/a
32.504	0.15	65008	keystroke_r	r	n/a
32.594	0.135	65188	keystroke_a	a	n/a
32.864	0.09	65728	keystroke_c	c	n/a
32.984	0.1355	65968	keystroke_u	u	n/a
33.0595	0.24	66119	keystroke_s	s	n/a
33.2245	0.164	66449	keystroke_e	e	n/a
33.4035	0.09	66807	keystroke_Key.space	Key.space	n/a
33.5385	0.136	67077	keystroke_i	i	n/a
33.6285	0.12	67257	keystroke_n	n	n/a
33.7495	0.1045	67499	keystroke_t	t	n/a
33.914	0.15	67828	keystroke_e	e	n/a
34.019	0.135	68038	keystroke_r	r	n/a
35.369	0.105	70738	keystroke_g	g	n/a
35.804	0.075	71608	keystroke_Key.backspace	Key.backspace	n/a
35.909	0.135	71818	keystroke_f	f	n/a
35.999	0.12	71998	keystroke_a	a	n/a
36.194	0.09	72388	keystroke_c	c	n/a
36.464	0.06	72928	keystroke_e	e	n/a
38.1285	0.0915	76257	keystroke_Key.enter	Key.enter	n/a
38.2325	4.9135	76465	prompt	n/a	enough summit civilian tissue\n
38.7515	0.1	77503	keystroke_e	e	n/a
38.903	0.0245	77806	keystroke_n	n	n/a
38.9175	0.178	77835	keystroke_o	o	n/a
39.2145	0.077	78429	keystroke_g	g	n/a
39.2715	0.1605	78543	keystroke_h	h	n/a
39.337	0.151	78674	keystroke_Key.space	Key.space	n/a
39.4835	0.0925	78967	keystroke_s	s	n/a
39.5995	0.0095	79199	keystroke_u	u	n/a
39.6235	0.004	79247	keystroke_m	m	n/a
39.6275	0.035	79255	keystroke_m	m	n/a
39.6475	0.045	79295	keystroke_i	i	n/a
39.6775	0.03	79355	keystroke_t	t	n/a
39.7225	0.045	79445	keystroke_Key.space	Key.space	n/a
39.7825	0.015	79565	keystroke_c	c	n/a
39.8125	0.015	79625	keystroke_i	i	n/a
39.8425	0.03	79685	keystroke_v	v	n/a
39.9475	0.0155	79895	keystroke_i	i	n/a
39.979	0.015	79958	keystroke_l	l	n/a
40.009	0.015	80018	keystroke_i	i	n/a
40.9245	0.1195	81849	keystroke_a	a	n/a
41.074	0.135	82148	keystroke_n	n	n/a
41.164	0.135	82328	keystroke_Key.space	Key.space	n/a
41.449	0.1055	82898	keystroke_t	t	n/a
41.5995	0.1045	83199	keystroke_i	i	n/a
41.764	0.091	83528	keystroke_s	s	n/a
41.96	0.0895	83920	keystroke_s	s	n/a
42.0645	0.1195	84129	keystroke_u	u	n/a
42.199	0.1055	84398	keystroke_e	e	n/a
43.054	0.0905	86108	keystroke_Key.enter	Key.enter	n/a
43.1485	7.2735	86297	prompt	n/a	food sunny lord player\n
44.15	0.0595	88300	keystroke_f	f	n/a
44.2395	0.06	88479	keystroke_o	o	n/a
44.3745	0.0905	88749	keystroke_o	o	n/a
44.48	0.089	88960	keystroke_d	d	n/a
44.584	0.0745	89168	keystroke_Key.space	Key.space	n/a
44.689	0.121	89378	keystroke_s	s	n/a
44.794	0.06	89588	keystroke_u	u	n/a
44.96	0.074	89920	keystroke_n	n	n/a
45.094	0.076	90188	keystroke_n	n	n/a
45.26	0.134	90520	keystroke_y	y	n/a
45.349	0.12	90698	keystroke_Key.space	Key.space	n/a
45.589	0.075	91178	keystroke_l	l	n/a
45.769	0.09	91538	keystroke_o	o	n/a
46.356	0	92712	keystroke_d	d	n/a
46.356	0.0105	92712	keystroke_Key.space	Key.space	n/a
46.383	0.0315	92766	keystroke_p	p	n/a
46.3995	0.03	92799	keystroke_l	l	n/a
46.895	0.075	93790	keystroke_Key.backspace	Key.backspace	n/a
47.075	0.075	94150	keystroke_Key.backspace	Key.backspace	n/a
47.2095	0.0905	94419	keystroke_Key.backspace	Key.backspace	n/a
47.375	0.09	94750	keystroke_Key.backspace	Key.backspace	n/a
47.555	0.06	95110	keystroke_Key.backspace	Key.backspace	n/a
47.735	0.06	95470	keystroke_Key.backspace	Key.backspace	n/a
48.44	0.075	96880	keystroke_Key.backspace	Key.backspace	n/a
48.665	0.075	97330	keystroke_d	d	n/a
49.16	0.105	98320	keystroke_Key.space	Key.space	n/a
49.385	0.165	98770	keystroke_p	p	n/a
49.49	0.121	98980	keystroke_l	l	n/a
49.626	0.089	99252	keystroke_a	a	n/a
49.7895	0.0905	99579	keystroke_y	y	n/a
49.91	0.165	99820	keystroke_e	e	n/a
49.986	0.165	99972	keystroke_r	r	n/a
50.345	0.075	100690	keystroke_Key.enter	Key.enter	n/a
50.4245	8.558	100849	prompt	n/a	deck supplier exhibition capabilities\n
51.1845	0.1025	102369	keystroke_d	d	n/a
51.276	0.0275	102552	keystroke_e	e	n/a
51.345	0.102	102690	keystroke_c	c	n/a
51.432	0.0635	102864	keystroke_k	k	n/a
51.479	0.0465	102958	keystroke_Key.space	Key.space	n/a
51.5405	0.015	103081	keystroke_s	s	n/a
51.5705	0.015	103141	keystroke_u	u	n/a
51.7055	0.075	103411	keystroke_p	p	n/a
51.84	0.12	103680	keystroke_p	p	n/a
51.975	0.12	103950	keystroke_l	l	n/a
52.2	0.165	104400	keystroke_i	i	n/a
52.35	0.105	104700	keystroke_e	e	n/a
52.38	0.15	104760	keystroke_r	r	n/a
52.515	0.105	105030	keystroke_Key.space	Key.space	n/a
52.621	0.119	105242	keystroke_e	e	n/a
52.9055	0.15	105811	keystroke_c	c	n/a
53.1305	0.195	106261	keystroke_h	h	n/a
53.2505	0.15	106501	keystroke_i	i	n/a
53.7905	0.06	107581	keystroke_Key.backspace	Key.backspace	n/a
53.9555	0.06	107911	keystroke_Key.backspace	Key.backspace	n/a
54.1355	0.06	108271	keystroke_Key.backspace	Key.backspace	n/a
54.4505	0.09	108901	keystroke_x	x	n/a
55.2605	0.12	110521	keystroke_h	h	n/a
55.3205	0.105	110641	keystroke_i	i	n/a
55.5155	0.105	111031	keystroke_b	b	n/a
55.5605	0.135	111121	keystroke_i	i	n/a
55.7105	0.0895	111421	keystroke_t	t	n/a
55.815	0.3595	111630	keystroke_i	i	n/a
56.2635	0.0895	112527	keystroke_n	n	n/a
56.338	0.03	112676	keystroke_Key.space	Key.space	n/a
56.383	0.03	112766	keystroke_c	c	n/a
56.399	0.044	112798	keystroke_a	a	n/a
56.429	0.104	112858	keystroke_p	p	n/a
56.5635	0.196	113127	keystroke_a	a	n/a
56.805	0.1055	113610	keystroke_b	b	n/a
56.8805	0.1195	113761	keystroke_i	i	n/a
57.1205	0.09	114241	keystroke_l	l	n/a
57.271	0.074	114542	keystroke_i	i	n/a
57.361	0.1045	114722	keystroke_t	t	n/a
57.4805	0.105	114961	keystroke_i	i	n/a
57.5555	0.21	115111	keystroke_e	e	n/a
57.7055	0.1345	115411	keystroke_s	s	n/a
58.8905	0.09	117781	keystroke_Key.enter	Key.enter	n/a
58.987	5.5	117974	prompt	n/a	battlefield babe metric justin\n
59.8055	0.0755	119611	keystroke_b	b	n/a
59.865	0.075	119730	keystroke_a	a	n/a
60.076	0.074	120152	keystroke_t	t	n/a
60.225	0.105	120450	keystroke_t	t	n/a
60.36	0.136	120720	keystroke_l	l	n/a
60.48	0.09	120960	keystroke_e	e	n/a
60.691	0.089	121382	keystroke_f	f	n/a
60.765	0.09	121530	keystroke_i	i	n/a
60.87	0.075	121740	keystroke_e	e	n/a
61.006	0.09	122012	keystroke_l	l	n/a
61.14	0.135	122280	keystroke_d	d	n/a
61.2305	0.1045	122461	keystroke_Key.space	Key.space	n/a
61.425	0.136	122850	keystroke_b	b	n/a
61.485	0.12	122970	keystroke_a	a	n/a
61.8435	0.016	123687	keystroke_b	b	n/a
61.919	0.015	123838	keystroke_e	e	n/a
61.949	0.015	123898	keystroke_Key.space	Key.space	n/a
61.979	0.03	123958	keystroke_m	m	n/a
61.994	0.0745	123988	keystroke_e	e	n/a
62.175	0.135	124350	keystroke_t	t	n/a
62.265	0.135	124530	keystroke_r	r	n/a
62.415	0.106	124830	keystroke_i	i	n/a
62.5505	0.12	125101	keystroke_c	c	n/a
62.6555	0.105	125311	keystroke_Key.space	Key.space	n/a
62.8055	0.09	125611	keystroke_j	j	n/a
62.9555	0.135	125911	keystroke_u	u	n/a
63.0455	0.135	126091	keystroke_s	s	n/a
63.1955	0.18	126391	keystroke_t	t	n/a
63.706	0.2245	127412	keystroke_i	i	n/a
63.9755	0.06	127951	keystroke_n	n	n/a
64.3955	0.09	128791	keystroke_Key.enter	Key.enter	n/a
64.4895	6.143	128979	prompt	n/a	shakira meal chemicals interstate\n
65.2655	0.105	130531	keystroke_s	s	n/a
65.3855	0.0755	130771	keystroke_h	h	n/a
65.4755	0.105	130951	keystroke_a	a	n/a
65.7305	0.1055	131461	keystroke_k	k	n/a
65.971	0.15	131942	keystroke_i	i	n/a
66.061	0.24	132122	keystroke_r	r	n/a
66.196	0.15	132392	keystroke_a	a	n/a
66.405	0.105	132810	keystroke_Key.space	Key.space	n/a
66.6	0.105	133200	keystroke_m	m	n/a
66.676	0.18	133352	keystroke_e	e	n/a
66.81	0.151	133620	keystroke_a	a	n/a
67.4985	0.1215	134997	keystroke_l	l	n/a
67.592	0.1	135184	keystroke_Key.space	Key.space	n/a
67.7645	0.015	135529	keystroke_c	c	n/a
67.7795	0.015	135559	keystroke_h	h	n/a
67.8095	0.015	135619	keystroke_e	e	n/a
67.8395	0.03	135679	keystroke_m	m	n/a
67.8545	0.045	135709	keystroke_i	i	n/a
67.8845	0.12	135769	keystroke_c	c	n/a
67.9445	0.137	135889	keystroke_a	a	n/a
68.0665	0.105	136133	keystroke_l	l	n/a
68.1565	0.12	136313	keystroke_s	s	n/a
68.2915	0.075	136583	keystroke_Key.space	Key.space	n/a
68.4115	0.12	136823	keystroke_i	i	n/a
68.5015	0.12	137003	keystroke_n	n	n/a
68.5765	0.105	137153	keystroke_t	t	n/a
68.7415	0.135	137483	keystroke_e	e	n/a
68.8015	0.15	137603	keystroke_r	r	n/a
69.0415	0.075	138083	keystroke_s	s	n/a
69.386	0.1205	138772	keystroke_t	t	n/a
69.5965	0.09	139193	keystroke_a	a	n/a
69.746	0.1805	139492	keystroke_t	t	n/a
69.8815	0.12	139763	keystroke_e	e	n/a
70.5265	0.105	141053	keystroke_Key.enter	Key.enter	n/a
70.635	6.322	141270	prompt	n/a	changing virtue framework rest\n
71.3665	0.12	142733	keystroke_c	c	n/a
71.4565	0.075	142913	keystroke_h	h	n/a
71.5765	0.06	143153	keystroke_a	a	n/a
71.6515	0.0905	143303	keystroke_n	n	n/a
71.772	0.1195	143544	keystroke_g	g	n/a
71.8465	0.15	143693	keystroke_i	i	n/a
71.9665	0.12	143933	keystroke_n	n	n/a
72.162	0.075	144324	keystroke_g	g	n/a
72.2515	0.15	144503	keystroke_Key.space	Key.space	n/a
72.4465	0.1055	144893	keystroke_v	v	n/a
72.567	0.1195	145134	keystroke_i	i	n/a
72.7015	0.105	145403	keystroke_r	r	n/a
72.9115	0.09	145823	keystroke_t	t	n/a
73.0165	0.12	146033	keystroke_u	u	n/a
73.1515	0.12	146303	keystroke_e	e	n/a
73.2715	0.09	146543	keystroke_Key.space	Key.space	n/a
73.512	0.1495	147024	keystroke_f	f	n/a
73.5865	0.135	147173	keystroke_r	r	n/a
73.8415	0.12	147683	keystroke_a	a	n/a
74.0065	0.105	148013	keystroke_m	m	n/a
74.6215	0.105	149243	keystroke_e	e	n/a
74.8465	0.09	149693	keystroke_s	s	n/a
75.2665	0.075	150533	keystroke_Key.backspace	Key.backspace	n/a
75.4615	0.075	150923	keystroke_w	w	n/a
75.5215	0.12	151043	keystroke_o	o	n/a
75.656	0.09	151312	keystroke_r	r	n/a
75.776	0.1355	151552	keystroke_k	k	n/a
75.881	0.1205	151762	keystroke_Key.space	Key.space	n/a
76.3015	0.165	152603	keystroke_r	r	n/a
76.3765	0.388	152753	keystroke_e	e	n/a
76.571	0.2485	153142	keystroke_s	s	n/a
76.7495	0.1585	153499	keystroke_t	t	n/a
76.9555	0.0005	153911	keystroke_Key.enter	Key.enter	n/a
76.9625	6.001	153925	prompt	n/a	brian possibility recognize general\n
77.577	0.105	155154	keystroke_b	b	n/a
77.637	0.106	155274	keystroke_r	r	n/a
77.787	0.0905	155574	keystroke_i	i	n/a
77.8615	0.1505	155723	keystroke_a	a	n/a
77.997	0.151	155994	keystroke_n	n	n/a
78.117	0.12	156234	keystroke_Key.space	Key.space	n/a
78.2975	0.1505	156595	keystroke_p	p	n/a
78.403	0.134	156806	keystroke_o	o	n/a
78.552	0.06	157104	keystroke_s	s	n/a
78.702	0.12	157404	keystroke_s	s	n/a
78.777	0.105	157554	keystroke_i	i	n/a
78.867	0.1505	157734	keystroke_b	b	n/a
79.0325	0.165	158065	keystroke_i	i	n/a
79.1525	0.255	158305	keystroke_l	l	n/a
79.3325	0.165	158665	keystroke_i	i	n/a
79.4825	0.12	158965	keystroke_t	t	n/a
79.6625	0.135	159325	keystroke_y	y	n/a
79.7525	0.15	159505	keystroke_Key.space	Key.space	n/a
80.0975	0.135	160195	keystroke_r	r	n/a
80.1875	0.105	160375	keystroke_e	e	n/a
80.457	0.1515	160914	keystroke_c	c	n/a
80.5925	0.12	161185	keystroke_o	o	n/a
80.7575	0.1045	161515	keystroke_g	g	n/a
80.877	0.1655	161754	keystroke_n	n	n/a
80.982	0.196	161964	keystroke_i	i	n/a
81.2525	0.1505	162505	keystroke_z	z	n/a
81.493	0.09	162986	keystroke_e	e	n/a
81.598	0.1045	163196	keystroke_Key.space	Key.space	n/a
81.7175	0.165	163435	keystroke_g	g	n/a
81.8225	0.135	163645	keystroke_e	e	n/a
82.0025	0.105	164005	keystroke_n	n	n/a
82.0625	0.195	164125	keystroke_e	e	n/a
82.1825	0.165	164365	keystroke_r	r	n/a
82.4525	0.135	164905	keystroke_a	a	n/a
82.6175	0.1345	165235	keystroke_l	l	n/a
82.9165	0.045	165833	keystroke_Key.enter	Key.enter	n/a
82.973	13.7145	165946	prompt	n/a	packages clicking breeding competitions\n
83.6075	0.12	167215	keystroke_p	p	n/a
83.7125	0.1795	167425	keystroke_a	a	n/a
83.862	0.1355	167724	keystroke_c	c	n/a
83.9985	0.104	167997	keystroke_k	k	n/a
84.0725	0.105	168145	keystroke_a	a	n/a
84.298	0.1945	168596	keystroke_g	g	n/a
84.388	0.2095	168776	keystroke_e	e	n/a
84.5075	0.1355	169015	keystroke_s	s	n/a
84.673	0.09	169346	keystroke_Key.space	Key.space	n/a
84.883	0.105	169766	keystroke_c	c	n/a
84.973	0.06	169946	keystroke_l	l	n/a
85.108	0.09	170216	keystroke_i	i	n/a
85.213	0.12	170426	keystroke_c	c	n/a
85.318	0.06	170636	keystroke_k	k	n/a
85.468	0.1195	170936	keystroke_i	i	n/a
85.528	0.165	171056	keystroke_n	n	n/a
85.648	0.09	171296	keystroke_g	g	n/a
85.753	0.09	171506	keystroke_Key.space	Key.space	n/a
85.933	0.0745	171866	keystroke_b	b	n/a
86.4235	0.0865	172847	keystroke_e	e	n/a
86.525	0.015	173050	keystroke_e	e	n/a
86.555	0.015	173110	keystroke_d	d	n/a
86.585	0.03	173170	keystroke_i	i	n/a
86.6	0.045	173200	keystroke_n	n	n/a
86.63	0.03	173260	keystroke_g	g	n/a
86.675	0.015	173350	keystroke_Key.space	Key.space	n/a
87.845	0.075	175690	keystroke_Key.backspace	Key.backspace	n/a
88.04	0.06	176080	keystroke_Key.backspace	Key.backspace	n/a
88.235	0.06	176470	keystroke_Key.backspace	Key.backspace	n/a
88.415	0.105	176830	keystroke_Key.backspace	Key.backspace	n/a
88.61	0.06	177220	keystroke_Key.backspace	Key.backspace	n/a
88.805	0.075	177610	keystroke_Key.backspace	Key.backspace	n/a
89	0.06	178000	keystroke_Key.backspace	Key.backspace	n/a
89.195	0.075	178390	keystroke_Key.backspace	Key.backspace	n/a
89.405	0.06	178810	keystroke_Key.backspace	Key.backspace	n/a
89.585	0.06	179170	keystroke_Key.backspace	Key.backspace	n/a
89.78	0.06	179560	keystroke_Key.backspace	Key.backspace	n/a
89.9605	0.06	179921	keystroke_Key.backspace	Key.backspace	n/a
90.1405	0.075	180281	keystroke_Key.backspace	Key.backspace	n/a
90.32	0.193	180640	keystroke_Key.backspace	Key.backspace	n/a
90.6515	0.009	181303	keystroke_Key.backspace	Key.backspace	n/a
90.6755	0.015	181351	keystroke_Key.backspace	Key.backspace	n/a
91.3695	0.09	182739	keystroke_Key.backspace	Key.backspace	n/a
91.6095	0.105	183219	keystroke_Key.backspace	Key.backspace	n/a
91.85	0.075	183700	keystroke_Key.backspace	Key.backspace	n/a
92.0435	0.0905	184087	keystroke_Key.backspace	Key.backspace	n/a
92.3	0.089	184600	keystroke_Key.backspace	Key.backspace	n/a
92.644	0.06	185288	keystroke_Key.backspace	Key.backspace	n/a
93.7395	0.06	187479	keystroke_e	e	n/a
93.905	0.045	187810	keystroke_e	e	n/a
94.04	0.09	188080	keystroke_d	d	n/a
94.1745	0.1505	188349	keystroke_i	i	n/a
94.265	0.15	188530	keystroke_n	n	n/a
94.385	0.105	188770	keystroke_g	g	n/a
94.519	0.076	189038	keystroke_Key.space	Key.space	n/a
94.79	0.12	189580	keystroke_c	c	n/a
94.865	0.165	189730	keystroke_o	o	n/a
94.94	0.1795	189880	keystroke_m	m	n/a
95.045	0.269	190090	keystroke_p	p	n/a
95.299	0.105	190598	keystroke_e	e	n/a
95.329	0.135	190658	keystroke_t	t	n/a
95.4795	0.089	190959	keystroke_i	i	n/a
95.5835	0.105	191167	keystroke_t	t	n/a
95.6745	0.2105	191349	keystroke_i	i	n/a
95.795	0.195	191590	keystroke_o	o	n/a
95.9145	0.1205	191829	keystroke_n	n	n/a
96.05	0.06	192100	keystroke_s	s	n/a
96.545	0.135	193090	keystroke_Key.enter	Key.enter	n/a
96.6915	6.0165	193383	prompt	n/a	where discrete agriculture longest\n
97.3245	0.105	194649	keystroke_w	w	n/a
97.5795	0.03	195159	keystroke_h	h	n/a
97.5945	0.09	195189	keystroke_e	e	n/a
97.6395	0.195	195279	keystroke_r	r	n/a
97.7745	0.1355	195549	keystroke_e	e	n/a
97.91	0.105	195820	keystroke_Key.space	Key.space	n/a
98.03	0.105	196060	keystroke_d	d	n/a
98.1195	0.105	196239	keystroke_i	i	n/a
98.2095	0.09	196419	keystroke_s	s	n/a
98.42	0.0895	196840	keystroke_c	c	n/a
98.6445	0.135	197289	keystroke_r	r	n/a
98.7195	0.15	197439	keystroke_e	e	n/a
98.8845	0.195	197769	keystroke_t	t	n/a
98.9895	0.1505	197979	keystroke_e	e	n/a
99.17	0.12	198340	keystroke_Key.space	Key.space	n/a
99.3485	0.121	198697	keystroke_a	a	n/a
100.1295	0.06	200259	keystroke_g	g	n/a
100.1445	0.105	200289	keystroke_r	r	n/a
100.2795	0.105	200559	keystroke_i	i	n/a
100.4145	0.105	200829	keystroke_c	c	n/a
100.5495	0.0595	201099	keystroke_u	u	n/a
100.715	0.089	201430	keystroke_l	l	n/a
100.834	0.076	201668	keystroke_t	t	n/a
100.955	0.1045	201910	keystroke_u	u	n/a
101.0445	0.195	202089	keystroke_r	r	n/a
101.1495	0.165	202299	keystroke_e	e	n/a
101.3295	0.09	202659	keystroke_Key.space	Key.space	n/a
101.5395	0.075	203079	keystroke_l	l	n/a
101.7195	0.195	203439	keystroke_o	o	n/a
101.8245	0.15	203649	keystroke_n	n	n/a
101.9295	0.165	203859	keystroke_g	g	n/a
102.0045	0.3745	204009	keystroke_e	e	n/a
102.319	0.157	204638	keystroke_t	t	n/a
102.576	0.132	205152	keystroke_Key.enter	Key.enter	n/a
102.708	8.89	205416	prompt	n/a	medication efficiency elegant incentive\n
103.3815	0.105	206763	keystroke_m	m	n/a
103.4715	0.09	206943	keystroke_e	e	n/a
103.727	0.105	207454	keystroke_d	d	n/a
103.877	0.119	207754	keystroke_i	i	n/a
103.982	0.165	207964	keystroke_c	c	n/a
104.072	0.1345	208144	keystroke_a	a	n/a
104.3265	0.09	208653	keystroke_t	t	n/a
104.3865	0.2095	208773	keystroke_i	i	n/a
104.4915	0.1795	208983	keystroke_o	o	n/a
104.566	0.166	209132	keystroke_n	n	n/a
104.656	0.15	209312	keystroke_Key.space	Key.space	n/a
104.746	0.0905	209492	keystroke_e	e	n/a
104.926	0.0905	209852	keystroke_f	f	n/a
105.0915	0.075	210183	keystroke_f	f	n/a
105.212	0.1195	210424	keystroke_i	i	n/a
105.602	0.075	211204	keystroke_c	c	n/a
105.692	0.105	211384	keystroke_i	i	n/a
105.797	0.12	211594	keystroke_e	e	n/a
105.932	0.09	211864	keystroke_n	n	n/a
106.217	0.105	212434	keystroke_c	c	n/a
106.337	0.135	212674	keystroke_y	y	n/a
106.427	0.1195	212854	keystroke_Key.space	Key.space	n/a
106.817	0.12	213634	keystroke_e	e	n/a
106.967	0.105	213934	keystroke_l	l	n/a
107.027	0.105	214054	keystroke_e	e	n/a
107.252	0.135	214504	keystroke_g	g	n/a
107.462	0.105	214924	keystroke_a	a	n/a
107.582	0.105	215164	keystroke_n	n	n/a
107.702	0.135	215404	keystroke_t	t	n/a
107.822	0.06	215644	keystroke_Key.space	Key.space	n/a
107.897	0.165	215794	keystroke_i	i	n/a
107.972	0.165	215944	keystroke_n	n	n/a
108.362	0.105	216724	keystroke_v	v	n/a
108.572	0.1045	217144	keystroke_e	e	n/a
108.6915	0.12	217383	keystroke_n	n	n/a
109.128	0.03	218256	keystroke_Key.backspace	Key.backspace	n/a
109.173	0.06	218346	keystroke_Key.backspace	Key.backspace	n/a
109.323	0.06	218646	keystroke_Key.backspace	Key.backspace	n/a
110.1935	0.1355	220387	keystroke_c	c	n/a
110.2385	0.1655	220477	keystroke_e	e	n/a
110.464	0.12	220928	keystroke_n	n	n/a
110.629	0.09	221258	keystroke_t	t	n/a
110.764	0.135	221528	keystroke_i	i	n/a
110.9135	0.181	221827	keystroke_v	v	n/a
111.0335	0.165	222067	keystroke_e	e	n/a
111.4835	0.105	222967	keystroke_Key.enter	Key.enter	n/a
111.6025	6.0765	223205	prompt	n/a	buying the recovered profile\n
112.2645	0.1645	224529	keystroke_b	b	n/a
112.3095	0.2845	224619	keystroke_u	u	n/a
112.639	0.09	225278	keystroke_y	y	n/a
112.9085	0.225	225817	keystroke_i	i	n/a
113.0285	0.15	226057	keystroke_n	n	n/a
113.1935	0.09	226387	keystroke_g	g	n/a
113.3135	0.105	226627	keystroke_Key.space	Key.space	n/a
113.4335	0.105	226867	keystroke_t	t	n/a
113.5235	0.105	227047	keystroke_h	h	n/a
113.6435	0.091	227287	keystroke_e	e	n/a
113.7195	0.104	227439	keystroke_Key.space	Key.space	n/a
113.929	0.09	227858	keystroke_c	c	n/a
114.064	0.09	228128	keystroke_o	o	n/a
114.394	0.045	228788	keystroke_Key.backspace	Key.backspace	n/a
114.529	0.09	229058	keystroke_Key.backspace	Key.backspace	n/a
114.604	0.165	229208	keystroke_r	r	n/a
114.694	0.1345	229388	keystroke_e	e	n/a
114.8585	0.166	229717	keystroke_o	o	n/a
115.234	0.09	230468	keystroke_Key.backspace	Key.backspace	n/a
115.354	0.0905	230708	keystroke_c	c	n/a
115.4595	0.1195	230919	keystroke_o	o	n/a
115.549	0.12	231098	keystroke_v	v	n/a
115.9085	0.0915	231817	keystroke_e	e	n/a
115.954	0.0655	231908	keystroke_r	r	n/a
116.0035	0.0745	232007	keystroke_e	e	n/a
116.189	0.011	232378	keystroke_d	d	n/a
116.204	0.009	232408	keystroke_Key.space	Key.space	n/a
116.3095	0.0925	232619	keystroke_p	p	n/a
116.388	0.044	232776	keystroke_r	r	n/a
116.478	0.0595	232956	keystroke_o	o	n/a
116.6125	0.09	233225	keystroke_f	f	n/a
116.6875	0.075	233375	keystroke_i	i	n/a
116.868	0.09	233736	keystroke_l	l	n/a
117.003	0.06	234006	keystroke_e	e	n/a
117.588	0.09	235176	keystroke_Key.enter	Key.enter	n/a
117.6825	7.2895	235365	prompt	n/a	mysimon learn privileges quiet\n
118.293	0.09	236586	keystroke_m	m	n/a
118.518	0.105	237036	keystroke_y	y	n/a
118.668	0.12	237336	keystroke_s	s	n/a
118.773	0.165	237546	keystroke_i	i	n/a
118.8785	0.2095	237757	keystroke_m	m	n/a
119.028	0.21	238056	keystroke_o	o	n/a
119.163	0.2095	238326	keystroke_n	n	n/a
119.328	0.0745	238656	keystroke_Key.space	Key.space	n/a
119.493	0.1045	238986	keystroke_l	l	n/a
119.553	0.255	239106	keystroke_e	e	n/a
119.6725	0.2255	239345	keystroke_a	a	n/a
119.838	0.165	239676	keystroke_r	r	n/a
120.123	0.135	240246	keystroke_n	n	n/a
120.708	0.09	241416	keystroke_Key.space	Key.space	n/a
120.798	0.24	241596	keystroke_p	p	n/a
121.083	0.1495	242166	keystroke_r	r	n/a
121.5335	0.119	243067	keystroke_i	i	n/a
121.9085	0.075	243817	keystroke_v	v	n/a
122.0285	0.074	244057	keystroke_i	i	n/a
122.2085	0.12	244417	keystroke_l	l	n/a
122.2985	0.134	244597	keystroke_e	e	n/a
122.4935	0.314	244987	keystroke_g	g	n/a
122.7175	0.144	245435	keystroke_e	e	n/a
122.9875	0.0845	245975	keystroke_s	s	n/a
123.1195	0.0005	246239	keystroke_Key.space	Key.space	n/a
123.1205	0.0715	246241	keystroke_q	q	n/a
123.204	0.0485	246408	keystroke_u	u	n/a
123.2375	0.0595	246475	keystroke_i	i	n/a
123.342	0.105	246684	keystroke_t	t	n/a
124.0775	0.09	248155	keystroke_Key.backspace	Key.backspace	n/a
124.1825	0.195	248365	keystroke_e	e	n/a
124.3175	0.1205	248635	keystroke_t	t	n/a
124.8575	0.105	249715	keystroke_Key.enter	Key.enter	n/a
124.978	6.227	249956	prompt	n/a	trick brunette flag shopper\n
125.653	0.1345	251306	keystroke_t	t	n/a
125.728	0.1195	251456	keystroke_r	r	n/a
125.8625	0.105	251725	keystroke_i	i	n/a
126.0125	0.1355	252025	keystroke_c	c	n/a
126.103	0.1795	252206	keystroke_k	k	n/a
126.2375	0.105	252475	keystroke_Key.space	Key.space	n/a
126.433	0.105	252866	keystroke_b	b	n/a
126.6575	0.105	253315	keystroke_r	r	n/a
126.7775	0.0755	253555	keystroke_u	u	n/a
127.1075	0.1355	254215	keystroke_n	n	n/a
127.228	0.165	254456	keystroke_t	t	n/a
127.348	0.1195	254696	keystroke_e	e	n/a
127.708	0.075	255416	keystroke_Key.backspace	Key.backspace	n/a
127.9325	0.105	255865	keystroke_Key.backspace	Key.backspace	n/a
128.052	0.06	256104	keystroke_e	e	n/a
128.307	0.03	256614	keystroke_t	t	n/a
128.8515	0.0755	257703	keystroke_e	e	n/a
128.9555	0.035	257911	keystroke_Key.space	Key.space	n/a
129.0955	0.0885	258191	keystroke_f	f	n/a
129.184	0.052	258368	keystroke_l	l	n/a
129.2495	0.0165	258499	keystroke_a	a	n/a
129.283	0.015	258566	keystroke_g	g	n/a
129.313	0.03	258626	keystroke_Key.space	Key.space	n/a
129.508	0.12	259016	keystroke_s	s	n/a
129.583	0.15	259166	keystroke_h	h	n/a
129.673	0.12	259346	keystroke_o	o	n/a
129.9135	0.06	259827	keystroke_p	p	n/a
130.0635	0.0895	260127	keystroke_p	p	n/a
130.138	0.1505	260276	keystroke_e	e	n/a
130.213	0.1955	260426	keystroke_r	r	n/a
131.0835	0.12	262167	keystroke_Key.enter	Key.enter	n/a
131.2085	7.582	262417	prompt	n/a	overseas independence cordless army\n
132.1335	0.135	264267	keystroke_o	o	n/a
132.5835	0.09	265167	keystroke_v	v	n/a
132.8535	0.15	265707	keystroke_e	e	n/a
132.9585	0.135	265917	keystroke_r	r	n/a
133.3035	0.18	266607	keystroke_s	s	n/a
133.5435	0.12	267087	keystroke_e	e	n/a
133.6335	0.225	267267	keystroke_a	a	n/a
133.8435	0.15	267687	keystroke_s	s	n/a
134.6965	0.003	269393	keystroke_Key.space	Key.space	n/a
134.904	0.2635	269808	keystroke_i	i	n/a
135.0975	0.083	270195	keystroke_n	n	n/a
135.1875	0.0205	270375	keystroke_d	d	n/a
135.188	0.1145	270376	keystroke_e	e	n/a
135.276	0.1525	270552	keystroke_p	p	n/a
135.4435	0.015	270887	keystroke_e	e	n/a
135.4735	0.015	270947	keystroke_n	n	n/a
135.5035	0.0295	271007	keystroke_d	d	n/a
135.518	0.03	271036	keystroke_e	e	n/a
135.563	0.03	271126	keystroke_n	n	n/a
135.578	0.136	271156	keystroke_c	c	n/a
135.789	0.0905	271578	keystroke_e	e	n/a
135.9095	0.105	271819	keystroke_Key.space	Key.space	n/a
136.554	0.1055	273108	keystroke_c	c	n/a
136.6895	0.09	273379	keystroke_o	o	n/a
136.8695	0.0745	273739	keystroke_r	r	n/a
137.0945	0.12	274189	keystroke_d	d	n/a
137.2295	0.075	274459	keystroke_l	l	n/a
137.3195	0.15	274639	keystroke_e	e	n/a
137.424	0.1205	274848	keystroke_s	s	n/a
137.619	0.091	275238	keystroke_s	s	n/a
137.754	0.12	275508	keystroke_Key.space	Key.space	n/a
137.844	0.09	275688	keystroke_a	a	n/a
137.994	0.106	275988	keystroke_r	r	n/a
138.144	0.135	276288	keystroke_m	m	n/a
138.324	0.105	276648	keystroke_y	y	n/a
138.6995	0.09	277399	keystroke_Key.enter	Key.enter	n/a
138.795	6.61	277590	prompt	n/a	demo death monster humanitarian\n
139.5545	0.21	279109	keystroke_d	d	n/a
139.6295	0.21	279259	keystroke_e	e	n/a
139.8245	0.15	279649	keystroke_m	m	n/a
139.915	0.1795	279830	keystroke_o	o	n/a
140.0495	0.105	280099	keystroke_Key.space	Key.space	n/a
140.3045	0.1945	280609	keystroke_d	d	n/a
140.3945	0.1495	280789	keystroke_e	e	n/a
140.604	0.12	281208	keystroke_a	a	n/a
140.8445	0.105	281689	keystroke_t	t	n/a
140.9645	0.12	281929	keystroke_h	h	n/a
141.0245	0.12	282049	keystroke_Key.space	Key.space	n/a
141.2645	0.105	282529	keystroke_m	m	n/a
141.3545	0.1955	282709	keystroke_o	o	n/a
141.4745	0.1505	282949	keystroke_n	n	n/a
141.625	0.0595	283250	keystroke_s	s	n/a
141.7745	0.09	283549	keystroke_t	t	n/a
141.985	0.1645	283970	keystroke_e	e	n/a
142.075	0.1645	284150	keystroke_r	r	n/a
142.2545	0.1055	284509	keystroke_Key.space	Key.space	n/a
142.5095	0.3445	285019	keystroke_h	h	n/a
142.6	0.269	285200	keystroke_u	u	n/a
142.884	0.045	285768	keystroke_m	m	n/a
142.944	0.0755	285888	keystroke_a	a	n/a
143.0345	0.1195	286069	keystroke_n	n	n/a
143.139	0.1955	286278	keystroke_i	i	n/a
143.3355	0.1335	286671	keystroke_t	t	n/a
143.6945	0.1645	287389	keystroke_a	a	n/a
143.844	0.105	287688	keystroke_r	r	n/a
144.1895	0.1195	288379	keystroke_i	i	n/a
144.294	0.135	288588	keystroke_a	a	n/a
144.445	0.104	288890	keystroke_n	n	n/a
145.276	0.12	290552	keystroke_Key.enter	Key.enter	n/a
145.41	8.4825	290820	prompt	n/a	latitude walks establishing tear\n
146.2365	0.12	292473	keystroke_l	l	n/a
146.3115	0.12	292623	keystroke_a	a	n/a
146.5815	0.03	293163	keystroke_t	t	n/a
146.6865	0.045	293373	keystroke_u	u	n/a
147.055	0.1065	294110	keystroke_Key.backspace	Key.backspace	n/a
147.088	0.015	294176	keystroke_=	=	n/a
147.7175	0.09	295435	keystroke_Key.backspace	Key.backspace	n/a
148.002	0.1055	296004	keystroke_i	i	n/a
148.9775	0.135	297955	keystroke_t	t	n/a
149.8635	0.1195	299727	keystroke_u	u	n/a
149.938	0.18	299876	keystroke_d	d	n/a
150.058	0.135	300116	keystroke_e	e	n/a
150.178	0.105	300356	keystroke_Key.space	Key.space	n/a
150.313	0.1495	300626	keystroke_w	w	n/a
150.4175	0.1805	300835	keystroke_a	a	n/a
150.5225	0.1505	301045	keystroke_l	l	n/a
150.643	0.1645	301286	keystroke_k	k	n/a
150.7475	0.135	301495	keystroke_s	s	n/a
150.9125	0.1055	301825	keystroke_Key.space	Key.space	n/a
151.3925	0.075	302785	keystroke_e	e	n/a
151.5425	0.0895	303085	keystroke_s	s	n/a
151.7525	0.09	303505	keystroke_t	t	n/a
151.8875	0.1495	303775	keystroke_a	a	n/a
152.0075	0.18	304015	keystroke_b	b	n/a
152.082	0.2105	304164	keystroke_l	l	n/a
152.2775	0.15	304555	keystroke_i	i	n/a
152.4125	0.12	304825	keystroke_s	s	n/a
152.5175	0.12	305035	keystroke_h	h	n/a
152.6075	0.225	305215	keystroke_i	i	n/a
152.7575	0.165	305515	keystroke_n	n	n/a
152.8925	0.09	305785	keystroke_g	g	n/a
153.0275	0.105	306055	keystroke_Key.space	Key.space	n/a
153.1775	0.165	306355	keystroke_t	t	n/a
153.2825	0.225	306565	keystroke_e	e	n/a
153.4025	0.27	306805	keystroke_a	a	n/a
153.5825	0.135	307165	keystroke_r	r	n/a
153.7775	0.105	307555	keystroke_Key.enter	Key.enter	n/a
153.898	8.3425	307796	prompt	n/a	kuwait wendy took thesaurus\n
154.5435	0.0645	309087	keystroke_k	k	n/a
154.714	0.105	309428	keystroke_u	u	n/a
154.864	0.15	309728	keystroke_w	w	n/a
154.954	0.135	309908	keystroke_a	a	n/a
155.104	0.12	310208	keystroke_i	i	n/a
155.254	0.09	310508	keystroke_t	t	n/a
155.359	0.09	310718	keystroke_Key.space	Key.space	n/a
155.659	0.18	311318	keystroke_w	w	n/a
155.779	0.165	311558	keystroke_e	e	n/a
155.959	0.09	311918	keystroke_n	n	n/a
156.109	0.15	312218	keystroke_d	d	n/a
156.304	0.1945	312608	keystroke_y	y	n/a
156.424	0.1495	312848	keystroke_Key.space	Key.space	n/a
156.694	0.1045	313388	keystroke_t	t	n/a
156.7685	0.06	313537	keystroke_o	o	n/a
156.9185	0.165	313837	keystroke_o	o	n/a
157.0385	0.1505	314077	keystroke_k	k	n/a
157.129	0.1495	314258	keystroke_Key.space	Key.space	n/a
157.4885	0.0905	314977	keystroke_t	t	n/a
157.594	0.1195	315188	keystroke_h	h	n/a
157.6985	0.105	315397	keystroke_e	e	n/a
158.014	0.015	316028	keystroke_s	s	n/a
158.2385	0.06	316477	keystroke_a	a	n/a
158.3135	0.09	316627	keystroke_u	u	n/a
158.4635	0.105	316927	keystroke_r	r	n/a
158.6735	0.1205	317347	keystroke_u	u	n/a
158.9285	0.075	317857	keystroke_s	s	n/a
162.231	0.001	324462	keystroke_Key.enter	Key.enter	n/a
162.2445	7.37	324489	prompt	n/a	insects representative plants oklahoma\n
163.174	0.15	326348	keystroke_i	i	n/a
163.264	0.135	326528	keystroke_n	n	n/a
163.339	0.135	326678	keystroke_s	s	n/a
163.414	0.12	326828	keystroke_e	e	n/a
163.669	0.075	327338	keystroke_c	c	n/a
163.879	0.105	327758	keystroke_t	t	n/a
163.999	0.075	327998	keystroke_s	s	n/a
164.074	0.105	328148	keystroke_Key.space	Key.space	n/a
164.224	0.1655	328448	keystroke_r	r	n/a
164.314	0.15	328628	keystroke_e	e	n/a
164.494	0.344	328988	keystroke_p	p	n/a
164.599	0.2485	329198	keystroke_r	r	n/a
164.8435	0.2405	329687	keystroke_e	e	n/a
164.864	0.22	329728	keystroke_s	s	n/a
165.383	0.105	330766	keystroke_e	e	n/a
165.518	0.12	331036	keystroke_n	n	n/a
165.668	0.12	331336	keystroke_t	t	n/a
165.803	0.165	331606	keystroke_a	a	n/a
165.923	0.105	331846	keystroke_t	t	n/a
166.073	0.12	332146	keystroke_i	i	n/a
166.238	0.105	332476	keystroke_v	v	n/a
166.328	0.1655	332656	keystroke_e	e	n/a
166.418	0.1055	332836	keystroke_Key.space	Key.space	n/a
166.509	0.164	333018	keystroke_p	p	n/a
166.598	0.135	333196	keystroke_l	l	n/a
166.688	0.09	333376	keystroke_a	a	n/a
166.808	0.1355	333616	keystroke_n	n	n/a
166.8985	0.2095	333797	keystroke_t	t	n/a
167.0185	0.18	334037	keystroke_s	s	n/a
167.2135	0.09	334427	keystroke_Key.space	Key.space	n/a
167.4085	0.105	334817	keystroke_o	o	n/a
167.6335	0.12	335267	keystroke_k	k	n/a
167.8885	0.075	335777	keystroke_l	l	n/a
167.9785	0.12	335957	keystroke_a	a	n/a
168.189	0.1195	336378	keystroke_h	h	n/a
168.2935	0.165	336587	keystroke_o	o	n/a
168.4585	0.1355	336917	keystroke_m	m	n/a
168.609	0.1045	337218	keystroke_a	a	n/a
169.479	0.1345	338958	keystroke_Key.enter	Key.enter	n/a
169.6175	8.4435	339235	prompt	n/a	lonely acquired behind ground\n
170.1985	0.075	340397	keystroke_l	l	n/a
170.379	0.1645	340758	keystroke_o	o	n/a
170.4685	0.1805	340937	keystroke_n	n	n/a
170.724	0.1945	341448	keystroke_g	g	n/a
170.8585	0.075	341717	keystroke_e	e	n/a
171.114	0.06	342228	keystroke_Key.backspace	Key.backspace	n/a
171.2485	0.075	342497	keystroke_Key.backspace	Key.backspace	n/a
171.3385	0.105	342677	keystroke_e	e	n/a
171.4585	0.1055	342917	keystroke_l	l	n/a
171.579	0.1195	343158	keystroke_y	y	n/a
171.7435	0.075	343487	keystroke_Key.space	Key.space	n/a
171.999	0.089	343998	keystroke_a	a	n/a
172.493	0.03	344986	keystroke_c	c	n/a
173.333	0.2535	346666	keystroke_q	q	n/a
173.653	0.079	347306	keystroke_u	u	n/a
173.67	0.186	347340	keystroke_i	i	n/a
173.8005	0.0855	347601	keystroke_r	r	n/a
173.871	0.03	347742	keystroke_e	e	n/a
173.916	0.06	347832	keystroke_d	d	n/a
174.3815	0.12	348763	keystroke_Key.space	Key.space	n/a
175.1315	0.09	350263	keystroke_b	b	n/a
175.2665	0.09	350533	keystroke_e	e	n/a
175.3415	0.12	350683	keystroke_h	h	n/a
175.4315	0.2545	350863	keystroke_i	i	n/a
175.581	0.1345	351162	keystroke_n	n	n/a
175.7005	0.1195	351401	keystroke_d	d	n/a
175.805	0.103	351610	keystroke_Key.space	Key.space	n/a
176.252	0.1645	352504	keystroke_g	g	n/a
176.342	0.1495	352684	keystroke_r	r	n/a
176.4475	0.209	352895	keystroke_o	o	n/a
176.5515	0.1655	353103	keystroke_u	u	n/a
176.7015	0.0615	353403	keystroke_p	p	n/a
177.0625	0.075	354125	keystroke_Key.backspace	Key.backspace	n/a
177.4825	0.089	354965	keystroke_n	n	n/a
177.6175	0.09	355235	keystroke_d	d	n/a
177.9625	0.09	355925	keystroke_Key.enter	Key.enter	n/a
178.0645	11.1985	356129	prompt	n/a	forum exhibitions friday lose\n
178.967	0.1055	357934	keystroke_f	f	n/a
179.0875	0.105	358175	keystroke_o	o	n/a
179.852	0.135	359704	keystroke_r	r	n/a
180.092	0.105	360184	keystroke_u	u	n/a
180.632	0.1355	361264	keystroke_m	m	n/a
180.737	0.1205	361474	keystroke_Key.space	Key.space	n/a
180.8425	0.09	361685	keystroke_e	e	n/a
181.112	0.0905	362224	keystroke_x	x	n/a
181.3525	0.1195	362705	keystroke_h	h	n/a
181.4425	0.12	362885	keystroke_i	i	n/a
181.6075	0.12	363215	keystroke_b	b	n/a
181.6825	0.135	363365	keystroke_i	i	n/a
181.8325	0.105	363665	keystroke_t	t	n/a
181.9675	0.105	363935	keystroke_i	i	n/a
182.0575	0.105	364115	keystroke_t	t	n/a
182.1475	0.12	364295	keystroke_i	i	n/a
182.2375	0.21	364475	keystroke_o	o	n/a
182.3575	0.105	364715	keystroke_n	n	n/a
182.4635	0.104	364927	keystroke_s	s	n/a
182.5825	0.12	365165	keystroke_Key.space	Key.space	n/a
182.777	0.1955	365554	keystroke_f	f	n/a
182.8825	0.135	365765	keystroke_r	r	n/a
183.2275	0.1345	366455	keystroke_Key.backspace	Key.backspace	n/a
183.407	0.164	366814	keystroke_Key.backspace	Key.backspace	n/a
183.586	0.1325	367172	keystroke_Key.backspace	Key.backspace	n/a
183.7935	0.015	367587	keystroke_Key.backspace	Key.backspace	n/a
183.8235	0.015	367647	keystroke_Key.backspace	Key.backspace	n/a
183.9435	0.06	367887	keystroke_Key.backspace	Key.backspace	n/a
184.109	0.045	368218	keystroke_Key.backspace	Key.backspace	n/a
184.469	0.045	368938	keystroke_Key.backspace	Key.backspace	n/a
186	0.2095	372000	keystroke_o	o	n/a
186.12	0.1195	372240	keystroke_n	n	n/a
186.2695	0.1205	372539	keystroke_s	s	n/a
186.42	0.09	372840	keystroke_Key.space	Key.space	n/a
186.51	0.24	373020	keystroke_f	f	n/a
186.6445	0.1805	373289	keystroke_r	r	n/a
186.975	0.12	373950	keystroke_i	i	n/a
187.08	0.21	374160	keystroke_d	d	n/a
187.2	0.165	374400	keystroke_a	a	n/a
187.38	0.105	374760	keystroke_y	y	n/a
187.44	0.104	374880	keystroke_Key.space	Key.space	n/a
187.665	0.06	375330	keystroke_l	l	n/a
187.845	0.15	375690	keystroke_o	o	n/a
188.565	0.24	377130	keystroke_s	s	n/a
188.76	0.135	377520	keystroke_e	e	n/a
189.164	0.0905	378328	keystroke_Key.enter	Key.enter	n/a
189.267	8.9515	378534	prompt	n/a	siemens courage therefore logistics\n
190.035	0.135	380070	keystroke_s	s	n/a
190.155	0.105	380310	keystroke_i	i	n/a
190.275	0.105	380550	keystroke_e	e	n/a
190.365	0.105	380730	keystroke_m	m	n/a
190.755	0.0895	381510	keystroke_e	e	n/a
190.8595	0.09	381719	keystroke_n	n	n/a
191.085	0.135	382170	keystroke_s	s	n/a
191.25	0.105	382500	keystroke_Key.space	Key.space	n/a
192.0595	0.09	384119	keystroke_c	c	n/a
192.1505	0.134	384301	keystroke_o	o	n/a
192.2395	0.149	384479	keystroke_u	u	n/a
192.344	0.155	384688	keystroke_r	r	n/a
192.4635	0.096	384927	keystroke_a	a	n/a
192.6155	0.062	385231	keystroke_g	g	n/a
192.6625	0.03	385325	keystroke_e	e	n/a
192.7075	0.015	385415	keystroke_Key.space	Key.space	n/a
192.7525	0.075	385505	keystroke_t	t	n/a
192.8425	0.09	385685	keystroke_h	h	n/a
192.8875	0.1355	385775	keystroke_e	e	n/a
192.993	0.1805	385986	keystroke_r	r	n/a
193.113	0.1205	386226	keystroke_e	e	n/a
193.324	0.119	386648	keystroke_f	f	n/a
193.458	0.105	386916	keystroke_o	o	n/a
193.6385	0.18	387277	keystroke_r	r	n/a
193.7435	0.1645	387487	keystroke_e	e	n/a
193.968	0.0905	387936	keystroke_Key.space	Key.space	n/a
194.1785	0.09	388357	keystroke_l	l	n/a
194.3735	0.3445	388747	keystroke_o	o	n/a
194.733	0.041	389466	keystroke_g	g	n/a
194.789	0.015	389578	keystroke_i	i	n/a
194.8185	0.015	389637	keystroke_s	s	n/a
194.8485	0.105	389697	keystroke_i	i	n/a
196.514	0.09	393028	keystroke_Key.backspace	Key.backspace	n/a
196.829	0.105	393658	keystroke_t	t	n/a
196.979	0.15	393958	keystroke_i	i	n/a
197.1745	0.21	394349	keystroke_c	c	n/a
197.3095	0.18	394619	keystroke_s	s	n/a
197.5345	0.045	395069	keystroke_Key.space	Key.space	n/a
197.8645	0.09	395729	keystroke_Key.backspace	Key.backspace	n/a
198.1345	0.075	396269	keystroke_Key.enter	Key.enter	n/a
198.2225	5.0385	396445	prompt	n/a	integer clark twin buying\n
198.8695	0.1495	397739	keystroke_i	i	n/a
198.959	0.136	397918	keystroke_n	n	n/a
199.0645	0.1655	398129	keystroke_t	t	n/a
199.17	0.12	398340	keystroke_e	e	n/a
199.3945	0.1655	398789	keystroke_g	g	n/a
199.485	0.27	398970	keystroke_e	e	n/a
199.65	0.1495	399300	keystroke_r	r	n/a
199.83	0.12	399660	keystroke_Key.space	Key.space	n/a
200.055	0.165	400110	keystroke_c	c	n/a
200.25	0.135	400500	keystroke_l	l	n/a
200.34	0.2705	400680	keystroke_a	a	n/a
200.535	0.195	401070	keystroke_r	r	n/a
200.745	0.1505	401490	keystroke_k	k	n/a
200.8355	0.149	401671	keystroke_Key.space	Key.space	n/a
200.9995	0.18	401999	keystroke_t	t	n/a
201.0895	0.18	402179	keystroke_w	w	n/a
201.2245	0.195	402449	keystroke_i	i	n/a
201.3295	0.15	402659	keystroke_n	n	n/a
201.6145	0.09	403229	keystroke_Key.space	Key.space	n/a
202.1695	0.09	404339	keystroke_b	b	n/a
202.2295	0.18	404459	keystroke_u	u	n/a
202.4695	0.105	404939	keystroke_y	y	n/a
202.649	0.265	405298	keystroke_i	i	n/a
202.7845	0.1445	405569	keystroke_n	n	n/a
202.944	0.015	405888	keystroke_g	g	n/a
203.169	0.0905	406338	keystroke_Key.enter	Key.enter	n/a
203.268	5.0935	406536	prompt	n/a	prior cedar taxi determine\n
203.9645	0.135	407929	keystroke_p	p	n/a
204.0845	0.15	408169	keystroke_r	r	n/a
204.2045	0.15	408409	keystroke_i	i	n/a
204.2945	0.165	408589	keystroke_o	o	n/a
204.4145	0.105	408829	keystroke_r	r	n/a
204.5345	0.105	409069	keystroke_Key.space	Key.space	n/a
204.7145	0.12	409429	keystroke_c	c	n/a
204.925	0.09	409850	keystroke_e	e	n/a
205.06	0.1945	410120	keystroke_d	d	n/a
205.195	0.135	410390	keystroke_a	a	n/a
205.375	0.105	410750	keystroke_r	r	n/a
205.495	0.09	410990	keystroke_Key.space	Key.space	n/a
205.57	0.12	411140	keystroke_t	t	n/a
205.72	0.075	411440	keystroke_a	a	n/a
206.05	0.15	412100	keystroke_x	x	n/a
206.41	0.165	412820	keystroke_i	i	n/a
206.515	0.12	413030	keystroke_Key.space	Key.space	n/a
206.785	0.21	413570	keystroke_d	d	n/a
206.875	0.165	413750	keystroke_e	e	n/a
207.13	0.165	414260	keystroke_t	t	n/a
207.265	0.225	414530	keystroke_e	e	n/a
207.4	0.165	414800	keystroke_r	r	n/a
207.58	0.15	415160	keystroke_m	m	n/a
207.7	0.24	415400	keystroke_i	i	n/a
207.8205	0.1645	415641	keystroke_n	n	n/a
207.97	0.09	415940	keystroke_e	e	n/a
208.2255	0.1345	416451	keystroke_Key.enter	Key.enter	n/a
208.367	11.3625	416734	prompt	n/a	exports wishlist possibly consistency\n
208.9755	0.0595	417951	keystroke_e	e	n/a
209.17	0.12	418340	keystroke_x	x	n/a
209.32	0.195	418640	keystroke_p	p	n/a
209.455	0.165	418910	keystroke_o	o	n/a
209.56	0.15	419120	keystroke_r	r	n/a
209.65	0.195	419300	keystroke_t	t	n/a
209.83	0.1205	419660	keystroke_s	s	n/a
209.9655	0.0895	419931	keystroke_Key.space	Key.space	n/a
210.04	0.075	420080	keystroke_w	w	n/a
210.13	0.1055	420260	keystroke_i	i	n/a
210.3105	0.12	420621	keystroke_s	s	n/a
210.4005	0.1195	420801	keystroke_h	h	n/a
210.49	0.12	420980	keystroke_i	i	n/a
210.91	0.1045	421820	keystroke_Key.backspace	Key.backspace	n/a
211.1495	0.09	422299	keystroke_l	l	n/a
211.2995	0.1205	422599	keystroke_i	i	n/a
211.375	0.165	422750	keystroke_s	s	n/a
211.51	0.15	423020	keystroke_t	t	n/a
211.675	0.09	423350	keystroke_Key.space	Key.space	n/a
211.825	0.165	423650	keystroke_p	p	n/a
211.93	0.1355	423860	keystroke_o	o	n/a
212.0955	0.0895	424191	keystroke_s	s	n/a
212.275	0.105	424550	keystroke_s	s	n/a
212.395	0.1355	424790	keystroke_i	i	n/a
212.5005	0.1795	425001	keystroke_b	b	n/a
215.4925	0.058	430985	keystroke_l	l	n/a
215.5355	0.1045	431071	keystroke_y	y	n/a
215.67	0.105	431340	keystroke_Key.space	Key.space	n/a
215.9405	0.1345	431881	keystroke_c	c	n/a
216.045	0.2105	432090	keystroke_o	o	n/a
216.15	0.1205	432300	keystroke_n	n	n/a
216.2715	0.104	432543	keystroke_s	s	n/a
216.405	0.0905	432810	keystroke_i	i	n/a
216.48	0.0905	432960	keystroke_s	s	n/a
216.6755	0.1645	433351	keystroke_t	t	n/a
216.7655	0.165	433531	keystroke_e	e	n/a
216.9155	0.09	433831	keystroke_n	n	n/a
217.1555	0.105	434311	keystroke_c	c	n/a
217.2615	0.074	434523	keystroke_y	y	n/a
219.6325	0.088	439265	keystroke_Key.enter	Key.enter	n/a
219.7385	5.9985	439477	prompt	n/a	facing dean penetration architect\n
220.8	0.165	441600	keystroke_f	f	n/a
220.905	0.12	441810	keystroke_a	a	n/a
221.085	0.105	442170	keystroke_c	c	n/a
221.22	0.1655	442440	keystroke_i	i	n/a
221.3405	0.135	442681	keystroke_n	n	n/a
221.4605	0.105	442921	keystroke_g	g	n/a
221.5955	0.09	443191	keystroke_Key.space	Key.space	n/a
221.7305	0.15	443461	keystroke_d	d	n/a
221.8355	0.21	443671	keystroke_e	e	n/a
221.9855	0.18	443971	keystroke_a	a	n/a
222.1205	0.165	444241	keystroke_n	n	n/a
222.2405	0.12	444481	keystroke_Key.space	Key.space	n/a
222.4505	0.12	444901	keystroke_p	p	n/a
222.5555	0.135	445111	keystroke_e	e	n/a
222.7055	0.06	445411	keystroke_n	n	n/a
222.7665	0.089	445533	keystroke_e	e	n/a
223.0055	0.15	446011	keystroke_t	t	n/a
223.0805	0.105	446161	keystroke_r	r	n/a
223.2755	0.105	446551	keystroke_a	a	n/a
223.4855	0.091	446971	keystroke_t	t	n/a
223.6055	0.27	447211	keystroke_i	i	n/a
223.7405	0.2105	447481	keystroke_o	o	n/a
223.8455	0.195	447691	keystroke_n	n	n/a
223.9655	0.135	447931	keystroke_Key.space	Key.space	n/a
224.1155	0.12	448231	keystroke_a	a	n/a
224.3105	0.0755	448621	keystroke_r	r	n/a
224.5655	0.135	449131	keystroke_c	c	n/a
224.6555	0.1355	449311	keystroke_h	h	n/a
224.746	0.1345	449492	keystroke_i	i	n/a
224.8955	0.15	449791	keystroke_t	t	n/a
224.9855	0.1355	449971	keystroke_e	e	n/a
225.256	0.0895	450512	keystroke_c	c	n/a
225.3905	0.09	450781	keystroke_t	t	n/a
225.676	0.0595	451352	keystroke_Key.enter	Key.enter	n/a
225.7405	8.2555	451481	prompt	n/a	honolulu failure wales courier\n
226.7405	0.105	453481	keystroke_h	h	n/a
226.8005	0.1355	453601	keystroke_o	o	n/a
227.0705	0.105	454141	keystroke_n	n	n/a
227.1305	0.1205	454261	keystroke_o	o	n/a
227.5505	0.0905	455101	keystroke_l	l	n/a
227.746	0.06	455492	keystroke_u	u	n/a
227.911	0.09	455822	keystroke_l	l	n/a
228.106	0.12	456212	keystroke_u	u	n/a
228.181	0.135	456362	keystroke_Key.space	Key.space	n/a
228.301	0.165	456602	keystroke_f	f	n/a
228.406	0.135	456812	keystroke_a	a	n/a
228.481	0.075	456962	keystroke_i	i	n/a
228.661	0.105	457322	keystroke_l	l	n/a
228.9765	0.1045	457953	keystroke_t	t	n/a
229.2755	0.12	458551	keystroke_u	u	n/a
229.3205	0.1655	458641	keystroke_r	r	n/a
229.7555	0.061	459511	keystroke_Key.backspace	Key.backspace	n/a
229.8915	0.045	459783	keystroke_Key.backspace	Key.backspace	n/a
230.041	0.0755	460082	keystroke_Key.backspace	Key.backspace	n/a
230.3265	0.12	460653	keystroke_u	u	n/a
230.4165	0.18	460833	keystroke_r	r	n/a
230.5215	0.15	461043	keystroke_e	e	n/a
230.8515	0.12	461703	keystroke_Key.space	Key.space	n/a
231.2865	0.1645	462573	keystroke_w	w	n/a
231.361	0.135	462722	keystroke_a	a	n/a
231.511	0.0905	463022	keystroke_l	l	n/a
231.6165	0.2245	463233	keystroke_e	e	n/a
231.721	0.165	463442	keystroke_s	s	n/a
232.0365	0.0895	464073	keystroke_Key.space	Key.space	n/a
232.336	0.1205	464672	keystroke_c	c	n/a
232.4115	0.21	464823	keystroke_o	o	n/a
232.546	0.1655	465092	keystroke_u	u	n/a
232.7265	0.09	465453	keystroke_r	r	n/a
232.8315	0.135	465663	keystroke_i	i	n/a
233.0415	0.225	466083	keystroke_e	e	n/a
233.1465	0.15	466293	keystroke_r	r	n/a
233.8975	0.0895	467795	keystroke_Key.enter	Key.enter	n/a
234	5.2545	468000	prompt	n/a	castle trembl it'd reality\n
234.6475	0.21	469295	keystroke_c	c	n/a
234.7675	0.1955	469535	keystroke_a	a	n/a
234.918	0.12	469836	keystroke_s	s	n/a
235.158	0.09	470316	keystroke_t	t	n/a
235.263	0.12	470526	keystroke_l	l	n/a
235.398	0.105	470796	keystroke_e	e	n/a
235.488	0.135	470976	keystroke_Key.space	Key.space	n/a
235.773	0.18	471546	keystroke_t	t	n/a
235.863	0.1795	471726	keystroke_r	r	n/a
236.1775	0.1505	472355	keystroke_e	e	n/a
236.358	0.0595	472716	keystroke_m	m	n/a
236.5525	0.1505	473105	keystroke_b	b	n/a
236.643	0.15	473286	keystroke_l	l	n/a
237.0335	0.105	474067	keystroke_Key.space	Key.space	n/a
237.2285	0.09	474457	keystroke_i	i	n/a
237.3335	0.12	474667	keystroke_t	t	n/a
237.4835	0.089	474967	keystroke_'	'	n/a
237.6775	0.135	475355	keystroke_d	d	n/a
237.8275	0.09	475655	keystroke_Key.space	Key.space	n/a
238.2475	0.135	476495	keystroke_r	r	n/a
238.3225	0.1215	476645	keystroke_e	e	n/a
238.488	0.1355	476976	keystroke_a	a	n/a
238.6075	0.091	477215	keystroke_l	l	n/a
238.7585	0.09	477517	keystroke_i	i	n/a
238.8635	0.09	477727	keystroke_t	t	n/a
238.9835	0.09	477967	keystroke_y	y	n/a
239.1785	0.075	478357	keystroke_Key.enter	Key.enter	n/a
239.2605	6.13	478521	prompt	n/a	launched democrat rings incidents\n
239.823	0.135	479646	keystroke_l	l	n/a
239.943	0.12	479886	keystroke_a	a	n/a
240.093	0.24	480186	keystroke_u	u	n/a
240.213	0.3145	480426	keystroke_n	n	n/a
240.6325	0.0895	481265	keystroke_c	c	n/a
240.737	0.063	481474	keystroke_h	h	n/a
240.8	0.0725	481600	keystroke_e	e	n/a
240.9925	0.106	481985	keystroke_d	d	n/a
241.0835	0.105	482167	keystroke_Key.space	Key.space	n/a
241.2035	0.1805	482407	keystroke_d	d	n/a
241.309	0.15	482618	keystroke_e	e	n/a
241.444	0.1195	482888	keystroke_m	m	n/a
241.5185	0.1655	483037	keystroke_o	o	n/a
241.789	0.105	483578	keystroke_c	c	n/a
242.014	0.165	484028	keystroke_r	r	n/a
242.119	0.12	484238	keystroke_a	a	n/a
242.314	0.09	484628	keystroke_t	t	n/a
242.419	0.105	484838	keystroke_Key.space	Key.space	n/a
242.719	0.105	485438	keystroke_r	r	n/a
242.809	0.15	485618	keystroke_i	i	n/a
242.899	0.15	485798	keystroke_n	n	n/a
243.184	0.225	486368	keystroke_g	g	n/a
243.289	0.165	486578	keystroke_s	s	n/a
243.499	0.12	486998	keystroke_Key.space	Key.space	n/a
243.634	0.15	487268	keystroke_i	i	n/a
243.724	0.135	487448	keystroke_n	n	n/a
243.919	0.06	487838	keystroke_c	c	n/a
244.2785	0.106	488557	keystroke_i	i	n/a
244.5495	0.1195	489099	keystroke_d	d	n/a
244.699	0.0905	489398	keystroke_e	e	n/a
244.8495	0.075	489699	keystroke_n	n	n/a
244.9095	0.195	489819	keystroke_t	t	n/a
245.0445	0.165	490089	keystroke_s	s	n/a
245.2995	0.09	490599	keystroke_Key.enter	Key.enter	n/a
245.3945	7.3035	490789	prompt	n/a	defining petition consulting negotiation\n
246.1345	0.215	492269	keystroke_e	e	n/a
246.426	0.0145	492852	keystroke_f	f	n/a
246.444	0.052	492888	keystroke_i	i	n/a
246.4585	0.0455	492917	keystroke_n	n	n/a
246.4975	0.022	492995	keystroke_i	i	n/a
246.5115	0.092	493023	keystroke_n	n	n/a
246.568	0.0825	493136	keystroke_g	g	n/a
246.6955	0.105	493391	keystroke_Key.space	Key.space	n/a
247.056	0.12	494112	keystroke_p	p	n/a
247.146	0.09	494292	keystroke_e	e	n/a
247.326	0.09	494652	keystroke_t	t	n/a
247.431	0.075	494862	keystroke_i	i	n/a
247.536	0.09	495072	keystroke_t	t	n/a
247.611	0.15	495222	keystroke_i	i	n/a
247.746	0.18	495492	keystroke_o	o	n/a
247.851	0.165	495702	keystroke_n	n	n/a
247.956	0.105	495912	keystroke_Key.space	Key.space	n/a
248.196	0.135	496392	keystroke_c	c	n/a
248.256	0.24	496512	keystroke_o	o	n/a
248.436	0.15	496872	keystroke_n	n	n/a
248.721	0.105	497442	keystroke_s	s	n/a
249.0515	0.0745	498103	keystroke_u	u	n/a
249.262	0.089	498524	keystroke_l	l	n/a
249.366	0.1055	498732	keystroke_t	t	n/a
249.4725	0.1485	498945	keystroke_i	i	n/a
249.546	0.18	499092	keystroke_n	n	n/a
249.681	0.105	499362	keystroke_g	g	n/a
249.801	0.075	499602	keystroke_Key.space	Key.space	n/a
249.951	0.105	499902	keystroke_n	n	n/a
250.027	0.0895	500054	keystroke_e	e	n/a
250.282	0.09	500564	keystroke_g	g	n/a
250.387	0.1195	500774	keystroke_o	o	n/a
250.612	0.12	501224	keystroke_t	t	n/a
251.227	0.135	502454	keystroke_i	i	n/a
251.302	0.09	502604	keystroke_a	a	n/a
251.527	0.09	503054	keystroke_t	t	n/a
251.677	0.24	503354	keystroke_i	i	n/a
251.796	0.196	503592	keystroke_o	o	n/a
251.902	0.15	503804	keystroke_n	n	n/a
252.0815	0.09	504163	keystroke_s	s	n/a
252.6065	0.09	505213	keystroke_Key.enter	Key.enter	n/a
252.701	7.2345	505402	prompt	n/a	catalyst rules convertible ends\n
253.5665	0.2705	507133	keystroke_c	c	n/a
253.747	0.15	507494	keystroke_a	a	n/a
253.987	0.1045	507974	keystroke_t	t	n/a
254.1065	0.15	508213	keystroke_a	a	n/a
254.8865	0.09	509773	keystroke_l	l	n/a
255.2765	0.09	510553	keystroke_y	y	n/a
255.6065	0.12	511213	keystroke_s	s	n/a
255.7275	0.1645	511455	keystroke_t	t	n/a
255.847	0.1345	511694	keystroke_Key.space	Key.space	n/a
256.0265	0.1505	512053	keystroke_r	r	n/a
256.162	0.105	512324	keystroke_u	u	n/a
256.4765	0.12	512953	keystroke_l	l	n/a
256.5815	0.21	513163	keystroke_e	e	n/a
256.7015	0.165	513403	keystroke_s	s	n/a
256.927	0.09	513854	keystroke_Key.space	Key.space	n/a
257.122	0.135	514244	keystroke_c	c	n/a
257.212	0.18	514424	keystroke_o	o	n/a
257.317	0.105	514634	keystroke_n	n	n/a
257.407	0.105	514814	keystroke_v	v	n/a
257.617	0.18	515234	keystroke_e	e	n/a
257.737	0.195	515474	keystroke_r	r	n/a
258.247	0.105	516494	keystroke_t	t	n/a
258.353	0.164	516706	keystroke_i	i	n/a
258.472	0.195	516944	keystroke_b	b	n/a
258.622	0.15	517244	keystroke_l	l	n/a
258.802	0.15	517604	keystroke_e	e	n/a
258.967	0.105	517934	keystroke_Key.space	Key.space	n/a
259.117	0.0905	518234	keystroke_e	e	n/a
259.1775	0.12	518355	keystroke_n	n	n/a
259.3575	0.15	518715	keystroke_d	d	n/a
259.4775	0.135	518955	keystroke_s	s	n/a
259.7775	0.15	519555	keystroke_Key.enter	Key.enter	n/a
259.9395	6.206	519879	prompt	n/a	offered smart investigator domain\n
260.647	0.105	521294	keystroke_o	o	n/a
260.737	0.06	521474	keystroke_f	f	n/a
260.857	0.105	521714	keystroke_f	f	n/a
261.022	0.135	522044	keystroke_e	e	n/a
261.127	0.165	522254	keystroke_r	r	n/a
261.262	0.105	522524	keystroke_e	e	n/a
261.457	0.105	522914	keystroke_d	d	n/a
261.741	0.0495	523482	keystroke_Key.space	Key.space	n/a
261.896	0.0165	523792	keystroke_s	s	n/a
261.928	0.016	523856	keystroke_m	m	n/a
261.959	0.015	523918	keystroke_a	a	n/a
261.989	0.015	523978	keystroke_r	r	n/a
262.019	0.075	524038	keystroke_t	t	n/a
262.124	0.09	524248	keystroke_Key.space	Key.space	n/a
262.259	0.18	524518	keystroke_i	i	n/a
262.349	0.15	524698	keystroke_n	n	n/a
262.7845	0.15	525569	keystroke_v	v	n/a
262.859	0.2555	525718	keystroke_e	e	n/a
262.9795	0.21	525959	keystroke_s	s	n/a
263.2645	0.105	526529	keystroke_t	t	n/a
263.5195	0.134	527039	keystroke_i	i	n/a
263.9535	0.09	527907	keystroke_g	g	n/a
264.1185	0.09	528237	keystroke_a	a	n/a
264.3435	0.106	528687	keystroke_t	t	n/a
264.4795	0.15	528959	keystroke_o	o	n/a
264.6145	0.105	529229	keystroke_r	r	n/a
265.0345	0.119	530069	keystroke_Key.space	Key.space	n/a
265.2285	0.0905	530457	keystroke_d	d	n/a
265.304	0.18	530608	keystroke_o	o	n/a
265.409	0.12	530818	keystroke_m	m	n/a
265.559	0.075	531118	keystroke_a	a	n/a
265.649	0.135	531298	keystroke_i	i	n/a
265.724	0.12	531448	keystroke_n	n	n/a
266.039	0.105	532078	keystroke_Key.enter	Key.enter	n/a
266.1485	5.39	532297	prompt	n/a	kodak urgent webcast lead\n
267.1115	0.105	534223	keystroke_k	k	n/a
267.1715	0.135	534343	keystroke_o	o	n/a
267.2915	0.225	534583	keystroke_d	d	n/a
267.4265	0.18	534853	keystroke_a	a	n/a
267.6215	0.181	535243	keystroke_k	k	n/a
267.7715	0.105	535543	keystroke_Key.space	Key.space	n/a
267.997	0.165	535994	keystroke_u	u	n/a
268.132	0.105	536264	keystroke_r	r	n/a
268.8815	0.24	537763	keystroke_g	g	n/a
269.0165	0.181	538033	keystroke_e	e	n/a
269.2415	0.12	538483	keystroke_n	n	n/a
269.3465	0.12	538693	keystroke_t	t	n/a
269.4365	0.12	538873	keystroke_Key.space	Key.space	n/a
269.6015	0.165	539203	keystroke_w	w	n/a
269.7065	0.12	539413	keystroke_e	e	n/a
269.8715	0.075	539743	keystroke_b	b	n/a
270.1865	0.18	540373	keystroke_c	c	n/a
270.3065	0.165	540613	keystroke_a	a	n/a
270.3965	0.12	540793	keystroke_s	s	n/a
270.6665	0.106	541333	keystroke_t	t	n/a
270.7415	0.105	541483	keystroke_Key.space	Key.space	n/a
270.9065	0.121	541813	keystroke_l	l	n/a
270.9375	0.165	541875	keystroke_e	e	n/a
271.0575	0.209	542115	keystroke_a	a	n/a
271.1925	0.165	542385	keystroke_d	d	n/a
271.4615	0.075	542923	keystroke_Key.enter	Key.enter	n/a
271.541	6.795	543082	prompt	n/a	christina register fewer authentic\n
272.1235	0.004	544247	keystroke_c	c	n/a
272.1515	0.0915	544303	keystroke_h	h	n/a
272.273	0.105	544546	keystroke_r	r	n/a
272.378	0.09	544756	keystroke_i	i	n/a
272.498	0.06	544996	keystroke_s	s	n/a
272.677	0.106	545354	keystroke_t	t	n/a
272.768	0.1945	545536	keystroke_i	i	n/a
272.8885	0.135	545777	keystroke_n	n	n/a
273.0375	0.1055	546075	keystroke_a	a	n/a
273.172	0.106	546344	keystroke_Key.space	Key.space	n/a
273.3685	0.1345	546737	keystroke_r	r	n/a
273.4425	0.1345	546885	keystroke_e	e	n/a
274.2375	0.075	548475	keystroke_g	g	n/a
274.343	0.0895	548686	keystroke_i	i	n/a
274.4475	0.12	548895	keystroke_s	s	n/a
274.5975	0.105	549195	keystroke_t	t	n/a
274.7325	0.195	549465	keystroke_e	e	n/a
274.8525	0.15	549705	keystroke_r	r	n/a
275.0175	0.15	550035	keystroke_Key.space	Key.space	n/a
275.1825	0.21	550365	keystroke_f	f	n/a
275.2885	0.194	550577	keystroke_e	e	n/a
275.4675	0.3	550935	keystroke_w	w	n/a
275.6485	0.255	551297	keystroke_e	e	n/a
275.8425	0.15	551685	keystroke_r	r	n/a
276.2475	0.121	552495	keystroke_Key.space	Key.space	n/a
276.488	0.105	552976	keystroke_a	a	n/a
276.6085	0.12	553217	keystroke_u	u	n/a
276.7435	0.12	553487	keystroke_t	t	n/a
276.8485	0.09	553697	keystroke_h	h	n/a
276.9985	0.075	553997	keystroke_e	e	n/a
277.1035	0.105	554207	keystroke_n	n	n/a
277.2835	0.1045	554567	keystroke_t	t	n/a
277.433	0.105	554866	keystroke_i	i	n/a
277.7775	0.0895	555555	keystroke_c	c	n/a
278.2	0.134	556400	keystroke_Key.enter	Key.enter	n/a
278.339	6.1815	556678	prompt	n/a	goods impressive budgets figured\n
279.205	0.075	558410	keystroke_g	g	n/a
279.31	0.06	558620	keystroke_o	o	n/a
279.46	0.105	558920	keystroke_o	o	n/a
279.535	0.18	559070	keystroke_d	d	n/a
279.655	0.135	559310	keystroke_s	s	n/a
279.79	0.09	559580	keystroke_Key.space	Key.space	n/a
279.94	0.075	559880	keystroke_i	i	n/a
280.135	0.09	560270	keystroke_m	m	n/a
280.285	0.105	560570	keystroke_p	p	n/a
280.405	0.165	560810	keystroke_r	r	n/a
280.51	0.15	561020	keystroke_e	e	n/a
280.675	0.09	561350	keystroke_s	s	n/a
280.855	0.105	561710	keystroke_s	s	n/a
280.975	0.135	561950	keystroke_i	i	n/a
281.095	0.15	562190	keystroke_v	v	n/a
281.2	0.15	562400	keystroke_e	e	n/a
281.305	0.09	562610	keystroke_Key.space	Key.space	n/a
281.485	0.105	562970	keystroke_b	b	n/a
281.5455	0.1345	563091	keystroke_u	u	n/a
281.695	0.09	563390	keystroke_d	d	n/a
281.9355	0.1795	563871	keystroke_g	g	n/a
282.175	0.1955	564350	keystroke_e	e	n/a
282.3255	0.27	564651	keystroke_t	t	n/a
282.505	0.1505	565010	keystroke_s	s	n/a
282.7155	0.09	565431	keystroke_Key.space	Key.space	n/a
283.5545	0.0935	567109	keystroke_f	f	n/a
283.754	0.015	567508	keystroke_i	i	n/a
283.814	0.015	567628	keystroke_g	g	n/a
283.844	0.045	567688	keystroke_u	u	n/a
283.919	0.165	567838	keystroke_r	r	n/a
284.024	0.135	568048	keystroke_e	e	n/a
284.264	0.09	568528	keystroke_d	d	n/a
284.444	0.075	568888	keystroke_Key.enter	Key.enter	n/a
284.5245	8.238	569049	prompt	n/a	reverse approach iceland cube\n
285.2095	0.15	570419	keystroke_r	r	n/a
285.2845	0.135	570569	keystroke_e	e	n/a
285.6145	0.135	571229	keystroke_v	v	n/a
285.7345	0.195	571469	keystroke_e	e	n/a
285.8995	0.15	571799	keystroke_r	r	n/a
286.1095	0.1945	572219	keystroke_s	s	n/a
286.2145	0.1795	572429	keystroke_e	e	n/a
286.409	0.12	572818	keystroke_Key.space	Key.space	n/a
286.544	0.105	573088	keystroke_a	a	n/a
286.679	0.09	573358	keystroke_p	p	n/a
286.844	0.105	573688	keystroke_p	p	n/a
286.964	0.09	573928	keystroke_r	r	n/a
287.069	0.105	574138	keystroke_o	o	n/a
287.279	0.1495	574558	keystroke_a	a	n/a
287.564	0.0745	575128	keystroke_d	d	n/a
288.1635	0.0755	576327	keystroke_Key.backspace	Key.backspace	n/a
288.284	0.09	576568	keystroke_c	c	n/a
288.4185	0.1205	576837	keystroke_h	h	n/a
288.734	0.09	577468	keystroke_Key.space	Key.space	n/a
288.884	0.1495	577768	keystroke_i	i	n/a
289.0035	0.015	578007	keystroke_n	n	n/a
289.319	0.1045	578638	keystroke_Key.backspace	Key.backspace	n/a
289.4535	0.1205	578907	keystroke_c	c	n/a
289.679	0.105	579358	keystroke_e	e	n/a
289.859	0.12	579718	keystroke_l	l	n/a
290.069	0.12	580138	keystroke_a	a	n/a
290.174	0.105	580348	keystroke_n	n	n/a
290.309	0.075	580618	keystroke_d	d	n/a
290.4445	0.1345	580889	keystroke_Key.space	Key.space	n/a
290.6395	0.12	581279	keystroke_c	c	n/a
290.7595	0.18	581519	keystroke_u	u	n/a
290.8645	0.105	581729	keystroke_b	b	n/a
292.169	0.135	584338	keystroke_e	e	n/a
292.649	0.105	585298	keystroke_Key.enter	Key.enter	n/a
292.766	8.1415	585532	prompt	n/a	wireless meetup contributors recorded\n
293.384	0.1055	586768	keystroke_w	w	n/a
293.5045	0.105	587009	keystroke_i	i	n/a
293.6545	0.135	587309	keystroke_r	r	n/a
293.7145	0.135	587429	keystroke_e	e	n/a
293.8645	0.09	587729	keystroke_l	l	n/a
293.9395	0.165	587879	keystroke_e	e	n/a
294.0595	0.135	588119	keystroke_s	s	n/a
294.2845	0.105	588569	keystroke_s	s	n/a
294.4045	0.075	588809	keystroke_Key.space	Key.space	n/a
294.5245	0.12	589049	keystroke_m	m	n/a
294.5845	0.09	589169	keystroke_e	e	n/a
294.7795	0.27	589559	keystroke_e	e	n/a
294.9745	0.1195	589949	keystroke_t	t	n/a
295.244	0.2095	590488	keystroke_u	u	n/a
295.3795	0.2545	590759	keystroke_p	p	n/a
295.574	0.1495	591148	keystroke_Key.space	Key.space	n/a
295.7685	0.1055	591537	keystroke_c	c	n/a
295.8585	0.1955	591717	keystroke_o	o	n/a
295.98	0.119	591960	keystroke_n	n	n/a
296.1435	0.181	592287	keystroke_t	t	n/a
296.2185	0.181	592437	keystroke_r	r	n/a
296.3545	0.135	592709	keystroke_i	i	n/a
296.4745	0.165	592949	keystroke_b	b	n/a
296.5945	0.195	593189	keystroke_u	u	n/a
297.3445	0.1055	594689	keystroke_t	t	n/a
297.509	0.09	595018	keystroke_o	o	n/a
297.734	0.105	595468	keystroke_r	r	n/a
297.929	0.12	595858	keystroke_s	s	n/a
298.064	0.09	596128	keystroke_Key.space	Key.space	n/a
298.184	0.151	596368	keystroke_r	r	n/a
298.274	0.12	596548	keystroke_e	e	n/a
298.544	0.105	597088	keystroke_c	c	n/a
298.724	0.075	597448	keystroke_o	o	n/a
298.814	0.075	597628	keystroke_r	r	n/a
299.009	0.075	598018	keystroke_d	d	n/a
299.234	0.075	598468	keystroke_e	e	n/a
299.399	0.09	598798	keystroke_d	d	n/a
300.764	0.135	601528	keystroke_Key.enter	Key.enter	n/a
300.9115	6.0505	601823	prompt	n/a	freight ensures boots individually\n
301.825	0.15	603650	keystroke_f	f	n/a
301.9	0.165	603800	keystroke_r	r	n/a
301.99	0.18	603980	keystroke_e	e	n/a
302.23	0.1355	604460	keystroke_i	i	n/a
302.3505	0.105	604701	keystroke_g	g	n/a
302.5305	0.105	605061	keystroke_h	h	n/a
302.6355	0.105	605271	keystroke_t	t	n/a
302.7705	0.075	605541	keystroke_Key.space	Key.space	n/a
302.9055	0.105	605811	keystroke_e	e	n/a
303.0105	0.09	606021	keystroke_n	n	n/a
303.1305	0.105	606261	keystroke_s	s	n/a
303.2655	0.105	606531	keystroke_u	u	n/a
303.3855	0.2095	606771	keystroke_r	r	n/a
303.475	0.285	606950	keystroke_e	e	n/a
303.61	0.21	607220	keystroke_s	s	n/a
303.88	0.12	607760	keystroke_Key.space	Key.space	n/a
304.1055	0.1045	608211	keystroke_b	b	n/a
304.18	0.105	608360	keystroke_o	o	n/a
304.36	0.1055	608720	keystroke_o	o	n/a
304.4355	0.21	608871	keystroke_t	t	n/a
304.5705	0.15	609141	keystroke_s	s	n/a
304.6905	0.09	609381	keystroke_Key.space	Key.space	n/a
304.8105	0.1505	609621	keystroke_i	i	n/a
304.915	0.12	609830	keystroke_n	n	n/a
305.17	0.09	610340	keystroke_d	d	n/a
305.275	0.0755	610550	keystroke_i	i	n/a
305.575	0.1725	611150	keystroke_v	v	n/a
305.783	0.015	611566	keystroke_i	i	n/a
305.813	0.016	611626	keystroke_d	d	n/a
305.843	0.061	611686	keystroke_u	u	n/a
305.919	0.105	611838	keystroke_a	a	n/a
306.069	0.075	612138	keystroke_l	l	n/a
306.249	0.09	612498	keystroke_l	l	n/a
306.37	0.104	612740	keystroke_y	y	n/a
306.879	0.075	613758	keystroke_Key.enter	Key.enter	n/a
306.9655	13.8425	613931	prompt	n/a	verizon organisation keyboards durham\n
307.719	0.075	615438	keystroke_v	v	n/a
307.929	0.165	615858	keystroke_e	e	n/a
308.019	0.135	616038	keystroke_r	r	n/a
308.169	0.105	616338	keystroke_i	i	n/a
308.259	0.12	616518	keystroke_z	z	n/a
308.394	0.195	616788	keystroke_o	o	n/a
308.499	0.165	616998	keystroke_n	n	n/a
308.649	0.105	617298	keystroke_Key.space	Key.space	n/a
308.814	0.1205	617628	keystroke_o	o	n/a
308.904	0.1045	617808	keystroke_r	r	n/a
309.2645	0.195	618529	keystroke_g	g	n/a
309.3845	0.104	618769	keystroke_a	a	n/a
309.4895	0.1195	618979	keystroke_n	n	n/a
309.564	0.2105	619128	keystroke_i	i	n/a
309.684	0.135	619368	keystroke_z	z	n/a
310.434	0.09	620868	keystroke_Key.backspace	Key.backspace	n/a
310.644	0.181	621288	keystroke_s	s	n/a
310.765	0.15	621530	keystroke_a	a	n/a
311.0785	0.1205	622157	keystroke_t	t	n/a
311.184	0.2695	622368	keystroke_i	i	n/a
311.318	0.2255	622636	keystroke_o	o	n/a
311.4385	0.12	622877	keystroke_n	n	n/a
312.174	0.105	624348	keystroke_Key.space	Key.space	n/a
312.3085	0.1065	624617	keystroke_k	k	n/a
312.37	0.104	624740	keystroke_e	e	n/a
312.519	0.105	625038	keystroke_y	y	n/a
312.744	0.15	625488	keystroke_b	b	n/a
312.864	0.1655	625728	keystroke_o	o	n/a
317.427	0.058	634854	keystroke_a	a	n/a
317.635	0.105	635270	keystroke_r	r	n/a
317.875	0.165	635750	keystroke_d	d	n/a
317.965	0.12	635930	keystroke_s	s	n/a
318.235	0.1195	636470	keystroke_Key.space	Key.space	n/a
319.2995	0.0905	638599	keystroke_d	d	n/a
319.405	0.075	638810	keystroke_u	u	n/a
319.495	0.0895	638990	keystroke_r	r	n/a
319.6	0.09	639200	keystroke_h	h	n/a
319.75	0.12	639500	keystroke_a	a	n/a
319.975	0.075	639950	keystroke_m	m	n/a
320.695	0.105	641390	keystroke_Key.enter	Key.enter	n/a
320.812	7.9435	641624	prompt	n/a	exterior where'd proposals businesses\n
321.385	0.135	642770	keystroke_e	e	n/a
321.6845	0.023	643369	keystroke_x	x	n/a
321.7635	0.0005	643527	keystroke_t	t	n/a
321.78	0.097	643560	keystroke_e	e	n/a
321.817	0.135	643634	keystroke_r	r	n/a
321.937	0.165	643874	keystroke_i	i	n/a
322.057	0.1505	644114	keystroke_o	o	n/a
322.1775	0.12	644355	keystroke_r	r	n/a
322.2675	0.1355	644535	keystroke_Key.space	Key.space	n/a
322.418	0.1195	644836	keystroke_w	w	n/a
322.523	0.0895	645046	keystroke_h	h	n/a
322.6275	0.1205	645255	keystroke_e	e	n/a
322.7025	0.1955	645405	keystroke_r	r	n/a
322.838	0.1495	645676	keystroke_e	e	n/a
322.973	0.135	645946	keystroke_'	'	n/a
323.1225	0.105	646245	keystroke_d	d	n/a
323.2425	0.12	646485	keystroke_Key.space	Key.space	n/a
323.4525	0.195	646905	keystroke_p	p	n/a
323.6025	0.135	647205	keystroke_o	o	n/a
324.0375	0.075	648075	keystroke_Key.backspace	Key.backspace	n/a
324.1425	0.12	648285	keystroke_r	r	n/a
324.3825	0.075	648765	keystroke_p	p	n/a
325.193	0.105	650386	keystroke_Key.backspace	Key.backspace	n/a
325.598	0.09	651196	keystroke_o	o	n/a
325.778	0.165	651556	keystroke_p	p	n/a
325.898	0.135	651796	keystroke_o	o	n/a
326.048	0.15	652096	keystroke_s	s	n/a
326.138	0.15	652276	keystroke_a	a	n/a
326.273	0.105	652546	keystroke_l	l	n/a
326.363	0.12	652726	keystroke_s	s	n/a
326.528	0.075	653056	keystroke_Key.space	Key.space	n/a
326.828	0.1345	653656	keystroke_b	b	n/a
326.9475	0.1045	653895	keystroke_u	u	n/a
327.1115	0.0895	654223	keystroke_s	s	n/a
327.216	0.121	654432	keystroke_i	i	n/a
327.307	0.135	654614	keystroke_n	n	n/a
327.382	0.15	654764	keystroke_e	e	n/a
327.547	0.105	655094	keystroke_s	s	n/a
327.757	0.105	655514	keystroke_s	s	n/a
328.177	0.105	656354	keystroke_e	e	n/a
328.358	0.104	656716	keystroke_s	s	n/a
328.657	0.09	657314	keystroke_Key.enter	Key.enter	n/a
328.7595	7.5045	657519	prompt	n/a	strategic conferencing websites wagner\n
329.407	0.075	658814	keystroke_s	s	n/a
329.587	0.15	659174	keystroke_t	t	n/a
329.677	0.105	659354	keystroke_r	r	n/a
329.857	0.105	659714	keystroke_a	a	n/a
330.067	0.135	660134	keystroke_t	t	n/a
330.142	0.135	660284	keystroke_e	e	n/a
330.382	0.105	660764	keystroke_g	g	n/a
330.503	0.104	661006	keystroke_i	i	n/a
330.788	0.03	661576	keystroke_c	c	n/a
330.862	0.09	661724	keystroke_Key.space	Key.space	n/a
331.192	0.18	662384	keystroke_c	c	n/a
331.357	0.105	662714	keystroke_o	o	n/a
331.387	0.12	662774	keystroke_n	n	n/a
331.492	0.12	662984	keystroke_f	f	n/a
331.718	0.149	663436	keystroke_e	e	n/a
331.807	0.24	663614	keystroke_r	r	n/a
331.942	0.18	663884	keystroke_e	e	n/a
332.212	0.105	664424	keystroke_n	n	n/a
332.363	0.149	664726	keystroke_c	c	n/a
332.497	0.15	664994	keystroke_i	i	n/a
332.617	0.1215	665234	keystroke_n	n	n/a
332.722	0.09	665444	keystroke_g	g	n/a
332.842	0.105	665684	keystroke_Key.space	Key.space	n/a
332.962	0.195	665924	keystroke_w	w	n/a
333.0985	0.1635	666197	keystroke_e	e	n/a
333.337	0.106	666674	keystroke_b	b	n/a
333.457	0.105	666914	keystroke_s	s	n/a
333.593	0.09	667186	keystroke_i	i	n/a
333.697	0.241	667394	keystroke_t	t	n/a
333.818	0.254	667636	keystroke_e	e	n/a
333.953	0.18	667906	keystroke_s	s	n/a
334.297	0.106	668594	keystroke_Key.space	Key.space	n/a
334.492	0.241	668984	keystroke_w	w	n/a
334.628	0.36	669256	keystroke_a	a	n/a
335.003	0.029	670006	keystroke_g	g	n/a
335.093	0.134	670186	keystroke_n	n	n/a
335.1975	0.15	670395	keystroke_e	e	n/a
335.3175	0.105	670635	keystroke_r	r	n/a
336.158	0.105	672316	keystroke_Key.enter	Key.enter	n/a
336.2665	5.4575	672533	prompt	n/a	radiation needs seal nutten\n
336.908	0.165	673816	keystroke_r	r	n/a
337.013	0.135	674026	keystroke_a	a	n/a
337.253	0.09	674506	keystroke_d	d	n/a
337.358	0.104	674716	keystroke_i	i	n/a
337.448	0.075	674896	keystroke_a	a	n/a
337.658	0.12	675316	keystroke_t	t	n/a
337.898	0.18	675796	keystroke_i	i	n/a
338.018	0.27	676036	keystroke_o	o	n/a
338.138	0.18	676276	keystroke_n	n	n/a
338.5425	0.1055	677085	keystroke_Key.space	Key.space	n/a
338.678	0.135	677356	keystroke_n	n	n/a
338.708	0.12	677416	keystroke_e	e	n/a
338.903	0.09	677806	keystroke_e	e	n/a
339.128	0.18	678256	keystroke_d	d	n/a
339.233	0.15	678466	keystroke_s	s	n/a
339.368	0.105	678736	keystroke_Key.space	Key.space	n/a
339.488	0.15	678976	keystroke_s	s	n/a
339.608	0.21	679216	keystroke_e	e	n/a
339.758	0.165	679516	keystroke_a	a	n/a
339.878	0.12	679756	keystroke_l	l	n/a
339.968	0.075	679936	keystroke_Key.space	Key.space	n/a
340.088	0.15	680176	keystroke_n	n	n/a
340.193	0.18	680386	keystroke_u	u	n/a
340.283	0.075	680566	keystroke_t	t	n/a
340.448	0.165	680896	keystroke_t	t	n/a
340.538	0.165	681076	keystroke_e	e	n/a
340.733	0.15	681466	keystroke_n	n	n/a
341.588	0.135	683176	keystroke_Key.enter	Key.enter	n/a
341.728	7.8735	683456	prompt	n/a	chancellor relatively returns torture\n
342.473	0.24	684946	keystroke_c	c	n/a
342.653	0.195	685306	keystroke_a	a	n/a
343.4625	0.06	686925	keystroke_Key.backspace	Key.backspace	n/a
343.7185	0.119	687437	keystroke_h	h	n/a
343.9725	0.076	687945	keystroke_a	a	n/a
344.1375	0.09	688275	keystroke_n	n	n/a
344.2285	0.089	688457	keystroke_c	c	n/a
344.4085	0.074	688817	keystroke_e	e	n/a
344.5275	0.015	689055	keystroke_l	l	n/a
344.6325	0.045	689265	keystroke_l	l	n/a
344.7975	0.09	689595	keystroke_o	o	n/a
344.9175	0.105	689835	keystroke_r	r	n/a
345.0375	0.075	690075	keystroke_Key.space	Key.space	n/a
345.1275	0.135	690255	keystroke_r	r	n/a
345.1875	0.15	690375	keystroke_e	e	n/a
345.3525	0.0905	690705	keystroke_l	l	n/a
345.4575	0.09	690915	keystroke_a	a	n/a
345.6825	0.09	691365	keystroke_t	t	n/a
345.8175	0.135	691635	keystroke_i	i	n/a
346.0275	0.18	692055	keystroke_v	v	n/a
346.1475	0.15	692295	keystroke_e	e	n/a
346.3425	0.12	692685	keystroke_l	l	n/a
346.4475	0.135	692895	keystroke_y	y	n/a
346.5835	0.104	693167	keystroke_Key.space	Key.space	n/a
346.7625	0.2255	693525	keystroke_r	r	n/a
346.8525	0.1505	693705	keystroke_e	e	n/a
347.153	0.1345	694306	keystroke_t	t	n/a
347.3175	0.1485	694635	keystroke_u	u	n/a
347.467	0.041	694934	keystroke_r	r	n/a
347.658	0.1205	695316	keystroke_n	n	n/a
347.8235	0.045	695647	keystroke_s	s	n/a
347.9135	0.1045	695827	keystroke_Key.space	Key.space	n/a
348.033	0.105	696066	keystroke_t	t	n/a
348.153	0.09	696306	keystroke_o	o	n/a
348.378	0.09	696756	keystroke_r	r	n/a
348.693	0.09	697386	keystroke_t	t	n/a
348.8285	0.12	697657	keystroke_u	u	n/a
348.9635	0.18	697927	keystroke_r	r	n/a
349.0685	0.135	698137	keystroke_e	e	n/a
349.4435	0.15	698887	keystroke_Key.enter	Key.enter	n/a
349.605	6.3245	699210	prompt	n/a	homepage sword operated raymond\n
350.538	0.105	701076	keystroke_h	h	n/a
350.614	0.239	701228	keystroke_o	o	n/a
350.808	0.1505	701616	keystroke_m	m	n/a
350.9435	0.1345	701887	keystroke_e	e	n/a
351.2885	0.15	702577	keystroke_p	p	n/a
351.3785	0.09	702757	keystroke_a	a	n/a
351.573	0.1955	703146	keystroke_g	g	n/a
351.6635	0.18	703327	keystroke_e	e	n/a
351.903	0.1055	703806	keystroke_Key.space	Key.space	n/a
352.0235	0.135	704047	keystroke_s	s	n/a
352.2785	0.105	704557	keystroke_w	w	n/a
352.5935	0.105	705187	keystroke_o	o	n/a
352.6835	0.105	705367	keystroke_r	r	n/a
352.908	0.09	705816	keystroke_d	d	n/a
353.013	0.09	706026	keystroke_Key.space	Key.space	n/a
353.163	0.09	706326	keystroke_o	o	n/a
353.358	0.09	706716	keystroke_p	p	n/a
353.4635	0.1645	706927	keystroke_e	e	n/a
353.568	0.136	707136	keystroke_r	r	n/a
353.7635	0.075	707527	keystroke_a	a	n/a
353.959	0.135	707918	keystroke_t	t	n/a
354.019	0.135	708038	keystroke_e	e	n/a
354.259	0.09	708518	keystroke_d	d	n/a
354.379	0.105	708758	keystroke_Key.space	Key.space	n/a
354.529	0.21	709058	keystroke_r	r	n/a
354.634	0.15	709268	keystroke_a	a	n/a
354.799	0.074	709598	keystroke_y	y	n/a
355.0245	0.149	710049	keystroke_m	m	n/a
355.0985	0.271	710197	keystroke_o	o	n/a
355.264	0.1645	710528	keystroke_n	n	n/a
355.503	0.075	711006	keystroke_d	d	n/a
355.884	0.044	711768	keystroke_Key.enter	Key.enter	n/a
355.932	5.849	711864	prompt	n/a	fireplace janet swap shuttle\n
356.6195	0.1195	713239	keystroke_f	f	n/a
356.769	0.15	713538	keystroke_i	i	n/a
356.904	0.165	713808	keystroke_r	r	n/a
356.979	0.15	713958	keystroke_e	e	n/a
357.309	0.18	714618	keystroke_p	p	n/a
357.414	0.165	714828	keystroke_l	l	n/a
357.534	0.225	715068	keystroke_a	a	n/a
357.714	0.195	715428	keystroke_c	c	n/a
357.819	0.195	715638	keystroke_e	e	n/a
357.999	0.1355	715998	keystroke_Key.space	Key.space	n/a
358.3445	0.075	716689	keystroke_j	j	n/a
358.4045	0.105	716809	keystroke_a	a	n/a
358.5245	0.105	717049	keystroke_n	n	n/a
358.6595	0.2545	717319	keystroke_e	e	n/a
358.81	0.15	717620	keystroke_t	t	n/a
358.974	0.121	717948	keystroke_Key.space	Key.space	n/a
359.095	0.09	718190	keystroke_s	s	n/a
359.305	0.225	718610	keystroke_w	w	n/a
359.425	0.165	718850	keystroke_a	a	n/a
359.65	0.195	719300	keystroke_p	p	n/a
359.785	0.135	719570	keystroke_Key.space	Key.space	n/a
360.534	0.12	721068	keystroke_s	s	n/a
360.699	0.1805	721398	keystroke_h	h	n/a
360.8195	0.15	721639	keystroke_u	u	n/a
360.9545	0.06	721909	keystroke_t	t	n/a
361.1195	0.075	722239	keystroke_t	t	n/a
361.2395	0.15	722479	keystroke_l	l	n/a
361.4195	0.0905	722839	keystroke_e	e	n/a
361.6745	0.1055	723349	keystroke_Key.enter	Key.enter	n/a
361.785	5.0385	723570	prompt	n/a	reader asus subject adidas\n
362.3795	0.276	724759	keystroke_r	r	n/a
362.632	0.0235	725264	keystroke_e	e	n/a
362.715	0.0395	725430	keystroke_a	a	n/a
362.74	0.0705	725480	keystroke_d	d	n/a
363.157	0.18	726314	keystroke_e	e	n/a
363.247	0.15	726494	keystroke_r	r	n/a
363.412	0.105	726824	keystroke_Key.space	Key.space	n/a
363.502	0.165	727004	keystroke_a	a	n/a
363.622	0.105	727244	keystroke_s	s	n/a
363.757	0.135	727514	keystroke_u	u	n/a
363.862	0.105	727724	keystroke_s	s	n/a
363.982	0.09	727964	keystroke_Key.space	Key.space	n/a
364.3275	0.165	728655	keystroke_s	s	n/a
364.4775	0.15	728955	keystroke_u	u	n/a
364.5675	0.12	729135	keystroke_b	b	n/a
364.9275	0.135	729855	keystroke_j	j	n/a
365.0175	0.105	730035	keystroke_e	e	n/a
365.2725	0.12	730545	keystroke_c	c	n/a
365.3925	0.12	730785	keystroke_t	t	n/a
365.4515	0.135	730903	keystroke_Key.space	Key.space	n/a
365.7075	0.1355	731415	keystroke_a	a	n/a
365.918	0.0895	731836	keystroke_d	d	n/a
366.0375	0.0755	732075	keystroke_i	i	n/a
366.173	0.2095	732346	keystroke_d	d	n/a
366.293	0.2285	732586	keystroke_a	a	n/a
366.555	0.009	733110	keystroke_s	s	n/a
366.7165	0.1055	733433	keystroke_Key.enter	Key.enter	n/a
366.833	8.161	733666	prompt	n/a	phantom leather andorra pressure\n
367.663	0.255	735326	keystroke_p	p	n/a
367.873	0.12	735746	keystroke_h	h	n/a
368.008	0.075	736016	keystroke_a	a	n/a
368.0975	0.105	736195	keystroke_n	n	n/a
368.2325	0.09	736465	keystroke_t	t	n/a
368.3375	0.24	736675	keystroke_o	o	n/a
368.4875	0.135	736975	keystroke_m	m	n/a
368.5625	0.12	737125	keystroke_Key.space	Key.space	n/a
368.7275	0.12	737455	keystroke_l	l	n/a
368.7875	0.21	737575	keystroke_e	e	n/a
368.9075	0.135	737815	keystroke_a	a	n/a
369.1175	0.1045	738235	keystroke_t	t	n/a
369.297	0.09	738594	keystroke_h	h	n/a
369.312	0.2275	738624	keystroke_e	e	n/a
369.492	0.0775	738984	keystroke_r	r	n/a
369.5845	0.075	739169	keystroke_Key.space	Key.space	n/a
369.6895	0.151	739379	keystroke_a	a	n/a
369.9755	0.15	739951	keystroke_n	n	n/a
370.0955	0.165	740191	keystroke_o	o	n/a
370.4405	0.1355	740881	keystroke_r	r	n/a
370.756	0.09	741512	keystroke_a	a	n/a
370.936	0.12	741872	keystroke_a	a	n/a
371.656	0.06	743312	keystroke_Key.backspace	Key.backspace	n/a
371.791	0.105	743582	keystroke_Key.backspace	Key.backspace	n/a
371.911	0.105	743822	keystroke_r	r	n/a
372.061	0.15	744122	keystroke_a	a	n/a
372.9305	0.135	745861	keystroke_Key.space	Key.space	n/a
373.1855	0.15	746371	keystroke_p	p	n/a
373.516	0.1495	747032	keystroke_r	r	n/a
373.6055	0.165	747211	keystroke_e	e	n/a
373.786	0.075	747572	keystroke_s	s	n/a
373.951	0.09	747902	keystroke_s	s	n/a
374.056	0.12	748112	keystroke_u	u	n/a
374.191	0.135	748382	keystroke_r	r	n/a
374.311	0.105	748622	keystroke_e	e	n/a
374.896	0.09	749792	keystroke_Key.enter	Key.enter	n/a
374.9985	8.3765	749997	prompt	n/a	polish sophisticated neon someone's\n
375.9375	0.1355	751875	keystroke_p	p	n/a
376.0275	0.1215	752055	keystroke_o	o	n/a
376.224	0.09	752448	keystroke_l	l	n/a
376.4195	0.09	752839	keystroke_i	i	n/a
376.583	0.12	753166	keystroke_s	s	n/a
376.7345	0.164	753469	keystroke_h	h	n/a
376.8385	0.1205	753677	keystroke_Key.space	Key.space	n/a
377.2885	0.105	754577	keystroke_s	s	n/a
377.5735	0.09	755147	keystroke_o	o	n/a
377.7385	0.165	755477	keystroke_p	p	n/a
377.8735	0.166	755747	keystroke_h	h	n/a
377.9635	0.1655	755927	keystroke_i	i	n/a
378.6835	0.105	757367	keystroke_s	s	n/a
379.0585	0.105	758117	keystroke_t	t	n/a
379.387	0.0725	758774	keystroke_i	i	n/a
379.5045	0.0515	759009	keystroke_c	c	n/a
379.5315	0.0395	759063	keystroke_a	a	n/a
379.586	0.105	759172	keystroke_t	t	n/a
379.661	0.12	759322	keystroke_e	e	n/a
379.841	0.1205	759682	keystroke_d	d	n/a
379.946	0.12	759892	keystroke_Key.space	Key.space	n/a
380.2315	0.105	760463	keystroke_n	n	n/a
380.3515	0.105	760703	keystroke_e	e	n/a
380.5165	0.2555	761033	keystroke_o	o	n/a
380.712	0.21	761424	keystroke_n	n	n/a
380.861	0.121	761722	keystroke_Key.space	Key.space	n/a
381.432	0.12	762864	keystroke_s	s	n/a
381.522	0.195	763044	keystroke_o	o	n/a
381.657	0.105	763314	keystroke_m	m	n/a
381.777	0.12	763554	keystroke_e	e	n/a
381.882	0.1645	763764	keystroke_o	o	n/a
381.927	0.1645	763854	keystroke_n	n	n/a
382.1215	0.135	764243	keystroke_e	e	n/a
382.302	0.135	764604	keystroke_'	'	n/a
382.452	0.1195	764904	keystroke_s	s	n/a
382.6465	0.06	765293	keystroke_Key.space	Key.space	n/a
383.0365	0.075	766073	keystroke_Key.backspace	Key.backspace	n/a
383.2915	0.075	766583	keystroke_Key.enter	Key.enter	n/a
383.379	8.401	766758	prompt	n/a	voice shakespeare playback slots\n
384.3565	0.09	768713	keystroke_v	v	n/a
384.4615	0.21	768923	keystroke_o	o	n/a
384.582	0.165	769164	keystroke_i	i	n/a
384.6865	0.1205	769373	keystroke_c	c	n/a
384.837	0.135	769674	keystroke_e	e	n/a
384.957	0.105	769914	keystroke_Key.space	Key.space	n/a
385.047	0.105	770094	keystroke_s	s	n/a
385.122	0.105	770244	keystroke_h	h	n/a
385.272	0.12	770544	keystroke_a	a	n/a
385.437	0.135	770874	keystroke_k	k	n/a
385.7365	0.135	771473	keystroke_e	e	n/a
386.832	0.12	773664	keystroke_s	s	n/a
387.0125	0.1795	774025	keystroke_p	p	n/a
387.1325	0.1195	774265	keystroke_e	e	n/a
387.4775	0.1195	774955	keystroke_a	a	n/a
387.8075	0.2245	775615	keystroke_r	r	n/a
387.9275	0.165	775855	keystroke_e	e	n/a
388.906	0.1205	777812	keystroke_Key.space	Key.space	n/a
389.1015	0.255	778203	keystroke_p	p	n/a
389.2665	0.165	778533	keystroke_l	l	n/a
389.6415	0.105	779283	keystroke_a	a	n/a
389.7765	0.09	779553	keystroke_y	y	n/a
389.9865	0.09	779973	keystroke_b	b	n/a
390.0915	0.21	780183	keystroke_a	a	n/a
390.2865	0.12	780573	keystroke_c	c	n/a
390.3915	0.18	780783	keystroke_k	k	n/a
390.4815	0.135	780963	keystroke_Key.space	Key.space	n/a
390.7215	0.09	781443	keystroke_s	s	n/a
390.8265	0.075	781653	keystroke_l	l	n/a
391.0215	0.09	782043	keystroke_o	o	n/a
391.1265	0.225	782253	keystroke_t	t	n/a
391.2765	0.15	782553	keystroke_s	s	n/a
391.6665	0.1055	783333	keystroke_Key.enter	Key.enter	n/a
391.7835	7.877	783567	prompt	n/a	potter there'll text pending\n
392.897	0.18	785794	keystroke_p	p	n/a
393.017	0.165	786034	keystroke_o	o	n/a
393.347	0.075	786694	keystroke_t	t	n/a
393.497	0.105	786994	keystroke_t	t	n/a
393.617	0.21	787234	keystroke_e	e	n/a
393.737	0.18	787474	keystroke_r	r	n/a
393.932	0.0145	787864	keystroke_Key.space	Key.space	n/a
393.9615	0.1205	787923	keystroke_t	t	n/a
394.067	0.09	788134	keystroke_h	h	n/a
394.112	0.15	788224	keystroke_e	e	n/a
394.247	0.195	788494	keystroke_r	r	n/a
394.367	0.135	788734	keystroke_e	e	n/a
394.502	0.12	789004	keystroke_'	'	n/a
394.832	0.09	789664	keystroke_l	l	n/a
394.982	0.15	789964	keystroke_l	l	n/a
395.087	0.12	790174	keystroke_Key.space	Key.space	n/a
395.162	0.1345	790324	keystroke_t	t	n/a
395.2515	0.1355	790503	keystroke_e	e	n/a
395.552	0.105	791104	keystroke_x	x	n/a
395.627	0.105	791254	keystroke_t	t	n/a
395.702	0.105	791404	keystroke_Key.space	Key.space	n/a
395.897	0.09	791794	keystroke_o	o	n/a
395.972	0.09	791944	keystroke_e	e	n/a
396.062	0.1195	792124	keystroke_n	n	n/a
396.271	0.169	792542	keystroke_d	d	n/a
396.4915	0.0315	792983	keystroke_i	i	n/a
396.508	0.143	793016	keystroke_n	n	n/a
396.666	0.015	793332	keystroke_g	g	n/a
396.696	0.03	793392	keystroke_Key.backspace	Key.backspace	n/a
396.831	0.06	793662	keystroke_Key.backspace	Key.backspace	n/a
397.0115	0.06	794023	keystroke_Key.backspace	Key.backspace	n/a
397.1765	0.075	794353	keystroke_Key.backspace	Key.backspace	n/a
397.3565	0.06	794713	keystroke_Key.backspace	Key.backspace	n/a
397.5515	0.06	795103	keystroke_Key.backspace	Key.backspace	n/a
397.8965	0.075	795793	keystroke_Key.backspace	Key.backspace	n/a
398.2715	0.105	796543	keystroke_p	p	n/a
398.3615	0.09	796723	keystroke_e	e	n/a
398.4815	0.09	796963	keystroke_n	n	n/a
398.5865	0.12	797173	keystroke_d	d	n/a
398.7215	0.15	797443	keystroke_i	i	n/a
398.8115	0.15	797623	keystroke_n	n	n/a
398.9465	0.09	797893	keystroke_g	g	n/a
399.5615	0.09	799123	keystroke_Key.enter	Key.enter	n/a
399.665	5.5685	799330	prompt	n/a	warrant finances visa substances\n
400.1615	0.165	800323	keystroke_w	w	n/a
400.2665	0.1055	800533	keystroke_a	a	n/a
400.4615	0.075	800923	keystroke_r	r	n/a
400.5965	0.1955	801193	keystroke_r	r	n/a
400.7165	0.135	801433	keystroke_a	a	n/a
400.8965	0.12	801793	keystroke_n	n	n/a
401.0015	0.09	802003	keystroke_t	t	n/a
401.122	0.09	802244	keystroke_Key.space	Key.space	n/a
401.2715	0.105	802543	keystroke_f	f	n/a
401.3465	0.12	802693	keystroke_i	i	n/a
401.4815	0.0905	802963	keystroke_n	n	n/a
401.602	0.1045	803204	keystroke_a	a	n/a
401.6765	0.1055	803353	keystroke_n	n	n/a
401.872	0.105	803744	keystroke_c	c	n/a
402.1265	0.2255	804253	keystroke_e	e	n/a
402.2315	0.1955	804463	keystroke_s	s	n/a
402.892	0.105	805784	keystroke_Key.space	Key.space	n/a
403.057	0.105	806114	keystroke_v	v	n/a
403.177	0.12	806354	keystroke_i	i	n/a
403.342	0.18	806684	keystroke_s	s	n/a
403.432	0.18	806864	keystroke_a	a	n/a
403.627	0.15	807254	keystroke_Key.space	Key.space	n/a
403.8365	0.1645	807673	keystroke_s	s	n/a
403.956	0.1715	807912	keystroke_u	u	n/a
404.105	0.0225	808210	keystroke_b	b	n/a
404.2205	0.016	808441	keystroke_s	s	n/a
404.281	0.039	808562	keystroke_t	t	n/a
404.348	0.058	808696	keystroke_a	a	n/a
404.406	0.018	808812	keystroke_n	n	n/a
404.4505	0.075	808901	keystroke_c	c	n/a
404.6445	0.183	809289	keystroke_e	e	n/a
404.7525	0.165	809505	keystroke_s	s	n/a
405.1275	0.105	810255	keystroke_Key.enter	Key.enter	n/a
405.236	6.1555	810472	prompt	n/a	dicke belly gras gentle\n
406.102	0.105	812204	keystroke_d	d	n/a
406.222	0.075	812444	keystroke_i	i	n/a
406.312	0.105	812624	keystroke_c	c	n/a
406.402	0.105	812804	keystroke_k	k	n/a
406.552	0.165	813104	keystroke_e	e	n/a
407.3465	0.061	814693	keystroke_Key.space	Key.space	n/a
407.497	0.0895	814994	keystroke_b	b	n/a
407.572	0.0895	815144	keystroke_e	e	n/a
407.6915	0.0905	815383	keystroke_l	l	n/a
407.857	0.09	815714	keystroke_l	l	n/a
407.932	0.1355	815864	keystroke_y	y	n/a
408.1265	0.09	816253	keystroke_Key.space	Key.space	n/a
408.9225	0.15	817845	keystroke_g	g	n/a
408.9825	0.1645	817965	keystroke_r	r	n/a
409.237	0.1955	818474	keystroke_a	a	n/a
409.3575	0.15	818715	keystroke_s	s	n/a
409.5525	0.09	819105	keystroke_Key.space	Key.space	n/a
410.2425	0.2245	820485	keystroke_g	g	n/a
410.3175	0.1645	820635	keystroke_e	e	n/a
410.556	0.0835	821112	keystroke_n	n	n/a
410.6395	0	821279	keystroke_t	t	n/a
410.664	0.0155	821328	keystroke_l	l	n/a
410.6755	0.004	821351	keystroke_e	e	n/a
411.3	0.0905	822600	keystroke_Key.enter	Key.enter	n/a
411.3945	7.478	822789	prompt	n/a	affects fujitsu cattle fabric\n
412.035	0.1055	824070	keystroke_a	a	n/a
412.2605	0.045	824521	keystroke_f	f	n/a
412.4105	0.21	824821	keystroke_f	f	n/a
412.5305	0.165	825061	keystroke_e	e	n/a
412.905	0.09	825810	keystroke_c	c	n/a
413.205	0.21	826410	keystroke_t	t	n/a
413.34	0.15	826680	keystroke_s	s	n/a
413.505	0.105	827010	keystroke_Key.space	Key.space	n/a
413.76	0.105	827520	keystroke_f	f	n/a
414.7355	0.1045	829471	keystroke_u	u	n/a
415.545	0.09	831090	keystroke_j	j	n/a
415.755	0.12	831510	keystroke_i	i	n/a
415.89	0.075	831780	keystroke_t	t	n/a
416.07	0.105	832140	keystroke_s	s	n/a
416.205	0.165	832410	keystroke_u	u	n/a
416.31	0.135	832620	keystroke_Key.space	Key.space	n/a
416.685	0.195	833370	keystroke_c	c	n/a
416.79	0.15	833580	keystroke_a	a	n/a
417.12	0.06	834240	keystroke_t	t	n/a
417.255	0.105	834510	keystroke_t	t	n/a
417.345	0.12	834690	keystroke_l	l	n/a
417.435	0.12	834870	keystroke_e	e	n/a
417.57	0.09	835140	keystroke_Key.space	Key.space	n/a
418.05	0.18	836100	keystroke_f	f	n/a
418.155	0.2095	836310	keystroke_a	a	n/a
418.32	0.0595	836640	keystroke_b	b	n/a
418.558	0.0655	837116	keystroke_r	r	n/a
418.6225	0.053	837245	keystroke_i	i	n/a
418.676	0.0715	837352	keystroke_c	c	n/a
418.76	0.1045	837520	keystroke_Key.enter	Key.enter	n/a
418.8765	5.69	837753	prompt	n/a	entitled clay anniversary kitty\n
419.4955	0.105	838991	keystroke_e	e	n/a
419.6155	0.09	839231	keystroke_n	n	n/a
419.7205	0.075	839441	keystroke_t	t	n/a
419.8105	0.075	839621	keystroke_i	i	n/a
419.9005	0.105	839801	keystroke_t	t	n/a
420.0655	0.105	840131	keystroke_l	l	n/a
420.2155	0.105	840431	keystroke_e	e	n/a
420.4255	0.105	840851	keystroke_d	d	n/a
420.5455	0.09	841091	keystroke_Key.space	Key.space	n/a
421.1005	0.12	842201	keystroke_c	c	n/a
421.1905	0.09	842381	keystroke_l	l	n/a
421.3405	0.135	842681	keystroke_a	a	n/a
421.4295	0.211	842859	keystroke_y	y	n/a
421.5805	0.12	843161	keystroke_Key.space	Key.space	n/a
421.7155	0.15	843431	keystroke_a	a	n/a
421.8505	0.074	843701	keystroke_n	n	n/a
422	0.15	844000	keystroke_n	n	n/a
422.09	0.165	844180	keystroke_i	i	n/a
422.27	0.1355	844540	keystroke_v	v	n/a
422.5695	0.15	845139	keystroke_e	e	n/a
422.6445	0.15	845289	keystroke_r	r	n/a
422.885	0.1645	845770	keystroke_s	s	n/a
422.9745	0.1805	845949	keystroke_a	a	n/a
423.185	0.136	846370	keystroke_r	r	n/a
423.305	0.165	846610	keystroke_y	y	n/a
423.425	0.105	846850	keystroke_Key.space	Key.space	n/a
423.65	0.09	847300	keystroke_k	k	n/a
423.815	0.09	847630	keystroke_i	i	n/a
423.92	0.075	847840	keystroke_t	t	n/a
424.04	0.09	848080	keystroke_t	t	n/a
424.175	0.105	848350	keystroke_y	y	n/a
424.445	0.12	848890	keystroke_Key.enter	Key.enter	n/a
424.5705	8.749	849141	prompt	n/a	spreading findarticles assault pencil\n
425.195	0.1355	850390	keystroke_s	s	n/a
425.3155	0.165	850631	keystroke_p	p	n/a
425.4505	0.15	850901	keystroke_r	r	n/a
425.5555	0.135	851111	keystroke_e	e	n/a
425.7055	0.195	851411	keystroke_a	a	n/a
425.8555	0.135	851711	keystroke_d	d	n/a
425.9755	0.165	851951	keystroke_i	i	n/a
426.0805	0.3295	852161	keystroke_n	n	n/a
426.2755	0.1945	852551	keystroke_g	g	n/a
426.485	0.0145	852970	keystroke_Key.space	Key.space	n/a
427.0855	0.09	854171	keystroke_f	f	n/a
427.2055	0.21	854411	keystroke_i	i	n/a
427.3255	0.15	854651	keystroke_n	n	n/a
427.9255	0.15	855851	keystroke_d	d	n/a
428.1205	0.15	856241	keystroke_a	a	n/a
428.3005	0.09	856601	keystroke_r	r	n/a
428.6005	0.06	857201	keystroke_t	t	n/a
428.9005	0.045	857801	keystroke_c	c	n/a
429.2155	0.074	858431	keystroke_Key.backspace	Key.backspace	n/a
429.4705	0.105	858941	keystroke_i	i	n/a
429.6505	0.1345	859301	keystroke_c	c	n/a
429.83	0.105	859660	keystroke_l	l	n/a
429.98	0.225	859960	keystroke_e	e	n/a
430.1155	0.1795	860231	keystroke_s	s	n/a
430.4005	0.1045	860801	keystroke_Key.space	Key.space	n/a
430.52	0.12	861040	keystroke_a	a	n/a
430.7	0.1055	861400	keystroke_s	s	n/a
430.9105	0.2095	861821	keystroke_s	s	n/a
431.0305	0.1495	862061	keystroke_a	a	n/a
431.195	0.075	862390	keystroke_u	u	n/a
431.4205	0.1045	862841	keystroke_l	l	n/a
431.495	0.1355	862990	keystroke_t	t	n/a
431.6455	0.09	863291	keystroke_Key.space	Key.space	n/a
431.7655	0.135	863531	keystroke_p	p	n/a
431.915	0.0905	863830	keystroke_e	e	n/a
432.0055	0.105	864011	keystroke_n	n	n/a
432.635	0.106	865270	keystroke_c	c	n/a
432.726	0.074	865452	keystroke_i	i	n/a
432.936	0.105	865872	keystroke_l	l	n/a
433.236	0.074	866472	keystroke_Key.enter	Key.enter	n/a
433.325	5.311	866650	prompt	n/a	taught graham offices brass\n
434	0.269	868000	keystroke_t	t	n/a
434.12	0.373	868240	keystroke_a	a	n/a
434.364	0.16	868728	keystroke_u	u	n/a
434.509	0.03	869018	keystroke_g	g	n/a
434.5535	0.03	869107	keystroke_h	h	n/a
434.5685	0.03	869137	keystroke_t	t	n/a
434.6135	0.06	869227	keystroke_Key.space	Key.space	n/a
434.7185	0.15	869437	keystroke_g	g	n/a
434.7935	0.1355	869587	keystroke_r	r	n/a
435.139	0.135	870278	keystroke_a	a	n/a
435.7395	0.09	871479	keystroke_h	h	n/a
435.8295	0.12	871659	keystroke_a	a	n/a
435.9795	0.135	871959	keystroke_m	m	n/a
436.0845	0.105	872169	keystroke_Key.space	Key.space	n/a
436.2195	0.105	872439	keystroke_o	o	n/a
436.3395	0.0745	872679	keystroke_f	f	n/a
436.489	0.0905	872978	keystroke_f	f	n/a
436.5645	0.0895	873129	keystroke_i	i	n/a
436.714	0.12	873428	keystroke_c	c	n/a
436.9245	0.21	873849	keystroke_e	e	n/a
437.0745	0.21	874149	keystroke_s	s	n/a
437.3295	0.135	874659	keystroke_Key.space	Key.space	n/a
437.5845	0.105	875169	keystroke_b	b	n/a
437.7045	0.15	875409	keystroke_r	r	n/a
437.8095	0.195	875619	keystroke_a	a	n/a
438.0345	0.1055	876069	keystroke_s	s	n/a
438.229	0.075	876458	keystroke_s	s	n/a
438.544	0.09	877088	keystroke_Key.enter	Key.enter	n/a
438.639	7.0385	877278	prompt	n/a	stevens administered purple charge\n
439.204	0.09	878408	keystroke_s	s	n/a
439.489	0.12	878978	keystroke_t	t	n/a
439.564	0.105	879128	keystroke_e	e	n/a
439.789	0.136	879578	keystroke_v	v	n/a
439.865	0.135	879730	keystroke_e	e	n/a
440.045	0.134	880090	keystroke_n	n	n/a
440.315	0.15	880630	keystroke_s	s	n/a
440.48	0.09	880960	keystroke_Key.space	Key.space	n/a
440.6895	0.255	881379	keystroke_a	a	n/a
440.824	0.0905	881648	keystroke_f	f	n/a
441.2745	0.0895	882549	keystroke_Key.backspace	Key.backspace	n/a
441.5595	0.12	883119	keystroke_d	d	n/a
441.7545	0.135	883509	keystroke_m	m	n/a
441.8595	0.15	883719	keystroke_i	i	n/a
441.9795	0.165	883959	keystroke_n	n	n/a
442.0995	0.15	884199	keystroke_i	i	n/a
442.2645	0.1195	884529	keystroke_s	s	n/a
442.5635	0.148	885127	keystroke_t	t	n/a
442.7395	0.0085	885479	keystroke_e	e	n/a
442.74	0.135	885480	keystroke_r	r	n/a
442.8065	0.0855	885613	keystroke_e	e	n/a
442.907	0.015	885814	keystroke_d	d	n/a
443.179	0.105	886358	keystroke_Key.space	Key.space	n/a
443.449	0.18	886898	keystroke_p	p	n/a
443.554	0.15	887108	keystroke_u	u	n/a
443.689	0.15	887378	keystroke_r	r	n/a
443.824	0.27	887648	keystroke_p	p	n/a
443.959	0.24	887918	keystroke_l	l	n/a
444.184	0.09	888368	keystroke_e	e	n/a
444.3335	0.1055	888667	keystroke_Key.space	Key.space	n/a
444.604	0.1355	889208	keystroke_c	c	n/a
444.7245	0.12	889449	keystroke_h	h	n/a
444.8145	0.105	889629	keystroke_a	a	n/a
445.0395	0.0895	890079	keystroke_r	r	n/a
445.0995	0.195	890199	keystroke_g	g	n/a
445.2485	0.09	890497	keystroke_e	e	n/a
445.5795	0.09	891159	keystroke_Key.enter	Key.enter	n/a
445.681	6.6645	891362	prompt	n/a	federal messenger medicaid desert\n
446.3745	0.18	892749	keystroke_f	f	n/a
446.4795	0.135	892959	keystroke_e	e	n/a
446.7495	0.12	893499	keystroke_d	d	n/a
446.8995	0.225	893799	keystroke_e	e	n/a
447.0495	0.195	894099	keystroke_r	r	n/a
447.2145	0.135	894429	keystroke_a	a	n/a
447.3195	0.135	894639	keystroke_l	l	n/a
447.4095	0.165	894819	keystroke_Key.space	Key.space	n/a
447.828	0.0375	895656	keystroke_m	m	n/a
447.8555	0.036	895711	keystroke_e	e	n/a
447.8805	0.011	895761	keystroke_s	s	n/a
447.892	0.0115	895784	keystroke_s	s	n/a
447.892	0.0715	895784	keystroke_e	e	n/a
447.9485	0.1045	895897	keystroke_n	n	n/a
448.264	0.135	896528	keystroke_g	g	n/a
448.369	0.27	896738	keystroke_e	e	n/a
448.534	0.21	897068	keystroke_r	r	n/a
448.729	0.075	897458	keystroke_Key.space	Key.space	n/a
448.864	0.105	897728	keystroke_m	m	n/a
448.924	0.105	897848	keystroke_e	e	n/a
449.104	0.12	898208	keystroke_d	d	n/a
449.209	0.105	898418	keystroke_i	i	n/a
449.329	0.15	898658	keystroke_c	c	n/a
449.404	0.165	898808	keystroke_a	a	n/a
449.554	0.105	899108	keystroke_i	i	n/a
449.674	0.135	899348	keystroke_d	d	n/a
449.809	0.12	899618	keystroke_Key.space	Key.space	n/a
449.944	0.12	899888	keystroke_d	d	n/a
450.1995	0.1795	900399	keystroke_e	e	n/a
450.3645	0.0445	900729	keystroke_s	s	n/a
450.979	0.12	901958	keystroke_e	e	n/a
451.159	0.075	902318	keystroke_r	r	n/a
451.369	0.06	902738	keystroke_t	t	n/a
452.224	0.12	904448	keystroke_Key.enter	Key.enter	n/a
452.3525	5.5615	904705	prompt	n/a	backgrounds goto shirts bend\n
453.229	0.09	906458	keystroke_b	b	n/a
453.289	0.135	906578	keystroke_a	a	n/a
453.469	0.075	906938	keystroke_c	c	n/a
453.589	0.105	907178	keystroke_k	k	n/a
454.159	0.165	908318	keystroke_g	g	n/a
454.264	0.15	908528	keystroke_r	r	n/a
454.399	0.21	908798	keystroke_o	o	n/a
454.504	0.195	909008	keystroke_u	u	n/a
454.594	0.195	909188	keystroke_n	n	n/a
454.669	0.195	909338	keystroke_d	d	n/a
454.774	0.314	909548	keystroke_s	s	n/a
455.1835	0.0005	910367	keystroke_Key.space	Key.space	n/a
455.2565	0.015	910513	keystroke_g	g	n/a
455.2865	0.045	910573	keystroke_o	o	n/a
455.346	0.0905	910692	keystroke_t	t	n/a
455.4515	0.09	910903	keystroke_o	o	n/a
455.9925	0.1045	911985	keystroke_Key.space	Key.space	n/a
456.082	0.165	912164	keystroke_s	s	n/a
456.322	0.18	912644	keystroke_h	h	n/a
456.442	0.15	912884	keystroke_i	i	n/a
456.547	0.18	913094	keystroke_r	r	n/a
456.667	0.135	913334	keystroke_t	t	n/a
456.922	0.135	913844	keystroke_s	s	n/a
457.072	0.09	914144	keystroke_Key.space	Key.space	n/a
457.237	0.075	914474	keystroke_b	b	n/a
457.297	0.09	914594	keystroke_e	e	n/a
457.447	0.075	914894	keystroke_n	n	n/a
457.507	0.06	915014	keystroke_d	d	n/a
457.837	0.075	915674	keystroke_Key.enter	Key.enter	n/a
457.9165	8.6715	915833	prompt	n/a	describes reflections submissions opinions\n
458.572	0.1505	917144	keystroke_d	d	n/a
458.662	0.2105	917324	keystroke_e	e	n/a
458.7975	0.24	917595	keystroke_s	s	n/a
459.007	0.1505	918014	keystroke_c	c	n/a
459.3375	0.09	918675	keystroke_r	r	n/a
459.4425	0.165	918885	keystroke_i	i	n/a
459.5475	0.15	919095	keystroke_b	b	n/a
459.6675	0.255	919335	keystroke_e	e	n/a
459.7875	0.18	919575	keystroke_s	s	n/a
459.9975	0.12	919995	keystroke_Key.space	Key.space	n/a
460.2525	0.15	920505	keystroke_r	r	n/a
460.3275	0.15	920655	keystroke_e	e	n/a
460.612	0.1195	921224	keystroke_l	l	n/a
460.672	0.126	921344	keystroke_e	e	n/a
461.014	0.075	922028	keystroke_Key.backspace	Key.backspace	n/a
461.661	0.06	923322	keystroke_Key.backspace	Key.backspace	n/a
461.856	0.105	923712	keystroke_f	f	n/a
461.976	0.09	923952	keystroke_l	l	n/a
462.081	0.105	924162	keystroke_e	e	n/a
462.231	0.105	924462	keystroke_c	c	n/a
462.516	0.09	925032	keystroke_t	t	n/a
462.621	0.3	925242	keystroke_i	i	n/a
462.756	0.27	925512	keystroke_o	o	n/a
462.861	0.195	925722	keystroke_n	n	n/a
463.041	0.09	926082	keystroke_s	s	n/a
463.161	0.105	926322	keystroke_Key.space	Key.space	n/a
463.4005	0.104	926801	keystroke_s	s	n/a
463.4895	0.054	926979	keystroke_u	u	n/a
463.5195	0.034	927039	keystroke_b	b	n/a
463.835	0.134	927670	keystroke_m	m	n/a
463.94	0.1345	927880	keystroke_i	i	n/a
464.0895	0.09	928179	keystroke_s	s	n/a
464.2545	0.12	928509	keystroke_s	s	n/a
464.3295	0.24	928659	keystroke_i	i	n/a
464.4645	0.195	928929	keystroke_o	o	n/a
464.5545	0.195	929109	keystroke_n	n	n/a
464.7195	0.195	929439	keystroke_s	s	n/a
464.8695	0.075	929739	keystroke_Key.space	Key.space	n/a
465.0195	0.09	930039	keystroke_o	o	n/a
465.2295	0.09	930459	keystroke_p	p	n/a
465.4395	0.195	930879	keystroke_i	i	n/a
465.5595	0.24	931119	keystroke_n	n	n/a
465.7395	0.21	931479	keystroke_i	i	n/a
465.8895	0.2555	931779	keystroke_o	o	n/a
466.0245	0.1355	932049	keystroke_n	n	n/a
466.19	0.1045	932380	keystroke_s	s	n/a
466.505	0.075	933010	keystroke_Key.enter	Key.enter	n/a
466.592	8.4055	933184	prompt	n/a	additions government legislature oldest\n
467.1345	0.1055	934269	keystroke_a	a	n/a
467.36	0.075	934720	keystroke_d	d	n/a
467.51	0.09	935020	keystroke_d	d	n/a
467.66	0.075	935320	keystroke_i	i	n/a
467.78	0.105	935560	keystroke_t	t	n/a
467.84	0.24	935680	keystroke_i	i	n/a
467.96	0.24	935920	keystroke_o	o	n/a
468.095	0.165	936190	keystroke_n	n	n/a
468.23	0.12	936460	keystroke_s	s	n/a
468.365	0.105	936730	keystroke_Key.space	Key.space	n/a
468.56	0.21	937120	keystroke_g	g	n/a
468.65	0.15	937300	keystroke_r	r	n/a
469.13	0.075	938260	keystroke_Key.backspace	Key.backspace	n/a
469.34	0.135	938680	keystroke_o	o	n/a
469.43	0.12	938860	keystroke_v	v	n/a
469.64	0.195	939280	keystroke_e	e	n/a
469.745	0.165	939490	keystroke_r	r	n/a
469.895	0.0755	939790	keystroke_n	n	n/a
470.09	0.06	940180	keystroke_m	m	n/a
470.15	0.105	940300	keystroke_e	e	n/a
470.2705	0.09	940541	keystroke_n	n	n/a
470.3755	0.09	940751	keystroke_t	t	n/a
470.6455	0.105	941291	keystroke_Key.space	Key.space	n/a
470.9005	0.1495	941801	keystroke_l	l	n/a
471.035	0.03	942070	keystroke_e	e	n/a
471.14	0.0895	942280	keystroke_g	g	n/a
471.488	0.0245	942976	keystroke_i	i	n/a
471.5235	0.015	943047	keystroke_s	s	n/a
471.658	0.12	943316	keystroke_t	t	n/a
472.529	0.075	945058	keystroke_Key.backspace	Key.backspace	n/a
472.814	0.1355	945628	keystroke_l	l	n/a
472.904	0.0905	945808	keystroke_a	a	n/a
473.114	0.105	946228	keystroke_t	t	n/a
473.234	0.135	946468	keystroke_u	u	n/a
473.354	0.15	946708	keystroke_r	r	n/a
473.429	0.12	946858	keystroke_e	e	n/a
473.519	0.09	947038	keystroke_Key.space	Key.space	n/a
473.654	0.09	947308	keystroke_o	o	n/a
473.834	0.12	947668	keystroke_l	l	n/a
473.939	0.075	947878	keystroke_d	d	n/a
474.239	0.21	948478	keystroke_e	e	n/a
474.329	0.18	948658	keystroke_s	s	n/a
474.554	0.105	949108	keystroke_t	t	n/a
474.884	0.105	949768	keystroke_Key.enter	Key.enter	n/a
475.001	6.0345	950002	prompt	n/a	succeed classroom libs tied\n
475.6025	0.091	951205	keystroke_s	s	n/a
475.7235	0.06	951447	keystroke_u	u	n/a
475.7685	0.03	951537	keystroke_c	c	n/a
475.8135	0.06	951627	keystroke_c	c	n/a
475.979	0.075	951958	keystroke_e	e	n/a
476.144	0.0745	952288	keystroke_e	e	n/a
476.474	0.1045	952948	keystroke_d	d	n/a
477.494	0.12	954988	keystroke_Key.space	Key.space	n/a
477.794	0.135	955588	keystroke_c	c	n/a
477.884	0.12	955768	keystroke_l	l	n/a
477.989	0.105	955978	keystroke_a	a	n/a
478.244	0.09	956488	keystroke_s	s	n/a
478.424	0.075	956848	keystroke_s	s	n/a
478.634	0.09	957268	keystroke_r	r	n/a
478.694	0.09	957388	keystroke_o	o	n/a
478.859	0.165	957718	keystroke_o	o	n/a
478.964	0.15	957928	keystroke_m	m	n/a
479.054	0.105	958108	keystroke_Key.space	Key.space	n/a
479.204	0.09	958408	keystroke_l	l	n/a
479.399	0.075	958798	keystroke_i	i	n/a
479.534	0.12	959068	keystroke_b	b	n/a
