onset	duration	sample	value	key	prompt_text
1.664	11.6705	3328	prompt	n/a	the quick brown fox jumps over a lazy dog\n
3.118	0.16	6236	keystroke_t	t	n/a
3.279	0.09	6558	keystroke_h	h	n/a
3.37	0.134	6740	keystroke_e	e	n/a
3.458	0.138	6916	keystroke_Key.space	Key.space	n/a
3.857	0.134	7714	keystroke_q	q	n/a
4.086	0.0915	8172	keystroke_u	u	n/a
4.251	0.093	8502	keystroke_i	i	n/a
4.366	0.135	8732	keystroke_c	c	n/a
4.523	0.089	9046	keystroke_k	k	n/a
5.1025	0.16	10205	keystroke_Key.space	Key.space	n/a
5.593	0.069	11186	keystroke_b	b	n/a
5.7315	0.0935	11463	keystroke_r	r	n/a
5.8255	0.089	11651	keystroke_o	o	n/a
6.0025	0.131	12005	keystroke_w	w	n/a
6.0915	0.0865	12183	keystroke_n	n	n/a
6.2795	0.1155	12559	keystroke_Key.space	Key.space	n/a
6.396	0.0895	12792	keystroke_f	f	n/a
6.8285	0.114	13657	keystroke_o	o	n/a
7.672	0.138	15344	keystroke_x	x	n/a
7.9305	0.16	15861	keystroke_Key.space	Key.space	n/a
8.823	0.09	17646	keystroke_j	j	n/a
9.029	0.069	18058	keystroke_u	u	n/a
9.2435	0.0925	18487	keystroke_m	m	n/a
9.397	0.0915	18794	keystroke_p	p	n/a
9.5305	0.069	19061	keystroke_s	s	n/a
9.7365	0.158	19473	keystroke_Key.space	Key.space	n/a
9.8265	0.158	19653	keystroke_o	o	n/a
10.0065	0.069	20013	keystroke_v	v	n/a
10.1595	0.115	20319	keystroke_e	e	n/a
10.3555	0.0895	20711	keystroke_r	r	n/a
10.495	0.0945	20990	keystroke_Key.space	Key.space	n/a
10.591	0.1135	21182	keystroke_a	a	n/a
10.68	0.0695	21360	keystroke_Key.space	Key.space	n/a
10.831	0.1375	21662	keystroke_l	l	n/a
10.9895	0.093	21979	keystroke_a	a	n/a
11.208	0.11	22416	keystroke_z	z	n/a
11.4135	0.092	22827	keystroke_a	a	n/a
12.155	0.09	24310	keystroke_Key.backspace	Key.backspace	n/a
12.4495	0.0895	24899	keystroke_y	y	n/a
12.5145	0.1145	25029	keystroke_Key.space	Key.space	n/a
12.6505	0.115	25301	keystroke_d	d	n/a
12.7875	0.068	25575	keystroke_o	o	n/a
13.0985	0.0235	26197	keystroke_g	g	n/a
13.238	0.093	26476	keystroke_Key.enter	Key.enter	n/a
13.3415	23.4995	26683	prompt	n/a	alternatively basin priority dresses\n
14.1345	0.111	28269	keystroke_a	a	n/a
14.6505	0.1135	29301	keystroke_l	l	n/a
14.8455	0.1125	29691	keystroke_t	t	n/a
15.9845	0.1375	31969	keystroke_n	n	n/a
16.123	0.0895	32246	keystroke_e	e	n/a
16.291	0.091	32582	keystroke_r	r	n/a
16.383	0.1385	32766	keystroke_a	a	n/a
16.5435	0.0905	33087	keystroke_t	t	n/a
16.677	0.1345	33354	keystroke_l	l	n/a
16.8595	0.1385	33719	keystroke_e	e	n/a
17.925	0.092	35850	keystroke_Key.backspace	Key.backspace	n/a
18.094	0.09	36188	keystroke_Key.backspace	Key.backspace	n/a
18.734	0.092	37468	keystroke_i	i	n/a
18.879	0.068	37758	keystroke_v	v	n/a
18.9955	0.1375	37991	keystroke_e	e	n/a
19.133	0.087	38266	keystroke_l	l	n/a
19.3935	0.1355	38787	keystroke_y	y	n/a
19.506	0.136	39012	keystroke_Key.space	Key.space	n/a
20.4285	0.113	40857	keystroke_Key.backspace	Key.backspace	n/a
21.537	0.069	43074	keystroke_Key.backspace	Key.backspace	n/a
23.1735	0.112	46347	keystroke_e	e	n/a
23.375	0.1135	46750	keystroke_r	r	n/a
23.589	0.115	47178	keystroke_n	n	n/a
23.7045	0.1845	47409	keystroke_a	a	n/a
23.8425	0.023	47685	keystroke_t	t	n/a
23.942	0.137	47884	keystroke_e	e	n/a
24.6925	0.069	49385	keystroke_Key.backspace	Key.backspace	n/a
25.8775	0.1105	51755	keystroke_i	i	n/a
26.0285	0.072	52057	keystroke_v	v	n/a
26.186	0.1145	52372	keystroke_e	e	n/a
26.3225	0.07	52645	keystroke_l	l	n/a
26.525	0.091	53050	keystroke_y	y	n/a
26.674	0.113	53348	keystroke_Key.space	Key.space	n/a
28.374	0.1135	56748	keystroke_b	b	n/a
28.531	0.071	57062	keystroke_a	a	n/a
28.7165	0.0885	57433	keystroke_s	s	n/a
28.8275	0.0685	57655	keystroke_i	i	n/a
29.028	0.0705	58056	keystroke_n	n	n/a
29.194	0.091	58388	keystroke_Key.space	Key.space	n/a
29.921	0.113	59842	keystroke_p	p	n/a
30.1	0.092	60200	keystroke_r	r	n/a
30.25	0.091	60500	keystroke_i	i	n/a
30.455	0.1145	60910	keystroke_r	r	n/a
30.8295	0.0895	61659	keystroke_t	t	n/a
31.032	0.0685	62064	keystroke_y	y	n/a
31.5795	0.067	63159	keystroke_Key.backspace	Key.backspace	n/a
31.747	0.067	63494	keystroke_Key.backspace	Key.backspace	n/a
31.877	0.0925	63754	keystroke_Key.backspace	Key.backspace	n/a
32.891	0.1125	65782	keystroke_o	o	n/a
33.154	0.069	66308	keystroke_r	r	n/a
33.2985	0.089	66597	keystroke_i	i	n/a
33.4635	0.113	66927	keystroke_t	t	n/a
33.5985	0.0905	67197	keystroke_y	y	n/a
33.8195	0.092	67639	keystroke_Key.space	Key.space	n/a
34.977	0.0915	69954	keystroke_d	d	n/a
35.173	0.09	70346	keystroke_r	r	n/a
35.354	0.092	70708	keystroke_e	e	n/a
35.597	0.045	71194	keystroke_s	s	n/a
35.7395	0.1375	71479	keystroke_s	s	n/a
35.911	0.112	71822	keystroke_e	e	n/a
36.116	0.0905	72232	keystroke_s	s	n/a
36.7495	0.0895	73499	keystroke_Key.enter	Key.enter	n/a
36.845	12.666	73690	prompt	n/a	saudi forced hazardous tires\n
37.79	0.1125	75580	keystroke_s	s	n/a
37.9245	0.1365	75849	keystroke_a	a	n/a
38.0965	0.0905	76193	keystroke_u	u	n/a
38.3615	0.115	76723	keystroke_f	f	n/a
38.8775	0.068	77755	keystroke_Key.backspace	Key.backspace	n/a
39.074	0.114	78148	keystroke_d	d	n/a
39.213	0.0695	78426	keystroke_i	i	n/a
39.3465	0.1125	78693	keystroke_Key.space	Key.space	n/a
40.061	0.1145	80122	keystroke_f	f	n/a
40.1975	0.141	80395	keystroke_o	o	n/a
40.425	0.1365	80850	keystroke_r	r	n/a
40.6685	0.114	81337	keystroke_c	c	n/a
40.7365	0.136	81473	keystroke_e	e	n/a
41.204	0.157	82408	keystroke_Key.space	Key.space	n/a
41.7225	0.07	83445	keystroke_Key.backspace	Key.backspace	n/a
42.0295	0.136	84059	keystroke_d	d	n/a
42.1865	0.111	84373	keystroke_Key.space	Key.space	n/a
43.1635	0.115	86327	keystroke_h	h	n/a
43.299	0.113	86598	keystroke_a	a	n/a
43.7735	0.092	87547	keystroke_a	a	n/a
44.2545	0.136	88509	keystroke_Key.backspace	Key.backspace	n/a
44.816	0.088	89632	keystroke_z	z	n/a
45.0165	0.1355	90033	keystroke_a	a	n/a
45.216	0.114	90432	keystroke_r	r	n/a
45.4385	0.092	90877	keystroke_d	d	n/a
45.597	0.1365	91194	keystroke_o	o	n/a
45.666	0.0915	91332	keystroke_u	u	n/a
45.881	0.1135	91762	keystroke_s	s	n/a
45.9955	0.113	91991	keystroke_Key.space	Key.space	n/a
46.3805	0.0895	92761	keystroke_t	t	n/a
47.1285	0.112	94257	keystroke_r	r	n/a
47.709	0.0905	95418	keystroke_Key.backspace	Key.backspace	n/a
48.777	0.1145	97554	keystroke_i	i	n/a
48.9215	0.1345	97843	keystroke_r	r	n/a
49.1025	0.0895	98205	keystroke_e	e	n/a
49.2585	0.1145	98517	keystroke_s	s	n/a
49.417	0.092	98834	keystroke_Key.enter	Key.enter	n/a
49.5165	12.903	99033	prompt	n/a	economics benjamin byte morgan\n
50.298	0.092	100596	keystroke_e	e	n/a
50.719	0.024	101438	keystroke_x	x	n/a
51.041	0.159	102082	keystroke_c	c	n/a
51.246	0.0685	102492	keystroke_o	o	n/a
51.6495	0.0695	103299	keystroke_Key.backspace	Key.backspace	n/a
51.8065	0.068	103613	keystroke_Key.backspace	Key.backspace	n/a
51.9485	0.092	103897	keystroke_Key.backspace	Key.backspace	n/a
52.071	0.1365	104142	keystroke_c	c	n/a
52.3255	0.092	104651	keystroke_o	o	n/a
53.8915	0.088	107783	keystroke_n	n	n/a
54.5455	0.093	109091	keystroke_o	o	n/a
54.7145	0.0925	109429	keystroke_m	m	n/a
54.876	0.0915	109752	keystroke_i	i	n/a
55.0625	0.0895	110125	keystroke_c	c	n/a
55.2595	0.1365	110519	keystroke_s	s	n/a
55.4185	0.1135	110837	keystroke_Key.space	Key.space	n/a
56.7265	0.0905	113453	keystroke_b	b	n/a
56.8845	0.1345	113769	keystroke_e	e	n/a
57.635	0.092	115270	keystroke_n	n	n/a
57.8825	0.092	115765	keystroke_j	j	n/a
58.059	0.1125	116118	keystroke_a	a	n/a
58.215	0.0915	116430	keystroke_m	m	n/a
58.4145	0.1135	116829	keystroke_i	i	n/a
58.6095	0.0915	117219	keystroke_n	n	n/a
58.888	0.1355	117776	keystroke_Key.space	Key.space	n/a
59.7995	0.091	119599	keystroke_b	b	n/a
60.0105	0.069	120021	keystroke_y	y	n/a
60.1575	0.0905	120315	keystroke_t	t	n/a
60.3445	0.113	120689	keystroke_e	e	n/a
60.4875	0.114	120975	keystroke_Key.space	Key.space	n/a
61.218	0.0915	122436	keystroke_m	m	n/a
61.401	0.115	122802	keystroke_o	o	n/a
61.5375	0.134	123075	keystroke_r	r	n/a
61.7075	0.1585	123415	keystroke_g	g	n/a
61.9195	0.1585	123839	keystroke_a	a	n/a
62.079	0.044	124158	keystroke_n	n	n/a
62.304	0.1135	124608	keystroke_Key.enter	Key.enter	n/a
62.4245	17.7695	124849	prompt	n/a	combine italiano myself miami\n
63.246	0.136	126492	keystroke_c	c	n/a
63.431	0.091	126862	keystroke_o	o	n/a
63.617	0.07	127234	keystroke_m	m	n/a
63.8295	0.0695	127659	keystroke_n	n	n/a
64.519	0.1155	129038	keystroke_b	b	n/a
64.6745	0.091	129349	keystroke_i	i	n/a
64.874	0.066	129748	keystroke_n	n	n/a
64.997	0.112	129994	keystroke_e	e	n/a
65.3325	0.092	130665	keystroke_Key.backspace	Key.backspace	n/a
65.521	0.0695	131042	keystroke_Key.backspace	Key.backspace	n/a
65.679	0.092	131358	keystroke_Key.backspace	Key.backspace	n/a
65.8745	0.0935	131749	keystroke_Key.backspace	Key.backspace	n/a
67.0405	0.114	134081	keystroke_b	b	n/a
67.1765	0.0705	134353	keystroke_i	i	n/a
67.3325	0.048	134665	keystroke_n	n	n/a
67.429	0.1135	134858	keystroke_e	e	n/a
67.6515	0.1355	135303	keystroke_Key.space	Key.space	n/a
68.0585	0.093	136117	keystroke_Key.backspace	Key.backspace	n/a
68.2235	0.07	136447	keystroke_Key.backspace	Key.backspace	n/a
68.368	0.0695	136736	keystroke_Key.backspace	Key.backspace	n/a
68.4935	0.0925	136987	keystroke_Key.backspace	Key.backspace	n/a
68.6495	0.071	137299	keystroke_Key.backspace	Key.backspace	n/a
68.7945	0.116	137589	keystroke_Key.backspace	Key.backspace	n/a
69.5935	0.113	139187	keystroke_b	b	n/a
69.7285	0.069	139457	keystroke_i	i	n/a
69.8875	0.0925	139775	keystroke_n	n	n/a
69.981	0.113	139962	keystroke_e	e	n/a
70.07	0.136	140140	keystroke_Key.space	Key.space	n/a
70.183	0.1355	140366	keystroke_i	i	n/a
70.5715	0.159	141143	keystroke_t	t	n/a
71.745	0.1155	143490	keystroke_a	a	n/a
71.953	0.159	143906	keystroke_l	l	n/a
72.2215	0.1355	144443	keystroke_i	i	n/a
72.8495	0.0915	145699	keystroke_a	a	n/a
73.1705	0.1155	146341	keystroke_n	n	n/a
73.5655	0.137	147131	keystroke_o	o	n/a
73.847	0.139	147694	keystroke_Key.space	Key.space	n/a
74.073	0.1145	148146	keystroke_m	m	n/a
74.4315	0.0925	148863	keystroke_u	u	n/a
74.666	0.07	149332	keystroke_w	w	n/a
74.7365	0.1565	149473	keystroke_e	e	n/a
75.17	0.0905	150340	keystroke_Key.backspace	Key.backspace	n/a
75.3265	0.071	150653	keystroke_Key.backspace	Key.backspace	n/a
75.464	0.112	150928	keystroke_Key.backspace	Key.backspace	n/a
76.474	0.0915	152948	keystroke_y	y	n/a
76.687	0.115	153374	keystroke_s	s	n/a
76.711	0.137	153422	keystroke_e	e	n/a
76.85	0.0655	153700	keystroke_l	l	n/a
76.9935	0.113	153987	keystroke_f	f	n/a
77.1285	0.114	154257	keystroke_Key.space	Key.space	n/a
77.33	0.0905	154660	keystroke_m	m	n/a
77.5015	0.115	155003	keystroke_a	a	n/a
77.6385	0.0895	155277	keystroke_i	i	n/a
78.204	0.069	156408	keystroke_Key.backspace	Key.backspace	n/a
78.345	0.1125	156690	keystroke_Key.backspace	Key.backspace	n/a
78.5685	0.091	157137	keystroke_i	i	n/a
78.692	0.092	157384	keystroke_a	a	n/a
78.8495	0.0695	157699	keystroke_m	m	n/a
79.781	0.091	159562	keystroke_i	i	n/a
80.1005	0.092	160201	keystroke_Key.enter	Key.enter	n/a
80.1985	15.489	160397	prompt	n/a	racing appendix leeds violation\n
81.078	0.1405	162156	keystroke_r	r	n/a
81.2195	0.133	162439	keystroke_a	a	n/a
81.3295	0.1585	162659	keystroke_c	c	n/a
81.51	0.089	163020	keystroke_i	i	n/a
81.6795	0.0685	163359	keystroke_n	n	n/a
81.7785	0.068	163557	keystroke_g	g	n/a
81.8685	0.092	163737	keystroke_Key.space	Key.space	n/a
82.371	0.111	164742	keystroke_a	a	n/a
82.512	0.069	165024	keystroke_p	p	n/a
82.638	0.112	165276	keystroke_p	p	n/a
82.773	0.09	165546	keystroke_e	e	n/a
82.927	0.071	165854	keystroke_n	n	n/a
83.115	0.0905	166230	keystroke_d	d	n/a
83.2455	0.112	166491	keystroke_i	i	n/a
83.4475	0.113	166895	keystroke_z	z	n/a
83.6485	0.136	167297	keystroke_Key.space	Key.space	n/a
84.12	0.068	168240	keystroke_Key.backspace	Key.backspace	n/a
84.2465	0.0695	168493	keystroke_Key.backspace	Key.backspace	n/a
84.372	0.1125	168744	keystroke_Key.backspace	Key.backspace	n/a
84.507	0.1335	169014	keystroke_z	z	n/a
85.122	0.0905	170244	keystroke_Key.backspace	Key.backspace	n/a
85.5595	0.09	171119	keystroke_Key.backspace	Key.backspace	n/a
86.4985	0.0895	172997	keystroke_i	i	n/a
87.591	0.091	175182	keystroke_Key.backspace	Key.backspace	n/a
88.249	0.0915	176498	keystroke_d	d	n/a
88.486	0.0695	176972	keystroke_i	i	n/a
88.807	0.1325	177614	keystroke_x	x	n/a
89.0465	0.092	178093	keystroke_Key.space	Key.space	n/a
89.8655	0.0925	179731	keystroke_l	l	n/a
89.98	0.0915	179960	keystroke_e	e	n/a
90.156	0.1155	180312	keystroke_e	e	n/a
90.3885	0.0665	180777	keystroke_d	d	n/a
90.5685	0.09	181137	keystroke_s	s	n/a
90.7025	0.115	181405	keystroke_Key.space	Key.space	n/a
91.0105	0.0915	182021	keystroke_v	v	n/a
91.828	0.069	183656	keystroke_i	i	n/a
92.168	0.09	184336	keystroke_l	l	n/a
92.5715	0.0905	185143	keystroke_Key.backspace	Key.backspace	n/a
93.3405	0.0685	186681	keystroke_o	o	n/a
93.5075	0.092	187015	keystroke_l	l	n/a
93.6005	0.157	187201	keystroke_a	a	n/a
93.78	0.069	187560	keystroke_t	t	n/a
93.8495	0.067	187699	keystroke_i	i	n/a
94.61	0.1355	189220	keystroke_o	o	n/a
94.8525	0.0715	189705	keystroke_n	n	n/a
95.235	0.1805	190470	keystroke_Key.space	Key.space	n/a
95.64	0.045	191280	keystroke_Key.enter	Key.enter	n/a
95.6935	17.9765	191387	prompt	n/a	nursery defend testimony lawrence\n
96.6335	0.0905	193267	keystroke_n	n	n/a
96.786	0.0245	193572	keystroke_j	j	n/a
96.811	0.067	193622	keystroke_u	u	n/a
96.8785	0.09	193757	keystroke_r	r	n/a
97.0975	0.1165	194195	keystroke_s	s	n/a
97.121	0.139	194242	keystroke_e	e	n/a
97.281	0.091	194562	keystroke_l	l	n/a
97.643	0.1145	195286	keystroke_r	r	n/a
97.787	0.068	195574	keystroke_y	y	n/a
97.935	0.1135	195870	keystroke_Key.space	Key.space	n/a
98.164	0.068	196328	keystroke_Key.backspace	Key.backspace	n/a
98.321	0.069	196642	keystroke_Key.backspace	Key.backspace	n/a
98.458	0.089	196916	keystroke_Key.backspace	Key.backspace	n/a
98.569	0.1115	197138	keystroke_Key.backspace	Key.backspace	n/a
98.7355	0.09	197471	keystroke_Key.backspace	Key.backspace	n/a
98.893	0.0905	197786	keystroke_Key.backspace	Key.backspace	n/a
99.0415	0.0905	198083	keystroke_Key.backspace	Key.backspace	n/a
99.2035	0.091	198407	keystroke_Key.backspace	Key.backspace	n/a
99.5135	0.0905	199027	keystroke_Key.backspace	Key.backspace	n/a
99.9475	0.0915	199895	keystroke_u	u	n/a
100.096	0.1155	200192	keystroke_r	r	n/a
100.3155	0.0935	200631	keystroke_s	s	n/a
100.362	0.114	200724	keystroke_e	e	n/a
100.617	0.113	201234	keystroke_r	r	n/a
100.7525	0.07	201505	keystroke_y	y	n/a
100.909	0.135	201818	keystroke_Key.space	Key.space	n/a
101.721	0.09	203442	keystroke_f	f	n/a
101.9695	0.1095	203939	keystroke_e	e	n/a
102.148	0.092	204296	keystroke_f	f	n/a
102.194	0.114	204388	keystroke_e	e	n/a
102.3525	0.045	204705	keystroke_n	n	n/a
102.518	0.093	205036	keystroke_d	d	n/a
102.5875	0.137	205175	keystroke_Key.space	Key.space	n/a
104.16	0.114	208320	keystroke_d	d	n/a
104.5495	0.112	209099	keystroke_Key.backspace	Key.backspace	n/a
104.6385	0.182	209277	keystroke_Key.space	Key.space	n/a
104.7975	0.0915	209595	keystroke_d	d	n/a
104.9845	0.112	209969	keystroke_e	e	n/a
105.1515	0.093	210303	keystroke_f	f	n/a
105.2205	0.182	210441	keystroke_e	e	n/a
105.4475	0.0925	210895	keystroke_n	n	n/a
105.5875	0.1135	211175	keystroke_d	d	n/a
105.702	0.089	211404	keystroke_Key.space	Key.space	n/a
106.158	0.094	212316	keystroke_t	t	n/a
106.3615	0.1565	212723	keystroke_e	e	n/a
106.862	0.092	213724	keystroke_s	s	n/a
107.0545	0.1145	214109	keystroke_t	t	n/a
107.171	0.047	214342	keystroke_i	i	n/a
107.322	0.067	214644	keystroke_m	m	n/a
107.5275	0.025	215055	keystroke_o	o	n/a
107.645	0.0695	215290	keystroke_n	n	n/a
107.789	0.1345	215578	keystroke_y	y	n/a
108.0915	0.0685	216183	keystroke_Key.space	Key.space	n/a
108.9065	0.1595	217813	keystroke_l	l	n/a
109.0665	0.1575	218133	keystroke_a	a	n/a
109.2	0.2285	218400	keystroke_w	w	n/a
109.337	0.1825	218674	keystroke_e	e	n/a
109.577	0.091	219154	keystroke_r	r	n/a
109.752	0.112	219504	keystroke_e	e	n/a
109.894	0.07	219788	keystroke_n	n	n/a
109.94	0.1395	219880	keystroke_c	c	n/a
110.031	0.1625	220062	keystroke_e	e	n/a
111.0715	0.07	222143	keystroke_Key.backspace	Key.backspace	n/a
111.223	0.0715	222446	keystroke_Key.backspace	Key.backspace	n/a
111.3665	0.092	222733	keystroke_Key.backspace	Key.backspace	n/a
111.5205	0.072	223041	keystroke_Key.backspace	Key.backspace	n/a
111.664	0.113	223328	keystroke_Key.backspace	Key.backspace	n/a
111.9915	0.0925	223983	keystroke_Key.backspace	Key.backspace	n/a
112.281	0.089	224562	keystroke_r	r	n/a
112.46	0.114	224920	keystroke_e	e	n/a
113.116	0.092	226232	keystroke_n	n	n/a
113.229	0.114	226458	keystroke_c	c	n/a
113.2975	0.114	226595	keystroke_e	e	n/a
113.5735	0.0935	227147	keystroke_Key.enter	Key.enter	n/a
113.679	10.5775	227358	prompt	n/a	thumbs commissions parliament volkswagen\n
114.6615	0.1355	229323	keystroke_t	t	n/a
114.819	0.185	229638	keystroke_h	h	n/a
114.955	0.1155	229910	keystroke_u	u	n/a
115.272	0.113	230544	keystroke_n	n	n/a
115.861	0.0915	231722	keystroke_Key.backspace	Key.backspace	n/a
116.1435	0.0905	232287	keystroke_m	m	n/a
116.4605	0.068	232921	keystroke_b	b	n/a
116.702	0.115	233404	keystroke_s	s	n/a
116.886	0.115	233772	keystroke_Key.space	Key.space	n/a
117.8585	0.1135	235717	keystroke_o	o	n/a
118.051	0.091	236102	keystroke_m	m	n/a
118.22	0.093	236440	keystroke_i	i	n/a
118.3545	0.068	236709	keystroke_s	s	n/a
118.4885	0.114	236977	keystroke_s	s	n/a
118.6035	0.09	237207	keystroke_i	i	n/a
118.756	0.113	237512	keystroke_o	o	n/a
118.938	0.091	237876	keystroke_n	n	n/a
119.0625	0.092	238125	keystroke_s	s	n/a
119.1775	0.1335	238355	keystroke_Key.space	Key.space	n/a
119.3785	0.1355	238757	keystroke_p	p	n/a
119.515	0.1335	239030	keystroke_a	a	n/a
119.649	0.112	239298	keystroke_r	r	n/a
120.3805	0.0915	240761	keystroke_l	l	n/a
120.5855	0.0705	241171	keystroke_i	i	n/a
120.7075	0.1145	241415	keystroke_a	a	n/a
120.823	0.0895	241646	keystroke_m	m	n/a
120.9675	0.1375	241935	keystroke_e	e	n/a
121.1285	0.0685	242257	keystroke_n	n	n/a
121.302	0.068	242604	keystroke_t	t	n/a
121.393	0.1125	242786	keystroke_Key.space	Key.space	n/a
122.2595	0.1345	244519	keystroke_v	v	n/a
122.434	0.091	244868	keystroke_o	o	n/a
122.66	0.068	245320	keystroke_k	k	n/a
122.751	0.1555	245502	keystroke_k	k	n/a
122.9075	0.09	245815	keystroke_s	s	n/a
123.174	0.135	246348	keystroke_w	w	n/a
123.3095	0.1555	246619	keystroke_a	a	n/a
123.5715	0.1375	247143	keystroke_g	g	n/a
123.6855	0.092	247371	keystroke_o	o	n/a
123.865	0.046	247730	keystroke_n	n	n/a
124.141	0.1135	248282	keystroke_Key.enter	Key.enter	n/a
124.2615	11.986	248523	prompt	n/a	resident represented objectives texture\n
125.1555	0.113	250311	keystroke_r	r	n/a
125.3605	0.068	250721	keystroke_e	e	n/a
125.524	0.115	251048	keystroke_s	s	n/a
125.661	0.09	251322	keystroke_i	i	n/a
125.752	0.0905	251504	keystroke_d	d	n/a
125.9165	0.1135	251833	keystroke_e	e	n/a
126.0515	0.024	252103	keystroke_n	n	n/a
126.1565	0.1135	252313	keystroke_t	t	n/a
126.247	0.158	252494	keystroke_Key.space	Key.space	n/a
126.381	0.113	252762	keystroke_r	r	n/a
126.5585	0.115	253117	keystroke_e	e	n/a
126.7085	0.1335	253417	keystroke_p	p	n/a
127.322	0.093	254644	keystroke_r	r	n/a
127.4905	0.091	254981	keystroke_e	e	n/a
127.66	0.0465	255320	keystroke_s	s	n/a
127.683	0.0265	255366	keystroke_w	w	n/a
127.71	0.0865	255420	keystroke_e	e	n/a
127.818	0.066	255636	keystroke_n	n	n/a
127.9475	0.113	255895	keystroke_t	t	n/a
128.134	0.092	256268	keystroke_e	e	n/a
128.317	0.09	256634	keystroke_d	d	n/a
128.451	0.1385	256902	keystroke_Key.space	Key.space	n/a
128.786	0.089	257572	keystroke_Key.backspace	Key.backspace	n/a
128.9495	0.0675	257899	keystroke_Key.backspace	Key.backspace	n/a
129.0865	0.0685	258173	keystroke_Key.backspace	Key.backspace	n/a
129.229	0.0695	258458	keystroke_Key.backspace	Key.backspace	n/a
129.3685	0.0695	258737	keystroke_Key.backspace	Key.backspace	n/a
129.5025	0.114	259005	keystroke_Key.backspace	Key.backspace	n/a
129.681	0.0695	259362	keystroke_Key.backspace	Key.backspace	n/a
129.9915	0.1355	259983	keystroke_e	e	n/a
130.2335	0.0925	260467	keystroke_n	n	n/a
130.6745	0.1145	261349	keystroke_t	t	n/a
130.8685	0.092	261737	keystroke_e	e	n/a
131.0475	0.134	262095	keystroke_d	d	n/a
131.219	0.138	262438	keystroke_Key.space	Key.space	n/a
131.935	0.1135	263870	keystroke_o	o	n/a
132.3315	0.0705	264663	keystroke_b	b	n/a
132.541	0.1135	265082	keystroke_j	j	n/a
132.6765	0.069	265353	keystroke_e	e	n/a
132.846	0.159	265692	keystroke_c	c	n/a
133.089	0.1325	266178	keystroke_t	t	n/a
133.1985	0.114	266397	keystroke_i	i	n/a
133.4895	0.068	266979	keystroke_e	e	n/a
133.659	0.136	267318	keystroke_s	s	n/a
133.771	0.1575	267542	keystroke_Key.space	Key.space	n/a
134.457	0.093	268914	keystroke_t	t	n/a
134.642	0.1135	269284	keystroke_e	e	n/a
134.955	0.1355	269910	keystroke_x	x	n/a
135.217	0.114	270434	keystroke_t	t	n/a
135.468	0.0915	270936	keystroke_u	u	n/a
135.536	0.0935	271072	keystroke_r	r	n/a
135.717	0.1555	271434	keystroke_e	e	n/a
136.1115	0.1345	272223	keystroke_Key.enter	Key.enter	n/a
136.2535	7.645	272507	prompt	n/a	alike tucson lending teach\n
137.1615	0.113	274323	keystroke_a	a	n/a
137.3055	0.092	274611	keystroke_l	l	n/a
137.511	0.0245	275022	keystroke_i	i	n/a
137.671	0.046	275342	keystroke_k	k	n/a
137.757	0.0945	275514	keystroke_e	e	n/a
137.852	0.136	275704	keystroke_Key.space	Key.space	n/a
137.9885	0.09	275977	keystroke_t	t	n/a
138.192	0.093	276384	keystroke_u	u	n/a
138.787	0.091	277574	keystroke_c	c	n/a
139.007	0.09	278014	keystroke_s	s	n/a
139.098	0.0895	278196	keystroke_o	o	n/a
139.2965	0.045	278593	keystroke_n	n	n/a
139.4235	0.1355	278847	keystroke_Key.space	Key.space	n/a
139.912	0.113	279824	keystroke_l	l	n/a
140.055	0.092	280110	keystroke_e	e	n/a
140.1835	0.0695	280367	keystroke_n	n	n/a
140.285	0.1125	280570	keystroke_d	d	n/a
140.398	0.068	280796	keystroke_i	i	n/a
140.5605	0.048	281121	keystroke_n	n	n/a
140.6775	0.067	281355	keystroke_g	g	n/a
140.7455	0.1125	281491	keystroke_Key.space	Key.space	n/a
141.4025	0.1135	282805	keystroke_t	t	n/a
141.593	0.113	283186	keystroke_e	e	n/a
141.727	0.138	283454	keystroke_a	a	n/a
141.866	0.112	283732	keystroke_c	c	n/a
142.01	0.09	284020	keystroke_h	h	n/a
142.378	0.0245	284756	keystroke_'	'	n/a
143.543	0.1155	287086	keystroke_Key.backspace	Key.backspace	n/a
143.8065	0.09	287613	keystroke_Key.enter	Key.enter	n/a
143.902	12.9015	287804	prompt	n/a	industries performing films letters\n
144.8275	0.1155	289655	keystroke_i	i	n/a
145.02	0.069	290040	keystroke_n	n	n/a
145.2095	0.091	290419	keystroke_i	i	n/a
145.491	0.1125	290982	keystroke_s	s	n/a
146.323	0.067	292646	keystroke_Key.backspace	Key.backspace	n/a
146.465	0.114	292930	keystroke_Key.backspace	Key.backspace	n/a
146.617	0.1135	293234	keystroke_d	d	n/a
146.7925	0.0465	293585	keystroke_i	i	n/a
146.816	0.0245	293632	keystroke_u	u	n/a
147.4665	0.07	294933	keystroke_Key.backspace	Key.backspace	n/a
147.616	0.091	295232	keystroke_Key.backspace	Key.backspace	n/a
147.862	0.09	295724	keystroke_u	u	n/a
148.0025	0.0665	296005	keystroke_s	s	n/a
148.16	0.0925	296320	keystroke_t	t	n/a
148.339	0.0905	296678	keystroke_r	r	n/a
148.4305	0.0865	296861	keystroke_i	i	n/a
148.566	0.113	297132	keystroke_e	e	n/a
148.7785	0.118	297557	keystroke_s	s	n/a
148.8705	0.138	297741	keystroke_Key.space	Key.space	n/a
149.8395	0.114	299679	keystroke_p	p	n/a
149.987	0.0895	299974	keystroke_e	e	n/a
150.1655	0.0915	300331	keystroke_r	r	n/a
150.5105	0.1165	301021	keystroke_m	m	n/a
151.087	0.0915	302174	keystroke_f	f	n/a
151.4615	0.0705	302923	keystroke_Key.backspace	Key.backspace	n/a
151.588	0.114	303176	keystroke_Key.backspace	Key.backspace	n/a
151.724	0.1145	303448	keystroke_f	f	n/a
151.9285	0.114	303857	keystroke_o	o	n/a
152.1065	0.113	304213	keystroke_r	r	n/a
152.263	0.0685	304526	keystroke_m	m	n/a
152.4555	0.09	304911	keystroke_i	i	n/a
152.608	0.091	305216	keystroke_n	n	n/a
152.7295	0.1135	305459	keystroke_g	g	n/a
152.796	0.1375	305592	keystroke_Key.space	Key.space	n/a
153.9365	0.092	307873	keystroke_f	f	n/a
154.0525	0.092	308105	keystroke_i	i	n/a
154.24	0.113	308480	keystroke_l	l	n/a
154.4295	0.091	308859	keystroke_m	m	n/a
154.7465	0.115	309493	keystroke_Key.space	Key.space	n/a
155.122	0.138	310244	keystroke_Key.backspace	Key.backspace	n/a
155.2925	0.137	310585	keystroke_s	s	n/a
155.4305	0.0895	310861	keystroke_Key.space	Key.space	n/a
155.5655	0.1605	311131	keystroke_l	l	n/a
155.6805	0.1365	311361	keystroke_e	e	n/a
155.875	0.114	311750	keystroke_t	t	n/a
156.056	0.114	312112	keystroke_t	t	n/a
156.223	0.14	312446	keystroke_e	e	n/a
156.401	0.114	312802	keystroke_r	r	n/a
156.5755	0.136	313151	keystroke_s	s	n/a
156.6875	0.113	313375	keystroke_Key.enter	Key.enter	n/a
156.8155	8.951	313631	prompt	n/a	active manufacturer donate undo\n
157.6785	0.135	315357	keystroke_a	a	n/a
157.881	0.1345	315762	keystroke_c	c	n/a
158.108	0.1125	316216	keystroke_t	t	n/a
158.1975	0.114	316395	keystroke_i	i	n/a
158.3335	0.068	316667	keystroke_v	v	n/a
158.481	0.1125	316962	keystroke_e	e	n/a
158.5945	0.157	317189	keystroke_Key.space	Key.space	n/a
158.6825	0.1355	317365	keystroke_m	m	n/a
158.794	0.091	317588	keystroke_a	a	n/a
158.926	0.1385	317852	keystroke_n	n	n/a
159.7275	0.1365	319455	keystroke_u	u	n/a
159.9375	0.113	319875	keystroke_f	f	n/a
160.0725	0.16	320145	keystroke_a	a	n/a
160.2545	0.0685	320509	keystroke_c	c	n/a
160.435	0.1355	320870	keystroke_t	t	n/a
160.6015	0.1155	321203	keystroke_u	u	n/a
160.718	0.1115	321436	keystroke_r	r	n/a
160.907	0.113	321814	keystroke_e	e	n/a
161.2835	0.1825	322567	keystroke_r	r	n/a
161.5485	0.137	323097	keystroke_Key.space	Key.space	n/a
162.2995	0.116	324599	keystroke_d	d	n/a
162.437	0.068	324874	keystroke_o	o	n/a
162.606	0.068	325212	keystroke_n	n	n/a
162.6515	0.16	325303	keystroke_a	a	n/a
162.7645	0.07	325529	keystroke_t	t	n/a
162.9575	0.115	325915	keystroke_e	e	n/a
163.0735	0.131	326147	keystroke_Key.space	Key.space	n/a
163.532	0.0885	327064	keystroke_u	u	n/a
163.8205	0.135	327641	keystroke_d	d	n/a
164.391	0.1125	328782	keystroke_Key.backspace	Key.backspace	n/a
164.9515	0.114	329903	keystroke_n	n	n/a
165.152	0.136	330304	keystroke_d	d	n/a
165.309	0.1135	330618	keystroke_o	o	n/a
165.5835	0.181	331167	keystroke_Key.enter	Key.enter	n/a
165.7725	9.5545	331545	prompt	n/a	migration instant somebody's trades\n
166.9675	0.113	333935	keystroke_m	m	n/a
167.159	0.138	334318	keystroke_i	i	n/a
167.398	0.069	334796	keystroke_g	g	n/a
167.5645	0.114	335129	keystroke_r	r	n/a
167.7175	0.1135	335435	keystroke_a	a	n/a
167.807	0.137	335614	keystroke_t	t	n/a
167.875	0.135	335750	keystroke_i	i	n/a
168.071	0.1125	336142	keystroke_o	o	n/a
168.4625	0.092	336925	keystroke_Key.space	Key.space	n/a
168.8135	0.1125	337627	keystroke_Key.backspace	Key.backspace	n/a
169.0865	0.0905	338173	keystroke_n	n	n/a
169.3325	0.1125	338665	keystroke_Key.space	Key.space	n/a
170.0375	0.069	340075	keystroke_i	i	n/a
170.1755	0.1145	340351	keystroke_n	n	n/a
170.223	0.0905	340446	keystroke_s	s	n/a
170.353	0.1165	340706	keystroke_t	t	n/a
170.4455	0.1375	340891	keystroke_a	a	n/a
170.536	0.0705	341072	keystroke_n	n	n/a
170.815	0.159	341630	keystroke_t	t	n/a
170.996	0.1365	341992	keystroke_Key.space	Key.space	n/a
171.8935	0.0915	343787	keystroke_s	s	n/a
172.008	0.0685	344016	keystroke_o	o	n/a
172.161	0.0665	344322	keystroke_m	m	n/a
172.3385	0.157	344677	keystroke_e	e	n/a
172.4725	0.0685	344945	keystroke_b	b	n/a
172.634	0.1095	345268	keystroke_o	o	n/a
172.8575	0.114	345715	keystroke_d	d	n/a
173.119	0.112	346238	keystroke_y	y	n/a
173.284	0.113	346568	keystroke_s	s	n/a
173.4475	0.069	346895	keystroke_Key.space	Key.space	n/a
174.2205	0.1355	348441	keystroke_t	t	n/a
174.421	0.141	348842	keystroke_r	r	n/a
174.538	0.1815	349076	keystroke_a	a	n/a
174.7415	0.158	349483	keystroke_d	d	n/a
174.975	0.09	349950	keystroke_e	e	n/a
175.1445	0.114	350289	keystroke_s	s	n/a
175.2595	0.0655	350519	keystroke_Key.enter	Key.enter	n/a
175.332	11.761	350664	prompt	n/a	wins holy carrier measurements\n
176.2245	0.114	352449	keystroke_w	w	n/a
176.5015	0.0675	353003	keystroke_n	n	n/a
176.837	0.093	353674	keystroke_Key.backspace	Key.backspace	n/a
177.138	0.0905	354276	keystroke_i	i	n/a
177.3135	0.0695	354627	keystroke_n	n	n/a
177.4045	0.092	354809	keystroke_d	d	n/a
177.616	0.1145	355232	keystroke_s	s	n/a
178.0915	0.071	356183	keystroke_Key.backspace	Key.backspace	n/a
178.2225	0.0915	356445	keystroke_Key.backspace	Key.backspace	n/a
178.349	0.137	356698	keystroke_s	s	n/a
179.179	0.1845	358358	keystroke_Key.space	Key.space	n/a
179.3165	0.1355	358633	keystroke_h	h	n/a
179.482	0.0675	358964	keystroke_o	o	n/a
179.639	0.0925	359278	keystroke_l	l	n/a
179.945	0.091	359890	keystroke_y	y	n/a
180.181	0.135	360362	keystroke_Key.space	Key.space	n/a
180.6145	0.1145	361229	keystroke_a	a	n/a
180.7505	0.092	361501	keystroke_r	r	n/a
181.066	0.113	362132	keystroke_r	r	n/a
182.1085	0.0655	364217	keystroke_Key.backspace	Key.backspace	n/a
182.2635	0.068	364527	keystroke_Key.backspace	Key.backspace	n/a
182.3795	0.113	364759	keystroke_Key.backspace	Key.backspace	n/a
182.5235	0.115	365047	keystroke_c	c	n/a
182.5685	0.1385	365137	keystroke_a	a	n/a
182.6605	0.1115	365321	keystroke_r	r	n/a
183.0785	0.0675	366157	keystroke_r	r	n/a
183.224	0.1155	366448	keystroke_r	r	n/a
183.736	0.093	367472	keystroke_Key.backspace	Key.backspace	n/a
184.373	0.0895	368746	keystroke_i	i	n/a
184.4945	0.091	368989	keystroke_e	e	n/a
184.6855	0.114	369371	keystroke_r	r	n/a
184.8355	0.1365	369671	keystroke_Key.space	Key.space	n/a
185.152	0.159	370304	keystroke_m	m	n/a
185.342	0.1365	370684	keystroke_e	e	n/a
185.5175	0.113	371035	keystroke_a	a	n/a
185.7135	0.093	371427	keystroke_s	s	n/a
185.8575	0.112	371715	keystroke_u	u	n/a
186.008	0.091	372016	keystroke_r	r	n/a
186.19	0.068	372380	keystroke_e	e	n/a
186.304	0.092	372608	keystroke_m	m	n/a
186.397	0.112	372794	keystroke_e	e	n/a
186.5105	0.0665	373021	keystroke_n	n	n/a
186.5985	0.1345	373197	keystroke_t	t	n/a
186.846	0.113	373692	keystroke_s	s	n/a
187.022	0.069	374044	keystroke_Key.enter	Key.enter	n/a
187.097	16.313	374194	prompt	n/a	romania that'd rogers automation\n
188.165	0.115	376330	keystroke_r	r	n/a
188.347	0.092	376694	keystroke_o	o	n/a
188.523	0.069	377046	keystroke_m	m	n/a
188.7375	0.069	377475	keystroke_n	n	n/a
189.187	0.045	378374	keystroke_Key.backspace	Key.backspace	n/a
189.475	0.157	378950	keystroke_a	a	n/a
189.633	0.066	379266	keystroke_n	n	n/a
189.778	0.0915	379556	keystroke_i	i	n/a
189.9705	0.0935	379941	keystroke_a	a	n/a
190.129	0.112	380258	keystroke_Key.space	Key.space	n/a
191.0575	0.1365	382115	keystroke_t	t	n/a
191.2165	0.1125	382433	keystroke_h	h	n/a
191.4345	0.093	382869	keystroke_a	a	n/a
192.309	0.115	384618	keystroke_t	t	n/a
192.585	0.0895	385170	keystroke_'	'	n/a
192.923	0.1355	385846	keystroke_d	d	n/a
193.1385	0.1595	386277	keystroke_Key.space	Key.space	n/a
193.6445	0.135	387289	keystroke_r	r	n/a
193.8025	0.161	387605	keystroke_o	o	n/a
193.964	0.109	387928	keystroke_g	g	n/a
194.1175	0.1355	388235	keystroke_e	e	n/a
194.302	0.1345	388604	keystroke_r	r	n/a
194.5235	0.115	389047	keystroke_s	s	n/a
194.67	0.1365	389340	keystroke_Key.space	Key.space	n/a
194.868	0.1145	389736	keystroke_a	a	n/a
195.082	0.135	390164	keystroke_u	u	n/a
195.3875	0.135	390775	keystroke_m	m	n/a
195.745	0.135	391490	keystroke_t	t	n/a
195.9255	0.092	391851	keystroke_o	o	n/a
196.1645	0.0665	392329	keystroke_m	m	n/a
196.623	0.091	393246	keystroke_Key.backspace	Key.backspace	n/a
196.7995	0.135	393599	keystroke_Key.backspace	Key.backspace	n/a
197.01	0.0905	394020	keystroke_Key.backspace	Key.backspace	n/a
197.3045	0.0895	394609	keystroke_Key.backspace	Key.backspace	n/a
197.494	0.091	394988	keystroke_Key.backspace	Key.backspace	n/a
197.703	0.1155	395406	keystroke_t	t	n/a
197.9575	0.092	395915	keystroke_i	i	n/a
198.653	0.1365	397306	keystroke_Key.backspace	Key.backspace	n/a
199.223	0.0915	398446	keystroke_Key.backspace	Key.backspace	n/a
199.5155	0.115	399031	keystroke_u	u	n/a
199.7	0.134	399400	keystroke_t	t	n/a
200.7145	0.0675	401429	keystroke_o	o	n/a
200.925	0.0705	401850	keystroke_m	m	n/a
201.0855	0.067	402171	keystroke_a	a	n/a
201.1545	0.136	402309	keystroke_t	t	n/a
201.3215	0.115	402643	keystroke_i	i	n/a
201.518	0.113	403036	keystroke_o	o	n/a
203.12	0.113	406240	keystroke_n	n	n/a
203.317	0.0915	406634	keystroke_Key.enter	Key.enter	n/a
203.4145	7.497	406829	prompt	n/a	document vast estates lights\n
204.356	0.112	408712	keystroke_d	d	n/a
204.512	0.1825	409024	keystroke_o	o	n/a
204.648	0.1375	409296	keystroke_c	c	n/a
204.7855	0.09	409571	keystroke_u	u	n/a
205	0.09	410000	keystroke_m	m	n/a
205.1195	0.116	410239	keystroke_e	e	n/a
205.189	0.0485	410378	keystroke_n	n	n/a
205.3215	0.137	410643	keystroke_t	t	n/a
205.481	0.158	410962	keystroke_Key.space	Key.space	n/a
206.5385	0.179	413077	keystroke_v	v	n/a
206.719	0.135	413438	keystroke_a	a	n/a
206.8545	0.1785	413709	keystroke_s	s	n/a
207.055	0.135	414110	keystroke_t	t	n/a
207.221	0.136	414442	keystroke_Key.space	Key.space	n/a
207.4185	0.1835	414837	keystroke_e	e	n/a
207.77	0.0885	415540	keystroke_s	s	n/a
207.9515	0.1175	415903	keystroke_t	t	n/a
208.0695	0.1805	416139	keystroke_a	a	n/a
208.1805	0.138	416361	keystroke_t	t	n/a
208.349	0.1595	416698	keystroke_e	e	n/a
208.9905	0.1135	417981	keystroke_s	s	n/a
209.1835	0.0915	418367	keystroke_Key.space	Key.space	n/a
209.4145	0.112	418829	keystroke_l	l	n/a
209.6295	0.1115	419259	keystroke_i	i	n/a
210.2395	0.0925	420479	keystroke_g	g	n/a
210.3535	0.117	420707	keystroke_h	h	n/a
210.4715	0.112	420943	keystroke_t	t	n/a
210.681	0.137	421362	keystroke_s	s	n/a
210.8185	0.09	421637	keystroke_Key.enter	Key.enter	n/a
210.9165	10.7365	421833	prompt	n/a	worry virginia drawings maiden\n
211.788	0.1375	423576	keystroke_w	w	n/a
212.058	0.115	424116	keystroke_r	r	n/a
212.252	0.135	424504	keystroke_r	r	n/a
212.409	0.1145	424818	keystroke_y	y	n/a
213.0805	0.069	426161	keystroke_Key.backspace	Key.backspace	n/a
213.2295	0.069	426459	keystroke_Key.backspace	Key.backspace	n/a
213.4835	0.112	426967	keystroke_Key.backspace	Key.backspace	n/a
214.1975	0.0695	428395	keystroke_o	o	n/a
214.3375	0.091	428675	keystroke_r	r	n/a
214.5055	0.113	429011	keystroke_r	r	n/a
214.6725	0.134	429345	keystroke_y	y	n/a
214.8295	0.0915	429659	keystroke_Key.space	Key.space	n/a
215.063	0.117	430126	keystroke_v	v	n/a
215.2625	0.091	430525	keystroke_i	i	n/a
216.411	0.1115	432822	keystroke_r	r	n/a
216.616	0.0915	433232	keystroke_g	g	n/a
216.7375	0.046	433475	keystroke_i	i	n/a
216.8675	0.0915	433735	keystroke_n	n	n/a
217.01	0.113	434020	keystroke_i	i	n/a
217.17	0.113	434340	keystroke_a	a	n/a
217.2585	0.115	434517	keystroke_Key.space	Key.space	n/a
218.2055	0.115	436411	keystroke_d	d	n/a
218.4065	0.132	436813	keystroke_r	r	n/a
218.56	0.181	437120	keystroke_a	a	n/a
218.742	0.18	437484	keystroke_w	w	n/a
218.946	0.09	437892	keystroke_i	i	n/a
219.1355	0.07	438271	keystroke_n	n	n/a
219.2275	0.092	438455	keystroke_g	g	n/a
219.4235	0.1145	438847	keystroke_s	s	n/a
219.538	0.1385	439076	keystroke_Key.space	Key.space	n/a
220.28	0.2045	440560	keystroke_m	m	n/a
220.4605	0.159	440921	keystroke_a	a	n/a
220.72	0.135	441440	keystroke_i	i	n/a
220.9765	0.07	441953	keystroke_d	d	n/a
221.1455	0.159	442291	keystroke_e	e	n/a
221.2585	0.0885	442517	keystroke_n	n	n/a
221.5395	0.1115	443079	keystroke_Key.enter	Key.enter	n/a
221.6575	8.775	443315	prompt	n/a	hazardous sticker privacy holiday\n
222.6005	0.1325	445201	keystroke_h	h	n/a
222.774	0.114	445548	keystroke_a	a	n/a
223.0315	0.113	446063	keystroke_z	z	n/a
223.246	0.138	446492	keystroke_a	a	n/a
223.414	0.116	446828	keystroke_r	r	n/a
223.6345	0.113	447269	keystroke_d	d	n/a
223.8165	0.1345	447633	keystroke_o	o	n/a
223.9045	0.1365	447809	keystroke_u	u	n/a
224.149	0.113	448298	keystroke_s	s	n/a
224.482	0.1395	448964	keystroke_Key.space	Key.space	n/a
224.8385	0.1105	449677	keystroke_s	s	n/a
225.057	0.136	450114	keystroke_t	t	n/a
225.215	0.1165	450430	keystroke_i	i	n/a
225.487	0.0885	450974	keystroke_c	c	n/a
225.5985	0.0885	451197	keystroke_k	k	n/a
225.7395	0.0925	451479	keystroke_e	e	n/a
225.923	0.1135	451846	keystroke_r	r	n/a
226.0985	0.158	452197	keystroke_Key.space	Key.space	n/a
226.562	0.1365	453124	keystroke_p	p	n/a
226.7825	0.158	453565	keystroke_r	r	n/a
226.9175	0.1115	453835	keystroke_i	i	n/a
227.111	0.113	454222	keystroke_v	v	n/a
227.247	0.1115	454494	keystroke_a	a	n/a
227.483	0.135	454966	keystroke_c	c	n/a
227.6915	0.09	455383	keystroke_y	y	n/a
227.848	0.1355	455696	keystroke_Key.space	Key.space	n/a
228.8345	0.1115	457669	keystroke_h	h	n/a
228.977	0.09	457954	keystroke_o	o	n/a
229.157	0.0685	458314	keystroke_l	l	n/a
229.3385	0.0915	458677	keystroke_i	i	n/a
229.452	0.115	458904	keystroke_d	d	n/a
229.567	0.1345	459134	keystroke_a	a	n/a
229.724	0.0895	459448	keystroke_y	y	n/a
230.3165	0.114	460633	keystroke_Key.enter	Key.enter	n/a
230.438	39.486	460876	prompt	n/a	discrimination operates theft fiber\n
237.9675	0.1145	475935	keystroke_d	d	n/a
238.1035	0.114	476207	keystroke_i	i	n/a
238.2185	0.088	476437	keystroke_s	s	n/a
238.4225	0.092	476845	keystroke_c	c	n/a
239.6065	0.1385	479213	keystroke_r	r	n/a
242.3335	0.114	484667	keystroke_r	r	n/a
242.641	0.067	485282	keystroke_i	i	n/a
242.863	0.0925	485726	keystroke_m	m	n/a
243.049	0.113	486098	keystroke_i	i	n/a
243.212	0.1595	486424	keystroke_n	n	n/a
244.3295	0.117	488659	keystroke_a	a	n/a
244.4215	0.138	488843	keystroke_t	t	n/a
245.243	0.111	490486	keystroke_i	i	n/a
245.44	0.092	490880	keystroke_i	i	n/a
246.1475	0.091	492295	keystroke_n	n	n/a
246.474	0.1595	492948	keystroke_Key.space	Key.space	n/a
252.3315	0.069	504663	keystroke_Key.backspace	Key.backspace	n/a
252.4725	0.0665	504945	keystroke_Key.backspace	Key.backspace	n/a
252.6	0.0685	505200	keystroke_Key.backspace	Key.backspace	n/a
253.474	0.0905	506948	keystroke_o	o	n/a
253.7	0.069	507400	keystroke_n	n	n/a
253.844	0.1125	507688	keystroke_Key.space	Key.space	n/a
256.2185	0.092	512437	keystroke_Key.backspace	Key.backspace	n/a
256.3865	0.0675	512773	keystroke_Key.backspace	Key.backspace	n/a
256.52	0.071	513040	keystroke_Key.backspace	Key.backspace	n/a
257.288	0.0895	514576	keystroke_i	i	n/a
257.4645	0.092	514929	keystroke_m	m	n/a
257.637	0.091	515274	keystroke_i	i	n/a
257.782	0.1185	515564	keystroke_n	n	n/a
257.9425	0.136	515885	keystroke_t	t	n/a
258.0795	0.134	516159	keystroke_a	a	n/a
258.145	0.0905	516290	keystroke_i	i	n/a
258.3115	0.092	516623	keystroke_o	o	n/a
258.621	0.113	517242	keystroke_Key.space	Key.space	n/a
259.131	0.0895	518262	keystroke_Key.backspace	Key.backspace	n/a
259.5725	0.0905	519145	keystroke_Key.backspace	Key.backspace	n/a
259.742	0.089	519484	keystroke_Key.backspace	Key.backspace	n/a
259.88	0.0905	519760	keystroke_Key.backspace	Key.backspace	n/a
260.0415	0.115	520083	keystroke_Key.backspace	Key.backspace	n/a
260.2535	0.184	520507	keystroke_a	a	n/a
260.3455	0.1825	520691	keystroke_t	t	n/a
260.483	0.0885	520966	keystroke_i	i	n/a
260.646	0.1575	521292	keystroke_o	o	n/a
260.8045	0.089	521609	keystroke_n	n	n/a
260.9235	0.134	521847	keystroke_Key.space	Key.space	n/a
261.847	0.0695	523694	keystroke_o	o	n/a
261.996	0.113	523992	keystroke_o	o	n/a
262.1775	0.09	524355	keystroke_e	e	n/a
262.333	0.158	524666	keystroke_a	a	n/a
263.0555	0.0935	526111	keystroke_Key.backspace	Key.backspace	n/a
263.225	0.115	526450	keystroke_Key.backspace	Key.backspace	n/a
263.688	0.09	527376	keystroke_Key.backspace	Key.backspace	n/a
263.9815	0.1135	527963	keystroke_p	p	n/a
264.117	0.1375	528234	keystroke_e	e	n/a
264.347	0.181	528694	keystroke_r	r	n/a
264.37	0.16	528740	keystroke_a	a	n/a
265.4965	0.159	530993	keystroke_a	a	n/a
265.75	0.159	531500	keystroke_t	t	n/a
266.2415	0.0465	532483	keystroke_Key.backspace	Key.backspace	n/a
266.367	0.0925	532734	keystroke_Key.backspace	Key.backspace	n/a
266.542	0.045	533084	keystroke_t	t	n/a
266.7125	0.1155	533425	keystroke_e	e	n/a
266.9355	0.1355	533871	keystroke_s	s	n/a
267.107	0.158	534214	keystroke_Key.space	Key.space	n/a
267.4245	0.138	534849	keystroke_t	t	n/a
267.5845	0.1355	535169	keystroke_h	h	n/a
267.799	0.093	535598	keystroke_e	e	n/a
268.5125	0.0885	537025	keystroke_f	f	n/a
268.713	0.1135	537426	keystroke_t	t	n/a
268.919	0.1145	537838	keystroke_Key.space	Key.space	n/a
269.0905	0.068	538181	keystroke_f	f	n/a
269.1595	0.111	538319	keystroke_i	i	n/a
269.3655	0.0905	538731	keystroke_b	b	n/a
269.495	0.093	538990	keystroke_e	e	n/a
269.668	0.1155	539336	keystroke_r	r	n/a
269.7835	0.139	539567	keystroke_Key.enter	Key.enter	n/a
269.9285	6.652	539857	prompt	n/a	leave mating google centered\n
270.665	0.1585	541330	keystroke_l	l	n/a
270.8	0.1585	541600	keystroke_e	e	n/a
270.8905	0.1585	541781	keystroke_a	a	n/a
271.0715	0.0915	542143	keystroke_v	v	n/a
271.2355	0.112	542471	keystroke_e	e	n/a
271.368	0.158	542736	keystroke_Key.space	Key.space	n/a
271.6915	0.1375	543383	keystroke_m	m	n/a
271.902	0.1155	543804	keystroke_a	a	n/a
272.073	0.1135	544146	keystroke_t	t	n/a
272.225	0.0905	544450	keystroke_i	i	n/a
272.4035	0.0685	544807	keystroke_n	n	n/a
272.494	0.111	544988	keystroke_g	g	n/a
272.6065	0.1365	545213	keystroke_Key.space	Key.space	n/a
272.8215	0.093	545643	keystroke_g	g	n/a
272.9155	0.0665	545831	keystroke_o	o	n/a
273.02	0.114	546040	keystroke_o	o	n/a
273.163	0.1135	546326	keystroke_g	g	n/a
273.2975	0.1155	546595	keystroke_l	l	n/a
273.434	0.1135	546868	keystroke_e	e	n/a
273.548	0.09	547096	keystroke_Key.space	Key.space	n/a
273.6685	0.1365	547337	keystroke_c	c	n/a
273.879	0.1375	547758	keystroke_e	e	n/a
273.992	0.092	547984	keystroke_n	n	n/a
274.1625	0.1115	548325	keystroke_t	t	n/a
274.368	0.0685	548736	keystroke_e	e	n/a
274.5195	0.09	549039	keystroke_r	r	n/a
274.707	0.0705	549414	keystroke_e	e	n/a
274.853	0.115	549706	keystroke_d	d	n/a
274.989	0.137	549978	keystroke_'	'	n/a
276.202	0.1135	552404	keystroke_Key.backspace	Key.backspace	n/a
276.4885	0.09	552977	keystroke_Key.enter	Key.enter	n/a
276.5855	15.158	553171	prompt	n/a	guitar singer experience candy\n
277.832	0.092	555664	keystroke_g	g	n/a
277.985	0.091	555970	keystroke_u	u	n/a
278.144	0.1345	556288	keystroke_i	i	n/a
278.279	0.1125	556558	keystroke_t	t	n/a
278.3675	0.134	556735	keystroke_a	a	n/a
279.4785	0.1135	558957	keystroke_r	r	n/a
279.6395	0.1115	559279	keystroke_Key.space	Key.space	n/a
279.801	0.0915	559602	keystroke_s	s	n/a
279.8935	0.088	559787	keystroke_i	i	n/a
280.061	0.0905	560122	keystroke_n	n	n/a
280.1725	0.1135	560345	keystroke_g	g	n/a
280.263	0.1365	560526	keystroke_a	a	n/a
280.4565	0.1605	560913	keystroke_r	r	n/a
281.3895	0.093	562779	keystroke_Key.backspace	Key.backspace	n/a
281.55	0.1145	563100	keystroke_Key.backspace	Key.backspace	n/a
282.06	0.113	564120	keystroke_e	e	n/a
282.255	0.1135	564510	keystroke_r	r	n/a
282.3915	0.114	564783	keystroke_Key.space	Key.space	n/a
282.674	0.0905	565348	keystroke_e	e	n/a
283.086	0.025	566172	keystroke_x	x	n/a
283.212	0.023	566424	keystroke_x	x	n/a
283.285	0.1805	566570	keystroke_p	p	n/a
283.496	0.1105	566992	keystroke_e	e	n/a
283.6935	0.07	567387	keystroke_r	r	n/a
283.8755	0.139	567751	keystroke_e	e	n/a
284.0155	0.0885	568031	keystroke_i	i	n/a
284.209	0.09	568418	keystroke_n	n	n/a
284.299	0.1345	568598	keystroke_c	c	n/a
284.366	0.1575	568732	keystroke_e	e	n/a
284.5535	0.1155	569107	keystroke_Key.space	Key.space	n/a
284.802	0.092	569604	keystroke_Key.backspace	Key.backspace	n/a
284.967	0.046	569934	keystroke_Key.backspace	Key.backspace	n/a
285.091	0.067	570182	keystroke_Key.backspace	Key.backspace	n/a
285.229	0.047	570458	keystroke_Key.backspace	Key.backspace	n/a
285.3485	0.068	570697	keystroke_Key.backspace	Key.backspace	n/a
285.659	0.113	571318	keystroke_Key.backspace	Key.backspace	n/a
285.9925	0.091	571985	keystroke_i	i	n/a
286.1155	0.135	572231	keystroke_e	e	n/a
286.2275	0.09	572455	keystroke_n	n	n/a
286.3195	0.136	572639	keystroke_c	c	n/a
286.4095	0.137	572819	keystroke_e	e	n/a
286.5005	0.1135	573001	keystroke_Key.space	Key.space	n/a
287.1595	0.0695	574319	keystroke_Key.backspace	Key.backspace	n/a
287.3395	0.0465	574679	keystroke_Key.backspace	Key.backspace	n/a
287.487	0.044	574974	keystroke_Key.backspace	Key.backspace	n/a
287.7475	0.093	575495	keystroke_Key.backspace	Key.backspace	n/a
287.9195	0.0905	575839	keystroke_Key.backspace	Key.backspace	n/a
288.058	0.09	576116	keystroke_Key.backspace	Key.backspace	n/a
288.2285	0.0895	576457	keystroke_Key.backspace	Key.backspace	n/a
288.393	0.068	576786	keystroke_Key.backspace	Key.backspace	n/a
288.532	0.115	577064	keystroke_Key.backspace	Key.backspace	n/a
288.7555	0.1145	577511	keystroke_Key.backspace	Key.backspace	n/a
289.1905	0.135	578381	keystroke_p	p	n/a
289.3265	0.0885	578653	keystroke_e	e	n/a
289.487	0.088	578974	keystroke_r	r	n/a
289.668	0.07	579336	keystroke_i	i	n/a
289.804	0.1135	579608	keystroke_e	e	n/a
289.894	0.0695	579788	keystroke_n	n	n/a
289.9855	0.1165	579971	keystroke_c	c	n/a
290.0325	0.1615	580065	keystroke_e	e	n/a
290.169	0.1595	580338	keystroke_Key.space	Key.space	n/a
290.859	0.1385	581718	keystroke_c	c	n/a
290.9745	0.1345	581949	keystroke_a	a	n/a
291.11	0.092	582220	keystroke_n	n	n/a
291.238	0.09	582476	keystroke_d	d	n/a
291.4005	0.0455	582801	keystroke_y	y	n/a
291.6515	0.0895	583303	keystroke_Key.enter	Key.enter	n/a
291.7485	12.3465	583497	prompt	n/a	attacked symptoms judicial business\n
292.421	0.1355	584842	keystroke_a	a	n/a
292.5775	0.2955	585155	keystroke_t	t	n/a
292.826	0.139	585652	keystroke_a	a	n/a
293.004	0.092	586008	keystroke_c	c	n/a
293.145	0.093	586290	keystroke_k	k	n/a
293.238	0.0685	586476	keystroke_e	e	n/a
293.3885	0.1145	586777	keystroke_d	d	n/a
293.527	0.1115	587054	keystroke_Key.space	Key.space	n/a
293.7645	0.113	587529	keystroke_s	s	n/a
294.1545	0.069	588309	keystroke_Key.backspace	Key.backspace	n/a
294.319	0.1795	588638	keystroke_Key.backspace	Key.backspace	n/a
294.5835	0.0685	589167	keystroke_Key.backspace	Key.backspace	n/a
294.737	0.069	589474	keystroke_Key.backspace	Key.backspace	n/a
294.879	0.0685	589758	keystroke_Key.backspace	Key.backspace	n/a
295.013	0.066	590026	keystroke_Key.backspace	Key.backspace	n/a
295.326	0.1165	590652	keystroke_Key.backspace	Key.backspace	n/a
295.4735	0.138	590947	keystroke_t	t	n/a
295.6125	0.156	591225	keystroke_a	a	n/a
295.833	0.0905	591666	keystroke_c	c	n/a
295.9995	0.069	591999	keystroke_k	k	n/a
296.0895	0.067	592179	keystroke_e	e	n/a
296.2335	0.115	592467	keystroke_d	d	n/a
296.3495	0.0875	592699	keystroke_Key.space	Key.space	n/a
296.4595	0.116	592919	keystroke_s	s	n/a
296.577	0.067	593154	keystroke_y	y	n/a
296.7695	0.066	593539	keystroke_m	m	n/a
296.91	0.091	593820	keystroke_p	p	n/a
297.035	0.093	594070	keystroke_t	t	n/a
297.1895	0.069	594379	keystroke_o	o	n/a
297.3435	0.092	594687	keystroke_m	m	n/a
297.482	0.0905	594964	keystroke_s	s	n/a
297.5935	0.135	595187	keystroke_Key.space	Key.space	n/a
298.8015	0.0695	597603	keystroke_j	j	n/a
298.9185	0.092	597837	keystroke_u	u	n/a
299.095	0.1125	598190	keystroke_d	d	n/a
299.2285	0.07	598457	keystroke_i	i	n/a
299.3755	0.1125	598751	keystroke_c	c	n/a
299.488	0.0685	598976	keystroke_i	i	n/a
299.66	0.092	599320	keystroke_a	a	n/a
299.774	0.114	599548	keystroke_l	l	n/a
299.91	0.1115	599820	keystroke_Key.space	Key.space	n/a
300.6575	0.1125	601315	keystroke_b	b	n/a
301.3955	0.067	602791	keystroke_Key.backspace	Key.backspace	n/a
301.553	0.114	603106	keystroke_v	v	n/a
302.196	0.137	604392	keystroke_Key.backspace	Key.backspace	n/a
302.515	0.091	605030	keystroke_b	b	n/a
302.6895	0.111	605379	keystroke_u	u	n/a
302.833	0.1135	605666	keystroke_s	s	n/a
302.9685	0.1145	605937	keystroke_i	i	n/a
303.2445	0.095	606489	keystroke_n	n	n/a
303.4335	0.1165	606867	keystroke_e	e	n/a
303.654	0.068	607308	keystroke_s	s	n/a
303.801	0.134	607602	keystroke_s	s	n/a
303.9575	0.1355	607915	keystroke_Key.enter	Key.enter	n/a
304.1015	7.1655	608203	prompt	n/a	medical opposition delete tray\n
304.8425	0.135	609685	keystroke_m	m	n/a
304.9995	0.0915	609999	keystroke_e	e	n/a
305.1745	0.0935	610349	keystroke_d	d	n/a
305.244	0.091	610488	keystroke_i	i	n/a
305.366	0.1125	610732	keystroke_c	c	n/a
305.4795	0.157	610959	keystroke_a	a	n/a
305.5675	0.136	611135	keystroke_l	l	n/a
305.6575	0.115	611315	keystroke_Key.space	Key.space	n/a
306.338	0.0905	612676	keystroke_o	o	n/a
306.5235	0.069	613047	keystroke_p	p	n/a
306.659	0.115	613318	keystroke_p	p	n/a
306.848	0.114	613696	keystroke_o	o	n/a
306.9985	0.091	613997	keystroke_s	s	n/a
307.1645	0.0885	614329	keystroke_i	i	n/a
307.306	0.1155	614612	keystroke_t	t	n/a
307.3975	0.093	614795	keystroke_i	i	n/a
307.5355	0.112	615071	keystroke_o	o	n/a
307.746	0.07	615492	keystroke_n	n	n/a
307.9135	0.113	615827	keystroke_Key.space	Key.space	n/a
308.1085	0.0675	616217	keystroke_d	d	n/a
308.267	0.135	616534	keystroke_e	e	n/a
308.4025	0.1115	616805	keystroke_l	l	n/a
308.515	0.115	617030	keystroke_t	t	n/a
308.7105	0.112	617421	keystroke_e	e	n/a
309.2015	0.0905	618403	keystroke_Key.backspace	Key.backspace	n/a
309.34	0.116	618680	keystroke_Key.backspace	Key.backspace	n/a
309.431	0.092	618862	keystroke_e	e	n/a
309.591	0.0685	619182	keystroke_t	t	n/a
309.7075	0.137	619415	keystroke_e	e	n/a
310.1105	0.135	620221	keystroke_Key.space	Key.space	n/a
310.3265	0.092	620653	keystroke_t	t	n/a
310.495	0.091	620990	keystroke_r	r	n/a
310.7185	0.1625	621437	keystroke_a	a	n/a
310.832	0.0935	621664	keystroke_y	y	n/a
311.15	0.115	622300	keystroke_Key.enter	Key.enter	n/a
311.2715	15.497	622543	prompt	n/a	january applications software who'll\n
312.2385	0.069	624477	keystroke_j	j	n/a
312.3955	0.091	624791	keystroke_a	a	n/a
312.4625	0.092	624925	keystroke_n	n	n/a
312.6275	0.0695	625255	keystroke_u	u	n/a
312.674	0.114	625348	keystroke_a	a	n/a
312.7635	0.1145	625527	keystroke_r	r	n/a
312.9435	0.023	625887	keystroke_y	y	n/a
313.13	0.0905	626260	keystroke_Key.space	Key.space	n/a
314.104	0.091	628208	keystroke_Key.backspace	Key.backspace	n/a
314.267	0.0715	628534	keystroke_Key.backspace	Key.backspace	n/a
314.4155	0.069	628831	keystroke_Key.backspace	Key.backspace	n/a
314.5695	0.0685	629139	keystroke_Key.backspace	Key.backspace	n/a
315.2775	0.1385	630555	keystroke_a	a	n/a
315.417	0.113	630834	keystroke_r	r	n/a
316.0275	0.0685	632055	keystroke_y	y	n/a
316.17	0.0895	632340	keystroke_Key.space	Key.space	n/a
318.0195	0.1375	636039	keystroke_a	a	n/a
318.179	0.0655	636358	keystroke_p	p	n/a
318.2855	0.114	636571	keystroke_p	p	n/a
318.4755	0.0895	636951	keystroke_l	l	n/a
318.643	0.069	637286	keystroke_i	i	n/a
318.734	0.0705	637468	keystroke_c	c	n/a
318.7805	0.1145	637561	keystroke_a	a	n/a
318.917	0.0895	637834	keystroke_i	i	n/a
318.939	0.1355	637878	keystroke_t	t	n/a
319.0965	0.092	638193	keystroke_o	o	n/a
319.2755	0.068	638551	keystroke_n	n	n/a
319.408	0.093	638816	keystroke_s	s	n/a
319.778	0.09	639556	keystroke_Key.backspace	Key.backspace	n/a
319.944	0.07	639888	keystroke_Key.backspace	Key.backspace	n/a
320.075	0.07	640150	keystroke_Key.backspace	Key.backspace	n/a
320.168	0.091	640336	keystroke_Key.backspace	Key.backspace	n/a
320.3195	0.09	640639	keystroke_Key.backspace	Key.backspace	n/a
320.5955	0.158	641191	keystroke_t	t	n/a
320.7545	0.069	641509	keystroke_i	i	n/a
320.8915	0.09	641783	keystroke_o	o	n/a
321.0375	0.092	642075	keystroke_n	n	n/a
321.1595	0.1135	642319	keystroke_s	s	n/a
321.2505	0.1335	642501	keystroke_Key.space	Key.space	n/a
322.0545	0.1155	644109	keystroke_s	s	n/a
322.203	0.135	644406	keystroke_o	o	n/a
322.438	0.0905	644876	keystroke_f	f	n/a
322.6175	0.134	645235	keystroke_t	t	n/a
322.822	0.157	645644	keystroke_w	w	n/a
322.956	0.1595	645912	keystroke_a	a	n/a
323.046	0.138	646092	keystroke_r	r	n/a
323.283	0.135	646566	keystroke_e	e	n/a
323.448	0.1355	646896	keystroke_Key.space	Key.space	n/a
324.2975	0.158	648595	keystroke_w	w	n/a
324.4995	0.1385	648999	keystroke_h	h	n/a
324.729	0.0935	649458	keystroke_o	o	n/a
325.322	0.114	650644	keystroke_'	'	n/a
325.665	0.0455	651330	keystroke_l	l	n/a
325.776	0.1125	651552	keystroke_l	l	n/a
326.653	0.113	653306	keystroke_Key.enter	Key.enter	n/a
326.7735	12.3695	653547	prompt	n/a	concrete satisfaction custom suspended\n
327.601	0.091	655202	keystroke_c	c	n/a
327.6925	0.067	655385	keystroke_o	o	n/a
327.838	0.115	655676	keystroke_n	n	n/a
327.984	0.091	655968	keystroke_c	c	n/a
328.029	0.136	656058	keystroke_e	e	n/a
328.9215	0.091	657843	keystroke_Key.backspace	Key.backspace	n/a
329.0765	0.094	658153	keystroke_r	r	n/a
329.2815	0.0915	658563	keystroke_e	e	n/a
329.463	0.092	658926	keystroke_t	t	n/a
329.646	0.0925	659292	keystroke_e	e	n/a
329.7915	0.1335	659583	keystroke_Key.space	Key.space	n/a
330.5295	0.115	661059	keystroke_s	s	n/a
330.7285	0.1365	661457	keystroke_a	a	n/a
330.9245	0.1165	661849	keystroke_t	t	n/a
331.0935	0.135	662187	keystroke_i	i	n/a
331.4205	0.159	662841	keystroke_s	s	n/a
332.8925	0.1145	665785	keystroke_i	i	n/a
333.1925	0.069	666385	keystroke_f	f	n/a
333.7865	0.113	667573	keystroke_a	a	n/a
333.9835	0.092	667967	keystroke_c	c	n/a
334.2005	0.114	668401	keystroke_t	t	n/a
334.3155	0.092	668631	keystroke_i	i	n/a
334.4695	0.092	668939	keystroke_o	o	n/a
334.649	0.0695	669298	keystroke_n	n	n/a
334.836	0.1365	669672	keystroke_Key.space	Key.space	n/a
335.3405	0.1135	670681	keystroke_c	c	n/a
335.736	0.0925	671472	keystroke_u	u	n/a
335.8725	0.07	671745	keystroke_s	s	n/a
335.9915	0.1125	671983	keystroke_t	t	n/a
336.1255	0.069	672251	keystroke_o	o	n/a
336.2935	0.048	672587	keystroke_m	m	n/a
336.445	0.09	672890	keystroke_Key.space	Key.space	n/a
336.9885	0.1135	673977	keystroke_s	s	n/a
337.168	0.0915	674336	keystroke_u	u	n/a
337.28	0.0915	674560	keystroke_s	s	n/a
337.4075	0.114	674815	keystroke_p	p	n/a
337.5425	0.069	675085	keystroke_e	e	n/a
337.7125	0.069	675425	keystroke_n	n	n/a
337.898	0.113	675796	keystroke_d	d	n/a
338.5975	0.091	677195	keystroke_e	e	n/a
338.84	0.113	677680	keystroke_d	d	n/a
339.072	0.069	678144	keystroke_Key.enter	Key.enter	n/a
339.148	6.945	678296	prompt	n/a	repairs solving bite carries\n
340.0265	0.1135	680053	keystroke_r	r	n/a
340.204	0.137	680408	keystroke_e	e	n/a
340.365	0.1335	680730	keystroke_p	p	n/a
340.52	0.1355	681040	keystroke_a	a	n/a
340.7765	0.1135	681553	keystroke_i	i	n/a
340.891	0.133	681782	keystroke_r	r	n/a
341.134	0.1125	682268	keystroke_s	s	n/a
341.2835	0.1365	682567	keystroke_Key.space	Key.space	n/a
341.8955	0.1345	683791	keystroke_s	s	n/a
342.076	0.093	684152	keystroke_o	o	n/a
342.2485	0.092	684497	keystroke_l	l	n/a
342.7685	0.115	685537	keystroke_v	v	n/a
342.8835	0.069	685767	keystroke_i	i	n/a
343.0335	0.0685	686067	keystroke_n	n	n/a
343.1415	0.1155	686283	keystroke_g	g	n/a
343.232	0.115	686464	keystroke_Key.space	Key.space	n/a
343.5015	0.0685	687003	keystroke_b	b	n/a
343.643	0.115	687286	keystroke_i	i	n/a
343.781	0.09	687562	keystroke_t	t	n/a
343.977	0.1125	687954	keystroke_e	e	n/a
344.0905	0.133	688181	keystroke_Key.space	Key.space	n/a
344.6595	0.136	689319	keystroke_c	c	n/a
344.8165	0.1355	689633	keystroke_a	a	n/a
344.9535	0.0435	689907	keystroke_r	r	n/a
345.073	0.114	690146	keystroke_r	r	n/a
345.2385	0.1375	690477	keystroke_i	i	n/a
345.3765	0.1335	690753	keystroke_e	e	n/a
345.6245	0.113	691249	keystroke_r	r	n/a
345.8425	0.1135	691685	keystroke_s	s	n/a
345.978	0.113	691956	keystroke_Key.enter	Key.enter	n/a
346.0975	16.3785	692195	prompt	n/a	mozilla promising badly oscar\n
347.334	0.1135	694668	keystroke_m	m	n/a
347.5125	0.092	695025	keystroke_i	i	n/a
347.6755	0.09	695351	keystroke_z	z	n/a
348.2215	0.2055	696443	keystroke_Key.backspace	Key.backspace	n/a
348.538	0.112	697076	keystroke_Key.backspace	Key.backspace	n/a
349.027	0.1375	698054	keystroke_z	z	n/a
349.628	0.09	699256	keystroke_Key.backspace	Key.backspace	n/a
350.1145	0.092	700229	keystroke_o	o	n/a
350.546	0.0915	701092	keystroke_z	z	n/a
350.7735	0.089	701547	keystroke_a	a	n/a
350.9695	0.0925	701939	keystroke_i	i	n/a
351.526	0.0675	703052	keystroke_Key.backspace	Key.backspace	n/a
351.676	0.0925	703352	keystroke_Key.backspace	Key.backspace	n/a
351.9605	0.089	703921	keystroke_i	i	n/a
352.219	0.0675	704438	keystroke_l	l	n/a
352.35	0.09	704700	keystroke_l	l	n/a
352.535	0.0905	705070	keystroke_a	a	n/a
352.669	0.1345	705338	keystroke_Key.space	Key.space	n/a
353.12	0.133	706240	keystroke_p	p	n/a
353.3805	0.09	706761	keystroke_o	o	n/a
353.558	0.0705	707116	keystroke_m	m	n/a
353.9925	0.0695	707985	keystroke_Key.backspace	Key.backspace	n/a
354.133	0.0685	708266	keystroke_Key.backspace	Key.backspace	n/a
354.4305	0.1125	708861	keystroke_r	r	n/a
355.168	0.0685	710336	keystroke_o	o	n/a
355.3105	0.068	710621	keystroke_m	m	n/a
355.4475	0.1135	710895	keystroke_i	i	n/a
355.583	0.114	711166	keystroke_s	s	n/a
355.674	0.09	711348	keystroke_i	i	n/a
355.8345	0.091	711669	keystroke_i	i	n/a
356.287	0.0715	712574	keystroke_Key.backspace	Key.backspace	n/a
356.4165	0.069	712833	keystroke_Key.backspace	Key.backspace	n/a
356.983	0.069	713966	keystroke_i	i	n/a
357.1425	0.047	714285	keystroke_n	n	n/a
357.2565	0.1155	714513	keystroke_g	g	n/a
357.348	0.114	714696	keystroke_Key.space	Key.space	n/a
358.3765	0.161	716753	keystroke_s	s	n/a
358.9875	0.1375	717975	keystroke_Key.backspace	Key.backspace	n/a
359.709	0.115	719418	keystroke_b	b	n/a
359.8465	0.1135	719693	keystroke_a	a	n/a
360.0345	0.1145	720069	keystroke_d	d	n/a
360.179	0.114	720358	keystroke_l	l	n/a
360.4115	0.092	720823	keystroke_y	y	n/a
360.5045	0.1145	721009	keystroke_Key.space	Key.space	n/a
361.198	0.1125	722396	keystroke_o	o	n/a
361.2655	0.1365	722531	keystroke_s	s	n/a
361.545	0.1365	723090	keystroke_c	c	n/a
361.6825	0.089	723365	keystroke_a	a	n/a
361.8265	0.1605	723653	keystroke_r	r	n/a
362.3175	0.1565	724635	keystroke_Key.enter	Key.enter	n/a
362.48	12.6455	724960	prompt	n/a	strategies pros quilt pdas\n
363.1535	0.158	726307	keystroke_s	s	n/a
363.457	0.0915	726914	keystroke_t	t	n/a
363.6375	0.116	727275	keystroke_r	r	n/a
363.786	0.201	727572	keystroke_a	a	n/a
364.1265	0.114	728253	keystroke_g	g	n/a
364.677	0.114	729354	keystroke_Key.backspace	Key.backspace	n/a
364.813	0.068	729626	keystroke_t	t	n/a
364.9785	0.1345	729957	keystroke_e	e	n/a
366.603	0.0905	733206	keystroke_g	g	n/a
366.7445	0.1365	733489	keystroke_i	i	n/a
366.882	0.089	733764	keystroke_e	e	n/a
367.0755	0.112	734151	keystroke_s	s	n/a
367.189	0.1575	734378	keystroke_Key.space	Key.space	n/a
367.3685	0.14	734737	keystroke_p	p	n/a
367.653	0.136	735306	keystroke_r	r	n/a
368.171	0.1335	736342	keystroke_o	o	n/a
368.653	0.1355	737306	keystroke_s	s	n/a
368.87	0.1605	737740	keystroke_Key.space	Key.space	n/a
369.505	0.1145	739010	keystroke_q	q	n/a
369.7525	0.133	739505	keystroke_i	i	n/a
370.2805	0.09	740561	keystroke_Key.backspace	Key.backspace	n/a
370.5465	0.0685	741093	keystroke_y	y	n/a
370.8005	0.092	741601	keystroke_i	i	n/a
371.0175	0.092	742035	keystroke_l	l	n/a
371.166	0.1355	742332	keystroke_t	t	n/a
371.7115	0.069	743423	keystroke_Key.backspace	Key.backspace	n/a
371.8585	0.069	743717	keystroke_Key.backspace	Key.backspace	n/a
372.0005	0.068	744001	keystroke_Key.backspace	Key.backspace	n/a
372.1415	0.069	744283	keystroke_Key.backspace	Key.backspace	n/a
372.8145	0.0695	745629	keystroke_u	u	n/a
372.945	0.0915	745890	keystroke_i	i	n/a
373.1695	0.092	746339	keystroke_l	l	n/a
373.317	0.112	746634	keystroke_t	t	n/a
373.469	0.1585	746938	keystroke_Key.space	Key.space	n/a
374.335	0.134	748670	keystroke_p	p	n/a
374.491	0.1355	748982	keystroke_d	d	n/a
374.628	0.1585	749256	keystroke_a	a	n/a
374.8515	0.113	749703	keystroke_s	s	n/a
375.009	0.114	750018	keystroke_Key.enter	Key.enter	n/a
375.1325	17.0245	750265	prompt	n/a	dictionary graphs chargers guidelines\n
376.0475	0.137	752095	keystroke_d	d	n/a
376.2525	0.114	752505	keystroke_i	i	n/a
376.4175	0.07	752835	keystroke_c	c	n/a
376.659	0.1155	753318	keystroke_t	t	n/a
376.7505	0.0705	753501	keystroke_i	i	n/a
376.8845	0.0905	753769	keystroke_o	o	n/a
377.118	0.114	754236	keystroke_a	a	n/a
377.805	0.093	755610	keystroke_Key.backspace	Key.backspace	n/a
378.3625	0.1135	756725	keystroke_n	n	n/a
378.5075	0.1165	757015	keystroke_a	a	n/a
378.646	0.1145	757292	keystroke_r	r	n/a
378.8305	0.07	757661	keystroke_y	y	n/a
379.0005	0.091	758001	keystroke_Key.space	Key.space	n/a
379.9195	0.0905	759839	keystroke_g	g	n/a
380.1005	0.112	760201	keystroke_r	r	n/a
380.2455	0.1555	760491	keystroke_a	a	n/a
380.423	0.1135	760846	keystroke_p	p	n/a
380.634	0.1125	761268	keystroke_h	h	n/a
380.8195	0.0895	761639	keystroke_s	s	n/a
382.304	0.115	764608	keystroke_s	s	n/a
382.42	0.111	764840	keystroke_Key.space	Key.space	n/a
382.6145	0.114	765229	keystroke_c	c	n/a
382.7045	0.1135	765409	keystroke_h	h	n/a
382.7945	0.18	765589	keystroke_a	a	n/a
382.928	0.114	765856	keystroke_r	r	n/a
383.0645	0.1375	766129	keystroke_g	g	n/a
383.2715	0.112	766543	keystroke_e	e	n/a
383.484	0.1115	766968	keystroke_s	s	n/a
383.9245	0.0915	767849	keystroke_Key.backspace	Key.backspace	n/a
384.162	0.0905	768324	keystroke_r	r	n/a
384.3615	0.09	768723	keystroke_s	s	n/a
384.4745	0.135	768949	keystroke_Key.space	Key.space	n/a
386.158	0.092	772316	keystroke_Key.backspace	Key.backspace	n/a
386.606	0.158	773212	keystroke_Key.space	Key.space	n/a
387.013	0.0895	774026	keystroke_Key.backspace	Key.backspace	n/a
387.266	0.0905	774532	keystroke_Key.backspace	Key.backspace	n/a
387.5125	0.137	775025	keystroke_Key.space	Key.space	n/a
387.731	0.134	775462	keystroke_c	c	n/a
387.866	0.111	775732	keystroke_h	h	n/a
387.979	0.136	775958	keystroke_a	a	n/a
388.044	0.1605	776088	keystroke_r	r	n/a
388.244	0.1355	776488	keystroke_g	g	n/a
388.4355	0.1095	776871	keystroke_e	e	n/a
388.6145	0.0905	777229	keystroke_r	r	n/a
388.788	0.0935	777576	keystroke_s	s	n/a
388.9025	0.136	777805	keystroke_Key.space	Key.space	n/a
390.4855	0.091	780971	keystroke_g	g	n/a
390.6285	0.0925	781257	keystroke_u	u	n/a
390.795	0.1175	781590	keystroke_i	i	n/a
390.932	0.0895	781864	keystroke_d	d	n/a
391.097	0.1155	782194	keystroke_e	e	n/a
391.2135	0.114	782427	keystroke_l	l	n/a
391.4995	0.1115	782999	keystroke_i	i	n/a
391.6935	0.092	783387	keystroke_n	n	n/a
391.8085	0.0685	783617	keystroke_e	e	n/a
391.955	0.11	783910	keystroke_s	s	n/a
392.086	0.069	784172	keystroke_Key.enter	Key.enter	n/a
392.1615	12.6145	784323	prompt	n/a	continually portal surgeon throwing\n
392.928	0.1145	785856	keystroke_c	c	n/a
393.0635	0.0935	786127	keystroke_o	o	n/a
393.347	0.114	786694	keystroke_t	t	n/a
393.8325	0.0665	787665	keystroke_Key.backspace	Key.backspace	n/a
394.4075	0.0895	788815	keystroke_n	n	n/a
394.6	0.114	789200	keystroke_t	t	n/a
394.715	0.069	789430	keystroke_i	i	n/a
394.852	0.0485	789704	keystroke_n	n	n/a
395.0015	0.068	790003	keystroke_u	u	n/a
395.1395	0.0925	790279	keystroke_a	a	n/a
395.233	0.0645	790466	keystroke_l	l	n/a
395.361	0.09	790722	keystroke_l	l	n/a
395.8115	0.09	791623	keystroke_u	u	n/a
396.059	0.1335	792118	keystroke_Key.space	Key.space	n/a
396.616	0.069	793232	keystroke_Key.backspace	Key.backspace	n/a
396.75	0.115	793500	keystroke_Key.backspace	Key.backspace	n/a
397.415	0.0915	794830	keystroke_y	y	n/a
397.5285	0.092	795057	keystroke_Key.space	Key.space	n/a
398.529	0.0915	797058	keystroke_p	p	n/a
398.6865	0.136	797373	keystroke_o	o	n/a
398.7985	0.116	797597	keystroke_r	r	n/a
399.053	0.159	798106	keystroke_t	t	n/a
399.212	0.1345	798424	keystroke_a	a	n/a
399.3475	0.137	798695	keystroke_l	l	n/a
399.4605	0.135	798921	keystroke_Key.space	Key.space	n/a
399.5965	0.089	799193	keystroke_s	s	n/a
399.7095	0.115	799419	keystroke_u	u	n/a
400.402	0.113	800804	keystroke_r	r	n/a
400.599	0.1145	801198	keystroke_g	g	n/a
401.3035	0.1165	802607	keystroke_e	e	n/a
401.45	0.089	802900	keystroke_o	o	n/a
401.64	0.0455	803280	keystroke_n	n	n/a
401.7795	0.135	803559	keystroke_Key.space	Key.space	n/a
402.393	0.113	804786	keystroke_t	t	n/a
402.528	0.092	805056	keystroke_h	h	n/a
402.6885	0.114	805377	keystroke_r	r	n/a
402.8035	0.09	805607	keystroke_o	o	n/a
402.9255	0.162	805851	keystroke_w	w	n/a
403.041	0.092	806082	keystroke_i	i	n/a
403.214	0.0685	806428	keystroke_n	n	n/a
403.322	0.0935	806644	keystroke_g	g	n/a
403.5365	0.092	807073	keystroke_'	'	n/a
404.424	0.137	808848	keystroke_Key.backspace	Key.backspace	n/a
404.66	0.114	809320	keystroke_Key.enter	Key.enter	n/a
404.779	8.012	809558	prompt	n/a	reprints east sizes broke\n
405.5935	0.093	811187	keystroke_r	r	n/a
405.7605	0.1135	811521	keystroke_e	e	n/a
405.918	0.113	811836	keystroke_p	p	n/a
406.0615	0.1135	812123	keystroke_r	r	n/a
406.232	0.068	812464	keystroke_i	i	n/a
406.3795	0.091	812759	keystroke_n	n	n/a
406.4475	0.1145	812895	keystroke_t	t	n/a
406.6705	0.0885	813341	keystroke_s	s	n/a
406.792	0.135	813584	keystroke_Key.space	Key.space	n/a
406.9975	0.135	813995	keystroke_e	e	n/a
407.1535	0.1125	814307	keystroke_a	a	n/a
407.347	0.025	814694	keystroke_d	d	n/a
407.393	0.024	814786	keystroke_s	s	n/a
407.438	0.1585	814876	keystroke_t	t	n/a
407.6195	0.114	815239	keystroke_Key.space	Key.space	n/a
407.8225	0.0695	815645	keystroke_s	s	n/a
407.923	0.1145	815846	keystroke_i	i	n/a
408.2555	0.067	816511	keystroke_Key.backspace	Key.backspace	n/a
408.4165	0.0675	816833	keystroke_Key.backspace	Key.backspace	n/a
408.5675	0.0685	817135	keystroke_Key.backspace	Key.backspace	n/a
408.729	0.0685	817458	keystroke_Key.backspace	Key.backspace	n/a
408.876	0.1155	817752	keystroke_Key.backspace	Key.backspace	n/a
409.289	0.0705	818578	keystroke_Key.backspace	Key.backspace	n/a
409.432	0.0915	818864	keystroke_s	s	n/a
409.568	0.116	819136	keystroke_t	t	n/a
409.707	0.1135	819414	keystroke_Key.space	Key.space	n/a
409.886	0.0695	819772	keystroke_s	s	n/a
409.9755	0.091	819951	keystroke_i	i	n/a
410.366	0.1615	820732	keystroke_z	z	n/a
410.5035	0.1145	821007	keystroke_e	e	n/a
410.732	0.0685	821464	keystroke_s	s	n/a
411.008	0.115	822016	keystroke_Key.space	Key.space	n/a
411.7535	0.113	823507	keystroke_b	b	n/a
411.94	0.116	823880	keystroke_r	r	n/a
412.107	0.0235	824214	keystroke_o	o	n/a
412.2405	0.091	824481	keystroke_k	k	n/a
412.3545	0.069	824709	keystroke_e	e	n/a
412.699	0.09	825398	keystroke_Key.enter	Key.enter	n/a
412.796	16.6305	825592	prompt	n/a	before flooring modeling transferred\n
413.7435	0.0925	827487	keystroke_b	b	n/a
413.908	0.1165	827816	keystroke_e	e	n/a
414.149	0.0905	828298	keystroke_f	f	n/a
414.279	0.07	828558	keystroke_o	o	n/a
414.35	0.089	828700	keystroke_r	r	n/a
414.5355	0.111	829071	keystroke_e	e	n/a
414.676	0.1145	829352	keystroke_Key.space	Key.space	n/a
414.905	0.091	829810	keystroke_f	f	n/a
415.027	0.091	830054	keystroke_l	l	n/a
415.1915	0.115	830383	keystroke_o	o	n/a
415.3675	0.069	830735	keystroke_r	r	n/a
415.516	0.138	831032	keystroke_r	r	n/a
415.655	0.09	831310	keystroke_i	i	n/a
415.828	0.0695	831656	keystroke_n	n	n/a
415.932	0.1155	831864	keystroke_g	g	n/a
416.0225	0.093	832045	keystroke_Key.space	Key.space	n/a
416.1885	0.1125	832377	keystroke_m	m	n/a
416.3585	0.136	832717	keystroke_o	o	n/a
416.925	0.09	833850	keystroke_e	e	n/a
417.125	0.091	834250	keystroke_d	d	n/a
417.2645	0.0685	834529	keystroke_l	l	n/a
417.9835	0.07	835967	keystroke_Key.backspace	Key.backspace	n/a
418.2015	0.0925	836403	keystroke_Key.backspace	Key.backspace	n/a
418.365	0.113	836730	keystroke_Key.backspace	Key.backspace	n/a
418.5115	0.092	837023	keystroke_d	d	n/a
418.7095	0.1575	837419	keystroke_e	e	n/a
418.89	0.046	837780	keystroke_l	l	n/a
419.1545	0.0905	838309	keystroke_i	i	n/a
419.3195	0.112	838639	keystroke_i	i	n/a
419.5285	0.069	839057	keystroke_n	n	n/a
420.0835	0.137	840167	keystroke_Key.space	Key.space	n/a
420.651	0.093	841302	keystroke_Key.backspace	Key.backspace	n/a
420.8625	0.072	841725	keystroke_h	h	n/a
421.0615	0.1595	842123	keystroke_Key.space	Key.space	n/a
421.344	0.069	842688	keystroke_Key.backspace	Key.backspace	n/a
421.4935	0.0705	842987	keystroke_Key.backspace	Key.backspace	n/a
421.635	0.0665	843270	keystroke_Key.backspace	Key.backspace	n/a
421.7815	0.068	843563	keystroke_Key.backspace	Key.backspace	n/a
423.46	0.069	846920	keystroke_n	n	n/a
423.575	0.1115	847150	keystroke_g	g	n/a
423.6875	0.111	847375	keystroke_Key.space	Key.space	n/a
423.8875	0.136	847775	keystroke_t	t	n/a
424.086	0.138	848172	keystroke_r	r	n/a
424.2	0.114	848400	keystroke_a	a	n/a
424.376	0.1155	848752	keystroke_s	s	n/a
424.4925	0.11	848985	keystroke_n	n	n/a
424.6365	0.1805	849273	keystroke_f	f	n/a
424.77	0.161	849540	keystroke_e	e	n/a
425.188	0.068	850376	keystroke_Key.backspace	Key.backspace	n/a
425.33	0.071	850660	keystroke_Key.backspace	Key.backspace	n/a
425.4815	0.0695	850963	keystroke_Key.backspace	Key.backspace	n/a
425.5945	0.1365	851189	keystroke_Key.backspace	Key.backspace	n/a
426.217	0.1135	852434	keystroke_n	n	n/a
426.3805	0.137	852761	keystroke_s	s	n/a
426.6195	0.1145	853239	keystroke_f	f	n/a
426.82	0.134	853640	keystroke_e	e	n/a
427.038	0.1135	854076	keystroke_r	r	n/a
427.2325	0.116	854465	keystroke_r	r	n/a
427.429	0.09	854858	keystroke_e	e	n/a
427.62	0.114	855240	keystroke_d	d	n/a
427.7635	0.138	855527	keystroke_Key.space	Key.space	n/a
429.3545	0.0705	858709	keystroke_Key.enter	Key.enter	n/a
429.432	11.072	858864	prompt	n/a	actual show textile designation\n
432.328	0.2465	864656	keystroke_a	a	n/a
432.5515	0.1155	865103	keystroke_c	c	n/a
432.77	0.114	865540	keystroke_t	t	n/a
432.906	0.0685	865812	keystroke_u	u	n/a
433.0065	0.137	866013	keystroke_a	a	n/a
433.1445	0.1345	866289	keystroke_l	l	n/a
433.256	0.069	866512	keystroke_Key.space	Key.space	n/a
433.326	0.092	866652	keystroke_s	s	n/a
433.4415	0.0925	866883	keystroke_h	h	n/a
433.535	0.0885	867070	keystroke_o	o	n/a
433.6235	0.112	867247	keystroke_w	w	n/a
433.7975	0.113	867595	keystroke_Key.space	Key.space	n/a
434.598	0.1375	869196	keystroke_t	t	n/a
434.838	0.089	869676	keystroke_e	e	n/a
435.1675	0.0475	870335	keystroke_x	x	n/a
435.32	0.115	870640	keystroke_t	t	n/a
435.486	0.0695	870972	keystroke_i	i	n/a
435.67	0.09	871340	keystroke_l	l	n/a
436.5275	0.112	873055	keystroke_e	e	n/a
436.7435	0.0915	873487	keystroke_Key.space	Key.space	n/a
436.8575	0.0705	873715	keystroke_d	d	n/a
437.025	0.0685	874050	keystroke_e	e	n/a
437.19	0.089	874380	keystroke_s	s	n/a
437.3695	0.088	874739	keystroke_i	i	n/a
437.9845	0.092	875969	keystroke_g	g	n/a
438.147	0.113	876294	keystroke_n	n	n/a
438.302	0.069	876604	keystroke_t	t	n/a
438.393	0.114	876786	keystroke_a	a	n/a
438.508	0.137	877016	keystroke_t	t	n/a
438.7045	0.115	877409	keystroke_i	i	n/a
439.149	0.0675	878298	keystroke_Key.backspace	Key.backspace	n/a
439.2915	0.0665	878583	keystroke_Key.backspace	Key.backspace	n/a
439.4445	0.0445	878889	keystroke_Key.backspace	Key.backspace	n/a
439.565	0.092	879130	keystroke_Key.backspace	Key.backspace	n/a
439.658	0.1125	879316	keystroke_a	a	n/a
439.746	0.136	879492	keystroke_t	t	n/a
439.883	0.067	879766	keystroke_i	i	n/a
440.024	0.1605	880048	keystroke_o	o	n/a
440.16	0.0925	880320	keystroke_n	n	n/a
440.433	0.0695	880866	keystroke_Key.enter	Key.enter	n/a
440.5085	9.4445	881017	prompt	n/a	illustration multimedia head beneficial\n
441.427	0.0895	882854	keystroke_i	i	n/a
441.616	0.068	883232	keystroke_l	l	n/a
441.743	0.091	883486	keystroke_l	l	n/a
441.949	0.0925	883898	keystroke_u	u	n/a
442.0635	0.07	884127	keystroke_s	s	n/a
442.2175	0.1115	884435	keystroke_t	t	n/a
442.377	0.114	884754	keystroke_r	r	n/a
442.492	0.09	884984	keystroke_a	a	n/a
442.582	0.136	885164	keystroke_t	t	n/a
442.719	0.0665	885438	keystroke_i	i	n/a
442.8495	0.115	885699	keystroke_o	o	n/a
443.0115	0.0905	886023	keystroke_n	n	n/a
443.1805	0.1125	886361	keystroke_Key.space	Key.space	n/a
443.646	0.1135	887292	keystroke_m	m	n/a
443.921	0.091	887842	keystroke_u	u	n/a
444.1325	0.091	888265	keystroke_l	l	n/a
444.309	0.091	888618	keystroke_t	t	n/a
444.455	0.0685	888910	keystroke_i	i	n/a
444.6655	0.0915	889331	keystroke_m	m	n/a
444.7795	0.09	889559	keystroke_e	e	n/a
444.944	0.115	889888	keystroke_d	d	n/a
445.1355	0.0695	890271	keystroke_i	i	n/a
445.387	0.113	890774	keystroke_a	a	n/a
445.553	0.114	891106	keystroke_Key.space	Key.space	n/a
446.8035	0.114	893607	keystroke_h	h	n/a
446.9175	0.2025	893835	keystroke_e	e	n/a
447.0295	0.137	894059	keystroke_a	a	n/a
447.229	0.135	894458	keystroke_d	d	n/a
447.364	0.1125	894728	keystroke_Key.space	Key.space	n/a
447.567	0.092	895134	keystroke_b	b	n/a
447.693	0.0925	895386	keystroke_e	e	n/a
448.6125	0.136	897225	keystroke_n	n	n/a
448.818	0.1115	897636	keystroke_e	e	n/a
449.0155	0.114	898031	keystroke_f	f	n/a
449.1305	0.114	898261	keystroke_i	i	n/a
449.2655	0.0915	898531	keystroke_c	c	n/a
449.358	0.092	898716	keystroke_i	i	n/a
449.5175	0.0685	899035	keystroke_a	a	n/a
449.632	0.0695	899264	keystroke_l	l	n/a
449.86	0.091	899720	keystroke_Key.enter	Key.enter	n/a
449.956	14.406	899912	prompt	n/a	rural forestry trainer quarter\n
450.9605	0.112	901921	keystroke_r	r	n/a
451.281	0.1135	902562	keystroke_u	u	n/a
451.427	0.114	902854	keystroke_r	r	n/a
451.563	0.1155	903126	keystroke_a	a	n/a
451.631	0.1375	903262	keystroke_r	r	n/a
451.79	0.069	903580	keystroke_;	;	n/a
451.897	0.135	903794	keystroke_Key.space	Key.space	n/a
452.3295	0.0695	904659	keystroke_Key.backspace	Key.backspace	n/a
452.451	0.091	904902	keystroke_Key.backspace	Key.backspace	n/a
452.6555	0.09	905311	keystroke_l	l	n/a
452.8265	0.1135	905653	keystroke_Key.space	Key.space	n/a
452.973	0.115	905946	keystroke_f	f	n/a
453.089	0.091	906178	keystroke_o	o	n/a
453.181	0.1125	906362	keystroke_r	r	n/a
453.577	0.069	907154	keystroke_Key.backspace	Key.backspace	n/a
453.722	0.091	907444	keystroke_Key.backspace	Key.backspace	n/a
453.836	0.091	907672	keystroke_Key.backspace	Key.backspace	n/a
454.005	0.045	908010	keystroke_Key.backspace	Key.backspace	n/a
454.117	0.07	908234	keystroke_Key.backspace	Key.backspace	n/a
454.2425	0.089	908485	keystroke_Key.backspace	Key.backspace	n/a
454.3535	0.137	908707	keystroke_Key.backspace	Key.backspace	n/a
454.5125	0.115	909025	keystroke_r	r	n/a
454.6605	0.1375	909321	keystroke_a	a	n/a
454.751	0.069	909502	keystroke_l	l	n/a
454.886	0.117	909772	keystroke_Key.space	Key.space	n/a
455.1855	0.068	910371	keystroke_Key.backspace	Key.backspace	n/a
455.3295	0.068	910659	keystroke_Key.backspace	Key.backspace	n/a
455.484	0.1365	910968	keystroke_Key.backspace	Key.backspace	n/a
455.6765	0.09	911353	keystroke_Key.backspace	Key.backspace	n/a
455.844	0.091	911688	keystroke_a	a	n/a
455.957	0.068	911914	keystroke_l	l	n/a
456.046	0.114	912092	keystroke_Key.space	Key.space	n/a
456.276	0.112	912552	keystroke_f	f	n/a
456.44	0.1345	912880	keystroke_o	o	n/a
456.5755	0.113	913151	keystroke_r	r	n/a
456.8085	0.1625	913617	keystroke_s	s	n/a
456.947	0.114	913894	keystroke_e	e	n/a
457.3705	0.069	914741	keystroke_Key.backspace	Key.backspace	n/a
457.5205	0.092	915041	keystroke_Key.backspace	Key.backspace	n/a
457.5875	0.093	915175	keystroke_e	e	n/a
457.901	0.1125	915802	keystroke_t	t	n/a
458.1005	0.0905	916201	keystroke_r	r	n/a
458.5025	0.068	917005	keystroke_Key.backspace	Key.backspace	n/a
458.6375	0.094	917275	keystroke_Key.backspace	Key.backspace	n/a
458.7535	0.137	917507	keystroke_s	s	n/a
458.92	0.114	917840	keystroke_t	t	n/a
459.1215	0.112	918243	keystroke_r	r	n/a
459.8685	0.091	919737	keystroke_y	y	n/a
460.129	0.1355	920258	keystroke_Key.space	Key.space	n/a
460.591	0.067	921182	keystroke_t	t	n/a
460.755	0.114	921510	keystroke_r	r	n/a
460.9	0.1585	921800	keystroke_a	a	n/a
461.0815	0.047	922163	keystroke_i	i	n/a
461.2115	0.089	922423	keystroke_n	n	n/a
461.338	0.068	922676	keystroke_e	e	n/a
461.484	0.114	922968	keystroke_r	r	n/a
461.641	0.0695	923282	keystroke_Key.space	Key.space	n/a
462.857	0.1145	925714	keystroke_q	q	n/a
463.254	0.069	926508	keystroke_u	u	n/a
463.355	0.139	926710	keystroke_a	a	n/a
463.4695	0.0915	926939	keystroke_r	r	n/a
463.6965	0.135	927393	keystroke_t	t	n/a
463.9305	0.114	927861	keystroke_e	e	n/a
464.12	0.117	928240	keystroke_r	r	n/a
464.268	0.0925	928536	keystroke_Key.enter	Key.enter	n/a
464.366	15.198	928732	prompt	n/a	treasury looksmart jane uncertainty\n
465.2545	0.1135	930509	keystroke_t	t	n/a
465.446	0.136	930892	keystroke_r	r	n/a
465.7185	0.2265	931437	keystroke_e	e	n/a
466.0995	0.115	932199	keystroke_a	a	n/a
466.326	0.091	932652	keystroke_s	s	n/a
466.473	0.1115	932946	keystroke_u	u	n/a
466.6265	0.092	933253	keystroke_r	r	n/a
466.835	0.1545	933670	keystroke_e	e	n/a
467.032	0.089	934064	keystroke_y	y	n/a
467.4955	0.048	934991	keystroke_Key.backspace	Key.backspace	n/a
467.616	0.093	935232	keystroke_Key.backspace	Key.backspace	n/a
467.7515	0.0675	935503	keystroke_r	r	n/a
467.947	0.0885	935894	keystroke_y	y	n/a
468.363	0.0695	936726	keystroke_Key.backspace	Key.backspace	n/a
468.505	0.071	937010	keystroke_Key.backspace	Key.backspace	n/a
468.8015	0.07	937603	keystroke_y	y	n/a
468.825	0.0485	937650	keystroke_t	t	n/a
468.936	0.114	937872	keystroke_Key.space	Key.space	n/a
469.425	0.067	938850	keystroke_Key.backspace	Key.backspace	n/a
469.531	0.0925	939062	keystroke_Key.backspace	Key.backspace	n/a
469.725	0.1135	939450	keystroke_Key.space	Key.space	n/a
470.7995	0.071	941599	keystroke_l	l	n/a
471.026	0.0485	942052	keystroke_o	o	n/a
471.1845	0.069	942369	keystroke_o	o	n/a
471.4205	0.1125	942841	keystroke_k	k	n/a
471.614	0.066	943228	keystroke_s	s	n/a
471.8695	0.1125	943739	keystroke_m	m	n/a
472.016	0.138	944032	keystroke_a	a	n/a
472.1305	0.115	944261	keystroke_r	r	n/a
472.3715	0.092	944743	keystroke_t	t	n/a
472.7585	0.18	945517	keystroke_Key.space	Key.space	n/a
473.6355	0.0915	947271	keystroke_j	j	n/a
473.7735	0.1135	947547	keystroke_a	a	n/a
473.9485	0.0685	947897	keystroke_n	n	n/a
474.082	0.091	948164	keystroke_e	e	n/a
474.1965	0.114	948393	keystroke_Key.space	Key.space	n/a
475.291	0.0685	950582	keystroke_u	u	n/a
475.452	0.0905	950904	keystroke_n	n	n/a
475.597	0.136	951194	keystroke_c	c	n/a
475.778	0.1355	951556	keystroke_e	e	n/a
476.024	0.113	952048	keystroke_r	r	n/a
476.258	0.093	952516	keystroke_t	t	n/a
476.408	0.068	952816	keystroke_a	a	n/a
476.536	0.0705	953072	keystroke_i	i	n/a
476.7185	0.069	953437	keystroke_n	n	n/a
478.3225	0.113	956645	keystroke_t	t	n/a
479.127	0.116	958254	keystroke_y	y	n/a
479.492	0.07	958984	keystroke_Key.enter	Key.enter	n/a
479.574	11.276	959148	prompt	n/a	trust legacy desired computation\n
480.9525	0.135	961905	keystroke_t	t	n/a
481.491	0.134	962982	keystroke_r	r	n/a
481.7945	0.1135	963589	keystroke_u	u	n/a
481.939	0.0915	963878	keystroke_s	s	n/a
482.1185	0.114	964237	keystroke_t	t	n/a
482.2335	0.1145	964467	keystroke_Key.space	Key.space	n/a
482.432	0.115	964864	keystroke_l	l	n/a
482.663	0.115	965326	keystroke_e	e	n/a
482.879	0.0925	965758	keystroke_g	g	n/a
482.973	0.021	965946	keystroke_f	f	n/a
482.995	0.1755	965990	keystroke_a	a	n/a
483.2925	0.113	966585	keystroke_c	c	n/a
483.651	0.071	967302	keystroke_Key.backspace	Key.backspace	n/a
483.789	0.068	967578	keystroke_Key.backspace	Key.backspace	n/a
483.91	0.0925	967820	keystroke_Key.backspace	Key.backspace	n/a
484.0245	0.2075	968049	keystroke_a	a	n/a
484.652	0.133	969304	keystroke_c	c	n/a
485.059	0.1145	970118	keystroke_t	t	n/a
485.728	0.069	971456	keystroke_Key.backspace	Key.backspace	n/a
485.925	0.092	971850	keystroke_y	y	n/a
486.495	0.137	972990	keystroke_Key.space	Key.space	n/a
487.1105	0.092	974221	keystroke_d	d	n/a
487.282	0.069	974564	keystroke_e	e	n/a
487.446	0.09	974892	keystroke_s	s	n/a
487.5575	0.137	975115	keystroke_i	i	n/a
487.649	0.0915	975298	keystroke_r	r	n/a
487.832	0.092	975664	keystroke_e	e	n/a
488.0005	0.114	976001	keystroke_d	d	n/a
488.1355	0.1355	976271	keystroke_Key.space	Key.space	n/a
488.7555	0.112	977511	keystroke_c	c	n/a
488.9545	0.092	977909	keystroke_o	o	n/a
489.114	0.115	978228	keystroke_m	m	n/a
489.3095	0.159	978619	keystroke_p	p	n/a
489.5995	0.1345	979199	keystroke_u	u	n/a
489.818	0.114	979636	keystroke_t	t	n/a
489.9325	0.1135	979865	keystroke_a	a	n/a
490.0225	0.136	980045	keystroke_t	t	n/a
490.0905	0.09	980181	keystroke_i	i	n/a
490.249	0.113	980498	keystroke_o	o	n/a
490.4415	0.0895	980883	keystroke_n	n	n/a
490.637	0.091	981274	keystroke_Key.space	Key.space	n/a
490.7585	0.089	981517	keystroke_Key.enter	Key.enter	n/a
490.855	11.762	981710	prompt	n/a	welsh exports computing munich\n
492.01	0.181	984020	keystroke_w	w	n/a
492.222	0.182	984444	keystroke_e	e	n/a
493.009	0.1825	986018	keystroke_l	l	n/a
493.23	0.112	986460	keystroke_s	s	n/a
493.486	0.091	986972	keystroke_h	h	n/a
493.8405	0.157	987681	keystroke_Key.space	Key.space	n/a
494.479	0.113	988958	keystroke_e	e	n/a
494.8325	0.158	989665	keystroke_x	x	n/a
495.053	0.1145	990106	keystroke_p	p	n/a
495.2555	0.1395	990511	keystroke_o	o	n/a
495.423	0.115	990846	keystroke_s	s	n/a
495.6775	0.09	991355	keystroke_t	t	n/a
495.9605	0.115	991921	keystroke_t	t	n/a
496.251	0.1575	992502	keystroke_Key.space	Key.space	n/a
496.6585	0.091	993317	keystroke_Key.backspace	Key.backspace	n/a
496.822	0.068	993644	keystroke_Key.backspace	Key.backspace	n/a
496.937	0.114	993874	keystroke_Key.backspace	Key.backspace	n/a
497.074	0.137	994148	keystroke_r	r	n/a
497.302	0.1145	994604	keystroke_Key.backspace	Key.backspace	n/a
497.4515	0.117	994903	keystroke_Key.backspace	Key.backspace	n/a
497.5695	0.0905	995139	keystroke_r	r	n/a
497.7125	0.1155	995425	keystroke_t	t	n/a
497.91	0.1385	995820	keystroke_s	s	n/a
498.2665	0.1385	996533	keystroke_Key.space	Key.space	n/a
499.0035	0.136	998007	keystroke_c	c	n/a
499.169	0.093	998338	keystroke_o	o	n/a
499.321	0.0685	998642	keystroke_m	m	n/a
499.4655	0.112	998931	keystroke_p	p	n/a
499.6695	0.0915	999339	keystroke_u	u	n/a
499.83	0.116	999660	keystroke_t	t	n/a
499.923	0.089	999846	keystroke_i	i	n/a
500.0885	0.068	1000177	keystroke_n	n	n/a
500.1985	0.093	1000397	keystroke_g	g	n/a
500.2675	0.111	1000535	keystroke_Key.space	Key.space	n/a
501.226	0.157	1002452	keystroke_m	m	n/a
501.6185	0.1155	1003237	keystroke_u	u	n/a
501.8945	0.069	1003789	keystroke_n	n	n/a
502.013	0.092	1004026	keystroke_i	i	n/a
502.169	0.09	1004338	keystroke_c	c	n/a
502.293	0.0695	1004586	keystroke_h	h	n/a
502.5245	0.0905	1005049	keystroke_Key.enter	Key.enter	n/a
502.6235	11.0245	1005247	prompt	n/a	declare mathematical wash wilderness\n
503.4125	0.092	1006825	keystroke_d	d	n/a
503.5945	0.112	1007189	keystroke_e	e	n/a
503.729	0.157	1007458	keystroke_l	l	n/a
503.9075	0.137	1007815	keystroke_c	c	n/a
504.0455	0.135	1008091	keystroke_a	a	n/a
504.1825	0.087	1008365	keystroke_r	r	n/a
504.377	0.111	1008754	keystroke_e	e	n/a
504.6135	0.139	1009227	keystroke_Key.space	Key.space	n/a
506.5495	0.0905	1013099	keystroke_c	c	n/a
506.74	0.1355	1013480	keystroke_l	l	n/a
506.8765	0.135	1013753	keystroke_a	a	n/a
506.9865	0.091	1013973	keystroke_r	r	n/a
507.178	0.114	1014356	keystroke_e	e	n/a
507.3135	0.136	1014627	keystroke_Key.space	Key.space	n/a
508.121	0.1345	1016242	keystroke_m	m	n/a
508.2565	0.2025	1016513	keystroke_a	a	n/a
508.3675	0.0925	1016735	keystroke_t	t	n/a
508.51	0.115	1017020	keystroke_h	h	n/a
508.6635	0.1135	1017327	keystroke_e	e	n/a
509.0555	0.1365	1018111	keystroke_m	m	n/a
509.214	0.135	1018428	keystroke_a	a	n/a
509.35	0.091	1018700	keystroke_t	t	n/a
509.463	0.0925	1018926	keystroke_i	i	n/a
509.6045	0.0905	1019209	keystroke_c	c	n/a
509.696	0.1105	1019392	keystroke_a	a	n/a
509.783	0.162	1019566	keystroke_l	l	n/a
509.9455	0.0895	1019891	keystroke_Key.space	Key.space	n/a
510.36	0.1385	1020720	keystroke_w	w	n/a
510.4995	0.1345	1020999	keystroke_a	a	n/a
510.696	0.1155	1021392	keystroke_s	s	n/a
510.8325	0.182	1021665	keystroke_h	h	n/a
511.0675	0.1355	1022135	keystroke_Key.space	Key.space	n/a
511.348	0.1365	1022696	keystroke_w	w	n/a
511.507	0.113	1023014	keystroke_i	i	n/a
511.7755	0.0925	1023551	keystroke_l	l	n/a
511.947	0.1105	1023894	keystroke_d	d	n/a
512.3105	0.1825	1024621	keystroke_e	e	n/a
512.574	0.1125	1025148	keystroke_r	r	n/a
512.8105	0.114	1025621	keystroke_n	n	n/a
513.035	0.111	1026070	keystroke_e	e	n/a
513.257	0.068	1026514	keystroke_s	s	n/a
513.3975	0.115	1026795	keystroke_s	s	n/a
513.5345	0.112	1027069	keystroke_Key.enter	Key.enter	n/a
513.651	18.1995	1027302	prompt	n/a	parliament suspension uniprotkb import\n
515.3415	0.113	1030683	keystroke_p	p	n/a
515.573	0.069	1031146	keystroke_Key.caps_lock	Key.caps_lock	n/a
515.693	0.136	1031386	keystroke_r	r	n/a
515.863	0.09	1031726	keystroke_l	l	n/a
516.031	0.0675	1032062	keystroke_i	i	n/a
516.145	0.093	1032290	keystroke_a	a	n/a
516.2385	0.091	1032477	keystroke_m	m	n/a
516.3815	0.1385	1032763	keystroke_e	e	n/a
516.542	0.0685	1033084	keystroke_n	n	n/a
518.117	0.116	1036234	keystroke_Key.caps_lock	Key.caps_lock	n/a
518.549	0.156	1037098	keystroke_p	p	n/a
518.7275	0.1575	1037455	keystroke_a	a	n/a
518.907	0.091	1037814	keystroke_r	r	n/a
519.6325	0.092	1039265	keystroke_l	l	n/a
521.5305	0.137	1043061	keystroke_i	i	n/a
521.932	0.0905	1043864	keystroke_a	a	n/a
522.067	0.07	1044134	keystroke_m	m	n/a
522.203	0.116	1044406	keystroke_e	e	n/a
522.341	0.046	1044682	keystroke_n	n	n/a
522.441	0.135	1044882	keystroke_t	t	n/a
522.6225	0.158	1045245	keystroke_Key.space	Key.space	n/a
522.9865	0.0915	1045973	keystroke_s	s	n/a
523.121	0.113	1046242	keystroke_u	u	n/a
523.235	0.115	1046470	keystroke_s	s	n/a
523.4135	0.1385	1046827	keystroke_p	p	n/a
523.612	0.1125	1047224	keystroke_e	e	n/a
524.1565	0.136	1048313	keystroke_n	n	n/a
524.3545	0.069	1048709	keystroke_s	s	n/a
524.454	0.116	1048908	keystroke_i	i	n/a
524.6285	0.091	1049257	keystroke_o	o	n/a
524.7975	0.067	1049595	keystroke_n	n	n/a
525.0005	0.115	1050001	keystroke_Key.space	Key.space	n/a
525.828	0.114	1051656	keystroke_u	u	n/a
526.0405	0.092	1052081	keystroke_n	n	n/a
526.2515	0.0665	1052503	keystroke_i	i	n/a
527.416	0.1345	1054832	keystroke_p	p	n/a
527.6645	0.138	1055329	keystroke_r	r	n/a
527.8035	0.134	1055607	keystroke_o	o	n/a
528.0145	0.0905	1056029	keystroke_t	t	n/a
529.4085	0.0885	1058817	keystroke_k	k	n/a
529.6945	0.092	1059389	keystroke_b	b	n/a
529.9975	0.1375	1059995	keystroke_Key.space	Key.space	n/a
530.806	0.094	1061612	keystroke_i	i	n/a
530.983	0.07	1061966	keystroke_m	m	n/a
531.128	0.091	1062256	keystroke_p	p	n/a
531.2835	0.113	1062567	keystroke_o	o	n/a
531.3975	0.089	1062795	keystroke_r	r	n/a
531.5655	0.1115	1063131	keystroke_t	t	n/a
531.736	0.1125	1063472	keystroke_Key.enter	Key.enter	n/a
531.854	16.6405	1063708	prompt	n/a	alexander rays garlic examinations\n
532.5305	0.136	1065061	keystroke_a	a	n/a
532.746	0.1575	1065492	keystroke_l	l	n/a
532.925	0.094	1065850	keystroke_e	e	n/a
533.3335	0.1365	1066667	keystroke_x	x	n/a
533.5915	0.135	1067183	keystroke_a	a	n/a
533.786	0.1145	1067572	keystroke_n	n	n/a
533.875	0.1135	1067750	keystroke_d	d	n/a
534.0735	0.1165	1068147	keystroke_e	e	n/a
534.2555	0.111	1068511	keystroke_r	r	n/a
534.4225	0.1555	1068845	keystroke_Key.space	Key.space	n/a
535.2565	0.1565	1070513	keystroke_r	r	n/a
535.435	0.159	1070870	keystroke_a	a	n/a
535.7275	0.0685	1071455	keystroke_y	y	n/a
535.905	0.0905	1071810	keystroke_s	s	n/a
536.017	0.157	1072034	keystroke_Key.space	Key.space	n/a
536.6185	0.136	1073237	keystroke_f	f	n/a
536.7305	0.1835	1073461	keystroke_a	a	n/a
536.889	0.1345	1073778	keystroke_r	r	n/a
537.0255	0.089	1074051	keystroke_l	l	n/a
537.2215	0.113	1074443	keystroke_i	i	n/a
537.3735	0.112	1074747	keystroke_c	c	n/a
537.545	0.116	1075090	keystroke_Key.space	Key.space	n/a
537.963	0.1115	1075926	keystroke_e	e	n/a
538.3315	0.1365	1076663	keystroke_x	x	n/a
538.5465	0.115	1077093	keystroke_a	a	n/a
538.6625	0.113	1077325	keystroke_m	m	n/a
538.835	0.0685	1077670	keystroke_i	i	n/a
538.9745	0.0685	1077949	keystroke_n	n	n/a
539.104	0.092	1078208	keystroke_i	i	n/a
539.172	0.07	1078344	keystroke_s	s	n/a
539.3305	0.158	1078661	keystroke_t	t	n/a
539.4645	0.094	1078929	keystroke_i	i	n/a
539.6475	0.069	1079295	keystroke_o	o	n/a
539.8785	0.067	1079757	keystroke_Key.backspace	Key.backspace	n/a
540.0245	0.07	1080049	keystroke_Key.backspace	Key.backspace	n/a
540.166	0.0695	1080332	keystroke_Key.backspace	Key.backspace	n/a
540.2895	0.067	1080579	keystroke_Key.backspace	Key.backspace	n/a
540.424	0.091	1080848	keystroke_Key.backspace	Key.backspace	n/a
540.584	0.1135	1081168	keystroke_Key.backspace	Key.backspace	n/a
540.806	0.137	1081612	keystroke_a	a	n/a
541.292	0.09	1082584	keystroke_Key.backspace	Key.backspace	n/a
541.6675	0.2015	1083335	keystroke_a	a	n/a
541.846	0.0905	1083692	keystroke_t	t	n/a
542.1685	0.07	1084337	keystroke_Key.backspace	Key.backspace	n/a
542.3235	0.1145	1084647	keystroke_Key.backspace	Key.backspace	n/a
542.878	0.091	1085756	keystroke_n	n	n/a
542.9915	0.181	1085983	keystroke_a	a	n/a
543.1035	0.114	1086207	keystroke_t	t	n/a
543.1945	0.09	1086389	keystroke_i	i	n/a
543.3565	0.1605	1086713	keystroke_o	o	n/a
543.4935	0.1145	1086987	keystroke_n	n	n/a
543.6765	0.112	1087353	keystroke_s	s	n/a
544.403	0.135	1088806	keystroke_Key.space	Key.space	n/a
547.99	0.115	1095980	keystroke_Key.backspace	Key.backspace	n/a
548.2675	0.091	1096535	keystroke_g	g	n/a
548.4	0.0925	1096800	keystroke_Key.enter	Key.enter	n/a
548.4995	17.5205	1096999	prompt	n/a	square nintendo growth when's\n
549.289	0.1575	1098578	keystroke_s	s	n/a
549.6675	0.0885	1099335	keystroke_q	q	n/a
549.965	0.069	1099930	keystroke_u	u	n/a
550.0995	0.113	1100199	keystroke_r	r	n/a
550.831	0.1135	1101662	keystroke_Key.backspace	Key.backspace	n/a
550.9755	0.202	1101951	keystroke_a	a	n/a
551.1105	0.112	1102221	keystroke_r	r	n/a
551.3035	0.139	1102607	keystroke_e	e	n/a
551.5075	0.1135	1103015	keystroke_Key.space	Key.space	n/a
552.49	0.1135	1104980	keystroke_i	i	n/a
552.917	0.09	1105834	keystroke_Key.backspace	Key.backspace	n/a
553.161	0.0885	1106322	keystroke_n	n	n/a
553.311	0.0885	1106622	keystroke_i	i	n/a
553.4475	0.0915	1106895	keystroke_n	n	n/a
553.594	0.092	1107188	keystroke_t	t	n/a
553.776	0.1365	1107552	keystroke_e	e	n/a
554.0535	0.067	1108107	keystroke_n	n	n/a
554.246	0.111	1108492	keystroke_d	d	n/a
554.402	0.092	1108804	keystroke_i	i	n/a
555.092	0.091	1110184	keystroke_Key.backspace	Key.backspace	n/a
555.314	0.093	1110628	keystroke_o	o	n/a
555.4995	0.1125	1110999	keystroke_Key.space	Key.space	n/a
556.164	0.133	1112328	keystroke_g	g	n/a
556.334	0.225	1112668	keystroke_w	w	n/a
556.492	0.112	1112984	keystroke_o	o	n/a
556.9275	0.0495	1113855	keystroke_Key.backspace	Key.backspace	n/a
557.019	0.0905	1114038	keystroke_Key.backspace	Key.backspace	n/a
557.1335	0.0885	1114267	keystroke_r	r	n/a
557.2995	0.1805	1114599	keystroke_w	w	n/a
557.433	0.0915	1114866	keystroke_i	i	n/a
557.6535	0.136	1115307	keystroke_t	t	n/a
558.0185	0.0475	1116037	keystroke_=	=	n/a
558.151	0.068	1116302	keystroke_=	=	n/a
558.3045	0.0895	1116609	keystroke_=	=	n/a
558.495	0.089	1116990	keystroke_Key.backspace	Key.backspace	n/a
558.661	0.068	1117322	keystroke_Key.backspace	Key.backspace	n/a
558.8095	0.068	1117619	keystroke_Key.backspace	Key.backspace	n/a
558.9585	0.07	1117917	keystroke_Key.backspace	Key.backspace	n/a
559.121	0.0895	1118242	keystroke_Key.backspace	Key.backspace	n/a
559.2745	0.093	1118549	keystroke_Key.backspace	Key.backspace	n/a
559.4335	0.0695	1118867	keystroke_Key.backspace	Key.backspace	n/a
559.586	0.071	1119172	keystroke_Key.backspace	Key.backspace	n/a
559.939	0.0675	1119878	keystroke_Key.backspace	Key.backspace	n/a
560.444	0.159	1120888	keystroke_Key.space	Key.space	n/a
560.706	0.112	1121412	keystroke_g	g	n/a
560.9105	0.137	1121821	keystroke_r	r	n/a
561.0695	0.1135	1122139	keystroke_o	o	n/a
561.1355	0.16	1122271	keystroke_w	w	n/a
561.3245	0.138	1122649	keystroke_t	t	n/a
561.4855	0.067	1122971	keystroke_h	h	n/a
561.6275	0.159	1123255	keystroke_Key.space	Key.space	n/a
562.288	0.205	1124576	keystroke_w	w	n/a
562.6635	0.135	1125327	keystroke_e	e	n/a
562.921	0.091	1125842	keystroke_h	h	n/a
563.2035	0.09	1126407	keystroke_n	n	n/a
563.81	0.0915	1127620	keystroke_Key.backspace	Key.backspace	n/a
563.975	0.0905	1127950	keystroke_Key.backspace	Key.backspace	n/a
564.3305	0.114	1128661	keystroke_Key.backspace	Key.backspace	n/a
564.647	0.0875	1129294	keystroke_h	h	n/a
564.836	0.1155	1129672	keystroke_e	e	n/a
564.952	0.09	1129904	keystroke_n	n	n/a
565.215	0.093	1130430	keystroke_'	'	n/a
565.757	0.115	1131514	keystroke_s	s	n/a
565.9035	0.114	1131807	keystroke_Key.enter	Key.enter	n/a
566.025	8.4165	1132050	prompt	n/a	lung continental safe buddy\n
567.715	0.1125	1135430	keystroke_l	l	n/a
568.006	0.07	1136012	keystroke_i	i	n/a
568.1625	0.091	1136325	keystroke_n	n	n/a
568.2755	0.0905	1136551	keystroke_g	g	n/a
568.3665	0.113	1136733	keystroke_Key.space	Key.space	n/a
568.51	0.115	1137020	keystroke_c	c	n/a
568.601	0.092	1137202	keystroke_o	o	n/a
568.7585	0.0685	1137517	keystroke_n	n	n/a
568.8695	0.113	1137739	keystroke_t	t	n/a
569.0045	0.0905	1138009	keystroke_i	i	n/a
569.1845	0.069	1138369	keystroke_n	n	n/a
569.7485	0.138	1139497	keystroke_e	e	n/a
569.9385	0.091	1139877	keystroke_n	n	n/a
570.126	0.1385	1140252	keystroke_t	t	n/a
570.286	0.113	1140572	keystroke_a	a	n/a
570.457	0.1145	1140914	keystroke_l	l	n/a
570.6035	0.158	1141207	keystroke_Key.space	Key.space	n/a
571.474	0.137	1142948	keystroke_s	s	n/a
571.642	0.1825	1143284	keystroke_a	a	n/a
571.8755	0.116	1143751	keystroke_f	f	n/a
572.6825	0.1115	1145365	keystroke_e	e	n/a
572.86	0.136	1145720	keystroke_Key.space	Key.space	n/a
573.351	0.0695	1146702	keystroke_b	b	n/a
573.4625	0.136	1146925	keystroke_u	u	n/a
573.599	0.067	1147198	keystroke_d	d	n/a
573.756	0.1135	1147512	keystroke_d	d	n/a
573.8905	0.092	1147781	keystroke_y	y	n/a
574.3485	0.0905	1148697	keystroke_Key.enter	Key.enter	n/a
574.446	5.946	1148892	prompt	n/a	tales yale prayer browsing\n
575.22	0.114	1150440	keystroke_t	t	n/a
575.3345	0.1605	1150669	keystroke_a	a	n/a
575.471	0.115	1150942	keystroke_l	l	n/a
575.587	0.0885	1151174	keystroke_e	e	n/a
575.755	0.1125	1151510	keystroke_s	s	n/a
575.8685	0.1355	1151737	keystroke_Key.space	Key.space	n/a
576.4465	0.091	1152893	keystroke_y	y	n/a
576.5605	0.113	1153121	keystroke_a	a	n/a
576.674	0.112	1153348	keystroke_l	l	n/a
576.816	0.1125	1153632	keystroke_e	e	n/a
576.9295	0.134	1153859	keystroke_Key.space	Key.space	n/a
577.198	0.1605	1154396	keystroke_p	p	n/a
577.5085	0.1595	1155017	keystroke_r	r	n/a
577.6905	0.136	1155381	keystroke_a	a	n/a
577.91	0.112	1155820	keystroke_y	y	n/a
578.044	0.0925	1156088	keystroke_e	e	n/a
578.228	0.116	1156456	keystroke_r	r	n/a
578.892	0.1355	1157784	keystroke_Key.space	Key.space	n/a
579.2305	0.0915	1158461	keystroke_b	b	n/a
579.344	0.1135	1158688	keystroke_r	r	n/a
579.433	0.091	1158866	keystroke_o	o	n/a
579.5545	0.091	1159109	keystroke_w	w	n/a
579.807	0.1375	1159614	keystroke_s	s	n/a
579.897	0.0715	1159794	keystroke_i	i	n/a
580.043	0.0695	1160086	keystroke_n	n	n/a
580.1645	0.1125	1160329	keystroke_g	g	n/a
580.298	0.0925	1160596	keystroke_Key.enter	Key.enter	n/a
580.396	19.4835	1160792	prompt	n/a	services participant perspectives fluid\n
581.1565	0.2225	1162313	keystroke_s	s	n/a
581.288	0.138	1162576	keystroke_e	e	n/a
581.489	0.1145	1162978	keystroke_r	r	n/a
581.6875	0.1145	1163375	keystroke_v	v	n/a
581.802	0.1135	1163604	keystroke_i	i	n/a
581.9455	0.069	1163891	keystroke_e	e	n/a
582.1035	0.134	1164207	keystroke_s	s	n/a
582.1925	0.1355	1164385	keystroke_Key.space	Key.space	n/a
582.479	0.158	1164958	keystroke_p	p	n/a
582.614	0.1145	1165228	keystroke_a	a	n/a
582.7045	0.114	1165409	keystroke_r	r	n/a
582.9225	0.09	1165845	keystroke_t	t	n/a
584.413	0.091	1168826	keystroke_Key.backspace	Key.backspace	n/a
584.5755	0.135	1169151	keystroke_c	c	n/a
584.6425	0.137	1169285	keystroke_e	e	n/a
584.8745	0.111	1169749	keystroke_s	s	n/a
584.9865	0.1335	1169973	keystroke_Key.space	Key.space	n/a
585.122	0.136	1170244	keystroke_[	[	n/a
585.235	0.093	1170470	keystroke_a	a	n/a
585.305	0.116	1170610	keystroke_r	r	n/a
585.492	0.1155	1170984	keystroke_t	t	n/a
586.276	0.0905	1172552	keystroke_i	i	n/a
586.3965	0.093	1172793	keystroke_c	c	n/a
586.5105	0.07	1173021	keystroke_p	p	n/a
586.6685	0.0915	1173337	keystroke_i	i	n/a
586.7965	0.0915	1173593	keystroke_a	a	n/a
586.9805	0.0665	1173961	keystroke_n	n	n/a
587.1315	0.116	1174263	keystroke_t	t	n/a
587.2685	0.091	1174537	keystroke_Key.space	Key.space	n/a
588.7145	0.069	1177429	keystroke_Key.backspace	Key.backspace	n/a
588.8505	0.072	1177701	keystroke_Key.backspace	Key.backspace	n/a
589	0.092	1178000	keystroke_Key.backspace	Key.backspace	n/a
589.4535	0.1145	1178907	keystroke_Key.backspace	Key.backspace	n/a
589.725	0.136	1179450	keystroke_p	p	n/a
589.836	0.162	1179672	keystroke_a	a	n/a
589.929	0.137	1179858	keystroke_r	r	n/a
590.1365	0.0885	1180273	keystroke_t	t	n/a
590.2975	0.09	1180595	keystroke_i	i	n/a
590.4445	0.1155	1180889	keystroke_c	c	n/a
590.5815	0.069	1181163	keystroke_i	i	n/a
590.759	0.068	1181518	keystroke_p	p	n/a
590.926	0.091	1181852	keystroke_a	a	n/a
591.052	0.069	1182104	keystroke_n	n	n/a
591.2185	0.114	1182437	keystroke_t	t	n/a
591.286	0.138	1182572	keystroke_Key.space	Key.space	n/a
592.4525	0.1325	1184905	keystroke_p	p	n/a
592.9725	0.0905	1185945	keystroke_e	e	n/a
593.153	0.09	1186306	keystroke_r	r	n/a
593.528	0.18	1187056	keystroke_s	s	n/a
593.738	0.1345	1187476	keystroke_p	p	n/a
593.8735	0.1145	1187747	keystroke_e	e	n/a
594.46	0.09	1188920	keystroke_c	c	n/a
594.8025	0.049	1189605	keystroke_t	t	n/a
594.8745	0.137	1189749	keystroke_i	i	n/a
595.0335	0.0695	1190067	keystroke_v	v	n/a
595.213	0.068	1190426	keystroke_e	e	n/a
595.426	0.206	1190852	keystroke_s	s	n/a
595.898	0.068	1191796	keystroke_Key.backspace	Key.backspace	n/a
596.051	0.0925	1192102	keystroke_Key.backspace	Key.backspace	n/a
596.8885	0.1115	1193777	keystroke_e	e	n/a
597.105	0.134	1194210	keystroke_s	s	n/a
597.2605	0.1385	1194521	keystroke_Key.space	Key.space	n/a
598.188	0.1165	1196376	keystroke_f	f	n/a
598.3405	0.136	1196681	keystroke_l	l	n/a
598.5695	0.0925	1197139	keystroke_u	u	n/a
598.7435	0.0915	1197487	keystroke_i	i	n/a
598.8575	0.137	1197715	keystroke_d	d	n/a
599.7405	0.1365	1199481	keystroke_Key.enter	Key.enter	n/a
599.8855	7.6195	1199771	prompt	n/a	feel fonts collectible database\n
600.8035	0.1135	1201607	keystroke_f	f	n/a
600.9915	0.092	1201983	keystroke_e	e	n/a
601.1455	0.112	1202291	keystroke_e	e	n/a
601.2795	0.135	1202559	keystroke_l	l	n/a
601.368	0.112	1202736	keystroke_Key.space	Key.space	n/a
601.9895	0.136	1203979	keystroke_f	f	n/a
602.846	0.136	1205692	keystroke_o	o	n/a
603.076	0.1135	1206152	keystroke_n	n	n/a
603.1905	0.111	1206381	keystroke_t	t	n/a
603.4185	0.0935	1206837	keystroke_s	s	n/a
603.546	0.136	1207092	keystroke_Key.space	Key.space	n/a
603.685	0.1105	1207370	keystroke_c	c	n/a
603.8175	0.091	1207635	keystroke_o	o	n/a
603.9915	0.071	1207983	keystroke_l	l	n/a
604.117	0.0905	1208234	keystroke_l	l	n/a
604.266	0.093	1208532	keystroke_e	e	n/a
604.4665	0.112	1208933	keystroke_c	c	n/a
604.6915	0.1155	1209383	keystroke_t	t	n/a
604.829	0.115	1209658	keystroke_i	i	n/a
605.0415	0.069	1210083	keystroke_b	b	n/a
605.224	0.09	1210448	keystroke_l	l	n/a
605.3355	0.1135	1210671	keystroke_e	e	n/a
605.4725	0.138	1210945	keystroke_Key.space	Key.space	n/a
606.1735	0.1125	1212347	keystroke_d	d	n/a
606.318	0.159	1212636	keystroke_a	a	n/a
606.497	0.07	1212994	keystroke_t	t	n/a
606.609	0.137	1213218	keystroke_a	a	n/a
606.787	0.0905	1213574	keystroke_b	b	n/a
606.9785	0.1795	1213957	keystroke_s	s	n/a
607.091	0.1355	1214182	keystroke_e	e	n/a
607.367	0.1355	1214734	keystroke_Key.enter	Key.enter	n/a
607.509	9.879	1215018	prompt	n/a	prove enjoyed arising substance\n
608.2915	0.1365	1216583	keystroke_p	p	n/a
608.4285	0.111	1216857	keystroke_r	r	n/a
608.6085	0.1145	1217217	keystroke_i	i	n/a
609.112	0.0905	1218224	keystroke_Key.backspace	Key.backspace	n/a
609.2935	0.0915	1218587	keystroke_v	v	n/a
609.4065	0.069	1218813	keystroke_o	o	n/a
609.571	0.069	1219142	keystroke_d	d	n/a
610.0955	0.0695	1220191	keystroke_Key.backspace	Key.backspace	n/a
610.256	0.069	1220512	keystroke_Key.backspace	Key.backspace	n/a
610.388	0.068	1220776	keystroke_Key.backspace	Key.backspace	n/a
610.768	0.068	1221536	keystroke_v	v	n/a
611.2495	0.0915	1222499	keystroke_Key.backspace	Key.backspace	n/a
611.453	0.089	1222906	keystroke_o	o	n/a
611.5655	0.088	1223131	keystroke_v	v	n/a
611.7215	0.1135	1223443	keystroke_e	e	n/a
611.8575	0.0915	1223715	keystroke_Key.space	Key.space	n/a
611.993	0.137	1223986	keystroke_e	e	n/a
612.039	0.0925	1224078	keystroke_n	n	n/a
612.268	0.113	1224536	keystroke_j	j	n/a
612.404	0.137	1224808	keystroke_o	o	n/a
612.6195	0.091	1225239	keystroke_y	y	n/a
612.7845	0.091	1225569	keystroke_e	e	n/a
612.987	0.0925	1225974	keystroke_d	d	n/a
613.056	0.138	1226112	keystroke_Key.space	Key.space	n/a
613.714	0.139	1227428	keystroke_a	a	n/a
613.8535	0.112	1227707	keystroke_r	r	n/a
614.0085	0.114	1228017	keystroke_i	i	n/a
614.173	0.0885	1228346	keystroke_s	s	n/a
614.2625	0.09	1228525	keystroke_i	i	n/a
614.435	0.0695	1228870	keystroke_n	n	n/a
614.505	0.09	1229010	keystroke_g	g	n/a
614.6155	0.092	1229231	keystroke_Key.space	Key.space	n/a
615.409	0.092	1230818	keystroke_s	s	n/a
615.591	0.114	1231182	keystroke_u	u	n/a
615.747	0.114	1231494	keystroke_s	s	n/a
615.837	0.1145	1231674	keystroke_b	b	n/a
616.1145	0.1385	1232229	keystroke_t	t	n/a
616.275	0.113	1232550	keystroke_a	a	n/a
616.3185	0.0715	1232637	keystroke_n	n	n/a
616.504	0.1605	1233008	keystroke_c	c	n/a
616.596	0.1595	1233192	keystroke_e	e	n/a
617.271	0.115	1234542	keystroke_Key.enter	Key.enter	n/a
617.4025	7.849	1234805	prompt	n/a	agents slight latex adelaide\n
618.2245	0.141	1236449	keystroke_a	a	n/a
618.4775	0.1125	1236955	keystroke_g	g	n/a
618.682	0.1575	1237364	keystroke_e	e	n/a
618.862	0.046	1237724	keystroke_n	n	n/a
618.9635	0.1135	1237927	keystroke_t	t	n/a
619.1645	0.1345	1238329	keystroke_s	s	n/a
619.3	0.0885	1238600	keystroke_Key.space	Key.space	n/a
619.4625	0.092	1238925	keystroke_s	s	n/a
619.5555	0.067	1239111	keystroke_l	l	n/a
619.7335	0.136	1239467	keystroke_i	i	n/a
619.9405	0.1395	1239881	keystroke_g	g	n/a
620.0805	0.045	1240161	keystroke_h	h	n/a
620.345	0.136	1240690	keystroke_t	t	n/a
