onset	duration	sample	value	key	prompt_text
6.4675	15.458	12935	prompt	n/a	the quick brown fox jumps over a lazy dog\n
8.9495	0.013	17899	keystroke_t	t	n/a
9.0075	0.09	18015	keystroke_h	h	n/a
9.0815	0.09	18163	keystroke_e	e	n/a
9.382	0.09	18764	keystroke_Key.space	Key.space	n/a
9.622	0.105	19244	keystroke_q	q	n/a
9.802	0.09	19604	keystroke_u	u	n/a
10.027	0.09	20054	keystroke_i	i	n/a
10.192	0.105	20384	keystroke_c	c	n/a
10.357	0.075	20714	keystroke_k	k	n/a
10.717	0.075	21434	keystroke_Key.space	Key.space	n/a
11.017	0.075	22034	keystroke_b	b	n/a
11.122	0.09	22244	keystroke_r	r	n/a
11.302	0.075	22604	keystroke_o	o	n/a
11.407	0.075	22814	keystroke_w	w	n/a
11.557	0.09	23114	keystroke_n	n	n/a
11.917	0.1045	23834	keystroke_Key.space	Key.space	n/a
12.3365	0.09	24673	keystroke_f	f	n/a
12.5615	0.075	25123	keystroke_o	o	n/a
12.6965	0.075	25393	keystroke_x	x	n/a
13.0265	0.12	26053	keystroke_Key.space	Key.space	n/a
13.3865	0.06	26773	keystroke_j	j	n/a
13.581	0.075	27162	keystroke_u	u	n/a
13.837	0.089	27674	keystroke_m	m	n/a
14.181	0.075	28362	keystroke_p	p	n/a
14.392	0.075	28784	keystroke_s	s	n/a
14.677	0.119	29354	keystroke_Key.space	Key.space	n/a
15.201	0.091	30402	keystroke_o	o	n/a
15.337	0.104	30674	keystroke_v	v	n/a
15.547	0.104	31094	keystroke_e	e	n/a
15.667	0.089	31334	keystroke_r	r	n/a
16.086	0.09	32172	keystroke_Key.space	Key.space	n/a
16.267	0.104	32534	keystroke_a	a	n/a
16.386	0.12	32772	keystroke_Key.space	Key.space	n/a
16.762	0.075	33524	keystroke_l	l	n/a
16.897	0.135	33794	keystroke_a	a	n/a
17.167	0.09	34334	keystroke_z	z	n/a
17.422	0.075	34844	keystroke_y	y	n/a
17.7215	0.12	35443	keystroke_Key.space	Key.space	n/a
18.0815	0.09	36163	keystroke_d	d	n/a
18.217	0.075	36434	keystroke_l	l	n/a
18.442	0.075	36884	keystroke_o	o	n/a
19.7915	0.045	39583	keystroke_Key.backspace	Key.backspace	n/a
19.9415	0.09	39883	keystroke_Key.backspace	Key.backspace	n/a
20.7965	0.06	41593	keystroke_o	o	n/a
20.9915	0.075	41983	keystroke_g	g	n/a
21.8015	0.12	43603	keystroke_Key.enter	Key.enter	n/a
21.9305	11.258	43861	prompt	n/a	study promoting holder distributions\n
22.6265	0.09	45253	keystroke_s	s	n/a
22.8215	0.075	45643	keystroke_t	t	n/a
22.9715	0.09	45943	keystroke_u	u	n/a
23.0915	0.075	46183	keystroke_d	d	n/a
23.2415	0.06	46483	keystroke_y	y	n/a
23.7965	0.09	47593	keystroke_Key.space	Key.space	n/a
24.0965	0.12	48193	keystroke_p	p	n/a
24.231	0.06	48462	keystroke_r	r	n/a
24.381	0.0755	48762	keystroke_o	o	n/a
24.636	0.09	49272	keystroke_m	m	n/a
24.8465	0.075	49693	keystroke_o	o	n/a
25.0565	0.09	50113	keystroke_t	t	n/a
25.2365	0.075	50473	keystroke_i	i	n/a
25.4015	0.061	50803	keystroke_n	n	n/a
25.4915	0.075	50983	keystroke_g	g	n/a
25.7915	0.09	51583	keystroke_Key.space	Key.space	n/a
26.0915	0.06	52183	keystroke_h	h	n/a
26.2415	0.075	52483	keystroke_o	o	n/a
26.4815	0.105	52963	keystroke_l	l	n/a
26.6315	0.09	53263	keystroke_d	d	n/a
26.8565	0.12	53713	keystroke_e	e	n/a
26.9465	0.09	53893	keystroke_r	r	n/a
27.3815	0.09	54763	keystroke_Key.space	Key.space	n/a
27.6365	0.106	55273	keystroke_d	d	n/a
27.9815	0.06	55963	keystroke_i	i	n/a
28.1165	0.076	56233	keystroke_s	s	n/a
28.9425	0.059	57885	keystroke_r	r	n/a
29.9465	0.075	59893	keystroke_Key.backspace	Key.backspace	n/a
30.1715	0.09	60343	keystroke_t	t	n/a
30.3965	0.075	60793	keystroke_r	r	n/a
30.5765	0.06	61153	keystroke_i	i	n/a
30.9065	0.075	61813	keystroke_b	b	n/a
31.3265	0.09	62653	keystroke_u	u	n/a
31.5965	0.075	63193	keystroke_t	t	n/a
31.7615	0.121	63523	keystroke_i	i	n/a
31.8825	0.134	63765	keystroke_o	o	n/a
32.0015	0.105	64003	keystroke_n	n	n/a
32.4075	0.0745	64815	keystroke_s	s	n/a
33.052	0.134	66104	keystroke_Key.enter	Key.enter	n/a
33.194	11.6355	66388	prompt	n/a	pharmaceuticals pike graduated by\n
33.922	0.15	67844	keystroke_p	p	n/a
34.177	0.06	68354	keystroke_h	h	n/a
34.282	0.165	68564	keystroke_a	a	n/a
34.387	0.09	68774	keystroke_r	r	n/a
35.047	0.075	70094	keystroke_m	m	n/a
35.227	0.135	70454	keystroke_a	a	n/a
35.482	0.09	70964	keystroke_c	c	n/a
35.737	0.09	71474	keystroke_e	e	n/a
35.947	0.075	71894	keystroke_u	u	n/a
36.352	0.075	72704	keystroke_i	i	n/a
38.107	0.075	76214	keystroke_Key.backspace	Key.backspace	n/a
38.692	0.075	77384	keystroke_t	t	n/a
39.007	0.06	78014	keystroke_i	i	n/a
39.172	0.105	78344	keystroke_c	c	n/a
39.382	0.105	78764	keystroke_a	a	n/a
39.607	0.075	79214	keystroke_l	l	n/a
39.742	0.09	79484	keystroke_s	s	n/a
40.042	0.105	80084	keystroke_Key.space	Key.space	n/a
40.447	0.105	80894	keystroke_p	p	n/a
40.702	0.075	81404	keystroke_i	i	n/a
40.927	0.075	81854	keystroke_k	k	n/a
41.092	0.075	82184	keystroke_e	e	n/a
41.407	0.105	82814	keystroke_Key.space	Key.space	n/a
41.767	0.075	83534	keystroke_g	g	n/a
42.022	0.075	84044	keystroke_r	r	n/a
42.187	0.12	84374	keystroke_a	a	n/a
42.382	0.09	84764	keystroke_d	d	n/a
42.562	0.075	85124	keystroke_u	u	n/a
42.667	0.195	85334	keystroke_a	a	n/a
42.832	0.09	85664	keystroke_t	t	n/a
42.967	0.09	85934	keystroke_e	e	n/a
43.148	0.104	86296	keystroke_d	d	n/a
43.357	0.09	86714	keystroke_Key.space	Key.space	n/a
43.702	0.075	87404	keystroke_b	b	n/a
43.957	0.06	87914	keystroke_y	y	n/a
44.7365	0.09	89473	keystroke_Key.enter	Key.enter	n/a
44.836	8.6785	89672	prompt	n/a	territories positive buzz referral\n
45.6815	0.06	91363	keystroke_t	t	n/a
45.8465	0.09	91693	keystroke_e	e	n/a
46.0565	0.075	92113	keystroke_r	r	n/a
46.2065	0.075	92413	keystroke_r	r	n/a
46.4615	0.09	92923	keystroke_i	i	n/a
46.6715	0.075	93343	keystroke_t	t	n/a
46.8965	0.075	93793	keystroke_o	o	n/a
47.0315	0.075	94063	keystroke_r	r	n/a
47.1815	0.075	94363	keystroke_i	i	n/a
47.2715	0.06	94543	keystroke_e	e	n/a
47.4665	0.075	94933	keystroke_s	s	n/a
47.7365	0.105	95473	keystroke_Key.space	Key.space	n/a
48.2465	0.12	96493	keystroke_p	p	n/a
48.4415	0.105	96883	keystroke_o	o	n/a
48.7115	0.105	97423	keystroke_s	s	n/a
48.8615	0.075	97723	keystroke_i	i	n/a
49.0115	0.105	98023	keystroke_t	t	n/a
49.1765	0.075	98353	keystroke_i	i	n/a
49.2965	0.12	98593	keystroke_v	v	n/a
49.4615	0.09	98923	keystroke_e	e	n/a
49.9265	0.09	99853	keystroke_Key.space	Key.space	n/a
50.2125	0.089	100425	keystroke_b	b	n/a
50.4515	0.06	100903	keystroke_u	u	n/a
50.6915	0.075	101383	keystroke_z	z	n/a
50.8715	0.075	101743	keystroke_z	z	n/a
51.2765	0.075	102553	keystroke_Key.space	Key.space	n/a
51.5465	0.12	103093	keystroke_r	r	n/a
51.6365	0.12	103273	keystroke_e	e	n/a
51.8915	0.09	103783	keystroke_f	f	n/a
52.0415	0.1055	104083	keystroke_e	e	n/a
52.207	0.075	104414	keystroke_r	r	n/a
52.372	0.09	104744	keystroke_r	r	n/a
52.597	0.09	105194	keystroke_a	a	n/a
52.747	0.075	105494	keystroke_l	l	n/a
53.4065	0.105	106813	keystroke_Key.enter	Key.enter	n/a
53.5195	13.2	107039	prompt	n/a	workplace lightweight endif organisations\n
54.2315	0.0905	108463	keystroke_w	w	n/a
54.442	0.09	108884	keystroke_o	o	n/a
54.577	0.06	109154	keystroke_r	r	n/a
54.697	0.09	109394	keystroke_k	k	n/a
55.012	0.135	110024	keystroke_p	p	n/a
55.297	0.09	110594	keystroke_l	l	n/a
55.462	0.15	110924	keystroke_a	a	n/a
55.627	0.135	111254	keystroke_c	c	n/a
55.792	0.105	111584	keystroke_e	e	n/a
56.437	0.12	112874	keystroke_Key.space	Key.space	n/a
56.752	0.06	113504	keystroke_l	l	n/a
56.932	0.06	113864	keystroke_i	i	n/a
57.082	0.075	114164	keystroke_g	g	n/a
57.217	0.075	114434	keystroke_h	h	n/a
57.547	0.075	115094	keystroke_w	w	n/a
57.787	0.06	115574	keystroke_e	e	n/a
58.672	0.075	117344	keystroke_Key.backspace	Key.backspace	n/a
58.852	0.075	117704	keystroke_Key.backspace	Key.backspace	n/a
59.407	0.075	118814	keystroke_t	t	n/a
60.247	0.105	120494	keystroke_w	w	n/a
60.442	0.075	120884	keystroke_e	e	n/a
60.667	0.105	121334	keystroke_i	i	n/a
60.787	0.09	121574	keystroke_g	g	n/a
60.907	0.075	121814	keystroke_h	h	n/a
61.012	0.06	122024	keystroke_t	t	n/a
61.4615	0.105	122923	keystroke_Key.space	Key.space	n/a
61.9865	0.0905	123973	keystroke_e	e	n/a
62.2115	0.09	124423	keystroke_n	n	n/a
62.3315	0.09	124663	keystroke_d	d	n/a
62.572	0.075	125144	keystroke_i	i	n/a
62.7065	0.06	125413	keystroke_f	f	n/a
63.1865	0.135	126373	keystroke_Key.space	Key.space	n/a
63.5015	0.075	127003	keystroke_o	o	n/a
63.6065	0.09	127213	keystroke_r	r	n/a
63.8765	0.06	127753	keystroke_g	g	n/a
63.9965	0.09	127993	keystroke_a	a	n/a
64.4615	0.09	128923	keystroke_n	n	n/a
64.6265	0.075	129253	keystroke_i	i	n/a
64.8515	0.06	129703	keystroke_s	s	n/a
64.9715	0.15	129943	keystroke_a	a	n/a
65.3015	0.075	130603	keystroke_t	t	n/a
65.5115	0.105	131023	keystroke_i	i	n/a
65.6465	0.09	131293	keystroke_o	o	n/a
65.7665	0.09	131533	keystroke_n	n	n/a
65.8865	0.075	131773	keystroke_s	s	n/a
66.6065	0.105	133213	keystroke_Key.enter	Key.enter	n/a
66.724	11.53	133448	prompt	n/a	recovered tomorrow discussions boundaries\n
67.4325	0.15	134865	keystroke_r	r	n/a
67.5665	0.105	135133	keystroke_e	e	n/a
67.8515	0.105	135703	keystroke_c	c	n/a
68.1215	0.075	136243	keystroke_o	o	n/a
68.1815	0.09	136363	keystroke_v	v	n/a
68.3915	0.135	136783	keystroke_e	e	n/a
68.5115	0.12	137023	keystroke_r	r	n/a
68.6615	0.09	137323	keystroke_e	e	n/a
68.8565	0.075	137713	keystroke_d	d	n/a
69.2165	0.12	138433	keystroke_Key.space	Key.space	n/a
69.7415	0.076	139483	keystroke_t	t	n/a
69.8465	0.09	139693	keystroke_o	o	n/a
70.0865	0.09	140173	keystroke_m	m	n/a
70.2515	0.075	140503	keystroke_o	o	n/a
70.3415	0.045	140683	keystroke_r	r	n/a
70.4915	0.105	140983	keystroke_r	r	n/a
70.6415	0.06	141283	keystroke_o	o	n/a
70.7025	0.089	141405	keystroke_w	w	n/a
71.1815	0.135	142363	keystroke_Key.space	Key.space	n/a
71.5715	0.075	143143	keystroke_d	d	n/a
71.7815	0.09	143563	keystroke_i	i	n/a
71.8865	0.12	143773	keystroke_s	s	n/a
72.0815	0.105	144163	keystroke_c	c	n/a
72.2915	0.06	144583	keystroke_u	u	n/a
72.4565	0.06	144913	keystroke_s	s	n/a
72.6365	0.06	145273	keystroke_s	s	n/a
72.7565	0.105	145513	keystroke_i	i	n/a
72.8765	0.135	145753	keystroke_o	o	n/a
72.9965	0.105	145993	keystroke_n	n	n/a
73.0865	0.09	146173	keystroke_s	s	n/a
73.6715	0.12	147343	keystroke_Key.space	Key.space	n/a
74.0765	0.06	148153	keystroke_b	b	n/a
74.4365	0.09	148873	keystroke_u	u	n/a
75.3215	0.09	150643	keystroke_Key.backspace	Key.backspace	n/a
75.9065	0.105	151813	keystroke_o	o	n/a
76.1015	0.09	152203	keystroke_u	u	n/a
76.3415	0.075	152683	keystroke_n	n	n/a
76.5365	0.09	153073	keystroke_d	d	n/a
76.7465	0.12	153493	keystroke_a	a	n/a
76.9565	0.09	153913	keystroke_r	r	n/a
77.1365	0.06	154273	keystroke_i	i	n/a
77.2265	0.06	154453	keystroke_e	e	n/a
77.4075	0.104	154815	keystroke_s	s	n/a
78.127	0.119	156254	keystroke_Key.enter	Key.enter	n/a
78.259	8.1195	156518	prompt	n/a	inclusive herself arise expression\n
79.132	0.075	158264	keystroke_i	i	n/a
79.267	0.06	158534	keystroke_n	n	n/a
79.386	0.106	158772	keystroke_c	c	n/a
79.537	0.12	159074	keystroke_l	l	n/a
79.672	0.104	159344	keystroke_u	u	n/a
79.852	0.09	159704	keystroke_s	s	n/a
79.957	0.075	159914	keystroke_i	i	n/a
80.047	0.105	160094	keystroke_v	v	n/a
80.197	0.075	160394	keystroke_e	e	n/a
80.7815	0.105	161563	keystroke_Key.space	Key.space	n/a
81.0665	0.076	162133	keystroke_h	h	n/a
81.1565	0.135	162313	keystroke_e	e	n/a
81.2765	0.075	162553	keystroke_r	r	n/a
81.5025	0.09	163005	keystroke_s	s	n/a
81.8025	0.075	163605	keystroke_e	e	n/a
82.0715	0.09	164143	keystroke_l	l	n/a
82.1775	0.075	164355	keystroke_f	f	n/a
82.5665	0.075	165133	keystroke_Key.space	Key.space	n/a
82.9115	0.105	165823	keystroke_a	a	n/a
83.1515	0.09	166303	keystroke_r	r	n/a
83.2725	0.074	166545	keystroke_i	i	n/a
83.3775	0.12	166755	keystroke_s	s	n/a
83.4815	0.105	166963	keystroke_e	e	n/a
83.7375	0.134	167475	keystroke_Key.space	Key.space	n/a
83.9765	0.076	167953	keystroke_e	e	n/a
84.1865	0.06	168373	keystroke_x	x	n/a
84.5625	0.09	169125	keystroke_p	p	n/a
84.6075	0.15	169215	keystroke_r	r	n/a
84.7425	0.09	169485	keystroke_e	e	n/a
84.9825	0.06	169965	keystroke_s	s	n/a
85.1465	0.091	170293	keystroke_s	s	n/a
85.4175	0.105	170835	keystroke_i	i	n/a
85.5065	0.121	171013	keystroke_o	o	n/a
85.6275	0.12	171255	keystroke_n	n	n/a
86.2725	0.104	172545	keystroke_Key.enter	Key.enter	n/a
86.3875	8.962	172775	prompt	n/a	choir expression anymore studios\n
87.1415	0.091	174283	keystroke_c	c	n/a
87.3825	0.09	174765	keystroke_h	h	n/a
87.5025	0.074	175005	keystroke_o	o	n/a
87.7275	0.075	175455	keystroke_i	i	n/a
87.7875	0.09	175575	keystroke_r	r	n/a
88.0715	0.12	176143	keystroke_Key.space	Key.space	n/a
88.4325	0.09	176865	keystroke_e	e	n/a
88.6725	0.075	177345	keystroke_x	x	n/a
89.271	0.091	178542	keystroke_p	p	n/a
89.3175	0.1495	178635	keystroke_r	r	n/a
89.436	0.091	178872	keystroke_e	e	n/a
89.677	0.105	179354	keystroke_s	s	n/a
89.841	0.106	179682	keystroke_s	s	n/a
90.127	0.075	180254	keystroke_i	i	n/a
90.217	0.119	180434	keystroke_o	o	n/a
90.322	0.09	180644	keystroke_n	n	n/a
90.727	0.089	181454	keystroke_Key.space	Key.space	n/a
91.012	0.12	182024	keystroke_a	a	n/a
91.087	0.06	182174	keystroke_n	n	n/a
91.266	0.076	182532	keystroke_y	y	n/a
91.627	0.075	183254	keystroke_m	m	n/a
91.837	0.09	183674	keystroke_o	o	n/a
91.942	0.12	183884	keystroke_r	r	n/a
92.047	0.09	184094	keystroke_e	e	n/a
92.466	0.121	184932	keystroke_Key.space	Key.space	n/a
93.322	0.075	186644	keystroke_s	s	n/a
93.472	0.075	186944	keystroke_t	t	n/a
93.652	0.06	187304	keystroke_u	u	n/a
93.907	0.09	187814	keystroke_d	d	n/a
94.117	0.06	188234	keystroke_i	i	n/a
94.342	0.06	188684	keystroke_o	o	n/a
94.432	0.105	188864	keystroke_s	s	n/a
95.242	0.105	190484	keystroke_Key.enter	Key.enter	n/a
95.355	7.0885	190710	prompt	n/a	sixth carlos irish linear\n
96.037	0.105	192074	keystroke_s	s	n/a
96.232	0.075	192464	keystroke_i	i	n/a
96.322	0.075	192644	keystroke_x	x	n/a
96.532	0.075	193064	keystroke_t	t	n/a
96.622	0.06	193244	keystroke_h	h	n/a
97.477	0.105	194954	keystroke_Key.space	Key.space	n/a
97.702	0.105	195404	keystroke_c	c	n/a
97.882	0.12	195764	keystroke_a	a	n/a
97.957	0.105	195914	keystroke_r	r	n/a
98.227	0.06	196454	keystroke_l	l	n/a
98.407	0.075	196814	keystroke_o	o	n/a
98.512	0.09	197024	keystroke_s	s	n/a
98.947	0.06	197894	keystroke_Key.space	Key.space	n/a
99.292	0.06	198584	keystroke_i	i	n/a
99.412	0.09	198824	keystroke_r	r	n/a
99.592	0.075	199184	keystroke_i	i	n/a
99.682	0.075	199364	keystroke_s	s	n/a
99.802	0.06	199604	keystroke_h	h	n/a
100.641	0.106	201282	keystroke_Key.space	Key.space	n/a
100.957	0.06	201914	keystroke_l	l	n/a
101.107	0.075	202214	keystroke_i	i	n/a
101.257	0.075	202514	keystroke_n	n	n/a
101.377	0.12	202754	keystroke_e	e	n/a
101.482	0.15	202964	keystroke_a	a	n/a
101.587	0.12	203174	keystroke_r	r	n/a
102.337	0.105	204674	keystroke_Key.enter	Key.enter	n/a
102.449	13.315	204898	prompt	n/a	execution visitor reference klein\n
103.162	0.06	206324	keystroke_e	e	n/a
103.372	0.09	206744	keystroke_x	x	n/a
103.582	0.03	207164	keystroke_e	e	n/a
104.197	0.075	208394	keystroke_c	c	n/a
104.467	0.075	208934	keystroke_u	u	n/a
104.737	0.09	209474	keystroke_t	t	n/a
104.932	0.075	209864	keystroke_i	i	n/a
105.097	0.12	210194	keystroke_o	o	n/a
105.232	0.075	210464	keystroke_n	n	n/a
105.577	0.105	211154	keystroke_Key.space	Key.space	n/a
105.832	0.09	211664	keystroke_v	v	n/a
106.027	0.075	212054	keystroke_i	i	n/a
106.192	0.09	212384	keystroke_s	s	n/a
106.297	0.045	212594	keystroke_i	i	n/a
106.402	0.075	212804	keystroke_t	t	n/a
106.507	0.09	213014	keystroke_o	o	n/a
106.567	0.09	213134	keystroke_r	r	n/a
107.557	0.12	215114	keystroke_Key.space	Key.space	n/a
107.992	0.09	215984	keystroke_r	r	n/a
108.097	0.09	216194	keystroke_e	e	n/a
108.322	0.105	216644	keystroke_f	f	n/a
108.532	0.12	217064	keystroke_e	e	n/a
108.637	0.09	217274	keystroke_r	r	n/a
108.802	0.105	217604	keystroke_e	e	n/a
108.952	0.075	217904	keystroke_n	n	n/a
109.042	0.12	218084	keystroke_c	c	n/a
109.147	0.105	218294	keystroke_e	e	n/a
109.522	0.12	219044	keystroke_Key.space	Key.space	n/a
110.032	0.105	220064	keystroke_l	l	n/a
110.317	0.075	220634	keystroke_k	k	n/a
110.632	0.075	221264	keystroke_e	e	n/a
110.797	0.06	221594	keystroke_i	i	n/a
110.917	0.06	221834	keystroke_n	n	n/a
112.582	0.135	225164	keystroke_Key.backspace	Key.backspace	n/a
112.822	0.105	225644	keystroke_Key.backspace	Key.backspace	n/a
113.017	0.12	226034	keystroke_Key.backspace	Key.backspace	n/a
113.227	0.09	226454	keystroke_Key.backspace	Key.backspace	n/a
113.422	0.09	226844	keystroke_Key.backspace	Key.backspace	n/a
114.337	0.059	228674	keystroke_k	k	n/a
114.532	0.089	229064	keystroke_l	l	n/a
114.681	0.105	229362	keystroke_e	e	n/a
114.831	0.09	229662	keystroke_i	i	n/a
114.996	0.075	229992	keystroke_n	n	n/a
115.671	0.09	231342	keystroke_Key.enter	Key.enter	n/a
115.7695	9.355	231539	prompt	n/a	workshops affiliate include eleven\n
116.496	0.091	232992	keystroke_w	w	n/a
116.617	0.074	233234	keystroke_o	o	n/a
116.736	0.091	233472	keystroke_r	r	n/a
116.856	0.076	233712	keystroke_k	k	n/a
117.036	0.091	234072	keystroke_s	s	n/a
117.111	0.09	234222	keystroke_h	h	n/a
117.246	0.15	234492	keystroke_o	o	n/a
117.381	0.121	234762	keystroke_p	p	n/a
117.486	0.076	234972	keystroke_s	s	n/a
118.086	0.09	236172	keystroke_Key.space	Key.space	n/a
118.266	0.136	236532	keystroke_a	a	n/a
118.477	0.074	236954	keystroke_f	f	n/a
118.627	0.105	237254	keystroke_f	f	n/a
118.971	0.075	237942	keystroke_i	i	n/a
119.212	0.074	238424	keystroke_l	l	n/a
119.361	0.075	238722	keystroke_i	i	n/a
119.466	0.105	238932	keystroke_a	a	n/a
119.557	0.12	239114	keystroke_t	t	n/a
119.661	0.09	239322	keystroke_e	e	n/a
120.321	0.105	240642	keystroke_Key.space	Key.space	n/a
120.727	0.075	241454	keystroke_i	i	n/a
120.862	0.075	241724	keystroke_n	n	n/a
121.027	0.104	242054	keystroke_c	c	n/a
121.206	0.09	242412	keystroke_l	l	n/a
121.326	0.076	242652	keystroke_u	u	n/a
121.792	0.075	243584	keystroke_d	d	n/a
122.002	0.06	244004	keystroke_e	e	n/a
122.1665	0.09	244333	keystroke_d	d	n/a
122.6465	0.12	245293	keystroke_Key.space	Key.space	n/a
123.0815	0.06	246163	keystroke_e	e	n/a
123.3815	0.075	246763	keystroke_l	l	n/a
123.8165	0.09	247633	keystroke_e	e	n/a
124.0565	0.09	248113	keystroke_v	v	n/a
124.3115	0.06	248623	keystroke_e	e	n/a
124.4315	0.075	248863	keystroke_n	n	n/a
125.0165	0.105	250033	keystroke_Key.enter	Key.enter	n/a
125.13	9.084	250260	prompt	n/a	loading louise reader recreational\n
125.8265	0.06	251653	keystroke_l	l	n/a
126.0215	0.075	252043	keystroke_o	o	n/a
126.1265	0.12	252253	keystroke_a	a	n/a
126.2165	0.105	252433	keystroke_d	d	n/a
126.4565	0.06	252913	keystroke_i	i	n/a
126.5465	0.09	253093	keystroke_n	n	n/a
126.6515	0.09	253303	keystroke_g	g	n/a
127.4465	0.12	254893	keystroke_Key.space	Key.space	n/a
127.6865	0.09	255373	keystroke_l	l	n/a
127.9115	0.09	255823	keystroke_o	o	n/a
128.0765	0.09	256153	keystroke_u	u	n/a
128.2415	0.075	256483	keystroke_i	i	n/a
128.4065	0.105	256813	keystroke_s	s	n/a
128.4815	0.105	256963	keystroke_e	e	n/a
129.1715	0.12	258343	keystroke_Key.space	Key.space	n/a
129.4115	0.135	258823	keystroke_r	r	n/a
129.5015	0.135	259003	keystroke_e	e	n/a
129.9365	0.105	259873	keystroke_a	a	n/a
130.1765	0.06	260353	keystroke_d	d	n/a
130.3715	0.12	260743	keystroke_e	e	n/a
130.4615	0.105	260923	keystroke_r	r	n/a
131.3465	0.12	262693	keystroke_Key.space	Key.space	n/a
131.6775	0.119	263355	keystroke_r	r	n/a
131.7665	0.09	263533	keystroke_e	e	n/a
132.0815	0.075	264163	keystroke_c	c	n/a
132.367	0.15	264734	keystroke_r	r	n/a
132.486	0.091	264972	keystroke_e	e	n/a
132.712	0.105	265424	keystroke_a	a	n/a
132.891	0.076	265782	keystroke_t	t	n/a
132.997	0.09	265994	keystroke_i	i	n/a
133.102	0.12	266204	keystroke_o	o	n/a
133.206	0.106	266412	keystroke_n	n	n/a
133.282	0.12	266564	keystroke_a	a	n/a
133.416	0.076	266832	keystroke_l	l	n/a
134.106	0.105	268212	keystroke_Key.enter	Key.enter	n/a
134.2275	10.2015	268455	prompt	n/a	charged saskatchewan hopefully trace\n
135.006	0.105	270012	keystroke_c	c	n/a
135.141	0.075	270282	keystroke_h	h	n/a
135.291	0.18	270582	keystroke_a	a	n/a
135.411	0.09	270822	keystroke_r	r	n/a
135.621	0.0905	271242	keystroke_g	g	n/a
135.786	0.09	271572	keystroke_e	e	n/a
135.966	0.09	271932	keystroke_d	d	n/a
136.281	0.12	272562	keystroke_Key.space	Key.space	n/a
136.656	0.075	273312	keystroke_s	s	n/a
136.866	0.106	273732	keystroke_a	a	n/a
137.1365	0.09	274273	keystroke_s	s	n/a
137.4215	0.06	274843	keystroke_k	k	n/a
137.5865	0.075	275173	keystroke_a	a	n/a
137.9015	0.075	275803	keystroke_t	t	n/a
139.4165	0.105	278833	keystroke_c	c	n/a
139.5365	0.09	279073	keystroke_h	h	n/a
139.7915	0.075	279583	keystroke_e	e	n/a
140.0015	0.075	280003	keystroke_w	w	n/a
140.1815	0.12	280363	keystroke_a	a	n/a
140.3165	0.075	280633	keystroke_n	n	n/a
140.8265	0.12	281653	keystroke_Key.space	Key.space	n/a
141.0815	0.09	282163	keystroke_h	h	n/a
141.2765	0.15	282553	keystroke_o	o	n/a
141.4565	0.105	282913	keystroke_p	p	n/a
141.6515	0.075	283303	keystroke_e	e	n/a
141.8465	0.09	283693	keystroke_f	f	n/a
141.9665	0.075	283933	keystroke_u	u	n/a
142.1915	0.06	284383	keystroke_l	l	n/a
142.3565	0.105	284713	keystroke_l	l	n/a
142.5365	0.09	285073	keystroke_y	y	n/a
142.7615	0.105	285523	keystroke_Key.space	Key.space	n/a
142.9865	0.06	285973	keystroke_t	t	n/a
143.1665	0.09	286333	keystroke_r	r	n/a
143.3765	0.12	286753	keystroke_a	a	n/a
143.5415	0.105	287083	keystroke_c	c	n/a
143.7215	0.09	287443	keystroke_e	e	n/a
144.307	0.12	288614	keystroke_Key.enter	Key.enter	n/a
144.434	11.6795	288868	prompt	n/a	mary velocity novelty sheffield\n
145.237	0.09	290474	keystroke_m	m	n/a
145.327	0.165	290654	keystroke_a	a	n/a
145.477	0.09	290954	keystroke_r	r	n/a
145.6265	0.075	291253	keystroke_y	y	n/a
145.9715	0.12	291943	keystroke_Key.space	Key.space	n/a
146.2715	0.105	292543	keystroke_v	v	n/a
146.4365	0.09	292873	keystroke_e	e	n/a
146.6165	0.075	293233	keystroke_l	l	n/a
146.8115	0.06	293623	keystroke_o	o	n/a
146.9765	0.09	293953	keystroke_c	c	n/a
147.1865	0.09	294373	keystroke_i	i	n/a
147.3965	0.075	294793	keystroke_t	t	n/a
147.5615	0.06	295123	keystroke_y	y	n/a
148.0115	0.105	296023	keystroke_Key.space	Key.space	n/a
148.3265	0.09	296653	keystroke_n	n	n/a
148.4465	0.09	296893	keystroke_e	e	n/a
149.8565	0.135	299713	keystroke_Key.backspace	Key.backspace	n/a
150.4865	0.075	300973	keystroke_o	o	n/a
150.6365	0.105	301273	keystroke_v	v	n/a
150.8315	0.09	301663	keystroke_e	e	n/a
150.9815	0.09	301963	keystroke_l	l	n/a
151.1015	0.09	302203	keystroke_t	t	n/a
151.2665	0.075	302533	keystroke_y	y	n/a
153.2465	0.105	306493	keystroke_Key.space	Key.space	n/a
153.8465	0.09	307693	keystroke_s	s	n/a
153.9215	0.075	307843	keystroke_h	h	n/a
154.116	0.076	308232	keystroke_e	e	n/a
154.461	0.03	308922	keystroke_f	f	n/a
154.551	0.09	309102	keystroke_f	f	n/a
154.851	0.076	309702	keystroke_i	i	n/a
154.956	0.076	309912	keystroke_e	e	n/a
155.152	0.089	310304	keystroke_l	l	n/a
155.227	0.074	310454	keystroke_d	d	n/a
156.006	0.105	312012	keystroke_Key.enter	Key.enter	n/a
156.119	6.8945	312238	prompt	n/a	pressed wanted killed forums\n
156.907	0.089	313814	keystroke_p	p	n/a
157.056	0.06	314112	keystroke_r	r	n/a
157.086	0.12	314172	keystroke_e	e	n/a
157.342	0.059	314684	keystroke_s	s	n/a
157.507	0.074	315014	keystroke_s	s	n/a
157.686	0.061	315372	keystroke_e	e	n/a
157.852	0.075	315704	keystroke_d	d	n/a
158.331	0.12	316662	keystroke_Key.space	Key.space	n/a
158.512	0.074	317024	keystroke_w	w	n/a
158.691	0.12	317382	keystroke_a	a	n/a
158.856	0.075	317712	keystroke_n	n	n/a
158.976	0.09	317952	keystroke_t	t	n/a
159.127	0.089	318254	keystroke_e	e	n/a
159.291	0.09	318582	keystroke_d	d	n/a
159.726	0.12	319452	keystroke_Key.space	Key.space	n/a
160.041	0.06	320082	keystroke_k	k	n/a
160.207	0.074	320414	keystroke_i	i	n/a
160.417	0.059	320834	keystroke_l	l	n/a
160.551	0.09	321102	keystroke_l	l	n/a
160.672	0.075	321344	keystroke_e	e	n/a
160.836	0.09	321672	keystroke_d	d	n/a
161.106	0.09	322212	keystroke_Key.space	Key.space	n/a
161.302	0.075	322604	keystroke_f	f	n/a
161.436	0.06	322872	keystroke_o	o	n/a
161.556	0.091	323112	keystroke_r	r	n/a
161.691	0.075	323382	keystroke_u	u	n/a
161.931	0.075	323862	keystroke_m	m	n/a
162.127	0.074	324254	keystroke_s	s	n/a
162.906	0.105	325812	keystroke_Key.enter	Key.enter	n/a
163.0195	8.2295	326039	prompt	n/a	foam highland leaving assessments\n
163.762	0.09	327524	keystroke_f	f	n/a
163.972	0.09	327944	keystroke_o	o	n/a
164.121	0.136	328242	keystroke_a	a	n/a
164.241	0.075	328482	keystroke_m	m	n/a
164.781	0.12	329562	keystroke_Key.space	Key.space	n/a
165.097	0.059	330194	keystroke_h	h	n/a
165.201	0.06	330402	keystroke_i	i	n/a
165.381	0.09	330762	keystroke_g	g	n/a
165.486	0.075	330972	keystroke_h	h	n/a
165.786	0.075	331572	keystroke_l	l	n/a
165.891	0.136	331782	keystroke_a	a	n/a
166.012	0.074	332024	keystroke_n	n	n/a
166.071	0.09	332142	keystroke_d	d	n/a
166.866	0.135	333732	keystroke_Key.space	Key.space	n/a
167.106	0.09	334212	keystroke_l	l	n/a
167.211	0.075	334422	keystroke_e	e	n/a
167.376	0.196	334752	keystroke_a	a	n/a
167.541	0.091	335082	keystroke_v	v	n/a
167.856	0.076	335712	keystroke_i	i	n/a
167.961	0.076	335922	keystroke_n	n	n/a
168.007	0.104	336014	keystroke_g	g	n/a
168.486	0.105	336972	keystroke_Key.space	Key.space	n/a
168.711	0.121	337422	keystroke_a	a	n/a
168.9365	0.06	337873	keystroke_s	s	n/a
169.0715	0.09	338143	keystroke_s	s	n/a
169.2665	0.09	338533	keystroke_e	e	n/a
169.4915	0.06	338983	keystroke_s	s	n/a
169.6415	0.075	339283	keystroke_s	s	n/a
169.9115	0.075	339823	keystroke_m	m	n/a
169.9565	0.09	339913	keystroke_e	e	n/a
170.1065	0.075	340213	keystroke_n	n	n/a
170.1825	0.089	340365	keystroke_t	t	n/a
170.3915	0.09	340783	keystroke_s	s	n/a
171.1115	0.135	342223	keystroke_Key.enter	Key.enter	n/a
171.255	7.299	342510	prompt	n/a	viewing boot awful billing\n
172.2665	0.105	344533	keystroke_v	v	n/a
172.6865	0.075	345373	keystroke_i	i	n/a
172.7465	0.165	345493	keystroke_e	e	n/a
172.8665	0.105	345733	keystroke_w	w	n/a
173.5715	0.06	347143	keystroke_i	i	n/a
173.6615	0.075	347323	keystroke_n	n	n/a
173.7515	0.09	347503	keystroke_g	g	n/a
174.0515	0.075	348103	keystroke_Key.space	Key.space	n/a
174.3065	0.06	348613	keystroke_b	b	n/a
174.5465	0.045	349093	keystroke_o	o	n/a
174.6965	0.06	349393	keystroke_o	o	n/a
174.7715	0.075	349543	keystroke_t	t	n/a
175.2815	0.105	350563	keystroke_Key.space	Key.space	n/a
175.5065	0.12	351013	keystroke_a	a	n/a
175.7315	0.09	351463	keystroke_w	w	n/a
175.9565	0.09	351913	keystroke_f	f	n/a
176.0765	0.075	352153	keystroke_u	u	n/a
176.2565	0.075	352513	keystroke_l	l	n/a
176.5865	0.09	353173	keystroke_Key.space	Key.space	n/a
176.8415	0.075	353683	keystroke_b	b	n/a
177.0365	0.06	354073	keystroke_i	i	n/a
177.2615	0.06	354523	keystroke_l	l	n/a
177.4265	0.09	354853	keystroke_l	l	n/a
177.6215	0.06	355243	keystroke_i	i	n/a
177.6965	0.09	355393	keystroke_n	n	n/a
177.8015	0.075	355603	keystroke_g	g	n/a
178.4315	0.12	356863	keystroke_Key.enter	Key.enter	n/a
178.5605	6.4885	357121	prompt	n/a	opened loops woods batch\n
179.2715	0.135	358543	keystroke_o	o	n/a
179.4215	0.12	358843	keystroke_p	p	n/a
179.6165	0.09	359233	keystroke_e	e	n/a
179.7365	0.075	359473	keystroke_n	n	n/a
179.8715	0.075	359743	keystroke_e	e	n/a
180.0515	0.0905	360103	keystroke_d	d	n/a
180.471	0.105	360942	keystroke_Key.space	Key.space	n/a
180.772	0.06	361544	keystroke_l	l	n/a
180.966	0.061	361932	keystroke_o	o	n/a
181.117	0.12	362234	keystroke_o	o	n/a
181.282	0.09	362564	keystroke_p	p	n/a
181.387	0.105	362774	keystroke_s	s	n/a
181.9265	0.105	363853	keystroke_Key.space	Key.space	n/a
182.1365	0.09	364273	keystroke_w	w	n/a
182.2865	0.06	364573	keystroke_o	o	n/a
182.4215	0.075	364843	keystroke_o	o	n/a
182.5565	0.075	365113	keystroke_d	d	n/a
182.7215	0.09	365443	keystroke_s	s	n/a
183.3965	0.09	366793	keystroke_Key.space	Key.space	n/a
183.6365	0.061	367273	keystroke_b	b	n/a
183.7415	0.165	367483	keystroke_a	a	n/a
183.8915	0.076	367783	keystroke_t	t	n/a
184.1615	0.09	368323	keystroke_c	c	n/a
184.3565	0.06	368713	keystroke_h	h	n/a
184.9415	0.105	369883	keystroke_Key.enter	Key.enter	n/a
185.0565	9.472	370113	prompt	n/a	letting performance antibodies kuwait\n
185.7965	0.09	371593	keystroke_l	l	n/a
185.9615	0.105	371923	keystroke_e	e	n/a
186.1865	0.045	372373	keystroke_t	t	n/a
186.3215	0.09	372643	keystroke_t	t	n/a
186.9365	0.09	373873	keystroke_i	i	n/a
187.1465	0.075	374293	keystroke_n	n	n/a
187.2365	0.075	374473	keystroke_g	g	n/a
187.6715	0.135	375343	keystroke_Key.space	Key.space	n/a
187.9865	0.105	375973	keystroke_p	p	n/a
188.0765	0.1045	376153	keystroke_e	e	n/a
188.152	0.1195	376304	keystroke_r	r	n/a
188.4665	0.075	376933	keystroke_f	f	n/a
188.5865	0.075	377173	keystroke_o	o	n/a
188.6915	0.075	377383	keystroke_r	r	n/a
188.9015	0.075	377803	keystroke_m	m	n/a
189.0065	0.12	378013	keystroke_a	a	n/a
189.1865	0.06	378373	keystroke_n	n	n/a
189.2765	0.15	378553	keystroke_c	c	n/a
189.4115	0.105	378823	keystroke_e	e	n/a
190.2665	0.09	380533	keystroke_Key.space	Key.space	n/a
190.5065	0.09	381013	keystroke_a	a	n/a
190.6715	0.075	381343	keystroke_n	n	n/a
190.8365	0.075	381673	keystroke_t	t	n/a
190.9415	0.06	381883	keystroke_i	i	n/a
191.1965	0.075	382393	keystroke_b	b	n/a
191.3315	0.075	382663	keystroke_o	o	n/a
191.4665	0.09	382933	keystroke_d	d	n/a
191.5865	0.06	383173	keystroke_i	i	n/a
191.6765	0.09	383353	keystroke_e	e	n/a
191.8265	0.12	383653	keystroke_s	s	n/a
192.5165	0.135	385033	keystroke_Key.space	Key.space	n/a
192.9815	0.09	385963	keystroke_k	k	n/a
193.2065	0.075	386413	keystroke_u	u	n/a
193.3265	0.09	386653	keystroke_w	w	n/a
193.5215	0.105	387043	keystroke_a	a	n/a
193.6415	0.06	387283	keystroke_i	i	n/a
193.7765	0.09	387553	keystroke_t	t	n/a
194.4065	0.12	388813	keystroke_Key.enter	Key.enter	n/a
194.535	28.7935	389070	prompt	n/a	potter lithuania transcription kevin\n
195.5915	0.06	391183	keystroke_o	o	n/a
196.7465	0.09	393493	keystroke_Key.backspace	Key.backspace	n/a
197.5115	0.105	395023	keystroke_p	p	n/a
197.7365	0.06	395473	keystroke_o	o	n/a
197.9915	0.06	395983	keystroke_t	t	n/a
198.1415	0.06	396283	keystroke_t	t	n/a
198.3515	0.12	396703	keystroke_e	e	n/a
198.4415	0.09	396883	keystroke_r	r	n/a
198.9365	0.105	397873	keystroke_Key.space	Key.space	n/a
199.2965	0.06	398593	keystroke_i	i	n/a
199.5515	0.075	399103	keystroke_l	l	n/a
199.9415	0.075	399883	keystroke_t	t	n/a
200.1065	0.045	400213	keystroke_h	h	n/a
200.6315	0.075	401263	keystroke_u	u	n/a
200.9165	0.12	401833	keystroke_a	a	n/a
201.0815	0.09	402163	keystroke_n	n	n/a
201.2915	0.075	402583	keystroke_i	i	n/a
201.3815	0.12	402763	keystroke_a	a	n/a
201.8615	0.09	403723	keystroke_Key.space	Key.space	n/a
202.281	0.03	404562	keystroke_t	t	n/a
202.431	0.091	404862	keystroke_r	r	n/a
208.9295	0.042	417859	keystroke_Key.backspace	Key.backspace	n/a
209.0615	0.105	418123	keystroke_Key.backspace	Key.backspace	n/a
209.2415	0.12	418483	keystroke_Key.backspace	Key.backspace	n/a
209.4365	0.09	418873	keystroke_Key.backspace	Key.backspace	n/a
209.6465	0.075	419293	keystroke_Key.backspace	Key.backspace	n/a
209.842	0.075	419684	keystroke_Key.backspace	Key.backspace	n/a
210.037	0.105	420074	keystroke_Key.backspace	Key.backspace	n/a
210.247	0.09	420494	keystroke_Key.backspace	Key.backspace	n/a
210.457	0.075	420914	keystroke_Key.backspace	Key.backspace	n/a
210.637	0.0895	421274	keystroke_Key.backspace	Key.backspace	n/a
210.817	0.0745	421634	keystroke_Key.backspace	Key.backspace	n/a
211.1465	0.0905	422293	keystroke_Key.backspace	Key.backspace	n/a
212.0465	0.06	424093	keystroke_l	l	n/a
212.2715	0.075	424543	keystroke_i	i	n/a
212.6315	0.09	425263	keystroke_t	t	n/a
212.7965	0.075	425593	keystroke_h	h	n/a
213.3365	0.075	426673	keystroke_u	u	n/a
214.1915	0.12	428383	keystroke_a	a	n/a
214.3865	0.075	428773	keystroke_n	n	n/a
214.6715	0.045	429343	keystroke_i	i	n/a
214.7475	0.134	429495	keystroke_a	a	n/a
215.0165	0.105	430033	keystroke_Key.space	Key.space	n/a
218.9195	0	437839	keystroke_t	t	n/a
219.0365	0.091	438073	keystroke_r	r	n/a
219.2465	0.12	438493	keystroke_a	a	n/a
219.3815	0.06	438763	keystroke_n	n	n/a
219.5165	0.105	439033	keystroke_s	s	n/a
219.8015	0.09	439603	keystroke_c	c	n/a
220.0115	0.09	440023	keystroke_r	r	n/a
220.1615	0.075	440323	keystroke_i	i	n/a
220.4015	0.105	440803	keystroke_p	p	n/a
220.6265	0.075	441253	keystroke_t	t	n/a
221.0915	0.09	442183	keystroke_i	i	n/a
221.2565	0.105	442513	keystroke_o	o	n/a
221.377	0.0895	442754	keystroke_n	n	n/a
221.737	0.105	443474	keystroke_Key.space	Key.space	n/a
221.977	0.075	443954	keystroke_k	k	n/a
222.082	0.075	444164	keystroke_e	e	n/a
222.262	0.09	444524	keystroke_v	v	n/a
222.427	0.075	444854	keystroke_i	i	n/a
222.547	0.075	445094	keystroke_n	n	n/a
223.222	0.105	446444	keystroke_Key.enter	Key.enter	n/a
223.3335	7.225	446667	prompt	n/a	dialogue glasses input parameters\n
223.942	0.075	447884	keystroke_d	d	n/a
224.032	0.075	448064	keystroke_i	i	n/a
224.152	0.135	448304	keystroke_a	a	n/a
224.347	0.09	448694	keystroke_l	l	n/a
224.542	0.075	449084	keystroke_o	o	n/a
224.632	0.06	449264	keystroke_g	g	n/a
224.842	0.06	449684	keystroke_u	u	n/a
224.932	0.06	449864	keystroke_e	e	n/a
225.382	0.105	450764	keystroke_Key.space	Key.space	n/a
225.817	0.075	451634	keystroke_g	g	n/a
225.967	0.09	451934	keystroke_l	l	n/a
226.117	0.105	452234	keystroke_a	a	n/a
226.282	0.075	452564	keystroke_s	s	n/a
226.432	0.06	452864	keystroke_s	s	n/a
226.612	0.06	453224	keystroke_e	e	n/a
226.747	0.09	453494	keystroke_s	s	n/a
227.062	0.105	454124	keystroke_Key.space	Key.space	n/a
227.317	0.075	454634	keystroke_i	i	n/a
227.452	0.09	454904	keystroke_n	n	n/a
227.662	0.12	455324	keystroke_p	p	n/a
227.827	0.075	455654	keystroke_u	u	n/a
227.872	0.075	455744	keystroke_t	t	n/a
228.097	0.105	456194	keystroke_Key.space	Key.space	n/a
228.382	0.09	456764	keystroke_p	p	n/a
228.502	0.135	457004	keystroke_a	a	n/a
228.742	0.09	457484	keystroke_r	r	n/a
228.952	0.09	457904	keystroke_a	a	n/a
229.252	0.09	458504	keystroke_m	m	n/a
229.357	0.09	458714	keystroke_e	e	n/a
229.537	0.09	459074	keystroke_t	t	n/a
229.702	0.09	459404	keystroke_e	e	n/a
229.777	0.09	459554	keystroke_r	r	n/a
229.927	0.105	459854	keystroke_s	s	n/a
230.467	0.09	460934	keystroke_Key.enter	Key.enter	n/a
230.564	5.904	461128	prompt	n/a	responses goes who're cork\n
231.217	0.09	462434	keystroke_r	r	n/a
231.322	0.09	462644	keystroke_e	e	n/a
231.592	0.075	463184	keystroke_s	s	n/a
231.742	0.135	463484	keystroke_p	p	n/a
231.922	0.105	463844	keystroke_o	o	n/a
232.072	0.09	464144	keystroke_n	n	n/a
232.282	0.09	464564	keystroke_s	s	n/a
232.387	0.075	464774	keystroke_e	e	n/a
232.537	0.09	465074	keystroke_s	s	n/a
232.747	0.105	465494	keystroke_Key.space	Key.space	n/a
232.927	0.105	465854	keystroke_g	g	n/a
233.017	0.09	466034	keystroke_o	o	n/a
233.122	0.075	466244	keystroke_e	e	n/a
233.272	0.12	466544	keystroke_s	s	n/a
233.482	0.075	466964	keystroke_Key.space	Key.space	n/a
233.662	0.09	467324	keystroke_w	w	n/a
233.782	0.0745	467564	keystroke_h	h	n/a
233.9765	0.06	467953	keystroke_o	o	n/a
234.2465	0.0905	468493	keystroke_'	'	n/a
234.367	0.1195	468734	keystroke_r	r	n/a
234.4715	0.075	468943	keystroke_e	e	n/a
234.9515	0.105	469903	keystroke_Key.space	Key.space	n/a
235.2365	0.075	470473	keystroke_c	c	n/a
235.3715	0.075	470743	keystroke_o	o	n/a
235.5515	0.06	471103	keystroke_r	r	n/a
235.6865	0.06	471373	keystroke_k	k	n/a
236.3615	0.105	472723	keystroke_Key.enter	Key.enter	n/a
236.472	7.5415	472944	prompt	n/a	naval angle territory text\n
237.1265	0.06	474253	keystroke_n	n	n/a
237.2615	0.15	474523	keystroke_a	a	n/a
237.3665	0.09	474733	keystroke_v	v	n/a
237.5465	0.105	475093	keystroke_a	a	n/a
237.7265	0.045	475453	keystroke_l	l	n/a
238.0265	0.09	476053	keystroke_Key.space	Key.space	n/a
238.2065	0.075	476413	keystroke_a	a	n/a
238.3115	0.045	476623	keystroke_n	n	n/a
238.5515	0.075	477103	keystroke_g	g	n/a
239.0615	0.075	478123	keystroke_l	l	n/a
239.1515	0.06	478303	keystroke_e	e	n/a
239.5415	0.105	479083	keystroke_Key.space	Key.space	n/a
239.9765	0.06	479953	keystroke_t	t	n/a
240.0965	0.105	480193	keystroke_e	e	n/a
240.2915	0.06	480583	keystroke_r	r	n/a
240.4265	0.105	480853	keystroke_r	r	n/a
240.8765	0.06	481753	keystroke_i	i	n/a
241.1915	0.075	482383	keystroke_t	t	n/a
241.3565	0.045	482713	keystroke_o	o	n/a
241.5515	0.075	483103	keystroke_r	r	n/a
241.6865	0.075	483373	keystroke_y	y	n/a
242.0765	0.105	484153	keystroke_Key.space	Key.space	n/a
242.4965	0.045	484993	keystroke_t	t	n/a
242.6315	0.075	485263	keystroke_e	e	n/a
243.0065	0.06	486013	keystroke_x	x	n/a
243.2615	0.045	486523	keystroke_t	t	n/a
243.906	0.105	487812	keystroke_Key.enter	Key.enter	n/a
244.019	11.0945	488038	prompt	n/a	hungarian claims picture urban\n
244.761	0.06	489522	keystroke_h	h	n/a
245.016	0.076	490032	keystroke_u	u	n/a
245.391	0.045	490782	keystroke_n	n	n/a
245.481	0.0905	490962	keystroke_g	g	n/a
245.6465	0.15	491293	keystroke_a	a	n/a
245.7515	0.09	491503	keystroke_r	r	n/a
245.9015	0.06	491803	keystroke_i	i	n/a
246.0365	0.12	492073	keystroke_a	a	n/a
246.1265	0.075	492253	keystroke_n	n	n/a
246.7265	0.105	493453	keystroke_Key.space	Key.space	n/a
246.9365	0.075	493873	keystroke_c	c	n/a
247.1165	0.06	494233	keystroke_l	l	n/a
247.2515	0.09	494503	keystroke_a	a	n/a
247.3565	0.06	494713	keystroke_i	i	n/a
247.5815	0.075	495163	keystroke_m	m	n/a
247.8215	0.015	495643	keystroke_s	s	n/a
247.9715	0.105	495943	keystroke_Key.space	Key.space	n/a
248.3015	0.12	496603	keystroke_p	p	n/a
248.5415	0.06	497083	keystroke_i	i	n/a
248.6165	0.105	497233	keystroke_c	c	n/a
249.0065	0.075	498013	keystroke_u	u	n/a
249.1265	0.12	498253	keystroke_r	r	n/a
249.2165	0.12	498433	keystroke_e	e	n/a
250.701	0.09	501402	keystroke_Key.backspace	Key.backspace	n/a
250.941	0.09	501882	keystroke_Key.backspace	Key.backspace	n/a
251.166	0.075	502332	keystroke_Key.backspace	Key.backspace	n/a
251.676	0.075	503352	keystroke_t	t	n/a
251.856	0.075	503712	keystroke_u	u	n/a
251.961	0.105	503922	keystroke_r	r	n/a
252.036	0.09	504072	keystroke_e	e	n/a
253.581	0.045	507162	keystroke_Key.space	Key.space	n/a
253.761	0.075	507522	keystroke_u	u	n/a
253.881	0.06	507762	keystroke_r	r	n/a
254.077	0.059	508154	keystroke_b	b	n/a
254.241	0.106	508482	keystroke_a	a	n/a
254.377	0.075	508754	keystroke_n	n	n/a
255.006	0.105	510012	keystroke_Key.enter	Key.enter	n/a
255.1185	16.0595	510237	prompt	n/a	excuse hats tasks governance\n
255.757	0.089	511514	keystroke_e	e	n/a
255.981	0.075	511962	keystroke_x	x	n/a
256.1615	0.09	512323	keystroke_e	e	n/a
256.4165	0.075	512833	keystroke_c	c	n/a
256.5365	0.06	513073	keystroke_u	u	n/a
256.6565	0.105	513313	keystroke_s	s	n/a
256.7465	0.09	513493	keystroke_e	e	n/a
257.0615	0.06	514123	keystroke_Key.space	Key.space	n/a
257.2715	0.06	514543	keystroke_h	h	n/a
257.3765	0.15	514753	keystroke_a	a	n/a
257.4965	0.09	514993	keystroke_t	t	n/a
257.6915	0.09	515383	keystroke_s	s	n/a
257.9915	0.075	515983	keystroke_Key.space	Key.space	n/a
258.2015	0.06	516403	keystroke_t	t	n/a
258.3665	0.12	516733	keystroke_a	a	n/a
258.5465	0.09	517093	keystroke_s	s	n/a
258.7715	0.06	517543	keystroke_k	k	n/a
258.8465	0.105	517693	keystroke_s	s	n/a
259.2965	0.09	518593	keystroke_Key.space	Key.space	n/a
259.8965	0.09	519793	keystroke_g	g	n/a
261.6815	0.09	523363	keystroke_Key.backspace	Key.backspace	n/a
261.8765	0.09	523753	keystroke_Key.backspace	Key.backspace	n/a
262.0715	0.075	524143	keystroke_Key.backspace	Key.backspace	n/a
262.2515	0.075	524503	keystroke_Key.backspace	Key.backspace	n/a
262.4315	0.09	524863	keystroke_Key.backspace	Key.backspace	n/a
262.6115	0.09	525223	keystroke_Key.backspace	Key.backspace	n/a
262.7915	0.105	525583	keystroke_Key.backspace	Key.backspace	n/a
262.9715	0.09	525943	keystroke_Key.backspace	Key.backspace	n/a
263.1515	0.105	526303	keystroke_Key.backspace	Key.backspace	n/a
263.3315	0.09	526663	keystroke_Key.backspace	Key.backspace	n/a
263.4965	0.075	526993	keystroke_Key.backspace	Key.backspace	n/a
264.3815	0.105	528763	keystroke_c	c	n/a
264.5315	0.06	529063	keystroke_u	u	n/a
264.6365	0.135	529273	keystroke_s	s	n/a
264.7415	0.105	529483	keystroke_e	e	n/a
265.1765	0.12	530353	keystroke_Key.space	Key.space	n/a
265.5215	0.06	531043	keystroke_h	h	n/a
265.6265	0.18	531253	keystroke_a	a	n/a
265.7615	0.105	531523	keystroke_t	t	n/a
266.0315	0.075	532063	keystroke_s	s	n/a
266.3765	0.105	532753	keystroke_Key.space	Key.space	n/a
266.7365	0.075	533473	keystroke_t	t	n/a
266.8715	0.195	533743	keystroke_a	a	n/a
267.0515	0.09	534103	keystroke_s	s	n/a
267.3515	0.06	534703	keystroke_k	k	n/a
267.4565	0.075	534913	keystroke_s	s	n/a
267.7115	0.105	535423	keystroke_Key.space	Key.space	n/a
268.116	0.0755	536232	keystroke_g	g	n/a
268.236	0.075	536472	keystroke_o	o	n/a
268.431	0.075	536862	keystroke_v	v	n/a
268.581	0.105	537162	keystroke_e	e	n/a
268.656	0.09	537312	keystroke_r	r	n/a
268.806	0.09	537612	keystroke_n	n	n/a
269.751	0.1355	539502	keystroke_a	a	n/a
269.841	0.075	539682	keystroke_n	n	n/a
270.081	0.105	540162	keystroke_c	c	n/a
270.156	0.105	540312	keystroke_e	e	n/a
271.086	0.09	542172	keystroke_Key.enter	Key.enter	n/a
271.183	8.245	542366	prompt	n/a	initiatives propose basin treaty\n
271.941	0.09	543882	keystroke_i	i	n/a
272.106	0.09	544212	keystroke_n	n	n/a
272.271	0.075	544542	keystroke_i	i	n/a
272.751	0.105	545502	keystroke_t	t	n/a
272.931	0.075	545862	keystroke_i	i	n/a
273.021	0.18	546042	keystroke_a	a	n/a
273.156	0.09	546312	keystroke_t	t	n/a
273.231	0.075	546462	keystroke_i	i	n/a
273.366	0.09	546732	keystroke_v	v	n/a
273.486	0.09	546972	keystroke_e	e	n/a
273.681	0.09	547362	keystroke_s	s	n/a
274.266	0.135	548532	keystroke_Key.space	Key.space	n/a
274.551	0.12	549102	keystroke_p	p	n/a
275.046	0.09	550092	keystroke_r	r	n/a
275.181	0.135	550362	keystroke_o	o	n/a
275.361	0.105	550722	keystroke_p	p	n/a
275.541	0.075	551082	keystroke_o	o	n/a
275.646	0.105	551292	keystroke_s	s	n/a
275.736	0.09	551472	keystroke_e	e	n/a
276.456	0.105	552912	keystroke_Key.space	Key.space	n/a
276.681	0.075	553362	keystroke_b	b	n/a
276.771	0.15	553542	keystroke_a	a	n/a
276.906	0.09	553812	keystroke_s	s	n/a
277.026	0.06	554052	keystroke_i	i	n/a
277.116	0.09	554232	keystroke_n	n	n/a
277.386	0.105	554772	keystroke_Key.space	Key.space	n/a
277.641	0.075	555282	keystroke_t	t	n/a
277.866	0.15	555732	keystroke_r	r	n/a
277.956	0.15	555912	keystroke_e	e	n/a
278.151	0.165	556302	keystroke_a	a	n/a
278.331	0.075	556662	keystroke_t	t	n/a
278.556	0.075	557112	keystroke_y	y	n/a
279.321	0.105	558642	keystroke_Key.enter	Key.enter	n/a
279.4325	7.3155	558865	prompt	n/a	breach peace indexed missile\n
280.102	0.074	560204	keystroke_b	b	n/a
280.236	0.151	560472	keystroke_r	r	n/a
280.401	0.091	560802	keystroke_e	e	n/a
280.641	0.135	561282	keystroke_a	a	n/a
280.806	0.091	561612	keystroke_c	c	n/a
280.942	0.089	561884	keystroke_h	h	n/a
281.271	0.09	562542	keystroke_Key.space	Key.space	n/a
281.961	0.09	563922	keystroke_p	p	n/a
282.096	0.06	564192	keystroke_e	e	n/a
282.261	0.195	564522	keystroke_a	a	n/a
282.442	0.15	564884	keystroke_c	c	n/a
282.561	0.09	565122	keystroke_e	e	n/a
282.921	0.09	565842	keystroke_Key.space	Key.space	n/a
283.296	0.075	566592	keystroke_i	i	n/a
283.446	0.075	566892	keystroke_n	n	n/a
283.536	0.076	567072	keystroke_d	d	n/a
283.716	0.06	567432	keystroke_e	e	n/a
283.926	0.075	567852	keystroke_x	x	n/a
284.136	0.061	568272	keystroke_e	e	n/a
284.271	0.09	568542	keystroke_d	d	n/a
284.556	0.075	569112	keystroke_Key.space	Key.space	n/a
285.067	0.059	570134	keystroke_m	m	n/a
285.247	0.074	570494	keystroke_i	i	n/a
285.381	0.075	570762	keystroke_s	s	n/a
285.531	0.091	571062	keystroke_s	s	n/a
285.682	0.059	571364	keystroke_i	i	n/a
285.877	0.089	571754	keystroke_l	l	n/a
285.982	0.044	571964	keystroke_e	e	n/a
286.626	0.12	573252	keystroke_Key.enter	Key.enter	n/a
286.753	5.891	573506	prompt	n/a	attached shell pure words\n
287.481	0.121	574962	keystroke_a	a	n/a
287.692	0.045	575384	keystroke_t	t	n/a
287.811	0.09	575622	keystroke_t	t	n/a
288.157	0.194	576314	keystroke_a	a	n/a
288.367	0.089	576734	keystroke_c	c	n/a
288.487	0.089	576974	keystroke_h	h	n/a
288.606	0.076	577212	keystroke_e	e	n/a
288.7865	0.075	577573	keystroke_d	d	n/a
289.0415	0.09	578083	keystroke_Key.space	Key.space	n/a
289.3415	0.105	578683	keystroke_s	s	n/a
289.4315	0.075	578863	keystroke_h	h	n/a
289.6115	0.06	579223	keystroke_e	e	n/a
289.7915	0.075	579583	keystroke_l	l	n/a
289.9415	0.09	579883	keystroke_l	l	n/a
290.2865	0.09	580573	keystroke_Key.space	Key.space	n/a
290.5115	0.12	581023	keystroke_p	p	n/a
290.6915	0.045	581383	keystroke_u	u	n/a
290.7515	0.12	581503	keystroke_r	r	n/a
290.8415	0.09	581683	keystroke_e	e	n/a
291.0815	0.075	582163	keystroke_Key.space	Key.space	n/a
291.2615	0.09	582523	keystroke_w	w	n/a
291.3665	0.06	582733	keystroke_o	o	n/a
291.4865	0.09	582973	keystroke_r	r	n/a
291.6665	0.075	583333	keystroke_d	d	n/a
291.8765	0.075	583753	keystroke_s	s	n/a
292.5515	0.09	585103	keystroke_Key.enter	Key.enter	n/a
292.649	10.299	585298	prompt	n/a	affect judges palmer dividend\n
293.3615	0.12	586723	keystroke_a	a	n/a
293.5415	0.045	587083	keystroke_f	f	n/a
293.6615	0.06	587323	keystroke_f	f	n/a
293.9015	0.091	587803	keystroke_e	e	n/a
294.1115	0.09	588223	keystroke_c	c	n/a
294.321	0.06	588642	keystroke_t	t	n/a
294.696	0.075	589392	keystroke_Key.space	Key.space	n/a
294.921	0.061	589842	keystroke_j	j	n/a
295.101	0.06	590202	keystroke_u	u	n/a
295.221	0.09	590442	keystroke_d	d	n/a
295.386	0.091	590772	keystroke_g	g	n/a
295.566	0.061	591132	keystroke_e	e	n/a
295.746	0.09	591492	keystroke_s	s	n/a
296.031	0.105	592062	keystroke_Key.space	Key.space	n/a
296.811	0.121	593622	keystroke_p	p	n/a
297.142	0.104	594284	keystroke_a	a	n/a
297.502	0.119	595004	keystroke_l	l	n/a
297.862	0.09	595724	keystroke_m	m	n/a
298.056	0.09	596112	keystroke_e	e	n/a
298.131	0.106	596262	keystroke_r	r	n/a
298.462	0.089	596924	keystroke_Key.space	Key.space	n/a
298.687	0.089	597374	keystroke_d	d	n/a
298.851	0.076	597702	keystroke_i	i	n/a
299.092	0.075	598184	keystroke_v	v	n/a
299.257	0.075	598514	keystroke_i	i	n/a
299.376	0.076	598752	keystroke_d	d	n/a
299.572	0.075	599144	keystroke_e	e	n/a
299.706	0.061	599412	keystroke_n	n	n/a
301.477	0.09	602954	keystroke_d	d	n/a
302.826	0.12	605652	keystroke_Key.enter	Key.enter	n/a
302.956	9.3225	605912	prompt	n/a	authorization auditor trek buttons\n
303.652	0.12	607304	keystroke_a	a	n/a
303.787	0.075	607574	keystroke_u	u	n/a
303.982	0.075	607964	keystroke_t	t	n/a
304.147	0.06	608294	keystroke_h	h	n/a
304.267	0.104	608534	keystroke_o	o	n/a
304.462	0.075	608924	keystroke_r	r	n/a
304.566	0.06	609132	keystroke_i	i	n/a
304.762	0.09	609524	keystroke_z	z	n/a
304.957	0.105	609914	keystroke_a	a	n/a
305.226	0.076	610452	keystroke_t	t	n/a
305.437	0.075	610874	keystroke_i	i	n/a
305.572	0.135	611144	keystroke_o	o	n/a
305.692	0.09	611384	keystroke_n	n	n/a
306.201	0.1205	612402	keystroke_Key.space	Key.space	n/a
306.4415	0.075	612883	keystroke_a	a	n/a
306.8915	0.06	613783	keystroke_u	u	n/a
307.0115	0.105	614023	keystroke_d	d	n/a
307.1315	0.06	614263	keystroke_i	i	n/a
307.2665	0.075	614533	keystroke_t	t	n/a
307.3865	0.075	614773	keystroke_o	o	n/a
307.5065	0.075	615013	keystroke_r	r	n/a
308.376	0.135	616752	keystroke_Key.space	Key.space	n/a
308.961	0.06	617922	keystroke_t	t	n/a
309.156	0.075	618312	keystroke_r	r	n/a
309.201	0.12	618402	keystroke_e	e	n/a
309.441	0.075	618882	keystroke_k	k	n/a
309.846	0.075	619692	keystroke_Key.space	Key.space	n/a
310.371	0.06	620742	keystroke_b	b	n/a
310.581	0.045	621162	keystroke_u	u	n/a
310.761	0.045	621522	keystroke_t	t	n/a
310.911	0.075	621822	keystroke_t	t	n/a
311.076	0.075	622152	keystroke_o	o	n/a
311.196	0.09	622392	keystroke_n	n	n/a
311.376	0.075	622752	keystroke_s	s	n/a
312.171	0.105	624342	keystroke_Key.enter	Key.enter	n/a
312.2835	8.95	624567	prompt	n/a	glad was collectibles threats\n
312.951	0.045	625902	keystroke_g	g	n/a
313.101	0.06	626202	keystroke_l	l	n/a
313.206	0.12	626412	keystroke_a	a	n/a
313.296	0.06	626592	keystroke_d	d	n/a
313.716	0.105	627432	keystroke_Key.space	Key.space	n/a
313.941	0.09	627882	keystroke_w	w	n/a
314.106	0.15	628212	keystroke_a	a	n/a
314.211	0.09	628422	keystroke_s	s	n/a
314.511	0.105	629022	keystroke_Key.space	Key.space	n/a
314.976	0.09	629952	keystroke_c	c	n/a
315.171	0.015	630342	keystroke_o	o	n/a
315.786	0.06	631572	keystroke_l	l	n/a
315.951	0.075	631902	keystroke_l	l	n/a
316.086	0.09	632172	keystroke_e	e	n/a
316.311	0.105	632622	keystroke_c	c	n/a
316.866	0.075	633732	keystroke_t	t	n/a
317.271	0.09	634542	keystroke_i	i	n/a
318.051	0.075	636102	keystroke_b	b	n/a
318.291	0.075	636582	keystroke_l	l	n/a
318.351	0.06	636702	keystroke_e	e	n/a
318.531	0.09	637062	keystroke_s	s	n/a
319.161	0.105	638322	keystroke_Key.space	Key.space	n/a
319.566	0.06	639132	keystroke_t	t	n/a
319.656	0.075	639312	keystroke_h	h	n/a
319.806	0.135	639612	keystroke_r	r	n/a
319.926	0.12	639852	keystroke_e	e	n/a
320.076	0.15	640152	keystroke_a	a	n/a
320.211	0.031	640422	keystroke_t	t	n/a
320.376	0.09	640752	keystroke_s	s	n/a
321.126	0.105	642252	keystroke_Key.enter	Key.enter	n/a
321.24	16.793	642480	prompt	n/a	plymouth affiliated infinite talent\n
322.116	0.12	644232	keystroke_p	p	n/a
322.671	0.045	645342	keystroke_y	y	n/a
323.571	0.09	647142	keystroke_Key.backspace	Key.backspace	n/a
323.901	0.09	647802	keystroke_l	l	n/a
324.141	0.06	648282	keystroke_y	y	n/a
324.471	0.09	648942	keystroke_m	m	n/a
324.666	0.09	649332	keystroke_o	o	n/a
324.786	0.09	649572	keystroke_u	u	n/a
324.936	0.09	649872	keystroke_t	t	n/a
325.041	0.075	650082	keystroke_h	h	n/a
327.0805	0.09	654161	keystroke_a	a	n/a
327.231	0.075	654462	keystroke_f	f	n/a
327.3805	0.09	654761	keystroke_f	f	n/a
327.6055	0.076	655211	keystroke_i	i	n/a
327.8755	0.09	655751	keystroke_l	l	n/a
328.0555	0.06	656111	keystroke_i	i	n/a
328.1905	0.1805	656381	keystroke_a	a	n/a
328.3255	0.0905	656651	keystroke_t	t	n/a
328.401	0.12	656802	keystroke_e	e	n/a
328.596	0.105	657192	keystroke_d	d	n/a
329.451	0.09	658902	keystroke_Key.backspace	Key.backspace	n/a
329.646	0.105	659292	keystroke_Key.backspace	Key.backspace	n/a
329.856	0.075	659712	keystroke_Key.backspace	Key.backspace	n/a
330.051	0.075	660102	keystroke_Key.backspace	Key.backspace	n/a
330.231	0.09	660462	keystroke_Key.backspace	Key.backspace	n/a
330.396	0.105	660792	keystroke_Key.backspace	Key.backspace	n/a
330.576	0.09	661152	keystroke_Key.backspace	Key.backspace	n/a
330.771	0.075	661542	keystroke_Key.backspace	Key.backspace	n/a
330.966	0.06	661932	keystroke_Key.backspace	Key.backspace	n/a
331.251	0.06	662502	keystroke_Key.backspace	Key.backspace	n/a
331.581	0.075	663162	keystroke_Key.space	Key.space	n/a
332.946	0.09	665892	keystroke_a	a	n/a
333.141	0.075	666282	keystroke_f	f	n/a
333.306	0.09	666612	keystroke_f	f	n/a
333.666	0.075	667332	keystroke_i	i	n/a
333.906	0.09	667812	keystroke_l	l	n/a
334.041	0.09	668082	keystroke_i	i	n/a
334.206	0.165	668412	keystroke_a	a	n/a
334.356	0.09	668712	keystroke_t	t	n/a
334.476	0.09	668952	keystroke_e	e	n/a
334.656	0.09	669312	keystroke_d	d	n/a
335.031	0.09	670062	keystroke_Key.space	Key.space	n/a
335.376	0.075	670752	keystroke_i	i	n/a
335.511	0.075	671022	keystroke_n	n	n/a
335.661	0.09	671322	keystroke_f	f	n/a
335.781	0.075	671562	keystroke_i	i	n/a
335.961	0.09	671922	keystroke_n	n	n/a
336.141	0.075	672282	keystroke_i	i	n/a
336.216	0.09	672432	keystroke_t	t	n/a
336.307	0.119	672614	keystroke_e	e	n/a
336.501	0.12	673002	keystroke_Key.space	Key.space	n/a
336.636	0.09	673272	keystroke_t	t	n/a
336.771	0.12	673542	keystroke_a	a	n/a
336.906	0.09	673812	keystroke_l	l	n/a
337.026	0.075	674052	keystroke_e	e	n/a
337.146	0.09	674292	keystroke_n	n	n/a
337.266	0.075	674532	keystroke_t	t	n/a
337.926	0.105	675852	keystroke_Key.enter	Key.enter	n/a
338.038	8.695	676076	prompt	n/a	bird should rock mpegs\n
338.721	0.06	677442	keystroke_b	b	n/a
338.871	0.06	677742	keystroke_i	i	n/a
338.946	0.06	677892	keystroke_r	r	n/a
339.096	0.075	678192	keystroke_d	d	n/a
339.591	0.09	679182	keystroke_Key.space	Key.space	n/a
339.876	0.075	679752	keystroke_s	s	n/a
340.176	0.06	680352	keystroke_o	o	n/a
341.076	0.09	682152	keystroke_Key.backspace	Key.backspace	n/a
341.601	0.075	683202	keystroke_h	h	n/a
341.8865	0.075	683773	keystroke_o	o	n/a
341.9765	0.075	683953	keystroke_u	u	n/a
342.6505	0.075	685301	keystroke_l	l	n/a
342.7855	0.09	685571	keystroke_d	d	n/a
343.1755	0.105	686351	keystroke_Key.space	Key.space	n/a
343.7155	0.06	687431	keystroke_r	r	n/a
343.8955	0.06	687791	keystroke_o	o	n/a
344.0155	0.09	688031	keystroke_c	c	n/a
344.211	0.06	688422	keystroke_k	k	n/a
344.691	0.09	689382	keystroke_Key.space	Key.space	n/a
345.126	0.09	690252	keystroke_m	m	n/a
345.411	0.075	690822	keystroke_p	p	n/a
345.636	0.075	691272	keystroke_e	e	n/a
345.831	0.075	691662	keystroke_g	g	n/a
346.026	0.09	692052	keystroke_s	s	n/a
346.626	0.105	693252	keystroke_Key.enter	Key.enter	n/a
346.7365	10.9315	693473	prompt	n/a	courier gently grand contact\n
347.391	0.09	694782	keystroke_c	c	n/a
347.556	0.12	695112	keystroke_o	o	n/a
347.706	0.075	695412	keystroke_u	u	n/a
348.006	0.075	696012	keystroke_r	r	n/a
348.306	0.075	696612	keystroke_i	i	n/a
348.561	0.12	697122	keystroke_e	e	n/a
348.651	0.105	697302	keystroke_r	r	n/a
348.966	0.105	697932	keystroke_Key.space	Key.space	n/a
349.296	0.075	698592	keystroke_g	g	n/a
349.476	0.105	698952	keystroke_e	e	n/a
349.626	0.09	699252	keystroke_n	n	n/a
349.851	0.06	699702	keystroke_t	t	n/a
350.901	0.09	701802	keystroke_l	l	n/a
351.201	0.06	702402	keystroke_y	y	n/a
352.701	0.105	705402	keystroke_Key.space	Key.space	n/a
353.076	0.09	706152	keystroke_r	r	n/a
353.976	0.09	707952	keystroke_Key.backspace	Key.backspace	n/a
354.457	0.089	708914	keystroke_g	g	n/a
354.666	0.075	709332	keystroke_r	r	n/a
354.861	0.105	709722	keystroke_a	a	n/a
355.026	0.075	710052	keystroke_n	n	n/a
355.146	0.075	710292	keystroke_d	d	n/a
355.371	0.105	710742	keystroke_Key.space	Key.space	n/a
355.551	0.075	711102	keystroke_c	c	n/a
355.671	0.075	711342	keystroke_o	o	n/a
355.956	0.075	711912	keystroke_n	n	n/a
356.271	0.09	712542	keystroke_t	t	n/a
356.481	0.12	712962	keystroke_a	a	n/a
356.676	0.075	713352	keystroke_c	c	n/a
356.916	0.06	713832	keystroke_t	t	n/a
357.546	0.12	715092	keystroke_Key.enter	Key.enter	n/a
357.6725	8.186	715345	prompt	n/a	hybrid antenna course volt\n
358.671	0.075	717342	keystroke_h	h	n/a
358.851	0.075	717702	keystroke_y	y	n/a
359.136	0.075	718272	keystroke_b	b	n/a
359.256	0.075	718512	keystroke_r	r	n/a
359.406	0.06	718812	keystroke_i	i	n/a
359.466	0.075	718932	keystroke_d	d	n/a
359.991	0.12	719982	keystroke_Key.space	Key.space	n/a
360.276	0.135	720552	keystroke_a	a	n/a
360.621	0.075	721242	keystroke_n	n	n/a
360.756	0.09	721512	keystroke_t	t	n/a
360.906	0.09	721812	keystroke_e	e	n/a
361.821	0.06	723642	keystroke_n	n	n/a
361.986	0.075	723972	keystroke_n	n	n/a
362.196	0.105	724392	keystroke_a	a	n/a
363.111	0.09	726222	keystroke_Key.space	Key.space	n/a
363.291	0.0895	726582	keystroke_c	c	n/a
363.4855	0.09	726971	keystroke_o	o	n/a
363.7115	0.074	727423	keystroke_u	u	n/a
363.8005	0.091	727601	keystroke_r	r	n/a
363.9955	0.12	727991	keystroke_s	s	n/a
364.1005	0.075	728201	keystroke_e	e	n/a
364.3555	0.075	728711	keystroke_Key.space	Key.space	n/a
364.5365	0.09	729073	keystroke_v	v	n/a
364.6565	0.089	729313	keystroke_o	o	n/a
364.8965	0.075	729793	keystroke_l	l	n/a
365.0465	0.06	730093	keystroke_t	t	n/a
365.7365	0.119	731473	keystroke_Key.enter	Key.enter	n/a
365.8635	7.87	731727	prompt	n/a	senegal protest knows bottom\n
366.6205	0.106	733241	keystroke_s	s	n/a
366.7415	0.075	733483	keystroke_e	e	n/a
366.9815	0.06	733963	keystroke_n	n	n/a
367.3565	0.075	734713	keystroke_e	e	n/a
367.5365	0.075	735073	keystroke_g	g	n/a
368.0465	0.104	736093	keystroke_a	a	n/a
368.2115	0.075	736423	keystroke_l	l	n/a
368.6015	0.104	737203	keystroke_Key.space	Key.space	n/a
369.1265	0.12	738253	keystroke_p	p	n/a
369.2905	0.105	738581	keystroke_r	r	n/a
369.5315	0.075	739063	keystroke_o	o	n/a
369.6815	0.104	739363	keystroke_t	t	n/a
369.8615	0.075	739723	keystroke_e	e	n/a
370.0565	0.164	740113	keystroke_s	s	n/a
370.1915	0.075	740383	keystroke_t	t	n/a
370.6705	0.106	741341	keystroke_Key.space	Key.space	n/a
370.8815	0.06	741763	keystroke_k	k	n/a
371.0015	0.105	742003	keystroke_n	n	n/a
371.1215	0.09	742243	keystroke_o	o	n/a
371.2415	0.075	742483	keystroke_w	w	n/a
371.4215	0.09	742843	keystroke_s	s	n/a
371.6465	0.104	743293	keystroke_Key.space	Key.space	n/a
372.2605	0.06	744521	keystroke_b	b	n/a
372.3815	0.075	744763	keystroke_o	o	n/a
372.5455	0.046	745091	keystroke_t	t	n/a
372.7105	0.061	745421	keystroke_t	t	n/a
372.8465	0.075	745693	keystroke_o	o	n/a
373.0565	0.09	746113	keystroke_m	m	n/a
373.6565	0.075	747313	keystroke_Key.enter	Key.enter	n/a
373.738	7.9455	747476	prompt	n/a	sporting mill podcasts quiet\n
374.4365	0.105	748873	keystroke_s	s	n/a
374.6615	0.105	749323	keystroke_p	p	n/a
374.9015	0.06	749803	keystroke_o	o	n/a
374.9905	0.076	749981	keystroke_r	r	n/a
375.1865	0.06	750373	keystroke_t	t	n/a
375.3215	0.06	750643	keystroke_i	i	n/a
375.4115	0.06	750823	keystroke_n	n	n/a
375.4715	0.075	750943	keystroke_g	g	n/a
375.6955	0.105	751391	keystroke_Key.space	Key.space	n/a
375.9505	0.076	751901	keystroke_m	m	n/a
376.1915	0.06	752383	keystroke_i	i	n/a
376.4315	0.06	752863	keystroke_l	l	n/a
376.5965	0.074	753193	keystroke_l	l	n/a
377.826	0.105	755652	keystroke_Key.space	Key.space	n/a
378.051	0.105	756102	keystroke_p	p	n/a
378.261	0.06	756522	keystroke_o	o	n/a
378.351	0.09	756702	keystroke_d	d	n/a
378.591	0.09	757182	keystroke_c	c	n/a
378.801	0.135	757602	keystroke_a	a	n/a
378.981	0.135	757962	keystroke_s	s	n/a
379.146	0.09	758292	keystroke_t	t	n/a
379.281	0.105	758562	keystroke_s	s	n/a
379.716	0.135	759432	keystroke_Key.space	Key.space	n/a
380.076	0.09	760152	keystroke_q	q	n/a
380.286	0.075	760572	keystroke_u	u	n/a
380.511	0.06	761022	keystroke_i	i	n/a
380.631	0.12	761262	keystroke_e	e	n/a
380.766	0.075	761532	keystroke_t	t	n/a
381.576	0.105	763152	keystroke_Key.enter	Key.enter	n/a
381.689	14.574	763378	prompt	n/a	constitutional province shaw contamination\n
382.476	0.075	764952	keystroke_c	c	n/a
382.641	0.06	765282	keystroke_o	o	n/a
382.881	0.075	765762	keystroke_n	n	n/a
383.286	0.09	766572	keystroke_s	s	n/a
383.496	0.06	766992	keystroke_t	t	n/a
383.676	0.061	767352	keystroke_i	i	n/a
384.846	0.075	769692	keystroke_t	t	n/a
384.981	0.075	769962	keystroke_u	u	n/a
385.191	0.06	770382	keystroke_t	t	n/a
385.266	0.135	770532	keystroke_i	i	n/a
385.402	0.104	770804	keystroke_o	o	n/a
385.507	0.104	771014	keystroke_n	n	n/a
385.612	0.104	771224	keystroke_a	a	n/a
385.731	0.09	771462	keystroke_l	l	n/a
385.836	0.12	771672	keystroke_Key.space	Key.space	n/a
386.601	0.105	773202	keystroke_p	p	n/a
386.721	0.075	773442	keystroke_r	r	n/a
386.826	0.075	773652	keystroke_o	o	n/a
387.171	0.045	774342	keystroke_v	v	n/a
387.576	0.03	775152	keystroke_i	i	n/a
387.651	0.075	775302	keystroke_n	n	n/a
387.771	0.136	775542	keystroke_c	c	n/a
387.876	0.09	775752	keystroke_e	e	n/a
388.5355	0.105	777071	keystroke_Key.space	Key.space	n/a
388.7915	0.105	777583	keystroke_s	s	n/a
388.8815	0.045	777763	keystroke_h	h	n/a
389.3165	0.135	778633	keystroke_a	a	n/a
389.4365	0.09	778873	keystroke_w	w	n/a
389.721	0.105	779442	keystroke_Key.space	Key.space	n/a
389.961	0.075	779922	keystroke_c	c	n/a
390.186	0.075	780372	keystroke_o	o	n/a
390.306	0.105	780612	keystroke_n	n	n/a
393.339	0.001	786678	keystroke_t	t	n/a
393.471	0.105	786942	keystroke_a	a	n/a
393.666	0.075	787332	keystroke_m	m	n/a
393.861	0.075	787722	keystroke_i	i	n/a
394.041	0.075	788082	keystroke_n	n	n/a
394.536	0.135	789072	keystroke_a	a	n/a
394.806	0.075	789612	keystroke_t	t	n/a
394.941	0.09	789882	keystroke_i	i	n/a
395.032	0.119	790064	keystroke_o	o	n/a
395.121	0.105	790242	keystroke_n	n	n/a
396.156	0.105	792312	keystroke_Key.enter	Key.enter	n/a
396.269	5.8445	792538	prompt	n/a	jeep clinics avoid picture\n
397.131	0.075	794262	keystroke_j	j	n/a
397.2365	0.0745	794473	keystroke_e	e	n/a
397.416	0.06	794832	keystroke_e	e	n/a
397.581	0.075	795162	keystroke_p	p	n/a
397.866	0.105	795732	keystroke_Key.space	Key.space	n/a
398.226	0.105	796452	keystroke_c	c	n/a
398.391	0.06	796782	keystroke_l	l	n/a
398.556	0.075	797112	keystroke_i	i	n/a
398.706	0.105	797412	keystroke_n	n	n/a
398.841	0.075	797682	keystroke_i	i	n/a
398.931	0.06	797862	keystroke_c	c	n/a
399.051	0.1055	798102	keystroke_s	s	n/a
399.2765	0.104	798553	keystroke_Key.space	Key.space	n/a
399.4565	0.165	798913	keystroke_a	a	n/a
399.5915	0.105	799183	keystroke_v	v	n/a
399.7265	0.089	799453	keystroke_o	o	n/a
399.8455	0.076	799691	keystroke_i	i	n/a
399.9365	0.089	799873	keystroke_d	d	n/a
400.2055	0.105	800411	keystroke_Key.space	Key.space	n/a
400.4915	0.12	800983	keystroke_p	p	n/a
400.6865	0.09	801373	keystroke_i	i	n/a
400.7915	0.06	801583	keystroke_c	c	n/a
401.0315	0.06	802063	keystroke_t	t	n/a
401.1515	0.059	802303	keystroke_u	u	n/a
401.2415	0.104	802483	keystroke_r	r	n/a
401.3155	0.09	802631	keystroke_e	e	n/a
402.0955	0.015	804191	keystroke_Key.enter	Key.enter	n/a
402.1225	6.5	804245	prompt	n/a	audit gender locations currently\n
402.7705	0.106	805541	keystroke_a	a	n/a
402.9365	0.075	805873	keystroke_u	u	n/a
403.0865	0.09	806173	keystroke_d	d	n/a
403.1915	0.06	806383	keystroke_i	i	n/a
403.2965	0.074	806593	keystroke_t	t	n/a
403.5205	0.09	807041	keystroke_Key.space	Key.space	n/a
403.7155	0.091	807431	keystroke_g	g	n/a
403.8515	0.089	807703	keystroke_e	e	n/a
404.2265	0.075	808453	keystroke_n	n	n/a
404.4065	0.06	808813	keystroke_d	d	n/a
404.5855	0.12	809171	keystroke_e	e	n/a
404.6765	0.089	809353	keystroke_r	r	n/a
404.9155	0.105	809831	keystroke_Key.space	Key.space	n/a
405.1405	0.045	810281	keystroke_l	l	n/a
405.3065	0.059	810613	keystroke_o	o	n/a
405.4255	0.12	810851	keystroke_c	c	n/a
405.6055	0.135	811211	keystroke_a	a	n/a
405.8305	0.075	811661	keystroke_t	t	n/a
405.9505	0.09	811901	keystroke_i	i	n/a
406.0415	0.104	812083	keystroke_o	o	n/a
406.1305	0.09	812261	keystroke_n	n	n/a
406.2355	0.075	812471	keystroke_s	s	n/a
406.4905	0.09	812981	keystroke_Key.space	Key.space	n/a
406.7155	0.09	813431	keystroke_c	c	n/a
406.8655	0.075	813731	keystroke_u	u	n/a
407.0765	0.059	814153	keystroke_r	r	n/a
407.301	0.0145	814602	keystroke_r	r	n/a
407.3755	0.09	814751	keystroke_e	e	n/a
407.5115	0.059	815023	keystroke_n	n	n/a
407.5855	0.075	815171	keystroke_t	t	n/a
407.7055	0.105	815411	keystroke_l	l	n/a
407.8405	0.075	815681	keystroke_y	y	n/a
408.5155	0.105	817031	keystroke_Key.enter	Key.enter	n/a
408.627	18.5065	817254	prompt	n/a	moral occurrence vertical blonde\n
409.3265	0.074	818653	keystroke_m	m	n/a
409.4605	0.09	818921	keystroke_o	o	n/a
409.5955	0.06	819191	keystroke_r	r	n/a
409.7305	0.09	819461	keystroke_a	a	n/a
409.8505	0.09	819701	keystroke_l	l	n/a
410.1055	0.105	820211	keystroke_Key.space	Key.space	n/a
410.5105	0.075	821021	keystroke_o	o	n/a
410.7355	0.06	821471	keystroke_c	c	n/a
410.8855	0.075	821771	keystroke_c	c	n/a
411.0655	0.06	822131	keystroke_u	u	n/a
411.2005	0.091	822401	keystroke_r	r	n/a
411.4855	0.09	822971	keystroke_e	e	n/a
411.6955	0.06	823391	keystroke_n	n	n/a
411.8155	0.15	823631	keystroke_c	c	n/a
411.9505	0.091	823901	keystroke_e	e	n/a
412.2665	0.104	824533	keystroke_Key.space	Key.space	n/a
412.4765	0.089	824953	keystroke_v	v	n/a
412.6715	0.12	825343	keystroke_e	e	n/a
412.7765	0.075	825553	keystroke_r	r	n/a
412.9705	0.075	825941	keystroke_t	t	n/a
413.0905	0.061	826181	keystroke_i	i	n/a
413.2105	0.121	826421	keystroke_c	c	n/a
413.3465	0.105	826693	keystroke_a	a	n/a
413.5405	0.06	827081	keystroke_l	l	n/a
418.9445	0.027	837889	keystroke_Key.backspace	Key.backspace	n/a
419.0605	0.076	838121	keystroke_Key.backspace	Key.backspace	n/a
419.2415	0.0735	838483	keystroke_Key.backspace	Key.backspace	n/a
419.42	0.076	838840	keystroke_Key.backspace	Key.backspace	n/a
419.601	0.075	839202	keystroke_Key.backspace	Key.backspace	n/a
419.7805	0.075	839561	keystroke_Key.backspace	Key.backspace	n/a
419.9605	0.06	839921	keystroke_Key.backspace	Key.backspace	n/a
420.1255	0.075	840251	keystroke_Key.backspace	Key.backspace	n/a
420.3055	0.075	840611	keystroke_Key.backspace	Key.backspace	n/a
420.4855	0.09	840971	keystroke_Key.backspace	Key.backspace	n/a
420.6805	0.09	841361	keystroke_Key.backspace	Key.backspace	n/a
420.8755	0.06	841751	keystroke_Key.backspace	Key.backspace	n/a
421.0555	0.06	842111	keystroke_Key.backspace	Key.backspace	n/a
421.4605	0.075	842921	keystroke_r	r	n/a
421.6565	0.104	843313	keystroke_e	e	n/a
422.3755	0.075	844751	keystroke_n	n	n/a
422.5265	0.119	845053	keystroke_c	c	n/a
422.6305	0.105	845261	keystroke_e	e	n/a
423.3505	0.105	846701	keystroke_Key.space	Key.space	n/a
423.5315	0.105	847063	keystroke_v	v	n/a
423.6955	0.136	847391	keystroke_e	e	n/a
423.8005	0.09	847601	keystroke_r	r	n/a
424.0115	0.075	848023	keystroke_t	t	n/a
424.1315	0.059	848263	keystroke_i	i	n/a
424.281	0.105	848562	keystroke_c	c	n/a
424.401	0.135	848802	keystroke_a	a	n/a
424.626	0.075	849252	keystroke_l	l	n/a
425.091	0.105	850182	keystroke_Key.space	Key.space	n/a
425.331	0.075	850662	keystroke_b	b	n/a
425.571	0.09	851142	keystroke_l	l	n/a
425.766	0.075	851532	keystroke_o	o	n/a
425.931	0.09	851862	keystroke_n	n	n/a
426.066	0.06	852132	keystroke_d	d	n/a
426.276	0.06	852552	keystroke_e	e	n/a
427.026	0.105	854052	keystroke_Key.enter	Key.enter	n/a
427.1395	6.339	854279	prompt	n/a	toxic infant yours his\n
427.836	0.09	855672	keystroke_t	t	n/a
428.181	0.075	856362	keystroke_o	o	n/a
428.331	0.09	856662	keystroke_x	x	n/a
428.601	0.075	857202	keystroke_i	i	n/a
428.706	0.09	857412	keystroke_c	c	n/a
429.171	0.105	858342	keystroke_Key.space	Key.space	n/a
429.516	0.075	859032	keystroke_i	i	n/a
429.651	0.075	859302	keystroke_n	n	n/a
429.801	0.105	859602	keystroke_f	f	n/a
429.981	0.12	859962	keystroke_a	a	n/a
430.146	0.075	860292	keystroke_n	n	n/a
430.251	0.075	860502	keystroke_t	t	n/a
430.656	0.12	861312	keystroke_Key.space	Key.space	n/a
431.226	0.075	862452	keystroke_y	y	n/a
431.466	0.075	862932	keystroke_o	o	n/a
431.556	0.06	863112	keystroke_u	u	n/a
431.661	0.06	863322	keystroke_r	r	n/a
431.931	0.105	863862	keystroke_s	s	n/a
432.246	0.105	864492	keystroke_Key.space	Key.space	n/a
432.501	0.06	865002	keystroke_h	h	n/a
432.666	0.045	865332	keystroke_i	i	n/a
432.756	0.105	865512	keystroke_s	s	n/a
433.371	0.105	866742	keystroke_Key.enter	Key.enter	n/a
433.484	7.344	866968	prompt	n/a	density daily hints blessed\n
434.196	0.09	868392	keystroke_d	d	n/a
434.406	0.075	868812	keystroke_e	e	n/a
434.496	0.075	868992	keystroke_n	n	n/a
434.721	0.075	869442	keystroke_s	s	n/a
434.826	0.075	869652	keystroke_i	i	n/a
434.946	0.075	869892	keystroke_t	t	n/a
435.036	0.06	870072	keystroke_y	y	n/a
436.041	0.105	872082	keystroke_Key.space	Key.space	n/a
436.266	0.06	872532	keystroke_d	d	n/a
436.401	0.105	872802	keystroke_a	a	n/a
436.641	0.09	873282	keystroke_i	i	n/a
436.866	0.12	873732	keystroke_l	l	n/a
437.016	0.075	874032	keystroke_y	y	n/a
437.496	0.075	874992	keystroke_Key.space	Key.space	n/a
437.736	0.075	875472	keystroke_h	h	n/a
437.856	0.075	875712	keystroke_i	i	n/a
437.991	0.06	875982	keystroke_n	n	n/a
438.111	0.09	876222	keystroke_t	t	n/a
438.276	0.075	876552	keystroke_s	s	n/a
438.801	0.075	877602	keystroke_Key.space	Key.space	n/a
439.101	0.06	878202	keystroke_b	b	n/a
439.356	0.075	878712	keystroke_l	l	n/a
439.446	0.06	878892	keystroke_e	e	n/a
439.626	0.06	879252	keystroke_s	s	n/a
439.746	0.075	879492	keystroke_s	s	n/a
439.926	0.06	879852	keystroke_e	e	n/a
440.076	0.09	880152	keystroke_d	d	n/a
440.7055	0.12	881411	keystroke_Key.enter	Key.enter	n/a
440.8345	11.7675	881669	prompt	n/a	displaying garcia broadway matthew\n
441.6505	0.076	883301	keystroke_d	d	n/a
441.8005	0.075	883601	keystroke_i	i	n/a
441.8905	0.12	883781	keystroke_s	s	n/a
442.1605	0.12	884321	keystroke_p	p	n/a
442.4305	0.09	884861	keystroke_l	l	n/a
442.5805	0.105	885161	keystroke_a	a	n/a
442.7005	0.06	885401	keystroke_y	y	n/a
443.6155	0.06	887231	keystroke_i	i	n/a
443.7055	0.075	887411	keystroke_n	n	n/a
443.8405	0.075	887681	keystroke_g	g	n/a
444.216	0.06	888432	keystroke_Key.space	Key.space	n/a
445.071	0.105	890142	keystroke_g	g	n/a
445.296	0.165	890592	keystroke_a	a	n/a
445.401	0.09	890802	keystroke_r	r	n/a
445.686	0.09	891372	keystroke_c	c	n/a
445.896	0.075	891792	keystroke_i	i	n/a
445.956	0.105	891912	keystroke_a	a	n/a
446.8855	0.09	893771	keystroke_Key.space	Key.space	n/a
447.1105	0.075	894221	keystroke_b	b	n/a
447.2005	0.09	894401	keystroke_r	r	n/a
447.6655	0.06	895331	keystroke_o	o	n/a
447.7555	0.15	895511	keystroke_a	a	n/a
447.8755	0.075	895751	keystroke_d	d	n/a
448.1005	0.09	896201	keystroke_w	w	n/a
448.2505	0.135	896501	keystroke_a	a	n/a
448.4305	0.075	896861	keystroke_y	y	n/a
450.4855	0.12	900971	keystroke_Key.space	Key.space	n/a
450.8905	0.075	901781	keystroke_m	m	n/a
451.0255	0.15	902051	keystroke_a	a	n/a
451.2205	0.045	902441	keystroke_t	t	n/a
451.3405	0.12	902681	keystroke_t	t	n/a
451.6105	0.09	903221	keystroke_h	h	n/a
451.6555	0.135	903311	keystroke_e	e	n/a
451.7455	0.12	903491	keystroke_w	w	n/a
452.51	0.09	905020	keystroke_Key.enter	Key.enter	n/a
452.6065	5.9215	905213	prompt	n/a	no banana spread ranging\n
453.335	0.106	906670	keystroke_n	n	n/a
453.425	0.106	906850	keystroke_o	o	n/a
453.621	0.089	907242	keystroke_Key.space	Key.space	n/a
453.816	0.06	907632	keystroke_b	b	n/a
453.905	0.136	907810	keystroke_a	a	n/a
454.131	0.059	908262	keystroke_n	n	n/a
454.265	0.106	908530	keystroke_a	a	n/a
454.356	0.075	908712	keystroke_n	n	n/a
454.461	0.12	908922	keystroke_a	a	n/a
455.18	0.0605	910360	keystroke_Key.space	Key.space	n/a
455.3605	0.09	910721	keystroke_s	s	n/a
455.5555	0.09	911111	keystroke_p	p	n/a
455.6905	0.15	911381	keystroke_r	r	n/a
455.7955	0.135	911591	keystroke_e	e	n/a
456.0055	0.135	912011	keystroke_a	a	n/a
456.1105	0.09	912221	keystroke_d	d	n/a
456.7255	0.075	913451	keystroke_Key.space	Key.space	n/a
457.0255	0.09	914051	keystroke_r	r	n/a
457.1905	0.105	914381	keystroke_a	a	n/a
457.3405	0.06	914681	keystroke_n	n	n/a
457.4455	0.075	914891	keystroke_g	g	n/a
457.6255	0.075	915251	keystroke_i	i	n/a
457.7155	0.105	915431	keystroke_n	n	n/a
457.7905	0.075	915581	keystroke_g	g	n/a
458.4205	0.105	916841	keystroke_Key.enter	Key.enter	n/a
458.5335	7.4945	917067	prompt	n/a	interview awards alerts walker\n
459.2605	0.06	918521	keystroke_i	i	n/a
459.3805	0.075	918761	keystroke_n	n	n/a
459.5605	0.075	919121	keystroke_t	t	n/a
459.6955	0.12	919391	keystroke_e	e	n/a
459.7855	0.105	919571	keystroke_r	r	n/a
460.5055	0.075	921011	keystroke_v	v	n/a
460.6705	0.075	921341	keystroke_i	i	n/a
460.7605	0.165	921521	keystroke_e	e	n/a
460.8805	0.105	921761	keystroke_w	w	n/a
461.1055	0.09	922211	keystroke_Key.space	Key.space	n/a
461.3005	0.12	922601	keystroke_a	a	n/a
461.4955	0.075	922991	keystroke_w	w	n/a
461.6605	0.135	923321	keystroke_a	a	n/a
461.7655	0.09	923531	keystroke_r	r	n/a
461.9305	0.09	923861	keystroke_d	d	n/a
462.1405	0.09	924281	keystroke_s	s	n/a
462.5005	0.09	925001	keystroke_Key.space	Key.space	n/a
462.8455	0.105	925691	keystroke_a	a	n/a
462.9655	0.09	925931	keystroke_l	l	n/a
463.1305	0.15	926261	keystroke_e	e	n/a
463.2655	0.075	926531	keystroke_r	r	n/a
463.4455	0.045	926891	keystroke_t	t	n/a
463.5955	0.09	927191	keystroke_s	s	n/a
463.8655	0.12	927731	keystroke_Key.space	Key.space	n/a
464.1055	0.075	928211	keystroke_w	w	n/a
464.2705	0.12	928541	keystroke_a	a	n/a
464.4055	0.075	928811	keystroke_l	l	n/a
464.6005	0.06	929201	keystroke_k	k	n/a
464.6755	0.12	929351	keystroke_e	e	n/a
464.7655	0.09	929531	keystroke_r	r	n/a
465.9205	0.105	931841	keystroke_Key.enter	Key.enter	n/a
466.0335	13.3145	932067	prompt	n/a	buzz flashers congo cabinets\n
466.7155	0.06	933431	keystroke_b	b	n/a
466.8955	0.075	933791	keystroke_u	u	n/a
467.0755	0.075	934151	keystroke_z	z	n/a
467.2555	0.06	934511	keystroke_z	z	n/a
467.9155	0.105	935831	keystroke_Key.space	Key.space	n/a
468.1865	0.089	936373	keystroke_f	f	n/a
468.5605	0.075	937121	keystroke_l	l	n/a
468.7405	0.12	937481	keystroke_a	a	n/a
468.9655	0.12	937931	keystroke_s	s	n/a
469.1005	0.075	938201	keystroke_h	h	n/a
471.2515	0.054	942503	keystroke_e	e	n/a
471.3205	0.09	942641	keystroke_r	r	n/a
471.4855	0.075	942971	keystroke_s	s	n/a
471.7105	0.09	943421	keystroke_Key.space	Key.space	n/a
472.0405	0.075	944081	keystroke_c	c	n/a
472.3705	0.12	944741	keystroke_o	o	n/a
472.5805	0.075	945161	keystroke_n	n	n/a
472.9855	0.075	945971	keystroke_o	o	n/a
474.3205	0.075	948641	keystroke_Key.backspace	Key.backspace	n/a
474.9205	0.06	949841	keystroke_g	g	n/a
475.0405	0.075	950081	keystroke_o	o	n/a
475.5805	0.12	951161	keystroke_Key.space	Key.space	n/a
475.8355	0.105	951671	keystroke_c	c	n/a
476.1505	0.105	952301	keystroke_a	a	n/a
476.3905	0.06	952781	keystroke_b	b	n/a
476.6905	0.075	953381	keystroke_i	i	n/a
476.9755	0.09	953951	keystroke_n	n	n/a
477.9055	0.06	955811	keystroke_e	e	n/a
478.2355	0.06	956471	keystroke_t	t	n/a
478.46	0.091	956920	keystroke_s	s	n/a
479.225	0.12	958450	keystroke_Key.enter	Key.enter	n/a
479.3545	10.208	958709	prompt	n/a	preventing united does bank\n
480.035	0.1055	960070	keystroke_p	p	n/a
480.1555	0.12	960311	keystroke_r	r	n/a
480.2455	0.12	960491	keystroke_e	e	n/a
480.8005	0.12	961601	keystroke_v	v	n/a
480.9805	0.105	961961	keystroke_e	e	n/a
481.1155	0.075	962231	keystroke_n	n	n/a
481.2805	0.091	962561	keystroke_t	t	n/a
481.4305	0.06	962861	keystroke_i	i	n/a
481.5205	0.075	963041	keystroke_n	n	n/a
481.6105	0.06	963221	keystroke_g	g	n/a
481.8805	0.105	963761	keystroke_Key.space	Key.space	n/a
482.2405	0.075	964481	keystroke_u	u	n/a
482.5405	0.075	965081	keystroke_n	n	n/a
482.8855	0.075	965771	keystroke_t	t	n/a
485.4085	0.042	970817	keystroke_Key.backspace	Key.backspace	n/a
485.8555	0.06	971711	keystroke_i	i	n/a
486.0205	0.075	972041	keystroke_t	t	n/a
486.1705	0.075	972341	keystroke_e	e	n/a
486.3505	0.075	972701	keystroke_d	d	n/a
486.7255	0.105	973451	keystroke_Key.space	Key.space	n/a
486.9655	0.105	973931	keystroke_d	d	n/a
487.2355	0.075	974471	keystroke_o	o	n/a
487.4605	0.075	974921	keystroke_e	e	n/a
487.6555	0.105	975311	keystroke_s	s	n/a
487.9105	0.09	975821	keystroke_Key.space	Key.space	n/a
488.1955	0.045	976391	keystroke_b	b	n/a
488.4055	0.135	976811	keystroke_a	a	n/a
488.5555	0.105	977111	keystroke_n	n	n/a
488.7355	0.075	977471	keystroke_k	k	n/a
489.4555	0.105	978911	keystroke_Key.enter	Key.enter	n/a
489.5685	6.804	979137	prompt	n/a	latvia kissing skill know\n
490.611	0.074	981222	keystroke_l	l	n/a
490.7	0.181	981400	keystroke_a	a	n/a
490.865	0.075	981730	keystroke_t	t	n/a
491.165	0.09	982330	keystroke_v	v	n/a
491.465	0.06	982930	keystroke_i	i	n/a
491.571	0.12	983142	keystroke_a	a	n/a
491.945	0.09	983890	keystroke_Key.space	Key.space	n/a
492.26	0.06	984520	keystroke_k	k	n/a
492.426	0.059	984852	keystroke_i	i	n/a
492.605	0.076	985210	keystroke_s	s	n/a
492.785	0.09	985570	keystroke_s	s	n/a
493.221	0.074	986442	keystroke_i	i	n/a
493.341	0.074	986682	keystroke_n	n	n/a
493.475	0.061	986950	keystroke_g	g	n/a
493.76	0.105	987520	keystroke_Key.space	Key.space	n/a
494.076	0.104	988152	keystroke_s	s	n/a
494.196	0.074	988392	keystroke_k	k	n/a
494.421	0.06	988842	keystroke_i	i	n/a
494.646	0.06	989292	keystroke_l	l	n/a
494.811	0.074	989622	keystroke_l	l	n/a
495.11	0.075	990220	keystroke_Key.space	Key.space	n/a
495.351	0.029	990702	keystroke_k	k	n/a
495.44	0.106	990880	keystroke_n	n	n/a
495.561	0.075	991122	keystroke_o	o	n/a
495.695	0.076	991390	keystroke_w	w	n/a
496.295	0.075	992590	keystroke_Key.enter	Key.enter	n/a
496.378	7.7045	992756	prompt	n/a	calculate robert tight hudson\n
496.985	0.076	993970	keystroke_c	c	n/a
497.091	0.119	994182	keystroke_a	a	n/a
497.27	0.076	994540	keystroke_l	l	n/a
497.376	0.09	994752	keystroke_c	c	n/a
497.526	0.06	995052	keystroke_u	u	n/a
497.765	0.076	995530	keystroke_l	l	n/a
497.856	0.12	995712	keystroke_a	a	n/a
497.96	0.105	995920	keystroke_t	t	n/a
498.051	0.089	996102	keystroke_e	e	n/a
498.71	0.105	997420	keystroke_Key.space	Key.space	n/a
498.876	0.075	997752	keystroke_r	r	n/a
498.996	0.045	997992	keystroke_o	o	n/a
499.161	0.075	998322	keystroke_b	b	n/a
499.251	0.105	998502	keystroke_e	e	n/a
499.341	0.089	998682	keystroke_r	r	n/a
499.491	0.089	998982	keystroke_t	t	n/a
499.775	0.105	999550	keystroke_Key.space	Key.space	n/a
500.1355	0.0605	1000271	keystroke_t	t	n/a
501.036	0.06	1002072	keystroke_i	i	n/a
501.171	0.09	1002342	keystroke_g	g	n/a
501.276	0.06	1002552	keystroke_h	h	n/a
501.381	0.075	1002762	keystroke_t	t	n/a
501.921	0.09	1003842	keystroke_Key.space	Key.space	n/a
502.341	0.06	1004682	keystroke_h	h	n/a
502.8955	0.0605	1005791	keystroke_u	u	n/a
503.016	0.09	1006032	keystroke_d	d	n/a
503.2105	0.1055	1006421	keystroke_s	s	n/a
503.331	0.0445	1006662	keystroke_o	o	n/a
503.406	0.09	1006812	keystroke_n	n	n/a
503.9905	0.09	1007981	keystroke_Key.enter	Key.enter	n/a
504.09	11.8125	1008180	prompt	n/a	implications earn planes runs\n
504.8005	0.045	1009601	keystroke_i	i	n/a
505.0105	0.105	1010021	keystroke_m	m	n/a
505.2205	0.135	1010441	keystroke_p	p	n/a
505.6255	0.075	1011251	keystroke_i	i	n/a
506.6455	0.105	1013291	keystroke_Key.backspace	Key.backspace	n/a
508.2655	0.075	1016531	keystroke_l	l	n/a
508.4755	0.06	1016951	keystroke_i	i	n/a
508.6855	0.105	1017371	keystroke_c	c	n/a
508.8655	0.135	1017731	keystroke_a	a	n/a
509.0455	0.075	1018091	keystroke_t	t	n/a
509.2555	0.075	1018511	keystroke_o	o	n/a
509.3905	0.075	1018781	keystroke_s	s	n/a
510.1705	0.06	1020341	keystroke_Key.backspace	Key.backspace	n/a
510.3955	0.045	1020791	keystroke_Key.backspace	Key.backspace	n/a
511.3705	0.09	1022741	keystroke_i	i	n/a
511.5055	0.12	1023011	keystroke_o	o	n/a
511.6105	0.09	1023221	keystroke_n	n	n/a
511.7015	0.089	1023403	keystroke_s	s	n/a
512.0305	0.075	1024061	keystroke_Key.space	Key.space	n/a
512.5105	0.075	1025021	keystroke_e	e	n/a
512.6605	0.15	1025321	keystroke_a	a	n/a
512.7655	0.075	1025531	keystroke_r	r	n/a
512.8855	0.075	1025771	keystroke_n	n	n/a
513.1105	0.075	1026221	keystroke_Key.space	Key.space	n/a
513.3505	0.15	1026701	keystroke_p	p	n/a
513.5755	0.09	1027151	keystroke_l	l	n/a
513.7255	0.105	1027451	keystroke_a	a	n/a
513.8455	0.075	1027691	keystroke_n	n	n/a
514.0855	0.06	1028171	keystroke_e	e	n/a
514.2805	0.075	1028561	keystroke_s	s	n/a
514.4605	0.09	1028921	keystroke_Key.space	Key.space	n/a
514.6555	0.075	1029311	keystroke_r	r	n/a
514.7905	0.06	1029581	keystroke_u	u	n/a
515.001	0.074	1030002	keystroke_n	n	n/a
515.121	0.074	1030242	keystroke_s	s	n/a
515.765	0.135	1031530	keystroke_Key.enter	Key.enter	n/a
515.9085	11.109	1031817	prompt	n/a	medicines calls collectibles totals\n
516.741	0.089	1033482	keystroke_m	m	n/a
516.845	0.061	1033690	keystroke_e	e	n/a
517.01	0.091	1034020	keystroke_d	d	n/a
517.071	0.075	1034142	keystroke_i	i	n/a
517.46	0.076	1034920	keystroke_c	c	n/a
517.746	0.075	1035492	keystroke_i	i	n/a
517.9855	0.06	1035971	keystroke_n	n	n/a
518.0905	0.09	1036181	keystroke_e	e	n/a
518.3305	0.075	1036661	keystroke_s	s	n/a
518.9305	0.105	1037861	keystroke_Key.space	Key.space	n/a
519.2005	0.075	1038401	keystroke_c	c	n/a
519.3655	0.105	1038731	keystroke_a	a	n/a
519.5755	0.075	1039151	keystroke_l	l	n/a
519.7255	0.105	1039451	keystroke_l	l	n/a
519.9205	0.105	1039841	keystroke_s	s	n/a
520.1455	0.09	1040291	keystroke_Key.space	Key.space	n/a
520.4305	0.075	1040861	keystroke_c	c	n/a
520.5505	0.075	1041101	keystroke_o	o	n/a
520.955	0.076	1041910	keystroke_l	l	n/a
521.481	0.06	1042962	keystroke_l	l	n/a
522.155	0.06	1044310	keystroke_e	e	n/a
522.3505	0.075	1044701	keystroke_c	c	n/a
522.7255	0.06	1045451	keystroke_i	i	n/a
523.311	0.03	1046622	keystroke_Key.backspace	Key.backspace	n/a
523.626	0.06	1047252	keystroke_t	t	n/a
523.836	0.075	1047672	keystroke_i	i	n/a
524.046	0.075	1048092	keystroke_b	b	n/a
524.271	0.0745	1048542	keystroke_l	l	n/a
524.3605	0.045	1048721	keystroke_e	e	n/a
524.5255	0.0755	1049051	keystroke_s	s	n/a
524.8405	0.105	1049681	keystroke_Key.space	Key.space	n/a
525.3055	0.06	1050611	keystroke_t	t	n/a
525.5455	0.06	1051091	keystroke_o	o	n/a
525.6955	0.045	1051391	keystroke_t	t	n/a
525.9805	0.09	1051961	keystroke_a	a	n/a
526.086	0.0595	1052172	keystroke_l	l	n/a
526.266	0.0595	1052532	keystroke_s	s	n/a
526.8955	0.12	1053791	keystroke_Key.enter	Key.enter	n/a
527.0235	10.224	1054047	prompt	n/a	friendship midlands documents occupations\n
527.7055	0.075	1055411	keystroke_f	f	n/a
527.8855	0.075	1055771	keystroke_r	r	n/a
528.2755	0.09	1056551	keystroke_i	i	n/a
528.3955	0.06	1056791	keystroke_e	e	n/a
528.5155	0.075	1057031	keystroke_n	n	n/a
528.6055	0.06	1057211	keystroke_d	d	n/a
528.7555	0.12	1057511	keystroke_s	s	n/a
528.8605	0.075	1057721	keystroke_h	h	n/a
528.9805	0.12	1057961	keystroke_i	i	n/a
529.1155	0.12	1058231	keystroke_p	p	n/a
529.4455	0.075	1058891	keystroke_Key.space	Key.space	n/a
530.3305	0.075	1060661	keystroke_m	m	n/a
530.5405	0.075	1061081	keystroke_i	i	n/a
530.6455	0.105	1061291	keystroke_d	d	n/a
530.9005	0.075	1061801	keystroke_l	l	n/a
531.0205	0.105	1062041	keystroke_a	a	n/a
531.1265	0.059	1062253	keystroke_n	n	n/a
531.2155	0.045	1062431	keystroke_d	d	n/a
531.3205	0.09	1062641	keystroke_s	s	n/a
532.0555	0.105	1064111	keystroke_Key.space	Key.space	n/a
532.2205	0.09	1064441	keystroke_d	d	n/a
532.3555	0.09	1064711	keystroke_o	o	n/a
532.5205	0.075	1065041	keystroke_c	c	n/a
532.6405	0.075	1065281	keystroke_u	u	n/a
532.9705	0.075	1065941	keystroke_m	m	n/a
533.0305	0.09	1066061	keystroke_e	e	n/a
533.1955	0.06	1066391	keystroke_n	n	n/a
533.2855	0.075	1066571	keystroke_t	t	n/a
533.5705	0.075	1067141	keystroke_s	s	n/a
534.2455	0.09	1068491	keystroke_Key.space	Key.space	n/a
534.5155	0.06	1069031	keystroke_o	o	n/a
534.7555	0.06	1069511	keystroke_c	c	n/a
534.9055	0.075	1069811	keystroke_c	c	n/a
535.0855	0.075	1070171	keystroke_u	u	n/a
535.3555	0.09	1070711	keystroke_p	p	n/a
535.5205	0.12	1071041	keystroke_a	a	n/a
535.7755	0.045	1071551	keystroke_t	t	n/a
535.8655	0.165	1071731	keystroke_i	i	n/a
536.0155	0.12	1072031	keystroke_o	o	n/a
536.1205	0.12	1072241	keystroke_n	n	n/a
536.3005	0.09	1072601	keystroke_s	s	n/a
537.1555	0.09	1074311	keystroke_Key.enter	Key.enter	n/a
537.2535	16.0605	1074507	prompt	n/a	tend thursday titanium satisfy\n
537.9505	0.045	1075901	keystroke_t	t	n/a
538.0855	0.075	1076171	keystroke_e	e	n/a
538.2205	0.076	1076441	keystroke_n	n	n/a
538.3105	0.075	1076621	keystroke_d	d	n/a
538.8355	0.045	1077671	keystroke_Key.space	Key.space	n/a
539.1655	0.06	1078331	keystroke_t	t	n/a
539.2405	0.06	1078481	keystroke_h	h	n/a
539.5855	0.06	1079171	keystroke_u	u	n/a
539.6905	0.045	1079381	keystroke_r	r	n/a
539.8855	0.06	1079771	keystroke_s	s	n/a
540.1705	0.031	1080341	keystroke_d	d	n/a
540.1855	0.09	1080371	keystroke_a	a	n/a
540.2905	0.045	1080581	keystroke_y	y	n/a
540.9055	0.105	1081811	keystroke_Key.space	Key.space	n/a
541.2805	0.045	1082561	keystroke_t	t	n/a
541.4905	0.075	1082981	keystroke_i	i	n/a
544.329	0.001	1088658	keystroke_a	a	n/a
544.416	0.075	1088832	keystroke_n	n	n/a
544.686	0.074	1089372	keystroke_i	i	n/a
544.926	0.06	1089852	keystroke_u	u	n/a
545.196	0.075	1090392	keystroke_m	m	n/a
548.1085	0.012	1096217	keystroke_Key.backspace	Key.backspace	n/a
548.2555	0.06	1096511	keystroke_Key.backspace	Key.backspace	n/a
548.4205	0.09	1096841	keystroke_Key.backspace	Key.backspace	n/a
548.5855	0.105	1097171	keystroke_Key.backspace	Key.backspace	n/a
548.9755	0.075	1097951	keystroke_Key.backspace	Key.backspace	n/a
549.8455	0.075	1099691	keystroke_t	t	n/a
550.0705	0.09	1100141	keystroke_a	a	n/a
550.1755	0.075	1100351	keystroke_n	n	n/a
550.4305	0.075	1100861	keystroke_i	i	n/a
550.6405	0.075	1101281	keystroke_u	u	n/a
550.8655	0.075	1101731	keystroke_m	m	n/a
551.3155	0.12	1102631	keystroke_Key.space	Key.space	n/a
551.5555	0.105	1103111	keystroke_s	s	n/a
551.7955	0.135	1103591	keystroke_a	a	n/a
552.0355	0.045	1104071	keystroke_t	t	n/a
552.1255	0.075	1104251	keystroke_i	i	n/a
552.2305	0.105	1104461	keystroke_s	s	n/a
552.3955	0.09	1104791	keystroke_f	f	n/a
552.5005	0.06	1105001	keystroke_y	y	n/a
553.2055	0.105	1106411	keystroke_Key.enter	Key.enter	n/a
553.32	7.8685	1106640	prompt	n/a	model ring parliament october\n
554.6465	0.074	1109293	keystroke_m	m	n/a
554.8105	0.075	1109621	keystroke_o	o	n/a
554.9455	0.075	1109891	keystroke_d	d	n/a
555.1405	0.06	1110281	keystroke_e	e	n/a
555.2305	0.09	1110461	keystroke_l	l	n/a
555.5005	0.105	1111001	keystroke_Key.space	Key.space	n/a
555.7855	0.105	1111571	keystroke_r	r	n/a
555.9055	0.075	1111811	keystroke_i	i	n/a
556.0555	0.075	1112111	keystroke_n	n	n/a
556.1455	0.06	1112291	keystroke_g	g	n/a
556.3705	0.105	1112741	keystroke_Key.space	Key.space	n/a
556.9255	0.12	1113851	keystroke_p	p	n/a
557.0905	0.105	1114181	keystroke_a	a	n/a
557.1505	0.105	1114301	keystroke_r	r	n/a
557.5855	0.06	1115171	keystroke_l	l	n/a
557.7655	0.06	1115531	keystroke_i	i	n/a
557.8405	0.15	1115681	keystroke_a	a	n/a
558.155	0.061	1116310	keystroke_m	m	n/a
558.275	0.091	1116550	keystroke_e	e	n/a
558.351	0.059	1116702	keystroke_n	n	n/a
558.47	0.091	1116940	keystroke_t	t	n/a
558.95	0.12	1117900	keystroke_Key.space	Key.space	n/a
559.371	0.059	1118742	keystroke_o	o	n/a
559.491	0.09	1118982	keystroke_c	c	n/a
559.76	0.076	1119520	keystroke_t	t	n/a
559.911	0.09	1119822	keystroke_o	o	n/a
560.1655	0.075	1120331	keystroke_b	b	n/a
560.3905	0.075	1120781	keystroke_e	e	n/a
560.4805	0.09	1120961	keystroke_r	r	n/a
561.0805	0.105	1122161	keystroke_Key.enter	Key.enter	n/a
561.1925	8.83	1122385	prompt	n/a	betting icons costa scheduled\n
562.01	0.06	1124020	keystroke_b	b	n/a
562.085	0.0755	1124170	keystroke_e	e	n/a
562.295	0.0455	1124590	keystroke_t	t	n/a
562.445	0.075	1124890	keystroke_t	t	n/a
562.8955	0.0745	1125791	keystroke_i	i	n/a
563.015	0.0905	1126030	keystroke_n	n	n/a
563.0755	0.0745	1126151	keystroke_g	g	n/a
563.315	0.105	1126630	keystroke_Key.space	Key.space	n/a
563.645	0.0905	1127290	keystroke_n	n	n/a
564.65	0.09	1129300	keystroke_Key.backspace	Key.backspace	n/a
565.115	0.06	1130230	keystroke_i	i	n/a
565.265	0.06	1130530	keystroke_c	c	n/a
565.415	0.045	1130830	keystroke_o	o	n/a
565.475	0.105	1130950	keystroke_n	n	n/a
566.075	0.045	1132150	keystroke_s	s	n/a
566.3605	0.0745	1132721	keystroke_Key.space	Key.space	n/a
567.0355	0.075	1134071	keystroke_c	c	n/a
567.3205	0.075	1134641	keystroke_o	o	n/a
567.4255	0.075	1134851	keystroke_s	s	n/a
567.5605	0.09	1135121	keystroke_t	t	n/a
567.7105	0.09	1135421	keystroke_a	a	n/a
567.9355	0.09	1135871	keystroke_Key.space	Key.space	n/a
568.1305	0.12	1136261	keystroke_s	s	n/a
568.2955	0.09	1136591	keystroke_c	c	n/a
568.5055	0.075	1137011	keystroke_h	h	n/a
568.5955	0.075	1137191	keystroke_e	e	n/a
568.8655	0.015	1137731	keystroke_d	d	n/a
568.8955	0.045	1137791	keystroke_u	u	n/a
569.0755	0.075	1138151	keystroke_l	l	n/a
569.1655	0.045	1138331	keystroke_e	e	n/a
569.3005	0.09	1138601	keystroke_d	d	n/a
569.9155	0.105	1139831	keystroke_Key.enter	Key.enter	n/a
570.029	6.8335	1140058	prompt	n/a	pursue crisis addresses radar\n
570.816	0.1345	1141632	keystroke_p	p	n/a
571.0105	0.09	1142021	keystroke_u	u	n/a
571.1155	0.09	1142231	keystroke_r	r	n/a
571.341	0.105	1142682	keystroke_s	s	n/a
571.461	0.06	1142922	keystroke_u	u	n/a
571.551	0.06	1143102	keystroke_e	e	n/a
572.24	0.09	1144480	keystroke_Key.space	Key.space	n/a
572.406	0.075	1144812	keystroke_c	c	n/a
572.601	0.09	1145202	keystroke_r	r	n/a
572.691	0.06	1145382	keystroke_i	i	n/a
572.9	0.091	1145800	keystroke_s	s	n/a
573.006	0.09	1146012	keystroke_i	i	n/a
573.111	0.09	1146222	keystroke_s	s	n/a
573.425	0.105	1146850	keystroke_Key.space	Key.space	n/a
573.666	0.105	1147332	keystroke_a	a	n/a
573.846	0.075	1147692	keystroke_d	d	n/a
573.981	0.105	1147962	keystroke_d	d	n/a
574.176	0.135	1148352	keystroke_r	r	n/a
574.281	0.105	1148562	keystroke_e	e	n/a
574.506	0.06	1149012	keystroke_s	s	n/a
574.686	0.045	1149372	keystroke_s	s	n/a
574.791	0.074	1149582	keystroke_e	e	n/a
574.941	0.12	1149882	keystroke_s	s	n/a
575.166	0.105	1150332	keystroke_Key.space	Key.space	n/a
575.436	0.06	1150872	keystroke_r	r	n/a
575.601	0.18	1151202	keystroke_a	a	n/a
575.766	0.105	1151532	keystroke_d	d	n/a
575.991	0.09	1151982	keystroke_a	a	n/a
576.066	0.075	1152132	keystroke_r	r	n/a
576.756	0.105	1153512	keystroke_Key.enter	Key.enter	n/a
576.868	10.66	1153736	prompt	n/a	keyboard rider shares adolescent\n
577.566	0.075	1155132	keystroke_l	l	n/a
577.686	0.075	1155372	keystroke_e	e	n/a
577.806	0.075	1155612	keystroke_y	y	n/a
578.121	0.075	1156242	keystroke_b	b	n/a
578.256	0.09	1156512	keystroke_o	o	n/a
578.466	0.135	1156932	keystroke_a	a	n/a
578.571	0.09	1157142	keystroke_r	r	n/a
578.721	0.075	1157442	keystroke_d	d	n/a
579.441	0.105	1158882	keystroke_Key.space	Key.space	n/a
579.606	0.06	1159212	keystroke_r	r	n/a
579.696	0.075	1159392	keystroke_i	i	n/a
579.801	0.075	1159602	keystroke_d	d	n/a
579.981	0.075	1159962	keystroke_e	e	n/a
580.041	0.105	1160082	keystroke_r	r	n/a
580.716	0.12	1161432	keystroke_Key.space	Key.space	n/a
580.866	0.105	1161732	keystroke_s	s	n/a
580.986	0.105	1161972	keystroke_h	h	n/a
581.076	0.105	1162152	keystroke_a	a	n/a
581.166	0.075	1162332	keystroke_r	r	n/a
581.211	0.09	1162422	keystroke_e	e	n/a
581.421	0.06	1162842	keystroke_s	s	n/a
581.436	0.015	1162872	keystroke_w	w	n/a
581.9605	0.06	1163921	keystroke_Key.backspace	Key.backspace	n/a
582.2005	0.045	1164401	keystroke_Key.backspace	Key.backspace	n/a
582.9805	0.09	1165961	keystroke_s	s	n/a
583.31	0.0905	1166620	keystroke_Key.space	Key.space	n/a
584	0.15	1168000	keystroke_a	a	n/a
584.0915	0.0885	1168183	keystroke_d	d	n/a
584.33	0.045	1168660	keystroke_o	o	n/a
584.525	0.105	1169050	keystroke_l	l	n/a
584.795	0.0605	1169590	keystroke_e	e	n/a
584.915	0.105	1169830	keystroke_s	s	n/a
585.125	0.075	1170250	keystroke_c	c	n/a
585.2605	0.0895	1170521	keystroke_e	e	n/a
585.395	0.075	1170790	keystroke_n	n	n/a
585.5005	0.0595	1171001	keystroke_t	t	n/a
587.405	0.12	1174810	keystroke_Key.enter	Key.enter	n/a
587.534	9.309	1175068	prompt	n/a	coordination favor days side\n
588.396	0.074	1176792	keystroke_c	c	n/a
588.56	0.045	1177120	keystroke_o	o	n/a
588.68	0.075	1177360	keystroke_o	o	n/a
588.77	0.075	1177540	keystroke_r	r	n/a
588.965	0.075	1177930	keystroke_d	d	n/a
589.071	0.074	1178142	keystroke_i	i	n/a
589.535	0.06	1179070	keystroke_n	n	n/a
589.685	0.15	1179370	keystroke_a	a	n/a
589.805	0.09	1179610	keystroke_t	t	n/a
589.91	0.06	1179820	keystroke_o	o	n/a
590.015	0.075	1180030	keystroke_r	r	n/a
591.14	0.09	1182280	keystroke_Key.backspace	Key.backspace	n/a
591.605	0.09	1183210	keystroke_Key.backspace	Key.backspace	n/a
592.4	0.075	1184800	keystroke_i	i	n/a
592.565	0.09	1185130	keystroke_o	o	n/a
592.67	0.09	1185340	keystroke_n	n	n/a
593.015	0.12	1186030	keystroke_Key.space	Key.space	n/a
593.3	0.091	1186600	keystroke_f	f	n/a
593.466	0.15	1186932	keystroke_a	a	n/a
593.63	0.09	1187260	keystroke_v	v	n/a
593.825	0.09	1187650	keystroke_o	o	n/a
593.885	0.09	1187770	keystroke_r	r	n/a
594.17	0.09	1188340	keystroke_Key.space	Key.space	n/a
594.411	0.134	1188822	keystroke_d	d	n/a
594.516	0.12	1189032	keystroke_a	a	n/a
594.711	0.074	1189422	keystroke_y	y	n/a
594.921	0.044	1189842	keystroke_s	s	n/a
595.07	0.105	1190140	keystroke_Key.space	Key.space	n/a
595.821	0.104	1191642	keystroke_s	s	n/a
595.955	0.06	1191910	keystroke_i	i	n/a
596.03	0.06	1192060	keystroke_d	d	n/a
596.225	0.075	1192450	keystroke_e	e	n/a
596.735	0.105	1193470	keystroke_Key.enter	Key.enter	n/a
596.848	14.5895	1193696	prompt	n/a	babe brochure suse smtp\n
597.576	0.059	1195152	keystroke_b	b	n/a
597.755	0.075	1195510	keystroke_e	e	n/a
597.935	0.06	1195870	keystroke_b	b	n/a
598.086	0.059	1196172	keystroke_e	e	n/a
599.135	0.075	1198270	keystroke_Key.backspace	Key.backspace	n/a
599.33	0.075	1198660	keystroke_Key.backspace	Key.backspace	n/a
599.855	0.075	1199710	keystroke_Key.backspace	Key.backspace	n/a
600.606	0.134	1201212	keystroke_a	a	n/a
600.785	0.076	1201570	keystroke_b	b	n/a
600.89	0.075	1201780	keystroke_e	e	n/a
601.685	0.105	1203370	keystroke_Key.space	Key.space	n/a
602.075	0.075	1204150	keystroke_b	b	n/a
602.21	0.076	1204420	keystroke_r	r	n/a
602.405	0.105	1204810	keystroke_o	o	n/a
602.781	0.105	1205562	keystroke_c	c	n/a
602.931	0.074	1205862	keystroke_h	h	n/a
603.171	0.074	1206342	keystroke_u	u	n/a
603.261	0.119	1206522	keystroke_r	r	n/a
603.35	0.091	1206700	keystroke_e	e	n/a
603.711	0.104	1207422	keystroke_Key.space	Key.space	n/a
603.905	0.09	1207810	keystroke_s	s	n/a
604.04	0.075	1208080	keystroke_u	u	n/a
604.175	0.09	1208350	keystroke_s	s	n/a
604.4	0.075	1208800	keystroke_e	e	n/a
604.64	0.075	1209280	keystroke_Key.space	Key.space	n/a
604.82	0.091	1209640	keystroke_s	s	n/a
604.925	0.1055	1209850	keystroke_m	m	n/a
605.2105	0.09	1210421	keystroke_p	p	n/a
605.9005	0.06	1211801	keystroke_Key.backspace	Key.backspace	n/a
606.1705	0.075	1212341	keystroke_t	t	n/a
606.2905	0.105	1212581	keystroke_p	p	n/a
611.3935	0.042	1222787	keystroke_Key.enter	Key.enter	n/a
611.442	10.5105	1222884	prompt	n/a	joins images impossible engagement\n
612.4705	0.09	1224941	keystroke_j	j	n/a
612.6055	0.12	1225211	keystroke_o	o	n/a
612.8005	0.075	1225601	keystroke_i	i	n/a
612.9205	0.075	1225841	keystroke_n	n	n/a
613.0405	0.105	1226081	keystroke_s	s	n/a
613.3855	0.06	1226771	keystroke_Key.space	Key.space	n/a
613.5655	0.075	1227131	keystroke_i	i	n/a
613.7905	0.076	1227581	keystroke_m	m	n/a
613.8955	0.105	1227791	keystroke_a	a	n/a
613.9705	0.105	1227941	keystroke_g	g	n/a
614.0905	0.09	1228181	keystroke_e	e	n/a
614.2405	0.12	1228481	keystroke_s	s	n/a
614.6155	0.09	1229231	keystroke_Key.space	Key.space	n/a
614.9155	0.075	1229831	keystroke_i	i	n/a
615.1555	0.105	1230311	keystroke_m	m	n/a
615.3805	0.12	1230761	keystroke_p	p	n/a
615.6955	0.105	1231391	keystroke_s	s	n/a
616.73	0.106	1233460	keystroke_Key.backspace	Key.backspace	n/a
617.346	0.06	1234692	keystroke_o	o	n/a
617.57	0.091	1235140	keystroke_s	s	n/a
617.736	0.105	1235472	keystroke_s	s	n/a
617.886	0.075	1235772	keystroke_i	i	n/a
618.111	0.075	1236222	keystroke_b	b	n/a
618.306	0.06	1236612	keystroke_l	l	n/a
618.396	0.075	1236792	keystroke_e	e	n/a
618.875	0.075	1237750	keystroke_Key.space	Key.space	n/a
619.101	0.105	1238202	keystroke_e	e	n/a
619.19	0.061	1238380	keystroke_n	n	n/a
620.001	0.09	1240002	keystroke_g	g	n/a
620.196	0.135	1240392	keystroke_a	a	n/a
620.301	0.12	1240602	keystroke_g	g	n/a
620.391	0.105	1240782	keystroke_e	e	n/a
620.721	0.09	1241442	keystroke_m	m	n/a
620.796	0.09	1241592	keystroke_e	e	n/a
620.93	0.061	1241860	keystroke_n	n	n/a
621.021	0.03	1242042	keystroke_t	t	n/a
621.846	0.104	1243692	keystroke_Key.enter	Key.enter	n/a
621.961	11.1515	1243922	prompt	n/a	ribbon assistance accessibility relevant\n
622.686	0.075	1245372	keystroke_r	r	n/a
622.821	0.06	1245642	keystroke_i	i	n/a
623.046	0.06	1246092	keystroke_b	b	n/a
623.181	0.074	1246362	keystroke_b	b	n/a
623.376	0.12	1246752	keystroke_o	o	n/a
623.481	0.09	1246962	keystroke_n	n	n/a
624.08	0.106	1248160	keystroke_Key.space	Key.space	n/a
624.291	0.105	1248582	keystroke_a	a	n/a
624.5	0.061	1249000	keystroke_s	s	n/a
624.666	0.075	1249332	keystroke_s	s	n/a
624.861	0.059	1249722	keystroke_i	i	n/a
624.966	0.09	1249932	keystroke_s	s	n/a
625.685	0.076	1251370	keystroke_t	t	n/a
625.895	0.121	1251790	keystroke_a	a	n/a
626	0.075	1252000	keystroke_n	n	n/a
626.135	0.136	1252270	keystroke_c	c	n/a
626.255	0.105	1252510	keystroke_e	e	n/a
626.99	0.075	1253980	keystroke_Key.space	Key.space	n/a
627.2605	0.12	1254521	keystroke_a	a	n/a
627.5155	0.06	1255031	keystroke_c	c	n/a
627.6505	0.09	1255301	keystroke_c	c	n/a
627.8455	0.075	1255691	keystroke_e	e	n/a
628.0555	0.075	1256111	keystroke_s	s	n/a
628.2205	0.105	1256441	keystroke_s	s	n/a
628.3705	0.09	1256741	keystroke_i	i	n/a
628.5805	0.09	1257161	keystroke_b	b	n/a
628.7155	0.09	1257431	keystroke_i	i	n/a
628.9255	0.135	1257851	keystroke_l	l	n/a
629.0305	0.105	1258061	keystroke_i	i	n/a
629.1955	0.06	1258391	keystroke_t	t	n/a
629.2705	0.075	1258541	keystroke_y	y	n/a
629.6905	0.105	1259381	keystroke_Key.space	Key.space	n/a
629.9755	0.075	1259951	keystroke_e	e	n/a
630.9655	0.12	1261931	keystroke_Key.backspace	Key.backspace	n/a
631.2655	0.135	1262531	keystroke_r	r	n/a
631.3555	0.09	1262711	keystroke_e	e	n/a
631.5955	0.09	1263191	keystroke_l	l	n/a
631.7005	0.06	1263401	keystroke_e	e	n/a
631.8805	0.12	1263761	keystroke_v	v	n/a
632.0605	0.105	1264121	keystroke_a	a	n/a
632.1805	0.105	1264361	keystroke_n	n	n/a
632.3005	0.06	1264601	keystroke_t	t	n/a
632.9905	0.12	1265981	keystroke_Key.enter	Key.enter	n/a
633.117	8.1855	1266234	prompt	n/a	mesh serving attending gain\n
634.0555	0.075	1268111	keystroke_m	m	n/a
634.1755	0.06	1268351	keystroke_e	e	n/a
634.3405	0.09	1268681	keystroke_s	s	n/a
634.4455	0.075	1268891	keystroke_h	h	n/a
635.1055	0.105	1270211	keystroke_Key.space	Key.space	n/a
635.3905	0.12	1270781	keystroke_s	s	n/a
635.4955	0.105	1270991	keystroke_e	e	n/a
635.6015	0.104	1271203	keystroke_r	r	n/a
635.8855	0.09	1271771	keystroke_v	v	n/a
636.3355	0.075	1272671	keystroke_i	i	n/a
636.4555	0.075	1272911	keystroke_n	n	n/a
636.5905	0.06	1273181	keystroke_g	g	n/a
636.8455	0.09	1273691	keystroke_Key.space	Key.space	n/a
637.3555	0.105	1274711	keystroke_a	a	n/a
637.7605	0.03	1275521	keystroke_t	t	n/a
638.0915	0.074	1276183	keystroke_t	t	n/a
638.585	0.075	1277170	keystroke_e	e	n/a
638.9305	0.0745	1277861	keystroke_n	n	n/a
639.1105	0.075	1278221	keystroke_d	d	n/a
639.2455	0.075	1278491	keystroke_i	i	n/a
639.3655	0.075	1278731	keystroke_n	n	n/a
639.4255	0.075	1278851	keystroke_g	g	n/a
639.725	0.1205	1279450	keystroke_Key.space	Key.space	n/a
640.01	0.09	1280020	keystroke_g	g	n/a
640.145	0.105	1280290	keystroke_a	a	n/a
640.31	0.06	1280620	keystroke_i	i	n/a
640.4	0.09	1280800	keystroke_n	n	n/a
641.21	0.09	1282420	keystroke_Key.enter	Key.enter	n/a
641.308	6.5945	1282616	prompt	n/a	action price formed follow\n
641.975	0.105	1283950	keystroke_a	a	n/a
642.26	0.09	1284520	keystroke_c	c	n/a
642.53	0.075	1285060	keystroke_t	t	n/a
642.665	0.135	1285330	keystroke_i	i	n/a
642.786	0.12	1285572	keystroke_o	o	n/a
642.861	0.119	1285722	keystroke_n	n	n/a
643.475	0.105	1286950	keystroke_Key.space	Key.space	n/a
643.73	0.106	1287460	keystroke_p	p	n/a
643.88	0.075	1287760	keystroke_r	r	n/a
644.03	0.06	1288060	keystroke_i	i	n/a
644.12	0.18	1288240	keystroke_c	c	n/a
644.286	0.075	1288572	keystroke_e	e	n/a
644.69	0.105	1289380	keystroke_Key.space	Key.space	n/a
645.095	0.075	1290190	keystroke_f	f	n/a
645.29	0.075	1290580	keystroke_o	o	n/a
645.38	0.075	1290760	keystroke_r	r	n/a
645.575	0.09	1291150	keystroke_m	m	n/a
645.71	0.06	1291420	keystroke_e	e	n/a
645.89	0.06	1291780	keystroke_d	d	n/a
646.1	0.105	1292200	keystroke_Key.space	Key.space	n/a
646.37	0.09	1292740	keystroke_f	f	n/a
646.475	0.09	1292950	keystroke_o	o	n/a
646.745	0.06	1293490	keystroke_l	l	n/a
646.895	0.075	1293790	keystroke_l	l	n/a
647.106	0.059	1294212	keystroke_o	o	n/a
647.21	0.09	1294420	keystroke_w	w	n/a
647.81	0.09	1295620	keystroke_Key.enter	Key.enter	n/a
647.9085	7.434	1295817	prompt	n/a	perfectly candy harry starts\n
648.665	0.105	1297330	keystroke_p	p	n/a
648.756	0.104	1297512	keystroke_e	e	n/a
648.845	0.121	1297690	keystroke_r	r	n/a
649.175	0.09	1298350	keystroke_f	f	n/a
649.31	0.105	1298620	keystroke_e	e	n/a
649.49	0.105	1298980	keystroke_c	c	n/a
649.7	0.075	1299400	keystroke_t	t	n/a
650.285	0.121	1300570	keystroke_l	l	n/a
650.451	0.074	1300902	keystroke_y	y	n/a
650.72	0.09	1301440	keystroke_Key.space	Key.space	n/a
651.231	0.134	1302462	keystroke_c	c	n/a
651.335	0.105	1302670	keystroke_a	a	n/a
651.486	0.074	1302972	keystroke_n	n	n/a
651.6205	0.1045	1303241	keystroke_d	d	n/a
651.755	0.06	1303510	keystroke_y	y	n/a
652.295	0.09	1304590	keystroke_Key.space	Key.space	n/a
652.596	0.044	1305192	keystroke_h	h	n/a
652.7	0.165	1305400	keystroke_a	a	n/a
652.82	0.075	1305640	keystroke_r	r	n/a
652.986	0.104	1305972	keystroke_r	r	n/a
653.181	0.044	1306362	keystroke_y	y	n/a
653.435	0.09	1306870	keystroke_Key.space	Key.space	n/a
653.63	0.105	1307260	keystroke_s	s	n/a
653.78	0.075	1307560	keystroke_t	t	n/a
653.961	0.165	1307922	keystroke_a	a	n/a
654.081	0.075	1308162	keystroke_r	r	n/a
654.246	0.089	1308492	keystroke_t	t	n/a
654.77	0.075	1309540	keystroke_s	s	n/a
655.25	0.09	1310500	keystroke_Key.enter	Key.enter	n/a
655.346	6.432	1310692	prompt	n/a	places tasks keno choir\n
656	0.105	1312000	keystroke_p	p	n/a
656.2555	0.09	1312511	keystroke_l	l	n/a
656.42	0.181	1312840	keystroke_a	a	n/a
656.556	0.1495	1313112	keystroke_c	c	n/a
656.6905	0.0755	1313381	keystroke_e	e	n/a
656.841	0.1045	1313682	keystroke_s	s	n/a
657.3505	0.09	1314701	keystroke_Key.space	Key.space	n/a
657.5905	0.091	1315181	keystroke_t	t	n/a
657.8605	0.18	1315721	keystroke_a	a	n/a
658.145	0.121	1316290	keystroke_s	s	n/a
658.475	0.046	1316950	keystroke_k	k	n/a
658.64	0.075	1317280	keystroke_s	s	n/a
658.97	0.105	1317940	keystroke_Key.space	Key.space	n/a
659.286	0.075	1318572	keystroke_k	k	n/a
659.541	0.059	1319082	keystroke_e	e	n/a
659.66	0.091	1319320	keystroke_n	n	n/a
659.796	0.089	1319592	keystroke_o	o	n/a
660.035	0.105	1320070	keystroke_Key.space	Key.space	n/a
660.2	0.09	1320400	keystroke_c	c	n/a
660.32	0.075	1320640	keystroke_h	h	n/a
660.5	0.075	1321000	keystroke_o	o	n/a
660.666	0.059	1321332	keystroke_i	i	n/a
660.756	0.075	1321512	keystroke_r	r	n/a
661.67	0.105	1323340	keystroke_Key.enter	Key.enter	n/a
661.783	11.3345	1323566	prompt	n/a	friday reproduction million cindy\n
662.4055	0.045	1324811	keystroke_f	f	n/a
662.5705	0.075	1325141	keystroke_r	r	n/a
662.6905	0.0905	1325381	keystroke_i	i	n/a
662.795	0.121	1325590	keystroke_d	d	n/a
662.9	0.106	1325800	keystroke_a	a	n/a
662.99	0.075	1325980	keystroke_y	y	n/a
663.26	0.105	1326520	keystroke_Key.space	Key.space	n/a
663.636	0.1495	1327272	keystroke_r	r	n/a
663.7555	0.09	1327511	keystroke_e	e	n/a
