onset	duration	sample	value	key	prompt_text
5.782	42.0985	11564	prompt	n/a	the quick brown fox jumps over a lazy dog\n
8.864	0.041	17728	keystroke	t	n/a
8.9495	0.1055	17899	keystroke	h	n/a
9.19	0.135	18380	keystroke	e	n/a
9.415	0.045	18830	keystroke	Key.space	n/a
9.88	0.09	19760	keystroke	y	n/a
12.402	0.043	24804	keystroke	Key.backspace	n/a
13.2705	0.165	26541	keystroke	q	n/a
13.5105	0.12	27021	keystroke	u	n/a
13.7355	0.104	27471	keystroke	i	n/a
13.975	0.1805	27950	keystroke	c	n/a
15.596	0.12	31192	keystroke	k	n/a
15.866	0.135	31732	keystroke	Key.space	n/a
16.1505	0.09	32301	keystroke	b	n/a
16.4505	0.15	32901	keystroke	r	n/a
16.646	0.1345	33292	keystroke	i	n/a
16.915	0.15	33830	keystroke	w	n/a
18.611	0.1345	37222	keystroke	Key.backspace	n/a
18.881	0.1495	37762	keystroke	Key.backspace	n/a
21.389	0.1025	42778	keystroke	o	n/a
21.581	0.18	43162	keystroke	w	n/a
22.511	0.135	45022	keystroke	n	n/a
22.781	0.1655	45562	keystroke	Key.space	n/a
23.051	0.165	46102	keystroke	f	n/a
23.306	0.135	46612	keystroke	i	n/a
23.591	0.1505	47182	keystroke	x	n/a
23.8315	0.1045	47663	keystroke	Key.space	n/a
26.638	0.058	53276	keystroke	Key.backspace	n/a
26.861	0.165	53722	keystroke	Key.backspace	n/a
27.536	0.12	55072	keystroke	Key.backspace	n/a
28.1365	0.15	56273	keystroke	o	n/a
28.4965	0.15	56993	keystroke	x	n/a
28.766	0.1655	57532	keystroke	Key.space	n/a
29.5465	0.075	59093	keystroke	j	n/a
29.7415	0.075	59483	keystroke	u	n/a
30.2665	0.1795	60533	keystroke	p	n/a
30.7455	0.226	61491	keystroke	s	n/a
31.9755	0.106	63951	keystroke	Key.backspace	n/a
32.876	0.0895	65752	keystroke	Key.backspace	n/a
34.376	0.0905	68752	keystroke	m	n/a
35.396	0.1505	70792	keystroke	p	n/a
35.652	0.1645	71304	keystroke	s	n/a
35.8605	0.166	71721	keystroke	Key.space	n/a
36.1165	0.15	72233	keystroke	i	n/a
36.416	0.181	72832	keystroke	v	n/a
37.4965	0.075	74993	keystroke	Key.backspace	n/a
37.6765	0.0895	75353	keystroke	Key.backspace	n/a
38.006	0.1205	76012	keystroke	o	n/a
38.276	0.165	76552	keystroke	v	n/a
38.6365	0.21	77273	keystroke	e	n/a
38.9815	0.165	77963	keystroke	r	n/a
39.2365	0.15	78473	keystroke	Key.space	n/a
39.4615	0.195	78923	keystroke	a	n/a
39.6415	0.135	79283	keystroke	Key.space	n/a
40.7815	0.1495	81563	keystroke	l	n/a
40.991	0.165	81982	keystroke	a	n/a
41.771	0.18	83542	keystroke	z	n/a
42.1165	0.1345	84233	keystroke	y	n/a
42.4465	0.149	84893	keystroke	Key.space	n/a
42.9865	0.165	85973	keystroke	d	n/a
43.1815	0.15	86363	keystroke	i	n/a
43.4515	0.09	86903	keystroke	g	n/a
44.7565	0.0305	89513	keystroke	Key.backspace	n/a
45.236	0.0755	90472	keystroke	Key.backspace	n/a
45.942	0.1345	91884	keystroke	o	n/a
46.1965	0.1055	92393	keystroke	g	n/a
47.756	0.121	95512	keystroke	Key.enter	n/a
47.8875	29.333	95775	prompt	n/a	fool calls jewelry playstation\n
48.926	0.1205	97852	keystroke	f	n/a
49.287	0.09	98574	keystroke	o	n/a
49.5115	0.091	99023	keystroke	o	n/a
49.902	0.0895	99804	keystroke	l	n/a
50.2465	0.165	100493	keystroke	Key.space	n/a
50.607	0.1645	101214	keystroke	c	n/a
50.9215	0.166	101843	keystroke	a	n/a
51.1775	0.089	102355	keystroke	k	n/a
51.4165	0.1355	102833	keystroke	k	n/a
52.4815	0.075	104963	keystroke	Key.backspace	n/a
52.677	0.0895	105354	keystroke	Key.backspace	n/a
54.477	0.1795	108954	keystroke	l	n/a
54.8065	0.165	109613	keystroke	l	n/a
55.0925	0.1645	110185	keystroke	s	n/a
55.512	0.165	111024	keystroke	Key.space	n/a
56.2465	0.135	112493	keystroke	j	n/a
56.5615	0.15	113123	keystroke	e	n/a
56.8915	0.1205	113783	keystroke	w	n/a
57.3275	0.134	114655	keystroke	e	n/a
57.687	0.1495	115374	keystroke	k	n/a
58.182	0.09	116364	keystroke	r	n/a
58.482	0.12	116964	keystroke	y	n/a
59.5015	0.105	119003	keystroke	Key.backspace	n/a
59.7715	0.12	119543	keystroke	Key.backspace	n/a
60.1615	0.136	120323	keystroke	Key.backspace	n/a
61.0325	0.15	122065	keystroke	l	n/a
61.4515	0.1055	122903	keystroke	r	n/a
61.782	0.1055	123564	keystroke	y	n/a
62.712	0.18	125424	keystroke	Key.space	n/a
65.0695	0.103	130139	keystroke	p	n/a
65.8165	0.166	131633	keystroke	k	n/a
67.047	0.12	134094	keystroke	Key.backspace	n/a
67.497	0.1355	134994	keystroke	l	n/a
67.8275	0.1345	135655	keystroke	a	n/a
68.1275	0.12	136255	keystroke	y	n/a
68.4725	0.18	136945	keystroke	s	n/a
69.2825	0.1195	138565	keystroke	t	n/a
69.717	0.2095	139434	keystroke	a	n/a
70.137	0.135	140274	keystroke	t	n/a
71.202	0.1505	142404	keystroke	u	n/a
71.4715	0.1505	142943	keystroke	i	n/a
71.787	0.15	143574	keystroke	n	n/a
72.972	0.135	145944	keystroke	Key.backspace	n/a
73.272	0.09	146544	keystroke	Key.backspace	n/a
73.587	0.105	147174	keystroke	Key.backspace	n/a
74.697	0.105	149394	keystroke	i	n/a
74.9225	0.12	149845	keystroke	o	n/a
75.1775	0.134	150355	keystroke	n	n/a
77.1125	0.104	154225	keystroke	Key.enter	n/a
77.225	19.4345	154450	prompt	n/a	shops aspect honor suppose\n
78.552	0.1055	157104	keystroke	s	n/a
78.867	0.135	157734	keystroke	h	n/a
80.4275	0.165	160855	keystroke	o	n/a
80.8175	0.164	161635	keystroke	p	n/a
81.357	0.18	162714	keystroke	s	n/a
81.897	0.2255	163794	keystroke	Key.space	n/a
82.2575	0.21	164515	keystroke	a	n/a
82.8125	0.149	165625	keystroke	s	n/a
84.3565	0.0905	168713	keystroke	p	n/a
84.8515	0.1055	169703	keystroke	e	n/a
85.437	0.21	170874	keystroke	c	n/a
85.9765	0.15	171953	keystroke	t	n/a
86.382	0.195	172764	keystroke	Key.space	n/a
86.892	0.135	173784	keystroke	h	n/a
87.177	0.135	174354	keystroke	i	n/a
88.212	0.105	176424	keystroke	=	n/a
89.637	0.105	179274	keystroke	Key.backspace	n/a
89.862	0.12	179724	keystroke	Key.backspace	n/a
90.7175	0.134	181435	keystroke	o	n/a
91.0315	0.136	182063	keystroke	n	n/a
91.2875	0.179	182575	keystroke	o	n/a
91.6325	0.1195	183265	keystroke	r	n/a
91.9165	0.1505	183833	keystroke	Key.space	n/a
92.1875	0.1345	184375	keystroke	s	n/a
92.5615	0.165	185123	keystroke	u	n/a
93.822	0.15	187644	keystroke	p	n/a
94.197	0.165	188394	keystroke	p	n/a
94.557	0.1955	189114	keystroke	o	n/a
94.8875	0.149	189775	keystroke	s	n/a
95.172	0.1205	190344	keystroke	e	n/a
96.522	0.135	193044	keystroke	Key.enter	n/a
96.6645	27.025	193329	prompt	n/a	occurring advocacy visibility convenience\n
98.9995	0.133	197999	keystroke	i	n/a
100.2575	0.09	200515	keystroke	Key.backspace	n/a
100.6325	0.1195	201265	keystroke	o	n/a
101.262	0.21	202524	keystroke	c	n/a
101.7125	0.1645	203425	keystroke	c	n/a
102.4315	0.1505	204863	keystroke	u	n/a
102.942	0.1805	205884	keystroke	r	n/a
103.2865	0.1505	206573	keystroke	r	n/a
103.9775	0.149	207955	keystroke	i	n/a
104.8165	0.1655	209633	keystroke	n	n/a
105.1165	0.1355	210233	keystroke	g	n/a
105.5065	0.1955	211013	keystroke	Key.space	n/a
105.837	0.1805	211674	keystroke	a	n/a
106.272	0.1805	212544	keystroke	d	n/a
106.962	0.0755	213924	keystroke	v	n/a
107.442	0.18	214884	keystroke	i	n/a
108.537	0.09	217074	keystroke	Key.backspace	n/a
108.927	0.15	217854	keystroke	o	n/a
109.2125	0.1645	218425	keystroke	c	n/a
109.5575	0.149	219115	keystroke	a	n/a
109.872	0.1945	219744	keystroke	c	n/a
110.2465	0.165	220493	keystroke	y	n/a
110.757	0.18	221514	keystroke	Key.space	n/a
111.3265	0.0905	222653	keystroke	v	n/a
111.6265	0.151	223253	keystroke	i	n/a
111.9425	0.1495	223885	keystroke	s	n/a
112.2115	0.1505	224423	keystroke	i	n/a
112.977	0.2095	225954	keystroke	b	n/a
113.3965	0.181	226793	keystroke	i	n/a
114.8225	0.164	229645	keystroke	l	n/a
115.1365	0.165	230273	keystroke	i	n/a
115.497	0.135	230994	keystroke	t	n/a
115.737	0.1345	231474	keystroke	y	n/a
116.0815	0.18	232163	keystroke	Key.space	n/a
116.412	0.18	232824	keystroke	c	n/a
116.787	0.195	233574	keystroke	i	n/a
117.132	0.18	234264	keystroke	n	n/a
117.912	0.0745	235824	keystroke	Key.backspace	n/a
118.1065	0.105	236213	keystroke	Key.backspace	n/a
118.8575	0.1645	237715	keystroke	o	n/a
119.202	0.165	238404	keystroke	n	n/a
119.502	0.1655	239004	keystroke	v	n/a
119.832	0.15	239664	keystroke	e	n/a
120.222	0.18	240444	keystroke	n	n/a
120.972	0.135	241944	keystroke	i	n/a
121.227	0.18	242454	keystroke	e	n/a
121.437	0.165	242874	keystroke	n	n/a
121.7215	0.1655	243443	keystroke	c	n/a
122.622	0.165	245244	keystroke	e	n/a
123.5815	0.105	247163	keystroke	Key.enter	n/a
123.695	19.689	247390	prompt	n/a	brothers schedule clicks controlled\n
125.4725	0.134	250945	keystroke	b	n/a
125.9375	0.119	251875	keystroke	r	n/a
126.327	0.225	252654	keystroke	i	n/a
127.437	0.12	254874	keystroke	Key.backspace	n/a
127.9165	0.1655	255833	keystroke	o	n/a
128.2765	0.1205	256553	keystroke	t	n/a
128.547	0.12	257094	keystroke	h	n/a
128.8015	0.2105	257603	keystroke	e	n/a
129.117	0.1045	258234	keystroke	r	n/a
129.462	0.1645	258924	keystroke	s	n/a
129.852	0.2095	259704	keystroke	Key.space	n/a
130.107	0.15	260214	keystroke	s	n/a
130.4065	0.1655	260813	keystroke	c	n/a
130.977	0.135	261954	keystroke	h	n/a
131.247	0.1205	262494	keystroke	e	n/a
131.517	0.165	263034	keystroke	d	n/a
131.817	0.12	263634	keystroke	u	n/a
132.2225	0.1645	264445	keystroke	l	n/a
132.5515	0.1655	265103	keystroke	e	n/a
132.882	0.1345	265764	keystroke	Key.space	n/a
133.1515	0.18	266303	keystroke	c	n/a
133.4375	0.1945	266875	keystroke	k	n/a
134.427	0.12	268854	keystroke	Key.backspace	n/a
135.2665	0.21	270533	keystroke	l	n/a
135.7165	0.1505	271433	keystroke	i	n/a
136.4365	0.15	272873	keystroke	c	n/a
136.7075	0.1495	273415	keystroke	k	n/a
137.0075	0.165	274015	keystroke	s	n/a
137.516	0.196	275032	keystroke	Key.space	n/a
137.907	0.195	275814	keystroke	c	n/a
138.8815	0.1505	277763	keystroke	o	n/a
139.212	0.15	278424	keystroke	n	n/a
139.6315	0.1055	279263	keystroke	t	n/a
140.022	0.09	280044	keystroke	r	n/a
141.117	0.1655	282234	keystroke	o	n/a
141.582	0.105	283164	keystroke	l	n/a
141.837	0.12	283674	keystroke	l	n/a
142.107	0.09	284214	keystroke	e	n/a
142.4215	0.1205	284843	keystroke	d	n/a
143.2315	0.15	286463	keystroke	Key.enter	n/a
143.389	19.1055	286778	prompt	n/a	phrase exciting amazing nowhere\n
144.627	0.18	289254	keystroke	p	n/a
145.002	0.1205	290004	keystroke	h	n/a
145.3615	0.1205	290723	keystroke	r	n/a
145.7075	0.2095	291415	keystroke	a	n/a
146.0365	0.1345	292073	keystroke	s	n/a
146.3365	0.1795	292673	keystroke	e	n/a
146.757	0.21	293514	keystroke	Key.space	n/a
147.072	0.1355	294144	keystroke	e	n/a
147.551	0.1205	295102	keystroke	c	n/a
147.897	0.195	295794	keystroke	x	n/a
148.197	0.12	296394	keystroke	i	n/a
148.5715	0.15	297143	keystroke	t	n/a
149.712	0.15	299424	keystroke	Key.backspace	n/a
150.056	0.135	300112	keystroke	Key.backspace	n/a
150.357	0.165	300714	keystroke	Key.backspace	n/a
150.7765	0.135	301553	keystroke	Key.backspace	n/a
151.452	0.135	302904	keystroke	x	n/a
151.8425	0.1795	303685	keystroke	c	n/a
152.0965	0.12	304193	keystroke	i	n/a
152.426	0.136	304852	keystroke	t	n/a
152.6815	0.12	305363	keystroke	i	n/a
152.952	0.1645	305904	keystroke	n	n/a
153.222	0.135	306444	keystroke	g	n/a
153.4465	0.1955	306893	keystroke	Key.space	n/a
154.0765	0.21	308153	keystroke	a	n/a
154.6765	0.0455	309353	keystroke	a	n/a
155.277	0.1195	310554	keystroke	Key.backspace	n/a
155.652	0.1345	311304	keystroke	m	n/a
155.892	0.1945	311784	keystroke	a	n/a
157.317	0.104	314634	keystroke	z	n/a
157.752	0.12	315504	keystroke	i	n/a
158.021	0.15	316042	keystroke	n	n/a
158.246	0.15	316492	keystroke	g	n/a
158.5775	0.1935	317155	keystroke	Key.space	n/a
158.907	0.1495	317814	keystroke	n	n/a
159.9865	0.165	319973	keystroke	o	n/a
160.286	0.166	320572	keystroke	w	n/a
160.587	0.135	321174	keystroke	h	n/a
160.8115	0.1805	321623	keystroke	e	n/a
161.1115	0.15	322223	keystroke	r	n/a
161.412	0.1505	322824	keystroke	e	n/a
162.372	0.119	324744	keystroke	Key.enter	n/a
162.5025	53.9625	325005	prompt	n/a	viewpicture arguments beginning has\n
164.4865	0.1355	328973	keystroke	v	n/a
164.8615	0.165	329723	keystroke	i	n/a
165.956	0.135	331912	keystroke	Key.backspace	n/a
166.3165	0.1655	332633	keystroke	Key.backspace	n/a
177.1785	0.103	354357	keystroke	v	n/a
181.4845	0.0125	362969	keystroke	Key.backspace	n/a
181.6765	0.105	363353	keystroke	Key.backspace	n/a
181.962	0.12	363924	keystroke	Key.backspace	n/a
187.064	0.043	374128	keystroke	Key.backspace	n/a
187.9175	0.1495	375835	keystroke	v	n/a
188.1725	0.12	376345	keystroke	i	n/a
188.442	0.136	376884	keystroke	e	n/a
188.697	0.15	377394	keystroke	w	n/a
189.357	0.2105	378714	keystroke	p	n/a
189.7625	0.1645	379525	keystroke	i	n/a
190.0475	0.2095	380095	keystroke	c	n/a
190.4975	0.1195	380995	keystroke	t	n/a
190.7075	0.135	381415	keystroke	u	n/a
190.947	0.1205	381894	keystroke	r	n/a
191.202	0.1955	382404	keystroke	e	n/a
191.637	0.2245	383274	keystroke	Key.space	n/a
192.0715	0.151	384143	keystroke	a	n/a
192.702	0.1655	385404	keystroke	r	n/a
193.242	0.1505	386484	keystroke	g	n/a
193.6025	0.18	387205	keystroke	u	n/a
194.6965	0.3455	389393	keystroke	Key.left	n/a
196.7825	0.12	393565	keystroke	Key.backspace	n/a
197.0215	0.105	394043	keystroke	Key.backspace	n/a
201.8845	0.1595	403769	keystroke	Key.backspace	n/a
202.21	0.1145	404420	keystroke	Key.backspace	n/a
203.2635	0.194	406527	keystroke	a	n/a
203.6225	0.105	407245	keystroke	r	n/a
203.937	0.1355	407874	keystroke	g	n/a
204.2375	0.12	408475	keystroke	u	n/a
205.5265	0.151	411053	keystroke	m	n/a
205.8275	0.18	411655	keystroke	e	n/a
206.0675	0.1345	412135	keystroke	n	n/a
206.292	0.1055	412584	keystroke	t	n/a
206.622	0.181	413244	keystroke	s	n/a
206.9975	0.165	413995	keystroke	Key.space	n/a
207.3875	0.135	414775	keystroke	g	n/a
208.512	0.135	417024	keystroke	Key.backspace	n/a
211.6045	0.103	423209	keystroke	b	n/a
211.8875	0.195	423775	keystroke	e	n/a
212.218	0.1345	424436	keystroke	g	n/a
212.5325	0.1345	425065	keystroke	i	n/a
212.817	0.135	425634	keystroke	n	n/a
213.0425	0.165	426085	keystroke	n	n/a
213.357	0.1355	426714	keystroke	i	n/a
213.6125	0.165	427225	keystroke	n	n/a
213.8675	0.1795	427735	keystroke	g	n/a
214.1675	0.165	428335	keystroke	Key.space	n/a
214.4825	0.134	428965	keystroke	h	n/a
214.7225	0.224	429445	keystroke	a	n/a
215.1425	0.15	430285	keystroke	s	n/a
216.327	0.1205	432654	keystroke	Key.enter	n/a
216.477	28.442	432954	prompt	n/a	cliff gear strengths role\n
217.7675	0.165	435535	keystroke	c	n/a
218.157	0.15	436314	keystroke	k	n/a
218.4875	0.1345	436975	keystroke	i	n/a
218.7875	0.15	437575	keystroke	f	n/a
219.0575	0.18	438115	keystroke	f	n/a
219.327	0.1655	438654	keystroke	Key.space	n/a
220.467	0.15	440934	keystroke	Key.backspace	n/a
220.8275	0.165	441655	keystroke	Key.backspace	n/a
221.1875	0.1345	442375	keystroke	Key.backspace	n/a
221.5475	0.1195	443095	keystroke	Key.backspace	n/a
222.0725	0.105	444145	keystroke	Key.backspace	n/a
222.942	0.1205	445884	keystroke	l	n/a
223.347	0.105	446694	keystroke	i	n/a
223.602	0.135	447204	keystroke	f	n/a
223.8725	0.1645	447745	keystroke	f	n/a
224.2315	0.18	448463	keystroke	Key.space	n/a
224.532	0.1805	449064	keystroke	g	n/a
224.877	0.165	449754	keystroke	e	n/a
225.193	0.224	450386	keystroke	a	n/a
225.627	0.121	451254	keystroke	r	n/a
225.8975	0.18	451795	keystroke	Key.space	n/a
226.1975	0.2095	452395	keystroke	s	n/a
226.677	0.1655	453354	keystroke	t	n/a
227.383	0.165	454766	keystroke	r	n/a
227.6825	0.1945	455365	keystroke	e	n/a
228.822	0.165	457644	keystroke	n	n/a
229.227	0.166	458454	keystroke	g	n/a
229.6175	0.134	459235	keystroke	t	n/a
229.8575	0.135	459715	keystroke	h	n/a
235.9495	0.073	471899	keystroke	s	n/a
236.667	0.1945	473334	keystroke	Key.space	n/a
237.4165	0.121	474833	keystroke	r	n/a
237.8075	0.1345	475615	keystroke	i	n/a
240.4725	0.1335	480945	keystroke	Key.backspace	n/a
241.7395	0.073	483479	keystroke	o	n/a
242.9675	0.135	485935	keystroke	l	n/a
243.2075	0.1345	486415	keystroke	e	n/a
244.7825	0.134	489565	keystroke	Key.enter	n/a
244.923	18.101	489846	prompt	n/a	lightbox offensive runtime purchase\n
246.387	0.1655	492774	keystroke	l	n/a
246.7625	0.135	493525	keystroke	i	n/a
247.107	0.18	494214	keystroke	g	n/a
247.3925	0.134	494785	keystroke	h	n/a
247.6775	0.165	495355	keystroke	t	n/a
248.1125	0.165	496225	keystroke	b	n/a
248.4565	0.2255	496913	keystroke	i	n/a
249.6115	0.121	499223	keystroke	Key.backspace	n/a
250.0775	0.1345	500155	keystroke	o	n/a
250.392	0.1505	500784	keystroke	x	n/a
250.723	0.1945	501446	keystroke	Key.space	n/a
251.5025	0.18	503005	keystroke	o	n/a
251.802	0.1345	503604	keystroke	f	n/a
252.072	0.2095	504144	keystroke	f	n/a
252.462	0.1795	504924	keystroke	e	n/a
252.777	0.18	505554	keystroke	n	n/a
254.1115	0.196	508223	keystroke	s	n/a
254.532	0.1805	509064	keystroke	i	n/a
254.8475	0.179	509695	keystroke	v	n/a
255.2065	0.15	510413	keystroke	e	n/a
255.732	0.18	511464	keystroke	Key.space	n/a
256.332	0.1055	512664	keystroke	r	n/a
256.6175	0.0595	513235	keystroke	u	n/a
256.857	0.1355	513714	keystroke	n	n/a
257.1875	0.1195	514375	keystroke	t	n/a
257.4575	0.1195	514915	keystroke	i	n/a
257.787	0.15	515574	keystroke	m	n/a
258.087	0.1505	516174	keystroke	e	n/a
258.8375	0.195	517675	keystroke	Key.space	n/a
259.737	0.1505	519474	keystroke	p	n/a
260.142	0.105	520284	keystroke	u	n/a
260.397	0.0605	520794	keystroke	r	n/a
260.712	0.165	521424	keystroke	c	n/a
260.922	0.105	521844	keystroke	h	n/a
261.207	0.1955	522414	keystroke	a	n/a
261.4925	0.1195	522985	keystroke	s	n/a
261.7925	0.15	523585	keystroke	e	n/a
262.917	0.1045	525834	keystroke	Key.enter	n/a
263.0295	22.449	526059	prompt	n/a	lodge garlic directive liechtenstein\n
265.4235	0.074	530847	keystroke	l	n/a
265.6925	0.18	531385	keystroke	o	n/a
266.2025	0.1945	532405	keystroke	d	n/a
266.5925	0.134	533185	keystroke	g	n/a
266.8915	0.166	533783	keystroke	e	n/a
267.2675	0.195	534535	keystroke	Key.space	n/a
267.5975	0.1495	535195	keystroke	g	n/a
268.422	0.2255	536844	keystroke	a	n/a
268.8275	0.1345	537655	keystroke	r	n/a
269.6375	0.15	539275	keystroke	l	n/a
269.9525	0.149	539905	keystroke	i	n/a
270.1925	0.195	540385	keystroke	c	n/a
270.6415	0.151	541283	keystroke	Key.space	n/a
271.0025	0.195	542005	keystroke	d	n/a
271.2575	0.1495	542515	keystroke	u	n/a
271.5725	0.1495	543145	keystroke	r	n/a
272.457	0.1195	544914	keystroke	Key.backspace	n/a
272.7575	0.119	545515	keystroke	Key.backspace	n/a
273.4015	0.12	546803	keystroke	i	n/a
273.6575	0.165	547315	keystroke	r	n/a
273.838	0.134	547676	keystroke	e	n/a
274.1515	0.196	548303	keystroke	c	n/a
274.5875	0.1195	549175	keystroke	t	n/a
274.812	0.165	549624	keystroke	i	n/a
275.067	0.1505	550134	keystroke	v	n/a
275.367	0.165	550734	keystroke	e	n/a
275.6225	0.1645	551245	keystroke	Key.space	n/a
276.7625	0.1945	553525	keystroke	l	n/a
277.197	0.165	554394	keystroke	i	n/a
277.543	0.164	555086	keystroke	e	n/a
278.7425	0.18	557485	keystroke	c	n/a
279.432	0.1655	558864	keystroke	h	n/a
280.5575	0.09	561115	keystroke	t	n/a
280.917	0.105	561834	keystroke	e	n/a
281.202	0.105	562404	keystroke	n	n/a
282.2075	0.134	564415	keystroke	s	n/a
282.717	0.12	565434	keystroke	t	n/a
283.122	0.105	566244	keystroke	e	n/a
283.512	0.12	567024	keystroke	i	n/a
283.857	0.075	567714	keystroke	n	n/a
285.402	0.075	570804	keystroke	Key.enter	n/a
285.4835	21.2205	570967	prompt	n/a	imagination basin importance projectors\n
286.8275	0.1045	573655	keystroke	i	n/a
287.1875	0.1045	574375	keystroke	m	n/a
287.592	0.225	575184	keystroke	a	n/a
289.002	0.0905	578004	keystroke	g	n/a
289.347	0.105	578694	keystroke	i	n/a
289.6775	0.0895	579355	keystroke	n	n/a
289.9615	0.2105	579923	keystroke	a	n/a
290.472	0.1055	580944	keystroke	t	n/a
290.787	0.1505	581574	keystroke	i	n/a
291.0575	0.165	582115	keystroke	o	n/a
291.3875	0.12	582775	keystroke	n	n/a
291.7625	0.1645	583525	keystroke	Key.space	n/a
292.0475	0.179	584095	keystroke	b	n/a
292.4525	0.1945	584905	keystroke	a	n/a
292.842	0.12	585684	keystroke	s	n/a
293.157	0.12	586314	keystroke	i	n/a
293.487	0.1505	586974	keystroke	n	n/a
293.907	0.1795	587814	keystroke	Key.space	n/a
294.432	0.09	588864	keystroke	i	n/a
294.7325	0.18	589465	keystroke	m	n/a
295.197	0.1505	590394	keystroke	p	n/a
295.4975	0.1795	590995	keystroke	o	n/a
295.8425	0.075	591685	keystroke	r	n/a
296.1575	0.105	592315	keystroke	t	n/a
296.562	0.1495	593124	keystroke	a	n/a
297.3875	0.1195	594775	keystroke	n	n/a
297.657	0.1355	595314	keystroke	c	n/a
298.108	0.134	596216	keystroke	e	n/a
298.587	0.1355	597174	keystroke	Key.space	n/a
299.9225	0.18	599845	keystroke	p	n/a
300.7625	0.09	601525	keystroke	r	n/a
301.8425	0.1945	603685	keystroke	o	n/a
302.652	0.1205	605304	keystroke	j	n/a
302.8925	0.105	605785	keystroke	e	n/a
303.207	0.21	606414	keystroke	c	n/a
303.717	0.12	607434	keystroke	t	n/a
304.5575	0.18	609115	keystroke	o	n/a
305.082	0.075	610164	keystroke	r	n/a
305.502	0.075	611004	keystroke	s	n/a
306.582	0.12	613164	keystroke	Key.enter	n/a
306.7095	24.684	613419	prompt	n/a	hypothetical adaptor leather horses\n
309.5535	0.044	619107	keystroke	h	n/a
309.942	0.1195	619884	keystroke	y	n/a
310.452	0.1805	620904	keystroke	p	n/a
310.8125	0.165	621625	keystroke	o	n/a
311.2025	0.15	622405	keystroke	t	n/a
311.532	0.09	623064	keystroke	h	n/a
312.0275	0.1945	624055	keystroke	e	n/a
312.4025	0.0895	624805	keystroke	t	n/a
316.439	0.058	632878	keystroke	i	n/a
316.647	0.135	633294	keystroke	c	n/a
316.962	0.18	633924	keystroke	a	n/a
317.322	0.1355	634644	keystroke	l	n/a
318.417	0.1345	636834	keystroke	Key.space	n/a
318.8075	0.18	637615	keystroke	a	n/a
319.2275	0.134	638455	keystroke	d	n/a
319.527	0.1505	639054	keystroke	a	n/a
320.4575	0.165	640915	keystroke	p	n/a
321.148	0.164	642296	keystroke	t	n/a
322.4075	0.1645	644815	keystroke	o	n/a
322.692	0.1055	645384	keystroke	r	n/a
324.0265	0.196	648053	keystroke	Key.space	n/a
324.627	0.1955	649254	keystroke	l	n/a
325.0325	0.12	650065	keystroke	e	n/a
325.3015	0.211	650603	keystroke	a	n/a
325.6475	0.135	651295	keystroke	t	n/a
325.888	0.134	651776	keystroke	h	n/a
326.1575	0.1945	652315	keystroke	e	n/a
326.4725	0.1355	652945	keystroke	r	n/a
326.7725	0.194	653545	keystroke	Key.space	n/a
327.0575	0.149	654115	keystroke	h	n/a
327.3275	0.18	654655	keystroke	i	n/a
327.6125	0.135	655225	keystroke	r	n/a
328.5125	0.1045	657025	keystroke	Key.backspace	n/a
328.7675	0.15	657535	keystroke	Key.backspace	n/a
329.5475	0.165	659095	keystroke	o	n/a
329.8325	0.105	659665	keystroke	r	n/a
330.178	0.1345	660356	keystroke	s	n/a
330.4625	0.1195	660925	keystroke	e	n/a
330.732	0.15	661464	keystroke	s	n/a
331.2575	0.135	662515	keystroke	Key.enter	n/a
331.3975	17.999	662795	prompt	n/a	funny preparation flesh hughes\n
333.1925	0.165	666385	keystroke	f	n/a
333.5225	0.105	667045	keystroke	u	n/a
334.467	0.135	668934	keystroke	n	n/a
334.692	0.135	669384	keystroke	n	n/a
335.0825	0.1345	670165	keystroke	y	n/a
335.4425	0.1945	670885	keystroke	Key.space	n/a
336.117	0.1805	672234	keystroke	p	n/a
336.4775	0.15	672955	keystroke	r	n/a
336.7615	0.166	673523	keystroke	e	n/a
337.152	0.1955	674304	keystroke	p	n/a
338.0525	0.24	676105	keystroke	a	n/a
338.547	0.1355	677094	keystroke	r	n/a
338.878	0.179	677756	keystroke	a	n/a
339.252	0.12	678504	keystroke	t	n/a
340.3175	0.135	680635	keystroke	i	n/a
340.572	0.166	681144	keystroke	o	n/a
340.872	0.15	681744	keystroke	n	n/a
341.2775	0.1195	682555	keystroke	Key.space	n/a
341.772	0.21	683544	keystroke	f	n/a
342.1325	0.1495	684265	keystroke	k	n/a
342.4025	0.1645	684805	keystroke	e	n/a
343.272	0.0755	686544	keystroke	Key.backspace	n/a
343.4975	0.1045	686995	keystroke	Key.backspace	n/a
344.2475	0.15	688495	keystroke	l	n/a
344.5625	0.15	689125	keystroke	e	n/a
344.9225	0.135	689845	keystroke	s	n/a
345.1925	0.1195	690385	keystroke	h	n/a
345.6875	0.09	691375	keystroke	Key.space	n/a
346.3025	0.09	692605	keystroke	h	n/a
346.7375	0.105	693475	keystroke	u	n/a
347.037	0.12	694074	keystroke	g	n/a
347.2025	0.1195	694405	keystroke	h	n/a
347.502	0.12	695004	keystroke	e	n/a
347.772	0.1655	695544	keystroke	s	n/a
349.2875	0.105	698575	keystroke	Key.enter	n/a
349.408	27.0465	698816	prompt	n/a	second hewlett sacred promo\n
351.042	0.18	702084	keystroke	s	n/a
351.357	0.1205	702714	keystroke	e	n/a
351.6875	0.18	703375	keystroke	c	n/a
352.0025	0.1795	704005	keystroke	i	n/a
352.2275	0.15	704455	keystroke	n	n/a
352.422	0.1805	704844	keystroke	d	n/a
352.752	0.165	705504	keystroke	Key.space	n/a
353.0675	0.1345	706135	keystroke	h	n/a
353.337	0.18	706674	keystroke	e	n/a
353.608	0.1495	707216	keystroke	w	n/a
353.938	0.1645	707876	keystroke	k	n/a
354.762	0.1055	709524	keystroke	Key.backspace	n/a
355.0165	0.0755	710033	keystroke	Key.backspace	n/a
355.227	0.075	710454	keystroke	Key.backspace	n/a
355.4375	0.0745	710875	keystroke	Key.backspace	n/a
355.6475	0.075	711295	keystroke	Key.backspace	n/a
355.842	0.075	711684	keystroke	Key.backspace	n/a
356.037	0.075	712074	keystroke	Key.backspace	n/a
356.2475	0.105	712495	keystroke	Key.backspace	n/a
357.0275	0.1495	714055	keystroke	o	n/a
357.2965	0.151	714593	keystroke	n	n/a
357.5515	0.196	715103	keystroke	d	n/a
357.8075	0.1645	715615	keystroke	Key.space	n/a
358.123	0.089	716246	keystroke	h	n/a
358.3475	0.2245	716695	keystroke	e	n/a
358.722	0.18	717444	keystroke	w	n/a
359.9825	0.105	719965	keystroke	l	n/a
360.178	0.194	720356	keystroke	e	n/a
360.583	0.09	721166	keystroke	t	n/a
360.8225	0.135	721645	keystroke	t	n/a
361.2875	0.1195	722575	keystroke	Key.space	n/a
361.932	0.136	723864	keystroke	s	n/a
362.1875	0.15	724375	keystroke	a	n/a
362.5025	0.195	725005	keystroke	c	n/a
363.8675	0.165	727735	keystroke	r	n/a
364.0775	0.1195	728155	keystroke	e	n/a
364.392	0.165	728784	keystroke	d	n/a
365.8775	0.1805	731755	keystroke	r	n/a
366.1775	0.195	732355	keystroke	i	n/a
366.5815	0.136	733163	keystroke	m	n/a
368.65	0.159	737300	keystroke	Key.backspace	n/a
368.9335	0.1815	737867	keystroke	Key.backspace	n/a
369.334	0.178	738668	keystroke	Key.backspace	n/a
370.319	0.073	740638	keystroke	Key.space	n/a
371.4875	0.1645	742975	keystroke	p	n/a
371.9075	0.165	743815	keystroke	r	n/a
372.1925	0.18	744385	keystroke	o	n/a
372.732	0.165	745464	keystroke	m	n/a
373.062	0.1655	746124	keystroke	o	n/a
376.4245	0.028	752849	keystroke	Key.enter	n/a
376.4595	25.7355	752919	prompt	n/a	webpage experience format briefly\n
377.637	0.196	755274	keystroke	w	n/a
377.922	0.1355	755844	keystroke	e	n/a
378.297	0.136	756594	keystroke	b	n/a
379.0775	0.1795	758155	keystroke	p	n/a
379.332	0.211	758664	keystroke	a	n/a
379.6325	0.1355	759265	keystroke	g	n/a
379.948	0.1795	759896	keystroke	e	n/a
381.057	0.1355	762114	keystroke	Key.space	n/a
381.3575	0.09	762715	keystroke	e	n/a
381.7625	0.18	763525	keystroke	x	n/a
384.7345	0.1475	769469	keystroke	p	n/a
384.987	0.2245	769974	keystroke	e	n/a
385.273	0.15	770546	keystroke	r	n/a
385.558	0.165	771116	keystroke	i	n/a
385.7825	0.18	771565	keystroke	e	n/a
386.743	0.1645	773486	keystroke	n	n/a
387.433	0.1945	774866	keystroke	c	n/a
387.853	0.179	775706	keystroke	e	n/a
388.257	0.1355	776514	keystroke	Key.space	n/a
388.5575	0.1805	777115	keystroke	f	n/a
389.1875	0.1945	778375	keystroke	o	n/a
389.428	0.15	778856	keystroke	r	n/a
389.6375	0.1645	779275	keystroke	m	n/a
390.418	0.2695	780836	keystroke	a	n/a
390.8375	0.105	781675	keystroke	t	n/a
391.9775	0.1345	783955	keystroke	b	n/a
392.368	0.1495	784736	keystroke	r	n/a
392.6075	0.15	785215	keystroke	i	n/a
392.8025	0.21	785605	keystroke	e	n/a
396.2505	0.155	792501	keystroke	Key.backspace	n/a
396.5205	0.157	793041	keystroke	Key.backspace	n/a
396.9505	0.1375	793901	keystroke	Key.backspace	n/a
397.3865	0.112	794773	keystroke	Key.backspace	n/a
398.55	0.102	797100	keystroke	Key.space	n/a
398.7435	0.1335	797487	keystroke	b	n/a
399.162	0.1505	798324	keystroke	r	n/a
399.448	0.12	798896	keystroke	i	n/a
399.612	0.1955	799224	keystroke	e	n/a
399.8825	0.21	799765	keystroke	f	n/a
400.2425	0.195	800485	keystroke	l	n/a
400.6925	0.135	801385	keystroke	y	n/a
402.0275	0.1645	804055	keystroke	Key.enter	n/a
402.2	36.5945	804400	prompt	n/a	humanitarian deals marshall verizon\n
403.498	0.0905	806996	keystroke	h	n/a
403.8125	0.075	807625	keystroke	u	n/a
404.1725	0.121	808345	keystroke	m	n/a
404.5475	0.24	809095	keystroke	a	n/a
404.9525	0.165	809905	keystroke	n	n/a
405.418	0.179	810836	keystroke	i	n/a
406.167	0.1505	812334	keystroke	t	n/a
406.527	0.211	813054	keystroke	a	n/a
407.053	0.105	814106	keystroke	r	n/a
407.398	0.164	814796	keystroke	i	n/a
407.922	0.12	815844	keystroke	a	n/a
408.1475	0.2105	816295	keystroke	a	n/a
409.677	0.1355	819354	keystroke	Key.backspace	n/a
410.503	0.1345	821006	keystroke	n	n/a
410.9525	0.09	821905	keystroke	Key.space	n/a
411.268	0.1945	822536	keystroke	d	n/a
411.7175	0.165	823435	keystroke	e	n/a
412.183	0.24	824366	keystroke	a	n/a
412.6025	0.1955	825205	keystroke	l	n/a
412.978	0.1495	825956	keystroke	s	n/a
413.5775	0.09	827155	keystroke	n	n/a
414.2375	0.135	828475	keystroke	m	n/a
414.567	0.2555	829134	keystroke	a	n/a
415.5725	0.135	831145	keystroke	r	n/a
416.008	0.195	832016	keystroke	s	n/a
416.293	0.135	832586	keystroke	h	n/a
416.548	0.2395	833096	keystroke	a	n/a
417.8225	0.1205	835645	keystroke	l	n/a
418.1075	0.1655	836215	keystroke	l	n/a
419.172	0.181	838344	keystroke	n	n/a
422.5505	0.1155	845101	keystroke	Key.backspace	n/a
426.427	0.1135	852854	keystroke	Key.backspace	n/a
428.715	0.028	857430	keystroke	Key.space	n/a
433.02	0.043	866040	keystroke	l	n/a
434.9525	0.165	869905	keystroke	Key.space	n/a
435.2535	0.1795	870507	keystroke	v	n/a
435.568	0.1505	871136	keystroke	e	n/a
435.868	0.1505	871736	keystroke	r	n/a
436.138	0.135	872276	keystroke	i	n/a
436.4225	0.1955	872845	keystroke	z	n/a
436.663	0.1495	873326	keystroke	o	n/a
436.9625	0.1205	873925	keystroke	n	n/a
438.703	0.09	877406	keystroke	Key.enter	n/a
438.798	16.4965	877596	prompt	n/a	invite forbidden college billy\n
440.218	0.12	880436	keystroke	i	n/a
440.533	0.12	881066	keystroke	n	n/a
440.878	0.1655	881756	keystroke	v	n/a
441.148	0.1495	882296	keystroke	i	n/a
441.778	0.15	883556	keystroke	t	n/a
442.7685	0.1945	885537	keystroke	e	n/a
443.323	0.119	886646	keystroke	Key.space	n/a
443.6825	0.181	887365	keystroke	f	n/a
444.0275	0.18	888055	keystroke	o	n/a
444.3275	0.0905	888655	keystroke	r	n/a
444.658	0.165	889316	keystroke	b	n/a
444.9135	0.104	889827	keystroke	i	n/a
445.1835	0.105	890367	keystroke	d	n/a
445.4225	0.106	890845	keystroke	d	n/a
445.7385	0.149	891477	keystroke	e	n/a
445.9925	0.166	891985	keystroke	n	n/a
446.323	0.1495	892646	keystroke	Key.space	n/a
446.668	0.135	893336	keystroke	c	n/a
448.0175	0.1355	896035	keystroke	o	n/a
448.393	0.105	896786	keystroke	l	n/a
448.648	0.135	897296	keystroke	l	n/a
448.948	0.195	897896	keystroke	e	n/a
449.322	0.1365	898644	keystroke	g	n/a
449.638	0.18	899276	keystroke	e	n/a
450.043	0.0755	900086	keystroke	n	n/a
451.183	0.135	902366	keystroke	Key.backspace	n/a
451.6025	0.075	903205	keystroke	Key.space	n/a
451.7825	0.15	903565	keystroke	b	n/a
452.0085	0.1045	904017	keystroke	i	n/a
453.2675	0.1205	906535	keystroke	l	n/a
453.508	0.15	907016	keystroke	l	n/a
453.913	0.09	907826	keystroke	y	n/a
455.143	0.1495	910286	keystroke	Key.enter	n/a
455.2985	33.6265	910597	prompt	n/a	zshops unions weird routes\n
460.1265	0.102	920253	keystroke	z	n/a
460.4685	0.195	920937	keystroke	s	n/a
461.518	0.165	923036	keystroke	h	n/a
461.938	0.195	923876	keystroke	o	n/a
464.611	0.178	929222	keystroke	p	n/a
464.908	0.15	929816	keystroke	s	n/a
465.4475	0.105	930895	keystroke	Key.space	n/a
466.0635	0.089	932127	keystroke	u	n/a
466.3635	0.1345	932727	keystroke	n	n/a
466.723	0.12	933446	keystroke	i	n/a
467.788	0.135	935576	keystroke	o	n/a
468.0585	0.135	936117	keystroke	n	n/a
468.388	0.135	936776	keystroke	s	n/a
468.838	0.0745	937676	keystroke	Key.space	n/a
469.4525	0.165	938905	keystroke	w	n/a
469.753	0.165	939506	keystroke	e	n/a
470.0375	0.15	940075	keystroke	i	n/a
470.2775	0.1205	940555	keystroke	r	n/a
470.578	0.18	941156	keystroke	d	n/a
471.4635	0.1345	942927	keystroke	n	n/a
471.8385	0.09	943677	keystroke	r	n/a
472.528	0.165	945056	keystroke	o	n/a
472.843	0.09	945686	keystroke	u	n/a
473.8035	0.15	947607	keystroke	Key.backspace	n/a
475.064	0.111	950128	keystroke	Key.backspace	n/a
475.3085	0.1375	950617	keystroke	Key.backspace	n/a
476.2605	0.1785	952521	keystroke	Key.backspace	n/a
477.5405	0.013	955081	keystroke	b	n/a
477.7935	0.089	955587	keystroke	r	n/a
478.888	0.18	957776	keystroke	o	n/a
479.203	0.135	958406	keystroke	u	n/a
479.5035	0.09	959007	keystroke	t	n/a
479.788	0.105	959576	keystroke	e	n/a
480.058	0.135	960116	keystroke	s	n/a
485.7695	0.1355	971539	keystroke	Key.backspace	n/a
486.96	0.0735	973920	keystroke	Key.space	n/a
488.8185	0.105	977637	keystroke	Key.enter	n/a
488.935	18.8905	977870	prompt	n/a	language enlargement constructed notices\n
490.544	0.194	981088	keystroke	l	n/a
490.813	0.196	981626	keystroke	a	n/a
491.038	0.135	982076	keystroke	n	n/a
491.3385	0.1195	982677	keystroke	g	n/a
491.5935	0.105	983187	keystroke	u	n/a
491.8035	0.1955	983607	keystroke	a	n/a
492.073	0.1205	984146	keystroke	g	n/a
492.3435	0.1505	984687	keystroke	e	n/a
492.7785	0.164	985557	keystroke	Key.space	n/a
493.2285	0.1505	986457	keystroke	e	n/a
493.4685	0.165	986937	keystroke	n	n/a
494.2335	0.15	988467	keystroke	l	n/a
494.4435	0.18	988887	keystroke	a	n/a
494.7435	0.075	989487	keystroke	r	n/a
495.524	0.1495	991048	keystroke	g	n/a
495.8385	0.165	991677	keystroke	e	n/a
496.139	0.1045	992278	keystroke	m	n/a
496.3935	0.1955	992787	keystroke	e	n/a
496.6335	0.135	993267	keystroke	n	n/a
496.889	0.119	993778	keystroke	t	n/a
497.2185	0.1495	994437	keystroke	Key.space	n/a
497.698	0.166	995396	keystroke	c	n/a
498.778	0.18	997556	keystroke	o	n/a
499.108	0.135	998216	keystroke	n	n/a
499.4535	0.1945	998907	keystroke	s	n/a
500.008	0.1055	1000016	keystroke	t	n/a
500.383	0.1355	1000766	keystroke	r	n/a
501.178	0.1055	1002356	keystroke	u	n/a
501.449	0.2095	1002898	keystroke	c	n/a
501.958	0.1655	1003916	keystroke	t	n/a
502.318	0.1205	1004636	keystroke	e	n/a
502.6035	0.135	1005207	keystroke	d	n/a
502.9935	0.12	1005987	keystroke	Key.space	n/a
503.984	0.1945	1007968	keystroke	n	n/a
504.9735	0.195	1009947	keystroke	o	n/a
505.528	0.105	1011056	keystroke	t	n/a
505.949	0.1345	1011898	keystroke	i	n/a
506.248	0.1505	1012496	keystroke	c	n/a
506.609	0.134	1013218	keystroke	e	n/a
506.879	0.195	1013758	keystroke	s	n/a
507.7035	0.12	1015407	keystroke	Key.enter	n/a
507.831	23.891	1015662	prompt	n/a	been pete christopher bangkok\n
509.084	0.135	1018168	keystroke	b	n/a
509.444	0.105	1018888	keystroke	e	n/a
509.653	0.1205	1019306	keystroke	e	n/a
509.8785	0.1805	1019757	keystroke	n	n/a
510.373	0.105	1020746	keystroke	Key.space	n/a
511.7535	0.225	1023507	keystroke	p	n/a
512.579	0.179	1025158	keystroke	e	n/a
512.9385	0.1345	1025877	keystroke	t	n/a
513.2685	0.1655	1026537	keystroke	e	n/a
513.6585	0.12	1027317	keystroke	n	n/a
514.708	0.1195	1029416	keystroke	Key.backspace	n/a
515.0525	0.151	1030105	keystroke	Key.space	n/a
515.309	0.194	1030618	keystroke	c	n/a
515.519	0.135	1031038	keystroke	h	n/a
515.849	0.149	1031698	keystroke	r	n/a
516.1185	0.1495	1032237	keystroke	i	n/a
516.3735	0.165	1032747	keystroke	s	n/a
516.8985	0.105	1033797	keystroke	t	n/a
518.0685	0.195	1036137	keystroke	o	n/a
518.9985	0.21	1037997	keystroke	p	n/a
519.3885	0.135	1038777	keystroke	h	n/a
519.7035	0.165	1039407	keystroke	e	n/a
520.0185	0.15	1040037	keystroke	r	n/a
520.3785	0.15	1040757	keystroke	n	n/a
520.694	0.1795	1041388	keystroke	b	n/a
522.418	0.1655	1044836	keystroke	Key.backspace	n/a
522.7935	0.165	1045587	keystroke	Key.backspace	n/a
523.8135	0.195	1047627	keystroke	Key.space	n/a
524.279	0.1945	1048558	keystroke	b	n/a
524.6085	0.135	1049217	keystroke	a	n/a
525.4185	0.18	1050837	keystroke	n	n/a
525.8385	0.21	1051677	keystroke	g	n/a
527.324	0.119	1054648	keystroke	k	n/a
527.7135	0.12	1055427	keystroke	o	n/a
528.028	0.1205	1056056	keystroke	k	n/a
531.645	0.074	1063290	keystroke	Key.enter	n/a
531.7355	26.3095	1063471	prompt	n/a	latino conduct obtained secretariat\n
533.683	0.196	1067366	keystroke	l	n/a
533.924	0.239	1067848	keystroke	a	n/a
534.373	0.1505	1068746	keystroke	t	n/a
534.6885	0.105	1069377	keystroke	i	n/a
534.9585	0.15	1069917	keystroke	n	n/a
535.2435	0.15	1070487	keystroke	o	n/a
535.6185	0.105	1071237	keystroke	Key.space	n/a
535.9935	0.18	1071987	keystroke	c	n/a
537.0285	0.1645	1074057	keystroke	o	n/a
537.328	0.1355	1074656	keystroke	n	n/a
537.644	0.1045	1075288	keystroke	d	n/a
537.9585	0.121	1075917	keystroke	u	n/a
538.2135	0.195	1076427	keystroke	c	n/a
538.7385	0.12	1077477	keystroke	t	n/a
539.7735	0.195	1079547	keystroke	n	n/a
540.1485	0.18	1080297	keystroke	o	n/a
540.4335	0.1195	1080867	keystroke	b	n/a
540.853	0.151	1081706	keystroke	t	n/a
541.154	0.224	1082308	keystroke	a	n/a
541.408	0.136	1082816	keystroke	i	n/a
544.441	0.102	1088882	keystroke	Key.backspace	n/a
544.6485	0.1205	1089297	keystroke	Key.backspace	n/a
544.8725	0.09	1089745	keystroke	Key.backspace	n/a
545.0835	0.09	1090167	keystroke	Key.backspace	n/a
545.2635	0.089	1090527	keystroke	Key.backspace	n/a
545.443	0.1205	1090886	keystroke	Key.backspace	n/a
546.9285	0.1645	1093857	keystroke	Key.space	n/a
547.3485	0.2105	1094697	keystroke	o	n/a
547.604	0.135	1095208	keystroke	b	n/a
548.0535	0.075	1096107	keystroke	t	n/a
548.3535	0.21	1096707	keystroke	a	n/a
548.638	0.136	1097276	keystroke	i	n/a
548.954	0.149	1097908	keystroke	n	n/a
549.238	0.136	1098476	keystroke	e	n/a
550.633	0.181	1101266	keystroke	d	n/a
551.6985	0.18	1103397	keystroke	Key.space	n/a
552.0135	0.18	1104027	keystroke	s	n/a
552.4485	0.1495	1104897	keystroke	e	n/a
552.9135	0.18	1105827	keystroke	c	n/a
553.9485	0.105	1107897	keystroke	r	n/a
554.2035	0.15	1108407	keystroke	e	n/a
554.534	0.0895	1109068	keystroke	t	n/a
554.8185	0.195	1109637	keystroke	a	n/a
555.1785	0.105	1110357	keystroke	r	n/a
555.943	0.1055	1111886	keystroke	i	n/a
556.168	0.166	1112336	keystroke	a	n/a
556.528	0.09	1113056	keystroke	t	n/a
557.953	0.0895	1115906	keystroke	Key.enter	n/a
558.05	23.3355	1116100	prompt	n/a	apartments dash eight downloaded\n
559.0485	0.195	1118097	keystroke	a	n/a
559.603	0.165	1119206	keystroke	p	n/a
559.858	0.1955	1119716	keystroke	a	n/a
560.1735	0.0895	1120347	keystroke	r	n/a
560.4585	0.1345	1120917	keystroke	t	n/a
560.7435	0.12	1121487	keystroke	m	n/a
560.9685	0.1795	1121937	keystroke	e	n/a
561.208	0.12	1122416	keystroke	n	n/a
561.4785	0.105	1122957	keystroke	t	n/a
561.808	0.15	1123616	keystroke	s	n/a
562.1225	0.1055	1124245	keystroke	Key.space	n/a
562.378	0.1505	1124756	keystroke	d	n/a
562.6635	0.165	1125327	keystroke	a	n/a
562.948	0.1495	1125896	keystroke	s	n/a
563.2485	0.119	1126497	keystroke	h	n/a
563.8635	0.12	1127727	keystroke	n	n/a
564.4035	0.135	1128807	keystroke	e	n/a
564.7185	0.105	1129437	keystroke	i	n/a
564.9885	0.09	1129977	keystroke	g	n/a
565.124	0.09	1130248	keystroke	h	n/a
565.393	0.1205	1130786	keystroke	t	n/a
566.443	0.181	1132886	keystroke	Key.space	n/a
566.743	0.15	1133486	keystroke	d	n/a
566.9835	0.1645	1133967	keystroke	o	n/a
567.253	0.1505	1134506	keystroke	w	n/a
567.4485	0.12	1134897	keystroke	n	n/a
567.748	0.12	1135496	keystroke	l	n/a
568.0335	0.165	1136067	keystroke	o	n/a
568.2725	0.151	1136545	keystroke	a	n/a
568.5885	0.135	1137177	keystroke	d	n/a
568.9035	0.075	1137807	keystroke	e	n/a
569.1435	0.1345	1138287	keystroke	d	n/a
577.02	0.0285	1154040	keystroke	Key.space	n/a
579.9835	0.068	1159967	keystroke	Key.backspace	n/a
581.3255	0.058	1162651	keystroke	Key.enter	n/a
581.39	18.086	1162780	prompt	n/a	wicked honolulu dive approve\n
582.823	0.121	1165646	keystroke	w	n/a
583.048	0.1205	1166096	keystroke	i	n/a
583.3185	0.135	1166637	keystroke	c	n/a
583.5585	0.1205	1167117	keystroke	k	n/a
583.814	0.105	1167628	keystroke	e	n/a
584.099	0.135	1168198	keystroke	d	n/a
584.459	0.06	1168918	keystroke	Key.space	n/a
584.834	0.105	1169668	keystroke	h	n/a
585.568	0.1355	1171136	keystroke	o	n/a
586.109	0.1795	1172218	keystroke	n	n/a
588.239	0.12	1176478	keystroke	o	n/a
589.8585	0.15	1179717	keystroke	l	n/a
590.1885	0.1355	1180377	keystroke	u	n/a
590.519	0.165	1181038	keystroke	l	n/a
590.8645	0.119	1181729	keystroke	u	n/a
592.199	0.165	1184398	keystroke	Key.space	n/a
592.529	0.135	1185058	keystroke	d	n/a
592.724	0.1345	1185448	keystroke	i	n/a
592.979	0.1195	1185958	keystroke	v	n/a
593.264	0.15	1186528	keystroke	e	n/a
593.594	0.1195	1187188	keystroke	Key.space	n/a
594.3445	0.1795	1188689	keystroke	a	n/a
596.687	0.072	1193374	keystroke	p	n/a
596.879	0.15	1193758	keystroke	p	n/a
597.239	0.135	1194478	keystroke	r	n/a
597.479	0.18	1194958	keystroke	o	n/a
597.8085	0.1355	1195617	keystroke	v	n/a
598.109	0.135	1196218	keystroke	e	n/a
599.3685	0.1055	1198737	keystroke	Key.enter	n/a
599.481	37.195	1198962	prompt	n/a	separate organ printable network\n
600.5545	0.149	1201109	keystroke	s	n/a
600.8695	0.134	1201739	keystroke	e	n/a
602.069	0.18	1204138	keystroke	p	n/a
602.4285	0.195	1204857	keystroke	a	n/a
602.924	0.0745	1205848	keystroke	r	n/a
603.193	0.196	1206386	keystroke	a	n/a
603.539	0.105	1207078	keystroke	t	n/a
603.809	0.135	1207618	keystroke	e	n/a
604.1835	0.12	1208367	keystroke	n	n/a
604.7535	0.1505	1209507	keystroke	o	n/a
605.054	0.0595	1210108	keystroke	r	n/a
605.399	0.1345	1210798	keystroke	g	n/a
605.684	0.1795	1211368	keystroke	a	n/a
605.9235	0.1505	1211847	keystroke	n	n/a
606.569	0.105	1213138	keystroke	n	n/a
607.199	0.18	1214398	keystroke	p	n/a
607.649	0.09	1215298	keystroke	r	n/a
607.889	0.135	1215778	keystroke	i	n/a
608.219	0.1495	1216438	keystroke	n	n/a
608.5485	0.135	1217097	keystroke	t	n/a
608.879	0.195	1217758	keystroke	a	n/a
609.929	0.105	1219858	keystroke	Key.backspace	n/a
610.1835	0.105	1220367	keystroke	Key.backspace	n/a
610.4085	0.0905	1220817	keystroke	Key.backspace	n/a
610.619	0.09	1221238	keystroke	Key.backspace	n/a
610.814	0.104	1221628	keystroke	Key.backspace	n/a
611.023	0.1815	1222046	keystroke	Key.backspace	n/a
611.489	0.15	1222978	keystroke	Key.backspace	n/a
612.134	0.1195	1224268	keystroke	Key.space	n/a
618.2035	0.139	1236407	keystroke	Key.backspace	n/a
619.081	0.058	1238162	keystroke	Key.space	n/a
624.871	0.088	1249742	keystroke	p	n/a
626.0985	0.105	1252197	keystroke	Key.backspace	n/a
626.5345	0.105	1253069	keystroke	n	n/a
627.824	0.135	1255648	keystroke	Key.backspace	n/a
629.054	0.21	1258108	keystroke	Key.space	n/a
629.684	0.18	1259368	keystroke	p	n/a
630.089	0.105	1260178	keystroke	r	n/a
630.4645	0.09	1260929	keystroke	i	n/a
630.7345	0.135	1261469	keystroke	n	n/a
631.0345	0.135	1262069	keystroke	t	n/a
631.9195	0.195	1263839	keystroke	a	n/a
632.2795	0.15	1264559	keystroke	b	n/a
632.594	0.165	1265188	keystroke	l	n/a
632.879	0.12	1265758	keystroke	e	n/a
633.2845	0.165	1266569	keystroke	Key.space	n/a
633.6585	0.1205	1267317	keystroke	n	n/a
633.9135	0.165	1267827	keystroke	e	n/a
634.244	0.105	1268488	keystroke	t	n/a
634.5135	0.181	1269027	keystroke	w	n/a
634.7545	0.165	1269509	keystroke	o	n/a
635.0245	0.12	1270049	keystroke	r	n/a
635.2795	0.105	1270559	keystroke	k	n/a
636.584	0.09	1273168	keystroke	Key.enter	n/a
636.6795	16.511	1273359	prompt	n/a	rock living providence tyler\n
637.7395	0.105	1275479	keystroke	r	n/a
638.7445	0.18	1277489	keystroke	o	n/a
639.104	0.165	1278208	keystroke	c	n/a
639.419	0.135	1278838	keystroke	k	n/a
639.8845	0.134	1279769	keystroke	Key.space	n/a
640.949	0.15	1281898	keystroke	l	n/a
641.4135	0.135	1282827	keystroke	i	n/a
641.7585	0.15	1283517	keystroke	v	n/a
642.0885	0.151	1284177	keystroke	i	n/a
642.3895	0.165	1284779	keystroke	n	n/a
642.704	0.1505	1285408	keystroke	g	n/a
643.124	0.1345	1286248	keystroke	Key.space	n/a
643.874	0.1805	1287748	keystroke	p	n/a
644.2645	0.09	1288529	keystroke	r	n/a
644.5195	0.1795	1289039	keystroke	o	n/a
645.0435	0.165	1290087	keystroke	v	n/a
645.4045	0.134	1290809	keystroke	i	n/a
645.7185	0.1205	1291437	keystroke	d	n/a
646.0485	0.135	1292097	keystroke	e	n/a
646.499	0.12	1292998	keystroke	n	n/a
646.7985	0.15	1293597	keystroke	c	n/a
647.1435	0.121	1294287	keystroke	e	n/a
648.1935	0.21	1296387	keystroke	Key.space	n/a
648.6295	0.1195	1297259	keystroke	t	n/a
648.913	0.121	1297826	keystroke	y	n/a
649.7385	0.135	1299477	keystroke	l	n/a
650.0835	0.135	1300167	keystroke	e	n/a
650.414	0.1045	1300828	keystroke	r	n/a
653.1315	0.0575	1306263	keystroke	Key.enter	n/a
653.196	14.95	1306392	prompt	n/a	targeted wasn't redeem cloth\n
654.524	0.1045	1309048	keystroke	t	n/a
654.8835	0.196	1309767	keystroke	a	n/a
655.2895	0.0595	1310579	keystroke	r	n/a
655.619	0.15	1311238	keystroke	g	n/a
656.039	0.149	1312078	keystroke	e	n/a
656.8635	0.1655	1313727	keystroke	t	n/a
657.254	0.135	1314508	keystroke	e	n/a
657.6135	0.1655	1315227	keystroke	d	n/a
658.739	0.165	1317478	keystroke	Key.space	n/a
659.234	0.15	1318468	keystroke	w	n/a
659.7295	0.1945	1319459	keystroke	a	n/a
660.584	0.0905	1321168	keystroke	s	n/a
660.9295	0.119	1321859	keystroke	n	n/a
661.559	0.1505	1323118	keystroke	'	n/a
661.9345	0.1195	1323869	keystroke	t	n/a
662.4135	0.1505	1324827	keystroke	Key.space	n/a
662.969	0.15	1325938	keystroke	r	n/a
663.3295	0.135	1326659	keystroke	e	n/a
663.689	0.1355	1327378	keystroke	d	n/a
664.094	0.075	1328188	keystroke	e	n/a
664.334	0.1205	1328668	keystroke	e	n/a
664.9195	0.12	1329839	keystroke	m	n/a
665.3245	0.1495	1330649	keystroke	Key.space	n/a
665.774	0.15	1331548	keystroke	c	n/a
666.119	0.12	1332238	keystroke	l	n/a
666.449	0.135	1332898	keystroke	o	n/a
666.8095	0.1045	1333619	keystroke	t	n/a
667.079	0.0895	1334158	keystroke	h	n/a
668.0685	0.075	1336137	keystroke	Key.enter	n/a
668.151	17.95	1336302	prompt	n/a	specific nick text railroad\n
669.0445	0.1345	1338089	keystroke	s	n/a
669.794	0.1495	1339588	keystroke	p	n/a
670.049	0.12	1340098	keystroke	e	n/a
670.409	0.165	1340818	keystroke	c	n/a
671.5935	0.1355	1343187	keystroke	i	n/a
671.834	0.1195	1343668	keystroke	f	n/a
672.0135	0.15	1344027	keystroke	i	n/a
672.2685	0.1655	1344537	keystroke	c	n/a
672.959	0.12	1345918	keystroke	Key.space	n/a
673.409	0.1195	1346818	keystroke	n	n/a
673.6785	0.15	1347357	keystroke	i	n/a
673.934	0.1655	1347868	keystroke	c	n/a
674.143	0.121	1348286	keystroke	k	n/a
674.518	0.105	1349036	keystroke	Key.space	n/a
675.719	0.105	1351438	keystroke	t	n/a
676.709	0.105	1353418	keystroke	e	n/a
677.0385	0.18	1354077	keystroke	x	n/a
677.534	0.1045	1355068	keystroke	t	n/a
678.105	0.134	1356210	keystroke	n	n/a
678.689	0.0895	1357378	keystroke	r	n/a
678.9435	0.165	1357887	keystroke	a	n/a
679.1985	0.136	1358397	keystroke	i	n/a
680.594	0.105	1361188	keystroke	Key.backspace	n/a
680.804	0.1045	1361608	keystroke	Key.backspace	n/a
681.0285	0.105	1362057	keystroke	Key.backspace	n/a
681.2535	0.15	1362507	keystroke	Key.backspace	n/a
681.944	0.1795	1363888	keystroke	Key.space	n/a
682.394	0.1205	1364788	keystroke	r	n/a
682.664	0.179	1365328	keystroke	a	n/a
682.9335	0.1205	1365867	keystroke	i	n/a
683.2195	0.1645	1366439	keystroke	l	n/a
683.579	0.15	1367158	keystroke	r	n/a
684.734	0.18	1369468	keystroke	o	n/a
684.929	0.15	1369858	keystroke	a	n/a
685.229	0.165	1370458	keystroke	d	n/a
685.964	0.135	1371928	keystroke	Key.enter	n/a
686.106	33.4895	1372212	prompt	n/a	static sail jackie constraints\n
687.5235	0.1955	1375047	keystroke	s	n/a
687.974	0.09	1375948	keystroke	t	n/a
688.259	0.18	1376518	keystroke	a	n/a
688.589	0.105	1377178	keystroke	t	n/a
688.844	0.15	1377688	keystroke	i	n/a
690.0285	0.015	1380057	keystroke	c	n/a
690.418	0.076	1380836	keystroke	Key.space	n/a
690.434	0.1205	1380868	keystroke	n	n/a
690.7935	0.2105	1381587	keystroke	s	n/a
691.889	0.1345	1383778	keystroke	Key.backspace	n/a
692.1285	0.1655	1384257	keystroke	Key.backspace	n/a
692.5485	0.165	1385097	keystroke	s	n/a
692.894	0.1655	1385788	keystroke	a	n/a
693.7485	0.12	1387497	keystroke	i	n/a
694.0935	0.1805	1388187	keystroke	k	n/a
695.278	0.106	1390556	keystroke	Key.backspace	n/a
695.715	0.1345	1391430	keystroke	l	n/a
696.7485	0.135	1393497	keystroke	j	n/a
698.804	0.18	1397608	keystroke	Key.backspace	n/a
699.614	0.135	1399228	keystroke	n	n/a
699.929	0.104	1399858	keystroke	j	n/a
700.1095	0.1645	1400219	keystroke	a	n/a
700.408	0.1805	1400816	keystroke	c	n/a
700.7985	0.165	1401597	keystroke	k	n/a
701.2495	0.1345	1402499	keystroke	i	n/a
701.55	0.1635	1403100	keystroke	e	n/a
703.619	0.1045	1407238	keystroke	Key.backspace	n/a
703.8435	0.06	1407687	keystroke	Key.backspace	n/a
704.039	0.0745	1408078	keystroke	Key.backspace	n/a
704.2185	0.1055	1408437	keystroke	Key.backspace	n/a
704.639	0.105	1409278	keystroke	Key.backspace	n/a
704.8785	0.135	1409757	keystroke	Key.backspace	n/a
705.3585	0.1055	1410717	keystroke	Key.backspace	n/a
706.634	0.165	1413268	keystroke	Key.space	n/a
707.1585	0.1355	1414317	keystroke	j	n/a
708.704	0.18	1417408	keystroke	a	n/a
709.124	0.165	1418248	keystroke	c	n/a
709.7995	0.1195	1419599	keystroke	k	n/a
710.144	0.1505	1420288	keystroke	i	n/a
710.3995	0.134	1420799	keystroke	e	n/a
711.419	0.21	1422838	keystroke	Key.space	n/a
712.4085	0.1505	1424817	keystroke	c	n/a
712.904	0.165	1425808	keystroke	o	n/a
714.1045	0.1345	1428209	keystroke	n	n/a
714.5835	0.2255	1429167	keystroke	s	n/a
715.1985	0.121	1430397	keystroke	t	n/a
715.5435	0.136	1431087	keystroke	r	n/a
716.069	0.1805	1432138	keystroke	a	n/a
716.414	0.1495	1432828	keystroke	i	n/a
716.714	0.165	1433428	keystroke	n	n/a
717.0435	0.12	1434087	keystroke	t	n/a
717.7635	0.18	1435527	keystroke	s	n/a
719.429	0.165	1438858	keystroke	Key.enter	n/a
719.6085	42.1225	1439217	prompt	n/a	registered explorer journals greeting\n
729.0465	0.073	1458093	keystroke	r	n/a
729.209	0.165	1458418	keystroke	e	n/a
729.5545	0.1345	1459109	keystroke	g	n/a
729.9745	0.1355	1459949	keystroke	i	n/a
730.1695	0.18	1460339	keystroke	s	n/a
730.6045	0.0895	1461209	keystroke	t	n/a
730.8745	0.135	1461749	keystroke	e	n/a
731.3835	0.106	1462767	keystroke	r	n/a
731.6095	0.12	1463219	keystroke	e	n/a
731.88	0.1645	1463760	keystroke	d	n/a
737.3565	0.028	1474713	keystroke	e	n/a
737.6095	0.165	1475219	keystroke	x	n/a
738.5095	0.1655	1477019	keystroke	p	n/a
739.919	0.1655	1479838	keystroke	o	n/a
740.1895	0.1495	1480379	keystroke	r	n/a
740.4145	0.15	1480829	keystroke	e	n/a
740.7135	0.136	1481427	keystroke	r	n/a
741.8095	0.06	1483619	keystroke	Key.backspace	n/a
741.99	0.0595	1483980	keystroke	Key.backspace	n/a
742.155	0.059	1484310	keystroke	Key.backspace	n/a
742.334	0.06	1484668	keystroke	Key.backspace	n/a
742.5145	0.059	1485029	keystroke	Key.backspace	n/a
742.6785	0.061	1485357	keystroke	Key.backspace	n/a
742.8445	0.06	1485689	keystroke	Key.backspace	n/a
743.0245	0.044	1486049	keystroke	Key.backspace	n/a
743.85	0.134	1487700	keystroke	d	n/a
744.299	0.121	1488598	keystroke	n	n/a
744.509	0.076	1489018	keystroke	e	n/a
746.701	0.028	1493402	keystroke	Key.backspace	n/a
746.8345	0.1195	1493669	keystroke	Key.backspace	n/a
747.569	0.135	1495138	keystroke	Key.space	n/a
747.899	0.1055	1495798	keystroke	e	n/a
748.2145	0.1495	1496429	keystroke	x	n/a
748.8745	0.1805	1497749	keystroke	p	n/a
749.2795	0.135	1498559	keystroke	l	n/a
749.64	0.1495	1499280	keystroke	o	n/a
749.9095	0.135	1499819	keystroke	r	n/a
750.1645	0.1795	1500329	keystroke	e	n/a
750.495	0.1345	1500990	keystroke	r	n/a
751.095	0.0745	1502190	keystroke	n	n/a
753.1195	0.135	1506239	keystroke	Key.backspace	n/a
754.469	0.1505	1508938	keystroke	Key.space	n/a
754.9945	0.135	1509989	keystroke	j	n/a
755.2495	0.18	1510499	keystroke	o	n/a
755.5645	0.105	1511129	keystroke	u	n/a
755.8345	0.12	1511669	keystroke	r	n/a
756.1045	0.12	1512209	keystroke	n	n/a
756.3595	0.1955	1512719	keystroke	a	n/a
756.599	0.166	1513198	keystroke	l	n/a
756.8545	0.1655	1513709	keystroke	s	n/a
757.6795	0.135	1515359	keystroke	Key.space	n/a
758.369	0.09	1516738	keystroke	g	n/a
758.729	0.1355	1517458	keystroke	r	n/a
759.0595	0.09	1518119	keystroke	e	n/a
759.2545	0.165	1518509	keystroke	e	n/a
759.5995	0.105	1519199	keystroke	t	n/a
760.6045	0.014	1521209	keystroke	i	n/a
760.7245	0.12	1521449	keystroke	n	n/a
760.935	0.12	1521870	keystroke	g	n/a
761.624	0.105	1523248	keystroke	Key.enter	n/a
761.7395	16.8685	1523479	prompt	n/a	implied invasion potter bear\n
764.057	0.0425	1528114	keystroke	i	n/a
764.2795	0.15	1528559	keystroke	m	n/a
765.1495	0.12	1530299	keystroke	p	n/a
765.6295	0.06	1531259	keystroke	l	n/a
766.0345	0.105	1532069	keystroke	i	n/a
766.365	0.1195	1532730	keystroke	e	n/a
766.665	0.134	1533330	keystroke	d	n/a
767.054	0.165	1534108	keystroke	Key.space	n/a
767.565	0.105	1535130	keystroke	i	n/a
767.8495	0.12	1535699	keystroke	n	n/a
768.1195	0.135	1536239	keystroke	v	n/a
768.359	0.166	1536718	keystroke	a	n/a
768.6745	0.15	1537349	keystroke	s	n/a
768.9895	0.1495	1537979	keystroke	i	n/a
769.2745	0.1495	1538549	keystroke	o	n/a
769.574	0.12	1539148	keystroke	n	n/a
770.0845	0.195	1540169	keystroke	Key.space	n/a
770.8195	0.2095	1541639	keystroke	p	n/a
771.119	0.1505	1542238	keystroke	o	n/a
771.449	0.075	1542898	keystroke	t	n/a
771.644	0.151	1543288	keystroke	t	n/a
772.0045	0.134	1544009	keystroke	e	n/a
772.305	0.105	1544610	keystroke	r	n/a
772.709	0.15	1545418	keystroke	Key.space	n/a
772.9945	0.1345	1545989	keystroke	b	n/a
773.369	0.1205	1546738	keystroke	e	n/a
773.6395	0.18	1547279	keystroke	a	n/a
773.9835	0.135	1547967	keystroke	r	n/a
778.546	0.058	1557092	keystroke	Key.enter	n/a
778.613	17.2285	1557226	prompt	n/a	palace web greater why'd\n
780.1195	0.2095	1560239	keystroke	p	n/a
781.3795	0.195	1562759	keystroke	a	n/a
782.4595	0.165	1564919	keystroke	l	n/a
782.759	0.15	1565518	keystroke	a	n/a
783.0895	0.165	1566179	keystroke	c	n/a
783.45	0.1345	1566900	keystroke	e	n/a
784.0645	0.209	1568129	keystroke	Key.space	n/a
784.544	0.1505	1569088	keystroke	w	n/a
784.859	0.1355	1569718	keystroke	e	n/a
785.2345	0.1495	1570469	keystroke	b	n/a
785.924	0.1355	1571848	keystroke	Key.space	n/a
786.5095	0.104	1573019	keystroke	g	n/a
786.855	0.1495	1573710	keystroke	r	n/a
787.139	0.165	1574278	keystroke	e	n/a
787.439	0.1955	1574878	keystroke	a	n/a
787.769	0.1505	1575538	keystroke	t	n/a
788.084	0.15	1576168	keystroke	e	n/a
788.354	0.1805	1576708	keystroke	r	n/a
788.9245	0.165	1577849	keystroke	Key.space	n/a
789.4045	0.135	1578809	keystroke	w	n/a
789.7045	0.104	1579409	keystroke	h	n/a
790.049	0.12	1580098	keystroke	y	n/a
790.6645	0.15	1581329	keystroke	;	n/a
791.1295	0.12	1582259	keystroke	d	n/a
792.7195	0.12	1585439	keystroke	Key.backspace	n/a
792.9745	0.1195	1585949	keystroke	Key.backspace	n/a
794.129	0.105	1588258	keystroke	'	n/a
794.61	0.1345	1589220	keystroke	d	n/a
795.764	0.0755	1591528	keystroke	Key.enter	n/a
795.846	14.5	1591692	prompt	n/a	intended medicare reforms india\n
797.2045	0.12	1594409	keystroke	i	n/a
797.5195	0.135	1595039	keystroke	n	n/a
797.865	0.1335	1595730	keystroke	t	n/a
798.239	0.135	1596478	keystroke	e	n/a
798.5695	0.12	1597139	keystroke	n	n/a
798.9295	0.135	1597859	keystroke	d	n/a
799.244	0.1055	1598488	keystroke	e	n/a
799.484	0.15	1598968	keystroke	d	n/a
799.994	0.195	1599988	keystroke	Key.space	n/a
800.729	0.1205	1601458	keystroke	m	n/a
801.0445	0.09	1602089	keystroke	e	n/a
801.3145	0.12	1602629	keystroke	d	n/a
801.6145	0.15	1603229	keystroke	i	n/a
801.8395	0.135	1603679	keystroke	c	n/a
802.214	0.1805	1604428	keystroke	a	n/a
802.6495	0.12	1605299	keystroke	r	n/a
802.9795	0.15	1605959	keystroke	e	n/a
803.534	0.15	1607068	keystroke	Key.space	n/a
803.924	0.1495	1607848	keystroke	r	n/a
804.1945	0.1645	1608389	keystroke	e	n/a
804.539	0.1345	1609078	keystroke	f	n/a
806.129	0.12	1612258	keystroke	o	n/a
806.3395	0.12	1612679	keystroke	r	n/a
806.6085	0.09	1613217	keystroke	m	n/a
806.8045	0.179	1613609	keystroke	s	n/a
807.3285	0.1805	1614657	keystroke	Key.space	n/a
808.1245	0.06	1616249	keystroke	i	n/a
808.3495	0.119	1616699	keystroke	n	n/a
808.6345	0.134	1617269	keystroke	d	n/a
808.814	0.1195	1617628	keystroke	i	n/a
809.0845	0.15	1618169	keystroke	a	n/a
810.254	0.0905	1620508	keystroke	Key.enter	n/a
810.3515	12.7145	1620703	prompt	n/a	enabled tower filter yesterday\n
811.8295	0.135	1623659	keystroke	e	n/a
812.0395	0.1205	1624079	keystroke	n	n/a
812.355	0.1645	1624710	keystroke	a	n/a
812.6545	0.165	1625309	keystroke	b	n/a
813.0145	0.165	1626029	keystroke	l	n/a
813.2845	0.119	1626569	keystroke	e	n/a
813.5835	0.166	1627167	keystroke	d	n/a
813.9445	0.165	1627889	keystroke	Key.space	n/a
814.6195	0.105	1629239	keystroke	t	n/a
815.1145	0.165	1630229	keystroke	o	n/a
815.5195	0.105	1631039	keystroke	w	n/a
815.774	0.12	1631548	keystroke	e	n/a
816.135	0.134	1632270	keystroke	r	n/a
816.5395	0.165	1633079	keystroke	Key.space	n/a
817.0345	0.105	1634069	keystroke	f	n/a
817.395	0.105	1634790	keystroke	i	n/a
817.694	0.135	1635388	keystroke	l	n/a
818.1295	0.135	1636259	keystroke	t	n/a
818.474	0.1655	1636948	keystroke	e	n/a
818.805	0.1195	1637610	keystroke	r	n/a
819.134	0.135	1638268	keystroke	Key.space	n/a
819.7195	0.0745	1639439	keystroke	y	n/a
819.9145	0.1045	1639829	keystroke	e	n/a
820.1695	0.1795	1640339	keystroke	s	n/a
820.559	0.12	1641118	keystroke	t	n/a
820.8445	0.135	1641689	keystroke	e	n/a
821.0995	0.1045	1642199	keystroke	r	n/a
821.3845	0.135	1642769	keystroke	d	n/a
821.6845	0.1795	1643369	keystroke	a	n/a
821.925	0.1035	1643850	keystroke	y	n/a
822.974	0.09	1645948	keystroke	Key.enter	n/a
823.071	14.44	1646142	prompt	n/a	roberts made brokers shopzilla\n
824.3845	0.09	1648769	keystroke	r	n/a
824.6695	0.135	1649339	keystroke	o	n/a
825.1185	0.151	1650237	keystroke	b	n/a
825.5095	0.15	1651019	keystroke	e	n/a
825.8245	0.12	1651649	keystroke	r	n/a
826.1695	0.12	1652339	keystroke	t	n/a
826.4845	0.1655	1652969	keystroke	s	n/a
826.799	0.135	1653598	keystroke	Key.space	n/a
827.159	0.135	1654318	keystroke	m	n/a
827.384	0.15	1654768	keystroke	a	n/a
827.639	0.1355	1655278	keystroke	d	n/a
827.924	0.135	1655848	keystroke	e	n/a
828.1795	0.1495	1656359	keystroke	Key.space	n/a
828.4195	0.135	1656839	keystroke	b	n/a
828.779	0.1205	1657558	keystroke	r	n/a
829.019	0.1355	1658038	keystroke	i	n/a
830.084	0.105	1660168	keystroke	Key.backspace	n/a
831.0135	0.1655	1662027	keystroke	o	n/a
831.9295	0.135	1663859	keystroke	k	n/a
832.2295	0.164	1664459	keystroke	e	n/a
832.5295	0.09	1665059	keystroke	r	n/a
832.7995	0.15	1665599	keystroke	s	n/a
833.0845	0.15	1666169	keystroke	Key.space	n/a
833.3395	0.15	1666679	keystroke	s	n/a
833.5645	0.1055	1667129	keystroke	h	n/a
834.6895	0.194	1669379	keystroke	o	n/a
835.079	0.1805	1670158	keystroke	p	n/a
835.469	0.1655	1670938	keystroke	z	n/a
835.739	0.135	1671478	keystroke	i	n/a
836.054	0.12	1672108	keystroke	l	n/a
836.3095	0.1645	1672619	keystroke	l	n/a
836.5945	0.165	1673189	keystroke	a	n/a
837.4035	0.105	1674807	keystroke	Key.enter	n/a
837.5155	12.581	1675031	prompt	n/a	regarding president sticks grain\n
839.0095	0.105	1678019	keystroke	r	n/a
839.2495	0.1345	1678499	keystroke	e	n/a
839.5645	0.1195	1679129	keystroke	g	n/a
839.789	0.18	1679578	keystroke	a	n/a
840.059	0.0905	1680118	keystroke	r	n/a
840.3435	0.166	1680687	keystroke	d	n/a
840.5695	0.12	1681139	keystroke	i	n/a
840.8095	0.12	1681619	keystroke	n	n/a
841.0195	0.135	1682039	keystroke	g	n/a
841.3945	0.149	1682789	keystroke	Key.space	n/a
842.609	0.2105	1685218	keystroke	p	n/a
842.969	0.1355	1685938	keystroke	r	n/a
843.2095	0.1345	1686419	keystroke	e	n/a
843.554	0.165	1687108	keystroke	s	n/a
843.7945	0.1495	1687589	keystroke	i	n/a
844.0495	0.1345	1688099	keystroke	d	n/a
844.349	0.1955	1688698	keystroke	e	n/a
844.5145	0.1045	1689029	keystroke	n	n/a
844.7845	0.105	1689569	keystroke	t	n/a
845.1295	0.1505	1690259	keystroke	Key.space	n/a
845.369	0.165	1690738	keystroke	s	n/a
845.684	0.1055	1691368	keystroke	t	n/a
845.8345	0.135	1691669	keystroke	i	n/a
846.149	0.18	1692298	keystroke	c	n/a
846.314	0.1355	1692628	keystroke	k	n/a
846.614	0.18	1693228	keystroke	s	n/a
846.8845	0.1495	1693769	keystroke	Key.space	n/a
847.139	0.105	1694278	keystroke	g	n/a
847.484	0.12	1694968	keystroke	r	n/a
847.7845	0.1795	1695569	keystroke	a	n/a
848.9235	0.0615	1697847	keystroke	i	n/a
849.164	0.0905	1698328	keystroke	n	n/a
849.9885	0.105	1699977	keystroke	Key.enter	n/a
850.102	25.9745	1700204	prompt	n/a	ghost sister southampton liberia\n
851.1885	0.0905	1702377	keystroke	g	n/a
851.49	0.0885	1702980	keystroke	h	n/a
851.7295	0.1505	1703459	keystroke	o	n/a
852.014	0.1045	1704028	keystroke	s	n/a
852.3435	0.1505	1704687	keystroke	e	n/a
853.559	0.12	1707118	keystroke	Key.backspace	n/a
853.8445	0.1195	1707689	keystroke	t	n/a
854.114	0.15	1708228	keystroke	Key.space	n/a
854.384	0.1355	1708768	keystroke	s	n/a
854.5945	0.12	1709189	keystroke	u	n/a
854.8495	0.165	1709699	keystroke	s	n/a
855.209	0.12	1710418	keystroke	t	n/a
855.989	0.1055	1711978	keystroke	Key.backspace	n/a
856.199	0.09	1712398	keystroke	Key.backspace	n/a
856.394	0.1045	1712788	keystroke	Key.backspace	n/a
857.084	0.1205	1714168	keystroke	i	n/a
857.2945	0.1645	1714589	keystroke	s	n/a
857.6545	0.135	1715309	keystroke	t	n/a
857.939	0.1505	1715878	keystroke	e	n/a
858.254	0.1355	1716508	keystroke	r	n/a
858.4935	0.1655	1716987	keystroke	Key.space	n/a
858.8095	0.12	1717619	keystroke	s	n/a
859.139	0.1505	1718278	keystroke	i	n/a
859.5135	0.1055	1719027	keystroke	u	n/a
859.815	0.1035	1719630	keystroke	t	n/a
860.054	0.105	1720108	keystroke	h	n/a
861.5095	0.0295	1723019	keystroke	a	n/a
862.844	0.15	1725688	keystroke	m	n/a
863.2795	0.15	1726559	keystroke	p	n/a
863.639	0.12	1727278	keystroke	t	n/a
863.789	0.091	1727578	keystroke	o	n/a
864.494	0.1205	1728988	keystroke	n	n/a
867.7365	0.0575	1735473	keystroke	Key.backspace	n/a
868.1095	0.06	1736219	keystroke	o	n/a
871.5775	0	1743155	keystroke	Key.space	n/a
873.51	0.09	1747020	keystroke	i	n/a
873.7945	0.1355	1747589	keystroke	b	n/a
874.1085	0.151	1748217	keystroke	e	n/a
874.3945	0.135	1748789	keystroke	r	n/a
874.6495	0.075	1749299	keystroke	i	n/a
874.8895	0.105	1749779	keystroke	a	n/a
875.984	0.09	1751968	keystroke	Key.enter	n/a
876.0815	17.89	1752163	prompt	n/a	hardwood original expect documented\n
877.29	0.09	1754580	keystroke	h	n/a
877.515	0.18	1755030	keystroke	a	n/a
877.844	0.09	1755688	keystroke	r	n/a
878.114	0.136	1756228	keystroke	d	n/a
878.4145	0.165	1756829	keystroke	w	n/a
878.88	0.1195	1757760	keystroke	o	n/a
879.1345	0.135	1758269	keystroke	o	n/a
879.4195	0.135	1758839	keystroke	d	n/a
879.7945	0.195	1759589	keystroke	Key.space	n/a
880.979	0.1655	1761958	keystroke	o	n/a
881.3095	0.12	1762619	keystroke	r	n/a
881.6395	0.12	1763279	keystroke	i	n/a
881.895	0.1495	1763790	keystroke	g	n/a
882.1495	0.105	1764299	keystroke	i	n/a
882.4345	0.135	1764869	keystroke	n	n/a
883.035	0.2095	1766070	keystroke	a	n/a
883.3345	0.18	1766669	keystroke	l	n/a
883.7245	0.1805	1767449	keystroke	Key.space	n/a
884.0395	0.1205	1768079	keystroke	e	n/a
885.1495	0.135	1770299	keystroke	x	n/a
885.72	0.1645	1771440	keystroke	p	n/a
886.0345	0.075	1772069	keystroke	e	n/a
886.3495	0.1655	1772699	keystroke	c	n/a
886.725	0.105	1773450	keystroke	t	n/a
887.189	0.166	1774378	keystroke	Key.space	n/a
887.565	0.134	1775130	keystroke	d	n/a
887.82	0.165	1775640	keystroke	i	n/a
889.3345	0.135	1778669	keystroke	o	n/a
890.535	0.09	1781070	keystroke	Key.backspace	n/a
890.729	0.0905	1781458	keystroke	Key.backspace	n/a
891.135	0.1195	1782270	keystroke	o	n/a
891.4345	0.135	1782869	keystroke	c	n/a
891.81	0.075	1783620	keystroke	u	n/a
892.0945	0.1205	1784189	keystroke	m	n/a
892.3495	0.1805	1784699	keystroke	e	n/a
892.56	0.105	1785120	keystroke	n	n/a
892.8295	0.135	1785659	keystroke	t	n/a
893.145	0.1045	1786290	keystroke	e	n/a
893.4	0.15	1786800	keystroke	d	n/a
893.8645	0.1055	1787729	keystroke	Key.enter	n/a
893.9765	12.805	1787953	prompt	n/a	levy proven aware currently\n
895.619	0.165	1791238	keystroke	l	n/a
895.949	0.1355	1791898	keystroke	e	n/a
896.2645	0.1655	1792529	keystroke	v	n/a
896.6695	0.0895	1793339	keystroke	y	n/a
897.089	0.15	1794178	keystroke	Key.space	n/a
897.915	0.0745	1795830	keystroke	p	n/a
898.95	0.0895	1797900	keystroke	r	n/a
899.2045	0.15	1798409	keystroke	o	n/a
899.4895	0.1505	1798979	keystroke	v	n/a
899.79	0.12	1799580	keystroke	e	n/a
900.045	0.1345	1800090	keystroke	n	n/a
900.3745	0.1495	1800749	keystroke	Key.space	n/a
900.6005	0.209	1801201	keystroke	a	n/a
901.0195	0.105	1802039	keystroke	w	n/a
901.2895	0.1655	1802579	keystroke	a	n/a
901.6795	0.135	1803359	keystroke	r	n/a
901.9945	0.135	1803989	keystroke	e	n/a
902.3545	0.135	1804709	keystroke	Key.space	n/a
902.6245	0.165	1805249	keystroke	c	n/a
903.1345	0.105	1806269	keystroke	u	n/a
903.7195	0.136	1807439	keystroke	r	n/a
904.0495	0.135	1808099	keystroke	r	n/a
904.35	0.1345	1808700	keystroke	e	n/a
904.65	0.105	1809300	keystroke	n	n/a
904.95	0.12	1809900	keystroke	t	n/a
905.22	0.165	1810440	keystroke	l	n/a
905.654	0.121	1811308	keystroke	y	n/a
906.6595	0.12	1813319	keystroke	Key.enter	n/a
906.787	15.6395	1813574	prompt	n/a	canal cooling locations consent\n
908.1145	0.1505	1816229	keystroke	c	n/a
908.4445	0.165	1816889	keystroke	a	n/a
908.7295	0.09	1817459	keystroke	n	n/a
908.9695	0.135	1817939	keystroke	a	n/a
910.1995	0.135	1820399	keystroke	l	n/a
910.724	0.135	1821448	keystroke	Key.space	n/a
911.1145	0.1195	1822229	keystroke	c	n/a
911.52	0.105	1823040	keystroke	o	n/a
911.7745	0.105	1823549	keystroke	o	n/a
912.0895	0.15	1824179	keystroke	l	n/a
912.4345	0.075	1824869	keystroke	i	n/a
912.989	0.135	1825978	keystroke	n	n/a
913.379	0.0155	1826758	keystroke	g	n/a
913.964	0.1805	1827928	keystroke	Key.space	n/a
914.355	0.134	1828710	keystroke	l	n/a
914.7	0.164	1829400	keystroke	o	n/a
914.985	0.1195	1829970	keystroke	c	n/a
915.314	0.211	1830628	keystroke	a	n/a
915.75	0.105	1831500	keystroke	t	n/a
916.02	0.15	1832040	keystroke	i	n/a
916.275	0.134	1832550	keystroke	o	n/a
916.56	0.1195	1833120	keystroke	n	n/a
918.659	0.1205	1837318	keystroke	s	n/a
918.9595	0.165	1837919	keystroke	Key.space	n/a
919.23	0.1495	1838460	keystroke	c	n/a
919.5145	0.15	1839029	keystroke	o	n/a
919.755	0.135	1839510	keystroke	n	n/a
920.025	0.1195	1840050	keystroke	s	n/a
920.3095	0.1495	1840619	keystroke	e	n/a
920.5045	0.12	1841009	keystroke	n	n/a
920.775	0.09	1841550	keystroke	t	n/a
922.32	0.1045	1844640	keystroke	Key.enter	n/a
922.435	12.412	1844870	prompt	n/a	florist left spectrum fraction\n
923.6995	0.09	1847399	keystroke	f	n/a
924.0295	0.09	1848059	keystroke	l	n/a
924.6145	0.1495	1849229	keystroke	o	n/a
924.9745	0.135	1849949	keystroke	r	n/a
925.2445	0.12	1850489	keystroke	i	n/a
925.4695	0.21	1850939	keystroke	s	n/a
925.8745	0.1355	1851749	keystroke	t	n/a
926.264	0.165	1852528	keystroke	Key.space	n/a
926.6545	0.1505	1853309	keystroke	l	n/a
926.895	0.164	1853790	keystroke	e	n/a
927.18	0.119	1854360	keystroke	f	n/a
927.5245	0.1505	1855049	keystroke	t	n/a
927.825	0.1795	1855650	keystroke	Key.space	n/a
928.0945	0.18	1856189	keystroke	s	n/a
928.47	0.15	1856940	keystroke	p	n/a
928.754	0.1205	1857508	keystroke	e	n/a
929.085	0.2095	1858170	keystroke	c	n/a
929.58	0.12	1859160	keystroke	t	n/a
929.88	0.105	1859760	keystroke	r	n/a
930.48	0.0895	1860960	keystroke	u	n/a
930.8245	0.105	1861649	keystroke	m	n/a
931.2445	0.15	1862489	keystroke	Key.space	n/a
931.6045	0.1205	1863209	keystroke	f	n/a
931.9195	0.1205	1863839	keystroke	r	n/a
932.1595	0.1355	1864319	keystroke	a	n/a
932.52	0.195	1865040	keystroke	c	n/a
933.0745	0.09	1866149	keystroke	t	n/a
933.33	0.12	1866660	keystroke	i	n/a
933.5545	0.135	1867109	keystroke	o	n/a
933.8395	0.12	1867679	keystroke	n	n/a
934.7245	0.12	1869449	keystroke	Key.enter	n/a
934.852	10.2245	1869704	prompt	n/a	angola doctors tunisia maps\n
935.8645	0.15	1871729	keystroke	a	n/a
936.2095	0.015	1872419	keystroke	n	n/a
936.375	0.105	1872750	keystroke	g	n/a
936.674	0.106	1873348	keystroke	o	n/a
937.8445	0.1505	1875689	keystroke	l	n/a
938.3095	0.195	1876619	keystroke	a	n/a
938.6545	0.15	1877309	keystroke	Key.space	n/a
938.9545	0.12	1877909	keystroke	d	n/a
939.269	0.136	1878538	keystroke	o	n/a
939.4955	0.1935	1878991	keystroke	c	n/a
939.93	0.12	1879860	keystroke	t	n/a
940.155	0.1495	1880310	keystroke	o	n/a
940.3345	0.105	1880669	keystroke	r	n/a
940.635	0.165	1881270	keystroke	s	n/a
940.936	0.149	1881872	keystroke	Key.space	n/a
941.25	0.12	1882500	keystroke	t	n/a
941.52	0.105	1883040	keystroke	u	n/a
941.835	0.1195	1883670	keystroke	n	n/a
942.1195	0.135	1884239	keystroke	i	n/a
942.42	0.1655	1884840	keystroke	s	n/a
942.6145	0.135	1885229	keystroke	i	n/a
942.8695	0.18	1885739	keystroke	a	n/a
943.1545	0.12	1886309	keystroke	Key.space	n/a
943.4545	0.135	1886909	keystroke	m	n/a
943.6645	0.1655	1887329	keystroke	a	n/a
943.9345	0.1055	1887869	keystroke	p	n/a
944.1745	0.105	1888349	keystroke	s	n/a
944.985	0.089	1889970	keystroke	Key.enter	n/a
945.081	15.5955	1890162	prompt	n/a	myspace substitute bold thanksgiving\n
946.2595	0.015	1892519	keystroke	m	n/a
946.56	0.089	1893120	keystroke	y	n/a
946.83	0.15	1893660	keystroke	s	n/a
947.04	0.059	1894080	keystroke	p	n/a
947.25	0.12	1894500	keystroke	a	n/a
947.5195	0.1355	1895039	keystroke	c	n/a
947.8045	0.1645	1895609	keystroke	e	n/a
948.4645	0.1495	1896929	keystroke	Key.space	n/a
948.704	0.12	1897408	keystroke	s	n/a
948.93	0.104	1897860	keystroke	u	n/a
949.1845	0.1055	1898369	keystroke	b	n/a
949.47	0.1945	1898940	keystroke	s	n/a
949.86	0.1195	1899720	keystroke	t	n/a
950.8195	0.1355	1901639	keystroke	i	n/a
951.1195	0.06	1902239	keystroke	t	n/a
951.255	0.105	1902510	keystroke	u	n/a
951.5095	0.105	1903019	keystroke	d	n/a
952.4695	0.15	1904939	keystroke	Key.backspace	n/a
952.7095	0.0905	1905419	keystroke	t	n/a
952.9645	0.135	1905929	keystroke	e	n/a
953.3395	0.1945	1906679	keystroke	Key.space	n/a
954.54	0.0895	1909080	keystroke	b	n/a
954.81	0.105	1909620	keystroke	o	n/a
955.47	0.135	1910940	keystroke	l	n/a
955.77	0.165	1911540	keystroke	d	n/a
956.07	0.164	1912140	keystroke	Key.space	n/a
956.505	0.1195	1913010	keystroke	t	n/a
956.7445	0.09	1913489	keystroke	h	n/a
956.985	0.165	1913970	keystroke	a	n/a
957.1045	0.1055	1914209	keystroke	n	n/a
957.375	0.1495	1914750	keystroke	k	n/a
957.5395	0.1505	1915079	keystroke	s	n/a
957.8545	0.135	1915709	keystroke	g	n/a
958.0645	0.105	1916129	keystroke	i	n/a
958.3195	0.18	1916639	keystroke	v	n/a
959.4	0.09	1918800	keystroke	i	n/a
959.6395	0.1205	1919279	keystroke	n	n/a
959.8495	0.1055	1919699	keystroke	g	n/a
960.555	0.12	1921110	keystroke	Key.enter	n/a
960.682	11.3945	1921364	prompt	n/a	they've rocket prove priced\n
961.665	0.105	1923330	keystroke	t	n/a
961.815	0.105	1923630	keystroke	h	n/a
962.07	0.12	1924140	keystroke	e	n/a
962.22	0.09	1924440	keystroke	y	n/a
962.76	0.1495	1925520	keystroke	'	n/a
963.059	0.12	1926118	keystroke	v	n/a
963.3295	0.1495	1926659	keystroke	e	n/a
963.7195	0.1805	1927439	keystroke	Key.space	n/a
964.8	0.12	1929600	keystroke	r	n/a
966.015	0.1355	1932030	keystroke	o	n/a
966.2695	0.12	1932539	keystroke	c	n/a
966.51	0.105	1933020	keystroke	k	n/a
966.75	0.135	1933500	keystroke	e	n/a
967.0945	0.1055	1934189	keystroke	t	n/a
967.3795	0.1645	1934759	keystroke	Key.space	n/a
968.055	0.15	1936110	keystroke	p	n/a
968.385	0.06	1936770	keystroke	r	n/a
968.534	0.165	1937068	keystroke	o	n/a
968.8195	0.1345	1937639	keystroke	v	n/a
969.12	0.135	1938240	keystroke	e	n/a
969.45	0.165	1938900	keystroke	Key.space	n/a
969.75	0.12	1939500	keystroke	p	n/a
969.96	0.105	1939920	keystroke	r	n/a
970.2	0.1045	1940400	keystroke	i	n/a
970.5	0.1195	1941000	keystroke	c	n/a
970.8595	0.09	1941719	keystroke	e	n/a
971.085	0.1045	1942170	keystroke	d	n/a
971.9695	0.1045	1943939	keystroke	Key.enter	n/a
972.081	11.1705	1944162	prompt	n/a	total categories burst canal\n
973.11	0.09	1946220	keystroke	t	n/a
973.41	0.135	1946820	keystroke	o	n/a
973.59	0.105	1947180	keystroke	t	n/a
973.86	0.18	1947720	keystroke	a	n/a
974.025	0.15	1948050	keystroke	l	n/a
974.34	0.15	1948680	keystroke	Key.space	n/a
974.61	0.09	1949220	keystroke	c	n/a
974.865	0.165	1949730	keystroke	a	n/a
975.18	0.119	1950360	keystroke	t	n/a
975.435	0.15	1950870	keystroke	e	n/a
975.809	0.181	1951618	keystroke	f	n/a
976.904	0.135	1953808	keystroke	Key.backspace	n/a
977.19	0.09	1954380	keystroke	g	n/a
977.43	0.12	1954860	keystroke	o	n/a
977.64	0.134	1955280	keystroke	r	n/a
977.894	0.121	1955788	keystroke	i	n/a
978.075	0.105	1956150	keystroke	e	n/a
978.3295	0.1805	1956659	keystroke	s	n/a
978.54	0.18	1957080	keystroke	Key.space	n/a
978.81	0.15	1957620	keystroke	b	n/a
979.065	0.076	1958130	keystroke	u	n/a
979.29	0.105	1958580	keystroke	r	n/a
979.5895	0.165	1959179	keystroke	s	n/a
979.965	0.1045	1959930	keystroke	t	n/a
980.1895	0.1495	1960379	keystroke	Key.space	n/a
980.565	0.03	1961130	keystroke	c	n/a
980.7	0.1645	1961400	keystroke	a	n/a
981.2395	0.15	1962479	keystroke	n	n/a
981.5095	0.1655	1963019	keystroke	a	n/a
982.65	0.15	1965300	keystroke	l	n/a
983.114	0.1355	1966228	keystroke	Key.enter	n/a
983.2565	13.405	1966513	prompt	n/a	nirvana toolkit doctrine titles\n
984.465	0.09	1968930	keystroke	n	n/a
984.7345	0.1205	1969469	keystroke	i	n/a
984.885	0.089	1969770	keystroke	r	n/a
985.23	0.09	1970460	keystroke	v	n/a
985.635	0.044	1971270	keystroke	n	n/a
986.6245	0.12	1973249	keystroke	Key.backspace	n/a
986.8795	0.15	1973759	keystroke	a	n/a
987.465	0.1195	1974930	keystroke	n	n/a
987.6895	0.165	1975379	keystroke	a	n/a
988.0945	0.18	1976189	keystroke	Key.space	n/a
988.844	0.106	1977688	keystroke	t	n/a
989.145	0.105	1978290	keystroke	o	n/a
989.369	0.106	1978738	keystroke	o	n/a
989.6845	0.12	1979369	keystroke	l	n/a
989.955	0.0895	1979910	keystroke	k	n/a
990.2545	0.09	1980509	keystroke	i	n/a
990.4345	0.1055	1980869	keystroke	t	n/a
990.84	0.15	1981680	keystroke	Key.space	n/a
991.185	0.12	1982370	keystroke	d	n/a
991.3645	0.15	1982729	keystroke	o	n/a
991.62	0.195	1983240	keystroke	c	n/a
992.0695	0.075	1984139	keystroke	t	n/a
992.3245	0.12	1984649	keystroke	r	n/a
992.4895	0.1055	1984979	keystroke	i	n/a
992.7755	0.1045	1985551	keystroke	n	n/a
992.969	0.105	1985938	keystroke	e	n/a
993.3295	0.1495	1986659	keystroke	Key.space	n/a
993.6595	0.075	1987319	keystroke	t	n/a
993.84	0.12	1987680	keystroke	i	n/a
994.095	0.134	1988190	keystroke	t	n/a
994.365	0.1345	1988730	keystroke	l	n/a
994.545	0.1195	1989090	keystroke	e	n/a
995.22	0.165	1990440	keystroke	s	n/a
996.525	0.1345	1993050	keystroke	Key.enter	n/a
996.666	9.775	1993332	prompt	n/a	join volumes kinase chose\n
997.7695	0.1345	1995539	keystroke	j	n/a
997.98	0.15	1995960	keystroke	o	n/a
998.2345	0.0755	1996469	keystroke	i	n/a
998.4895	0.12	1996979	keystroke	n	n/a
998.909	0.1505	1997818	keystroke	Key.space	n/a
999.9595	0.15	1999919	keystroke	v	n/a
1000.2905	0.134	2000581	keystroke	o	n/a
1000.62	0.1495	2001240	keystroke	l	n/a
1000.9645	0.0905	2001929	keystroke	u	n/a
1001.2495	0.1205	2002499	keystroke	m	n/a
1001.5795	0.075	2003159	keystroke	e	n/a
1001.8345	0.1495	2003669	keystroke	s	n/a
1002.1495	0.135	2004299	keystroke	Key.space	n/a
1002.449	0.105	2004898	keystroke	k	n/a
1002.78	0.059	2005560	keystroke	i	n/a
1003.155	0.104	2006310	keystroke	n	n/a
1003.4395	0.165	2006879	keystroke	a	n/a
1003.694	0.12	2007388	keystroke	s	n/a
1003.995	0.1195	2007990	keystroke	e	n/a
1004.249	0.1355	2008498	keystroke	Key.space	n/a
1004.49	0.165	2008980	keystroke	c	n/a
1004.6695	0.0895	2009339	keystroke	h	n/a
1004.924	0.166	2009848	keystroke	o	n/a
1005.1345	0.12	2010269	keystroke	s	n/a
1005.4045	0.135	2010809	keystroke	e	n/a
1006.3345	0.105	2012669	keystroke	Key.enter	n/a
1006.4465	17.0955	2012893	prompt	n/a	alabama unsubscribe ghana cube\n
1007.325	0.195	2014650	keystroke	a	n/a
1008.3295	0.12	2016659	keystroke	l	n/a
1008.5545	0.135	2017109	keystroke	a	n/a
1008.8545	0.135	2017709	keystroke	b	n/a
1009.1395	0.045	2018279	keystroke	a	n/a
1009.3795	0.1055	2018759	keystroke	m	n/a
1010.5345	0.1805	2021069	keystroke	a	n/a
1011.0295	0.135	2022059	keystroke	Key.space	n/a
1011.899	0.105	2023798	keystroke	u	n/a
1012.2745	0.105	2024549	keystroke	n	n/a
1012.649	0.15	2025298	keystroke	s	n/a
1012.875	0.104	2025750	keystroke	u	n/a
1013.13	0.135	2026260	keystroke	b	n/a
1014.825	0.195	2029650	keystroke	c	n/a
1015.6645	0.1495	2031329	keystroke	Key.backspace	n/a
1015.89	0.135	2031780	keystroke	s	n/a
1016.1595	0.1655	2032319	keystroke	c	n/a
1016.5495	0.1205	2033099	keystroke	r	n/a
1016.715	0.1195	2033430	keystroke	i	n/a
1016.9545	0.135	2033909	keystroke	b	n/a
1017.2395	0.165	2034479	keystroke	e	n/a
1017.675	0.1195	2035350	keystroke	Key.space	n/a
1018.92	0.149	2037840	keystroke	g	n/a
1019.309	0.121	2038618	keystroke	h	n/a
1019.5945	0.211	2039189	keystroke	a	n/a
1020.705	0.1355	2041410	keystroke	n	n/a
1020.855	0.18	2041710	keystroke	a	n/a
1021.125	0.18	2042250	keystroke	Key.space	n/a
1021.38	0.179	2042760	keystroke	c	n/a
1021.665	0.12	2043330	keystroke	u	n/a
1021.9045	0.135	2043809	keystroke	b	n/a
1022.205	0.1495	2044410	keystroke	e	n/a
1023.45	0.0895	2046900	keystroke	Key.enter	n/a
1023.547	11.5595	2047094	prompt	n/a	epson acne mountains treating\n
1024.815	0.12	2049630	keystroke	e	n/a
1025.31	0.165	2050620	keystroke	p	n/a
1025.595	0.1195	2051190	keystroke	s	n/a
1025.849	0.105	2051698	keystroke	o	n/a
1026.795	0.135	2053590	keystroke	n	n/a
1027.0795	0.15	2054159	keystroke	Key.space	n/a
1027.2895	0.1505	2054579	keystroke	a	n/a
1027.6045	0.1955	2055209	keystroke	c	n/a
1027.8895	0.1505	2055779	keystroke	n	n/a
1028.115	0.1955	2056230	keystroke	e	n/a
1028.3995	0.1955	2056799	keystroke	Key.space	n/a
1029.51	0.1345	2059020	keystroke	m	n/a
1029.7945	0.165	2059589	keystroke	o	n/a
1030.065	0.0745	2060130	keystroke	u	n/a
1030.3195	0.12	2060639	keystroke	n	n/a
1030.56	0.105	2061120	keystroke	t	n/a
1030.784	0.211	2061568	keystroke	a	n/a
1030.98	0.089	2061960	keystroke	i	n/a
1031.2345	0.105	2062469	keystroke	n	n/a
1031.5195	0.18	2063039	keystroke	s	n/a
1031.8945	0.1495	2063789	keystroke	Key.space	n/a
1032.194	0.1055	2064388	keystroke	t	n/a
1032.4645	0.1195	2064929	keystroke	r	n/a
1032.809	0.12	2065618	keystroke	e	n/a
1033.08	0.165	2066160	keystroke	a	n/a
1033.4695	0.15	2066939	keystroke	t	n/a
1033.6645	0.135	2067329	keystroke	i	n/a
1033.9195	0.1345	2067839	keystroke	n	n/a
1034.144	0.135	2068288	keystroke	g	n/a
1034.984	0.121	2069968	keystroke	Key.enter	n/a
1035.1115	10.72	2070223	prompt	n/a	enhanced abortion budgets warming\n
1035.9295	0.1355	2071859	keystroke	e	n/a
1036.1245	0.1205	2072249	keystroke	n	n/a
1036.4095	0.0905	2072819	keystroke	h	n/a
1036.62	0.1345	2073240	keystroke	a	n/a
1036.74	0.1345	2073480	keystroke	n	n/a
1036.9795	0.12	2073959	keystroke	c	n/a
1037.2795	0.09	2074559	keystroke	e	n/a
1037.5345	0.1355	2075069	keystroke	d	n/a
1037.7445	0.195	2075489	keystroke	Key.space	n/a
1038.0145	0.18	2076029	keystroke	a	n/a
1038.3295	0.135	2076659	keystroke	b	n/a
1039.5745	0.18	2079149	keystroke	o	n/a
1039.875	0.0595	2079750	keystroke	r	n/a
1040.1895	0.12	2080379	keystroke	t	n/a
1040.3695	0.1205	2080739	keystroke	i	n/a
1040.58	0.1345	2081160	keystroke	o	n/a
1040.8195	0.135	2081639	keystroke	n	n/a
1041.1645	0.15	2082329	keystroke	Key.space	n/a
1041.4495	0.105	2082899	keystroke	b	n/a
1041.645	0.12	2083290	keystroke	u	n/a
1041.87	0.1645	2083740	keystroke	d	n/a
1042.17	0.1195	2084340	keystroke	g	n/a
1042.3945	0.15	2084789	keystroke	e	n/a
1042.679	0.1055	2085358	keystroke	t	n/a
1042.994	0.1505	2085988	keystroke	s	n/a
1043.2195	0.195	2086439	keystroke	Key.space	n/a
1043.4595	0.09	2086919	keystroke	w	n/a
1043.6995	0.18	2087399	keystroke	a	n/a
1043.9695	0.105	2087939	keystroke	r	n/a
1044.21	0.1345	2088420	keystroke	m	n/a
1044.495	0.0895	2088990	keystroke	i	n/a
1044.719	0.121	2089438	keystroke	n	n/a
1044.944	0.106	2089888	keystroke	g	n/a
1045.725	0.1045	2091450	keystroke	Key.enter	n/a
1045.8365	15.49	2091673	prompt	n/a	environments accommodations desire samples\n
1046.834	0.1055	2093668	keystroke	e	n/a
1047.0595	0.1205	2094119	keystroke	n	n/a
1047.3295	0.1355	2094659	keystroke	v	n/a
1047.57	0.12	2095140	keystroke	i	n/a
1047.824	0.136	2095648	keystroke	r	n/a
1048.08	0.225	2096160	keystroke	o	n/a
1049.085	0.119	2098170	keystroke	n	n/a
1049.3995	0.135	2098799	keystroke	m	n/a
1049.6395	0.165	2099279	keystroke	e	n/a
1049.7745	0.135	2099549	keystroke	n	n/a
1050.0295	0.075	2100059	keystroke	t	n/a
1050.3295	0.165	2100659	keystroke	s	n/a
1050.5395	0.15	2101079	keystroke	Key.space	n/a
1050.765	0.1345	2101530	keystroke	a	n/a
1051.2445	0.015	2102489	keystroke	c	n/a
1051.3495	0.12	2102699	keystroke	c	n/a
1053.18	0.18	2106360	keystroke	o	n/a
1053.8845	0.1645	2107769	keystroke	m	n/a
1054.154	0.121	2108308	keystroke	m	n/a
1054.41	0.1945	2108820	keystroke	o	n/a
1054.664	0.15	2109328	keystroke	d	n/a
1054.9345	0.165	2109869	keystroke	a	n/a
1055.2645	0.1195	2110529	keystroke	t	n/a
1056.2995	0.045	2112599	keystroke	i	n/a
1056.3895	0.1805	2112779	keystroke	o	n/a
1056.615	0.135	2113230	keystroke	n	n/a
1056.8545	0.135	2113709	keystroke	s	n/a
1057.0945	0.18	2114189	keystroke	Key.space	n/a
1057.3345	0.1205	2114669	keystroke	d	n/a
1057.6045	0.09	2115209	keystroke	e	n/a
1057.8295	0.165	2115659	keystroke	s	n/a
1058.0395	0.1505	2116079	keystroke	i	n/a
1058.309	0.12	2116618	keystroke	r	n/a
1058.534	0.136	2117068	keystroke	e	n/a
1058.7295	0.195	2117459	keystroke	Key.space	n/a
1058.9695	0.135	2117939	keystroke	s	n/a
1059.2095	0.195	2118419	keystroke	a	n/a
1059.3745	0.165	2118749	keystroke	m	n/a
1059.7645	0.12	2119529	keystroke	p	n/a
1060.0795	0.195	2120159	keystroke	l	n/a
1060.2595	0.075	2120519	keystroke	e	n/a
1060.47	0.1345	2120940	keystroke	s	n/a
1061.2195	0.1045	2122439	keystroke	Key.enter	n/a
1061.3325	8.559	2122665	prompt	n/a	mail warrior guilty wars\n
1062.405	0.134	2124810	keystroke	m	n/a
1062.629	0.1955	2125258	keystroke	a	n/a
1062.81	0.105	2125620	keystroke	i	n/a
1063.095	0.1345	2126190	keystroke	l	n/a
1063.4095	0.135	2126819	keystroke	Key.space	n/a
1064.0845	0.09	2128169	keystroke	w	n/a
1064.309	0.1955	2128618	keystroke	a	n/a
1064.6095	0.06	2129219	keystroke	r	n/a
1064.8045	0.105	2129609	keystroke	r	n/a
1064.9845	0.15	2129969	keystroke	i	n/a
1065.2995	0.18	2130599	keystroke	o	n/a
1065.644	0.105	2131288	keystroke	r	n/a
1065.839	0.1655	2131678	keystroke	Key.space	n/a
1066.08	0.1195	2132160	keystroke	g	n/a
1066.515	0.1495	2133030	keystroke	u	n/a
1066.799	0.121	2133598	keystroke	i	n/a
1067.0695	0.15	2134139	keystroke	l	n/a
1067.3545	0.1355	2134709	keystroke	t	n/a
1067.5045	0.075	2135009	keystroke	y	n/a
1067.7895	0.149	2135579	keystroke	Key.space	n/a
1067.9995	0.1055	2135999	keystroke	w	n/a
1068.24	0.15	2136480	keystroke	a	n/a
1068.5245	0.12	2137049	keystroke	r	n/a
1068.7945	0.15	2137589	keystroke	s	n/a
1069.7545	0.1345	2139509	keystroke	Key.enter	n/a
1069.896	15.4	2139792	prompt	n/a	analysts context regularly dolls\n
1070.7295	0.195	2141459	keystroke	a	n/a
1070.955	0.119	2141910	keystroke	n	n/a
1071.224	0.165	2142448	keystroke	a	n/a
1072.649	0.2105	2145298	keystroke	l	n/a
1073.219	0.0305	2146438	keystroke	y	n/a
1073.579	0.181	2147158	keystroke	s	n/a
1073.925	0.09	2147850	keystroke	t	n/a
1074.1795	0.15	2148359	keystroke	s	n/a
1074.4645	0.18	2148929	keystroke	Key.space	n/a
1074.6895	0.18	2149379	keystroke	c	n/a
1075.815	0.1345	2151630	keystroke	o	n/a
1076.085	0.1195	2152170	keystroke	n	n/a
1076.3395	0.105	2152679	keystroke	t	n/a
1076.624	0.12	2153248	keystroke	e	n/a
1076.969	0.2105	2153938	keystroke	x	n/a
1077.404	0.12	2154808	keystroke	t	n/a
1079.009	0.2705	2158018	keystroke	Key.space	n/a
1079.5645	0.135	2159129	keystroke	r	n/a
1079.82	0.1495	2159640	keystroke	e	n/a
1080.239	0.1055	2160478	keystroke	g	n/a
1080.6295	0.15	2161259	keystroke	u	n/a
1081.1545	0.1655	2162309	keystroke	l	n/a
1081.425	0.2095	2162850	keystroke	a	n/a
1081.6795	0.12	2163359	keystroke	r	n/a
1081.9345	0.165	2163869	keystroke	l	n/a
1082.2795	0.105	2164559	keystroke	y	n/a
1082.5795	0.1495	2165159	keystroke	Key.space	n/a
1082.76	0.1645	2165520	keystroke	d	n/a
1083.0295	0.135	2166059	keystroke	o	n/a
1083.3585	0.0915	2166717	keystroke	l	n/a
1083.5995	0.135	2167199	keystroke	l	n/a
1084.1395	0.15	2168279	keystroke	s	n/a
1085.1445	0.15	2170289	keystroke	Key.enter	n/a
1085.3	14.816	2170600	prompt	n/a	adipex exchanges mortgages difficult\n
1086.5085	0.09	2173017	keystroke	a	n/a
1086.7945	0.1505	2173589	keystroke	d	n/a
1087.215	0.1195	2174430	keystroke	i	n/a
1087.5145	0.0295	2175029	keystroke	p	n/a
1087.6945	0.0905	2175389	keystroke	e	n/a
1088.025	0.164	2176050	keystroke	x	n/a
1088.7435	0.166	2177487	keystroke	Key.space	n/a
1089.194	0.1205	2178388	keystroke	e	n/a
1089.644	0.12	2179288	keystroke	x	n/a
1089.9885	0.166	2179977	keystroke	c	n/a
1090.305	0.0745	2180610	keystroke	h	n/a
1090.4845	0.18	2180969	keystroke	a	n/a
1090.6195	0.15	2181239	keystroke	n	n/a
1090.8295	0.135	2181659	keystroke	g	n/a
1091.0695	0.12	2182139	keystroke	e	n/a
1091.325	0.1645	2182650	keystroke	s	n/a
1091.6095	0.15	2183219	keystroke	Key.space	n/a
1091.895	0.1345	2183790	keystroke	m	n/a
1092.3295	0.06	2184659	keystroke	r	n/a
1093.3345	0.105	2186669	keystroke	Key.backspace	n/a
1093.7695	0.12	2187539	keystroke	o	n/a
1094.0095	0.06	2188019	keystroke	r	n/a
1094.3845	0.1045	2188769	keystroke	t	n/a
1094.6995	0.1355	2189399	keystroke	g	n/a
1094.9095	0.1795	2189819	keystroke	a	n/a
1095.149	0.1205	2190298	keystroke	g	n/a
1095.374	0.105	2190748	keystroke	e	n/a
1095.6145	0.0595	2191229	keystroke	s	n/a
1095.7795	0.1795	2191559	keystroke	Key.space	n/a
1096.245	0.134	2192490	keystroke	d	n/a
1096.409	0.1505	2192818	keystroke	i	n/a
1096.679	0.105	2193358	keystroke	s	n/a
1097.5645	0.12	2195129	keystroke	Key.backspace	n/a
1097.8195	0.06	2195639	keystroke	f	n/a
1098.0145	0.1055	2196029	keystroke	f	n/a
1098.135	0.1345	2196270	keystroke	i	n/a
1098.3595	0.165	2196719	keystroke	c	n/a
1098.5695	0.075	2197139	keystroke	u	n/a
1098.8245	0.1355	2197649	keystroke	l	n/a
1098.9895	0.0905	2197979	keystroke	t	n/a
1099.9945	0.12	2199989	keystroke	Key.enter	n/a
1100.1255	11.241	2200251	prompt	n/a	marsh advertising texts lindsay\n
1101.0895	0.12	2202179	keystroke	m	n/a
1101.239	0.21	2202478	keystroke	a	n/a
1101.524	0.075	2203048	keystroke	r	n/a
1101.7495	0.1645	2203499	keystroke	s	n/a
1101.899	0.135	2203798	keystroke	h	n/a
1102.169	0.15	2204338	keystroke	Key.space	n/a
1102.41	0.1495	2204820	keystroke	a	n/a
1102.664	0.166	2205328	keystroke	d	n/a
1103.054	0.1655	2206108	keystroke	v	n/a
1103.37	0.18	2206740	keystroke	e	n/a
1103.5645	0.12	2207129	keystroke	r	n/a
1103.8495	0.165	2207699	keystroke	t	n/a
1104.0595	0.1205	2208119	keystroke	i	n/a
1104.2995	0.1795	2208599	keystroke	s	n/a
1104.4345	0.12	2208869	keystroke	i	n/a
1105.9345	0.15	2211869	keystroke	n	n/a
1106.1145	0.135	2212229	keystroke	g	n/a
1106.3095	0.18	2212619	keystroke	Key.space	n/a
1106.5345	0.1205	2213069	keystroke	t	n/a
1106.76	0.1045	2213520	keystroke	e	n/a
1107.3595	0.1505	2214719	keystroke	x	n/a
1107.78	0.0895	2215560	keystroke	t	n/a
1108.0495	0.12	2216099	keystroke	s	n/a
1108.2445	0.195	2216489	keystroke	Key.space	n/a
1108.635	0.134	2217270	keystroke	l	n/a
1108.9195	0.075	2217839	keystroke	i	n/a
1109.1295	0.1205	2218259	keystroke	n	n/a
1109.3845	0.1205	2218769	keystroke	d	n/a
1109.6395	0.12	2219279	keystroke	s	n/a
1109.9245	0.165	2219849	keystroke	a	n/a
1110.1945	0.075	2220389	keystroke	y	n/a
1111.3495	0.0145	2222699	keystroke	Key.enter	n/a
1111.3715	9.76	2222743	prompt	n/a	inter suggestion intervals pulse\n
1112.399	0.0905	2224798	keystroke	i	n/a
1112.6845	0.09	2225369	keystroke	n	n/a
1112.895	0.0745	2225790	keystroke	t	n/a
1113.075	0.1345	2226150	keystroke	e	n/a
1113.3745	0.12	2226749	keystroke	r	n/a
1113.5545	0.1495	2227109	keystroke	Key.space	n/a
1113.8095	0.135	2227619	keystroke	s	n/a
1113.9895	0.0895	2227979	keystroke	u	n/a
1114.2445	0.09	2228489	keystroke	g	n/a
1114.4545	0.105	2228909	keystroke	g	n/a
1114.7095	0.0745	2229419	keystroke	e	n/a
1114.949	0.15	2229898	keystroke	s	n/a
1115.2795	0.0895	2230559	keystroke	t	n/a
1115.474	0.106	2230948	keystroke	i	n/a
1115.715	0.105	2231430	keystroke	o	n/a
1115.94	0.1195	2231880	keystroke	n	n/a
1116.419	0.1205	2232838	keystroke	Key.space	n/a
1116.689	0.09	2233378	keystroke	i	n/a
1116.9145	0.105	2233829	keystroke	n	n/a
1117.1695	0.135	2234339	keystroke	t	n/a
1117.4245	0.135	2234849	keystroke	e	n/a
1117.6795	0.105	2235359	keystroke	r	n/a
1118.0245	0.1355	2236049	keystroke	v	n/a
1118.265	0.15	2236530	keystroke	a	n/a
1118.4	0.1345	2236800	keystroke	l	n/a
1118.625	0.15	2237250	keystroke	s	n/a
1118.7595	0.15	2237519	keystroke	Key.space	n/a
1119.0445	0.135	2238089	keystroke	p	n/a
1119.3145	0.0895	2238629	keystroke	u	n/a
1119.599	0.135	2239198	keystroke	l	n/a
1119.779	0.136	2239558	keystroke	s	n/a
1120.049	0.1355	2240098	keystroke	e	n/a
1120.994	0.1355	2241988	keystroke	Key.enter	n/a
1121.136	17.5755	2242272	prompt	n/a	helping immigrants screensaver peninsula\n
1122.18	0.074	2244360	keystroke	h	n/a
1122.404	0.1055	2244808	keystroke	e	n/a
1122.54	0.135	2245080	keystroke	l	n/a
1123.62	0.15	2247240	keystroke	p	n/a
1123.9345	0.0905	2247869	keystroke	i	n/a
1124.3395	0.0755	2248679	keystroke	g	n/a
1125.2095	0.105	2250419	keystroke	Key.backspace	n/a
1125.93	0.119	2251860	keystroke	n	n/a
1126.124	0.151	2252248	keystroke	g	n/a
1126.319	0.105	2252638	keystroke	Key.space	n/a
1126.56	0.09	2253120	keystroke	i	n/a
1126.829	0.0905	2253658	keystroke	m	n/a
1127.0245	0.09	2254049	keystroke	m	n/a
1127.249	0.1355	2254498	keystroke	i	n/a
1127.49	0.074	2254980	keystroke	g	n/a
1127.7445	0.09	2255489	keystroke	r	n/a
1127.954	0.1805	2255908	keystroke	a	n/a
1128.075	0.135	2256150	keystroke	n	n/a
1128.284	0.106	2256568	keystroke	t	n/a
1128.569	0.1505	2257138	keystroke	s	n/a
1128.749	0.151	2257498	keystroke	Key.space	n/a
1129.005	0.105	2258010	keystroke	s	n/a
1129.335	0.1795	2258670	keystroke	c	n/a
1129.7995	0.1505	2259599	keystroke	r	n/a
1130.0695	0.09	2260139	keystroke	e	n/a
1130.2495	0.1355	2260499	keystroke	e	n/a
1130.37	0.135	2260740	keystroke	n	n/a
1130.6245	0.1505	2261249	keystroke	s	n/a
1130.91	0.1345	2261820	keystroke	a	n/a
1131.1495	0.15	2262299	keystroke	v	n/a
1131.405	0.1945	2262810	keystroke	e	n/a
1132.0045	0.105	2264009	keystroke	r	n/a
1132.364	0.1955	2264728	keystroke	Key.space	n/a
1132.784	0.196	2265568	keystroke	p	n/a
1133.0695	0.1045	2266139	keystroke	e	n/a
1133.339	0.1355	2266678	keystroke	n	n/a
1133.8795	0.075	2267759	keystroke	n	n/a
1135.0495	0.12	2270099	keystroke	Key.backspace	n/a
1135.4695	0.075	2270939	keystroke	i	n/a
1135.679	0.136	2271358	keystroke	n	n/a
1135.98	0.1495	2271960	keystroke	s	n/a
1136.1	0.09	2272200	keystroke	u	n/a
1136.3695	0.1205	2272739	keystroke	l	n/a
1136.52	0.135	2273040	keystroke	a	n/a
1138.5445	0.165	2277089	keystroke	Key.enter	n/a
1138.716	11.575	2277432	prompt	n/a	frequency international jade imaging\n
1140.09	0.1045	2280180	keystroke	f	n/a
1140.3595	0.1355	2280719	keystroke	r	n/a
1140.539	0.15	2281078	keystroke	e	n/a
1140.87	0.165	2281740	keystroke	q	n/a
1141.035	0.0895	2282070	keystroke	u	n/a
1141.229	0.136	2282458	keystroke	e	n/a
1141.35	0.12	2282700	keystroke	n	n/a
1141.8745	0.165	2283749	keystroke	c	n/a
1142.1005	0.089	2284201	keystroke	y	n/a
1142.459	0.1205	2284918	keystroke	Key.space	n/a
1142.7595	0.1055	2285519	keystroke	i	n/a
1143.0445	0.105	2286089	keystroke	n	n/a
1143.2695	0.12	2286539	keystroke	t	n/a
1143.5095	0.1805	2287019	keystroke	e	n/a
1143.7195	0.135	2287439	keystroke	r	n/a
1143.9445	0.12	2287889	keystroke	n	n/a
1144.1695	0.165	2288339	keystroke	a	n/a
1144.4395	0.135	2288879	keystroke	t	n/a
1144.605	0.1345	2289210	keystroke	i	n/a
1144.8595	0.135	2289719	keystroke	o	n/a
1145.1295	0.135	2290259	keystroke	n	n/a
1145.3395	0.135	2290679	keystroke	a	n/a
1145.5195	0.1645	2291039	keystroke	l	n/a
1145.759	0.12	2291518	keystroke	Key.space	n/a
1145.969	0.1055	2291938	keystroke	j	n/a
1146.119	0.136	2292238	keystroke	a	n/a
1146.39	0.105	2292780	keystroke	d	n/a
1146.66	0.134	2293320	keystroke	e	n/a
1146.7795	0.15	2293559	keystroke	Key.space	n/a
1147.0345	0.0905	2294069	keystroke	i	n/a
1147.38	0.135	2294760	keystroke	a	n/a
1148.2345	0.09	2296469	keystroke	Key.backspace	n/a
1148.5645	0.105	2297129	keystroke	m	n/a
1148.7295	0.12	2297459	keystroke	a	n/a
1148.9395	0.15	2297879	keystroke	g	n/a
1149.1495	0.09	2298299	keystroke	i	n/a
1149.3445	0.105	2298689	keystroke	n	n/a
1149.4945	0.12	2298989	keystroke	g	n/a
1150.1695	0.12	2300339	keystroke	Key.enter	n/a
1150.2945	15.252	2300589	prompt	n/a	colleagues involvement striking pair\n
1151.1295	0.15	2302259	keystroke	c	n/a
1151.3245	0.1345	2302649	keystroke	o	n/a
1151.6395	0.105	2303279	keystroke	l	n/a
1151.8795	0.105	2303759	keystroke	l	n/a
1151.9385	0.136	2303877	keystroke	e	n/a
1152.2235	0.1365	2304447	keystroke	g	n/a
1153.139	0.1355	2306278	keystroke	Key.backspace	n/a
1153.35	0.1645	2306700	keystroke	a	n/a
1153.5735	0.151	2307147	keystroke	g	n/a
1153.8595	0.1205	2307719	keystroke	u	n/a
1154.0085	0.0905	2308017	keystroke	e	n/a
1154.2345	0.165	2308469	keystroke	s	n/a
1154.3395	0.1195	2308679	keystroke	Key.space	n/a
1154.58	0.0895	2309160	keystroke	i	n/a
1154.804	0.1055	2309608	keystroke	n	n/a
1155.029	0.1655	2310058	keystroke	v	n/a
1157.4615	0.088	2314923	keystroke	o	n/a
1157.835	0.1345	2315670	keystroke	l	n/a
1158.389	0.166	2316778	keystroke	v	n/a
1158.6895	0.18	2317379	keystroke	e	n/a
1158.9295	0.105	2317859	keystroke	m	n/a
1159.1245	0.15	2318249	keystroke	e	n/a
1159.2295	0.105	2318459	keystroke	n	n/a
1159.4395	0.12	2318879	keystroke	t	n/a
1159.5895	0.135	2319179	keystroke	Key.space	n/a
1159.8145	0.15	2319629	keystroke	s	n/a
1160.295	0.09	2320590	keystroke	r	n/a
1161.224	0.15	2322448	keystroke	Key.backspace	n/a
1161.479	0.0605	2322958	keystroke	t	n/a
1161.689	0.12	2323378	keystroke	r	n/a
1161.839	0.121	2323678	keystroke	i	n/a
1162.124	0.121	2324248	keystroke	k	n/a
1162.4245	0.06	2324849	keystroke	i	n/a
1162.65	0.0295	2325300	keystroke	n	n/a
1162.7245	0.135	2325449	keystroke	g	n/a
1163.624	0.135	2327248	keystroke	Key.space	n/a
1163.955	0.134	2327910	keystroke	p	n/a
1164.269	0.1505	2328538	keystroke	a	n/a
1164.4045	0.075	2328809	keystroke	i	n/a
1164.7345	0.075	2329469	keystroke	r	n/a
1165.4395	0.105	2330879	keystroke	Key.enter	n/a
1165.551	22.3005	2331102	prompt	n/a	mitsubishi sick matt airfare\n
1166.5805	0.104	2333161	keystroke	m	n/a
1166.7895	0.135	2333579	keystroke	i	n/a
1167.0595	0.075	2334119	keystroke	t	n/a
1167.3145	0.165	2334629	keystroke	s	n/a
1167.4945	0.12	2334989	keystroke	u	n/a
1168.694	0.165	2337388	keystroke	b	n/a
1168.935	0.149	2337870	keystroke	i	n/a
1169.16	0.1495	2338320	keystroke	d	n/a
1169.25	0.105	2338500	keystroke	h	n/a
1169.5945	0.1505	2339189	keystroke	i	n/a
1170.855	0.1045	2341710	keystroke	Key.backspace	n/a
1171.0645	0.1205	2342129	keystroke	Key.backspace	n/a
1171.2745	0.135	2342549	keystroke	Key.backspace	n/a
1171.515	0.1345	2343030	keystroke	Key.backspace	n/a
1171.8595	0.45	2343719	keystroke	Key.right	n/a
1171.9495	0.1655	2343899	keystroke	Key.backspace	n/a
1174.727	0.118	2349454	keystroke	b	n/a
1174.875	0.12	2349750	keystroke	i	n/a
1175.0995	0.165	2350199	keystroke	d	n/a
1175.1595	0.106	2350319	keystroke	h	n/a
1175.385	0.134	2350770	keystroke	i	n/a
1175.7895	0.195	2351579	keystroke	Key.space	n/a
1177.064	0.136	2354128	keystroke	Key.backspace	n/a
1177.289	0.1055	2354578	keystroke	Key.backspace	n/a
1177.5	0.1345	2355000	keystroke	Key.backspace	n/a
1177.8895	0.165	2355779	keystroke	Key.backspace	n/a
1180.2615	0.0735	2360523	keystroke	s	n/a
1180.4095	0.1205	2360819	keystroke	h	n/a
1182.9325	0.042	2365865	keystroke	i	n/a
1183.095	0.1795	2366190	keystroke	Key.space	n/a
1183.3495	0.1505	2366699	keystroke	s	n/a
1183.5005	0.1045	2367001	keystroke	i	n/a
1183.755	0.1795	2367510	keystroke	c	n/a
1183.875	0.1195	2367750	keystroke	k	n/a
1184.0845	0.15	2368169	keystroke	Key.space	n/a
1184.3555	0.119	2368711	keystroke	m	n/a
1184.52	0.18	2369040	keystroke	a	n/a
1184.865	0.06	2369730	keystroke	t	n/a
1185.0295	0.12	2370059	keystroke	t	n/a
1185.2245	0.1805	2370449	keystroke	Key.space	n/a
1185.435	0.1945	2370870	keystroke	a	n/a
1185.66	0.1045	2371320	keystroke	i	n/a
1185.8695	0.1055	2371739	keystroke	r	n/a
1186.1395	0.135	2372279	keystroke	f	n/a
1186.3495	0.195	2372699	keystroke	a	n/a
1186.604	0.151	2373208	keystroke	r	n/a
1186.829	0.1965	2373658	keystroke	e	n/a
1187.744	0.105	2375488	keystroke	Key.enter	n/a
1187.855	7.812	2375710	prompt	n/a	frame leading enters wholesale\n
1188.675	0.12	2377350	keystroke	f	n/a
1188.93	0.119	2377860	keystroke	r	n/a
1189.109	0.1805	2378218	keystroke	a	n/a
1189.275	0.1205	2378550	keystroke	m	n/a
1189.5	0.1645	2379000	keystroke	e	n/a
1189.77	0.1495	2379540	keystroke	Key.space	n/a
1190.0845	0.151	2380169	keystroke	l	n/a
1190.2645	0.105	2380529	keystroke	e	n/a
1190.5045	0.135	2381009	keystroke	a	n/a
1190.745	0.194	2381490	keystroke	d	n/a
1190.91	0.09	2381820	keystroke	i	n/a
1191.15	0.105	2382300	keystroke	n	n/a
1191.33	0.135	2382660	keystroke	g	n/a
1191.479	0.165	2382958	keystroke	Key.space	n/a
1191.735	0.1645	2383470	keystroke	e	n/a
1191.884	0.106	2383768	keystroke	n	n/a
1192.08	0.15	2384160	keystroke	t	n/a
1192.305	0.1795	2384610	keystroke	e	n/a
1192.455	0.12	2384910	keystroke	r	n/a
1192.7395	0.1655	2385479	keystroke	s	n/a
1192.8885	0.1365	2385777	keystroke	Key.space	n/a
1193.115	0.15	2386230	keystroke	w	n/a
1193.205	0.105	2386410	keystroke	h	n/a
1193.37	0.12	2386740	keystroke	o	n/a
1193.624	0.15	2387248	keystroke	l	n/a
1193.745	0.15	2387490	keystroke	e	n/a
1194.045	0.1345	2388090	keystroke	s	n/a
1194.2845	0.2095	2388569	keystroke	a	n/a
1194.479	0.15	2388958	keystroke	l	n/a
1194.8395	0.1205	2389679	keystroke	e	n/a
1195.5145	0.15	2391029	keystroke	Key.enter	n/a
1195.672	12.444	2391344	prompt	n/a	wonderful holmes employer treaty\n
1196.49	0.1345	2392980	keystroke	w	n/a
1196.7445	0.0905	2393489	keystroke	o	n/a
1196.9545	0.1055	2393909	keystroke	n	n/a
1197.1495	0.105	2394299	keystroke	d	n/a
1197.3895	0.225	2394779	keystroke	e	n/a
1197.6	0.1345	2395200	keystroke	r	n/a
1197.885	0.15	2395770	keystroke	f	n/a
1198.0495	0.075	2396099	keystroke	u	n/a
1198.3045	0.195	2396609	keystroke	l	n/a
1198.5145	0.15	2397029	keystroke	Key.space	n/a
1199.16	0.12	2398320	keystroke	h	n/a
1199.37	0.1055	2398740	keystroke	o	n/a
1200.72	0.1195	2401440	keystroke	l	n/a
1201.65	0.1195	2403300	keystroke	m	n/a
1201.8745	0.105	2403749	keystroke	e	n/a
1202.115	0.18	2404230	keystroke	s	n/a
1202.4145	0.15	2404829	keystroke	Key.space	n/a
1202.715	0.1345	2405430	keystroke	e	n/a
1202.8645	0.1195	2405729	keystroke	m	n/a
1203.269	0.135	2406538	keystroke	p	n/a
1203.615	0.119	2407230	keystroke	l	n/a
1203.9	0.1345	2407800	keystroke	o	n/a
1204.1695	0.0905	2408339	keystroke	y	n/a
1204.395	0.1505	2408790	keystroke	e	n/a
1204.77	0.135	2409540	keystroke	r	n/a
1205.19	0.164	2410380	keystroke	Key.space	n/a
1205.385	0.1355	2410770	keystroke	t	n/a
1205.7	0.15	2411400	keystroke	r	n/a
1205.955	0.12	2411910	keystroke	e	n/a
1206.21	0.165	2412420	keystroke	a	n/a
1206.4805	0.1335	2412961	keystroke	t	n/a
1206.66	0.105	2413320	keystroke	y	n/a
1207.98	0.1345	2415960	keystroke	Key.enter	n/a
1208.1195	20.052	2416239	prompt	n/a	resources ambassador senators debian\n
1209.15	0.1355	2418300	keystroke	r	n/a
1209.359	0.136	2418718	keystroke	e	n/a
1209.66	0.165	2419320	keystroke	s	n/a
1209.915	0.1955	2419830	keystroke	o	n/a
1210.2	0.12	2420400	keystroke	u	n/a
1210.365	0.1195	2420730	keystroke	r	n/a
1210.665	0.1345	2421330	keystroke	c	n/a
1210.9495	0.1205	2421899	keystroke	e	n/a
1211.895	0.194	2423790	keystroke	s	n/a
1212.21	0.194	2424420	keystroke	Key.space	n/a
1212.45	0.0745	2424900	keystroke	a	n/a
1213.274	0.1505	2426548	keystroke	m	n/a
1213.4995	0.15	2426999	keystroke	b	n/a
1213.6945	0.1805	2427389	keystroke	a	n/a
1214.0095	0.09	2428019	keystroke	s	n/a
1214.2195	0.12	2428439	keystroke	s	n/a
1214.4	0.1795	2428800	keystroke	a	n/a
1214.879	0.196	2429758	keystroke	d	n/a
1215.15	0.1945	2430300	keystroke	i	n/a
1215.375	0.1345	2430750	keystroke	r	n/a
1215.5845	0.1805	2431169	keystroke	Key.space	n/a
1215.8545	0.1355	2431709	keystroke	s	n/a
1216.649	0.0605	2433298	keystroke	Key.backspace	n/a
1216.859	0.12	2433718	keystroke	Key.backspace	n/a
1217.099	0.166	2434198	keystroke	Key.backspace	n/a
1217.474	0.1805	2434948	keystroke	Key.backspace	n/a
1218.285	0.15	2436570	keystroke	o	n/a
1218.4795	0.105	2436959	keystroke	r	n/a
1218.6445	0.165	2437289	keystroke	Key.space	n/a
1218.8395	0.12	2437679	keystroke	s	n/a
1219.08	0.1645	2438160	keystroke	e	n/a
1219.215	0.1195	2438430	keystroke	n	n/a
1219.395	0.1945	2438790	keystroke	a	n/a
1219.7995	0.1205	2439599	keystroke	t	n/a
1219.935	0.1645	2439870	keystroke	i	n/a
1220.325	0.1345	2440650	keystroke	r	n/a
1221.135	0.0895	2442270	keystroke	Key.backspace	n/a
1221.3445	0.09	2442689	keystroke	Key.backspace	n/a
1222.7995	0.0755	2445599	keystroke	r	n/a
1223.985	0.1195	2447970	keystroke	Key.backspace	n/a
1224.4045	0.1505	2448809	keystroke	o	n/a
1224.6295	0.1055	2449259	keystroke	r	n/a
1224.915	0.18	2449830	keystroke	s	n/a
1225.23	0.134	2450460	keystroke	Key.space	n/a
1225.6655	0.1195	2451331	keystroke	d	n/a
1225.935	0.135	2451870	keystroke	e	n/a
1226.264	0.1505	2452528	keystroke	b	n/a
1226.835	0.12	2453670	keystroke	i	n/a
1227.06	0.18	2454120	keystroke	a	n/a
1227.195	0.12	2454390	keystroke	n	n/a
1228.005	0.1645	2456010	keystroke	Key.enter	n/a
1228.179	9.6675	2456358	prompt	n/a	wallpapers scanner rogers gras\n
1228.965	0.12	2457930	keystroke	w	n/a
1229.22	0.165	2458440	keystroke	a	n/a
1229.55	0.105	2459100	keystroke	l	n/a
1229.76	0.135	2459520	keystroke	l	n/a
1230.134	0.1205	2460268	keystroke	p	n/a
1230.3445	0.1505	2460689	keystroke	a	n/a
1230.51	0.1345	2461020	keystroke	p	n/a
1230.7645	0.12	2461529	keystroke	e	n/a
1230.96	0.0895	2461920	keystroke	r	n/a
1231.23	0.1645	2462460	keystroke	s	n/a
1231.47	0.165	2462940	keystroke	Key.space	n/a
1231.815	0.12	2463630	keystroke	s	n/a
1232.04	0.15	2464080	keystroke	c	n/a
1232.82	0.15	2465640	keystroke	a	n/a
1233.03	0.075	2466060	keystroke	n	n/a
1233.255	0.075	2466510	keystroke	n	n/a
1233.375	0.18	2466750	keystroke	e	n/a
1233.645	0.105	2467290	keystroke	r	n/a
1233.8845	0.1655	2467769	keystroke	Key.space	n/a
1234.5	0.12	2469000	keystroke	r	n/a
1234.665	0.195	2469330	keystroke	o	n/a
1234.875	0.15	2469750	keystroke	g	n/a
1235.145	0.165	2470290	keystroke	e	n/a
1235.28	0.12	2470560	keystroke	r	n/a
