onset	duration	sample	value	key	prompt_text
5.561	15.06	11122	prompt	n/a	the quick brown fox jumps over a lazy dog\n
9.76	0.028	19520	keystroke_t	t	n/a
9.848	0.12	19696	keystroke_h	h	n/a
9.983	0.1345	19966	keystroke_e	e	n/a
10.192	0.09	20384	keystroke_Key.space	Key.space	n/a
10.5525	0.09	21105	keystroke_q	q	n/a
10.7625	0.1205	21525	keystroke_u	u	n/a
11.0625	0.1055	22125	keystroke_i	i	n/a
11.258	0.1045	22516	keystroke_c	c	n/a
11.438	0.1345	22876	keystroke_k	k	n/a
11.6775	0.09	23355	keystroke_Key.space	Key.space	n/a
11.9325	0.091	23865	keystroke_b	b	n/a
12.2175	0.105	24435	keystroke_r	r	n/a
12.4425	0.12	24885	keystroke_o	o	n/a
12.6375	0.121	25275	keystroke_w	w	n/a
12.833	0.1195	25666	keystroke_n	n	n/a
13.0725	0.1055	26145	keystroke_Key.space	Key.space	n/a
13.523	0.1045	27046	keystroke_f	f	n/a
13.763	0.105	27526	keystroke_o	o	n/a
14.213	0.135	28426	keystroke_x	x	n/a
14.4685	0.105	28937	keystroke_Key.space	Key.space	n/a
14.7685	0.105	29537	keystroke_j	j	n/a
15.278	0.075	30556	keystroke_u	u	n/a
15.473	0.15	30946	keystroke_m	m	n/a
15.833	0.105	31666	keystroke_p	p	n/a
16.088	0.135	32176	keystroke_s	s	n/a
16.613	0.09	33226	keystroke_Key.space	Key.space	n/a
16.8075	0.151	33615	keystroke_o	o	n/a
17.0935	0.09	34187	keystroke_v	v	n/a
17.3335	0.195	34667	keystroke_e	e	n/a
17.4835	0.089	34967	keystroke_r	r	n/a
17.708	0.105	35416	keystroke_Key.space	Key.space	n/a
17.933	0.09	35866	keystroke_a	a	n/a
18.068	0.09	36136	keystroke_Key.space	Key.space	n/a
18.4425	0.1205	36885	keystroke_l	l	n/a
18.653	0.15	37306	keystroke_a	a	n/a
19.0425	0.15	38085	keystroke_z	z	n/a
19.2525	0.09	38505	keystroke_y	y	n/a
19.4925	0.09	38985	keystroke_Key.space	Key.space	n/a
19.7635	0.09	39527	keystroke_d	d	n/a
19.8985	0.105	39797	keystroke_o	o	n/a
20.168	0.09	40336	keystroke_g	g	n/a
20.513	0.105	41026	keystroke_Key.enter	Key.enter	n/a
20.6255	25.3445	41251	prompt	n/a	collecting prize history boats\n
21.638	0.09	43276	keystroke_c	c	n/a
21.803	0.12	43606	keystroke_o	o	n/a
22.193	0.015	44386	keystroke_t	t	n/a
22.823	0.075	45646	keystroke_Key.backspace	Key.backspace	n/a
23.513	0.09	47026	keystroke_l	l	n/a
23.723	0.105	47446	keystroke_l	l	n/a
23.963	0.135	47926	keystroke_e	e	n/a
24.4285	0.105	48857	keystroke_c	c	n/a
24.6685	0.075	49337	keystroke_t	t	n/a
24.803	0.105	49606	keystroke_i	i	n/a
25.1485	0.105	50297	keystroke_g	g	n/a
25.2825	0.121	50565	keystroke_Key.space	Key.space	n/a
25.598	0.1345	51196	keystroke_p	p	n/a
25.7475	0.121	51495	keystroke_r	r	n/a
25.9575	0.09	51915	keystroke_i	i	n/a
26.4385	0.135	52877	keystroke_z	z	n/a
26.7835	0.105	53567	keystroke_e	e	n/a
26.9335	0.105	53867	keystroke_Key.space	Key.space	n/a
28.568	0.045	57136	keystroke_Key.backspace	Key.backspace	n/a
28.718	0.075	57436	keystroke_Key.backspace	Key.backspace	n/a
28.8985	0.075	57797	keystroke_Key.backspace	Key.backspace	n/a
29.0785	0.09	58157	keystroke_Key.backspace	Key.backspace	n/a
29.2585	0.06	58517	keystroke_Key.backspace	Key.backspace	n/a
29.4235	0.09	58847	keystroke_Key.backspace	Key.backspace	n/a
29.6185	0.0895	59237	keystroke_Key.backspace	Key.backspace	n/a
29.8285	0.0745	59657	keystroke_Key.backspace	Key.backspace	n/a
30.053	0.09	60106	keystroke_Key.backspace	Key.backspace	n/a
30.293	0.105	60586	keystroke_Key.backspace	Key.backspace	n/a
30.833	0.09	61666	keystroke_Key.backspace	Key.backspace	n/a
32.453	0.105	64906	keystroke_c	c	n/a
32.738	0.105	65476	keystroke_t	t	n/a
33.263	0.09	66526	keystroke_i	i	n/a
33.608	0.09	67216	keystroke_g	g	n/a
33.713	0.12	67426	keystroke_Key.space	Key.space	n/a
33.968	0.1345	67936	keystroke_p	p	n/a
35.0775	0.2555	70155	keystroke_Key.backspace	Key.backspace	n/a
35.468	0.06	70936	keystroke_Key.backspace	Key.backspace	n/a
35.663	0.075	71326	keystroke_Key.backspace	Key.backspace	n/a
35.8575	0.09	71715	keystroke_Key.backspace	Key.backspace	n/a
36.0825	0.075	72165	keystroke_Key.backspace	Key.backspace	n/a
36.2775	0.09	72555	keystroke_Key.backspace	Key.backspace	n/a
36.6375	0.075	73275	keystroke_Key.backspace	Key.backspace	n/a
36.8325	0.06	73665	keystroke_Key.backspace	Key.backspace	n/a
38.003	0.105	76006	keystroke_l	l	n/a
38.6335	0.15	77267	keystroke_e	e	n/a
38.918	0.1205	77836	keystroke_c	c	n/a
39.2185	0.12	78437	keystroke_t	t	n/a
40.268	0.0905	80536	keystroke_i	i	n/a
40.4475	0.151	80895	keystroke_n	n	n/a
40.6285	0.09	81257	keystroke_g	g	n/a
40.8235	0.105	81647	keystroke_Key.space	Key.space	n/a
41.2135	0.09	82427	keystroke_p	p	n/a
41.3785	0.15	82757	keystroke_r	r	n/a
41.5585	0.105	83117	keystroke_i	i	n/a
41.8435	0.135	83687	keystroke_z	z	n/a
42.158	0.105	84316	keystroke_e	e	n/a
42.278	0.0895	84556	keystroke_Key.space	Key.space	n/a
42.5025	0.075	85005	keystroke_h	h	n/a
42.683	0.0905	85366	keystroke_i	i	n/a
42.8335	0.12	85667	keystroke_s	s	n/a
43.058	0.105	86116	keystroke_t	t	n/a
43.148	0.12	86296	keystroke_o	o	n/a
43.358	0.12	86716	keystroke_r	r	n/a
43.493	0.1055	86986	keystroke_y	y	n/a
43.6885	0.09	87377	keystroke_Key.space	Key.space	n/a
44.348	0.105	88696	keystroke_b	b	n/a
44.6025	0.106	89205	keystroke_o	o	n/a
44.8425	0.106	89685	keystroke_a	a	n/a
45.2025	0.135	90405	keystroke_t	t	n/a
45.5485	0.105	91097	keystroke_s	s	n/a
45.848	0.12	91696	keystroke_Key.enter	Key.enter	n/a
45.973	16.512	91946	prompt	n/a	mariah blend automotive ronald\n
46.853	0.09	93706	keystroke_m	m	n/a
47.0035	0.18	94007	keystroke_a	a	n/a
47.1835	0.12	94367	keystroke_r	r	n/a
47.453	0.075	94906	keystroke_i	i	n/a
47.948	0.135	95896	keystroke_a	a	n/a
48.368	0.075	96736	keystroke_c	c	n/a
48.473	0.12	96946	keystroke_h	h	n/a
48.698	0.0755	97396	keystroke_Key.space	Key.space	n/a
48.893	0.1055	97786	keystroke_b	b	n/a
49.2535	0.1195	98507	keystroke_l	l	n/a
50.513	0.075	101026	keystroke_Key.backspace	Key.backspace	n/a
50.723	0.06	101446	keystroke_Key.backspace	Key.backspace	n/a
50.903	0.075	101806	keystroke_Key.backspace	Key.backspace	n/a
51.1135	0.075	102227	keystroke_Key.backspace	Key.backspace	n/a
51.308	0.075	102616	keystroke_Key.backspace	Key.backspace	n/a
51.503	0.12	103006	keystroke_Key.backspace	Key.backspace	n/a
52.8985	0.0895	105797	keystroke_a	a	n/a
53.168	0.09	106336	keystroke_h	h	n/a
53.438	0.105	106876	keystroke_Key.space	Key.space	n/a
54.428	0.105	108856	keystroke_b	b	n/a
54.713	0.105	109426	keystroke_l	l	n/a
55.133	0.1355	110266	keystroke_e	e	n/a
55.3135	0.105	110627	keystroke_n	n	n/a
55.4785	0.105	110957	keystroke_d	d	n/a
55.6285	0.09	111257	keystroke_Key.space	Key.space	n/a
55.8835	0.135	111767	keystroke_a	a	n/a
56.2435	0.105	112487	keystroke_u	u	n/a
56.4375	0.106	112875	keystroke_t	t	n/a
56.6185	0.135	113237	keystroke_o	o	n/a
56.9185	0.06	113837	keystroke_m	m	n/a
58.1335	0.105	116267	keystroke_o	o	n/a
58.3885	0.105	116777	keystroke_t	t	n/a
58.5385	0.075	117077	keystroke_i	i	n/a
58.7335	0.105	117467	keystroke_v	v	n/a
58.9885	0.1195	117977	keystroke_e	e	n/a
59.5285	0.09	119057	keystroke_Key.space	Key.space	n/a
60.0535	0.09	120107	keystroke_r	r	n/a
60.3685	0.12	120737	keystroke_o	o	n/a
60.7435	0.075	121487	keystroke_n	n	n/a
60.9685	0.135	121937	keystroke_a	a	n/a
61.1785	0.135	122357	keystroke_l	l	n/a
61.3735	0.12	122747	keystroke_d	d	n/a
62.363	0.12	124726	keystroke_Key.enter	Key.enter	n/a
62.4885	16.1215	124977	prompt	n/a	associations resident cost spray\n
63.2485	0.1355	126497	keystroke_a	a	n/a
63.5335	0.045	127067	keystroke_s	s	n/a
63.6685	0.105	127337	keystroke_s	s	n/a
63.9085	0.105	127817	keystroke_o	o	n/a
64.133	0.105	128266	keystroke_c	c	n/a
64.5085	0.12	129017	keystroke_a	a	n/a
65.6035	0.09	131207	keystroke_Key.backspace	Key.backspace	n/a
66.3085	0.06	132617	keystroke_i	i	n/a
66.5635	0.15	133127	keystroke_a	a	n/a
66.7735	0.105	133547	keystroke_t	t	n/a
66.9235	0.09	133847	keystroke_i	i	n/a
67.103	0.12	134206	keystroke_o	o	n/a
67.298	0.12	134596	keystroke_n	n	n/a
67.568	0.1055	135136	keystroke_s	s	n/a
67.7335	0.104	135467	keystroke_Key.space	Key.space	n/a
68.1535	0.1345	136307	keystroke_r	r	n/a
68.363	0.1505	136726	keystroke_e	e	n/a
68.619	0.0895	137238	keystroke_s	s	n/a
68.9635	0.09	137927	keystroke_i	i	n/a
69.204	0.105	138408	keystroke_d	d	n/a
69.4435	0.12	138887	keystroke_e	e	n/a
69.6385	0.1055	139277	keystroke_n	n	n/a
69.8185	0.0755	139637	keystroke_t	t	n/a
69.9985	0.105	139997	keystroke_Key.space	Key.space	n/a
70.4035	0.105	140807	keystroke_c	c	n/a
70.6285	0.09	141257	keystroke_o	o	n/a
70.8975	0.121	141795	keystroke_a	a	n/a
72.0985	0.075	144197	keystroke_\	\	n/a
72.383	0.016	144766	keystroke_s	s	n/a
72.534	0.09	145068	keystroke_t	t	n/a
72.7435	0.075	145487	keystroke_Key.space	Key.space	n/a
74.0935	0.075	148187	keystroke_Key.backspace	Key.backspace	n/a
74.3035	0.075	148607	keystroke_Key.backspace	Key.backspace	n/a
74.4985	0.09	148997	keystroke_Key.backspace	Key.backspace	n/a
74.6935	0.135	149387	keystroke_Key.backspace	Key.backspace	n/a
75.0985	0.105	150197	keystroke_Key.backspace	Key.backspace	n/a
75.5035	0.075	151007	keystroke_s	s	n/a
75.7435	0.075	151487	keystroke_t	t	n/a
75.9385	0.09	151877	keystroke_Key.space	Key.space	n/a
76.3285	0.09	152657	keystroke_s	s	n/a
76.944	0.0895	153888	keystroke_p	p	n/a
77.184	0.1045	154368	keystroke_r	r	n/a
77.4835	0.1055	154967	keystroke_a	a	n/a
77.6335	0.1055	155267	keystroke_y	y	n/a
78.5485	0.06	157097	keystroke_Key.enter	Key.enter	n/a
78.613	9.8375	157226	prompt	n/a	path truth safari mitsubishi\n
79.344	0.104	158688	keystroke_p	p	n/a
79.478	0.12	158956	keystroke_a	a	n/a
79.703	0.12	159406	keystroke_t	t	n/a
79.883	0.12	159766	keystroke_h	h	n/a
80.3035	0.075	160607	keystroke_Key.space	Key.space	n/a
80.6785	0.135	161357	keystroke_t	t	n/a
80.9635	0.12	161927	keystroke_r	r	n/a
81.128	0.105	162256	keystroke_u	u	n/a
81.653	0.105	163306	keystroke_t	t	n/a
81.773	0.105	163546	keystroke_h	h	n/a
82.178	0.0755	164356	keystroke_Key.space	Key.space	n/a
82.6885	0.1345	165377	keystroke_s	s	n/a
82.9885	0.12	165977	keystroke_a	a	n/a
83.319	0.09	166638	keystroke_f	f	n/a
83.8135	0.15	167627	keystroke_a	a	n/a
84.0085	0.135	168017	keystroke_r	r	n/a
84.3385	0.075	168677	keystroke_i	i	n/a
84.5485	0.09	169097	keystroke_Key.space	Key.space	n/a
84.8035	0.09	169607	keystroke_m	m	n/a
85.2835	0.0905	170567	keystroke_i	i	n/a
85.524	0.104	171048	keystroke_s	s	n/a
85.838	0.106	171676	keystroke_t	t	n/a
86.3485	0.105	172697	keystroke_s	s	n/a
86.4685	0.12	172937	keystroke_u	u	n/a
86.828	0.091	173656	keystroke_b	b	n/a
87.173	0.09	174346	keystroke_i	i	n/a
87.458	0.105	174916	keystroke_s	s	n/a
87.653	0.106	175306	keystroke_h	h	n/a
87.908	0.105	175816	keystroke_i	i	n/a
88.358	0.09	176716	keystroke_Key.enter	Key.enter	n/a
88.4535	41.9005	176907	prompt	n/a	exclusion personalized practical saved\n
89.468	0.15	178936	keystroke_e	e	n/a
90.0685	0.09	180137	keystroke_x	x	n/a
90.728	0.1205	181456	keystroke_c	c	n/a
91.0135	0.135	182027	keystroke_l	l	n/a
91.2535	0.105	182507	keystroke_u	u	n/a
91.5685	0.105	183137	keystroke_s	s	n/a
91.7485	0.105	183497	keystroke_i	i	n/a
91.9735	0.1195	183947	keystroke_o	o	n/a
92.153	0.121	184306	keystroke_n	n	n/a
92.453	0.1205	184906	keystroke_Key.space	Key.space	n/a
92.9485	0.075	185897	keystroke_p	p	n/a
93.2635	0.2245	186527	keystroke_e	e	n/a
93.443	0.136	186886	keystroke_r	r	n/a
94.2235	0.0905	188447	keystroke_o	o	n/a
94.449	0.09	188898	keystroke_n	n	n/a
94.8385	0.1205	189677	keystroke_a	a	n/a
95.259	0.105	190518	keystroke_l	l	n/a
95.529	0.075	191058	keystroke_i	i	n/a
95.769	0.135	191538	keystroke_z	z	n/a
96.204	0.165	192408	keystroke_e	e	n/a
96.504	0.075	193008	keystroke_d	d	n/a
96.623	0.105	193246	keystroke_Key.space	Key.space	n/a
96.8935	0.1055	193787	keystroke_p	p	n/a
97.089	0.135	194178	keystroke_a	a	n/a
97.989	0.075	195978	keystroke_Key.backspace	Key.backspace	n/a
98.199	0.0595	196398	keystroke_Key.backspace	Key.backspace	n/a
98.3785	0.075	196757	keystroke_Key.backspace	Key.backspace	n/a
98.5885	0.075	197177	keystroke_Key.backspace	Key.backspace	n/a
98.7985	0.105	197597	keystroke_Key.backspace	Key.backspace	n/a
99.0235	0.09	198047	keystroke_Key.backspace	Key.backspace	n/a
99.2485	0.09	198497	keystroke_Key.backspace	Key.backspace	n/a
99.7135	0.09	199427	keystroke_Key.backspace	Key.backspace	n/a
101.7985	0.075	203597	keystroke_Key.backspace	Key.backspace	n/a
101.9935	0.075	203987	keystroke_Key.backspace	Key.backspace	n/a
102.2035	0.06	204407	keystroke_Key.backspace	Key.backspace	n/a
103.5835	0.105	207167	keystroke_s	s	n/a
103.8685	0.135	207737	keystroke_o	o	n/a
104.1685	0.1045	208337	keystroke_n	n	n/a
104.454	0.135	208908	keystroke_a	a	n/a
104.784	0.164	209568	keystroke_l	l	n/a
105.6685	0.075	211337	keystroke_i	i	n/a
105.908	0.12	211816	keystroke_z	z	n/a
106.253	0.1205	212506	keystroke_e	e	n/a
106.5235	0.1055	213047	keystroke_d	d	n/a
106.733	0.105	213466	keystroke_Key.space	Key.space	n/a
107.078	0.1055	214156	keystroke_p	p	n/a
107.2735	0.09	214547	keystroke_a	a	n/a
108.323	0.09	216646	keystroke_r	r	n/a
108.699	0.15	217398	keystroke_a	a	n/a
109.043	0.12	218086	keystroke_c	c	n/a
109.313	0.105	218626	keystroke_t	t	n/a
109.5235	0.09	219047	keystroke_i	i	n/a
109.7935	0.12	219587	keystroke_c	c	n/a
110.0335	0.12	220067	keystroke_a	a	n/a
110.1985	0.135	220397	keystroke_l	l	n/a
110.4685	0.045	220937	keystroke_Key.space	Key.space	n/a
110.663	0.1205	221326	keystroke_s	s	n/a
110.9185	0.12	221837	keystroke_a	a	n/a
112.208	0.0755	224416	keystroke_Key.backspace	Key.backspace	n/a
112.448	0.09	224896	keystroke_Key.backspace	Key.backspace	n/a
112.659	0.09	225318	keystroke_Key.backspace	Key.backspace	n/a
112.8835	0.09	225767	keystroke_Key.backspace	Key.backspace	n/a
114.2485	0.12	228497	keystroke_l	l	n/a
114.9985	0.09	229997	keystroke_Key.space	Key.space	n/a
116.948	0.105	233896	keystroke_Key.backspace	Key.backspace	n/a
117.158	0.105	234316	keystroke_Key.backspace	Key.backspace	n/a
117.368	0.09	234736	keystroke_Key.backspace	Key.backspace	n/a
117.578	0.12	235156	keystroke_Key.backspace	Key.backspace	n/a
117.953	0.105	235906	keystroke_Key.backspace	Key.backspace	n/a
118.1635	0.12	236327	keystroke_Key.backspace	Key.backspace	n/a
118.4035	0.105	236807	keystroke_Key.backspace	Key.backspace	n/a
118.5985	0.0895	237197	keystroke_Key.backspace	Key.backspace	n/a
121.151	0.001	242302	keystroke_Key.backspace	Key.backspace	n/a
122.633	0.06	245266	keystroke_Key.backspace	Key.backspace	n/a
122.828	0.061	245656	keystroke_Key.backspace	Key.backspace	n/a
123.039	0.075	246078	keystroke_Key.backspace	Key.backspace	n/a
124.029	0.09	248058	keystroke_Key.space	Key.space	n/a
124.5685	0.105	249137	keystroke_p	p	n/a
125.1235	0.15	250247	keystroke_r	r	n/a
125.439	0.15	250878	keystroke_a	a	n/a
125.769	0.1195	251538	keystroke_c	c	n/a
126.3385	0.09	252677	keystroke_t	t	n/a
126.5335	0.105	253067	keystroke_i	i	n/a
127.464	0.135	254928	keystroke_c	c	n/a
127.9585	0.12	255917	keystroke_a	a	n/a
128.1835	0.1505	256367	keystroke_l	l	n/a
128.454	0.12	256908	keystroke_Key.space	Key.space	n/a
128.784	0.135	257568	keystroke_s	s	n/a
129.0535	0.12	258107	keystroke_a	a	n/a
129.3685	0.105	258737	keystroke_v	v	n/a
129.6385	0.135	259277	keystroke_e	e	n/a
129.8935	0.12	259787	keystroke_d	d	n/a
130.2235	0.12	260447	keystroke_Key.enter	Key.enter	n/a
130.363	9.5675	260726	prompt	n/a	salon thee threshold legs\n
131.1385	0.12	262277	keystroke_s	s	n/a
131.7685	0.12	263537	keystroke_a	a	n/a
131.9785	0.135	263957	keystroke_l	l	n/a
132.2335	0.1205	264467	keystroke_o	o	n/a
132.474	0.105	264948	keystroke_n	n	n/a
132.729	0.12	265458	keystroke_Key.space	Key.space	n/a
133.1635	0.09	266327	keystroke_t	t	n/a
133.3285	0.105	266657	keystroke_h	h	n/a
133.9435	0.09	267887	keystroke_e	e	n/a
134.1085	0.12	268217	keystroke_e	e	n/a
134.4085	0.09	268817	keystroke_Key.space	Key.space	n/a
134.8285	0.105	269657	keystroke_t	t	n/a
135.0235	0.09	270047	keystroke_h	h	n/a
135.2935	0.15	270587	keystroke_r	r	n/a
135.5785	0.105	271157	keystroke_e	e	n/a
135.8185	0.105	271637	keystroke_s	s	n/a
136.299	0.1195	272598	keystroke_h	h	n/a
136.5385	0.105	273077	keystroke_o	o	n/a
137.214	0.104	274428	keystroke_l	l	n/a
137.409	0.089	274818	keystroke_d	d	n/a
137.663	0.075	275326	keystroke_Key.space	Key.space	n/a
138.174	0.075	276348	keystroke_l	l	n/a
138.5935	0.12	277187	keystroke_e	e	n/a
138.9095	0.089	277819	keystroke_g	g	n/a
139.3585	0.06	278717	keystroke_s	s	n/a
139.824	0.1045	279648	keystroke_Key.enter	Key.enter	n/a
139.934	25.8425	279868	prompt	n/a	fuji nintendo affected volunteers\n
140.784	0.075	281568	keystroke_f	f	n/a
140.979	0.135	281958	keystroke_u	u	n/a
141.4585	0.09	282917	keystroke_j	j	n/a
141.7585	0.09	283517	keystroke_i	i	n/a
142.0135	0.09	284027	keystroke_Key.space	Key.space	n/a
142.2385	0.105	284477	keystroke_n	n	n/a
142.5385	0.075	285077	keystroke_i	i	n/a
142.7785	0.09	285557	keystroke_n	n	n/a
143.1085	0.09	286217	keystroke_t	t	n/a
143.3335	0.105	286667	keystroke_e	e	n/a
143.529	0.12	287058	keystroke_n	n	n/a
143.739	0.105	287478	keystroke_d	d	n/a
143.919	0.1345	287838	keystroke_o	o	n/a
144.189	0.1195	288378	keystroke_Key.space	Key.space	n/a
144.533	0.09	289066	keystroke_a	a	n/a
144.9235	0.0895	289847	keystroke_f	f	n/a
145.088	0.1055	290176	keystroke_f	f	n/a
145.329	0.12	290658	keystroke_e	e	n/a
145.584	0.105	291168	keystroke_c	c	n/a
145.854	0.09	291708	keystroke_t	t	n/a
146.1685	0.105	292337	keystroke_e	e	n/a
146.439	0.1045	292878	keystroke_d	d	n/a
146.6785	0.1045	293357	keystroke_Key.space	Key.space	n/a
147.099	0.105	294198	keystroke_v	v	n/a
148.6135	0.06	297227	keystroke_Key.backspace	Key.backspace	n/a
148.7785	0.135	297557	keystroke_Key.backspace	Key.backspace	n/a
149.0335	0.075	298067	keystroke_Key.backspace	Key.backspace	n/a
149.2435	0.09	298487	keystroke_Key.backspace	Key.backspace	n/a
149.4535	0.09	298907	keystroke_Key.backspace	Key.backspace	n/a
149.6485	0.09	299297	keystroke_Key.backspace	Key.backspace	n/a
149.8585	0.09	299717	keystroke_Key.backspace	Key.backspace	n/a
150.114	0.0745	300228	keystroke_Key.backspace	Key.backspace	n/a
150.684	0.089	301368	keystroke_Key.backspace	Key.backspace	n/a
150.893	0.091	301786	keystroke_Key.backspace	Key.backspace	n/a
151.1035	0.075	302207	keystroke_Key.backspace	Key.backspace	n/a
151.2985	0.09	302597	keystroke_Key.backspace	Key.backspace	n/a
151.5085	0.075	303017	keystroke_Key.backspace	Key.backspace	n/a
151.7185	0.075	303437	keystroke_Key.backspace	Key.backspace	n/a
151.9135	0.09	303827	keystroke_Key.backspace	Key.backspace	n/a
152.139	0.09	304278	keystroke_Key.backspace	Key.backspace	n/a
152.364	0.105	304728	keystroke_Key.backspace	Key.backspace	n/a
152.6035	0.105	305207	keystroke_Key.backspace	Key.backspace	n/a
152.8735	0.105	305747	keystroke_Key.backspace	Key.backspace	n/a
154.5235	0.12	309047	keystroke_n	n	n/a
155.4985	0.09	310997	keystroke_i	i	n/a
155.8285	0.105	311657	keystroke_n	n	n/a
156.1885	0.105	312377	keystroke_t	t	n/a
156.534	0.15	313068	keystroke_e	e	n/a
156.939	0.135	313878	keystroke_n	n	n/a
157.224	0.09	314448	keystroke_d	d	n/a
157.794	0.104	315588	keystroke_o	o	n/a
158.078	0.12	316156	keystroke_Key.space	Key.space	n/a
159.2935	0.1355	318587	keystroke_a	a	n/a
159.549	0.12	319098	keystroke_f	f	n/a
159.729	0.12	319458	keystroke_f	f	n/a
160.254	0.1495	320508	keystroke_e	e	n/a
160.5385	0.1205	321077	keystroke_c	c	n/a
160.809	0.09	321618	keystroke_t	t	n/a
161.049	0.12	322098	keystroke_e	e	n/a
161.319	0.105	322638	keystroke_d	d	n/a
161.529	0.105	323058	keystroke_Key.space	Key.space	n/a
161.9485	0.105	323897	keystroke_v	v	n/a
162.534	0.105	325068	keystroke_o	o	n/a
162.864	0.135	325728	keystroke_l	l	n/a
163.809	0.09	327618	keystroke_u	u	n/a
164.079	0.105	328158	keystroke_n	n	n/a
164.3935	0.06	328787	keystroke_t	t	n/a
164.6635	0.09	329327	keystroke_e	e	n/a
164.9035	0.135	329807	keystroke_e	e	n/a
165.2185	0.09	330437	keystroke_r	r	n/a
165.4585	0.105	330917	keystroke_s	s	n/a
165.654	0.12	331308	keystroke_Key.enter	Key.enter	n/a
165.7815	9.924	331563	prompt	n/a	economics them frost extreme\n
166.5085	0.15	333017	keystroke_e	e	n/a
167.1235	0.15	334247	keystroke_c	c	n/a
167.4385	0.135	334877	keystroke_o	o	n/a
168.174	0.119	336348	keystroke_n	n	n/a
168.519	0.12	337038	keystroke_o	o	n/a
168.789	0.1045	337578	keystroke_m	m	n/a
169.0435	0.075	338087	keystroke_i	i	n/a
169.2685	0.12	338537	keystroke_c	c	n/a
169.644	0.09	339288	keystroke_s	s	n/a
169.989	0.09	339978	keystroke_Key.space	Key.space	n/a
170.589	0.105	341178	keystroke_t	t	n/a
170.739	0.12	341478	keystroke_h	h	n/a
170.874	0.135	341748	keystroke_e	e	n/a
171.084	0.06	342168	keystroke_m	m	n/a
171.294	0.135	342588	keystroke_Key.space	Key.space	n/a
172.0585	0.09	344117	keystroke_f	f	n/a
172.4185	0.09	344837	keystroke_r	r	n/a
172.6435	0.12	345287	keystroke_o	o	n/a
172.7935	0.12	345587	keystroke_s	s	n/a
173.0935	0.09	346187	keystroke_t	t	n/a
173.2885	0.105	346577	keystroke_Key.space	Key.space	n/a
173.6485	0.135	347297	keystroke_e	e	n/a
174.0085	0.12	348017	keystroke_x	x	n/a
174.324	0.105	348648	keystroke_t	t	n/a
174.578	0.136	349156	keystroke_r	r	n/a
174.834	0.135	349668	keystroke_e	e	n/a
175.074	0.075	350148	keystroke_m	m	n/a
175.209	0.135	350418	keystroke_e	e	n/a
175.5835	0.12	351167	keystroke_Key.enter	Key.enter	n/a
175.709	10.2715	351418	prompt	n/a	like smooth pillow arrangements\n
176.454	0.075	352908	keystroke_l	l	n/a
176.679	0.075	353358	keystroke_i	i	n/a
176.8735	0.09	353747	keystroke_k	k	n/a
177.0535	0.135	354107	keystroke_e	e	n/a
177.2635	0.09	354527	keystroke_Key.space	Key.space	n/a
177.5485	0.105	355097	keystroke_s	s	n/a
177.7585	0.075	355517	keystroke_m	m	n/a
177.9685	0.105	355937	keystroke_o	o	n/a
178.1785	0.12	356357	keystroke_o	o	n/a
178.4335	0.09	356867	keystroke_t	t	n/a
178.5835	0.1055	357167	keystroke_h	h	n/a
178.869	0.12	357738	keystroke_Key.space	Key.space	n/a
179.3185	0.1355	358637	keystroke_p	p	n/a
179.604	0.105	359208	keystroke_i	i	n/a
179.949	0.09	359898	keystroke_l	l	n/a
180.159	0.075	360318	keystroke_l	l	n/a
180.369	0.105	360738	keystroke_o	o	n/a
180.579	0.105	361158	keystroke_w	w	n/a
181.2535	0.09	362507	keystroke_Key.space	Key.space	n/a
181.7335	0.12	363467	keystroke_a	a	n/a
182.1235	0.105	364247	keystroke_r	r	n/a
182.3035	0.12	364607	keystroke_r	r	n/a
182.6785	0.135	365357	keystroke_a	a	n/a
182.8735	0.135	365747	keystroke_n	n	n/a
183.8185	0.105	367637	keystroke_g	g	n/a
184.1185	0.105	368237	keystroke_e	e	n/a
184.779	0.0895	369558	keystroke_m	m	n/a
184.9735	0.12	369947	keystroke_e	e	n/a
185.1545	0.104	370309	keystroke_n	n	n/a
185.2885	0.105	370577	keystroke_t	t	n/a
185.5435	0.12	371087	keystroke_s	s	n/a
185.8585	0.12	371717	keystroke_Key.enter	Key.enter	n/a
185.985	29.1795	371970	prompt	n/a	michigan booking committed assess\n
186.7885	0.09	373577	keystroke_m	m	n/a
187.1335	0.09	374267	keystroke_c	c	n/a
187.3585	0.105	374717	keystroke_h	h	n/a
187.6735	0.075	375347	keystroke_i	i	n/a
188.0635	0.09	376127	keystroke_g	g	n/a
188.2885	0.09	376577	keystroke_a	a	n/a
188.4385	0.1805	376877	keystroke_n	n	n/a
188.694	0.12	377388	keystroke_Key.space	Key.space	n/a
189.8635	0.06	379727	keystroke_Key.backspace	Key.backspace	n/a
190.0435	0.075	380087	keystroke_Key.backspace	Key.backspace	n/a
190.2385	0.06	380477	keystroke_Key.backspace	Key.backspace	n/a
190.4185	0.09	380837	keystroke_Key.backspace	Key.backspace	n/a
190.6885	0.075	381377	keystroke_Key.backspace	Key.backspace	n/a
192.0395	0.074	384079	keystroke_i	i	n/a
192.2935	0.105	384587	keystroke_g	g	n/a
192.6385	0.135	385277	keystroke_a	a	n/a
192.984	0.1205	385968	keystroke_n	n	n/a
193.3455	0.105	386691	keystroke_Key.space	Key.space	n/a
193.7215	0.0755	387443	keystroke_b	b	n/a
195.695	0.1055	391390	keystroke_Key.backspace	Key.backspace	n/a
195.9055	0.0755	391811	keystroke_Key.backspace	Key.backspace	n/a
196.101	0.0905	392202	keystroke_Key.backspace	Key.backspace	n/a
196.312	0.09	392624	keystroke_Key.backspace	Key.backspace	n/a
196.5225	0.0755	393045	keystroke_Key.backspace	Key.backspace	n/a
196.7185	0.09	393437	keystroke_Key.backspace	Key.backspace	n/a
196.929	0.0755	393858	keystroke_Key.backspace	Key.backspace	n/a
197.125	0.0755	394250	keystroke_Key.backspace	Key.backspace	n/a
197.336	0.0605	394672	keystroke_Key.backspace	Key.backspace	n/a
197.532	0.045	395064	keystroke_Key.backspace	Key.backspace	n/a
198.3905	0.0295	396781	keystroke_m	m	n/a
199.2485	0.075	398497	keystroke_i	i	n/a
199.4595	0.1205	398919	keystroke_c	c	n/a
199.655	0.1205	399310	keystroke_h	h	n/a
199.971	0.09	399942	keystroke_i	i	n/a
200.513	0.1055	401026	keystroke_g	g	n/a
200.754	0.075	401508	keystroke_a	a	n/a
200.9045	0.121	401809	keystroke_n	n	n/a
201.221	0.09	402442	keystroke_Key.space	Key.space	n/a
202.3045	0.0615	404609	keystroke_Key.backspace	Key.backspace	n/a
202.5005	0.075	405001	keystroke_Key.backspace	Key.backspace	n/a
202.6965	0.0905	405393	keystroke_Key.backspace	Key.backspace	n/a
202.9075	0.0755	405815	keystroke_Key.backspace	Key.backspace	n/a
203.1335	0.06	406267	keystroke_Key.backspace	Key.backspace	n/a
203.344	0.0905	406688	keystroke_Key.backspace	Key.backspace	n/a
203.555	0.0755	407110	keystroke_Key.backspace	Key.backspace	n/a
203.7805	0.0605	407561	keystroke_Key.backspace	Key.backspace	n/a
203.9615	0.0905	407923	keystroke_Key.backspace	Key.backspace	n/a
204.127	0.1055	408254	keystroke_Key.backspace	Key.backspace	n/a
205.2565	0.12	410513	keystroke_m	m	n/a
205.6175	0.12	411235	keystroke_i	i	n/a
205.964	0.15	411928	keystroke_c	c	n/a
206.491	0.135	412982	keystroke_h	h	n/a
206.9125	0.121	413825	keystroke_i	i	n/a
207.349	0.1205	414698	keystroke_g	g	n/a
207.6955	0.1655	415391	keystroke_a	a	n/a
208.0265	0.1055	416053	keystroke_n	n	n/a
208.735	0.105	417470	keystroke_Key.space	Key.space	n/a
209.141	0.105	418282	keystroke_b	b	n/a
209.472	0.0905	418944	keystroke_o	o	n/a
209.668	0.1205	419336	keystroke_o	o	n/a
209.984	0.0905	419968	keystroke_k	k	n/a
210.24	0.0755	420480	keystroke_i	i	n/a
210.436	0.09	420872	keystroke_n	n	n/a
210.541	0.076	421082	keystroke_g	g	n/a
210.737	0.0755	421474	keystroke_Key.space	Key.space	n/a
211.0985	0.1055	422197	keystroke_c	c	n/a
211.309	0.1205	422618	keystroke_o	o	n/a
211.5805	0.075	423161	keystroke_m	m	n/a
211.761	0.075	423522	keystroke_m	m	n/a
211.9715	0.09	423943	keystroke_i	i	n/a
212.303	0.1045	424606	keystroke_t	t	n/a
212.468	0.105	424936	keystroke_t	t	n/a
212.724	0.1355	425448	keystroke_e	e	n/a
212.9945	0.1055	425989	keystroke_d	d	n/a
213.1605	0.1055	426321	keystroke_Key.space	Key.space	n/a
213.401	0.121	426802	keystroke_a	a	n/a
213.6725	0.0905	427345	keystroke_s	s	n/a
213.868	0.1205	427736	keystroke_s	s	n/a
214.2445	0.135	428489	keystroke_e	e	n/a
214.5605	0.09	429121	keystroke_s	s	n/a
214.726	0.15	429452	keystroke_s	s	n/a
215.027	0.1355	430054	keystroke_Key.enter	Key.enter	n/a
215.1675	11.286	430335	prompt	n/a	filtering center chemistry portugal\n
216.0365	0.09	432073	keystroke_f	f	n/a
216.3225	0.09	432645	keystroke_i	i	n/a
216.6375	0.1055	433275	keystroke_l	l	n/a
216.9385	0.075	433877	keystroke_t	t	n/a
217.1645	0.196	434329	keystroke_e	e	n/a
217.3005	0.135	434601	keystroke_r	r	n/a
217.4805	0.106	434961	keystroke_i	i	n/a
217.6615	0.1205	435323	keystroke_n	n	n/a
217.857	0.0905	435714	keystroke_g	g	n/a
218.4745	0.0905	436949	keystroke_Key.space	Key.space	n/a
218.986	0.1505	437972	keystroke_c	c	n/a
219.1815	0.1205	438363	keystroke_e	e	n/a
219.303	0.119	438606	keystroke_n	n	n/a
219.5135	0.1055	439027	keystroke_t	t	n/a
220.5825	0.2105	441165	keystroke_e	e	n/a
220.763	0.135	441526	keystroke_r	r	n/a
221.0035	0.121	442007	keystroke_Key.space	Key.space	n/a
221.35	0.135	442700	keystroke_c	c	n/a
221.576	0.105	443152	keystroke_h	h	n/a
221.696	0.135	443392	keystroke_e	e	n/a
222.0115	0.0905	444023	keystroke_m	m	n/a
222.2975	0.0905	444595	keystroke_i	i	n/a
222.478	0.121	444956	keystroke_s	s	n/a
222.7645	0.09	445529	keystroke_t	t	n/a
223.02	0.0755	446040	keystroke_r	r	n/a
223.1555	0.12	446311	keystroke_y	y	n/a
223.396	0.105	446792	keystroke_Key.space	Key.space	n/a
223.7725	0.18	447545	keystroke_p	p	n/a
224.1335	0.1065	448267	keystroke_o	o	n/a
224.4345	0.121	448869	keystroke_r	r	n/a
224.826	0.105	449652	keystroke_t	t	n/a
225.098	0.104	450196	keystroke_u	u	n/a
225.6235	0.1205	451247	keystroke_g	g	n/a
225.895	0.075	451790	keystroke_a	a	n/a
226.046	0.135	452092	keystroke_l	l	n/a
226.346	0.105	452692	keystroke_Key.enter	Key.enter	n/a
226.4565	18.1655	452913	prompt	n/a	reply responsibilities tour slide\n
227.2795	0.135	454559	keystroke_r	r	n/a
227.5355	0.1205	455071	keystroke_e	e	n/a
227.791	0.1355	455582	keystroke_p	p	n/a
228.1225	0.06	456245	keystroke_l	l	n/a
228.529	0.09	457058	keystroke_y	y	n/a
228.995	0.091	457990	keystroke_Key.space	Key.space	n/a
229.536	0.166	459072	keystroke_r	r	n/a
229.8225	0.135	459645	keystroke_e	e	n/a
230.154	0.1055	460308	keystroke_s	s	n/a
230.6355	0.1355	461271	keystroke_p	p	n/a
230.906	0.1355	461812	keystroke_o	o	n/a
231.1475	0.09	462295	keystroke_n	n	n/a
231.4175	0.105	462835	keystroke_s	s	n/a
232.832	0.12	465664	keystroke_i	i	n/a
233.494	0.1355	466988	keystroke_b	b	n/a
233.885	0.1505	467770	keystroke_l	l	n/a
234.382	0.09	468764	keystroke_i	i	n/a
235.6005	0.09	471201	keystroke_i	i	n/a
235.826	0.09	471652	keystroke_t	t	n/a
236.127	0.15	472254	keystroke_e	e	n/a
236.3825	0.12	472765	keystroke_s	s	n/a
237.014	0.0765	474028	keystroke_Key.space	Key.space	n/a
239.273	0.043	478546	keystroke_t	t	n/a
239.5565	0.121	479113	keystroke_o	o	n/a
239.888	0.03	479776	keystroke_r	r	n/a
240.189	0.105	480378	keystroke_Key.space	Key.space	n/a
241.182	0.105	482364	keystroke_Key.backspace	Key.backspace	n/a
241.8125	0.1055	483625	keystroke_Key.backspace	Key.backspace	n/a
242.3995	0.105	484799	keystroke_u	u	n/a
242.6245	0.105	485249	keystroke_r	r	n/a
242.9095	0.0905	485819	keystroke_Key.space	Key.space	n/a
243.315	0.1055	486630	keystroke_s	s	n/a
243.6755	0.105	487351	keystroke_l	l	n/a
243.9005	0.09	487801	keystroke_i	i	n/a
244.125	0.105	488250	keystroke_d	d	n/a
244.365	0.1045	488730	keystroke_e	e	n/a
244.4855	0.135	488971	keystroke_Key.enter	Key.enter	n/a
244.625	19.2425	489250	prompt	n/a	americans portsmouth endangered ruling\n
245.445	0.12	490890	keystroke_a	a	n/a
245.595	0.1195	491190	keystroke_m	m	n/a
245.7895	0.1655	491579	keystroke_e	e	n/a
245.895	0.15	491790	keystroke_r	r	n/a
246.03	0.135	492060	keystroke_i	i	n/a
246.3885	0.135	492777	keystroke_c	c	n/a
246.644	0.119	493288	keystroke_a	a	n/a
246.778	0.105	493556	keystroke_n	n	n/a
247.0485	0.12	494097	keystroke_s	s	n/a
247.4375	0.1055	494875	keystroke_Key.space	Key.space	n/a
247.9925	0.1345	495985	keystroke_p	p	n/a
248.2765	0.1205	496553	keystroke_o	o	n/a
248.547	0.1345	497094	keystroke_r	r	n/a
248.8315	0.12	497663	keystroke_t	t	n/a
249.1175	0.133	498235	keystroke_s	s	n/a
249.4165	0.105	498833	keystroke_m	m	n/a
249.671	0.1195	499342	keystroke_o	o	n/a
249.8505	0.1205	499701	keystroke_u	u	n/a
250.076	0.119	500152	keystroke_t	t	n/a
250.2095	0.1055	500419	keystroke_h	h	n/a
250.5555	0.1195	501111	keystroke_Key.space	Key.space	n/a
250.93	0.12	501860	keystroke_e	e	n/a
252.0845	0.09	504169	keystroke_Key.backspace	Key.backspace	n/a
252.309	0.075	504618	keystroke_Key.backspace	Key.backspace	n/a
252.534	0.075	505068	keystroke_Key.backspace	Key.backspace	n/a
252.7435	0.0755	505487	keystroke_Key.backspace	Key.backspace	n/a
252.954	0.075	505908	keystroke_Key.backspace	Key.backspace	n/a
253.164	0.089	506328	keystroke_Key.backspace	Key.backspace	n/a
253.358	0.105	506716	keystroke_Key.backspace	Key.backspace	n/a
253.598	0.0895	507196	keystroke_Key.backspace	Key.backspace	n/a
255.412	0.12	510824	keystroke_s	s	n/a
256.0715	0.135	512143	keystroke_m	m	n/a
256.551	0.1655	513102	keystroke_o	o	n/a
256.9405	0.1355	513881	keystroke_u	u	n/a
257.241	0.1045	514482	keystroke_t	t	n/a
257.39	0.135	514780	keystroke_h	h	n/a
258.035	0.09	516070	keystroke_Key.space	Key.space	n/a
258.65	0.165	517300	keystroke_e	e	n/a
259.0395	0.105	518079	keystroke_n	n	n/a
259.519	0.12	519038	keystroke_d	d	n/a
259.849	0.1195	519698	keystroke_a	a	n/a
260.119	0.1195	520238	keystroke_n	n	n/a
260.3595	0.1035	520719	keystroke_g	g	n/a
260.598	0.195	521196	keystroke_e	e	n/a
260.718	0.1805	521436	keystroke_r	r	n/a
261.228	0.164	522456	keystroke_e	e	n/a
261.497	0.121	522994	keystroke_d	d	n/a
261.6775	0.15	523355	keystroke_Key.space	Key.space	n/a
262.052	0.1805	524104	keystroke_r	r	n/a
262.4415	0.12	524883	keystroke_u	u	n/a
262.8465	0.134	525693	keystroke_l	l	n/a
263.071	0.12	526142	keystroke_i	i	n/a
263.311	0.1345	526622	keystroke_n	n	n/a
263.4605	0.105	526921	keystroke_g	g	n/a
263.7455	0.12	527491	keystroke_Key.enter	Key.enter	n/a
263.8705	8.8105	527741	prompt	n/a	poverty forces letter ventures\n
264.6455	0.135	529291	keystroke_p	p	n/a
264.9455	0.135	529891	keystroke_o	o	n/a
265.231	0.12	530462	keystroke_v	v	n/a
265.4995	0.21	530999	keystroke_e	e	n/a
265.904	0.135	531808	keystroke_r	r	n/a
266.204	0.12	532408	keystroke_t	t	n/a
266.699	0.105	533398	keystroke_y	y	n/a
266.9685	0.0905	533937	keystroke_Key.space	Key.space	n/a
267.314	0.104	534628	keystroke_f	f	n/a
267.523	0.135	535046	keystroke_o	o	n/a
267.7185	0.1345	535437	keystroke_r	r	n/a
268.153	0.135	536306	keystroke_c	c	n/a
268.3475	0.12	536695	keystroke_e	e	n/a
268.5575	0.135	537115	keystroke_s	s	n/a
268.7075	0.105	537415	keystroke_Key.space	Key.space	n/a
269.0225	0.105	538045	keystroke_l	l	n/a
269.3975	0.119	538795	keystroke_e	e	n/a
269.6675	0.059	539335	keystroke_t	t	n/a
269.8165	0.104	539633	keystroke_t	t	n/a
270.0405	0.1655	540081	keystroke_e	e	n/a
270.146	0.1495	540292	keystroke_r	r	n/a
270.431	0.105	540862	keystroke_Key.space	Key.space	n/a
270.8655	0.09	541731	keystroke_v	v	n/a
271.0905	0.15	542181	keystroke_e	e	n/a
271.2255	0.105	542451	keystroke_n	n	n/a
271.4655	0.09	542931	keystroke_t	t	n/a
271.6455	0.105	543291	keystroke_u	u	n/a
271.8105	0.179	543621	keystroke_r	r	n/a
272.0795	0.1505	544159	keystroke_e	e	n/a
272.3345	0.12	544669	keystroke_s	s	n/a
272.5445	0.135	545089	keystroke_Key.enter	Key.enter	n/a
272.684	9.1845	545368	prompt	n/a	blvd closely leads security\n
273.6685	0.105	547337	keystroke_b	b	n/a
274.073	0.135	548146	keystroke_l	l	n/a
274.433	0.135	548866	keystroke_v	v	n/a
274.9575	0.12	549915	keystroke_d	d	n/a
275.273	0.09	550546	keystroke_Key.space	Key.space	n/a
275.6175	0.135	551235	keystroke_c	c	n/a
275.842	0.135	551684	keystroke_l	l	n/a
276.142	0.105	552284	keystroke_o	o	n/a
276.4265	0.135	552853	keystroke_s	s	n/a
276.6515	0.135	553303	keystroke_e	e	n/a
276.846	0.1345	553692	keystroke_l	l	n/a
277.1005	0.105	554201	keystroke_y	y	n/a
277.34	0.09	554680	keystroke_Key.space	Key.space	n/a
277.595	0.1055	555190	keystroke_l	l	n/a
277.7455	0.135	555491	keystroke_e	e	n/a
278.0305	0.135	556061	keystroke_a	a	n/a
278.315	0.09	556630	keystroke_d	d	n/a
278.57	0.1345	557140	keystroke_s	s	n/a
278.824	0.09	557648	keystroke_Key.space	Key.space	n/a
279.275	0.1495	558550	keystroke_s	s	n/a
279.5745	0.165	559149	keystroke_e	e	n/a
279.9345	0.105	559869	keystroke_c	c	n/a
280.4885	0.105	560977	keystroke_u	u	n/a
280.6835	0.12	561367	keystroke_r	r	n/a
281.043	0.09	562086	keystroke_i	i	n/a
281.253	0.1195	562506	keystroke_t	t	n/a
281.3875	0.12	562775	keystroke_y	y	n/a
281.7475	0.1195	563495	keystroke_Key.enter	Key.enter	n/a
281.872	9.5595	563744	prompt	n/a	swap coverage privileges see\n
282.842	0.104	565684	keystroke_s	s	n/a
283.081	0.135	566162	keystroke_w	w	n/a
283.3655	0.121	566731	keystroke_a	a	n/a
283.5305	0.15	567061	keystroke_p	p	n/a
283.815	0.09	567630	keystroke_Key.space	Key.space	n/a
284.116	0.119	568232	keystroke_c	c	n/a
284.3555	0.135	568711	keystroke_o	o	n/a
284.7595	0.105	569519	keystroke_v	v	n/a
285.0905	0.1645	570181	keystroke_e	e	n/a
285.1945	0.1355	570389	keystroke_r	r	n/a
285.57	0.165	571140	keystroke_a	a	n/a
285.7935	0.1205	571587	keystroke_g	g	n/a
286.034	0.105	572068	keystroke_e	e	n/a
286.184	0.09	572368	keystroke_Key.space	Key.space	n/a
286.424	0.1345	572848	keystroke_p	p	n/a
286.6185	0.15	573237	keystroke_r	r	n/a
286.8735	0.0905	573747	keystroke_i	i	n/a
287.548	0.105	575096	keystroke_v	v	n/a
288.118	0.105	576236	keystroke_i	i	n/a
288.3575	0.105	576715	keystroke_l	l	n/a
288.8375	0.105	577675	keystroke_e	e	n/a
289.1225	0.075	578245	keystroke_g	g	n/a
289.422	0.135	578844	keystroke_e	e	n/a
289.677	0.104	579354	keystroke_s	s	n/a
289.9305	0.0905	579861	keystroke_Key.space	Key.space	n/a
290.171	0.09	580342	keystroke_s	s	n/a
290.92	0.12	581840	keystroke_e	e	n/a
291.115	0.1055	582230	keystroke_e	e	n/a
291.2795	0.15	582559	keystroke_Key.enter	Key.enter	n/a
291.436	11.537	582872	prompt	n/a	sleeping festivals warnings medical\n
292.165	0.105	584330	keystroke_s	s	n/a
292.315	0.1195	584630	keystroke_l	l	n/a
292.6445	0.12	585289	keystroke_e	e	n/a
292.8395	0.195	585679	keystroke_e	e	n/a
293.2745	0.1495	586549	keystroke_p	p	n/a
293.544	0.075	587088	keystroke_i	i	n/a
293.754	0.06	587508	keystroke_n	n	n/a
293.829	0.09	587658	keystroke_g	g	n/a
293.994	0.105	587988	keystroke_Key.space	Key.space	n/a
294.473	0.075	588946	keystroke_f	f	n/a
294.788	0.105	589576	keystroke_e	e	n/a
295.1625	0.135	590325	keystroke_s	s	n/a
295.4175	0.12	590835	keystroke_t	t	n/a
296.0315	0.09	592063	keystroke_i	i	n/a
296.496	0.105	592992	keystroke_v	v	n/a
296.8705	0.105	593741	keystroke_a	a	n/a
297.1105	0.105	594221	keystroke_l	l	n/a
297.665	0.135	595330	keystroke_s	s	n/a
297.92	0.0895	595840	keystroke_Key.space	Key.space	n/a
298.445	0.12	596890	keystroke_w	w	n/a
299.2095	0.134	598419	keystroke_a	a	n/a
299.3585	0.12	598717	keystroke_r	r	n/a
299.659	0.09	599318	keystroke_n	n	n/a
299.854	0.09	599708	keystroke_i	i	n/a
300.0335	0.135	600067	keystroke_n	n	n/a
300.1535	0.09	600307	keystroke_g	g	n/a
300.3785	0.12	600757	keystroke_s	s	n/a
300.5735	0.1045	601147	keystroke_Key.space	Key.space	n/a
300.8435	0.089	601687	keystroke_m	m	n/a
301.0235	0.135	602047	keystroke_e	e	n/a
301.368	0.105	602736	keystroke_d	d	n/a
301.682	0.0905	603364	keystroke_i	i	n/a
301.967	0.12	603934	keystroke_c	c	n/a
302.207	0.1345	604414	keystroke_a	a	n/a
302.3565	0.12	604713	keystroke_l	l	n/a
302.5665	0.06	605133	keystroke_Key.space	Key.space	n/a
302.8365	0.1345	605673	keystroke_Key.enter	Key.enter	n/a
302.9765	9.394	605953	prompt	n/a	insertion indie contrary reach\n
303.7945	0.06	607589	keystroke_i	i	n/a
303.9295	0.1205	607859	keystroke_n	n	n/a
304.215	0.12	608430	keystroke_s	s	n/a
304.5	0.15	609000	keystroke_e	e	n/a
304.7545	0.105	609509	keystroke_r	r	n/a
304.994	0.09	609988	keystroke_t	t	n/a
305.174	0.09	610348	keystroke_i	i	n/a
305.459	0.105	610918	keystroke_o	o	n/a
305.654	0.104	611308	keystroke_n	n	n/a
305.893	0.1055	611786	keystroke_Key.space	Key.space	n/a
306.2985	0.075	612597	keystroke_i	i	n/a
306.5085	0.12	613017	keystroke_n	n	n/a
306.9275	0.09	613855	keystroke_d	d	n/a
307.1525	0.09	614305	keystroke_i	i	n/a
307.3775	0.1045	614755	keystroke_e	e	n/a
307.617	0.1055	615234	keystroke_Key.space	Key.space	n/a
307.8875	0.09	615775	keystroke_c	c	n/a
308.217	0.15	616434	keystroke_o	o	n/a
308.9365	0.12	617873	keystroke_n	n	n/a
309.311	0.104	618622	keystroke_t	t	n/a
309.566	0.105	619132	keystroke_r	r	n/a
309.9705	0.105	619941	keystroke_a	a	n/a
310.3005	0.105	620601	keystroke_r	r	n/a
310.4655	0.1045	620931	keystroke_y	y	n/a
310.75	0.09	621500	keystroke_Key.space	Key.space	n/a
311.035	0.135	622070	keystroke_r	r	n/a
311.26	0.105	622520	keystroke_e	e	n/a
311.515	0.105	623030	keystroke_a	a	n/a
311.8445	0.1045	623689	keystroke_c	c	n/a
312.009	0.105	624018	keystroke_h	h	n/a
312.2635	0.105	624527	keystroke_Key.enter	Key.enter	n/a
312.373	16.306	624746	prompt	n/a	relax kathy does freebsd\n
313.268	0.12	626536	keystroke_r	r	n/a
313.493	0.12	626986	keystroke_e	e	n/a
313.9275	0.09	627855	keystroke_l	l	n/a
314.212	0.1205	628424	keystroke_a	a	n/a
314.4525	0.135	628905	keystroke_s	s	n/a
314.6175	0.0895	629235	keystroke_Key.space	Key.space	n/a
315.202	0.075	630404	keystroke_k	k	n/a
315.562	0.1045	631124	keystroke_a	a	n/a
316.836	0.06	633672	keystroke_Key.backspace	Key.backspace	n/a
317.031	0.045	634062	keystroke_Key.backspace	Key.backspace	n/a
317.2255	0.0445	634451	keystroke_Key.backspace	Key.backspace	n/a
317.42	0.09	634840	keystroke_Key.backspace	Key.backspace	n/a
318.4395	0.119	636879	keystroke_x	x	n/a
318.7535	0.06	637507	keystroke_Key.space	Key.space	n/a
319.0835	0.0905	638167	keystroke_k	k	n/a
319.2935	0.105	638587	keystroke_a	a	n/a
319.5785	0.12	639157	keystroke_t	t	n/a
319.7135	0.12	639427	keystroke_h	h	n/a
320.0885	0.105	640177	keystroke_y	y	n/a
320.3285	0.09	640657	keystroke_Key.space	Key.space	n/a
320.6135	0.1045	641227	keystroke_d	d	n/a
321.632	0.09	643264	keystroke_Key.backspace	Key.backspace	n/a
321.8565	0.0605	643713	keystroke_Key.backspace	Key.backspace	n/a
322.052	0.075	644104	keystroke_Key.backspace	Key.backspace	n/a
322.262	0.075	644524	keystroke_Key.backspace	Key.backspace	n/a
322.472	0.075	644944	keystroke_Key.backspace	Key.backspace	n/a
323.761	0.09	647522	keystroke_t	t	n/a
323.911	0.1495	647822	keystroke_h	h	n/a
324.1505	0.105	648301	keystroke_y	y	n/a
324.525	0.075	649050	keystroke_Key.space	Key.space	n/a
324.885	0.105	649770	keystroke_d	d	n/a
325.065	0.105	650130	keystroke_o	o	n/a
325.2	0.1195	650400	keystroke_e	e	n/a
325.4705	0.1045	650941	keystroke_s	s	n/a
325.635	0.105	651270	keystroke_Key.space	Key.space	n/a
326.01	0.105	652020	keystroke_f	f	n/a
326.2495	0.12	652499	keystroke_r	r	n/a
326.5045	0.09	653009	keystroke_e	e	n/a
326.6995	0.1045	653399	keystroke_e	e	n/a
327.193	0.09	654386	keystroke_b	b	n/a
327.9135	0.135	655827	keystroke_s	s	n/a
328.273	0.105	656546	keystroke_d	d	n/a
328.558	0.1195	657116	keystroke_Key.enter	Key.enter	n/a
328.6825	8.871	657365	prompt	n/a	florence integrity hood roof\n
329.472	0.09	658944	keystroke_f	f	n/a
329.7265	0.09	659453	keystroke_l	l	n/a
329.9665	0.09	659933	keystroke_o	o	n/a
330.1165	0.1195	660233	keystroke_r	r	n/a
330.476	0.12	660952	keystroke_e	e	n/a
330.671	0.12	661342	keystroke_n	n	n/a
330.956	0.12	661912	keystroke_c	c	n/a
331.151	0.135	662302	keystroke_e	e	n/a
331.316	0.135	662632	keystroke_Key.space	Key.space	n/a
331.6305	0.0895	663261	keystroke_i	i	n/a
331.825	0.105	663650	keystroke_n	n	n/a
332.095	0.12	664190	keystroke_t	t	n/a
332.4395	0.135	664879	keystroke_e	e	n/a
332.9945	0.1045	665989	keystroke_g	g	n/a
333.294	0.09	666588	keystroke_r	r	n/a
333.7295	0.0895	667459	keystroke_i	i	n/a
333.909	0.09	667818	keystroke_t	t	n/a
334.014	0.0905	668028	keystroke_y	y	n/a
334.239	0.075	668478	keystroke_Key.space	Key.space	n/a
334.5685	0.0745	669137	keystroke_h	h	n/a
335.1975	0.09	670395	keystroke_o	o	n/a
335.3925	0.105	670785	keystroke_o	o	n/a
335.5875	0.121	671175	keystroke_d	d	n/a
335.7225	0.1195	671445	keystroke_Key.space	Key.space	n/a
335.993	0.119	671986	keystroke_r	r	n/a
336.3675	0.075	672735	keystroke_o	o	n/a
336.547	0.12	673094	keystroke_o	o	n/a
336.997	0.1045	673994	keystroke_f	f	n/a
337.4315	0.12	674863	keystroke_Key.enter	Key.enter	n/a
337.5565	11.03	675113	prompt	n/a	argentina differential fold opera\n
338.3765	0.12	676753	keystroke_a	a	n/a
338.7215	0.12	677443	keystroke_r	r	n/a
339.4555	0.105	678911	keystroke_g	g	n/a
339.7105	0.1645	679421	keystroke_e	e	n/a
340.13	0.105	680260	keystroke_n	n	n/a
340.4305	0.0895	680861	keystroke_t	t	n/a
340.655	0.09	681310	keystroke_i	i	n/a
340.865	0.105	681730	keystroke_n	n	n/a
341.135	0.0895	682270	keystroke_a	a	n/a
341.2995	0.105	682599	keystroke_Key.space	Key.space	n/a
341.8095	0.135	683619	keystroke_d	d	n/a
342.259	0.075	684518	keystroke_i	i	n/a
342.529	0.075	685058	keystroke_f	f	n/a
342.679	0.0745	685358	keystroke_f	f	n/a
343.083	0.2245	686166	keystroke_e	e	n/a
343.2625	0.1505	686525	keystroke_r	r	n/a
343.698	0.135	687396	keystroke_e	e	n/a
344.073	0.1195	688146	keystroke_n	n	n/a
344.3125	0.12	688625	keystroke_t	t	n/a
344.552	0.105	689104	keystroke_i	i	n/a
344.8065	0.105	689613	keystroke_a	a	n/a
345.0165	0.105	690033	keystroke_l	l	n/a
345.272	0.0895	690544	keystroke_Key.space	Key.space	n/a
345.7065	0.0895	691413	keystroke_f	f	n/a
345.946	0.105	691892	keystroke_o	o	n/a
346.171	0.105	692342	keystroke_l	l	n/a
346.336	0.105	692672	keystroke_d	d	n/a
346.546	0.075	693092	keystroke_Key.space	Key.space	n/a
346.7405	0.12	693481	keystroke_o	o	n/a
347.4605	0.12	694921	keystroke_p	p	n/a
347.73	0.1805	695460	keystroke_e	e	n/a
347.8655	0.12	695731	keystroke_r	r	n/a
348.1805	0.1045	696361	keystroke_a	a	n/a
348.465	0.12	696930	keystroke_Key.enter	Key.enter	n/a
348.591	11.2985	697182	prompt	n/a	sunset performances lotus regarded\n
349.3045	0.1195	698609	keystroke_s	s	n/a
349.484	0.105	698968	keystroke_u	u	n/a
349.6935	0.075	699387	keystroke_n	n	n/a
350.369	0.12	700738	keystroke_s	s	n/a
350.623	0.12	701246	keystroke_e	e	n/a
350.939	0.075	701878	keystroke_t	t	n/a
351.134	0.0895	702268	keystroke_Key.space	Key.space	n/a
351.6125	0.1355	703225	keystroke_p	p	n/a
351.943	0.2095	703886	keystroke_e	e	n/a
352.093	0.1495	704186	keystroke_r	r	n/a
352.5425	0.105	705085	keystroke_f	f	n/a
352.6925	0.12	705385	keystroke_o	o	n/a
352.8425	0.134	705685	keystroke_r	r	n/a
353.531	0.09	707062	keystroke_m	m	n/a
353.816	0.15	707632	keystroke_a	a	n/a
353.981	0.105	707962	keystroke_n	n	n/a
354.266	0.135	708532	keystroke_c	c	n/a
354.461	0.135	708922	keystroke_e	e	n/a
354.7155	0.105	709431	keystroke_s	s	n/a
354.8355	0.135	709671	keystroke_Key.space	Key.space	n/a
355.2555	0.1205	710511	keystroke_l	l	n/a
355.706	0.1045	711412	keystroke_o	o	n/a
355.9455	0.09	711891	keystroke_t	t	n/a
356.1105	0.105	712221	keystroke_u	u	n/a
356.3205	0.1195	712641	keystroke_s	s	n/a
356.47	0.09	712940	keystroke_Key.space	Key.space	n/a
356.8005	0.135	713601	keystroke_r	r	n/a
357.0705	0.12	714141	keystroke_e	e	n/a
357.475	0.1045	714950	keystroke_g	g	n/a
357.8945	0.15	715789	keystroke_a	a	n/a
358.254	0.12	716508	keystroke_r	r	n/a
358.929	0.105	717858	keystroke_d	d	n/a
359.274	0.105	718548	keystroke_e	e	n/a
359.529	0.09	719058	keystroke_d	d	n/a
359.783	0.105	719566	keystroke_Key.enter	Key.enter	n/a
359.893	11.315	719786	prompt	n/a	lectures repeat ministries dana\n
360.6975	0.104	721395	keystroke_l	l	n/a
360.877	0.1645	721754	keystroke_e	e	n/a
361.2215	0.12	722443	keystroke_c	c	n/a
361.4615	0.09	722923	keystroke_t	t	n/a
361.6125	0.104	723225	keystroke_u	u	n/a
361.8375	0.135	723675	keystroke_r	r	n/a
362.0475	0.1485	724095	keystroke_e	e	n/a
362.3015	0.1055	724603	keystroke_s	s	n/a
362.527	0.104	725054	keystroke_Key.space	Key.space	n/a
362.857	0.1495	725714	keystroke_r	r	n/a
363.0965	0.12	726193	keystroke_e	e	n/a
363.411	0.135	726822	keystroke_p	p	n/a
364.595	0.0895	729190	keystroke_e	e	n/a
364.9395	0.12	729879	keystroke_a	a	n/a
365.7345	0.075	731469	keystroke_t	t	n/a
366.0195	0.075	732039	keystroke_Key.space	Key.space	n/a
366.304	0.09	732608	keystroke_m	m	n/a
366.529	0.075	733058	keystroke_i	i	n/a
366.7085	0.09	733417	keystroke_n	n	n/a
366.979	0.105	733958	keystroke_i	i	n/a
367.384	0.1195	734768	keystroke_s	s	n/a
367.6235	0.09	735247	keystroke_t	t	n/a
367.9385	0.12	735877	keystroke_r	r	n/a
368.1635	0.1045	736327	keystroke_i	i	n/a
368.568	0.1345	737136	keystroke_e	e	n/a
368.8375	0.105	737675	keystroke_s	s	n/a
369.227	0.09	738454	keystroke_Key.space	Key.space	n/a
369.9465	0.121	739893	keystroke_d	d	n/a
370.2775	0.1045	740555	keystroke_a	a	n/a
370.412	0.1045	740824	keystroke_n	n	n/a
370.7415	0.12	741483	keystroke_a	a	n/a
371.0865	0.1195	742173	keystroke_Key.enter	Key.enter	n/a
371.2115	20.805	742423	prompt	n/a	mexico places toolbox reserve\n
371.97	0.091	743940	keystroke_m	m	n/a
372.165	0.166	744330	keystroke_e	e	n/a
372.84	0.15	745680	keystroke_x	x	n/a
373.0955	0.075	746191	keystroke_i	i	n/a
373.4555	0.029	746911	keystroke_c	c	n/a
373.6955	0.119	747391	keystroke_o	o	n/a
374.294	0.075	748588	keystroke_Key.space	Key.space	n/a
374.714	0.105	749428	keystroke_p	p	n/a
374.984	0.09	749968	keystroke_l	l	n/a
376.3485	0.06	752697	keystroke_Key.backspace	Key.backspace	n/a
376.558	0.06	753116	keystroke_Key.backspace	Key.backspace	n/a
376.753	0.075	753506	keystroke_Key.backspace	Key.backspace	n/a
376.978	0.06	753956	keystroke_Key.backspace	Key.backspace	n/a
377.4425	0.09	754885	keystroke_Key.backspace	Key.backspace	n/a
378.1915	0.045	756383	keystroke_Key.backspace	Key.backspace	n/a
379.3915	0.06	758783	keystroke_i	i	n/a
379.6315	0.105	759263	keystroke_c	c	n/a
379.857	0.1045	759714	keystroke_o	o	n/a
380.1415	0.089	760283	keystroke_Key.space	Key.space	n/a
380.3965	0.12	760793	keystroke_p	p	n/a
380.666	0.105	761332	keystroke_l	l	n/a
380.906	0.135	761812	keystroke_e	e	n/a
382.239	0.03	764478	keystroke_Key.backspace	Key.backspace	n/a
383.2145	0.119	766429	keystroke_a	a	n/a
383.919	0.15	767838	keystroke_c	c	n/a
384.114	0.135	768228	keystroke_e	e	n/a
384.3385	0.12	768677	keystroke_s	s	n/a
384.5035	0.12	769007	keystroke_Key.space	Key.space	n/a
384.8485	0.105	769697	keystroke_t	t	n/a
385.0585	0.105	770117	keystroke_o	o	n/a
385.2835	0.09	770567	keystroke_o	o	n/a
386.228	0.105	772456	keystroke_l	l	n/a
386.513	0.105	773026	keystroke_b	b	n/a
386.663	0.1205	773326	keystroke_o	o	n/a
387.0525	0.12	774105	keystroke_x	x	n/a
387.3075	0.09	774615	keystroke_Key.space	Key.space	n/a
388.1315	0.135	776263	keystroke_r	r	n/a
388.3865	0.1795	776773	keystroke_e	e	n/a
390.728	0.087	781456	keystroke_s	s	n/a
390.935	0.135	781870	keystroke_e	e	n/a
391.19	0.1045	782380	keystroke_r	r	n/a
391.4745	0.0905	782949	keystroke_v	v	n/a
391.685	0.15	783370	keystroke_e	e	n/a
391.895	0.12	783790	keystroke_Key.enter	Key.enter	n/a
392.0195	9.937	784039	prompt	n/a	supervisor blackberry symbol tough\n
392.764	0.12	785528	keystroke_s	s	n/a
392.989	0.09	785978	keystroke_u	u	n/a
393.214	0.1195	786428	keystroke_p	p	n/a
393.3935	0.135	786787	keystroke_e	e	n/a
393.4835	0.1205	786967	keystroke_r	r	n/a
394.099	0.105	788198	keystroke_v	v	n/a
394.3235	0.1055	788647	keystroke_i	i	n/a
394.6835	0.12	789367	keystroke_s	s	n/a
394.8635	0.12	789727	keystroke_o	o	n/a
395.1635	0.105	790327	keystroke_r	r	n/a
395.388	0.075	790776	keystroke_Key.space	Key.space	n/a
395.673	0.105	791346	keystroke_b	b	n/a
395.913	0.105	791826	keystroke_l	l	n/a
396.108	0.165	792216	keystroke_a	a	n/a
396.4375	0.105	792875	keystroke_c	c	n/a
396.6025	0.09	793205	keystroke_k	k	n/a
396.9475	0.1045	793895	keystroke_b	b	n/a
397.217	0.12	794434	keystroke_e	e	n/a
397.5915	0.09	795183	keystroke_r	r	n/a
397.7865	0.075	795573	keystroke_r	r	n/a
397.9065	0.121	795813	keystroke_y	y	n/a
398.1465	0.09	796293	keystroke_Key.space	Key.space	n/a
398.416	0.151	796832	keystroke_s	s	n/a
398.626	0.105	797252	keystroke_y	y	n/a
399.0465	0.06	798093	keystroke_m	m	n/a
399.466	0.12	798932	keystroke_b	b	n/a
399.706	0.12	799412	keystroke_o	o	n/a
400.066	0.09	800132	keystroke_l	l	n/a
400.336	0.0895	800672	keystroke_Key.space	Key.space	n/a
400.6655	0.09	801331	keystroke_t	t	n/a
400.9505	0.135	801901	keystroke_o	o	n/a
401.1905	0.12	802381	keystroke_u	u	n/a
401.4005	0.09	802801	keystroke_g	g	n/a
401.535	0.09	803070	keystroke_h	h	n/a
401.8505	0.105	803701	keystroke_Key.enter	Key.enter	n/a
401.961	9.261	803922	prompt	n/a	split dividend massive chem\n
402.5995	0.09	805199	keystroke_s	s	n/a
402.8245	0.15	805649	keystroke_p	p	n/a
403.394	0.09	806788	keystroke_l	l	n/a
403.634	0.075	807268	keystroke_i	i	n/a
403.829	0.09	807658	keystroke_t	t	n/a
404.009	0.075	808018	keystroke_Key.space	Key.space	n/a
404.6235	0.09	809247	keystroke_d	d	n/a
404.8785	0.09	809757	keystroke_i	i	n/a
405.1785	0.12	810357	keystroke_v	v	n/a
405.7175	0.0755	811435	keystroke_i	i	n/a
405.973	0.105	811946	keystroke_d	d	n/a
406.2875	0.12	812575	keystroke_e	e	n/a
406.4375	0.105	812875	keystroke_n	n	n/a
406.7375	0.105	813475	keystroke_d	d	n/a
406.932	0.1205	813864	keystroke_Key.space	Key.space	n/a
407.3675	0.075	814735	keystroke_m	m	n/a
407.547	0.12	815094	keystroke_a	a	n/a
407.832	0.09	815664	keystroke_s	s	n/a
408.042	0.135	816084	keystroke_s	s	n/a
408.3125	0.0895	816625	keystroke_i	i	n/a
408.6125	0.1345	817225	keystroke_v	v	n/a
409.4515	0.0145	818903	keystroke_e	e	n/a
409.601	0.1055	819202	keystroke_Key.space	Key.space	n/a
410.006	0.105	820012	keystroke_c	c	n/a
410.186	0.12	820372	keystroke_h	h	n/a
410.336	0.135	820672	keystroke_e	e	n/a
410.531	0.09	821062	keystroke_m	m	n/a
411.1155	0.105	822231	keystroke_Key.enter	Key.enter	n/a
411.2275	11.494	822455	prompt	n/a	portraits proceed wrapped greatest\n
412.0295	0.105	824059	keystroke_p	p	n/a
412.495	0.0895	824990	keystroke_o	o	n/a
412.7345	0.105	825469	keystroke_r	r	n/a
412.9895	0.105	825979	keystroke_t	t	n/a
413.5145	0.15	827029	keystroke_r	r	n/a
413.949	0.1495	827898	keystroke_a	a	n/a
414.2635	0.09	828527	keystroke_i	i	n/a
414.4435	0.12	828887	keystroke_t	t	n/a
414.7295	0.119	829459	keystroke_s	s	n/a
415.044	0.015	830088	keystroke_Key.space	Key.space	n/a
415.239	0.1195	830478	keystroke_p	p	n/a
415.3885	0.135	830777	keystroke_r	r	n/a
415.6435	0.1045	831287	keystroke_o	o	n/a
416.168	0.105	832336	keystroke_c	c	n/a
416.483	0.135	832966	keystroke_e	e	n/a
417.1135	0.105	834227	keystroke_e	e	n/a
417.443	0.105	834886	keystroke_d	d	n/a
417.683	0.09	835366	keystroke_Key.space	Key.space	n/a
418.2075	0.12	836415	keystroke_w	w	n/a
418.5525	0.15	837105	keystroke_r	r	n/a
419.167	0.12	838334	keystroke_a	a	n/a
419.437	0.09	838874	keystroke_p	p	n/a
419.617	0.1045	839234	keystroke_p	p	n/a
419.7815	0.15	839563	keystroke_e	e	n/a
420.0665	0.105	840133	keystroke_d	d	n/a
420.2165	0.105	840433	keystroke_Key.space	Key.space	n/a
420.5615	0.09	841123	keystroke_g	g	n/a
420.832	0.134	841664	keystroke_r	r	n/a
421.056	0.1355	842112	keystroke_e	e	n/a
421.296	0.1345	842592	keystroke_a	a	n/a
421.4155	0.136	842831	keystroke_t	t	n/a
421.85	0.15	843700	keystroke_e	e	n/a
422.135	0.135	844270	keystroke_s	s	n/a
422.375	0.09	844750	keystroke_t	t	n/a
422.615	0.105	845230	keystroke_Key.enter	Key.enter	n/a
422.7255	14.061	845451	prompt	n/a	karaoke hospitality council cabinets\n
423.515	0.075	847030	keystroke_k	k	n/a
423.815	0.135	847630	keystroke_a	a	n/a
424.1	0.135	848200	keystroke_r	r	n/a
424.6995	0.12	849399	keystroke_a	a	n/a
425.074	0.12	850148	keystroke_o	o	n/a
425.4345	0.0595	850869	keystroke_k	k	n/a
425.659	0.0905	851318	keystroke_e	e	n/a
425.8695	0.075	851739	keystroke_Key.space	Key.space	n/a
426.1095	0.0755	852219	keystroke_h	h	n/a
426.2895	0.1195	852579	keystroke_o	o	n/a
426.469	0.12	852938	keystroke_s	s	n/a
426.904	0.1195	853808	keystroke_p	p	n/a
427.144	0.09	854288	keystroke_i	i	n/a
427.5935	0.0755	855187	keystroke_t	t	n/a
428.0885	0.105	856177	keystroke_a	a	n/a
428.583	0.091	857166	keystroke_l	l	n/a
428.8225	0.075	857645	keystroke_i	i	n/a
428.9875	0.09	857975	keystroke_t	t	n/a
429.1075	0.105	858215	keystroke_y	y	n/a
429.4975	0.09	858995	keystroke_Key.space	Key.space	n/a
429.7985	0.1045	859597	keystroke_c	c	n/a
430.038	0.135	860076	keystroke_o	o	n/a
430.202	0.1205	860404	keystroke_u	u	n/a
430.4425	0.09	860885	keystroke_n	n	n/a
430.877	0.12	861754	keystroke_c	c	n/a
431.222	0.09	862444	keystroke_i	i	n/a
431.5225	0.105	863045	keystroke_l	l	n/a
431.8375	0.075	863675	keystroke_Key.space	Key.space	n/a
432.332	0.135	864664	keystroke_c	c	n/a
432.692	0.135	865384	keystroke_a	a	n/a
433.1265	0.09	866253	keystroke_m	m	n/a
434.506	0.075	869012	keystroke_Key.backspace	Key.backspace	n/a
435.196	0.09	870392	keystroke_b	b	n/a
435.465	0.075	870930	keystroke_i	i	n/a
435.645	0.0905	871290	keystroke_n	n	n/a
435.9905	0.12	871981	keystroke_e	e	n/a
436.2455	0.0895	872491	keystroke_t	t	n/a
436.5	0.105	873000	keystroke_s	s	n/a
436.65	0.135	873300	keystroke_Key.enter	Key.enter	n/a
436.79	10.4925	873580	prompt	n/a	director martial arrivals swim\n
437.8045	0.09	875609	keystroke_d	d	n/a
438.0295	0.09	876059	keystroke_i	i	n/a
438.239	0.165	876478	keystroke_r	r	n/a
438.4945	0.149	876989	keystroke_e	e	n/a
438.7935	0.105	877587	keystroke_c	c	n/a
439.0345	0.105	878069	keystroke_t	t	n/a
439.3935	0.121	878787	keystroke_o	o	n/a
439.5435	0.1055	879087	keystroke_r	r	n/a
439.7985	0.075	879597	keystroke_Key.space	Key.space	n/a
440.053	0.0905	880106	keystroke_m	m	n/a
440.308	0.12	880616	keystroke_a	a	n/a
440.548	0.15	881096	keystroke_t	t	n/a
440.998	0.09	881996	keystroke_i	i	n/a
441.4475	0.1055	882895	keystroke_a	a	n/a
441.598	0.135	883196	keystroke_l	l	n/a
441.853	0.075	883706	keystroke_Key.space	Key.space	n/a
442.108	0.12	884216	keystroke_a	a	n/a
442.6325	0.09	885265	keystroke_r	r	n/a
442.8425	0.105	885685	keystroke_r	r	n/a
443.1125	0.105	886225	keystroke_i	i	n/a
443.4125	0.12	886825	keystroke_v	v	n/a
443.832	0.1045	887664	keystroke_a	a	n/a
444.5815	0.09	889163	keystroke_l	l	n/a
444.7465	0.135	889493	keystroke_s	s	n/a
445.0015	0.09	890003	keystroke_Key.space	Key.space	n/a
445.707	0.0895	891414	keystroke_s	s	n/a
445.9615	0.135	891923	keystroke_w	w	n/a
446.5465	0.1045	893093	keystroke_i	i	n/a
446.816	0.075	893632	keystroke_m	m	n/a
447.206	0.075	894412	keystroke_Key.enter	Key.enter	n/a
447.2855	9.294	894571	prompt	n/a	munich customers mirror paxil\n
448.255	0.105	896510	keystroke_m	m	n/a
448.54	0.105	897080	keystroke_u	u	n/a
448.78	0.09	897560	keystroke_n	n	n/a
449.0205	0.09	898041	keystroke_i	i	n/a
449.1705	0.1195	898341	keystroke_c	c	n/a
449.32	0.1195	898640	keystroke_h	h	n/a
449.5745	0.105	899149	keystroke_Key.space	Key.space	n/a
450.295	0.105	900590	keystroke_c	c	n/a
450.535	0.12	901070	keystroke_u	u	n/a
450.894	0.135	901788	keystroke_s	s	n/a
451.119	0.091	902238	keystroke_t	t	n/a
451.239	0.12	902478	keystroke_o	o	n/a
451.464	0.0895	902928	keystroke_m	m	n/a
451.6135	0.195	903227	keystroke_e	e	n/a
451.7335	0.135	903467	keystroke_r	r	n/a
451.9885	0.135	903977	keystroke_s	s	n/a
452.3785	0.105	904757	keystroke_Key.space	Key.space	n/a
452.6485	0.09	905297	keystroke_m	m	n/a
452.9035	0.09	905807	keystroke_i	i	n/a
453.2185	0.09	906437	keystroke_r	r	n/a
453.3985	0.09	906797	keystroke_r	r	n/a
453.594	0.09	907188	keystroke_o	o	n/a
453.7885	0.12	907577	keystroke_r	r	n/a
454.299	0.105	908598	keystroke_Key.space	Key.space	n/a
454.6585	0.105	909317	keystroke_p	p	n/a
454.958	0.12	909916	keystroke_a	a	n/a
455.453	0.18	910906	keystroke_x	x	n/a
455.828	0.0905	911656	keystroke_i	i	n/a
456.1285	0.1045	912257	keystroke_l	l	n/a
456.4725	0.1055	912945	keystroke_Key.enter	Key.enter	n/a
456.5825	24.484	913165	prompt	n/a	dynamic scheduled utilization xbox\n
457.4025	0.105	914805	keystroke_d	d	n/a
457.717	0.105	915434	keystroke_y	y	n/a
458.272	0.075	916544	keystroke_n	n	n/a
458.572	0.1195	917144	keystroke_a	a	n/a
458.7965	0.0905	917593	keystroke_m	m	n/a
459.022	0.075	918044	keystroke_i	i	n/a
459.232	0.1205	918464	keystroke_c	c	n/a
459.472	0.09	918944	keystroke_Key.space	Key.space	n/a
459.7575	0.1345	919515	keystroke_s	s	n/a
460.057	0.105	920114	keystroke_c	c	n/a
460.2815	0.09	920563	keystroke_h	h	n/a
460.806	0.09	921612	keystroke_e	e	n/a
461.466	0.105	922932	keystroke_u	u	n/a
461.826	0.075	923652	keystroke_l	l	n/a
462.006	0.1195	924012	keystroke_e	e	n/a
462.3205	0.105	924641	keystroke_d	d	n/a
462.5305	0.09	925061	keystroke_Key.space	Key.space	n/a
463.535	0.09	927070	keystroke_Key.backspace	Key.backspace	n/a
463.73	0.075	927460	keystroke_Key.backspace	Key.backspace	n/a
463.925	0.06	927850	keystroke_Key.backspace	Key.backspace	n/a
464.105	0.075	928210	keystroke_Key.backspace	Key.backspace	n/a
464.27	0.1205	928540	keystroke_Key.backspace	Key.backspace	n/a
466.175	0.1195	932350	keystroke_d	d	n/a
466.4295	0.12	932859	keystroke_u	u	n/a
466.6695	0.105	933339	keystroke_l	l	n/a
466.8345	0.15	933669	keystroke_e	e	n/a
467.1645	0.1345	934329	keystroke_d	d	n/a
467.719	0.075	935438	keystroke_Key.space	Key.space	n/a
468.1995	0.074	936399	keystroke_u	u	n/a
468.6635	0.09	937327	keystroke_t	t	n/a
469.0535	0.09	938107	keystroke_i	i	n/a
469.519	0.09	939038	keystroke_l	l	n/a
469.9385	0.12	939877	keystroke_z	z	n/a
470.3885	0.105	940777	keystroke_a	a	n/a
470.643	0.1055	941286	keystroke_t	t	n/a
470.8385	0.0895	941677	keystroke_i	i	n/a
471.018	0.105	942036	keystroke_o	o	n/a
471.198	0.135	942396	keystroke_n	n	n/a
471.498	0.1205	942996	keystroke_Key.space	Key.space	n/a
472.6375	0.075	945275	keystroke_Key.backspace	Key.backspace	n/a
472.8325	0.075	945665	keystroke_Key.backspace	Key.backspace	n/a
473.027	0.09	946054	keystroke_Key.backspace	Key.backspace	n/a
473.2225	0.09	946445	keystroke_Key.backspace	Key.backspace	n/a
473.4475	0.105	946895	keystroke_Key.backspace	Key.backspace	n/a
473.6575	0.105	947315	keystroke_Key.backspace	Key.backspace	n/a
473.867	0.1055	947734	keystroke_Key.backspace	Key.backspace	n/a
476.1635	0.088	952327	keystroke_z	z	n/a
477.0465	0.105	954093	keystroke_t	t	n/a
477.226	0.105	954452	keystroke_i	i	n/a
477.436	0.105	954872	keystroke_o	o	n/a
477.6155	0.105	955231	keystroke_n	n	n/a
478.0805	0.09	956161	keystroke_Key.space	Key.space	n/a
478.981	0.135	957962	keystroke_x	x	n/a
479.565	0.105	959130	keystroke_b	b	n/a
479.746	0.104	959492	keystroke_o	o	n/a
480.675	0.1055	961350	keystroke_x	x	n/a
480.9455	0.12	961891	keystroke_Key.enter	Key.enter	n/a
481.07	7.0595	962140	prompt	n/a	hence fighter chess dreams\n
482.1305	0.089	964261	keystroke_h	h	n/a
482.3395	0.12	964679	keystroke_e	e	n/a
482.4895	0.105	964979	keystroke_n	n	n/a
482.7595	0.105	965519	keystroke_c	c	n/a
482.9545	0.121	965909	keystroke_e	e	n/a
483.0895	0.12	966179	keystroke_Key.space	Key.space	n/a
483.3295	0.0905	966659	keystroke_f	f	n/a
483.45	0.09	966900	keystroke_i	i	n/a
483.69	0.105	967380	keystroke_g	g	n/a
483.84	0.09	967680	keystroke_h	h	n/a
483.9595	0.105	967919	keystroke_t	t	n/a
484.379	0.2105	968758	keystroke_e	e	n/a
484.5445	0.1355	969089	keystroke_r	r	n/a
484.8445	0.075	969689	keystroke_Key.space	Key.space	n/a
485.085	0.1045	970170	keystroke_c	c	n/a
485.2045	0.089	970409	keystroke_h	h	n/a
485.3385	0.135	970677	keystroke_e	e	n/a
485.5795	0.089	971159	keystroke_s	s	n/a
485.7585	0.12	971517	keystroke_s	s	n/a
485.9985	0.105	971997	keystroke_Key.space	Key.space	n/a
486.4035	0.0745	972807	keystroke_d	d	n/a
486.7495	0.1645	973499	keystroke_r	r	n/a
486.973	0.135	973946	keystroke_e	e	n/a
487.259	0.119	974518	keystroke_a	a	n/a
487.454	0.089	974908	keystroke_m	m	n/a
487.648	0.12	975296	keystroke_s	s	n/a
488.0075	0.12	976015	keystroke_Key.enter	Key.enter	n/a
488.1325	15.0905	976265	prompt	n/a	chad questionnaire develops arrest\n
489.1635	0.105	978327	keystroke_c	c	n/a
489.4035	0.075	978807	keystroke_h	h	n/a
489.553	0.12	979106	keystroke_a	a	n/a
489.868	0.09	979736	keystroke_d	d	n/a
490.093	0.075	980186	keystroke_Key.space	Key.space	n/a
490.4675	0.105	980935	keystroke_q	q	n/a
490.9325	0.09	981865	keystroke_e	e	n/a
491.172	0.12	982344	keystroke_s	s	n/a
491.442	0.075	982884	keystroke_t	t	n/a
492.1465	0.06	984293	keystroke_i	i	n/a
494.9465	0.0275	989893	keystroke_o	o	n/a
495.153	0.06	990306	keystroke_n	n	n/a
495.3175	0.0745	990635	keystroke_n	n	n/a
495.5565	0.1195	991113	keystroke_a	a	n/a
495.7205	0.0905	991441	keystroke_i	i	n/a
495.9005	0.1335	991801	keystroke_r	r	n/a
496.1695	0.0595	992339	keystroke_e	e	n/a
496.706	0.091	993412	keystroke_Key.space	Key.space	n/a
497.3485	0.1055	994697	keystroke_d	d	n/a
497.6025	0.1045	995205	keystroke_e	e	n/a
498.9925	0.104	997985	keystroke_v	v	n/a
499.231	0.1195	998462	keystroke_e	e	n/a
499.4555	0.1195	998911	keystroke_l	l	n/a
500.5455	0.1045	1001091	keystroke_o	o	n/a
500.7545	0.1045	1001509	keystroke_p	p	n/a
500.934	0.1045	1001868	keystroke_s	s	n/a
501.1135	0.0895	1002227	keystroke_Key.space	Key.space	n/a
501.6515	0.1045	1003303	keystroke_a	a	n/a
502.055	0.06	1004110	keystroke_r	r	n/a
502.2345	0.09	1004469	keystroke_r	r	n/a
502.429	0.135	1004858	keystroke_e	e	n/a
502.6385	0.1045	1005277	keystroke_s	s	n/a
502.863	0.1045	1005726	keystroke_t	t	n/a
503.1015	0.1195	1006203	keystroke_Key.enter	Key.enter	n/a
503.227	12.1315	1006454	prompt	n/a	given mozambique trauma sure\n
504.1515	0.0885	1008303	keystroke_g	g	n/a
504.3615	0.0745	1008723	keystroke_i	i	n/a
504.9175	0.1185	1009835	keystroke_v	v	n/a
505.141	0.136	1010282	keystroke_e	e	n/a
505.262	0.12	1010524	keystroke_n	n	n/a
505.5015	0.1195	1011003	keystroke_Key.space	Key.space	n/a
505.996	0.09	1011992	keystroke_m	m	n/a
506.4315	0.105	1012863	keystroke_o	o	n/a
507.482	0.0745	1014964	keystroke_z	z	n/a
508.6805	0.136	1017361	keystroke_a	a	n/a
508.8765	0.09	1017753	keystroke_m	m	n/a
509.3275	0.1195	1018655	keystroke_b	b	n/a
509.5965	0.105	1019193	keystroke_i	i	n/a
510.046	0.12	1020092	keystroke_q	q	n/a
510.1955	0.106	1020391	keystroke_u	u	n/a
510.436	0.1045	1020872	keystroke_e	e	n/a
510.735	0.1065	1021470	keystroke_Key.space	Key.space	n/a
511.382	0.1195	1022764	keystroke_t	t	n/a
511.666	0.136	1023332	keystroke_r	r	n/a
512.4015	0.1045	1024803	keystroke_a	a	n/a
512.7005	0.0895	1025401	keystroke_u	u	n/a
513.2705	0.0765	1026541	keystroke_m	m	n/a
513.526	0.1345	1027052	keystroke_a	a	n/a
514.2005	0.045	1028401	keystroke_Key.space	Key.space	n/a
514.4715	0.0745	1028943	keystroke_s	s	n/a
514.606	0.0895	1029212	keystroke_u	u	n/a
514.801	0.136	1029602	keystroke_r	r	n/a
515.0265	0.105	1030053	keystroke_e	e	n/a
515.236	0.1215	1030472	keystroke_Key.enter	Key.enter	n/a
515.363	25.4355	1030726	prompt	n/a	francisco swingers brief affects\n
516.107	0.0745	1032214	keystroke_f	f	n/a
516.526	0.105	1033052	keystroke_a	a	n/a
517.5765	0.0595	1035153	keystroke_Key.backspace	Key.backspace	n/a
518.176	0.0895	1036352	keystroke_r	r	n/a
518.4465	0.105	1036893	keystroke_a	a	n/a
518.5815	0.0895	1037163	keystroke_n	n	n/a
519.2705	0.0905	1038541	keystroke_c	c	n/a
519.467	0.0895	1038934	keystroke_i	i	n/a
519.796	0.121	1039592	keystroke_s	s	n/a
520.351	0.076	1040702	keystroke_c	c	n/a
520.517	0.1345	1041034	keystroke_o	o	n/a
520.801	0.09	1041602	keystroke_Key.space	Key.space	n/a
521.206	0.12	1042412	keystroke_w	w	n/a
521.4915	0.105	1042983	keystroke_e	e	n/a
522.0765	0.075	1044153	keystroke_i	i	n/a
522.256	0.09	1044512	keystroke_n	n	n/a
522.452	0.075	1044904	keystroke_g	g	n/a
522.6915	0.1495	1045383	keystroke_e	e	n/a
522.796	0.136	1045592	keystroke_r	r	n/a
523.082	0.09	1046164	keystroke_s	s	n/a
523.2915	0.12	1046583	keystroke_Key.space	Key.space	n/a
523.5475	0.1185	1047095	keystroke_b	b	n/a
523.8455	0.106	1047691	keystroke_r	r	n/a
525.017	0.1195	1050034	keystroke_Key.backspace	Key.backspace	n/a
525.2565	0.0595	1050513	keystroke_Key.backspace	Key.backspace	n/a
525.421	0.076	1050842	keystroke_Key.backspace	Key.backspace	n/a
525.6165	0.075	1051233	keystroke_Key.backspace	Key.backspace	n/a
525.7965	0.0745	1051593	keystroke_Key.backspace	Key.backspace	n/a
525.992	0.075	1051984	keystroke_Key.backspace	Key.backspace	n/a
526.1865	0.105	1052373	keystroke_Key.backspace	Key.backspace	n/a
526.411	0.076	1052822	keystroke_Key.backspace	Key.backspace	n/a
526.5915	0.09	1053183	keystroke_Key.backspace	Key.backspace	n/a
526.7865	0.0895	1053573	keystroke_Key.backspace	Key.backspace	n/a
526.982	0.119	1053964	keystroke_Key.backspace	Key.backspace	n/a
527.821	0.1215	1055642	keystroke_s	s	n/a
528.286	0.1055	1056572	keystroke_w	w	n/a
528.557	0.09	1057114	keystroke_i	i	n/a
528.752	0.0895	1057504	keystroke_n	n	n/a
529.022	0.09	1058044	keystroke_g	g	n/a
529.457	0.15	1058914	keystroke_e	e	n/a
529.562	0.1345	1059124	keystroke_r	r	n/a
529.8315	0.1055	1059663	keystroke_s	s	n/a
530.057	0.0895	1060114	keystroke_Key.space	Key.space	n/a
530.2515	0.03	1060503	keystroke_k	k	n/a
530.462	0.0895	1060924	keystroke_b	b	n/a
530.7465	0.0895	1061493	keystroke_r	r	n/a
530.9425	0.0595	1061885	keystroke_i	i	n/a
531.4525	0.1195	1062905	keystroke_e	e	n/a
531.8715	0.075	1063743	keystroke_f	f	n/a
532.1575	0.0895	1064315	keystroke_Key.space	Key.space	n/a
532.4565	0.1055	1064913	keystroke_a	a	n/a
532.9215	0.106	1065843	keystroke_f	f	n/a
533.117	0.0895	1066234	keystroke_f	f	n/a
534.0925	0.06	1068185	keystroke_Key.backspace	Key.backspace	n/a
534.272	0.075	1068544	keystroke_Key.backspace	Key.backspace	n/a
534.4665	0.076	1068933	keystroke_Key.backspace	Key.backspace	n/a
534.647	0.075	1069294	keystroke_Key.backspace	Key.backspace	n/a
534.842	0.0745	1069684	keystroke_Key.backspace	Key.backspace	n/a
535.0375	0.075	1070075	keystroke_Key.backspace	Key.backspace	n/a
535.232	0.075	1070464	keystroke_Key.backspace	Key.backspace	n/a
535.4265	0.076	1070853	keystroke_Key.backspace	Key.backspace	n/a
535.622	0.0895	1071244	keystroke_Key.backspace	Key.backspace	n/a
535.8315	0.0595	1071663	keystroke_Key.backspace	Key.backspace	n/a
536.687	0.09	1073374	keystroke_b	b	n/a
537.0025	0.12	1074005	keystroke_r	r	n/a
537.287	0.06	1074574	keystroke_i	i	n/a
537.6325	0.119	1075265	keystroke_e	e	n/a
538.202	0.0895	1076404	keystroke_f	f	n/a
538.5165	0.0905	1077033	keystroke_Key.space	Key.space	n/a
538.8615	0.105	1077723	keystroke_a	a	n/a
539.192	0.0895	1078384	keystroke_f	f	n/a
539.3715	0.075	1078743	keystroke_f	f	n/a
539.7165	0.15	1079433	keystroke_e	e	n/a
540.0175	0.1045	1080035	keystroke_c	c	n/a
540.272	0.0745	1080544	keystroke_t	t	n/a
540.497	0.09	1080994	keystroke_s	s	n/a
540.707	0.09	1081414	keystroke_Key.enter	Key.enter	n/a
540.8015	18.5375	1081603	prompt	n/a	watched lives nickname usgs\n
541.0215	0.0455	1082043	keystroke_k	k	n/a
541.5025	0.1345	1083005	keystroke_w	w	n/a
541.8905	0.1065	1083781	keystroke_a	a	n/a
542.191	0.106	1084382	keystroke_t	t	n/a
542.5515	0.09	1085103	keystroke_c	c	n/a
542.7165	0.09	1085433	keystroke_h	h	n/a
542.8515	0.135	1085703	keystroke_e	e	n/a
543.122	0.0895	1086244	keystroke_d	d	n/a
543.3315	0.0895	1086663	keystroke_Key.space	Key.space	n/a
543.5255	0.091	1087051	keystroke_l	l	n/a
543.7665	0.0595	1087533	keystroke_i	i	n/a
544.697	0.06	1089394	keystroke_Key.backspace	Key.backspace	n/a
544.892	0.06	1089784	keystroke_Key.backspace	Key.backspace	n/a
545.072	0.075	1090144	keystroke_Key.backspace	Key.backspace	n/a
545.252	0.075	1090504	keystroke_Key.backspace	Key.backspace	n/a
545.4315	0.091	1090863	keystroke_Key.backspace	Key.backspace	n/a
545.6425	0.0745	1091285	keystroke_Key.backspace	Key.backspace	n/a
545.837	0.075	1091674	keystroke_Key.backspace	Key.backspace	n/a
546.0325	0.0745	1092065	keystroke_Key.backspace	Key.backspace	n/a
546.2415	0.075	1092483	keystroke_Key.backspace	Key.backspace	n/a
546.4515	0.0745	1092903	keystroke_Key.backspace	Key.backspace	n/a
546.662	0.0895	1093324	keystroke_Key.backspace	Key.backspace	n/a
546.8865	0.045	1093773	keystroke_Key.backspace	Key.backspace	n/a
548.7175	0.089	1097435	keystroke_w	w	n/a
549.3465	0.09	1098693	keystroke_a	a	n/a
549.6025	0.105	1099205	keystroke_t	t	n/a
549.961	0.091	1099922	keystroke_c	c	n/a
550.2475	0.015	1100495	keystroke_h	h	n/a
550.3375	0.134	1100675	keystroke_e	e	n/a
551.0415	0.091	1102083	keystroke_d	d	n/a
551.5065	0.0755	1103013	keystroke_Key.space	Key.space	n/a
551.9715	0.09	1103943	keystroke_l	l	n/a
552.242	0.105	1104484	keystroke_i	i	n/a
552.452	0.1045	1104904	keystroke_v	v	n/a
552.707	0.1345	1105414	keystroke_e	e	n/a
553.052	0.091	1106104	keystroke_s	s	n/a
553.278	0.0885	1106556	keystroke_Key.space	Key.space	n/a
553.638	0.075	1107276	keystroke_k	k	n/a
554.447	0.06	1108894	keystroke_Key.backspace	Key.backspace	n/a
554.9865	0.09	1109973	keystroke_n	n	n/a
555.182	0.0745	1110364	keystroke_i	i	n/a
555.3465	0.09	1110693	keystroke_c	c	n/a
555.902	0.0455	1111804	keystroke_k	k	n/a
556.6375	0.09	1113275	keystroke_n	n	n/a
556.8775	0.105	1113755	keystroke_a	a	n/a
557.0125	0.075	1114025	keystroke_m	m	n/a
557.1925	0.12	1114385	keystroke_e	e	n/a
557.4325	0.0745	1114865	keystroke_Key.space	Key.space	n/a
557.7315	0.0755	1115463	keystroke_u	u	n/a
558.347	0.105	1116694	keystroke_s	s	n/a
558.662	0.09	1117324	keystroke_g	g	n/a
558.947	0.0895	1117894	keystroke_s	s	n/a
559.232	0.105	1118464	keystroke_Key.enter	Key.enter	n/a
559.3445	9.804	1118689	prompt	n/a	amanda obtaining blend damage\n
560.087	0.105	1120174	keystroke_a	a	n/a
560.3125	0.0745	1120625	keystroke_m	m	n/a
560.597	0.105	1121194	keystroke_a	a	n/a
560.777	0.105	1121554	keystroke_n	n	n/a
561.167	0.12	1122334	keystroke_d	d	n/a
561.467	0.105	1122934	keystroke_a	a	n/a
561.587	0.09	1123174	keystroke_Key.space	Key.space	n/a
561.992	0.1045	1123984	keystroke_o	o	n/a
562.247	0.105	1124494	keystroke_b	b	n/a
562.907	0.075	1125814	keystroke_t	t	n/a
563.3875	0.105	1126775	keystroke_a	a	n/a
563.627	0.0755	1127254	keystroke_i	i	n/a
563.838	0.06	1127676	keystroke_n	n	n/a
564.1675	0.0905	1128335	keystroke_i	i	n/a
564.363	0.075	1128726	keystroke_n	n	n/a
564.5725	0.06	1129145	keystroke_g	g	n/a
564.828	0.0895	1129656	keystroke_Key.space	Key.space	n/a
565.218	0.0895	1130436	keystroke_b	b	n/a
565.3975	0.09	1130795	keystroke_l	l	n/a
565.6825	0.0455	1131365	keystroke_e	e	n/a
566.1325	0.0905	1132265	keystroke_n	n	n/a
566.493	0.0895	1132986	keystroke_d	d	n/a
566.7625	0.09	1133525	keystroke_Key.space	Key.space	n/a
567.2275	0.1045	1134455	keystroke_d	d	n/a
567.482	0.12	1134964	keystroke_a	a	n/a
567.708	0.075	1135416	keystroke_m	m	n/a
568.3975	0.105	1136795	keystroke_a	a	n/a
568.5925	0.09	1137185	keystroke_g	g	n/a
568.8175	0.105	1137635	keystroke_e	e	n/a
569.0575	0.0895	1138115	keystroke_Key.enter	Key.enter	n/a
569.1515	10.0925	1138303	prompt	n/a	finite priest panels downloads\n
570.002	0.0755	1140004	keystroke_f	f	n/a
570.317	0.075	1140634	keystroke_i	i	n/a
570.5415	0.1055	1141083	keystroke_n	n	n/a
570.797	0.0605	1141594	keystroke_i	i	n/a
571.0065	0.0905	1142013	keystroke_t	t	n/a
571.2475	0.105	1142495	keystroke_e	e	n/a
571.4425	0.09	1142885	keystroke_Key.space	Key.space	n/a
571.7575	0.12	1143515	keystroke_p	p	n/a
571.9675	0.12	1143935	keystroke_r	r	n/a
572.912	0.061	1145824	keystroke_i	i	n/a
573.227	0.12	1146454	keystroke_e	e	n/a
573.4965	0.1065	1146993	keystroke_s	s	n/a
573.7525	0.09	1147505	keystroke_t	t	n/a
574.3225	0.09	1148645	keystroke_Key.space	Key.space	n/a
574.8925	0.1055	1149785	keystroke_p	p	n/a
575.072	0.105	1150144	keystroke_a	a	n/a
575.207	0.09	1150414	keystroke_n	n	n/a
575.447	0.1355	1150894	keystroke_e	e	n/a
575.687	0.075	1151374	keystroke_l	l	n/a
575.837	0.12	1151674	keystroke_s	s	n/a
576.0325	0.105	1152065	keystroke_Key.space	Key.space	n/a
576.3925	0.09	1152785	keystroke_d	d	n/a
576.603	0.09	1153206	keystroke_o	o	n/a
576.737	0.136	1153474	keystroke_w	w	n/a
577.008	0.0445	1154016	keystroke_n	n	n/a
577.6375	0.0595	1155275	keystroke_l	l	n/a
577.863	0.0895	1155726	keystroke_o	o	n/a
578.028	0.0895	1156056	keystroke_a	a	n/a
578.598	0.0895	1157196	keystroke_d	d	n/a
578.882	0.12	1157764	keystroke_s	s	n/a
579.138	0.105	1158276	keystroke_Key.enter	Key.enter	n/a
579.247	12.5675	1158494	prompt	n/a	violations extraordinary pics tracks\n
580.023	0.075	1160046	keystroke_v	v	n/a
580.338	0.075	1160676	keystroke_i	i	n/a
580.668	0.09	1161336	keystroke_o	o	n/a
580.923	0.075	1161846	keystroke_l	l	n/a
581.253	0.105	1162506	keystroke_a	a	n/a
581.463	0.1045	1162926	keystroke_t	t	n/a
581.5975	0.075	1163195	keystroke_i	i	n/a
581.822	0.075	1163644	keystroke_o	o	n/a
582.0175	0.075	1164035	keystroke_n	n	n/a
582.1975	0.09	1164395	keystroke_s	s	n/a
582.3775	0.09	1164755	keystroke_Key.space	Key.space	n/a
582.798	0.135	1165596	keystroke_e	e	n/a
583.188	0.105	1166376	keystroke_x	x	n/a
583.593	0.0895	1167186	keystroke_t	t	n/a
583.8775	0.1205	1167755	keystroke_r	r	n/a
584.2675	0.1495	1168535	keystroke_a	a	n/a
584.852	0.09	1169704	keystroke_o	o	n/a
585.1675	0.12	1170335	keystroke_r	r	n/a
585.887	0.1055	1171774	keystroke_d	d	n/a
586.187	0.075	1172374	keystroke_i	i	n/a
586.457	0.105	1172914	keystroke_n	n	n/a
586.772	0.105	1173544	keystroke_a	a	n/a
587.0575	0.1355	1174115	keystroke_r	r	n/a
587.313	0.105	1174626	keystroke_y	y	n/a
587.598	0.09	1175196	keystroke_Key.space	Key.space	n/a
587.958	0.105	1175916	keystroke_p	p	n/a
588.228	0.06	1176456	keystroke_i	i	n/a
588.438	0.12	1176876	keystroke_c	c	n/a
588.933	0.105	1177866	keystroke_s	s	n/a
589.247	0.075	1178494	keystroke_Key.space	Key.space	n/a
590.0875	0.1045	1180175	keystroke_t	t	n/a
590.403	0.1045	1180806	keystroke_r	r	n/a
590.7175	0.12	1181435	keystroke_a	a	n/a
591.0025	0.0905	1182005	keystroke_c	c	n/a
591.2125	0.075	1182425	keystroke_k	k	n/a
591.4225	0.1055	1182845	keystroke_s	s	n/a
591.723	0.09	1183446	keystroke_Key.enter	Key.enter	n/a
591.8185	21.191	1183637	prompt	n/a	projector i've susan discussed\n
592.653	0.09	1185306	keystroke_p	p	n/a
593.373	0.075	1186746	keystroke_r	r	n/a
593.613	0.105	1187226	keystroke_o	o	n/a
593.9875	0.0745	1187975	keystroke_j	j	n/a
594.198	0.15	1188396	keystroke_e	e	n/a
594.4985	0.09	1188997	keystroke_c	c	n/a
594.783	0.105	1189566	keystroke_t	t	n/a
594.948	0.105	1189896	keystroke_o	o	n/a
595.248	0.09	1190496	keystroke_r	r	n/a
595.653	0.075	1191306	keystroke_Key.space	Key.space	n/a
597.258	0.06	1194516	keystroke_i	i	n/a
597.7825	0.075	1195565	keystroke_'	'	n/a
598.203	0.075	1196406	keystroke_v	v	n/a
598.4725	0.12	1196945	keystroke_e	e	n/a
598.6675	0.09	1197335	keystroke_Key.space	Key.space	n/a
599.613	0.09	1199226	keystroke_s	s	n/a
599.943	0.075	1199886	keystroke_u	u	n/a
600.467	0.105	1200934	keystroke_s	s	n/a
600.7225	0.091	1201445	keystroke_a	a	n/a
600.8435	0.09	1201687	keystroke_n	n	n/a
601.098	0.0905	1202196	keystroke_Key.space	Key.space	n/a
601.4435	0.105	1202887	keystroke_d	d	n/a
601.6385	0.06	1203277	keystroke_i	i	n/a
602.8075	0.045	1205615	keystroke_Key.backspace	Key.backspace	n/a
602.9725	0.06	1205945	keystroke_Key.backspace	Key.backspace	n/a
603.168	0.0595	1206336	keystroke_Key.backspace	Key.backspace	n/a
603.3335	0.075	1206667	keystroke_Key.backspace	Key.backspace	n/a
603.5135	0.075	1207027	keystroke_Key.backspace	Key.backspace	n/a
603.678	0.09	1207356	keystroke_Key.backspace	Key.backspace	n/a
603.873	0.105	1207746	keystroke_Key.backspace	Key.backspace	n/a
604.173	0.015	1208346	keystroke_Key.backspace	Key.backspace	n/a
604.548	0.045	1209096	keystroke_k	k	n/a
606.9955	0.001	1213991	keystroke_Key.backspace	Key.backspace	n/a
607.3525	0.09	1214705	keystroke_s	s	n/a
607.5925	0.105	1215185	keystroke_u	u	n/a
607.9235	0.134	1215847	keystroke_s	s	n/a
608.1775	0.09	1216355	keystroke_a	a	n/a
608.2685	0.1045	1216537	keystroke_n	n	n/a
608.583	0.09	1217166	keystroke_Key.space	Key.space	n/a
609.6935	0.1195	1219387	keystroke_d	d	n/a
609.963	0.075	1219926	keystroke_i	i	n/a
610.563	0.1205	1221126	keystroke_s	s	n/a
610.9085	0.09	1221817	keystroke_c	c	n/a
611.478	0.075	1222956	keystroke_u	u	n/a
611.808	0.105	1223616	keystroke_s	s	n/a
612.003	0.105	1224006	keystroke_s	s	n/a
612.228	0.15	1224456	keystroke_e	e	n/a
612.573	0.075	1225146	keystroke_d	d	n/a
612.9185	0.09	1225837	keystroke_Key.enter	Key.enter	n/a
613.0125	19.422	1226025	prompt	n/a	investment graphical paid existence\n
613.773	0.06	1227546	keystroke_i	i	n/a
614.1025	0.075	1228205	keystroke_v	v	n/a
614.3435	0.105	1228687	keystroke_e	e	n/a
614.5385	0.105	1229077	keystroke_s	s	n/a
614.7035	0.12	1229407	keystroke_t	t	n/a
614.9435	0.075	1229887	keystroke_m	m	n/a
615.2135	0.015	1230427	keystroke_e	e	n/a
615.2585	0.075	1230517	keystroke_n	n	n/a
615.3935	0.09	1230787	keystroke_t	t	n/a
615.5585	0.09	1231117	keystroke_Key.space	Key.space	n/a
615.7985	0.09	1231597	keystroke_g	g	n/a
616.0535	0.12	1232107	keystroke_r	r	n/a
617.838	0.045	1235676	keystroke_Key.backspace	Key.backspace	n/a
618.018	0.045	1236036	keystroke_Key.backspace	Key.backspace	n/a
618.183	0.075	1236366	keystroke_Key.backspace	Key.backspace	n/a
618.378	0.075	1236756	keystroke_Key.backspace	Key.backspace	n/a
618.573	0.075	1237146	keystroke_Key.backspace	Key.backspace	n/a
618.768	0.06	1237536	keystroke_Key.backspace	Key.backspace	n/a
618.963	0.075	1237926	keystroke_Key.backspace	Key.backspace	n/a
619.1585	0.0745	1238317	keystroke_Key.backspace	Key.backspace	n/a
619.3535	0.09	1238707	keystroke_Key.backspace	Key.backspace	n/a
619.5635	0.09	1239127	keystroke_Key.backspace	Key.backspace	n/a
619.773	0.075	1239546	keystroke_Key.backspace	Key.backspace	n/a
620.2525	0.045	1240505	keystroke_Key.backspace	Key.backspace	n/a
620.8975	0.075	1241795	keystroke_i	i	n/a
621.0925	0.12	1242185	keystroke_n	n	n/a
621.7375	0.106	1243475	keystroke_v	v	n/a
622.0225	0.135	1244045	keystroke_e	e	n/a
622.2775	0.12	1244555	keystroke_s	s	n/a
622.5025	0.12	1245005	keystroke_t	t	n/a
622.7725	0.06	1245545	keystroke_m	m	n/a
622.8925	0.12	1245785	keystroke_e	e	n/a
623.0585	0.09	1246117	keystroke_n	n	n/a
623.2085	0.09	1246417	keystroke_t	t	n/a
623.3885	0.105	1246777	keystroke_Key.space	Key.space	n/a
623.853	0.075	1247706	keystroke_g	g	n/a
624.093	0.1205	1248186	keystroke_r	r	n/a
624.7835	0.15	1249567	keystroke_a	a	n/a
625.4735	0.1045	1250947	keystroke_p	p	n/a
625.668	0.075	1251336	keystroke_h	h	n/a
626.8675	0.06	1253735	keystroke_i	i	n/a
627.213	0.075	1254426	keystroke_c	c	n/a
627.438	0.105	1254876	keystroke_a	a	n/a
627.738	0.12	1255476	keystroke_l	l	n/a
628.008	0.09	1256016	keystroke_Key.space	Key.space	n/a
628.488	0.075	1256976	keystroke_p	p	n/a
628.698	0.09	1257396	keystroke_a	a	n/a
628.833	0.075	1257666	keystroke_i	i	n/a
629.0575	0.106	1258115	keystroke_d	d	n/a
629.3125	0.075	1258625	keystroke_Key.space	Key.space	n/a
629.718	0.165	1259436	keystroke_e	e	n/a
630.288	0.045	1260576	keystroke_x	x	n/a
630.573	0.06	1261146	keystroke_i	i	n/a
630.813	0.12	1261626	keystroke_s	s	n/a
631.083	0.105	1262166	keystroke_t	t	n/a
631.338	0.135	1262676	keystroke_e	e	n/a
631.563	0.0905	1263126	keystroke_n	n	n/a
631.9385	0.105	1263877	keystroke_c	c	n/a
632.1485	0.105	1264297	keystroke_e	e	n/a
632.3435	0.09	1264687	keystroke_Key.enter	Key.enter	n/a
632.4375	8.758	1264875	prompt	n/a	promises blast merge hairy\n
633.1685	0.09	1266337	keystroke_p	p	n/a
633.3785	0.105	1266757	keystroke_r	r	n/a
633.5435	0.105	1267087	keystroke_o	o	n/a
634.773	0.03	1269546	keystroke_m	m	n/a
634.983	0.0755	1269966	keystroke_i	i	n/a
635.179	0.105	1270358	keystroke_s	s	n/a
635.434	0.1495	1270868	keystroke_e	e	n/a
635.7635	0.0905	1271527	keystroke_d	d	n/a
635.974	0.089	1271948	keystroke_Key.space	Key.space	n/a
636.408	0.09	1272816	keystroke_b	b	n/a
636.633	0.075	1273266	keystroke_l	l	n/a
636.813	0.0905	1273626	keystroke_a	a	n/a
637.0385	0.12	1274077	keystroke_s	s	n/a
637.2485	0.0905	1274497	keystroke_t	t	n/a
637.3535	0.105	1274707	keystroke_Key.space	Key.space	n/a
637.7285	0.075	1275457	keystroke_m	m	n/a
637.969	0.194	1275938	keystroke_e	e	n/a
638.103	0.135	1276206	keystroke_r	r	n/a
638.463	0.09	1276926	keystroke_g	g	n/a
638.7185	0.0905	1277437	keystroke_e	e	n/a
638.914	0.09	1277828	keystroke_Key.space	Key.space	n/a
639.3335	0.09	1278667	keystroke_h	h	n/a
639.9485	0.1045	1279897	keystroke_a	a	n/a
640.2485	0.075	1280497	keystroke_i	i	n/a
640.4735	0.12	1280947	keystroke_r	r	n/a
640.8185	0.075	1281637	keystroke_y	y	n/a
641.103	0.09	1282206	keystroke_Key.enter	Key.enter	n/a
641.1985	29.727	1282397	prompt	n/a	tattoo explosion congratulations demonstrates\n
642.1535	0.089	1284307	keystroke_t	t	n/a
642.454	0.1345	1284908	keystroke_a	a	n/a
642.7085	0.105	1285417	keystroke_t	t	n/a
643.053	0.075	1286106	keystroke_o	o	n/a
643.233	0.0905	1286466	keystroke_o	o	n/a
643.4735	0.105	1286947	keystroke_Key.space	Key.space	n/a
643.788	0.135	1287576	keystroke_e	e	n/a
644.3585	0.09	1288717	keystroke_x	x	n/a
645.274	0.045	1290548	keystroke_Key.backspace	Key.backspace	n/a
645.454	0.045	1290908	keystroke_Key.backspace	Key.backspace	n/a
645.6185	0.0595	1291237	keystroke_Key.backspace	Key.backspace	n/a
645.8135	0.06	1291627	keystroke_Key.backspace	Key.backspace	n/a
645.9935	0.075	1291987	keystroke_Key.backspace	Key.backspace	n/a
646.1885	0.105	1292377	keystroke_Key.backspace	Key.backspace	n/a
646.3835	0.075	1292767	keystroke_Key.backspace	Key.backspace	n/a
646.5935	0.075	1293187	keystroke_Key.backspace	Key.backspace	n/a
647.359	0.015	1294718	keystroke_t	t	n/a
647.718	0.105	1295436	keystroke_a	a	n/a
648.033	0.06	1296066	keystroke_t	t	n/a
648.1835	0.09	1296367	keystroke_t	t	n/a
648.4835	0.075	1296967	keystroke_o	o	n/a
648.7085	0.09	1297417	keystroke_o	o	n/a
649.2185	0.0605	1298437	keystroke_Key.space	Key.space	n/a
649.579	0.1195	1299158	keystroke_e	e	n/a
650.8685	0.12	1301737	keystroke_x	x	n/a
651.2285	0.09	1302457	keystroke_p	p	n/a
652.264	0.0745	1304528	keystroke_l	l	n/a
652.7295	0.0595	1305459	keystroke_o	o	n/a
652.998	0.121	1305996	keystroke_s	s	n/a
653.329	0.06	1306658	keystroke_t	t	n/a
653.554	0.0905	1307108	keystroke_i	i	n/a
653.764	0.09	1307528	keystroke_o	o	n/a
653.989	0.105	1307978	keystroke_n	n	n/a
656.058	0.045	1312116	keystroke_Key.backspace	Key.backspace	n/a
656.238	0.075	1312476	keystroke_Key.backspace	Key.backspace	n/a
656.433	0.091	1312866	keystroke_Key.backspace	Key.backspace	n/a
656.659	0.045	1313318	keystroke_Key.backspace	Key.backspace	n/a
658.488	0.075	1316976	keystroke_i	i	n/a
658.728	0.12	1317456	keystroke_o	o	n/a
659.299	0.06	1318598	keystroke_n	n	n/a
659.629	0.09	1319258	keystroke_Key.space	Key.space	n/a
660.244	0.18	1320488	keystroke_e	e	n/a
660.709	0.0895	1321418	keystroke_o	o	n/a
660.9185	0.075	1321837	keystroke_n	n	n/a
661.099	0.09	1322198	keystroke_g	g	n/a
661.354	0.105	1322708	keystroke_r	r	n/a
661.654	0.105	1323308	keystroke_a	a	n/a
661.849	0.12	1323698	keystroke_t	t	n/a
662.134	0.09	1324268	keystroke_u	u	n/a
662.5245	0.06	1325049	keystroke_l	l	n/a
662.7645	0.105	1325529	keystroke_a	a	n/a
662.944	0.105	1325888	keystroke_t	t	n/a
663.064	0.0905	1326128	keystroke_i	i	n/a
663.619	0.105	1327238	keystroke_o	o	n/a
663.844	0.09	1327688	keystroke_n	n	n/a
664.009	0.12	1328018	keystroke_s	s	n/a
664.264	0.09	1328528	keystroke_Key.space	Key.space	n/a
664.6685	0.09	1329337	keystroke_d	d	n/a
664.9085	0.105	1329817	keystroke_e	e	n/a
665.1795	0.089	1330359	keystroke_m	m	n/a
665.4935	0.091	1330987	keystroke_o	o	n/a
667.054	0.0595	1334108	keystroke_n	n	n/a
667.3385	0.12	1334677	keystroke_s	s	n/a
667.5785	0.105	1335157	keystroke_t	t	n/a
667.9085	0.105	1335817	keystroke_r	r	n/a
669.739	0.09	1339478	keystroke_a	a	n/a
669.934	0.09	1339868	keystroke_t	t	n/a
670.189	0.15	1340378	keystroke_e	e	n/a
670.519	0.105	1341038	keystroke_s	s	n/a
670.8335	0.09	1341667	keystroke_Key.enter	Key.enter	n/a
670.929	18.5215	1341858	prompt	n/a	lexington beam album isn't\n
671.7935	0.06	1343587	keystroke_l	l	n/a
671.9885	0.165	1343977	keystroke_e	e	n/a
673.924	0.1045	1347848	keystroke_s	s	n/a
674.8695	0.0595	1349739	keystroke_Key.backspace	Key.backspace	n/a
675.1995	0.09	1350399	keystroke_x	x	n/a
675.499	0.09	1350998	keystroke_i	i	n/a
675.694	0.135	1351388	keystroke_n	n	n/a
675.874	0.09	1351748	keystroke_g	g	n/a
676.084	0.09	1352168	keystroke_t	t	n/a
676.159	0.105	1352318	keystroke_o	o	n/a
676.339	0.105	1352678	keystroke_n	n	n/a
676.564	0.075	1353128	keystroke_Key.space	Key.space	n/a
677.029	0.06	1354058	keystroke_b	b	n/a
677.704	0.075	1355408	keystroke_Key.backspace	Key.backspace	n/a
677.9135	0.045	1355827	keystroke_Key.backspace	Key.backspace	n/a
678.0935	0.075	1356187	keystroke_Key.backspace	Key.backspace	n/a
678.2885	0.0755	1356577	keystroke_Key.backspace	Key.backspace	n/a
678.484	0.075	1356968	keystroke_Key.backspace	Key.backspace	n/a
678.679	0.105	1357358	keystroke_Key.backspace	Key.backspace	n/a
678.904	0.075	1357808	keystroke_Key.backspace	Key.backspace	n/a
679.0995	0.105	1358199	keystroke_Key.backspace	Key.backspace	n/a
680.4795	0.075	1360959	keystroke_i	i	n/a
680.6895	0.12	1361379	keystroke_n	n	n/a
680.9295	0.0905	1361859	keystroke_g	g	n/a
681.1395	0.105	1362279	keystroke_t	t	n/a
681.2295	0.105	1362459	keystroke_o	o	n/a
681.4245	0.135	1362849	keystroke_n	n	n/a
681.8445	0.105	1363689	keystroke_Key.space	Key.space	n/a
682.0845	0.105	1364169	keystroke_b	b	n/a
683.0435	0.1205	1366087	keystroke_e	e	n/a
683.299	0.105	1366598	keystroke_a	a	n/a
683.5395	0.119	1367079	keystroke_m	m	n/a
683.7795	0.075	1367559	keystroke_Key.space	Key.space	n/a
684.1695	0.12	1368339	keystroke_a	a	n/a
684.4545	0.105	1368909	keystroke_l	l	n/a
684.7245	0.09	1369449	keystroke_b	b	n/a
684.919	0.105	1369838	keystroke_u	u	n/a
685.519	0.075	1371038	keystroke_m	m	n/a
685.8345	0.089	1371669	keystroke_Key.space	Key.space	n/a
686.269	0.075	1372538	keystroke_i	i	n/a
686.989	0.1195	1373978	keystroke_s	s	n/a
687.334	0.1045	1374668	keystroke_n	n	n/a
688.5045	0.104	1377009	keystroke_'	'	n/a
688.6685	0.105	1377337	keystroke_t	t	n/a
688.879	0.0595	1377758	keystroke_Key.space	Key.space	n/a
689.314	0.135	1378628	keystroke_Key.enter	Key.enter	n/a
689.4535	6.9125	1378907	prompt	n/a	motels sales therefore river\n
690.349	0.0895	1380698	keystroke_m	m	n/a
690.5435	0.09	1381087	keystroke_o	o	n/a
690.7535	0.1355	1381507	keystroke_t	t	n/a
691.099	0.135	1382198	keystroke_e	e	n/a
691.294	0.105	1382588	keystroke_l	l	n/a
691.459	0.135	1382918	keystroke_s	s	n/a
691.654	0.075	1383308	keystroke_Key.space	Key.space	n/a
691.8935	0.151	1383787	keystroke_s	s	n/a
692.1345	0.165	1384269	keystroke_a	a	n/a
692.2545	0.09	1384509	keystroke_l	l	n/a
692.4045	0.15	1384809	keystroke_e	e	n/a
692.6445	0.1355	1385289	keystroke_s	s	n/a
692.7945	0.09	1385589	keystroke_Key.space	Key.space	n/a
692.9445	0.105	1385889	keystroke_t	t	n/a
693.0945	0.075	1386189	keystroke_h	h	n/a
693.2445	0.18	1386489	keystroke_e	e	n/a
693.365	0.1645	1386730	keystroke_r	r	n/a
693.5135	0.091	1387027	keystroke_e	e	n/a
694.3395	0.1045	1388679	keystroke_f	f	n/a
694.505	0.119	1389010	keystroke_o	o	n/a
694.61	0.1195	1389220	keystroke_r	r	n/a
694.8495	0.09	1389699	keystroke_e	e	n/a
694.9545	0.105	1389909	keystroke_Key.space	Key.space	n/a
695.2695	0.135	1390539	keystroke_r	r	n/a
695.4495	0.045	1390899	keystroke_i	i	n/a
695.6445	0.1055	1391289	keystroke_v	v	n/a
695.855	0.195	1391710	keystroke_e	e	n/a
695.9745	0.1505	1391949	keystroke_r	r	n/a
696.275	0.09	1392550	keystroke_Key.enter	Key.enter	n/a
696.369	27.6125	1392738	prompt	n/a	richards revisions subscription signed\n
697.2345	0.15	1394469	keystroke_r	r	n/a
697.504	0.09	1395008	keystroke_i	i	n/a
697.744	0.12	1395488	keystroke_c	c	n/a
697.9395	0.105	1395879	keystroke_h	h	n/a
698.0895	0.15	1396179	keystroke_a	a	n/a
698.1945	0.165	1396389	keystroke_r	r	n/a
698.5385	0.135	1397077	keystroke_s	s	n/a
698.8245	0.12	1397649	keystroke_Key.space	Key.space	n/a
699.184	0.165	1398368	keystroke_r	r	n/a
699.439	0.135	1398878	keystroke_e	e	n/a
699.8895	0.12	1399779	keystroke_v	v	n/a
700.8345	0.06	1401669	keystroke_Key.backspace	Key.backspace	n/a
701.03	0.06	1402060	keystroke_Key.backspace	Key.backspace	n/a
701.24	0.06	1402480	keystroke_Key.backspace	Key.backspace	n/a
701.42	0.06	1402840	keystroke_Key.backspace	Key.backspace	n/a
701.6	0.09	1403200	keystroke_Key.backspace	Key.backspace	n/a
701.81	0.075	1403620	keystroke_Key.backspace	Key.backspace	n/a
702.02	0.09	1404040	keystroke_Key.backspace	Key.backspace	n/a
702.2445	0.075	1404489	keystroke_Key.backspace	Key.backspace	n/a
703.519	0.09	1407038	keystroke_h	h	n/a
703.834	0.1655	1407668	keystroke_a	a	n/a
704.059	0.1655	1408118	keystroke_r	r	n/a
704.465	0.1195	1408930	keystroke_d	d	n/a
705.005	0.1195	1410010	keystroke_s	s	n/a
705.2445	0.105	1410489	keystroke_Key.space	Key.space	n/a
705.7545	0.195	1411509	keystroke_r	r	n/a
707.105	0.105	1414210	keystroke_Key.backspace	Key.backspace	n/a
707.3	0.075	1414600	keystroke_Key.backspace	Key.backspace	n/a
707.45	0.105	1414900	keystroke_Key.backspace	Key.backspace	n/a
709.249	0.12	1418498	keystroke_r	r	n/a
709.7295	0.1205	1419459	keystroke_i	i	n/a
710.06	0.15	1420120	keystroke_c	c	n/a
710.39	0.135	1420780	keystroke_h	h	n/a
710.779	0.165	1421558	keystroke_a	a	n/a
711.109	0.18	1422218	keystroke_r	r	n/a
711.62	0.149	1423240	keystroke_d	d	n/a
712.0095	0.165	1424019	keystroke_s	s	n/a
712.5645	0.105	1425129	keystroke_Key.space	Key.space	n/a
713.1495	0.135	1426299	keystroke_r	r	n/a
713.3895	0.12	1426779	keystroke_e	e	n/a
714.395	0.09	1428790	keystroke_v	v	n/a
714.6795	0.075	1429359	keystroke_i	i	n/a
714.92	0.12	1429840	keystroke_s	s	n/a
715.145	0.09	1430290	keystroke_i	i	n/a
715.34	0.105	1430680	keystroke_o	o	n/a
715.55	0.12	1431100	keystroke_n	n	n/a
715.79	0.105	1431580	keystroke_s	s	n/a
715.955	0.105	1431910	keystroke_Key.space	Key.space	n/a
716.51	0.135	1433020	keystroke_s	s	n/a
716.87	0.105	1433740	keystroke_u	u	n/a
718.07	0.1045	1436140	keystroke_b	b	n/a
718.625	0.1195	1437250	keystroke_s	s	n/a
719.1645	0.15	1438329	keystroke_c	c	n/a
719.57	0.105	1439140	keystroke_r	r	n/a
719.78	0.135	1439560	keystroke_i	i	n/a
720.185	0.09	1440370	keystroke_p	p	n/a
720.455	0.1045	1440910	keystroke_t	t	n/a
720.6795	0.12	1441359	keystroke_i	i	n/a
720.9345	0.09	1441869	keystroke_o	o	n/a
721.1295	0.105	1442259	keystroke_n	n	n/a
721.3695	0.09	1442739	keystroke_Key.space	Key.space	n/a
721.7005	0.104	1443401	keystroke_s	s	n/a
722.345	0.09	1444690	keystroke_i	i	n/a
722.825	0.075	1445650	keystroke_g	g	n/a
723.0945	0.075	1446189	keystroke_n	n	n/a
723.3495	0.15	1446699	keystroke_e	e	n/a
723.65	0.105	1447300	keystroke_d	d	n/a
723.8755	0.105	1447751	keystroke_Key.enter	Key.enter	n/a
723.987	10.0145	1447974	prompt	n/a	supreme autos cement forever\n
724.894	0.106	1449788	keystroke_s	s	n/a
725.075	0.104	1450150	keystroke_u	u	n/a
725.345	0.1195	1450690	keystroke_p	p	n/a
725.6155	0.135	1451231	keystroke_r	r	n/a
725.8555	0.15	1451711	keystroke_e	e	n/a
726.1245	0.075	1452249	keystroke_m	m	n/a
726.3795	0.121	1452759	keystroke_e	e	n/a
726.936	0.0735	1453872	keystroke_Key.space	Key.space	n/a
727.3695	0.091	1454739	keystroke_a	a	n/a
727.5795	0.076	1455159	keystroke_u	u	n/a
727.7445	0.121	1455489	keystroke_t	t	n/a
727.9095	0.105	1455819	keystroke_o	o	n/a
728.1645	0.105	1456329	keystroke_Key.space	Key.space	n/a
728.6605	0.1045	1457321	keystroke_c	c	n/a
728.885	0.105	1457770	keystroke_e	e	n/a
729.125	0.0895	1458250	keystroke_m	m	n/a
729.3195	0.12	1458639	keystroke_e	e	n/a
729.5445	0.075	1459089	keystroke_n	n	n/a
729.725	0.105	1459450	keystroke_t	t	n/a
729.92	0.12	1459840	keystroke_Key.space	Key.space	n/a
730.19	0.09	1460380	keystroke_f	f	n/a
730.31	0.105	1460620	keystroke_o	o	n/a
730.43	0.15	1460860	keystroke_r	r	n/a
731.27	0.075	1462540	keystroke_v	v	n/a
732.4405	0.075	1464881	keystroke_Key.backspace	Key.backspace	n/a
732.725	0.1055	1465450	keystroke_e	e	n/a
733.2355	0.105	1466471	keystroke_v	v	n/a
733.4905	0.165	1466981	keystroke_e	e	n/a
733.6255	0.105	1467251	keystroke_r	r	n/a
733.8805	0.12	1467761	keystroke_Key.enter	Key.enter	n/a
734.0045	25.872	1468009	prompt	n/a	renaissance described packard polyphonic\n
734.8855	0.1195	1469771	keystroke_r	r	n/a
735.1995	0.09	1470399	keystroke_n	n	n/a
735.5905	0.0895	1471181	keystroke_a	a	n/a
735.845	0.0605	1471690	keystroke_i	i	n/a
736.1445	0.0905	1472289	keystroke_s	s	n/a
736.31	0.105	1472620	keystroke_s	s	n/a
736.565	0.1345	1473130	keystroke_a	a	n/a
736.7445	0.09	1473489	keystroke_n	n	n/a
737.015	0.1045	1474030	keystroke_c	c	n/a
737.2245	0.12	1474449	keystroke_e	e	n/a
737.3595	0.09	1474719	keystroke_Key.space	Key.space	n/a
737.7795	0.105	1475559	keystroke_d	d	n/a
738.6645	0.12	1477329	keystroke_e	e	n/a
739.0095	0.105	1478019	keystroke_s	s	n/a
739.46	0.09	1478920	keystroke_c	c	n/a
739.7595	0.105	1479519	keystroke_r	r	n/a
740.6	0.06	1481200	keystroke_i	i	n/a
740.915	0.105	1481830	keystroke_b	b	n/a
741.2455	0.1345	1482491	keystroke_e	e	n/a
741.515	0.1045	1483030	keystroke_d	d	n/a
741.7245	0.09	1483449	keystroke_Key.space	Key.space	n/a
742.1595	0.09	1484319	keystroke_p	p	n/a
742.37	0.135	1484740	keystroke_a	a	n/a
742.535	0.165	1485070	keystroke_r	r	n/a
743.3595	0.06	1486719	keystroke_k	k	n/a
743.6295	0.1505	1487259	keystroke_a	a	n/a
743.781	0.119	1487562	keystroke_r	r	n/a
744.125	0.1195	1488250	keystroke_d	d	n/a
744.3795	0.09	1488759	keystroke_Key.space	Key.space	n/a
744.7395	0.151	1489479	keystroke_p	p	n/a
746.54	0.075	1493080	keystroke_Key.backspace	Key.backspace	n/a
746.7355	0.075	1493471	keystroke_Key.backspace	Key.backspace	n/a
746.9455	0.0745	1493891	keystroke_Key.backspace	Key.backspace	n/a
747.14	0.09	1494280	keystroke_Key.backspace	Key.backspace	n/a
747.35	0.09	1494700	keystroke_Key.backspace	Key.backspace	n/a
747.545	0.0905	1495090	keystroke_Key.backspace	Key.backspace	n/a
748.265	0.045	1496530	keystroke_Key.backspace	Key.backspace	n/a
748.46	0.075	1496920	keystroke_Key.backspace	Key.backspace	n/a
748.685	0.06	1497370	keystroke_Key.backspace	Key.backspace	n/a
749.765	0.105	1499530	keystroke_p	p	n/a
750.095	0.1495	1500190	keystroke_a	a	n/a
750.5895	0.135	1501179	keystroke_c	c	n/a
750.9645	0.075	1501929	keystroke_k	k	n/a
751.2945	0.135	1502589	keystroke_a	a	n/a
751.6245	0.1505	1503249	keystroke_r	r	n/a
751.9555	0.1195	1503911	keystroke_d	d	n/a
752.2545	0.0905	1504509	keystroke_Key.space	Key.space	n/a
753.3055	0.12	1506611	keystroke_p	p	n/a
753.68	0.09	1507360	keystroke_o	o	n/a
754.355	0.075	1508710	keystroke_l	l	n/a
754.7905	0.12	1509581	keystroke_p	p	n/a
755.7055	0.06	1511411	keystroke_Key.backspace	Key.backspace	n/a
756.875	0.0755	1513750	keystroke_y	y	n/a
758.1645	0.1055	1516329	keystroke_p	p	n/a
758.3905	0.105	1516781	keystroke_h	h	n/a
758.765	0.105	1517530	keystroke_o	o	n/a
759.0655	0.09	1518131	keystroke_n	n	n/a
759.3205	0.0595	1518641	keystroke_i	i	n/a
759.485	0.09	1518970	keystroke_c	c	n/a
759.77	0.105	1519540	keystroke_Key.enter	Key.enter	n/a
759.8795	19.108	1519759	prompt	n/a	debt bermuda insertion academic\n
760.715	0.09	1521430	keystroke_d	d	n/a
760.94	0.105	1521880	keystroke_e	e	n/a
761.255	0.105	1522510	keystroke_b	b	n/a
761.54	0.0895	1523080	keystroke_t	t	n/a
761.7195	0.0905	1523439	keystroke_Key.space	Key.space	n/a
761.991	0.104	1523982	keystroke_b	b	n/a
762.23	0.1655	1524460	keystroke_e	e	n/a
762.3655	0.135	1524731	keystroke_r	r	n/a
762.65	0.075	1525300	keystroke_m	m	n/a
762.8905	0.075	1525781	keystroke_u	u	n/a
763.1005	0.1045	1526201	keystroke_d	d	n/a
763.46	0.1205	1526920	keystroke_a	a	n/a
763.6405	0.0895	1527281	keystroke_Key.space	Key.space	n/a
763.865	0.075	1527730	keystroke_i	i	n/a
764.06	0.075	1528120	keystroke_n	n	n/a
767.705	0.105	1535410	keystroke_Key.backspace	Key.backspace	n/a
767.915	0.0755	1535830	keystroke_Key.backspace	Key.backspace	n/a
768.1105	0.075	1536221	keystroke_Key.backspace	Key.backspace	n/a
768.3055	0.09	1536611	keystroke_Key.backspace	Key.backspace	n/a
768.5155	0.075	1537031	keystroke_Key.backspace	Key.backspace	n/a
768.6955	0.06	1537391	keystroke_Key.backspace	Key.backspace	n/a
768.8905	0.075	1537781	keystroke_Key.backspace	Key.backspace	n/a
769.7	0.12	1539400	keystroke_b	b	n/a
770.03	0.165	1540060	keystroke_e	e	n/a
770.345	0.15	1540690	keystroke_r	r	n/a
770.84	0.12	1541680	keystroke_m	m	n/a
771.155	0.106	1542310	keystroke_u	u	n/a
771.441	0.149	1542882	keystroke_d	d	n/a
771.74	0.121	1543480	keystroke_a	a	n/a
771.965	0.075	1543930	keystroke_Key.space	Key.space	n/a
772.941	0.06	1545882	keystroke_i	i	n/a
773.12	0.0755	1546240	keystroke_n	n	n/a
773.4655	0.075	1546931	keystroke_s	s	n/a
773.9905	0.135	1547981	keystroke_e	e	n/a
774.3505	0.105	1548701	keystroke_r	r	n/a
774.6955	0.06	1549391	keystroke_t	t	n/a
774.8755	0.09	1549751	keystroke_i	i	n/a
775.0855	0.1045	1550171	keystroke_o	o	n/a
775.28	0.075	1550560	keystroke_n	n	n/a
775.5655	0.075	1551131	keystroke_Key.space	Key.space	n/a
775.895	0.105	1551790	keystroke_a	a	n/a
776.315	0.105	1552630	keystroke_c	c	n/a
777.1555	0.12	1554311	keystroke_a	a	n/a
777.71	0.105	1555420	keystroke_d	d	n/a
777.98	0.1205	1555960	keystroke_e	e	n/a
778.2655	0.075	1556531	keystroke_m	m	n/a
778.491	0.06	1556982	keystroke_i	i	n/a
778.641	0.09	1557282	keystroke_c	c	n/a
778.881	0.105	1557762	keystroke_Key.enter	Key.enter	n/a
778.9905	11.8165	1557981	prompt	n/a	betting where're vietnam year\n
779.781	0.09	1559562	keystroke_b	b	n/a
780.036	0.09	1560072	keystroke_e	e	n/a
780.3505	0.075	1560701	keystroke_t	t	n/a
780.5605	0.0755	1561121	keystroke_t	t	n/a
781.3105	0.06	1562621	keystroke_i	i	n/a
781.4755	0.075	1562951	keystroke_n	n	n/a
781.5805	0.09	1563161	keystroke_g	g	n/a
781.745	0.09	1563490	keystroke_Key.space	Key.space	n/a
782.0455	0.12	1564091	keystroke_w	w	n/a
782.3455	0.075	1564691	keystroke_h	h	n/a
782.8705	0.1205	1565741	keystroke_e	e	n/a
783.1555	0.1205	1566311	keystroke_r	r	n/a
783.351	0.1345	1566702	keystroke_e	e	n/a
784.2505	0.09	1568501	keystroke_'	'	n/a
784.746	0.135	1569492	keystroke_r	r	n/a
785.0155	0.12	1570031	keystroke_e	e	n/a
785.4205	0.09	1570841	keystroke_Key.space	Key.space	n/a
785.9005	0.09	1571801	keystroke_v	v	n/a
786.396	0.06	1572792	keystroke_i	i	n/a
786.726	0.105	1573452	keystroke_e	e	n/a
787.011	0.1045	1574022	keystroke_t	t	n/a
787.5955	0.06	1575191	keystroke_n	n	n/a
787.8055	0.0895	1575611	keystroke_a	a	n/a
788.0155	0.0905	1576031	keystroke_m	m	n/a
788.2705	0.06	1576541	keystroke_Key.space	Key.space	n/a
789.9955	0.075	1579991	keystroke_y	y	n/a
790.1605	0.105	1580321	keystroke_e	e	n/a
790.3555	0.1505	1580711	keystroke_a	a	n/a
790.476	0.1345	1580952	keystroke_r	r	n/a
790.7005	0.105	1581401	keystroke_Key.enter	Key.enter	n/a
790.81	11.743	1581620	prompt	n/a	workplace types loaded buffalo\n
791.5555	0.105	1583111	keystroke_w	w	n/a
791.7205	0.1195	1583441	keystroke_o	o	n/a
791.9	0.135	1583800	keystroke_r	r	n/a
792.185	0.1205	1584370	keystroke_p	p	n/a
793.0855	0.075	1586171	keystroke_Key.backspace	Key.backspace	n/a
794.016	0.06	1588032	keystroke_k	k	n/a
794.7955	0.075	1589591	keystroke_p	p	n/a
795.0205	0.0755	1590041	keystroke_l	l	n/a
795.516	0.12	1591032	keystroke_a	a	n/a
795.8015	0.0895	1591603	keystroke_c	c	n/a
796.011	0.105	1592022	keystroke_e	e	n/a
796.13	0.106	1592260	keystroke_Key.space	Key.space	n/a
796.476	0.075	1592952	keystroke_t	t	n/a
796.611	0.105	1593222	keystroke_y	y	n/a
796.9105	0.09	1593821	keystroke_p	p	n/a
797.106	0.135	1594212	keystroke_e	e	n/a
797.375	0.105	1594750	keystroke_s	s	n/a
797.57	0.0905	1595140	keystroke_Key.space	Key.space	n/a
797.961	0.075	1595922	keystroke_l	l	n/a
798.1855	0.075	1596371	keystroke_o	o	n/a
798.5755	0.135	1597151	keystroke_a	a	n/a
798.98	0.091	1597960	keystroke_d	d	n/a
799.476	0.12	1598952	keystroke_e	e	n/a
799.761	0.075	1599522	keystroke_d	d	n/a
799.926	0.075	1599852	keystroke_Key.space	Key.space	n/a
800.181	0.0895	1600362	keystroke_b	b	n/a
800.3605	0.0745	1600721	keystroke_u	u	n/a
801.021	0.09	1602042	keystroke_f	f	n/a
801.201	0.0595	1602402	keystroke_f	f	n/a
