onset	duration	sample	value	key	prompt_text
1.3805	15.6075	2761	prompt	n/a	the quick brown fox jumps over a lazy dog\n
5.5075	0.028	11015	keystroke_t	t	n/a
5.5505	0.12	11101	keystroke_h	h	n/a
5.6555	0.12	11311	keystroke_e	e	n/a
5.8955	0.143	11791	keystroke_Key.space	Key.space	n/a
6.093	0.1225	12186	keystroke_q	q	n/a
6.2565	0.109	12513	keystroke_u	u	n/a
6.4885	0.159	12977	keystroke_i	i	n/a
6.6645	0.1665	13329	keystroke_c	c	n/a
6.8475	0.1495	13695	keystroke_k	k	n/a
7.057	0.1495	14114	keystroke_Key.space	Key.space	n/a
7.476	0.0745	14952	keystroke_b	b	n/a
7.7	0.1345	15400	keystroke_r	r	n/a
7.9715	0.1465	15943	keystroke_w	w	n/a
8.59	0.078	17180	keystroke_Key.backspace	Key.backspace	n/a
8.895	0.135	17790	keystroke_o	o	n/a
9.6455	0.076	19291	keystroke_w	w	n/a
9.992	0.1055	19984	keystroke_n	n	n/a
10.248	0.09	20496	keystroke_Key.space	Key.space	n/a
10.458	0.136	20916	keystroke_f	f	n/a
10.609	0.12	21218	keystroke_o	o	n/a
10.879	0.135	21758	keystroke_x	x	n/a
11.119	0.135	22238	keystroke_Key.space	Key.space	n/a
11.63	0.12	23260	keystroke_j	j	n/a
11.8995	0.12	23799	keystroke_u	u	n/a
12.23	0.195	24460	keystroke_m	m	n/a
12.44	0.1655	24880	keystroke_p	p	n/a
12.5605	0.135	25121	keystroke_s	s	n/a
12.7405	0.12	25481	keystroke_Key.space	Key.space	n/a
12.9355	0.15	25871	keystroke_o	o	n/a
13.1005	0.1055	26201	keystroke_v	v	n/a
13.2955	0.12	26591	keystroke_e	e	n/a
13.4305	0.074	26861	keystroke_r	r	n/a
13.535	0.135	27070	keystroke_Key.space	Key.space	n/a
14.0005	0.1505	28001	keystroke_a	a	n/a
14.1355	0.105	28271	keystroke_Key.space	Key.space	n/a
14.376	0.1195	28752	keystroke_l	l	n/a
14.4955	0.105	28991	keystroke_a	a	n/a
14.826	0.1945	29652	keystroke_z	z	n/a
15.035	0.135	30070	keystroke_y	y	n/a
15.23	0.09	30460	keystroke_Key.space	Key.space	n/a
15.471	0.1495	30942	keystroke_d	d	n/a
15.5895	0.136	31179	keystroke_o	o	n/a
15.7855	0.12	31571	keystroke_g	g	n/a
16.865	0.1205	33730	keystroke_Key.enter	Key.enter	n/a
16.9915	26.0235	33983	prompt	n/a	paypal stanley tracking dispatch\n
21.5345	0.086	43069	keystroke_p	p	n/a
21.5905	0.15	43181	keystroke_a	a	n/a
21.8455	0.1345	43691	keystroke_y	y	n/a
22.296	0.1645	44592	keystroke_p	p	n/a
22.4155	0.1205	44831	keystroke_a	a	n/a
22.6855	0.1495	45371	keystroke_l	l	n/a
22.8955	0.12	45791	keystroke_Key.space	Key.space	n/a
23.0905	0.1195	46181	keystroke_s	s	n/a
23.375	0.105	46750	keystroke_t	t	n/a
23.75	0.15	47500	keystroke_a	a	n/a
23.81	0.06	47620	keystroke_j	j	n/a
25.3255	0.075	50651	keystroke_Key.backspace	Key.backspace	n/a
26.6155	0.1945	53231	keystroke_a	a	n/a
27.1105	0.075	54221	keystroke_Key.backspace	Key.backspace	n/a
27.426	0.149	54852	keystroke_n	n	n/a
27.6205	0.18	55241	keystroke_l	l	n/a
27.965	0.1355	55930	keystroke_e	e	n/a
28.2355	0.1055	56471	keystroke_y	y	n/a
28.49	0.15	56980	keystroke_Key.space	Key.space	n/a
28.8805	0.105	57761	keystroke_t	t	n/a
29.3755	0.1055	58751	keystroke_r	r	n/a
29.721	0.1055	59442	keystroke_a	a	n/a
29.9905	0.166	59981	keystroke_c	c	n/a
30.1705	0.1205	60341	keystroke_k	k	n/a
30.411	0.165	60822	keystroke_i	i	n/a
30.546	0.165	61092	keystroke_n	n	n/a
30.682	0.134	61364	keystroke_g	g	n/a
30.771	0.12	61542	keystroke_Key.space	Key.space	n/a
31.056	0.165	62112	keystroke_d	d	n/a
31.236	0.091	62472	keystroke_i	i	n/a
31.4015	0.06	62803	keystroke_s	s	n/a
31.5365	0.1805	63073	keystroke_p	p	n/a
31.762	0.0895	63524	keystroke_a	a	n/a
32.181	0.136	64362	keystroke_c	c	n/a
32.482	0.1045	64964	keystroke_t	t	n/a
32.7815	0.135	65563	keystroke_c	c	n/a
33.4115	0.06	66823	keystroke_Key.backspace	Key.backspace	n/a
33.562	0.075	67124	keystroke_Key.backspace	Key.backspace	n/a
34.6275	0.1795	69255	keystroke_Key.backspace	Key.backspace	n/a
34.8975	0.12	69795	keystroke_t	t	n/a
41.5455	0.073	83091	keystroke_c	c	n/a
41.6485	0.09	83297	keystroke_h	h	n/a
42.9235	0.09	85847	keystroke_Key.enter	Key.enter	n/a
43.0185	11.6995	86037	prompt	n/a	justify medicines portfolio downloads\n
43.6885	0.12	87377	keystroke_j	j	n/a
43.9435	0.1205	87887	keystroke_u	u	n/a
44.0935	0.135	88187	keystroke_s	s	n/a
45.2785	0.0905	90557	keystroke_t	t	n/a
45.414	0.1195	90828	keystroke_i	i	n/a
45.564	0.135	91128	keystroke_f	f	n/a
45.729	0.165	91458	keystroke_y	y	n/a
45.894	0.15	91788	keystroke_Key.space	Key.space	n/a
46.134	0.18	92268	keystroke_m	m	n/a
46.284	0.105	92568	keystroke_e	e	n/a
46.569	0.12	93138	keystroke_d	d	n/a
46.734	0.09	93468	keystroke_i	i	n/a
47.814	0.12	95628	keystroke_c	c	n/a
48.054	0.09	96108	keystroke_i	i	n/a
48.234	0.135	96468	keystroke_n	n	n/a
48.444	0.12	96888	keystroke_e	e	n/a
48.774	0.151	97548	keystroke_s	s	n/a
48.8795	0.1505	97759	keystroke_Key.space	Key.space	n/a
49.1645	0.12	98329	keystroke_p	p	n/a
49.375	0.12	98750	keystroke_r	r	n/a
49.5245	0.12	99049	keystroke_o	o	n/a
49.69	0.12	99380	keystroke_t	t	n/a
50.02	0.1045	100040	keystroke_f	f	n/a
50.1255	0.089	100251	keystroke_o	o	n/a
50.4545	0.105	100909	keystroke_l	l	n/a
50.8595	0.075	101719	keystroke_i	i	n/a
51.0395	0.1355	102079	keystroke_o	o	n/a
51.355	0.12	102710	keystroke_Key.space	Key.space	n/a
51.535	0.1345	103070	keystroke_d	d	n/a
51.6705	0.1195	103341	keystroke_o	o	n/a
51.925	0.105	103850	keystroke_w	w	n/a
52.45	0.105	104900	keystroke_n	n	n/a
52.84	0.105	105680	keystroke_l	l	n/a
53.5305	0.09	107061	keystroke_o	o	n/a
53.7105	0.18	107421	keystroke_a	a	n/a
54.1155	0.1205	108231	keystroke_d	d	n/a
54.371	0.135	108742	keystroke_s	s	n/a
54.596	0.12	109192	keystroke_Key.enter	Key.enter	n/a
54.721	13.2745	109442	prompt	n/a	keyboard indexes pearl healthy\n
55.406	0.1355	110812	keystroke_k	k	n/a
55.5865	0.15	111173	keystroke_e	e	n/a
55.9015	0.1345	111803	keystroke_y	y	n/a
56.186	0.12	112372	keystroke_b	b	n/a
56.291	0.15	112582	keystroke_o	o	n/a
56.591	0.165	113182	keystroke_a	a	n/a
56.906	0.09	113812	keystroke_r	r	n/a
57.1915	0.15	114383	keystroke_d	d	n/a
57.4165	0.1055	114833	keystroke_Key.space	Key.space	n/a
57.657	0.12	115314	keystroke_i	i	n/a
57.791	0.151	115582	keystroke_n	n	n/a
57.957	0.119	115914	keystroke_d	d	n/a
58.2415	0.045	116483	keystroke_e	e	n/a
59.292	0.135	118584	keystroke_e	e	n/a
59.697	0.135	119394	keystroke_s	s	n/a
59.937	0.09	119874	keystroke_Key.space	Key.space	n/a
60.1615	0.1955	120323	keystroke_p	p	n/a
60.297	0.135	120594	keystroke_e	e	n/a
60.5215	0.1055	121043	keystroke_r	r	n/a
61.317	0.09	122634	keystroke_Key.backspace	Key.backspace	n/a
61.482	0.075	122964	keystroke_Key.backspace	Key.backspace	n/a
61.617	0.075	123234	keystroke_Key.backspace	Key.backspace	n/a
61.767	0.06	123534	keystroke_Key.backspace	Key.backspace	n/a
62.1575	0.105	124315	keystroke_Key.backspace	Key.backspace	n/a
62.3375	0.06	124675	keystroke_Key.backspace	Key.backspace	n/a
63.1025	0.0905	126205	keystroke_x	x	n/a
63.613	0.045	127226	keystroke_e	e	n/a
63.853	0.1055	127706	keystroke_s	s	n/a
64.2885	0.12	128577	keystroke_Key.space	Key.space	n/a
64.7085	0.15	129417	keystroke_p	p	n/a
64.8435	0.105	129687	keystroke_e	e	n/a
65.1135	0.105	130227	keystroke_a	a	n/a
65.3535	0.12	130707	keystroke_r	r	n/a
65.6235	0.1645	131247	keystroke_l	l	n/a
65.863	0.09	131726	keystroke_Key.space	Key.space	n/a
66.1485	0.1195	132297	keystroke_h	h	n/a
66.253	0.075	132506	keystroke_e	e	n/a
66.4335	0.12	132867	keystroke_a	a	n/a
66.808	0.1505	133616	keystroke_l	l	n/a
66.9885	0.09	133977	keystroke_t	t	n/a
67.258	0.09	134516	keystroke_h	h	n/a
67.483	0.1205	134966	keystroke_y	y	n/a
67.8585	0.135	135717	keystroke_Key.enter	Key.enter	n/a
67.999	8.173	135998	prompt	n/a	josh analyze setup complex\n
68.699	0.1345	137398	keystroke_j	j	n/a
68.8625	0.1065	137725	keystroke_o	o	n/a
68.999	0.165	137998	keystroke_s	s	n/a
69.179	0.089	138358	keystroke_h	h	n/a
69.3285	0.12	138657	keystroke_Key.space	Key.space	n/a
69.5535	0.165	139107	keystroke_a	a	n/a
69.6735	0.105	139347	keystroke_n	n	n/a
70.2585	0.165	140517	keystroke_a	a	n/a
70.4985	0.135	140997	keystroke_l	l	n/a
70.8735	0.165	141747	keystroke_y	y	n/a
71.864	0.135	143728	keystroke_z	z	n/a
72.2985	0.045	144597	keystroke_e	e	n/a
72.7645	0.105	145529	keystroke_Key.space	Key.space	n/a
72.9745	0.105	145949	keystroke_s	s	n/a
73.1995	0.12	146399	keystroke_e	e	n/a
73.4245	0.09	146849	keystroke_t	t	n/a
73.6045	0.105	147209	keystroke_u	u	n/a
73.9645	0.15	147929	keystroke_p	p	n/a
74.1295	0.105	148259	keystroke_Key.space	Key.space	n/a
74.355	0.195	148710	keystroke_c	c	n/a
74.49	0.21	148980	keystroke_o	o	n/a
74.685	0.165	149370	keystroke_m	m	n/a
74.88	0.15	149760	keystroke_p	p	n/a
75.15	0.15	150300	keystroke_l	l	n/a
75.3145	0.1355	150629	keystroke_e	e	n/a
75.7345	0.165	151469	keystroke_x	x	n/a
76.0045	0.1655	152009	keystroke_Key.enter	Key.enter	n/a
76.1755	15.042	152351	prompt	n/a	blast requires damage bibliography\n
79.382	0.043	158764	keystroke_b	b	n/a
79.44	0.18	158880	keystroke_l	l	n/a
79.56	0.1205	159120	keystroke_a	a	n/a
79.7855	0.1195	159571	keystroke_s	s	n/a
80.0705	0.1205	160141	keystroke_t	t	n/a
80.221	0.12	160442	keystroke_Key.space	Key.space	n/a
80.4155	0.1055	160831	keystroke_r	r	n/a
80.566	0.195	161132	keystroke_e	e	n/a
80.9705	0.1655	161941	keystroke_q	q	n/a
81.181	0.15	162362	keystroke_u	u	n/a
81.421	0.104	162842	keystroke_r	r	n/a
81.586	0.12	163172	keystroke_i	i	n/a
81.646	0.135	163292	keystroke_e	e	n/a
82.6205	0.03	165241	keystroke_Key.backspace	Key.backspace	n/a
82.71	0.075	165420	keystroke_Key.backspace	Key.backspace	n/a
82.981	0.12	165962	keystroke_e	e	n/a
83.5205	0.075	167041	keystroke_Key.backspace	Key.backspace	n/a
84.2405	0.105	168481	keystroke_Key.backspace	Key.backspace	n/a
84.6755	0.09	169351	keystroke_i	i	n/a
84.7805	0.135	169561	keystroke_r	r	n/a
84.9305	0.12	169861	keystroke_e	e	n/a
85.2005	0.135	170401	keystroke_s	s	n/a
85.3505	0.09	170701	keystroke_Key.space	Key.space	n/a
85.5605	0.1045	171121	keystroke_d	d	n/a
85.771	0.1645	171542	keystroke_a	a	n/a
85.9205	0.121	171841	keystroke_m	m	n/a
86.1905	0.165	172381	keystroke_a	a	n/a
86.4455	0.09	172891	keystroke_g	g	n/a
86.6255	0.12	173251	keystroke_e	e	n/a
86.7905	0.1045	173581	keystroke_Key.space	Key.space	n/a
87.181	0.119	174362	keystroke_b	b	n/a
87.6455	0.09	175291	keystroke_i	i	n/a
87.84	0.1055	175680	keystroke_b	b	n/a
87.991	0.165	175982	keystroke_l	l	n/a
88.216	0.1195	176432	keystroke_i	i	n/a
88.5005	0.15	177001	keystroke_o	o	n/a
88.86	0.135	177720	keystroke_g	g	n/a
89.19	0.0755	178380	keystroke_r	r	n/a
89.505	0.1655	179010	keystroke_a	a	n/a
89.6855	0.21	179371	keystroke_p	p	n/a
90.0755	0.09	180151	keystroke_h	h	n/a
90.4205	0.12	180841	keystroke_y	y	n/a
91.1095	0.105	182219	keystroke_Key.enter	Key.enter	n/a
91.222	12.206	182444	prompt	n/a	daddy warned competent folks\n
91.86	0.0745	183720	keystroke_d	d	n/a
92.055	0.1205	184110	keystroke_a	a	n/a
92.3705	0.06	184741	keystroke_d	d	n/a
92.5055	0.15	185011	keystroke_d	d	n/a
92.7305	0.135	185461	keystroke_y	y	n/a
92.8955	0.135	185791	keystroke_Key.space	Key.space	n/a
93.0905	0.105	186181	keystroke_w	w	n/a
93.3155	0.105	186631	keystroke_a	a	n/a
93.7505	0.12	187501	keystroke_r	r	n/a
93.9155	0.135	187831	keystroke_n	n	n/a
94.14	0.105	188280	keystroke_e	e	n/a
94.395	0.15	188790	keystroke_d	d	n/a
94.53	0.15	189060	keystroke_Key.space	Key.space	n/a
95.34	0.12	190680	keystroke_c	c	n/a
95.5655	0.105	191131	keystroke_o	o	n/a
96.0605	0.1505	192121	keystroke_p	p	n/a
96.316	0.12	192632	keystroke_e	e	n/a
96.571	0.12	193142	keystroke_t	t	n/a
96.751	0.18	193502	keystroke_e	e	n/a
97.846	0.075	195692	keystroke_Key.backspace	Key.backspace	n/a
98.011	0.059	196022	keystroke_Key.backspace	Key.backspace	n/a
98.131	0.075	196262	keystroke_Key.backspace	Key.backspace	n/a
98.25	0.0905	196500	keystroke_Key.backspace	Key.backspace	n/a
98.7765	0.1345	197553	keystroke_m	m	n/a
99.1515	0.149	198303	keystroke_p	p	n/a
99.3015	0.135	198603	keystroke_e	e	n/a
99.5405	0.091	199081	keystroke_t	t	n/a
100.2455	0.121	200491	keystroke_e	e	n/a
100.3955	0.136	200791	keystroke_n	n	n/a
100.5915	0.104	201183	keystroke_t	t	n/a
100.9505	0.105	201901	keystroke_Key.space	Key.space	n/a
101.2065	0.134	202413	keystroke_f	f	n/a
101.3705	0.1055	202741	keystroke_o	o	n/a
102.3765	0.1795	204753	keystroke_l	l	n/a
102.721	0.1505	205442	keystroke_k	k	n/a
102.9315	0.15	205863	keystroke_s	s	n/a
103.2765	0.15	206553	keystroke_Key.enter	Key.enter	n/a
103.4325	10.1055	206865	prompt	n/a	an amount kidney galleries\n
103.981	0.1505	207962	keystroke_a	a	n/a
104.1465	0.15	208293	keystroke_n	n	n/a
104.3415	0.105	208683	keystroke_Key.space	Key.space	n/a
104.8215	0.105	209643	keystroke_a	a	n/a
104.9115	0.135	209823	keystroke_m	m	n/a
105.1365	0.12	210273	keystroke_o	o	n/a
105.3465	0.1045	210693	keystroke_u	u	n/a
105.601	0.165	211202	keystroke_n	n	n/a
105.781	0.165	211562	keystroke_t	t	n/a
105.961	0.135	211922	keystroke_Key.space	Key.space	n/a
106.261	0.105	212522	keystroke_k	k	n/a
106.486	0.15	212972	keystroke_i	i	n/a
106.711	0.12	213422	keystroke_n	n	n/a
107.371	0.12	214742	keystroke_Key.backspace	Key.backspace	n/a
107.506	0.165	215012	keystroke_d	d	n/a
107.806	0.09	215612	keystroke_n	n	n/a
108.151	0.105	216302	keystroke_y	y	n/a
108.7065	0.12	217413	keystroke_e	e	n/a
109.0815	0.2395	218163	keystroke_Key.backspace	Key.backspace	n/a
109.621	0.24	219242	keystroke_Key.backspace	Key.backspace	n/a
109.816	0.1505	219632	keystroke_e	e	n/a
110.221	0.105	220442	keystroke_y	y	n/a
110.476	0.135	220952	keystroke_Key.space	Key.space	n/a
110.746	0.12	221492	keystroke_g	g	n/a
110.986	0.165	221972	keystroke_a	a	n/a
111.106	0.105	222212	keystroke_l	l	n/a
111.286	0.135	222572	keystroke_l	l	n/a
111.496	0.135	222992	keystroke_e	e	n/a
111.676	0.135	223352	keystroke_r	r	n/a
112.021	0.1055	224042	keystroke_i	i	n/a
112.141	0.0905	224282	keystroke_e	e	n/a
112.801	0.075	225602	keystroke_s	s	n/a
113.371	0.165	226742	keystroke_Key.enter	Key.enter	n/a
113.541	7.6475	227082	prompt	n/a	palace gazette exams hoped\n
114.2415	0.135	228483	keystroke_p	p	n/a
114.5115	0.18	229023	keystroke_l	l	n/a
114.6465	0.15	229293	keystroke_a	a	n/a
115.051	0.1505	230102	keystroke_c	c	n/a
115.3665	0.1055	230733	keystroke_e	e	n/a
115.577	0.105	231154	keystroke_Key.space	Key.space	n/a
115.802	0.1195	231604	keystroke_g	g	n/a
116.0415	0.165	232083	keystroke_a	a	n/a
116.4465	0.135	232893	keystroke_z	z	n/a
116.7615	0.1195	233523	keystroke_e	e	n/a
117.091	0.06	234182	keystroke_t	t	n/a
117.241	0.105	234482	keystroke_t	t	n/a
117.4515	0.135	234903	keystroke_e	e	n/a
117.7215	0.12	235443	keystroke_Key.space	Key.space	n/a
117.9615	0.12	235923	keystroke_e	e	n/a
118.3215	0.135	236643	keystroke_x	x	n/a
118.6515	0.15	237303	keystroke_a	a	n/a
118.8465	0.105	237693	keystroke_m	m	n/a
119.0565	0.1505	238113	keystroke_s	s	n/a
119.3265	0.12	238653	keystroke_Key.space	Key.space	n/a
119.612	0.164	239224	keystroke_h	h	n/a
119.762	0.12	239524	keystroke_o	o	n/a
119.987	0.18	239974	keystroke_p	p	n/a
120.182	0.12	240364	keystroke_e	e	n/a
120.511	0.121	241022	keystroke_d	d	n/a
121.007	0.1795	242014	keystroke_Key.enter	Key.enter	n/a
121.1915	14.9065	242383	prompt	n/a	exports trash robertson receptors\n
121.9515	0.09	243903	keystroke_e	e	n/a
122.2515	0.195	244503	keystroke_x	x	n/a
122.5065	0.135	245013	keystroke_p	p	n/a
122.7465	0.135	245493	keystroke_o	o	n/a
122.8665	0.135	245733	keystroke_r	r	n/a
123.1215	0.075	246243	keystroke_t	t	n/a
123.6765	0.105	247353	keystroke_s	s	n/a
123.916	0.12	247832	keystroke_Key.space	Key.space	n/a
124.186	0.0905	248372	keystroke_t	t	n/a
124.381	0.106	248762	keystroke_r	r	n/a
124.636	0.136	249272	keystroke_a	a	n/a
124.9215	0.1505	249843	keystroke_s	s	n/a
125.162	0.135	250324	keystroke_h	h	n/a
125.3255	0.15	250651	keystroke_Key.space	Key.space	n/a
125.6415	0.12	251283	keystroke_r	r	n/a
125.7765	0.135	251553	keystroke_o	o	n/a
126.0315	0.0745	252063	keystroke_b	b	n/a
126.256	0.135	252512	keystroke_e	e	n/a
126.451	0.105	252902	keystroke_r	r	n/a
126.736	0.09	253472	keystroke_t	t	n/a
127.231	0.1205	254462	keystroke_s	s	n/a
127.3665	0.195	254733	keystroke_o	o	n/a
127.5315	0.1655	255063	keystroke_n	n	n/a
127.711	0.105	255422	keystroke_Key.space	Key.space	n/a
127.907	0.104	255814	keystroke_r	r	n/a
128.581	0.105	257162	keystroke_Key.backspace	Key.backspace	n/a
128.806	0.15	257612	keystroke_Key.backspace	Key.backspace	n/a
129.0615	0.09	258123	keystroke_Key.backspace	Key.backspace	n/a
129.976	0.15	259952	keystroke_n	n	n/a
132.424	0.072	264848	keystroke_Key.space	Key.space	n/a
132.781	0.12	265562	keystroke_r	r	n/a
132.961	0.09	265922	keystroke_e	e	n/a
133.231	0.105	266462	keystroke_c	c	n/a
133.456	0.09	266912	keystroke_e	e	n/a
133.547	0.194	267094	keystroke_p	p	n/a
133.711	0.105	267422	keystroke_t	t	n/a
133.996	0.09	267992	keystroke_o	o	n/a
135.406	0.075	270812	keystroke_r	r	n/a
135.766	0.09	271532	keystroke_s	s	n/a
135.9905	0.106	271981	keystroke_Key.enter	Key.enter	n/a
136.1015	10.601	272203	prompt	n/a	outlook you'd oils memo\n
136.726	0.105	273452	keystroke_o	o	n/a
136.966	0.105	273932	keystroke_u	u	n/a
137.596	0.105	275192	keystroke_l	l	n/a
137.866	0.06	275732	keystroke_o	o	n/a
138.001	0.0895	276002	keystroke_o	o	n/a
138.2705	0.135	276541	keystroke_k	k	n/a
138.4805	0.1505	276961	keystroke_Key.space	Key.space	n/a
138.811	0.105	277622	keystroke_y	y	n/a
138.991	0.225	277982	keystroke_o	o	n/a
139.156	0.135	278312	keystroke_u	u	n/a
140.6265	0.09	281253	keystroke_'	'	n/a
140.7465	0.1495	281493	keystroke_d	d	n/a
142.066	0.165	284132	keystroke_Key.space	Key.space	n/a
142.726	0.075	285452	keystroke_i	i	n/a
143.8505	0.135	287701	keystroke_Key.backspace	Key.backspace	n/a
144.2105	0.12	288421	keystroke_o	o	n/a
144.5105	0.09	289021	keystroke_i	i	n/a
144.7665	0.119	289533	keystroke_l	l	n/a
144.9915	0.134	289983	keystroke_s	s	n/a
145.1405	0.09	290281	keystroke_Key.space	Key.space	n/a
145.426	0.135	290852	keystroke_m	m	n/a
145.576	0.1195	291152	keystroke_e	e	n/a
145.9505	0.1505	291901	keystroke_m	m	n/a
146.206	0.105	292412	keystroke_o	o	n/a
146.581	0.12	293162	keystroke_Key.enter	Key.enter	n/a
146.706	14.5465	293412	prompt	n/a	would've flooring trek motorcycle\n
147.5555	0.165	295111	keystroke_w	w	n/a
147.7055	0.12	295411	keystroke_o	o	n/a
148.0355	0.106	296071	keystroke_u	u	n/a
148.2905	0.18	296581	keystroke_l	l	n/a
148.4715	0.104	296943	keystroke_d	d	n/a
149.5355	0.18	299071	keystroke_'	'	n/a
149.9105	0.135	299821	keystroke_v	v	n/a
150.5255	0.12	301051	keystroke_e	e	n/a
150.7655	0.09	301531	keystroke_Key.space	Key.space	n/a
150.946	0.135	301892	keystroke_f	f	n/a
151.096	0.12	302192	keystroke_l	l	n/a
151.351	0.135	302702	keystroke_o	o	n/a
151.531	0.075	303062	keystroke_r	r	n/a
151.711	0.09	303422	keystroke_r	r	n/a
151.951	0.165	303902	keystroke_i	i	n/a
152.236	0.135	304472	keystroke_n	n	n/a
152.341	0.15	304682	keystroke_g	g	n/a
152.536	0.15	305072	keystroke_Key.space	Key.space	n/a
152.881	0.045	305762	keystroke_t	t	n/a
153.166	0.105	306332	keystroke_Key.backspace	Key.backspace	n/a
153.346	0.0595	306692	keystroke_Key.backspace	Key.backspace	n/a
153.4805	0.075	306961	keystroke_Key.backspace	Key.backspace	n/a
153.616	0.06	307232	keystroke_Key.backspace	Key.backspace	n/a
153.766	0.06	307532	keystroke_Key.backspace	Key.backspace	n/a
153.871	0.075	307742	keystroke_Key.backspace	Key.backspace	n/a
154.3355	0.09	308671	keystroke_Key.backspace	Key.backspace	n/a
154.651	0.12	309302	keystroke_o	o	n/a
154.801	0.09	309602	keystroke_r	r	n/a
155.011	0.12	310022	keystroke_i	i	n/a
155.146	0.12	310292	keystroke_n	n	n/a
155.266	0.12	310532	keystroke_g	g	n/a
155.431	0.15	310862	keystroke_Key.space	Key.space	n/a
155.791	0.135	311582	keystroke_r	r	n/a
156.0755	0.165	312151	keystroke_r	r	n/a
156.8255	0.075	313651	keystroke_Key.backspace	Key.backspace	n/a
156.9605	0.105	313921	keystroke_Key.backspace	Key.backspace	n/a
157.1255	0.09	314251	keystroke_t	t	n/a
157.3655	0.135	314731	keystroke_r	r	n/a
157.5755	0.135	315151	keystroke_e	e	n/a
157.8905	0.1355	315781	keystroke_k	k	n/a
158.4005	0.135	316801	keystroke_Key.space	Key.space	n/a
158.7605	0.15	317521	keystroke_m	m	n/a
158.9255	0.165	317851	keystroke_o	o	n/a
159.1055	0.09	318211	keystroke_t	t	n/a
159.2255	0.1355	318451	keystroke_o	o	n/a
159.376	0.09	318752	keystroke_r	r	n/a
159.766	0.135	319532	keystroke_c	c	n/a
160.021	0.1045	320042	keystroke_y	y	n/a
160.1705	0.105	320341	keystroke_c	c	n/a
160.4255	0.15	320851	keystroke_l	l	n/a
160.6055	0.075	321211	keystroke_e	e	n/a
161.1455	0.105	322291	keystroke_Key.enter	Key.enter	n/a
161.2555	12.521	322511	prompt	n/a	resolutions pipe facing capitol\n
161.8805	0.12	323761	keystroke_r	r	n/a
162.0305	0.12	324061	keystroke_e	e	n/a
162.3605	0.18	324721	keystroke_s	s	n/a
162.6005	0.09	325201	keystroke_o	o	n/a
162.8405	0.135	325681	keystroke_l	l	n/a
163.0955	0.1195	326191	keystroke_u	u	n/a
163.261	0.135	326522	keystroke_t	t	n/a
164.0415	0.014	328083	keystroke_i	i	n/a
164.161	0.209	328322	keystroke_o	o	n/a
164.325	0.165	328650	keystroke_n	n	n/a
165	0.1355	330000	keystroke_s	s	n/a
165.1505	0.135	330301	keystroke_Key.space	Key.space	n/a
165.6015	0.1045	331203	keystroke_p	p	n/a
165.901	0.165	331802	keystroke_o	o	n/a
166.636	0.0895	333272	keystroke_Key.backspace	Key.backspace	n/a
166.9955	0.1195	333991	keystroke_i	i	n/a
168.3005	0.09	336601	keystroke_p	p	n/a
168.5255	0.12	337051	keystroke_e	e	n/a
169.231	0.1345	338462	keystroke_Key.space	Key.space	n/a
169.5155	0.135	339031	keystroke_f	f	n/a
169.7255	0.135	339451	keystroke_a	a	n/a
170.0555	0.135	340111	keystroke_c	c	n/a
170.2955	0.18	340591	keystroke_i	i	n/a
170.4305	0.15	340861	keystroke_n	n	n/a
170.5655	0.135	341131	keystroke_g	g	n/a
170.7155	0.105	341431	keystroke_Key.space	Key.space	n/a
170.9705	0.135	341941	keystroke_c	c	n/a
171.1655	0.195	342331	keystroke_a	a	n/a
171.3455	0.21	342691	keystroke_p	p	n/a
171.6605	0.105	343321	keystroke_i	i	n/a
171.8255	0.0895	343651	keystroke_t	t	n/a
172.1255	0.24	344251	keystroke_a	a	n/a
172.815	0.09	345630	keystroke_Key.backspace	Key.backspace	n/a
173.1	0.105	346200	keystroke_o	o	n/a
173.355	0.105	346710	keystroke_l	l	n/a
173.685	0.09	347370	keystroke_Key.enter	Key.enter	n/a
173.78	12.4165	347560	prompt	n/a	shortcuts visit mart utilize\n
174.3755	0.135	348751	keystroke_s	s	n/a
174.4955	0.12	348991	keystroke_h	h	n/a
174.6455	0.165	349291	keystroke_o	o	n/a
174.8255	0.105	349651	keystroke_r	r	n/a
175.0655	0.06	350131	keystroke_t	t	n/a
175.38	0.135	350760	keystroke_c	c	n/a
175.5	0.12	351000	keystroke_u	u	n/a
175.68	0.12	351360	keystroke_s	s	n/a
175.95	0.105	351900	keystroke_t	t	n/a
176.4155	0.12	352831	keystroke_s	s	n/a
176.6105	0.164	353221	keystroke_Key.space	Key.space	n/a
176.8355	0.12	353671	keystroke_v	v	n/a
176.9705	0.135	353941	keystroke_i	i	n/a
177.1195	0.165	354239	keystroke_s	s	n/a
178.215	0.105	356430	keystroke_Key.backspace	Key.backspace	n/a
178.41	0.09	356820	keystroke_Key.backspace	Key.backspace	n/a
178.56	0.075	357120	keystroke_Key.backspace	Key.backspace	n/a
178.68	0.0895	357360	keystroke_Key.backspace	Key.backspace	n/a
178.8295	0.075	357659	keystroke_Key.backspace	Key.backspace	n/a
178.9795	0.06	357959	keystroke_Key.backspace	Key.backspace	n/a
179.7145	0.105	359429	keystroke_Key.backspace	Key.backspace	n/a
179.8645	0.12	359729	keystroke_t	t	n/a
180.4205	0.119	360841	keystroke_s	s	n/a
180.69	0.15	361380	keystroke_Key.space	Key.space	n/a
181.26	0.12	362520	keystroke_v	v	n/a
181.335	0.135	362670	keystroke_i	i	n/a
181.5	0.15	363000	keystroke_s	s	n/a
181.725	0.1195	363450	keystroke_i	i	n/a
181.9045	0.135	363809	keystroke_t	t	n/a
182.07	0.135	364140	keystroke_Key.space	Key.space	n/a
182.2795	0.15	364559	keystroke_m	m	n/a
182.3995	0.12	364799	keystroke_a	a	n/a
182.6245	0.075	365249	keystroke_r	r	n/a
182.8345	0.075	365669	keystroke_t	t	n/a
182.9995	0.15	365999	keystroke_Key.space	Key.space	n/a
183.3295	0.12	366659	keystroke_u	u	n/a
183.585	0.09	367170	keystroke_t	t	n/a
183.705	0.075	367410	keystroke_i	i	n/a
184.125	0.1345	368250	keystroke_i	i	n/a
184.3795	0.135	368759	keystroke_z	z	n/a
185.1445	0.06	370289	keystroke_e	e	n/a
186.09	0.105	372180	keystroke_Key.enter	Key.enter	n/a
186.2	33.691	372400	prompt	n/a	freight edwards preston vancouver\n
196.66	0.091	393320	keystroke_o	o	n/a
196.9315	0.07	393863	keystroke_k	k	n/a
206.7755	0.029	413551	keystroke_f	f	n/a
206.939	0.1205	413878	keystroke_r	r	n/a
207.0895	0.149	414179	keystroke_e	e	n/a
207.8175	0.1055	415635	keystroke_i	i	n/a
208.134	0.1645	416268	keystroke_g	g	n/a
208.3585	0.1345	416717	keystroke_h	h	n/a
208.508	0.106	417016	keystroke_t	t	n/a
208.7485	0.15	417497	keystroke_Key.space	Key.space	n/a
209.0185	0.1205	418037	keystroke_e	e	n/a
209.394	0.135	418788	keystroke_d	d	n/a
209.7835	0.09	419567	keystroke_w	w	n/a
210.0085	0.135	420017	keystroke_a	a	n/a
210.2485	0.0905	420497	keystroke_r	r	n/a
210.579	0.09	421158	keystroke_d	d	n/a
210.804	0.105	421608	keystroke_s	s	n/a
210.998	0.09	421996	keystroke_Key.space	Key.space	n/a
212.528	0.21	425056	keystroke_p	p	n/a
212.798	0.165	425596	keystroke_r	r	n/a
213.008	0.1355	426016	keystroke_e	e	n/a
213.263	0.1355	426526	keystroke_s	s	n/a
213.5335	0.12	427067	keystroke_t	t	n/a
213.6985	0.135	427397	keystroke_o	o	n/a
213.8935	0.1495	427787	keystroke_n	n	n/a
214.103	0.105	428206	keystroke_Key.space	Key.space	n/a
217.661	0.057	435322	keystroke_v	v	n/a
217.838	0.2105	435676	keystroke_a	a	n/a
217.989	0.1345	435978	keystroke_n	n	n/a
218.2735	0.135	436547	keystroke_c	c	n/a
218.3785	0.1345	436757	keystroke_o	o	n/a
218.603	0.135	437206	keystroke_u	u	n/a
218.7985	0.12	437597	keystroke_v	v	n/a
219.0085	0.12	438017	keystroke_e	e	n/a
219.1435	0.105	438287	keystroke_r	r	n/a
219.743	0.136	439486	keystroke_Key.enter	Key.enter	n/a
219.8995	10.1355	439799	prompt	n/a	armenia struct representing classroom\n
220.718	0.12	441436	keystroke_a	a	n/a
221.048	0.135	442096	keystroke_r	r	n/a
221.243	0.1055	442486	keystroke_m	m	n/a
221.4535	0.15	442907	keystroke_e	e	n/a
221.6935	0.12	443387	keystroke_n	n	n/a
221.9185	0.15	443837	keystroke_i	i	n/a
222.0835	0.12	444167	keystroke_a	a	n/a
222.1885	0.105	444377	keystroke_Key.space	Key.space	n/a
222.4135	0.15	444827	keystroke_s	s	n/a
222.6835	0.12	445367	keystroke_t	t	n/a
222.9685	0.105	445937	keystroke_r	r	n/a
223.419	0.135	446838	keystroke_u	u	n/a
223.599	0.135	447198	keystroke_c	c	n/a
223.8985	0.1355	447797	keystroke_t	t	n/a
224.019	0.1645	448038	keystroke_Key.space	Key.space	n/a
224.2735	0.135	448547	keystroke_r	r	n/a
224.4685	0.1505	448937	keystroke_e	e	n/a
224.603	0.225	449206	keystroke_p	p	n/a
224.783	0.1355	449566	keystroke_r	r	n/a
224.9785	0.105	449957	keystroke_e	e	n/a
225.278	0.15	450556	keystroke_s	s	n/a
225.548	0.106	451096	keystroke_e	e	n/a
225.668	0.1505	451336	keystroke_n	n	n/a
225.8335	0.12	451667	keystroke_t	t	n/a
225.9685	0.21	451937	keystroke_i	i	n/a
226.1335	0.21	452267	keystroke_n	n	n/a
226.3585	0.09	452717	keystroke_g	g	n/a
226.9585	0.135	453917	keystroke_Key.space	Key.space	n/a
227.6635	0.105	455327	keystroke_c	c	n/a
227.8735	0.1505	455747	keystroke_l	l	n/a
228.039	0.1495	456078	keystroke_a	a	n/a
228.3085	0.06	456617	keystroke_s	s	n/a
228.458	0.121	456916	keystroke_s	s	n/a
228.729	0.12	457458	keystroke_r	r	n/a
228.879	0.15	457758	keystroke_o	o	n/a
229.299	0.12	458598	keystroke_o	o	n/a
229.524	0.1345	459048	keystroke_m	m	n/a
229.8985	0.135	459797	keystroke_Key.enter	Key.enter	n/a
230.0395	23.92	460079	prompt	n/a	actually systems feedback retrieval\n
230.558	0.1355	461116	keystroke_a	a	n/a
230.8435	0.15	461687	keystroke_c	c	n/a
231.1285	0.09	462257	keystroke_t	t	n/a
231.2635	0.135	462527	keystroke_u	u	n/a
231.7135	0.15	463427	keystroke_a	a	n/a
232.3135	0.12	464627	keystroke_l	l	n/a
232.5085	0.135	465017	keystroke_l	l	n/a
232.9135	0.15	465827	keystroke_y	y	n/a
233.0785	0.15	466157	keystroke_Key.space	Key.space	n/a
233.3485	0.12	466697	keystroke_s	s	n/a
233.6335	0.135	467267	keystroke_y	y	n/a
233.7385	0.12	467477	keystroke_s	s	n/a
233.9935	0.12	467987	keystroke_t	t	n/a
234.1585	0.1655	468317	keystroke_e	e	n/a
234.339	0.12	468678	keystroke_m	m	n/a
234.579	0.15	469158	keystroke_s	s	n/a
234.774	0.12	469548	keystroke_Key.space	Key.space	n/a
234.939	0.105	469878	keystroke_f	f	n/a
235.179	0.105	470358	keystroke_e	e	n/a
235.479	0.06	470958	keystroke_d	d	n/a
235.629	0.105	471258	keystroke_d	d	n/a
235.884	0.135	471768	keystroke_b	b	n/a
236.154	0.105	472308	keystroke_a	a	n/a
236.424	0.18	472848	keystroke_c	c	n/a
236.619	0.135	473238	keystroke_k	k	n/a
236.768	0.135	473536	keystroke_Key.space	Key.space	n/a
237.039	0.0905	474078	keystroke_r	r	n/a
237.249	0.1345	474498	keystroke_e	e	n/a
241.5105	0.001	483021	keystroke_Key.left	Key.left	n/a
241.6135	0.045	483227	keystroke_Key.left	Key.left	n/a
241.7635	0.045	483527	keystroke_Key.left	Key.left	n/a
241.913	0.045	483826	keystroke_Key.left	Key.left	n/a
242.3635	0.045	484727	keystroke_Key.left	Key.left	n/a
242.5435	0.06	485087	keystroke_Key.left	Key.left	n/a
242.7235	0.06	485447	keystroke_Key.left	Key.left	n/a
242.9035	0.045	485807	keystroke_Key.left	Key.left	n/a
243.218	0.061	486436	keystroke_Key.left	Key.left	n/a
244.3135	0.089	488627	keystroke_Key.right	Key.right	n/a
245.003	0.18	490006	keystroke_Key.backspace	Key.backspace	n/a
245.513	0.105	491026	keystroke_e	e	n/a
247.283	0.03	494566	keystroke_Key.right	Key.right	n/a
247.433	0.06	494866	keystroke_Key.right	Key.right	n/a
247.583	0.06	495166	keystroke_Key.right	Key.right	n/a
247.733	0.0895	495466	keystroke_Key.right	Key.right	n/a
247.8825	0.075	495765	keystroke_Key.right	Key.right	n/a
248.0325	0.105	496065	keystroke_Key.right	Key.right	n/a
248.2575	0.03	496515	keystroke_Key.right	Key.right	n/a
251.005	0.043	502010	keystroke_e	e	n/a
251.183	0.09	502366	keystroke_t	t	n/a
251.393	0.105	502786	keystroke_r	r	n/a
251.588	0.09	503176	keystroke_i	i	n/a
251.768	0.135	503536	keystroke_e	e	n/a
252.053	0.12	504106	keystroke_v	v	n/a
252.578	0.135	505156	keystroke_l	l	n/a
253.103	0.09	506206	keystroke_Key.backspace	Key.backspace	n/a
253.238	0.165	506476	keystroke_a	a	n/a
253.493	0.135	506986	keystroke_l	l	n/a
253.868	0.09	507736	keystroke_Key.enter	Key.enter	n/a
253.963	14.576	507926	prompt	n/a	realize memo developing incorporate\n
254.618	0.12	509236	keystroke_r	r	n/a
254.768	0.12	509536	keystroke_e	e	n/a
255.008	0.1795	510016	keystroke_a	a	n/a
255.1875	0.1055	510375	keystroke_l	l	n/a
255.398	0.105	510796	keystroke_i	i	n/a
255.533	0.135	511066	keystroke_z	z	n/a
255.8475	0.135	511695	keystroke_e	e	n/a
256.057	0.105	512114	keystroke_Key.space	Key.space	n/a
256.447	0.105	512894	keystroke_m	m	n/a
256.703	0.1195	513406	keystroke_e	e	n/a
257.0625	0.12	514125	keystroke_m	m	n/a
257.2875	0.105	514575	keystroke_o	o	n/a
258.157	0.12	516314	keystroke_Key.space	Key.space	n/a
258.367	0.09	516734	keystroke_d	d	n/a
258.607	0.06	517214	keystroke_e	e	n/a
259.102	0.09	518204	keystroke_e	e	n/a
259.7925	0.12	519585	keystroke_Key.backspace	Key.backspace	n/a
259.9275	0.1355	519855	keystroke_v	v	n/a
260.152	0.121	520304	keystroke_e	e	n/a
260.303	0.135	520606	keystroke_l	l	n/a
260.618	0.09	521236	keystroke_o	o	n/a
261.158	0.164	522316	keystroke_p	p	n/a
261.578	0.15	523156	keystroke_i	i	n/a
261.817	0.181	523634	keystroke_n	n	n/a
261.953	0.165	523906	keystroke_g	g	n/a
262.102	0.121	524204	keystroke_Key.space	Key.space	n/a
262.568	0.105	525136	keystroke_i	i	n/a
262.718	0.164	525436	keystroke_n	n	n/a
262.898	0.18	525796	keystroke_c	c	n/a
263.063	0.105	526126	keystroke_o	o	n/a
264.008	0.15	528016	keystroke_r	r	n/a
264.6675	0.1195	529335	keystroke_p	p	n/a
264.862	0.12	529724	keystroke_o	o	n/a
264.967	0.12	529934	keystroke_r	r	n/a
265.3725	0.12	530745	keystroke_a	a	n/a
265.6725	0.12	531345	keystroke_r	r	n/a
266.963	0.105	533926	keystroke_Key.backspace	Key.backspace	n/a
267.773	0.105	535546	keystroke_t	t	n/a
267.983	0.1045	535966	keystroke_e	e	n/a
268.4325	0.105	536865	keystroke_Key.enter	Key.enter	n/a
268.5455	12.6235	537091	prompt	n/a	officials alcohol edges educators\n
269.1825	0.12	538365	keystroke_o	o	n/a
269.3325	0.06	538665	keystroke_f	f	n/a
269.4825	0.09	538965	keystroke_f	f	n/a
269.6475	0.1045	539295	keystroke_i	i	n/a
269.767	0.15	539534	keystroke_c	c	n/a
269.947	0.09	539894	keystroke_i	i	n/a
270.127	0.1205	540254	keystroke_a	a	n/a
270.3825	0.1495	540765	keystroke_l	l	n/a
270.562	0.135	541124	keystroke_s	s	n/a
270.667	0.12	541334	keystroke_Key.space	Key.space	n/a
270.937	0.12	541874	keystroke_a	a	n/a
271.117	0.1045	542234	keystroke_l	l	n/a
272.0915	0.15	544183	keystroke_c	c	n/a
272.392	0.135	544784	keystroke_h	h	n/a
273.1565	0.18	546313	keystroke_Key.backspace	Key.backspace	n/a
273.607	0.12	547214	keystroke_o	o	n/a
273.982	0.18	547964	keystroke_l	l	n/a
275.0175	0.06	550035	keystroke_Key.backspace	Key.backspace	n/a
275.272	0.165	550544	keystroke_h	h	n/a
275.452	0.105	550904	keystroke_o	o	n/a
275.707	0.2095	551414	keystroke_l	l	n/a
275.9615	0.15	551923	keystroke_Key.space	Key.space	n/a
276.232	0.105	552464	keystroke_e	e	n/a
276.697	0.09	553394	keystroke_d	d	n/a
276.982	0.12	553964	keystroke_g	g	n/a
277.1765	0.105	554353	keystroke_e	e	n/a
277.4475	0.104	554895	keystroke_s	s	n/a
277.5975	0.075	555195	keystroke_Key.space	Key.space	n/a
277.9725	0.12	555945	keystroke_e	e	n/a
278.2725	0.12	556545	keystroke_d	d	n/a
278.9615	0.12	557923	keystroke_u	u	n/a
279.0515	0.1505	558103	keystroke_c	c	n/a
279.3225	0.12	558645	keystroke_a	a	n/a
279.5625	0.1345	559125	keystroke_t	t	n/a
279.757	0.09	559514	keystroke_o	o	n/a
279.862	0.1505	559724	keystroke_r	r	n/a
280.627	0.135	561254	keystroke_s	s	n/a
281.047	0.12	562094	keystroke_Key.enter	Key.enter	n/a
281.1725	11.726	562345	prompt	n/a	screensavers french opportunities themes\n
281.8125	0.09	563625	keystroke_s	s	n/a
282.0965	0.135	564193	keystroke_c	c	n/a
282.3965	0.105	564793	keystroke_r	r	n/a
282.5765	0.075	565153	keystroke_e	e	n/a
282.7415	0.105	565483	keystroke_e	e	n/a
282.9065	0.1355	565813	keystroke_n	n	n/a
283.177	0.135	566354	keystroke_s	s	n/a
283.477	0.09	566954	keystroke_a	a	n/a
283.657	0.135	567314	keystroke_v	v	n/a
283.897	0.12	567794	keystroke_e	e	n/a
284.047	0.105	568094	keystroke_r	r	n/a
284.4365	0.105	568873	keystroke_s	s	n/a
284.767	0.09	569534	keystroke_Key.space	Key.space	n/a
284.962	0.06	569924	keystroke_f	f	n/a
285.172	0.1045	570344	keystroke_r	r	n/a
285.2915	0.135	570583	keystroke_e	e	n/a
285.547	0.105	571094	keystroke_n	n	n/a
285.832	0.135	571664	keystroke_c	c	n/a
285.9975	0.18	571995	keystroke_h	h	n/a
286.1465	0.136	572293	keystroke_Key.space	Key.space	n/a
286.4165	0.136	572833	keystroke_o	o	n/a
286.7325	0.12	573465	keystroke_p	p	n/a
286.9115	0.15	573823	keystroke_p	p	n/a
288.2315	0.15	576463	keystroke_o	o	n/a
288.4565	0.1205	576913	keystroke_r	r	n/a
288.697	0.09	577394	keystroke_t	t	n/a
288.892	0.075	577784	keystroke_u	u	n/a
289.147	0.09	578294	keystroke_n	n	n/a
289.282	0.18	578564	keystroke_i	i	n/a
289.507	0.105	579014	keystroke_t	t	n/a
289.8365	0.15	579673	keystroke_i	i	n/a
290.0015	0.105	580003	keystroke_e	e	n/a
290.3315	0.09	580663	keystroke_s	s	n/a
291.0815	0.105	582163	keystroke_Key.space	Key.space	n/a
291.352	0.12	582704	keystroke_t	t	n/a
291.457	0.105	582914	keystroke_h	h	n/a
291.577	0.15	583154	keystroke_e	e	n/a
291.832	0.1195	583664	keystroke_m	m	n/a
291.9665	0.1205	583933	keystroke_e	e	n/a
292.462	0.12	584924	keystroke_s	s	n/a
292.791	0.105	585582	keystroke_Key.enter	Key.enter	n/a
292.902	12.8965	585804	prompt	n/a	downloaded client switches ugly\n
293.497	0.165	586994	keystroke_d	d	n/a
293.707	0.09	587414	keystroke_o	o	n/a
293.842	0.15	587684	keystroke_w	w	n/a
294.007	0.135	588014	keystroke_n	n	n/a
294.427	0.15	588854	keystroke_l	l	n/a
294.667	0.165	589334	keystroke_a	a	n/a
294.862	0.105	589724	keystroke_o	o	n/a
295.0715	0.136	590143	keystroke_d	d	n/a
295.5065	0.09	591013	keystroke_e	e	n/a
295.8815	0.075	591763	keystroke_Key.backspace	Key.backspace	n/a
296.0915	0.09	592183	keystroke_Key.backspace	Key.backspace	n/a
296.3015	0.15	592603	keystroke_Key.backspace	Key.backspace	n/a
296.827	0.105	593654	keystroke_Key.backspace	Key.backspace	n/a
297.157	0.105	594314	keystroke_o	o	n/a
297.5615	0.1355	595123	keystroke_a	a	n/a
297.8015	0.1505	595603	keystroke_d	d	n/a
298.0865	0.075	596173	keystroke_e	e	n/a
298.3115	0.135	596623	keystroke_d	d	n/a
298.5365	0.15	597073	keystroke_Key.space	Key.space	n/a
298.8965	0.18	597793	keystroke_c	c	n/a
299.0315	0.15	598063	keystroke_l	l	n/a
299.2565	0.105	598513	keystroke_i	i	n/a
299.407	0.135	598814	keystroke_e	e	n/a
299.572	0.1645	599144	keystroke_n	n	n/a
299.8265	0.12	599653	keystroke_t	t	n/a
300.1715	0.135	600343	keystroke_Key.space	Key.space	n/a
300.5165	0.105	601033	keystroke_s	s	n/a
300.892	0.105	601784	keystroke_w	w	n/a
301.162	0.135	602324	keystroke_i	i	n/a
301.357	0.0745	602714	keystroke_t	t	n/a
301.5215	0.195	603043	keystroke_h	h	n/a
301.7015	0.165	603403	keystroke_c	c	n/a
302.362	0.105	604724	keystroke_Key.backspace	Key.backspace	n/a
302.512	0.105	605024	keystroke_Key.backspace	Key.backspace	n/a
302.662	0.24	605324	keystroke_c	c	n/a
303.457	0.135	606914	keystroke_h	h	n/a
303.637	0.105	607274	keystroke_e	e	n/a
303.892	0.105	607784	keystroke_s	s	n/a
304.102	0.15	608204	keystroke_Key.space	Key.space	n/a
304.327	0.135	608654	keystroke_u	u	n/a
304.642	0.105	609284	keystroke_g	g	n/a
304.9265	0.105	609853	keystroke_l	l	n/a
305.3315	0.09	610663	keystroke_y	y	n/a
305.6765	0.12	611353	keystroke_Key.enter	Key.enter	n/a
305.802	12.7615	611604	prompt	n/a	obvious retrieved cope consistently\n
306.4565	0.09	612913	keystroke_o	o	n/a
306.5765	0.105	613153	keystroke_v	v	n/a
307.8065	0.12	615613	keystroke_Key.backspace	Key.backspace	n/a
308.0165	0.105	616033	keystroke_b	b	n/a
308.602	0.105	617204	keystroke_v	v	n/a
308.707	0.075	617414	keystroke_i	i	n/a
309.217	0.105	618434	keystroke_o	o	n/a
309.457	0.15	618914	keystroke_u	u	n/a
309.622	0.134	619244	keystroke_s	s	n/a
310.1465	0.06	620293	keystroke_Key.space	Key.space	n/a
310.3865	0.15	620773	keystroke_r	r	n/a
310.5375	0.134	621075	keystroke_e	e	n/a
310.7765	0.06	621553	keystroke_t	t	n/a
310.9265	0.12	621853	keystroke_r	r	n/a
311.0915	0.09	622183	keystroke_i	i	n/a
311.2115	0.12	622423	keystroke_e	e	n/a
311.917	0.135	623834	keystroke_v	v	n/a
312.187	0.09	624374	keystroke_e	e	n/a
312.457	0.12	624914	keystroke_d	d	n/a
313.2815	0.12	626563	keystroke_Key.space	Key.space	n/a
313.5365	0.165	627073	keystroke_c	c	n/a
313.6715	0.12	627343	keystroke_o	o	n/a
313.9115	0.195	627823	keystroke_p	p	n/a
314.0915	0.12	628183	keystroke_e	e	n/a
314.2715	0.12	628543	keystroke_Key.space	Key.space	n/a
314.5715	0.135	629143	keystroke_c	c	n/a
315.427	0.105	630854	keystroke_o	o	n/a
315.622	0.1045	631244	keystroke_n	n	n/a
315.7865	0.135	631573	keystroke_s	s	n/a
316.0415	0.09	632083	keystroke_i	i	n/a
316.1765	0.15	632353	keystroke_s	s	n/a
316.4915	0.12	632983	keystroke_t	t	n/a
316.6865	0.15	633373	keystroke_e	e	n/a
317.2265	0.12	634453	keystroke_n	n	n/a
317.4515	0.091	634903	keystroke_t	t	n/a
317.6025	0.149	635205	keystroke_l	l	n/a
317.9765	0.12	635953	keystroke_y	y	n/a
318.4265	0.1355	636853	keystroke_Key.enter	Key.enter	n/a
318.567	20.6965	637134	prompt	n/a	mixing christopher lynn fisheries\n
319.207	0.15	638414	keystroke_m	m	n/a
319.432	0.135	638864	keystroke_i	i	n/a
320.0475	0.104	640095	keystroke_x	x	n/a
320.2115	0.211	640423	keystroke_i	i	n/a
320.4525	0.15	640905	keystroke_n	n	n/a
320.5875	0.135	641175	keystroke_g	g	n/a
320.7365	0.135	641473	keystroke_Key.space	Key.space	n/a
321.0365	0.165	642073	keystroke_c	c	n/a
321.1865	0.135	642373	keystroke_h	h	n/a
321.4415	0.12	642883	keystroke_r	r	n/a
321.6525	0.075	643305	keystroke_i	i	n/a
321.8325	0.12	643665	keystroke_s	s	n/a
322.0715	0.105	644143	keystroke_t	t	n/a
322.1915	0.135	644383	keystroke_o	o	n/a
322.4615	0.2105	644923	keystroke_p	p	n/a
322.672	0.12	645344	keystroke_r	r	n/a
322.912	0.15	645824	keystroke_e	e	n/a
323.122	0.12	646244	keystroke_r	r	n/a
323.917	0.075	647834	keystroke_Key.backspace	Key.backspace	n/a
324.067	0.105	648134	keystroke_Key.backspace	Key.backspace	n/a
324.532	0.06	649064	keystroke_Key.backspace	Key.backspace	n/a
324.802	0.12	649604	keystroke_h	h	n/a
325.042	0.1195	650084	keystroke_e	e	n/a
325.2215	0.105	650443	keystroke_r	r	n/a
325.4015	0.165	650803	keystroke_Key.space	Key.space	n/a
325.7165	0.135	651433	keystroke_l	l	n/a
326.1215	0.12	652243	keystroke_y	y	n/a
327.2915	0.15	654583	keystroke_h	h	n/a
328.4015	0.135	656803	keystroke_Key.backspace	Key.backspace	n/a
328.717	0.105	657434	keystroke_n	n	n/a
328.867	0.105	657734	keystroke_n	n	n/a
329.466	0.121	658932	keystroke_Key.space	Key.space	n/a
329.677	0.1195	659354	keystroke_f	f	n/a
329.781	0.1055	659562	keystroke_i	i	n/a
329.9015	0.1505	659803	keystroke_s	s	n/a
330.037	0.12	660074	keystroke_h	h	n/a
330.217	0.15	660434	keystroke_e	e	n/a
330.397	0.135	660794	keystroke_r	r	n/a
332.0015	0.1195	664003	keystroke_i	i	n/a
332.242	0.24	664484	keystroke_r	r	n/a
333.111	0.18	666222	keystroke_Key.backspace	Key.backspace	n/a
333.277	0.1795	666554	keystroke_e	e	n/a
335.0615	0.15	670123	keystroke_Key.backspace	Key.backspace	n/a
337.944	0.0425	675888	keystroke_e	e	n/a
338.1365	0.06	676273	keystroke_s	s	n/a
339.0515	0.21	678103	keystroke_Key.enter	Key.enter	n/a
339.2665	9.5815	678533	prompt	n/a	which's titans administration gage\n
339.892	0.135	679784	keystroke_w	w	n/a
340.087	0.12	680174	keystroke_h	h	n/a
340.252	0.1645	680504	keystroke_i	i	n/a
340.4315	0.18	680863	keystroke_c	c	n/a
340.6865	0.105	681373	keystroke_h	h	n/a
341.557	0.1345	683114	keystroke_'	'	n/a
341.8865	0.1205	683773	keystroke_s	s	n/a
342.247	0.12	684494	keystroke_Key.space	Key.space	n/a
342.607	0.135	685214	keystroke_t	t	n/a
342.757	0.105	685514	keystroke_i	i	n/a
342.847	0.105	685694	keystroke_t	t	n/a
343.1915	0.21	686383	keystroke_a	a	n/a
343.7315	0.075	687463	keystroke_n	n	n/a
344.0015	0.12	688003	keystroke_s	s	n/a
344.2115	0.1505	688423	keystroke_Key.space	Key.space	n/a
344.527	0.135	689054	keystroke_a	a	n/a
344.707	0.1495	689414	keystroke_d	d	n/a
344.9765	0.165	689953	keystroke_m	m	n/a
345.2015	0.0905	690403	keystroke_i	i	n/a
345.411	0.136	690822	keystroke_n	n	n/a
345.652	0.1045	691304	keystroke_i	i	n/a
345.7715	0.09	691543	keystroke_s	s	n/a
345.9815	0.075	691963	keystroke_t	t	n/a
346.1765	0.105	692353	keystroke_r	r	n/a
346.4915	0.12	692983	keystroke_a	a	n/a
346.7915	0.135	693583	keystroke_t	t	n/a
346.9715	0.12	693943	keystroke_i	i	n/a
347.0765	0.24	694153	keystroke_o	o	n/a
347.2865	0.135	694573	keystroke_n	n	n/a
347.4965	0.12	694993	keystroke_Key.space	Key.space	n/a
347.7215	0.105	695443	keystroke_g	g	n/a
347.9465	0.09	695893	keystroke_a	a	n/a
348.0815	0.135	696163	keystroke_g	g	n/a
348.3215	0.12	696643	keystroke_e	e	n/a
348.7115	0.135	697423	keystroke_Key.enter	Key.enter	n/a
348.851	10.527	697702	prompt	n/a	definition baking eden beastality\n
349.7015	0.105	699403	keystroke_d	d	n/a
349.926	0.121	699852	keystroke_e	e	n/a
350.152	0.105	700304	keystroke_f	f	n/a
350.272	0.18	700544	keystroke_i	i	n/a
350.497	0.075	700994	keystroke_n	n	n/a
350.542	0.225	701084	keystroke_i	i	n/a
351.381	0.1205	702762	keystroke_t	t	n/a
351.5465	0.1945	703093	keystroke_i	i	n/a
351.711	0.2105	703422	keystroke_o	o	n/a
351.891	0.1355	703782	keystroke_n	n	n/a
352.0415	0.135	704083	keystroke_Key.space	Key.space	n/a
352.2215	0.105	704443	keystroke_b	b	n/a
352.4465	0.18	704893	keystroke_a	a	n/a
352.6415	0.12	705283	keystroke_k	k	n/a
352.9115	0.1645	705823	keystroke_i	i	n/a
353.077	0.134	706154	keystroke_n	n	n/a
353.271	0.15	706542	keystroke_g	g	n/a
353.497	0.1495	706994	keystroke_Key.space	Key.space	n/a
353.8115	0.075	707623	keystroke_e	e	n/a
354.0515	0.105	708103	keystroke_d	d	n/a
354.3215	0.075	708643	keystroke_e	e	n/a
354.697	0.135	709394	keystroke_n	n	n/a
354.936	0.09	709872	keystroke_Key.space	Key.space	n/a
355.222	0.104	710444	keystroke_b	b	n/a
356.0615	0.12	712123	keystroke_e	e	n/a
357.0665	0.1495	714133	keystroke_a	a	n/a
357.306	0.12	714612	keystroke_s	s	n/a
357.5915	0.105	715183	keystroke_t	t	n/a
357.9215	0.165	715843	keystroke_a	a	n/a
358.1165	0.135	716233	keystroke_l	l	n/a
358.342	0.1495	716684	keystroke_i	i	n/a
358.5365	0.12	717073	keystroke_t	t	n/a
358.7165	0.105	717433	keystroke_y	y	n/a
359.242	0.135	718484	keystroke_Key.enter	Key.enter	n/a
359.381	9.642	718762	prompt	n/a	traditional probe concepts coalition\n
359.992	0.1045	719984	keystroke_t	t	n/a
360.1865	0.105	720373	keystroke_r	r	n/a
360.4565	0.105	720913	keystroke_a	a	n/a
360.6965	0.0905	721393	keystroke_d	d	n/a
360.832	0.21	721664	keystroke_i	i	n/a
361.102	0.12	722204	keystroke_t	t	n/a
361.252	0.135	722504	keystroke_i	i	n/a
361.372	0.18	722744	keystroke_o	o	n/a
361.537	0.135	723074	keystroke_n	n	n/a
361.702	0.209	723404	keystroke_a	a	n/a
362.376	0.12	724752	keystroke_l	l	n/a
362.571	0.135	725142	keystroke_Key.space	Key.space	n/a
362.916	0.1505	725832	keystroke_p	p	n/a
363.0515	0.105	726103	keystroke_r	r	n/a
363.2165	0.1345	726433	keystroke_o	o	n/a
363.471	0.1055	726942	keystroke_b	b	n/a
363.726	0.12	727452	keystroke_e	e	n/a
363.966	0.15	727932	keystroke_Key.space	Key.space	n/a
364.506	0.195	729012	keystroke_c	c	n/a
364.761	0.18	729522	keystroke_o	o	n/a
364.926	0.105	729852	keystroke_n	n	n/a
365.046	0.12	730092	keystroke_c	c	n/a
365.406	0.06	730812	keystroke_e	e	n/a
365.8565	0.1795	731713	keystroke_p	p	n/a
366.081	0.075	732162	keystroke_t	t	n/a
366.3805	0.0915	732761	keystroke_s	s	n/a
366.576	0.12	733152	keystroke_Key.space	Key.space	n/a
366.832	0.135	733664	keystroke_c	c	n/a
366.937	0.105	733874	keystroke_o	o	n/a
367.222	0.1485	734444	keystroke_a	a	n/a
367.611	0.105	735222	keystroke_l	l	n/a
367.8215	0.1045	735643	keystroke_i	i	n/a
368.031	0.105	736062	keystroke_t	t	n/a
368.166	0.165	736332	keystroke_i	i	n/a
368.316	0.27	736632	keystroke_o	o	n/a
368.541	0.165	737082	keystroke_n	n	n/a
368.931	0.0895	737862	keystroke_Key.enter	Key.enter	n/a
369.0265	10.3315	738053	prompt	n/a	joan qatar started husband\n
369.6365	0.105	739273	keystroke_j	j	n/a
369.9065	0.165	739813	keystroke_o	o	n/a
370.2215	0.1645	740443	keystroke_a	a	n/a
370.401	0.15	740802	keystroke_n	n	n/a
370.686	0.165	741372	keystroke_Key.space	Key.space	n/a
371.437	0.134	742874	keystroke_q	q	n/a
371.976	0.135	743952	keystroke_a	a	n/a
372.456	0.1195	744912	keystroke_t	t	n/a
372.771	0.136	745542	keystroke_a	a	n/a
373.0705	0.136	746141	keystroke_r	r	n/a
373.3105	0.165	746621	keystroke_Key.space	Key.space	n/a
373.5815	0.12	747163	keystroke_s	s	n/a
373.851	0.075	747702	keystroke_t	t	n/a
375.0505	0.0455	750101	keystroke_a	a	n/a
375.201	0.09	750402	keystroke_r	r	n/a
375.4265	0.09	750853	keystroke_t	t	n/a
376.0105	0.1355	752021	keystroke_d	d	n/a
376.731	0.15	753462	keystroke_Key.backspace	Key.backspace	n/a
376.866	0.105	753732	keystroke_e	e	n/a
377.1065	0.135	754213	keystroke_d	d	n/a
377.2415	0.15	754483	keystroke_Key.space	Key.space	n/a
377.5265	0.075	755053	keystroke_h	h	n/a
377.7215	0.12	755443	keystroke_u	u	n/a
377.8265	0.15	755653	keystroke_s	s	n/a
378.1865	0.105	756373	keystroke_b	b	n/a
378.441	0.165	756882	keystroke_a	a	n/a
378.576	0.15	757152	keystroke_n	n	n/a
378.786	0.12	757572	keystroke_d	d	n/a
379.221	0.135	758442	keystroke_Key.enter	Key.enter	n/a
379.361	10.887	758722	prompt	n/a	telecommunications organizer punch hybrid\n
380.0915	0.105	760183	keystroke_t	t	n/a
380.2555	0.166	760511	keystroke_e	e	n/a
380.4955	0.151	760991	keystroke_l	l	n/a
380.6015	0.149	761203	keystroke_e	e	n/a
381.0065	0.1645	762013	keystroke_c	c	n/a
381.172	0.134	762344	keystroke_o	o	n/a
381.426	0.135	762852	keystroke_m	m	n/a
381.966	0.15	763932	keystroke_m	m	n/a
382.3265	0.105	764653	keystroke_u	u	n/a
382.581	0.15	765162	keystroke_n	n	n/a
382.746	0.15	765492	keystroke_i	i	n/a
382.956	0.135	765912	keystroke_c	c	n/a
383.181	0.09	766362	keystroke_a	a	n/a
383.421	0.105	766842	keystroke_t	t	n/a
383.511	0.165	767022	keystroke_i	i	n/a
383.646	0.225	767292	keystroke_o	o	n/a
383.826	0.195	767652	keystroke_n	n	n/a
384.036	0.135	768072	keystroke_s	s	n/a
384.291	0.135	768582	keystroke_Key.space	Key.space	n/a
384.636	0.165	769272	keystroke_o	o	n/a
384.816	0.1055	769632	keystroke_r	r	n/a
385.0715	0.09	770143	keystroke_g	g	n/a
385.3115	0.12	770623	keystroke_a	a	n/a
385.4915	0.075	770983	keystroke_n	n	n/a
385.6565	0.135	771313	keystroke_i	i	n/a
385.8965	0.135	771793	keystroke_z	z	n/a
386.2115	0.18	772423	keystroke_e	e	n/a
386.4215	0.135	772843	keystroke_r	r	n/a
386.661	0.09	773322	keystroke_Key.space	Key.space	n/a
386.991	0.09	773982	keystroke_p	p	n/a
387.216	0.12	774432	keystroke_u	u	n/a
387.516	0.165	775032	keystroke_n	n	n/a
387.801	0.165	775602	keystroke_c	c	n/a
387.951	0.135	775902	keystroke_h	h	n/a
388.161	0.1495	776322	keystroke_Key.space	Key.space	n/a
388.4165	0.105	776833	keystroke_h	h	n/a
388.8065	0.134	777613	keystroke_y	y	n/a
389.1665	0.089	778333	keystroke_b	b	n/a
389.4505	0.075	778901	keystroke_r	r	n/a
389.6015	0.074	779203	keystroke_i	i	n/a
389.7805	0.12	779561	keystroke_d	d	n/a
390.1405	0.105	780281	keystroke_Key.enter	Key.enter	n/a
390.2525	15.1	780505	prompt	n/a	consumption lake damaged edgar\n
390.936	0.15	781872	keystroke_c	c	n/a
391.1905	0.1805	782381	keystroke_o	o	n/a
391.7915	0.135	783583	keystroke_n	n	n/a
392.0165	0.12	784033	keystroke_s	s	n/a
392.1815	0.135	784363	keystroke_u	u	n/a
392.4965	0.165	784993	keystroke_m	m	n/a
392.7215	0.15	785443	keystroke_p	p	n/a
392.8565	0.135	785713	keystroke_t	t	n/a
393.0815	0.06	786163	keystroke_i	i	n/a
393.0965	0.03	786193	keystroke_o	o	n/a
393.201	0.2705	786402	keystroke_o	o	n/a
393.396	0.1955	786792	keystroke_n	n	n/a
394.2065	0.075	788413	keystroke_Key.backspace	Key.backspace	n/a
394.851	0.06	789702	keystroke_Key.backspace	Key.backspace	n/a
395.046	0.165	790092	keystroke_n	n	n/a
395.811	0.135	791622	keystroke_Key.space	Key.space	n/a
396.111	0.1505	792222	keystroke_l	l	n/a
396.2165	0.18	792433	keystroke_a	a	n/a
396.4265	0.18	792853	keystroke_k	k	n/a
396.5915	0.09	793183	keystroke_e	e	n/a
396.7415	0.12	793483	keystroke_Key.space	Key.space	n/a
396.9065	0.12	793813	keystroke_d	d	n/a
397.0865	0.15	794173	keystroke_a	a	n/a
397.2515	0.135	794503	keystroke_m	m	n/a
397.4015	0.1345	794803	keystroke_e	e	n/a
397.701	0.165	795402	keystroke_d	d	n/a
397.896	0.1205	795792	keystroke_Key.space	Key.space	n/a
398.1365	0.105	796273	keystroke_e	e	n/a
398.4665	0.12	796933	keystroke_d	d	n/a
398.7665	0.1195	797533	keystroke_g	g	n/a
399.276	0.09	798552	keystroke_Key.backspace	Key.backspace	n/a
399.486	0.075	798972	keystroke_Key.backspace	Key.backspace	n/a
399.636	0.06	799272	keystroke_Key.backspace	Key.backspace	n/a
399.771	0.06	799542	keystroke_Key.backspace	Key.backspace	n/a
400.8215	0.06	801643	keystroke_Key.backspace	Key.backspace	n/a
401.3015	0.1045	802603	keystroke_Key.backspace	Key.backspace	n/a
401.4965	0.1495	802993	keystroke_a	a	n/a
401.736	0.1205	803472	keystroke_g	g	n/a
401.916	0.1195	803832	keystroke_e	e	n/a
402.4855	0.1205	804971	keystroke_d	d	n/a
402.846	0.105	805692	keystroke_Key.space	Key.space	n/a
403.131	0.1055	806262	keystroke_e	e	n/a
403.3715	0.1495	806743	keystroke_d	d	n/a
403.566	0.09	807132	keystroke_g	g	n/a
403.776	0.15	807552	keystroke_a	a	n/a
405.3555	14.547	810711	prompt	n/a	stationery casa coordination affordable\n
406.686	0.135	813372	keystroke_s	s	n/a
407.016	0.06	814032	keystroke_t	t	n/a
407.211	0.12	814422	keystroke_a	a	n/a
407.421	0.09	814842	keystroke_t	t	n/a
407.5705	0.105	815141	keystroke_i	i	n/a
407.6905	0.18	815381	keystroke_o	o	n/a
407.8255	0.1205	815651	keystroke_n	n	n/a
408.786	0.12	817572	keystroke_e	e	n/a
409.011	0.075	818022	keystroke_r	r	n/a
409.206	0.12	818412	keystroke_y	y	n/a
409.356	0.135	818712	keystroke_Key.space	Key.space	n/a
409.551	0.135	819102	keystroke_c	c	n/a
409.761	0.12	819522	keystroke_a	a	n/a
410.001	0.09	820002	keystroke_s	s	n/a
410.6465	0.105	821293	keystroke_a	a	n/a
410.8415	0.105	821683	keystroke_Key.space	Key.space	n/a
411.201	0.1495	822402	keystroke_c	c	n/a
411.3055	0.12	822611	keystroke_o	o	n/a
411.5155	0.12	823031	keystroke_o	o	n/a
411.7105	0.135	823421	keystroke_r	r	n/a
412.041	0.165	824082	keystroke_d	d	n/a
412.191	0.18	824382	keystroke_i	i	n/a
412.386	0.1345	824772	keystroke_n	n	n/a
412.5505	0.105	825101	keystroke_g	g	n/a
414.066	0.075	828132	keystroke_Key.backspace	Key.backspace	n/a
414.216	0.09	828432	keystroke_Key.backspace	Key.backspace	n/a
415.5205	0.12	831041	keystroke_n	n	n/a
415.7455	0.18	831491	keystroke_a	a	n/a
416.1505	0.135	832301	keystroke_t	t	n/a
416.3305	0.09	832661	keystroke_i	i	n/a
416.4355	0.3	832871	keystroke_o	o	n/a
416.6755	0.195	833351	keystroke_n	n	n/a
417.0055	0.15	834011	keystroke_Key.space	Key.space	n/a
417.2605	0.105	834521	keystroke_a	a	n/a
417.4555	0.015	834911	keystroke_f	f	n/a
417.5755	0.075	835151	keystroke_f	f	n/a
417.816	0.15	835632	keystroke_o	o	n/a
417.981	0.105	835962	keystroke_r	r	n/a
418.296	0.12	836592	keystroke_d	d	n/a
418.7465	0.135	837493	keystroke_a	a	n/a
419.0315	0.12	838063	keystroke_b	b	n/a
419.1965	0.135	838393	keystroke_l	l	n/a
419.4065	0.105	838813	keystroke_e	e	n/a
419.796	0.105	839592	keystroke_Key.enter	Key.enter	n/a
419.9065	20.111	839813	prompt	n/a	furthermore northern photographers discharge\n
427.2385	0.088	854477	keystroke_f	f	n/a
427.4765	0.1345	854953	keystroke_u	u	n/a
427.701	0.135	855402	keystroke_t	t	n/a
428.181	0.105	856362	keystroke_Key.backspace	Key.backspace	n/a
428.271	0.105	856542	keystroke_r	r	n/a
428.466	0.135	856932	keystroke_t	t	n/a
428.616	0.135	857232	keystroke_h	h	n/a
428.706	0.165	857412	keystroke_e	e	n/a
428.901	0.105	857802	keystroke_r	r	n/a
429.156	0.09	858312	keystroke_m	m	n/a
429.291	0.165	858582	keystroke_o	o	n/a
429.441	0.105	858882	keystroke_r	r	n/a
429.606	0.165	859212	keystroke_e	e	n/a
429.831	0.135	859662	keystroke_Key.space	Key.space	n/a
430.146	0.1345	860292	keystroke_n	n	n/a
430.2955	0.1355	860591	keystroke_o	o	n/a
430.386	0.105	860772	keystroke_r	r	n/a
430.581	0.12	861162	keystroke_t	t	n/a
430.956	0.105	861912	keystroke_h	h	n/a
431.271	0.135	862542	keystroke_e	e	n/a
431.6905	0.105	863381	keystroke_r	r	n/a
431.8555	0.12	863711	keystroke_n	n	n/a
432.156	0.135	864312	keystroke_Key.space	Key.space	n/a
432.591	0.135	865182	keystroke_p	p	n/a
432.816	0.1495	865632	keystroke_h	h	n/a
433.0555	0.105	866111	keystroke_o	o	n/a
434.031	0.09	868062	keystroke_t	t	n/a
434.166	0.089	868332	keystroke_o	o	n/a
434.376	0.075	868752	keystroke_g	g	n/a
434.586	0.075	869172	keystroke_r	r	n/a
434.886	0.075	869772	keystroke_a	a	n/a
435.0805	0.18	870161	keystroke_p	p	n/a
435.4405	0.1355	870881	keystroke_h	h	n/a
436.9255	0.1055	873851	keystroke_e	e	n/a
437.106	0.105	874212	keystroke_r	r	n/a
437.406	0.105	874812	keystroke_s	s	n/a
437.781	0.135	875562	keystroke_Key.space	Key.space	n/a
438.111	0.105	876222	keystroke_d	d	n/a
438.351	0.105	876702	keystroke_i	i	n/a
438.471	0.09	876942	keystroke_s	s	n/a
438.741	0.105	877482	keystroke_c	c	n/a
438.831	0.105	877662	keystroke_h	h	n/a
438.951	0.135	877902	keystroke_a	a	n/a
439.176	0.075	878352	keystroke_r	r	n/a
439.401	0.09	878802	keystroke_g	g	n/a
439.596	0.09	879192	keystroke_e	e	n/a
439.8955	0.12	879791	keystroke_Key.enter	Key.enter	n/a
440.0275	12.605	880055	prompt	n/a	artistic specific speeches attractions\n
440.7215	0.134	881443	keystroke_a	a	n/a
440.9455	0.106	881891	keystroke_r	r	n/a
441.1565	0.089	882313	keystroke_t	t	n/a
441.2755	0.1195	882551	keystroke_i	i	n/a
441.606	0.119	883212	keystroke_s	s	n/a
441.845	0.105	883690	keystroke_t	t	n/a
441.965	0.1205	883930	keystroke_i	i	n/a
442.1905	0.165	884381	keystroke_c	c	n/a
442.416	0.1345	884832	keystroke_Key.space	Key.space	n/a
442.5955	0.15	885191	keystroke_s	s	n/a
442.7605	0.15	885521	keystroke_p	p	n/a
442.941	0.119	885882	keystroke_e	e	n/a
443.5115	0.119	887023	keystroke_c	c	n/a
443.6605	0.1355	887321	keystroke_i	i	n/a
443.84	0.151	887680	keystroke_f	f	n/a
444.321	0.09	888642	keystroke_i	i	n/a
444.8155	0.09	889631	keystroke_c	c	n/a
445.4155	0.12	890831	keystroke_Key.space	Key.space	n/a
445.5505	0.075	891101	keystroke_s	s	n/a
445.6405	0.15	891281	keystroke_p	p	n/a
445.8355	0.1055	891671	keystroke_e	e	n/a
446.046	0.075	892092	keystroke_e	e	n/a
446.331	0.135	892662	keystroke_c	c	n/a
446.481	0.165	892962	keystroke_h	h	n/a
446.631	0.09	893262	keystroke_e	e	n/a
446.871	0.09	893742	keystroke_s	s	n/a
446.991	0.105	893982	keystroke_Key.space	Key.space	n/a
447.201	0.15	894402	keystroke_a	a	n/a
447.5305	0.09	895061	keystroke_t	t	n/a
447.7405	0.105	895481	keystroke_r	r	n/a
448.3255	0.135	896651	keystroke_t	t	n/a
448.7155	0.06	897431	keystroke_r	r	n/a
449.0755	0.09	898151	keystroke_Key.backspace	Key.backspace	n/a
449.2405	0.18	898481	keystroke_Key.backspace	Key.backspace	n/a
450.096	0.135	900192	keystroke_Key.backspace	Key.backspace	n/a
450.231	0.105	900462	keystroke_t	t	n/a
450.5005	0.12	901001	keystroke_r	r	n/a
450.846	0.15	901692	keystroke_a	a	n/a
451.206	0.135	902412	keystroke_c	c	n/a
451.476	0.09	902952	keystroke_t	t	n/a
451.551	0.135	903102	keystroke_i	i	n/a
451.671	0.21	903342	keystroke_o	o	n/a
451.836	0.12	903672	keystroke_n	n	n/a
451.971	0.1195	903942	keystroke_s	s	n/a
452.4355	0.195	904871	keystroke_Key.enter	Key.enter	n/a
452.6355	14.0225	905271	prompt	n/a	identification christ vegetarian lasting\n
453.306	0.1345	906612	keystroke_i	i	n/a
453.455	0.105	906910	keystroke_d	d	n/a
453.681	0.135	907362	keystroke_e	e	n/a
453.801	0.135	907602	keystroke_n	n	n/a
453.9955	0.105	907991	keystroke_t	t	n/a
456.096	0.135	912192	keystroke_i	i	n/a
456.276	0.105	912552	keystroke_f	f	n/a
456.425	0.105	912850	keystroke_i	i	n/a
456.695	0.12	913390	keystroke_c	c	n/a
456.861	0.15	913722	keystroke_a	a	n/a
457.115	0.121	914230	keystroke_t	t	n/a
457.25	0.12	914500	keystroke_i	i	n/a
457.4	0.181	914800	keystroke_o	o	n/a
457.55	0.181	915100	keystroke_n	n	n/a
457.745	0.09	915490	keystroke_Key.space	Key.space	n/a
457.895	0.195	915790	keystroke_c	c	n/a
458.105	0.166	916210	keystroke_h	h	n/a
458.346	0.12	916692	keystroke_r	r	n/a
458.57	0.09	917140	keystroke_i	i	n/a
459.4555	0.105	918911	keystroke_s	s	n/a
459.8	0.135	919600	keystroke_t	t	n/a
460.0255	0.12	920051	keystroke_Key.space	Key.space	n/a
460.2655	0.135	920531	keystroke_v	v	n/a
462.3955	0.135	924791	keystroke_e	e	n/a
462.6355	0.105	925271	keystroke_g	g	n/a
462.8455	0.1055	925691	keystroke_e	e	n/a
463.086	0.105	926172	keystroke_t	t	n/a
463.386	0.105	926772	keystroke_a	a	n/a
463.581	0.09	927162	keystroke_r	r	n/a
463.746	0.165	927492	keystroke_i	i	n/a
464.136	0.2245	928272	keystroke_a	a	n/a
464.3455	0.135	928691	keystroke_n	n	n/a
464.8855	0.135	929771	keystroke_Key.space	Key.space	n/a
465.1105	0.1505	930221	keystroke_l	l	n/a
465.2005	0.1355	930401	keystroke_a	a	n/a
465.396	0.12	930792	keystroke_s	s	n/a
465.651	0.12	931302	keystroke_t	t	n/a
465.786	0.135	931572	keystroke_i	i	n/a
465.966	0.1345	931932	keystroke_n	n	n/a
466.0855	0.135	932171	keystroke_g	g	n/a
466.5205	0.135	933041	keystroke_Key.enter	Key.enter	n/a
466.6615	9.476	933323	prompt	n/a	washer comment bernard selecting\n
467.2855	0.09	934571	keystroke_w	w	n/a
467.511	0.09	935022	keystroke_a	a	n/a
467.691	0.119	935382	keystroke_s	s	n/a
467.841	0.1495	935682	keystroke_h	h	n/a
468.0055	0.12	936011	keystroke_e	e	n/a
468.1855	0.165	936371	keystroke_r	r	n/a
468.3655	0.1355	936731	keystroke_Key.space	Key.space	n/a
468.636	0.15	937272	keystroke_c	c	n/a
468.696	0.18	937392	keystroke_o	o	n/a
468.891	0.1045	937782	keystroke_m	m	n/a
469.0415	0.119	938083	keystroke_m	m	n/a
469.2205	0.136	938441	keystroke_e	e	n/a
469.3865	0.149	938773	keystroke_n	n	n/a
469.5515	0.1195	939103	keystroke_t	t	n/a
469.686	0.09	939372	keystroke_Key.space	Key.space	n/a
469.911	0.09	939822	keystroke_b	b	n/a
470.136	0.135	940272	keystroke_e	e	n/a
470.316	0.105	940632	keystroke_r	r	n/a
470.451	0.12	940902	keystroke_n	n	n/a
470.6765	0.12	941353	keystroke_a	a	n/a
470.9765	0.09	941953	keystroke_r	r	n/a
471.576	0.135	943152	keystroke_d	d	n/a
471.9805	0.105	943961	keystroke_Key.space	Key.space	n/a
472.2955	0.0605	944591	keystroke_s	s	n/a
472.476	0.0895	944952	keystroke_e	e	n/a
472.6405	0.105	945281	keystroke_l	l	n/a
472.7155	0.105	945431	keystroke_e	e	n/a
473.736	0.165	947472	keystroke_c	c	n/a
474.9805	0.12	949961	keystroke_t	t	n/a
475.1755	0.1805	950351	keystroke_i	i	n/a
475.491	0.15	950982	keystroke_n	n	n/a
475.596	0.165	951192	keystroke_g	g	n/a
476.0005	0.135	952001	keystroke_Key.enter	Key.enter	n/a
476.1405	8.0215	952281	prompt	n/a	crown movie distinct much\n
476.8555	0.15	953711	keystroke_c	c	n/a
477.1405	0.135	954281	keystroke_r	r	n/a
478.0255	0.15	956051	keystroke_o	o	n/a
478.1605	0.18	956321	keystroke_w	w	n/a
478.4305	0.135	956861	keystroke_n	n	n/a
478.7005	0.165	957401	keystroke_Key.space	Key.space	n/a
479.0005	0.135	958001	keystroke_m	m	n/a
479.1505	0.1645	958301	keystroke_o	o	n/a
479.2705	0.1645	958541	keystroke_v	v	n/a
479.42	0.12	958840	keystroke_i	i	n/a
479.645	0.135	959290	keystroke_e	e	n/a
479.84	0.12	959680	keystroke_Key.space	Key.space	n/a
480.05	0.1205	960100	keystroke_d	d	n/a
480.1855	0.105	960371	keystroke_i	i	n/a
480.3205	0.1355	960641	keystroke_s	s	n/a
480.636	0.1045	961272	keystroke_t	t	n/a
480.9205	0.135	961841	keystroke_i	i	n/a
481.1755	0.1505	962351	keystroke_n	n	n/a
481.341	0.195	962682	keystroke_c	c	n/a
481.551	0.105	963102	keystroke_h	h	n/a
482.091	0.18	964182	keystroke_Key.backspace	Key.backspace	n/a
482.286	0.1045	964572	keystroke_t	t	n/a
482.8105	0.12	965621	keystroke_Key.space	Key.space	n/a
483.2305	0.03	966461	keystroke_m	m	n/a
483.4255	0.12	966851	keystroke_u	u	n/a
483.5605	0.165	967121	keystroke_c	c	n/a
483.7105	0.15	967421	keystroke_h	h	n/a
484.0405	0.12	968081	keystroke_Key.enter	Key.enter	n/a
484.165	11.3075	968330	prompt	n/a	critical literature relaxation musician\n
484.8805	0.1495	969761	keystroke_c	c	n/a
485.15	0.12	970300	keystroke_r	r	n/a
485.285	0.12	970570	keystroke_i	i	n/a
485.42	0.12	970840	keystroke_t	t	n/a
485.66	0.12	971320	keystroke_i	i	n/a
486.11	0.1505	972220	keystroke_c	c	n/a
486.3655	0.1495	972731	keystroke_a	a	n/a
486.516	0.1345	973032	keystroke_l	l	n/a
486.7705	0.1045	973541	keystroke_Key.space	Key.space	n/a
487.1305	0.09	974261	keystroke_l	l	n/a
487.43	0.076	974860	keystroke_i	i	n/a
487.716	0.105	975432	keystroke_t	t	n/a
488.001	0.12	976002	keystroke_e	e	n/a
488.181	0.105	976362	keystroke_r	r	n/a
488.586	0.12	977172	keystroke_a	a	n/a
488.811	0.0745	977622	keystroke_t	t	n/a
489.0205	0.12	978041	keystroke_u	u	n/a
489.1415	0.104	978283	keystroke_r	r	n/a
489.3205	0.135	978641	keystroke_e	e	n/a
489.5005	0.12	979001	keystroke_Key.space	Key.space	n/a
489.756	0.104	979512	keystroke_r	r	n/a
490.041	0.134	980082	keystroke_e	e	n/a
490.355	0.046	980710	keystroke_l	l	n/a
490.881	0.119	981762	keystroke_a	a	n/a
491.3755	0.165	982751	keystroke_x	x	n/a
492.26	0.135	984520	keystroke_a	a	n/a
492.545	0.12	985090	keystroke_t	t	n/a
492.695	0.105	985390	keystroke_i	i	n/a
492.785	0.21	985570	keystroke_o	o	n/a
493.025	0.15	986050	keystroke_n	n	n/a
493.205	0.165	986410	keystroke_Key.space	Key.space	n/a
493.61	0.135	987220	keystroke_m	m	n/a
493.895	0.1205	987790	keystroke_u	u	n/a
494.0005	0.15	988001	keystroke_s	s	n/a
494.1955	0.15	988391	keystroke_i	i	n/a
494.4205	0.105	988841	keystroke_c	c	n/a
494.6605	0.12	989321	keystroke_i	i	n/a
494.8705	0.135	989741	keystroke_a	a	n/a
494.9755	0.12	989951	keystroke_n	n	n/a
495.351	0.1195	990702	keystroke_Key.enter	Key.enter	n/a
495.477	10.255	990954	prompt	n/a	yemen caps argument apparently\n
496.205	0.1505	992410	keystroke_y	y	n/a
496.3705	0.135	992741	keystroke_e	e	n/a
496.6705	0.135	993341	keystroke_m	m	n/a
496.8205	0.12	993641	keystroke_e	e	n/a
496.9555	0.1055	993911	keystroke_n	n	n/a
497.225	0.151	994450	keystroke_Key.space	Key.space	n/a
497.616	0.12	995232	keystroke_c	c	n/a
498.1405	0.135	996281	keystroke_a	a	n/a
498.5005	0.21	997001	keystroke_p	p	n/a
498.6655	0.135	997331	keystroke_s	s	n/a
498.8155	0.1345	997631	keystroke_Key.space	Key.space	n/a
498.98	0.15	997960	keystroke_a	a	n/a
499.206	0.105	998412	keystroke_u	u	n/a
499.641	0.09	999282	keystroke_r	r	n/a
500.0755	0.12	1000151	keystroke_Key.backspace	Key.backspace	n/a
500.2705	0.12	1000541	keystroke_Key.backspace	Key.backspace	n/a
500.7205	0.105	1001441	keystroke_r	r	n/a
501.0055	0.12	1002011	keystroke_g	g	n/a
501.1405	0.105	1002281	keystroke_u	u	n/a
501.456	0.134	1002912	keystroke_m	m	n/a
501.56	0.135	1003120	keystroke_e	e	n/a
501.696	0.179	1003392	keystroke_n	n	n/a
501.86	0.151	1003720	keystroke_t	t	n/a
502.055	0.12	1004110	keystroke_Key.space	Key.space	n/a
502.325	0.135	1004650	keystroke_a	a	n/a
502.445	0.075	1004890	keystroke_p	p	n/a
502.611	0.119	1005222	keystroke_p	p	n/a
503.015	0.121	1006030	keystroke_a	a	n/a
503.33	0.12	1006660	keystroke_r	r	n/a
503.63	0.12	1007260	keystroke_e	e	n/a
503.84	0.136	1007680	keystroke_n	n	n/a
504.1405	0.105	1008281	keystroke_t	t	n/a
504.3355	0.135	1008671	keystroke_l	l	n/a
504.6805	0.12	1009361	keystroke_y	y	n/a
505.5805	0.15	1011161	keystroke_Key.enter	Key.enter	n/a
505.7355	15.1465	1011471	prompt	n/a	bibliographic bonds frame architects\n
506.33	0.15	1012660	keystroke_b	b	n/a
506.555	0.0905	1013110	keystroke_i	i	n/a
506.7505	0.105	1013501	keystroke_b	b	n/a
506.9755	0.135	1013951	keystroke_l	l	n/a
507.1705	0.15	1014341	keystroke_i	i	n/a
507.3955	0.15	1014791	keystroke_o	o	n/a
507.6055	0.12	1015211	keystroke_g	g	n/a
507.8755	0.09	1015751	keystroke_r	r	n/a
508.16	0.15	1016320	keystroke_a	a	n/a
508.775	0.195	1017550	keystroke_h	h	n/a
509.165	0.105	1018330	keystroke_i	i	n/a
509.615	0.105	1019230	keystroke_Key.backspace	Key.backspace	n/a
509.765	0.12	1019530	keystroke_Key.backspace	Key.backspace	n/a
510.336	0.1195	1020672	keystroke_p	p	n/a
510.6655	0.135	1021331	keystroke_h	h	n/a
510.8455	0.165	1021691	keystroke_i	i	n/a
511.2055	0.1495	1022411	keystroke_c	c	n/a
511.73	0.135	1023460	keystroke_Key.space	Key.space	n/a
512.0305	0.075	1024061	keystroke_b	b	n/a
512.0755	0.15	1024151	keystroke_o	o	n/a
512.2855	0.12	1024571	keystroke_n	n	n/a
512.4205	0.12	1024841	keystroke_d	d	n/a
512.8105	0.12	1025621	keystroke_s	s	n/a
513.1105	0.105	1026221	keystroke_Key.space	Key.space	n/a
513.5005	0.105	1027001	keystroke_f	f	n/a
513.7105	0.105	1027421	keystroke_r	r	n/a
513.9505	0.1795	1027901	keystroke_a	a	n/a
514.175	0.1205	1028350	keystroke_m	m	n/a
514.3555	0.135	1028711	keystroke_Key.space	Key.space	n/a
514.7155	0.195	1029431	keystroke_a	a	n/a
515.1205	0.075	1030241	keystroke_Key.backspace	Key.backspace	n/a
515.2705	0.09	1030541	keystroke_Key.backspace	Key.backspace	n/a
515.4055	0.105	1030811	keystroke_e	e	n/a
515.6005	0.12	1031201	keystroke_Key.space	Key.space	n/a
515.8855	0.1195	1031771	keystroke_a	a	n/a
516.17	0.165	1032340	keystroke_c	c	n/a
516.92	0.135	1033840	keystroke_Key.backspace	Key.backspace	n/a
517.085	0.105	1034170	keystroke_r	r	n/a
517.4455	0.15	1034891	keystroke_c	c	n/a
517.6555	0.135	1035311	keystroke_h	h	n/a
518.285	0.12	1036570	keystroke_i	i	n/a
518.466	0.089	1036932	keystroke_t	t	n/a
519.216	0.104	1038432	keystroke_e	e	n/a
519.56	0.18	1039120	keystroke_c	c	n/a
520.0105	0.105	1040021	keystroke_t	t	n/a
520.385	0.12	1040770	keystroke_s	s	n/a
520.745	0.135	1041490	keystroke_Key.enter	Key.enter	n/a
520.887	14.365	1041774	prompt	n/a	roman earrings shaft velocity\n
521.525	0.105	1043050	keystroke_r	r	n/a
521.645	0.18	1043290	keystroke_o	o	n/a
521.84	0.12	1043680	keystroke_m	m	n/a
522.0055	0.18	1044011	keystroke_a	a	n/a
522.1705	0.135	1044341	keystroke_n	n	n/a
522.3655	0.135	1044731	keystroke_Key.space	Key.space	n/a
522.6205	0.12	1045241	keystroke_e	e	n/a
522.9055	0.0745	1045811	keystroke_r	r	n/a
523.07	0.09	1046140	keystroke_r	r	n/a
523.295	0.195	1046590	keystroke_i	i	n/a
523.625	0.15	1047250	keystroke_n	n	n/a
524.795	0.105	1049590	keystroke_Key.backspace	Key.backspace	n/a
524.99	0.33	1049980	keystroke_Key.backspace	Key.backspace	n/a
525.53	0.1205	1051060	keystroke_Key.backspace	Key.backspace	n/a
525.755	0.15	1051510	keystroke_Key.backspace	Key.backspace	n/a
526.0695	0.136	1052139	keystroke_a	a	n/a
526.3255	0.135	1052651	keystroke_r	r	n/a
526.5055	0.12	1053011	keystroke_i	i	n/a
526.6705	0.09	1053341	keystroke_n	n	n/a
526.8505	0.09	1053701	keystroke_n	n	n/a
527.585	0.12	1055170	keystroke_Key.backspace	Key.backspace	n/a
529.2805	0.105	1058561	keystroke_Key.backspace	Key.backspace	n/a
529.4455	0.075	1058891	keystroke_Key.backspace	Key.backspace	n/a
529.7305	0.105	1059461	keystroke_r	r	n/a
530.0905	0.09	1060181	keystroke_i	i	n/a
530.2405	0.09	1060481	keystroke_n	n	n/a
530.3755	0.105	1060751	keystroke_g	g	n/a
530.7355	0.15	1061471	keystroke_s	s	n/a
531.0505	0.165	1062101	keystroke_Key.space	Key.space	n/a
531.2905	0.135	1062581	keystroke_s	s	n/a
531.3955	0.135	1062791	keystroke_h	h	n/a
531.7555	0.12	1063511	keystroke_a	a	n/a
531.9355	0.135	1063871	keystroke_f	f	n/a
532.2055	0.135	1064411	keystroke_t	t	n/a
533.0455	0.12	1066091	keystroke_Key.space	Key.space	n/a
533.2255	0.09	1066451	keystroke_v	v	n/a
533.4655	0.15	1066931	keystroke_e	e	n/a
533.6605	0.135	1067321	keystroke_l	l	n/a
533.9005	0.12	1067801	keystroke_o	o	n/a
534.0355	0.165	1068071	keystroke_c	c	n/a
534.2155	0.165	1068431	keystroke_i	i	n/a
534.4105	0.135	1068821	keystroke_t	t	n/a
534.6655	0.09	1069331	keystroke_y	y	n/a
535.1305	0.12	1070261	keystroke_Key.enter	Key.enter	n/a
535.255	8.997	1070510	prompt	n/a	envelope treasure pack teaching\n
535.9705	0.135	1071941	keystroke_e	e	n/a
536.2705	0.105	1072541	keystroke_n	n	n/a
536.4505	0.1645	1072901	keystroke_v	v	n/a
536.8255	0.1355	1073651	keystroke_e	e	n/a
537.561	0.09	1075122	keystroke_l	l	n/a
538.0555	0.12	1076111	keystroke_o	o	n/a
538.3405	0.15	1076681	keystroke_p	p	n/a
538.5505	0.1645	1077101	keystroke_e	e	n/a
538.7	0.165	1077400	keystroke_Key.space	Key.space	n/a
539.015	0.09	1078030	keystroke_t	t	n/a
539.225	0.1205	1078450	keystroke_r	r	n/a
539.4355	0.15	1078871	keystroke_e	e	n/a
539.7655	0.135	1079531	keystroke_a	a	n/a
540.3805	0.075	1080761	keystroke_s	s	n/a
540.5155	0.1505	1081031	keystroke_u	u	n/a
540.695	0.121	1081390	keystroke_r	r	n/a
540.861	0.119	1081722	keystroke_e	e	n/a
541.04	0.135	1082080	keystroke_Key.space	Key.space	n/a
541.295	0.15	1082590	keystroke_p	p	n/a
541.4	0.105	1082800	keystroke_a	a	n/a
541.67	0.18	1083340	keystroke_c	c	n/a
541.865	0.165	1083730	keystroke_k	k	n/a
542.075	0.135	1084150	keystroke_Key.space	Key.space	n/a
542.345	0.105	1084690	keystroke_t	t	n/a
542.54	0.12	1085080	keystroke_e	e	n/a
542.795	0.12	1085590	keystroke_a	a	n/a
543.05	0.21	1086100	keystroke_c	c	n/a
543.245	0.135	1086490	keystroke_h	h	n/a
543.425	0.15	1086850	keystroke_i	i	n/a
543.59	0.15	1087180	keystroke_n	n	n/a
543.755	0.165	1087510	keystroke_g	g	n/a
544.115	0.135	1088230	keystroke_Key.enter	Key.enter	n/a
544.255	13.122	1088510	prompt	n/a	pieces studies acting submission\n
544.97	0.195	1089940	keystroke_p	p	n/a
545.5555	0.09	1091111	keystroke_i	i	n/a
545.6905	0.09	1091381	keystroke_e	e	n/a
546.0505	0.09	1092101	keystroke_c	c	n/a
546.2905	0.075	1092581	keystroke_e	e	n/a
546.5155	0.12	1093031	keystroke_s	s	n/a
546.6505	0.12	1093301	keystroke_Key.space	Key.space	n/a
546.8605	0.12	1093721	keystroke_s	s	n/a
547.1605	0.075	1094321	keystroke_t	t	n/a
547.2805	0.12	1094561	keystroke_u	u	n/a
547.46	0.12	1094920	keystroke_d	d	n/a
547.595	0.18	1095190	keystroke_i	i	n/a
547.82	0.09	1095640	keystroke_e	e	n/a
548.12	0.105	1096240	keystroke_s	s	n/a
548.51	0.105	1097020	keystroke_Key.space	Key.space	n/a
548.84	0.105	1097680	keystroke_a	a	n/a
549.065	0.165	1098130	keystroke_c	c	n/a
549.38	0.09	1098760	keystroke_t	t	n/a
549.5	0.045	1099000	keystroke_i	i	n/a
549.575	0.36	1099150	keystroke_o	o	n/a
550.5495	0.135	1101099	keystroke_Key.backspace	Key.backspace	n/a
550.9245	0.12	1101849	keystroke_n	n	n/a
551.1655	0.105	1102331	keystroke_g	g	n/a
551.7055	0.15	1103411	keystroke_Key.space	Key.space	n/a
551.9155	0.165	1103831	keystroke_s	s	n/a
552.59	0.1505	1105180	keystroke_u	u	n/a
552.7555	0.1045	1105511	keystroke_b	b	n/a
553.0555	0.165	1106111	keystroke_m	m	n/a
553.28	0.12	1106560	keystroke_i	i	n/a
553.49	0.15	1106980	keystroke_s	s	n/a
554.165	0.105	1108330	keystroke_s	s	n/a
554.5405	0.135	1109081	keystroke_i	i	n/a
554.8105	0.165	1109621	keystroke_o	o	n/a
555.74	0.135	1111480	keystroke_Key.backspace	Key.backspace	n/a
556.5805	0.21	1113161	keystroke_o	o	n/a
556.7605	0.135	1113521	keystroke_n	n	n/a
557.24	0.135	1114480	keystroke_Key.enter	Key.enter	n/a
557.3795	11.0675	1114759	prompt	n/a	holocaust russia favors latin\n
558.17	0.18	1116340	keystroke_h	h	n/a
558.3805	0.105	1116761	keystroke_o	o	n/a
558.6655	0.12	1117331	keystroke_l	l	n/a
558.8905	0.105	1117781	keystroke_o	o	n/a
559.0255	0.105	1118051	keystroke_c	c	n/a
559.2205	0.225	1118441	keystroke_a	a	n/a
559.4755	0.135	1118951	keystroke_u	u	n/a
559.5955	0.15	1119191	keystroke_s	s	n/a
559.9105	0.1195	1119821	keystroke_t	t	n/a
560.045	0.165	1120090	keystroke_Key.space	Key.space	n/a
560.2705	0.1195	1120541	keystroke_r	r	n/a
560.405	0.135	1120810	keystroke_u	u	n/a
560.63	0.105	1121260	keystroke_s	s	n/a
560.81	0.105	1121620	keystroke_s	s	n/a
561.1255	0.135	1122251	keystroke_a	a	n/a
561.3655	0.15	1122731	keystroke_Key.space	Key.space	n/a
561.5605	0.12	1123121	keystroke_f	f	n/a
561.7855	0.105	1123571	keystroke_a	a	n/a
562.025	0.12	1124050	keystroke_v	v	n/a
562.685	0.075	1125370	keystroke_Key.backspace	Key.backspace	n/a
562.925	0.075	1125850	keystroke_Key.backspace	Key.backspace	n/a
563.165	0.075	1126330	keystroke_Key.backspace	Key.backspace	n/a
563.42	0.12	1126840	keystroke_Key.backspace	Key.backspace	n/a
563.795	0.12	1127590	keystroke_Key.backspace	Key.backspace	n/a
564.2005	0.135	1128401	keystroke_i	i	n/a
564.3505	0.225	1128701	keystroke_a	a	n/a
564.5905	0.15	1129181	keystroke_Key.space	Key.space	n/a
564.8605	0.105	1129721	keystroke_f	f	n/a
565.0255	0.2095	1130051	keystroke_a	a	n/a
565.58	0.1055	1131160	keystroke_v	v	n/a
566.3	0.1505	1132600	keystroke_o	o	n/a
566.5405	0.0895	1133081	keystroke_r	r	n/a
566.795	0.135	1133590	keystroke_s	s	n/a
566.945	0.15	1133890	keystroke_Key.space	Key.space	n/a
567.201	0.119	1134402	keystroke_l	l	n/a
567.29	0.15	1134580	keystroke_a	a	n/a
567.575	0.076	1135150	keystroke_t	t	n/a
567.725	0.15	1135450	keystroke_i	i	n/a
567.92	0.15	1135840	keystroke_n	n	n/a
568.3555	0.09	1136711	keystroke_Key.enter	Key.enter	n/a
568.4505	10.4815	1136901	prompt	n/a	username eric prescribed scotland\n
569.1055	0.12	1138211	keystroke_u	u	n/a
569.2555	0.135	1138511	keystroke_s	s	n/a
569.4805	0.1195	1138961	keystroke_e	e	n/a
569.66	0.105	1139320	keystroke_r	r	n/a
569.886	0.1045	1139772	keystroke_n	n	n/a
570.1105	0.12	1140221	keystroke_a	a	n/a
570.2605	0.18	1140521	keystroke_m	m	n/a
570.4105	0.15	1140821	keystroke_e	e	n/a
570.6355	0.12	1141271	keystroke_Key.space	Key.space	n/a
571.4155	0.12	1142831	keystroke_e	e	n/a
571.6555	0.12	1143311	keystroke_r	r	n/a
571.8655	0.105	1143731	keystroke_i	i	n/a
572.0755	0.165	1144151	keystroke_c	c	n/a
572.8255	0.12	1145651	keystroke_Key.space	Key.space	n/a
573.2005	0.21	1146401	keystroke_p	p	n/a
573.3805	0.12	1146761	keystroke_r	r	n/a
573.5905	0.135	1147181	keystroke_e	e	n/a
573.92	0.0905	1147840	keystroke_s	s	n/a
574.1605	0.15	1148321	keystroke_c	c	n/a
574.4305	0.09	1148861	keystroke_r	r	n/a
574.5355	0.105	1149071	keystroke_i	i	n/a
574.775	0.105	1149550	keystroke_b	b	n/a
575.03	0.105	1150060	keystroke_e	e	n/a
575.27	0.135	1150540	keystroke_d	d	n/a
575.45	0.135	1150900	keystroke_Key.space	Key.space	n/a
575.675	0.075	1151350	keystroke_s	s	n/a
575.915	0.15	1151830	keystroke_c	c	n/a
576.5905	0.12	1153181	keystroke_o	o	n/a
577.2805	0.105	1154561	keystroke_t	t	n/a
577.895	0.1655	1155790	keystroke_l	l	n/a
578.0905	0.165	1156181	keystroke_a	a	n/a
578.2705	0.135	1156541	keystroke_n	n	n/a
578.4055	0.18	1156811	keystroke_d	d	n/a
578.7955	0.135	1157591	keystroke_Key.enter	Key.enter	n/a
578.9355	14.0365	1157871	prompt	n/a	provinces saying generators characterization\n
579.65	0.135	1159300	keystroke_p	p	n/a
579.77	0.12	1159540	keystroke_r	r	n/a
580.0105	0.09	1160021	keystroke_o	o	n/a
580.2205	0.135	1160441	keystroke_v	v	n/a
580.3705	0.135	1160741	keystroke_i	i	n/a
580.6255	0.105	1161251	keystroke_n	n	n/a
580.7905	0.105	1161581	keystroke_c	c	n/a
581.0455	0.075	1162091	keystroke_e	e	n/a
581.2855	0.105	1162571	keystroke_s	s	n/a
581.3755	0.1495	1162751	keystroke_Key.space	Key.space	n/a
581.6455	0.105	1163291	keystroke_s	s	n/a
581.9455	0.135	1163891	keystroke_a	a	n/a
582.0505	0.12	1164101	keystroke_y	y	n/a
582.4405	0.135	1164881	keystroke_i	i	n/a
582.6055	0.165	1165211	keystroke_n	n	n/a
582.7405	0.135	1165481	keystroke_g	g	n/a
582.8755	0.135	1165751	keystroke_Key.space	Key.space	n/a
583.1455	0.09	1166291	keystroke_g	g	n/a
583.3855	0.104	1166771	keystroke_e	e	n/a
583.6705	0.12	1167341	keystroke_n	n	n/a
583.8055	0.15	1167611	keystroke_e	e	n/a
584.015	0.105	1168030	keystroke_r	r	n/a
584.7195	0.151	1169439	keystroke_a	a	n/a
585.5295	0.135	1171059	keystroke_t	t	n/a
585.7245	0.09	1171449	keystroke_o	o	n/a
585.9045	0.106	1171809	keystroke_r	r	n/a
586.3405	0.105	1172681	keystroke_s	s	n/a
586.5955	0.15	1173191	keystroke_Key.space	Key.space	n/a
586.955	0.135	1173910	keystroke_c	c	n/a
587.135	0.12	1174270	keystroke_h	h	n/a
587.3	0.165	1174600	keystroke_a	a	n/a
587.63	0.105	1175260	keystroke_r	r	n/a
588.3195	0.121	1176639	keystroke_a	a	n/a
588.6055	0.135	1177211	keystroke_c	c	n/a
588.9655	0.134	1177931	keystroke_t	t	n/a
589.2645	0.15	1178529	keystroke_e	e	n/a
589.4595	0.09	1178919	keystroke_r	r	n/a
589.6395	0.105	1179279	keystroke_i	i	n/a
590.0145	0.12	1180029	keystroke_z	z	n/a
591.6345	0.105	1183269	keystroke_a	a	n/a
591.9945	0.0905	1183989	keystroke_t	t	n/a
592.145	0.15	1184290	keystroke_i	i	n/a
592.25	0.255	1184500	keystroke_o	o	n/a
592.43	0.15	1184860	keystroke_n	n	n/a
592.865	0.105	1185730	keystroke_Key.enter	Key.enter	n/a
592.9755	6.626	1185951	prompt	n/a	reviews wire meters pack\n
593.69	0.105	1187380	keystroke_r	r	n/a
593.8705	0.135	1187741	keystroke_e	e	n/a
594.1405	0.15	1188281	keystroke_v	v	n/a
594.2605	0.135	1188521	keystroke_i	i	n/a
594.4405	0.09	1188881	keystroke_e	e	n/a
594.6655	0.09	1189331	keystroke_w	w	n/a
595.07	0.12	1190140	keystroke_s	s	n/a
595.2655	0.12	1190531	keystroke_Key.space	Key.space	n/a
595.5205	0.105	1191041	keystroke_w	w	n/a
595.6405	0.105	1191281	keystroke_i	i	n/a
595.7455	0.135	1191491	keystroke_r	r	n/a
595.9705	0.1195	1191941	keystroke_e	e	n/a
596.15	0.12	1192300	keystroke_Key.space	Key.space	n/a
596.5555	0.105	1193111	keystroke_m	m	n/a
596.6755	0.12	1193351	keystroke_e	e	n/a
596.9455	0.075	1193891	keystroke_t	t	n/a
597.2455	0.15	1194491	keystroke_e	e	n/a
597.4555	0.15	1194911	keystroke_r	r	n/a
597.9055	0.12	1195811	keystroke_s	s	n/a
598.0555	0.135	1196111	keystroke_Key.space	Key.space	n/a
598.2955	0.195	1196591	keystroke_p	p	n/a
598.4605	0.09	1196921	keystroke_a	a	n/a
598.8205	0.1645	1197641	keystroke_c	c	n/a
599	0.15	1198000	keystroke_k	k	n/a
599.4655	0.135	1198931	keystroke_Key.enter	Key.enter	n/a
599.605	8.592	1199210	prompt	n/a	houses failing intimate cancellation\n
600.26	0.135	1200520	keystroke_h	h	n/a
600.425	0.15	1200850	keystroke_o	o	n/a
600.59	0.135	1201180	keystroke_u	u	n/a
600.74	0.105	1201480	keystroke_s	s	n/a
601.04	0.12	1202080	keystroke_e	e	n/a
601.295	0.105	1202590	keystroke_s	s	n/a
602.0295	0.12	1204059	keystroke_Key.space	Key.space	n/a
602.1795	0.1055	1204359	keystroke_f	f	n/a
602.33	0.15	1204660	keystroke_a	a	n/a
602.465	0.105	1204930	keystroke_i	i	n/a
602.705	0.18	1205410	keystroke_l	l	n/a
602.915	0.195	1205830	keystroke_i	i	n/a
603.125	0.18	1206250	keystroke_n	n	n/a
603.26	0.135	1206520	keystroke_g	g	n/a
603.38	0.15	1206760	keystroke_Key.space	Key.space	n/a
603.65	0.135	1207300	keystroke_i	i	n/a
603.8	0.165	1207600	keystroke_n	n	n/a
603.9945	0.135	1207989	keystroke_t	t	n/a
604.2205	0.119	1208441	keystroke_i	i	n/a
604.3705	0.2245	1208741	keystroke_m	m	n/a
604.58	0.135	1209160	keystroke_a	a	n/a
604.835	0.135	1209670	keystroke_t	t	n/a
605.045	0.165	1210090	keystroke_e	e	n/a
605.36	0.105	1210720	keystroke_Key.space	Key.space	n/a
605.585	0.12	1211170	keystroke_c	c	n/a
605.75	0.135	1211500	keystroke_a	a	n/a
605.855	0.135	1211710	keystroke_n	n	n/a
606.065	0.1045	1212130	keystroke_c	c	n/a
606.32	0.105	1212640	keystroke_e	e	n/a
606.455	0.12	1212910	keystroke_l	l	n/a
606.665	0.1205	1213330	keystroke_l	l	n/a
606.8455	0.15	1213691	keystroke_a	a	n/a
607.1005	0.12	1214201	keystroke_t	t	n/a
607.2355	0.135	1214471	keystroke_i	i	n/a
607.3555	0.24	1214711	keystroke_o	o	n/a
607.5355	0.135	1215071	keystroke_n	n	n/a
608.0455	0.149	1216091	keystroke_Key.enter	Key.enter	n/a
608.201	8.336	1216402	prompt	n/a	personalized posts ever graduate\n
608.99	0.1645	1217980	keystroke_p	p	n/a
609.08	0.135	1218160	keystroke_e	e	n/a
609.23	0.105	1218460	keystroke_r	r	n/a
609.5	0.12	1219000	keystroke_s	s	n/a
609.65	0.18	1219300	keystroke_o	o	n/a
609.8	0.12	1219600	keystroke_n	n	n/a
610.04	0.1355	1220080	keystroke_a	a	n/a
610.1905	0.09	1220381	keystroke_l	l	n/a
610.4155	0.1045	1220831	keystroke_i	i	n/a
611.18	0.165	1222360	keystroke_z	z	n/a
611.6005	0.1195	1223201	keystroke_e	e	n/a
611.945	0.1205	1223890	keystroke_d	d	n/a
612.1555	0.09	1224311	keystroke_Key.space	Key.space	n/a
612.4105	0.06	1224821	keystroke_p	p	n/a
612.5755	0.1195	1225151	keystroke_o	o	n/a
612.68	0.12	1225360	keystroke_s	s	n/a
612.9205	0.105	1225841	keystroke_t	t	n/a
613.22	0.12	1226440	keystroke_s	s	n/a
613.4605	0.135	1226921	keystroke_Key.space	Key.space	n/a
613.6555	0.105	1227311	keystroke_e	e	n/a
613.9105	0.1195	1227821	keystroke_v	v	n/a
614.09	0.135	1228180	keystroke_e	e	n/a
614.27	0.105	1228540	keystroke_r	r	n/a
614.36	0.135	1228720	keystroke_Key.space	Key.space	n/a
614.585	0.075	1229170	keystroke_g	g	n/a
614.78	0.09	1229560	keystroke_r	r	n/a
615.155	0.105	1230310	keystroke_a	a	n/a
615.35	0.135	1230700	keystroke_d	d	n/a
615.515	0.1355	1231030	keystroke_u	u	n/a
615.6805	0.135	1231361	keystroke_a	a	n/a
615.9355	0.1045	1231871	keystroke_t	t	n/a
616.1	0.12	1232200	keystroke_e	e	n/a
616.385	0.15	1232770	keystroke_Key.enter	Key.enter	n/a
616.541	13.1205	1233082	prompt	n/a	montreal pizza dominican fingers\n
617.1955	0.134	1234391	keystroke_m	m	n/a
617.3745	0.15	1234749	keystroke_o	o	n/a
617.5255	0.074	1235051	keystroke_t	t	n/a
617.7055	0.105	1235411	keystroke_r	r	n/a
617.8695	0.09	1235739	keystroke_e	e	n/a
618.0945	0.196	1236189	keystroke_a	a	n/a
618.3055	0.119	1236611	keystroke_l	l	n/a
618.4545	0.18	1236909	keystroke_Key.space	Key.space	n/a
618.8895	0.106	1237779	keystroke_p	p	n/a
619.5795	0.105	1239159	keystroke_Key.backspace	Key.backspace	n/a
619.775	0.09	1239550	keystroke_Key.backspace	Key.backspace	n/a
619.895	0.2845	1239790	keystroke_Key.backspace	Key.backspace	n/a
620.2395	0.09	1240479	keystroke_Key.backspace	Key.backspace	n/a
620.4795	0.075	1240959	keystroke_Key.backspace	Key.backspace	n/a
620.6445	0.075	1241289	keystroke_Key.backspace	Key.backspace	n/a
620.9595	0.075	1241919	keystroke_Key.backspace	Key.backspace	n/a
621.29	0.12	1242580	keystroke_n	n	n/a
621.44	0.1055	1242880	keystroke_t	t	n/a
621.6655	0.105	1243331	keystroke_r	r	n/a
621.8755	0.105	1243751	keystroke_e	e	n/a
622.1155	0.18	1244231	keystroke_a	a	n/a
622.2345	0.136	1244469	keystroke_l	l	n/a
622.4155	0.149	1244831	keystroke_Key.space	Key.space	n/a
622.7595	0.21	1245519	keystroke_p	p	n/a
623.0445	0.136	1246089	keystroke_i	i	n/a
623.3005	0.104	1246601	keystroke_z	z	n/a
623.5095	0.076	1247019	keystroke_z	z	n/a
623.9	0.075	1247800	keystroke_a	a	n/a
624.065	0.135	1248130	keystroke_Key.space	Key.space	n/a
624.32	0.135	1248640	keystroke_d	d	n/a
624.44	0.12	1248880	keystroke_o	o	n/a
624.755	0.135	1249510	keystroke_m	m	n/a
625.025	0.135	1250050	keystroke_i	i	n/a
626.0905	0.165	1252181	keystroke_n	n	n/a
626.3305	0.135	1252661	keystroke_i	i	n/a
626.4655	0.135	1252931	keystroke_c	c	n/a
626.6605	0.165	1253321	keystroke_a	a	n/a
626.8105	0.135	1253621	keystroke_n	n	n/a
626.9905	0.12	1253981	keystroke_Key.space	Key.space	n/a
627.1705	0.105	1254341	keystroke_f	f	n/a
627.3355	0.09	1254671	keystroke_i	i	n/a
628.025	0.12	1256050	keystroke_n	n	n/a
628.205	0.165	1256410	keystroke_g	g	n/a
628.6855	0.135	1257371	keystroke_e	e	n/a
628.9105	0.105	1257821	keystroke_r	r	n/a
629.2405	0.09	1258481	keystroke_s	s	n/a
629.5405	0.12	1259081	keystroke_Key.enter	Key.enter	n/a
629.6725	9.1995	1259345	prompt	n/a	gift measured differences reduce\n
630.4555	0.1345	1260911	keystroke_g	g	n/a
630.62	0.15	1261240	keystroke_i	i	n/a
630.86	0.09	1261720	keystroke_f	f	n/a
631.13	0.06	1262260	keystroke_t	t	n/a
631.7605	0.1495	1263521	keystroke_Key.space	Key.space	n/a
632.015	0.12	1264030	keystroke_m	m	n/a
632.12	0.09	1264240	keystroke_e	e	n/a
632.345	0.105	1264690	keystroke_a	a	n/a
632.525	0.15	1265050	keystroke_s	s	n/a
632.72	0.165	1265440	keystroke_u	u	n/a
632.84	0.135	1265680	keystroke_r	r	n/a
632.99	0.12	1265980	keystroke_e	e	n/a
633.245	0.1355	1266490	keystroke_d	d	n/a
633.3655	0.165	1266731	keystroke_Key.space	Key.space	n/a
633.6055	0.105	1267211	keystroke_d	d	n/a
633.7255	0.105	1267451	keystroke_i	i	n/a
634.9855	0.075	1269971	keystroke_f	f	n/a
635.1655	0.105	1270331	keystroke_f	f	n/a
635.4055	0.105	1270811	keystroke_e	e	n/a
635.6755	0.12	1271351	keystroke_r	r	n/a
635.8405	0.12	1271681	keystroke_e	e	n/a
636.0205	0.1345	1272041	keystroke_n	n	n/a
636.215	0.135	1272430	keystroke_c	c	n/a
636.53	0.075	1273060	keystroke_e	e	n/a
636.83	0.135	1273660	keystroke_s	s	n/a
636.995	0.12	1273990	keystroke_Key.space	Key.space	n/a
637.325	0.135	1274650	keystroke_r	r	n/a
637.535	0.105	1275070	keystroke_e	e	n/a
637.82	0.15	1275640	keystroke_d	d	n/a
637.985	0.12	1275970	keystroke_u	u	n/a
638.255	0.12	1276510	keystroke_c	c	n/a
638.54	0.0755	1277080	keystroke_e	e	n/a
638.735	0.1355	1277470	keystroke_Key.enter	Key.enter	n/a
638.875	7.4515	1277750	prompt	n/a	actually peeing drink listing\n
639.4555	0.135	1278911	keystroke_a	a	n/a
639.7105	0.165	1279421	keystroke_c	c	n/a
639.9955	0.12	1279991	keystroke_t	t	n/a
640.2205	0.165	1280441	keystroke_u	u	n/a
640.6705	0.09	1281341	keystroke_a	a	n/a
641.1355	0.06	1282271	keystroke_l	l	n/a
641.3005	0.105	1282601	keystroke_l	l	n/a
641.69	0.135	1283380	keystroke_y	y	n/a
641.84	0.15	1283680	keystroke_Key.space	Key.space	n/a
642.125	0.1805	1284250	keystroke_p	p	n/a
642.2905	0.09	1284581	keystroke_e	e	n/a
642.5005	0.0895	1285001	keystroke_e	e	n/a
642.65	0.18	1285300	keystroke_i	i	n/a
642.815	0.1945	1285630	keystroke_n	n	n/a
642.9495	0.15	1285899	keystroke_g	g	n/a
643.1445	0.135	1286289	keystroke_Key.space	Key.space	n/a
643.3395	0.12	1286679	keystroke_d	d	n/a
643.5645	0.135	1287129	keystroke_r	r	n/a
643.7005	0.164	1287401	keystroke_i	i	n/a
643.9095	0.1205	1287819	keystroke_n	n	n/a
644.195	0.1645	1288390	keystroke_k	k	n/a
644.4045	0.1205	1288809	keystroke_Key.space	Key.space	n/a
644.66	0.1345	1289320	keystroke_l	l	n/a
644.8845	0.135	1289769	keystroke_i	i	n/a
645.0495	0.12	1290099	keystroke_s	s	n/a
645.335	0.105	1290670	keystroke_t	t	n/a
645.47	0.1505	1290940	keystroke_i	i	n/a
645.605	0.1805	1291210	keystroke_n	n	n/a
645.7255	0.135	1291451	keystroke_g	g	n/a
646.2055	0.12	1292411	keystroke_Key.enter	Key.enter	n/a
646.33	7.887	1292660	prompt	n/a	value will live biography\n
646.9405	0.12	1293881	keystroke_v	v	n/a
647.1505	0.135	1294301	keystroke_a	a	n/a
647.2705	0.135	1294541	keystroke_l	l	n/a
647.5105	0.1495	1295021	keystroke_u	u	n/a
647.69	0.12	1295380	keystroke_e	e	n/a
647.825	0.12	1295650	keystroke_Key.space	Key.space	n/a
648.02	0.1355	1296040	keystroke_w	w	n/a
648.1405	0.104	1296281	keystroke_i	i	n/a
648.3655	0.075	1296731	keystroke_l	l	n/a
648.5005	0.09	1297001	keystroke_l	l	n/a
648.6645	0.135	1297329	keystroke_Key.space	Key.space	n/a
649.0105	0.075	1298021	keystroke_l	l	n/a
649.2055	0.105	1298411	keystroke_i	i	n/a
649.3405	0.135	1298681	keystroke_v	v	n/a
649.5805	0.1345	1299161	keystroke_e	e	n/a
649.79	0.15	1299580	keystroke_Key.space	Key.space	n/a
650.105	0.135	1300210	keystroke_b	b	n/a
650.27	0.09	1300540	keystroke_i	i	n/a
650.585	0.12	1301170	keystroke_o	o	n/a
650.795	0.12	1301590	keystroke_g	g	n/a
651.1095	0.06	1302219	keystroke_r	r	n/a
651.5005	0.164	1303001	keystroke_a	a	n/a
652.7745	0.195	1305549	keystroke_p	p	n/a
653.2395	0.12	1306479	keystroke_h	h	n/a
653.6295	0.15	1307259	keystroke_y	y	n/a
654.095	0.12	1308190	keystroke_Key.enter	Key.enter	n/a
654.2195	15.927	1308439	prompt	n/a	carmen factors california duty\n
654.875	0.12	1309750	keystroke_c	c	n/a
655.085	0.1045	1310170	keystroke_a	a	n/a
655.3095	0.15	1310619	keystroke_r	r	n/a
655.6095	0.15	1311219	keystroke_m	m	n/a
655.7745	0.15	1311549	keystroke_e	e	n/a
655.8795	0.165	1311759	keystroke_n	n	n/a
656.735	0.105	1313470	keystroke_Key.space	Key.space	n/a
656.975	0.09	1313950	keystroke_f	f	n/a
657.185	0.105	1314370	keystroke_a	a	n/a
657.455	0.165	1314910	keystroke_c	c	n/a
657.77	0.15	1315540	keystroke_o	o	n/a
657.935	0.12	1315870	keystroke_r	r	n/a
658.595	0.09	1317190	keystroke_Key.backspace	Key.backspace	n/a
658.745	0.09	1317490	keystroke_Key.backspace	Key.backspace	n/a
658.97	0.105	1317940	keystroke_t	t	n/a
659.09	0.165	1318180	keystroke_o	o	n/a
659.2395	0.1055	1318479	keystroke_r	r	n/a
659.525	0.12	1319050	keystroke_s	s	n/a
660.4395	0.135	1320879	keystroke_Key.space	Key.space	n/a
660.83	0.135	1321660	keystroke_c	c	n/a
661.025	0.1645	1322050	keystroke_a	a	n/a
661.1445	0.15	1322289	keystroke_l	l	n/a
661.55	0.1345	1323100	keystroke_i	i	n/a
661.8795	0.135	1323759	keystroke_f	f	n/a
663.005	0.12	1326010	keystroke_o	o	n/a
663.14	0.135	1326280	keystroke_r	r	n/a
663.395	0.105	1326790	keystroke_n	n	n/a
663.59	0.12	1327180	keystroke_i	i	n/a
663.71	0.21	1327420	keystroke_a	a	n/a
663.92	0.105	1327840	keystroke_Key.space	Key.space	n/a
664.19	0.12	1328380	keystroke_d	d	n/a
666.952	0.133	1333904	keystroke_d	d	n/a
667.04	0.149	1334080	keystroke_u	u	n/a
667.265	0.135	1334530	keystroke_t	t	n/a
667.5645	0.15	1335129	keystroke_y	y	n/a
668.164	0.03	1336328	keystroke_Key.backspace	Key.backspace	n/a
668.314	0.045	1336628	keystroke_Key.backspace	Key.backspace	n/a
668.434	0.06	1336868	keystroke_Key.backspace	Key.backspace	n/a
668.779	0.1205	1337558	keystroke_Key.backspace	Key.backspace	n/a
669.1095	0.1805	1338219	keystroke_u	u	n/a
669.4245	0.12	1338849	keystroke_t	t	n/a
669.6045	0.1355	1339209	keystroke_y	y	n/a
670.0395	0.1055	1340079	keystroke_Key.enter	Key.enter	n/a
670.1495	7.9925	1340299	prompt	n/a	forget validation room sandra\n
670.715	0.135	1341430	keystroke_f	f	n/a
670.895	0.105	1341790	keystroke_o	o	n/a
671.015	0.0595	1342030	keystroke_r	r	n/a
671.1945	0.105	1342389	keystroke_g	g	n/a
671.3305	0.179	1342661	keystroke_e	e	n/a
671.6595	0.121	1343319	keystroke_t	t	n/a
671.8695	0.06	1343739	keystroke_Key.space	Key.space	n/a
672.0495	0.135	1344099	keystroke_v	v	n/a
672.2745	0.18	1344549	keystroke_a	a	n/a
672.4395	0.135	1344879	keystroke_l	l	n/a
673.2345	0.135	1346469	keystroke_i	i	n/a
673.4895	0.165	1346979	keystroke_d	d	n/a
673.7295	0.12	1347459	keystroke_a	a	n/a
673.9695	0.1055	1347939	keystroke_t	t	n/a
674.06	0.165	1348120	keystroke_i	i	n/a
674.195	0.12	1348390	keystroke_o	o	n/a
674.36	0.1945	1348720	keystroke_n	n	n/a
675.1695	0.15	1350339	keystroke_Key.space	Key.space	n/a
675.4395	0.105	1350879	keystroke_r	r	n/a
675.5145	0.105	1351029	keystroke_o	o	n/a
675.7245	0.12	1351449	keystroke_o	o	n/a
676.0395	0.135	1352079	keystroke_m	m	n/a
676.2795	0.105	1352559	keystroke_Key.space	Key.space	n/a
676.6395	0.045	1353279	keystroke_s	s	n/a
676.8045	0.15	1353609	keystroke_a	a	n/a
676.9555	0.164	1353911	keystroke_n	n	n/a
677.1045	0.1205	1354209	keystroke_d	d	n/a
677.375	0.135	1354750	keystroke_r	r	n/a
677.675	0.165	1355350	keystroke_a	a	n/a
678.005	0.135	1356010	keystroke_Key.enter	Key.enter	n/a
678.145	13.0015	1356290	prompt	n/a	glad daisy reflects well\n
678.8145	0.09	1357629	keystroke_g	g	n/a
679.0995	0.135	1358199	keystroke_l	l	n/a
679.2495	0.15	1358499	keystroke_a	a	n/a
679.4895	0.15	1358979	keystroke_d	d	n/a
679.7445	0.09	1359489	keystroke_Key.space	Key.space	n/a
679.8945	0.105	1359789	keystroke_d	d	n/a
680.12	0.165	1360240	keystroke_a	a	n/a
680.345	0.075	1360690	keystroke_i	i	n/a
680.48	0.15	1360960	keystroke_s	s	n/a
680.839	0.151	1361678	keystroke_y	y	n/a
681.0645	0.135	1362129	keystroke_Key.space	Key.space	n/a
681.3495	0.135	1362699	keystroke_r	r	n/a
681.5445	0.105	1363089	keystroke_e	e	n/a
681.9345	0.135	1363869	keystroke_l	l	n/a
682.189	0.106	1364378	keystroke_e	e	n/a
682.5195	0.165	1365039	keystroke_c	c	n/a
682.8795	0.06	1365759	keystroke_t	t	n/a
683.1645	0.135	1366329	keystroke_s	s	n/a
683.3295	0.105	1366659	keystroke_Key.space	Key.space	n/a
683.5095	0.15	1367019	keystroke_w	w	n/a
683.7045	0.15	1367409	keystroke_e	e	n/a
684.8	0.09	1369600	keystroke_Key.backspace	Key.backspace	n/a
685.01	0.105	1370020	keystroke_Key.backspace	Key.backspace	n/a
685.19	0.09	1370380	keystroke_Key.backspace	Key.backspace	n/a
685.355	0.105	1370710	keystroke_Key.backspace	Key.backspace	n/a
685.565	0.075	1371130	keystroke_Key.backspace	Key.backspace	n/a
685.745	0.075	1371490	keystroke_Key.backspace	Key.backspace	n/a
685.94	0.12	1371880	keystroke_Key.backspace	Key.backspace	n/a
687.6195	0.135	1375239	keystroke_Key.backspace	Key.backspace	n/a
687.9195	0.1355	1375839	keystroke_f	f	n/a
688.175	0.195	1376350	keystroke_l	l	n/a
688.355	0.135	1376710	keystroke_e	e	n/a
688.685	0.15	1377370	keystroke_c	c	n/a
688.97	0.09	1377940	keystroke_t	t	n/a
689.2395	0.105	1378479	keystroke_s	s	n/a
689.4045	0.12	1378809	keystroke_Key.space	Key.space	n/a
689.66	0.12	1379320	keystroke_w	w	n/a
689.855	0.1495	1379710	keystroke_e	e	n/a
690.1095	0.105	1380219	keystroke_l	l	n/a
690.2445	0.165	1380489	keystroke_l	l	n/a
691.0395	0.105	1382079	keystroke_Key.enter	Key.enter	n/a
691.1495	8.622	1382299	prompt	n/a	create unknown operational installed\n
691.8495	0.18	1383699	keystroke_c	c	n/a
692.1195	0.1505	1384239	keystroke_r	r	n/a
692.3145	0.135	1384629	keystroke_e	e	n/a
692.5545	0.105	1385109	keystroke_a	a	n/a
692.7495	0.105	1385499	keystroke_t	t	n/a
692.9145	0.12	1385829	keystroke_e	e	n/a
693.1095	0.09	1386219	keystroke_Key.space	Key.space	n/a
693.394	0.076	1386788	keystroke_u	u	n/a
693.635	0.135	1387270	keystroke_n	n	n/a
693.874	0.136	1387748	keystroke_k	k	n/a
694.174	0.211	1388348	keystroke_n	n	n/a
694.415	0.119	1388830	keystroke_o	o	n/a
694.61	0.1645	1389220	keystroke_w	w	n/a
694.7895	0.135	1389579	keystroke_n	n	n/a
695.1045	0.12	1390209	keystroke_Key.space	Key.space	n/a
695.3295	0.135	1390659	keystroke_o	o	n/a
695.659	0.166	1391318	keystroke_p	p	n/a
695.855	0.149	1391710	keystroke_e	e	n/a
696.14	0.075	1392280	keystroke_r	r	n/a
696.395	0.1195	1392790	keystroke_a	a	n/a
696.6345	0.105	1393269	keystroke_t	t	n/a
696.7695	0.1205	1393539	keystroke_i	i	n/a
696.8745	0.255	1393749	keystroke_o	o	n/a
697.0545	0.135	1394109	keystroke_n	n	n/a
697.2345	0.1945	1394469	keystroke_a	a	n/a
697.37	0.18	1394740	keystroke_l	l	n/a
697.564	0.12	1395128	keystroke_Key.space	Key.space	n/a
697.804	0.135	1395608	keystroke_i	i	n/a
697.924	0.166	1395848	keystroke_n	n	n/a
698.075	0.15	1396150	keystroke_s	s	n/a
698.33	0.09	1396660	keystroke_t	t	n/a
698.57	0.135	1397140	keystroke_a	a	n/a
698.765	0.075	1397530	keystroke_l	l	n/a
698.93	0.09	1397860	keystroke_l	l	n/a
699.11	0.105	1398220	keystroke_e	e	n/a
699.335	0.15	1398670	keystroke_d	d	n/a
699.65	0.12	1399300	keystroke_Key.enter	Key.enter	n/a
699.7745	11.262	1399549	prompt	n/a	oecd symantec heating specific\n
700.625	0.075	1401250	keystroke_o	o	n/a
701.029	0.091	1402058	keystroke_e	e	n/a
701.329	0.121	1402658	keystroke_c	c	n/a
701.6445	0.1055	1403289	keystroke_d	d	n/a
701.87	0.1495	1403740	keystroke_Key.space	Key.space	n/a
702.0945	0.1505	1404189	keystroke_s	s	n/a
702.38	0.12	1404760	keystroke_y	y	n/a
702.86	0.105	1405720	keystroke_m	m	n/a
703.715	0.21	1407430	keystroke_a	a	n/a
703.91	0.105	1407820	keystroke_n	n	n/a
704.105	0.105	1408210	keystroke_t	t	n/a
704.329	0.12	1408658	keystroke_e	e	n/a
705.3045	0.12	1410609	keystroke_c	c	n/a
705.5745	0.1055	1411149	keystroke_Key.space	Key.space	n/a
705.83	0.135	1411660	keystroke_h	h	n/a
705.905	0.105	1411810	keystroke_e	e	n/a
706.1	0.135	1412200	keystroke_a	a	n/a
706.37	0.105	1412740	keystroke_t	t	n/a
706.58	0.135	1413160	keystroke_i	i	n/a
707.03	0.12	1414060	keystroke_n	n	n/a
707.36	0.135	1414720	keystroke_g	g	n/a
707.645	0.12	1415290	keystroke_Key.space	Key.space	n/a
707.885	0.1195	1415770	keystroke_s	s	n/a
708.0345	0.225	1416069	keystroke_p	p	n/a
708.2295	0.105	1416459	keystroke_e	e	n/a
708.5595	0.15	1417119	keystroke_c	c	n/a
708.7245	0.075	1417449	keystroke_i	i	n/a
709.58	0.075	1419160	keystroke_f	f	n/a
709.714	0.12	1419428	keystroke_i	i	n/a
710.0745	0.12	1420149	keystroke_c	c	n/a
710.9	0.134	1421800	keystroke_Key.enter	Key.enter	n/a
711.04	7.2865	1422080	prompt	n/a	solar eddie combine vids\n
711.725	0.105	1423450	keystroke_s	s	n/a
711.845	0.075	1423690	keystroke_o	o	n/a
712.07	0.165	1424140	keystroke_l	l	n/a
712.46	0.195	1424920	keystroke_a	a	n/a
713.015	0.15	1426030	keystroke_r	r	n/a
713.224	0.151	1426448	keystroke_Key.space	Key.space	n/a
713.48	0.12	1426960	keystroke_e	e	n/a
713.75	0.09	1427500	keystroke_d	d	n/a
713.9145	0.105	1427829	keystroke_d	d	n/a
714.08	0.1645	1428160	keystroke_i	i	n/a
714.2895	0.105	1428579	keystroke_e	e	n/a
714.529	0.12	1429058	keystroke_Key.space	Key.space	n/a
714.7845	0.1655	1429569	keystroke_c	c	n/a
714.8895	0.18	1429779	keystroke_o	o	n/a
715.88	0.1495	1431760	keystroke_m	m	n/a
716.1045	0.12	1432209	keystroke_b	b	n/a
716.2395	0.105	1432479	keystroke_i	i	n/a
716.4045	0.165	1432809	keystroke_n	n	n/a
716.5545	0.135	1433109	keystroke_e	e	n/a
716.7945	0.135	1433589	keystroke_Key.space	Key.space	n/a
717.0645	0.12	1434129	keystroke_v	v	n/a
717.1995	0.1055	1434399	keystroke_i	i	n/a
717.47	0.09	1434940	keystroke_d	d	n/a
717.83	0.1195	1435660	keystroke_s	s	n/a
718.1745	0.15	1436349	keystroke_Key.enter	Key.enter	n/a
718.3295	13.6625	1436659	prompt	n/a	pursuant supplemental corpus swingers\n
719.0595	0.135	1438119	keystroke_p	p	n/a
719.3145	0.15	1438629	keystroke_u	u	n/a
719.75	0.09	1439500	keystroke_r	r	n/a
720.1545	0.135	1440309	keystroke_u	u	n/a
720.7545	0.105	1441509	keystroke_Key.backspace	Key.backspace	n/a
720.8745	0.15	1441749	keystroke_s	s	n/a
721.0095	0.135	1442019	keystroke_u	u	n/a
721.2195	0.165	1442439	keystroke_a	a	n/a
721.4745	0.15	1442949	keystroke_n	n	n/a
721.6395	0.135	1443279	keystroke_t	t	n/a
721.7895	0.135	1443579	keystroke_Key.space	Key.space	n/a
722.03	0.075	1444060	keystroke_s	s	n/a
722.09	0.134	1444180	keystroke_u	u	n/a
722.3895	0.09	1444779	keystroke_p	p	n/a
722.6145	0.09	1445229	keystroke_p	p	n/a
722.8845	0.135	1445769	keystroke_;	;	n/a
723.0045	0.135	1446009	keystroke_e	e	n/a
724.2045	0.09	1448409	keystroke_Key.backspace	Key.backspace	n/a
724.4145	0.075	1448829	keystroke_Key.backspace	Key.backspace	n/a
724.5795	0.06	1449159	keystroke_Key.backspace	Key.backspace	n/a
725.39	0.1645	1450780	keystroke_p	p	n/a
725.7045	0.15	1451409	keystroke_l	l	n/a
725.8695	0.15	1451739	keystroke_e	e	n/a
726.0345	0.1655	1452069	keystroke_m	m	n/a
726.17	0.195	1452340	keystroke_e	e	n/a
726.32	0.135	1452640	keystroke_n	n	n/a
726.575	0.105	1453150	keystroke_t	t	n/a
726.875	0.225	1453750	keystroke_a	a	n/a
727.085	0.15	1454170	keystroke_l	l	n/a
727.265	0.105	1454530	keystroke_Key.space	Key.space	n/a
727.4745	0.165	1454949	keystroke_c	c	n/a
727.5645	0.12	1455129	keystroke_o	o	n/a
727.9095	0.1055	1455819	keystroke_r	r	n/a
728.825	0.12	1457650	keystroke_p	p	n/a
729.08	0.1645	1458160	keystroke_u	u	n/a
729.23	0.1045	1458460	keystroke_s	s	n/a
729.3495	0.15	1458699	keystroke_Key.space	Key.space	n/a
729.6495	0.105	1459299	keystroke_s	s	n/a
729.9345	0.1505	1459869	keystroke_w	w	n/a
730.07	0.1195	1460140	keystroke_i	i	n/a
730.2645	0.135	1460529	keystroke_n	n	n/a
730.4445	0.135	1460889	keystroke_g	g	n/a
730.6995	0.15	1461399	keystroke_e	e	n/a
730.9095	0.135	1461819	keystroke_r	r	n/a
731.2545	0.12	1462509	keystroke_s	s	n/a
731.825	0.1645	1463650	keystroke_Key.enter	Key.enter	n/a
731.9965	8.8445	1463993	prompt	n/a	secure sets country african\n
732.665	0.075	1465330	keystroke_s	s	n/a
732.83	0.09	1465660	keystroke_e	e	n/a
733.07	0.1795	1466140	keystroke_c	c	n/a
733.234	0.15	1466468	keystroke_u	u	n/a
733.429	0.09	1466858	keystroke_r	r	n/a
733.6245	0.1355	1467249	keystroke_e	e	n/a
733.8195	0.1195	1467639	keystroke_Key.space	Key.space	n/a
733.9995	0.075	1467999	keystroke_s	s	n/a
734.1495	0.1355	1468299	keystroke_e	e	n/a
734.39	0.075	1468780	keystroke_t	t	n/a
734.6445	0.105	1469289	keystroke_s	s	n/a
734.7795	0.12	1469559	keystroke_Key.space	Key.space	n/a
734.9745	0.15	1469949	keystroke_c	c	n/a
735.0495	0.18	1470099	keystroke_o	o	n/a
735.1845	0.15	1470369	keystroke_n	n	n/a
735.3795	0.075	1470759	keystroke_t	t	n/a
735.5595	0.12	1471119	keystroke_r	r	n/a
735.7395	0.12	1471479	keystroke_y	y	n/a
735.9195	0.135	1471839	keystroke_Key.space	Key.space	n/a
736.0845	0.165	1472169	keystroke_s	s	n/a
736.7895	0.105	1473579	keystroke_Key.backspace	Key.backspace	n/a
736.9845	0.075	1473969	keystroke_Key.backspace	Key.backspace	n/a
737.1195	0.075	1474239	keystroke_Key.backspace	Key.backspace	n/a
737.2545	0.06	1474509	keystroke_Key.backspace	Key.backspace	n/a
737.5245	0.06	1475049	keystroke_Key.backspace	Key.backspace	n/a
737.6745	0.045	1475349	keystroke_Key.backspace	Key.backspace	n/a
738.2595	0.09	1476519	keystroke_u	u	n/a
738.4845	0.105	1476969	keystroke_n	n	n/a
738.6045	0.09	1477209	keystroke_t	t	n/a
738.7845	0.12	1477569	keystroke_r	r	n/a
738.9495	0.135	1477899	keystroke_y	y	n/a
739.0995	0.12	1478199	keystroke_Key.space	Key.space	n/a
739.2795	0.09	1478559	keystroke_a	a	n/a
739.4305	0.074	1478861	keystroke_f	f	n/a
739.6995	0.135	1479399	keystroke_r	r	n/a
739.8495	0.075	1479699	keystroke_i	i	n/a
740.1045	0.12	1480209	keystroke_c	c	n/a
740.3295	0.105	1480659	keystroke_a	a	n/a
740.3745	0.15	1480749	keystroke_n	n	n/a
