onset	duration	sample	value	key	prompt_text
7.8105	12.7685	15621	prompt	n/a	the quick brown fox jumps over a lazy dog\n
9.1615	0.001	18323	keystroke_t	t	n/a
9.1745	0.075	18349	keystroke_h	h	n/a
9.7295	0.06	19459	keystroke_e	e	n/a
9.8345	0.075	19669	keystroke_Key.space	Key.space	n/a
10.254	0.06	20508	keystroke_q	q	n/a
10.389	0.075	20778	keystroke_u	u	n/a
10.5545	0.06	21109	keystroke_i	i	n/a
10.6895	0.045	21379	keystroke_c	c	n/a
10.9145	0.09	21829	keystroke_k	k	n/a
11.1095	0.045	22219	keystroke_Key.space	Key.space	n/a
12.039	0.06	24078	keystroke_b	b	n/a
12.144	0.06	24288	keystroke_r	r	n/a
12.8195	0.0455	25639	keystroke_o	o	n/a
12.9545	0.075	25909	keystroke_w	w	n/a
13.0745	0.06	26149	keystroke_n	n	n/a
13.2395	0.06	26479	keystroke_Key.space	Key.space	n/a
13.405	0.045	26810	keystroke_f	f	n/a
13.554	0.0455	27108	keystroke_o	o	n/a
13.8245	0.078	27649	keystroke_x	x	n/a
13.9445	0.075	27889	keystroke_Key.space	Key.space	n/a
15.234	0.045	30468	keystroke_j	j	n/a
15.3995	0.045	30799	keystroke_u	u	n/a
15.609	0.03	31218	keystroke_m	m	n/a
15.819	0.06	31638	keystroke_p	p	n/a
15.97	0.074	31940	keystroke_s	s	n/a
16.644	0.075	33288	keystroke_Key.space	Key.space	n/a
16.974	0.09	33948	keystroke_o	o	n/a
17.184	0.0305	34368	keystroke_v	v	n/a
17.3345	0.12	34669	keystroke_e	e	n/a
17.3945	0.09	34789	keystroke_r	r	n/a
17.5145	0.09	35029	keystroke_Key.space	Key.space	n/a
17.6645	0.09	35329	keystroke_a	a	n/a
17.7695	0.075	35539	keystroke_Key.space	Key.space	n/a
18.2345	0.075	36469	keystroke_l	l	n/a
18.3395	0.09	36679	keystroke_a	a	n/a
18.5345	0.09	37069	keystroke_z	z	n/a
18.9395	0.045	37879	keystroke_y	y	n/a
19.0145	0.075	38029	keystroke_Key.space	Key.space	n/a
19.389	0.0755	38778	keystroke_d	d	n/a
19.4945	0.0895	38989	keystroke_o	o	n/a
19.615	0.074	39230	keystroke_g	g	n/a
20.484	0.09	40968	keystroke_Key.enter	Key.enter	n/a
20.5855	9.2005	41171	prompt	n/a	linda preceding weren't shopping\n
21.624	0.075	43248	keystroke_l	l	n/a
21.924	0.09	43848	keystroke_i	i	n/a
22.134	0.0755	44268	keystroke_n	n	n/a
22.404	0.0755	44808	keystroke_d	d	n/a
22.659	0.105	45318	keystroke_a	a	n/a
22.824	0.09	45648	keystroke_Key.space	Key.space	n/a
23.859	0.045	47718	keystroke_p	p	n/a
24.054	0.135	48108	keystroke_r	r	n/a
24.129	0.105	48258	keystroke_e	e	n/a
24.744	0.045	49488	keystroke_c	c	n/a
24.909	0.06	49818	keystroke_e	e	n/a
25.074	0.075	50148	keystroke_d	d	n/a
25.239	0.135	50478	keystroke_i	i	n/a
25.329	0.075	50658	keystroke_n	n	n/a
25.464	0.0445	50928	keystroke_g	g	n/a
25.554	0.06	51108	keystroke_Key.space	Key.space	n/a
26.124	0.075	52248	keystroke_w	w	n/a
26.379	0.06	52758	keystroke_e	e	n/a
26.574	0.045	53148	keystroke_r	r	n/a
26.739	0.06	53478	keystroke_e	e	n/a
26.844	0.06	53688	keystroke_n	n	n/a
27.054	0.12	54108	keystroke_'	'	n/a
27.189	0.06	54378	keystroke_t	t	n/a
27.3395	0.06	54679	keystroke_Key.space	Key.space	n/a
27.939	0.075	55878	keystroke_s	s	n/a
28.224	0.045	56448	keystroke_h	h	n/a
28.404	0.09	56808	keystroke_o	o	n/a
28.659	0.06	57318	keystroke_p	p	n/a
28.794	0.075	57588	keystroke_p	p	n/a
29.034	0.1355	58068	keystroke_i	i	n/a
29.139	0.0745	58278	keystroke_n	n	n/a
29.2295	0.059	58459	keystroke_g	g	n/a
29.694	0.09	59388	keystroke_Key.enter	Key.enter	n/a
29.7895	6.236	59579	prompt	n/a	report comply math pest\n
30.6545	0.105	61309	keystroke_r	r	n/a
30.7295	0.075	61459	keystroke_e	e	n/a
30.9095	0.105	61819	keystroke_p	p	n/a
30.9535	0.12	61907	keystroke_o	o	n/a
31.0445	0.059	62089	keystroke_r	r	n/a
31.2245	0.06	62449	keystroke_t	t	n/a
31.584	0.0745	63168	keystroke_Key.space	Key.space	n/a
32.0935	0.03	64187	keystroke_c	c	n/a
32.1835	0.12	64367	keystroke_o	o	n/a
32.2735	0.09	64547	keystroke_m	m	n/a
32.5735	0.105	65147	keystroke_p	p	n/a
32.6185	0.12	65237	keystroke_l	l	n/a
32.8735	0.06	65747	keystroke_y	y	n/a
33.1435	0.09	66287	keystroke_Key.space	Key.space	n/a
33.6835	0.06	67367	keystroke_m	m	n/a
33.8635	0.075	67727	keystroke_a	a	n/a
34.1185	0.0605	68237	keystroke_t	t	n/a
34.209	0.06	68418	keystroke_h	h	n/a
34.404	0.075	68808	keystroke_Key.space	Key.space	n/a
35.2295	0.06	70459	keystroke_p	p	n/a
35.334	0.06	70668	keystroke_e	e	n/a
35.514	0.075	71028	keystroke_s	s	n/a
35.7245	0.06	71449	keystroke_t	t	n/a
35.9485	0.0755	71897	keystroke_Key.enter	Key.enter	n/a
36.029	7.3175	72058	prompt	n/a	salvador walks dial titten\n
37.119	0.045	74238	keystroke_s	s	n/a
37.299	0.06	74598	keystroke_a	a	n/a
37.404	0.075	74808	keystroke_l	l	n/a
37.749	0.045	75498	keystroke_v	v	n/a
37.869	0.075	75738	keystroke_a	a	n/a
38.079	0.075	76158	keystroke_d	d	n/a
38.274	0.09	76548	keystroke_o	o	n/a
38.484	0.06	76968	keystroke_r	r	n/a
38.634	0.06	77268	keystroke_Key.space	Key.space	n/a
38.949	0.075	77898	keystroke_w	w	n/a
39.189	0.0905	78378	keystroke_a	a	n/a
39.2945	0.0745	78589	keystroke_l	l	n/a
39.504	0.09	79008	keystroke_k	k	n/a
39.639	0.075	79278	keystroke_s	s	n/a
39.759	0.075	79518	keystroke_Key.space	Key.space	n/a
40.434	0.06	80868	keystroke_d	d	n/a
40.599	0.075	81198	keystroke_i	i	n/a
40.929	0.06	81858	keystroke_a	a	n/a
41.019	0.105	82038	keystroke_l	l	n/a
41.259	0.06	82518	keystroke_Key.space	Key.space	n/a
42.009	0.045	84018	keystroke_t	t	n/a
42.084	0.09	84168	keystroke_i	i	n/a
42.234	0.045	84468	keystroke_t	t	n/a
42.339	0.09	84678	keystroke_t	t	n/a
42.744	0.0595	85488	keystroke_e	e	n/a
42.8335	0.09	85667	keystroke_n	n	n/a
43.2535	0.09	86507	keystroke_Key.enter	Key.enter	n/a
43.35	7.9305	86700	prompt	n/a	grace steady laid olympic\n
44.3795	0.044	88759	keystroke_g	g	n/a
44.6035	0.046	89207	keystroke_r	r	n/a
44.8135	0.09	89627	keystroke_a	a	n/a
45.0685	0.06	90137	keystroke_c	c	n/a
45.2935	0.0605	90587	keystroke_e	e	n/a
45.489	0.06	90978	keystroke_Key.space	Key.space	n/a
45.8035	0.075	91607	keystroke_s	s	n/a
46.0135	0.075	92027	keystroke_t	t	n/a
46.1035	0.135	92207	keystroke_e	e	n/a
46.3735	0.1505	92747	keystroke_a	a	n/a
46.494	0.09	92988	keystroke_d	d	n/a
46.674	0.075	93348	keystroke_y	y	n/a
46.9135	0.06	93827	keystroke_Key.space	Key.space	n/a
47.409	0.075	94818	keystroke_l	l	n/a
47.514	0.09	95028	keystroke_a	a	n/a
47.784	0.09	95568	keystroke_i	i	n/a
47.934	0.075	95868	keystroke_d	d	n/a
48.024	0.09	96048	keystroke_Key.space	Key.space	n/a
48.684	0.075	97368	keystroke_o	o	n/a
48.8935	0.09	97787	keystroke_l	l	n/a
49.419	0.06	98838	keystroke_y	y	n/a
49.9735	0.06	99947	keystroke_m	m	n/a
50.2285	0.09	100457	keystroke_p	p	n/a
50.4685	0.045	100937	keystroke_i	i	n/a
50.7085	0.06	101417	keystroke_c	c	n/a
51.2035	0.075	102407	keystroke_Key.enter	Key.enter	n/a
51.2845	8.186	102569	prompt	n/a	characters help resolution treated\n
52.2685	0.015	104537	keystroke_c	c	n/a
52.3885	0.06	104777	keystroke_h	h	n/a
52.5235	0.09	105047	keystroke_a	a	n/a
52.6885	0.06	105377	keystroke_r	r	n/a
52.8535	0.135	105707	keystroke_a	a	n/a
53.1385	0.06	106277	keystroke_c	c	n/a
53.3635	0.075	106727	keystroke_t	t	n/a
53.4985	0.15	106997	keystroke_e	e	n/a
53.5885	0.0905	107177	keystroke_r	r	n/a
53.829	0.075	107658	keystroke_s	s	n/a
53.949	0.075	107898	keystroke_Key.space	Key.space	n/a
54.429	0.045	108858	keystroke_h	h	n/a
54.579	0.06	109158	keystroke_e	e	n/a
54.669	0.09	109338	keystroke_l	l	n/a
54.894	0.075	109788	keystroke_p	p	n/a
55.2385	0.06	110477	keystroke_Key.space	Key.space	n/a
55.6585	0.1055	111317	keystroke_r	r	n/a
55.7335	0.075	111467	keystroke_e	e	n/a
55.929	0.06	111858	keystroke_s	s	n/a
56.034	0.09	112068	keystroke_o	o	n/a
56.259	0.09	112518	keystroke_l	l	n/a
56.4685	0.06	112937	keystroke_u	u	n/a
56.6335	0.06	113267	keystroke_t	t	n/a
56.7535	0.105	113507	keystroke_i	i	n/a
56.8135	0.075	113627	keystroke_o	o	n/a
56.9935	0.06	113987	keystroke_n	n	n/a
57.1735	0.075	114347	keystroke_Key.space	Key.space	n/a
57.9985	0.045	115997	keystroke_t	t	n/a
58.1935	0.075	116387	keystroke_r	r	n/a
58.3585	0.075	116717	keystroke_e	e	n/a
58.5235	0.09	117047	keystroke_a	a	n/a
58.7485	0.09	117497	keystroke_t	t	n/a
58.8535	0.06	117707	keystroke_e	e	n/a
59.0485	0.0905	118097	keystroke_d	d	n/a
59.409	0.059	118818	keystroke_Key.enter	Key.enter	n/a
59.4745	10.9765	118949	prompt	n/a	beth part entering gamespot\n
60.3695	0.06	120739	keystroke_b	b	n/a
60.4445	0.06	120889	keystroke_e	e	n/a
60.6545	0.06	121309	keystroke_t	t	n/a
60.7585	0.076	121517	keystroke_h	h	n/a
60.9845	0.075	121969	keystroke_Key.space	Key.space	n/a
61.6295	0.075	123259	keystroke_e	e	n/a
61.8095	0.06	123619	keystroke_n	n	n/a
61.9895	0.06	123979	keystroke_t	t	n/a
62.1245	0.105	124249	keystroke_e	e	n/a
62.2145	0.06	124429	keystroke_r	r	n/a
62.4395	0.12	124879	keystroke_i	i	n/a
62.4995	0.105	124999	keystroke_n	n	n/a
62.6195	0.045	125239	keystroke_g	g	n/a
62.7095	0.09	125419	keystroke_Key.space	Key.space	n/a
63.9535	0.045	127907	keystroke_Key.backspace	Key.backspace	n/a
64.1185	0.075	128237	keystroke_Key.backspace	Key.backspace	n/a
64.2835	0.075	128567	keystroke_Key.backspace	Key.backspace	n/a
64.4485	0.06	128897	keystroke_Key.backspace	Key.backspace	n/a
64.5985	0.075	129197	keystroke_Key.backspace	Key.backspace	n/a
64.7635	0.06	129527	keystroke_Key.backspace	Key.backspace	n/a
64.9285	0.075	129857	keystroke_Key.backspace	Key.backspace	n/a
65.1085	0.075	130217	keystroke_Key.backspace	Key.backspace	n/a
65.2735	0.091	130547	keystroke_Key.backspace	Key.backspace	n/a
65.9195	0.06	131839	keystroke_p	p	n/a
66.0095	0.075	132019	keystroke_a	a	n/a
66.1745	0.045	132349	keystroke_r	r	n/a
66.3545	0.045	132709	keystroke_t	t	n/a
66.4135	0.075	132827	keystroke_Key.space	Key.space	n/a
66.5645	0.075	133129	keystroke_e	e	n/a
66.7145	0.06	133429	keystroke_n	n	n/a
67.014	0.045	134028	keystroke_t	t	n/a
67.164	0.12	134328	keystroke_e	e	n/a
67.254	0.075	134508	keystroke_r	r	n/a
67.464	0.135	134928	keystroke_i	i	n/a
67.539	0.075	135078	keystroke_n	n	n/a
67.7035	0.06	135407	keystroke_g	g	n/a
67.7935	0.075	135587	keystroke_Key.space	Key.space	n/a
68.604	0.045	137208	keystroke_g	g	n/a
68.7535	0.075	137507	keystroke_a	a	n/a
68.8585	0.075	137717	keystroke_m	m	n/a
68.9795	0.074	137959	keystroke_e	e	n/a
69.504	0.045	139008	keystroke_s	s	n/a
69.594	0.12	139188	keystroke_p	p	n/a
69.654	0.12	139308	keystroke_o	o	n/a
69.984	0.075	139968	keystroke_t	t	n/a
70.389	0.06	140778	keystroke_Key.enter	Key.enter	n/a
70.4565	12.534	140913	prompt	n/a	finals vacations capabilities sympathy\n
71.4685	0.045	142937	keystroke_f	f	n/a
71.5585	0.12	143117	keystroke_i	i	n/a
71.6335	0.075	143267	keystroke_n	n	n/a
71.7235	0.06	143447	keystroke_a	a	n/a
71.8735	0.091	143747	keystroke_l	l	n/a
72.0235	0.06	144047	keystroke_s	s	n/a
72.1285	0.075	144257	keystroke_Key.space	Key.space	n/a
72.2935	0.075	144587	keystroke_c	c	n/a
72.909	0.09	145818	keystroke_Key.backspace	Key.backspace	n/a
73.179	0.09	146358	keystroke_v	v	n/a
73.554	0.09	147108	keystroke_a	a	n/a
73.749	0.075	147498	keystroke_c	c	n/a
73.989	0.09	147978	keystroke_a	a	n/a
74.289	0.075	148578	keystroke_t	t	n/a
74.454	0.12	148908	keystroke_i	i	n/a
74.529	0.075	149058	keystroke_o	o	n/a
74.679	0.09	149358	keystroke_n	n	n/a
74.799	0.06	149598	keystroke_s	s	n/a
74.919	0.075	149838	keystroke_Key.space	Key.space	n/a
75.519	0.075	151038	keystroke_c	c	n/a
76.014	0.075	152028	keystroke_a	a	n/a
76.209	0.1045	152418	keystroke_p	p	n/a
76.3735	0.075	152747	keystroke_a	a	n/a
77.2435	0.06	154487	keystroke_b	b	n/a
77.4085	0.075	154817	keystroke_i	i	n/a
77.6185	0.075	155237	keystroke_l	l	n/a
77.8135	0.06	155627	keystroke_i	i	n/a
77.9785	0.075	155957	keystroke_t	t	n/a
78.099	0.0595	156198	keystroke_i	i	n/a
78.3085	0.06	156617	keystroke_e	e	n/a
78.4885	0.075	156977	keystroke_s	s	n/a
78.6235	0.075	157247	keystroke_Key.space	Key.space	n/a
79.5835	0.06	159167	keystroke_s	s	n/a
80.0035	0.045	160007	keystroke_y	y	n/a
80.1385	0.075	160277	keystroke_m	m	n/a
80.3935	0.106	160787	keystroke_p	p	n/a
80.5285	0.105	161057	keystroke_a	a	n/a
80.7085	0.09	161417	keystroke_t	t	n/a
81.7735	0.0755	163547	keystroke_h	h	n/a
81.894	0.045	163788	keystroke_t	t	n/a
82.269	0.1195	164538	keystroke_Key.backspace	Key.backspace	n/a
82.4485	0.075	164897	keystroke_y	y	n/a
82.9135	0.075	165827	keystroke_Key.enter	Key.enter	n/a
82.994	8.9515	165988	prompt	n/a	protective cemetery ascii collaborative\n
84.0835	0.06	168167	keystroke_p	p	n/a
84.2035	0.06	168407	keystroke_r	r	n/a
84.3235	0.0605	168647	keystroke_o	o	n/a
84.519	0.06	169038	keystroke_t	t	n/a
84.684	0.075	169368	keystroke_e	e	n/a
84.834	0.06	169668	keystroke_c	c	n/a
84.999	0.06	169998	keystroke_t	t	n/a
85.119	0.105	170238	keystroke_i	i	n/a
85.344	0.12	170688	keystroke_v	v	n/a
85.434	0.105	170868	keystroke_e	e	n/a
85.554	0.105	171108	keystroke_Key.space	Key.space	n/a
86.589	0.06	173178	keystroke_c	c	n/a
86.769	0.06	173538	keystroke_e	e	n/a
86.889	0.0905	173778	keystroke_m	m	n/a
86.9945	0.075	173989	keystroke_e	e	n/a
87.1895	0.045	174379	keystroke_t	t	n/a
87.3845	0.105	174769	keystroke_a	a	n/a
87.4445	0.09	174889	keystroke_r	r	n/a
87.6545	0.075	175309	keystroke_y	y	n/a
87.7585	0.091	175517	keystroke_Key.space	Key.space	n/a
87.9685	0.091	175937	keystroke_a	a	n/a
88.1785	0.076	176357	keystroke_s	s	n/a
88.3895	0.06	176779	keystroke_c	c	n/a
88.6445	0.044	177289	keystroke_i	i	n/a
88.7645	0.075	177529	keystroke_i	i	n/a
88.9885	0.061	177977	keystroke_Key.space	Key.space	n/a
89.379	0.075	178758	keystroke_c	c	n/a
89.679	0.06	179358	keystroke_o	o	n/a
89.9035	0.045	179807	keystroke_l	l	n/a
90.0235	0.09	180047	keystroke_l	l	n/a
90.2035	0.0605	180407	keystroke_a	a	n/a
90.444	0.0605	180888	keystroke_b	b	n/a
90.6245	0.0745	181249	keystroke_o	o	n/a
90.7295	0.0595	181459	keystroke_r	r	n/a
90.8945	0.06	181789	keystroke_a	a	n/a
91.0595	0.06	182119	keystroke_t	t	n/a
91.1345	0.105	182269	keystroke_i	i	n/a
91.329	0.09	182658	keystroke_v	v	n/a
91.404	0.075	182808	keystroke_e	e	n/a
91.869	0.075	183738	keystroke_Key.enter	Key.enter	n/a
91.949	7.122	183898	prompt	n/a	treated cost campaigns films\n
92.799	0.045	185598	keystroke_t	t	n/a
92.949	0.075	185898	keystroke_r	r	n/a
93.099	0.06	186198	keystroke_e	e	n/a
93.2795	0.0895	186559	keystroke_a	a	n/a
93.474	0.105	186948	keystroke_t	t	n/a
93.564	0.06	187128	keystroke_e	e	n/a
93.744	0.075	187488	keystroke_d	d	n/a
93.864	0.075	187728	keystroke_Key.space	Key.space	n/a
94.074	0.06	188148	keystroke_c	c	n/a
94.164	0.105	188328	keystroke_o	o	n/a
94.569	0.06	189138	keystroke_s	s	n/a
94.7645	0.075	189529	keystroke_t	t	n/a
94.8995	0.075	189799	keystroke_Key.space	Key.space	n/a
95.4545	0.045	190909	keystroke_c	c	n/a
95.6045	0.075	191209	keystroke_a	a	n/a
95.6945	0.075	191389	keystroke_m	m	n/a
95.8745	0.074	191749	keystroke_p	p	n/a
96.0095	0.045	192019	keystroke_a	a	n/a
96.2945	0.105	192589	keystroke_i	i	n/a
96.8345	0.09	193669	keystroke_g	g	n/a
96.9995	0.105	193999	keystroke_n	n	n/a
97.2095	0.06	194419	keystroke_s	s	n/a
97.3295	0.09	194659	keystroke_Key.space	Key.space	n/a
97.9745	0.06	195949	keystroke_f	f	n/a
98.0495	0.09	196099	keystroke_i	i	n/a
98.3945	0.09	196789	keystroke_l	l	n/a
98.6495	0.0595	197299	keystroke_m	m	n/a
98.979	0.09	197958	keystroke_Key.enter	Key.enter	n/a
99.075	9.356	198150	prompt	n/a	prescribed pressed presented accredited\n
99.939	0.045	199878	keystroke_p	p	n/a
100.089	0.09	200178	keystroke_r	r	n/a
100.149	0.075	200298	keystroke_e	e	n/a
100.479	0.09	200958	keystroke_s	s	n/a
100.689	0.045	201378	keystroke_c	c	n/a
100.839	0.06	201678	keystroke_r	r	n/a
100.959	0.075	201918	keystroke_i	i	n/a
101.184	0.06	202368	keystroke_b	b	n/a
101.274	0.06	202548	keystroke_e	e	n/a
101.4395	0.105	202879	keystroke_d	d	n/a
101.5295	0.075	203059	keystroke_Key.space	Key.space	n/a
101.9195	0.105	203839	keystroke_p	p	n/a
102.0245	0.105	204049	keystroke_r	r	n/a
102.0845	0.09	204169	keystroke_e	e	n/a
102.2945	0.06	204589	keystroke_s	s	n/a
102.4445	0.075	204889	keystroke_s	s	n/a
102.6395	0.045	205279	keystroke_e	e	n/a
102.8045	0.075	205609	keystroke_d	d	n/a
102.9095	0.09	205819	keystroke_Key.space	Key.space	n/a
103.2395	0.0745	206479	keystroke_p	p	n/a
103.4495	0.12	206899	keystroke_r	r	n/a
103.5395	0.1045	207079	keystroke_e	e	n/a
103.779	0.06	207558	keystroke_s	s	n/a
103.974	0.075	207948	keystroke_e	e	n/a
104.6645	0.045	209329	keystroke_n	n	n/a
104.9345	0.075	209869	keystroke_t	t	n/a
105.1745	0.06	210349	keystroke_e	e	n/a
105.354	0.075	210708	keystroke_d	d	n/a
105.4895	0.075	210979	keystroke_Key.space	Key.space	n/a
105.9245	0.075	211849	keystroke_a	a	n/a
106.2545	0.06	212509	keystroke_c	c	n/a
106.3745	0.06	212749	keystroke_c	c	n/a
106.899	0.03	213798	keystroke_r	r	n/a
107.049	0.06	214098	keystroke_e	e	n/a
107.229	0.06	214458	keystroke_d	d	n/a
107.3795	0.075	214759	keystroke_i	i	n/a
107.6645	0.045	215329	keystroke_t	t	n/a
107.7545	0.09	215509	keystroke_e	e	n/a
107.9645	0.06	215929	keystroke_d	d	n/a
108.3385	0.0905	216677	keystroke_Key.enter	Key.enter	n/a
108.434	10.887	216868	prompt	n/a	episodes malpractice tiffany definitely\n
109.4495	0.06	218899	keystroke_e	e	n/a
109.6445	0.06	219289	keystroke_s	s	n/a
110.079	0.06	220158	keystroke_Key.backspace	Key.backspace	n/a
110.304	0.09	220608	keystroke_p	p	n/a
111.4145	0.045	222829	keystroke_i	i	n/a
111.5645	0.03	223129	keystroke_s	s	n/a
111.6395	0.105	223279	keystroke_o	o	n/a
111.7595	0.075	223519	keystroke_d	d	n/a
111.9545	0.045	223909	keystroke_e	e	n/a
112.1045	0.075	224209	keystroke_s	s	n/a
112.1945	0.075	224389	keystroke_Key.space	Key.space	n/a
112.6145	0.06	225229	keystroke_m	m	n/a
112.7495	0.06	225499	keystroke_a	a	n/a
113.349	0.045	226698	keystroke_l	l	n/a
113.68	0.06	227360	keystroke_p	p	n/a
113.86	0.03	227720	keystroke_r	r	n/a
114.01	0.0595	228020	keystroke_a	a	n/a
114.1745	0.045	228349	keystroke_c	c	n/a
114.3545	0.045	228709	keystroke_t	t	n/a
114.4885	0.075	228977	keystroke_i	i	n/a
114.8195	0.12	229639	keystroke_c	c	n/a
114.8795	0.104	229759	keystroke_e	e	n/a
115.2545	0.075	230509	keystroke_Key.space	Key.space	n/a
115.9745	0.045	231949	keystroke_t	t	n/a
116.094	0.075	232188	keystroke_i	i	n/a
116.3045	0.045	232609	keystroke_f	f	n/a
116.3945	0.0595	232789	keystroke_f	f	n/a
116.559	0.075	233118	keystroke_a	a	n/a
116.679	0.075	233358	keystroke_n	n	n/a
116.814	0.0755	233628	keystroke_y	y	n/a
116.9345	0.075	233869	keystroke_Key.space	Key.space	n/a
117.7445	0.06	235489	keystroke_d	d	n/a
117.9095	0.06	235819	keystroke_e	e	n/a
118.0595	0.06	236119	keystroke_f	f	n/a
118.1795	0.12	236359	keystroke_i	i	n/a
118.2845	0.06	236569	keystroke_n	n	n/a
118.4345	0.09	236869	keystroke_i	i	n/a
118.5395	0.105	237079	keystroke_t	t	n/a
118.5995	0.105	237199	keystroke_e	e	n/a
118.7195	0.105	237439	keystroke_l	l	n/a
118.8395	0.075	237679	keystroke_y	y	n/a
119.229	0.09	238458	keystroke_Key.enter	Key.enter	n/a
119.3245	9.2065	238649	prompt	n/a	metric widescreen airports sucking\n
120.099	0.06	240198	keystroke_m	m	n/a
120.174	0.075	240348	keystroke_e	e	n/a
120.309	0.06	240618	keystroke_t	t	n/a
120.4895	0.06	240979	keystroke_r	r	n/a
120.5945	0.105	241189	keystroke_i	i	n/a
120.7745	0.045	241549	keystroke_c	c	n/a
121.1495	0.045	242299	keystroke_Key.space	Key.space	n/a
121.794	0.075	243588	keystroke_w	w	n/a
121.884	0.075	243768	keystroke_i	i	n/a
122.019	0.06	244038	keystroke_d	d	n/a
122.199	0.045	244398	keystroke_e	e	n/a
122.349	0.06	244698	keystroke_s	s	n/a
122.514	0.06	245028	keystroke_c	c	n/a
122.694	0.06	245388	keystroke_r	r	n/a
122.8745	0.03	245749	keystroke_e	e	n/a
122.9795	0.09	245959	keystroke_e	e	n/a
123.0545	0.09	246109	keystroke_n	n	n/a
123.3095	0.0595	246619	keystroke_Key.space	Key.space	n/a
123.579	0.105	247158	keystroke_a	a	n/a
123.774	0.075	247548	keystroke_i	i	n/a
123.969	0.045	247938	keystroke_r	r	n/a
124.134	0.09	248268	keystroke_p	p	n/a
124.284	0.105	248568	keystroke_o	o	n/a
124.434	0.06	248868	keystroke_r	r	n/a
124.659	0.06	249318	keystroke_t	t	n/a
125.0045	0.075	250009	keystroke_s	s	n/a
125.1245	0.075	250249	keystroke_Key.space	Key.space	n/a
125.709	0.075	251418	keystroke_s	s	n/a
125.949	0.03	251898	keystroke_u	u	n/a
126.9845	0.0745	253969	keystroke_c	c	n/a
127.7795	0.075	255559	keystroke_k	k	n/a
127.9745	0.105	255949	keystroke_i	i	n/a
128.0495	0.09	256099	keystroke_n	n	n/a
128.1245	0.09	256249	keystroke_g	g	n/a
128.4545	0.075	256909	keystroke_Key.enter	Key.enter	n/a
128.5345	9.6865	257069	prompt	n/a	advertisers foods shares transformation\n
129.2795	0.1195	258559	keystroke_a	a	n/a
129.849	0.075	259698	keystroke_d	d	n/a
130.0145	0.075	260029	keystroke_v	v	n/a
130.1945	0.075	260389	keystroke_e	e	n/a
130.2545	0.06	260509	keystroke_r	r	n/a
130.3895	0.075	260779	keystroke_t	t	n/a
130.5095	0.09	261019	keystroke_i	i	n/a
130.8095	0.0595	261619	keystroke_s	s	n/a
130.974	0.06	261948	keystroke_e	e	n/a
131.139	0.075	262278	keystroke_r	r	n/a
131.319	0.0755	262638	keystroke_s	s	n/a
131.4545	0.09	262909	keystroke_Key.space	Key.space	n/a
132.4145	0.075	264829	keystroke_f	f	n/a
132.5495	0.06	265099	keystroke_o	o	n/a
132.6995	0.0895	265399	keystroke_o	o	n/a
132.834	0.06	265668	keystroke_d	d	n/a
132.954	0.06	265908	keystroke_Key.space	Key.space	n/a
133.359	0.1055	266718	keystroke_Key.backspace	Key.backspace	n/a
133.449	0.075	266898	keystroke_s	s	n/a
133.899	0.0605	267798	keystroke_Key.space	Key.space	n/a
134.124	0.0905	268248	keystroke_s	s	n/a
134.6495	0.06	269299	keystroke_h	h	n/a
134.7545	0.06	269509	keystroke_a	a	n/a
134.8895	0.0745	269779	keystroke_r	r	n/a
135.055	0.06	270110	keystroke_e	e	n/a
135.25	0.074	270500	keystroke_s	s	n/a
135.354	0.09	270708	keystroke_Key.space	Key.space	n/a
135.8345	0.045	271669	keystroke_t	t	n/a
135.9995	0.045	271999	keystroke_r	r	n/a
136.1645	0.0445	272329	keystroke_a	a	n/a
136.284	0.076	272568	keystroke_n	n	n/a
136.434	0.06	272868	keystroke_s	s	n/a
136.659	0.045	273318	keystroke_f	f	n/a
136.749	0.075	273498	keystroke_o	o	n/a
136.854	0.045	273708	keystroke_r	r	n/a
136.944	0.075	273888	keystroke_m	m	n/a
137.049	0.105	274098	keystroke_a	a	n/a
137.139	0.06	274278	keystroke_t	t	n/a
137.214	0.1355	274428	keystroke_i	i	n/a
137.274	0.1205	274548	keystroke_o	o	n/a
137.4695	0.075	274939	keystroke_n	n	n/a
138.2045	0.015	276409	keystroke_Key.enter	Key.enter	n/a
138.2245	5.7415	276449	prompt	n/a	checkout plane ciao accounts\n
139.0145	0.045	278029	keystroke_c	c	n/a
139.1195	0.075	278239	keystroke_h	h	n/a
139.2245	0.1195	278449	keystroke_e	e	n/a
139.3145	0.0595	278629	keystroke_c	c	n/a
139.419	0.06	278838	keystroke_k	k	n/a
139.6745	0.12	279349	keystroke_o	o	n/a
139.7495	0.09	279499	keystroke_u	u	n/a
139.8545	0.0895	279709	keystroke_t	t	n/a
140.004	0.075	280008	keystroke_Key.space	Key.space	n/a
140.455	0.105	280910	keystroke_p	p	n/a
140.515	0.104	281030	keystroke_l	l	n/a
140.679	0.06	281358	keystroke_a	a	n/a
140.8	0.09	281600	keystroke_n	n	n/a
140.9495	0.075	281899	keystroke_e	e	n/a
141.0395	0.09	282079	keystroke_Key.space	Key.space	n/a
141.7445	0.09	283489	keystroke_c	c	n/a
141.8945	0.105	283789	keystroke_i	i	n/a
142.0295	0.06	284059	keystroke_a	a	n/a
142.1345	0.075	284269	keystroke_o	o	n/a
142.344	0.06	284688	keystroke_Key.space	Key.space	n/a
142.524	0.075	285048	keystroke_a	a	n/a
142.794	0.045	285588	keystroke_c	c	n/a
142.929	0.045	285858	keystroke_c	c	n/a
143.034	0.105	286068	keystroke_o	o	n/a
143.109	0.075	286218	keystroke_u	u	n/a
143.304	0.045	286608	keystroke_n	n	n/a
143.394	0.075	286788	keystroke_t	t	n/a
143.514	0.105	287028	keystroke_s	s	n/a
143.8745	0.09	287749	keystroke_Key.enter	Key.enter	n/a
143.9705	6.8805	287941	prompt	n/a	technologies their meter bios\n
144.8045	0.06	289609	keystroke_t	t	n/a
144.9395	0.06	289879	keystroke_e	e	n/a
145.1495	0.045	290299	keystroke_c	c	n/a
145.2845	0.0745	290569	keystroke_h	h	n/a
145.525	0.045	291050	keystroke_n	n	n/a
145.705	0.06	291410	keystroke_o	o	n/a
145.9	0.075	291800	keystroke_l	l	n/a
146.095	0.045	292190	keystroke_o	o	n/a
146.4395	0.0745	292879	keystroke_g	g	n/a
146.544	0.075	293088	keystroke_i	i	n/a
146.679	0.06	293358	keystroke_e	e	n/a
146.874	0.06	293748	keystroke_s	s	n/a
146.964	0.06	293928	keystroke_Key.space	Key.space	n/a
147.549	0.015	295098	keystroke_t	t	n/a
147.699	0.045	295398	keystroke_h	h	n/a
147.819	0.06	295638	keystroke_e	e	n/a
147.969	0.0755	295938	keystroke_i	i	n/a
148.0895	0.045	296179	keystroke_r	r	n/a
148.1935	0.076	296387	keystroke_Key.space	Key.space	n/a
148.4945	0.045	296989	keystroke_m	m	n/a
148.5845	0.0605	297169	keystroke_e	e	n/a
148.7645	0.0605	297529	keystroke_t	t	n/a
148.9895	0.075	297979	keystroke_e	e	n/a
149.1995	0.09	298399	keystroke_r	r	n/a
149.3345	0.09	298669	keystroke_Key.space	Key.space	n/a
149.9945	0.105	299989	keystroke_b	b	n/a
150.0395	0.12	300079	keystroke_i	i	n/a
150.2795	0.105	300559	keystroke_o	o	n/a
150.4895	0.075	300979	keystroke_s	s	n/a
150.7895	0.06	301579	keystroke_Key.enter	Key.enter	n/a
150.854	6.807	301708	prompt	n/a	searching nova berry login\n
151.6295	0.075	303259	keystroke_s	s	n/a
151.8095	0.075	303619	keystroke_e	e	n/a
152.0195	0.12	304039	keystroke_a	a	n/a
152.1995	0.09	304399	keystroke_r	r	n/a
152.4545	0.06	304909	keystroke_c	c	n/a
152.5745	0.06	305149	keystroke_h	h	n/a
152.7695	0.12	305539	keystroke_i	i	n/a
152.8445	0.09	305689	keystroke_n	n	n/a
152.9495	0.06	305899	keystroke_g	g	n/a
153.0395	0.075	306079	keystroke_Key.space	Key.space	n/a
153.669	0.075	307338	keystroke_n	n	n/a
153.864	0.075	307728	keystroke_o	o	n/a
154.104	0.045	308208	keystroke_v	v	n/a
154.284	0.075	308568	keystroke_a	a	n/a
154.419	0.075	308838	keystroke_Key.space	Key.space	n/a
154.8545	0.075	309709	keystroke_b	b	n/a
154.9745	0.075	309949	keystroke_e	e	n/a
155.2295	0.045	310459	keystroke_r	r	n/a
155.334	0.075	310668	keystroke_r	r	n/a
155.544	0.06	311088	keystroke_y	y	n/a
155.664	0.075	311328	keystroke_Key.space	Key.space	n/a
156.2195	0.075	312439	keystroke_l	l	n/a
156.4295	0.06	312859	keystroke_o	o	n/a
156.9545	0.0595	313909	keystroke_g	g	n/a
156.999	0.12	313998	keystroke_i	i	n/a
157.09	0.074	314180	keystroke_n	n	n/a
157.5995	0.0595	315199	keystroke_Key.enter	Key.enter	n/a
157.664	8.112	315328	prompt	n/a	event standards cheese fridge\n
158.545	0.075	317090	keystroke_e	e	n/a
158.845	0.059	317690	keystroke_v	v	n/a
159.04	0.06	318080	keystroke_e	e	n/a
159.145	0.09	318290	keystroke_n	n	n/a
159.279	0.0605	318558	keystroke_t	t	n/a
159.3695	0.09	318739	keystroke_Key.space	Key.space	n/a
159.6695	0.075	319339	keystroke_s	s	n/a
159.9245	0.06	319849	keystroke_t	t	n/a
160.1045	0.09	320209	keystroke_a	a	n/a
160.2245	0.075	320449	keystroke_n	n	n/a
160.3895	0.075	320779	keystroke_d	d	n/a
160.5695	0.075	321139	keystroke_a	a	n/a
160.7495	0.045	321499	keystroke_r	r	n/a
161.0345	0.12	322069	keystroke_d	d	n/a
161.0945	0.075	322189	keystroke_s	s	n/a
161.2595	0.09	322519	keystroke_Key.space	Key.space	n/a
161.529	0.075	323058	keystroke_c	c	n/a
161.649	0.075	323298	keystroke_h	h	n/a
161.784	0.046	323568	keystroke_e	e	n/a
161.889	0.091	323778	keystroke_e	e	n/a
162.084	0.045	324168	keystroke_s	s	n/a
162.249	0.06	324498	keystroke_e	e	n/a
162.354	0.09	324708	keystroke_Key.space	Key.space	n/a
162.879	0.03	325758	keystroke_d	d	n/a
163.614	0.09	327228	keystroke_Key.backspace	Key.backspace	n/a
164.169	0.06	328338	keystroke_f	f	n/a
164.589	0.045	329178	keystroke_r	r	n/a
164.754	0.075	329508	keystroke_i	i	n/a
164.949	0.0755	329898	keystroke_d	d	n/a
165.1445	0.06	330289	keystroke_g	g	n/a
165.3395	0.06	330679	keystroke_e	e	n/a
165.684	0.09	331368	keystroke_Key.enter	Key.enter	n/a
165.7815	7.9145	331563	prompt	n/a	rolls site fancy interaction\n
166.8095	0.045	333619	keystroke_r	r	n/a
166.9745	0.09	333949	keystroke_o	o	n/a
167.2295	0.03	334459	keystroke_l	l	n/a
167.3495	0.075	334699	keystroke_l	l	n/a
167.4845	0.06	334969	keystroke_s	s	n/a
167.6045	0.06	335209	keystroke_Key.space	Key.space	n/a
168.189	0.06	336378	keystroke_s	s	n/a
168.294	0.06	336588	keystroke_i	i	n/a
168.414	0.12	336828	keystroke_t	t	n/a
168.489	0.09	336978	keystroke_e	e	n/a
168.699	0.075	337398	keystroke_Key.space	Key.space	n/a
169.2245	0.045	338449	keystroke_f	f	n/a
169.3895	0.09	338779	keystroke_a	a	n/a
169.5245	0.0595	339049	keystroke_n	n	n/a
169.629	0.06	339258	keystroke_c	c	n/a
169.899	0.075	339798	keystroke_y	y	n/a
170.019	0.075	340038	keystroke_Key.space	Key.space	n/a
170.904	0.0455	341808	keystroke_i	i	n/a
171.0845	0.059	342169	keystroke_n	n	n/a
171.1895	0.06	342379	keystroke_t	t	n/a
171.369	0.09	342738	keystroke_e	e	n/a
171.5195	0.0895	343039	keystroke_r	r	n/a
171.7595	0.1045	343519	keystroke_a	a	n/a
171.999	0.06	343998	keystroke_c	c	n/a
172.239	0.06	344478	keystroke_t	t	n/a
172.374	0.09	344748	keystroke_i	i	n/a
172.434	0.09	344868	keystroke_o	o	n/a
172.629	0.075	345258	keystroke_n	n	n/a
173.619	0.076	347238	keystroke_Key.enter	Key.enter	n/a
173.699	6.5965	347398	prompt	n/a	asks junior double strong\n
174.355	0.074	348710	keystroke_a	a	n/a
174.5345	0.09	349069	keystroke_s	s	n/a
174.7445	0.075	349489	keystroke_k	k	n/a
174.8945	0.075	349789	keystroke_s	s	n/a
175.0145	0.075	350029	keystroke_Key.space	Key.space	n/a
175.494	0.061	350988	keystroke_j	j	n/a
175.674	0.045	351348	keystroke_u	u	n/a
175.884	0.06	351768	keystroke_n	n	n/a
176.095	0.089	352190	keystroke_i	i	n/a
176.319	0.1055	352638	keystroke_o	o	n/a
176.994	0.06	353988	keystroke_r	r	n/a
177.099	0.075	354198	keystroke_Key.space	Key.space	n/a
177.8345	0.06	355669	keystroke_d	d	n/a
177.9095	0.09	355819	keystroke_o	o	n/a
177.9695	0.0595	355939	keystroke_u	u	n/a
178.149	0.09	356298	keystroke_b	b	n/a
178.359	0.091	356718	keystroke_l	l	n/a
178.479	0.045	356958	keystroke_e	e	n/a
178.569	0.075	357138	keystroke_Key.space	Key.space	n/a
178.689	0.09	357378	keystroke_s	s	n/a
178.899	0.045	357798	keystroke_t	t	n/a
179.05	0.0895	358100	keystroke_r	r	n/a
179.514	0.12	359028	keystroke_o	o	n/a
179.574	0.09	359148	keystroke_n	n	n/a
179.919	0.046	359838	keystroke_g	g	n/a
180.2345	0.06	360469	keystroke_Key.enter	Key.enter	n/a
180.299	8.772	360598	prompt	n/a	command brochures protect immigrants\n
180.9995	0.06	361999	keystroke_c	c	n/a
181.0895	0.09	362179	keystroke_o	o	n/a
181.2995	0.0595	362599	keystroke_m	m	n/a
181.419	0.075	362838	keystroke_m	m	n/a
181.539	0.075	363078	keystroke_a	a	n/a
181.659	0.075	363318	keystroke_n	n	n/a
181.779	0.1055	363558	keystroke_d	d	n/a
181.9595	0.075	363919	keystroke_Key.space	Key.space	n/a
182.7395	0.06	365479	keystroke_b	b	n/a
182.9045	0.03	365809	keystroke_r	r	n/a
183.0395	0.105	366079	keystroke_o	o	n/a
183.279	0.03	366558	keystroke_c	c	n/a
183.384	0.075	366768	keystroke_h	h	n/a
183.669	0.075	367338	keystroke_u	u	n/a
183.924	0.135	367848	keystroke_r	r	n/a
184.029	0.06	368058	keystroke_e	e	n/a
184.2385	0.061	368477	keystroke_s	s	n/a
184.5385	0.075	369077	keystroke_Key.space	Key.space	n/a
184.9895	0.045	369979	keystroke_p	p	n/a
185.2895	0.045	370579	keystroke_r	r	n/a
185.4245	0.09	370849	keystroke_o	o	n/a
185.6645	0.045	371329	keystroke_t	t	n/a
185.8145	0.06	371629	keystroke_e	e	n/a
186.0095	0.06	372019	keystroke_c	c	n/a
186.2195	0.06	372439	keystroke_t	t	n/a
186.3545	0.0745	372709	keystroke_Key.space	Key.space	n/a
186.7745	0.075	373549	keystroke_i	i	n/a
187.0145	0.015	374029	keystroke_m	m	n/a
187.0895	0.075	374179	keystroke_m	m	n/a
187.2695	0.074	374539	keystroke_i	i	n/a
187.8235	0.0755	375647	keystroke_g	g	n/a
187.974	0.0305	375948	keystroke_r	r	n/a
188.1395	0.06	376279	keystroke_a	a	n/a
188.2735	0.0605	376547	keystroke_n	n	n/a
188.3935	0.0905	376787	keystroke_t	t	n/a
188.5595	0.089	377119	keystroke_s	s	n/a
188.9785	0.0905	377957	keystroke_Key.enter	Key.enter	n/a
189.0745	7.8865	378149	prompt	n/a	chances reserve steering totally\n
189.909	0.06	379818	keystroke_c	c	n/a
189.999	0.0755	379998	keystroke_h	h	n/a
190.0895	0.075	380179	keystroke_a	a	n/a
190.2095	0.075	380419	keystroke_n	n	n/a
190.3895	0.105	380779	keystroke_c	c	n/a
190.4645	0.075	380929	keystroke_e	e	n/a
190.659	0.09	381318	keystroke_s	s	n/a
190.779	0.09	381558	keystroke_Key.space	Key.space	n/a
191.3495	0.105	382699	keystroke_r	r	n/a
191.4095	0.09	382819	keystroke_e	e	n/a
191.6045	0.045	383209	keystroke_s	s	n/a
191.7545	0.045	383509	keystroke_e	e	n/a
191.904	0.045	383808	keystroke_r	r	n/a
192.174	0.045	384348	keystroke_v	v	n/a
192.309	0.0755	384618	keystroke_e	e	n/a
192.4145	0.075	384829	keystroke_Key.space	Key.space	n/a
193.0145	0.075	386029	keystroke_s	s	n/a
193.1645	0.06	386329	keystroke_t	t	n/a
193.3295	0.06	386659	keystroke_e	e	n/a
193.539	0.06	387078	keystroke_e	e	n/a
193.719	0.06	387438	keystroke_r	r	n/a
194.064	0.1355	388128	keystroke_i	i	n/a
194.1395	0.105	388279	keystroke_n	n	n/a
194.2895	0.06	388579	keystroke_g	g	n/a
194.3945	0.075	388789	keystroke_Key.space	Key.space	n/a
194.7395	0.06	389479	keystroke_t	t	n/a
194.8295	0.105	389659	keystroke_o	o	n/a
194.9495	0.075	389899	keystroke_t	t	n/a
195.0995	0.09	390199	keystroke_a	a	n/a
195.2045	0.075	390409	keystroke_l	l	n/a
195.3395	0.105	390679	keystroke_l	l	n/a
195.6095	0.075	391219	keystroke_t	t	n/a
196.374	0.015	392748	keystroke_Key.backspace	Key.backspace	n/a
196.524	0.075	393048	keystroke_y	y	n/a
196.869	0.09	393738	keystroke_Key.enter	Key.enter	n/a
196.9645	9.9415	393929	prompt	n/a	reviewed when's yeah welcome\n
197.9045	0.075	395809	keystroke_r	r	n/a
197.9495	0.075	395899	keystroke_e	e	n/a
198.1595	0.045	396319	keystroke_v	v	n/a
198.2645	0.075	396529	keystroke_i	i	n/a
198.414	0.0755	396828	keystroke_e	e	n/a
198.6245	0.075	397249	keystroke_w	w	n/a
198.8045	0.06	397609	keystroke_e	e	n/a
198.9995	0.06	397999	keystroke_d	d	n/a
199.0895	0.075	398179	keystroke_Key.space	Key.space	n/a
199.6595	0.09	399319	keystroke_w	w	n/a
200.049	0.06	400098	keystroke_h	h	n/a
200.319	0.075	400638	keystroke_e	e	n/a
200.454	0.09	400908	keystroke_n	n	n/a
200.739	0.105	401478	keystroke_'	'	n/a
200.9045	0.105	401809	keystroke_s	s	n/a
201.0245	0.06	402049	keystroke_Key.space	Key.space	n/a
201.6545	0.075	403309	keystroke_t	t	n/a
202.0445	0.09	404089	keystroke_e	e	n/a
202.3445	0.06	404689	keystroke_Key.backspace	Key.backspace	n/a
202.4795	0.09	404959	keystroke_Key.backspace	Key.backspace	n/a
202.704	0.06	405408	keystroke_y	y	n/a
202.854	0.09	405708	keystroke_e	e	n/a
203.049	0.09	406098	keystroke_a	a	n/a
203.169	0.075	406338	keystroke_h	h	n/a
203.379	0.06	406758	keystroke_Key.space	Key.space	n/a
203.6945	0.06	407389	keystroke_w	w	n/a
203.8595	0.06	407719	keystroke_e	e	n/a
204.0095	0.09	408019	keystroke_l	l	n/a
204.1595	0.045	408319	keystroke_c	c	n/a
204.2495	0.135	408499	keystroke_o	o	n/a
206.184	0.03	412368	keystroke_m	m	n/a
206.394	0.06	412788	keystroke_e	e	n/a
206.829	0.075	413658	keystroke_Key.enter	Key.enter	n/a
206.909	18.117	413818	prompt	n/a	microwave approach pharmaceutical elevation\n
207.774	0.045	415548	keystroke_m	m	n/a
207.954	0.06	415908	keystroke_i	i	n/a
208.194	0.045	416388	keystroke_c	c	n/a
208.359	0.06	416718	keystroke_r	r	n/a
208.4645	0.075	416929	keystroke_o	o	n/a
208.6295	0.045	417259	keystroke_w	w	n/a
208.7795	0.06	417559	keystroke_a	a	n/a
209.124	0.03	418248	keystroke_v	v	n/a
209.169	0.075	418338	keystroke_e	e	n/a
209.304	0.09	418608	keystroke_Key.space	Key.space	n/a
209.739	0.075	419478	keystroke_a	a	n/a
209.859	0.075	419718	keystroke_p	p	n/a
209.994	0.09	419988	keystroke_p	p	n/a
210.204	0.06	420408	keystroke_r	r	n/a
210.324	0.045	420648	keystroke_o	o	n/a
210.429	0.075	420858	keystroke_a	a	n/a
210.819	0.045	421638	keystroke_c	c	n/a
211.044	0.075	422088	keystroke_h	h	n/a
211.269	0.0605	422538	keystroke_Key.space	Key.space	n/a
211.7795	0.06	423559	keystroke_p	p	n/a
212.169	0.075	424338	keystroke_h	h	n/a
212.319	0.045	424638	keystroke_r	r	n/a
212.574	0.09	425148	keystroke_a	a	n/a
212.859	0.075	425718	keystroke_m	m	n/a
213.264	0.0755	426528	keystroke_a	a	n/a
213.7435	0.061	427487	keystroke_c	c	n/a
213.9395	0.06	427879	keystroke_e	e	n/a
214.4495	0.0745	428899	keystroke_u	u	n/a
214.689	0.06	429378	keystroke_t	t	n/a
214.824	0.09	429648	keystroke_i	i	n/a
215.034	0.09	430068	keystroke_c	c	n/a
215.199	0.105	430398	keystroke_a	a	n/a
215.334	0.09	430668	keystroke_l	l	n/a
215.649	0.06	431298	keystroke_Key.space	Key.space	n/a
217.0745	0.1045	434149	keystroke_Key.backspace	Key.backspace	n/a
217.254	0.0755	434508	keystroke_Key.backspace	Key.backspace	n/a
217.4195	0.06	434839	keystroke_Key.backspace	Key.backspace	n/a
217.5695	0.06	435139	keystroke_Key.backspace	Key.backspace	n/a
217.7045	0.075	435409	keystroke_Key.backspace	Key.backspace	n/a
217.8545	0.075	435709	keystroke_Key.backspace	Key.backspace	n/a
218.0045	0.06	436009	keystroke_Key.backspace	Key.backspace	n/a
218.1545	0.06	436309	keystroke_Key.backspace	Key.backspace	n/a
218.3045	0.075	436609	keystroke_Key.backspace	Key.backspace	n/a
218.4545	0.06	436909	keystroke_Key.backspace	Key.backspace	n/a
218.6045	0.0745	437209	keystroke_Key.backspace	Key.backspace	n/a
218.754	0.075	437508	keystroke_Key.backspace	Key.backspace	n/a
218.919	0.075	437838	keystroke_Key.backspace	Key.backspace	n/a
219.519	0.045	439038	keystroke_a	a	n/a
219.774	0.015	439548	keystroke_r	r	n/a
220.059	0.0605	440118	keystroke_m	m	n/a
220.2695	0.075	440539	keystroke_a	a	n/a
220.914	0.06	441828	keystroke_c	c	n/a
221.124	0.045	442248	keystroke_e	e	n/a
221.3945	0.06	442789	keystroke_u	u	n/a
221.5595	0.045	443119	keystroke_t	t	n/a
221.6795	0.06	443359	keystroke_i	i	n/a
222.0845	0.075	444169	keystroke_c	c	n/a
222.2495	0.09	444499	keystroke_a	a	n/a
222.3845	0.09	444769	keystroke_l	l	n/a
222.6095	0.044	445219	keystroke_Key.space	Key.space	n/a
223.524	0.06	447048	keystroke_e	e	n/a
223.659	0.075	447318	keystroke_l	l	n/a
223.779	0.075	447558	keystroke_e	e	n/a
223.974	0.045	447948	keystroke_v	v	n/a
224.1245	0.045	448249	keystroke_a	a	n/a
224.3345	0.015	448669	keystroke_t	t	n/a
224.3645	0.09	448729	keystroke_i	i	n/a
224.4095	0.105	448819	keystroke_o	o	n/a
224.5745	0.09	449149	keystroke_n	n	n/a
224.9645	0.06	449929	keystroke_Key.enter	Key.enter	n/a
225.029	7.692	450058	prompt	n/a	cash nights cyprus robert\n
225.8195	0.09	451639	keystroke_c	c	n/a
225.9695	0.135	451939	keystroke_a	a	n/a
226.1195	0.0895	452239	keystroke_s	s	n/a
226.299	0.075	452598	keystroke_h	h	n/a
226.509	0.075	453018	keystroke_Key.space	Key.space	n/a
227.154	0.06	454308	keystroke_n	n	n/a
227.304	0.0755	454608	keystroke_i	i	n/a
227.4245	0.075	454849	keystroke_g	g	n/a
227.5145	0.075	455029	keystroke_h	h	n/a
227.6345	0.06	455269	keystroke_t	t	n/a
227.7995	0.075	455599	keystroke_s	s	n/a
227.9045	0.075	455809	keystroke_Key.space	Key.space	n/a
228.6095	0.045	457219	keystroke_c	c	n/a
229.314	0.06	458628	keystroke_y	y	n/a
229.7045	0.045	459409	keystroke_p	p	n/a
229.9745	0.075	459949	keystroke_r	r	n/a
230.1395	0.12	460279	keystroke_u	u	n/a
230.3945	0.045	460789	keystroke_s	s	n/a
230.4845	0.09	460969	keystroke_Key.space	Key.space	n/a
231.5345	0.045	463069	keystroke_r	r	n/a
231.6395	0.075	463279	keystroke_o	o	n/a
231.9845	0.06	463969	keystroke_b	b	n/a
232.1795	0.0895	464359	keystroke_e	e	n/a
232.2095	0.0895	464419	keystroke_r	r	n/a
232.404	0.06	464808	keystroke_t	t	n/a
232.6295	0.09	465259	keystroke_Key.enter	Key.enter	n/a
232.725	7.886	465450	prompt	n/a	believes decision directory permission\n
233.6345	0.06	467269	keystroke_b	b	n/a
233.7845	0.0445	467569	keystroke_e	e	n/a
233.949	0.135	467898	keystroke_l	l	n/a
234.024	0.09	468048	keystroke_i	i	n/a
234.279	0.075	468558	keystroke_e	e	n/a
234.489	0.075	468978	keystroke_v	v	n/a
234.624	0.06	469248	keystroke_e	e	n/a
234.819	0.075	469638	keystroke_s	s	n/a
234.909	0.06	469818	keystroke_Key.space	Key.space	n/a
235.3895	0.06	470779	keystroke_d	d	n/a
235.5395	0.075	471079	keystroke_e	e	n/a
235.7045	0.06	471409	keystroke_c	c	n/a
235.8235	0.076	471647	keystroke_i	i	n/a
235.9445	0.059	471889	keystroke_s	s	n/a
236.0495	0.075	472099	keystroke_i	i	n/a
236.0945	0.089	472189	keystroke_o	o	n/a
236.2595	0.059	472519	keystroke_n	n	n/a
236.439	0.075	472878	keystroke_Key.space	Key.space	n/a
236.7685	0.076	473537	keystroke_d	d	n/a
236.8885	0.091	473777	keystroke_i	i	n/a
237.0845	0.044	474169	keystroke_r	r	n/a
237.2485	0.15	474497	keystroke_e	e	n/a
237.3545	0.059	474709	keystroke_c	c	n/a
237.5485	0.0755	475097	keystroke_t	t	n/a
237.699	0.075	475398	keystroke_o	o	n/a
237.894	0.06	475788	keystroke_r	r	n/a
238.089	0.0745	476178	keystroke_y	y	n/a
238.2085	0.075	476417	keystroke_Key.space	Key.space	n/a
238.4935	0.105	476987	keystroke_p	p	n/a
238.9135	0.12	477827	keystroke_e	e	n/a
239.0035	0.0905	478007	keystroke_r	r	n/a
239.244	0.075	478488	keystroke_m	m	n/a
239.424	0.075	478848	keystroke_i	i	n/a
239.589	0.045	479178	keystroke_s	s	n/a
239.709	0.075	479418	keystroke_s	s	n/a
239.829	0.1355	479658	keystroke_i	i	n/a
239.9195	0.105	479839	keystroke_o	o	n/a
240.0845	0.09	480169	keystroke_n	n	n/a
240.534	0.075	481068	keystroke_Key.enter	Key.enter	n/a
240.6145	7.8715	481229	prompt	n/a	triple referenced incl solid\n
241.5235	0.031	483047	keystroke_t	t	n/a
241.6745	0.06	483349	keystroke_r	r	n/a
241.794	0.135	483588	keystroke_i	i	n/a
241.914	0.09	483828	keystroke_p	p	n/a
242.199	0.09	484398	keystroke_l	l	n/a
242.319	0.075	484638	keystroke_e	e	n/a
242.439	0.075	484878	keystroke_Key.space	Key.space	n/a
242.904	0.045	485808	keystroke_r	r	n/a
243.009	0.075	486018	keystroke_e	e	n/a
243.129	0.075	486258	keystroke_f	f	n/a
243.2635	0.1205	486527	keystroke_e	e	n/a
243.354	0.09	486708	keystroke_r	r	n/a
243.49	0.089	486980	keystroke_e	e	n/a
243.595	0.089	487190	keystroke_n	n	n/a
243.744	0.135	487488	keystroke_c	c	n/a
243.834	0.1045	487668	keystroke_e	e	n/a
244.1035	0.105	488207	keystroke_s	s	n/a
244.2835	0.09	488567	keystroke_Key.space	Key.space	n/a
244.824	0.135	489648	keystroke_i	i	n/a
244.914	0.1195	489828	keystroke_n	n	n/a
245.3345	0.075	490669	keystroke_c	c	n/a
245.4545	0.09	490909	keystroke_l	l	n/a
245.6645	0.06	491329	keystroke_Key.space	Key.space	n/a
246.5045	0.06	493009	keystroke_s	s	n/a
246.5795	0.075	493159	keystroke_o	o	n/a
246.7895	0.075	493579	keystroke_l	l	n/a
246.9545	0.09	493909	keystroke_i	i	n/a
247.2545	0.09	494509	keystroke_d	d	n/a
248.409	0.075	496818	keystroke_Key.enter	Key.enter	n/a
248.4895	8.2165	496979	prompt	n/a	theatre useful shell numerous\n
249.384	0.06	498768	keystroke_t	t	n/a
249.549	0.075	499098	keystroke_h	h	n/a
249.759	0.09	499518	keystroke_e	e	n/a
250.0585	0.09	500117	keystroke_a	a	n/a
250.3885	0.09	500777	keystroke_t	t	n/a
250.6735	0.06	501347	keystroke_r	r	n/a
250.8545	0.09	501709	keystroke_e	e	n/a
251.364	0.105	502728	keystroke_Key.space	Key.space	n/a
251.874	0.09	503748	keystroke_u	u	n/a
251.979	0.06	503958	keystroke_s	s	n/a
252.144	0.075	504288	keystroke_e	e	n/a
252.324	0.091	504648	keystroke_f	f	n/a
252.534	0.075	505068	keystroke_u	u	n/a
252.684	0.1055	505368	keystroke_l	l	n/a
252.9395	0.06	505879	keystroke_Key.space	Key.space	n/a
253.359	0.045	506718	keystroke_s	s	n/a
253.449	0.075	506898	keystroke_h	h	n/a
253.554	0.09	507108	keystroke_e	e	n/a
253.779	0.03	507558	keystroke_l	l	n/a
253.914	0.045	507828	keystroke_l	l	n/a
254.199	0.075	508398	keystroke_Key.space	Key.space	n/a
255.009	0.045	510018	keystroke_n	n	n/a
255.204	0.075	510408	keystroke_u	u	n/a
255.429	0.06	510858	keystroke_m	m	n/a
255.549	0.105	511098	keystroke_e	e	n/a
255.639	0.06	511278	keystroke_r	r	n/a
255.834	0.135	511668	keystroke_o	o	n/a
255.909	0.105	511818	keystroke_u	u	n/a
256.029	0.075	512058	keystroke_s	s	n/a
256.6285	0.075	513257	keystroke_Key.enter	Key.enter	n/a
256.7085	6.1625	513417	prompt	n/a	inputs bone mixed routes\n
257.4685	0.12	514937	keystroke_i	i	n/a
257.5585	0.076	515117	keystroke_n	n	n/a
257.829	0.105	515658	keystroke_p	p	n/a
257.874	0.105	515748	keystroke_u	u	n/a
257.994	0.045	515988	keystroke_t	t	n/a
258.174	0.075	516348	keystroke_s	s	n/a
258.264	0.075	516528	keystroke_Key.space	Key.space	n/a
258.804	0.075	517608	keystroke_b	b	n/a
258.984	0.12	517968	keystroke_o	o	n/a
259.0885	0.09	518177	keystroke_n	n	n/a
259.2385	0.076	518477	keystroke_e	e	n/a
259.3595	0.075	518719	keystroke_Key.space	Key.space	n/a
259.704	0.12	519408	keystroke_m	m	n/a
259.794	0.105	519588	keystroke_i	i	n/a
260.379	0.06	520758	keystroke_x	x	n/a
260.559	0.06	521118	keystroke_e	e	n/a
260.724	0.09	521448	keystroke_d	d	n/a
260.844	0.0755	521688	keystroke_Key.space	Key.space	n/a
261.6695	0.015	523339	keystroke_r	r	n/a
261.7745	0.12	523549	keystroke_o	o	n/a
261.8495	0.09	523699	keystroke_u	u	n/a
261.9995	0.045	523999	keystroke_t	t	n/a
262.1795	0.0595	524359	keystroke_e	e	n/a
262.374	0.075	524748	keystroke_s	s	n/a
262.779	0.09	525558	keystroke_Key.enter	Key.enter	n/a
262.875	10.031	525750	prompt	n/a	suited producing vice monitoring\n
263.7695	0.06	527539	keystroke_s	s	n/a
263.9795	0.06	527959	keystroke_u	u	n/a
264.1595	0.06	528319	keystroke_i	i	n/a
264.3995	0.075	528799	keystroke_t	t	n/a
264.5345	0.075	529069	keystroke_e	e	n/a
264.7295	0.075	529459	keystroke_d	d	n/a
264.8185	0.09	529637	keystroke_Key.space	Key.space	n/a
265.119	0.09	530238	keystroke_p	p	n/a
265.314	0.045	530628	keystroke_r	r	n/a
265.404	0.105	530808	keystroke_o	o	n/a
265.599	0.045	531198	keystroke_d	d	n/a
265.734	0.075	531468	keystroke_u	u	n/a
265.824	0.06	531648	keystroke_c	c	n/a
266.034	0.12	532068	keystroke_i	i	n/a
266.109	0.075	532218	keystroke_n	n	n/a
266.229	0.06	532458	keystroke_g	g	n/a
266.319	0.0745	532638	keystroke_Key.space	Key.space	n/a
267.2945	0.044	534589	keystroke_v	v	n/a
267.3845	0.074	534769	keystroke_i	i	n/a
267.5935	0.1055	535187	keystroke_c	c	n/a
267.714	0.12	535428	keystroke_e	e	n/a
267.894	0.06	535788	keystroke_Key.space	Key.space	n/a
268.329	0.045	536658	keystroke_m	m	n/a
268.524	0.09	537048	keystroke_o	o	n/a
268.719	0.06	537438	keystroke_n	n	n/a
268.899	0.06	537798	keystroke_i	i	n/a
269.079	0.06	538158	keystroke_t	t	n/a
269.184	0.105	538368	keystroke_o	o	n/a
269.8445	0.0895	539689	keystroke_Key.backspace	Key.backspace	n/a
270.024	0.105	540048	keystroke_Key.backspace	Key.backspace	n/a
270.9835	0.06	541967	keystroke_t	t	n/a
271.1795	0.075	542359	keystroke_o	o	n/a
271.389	0.045	542778	keystroke_r	r	n/a
271.509	0.1345	543018	keystroke_i	i	n/a
271.5995	0.089	543199	keystroke_n	n	n/a
271.7185	0.061	543437	keystroke_g	g	n/a
272.8145	0.09	545629	keystroke_Key.enter	Key.enter	n/a
272.9135	7.5225	545827	prompt	n/a	associates forests invisible joseph\n
273.609	0.09	547218	keystroke_a	a	n/a
273.819	0.045	547638	keystroke_s	s	n/a
273.924	0.06	547848	keystroke_s	s	n/a
274.254	0.09	548508	keystroke_o	o	n/a
274.374	0.075	548748	keystroke_c	c	n/a
274.464	0.09	548928	keystroke_i	i	n/a
274.569	0.075	549138	keystroke_a	a	n/a
274.749	0.09	549498	keystroke_t	t	n/a
274.794	0.09	549588	keystroke_e	e	n/a
274.989	0.075	549978	keystroke_s	s	n/a
275.109	0.06	550218	keystroke_Key.space	Key.space	n/a
275.529	0.06	551058	keystroke_f	f	n/a
275.634	0.075	551268	keystroke_o	o	n/a
275.754	0.045	551508	keystroke_r	r	n/a
275.919	0.06	551838	keystroke_e	e	n/a
276.099	0.075	552198	keystroke_s	s	n/a
276.309	0.06	552618	keystroke_t	t	n/a
276.429	0.105	552858	keystroke_s	s	n/a
276.564	0.06	553128	keystroke_Key.space	Key.space	n/a
276.879	0.09	553758	keystroke_i	i	n/a
277.059	0.045	554118	keystroke_n	n	n/a
277.269	0.0605	554538	keystroke_v	v	n/a
277.3595	0.105	554719	keystroke_i	i	n/a
277.5395	0.06	555079	keystroke_s	s	n/a
277.6145	0.09	555229	keystroke_i	i	n/a
277.8245	0.075	555649	keystroke_b	b	n/a
278.0195	0.09	556039	keystroke_l	l	n/a
278.1245	0.06	556249	keystroke_e	e	n/a
278.2295	0.06	556459	keystroke_Key.space	Key.space	n/a
278.9345	0.06	557869	keystroke_j	j	n/a
279.1145	0.075	558229	keystroke_o	o	n/a
279.489	0.03	558978	keystroke_s	s	n/a
279.639	0.075	559278	keystroke_e	e	n/a
279.729	0.09	559458	keystroke_p	p	n/a
279.954	0.075	559908	keystroke_h	h	n/a
280.329	0.105	560658	keystroke_Key.enter	Key.enter	n/a
280.439	11.8465	560878	prompt	n/a	fence pmid johnson documented\n
281.649	0.03	563298	keystroke_f	f	n/a
281.814	0.075	563628	keystroke_e	e	n/a
281.934	0.06	563868	keystroke_n	n	n/a
282.144	0.09	564288	keystroke_c	c	n/a
282.219	0.09	564438	keystroke_e	e	n/a
282.369	0.09	564738	keystroke_Key.space	Key.space	n/a
283.0595	0.075	566119	keystroke_p	p	n/a
283.3745	0.06	566749	keystroke_m	m	n/a
283.9895	0.075	567979	keystroke_i	i	n/a
284.4395	0.06	568879	keystroke_d	d	n/a
284.7395	0.06	569479	keystroke_Key.space	Key.space	n/a
285.2195	0.06	570439	keystroke_j	j	n/a
285.3545	0.0895	570709	keystroke_o	o	n/a
285.669	0.075	571338	keystroke_h	h	n/a
285.879	0.075	571758	keystroke_n	n	n/a
286.014	0.06	572028	keystroke_s	s	n/a
286.149	0.165	572298	keystroke_o	o	n/a
286.269	0.105	572538	keystroke_n	n	n/a
286.494	0.105	572988	keystroke_Key.space	Key.space	n/a
289.106	0.001	578212	keystroke_d	d	n/a
289.269	0.075	578538	keystroke_o	o	n/a
289.4935	0.045	578987	keystroke_c	c	n/a
289.6435	0.045	579287	keystroke_u	u	n/a
289.8385	0.045	579677	keystroke_m	m	n/a
289.9735	0.06	579947	keystroke_e	e	n/a
290.0485	0.075	580097	keystroke_n	n	n/a
290.1985	0.135	580397	keystroke_t	t	n/a
290.6485	0.06	581297	keystroke_e	e	n/a
290.919	0.06	581838	keystroke_s	s	n/a
291.5645	0.1045	583129	keystroke_Key.backspace	Key.backspace	n/a
291.684	0.075	583368	keystroke_d	d	n/a
292.209	0.075	584418	keystroke_Key.enter	Key.enter	n/a
292.289	11.3065	584578	prompt	n/a	delicious weak developing tried\n
293.034	0.045	586068	keystroke_d	d	n/a
293.199	0.045	586398	keystroke_e	e	n/a
293.274	0.135	586548	keystroke_l	l	n/a
293.439	0.09	586878	keystroke_i	i	n/a
293.664	0.075	587328	keystroke_c	c	n/a
293.799	0.165	587598	keystroke_i	i	n/a
293.919	0.105	587838	keystroke_o	o	n/a
297.0865	0.001	594173	keystroke_u	u	n/a
297.369	0.06	594738	keystroke_s	s	n/a
297.519	0.06	595038	keystroke_Key.space	Key.space	n/a
298.014	0.105	596028	keystroke_w	w	n/a
298.209	0.03	596418	keystroke_e	e	n/a
298.374	0.06	596748	keystroke_a	a	n/a
298.494	0.075	596988	keystroke_k	k	n/a
298.704	0.06	597408	keystroke_Key.space	Key.space	n/a
299.2735	0.0455	598547	keystroke_d	d	n/a
299.424	0.06	598848	keystroke_e	e	n/a
299.589	0.045	599178	keystroke_v	v	n/a
299.739	0.03	599478	keystroke_e	e	n/a
299.784	0.075	599568	keystroke_l	l	n/a
299.994	0.0445	599988	keystroke_o	o	n/a
300.1435	0.075	600287	keystroke_p	p	n/a
300.5045	0.12	601009	keystroke_i	i	n/a
300.5495	0.105	601099	keystroke_n	n	n/a
300.6845	0.06	601369	keystroke_g	g	n/a
300.7735	0.0905	601547	keystroke_Key.space	Key.space	n/a
301.794	0.075	603588	keystroke_r	r	n/a
302.154	0.075	604308	keystroke_Key.backspace	Key.backspace	n/a
302.289	0.075	604578	keystroke_t	t	n/a
302.754	0.03	605508	keystroke_r	r	n/a
302.889	0.075	605778	keystroke_i	i	n/a
303.024	0.06	606048	keystroke_e	e	n/a
303.1885	0.0755	606377	keystroke_d	d	n/a
303.5035	0.0905	607007	keystroke_Key.enter	Key.enter	n/a
303.599	10.692	607198	prompt	n/a	behavioral howard planned suspended\n
304.884	0.06	609768	keystroke_b	b	n/a
305.049	0.075	610098	keystroke_e	e	n/a
305.289	0.045	610578	keystroke_h	h	n/a
305.424	0.075	610848	keystroke_a	a	n/a
305.649	0.06	611298	keystroke_v	v	n/a
305.799	0.075	611598	keystroke_i	i	n/a
306.9535	0.09	613907	keystroke_o	o	n/a
307.1935	0.045	614387	keystroke_r	r	n/a
307.374	0.06	614748	keystroke_a	a	n/a
307.464	0.105	614928	keystroke_l	l	n/a
307.704	0.06	615408	keystroke_Key.space	Key.space	n/a
308.514	0.06	617028	keystroke_h	h	n/a
308.694	0.09	617388	keystroke_o	o	n/a
308.8885	0.061	617777	keystroke_w	w	n/a
309.1595	0.09	618319	keystroke_a	a	n/a
309.3695	0.074	618739	keystroke_r	r	n/a
309.5945	0.045	619189	keystroke_d	d	n/a
309.6995	0.089	619399	keystroke_Key.space	Key.space	n/a
310.059	0.105	620118	keystroke_p	p	n/a
310.419	0.09	620838	keystroke_l	l	n/a
310.584	0.12	621168	keystroke_a	a	n/a
310.779	0.06	621558	keystroke_n	n	n/a
310.914	0.09	621828	keystroke_n	n	n/a
311.019	0.06	622038	keystroke_e	e	n/a
311.169	0.105	622338	keystroke_d	d	n/a
311.289	0.075	622578	keystroke_Key.space	Key.space	n/a
311.979	0.135	623958	keystroke_s	s	n/a
312.579	0.045	625158	keystroke_u	u	n/a
312.7285	0.075	625457	keystroke_s	s	n/a
313.2835	0.1055	626567	keystroke_p	p	n/a
313.434	0.06	626868	keystroke_e	e	n/a
313.524	0.06	627048	keystroke_n	n	n/a
313.614	0.06	627228	keystroke_d	d	n/a
313.779	0.06	627558	keystroke_e	e	n/a
313.914	0.09	627828	keystroke_d	d	n/a
314.1985	0.09	628397	keystroke_Key.enter	Key.enter	n/a
314.294	7.1815	628588	prompt	n/a	allowing tomatoes cities rogers\n
314.9185	0.06	629837	keystroke_a	a	n/a
315.1135	0.045	630227	keystroke_l	l	n/a
315.2335	0.075	630467	keystroke_l	l	n/a
315.4135	0.0605	630827	keystroke_o	o	n/a
315.5185	0.075	631037	keystroke_w	w	n/a
315.6395	0.105	631279	keystroke_i	i	n/a
315.6995	0.075	631399	keystroke_n	n	n/a
315.8045	0.045	631609	keystroke_g	g	n/a
315.894	0.075	631788	keystroke_Key.space	Key.space	n/a
316.479	0.06	632958	keystroke_t	t	n/a
316.599	0.09	633198	keystroke_o	o	n/a
316.764	0.075	633528	keystroke_m	m	n/a
317.244	0.0745	634488	keystroke_a	a	n/a
317.4845	0.044	634969	keystroke_t	t	n/a
317.6045	0.104	635209	keystroke_o	o	n/a
317.859	0.075	635718	keystroke_e	e	n/a
318.054	0.06	636108	keystroke_s	s	n/a
318.174	0.06	636348	keystroke_Key.space	Key.space	n/a
319.0145	0.06	638029	keystroke_c	c	n/a
319.1495	0.105	638299	keystroke_i	i	n/a
319.2995	0.06	638599	keystroke_t	t	n/a
319.3895	0.12	638779	keystroke_i	i	n/a
319.6145	0.06	639229	keystroke_e	e	n/a
319.8095	0.06	639619	keystroke_s	s	n/a
319.8845	0.06	639769	keystroke_Key.space	Key.space	n/a
320.4845	0.06	640969	keystroke_r	r	n/a
320.5895	0.075	641179	keystroke_o	o	n/a
320.6945	0.0745	641389	keystroke_g	g	n/a
320.904	0.105	641808	keystroke_e	e	n/a
320.964	0.09	641928	keystroke_r	r	n/a
321.1435	0.105	642287	keystroke_s	s	n/a
321.3685	0.105	642737	keystroke_Key.enter	Key.enter	n/a
321.4785	6.117	642957	prompt	n/a	river use acre scanners\n
322.434	0.06	644868	keystroke_r	r	n/a
322.569	0.09	645138	keystroke_i	i	n/a
322.749	0.03	645498	keystroke_v	v	n/a
322.929	0.09	645858	keystroke_e	e	n/a
322.974	0.105	645948	keystroke_r	r	n/a
323.154	0.0895	646308	keystroke_Key.space	Key.space	n/a
323.8735	0.09	647747	keystroke_u	u	n/a
323.9785	0.06	647957	keystroke_s	s	n/a
324.1585	0.075	648317	keystroke_e	e	n/a
324.2935	0.06	648587	keystroke_Key.space	Key.space	n/a
324.5485	0.075	649097	keystroke_a	a	n/a
324.9235	0.06	649847	keystroke_c	c	n/a
325.1635	0.06	650327	keystroke_r	r	n/a
325.344	0.075	650688	keystroke_e	e	n/a
325.5085	0.075	651017	keystroke_Key.space	Key.space	n/a
326.0195	0.075	652039	keystroke_s	s	n/a
326.2145	0.075	652429	keystroke_c	c	n/a
326.394	0.075	652788	keystroke_a	a	n/a
326.559	0.03	653118	keystroke_n	n	n/a
326.664	0.09	653328	keystroke_n	n	n/a
326.769	0.075	653538	keystroke_e	e	n/a
326.829	0.075	653658	keystroke_r	r	n/a
327.009	0.09	654018	keystroke_s	s	n/a
327.489	0.105	654978	keystroke_Key.enter	Key.enter	n/a
327.5985	9.357	655197	prompt	n/a	papers deborah latex specifically\n
328.314	0.0895	656628	keystroke_p	p	n/a
328.4345	0.1045	656869	keystroke_a	a	n/a
328.554	0.105	657108	keystroke_p	p	n/a
328.764	0.105	657528	keystroke_e	e	n/a
328.884	0.06	657768	keystroke_r	r	n/a
329.229	0.075	658458	keystroke_s	s	n/a
329.3335	0.075	658667	keystroke_Key.space	Key.space	n/a
330.3385	0.06	660677	keystroke_d	d	n/a
330.5335	0.06	661067	keystroke_e	e	n/a
330.8035	0.06	661607	keystroke_b	b	n/a
330.999	0.075	661998	keystroke_o	o	n/a
331.164	0.045	662328	keystroke_r	r	n/a
331.3435	0.09	662687	keystroke_a	a	n/a
332.334	0.045	664668	keystroke_h	h	n/a
332.559	0.045	665118	keystroke_Key.space	Key.space	n/a
332.874	0.105	665748	keystroke_l	l	n/a
333.084	0.0745	666168	keystroke_a	a	n/a
333.3085	0.0755	666617	keystroke_t	t	n/a
333.504	0.075	667008	keystroke_e	e	n/a
333.834	0.09	667668	keystroke_x	x	n/a
333.999	0.075	667998	keystroke_Key.space	Key.space	n/a
334.719	0.09	669438	keystroke_s	s	n/a
334.854	0.105	669708	keystroke_p	p	n/a
335.004	0.12	670008	keystroke_e	e	n/a
335.244	0.0745	670488	keystroke_c	c	n/a
335.3785	0.105	670757	keystroke_i	i	n/a
335.5285	0.06	671057	keystroke_f	f	n/a
335.6185	0.12	671237	keystroke_i	i	n/a
335.7535	0.075	671507	keystroke_c	c	n/a
335.8735	0.1055	671747	keystroke_a	a	n/a
336.009	0.06	672018	keystroke_l	l	n/a
336.144	0.105	672288	keystroke_l	l	n/a
336.219	0.09	672438	keystroke_y	y	n/a
336.879	0.075	673758	keystroke_Key.enter	Key.enter	n/a
336.9585	9.207	673917	prompt	n/a	courts furniture offensive calendars\n
337.7635	0.061	675527	keystroke_c	c	n/a
337.929	0.12	675858	keystroke_o	o	n/a
337.989	0.105	675978	keystroke_u	u	n/a
338.184	0.06	676368	keystroke_r	r	n/a
338.394	0.045	676788	keystroke_t	t	n/a
338.559	0.0745	677118	keystroke_s	s	n/a
338.6485	0.075	677297	keystroke_Key.space	Key.space	n/a
339.1135	0.075	678227	keystroke_f	f	n/a
339.2785	0.075	678557	keystroke_u	u	n/a
339.4285	0.06	678857	keystroke_r	r	n/a
339.5485	0.061	679097	keystroke_n	n	n/a
339.6985	0.09	679397	keystroke_i	i	n/a
339.8035	0.06	679607	keystroke_t	t	n/a
339.9985	0.075	679997	keystroke_u	u	n/a
340.2685	0.12	680537	keystroke_r	r	n/a
340.3585	0.09	680717	keystroke_e	e	n/a
341.109	0.075	682218	keystroke_Key.space	Key.space	n/a
341.364	0.09	682728	keystroke_o	o	n/a
341.634	0.045	683268	keystroke_f	f	n/a
341.724	0.075	683448	keystroke_f	f	n/a
341.889	0.06	683778	keystroke_e	e	n/a
341.964	0.075	683928	keystroke_n	n	n/a
342.069	0.075	684138	keystroke_s	s	n/a
342.189	0.105	684378	keystroke_i	i	n/a
342.429	0.075	684858	keystroke_v	v	n/a
342.609	0.06	685218	keystroke_e	e	n/a
342.699	0.09	685398	keystroke_Key.space	Key.space	n/a
343.1495	0.06	686299	keystroke_c	c	n/a
343.3145	0.0745	686629	keystroke_a	a	n/a
343.419	0.09	686838	keystroke_l	l	n/a
343.584	0.06	687168	keystroke_e	e	n/a
343.704	0.06	687408	keystroke_n	n	n/a
343.794	0.075	687588	keystroke_a	a	n/a
344.199	0.09	688398	keystroke_Key.backspace	Key.backspace	n/a
344.304	0.09	688608	keystroke_d	d	n/a
344.439	0.135	688878	keystroke_a	a	n/a
344.724	0.06	689448	keystroke_t	t	n/a
345.279	0.105	690558	keystroke_Key.backspace	Key.backspace	n/a
345.594	0.045	691188	keystroke_r	r	n/a
345.759	0.075	691518	keystroke_s	s	n/a
346.1035	0.06	692207	keystroke_Key.enter	Key.enter	n/a
346.1685	6.912	692337	prompt	n/a	prints posters around occupied\n
346.839	0.105	693678	keystroke_p	p	n/a
347.019	0.045	694038	keystroke_r	r	n/a
347.154	0.09	694308	keystroke_i	i	n/a
347.334	0.06	694668	keystroke_n	n	n/a
347.499	0.045	694998	keystroke_t	t	n/a
347.679	0.075	695358	keystroke_s	s	n/a
347.769	0.075	695538	keystroke_Key.space	Key.space	n/a
348.1435	0.06	696287	keystroke_p	p	n/a
348.3235	0.075	696647	keystroke_o	o	n/a
348.5035	0.075	697007	keystroke_s	s	n/a
348.6985	0.06	697397	keystroke_t	t	n/a
348.8485	0.105	697697	keystroke_e	e	n/a
348.9385	0.06	697877	keystroke_r	r	n/a
349.1485	0.0755	698297	keystroke_s	s	n/a
349.254	0.0745	698508	keystroke_Key.space	Key.space	n/a
349.644	0.09	699288	keystroke_a	a	n/a
350.154	0.045	700308	keystroke_r	r	n/a
350.259	0.09	700518	keystroke_o	o	n/a
350.289	0.09	700578	keystroke_u	u	n/a
350.529	0.06	701058	keystroke_n	n	n/a
350.634	0.06	701268	keystroke_d	d	n/a
350.724	0.075	701448	keystroke_Key.space	Key.space	n/a
351.7135	0.075	703427	keystroke_o	o	n/a
351.8485	0.045	703697	keystroke_c	c	n/a
351.9535	0.06	703907	keystroke_c	c	n/a
352.0445	0.074	704089	keystroke_u	u	n/a
352.3285	0.075	704657	keystroke_p	p	n/a
352.5085	0.075	705017	keystroke_i	i	n/a
352.6435	0.06	705287	keystroke_e	e	n/a
352.7795	0.089	705559	keystroke_d	d	n/a
352.9885	0.09	705977	keystroke_Key.enter	Key.enter	n/a
353.084	8.9515	706168	prompt	n/a	chester webpage quizzes count\n
353.859	0.06	707718	keystroke_c	c	n/a
353.979	0.075	707958	keystroke_h	h	n/a
354.129	0.045	708258	keystroke_e	e	n/a
354.309	0.06	708618	keystroke_s	s	n/a
354.489	0.045	708978	keystroke_t	t	n/a
354.654	0.06	709308	keystroke_e	e	n/a
354.729	0.075	709458	keystroke_r	r	n/a
354.864	0.06	709728	keystroke_Key.space	Key.space	n/a
355.7035	0.075	711407	keystroke_w	w	n/a
355.929	0.0595	711858	keystroke_e	e	n/a
356.904	0.06	713808	keystroke_b	b	n/a
357.564	0.105	715128	keystroke_p	p	n/a
357.7885	0.105	715577	keystroke_a	a	n/a
358.0435	0.075	716087	keystroke_g	g	n/a
358.2235	0.105	716447	keystroke_e	e	n/a
358.374	0.0595	716748	keystroke_Key.space	Key.space	n/a
359.139	0.075	718278	keystroke_q	q	n/a
359.2885	0.0605	718577	keystroke_u	u	n/a
359.514	0.0745	719028	keystroke_i	i	n/a
359.8285	0.045	719657	keystroke_z	z	n/a
359.9335	0.06	719867	keystroke_z	z	n/a
360.1285	0.06	720257	keystroke_e	e	n/a
360.3235	0.045	720647	keystroke_s	s	n/a
360.414	0.075	720828	keystroke_Key.space	Key.space	n/a
360.999	0.045	721998	keystroke_c	c	n/a
361.119	0.12	722238	keystroke_o	o	n/a
361.179	0.105	722358	keystroke_u	u	n/a
361.419	0.075	722838	keystroke_n	n	n/a
361.524	0.06	723048	keystroke_t	t	n/a
361.9585	0.075	723917	keystroke_Key.enter	Key.enter	n/a
362.039	9.9115	724078	prompt	n/a	prevent commodities kinase parade\n
363.1285	0.075	726257	keystroke_p	p	n/a
363.2485	0.06	726497	keystroke_r	r	n/a
363.414	0.075	726828	keystroke_e	e	n/a
363.624	0.03	727248	keystroke_v	v	n/a
363.759	0.075	727518	keystroke_e	e	n/a
363.864	0.075	727728	keystroke_n	n	n/a
363.954	0.075	727908	keystroke_t	t	n/a
364.089	0.075	728178	keystroke_Key.space	Key.space	n/a
364.629	0.045	729258	keystroke_c	c	n/a
364.749	0.075	729498	keystroke_o	o	n/a
364.989	0.045	729978	keystroke_m	m	n/a
365.094	0.105	730188	keystroke_m	m	n/a
365.604	0.075	731208	keystroke_o	o	n/a
366.804	0.03	733608	keystroke_d	d	n/a
367.179	0.075	734358	keystroke_i	i	n/a
367.5235	0.09	735047	keystroke_t	t	n/a
368.0935	0.045	736187	keystroke_i	i	n/a
368.1535	0.06	736307	keystroke_e	e	n/a
368.3485	0.075	736697	keystroke_s	s	n/a
368.4835	0.06	736967	keystroke_Key.space	Key.space	n/a
369.264	0.06	738528	keystroke_k	k	n/a
369.459	0.06	738918	keystroke_i	i	n/a
369.669	0.03	739338	keystroke_n	n	n/a
369.819	0.075	739638	keystroke_a	a	n/a
369.984	0.075	739968	keystroke_s	s	n/a
370.164	0.075	740328	keystroke_e	e	n/a
370.314	0.075	740628	keystroke_Key.space	Key.space	n/a
370.6735	0.09	741347	keystroke_p	p	n/a
370.8985	0.0905	741797	keystroke_a	a	n/a
371.0485	0.0455	742097	keystroke_r	r	n/a
371.1985	0.09	742397	keystroke_a	a	n/a
371.454	0.045	742908	keystroke_d	d	n/a
371.604	0.075	743208	keystroke_e	e	n/a
371.8445	0.104	743689	keystroke_Key.enter	Key.enter	n/a
371.9555	7.9	743911	prompt	n/a	movies organic protection gallery\n
372.8495	0.044	745699	keystroke_m	m	n/a
372.9835	0.105	745967	keystroke_o	o	n/a
373.1795	0.074	746359	keystroke_v	v	n/a
373.314	0.105	746628	keystroke_i	i	n/a
373.554	0.06	747108	keystroke_e	e	n/a
373.749	0.06	747498	keystroke_s	s	n/a
373.8535	0.06	747707	keystroke_Key.space	Key.space	n/a
374.3185	0.105	748637	keystroke_o	o	n/a
374.4385	0.06	748877	keystroke_r	r	n/a
374.6485	0.046	749297	keystroke_g	g	n/a
374.8285	0.075	749657	keystroke_a	a	n/a
374.9335	0.06	749867	keystroke_n	n	n/a
375.3385	0.09	750677	keystroke_i	i	n/a
375.4435	0.06	750887	keystroke_c	c	n/a
375.6085	0.06	751217	keystroke_Key.space	Key.space	n/a
376.014	0.075	752028	keystroke_p	p	n/a
376.254	0.06	752508	keystroke_r	r	n/a
376.449	0.0895	752898	keystroke_o	o	n/a
376.6135	0.06	753227	keystroke_t	t	n/a
376.7785	0.075	753557	keystroke_e	e	n/a
376.9735	0.06	753947	keystroke_c	c	n/a
377.154	0.06	754308	keystroke_t	t	n/a
377.244	0.1045	754488	keystroke_i	i	n/a
377.3185	0.09	754637	keystroke_o	o	n/a
377.4985	0.06	754997	keystroke_n	n	n/a
377.7385	0.06	755477	keystroke_Key.space	Key.space	n/a
378.429	0.045	756858	keystroke_g	g	n/a
378.564	0.075	757128	keystroke_a	a	n/a
378.684	0.045	757368	keystroke_l	l	n/a
378.924	0.015	757848	keystroke_l	l	n/a
378.939	0.12	757878	keystroke_e	e	n/a
379.044	0.075	758088	keystroke_r	r	n/a
379.254	0.0895	758508	keystroke_y	y	n/a
379.7485	0.105	759497	keystroke_Key.enter	Key.enter	n/a
379.8585	9.747	759717	prompt	n/a	module wish sponsorship amateur\n
380.7985	0.045	761597	keystroke_m	m	n/a
380.9785	0.0905	761957	keystroke_o	o	n/a
381.189	0.075	762378	keystroke_d	d	n/a
381.309	0.0595	762618	keystroke_u	u	n/a
381.5335	0.075	763067	keystroke_l	l	n/a
381.6235	0.075	763247	keystroke_e	e	n/a
381.7885	0.06	763577	keystroke_Key.space	Key.space	n/a
382.299	0.075	764598	keystroke_w	w	n/a
382.389	0.075	764778	keystroke_i	i	n/a
382.569	0.105	765138	keystroke_s	s	n/a
382.764	0.06	765528	keystroke_h	h	n/a
382.989	0.075	765978	keystroke_Key.space	Key.space	n/a
383.589	0.045	767178	keystroke_s	s	n/a
383.754	0.075	767508	keystroke_p	p	n/a
383.964	0.045	767928	keystroke_o	o	n/a
384.189	0.06	768378	keystroke_n	n	n/a
384.339	0.075	768678	keystroke_s	s	n/a
384.834	0.075	769668	keystroke_o	o	n/a
385.059	0.06	770118	keystroke_r	r	n/a
385.3445	0.045	770689	keystroke_s	s	n/a
385.4335	0.105	770867	keystroke_h	h	n/a
385.5535	0.076	771107	keystroke_i	i	n/a
385.7635	0.12	771527	keystroke_p	p	n/a
386.1685	0.06	772337	keystroke_Key.space	Key.space	n/a
386.5735	0.09	773147	keystroke_a	a	n/a
386.7685	0.06	773537	keystroke_m	m	n/a
386.9335	0.075	773867	keystroke_a	a	n/a
387.189	0.045	774378	keystroke_t	t	n/a
388.239	0.06	776478	keystroke_e	e	n/a
388.449	0.0745	776898	keystroke_u	u	n/a
389.1685	0.045	778337	keystroke_r	r	n/a
389.529	0.075	779058	keystroke_Key.enter	Key.enter	n/a
389.609	8.7565	779218	prompt	n/a	death ordinance exclude lighting\n
390.4595	0.06	780919	keystroke_d	d	n/a
390.6245	0.06	781249	keystroke_e	e	n/a
390.7445	0.105	781489	keystroke_a	a	n/a
390.9695	0.0745	781939	keystroke_t	t	n/a
391.0595	0.0745	782119	keystroke_h	h	n/a
391.2845	0.075	782569	keystroke_Key.space	Key.space	n/a
391.5995	0.09	783199	keystroke_o	o	n/a
391.809	0.06	783618	keystroke_r	r	n/a
392.169	0.075	784338	keystroke_d	d	n/a
392.364	0.09	784728	keystroke_i	i	n/a
392.544	0.075	785088	keystroke_n	n	n/a
392.769	0.06	785538	keystroke_a	a	n/a
392.874	0.075	785748	keystroke_n	n	n/a
393.039	0.1195	786078	keystroke_c	c	n/a
393.1285	0.09	786257	keystroke_e	e	n/a
393.2485	0.1055	786497	keystroke_Key.space	Key.space	n/a
394.029	0.015	788058	keystroke_e	e	n/a
394.1645	0.075	788329	keystroke_x	x	n/a
394.3295	0.075	788659	keystroke_c	c	n/a
394.5995	0.089	789199	keystroke_l	l	n/a
394.7795	0.074	789559	keystroke_u	u	n/a
394.9585	0.045	789917	keystroke_d	d	n/a
395.1235	0.075	790247	keystroke_e	e	n/a
395.2435	0.06	790487	keystroke_Key.space	Key.space	n/a
395.754	0.1045	791508	keystroke_l	l	n/a
396.774	0.06	793548	keystroke_i	i	n/a
396.954	0.06	793908	keystroke_g	g	n/a
397.059	0.075	794118	keystroke_h	h	n/a
397.3445	0.06	794689	keystroke_t	t	n/a
397.5395	0.045	795079	keystroke_n	n	n/a
397.6745	0.105	795349	keystroke_i	i	n/a
397.7495	0.09	795499	keystroke_n	n	n/a
397.8545	0.045	795709	keystroke_g	g	n/a
398.2745	0.09	796549	keystroke_Key.enter	Key.enter	n/a
398.3685	7.4375	796737	prompt	n/a	brother hobbies cement chambers\n
399.339	0.06	798678	keystroke_b	b	n/a
399.654	0.045	799308	keystroke_r	r	n/a
399.8035	0.075	799607	keystroke_o	o	n/a
400.014	0.06	800028	keystroke_t	t	n/a
400.134	0.075	800268	keystroke_h	h	n/a
400.239	0.105	800478	keystroke_e	e	n/a
400.314	0.09	800628	keystroke_r	r	n/a
400.449	0.075	800898	keystroke_Key.space	Key.space	n/a
401.004	0.06	802008	keystroke_h	h	n/a
401.199	0.09	802398	keystroke_o	o	n/a
401.664	0.045	803328	keystroke_b	b	n/a
401.784	0.09	803568	keystroke_b	b	n/a
401.964	0.105	803928	keystroke_i	i	n/a
402.084	0.06	804168	keystroke_e	e	n/a
402.249	0.075	804498	keystroke_s	s	n/a
402.354	0.06	804708	keystroke_Key.space	Key.space	n/a
402.804	0.075	805608	keystroke_c	c	n/a
402.9985	0.061	805997	keystroke_e	e	n/a
403.1185	0.075	806237	keystroke_m	m	n/a
403.2235	0.1055	806447	keystroke_e	e	n/a
403.359	0.075	806718	keystroke_n	n	n/a
403.494	0.075	806988	keystroke_t	t	n/a
403.599	0.075	807198	keystroke_Key.space	Key.space	n/a
404.2135	0.06	808427	keystroke_c	c	n/a
404.3935	0.06	808787	keystroke_h	h	n/a
404.4985	0.075	808997	keystroke_a	a	n/a
404.6335	0.06	809267	keystroke_m	m	n/a
405.0085	0.045	810017	keystroke_b	b	n/a
405.1135	0.09	810227	keystroke_e	e	n/a
405.1735	0.075	810347	keystroke_r	r	n/a
405.3995	0.0895	810799	keystroke_s	s	n/a
405.714	0.09	811428	keystroke_Key.enter	Key.enter	n/a
405.809	10.572	811618	prompt	n/a	momentum joan pair tokyo\n
406.7045	0.059	813409	keystroke_m	m	n/a
406.9885	0.075	813977	keystroke_o	o	n/a
407.2585	0.0605	814517	keystroke_m	m	n/a
407.754	0.075	815508	keystroke_e	e	n/a
407.889	0.075	815778	keystroke_n	n	n/a
408.324	0.0745	816648	keystroke_t	t	n/a
408.429	0.06	816858	keystroke_u	u	n/a
408.669	0.0595	817338	keystroke_m	m	n/a
408.8785	0.075	817757	keystroke_Key.space	Key.space	n/a
409.5995	0.045	819199	keystroke_j	j	n/a
410.409	0.075	820818	keystroke_o	o	n/a
410.559	0.09	821118	keystroke_a	a	n/a
410.694	0.06	821388	keystroke_n	n	n/a
410.889	0.075	821778	keystroke_Key.space	Key.space	n/a
411.4435	0.09	822887	keystroke_p	p	n/a
411.5635	0.105	823127	keystroke_a	a	n/a
411.7735	0.105	823547	keystroke_i	i	n/a
412.1645	0.0745	824329	keystroke_r	r	n/a
412.269	0.075	824538	keystroke_Key.space	Key.space	n/a
413.064	0.075	826128	keystroke_t	t	n/a
413.229	0.0905	826458	keystroke_o	o	n/a
413.5295	0.0595	827059	keystroke_k	k	n/a
413.919	0.09	827838	keystroke_y	y	n/a
414.189	0.06	828378	keystroke_p	p	n/a
414.414	0.015	828828	keystroke_o	o	n/a
414.774	0.135	829548	keystroke_Key.backspace	Key.backspace	n/a
414.999	0.1645	829998	keystroke_o	o	n/a
415.569	0.09	831138	keystroke_Key.backspace	Key.backspace	n/a
415.719	0.105	831438	keystroke_Key.backspace	Key.backspace	n/a
415.914	0.075	831828	keystroke_o	o	n/a
416.2885	0.09	832577	keystroke_Key.enter	Key.enter	n/a
416.384	9.9415	832768	prompt	n/a	accepted quarters blocks officials\n
417.039	0.12	834078	keystroke_a	a	n/a
417.339	0.045	834678	keystroke_c	c	n/a
417.579	0.0895	835158	keystroke_e	e	n/a
418.0735	0.105	836147	keystroke_Key.backspace	Key.backspace	n/a
418.1485	0.105	836297	keystroke_c	c	n/a
418.2985	0.12	836597	keystroke_e	e	n/a
419.0195	0.059	838039	keystroke_p	p	n/a
419.1535	0.06	838307	keystroke_t	t	n/a
419.319	0.06	838638	keystroke_e	e	n/a
419.484	0.105	838968	keystroke_d	d	n/a
419.694	0.075	839388	keystroke_Key.space	Key.space	n/a
420.789	0.075	841578	keystroke_q	q	n/a
420.969	0.075	841938	keystroke_u	u	n/a
421.194	0.075	842388	keystroke_a	a	n/a
421.4045	0.06	842809	keystroke_r	r	n/a
421.5695	0.06	843139	keystroke_t	t	n/a
421.7045	0.1345	843409	keystroke_e	e	n/a
421.794	0.075	843588	keystroke_r	r	n/a
421.989	0.09	843978	keystroke_s	s	n/a
422.094	0.075	844188	keystroke_Key.space	Key.space	n/a
422.799	0.045	845598	keystroke_b	b	n/a
423.024	0.0595	846048	keystroke_l	l	n/a
423.204	0.075	846408	keystroke_o	o	n/a
423.324	0.06	846648	keystroke_c	c	n/a
423.429	0.09	846858	keystroke_k	k	n/a
423.564	0.075	847128	keystroke_s	s	n/a
423.684	0.06	847368	keystroke_Key.space	Key.space	n/a
424.8085	0.105	849617	keystroke_o	o	n/a
425.0785	0.03	850157	keystroke_f	f	n/a
425.1685	0.06	850337	keystroke_f	f	n/a
425.2735	0.075	850547	keystroke_i	i	n/a
425.3635	0.075	850727	keystroke_c	c	n/a
425.4535	0.09	850907	keystroke_i	i	n/a
425.5445	0.074	851089	keystroke_a	a	n/a
425.6635	0.135	851327	keystroke_l	l	n/a
425.8285	0.09	851657	keystroke_s	s	n/a
426.234	0.0895	852468	keystroke_Key.enter	Key.enter	n/a
426.329	7.5265	852658	prompt	n/a	merchants bidding identify decade\n
427.1935	0.06	854387	keystroke_m	m	n/a
427.3135	0.0905	854627	keystroke_e	e	n/a
427.464	0.06	854928	keystroke_r	r	n/a
427.674	0.075	855348	keystroke_c	c	n/a
427.764	0.06	855528	keystroke_h	h	n/a
427.869	0.075	855738	keystroke_a	a	n/a
427.989	0.06	855978	keystroke_n	n	n/a
428.094	0.045	856188	keystroke_t	t	n/a
428.259	0.06	856518	keystroke_s	s	n/a
428.364	0.075	856728	keystroke_Key.space	Key.space	n/a
429.204	0.06	858408	keystroke_b	b	n/a
429.3845	0.074	858769	keystroke_i	i	n/a
429.6985	0.015	859397	keystroke_d	d	n/a
429.7895	0.06	859579	keystroke_d	d	n/a
429.8935	0.1355	859787	keystroke_i	i	n/a
429.954	0.09	859908	keystroke_n	n	n/a
430.059	0.06	860118	keystroke_g	g	n/a
430.164	0.09	860328	keystroke_Key.space	Key.space	n/a
430.689	0.075	861378	keystroke_i	i	n/a
430.914	0.06	861828	keystroke_d	d	n/a
431.079	0.09	862158	keystroke_e	e	n/a
431.184	0.045	862368	keystroke_n	n	n/a
431.289	0.0745	862578	keystroke_t	t	n/a
431.4085	0.105	862817	keystroke_i	i	n/a
431.5585	0.075	863117	keystroke_f	f	n/a
431.7995	0.074	863599	keystroke_y	y	n/a
431.9335	0.075	863867	keystroke_Key.space	Key.space	n/a
432.654	0.045	865308	keystroke_d	d	n/a
432.819	0.075	865638	keystroke_e	e	n/a
433.014	0.09	866028	keystroke_c	c	n/a
433.119	0.12	866238	keystroke_a	a	n/a
433.3735	0.045	866747	keystroke_d	d	n/a
433.5235	0.06	867047	keystroke_e	e	n/a
433.7185	0.135	867437	keystroke_Key.enter	Key.enter	n/a
433.8585	8.742	867717	prompt	n/a	radical raid promptly moving\n
434.6785	0.045	869357	keystroke_r	r	n/a
434.8285	0.06	869657	keystroke_a	a	n/a
435.0235	0.075	870047	keystroke_d	d	n/a
435.1435	0.075	870287	keystroke_i	i	n/a
435.2335	0.075	870467	keystroke_c	c	n/a
435.3535	0.0905	870707	keystroke_a	a	n/a
435.474	0.09	870948	keystroke_l	l	n/a
435.683	0.061	871366	keystroke_Key.space	Key.space	n/a
436.374	0.06	872748	keystroke_r	r	n/a
436.524	0.075	873048	keystroke_a	a	n/a
436.644	0.09	873288	keystroke_i	i	n/a
436.839	0.06	873678	keystroke_d	d	n/a
436.944	0.0595	873888	keystroke_Key.space	Key.space	n/a
437.4385	0.09	874877	keystroke_p	p	n/a
437.6785	0.06	875357	keystroke_r	r	n/a
437.8585	0.06	875717	keystroke_o	o	n/a
438.0985	0.075	876197	keystroke_m	m	n/a
438.2935	0.0905	876587	keystroke_p	p	n/a
438.429	0.0755	876858	keystroke_t	t	n/a
438.609	0.06	877218	keystroke_y	y	n/a
438.729	0.09	877458	keystroke_l	l	n/a
438.939	0.075	877878	keystroke_Key.space	Key.space	n/a
439.314	0.06	878628	keystroke_Key.backspace	Key.backspace	n/a
439.479	0.0595	878958	keystroke_Key.backspace	Key.backspace	n/a
439.9435	0.075	879887	keystroke_Key.backspace	Key.backspace	n/a
440.124	0.074	880248	keystroke_l	l	n/a
440.2295	0.1035	880459	keystroke_y	y	n/a
440.438	0.06	880876	keystroke_Key.space	Key.space	n/a
441.0385	0.075	882077	keystroke_i	i	n/a
441.323	0.075	882646	keystroke_Key.backspace	Key.backspace	n/a
441.5495	0.045	883099	keystroke_m	m	n/a
441.6695	0.089	883339	keystroke_o	o	n/a
441.9545	0.059	883909	keystroke_v	v	n/a
442.0585	0.12	884117	keystroke_i	i	n/a
442.1345	0.074	884269	keystroke_n	n	n/a
442.2235	0.076	884447	keystroke_g	g	n/a
442.5085	0.09	885017	keystroke_Key.enter	Key.enter	n/a
442.6035	8.067	885207	prompt	n/a	forests rare dont report\n
443.6035	0.046	887207	keystroke_f	f	n/a
443.6795	0.09	887359	keystroke_o	o	n/a
443.7985	0.061	887597	keystroke_r	r	n/a
443.9795	0.059	887959	keystroke_e	e	n/a
444.2195	0.09	888439	keystroke_s	s	n/a
444.4885	0.061	888977	keystroke_t	t	n/a
444.684	0.06	889368	keystroke_s	s	n/a
444.834	0.075	889668	keystroke_Key.space	Key.space	n/a
445.4345	0.06	890869	keystroke_r	r	n/a
445.5685	0.09	891137	keystroke_a	a	n/a
445.794	0.15	891588	keystroke_r	r	n/a
445.899	0.09	891798	keystroke_e	e	n/a
446.049	0.075	892098	keystroke_Key.space	Key.space	n/a
446.469	0.045	892938	keystroke_f	f	n/a
446.8285	0.09	893657	keystroke_Key.backspace	Key.backspace	n/a
446.9785	0.09	893957	keystroke_d	d	n/a
447.1585	0.15	894317	keystroke_o	o	n/a
447.2485	0.09	894497	keystroke_n	n	n/a
447.3235	0.09	894647	keystroke_t	t	n/a
447.4885	0.09	894977	keystroke_Key.space	Key.space	n/a
449.3335	0.135	898667	keystroke_r	r	n/a
449.4085	0.09	898817	keystroke_e	e	n/a
449.7535	0.15	899507	keystroke_p	p	n/a
449.8285	0.105	899657	keystroke_o	o	n/a
449.9485	0.075	899897	keystroke_r	r	n/a
450.1135	0.075	900227	keystroke_t	t	n/a
450.549	0.12	901098	keystroke_Key.enter	Key.enter	n/a
450.674	9.687	901348	prompt	n/a	wrap incredible printable upgrades\n
451.5395	0.074	903079	keystroke_w	w	n/a
451.7035	0.06	903407	keystroke_r	r	n/a
451.8985	0.075	903797	keystroke_a	a	n/a
452.0335	0.075	904067	keystroke_p	p	n/a
452.9785	0.06	905957	keystroke_Key.space	Key.space	n/a
453.2785	0.075	906557	keystroke_i	i	n/a
453.4585	0.075	906917	keystroke_n	n	n/a
453.5635	0.075	907127	keystroke_c	c	n/a
453.7585	0.075	907517	keystroke_r	r	n/a
453.9085	0.06	907817	keystroke_e	e	n/a
454.0585	0.09	908117	keystroke_d	d	n/a
454.1495	0.089	908299	keystroke_i	i	n/a
454.3435	0.06	908687	keystroke_b	b	n/a
454.5385	0.09	909077	keystroke_l	l	n/a
454.6435	0.06	909287	keystroke_e	e	n/a
454.7485	0.06	909497	keystroke_Key.space	Key.space	n/a
455.214	0.09	910428	keystroke_p	p	n/a
455.469	0.075	910938	keystroke_r	r	n/a
456.0085	0.075	912017	keystroke_i	i	n/a
456.2185	0.06	912437	keystroke_n	n	n/a
456.3085	0.06	912617	keystroke_t	t	n/a
456.5035	0.075	913007	keystroke_a	a	n/a
456.6685	0.0605	913337	keystroke_b	b	n/a
456.864	0.105	913728	keystroke_l	l	n/a
456.954	0.06	913908	keystroke_e	e	n/a
457.088	0.0605	914176	keystroke_Key.space	Key.space	n/a
457.9135	0.045	915827	keystroke_u	u	n/a
458.0785	0.06	916157	keystroke_p	p	n/a
458.5435	0.06	917087	keystroke_g	g	n/a
458.7235	0.06	917447	keystroke_r	r	n/a
458.9045	0.074	917809	keystroke_a	a	n/a
459.0985	0.075	918197	keystroke_d	d	n/a
459.2785	0.045	918557	keystroke_e	e	n/a
459.4435	0.06	918887	keystroke_s	s	n/a
460.2685	0.091	920537	keystroke_Key.enter	Key.enter	n/a
460.3645	8.021	920729	prompt	n/a	satisfaction border copied shoe\n
461.1235	0.075	922247	keystroke_s	s	n/a
461.3335	0.09	922667	keystroke_a	a	n/a
461.5135	0.06	923027	keystroke_t	t	n/a
461.6935	0.09	923387	keystroke_i	i	n/a
461.8885	0.06	923777	keystroke_s	s	n/a
462.0535	0.045	924107	keystroke_f	f	n/a
462.2185	0.09	924437	keystroke_a	a	n/a
462.2785	0.075	924557	keystroke_c	c	n/a
462.4885	0.0755	924977	keystroke_t	t	n/a
462.639	0.105	925278	keystroke_i	i	n/a
462.699	0.105	925398	keystroke_o	o	n/a
462.879	0.09	925758	keystroke_n	n	n/a
463.104	0.09	926208	keystroke_Key.space	Key.space	n/a
463.809	0.06	927618	keystroke_b	b	n/a
463.989	0.075	927978	keystroke_o	o	n/a
464.094	0.045	928188	keystroke_r	r	n/a
464.289	0.045	928578	keystroke_d	d	n/a
464.499	0.06	928998	keystroke_e	e	n/a
464.559	0.075	929118	keystroke_r	r	n/a
464.664	0.075	929328	keystroke_Key.space	Key.space	n/a
465.1285	0.06	930257	keystroke_c	c	n/a
465.5035	0.075	931007	keystroke_o	o	n/a
465.7135	0.046	931427	keystroke_p	p	n/a
465.8635	0.075	931727	keystroke_i	i	n/a
466.0135	0.075	932027	keystroke_e	e	n/a
466.1935	0.09	932387	keystroke_d	d	n/a
466.3135	0.06	932627	keystroke_Key.space	Key.space	n/a
466.9435	0.06	933887	keystroke_s	s	n/a
467.1985	0.03	934397	keystroke_h	h	n/a
467.334	0.09	934668	keystroke_o	o	n/a
467.469	0.015	934938	keystroke_w	w	n/a
467.859	0.105	935718	keystroke_Key.backspace	Key.backspace	n/a
467.934	0.09	935868	keystroke_e	e	n/a
468.294	0.09	936588	keystroke_Key.enter	Key.enter	n/a
468.3885	9.012	936777	prompt	n/a	particles probe physicians belly\n
469.104	0.0895	938208	keystroke_p	p	n/a
469.1785	0.12	938357	keystroke_a	a	n/a
469.374	0.0595	938748	keystroke_r	r	n/a
469.5535	0.06	939107	keystroke_t	t	n/a
469.6285	0.106	939257	keystroke_i	i	n/a
469.7795	0.075	939559	keystroke_c	c	n/a
470.0795	0.075	940159	keystroke_l	l	n/a
470.1845	0.06	940369	keystroke_e	e	n/a
470.3485	0.105	940697	keystroke_s	s	n/a
470.4685	0.06	940937	keystroke_Key.space	Key.space	n/a
471.0235	0.075	942047	keystroke_p	p	n/a
471.1585	0.06	942317	keystroke_r	r	n/a
471.2485	0.1055	942497	keystroke_o	o	n/a
471.564	0.075	943128	keystroke_b	b	n/a
471.759	0.075	943518	keystroke_e	e	n/a
471.864	0.09	943728	keystroke_Key.space	Key.space	n/a
472.6885	0.105	945377	keystroke_p	p	n/a
472.9285	0.045	945857	keystroke_h	h	n/a
473.214	0.075	946428	keystroke_y	y	n/a
473.424	0.09	946848	keystroke_s	s	n/a
473.6485	0.09	947297	keystroke_i	i	n/a
473.874	0.09	947748	keystroke_c	c	n/a
474.444	0.09	948888	keystroke_i	i	n/a
474.849	0.09	949698	keystroke_a	a	n/a
474.969	0.09	949938	keystroke_n	n	n/a
475.104	0.075	950208	keystroke_s	s	n/a
475.434	0.075	950868	keystroke_Key.space	Key.space	n/a
476.244	0.06	952488	keystroke_b	b	n/a
476.3345	0.075	952669	keystroke_e	e	n/a
476.5585	0.015	953117	keystroke_l	l	n/a
476.6635	0.09	953327	keystroke_l	l	n/a
476.8135	0.06	953627	keystroke_y	y	n/a
477.2935	0.1055	954587	keystroke_Key.enter	Key.enter	n/a
477.4065	11.544	954813	prompt	n/a	cornell thing barcelona subsequently\n
478.209	0.03	956418	keystroke_c	c	n/a
478.284	0.105	956568	keystroke_o	o	n/a
478.449	0.045	956898	keystroke_r	r	n/a
478.599	0.075	957198	keystroke_n	n	n/a
478.734	0.074	957468	keystroke_e	e	n/a
478.884	0.045	957768	keystroke_l	l	n/a
479.0035	0.09	958007	keystroke_l	l	n/a
479.2435	0.0605	958487	keystroke_Key.space	Key.space	n/a
479.6345	0.045	959269	keystroke_t	t	n/a
479.6945	0.105	959389	keystroke_h	h	n/a
479.7845	0.1045	959569	keystroke_i	i	n/a
479.949	0.105	959898	keystroke_n	n	n/a
480.099	0.075	960198	keystroke_g	g	n/a
480.8185	0.075	961637	keystroke_Key.space	Key.space	n/a
481.434	0.06	962868	keystroke_n	n	n/a
481.809	0.09	963618	keystroke_Key.backspace	Key.backspace	n/a
482.079	0.06	964158	keystroke_b	b	n/a
482.199	0.09	964398	keystroke_a	a	n/a
482.334	0.075	964668	keystroke_r	r	n/a
482.559	0.075	965118	keystroke_c	c	n/a
482.724	0.06	965448	keystroke_e	e	n/a
482.829	0.1195	965658	keystroke_l	l	n/a
483.0535	0.0905	966107	keystroke_o	o	n/a
483.294	0.0745	966588	keystroke_n	n	n/a
483.5785	0.09	967157	keystroke_a	a	n/a
483.7285	0.06	967457	keystroke_Key.space	Key.space	n/a
485.1835	0.09	970367	keystroke_s	s	n/a
485.3935	0.09	970787	keystroke_u	u	n/a
486.519	0.06	973038	keystroke_b	b	n/a
486.699	0.06	973398	keystroke_s	s	n/a
486.894	0.06	973788	keystroke_e	e	n/a
487.239	0.06	974478	keystroke_q	q	n/a
487.434	0.09	974868	keystroke_u	u	n/a
487.629	0.135	975258	keystroke_e	e	n/a
487.779	0.09	975558	keystroke_n	n	n/a
487.929	0.09	975858	keystroke_t	t	n/a
488.094	0.135	976188	keystroke_l	l	n/a
488.244	0.09	976488	keystroke_y	y	n/a
488.8285	0.12	977657	keystroke_Key.enter	Key.enter	n/a
488.9535	6.102	977907	prompt	n/a	user rolled they've messaging\n
489.729	0.09	979458	keystroke_u	u	n/a
489.819	0.0745	979638	keystroke_s	s	n/a
490.0135	0.06	980027	keystroke_e	e	n/a
490.1485	0.09	980297	keystroke_r	r	n/a
490.2685	0.075	980537	keystroke_Key.space	Key.space	n/a
490.7335	0.105	981467	keystroke_r	r	n/a
490.9435	0.075	981887	keystroke_o	o	n/a
491.1385	0.045	982277	keystroke_l	l	n/a
491.2585	0.105	982517	keystroke_l	l	n/a
491.3785	0.045	982757	keystroke_e	e	n/a
491.5135	0.105	983027	keystroke_d	d	n/a
491.6335	0.06	983267	keystroke_Key.space	Key.space	n/a
492.009	0.075	984018	keystroke_t	t	n/a
492.114	0.075	984228	keystroke_h	h	n/a
492.204	0.075	984408	keystroke_e	e	n/a
492.414	0.045	984828	keystroke_y	y	n/a
492.6545	0.089	985309	keystroke_'	'	n/a
492.789	0.075	985578	keystroke_v	v	n/a
492.879	0.075	985758	keystroke_e	e	n/a
492.998	0.075	985996	keystroke_Key.space	Key.space	n/a
493.359	0.075	986718	keystroke_m	m	n/a
493.524	0.075	987048	keystroke_e	e	n/a
493.719	0.06	987438	keystroke_s	s	n/a
493.839	0.075	987678	keystroke_s	s	n/a
493.944	0.0895	987888	keystroke_a	a	n/a
494.1535	0.09	988307	keystroke_g	g	n/a
494.3035	0.195	988607	keystroke_i	i	n/a
494.4085	0.12	988817	keystroke_n	n	n/a
494.5735	0.075	989147	keystroke_g	g	n/a
494.9485	0.105	989897	keystroke_Key.enter	Key.enter	n/a
495.0585	7.812	990117	prompt	n/a	bonds diversity thinks korea\n
495.8635	0.06	991727	keystroke_b	b	n/a
496.0435	0.12	992087	keystroke_o	o	n/a
496.1185	0.105	992237	keystroke_n	n	n/a
496.2985	0.06	992597	keystroke_d	d	n/a
496.4935	0.06	992987	keystroke_s	s	n/a
496.6135	0.075	993227	keystroke_Key.space	Key.space	n/a
497.1385	0.06	994277	keystroke_d	d	n/a
497.2735	0.075	994547	keystroke_i	i	n/a
497.4835	0.045	994967	keystroke_v	v	n/a
497.6335	0.09	995267	keystroke_e	e	n/a
497.6935	0.06	995387	keystroke_r	r	n/a
497.8585	0.075	995717	keystroke_s	s	n/a
498.0085	0.075	996017	keystroke_i	i	n/a
498.0985	0.06	996197	keystroke_t	t	n/a
498.2785	0.06	996557	keystroke_y	y	n/a
498.3535	0.09	996707	keystroke_Key.space	Key.space	n/a
498.6985	0.06	997397	keystroke_t	t	n/a
498.7735	0.12	997547	keystroke_h	h	n/a
499.3135	0.09	998627	keystroke_i	i	n/a
499.524	0.06	999048	keystroke_n	n	n/a
499.689	0.09	999378	keystroke_k	k	n/a
500.214	0.075	1000428	keystroke_s	s	n/a
500.334	0.06	1000668	keystroke_Key.space	Key.space	n/a
501.323	0.076	1002646	keystroke_k	k	n/a
501.519	0.06	1003038	keystroke_o	o	n/a
501.654	0.09	1003308	keystroke_r	r	n/a
501.804	0.09	1003608	keystroke_e	e	n/a
502.014	0.075	1004028	keystroke_a	a	n/a
502.7935	0.0755	1005587	keystroke_Key.enter	Key.enter	n/a
502.8755	9.0845	1005751	prompt	n/a	goals receipt pull ipaq\n
503.904	0.045	1007808	keystroke_g	g	n/a
504.024	0.075	1008048	keystroke_o	o	n/a
504.159	0.075	1008318	keystroke_a	a	n/a
504.309	0.105	1008618	keystroke_l	l	n/a
504.429	0.09	1008858	keystroke_s	s	n/a
504.564	0.075	1009128	keystroke_Key.space	Key.space	n/a
505.149	0.12	1010298	keystroke_r	r	n/a
505.224	0.1045	1010448	keystroke_e	e	n/a
505.4635	0.06	1010927	keystroke_c	c	n/a
505.599	0.075	1011198	keystroke_e	e	n/a
505.764	0.06	1011528	keystroke_i	i	n/a
506.004	0.09	1012008	keystroke_p	p	n/a
506.154	0.0755	1012308	keystroke_t	t	n/a
506.3035	0.075	1012607	keystroke_Key.space	Key.space	n/a
507.1135	0.105	1014227	keystroke_p	p	n/a
507.324	0.06	1014648	keystroke_u	u	n/a
507.534	0.06	1015068	keystroke_l	l	n/a
507.654	0.09	1015308	keystroke_l	l	n/a
507.864	0.06	1015728	keystroke_Key.space	Key.space	n/a
508.044	0.075	1016088	keystroke_i	i	n/a
508.149	0.105	1016298	keystroke_r	r	n/a
508.404	0.09	1016808	keystroke_a	a	n/a
508.9585	0.105	1017917	keystroke_Key.backspace	Key.backspace	n/a
509.4835	0.075	1018967	keystroke_Key.backspace	Key.backspace	n/a
510.1885	0.06	1020377	keystroke_p	p	n/a
510.474	0.09	1020948	keystroke_a	a	n/a
510.9685	0.075	1021937	keystroke_q	q	n/a
511.884	0.075	1023768	keystroke_Key.enter	Key.enter	n/a
511.963	9.9725	1023926	prompt	n/a	define live specials headquarters\n
513.3235	0.015	1026647	keystroke_d	d	n/a
513.4285	0.06	1026857	keystroke_e	e	n/a
513.5635	0.06	1027127	keystroke_f	f	n/a
513.7135	0.15	1027427	keystroke_i	i	n/a
513.8035	0.09	1027607	keystroke_n	n	n/a
513.9985	0.075	1027997	keystroke_e	e	n/a
514.1035	0.075	1028207	keystroke_Key.space	Key.space	n/a
514.839	0.045	1029678	keystroke_l	l	n/a
514.854	0.09	1029708	keystroke_i	i	n/a
515.439	0.045	1030878	keystroke_v	v	n/a
515.604	0.075	1031208	keystroke_e	e	n/a
515.709	0.0745	1031418	keystroke_Key.space	Key.space	n/a
516.2635	0.075	1032527	keystroke_s	s	n/a
516.3685	0.09	1032737	keystroke_p	p	n/a
516.5035	0.06	1033007	keystroke_e	e	n/a
516.6535	0.075	1033307	keystroke_c	c	n/a
516.7585	0.09	1033517	keystroke_i	i	n/a
516.8785	0.075	1033757	keystroke_a	a	n/a
517.0285	0.105	1034057	keystroke_l	l	n/a
517.1635	0.075	1034327	keystroke_s	s	n/a
517.2985	0.06	1034597	keystroke_Key.space	Key.space	n/a
518.0185	0.06	1036037	keystroke_h	h	n/a
518.1085	0.075	1036217	keystroke_e	e	n/a
518.2885	0.075	1036577	keystroke_a	a	n/a
518.4835	0.0455	1036967	keystroke_d	d	n/a
518.9785	0.0905	1037957	keystroke_q	q	n/a
519.159	0.06	1038318	keystroke_u	u	n/a
519.549	0.0745	1039098	keystroke_a	a	n/a
519.8935	0.076	1039787	keystroke_t	t	n/a
520.6885	0.09	1041377	keystroke_Key.backspace	Key.backspace	n/a
520.8095	0.089	1041619	keystroke_r	r	n/a
521.0485	0.06	1042097	keystroke_t	t	n/a
521.2585	0.12	1042517	keystroke_e	e	n/a
521.3185	0.105	1042637	keystroke_r	r	n/a
521.5135	0.09	1043027	keystroke_s	s	n/a
521.8585	0.075	1043717	keystroke_Key.enter	Key.enter	n/a
521.9385	12.357	1043877	prompt	n/a	truck paintings fabulous swaziland\n
522.879	0.06	1045758	keystroke_r	r	n/a
523.4485	0.105	1046897	keystroke_Key.backspace	Key.backspace	n/a
523.5545	0.059	1047109	keystroke_t	t	n/a
523.7185	0.075	1047437	keystroke_r	r	n/a
523.8385	0.105	1047677	keystroke_u	u	n/a
524.0485	0.09	1048097	keystroke_c	c	n/a
524.2735	0.045	1048547	keystroke_k	k	n/a
524.7835	0.06	1049567	keystroke_Key.space	Key.space	n/a
525.1585	0.09	1050317	keystroke_p	p	n/a
525.2935	0.09	1050587	keystroke_a	a	n/a
525.5335	0.09	1051067	keystroke_i	i	n/a
525.7735	0.045	1051547	keystroke_n	n	n/a
525.8935	0.075	1051787	keystroke_t	t	n/a
526.0435	0.15	1052087	keystroke_i	i	n/a
526.1185	0.09	1052237	keystroke_n	n	n/a
526.2385	0.09	1052477	keystroke_g	g	n/a
526.4635	0.105	1052927	keystroke_s	s	n/a
526.5535	0.09	1053107	keystroke_Key.space	Key.space	n/a
527.424	0.06	1054848	keystroke_f	f	n/a
527.559	0.09	1055118	keystroke_a	a	n/a
527.829	0.06	1055658	keystroke_b	b	n/a
528.024	0.0595	1056048	keystroke_u	u	n/a
528.2185	0.0755	1056437	keystroke_l	l	n/a
528.519	0.1505	1057038	keystroke_o	o	n/a
528.609	0.1195	1057218	keystroke_u	u	n/a
529.404	0.0745	1058808	keystroke_s	s	n/a
529.5095	0.074	1059019	keystroke_Key.space	Key.space	n/a
530.4835	0.06	1060967	keystroke_s	s	n/a
530.7685	0.0155	1061537	keystroke_a	a	n/a
531.309	0.0595	1062618	keystroke_Key.backspace	Key.backspace	n/a
531.6085	0.09	1063217	keystroke_w	w	n/a
531.849	0.075	1063698	keystroke_a	a	n/a
532.5095	0.089	1065019	keystroke_z	z	n/a
533.0195	0.075	1066039	keystroke_i	i	n/a
533.2745	0.074	1066549	keystroke_l	l	n/a
533.4085	0.09	1066817	keystroke_a	a	n/a
533.5585	0.075	1067117	keystroke_n	n	n/a
533.6635	0.09	1067327	keystroke_d	d	n/a
534.2335	0.06	1068467	keystroke_Key.enter	Key.enter	n/a
534.2985	7.6025	1068597	prompt	n/a	weak dresses encounter failed\n
534.969	0.09	1069938	keystroke_w	w	n/a
535.164	0.045	1070328	keystroke_e	e	n/a
535.3285	0.075	1070657	keystroke_a	a	n/a
535.6595	0.075	1071319	keystroke_k	k	n/a
535.8685	0.06	1071737	keystroke_Key.space	Key.space	n/a
536.484	0.045	1072968	keystroke_d	d	n/a
536.664	0.12	1073328	keystroke_r	r	n/a
536.799	0.075	1073598	keystroke_e	e	n/a
537.009	0.045	1074018	keystroke_s	s	n/a
537.114	0.075	1074228	keystroke_s	s	n/a
537.294	0.06	1074588	keystroke_e	e	n/a
537.474	0.06	1074948	keystroke_s	s	n/a
537.6085	0.09	1075217	keystroke_Key.space	Key.space	n/a
538.0135	0.075	1076027	keystroke_e	e	n/a
538.1485	0.075	1076297	keystroke_n	n	n/a
538.4335	0.06	1076867	keystroke_c	c	n/a
538.5235	0.1055	1077047	keystroke_o	o	n/a
538.599	0.075	1077198	keystroke_u	u	n/a
538.779	0.06	1077558	keystroke_n	n	n/a
538.854	0.09	1077708	keystroke_t	t	n/a
539.049	0.09	1078098	keystroke_e	e	n/a
539.109	0.09	1078218	keystroke_r	r	n/a
539.214	0.075	1078428	keystroke_Key.space	Key.space	n/a
539.6935	0.045	1079387	keystroke_g	g	n/a
540.549	0.09	1081098	keystroke_Key.backspace	Key.backspace	n/a
540.624	0.075	1081248	keystroke_f	f	n/a
540.819	0.09	1081638	keystroke_a	a	n/a
540.939	0.09	1081878	keystroke_i	i	n/a
541.149	0.09	1082298	keystroke_l	l	n/a
541.254	0.06	1082508	keystroke_e	e	n/a
541.419	0.0595	1082838	keystroke_d	d	n/a
541.809	0.0895	1083618	keystroke_Key.enter	Key.enter	n/a
541.904	12.342	1083808	prompt	n/a	outsourcing involved aquatic motherboard\n
543.129	0.135	1086258	keystroke_o	o	n/a
543.204	0.105	1086408	keystroke_u	u	n/a
543.4735	0.06	1086947	keystroke_t	t	n/a
543.8185	0.06	1087637	keystroke_s	s	n/a
544.0585	0.18	1088117	keystroke_o	o	n/a
544.1935	0.09	1088387	keystroke_u	u	n/a
544.404	0.0445	1088808	keystroke_r	r	n/a
544.6435	0.045	1089287	keystroke_c	c	n/a
544.7935	0.12	1089587	keystroke_i	i	n/a
544.8685	0.06	1089737	keystroke_n	n	n/a
544.9435	0.075	1089887	keystroke_g	g	n/a
545.0485	0.09	1090097	keystroke_Key.space	Key.space	n/a
546.1735	0.15	1092347	keystroke_i	i	n/a
546.2785	0.09	1092557	keystroke_n	n	n/a
546.7285	0.045	1093457	keystroke_v	v	n/a
546.8035	0.0905	1093607	keystroke_o	o	n/a
546.999	0.075	1093998	keystroke_l	l	n/a
547.089	0.0595	1094178	keystroke_v	v	n/a
547.2535	0.075	1094507	keystroke_e	e	n/a
547.4185	0.105	1094837	keystroke_d	d	n/a
547.5085	0.075	1095017	keystroke_Key.space	Key.space	n/a
548.334	0.045	1096668	keystroke_a	a	n/a
548.574	0.045	1097148	keystroke_q	q	n/a
549.8035	0.06	1099607	keystroke_u	u	n/a
550.434	0.09	1100868	keystroke_a	a	n/a
550.644	0.075	1101288	keystroke_t	t	n/a
550.749	0.105	1101498	keystroke_i	i	n/a
550.989	0.075	1101978	keystroke_c	c	n/a
551.079	0.06	1102158	keystroke_Key.space	Key.space	n/a
552.054	0.06	1104108	keystroke_m	m	n/a
552.234	0.09	1104468	keystroke_o	o	n/a
552.354	0.06	1104708	keystroke_t	t	n/a
552.459	0.075	1104918	keystroke_h	h	n/a
552.5785	0.09	1105157	keystroke_e	e	n/a
552.6235	0.075	1105247	keystroke_r	r	n/a
552.8635	0.06	1105727	keystroke_b	b	n/a
553.0435	0.075	1106087	keystroke_o	o	n/a
553.1635	0.12	1106327	keystroke_a	a	n/a
553.2385	0.06	1106477	keystroke_r	r	n/a
553.434	0.045	1106868	keystroke_d	d	n/a
554.124	0.1195	1108248	keystroke_Key.enter	Key.enter	n/a
554.2505	8.065	1108501	prompt	n/a	leone fails merchandise facility\n
555.1885	0.075	1110377	keystroke_l	l	n/a
555.3235	0.075	1110647	keystroke_e	e	n/a
555.4135	0.09	1110827	keystroke_o	o	n/a
555.6235	0.075	1111247	keystroke_n	n	n/a
555.7585	0.075	1111517	keystroke_e	e	n/a
555.8485	0.09	1111697	keystroke_Key.space	Key.space	n/a
556.5835	0.075	1113167	keystroke_f	f	n/a
556.6595	0.089	1113319	keystroke_a	a	n/a
556.7335	0.09	1113467	keystroke_i	i	n/a
556.929	0.105	1113858	keystroke_l	l	n/a
557.049	0.075	1114098	keystroke_s	s	n/a
557.169	0.074	1114338	keystroke_Key.space	Key.space	n/a
557.6185	0.09	1115237	keystroke_m	m	n/a
557.7385	0.075	1115477	keystroke_e	e	n/a
558.204	0.0745	1116408	keystroke_r	r	n/a
558.4435	0.045	1116887	keystroke_c	c	n/a
558.5335	0.06	1117067	keystroke_h	h	n/a
558.6535	0.075	1117307	keystroke_a	a	n/a
558.7585	0.075	1117517	keystroke_n	n	n/a
559.0585	0.045	1118117	keystroke_d	d	n/a
559.1335	0.09	1118267	keystroke_i	i	n/a
559.5235	0.06	1119047	keystroke_s	s	n/a
559.6735	0.09	1119347	keystroke_e	e	n/a
559.7785	0.075	1119557	keystroke_Key.space	Key.space	n/a
560.514	0.06	1121028	keystroke_f	f	n/a
560.694	0.075	1121388	keystroke_a	a	n/a
561.189	0.09	1122378	keystroke_c	c	n/a
561.339	0.075	1122678	keystroke_i	i	n/a
561.534	0.075	1123068	keystroke_l	l	n/a
561.699	0.09	1123398	keystroke_i	i	n/a
561.819	0.06	1123638	keystroke_t	t	n/a
561.969	0.075	1123938	keystroke_y	y	n/a
562.2235	0.09	1124447	keystroke_Key.enter	Key.enter	n/a
562.3195	6.866	1124639	prompt	n/a	also specials draws miles\n
562.9885	0.09	1125977	keystroke_a	a	n/a
563.0935	0.09	1126187	keystroke_l	l	n/a
563.2135	0.075	1126427	keystroke_s	s	n/a
563.3185	0.09	1126637	keystroke_o	o	n/a
563.5435	0.06	1127087	keystroke_Key.space	Key.space	n/a
563.9785	0.075	1127957	keystroke_s	s	n/a
564.0685	0.09	1128137	keystroke_p	p	n/a
564.2035	0.135	1128407	keystroke_e	e	n/a
564.3085	0.105	1128617	keystroke_c	c	n/a
564.6685	0.105	1129337	keystroke_i	i	n/a
564.968	0.09	1129936	keystroke_a	a	n/a
565.073	0.1205	1130146	keystroke_l	l	n/a
565.2535	0.09	1130507	keystroke_s	s	n/a
565.3735	0.075	1130747	keystroke_Key.space	Key.space	n/a
566.424	0.09	1132848	keystroke_d	d	n/a
566.679	0.06	1133358	keystroke_r	r	n/a
566.9335	0.09	1133867	keystroke_a	a	n/a
567.3985	0.045	1134797	keystroke_w	w	n/a
567.609	0.075	1135218	keystroke_s	s	n/a
567.713	0.075	1135426	keystroke_Key.space	Key.space	n/a
568.044	0.135	1136088	keystroke_m	m	n/a
568.133	0.136	1136266	keystroke_i	i	n/a
568.389	0.089	1136778	keystroke_l	l	n/a
568.464	0.059	1136928	keystroke_e	e	n/a
568.628	0.0905	1137256	keystroke_s	s	n/a
569.0785	0.1055	1138157	keystroke_Key.enter	Key.enter	n/a
569.1885	14.0665	1138377	prompt	n/a	liberty sheffield character employees\n
570.144	0.09	1140288	keystroke_l	l	n/a
570.339	0.075	1140678	keystroke_i	i	n/a
570.684	0.075	1141368	keystroke_b	b	n/a
570.804	0.105	1141608	keystroke_e	e	n/a
570.909	0.09	1141818	keystroke_r	r	n/a
571.149	0.075	1142298	keystroke_t	t	n/a
571.329	0.075	1142658	keystroke_y	y	n/a
571.464	0.09	1142928	keystroke_Key.space	Key.space	n/a
572.289	0.075	1144578	keystroke_s	s	n/a
572.574	0.075	1145148	keystroke_h	h	n/a
572.844	0.105	1145688	keystroke_e	e	n/a
573.219	0.075	1146438	keystroke_f	f	n/a
575.3035	0.137	1150607	keystroke_f	f	n/a
575.5285	0.075	1151057	keystroke_i	i	n/a
575.7835	0.06	1151567	keystroke_e	e	n/a
575.8735	0.105	1151747	keystroke_l	l	n/a
576.0085	0.09	1152017	keystroke_d	d	n/a
576.1285	0.075	1152257	keystroke_Key.space	Key.space	n/a
577.8985	0.06	1155797	keystroke_c	c	n/a
578.0785	0.06	1156157	keystroke_h	h	n/a
578.1985	0.075	1156397	keystroke_a	a	n/a
578.3785	0.06	1156757	keystroke_r	r	n/a
578.558	0.105	1157116	keystroke_a	a	n/a
578.679	0.03	1157358	keystroke_c	c	n/a
579.593	0.09	1159186	keystroke_t	t	n/a
579.803	0.105	1159606	keystroke_e	e	n/a
579.848	0.12	1159696	keystroke_r	r	n/a
579.983	0.09	1159966	keystroke_Key.space	Key.space	n/a
580.643	0.06	1161286	keystroke_e	e	n/a
580.718	0.09	1161436	keystroke_m	m	n/a
580.943	0.12	1161886	keystroke_p	p	n/a
581.033	0.09	1162066	keystroke_l	l	n/a
581.3185	0.0895	1162637	keystroke_o	o	n/a
581.678	0.09	1163356	keystroke_y	y	n/a
581.934	0.09	1163868	keystroke_e	e	n/a
582.264	0.075	1164528	keystroke_e	e	n/a
582.474	0.075	1164948	keystroke_s	s	n/a
583.179	0.075	1166358	keystroke_Key.enter	Key.enter	n/a
583.26	8.815	1166520	prompt	n/a	condos nylon coat girlfriend\n
584.123	0.075	1168246	keystroke_c	c	n/a
584.243	0.105	1168486	keystroke_o	o	n/a
584.468	0.075	1168936	keystroke_n	n	n/a
584.813	0.075	1169626	keystroke_d	d	n/a
584.903	0.105	1169806	keystroke_o	o	n/a
585.233	0.06	1170466	keystroke_s	s	n/a
585.3685	0.075	1170737	keystroke_Key.space	Key.space	n/a
586.1185	0.045	1172237	keystroke_n	n	n/a
586.4035	0.0755	1172807	keystroke_y	y	n/a
586.6885	0.09	1173377	keystroke_l	l	n/a
586.8985	0.09	1173797	keystroke_o	o	n/a
587.1685	0.075	1174337	keystroke_n	n	n/a
587.4235	0.06	1174847	keystroke_Key.space	Key.space	n/a
587.888	0.06	1175776	keystroke_c	c	n/a
587.978	0.1055	1175956	keystroke_o	o	n/a
588.1735	0.12	1176347	keystroke_a	a	n/a
588.4135	0.06	1176827	keystroke_t	t	n/a
588.5485	0.075	1177097	keystroke_Key.space	Key.space	n/a
589.748	0.075	1179496	keystroke_g	g	n/a
590.003	0.075	1180006	keystroke_i	i	n/a
590.258	0.045	1180516	keystroke_r	r	n/a
590.468	0.09	1180936	keystroke_l	l	n/a
590.754	0.045	1181508	keystroke_f	f	n/a
590.949	0.09	1181898	keystroke_r	r	n/a
591.0535	0.09	1182107	keystroke_i	i	n/a
591.249	0.105	1182498	keystroke_e	e	n/a
591.414	0.09	1182828	keystroke_n	n	n/a
591.564	0.075	1183128	keystroke_d	d	n/a
591.9685	0.105	1183937	keystroke_Key.enter	Key.enter	n/a
592.078	8.607	1184156	prompt	n/a	unable brown portland sean\n
593.0485	0.06	1186097	keystroke_a	a	n/a
593.5285	0.045	1187057	keystroke_Key.backspace	Key.backspace	n/a
593.6935	0.06	1187387	keystroke_u	u	n/a
593.8885	0.045	1187777	keystroke_n	n	n/a
594.0085	0.12	1188017	keystroke_a	a	n/a
594.2035	0.06	1188407	keystroke_b	b	n/a
594.414	0.075	1188828	keystroke_l	l	n/a
594.519	0.06	1189038	keystroke_e	e	n/a
594.639	0.075	1189278	keystroke_Key.space	Key.space	n/a
595.119	0.06	1190238	keystroke_b	b	n/a
595.284	0.0445	1190568	keystroke_r	r	n/a
595.3885	0.105	1190777	keystroke_o	o	n/a
595.7635	0.075	1191527	keystroke_w	w	n/a
595.8835	0.075	1191767	keystroke_n	n	n/a
596.0935	0.06	1192187	keystroke_Key.space	Key.space	n/a
597.323	0.091	1194646	keystroke_p	p	n/a
597.503	0.061	1195006	keystroke_o	o	n/a
597.668	0.06	1195336	keystroke_r	r	n/a
597.848	0.045	1195696	keystroke_t	t	n/a
597.998	0.09	1195996	keystroke_l	l	n/a
598.1335	0.0895	1196267	keystroke_a	a	n/a
598.253	0.09	1196506	keystroke_n	n	n/a
598.418	0.075	1196836	keystroke_d	d	n/a
598.5385	0.0745	1197077	keystroke_Key.space	Key.space	n/a
599.409	0.075	1198818	keystroke_s	s	n/a
599.589	0.06	1199178	keystroke_e	e	n/a
599.784	0.09	1199568	keystroke_a	a	n/a
599.919	0.09	1199838	keystroke_n	n	n/a
600.5785	0.105	1201157	keystroke_Key.enter	Key.enter	n/a
600.688	6.672	1201376	prompt	n/a	indie volt hobbies slope\n
601.4785	0.09	1202957	keystroke_i	i	n/a
601.6735	0.09	1203347	keystroke_n	n	n/a
601.9135	0.0595	1203827	keystroke_d	d	n/a
602.003	0.105	1204006	keystroke_i	i	n/a
602.243	0.075	1204486	keystroke_e	e	n/a
602.363	0.075	1204726	keystroke_Key.space	Key.space	n/a
602.9035	0.06	1205807	keystroke_v	v	n/a
602.9935	0.0755	1205987	keystroke_o	o	n/a
603.189	0.089	1206378	keystroke_l	l	n/a
603.339	0.06	1206678	keystroke_t	t	n/a
603.428	0.061	1206856	keystroke_Key.space	Key.space	n/a
604.479	0.075	1208958	keystroke_h	h	n/a
604.704	0.105	1209408	keystroke_o	o	n/a
605.1385	0.045	1210277	keystroke_b	b	n/a
605.2435	0.075	1210487	keystroke_b	b	n/a
605.423	0.105	1210846	keystroke_i	i	n/a
605.573	0.06	1211146	keystroke_e	e	n/a
605.7535	0.075	1211507	keystroke_s	s	n/a
605.8585	0.075	1211717	keystroke_Key.space	Key.space	n/a
606.3685	0.045	1212737	keystroke_s	s	n/a
606.4735	0.105	1212947	keystroke_l	l	n/a
606.6835	0.075	1213367	keystroke_o	o	n/a
606.8785	0.105	1213757	keystroke_p	p	n/a
606.9985	0.06	1213997	keystroke_e	e	n/a
607.2535	0.105	1214507	keystroke_Key.enter	Key.enter	n/a
607.3635	11.142	1214727	prompt	n/a	margaret striking prozac mitsubishi\n
608.5135	0.03	1217027	keystroke_m	m	n/a
608.664	0.0895	1217328	keystroke_a	a	n/a
608.8585	0.075	1217717	keystroke_r	r	n/a
609.489	0.09	1218978	keystroke_g	g	n/a
610.059	0.075	1220118	keystroke_a	a	n/a
610.239	0.045	1220478	keystroke_r	r	n/a
610.434	0.09	1220868	keystroke_e	e	n/a
610.614	0.06	1221228	keystroke_t	t	n/a
610.719	0.105	1221438	keystroke_Key.space	Key.space	n/a
611.2585	0.075	1222517	keystroke_s	s	n/a
611.4385	0.06	1222877	keystroke_t	t	n/a
611.6185	0.045	1223237	keystroke_r	r	n/a
611.7085	0.12	1223417	keystroke_i	i	n/a
612.2035	0.075	1224407	keystroke_k	k	n/a
612.4135	0.12	1224827	keystroke_i	i	n/a
612.4885	0.105	1224977	keystroke_n	n	n/a
612.6385	0.06	1225277	keystroke_g	g	n/a
612.7135	0.075	1225427	keystroke_Key.space	Key.space	n/a
613.2385	0.06	1226477	keystroke_p	p	n/a
613.4185	0.045	1226837	keystroke_r	r	n/a
613.5085	0.105	1227017	keystroke_o	o	n/a
614.2435	0.09	1228487	keystroke_z	z	n/a
614.4685	0.045	1228937	keystroke_a	a	n/a
614.7085	0.045	1229417	keystroke_c	c	n/a
614.8135	0.0755	1229627	keystroke_Key.space	Key.space	n/a
615.3235	0.075	1230647	keystroke_m	m	n/a
615.818	0.0605	1231636	keystroke_i	i	n/a
616.118	0.045	1232236	keystroke_t	t	n/a
616.3285	0.0595	1232657	keystroke_s	s	n/a
616.5385	0.06	1233077	keystroke_u	u	n/a
616.748	0.075	1233496	keystroke_b	b	n/a
616.943	0.1055	1233886	keystroke_i	i	n/a
617.0785	0.075	1234157	keystroke_s	s	n/a
617.379	0.045	1234758	keystroke_h	h	n/a
