onset	duration	sample	value	key	prompt_text
6.3775	0.012	12755	keystroke_Key.enter	Key.enter	n/a
6.415	9.5695	12830	prompt	n/a	the quick brown fox jumps over a lazy dog\n
7.585	0.0755	15170	keystroke_t	t	n/a
7.676	0.0745	15352	keystroke_h	h	n/a
7.7355	0.1495	15471	keystroke_e	e	n/a
7.84	0.1495	15680	keystroke_Key.space	Key.space	n/a
8.0195	0.1355	16039	keystroke_q	q	n/a
8.139	0.0765	16278	keystroke_u	u	n/a
8.305	0.06	16610	keystroke_i	i	n/a
8.35	0.105	16700	keystroke_c	c	n/a
8.47	0.1045	16940	keystroke_k	k	n/a
8.5895	0.1205	17179	keystroke_Key.space	Key.space	n/a
8.725	0.09	17450	keystroke_b	b	n/a
8.83	0.09	17660	keystroke_r	r	n/a
8.9345	0.09	17869	keystroke_o	o	n/a
8.9945	0.1055	17989	keystroke_w	w	n/a
9.1295	0.105	18259	keystroke_n	n	n/a
9.22	0.119	18440	keystroke_Key.space	Key.space	n/a
9.549	0.015	19098	keystroke_f	f	n/a
9.564	0.075	19128	keystroke_o	o	n/a
9.6835	0.1655	19367	keystroke_x	x	n/a
9.8625	0.075	19725	keystroke_Key.space	Key.space	n/a
9.9675	0.0905	19935	keystroke_j	j	n/a
10.103	0.0745	20206	keystroke_u	u	n/a
10.268	0.0895	20536	keystroke_m	m	n/a
10.4475	0.06	20895	keystroke_p	p	n/a
10.522	0.135	21044	keystroke_s	s	n/a
10.627	0.1215	21254	keystroke_Key.space	Key.space	n/a
11.153	0.0295	22306	keystroke_i	i	n/a
11.4815	0.03	22963	keystroke_v	v	n/a
12.2775	0.105	24555	keystroke_Key.backspace	Key.backspace	n/a
12.5025	0.075	25005	keystroke_Key.backspace	Key.backspace	n/a
13.043	0.106	26086	keystroke_o	o	n/a
13.209	0.09	26418	keystroke_v	v	n/a
13.4035	0.105	26807	keystroke_e	e	n/a
13.4785	0.119	26957	keystroke_r	r	n/a
13.5385	0.149	27077	keystroke_Key.space	Key.space	n/a
13.6725	0.1495	27345	keystroke_a	a	n/a
13.792	0.1355	27584	keystroke_Key.space	Key.space	n/a
13.9575	0.119	27915	keystroke_l	l	n/a
14.0915	0.1055	28183	keystroke_a	a	n/a
14.302	0.12	28604	keystroke_z	z	n/a
14.482	0.104	28964	keystroke_y	y	n/a
14.601	0.121	29202	keystroke_Key.space	Key.space	n/a
14.767	0.12	29534	keystroke_d	d	n/a
15.022	0.1345	30044	keystroke_o	o	n/a
15.292	0.075	30584	keystroke_g	g	n/a
15.907	0.075	31814	keystroke_Key.enter	Key.enter	n/a
15.9885	6.2645	31977	prompt	n/a	synthesis negative adelaide flesh\n
16.596	0.1065	33192	keystroke_s	s	n/a
16.7925	0.045	33585	keystroke_y	y	n/a
16.957	0.105	33914	keystroke_n	n	n/a
17.047	0.0895	34094	keystroke_t	t	n/a
17.1515	0.091	34303	keystroke_h	h	n/a
17.2125	0.0895	34425	keystroke_e	e	n/a
17.362	0.105	34724	keystroke_s	s	n/a
17.542	0.1045	35084	keystroke_i	i	n/a
17.6165	0.1505	35233	keystroke_s	s	n/a
17.797	0.1195	35594	keystroke_Key.space	Key.space	n/a
17.9315	0.1045	35863	keystroke_n	n	n/a
17.976	0.105	35952	keystroke_e	e	n/a
18.111	0.105	36222	keystroke_g	g	n/a
18.2465	0.1795	36493	keystroke_a	a	n/a
18.336	0.075	36672	keystroke_t	t	n/a
18.456	0.105	36912	keystroke_i	i	n/a
18.531	0.1045	37062	keystroke_v	v	n/a
18.6205	0.135	37241	keystroke_e	e	n/a
18.6805	0.1655	37361	keystroke_Key.space	Key.space	n/a
18.862	0.134	37724	keystroke_a	a	n/a
18.967	0.104	37934	keystroke_d	d	n/a
19.101	0.12	38202	keystroke_e	e	n/a
19.251	0.075	38502	keystroke_l	l	n/a
19.416	0.1345	38832	keystroke_a	a	n/a
19.5805	0.105	39161	keystroke_i	i	n/a
19.6865	0.074	39373	keystroke_d	d	n/a
19.837	0.135	39674	keystroke_e	e	n/a
19.927	0.09	39854	keystroke_Key.space	Key.space	n/a
20.0765	0.1205	40153	keystroke_f	f	n/a
20.227	0.0755	40454	keystroke_l	l	n/a
20.347	0.015	40694	keystroke_s	s	n/a
21.0375	0.0895	42075	keystroke_Key.backspace	Key.backspace	n/a
21.2175	0.135	42435	keystroke_e	e	n/a
21.3065	0.12	42613	keystroke_s	s	n/a
21.4415	0.091	42883	keystroke_h	h	n/a
22.1905	0.0605	44381	keystroke_Key.enter	Key.enter	n/a
22.2565	7.6605	44513	prompt	n/a	appointments mile centuries stop\n
22.8815	0.105	45763	keystroke_a	a	n/a
23.166	0.0755	46332	keystroke_p	p	n/a
23.302	0.1045	46604	keystroke_p	p	n/a
23.6765	0.0905	47353	keystroke_o	o	n/a
23.872	0.1195	47744	keystroke_i	i	n/a
23.9765	0.135	47953	keystroke_n	n	n/a
24.1265	0.09	48253	keystroke_t	t	n/a
24.2765	0.084	48553	keystroke_m	m	n/a
24.3665	0.0895	48733	keystroke_e	e	n/a
24.441	0.105	48882	keystroke_n	n	n/a
24.532	0.119	49064	keystroke_t	t	n/a
24.621	0.1205	49242	keystroke_s	s	n/a
24.7115	0.135	49423	keystroke_Key.space	Key.space	n/a
24.8165	0.15	49633	keystroke_m	m	n/a
24.9365	0.1795	49873	keystroke_i	i	n/a
25.0415	0.1505	50083	keystroke_l	l	n/a
25.1315	0.1355	50263	keystroke_s	s	n/a
25.282	0.1195	50564	keystroke_Key.space	Key.space	n/a
25.641	0.09	51282	keystroke_Key.backspace	Key.backspace	n/a
25.791	0.105	51582	keystroke_Key.backspace	Key.backspace	n/a
25.941	0.1195	51882	keystroke_e	e	n/a
26.0305	0.12	52061	keystroke_Key.space	Key.space	n/a
26.645	0.075	53290	keystroke_c	c	n/a
26.796	0.105	53592	keystroke_e	e	n/a
27.021	0.1195	54042	keystroke_t	t	n/a
27.4865	0.06	54973	keystroke_Key.backspace	Key.backspace	n/a
27.726	0.0905	55452	keystroke_n	n	n/a
27.8615	0.0745	55723	keystroke_t	t	n/a
28.0415	0.0745	56083	keystroke_u	u	n/a
28.131	0.1205	56262	keystroke_r	r	n/a
28.9265	0.0745	57853	keystroke_i	i	n/a
28.9715	0.1795	57943	keystroke_e	e	n/a
29.0465	0.165	58093	keystroke_s	s	n/a
29.121	0.2095	58242	keystroke_Key.space	Key.space	n/a
29.3015	0.15	58603	keystroke_s	s	n/a
29.4215	0.105	58843	keystroke_t	t	n/a
29.5115	0.1495	59023	keystroke_o	o	n/a
29.585	0.106	59170	keystroke_p	p	n/a
29.841	0.075	59682	keystroke_Key.enter	Key.enter	n/a
29.9225	4.839	59845	prompt	n/a	silk conversation parking arch\n
30.6355	0.1205	61271	keystroke_s	s	n/a
30.7255	0.1055	61451	keystroke_i	i	n/a
30.816	0.165	61632	keystroke_l	l	n/a
30.936	0.1195	61872	keystroke_k	k	n/a
31.1005	0.12	62201	keystroke_Key.space	Key.space	n/a
31.296	0.1345	62592	keystroke_c	c	n/a
31.4155	0.075	62831	keystroke_o	o	n/a
31.5805	0.105	63161	keystroke_n	n	n/a
31.7005	0.1055	63401	keystroke_v	v	n/a
31.956	0.12	63912	keystroke_e	e	n/a
32.031	0.135	64062	keystroke_r	r	n/a
32.151	0.105	64302	keystroke_s	s	n/a
32.3315	0.09	64663	keystroke_a	a	n/a
32.5115	0.0735	65023	keystroke_t	t	n/a
32.571	0.1805	65142	keystroke_i	i	n/a
32.631	0.1055	65262	keystroke_o	o	n/a
32.706	0.1205	65412	keystroke_n	n	n/a
32.8105	0.1355	65621	keystroke_Key.space	Key.space	n/a
32.991	0.0595	65982	keystroke_p	p	n/a
33.2615	0.1495	66523	keystroke_a	a	n/a
33.366	0.135	66732	keystroke_r	r	n/a
33.501	0.105	67002	keystroke_k	k	n/a
33.711	0.09	67422	keystroke_i	i	n/a
33.741	0.135	67482	keystroke_n	n	n/a
33.846	0.0895	67692	keystroke_g	g	n/a
33.9205	0.105	67841	keystroke_Key.space	Key.space	n/a
34.0405	0.21	68081	keystroke_a	a	n/a
34.1455	0.09	68291	keystroke_r	r	n/a
34.355	0.09	68710	keystroke_c	c	n/a
34.43	0.105	68860	keystroke_h	h	n/a
34.685	0.0745	69370	keystroke_Key.enter	Key.enter	n/a
34.7655	4.767	69531	prompt	n/a	robot guam boards sticks\n
35.377	0.089	70754	keystroke_r	r	n/a
35.481	0.0745	70962	keystroke_o	o	n/a
35.6605	0.06	71321	keystroke_b	b	n/a
35.826	0.075	71652	keystroke_o	o	n/a
35.916	0.105	71832	keystroke_t	t	n/a
36.006	0.12	72012	keystroke_Key.space	Key.space	n/a
36.7405	0.0755	73481	keystroke_g	g	n/a
36.831	0.09	73662	keystroke_u	u	n/a
36.922	0.089	73844	keystroke_a	a	n/a
37.041	0.0895	74082	keystroke_m	m	n/a
37.1605	0.1505	74321	keystroke_Key.space	Key.space	n/a
37.4315	0.0745	74863	keystroke_b	b	n/a
37.596	0.075	75192	keystroke_o	o	n/a
37.7605	0.1955	75521	keystroke_a	a	n/a
37.8965	0.1045	75793	keystroke_r	r	n/a
38.106	0.15	76212	keystroke_d	d	n/a
38.3905	0.09	76781	keystroke_s	s	n/a
38.5855	0.12	77171	keystroke_Key.space	Key.space	n/a
38.7055	0.15	77411	keystroke_s	s	n/a
38.8255	0.09	77651	keystroke_t	t	n/a
38.9305	0.0905	77861	keystroke_i	i	n/a
39.036	0.1195	78072	keystroke_c	c	n/a
39.1705	0.075	78341	keystroke_k	k	n/a
39.2755	0.1055	78551	keystroke_s	s	n/a
39.456	0.075	78912	keystroke_Key.enter	Key.enter	n/a
39.536	5.3965	79072	prompt	n/a	naturally were shakespeare shops\n
40.206	0.105	80412	keystroke_n	n	n/a
40.296	0.1045	80592	keystroke_a	a	n/a
40.4605	0.075	80921	keystroke_t	t	n/a
40.5505	0.105	81101	keystroke_u	u	n/a
40.6405	0.0895	81281	keystroke_r	r	n/a
40.76	0.0905	81520	keystroke_a	a	n/a
40.8805	0.0745	81761	keystroke_l	l	n/a
41.03	0.09	82060	keystroke_l	l	n/a
41.135	0.075	82270	keystroke_y	y	n/a
41.195	0.1355	82390	keystroke_Key.space	Key.space	n/a
41.3605	0.09	82721	keystroke_w	w	n/a
41.5555	0.0895	83111	keystroke_e	e	n/a
41.63	0.1655	83260	keystroke_r	r	n/a
41.7355	0.12	83471	keystroke_e	e	n/a
41.8105	0.135	83621	keystroke_Key.space	Key.space	n/a
41.9305	0.12	83861	keystroke_s	s	n/a
42.23	0.134	84460	keystroke_h	h	n/a
42.4245	0.105	84849	keystroke_a	a	n/a
42.5445	0.091	85089	keystroke_k	k	n/a
42.936	0.09	85872	keystroke_e	e	n/a
43.1895	0.106	86379	keystroke_s	s	n/a
43.3855	0.061	86771	keystroke_p	p	n/a
43.521	0.119	87042	keystroke_e	e	n/a
43.805	0.12	87610	keystroke_a	a	n/a
43.9855	0.105	87971	keystroke_r	r	n/a
44.0605	0.12	88121	keystroke_e	e	n/a
44.1955	0.1045	88391	keystroke_Key.space	Key.space	n/a
44.301	0.104	88602	keystroke_s	s	n/a
44.375	0.1055	88750	keystroke_h	h	n/a
44.5255	0.1645	89051	keystroke_o	o	n/a
44.5855	0.1195	89171	keystroke_p	p	n/a
44.735	0.09	89470	keystroke_s	s	n/a
44.855	0.075	89710	keystroke_Key.enter	Key.enter	n/a
44.939	6.3835	89878	prompt	n/a	judicial children suppose floyd\n
45.681	0.09	91362	keystroke_j	j	n/a
45.861	0.0895	91722	keystroke_u	u	n/a
45.9655	0.0905	91931	keystroke_d	d	n/a
46.086	0.0895	92172	keystroke_i	i	n/a
46.1605	0.105	92321	keystroke_c	c	n/a
46.2655	0.09	92531	keystroke_i	i	n/a
46.3705	0.09	92741	keystroke_a	a	n/a
46.4755	0.09	92951	keystroke_l	l	n/a
46.625	0.09	93250	keystroke_Key.space	Key.space	n/a
46.8645	0.09	93729	keystroke_c	c	n/a
46.9555	0.1195	93911	keystroke_h	h	n/a
47.045	0.165	94090	keystroke_i	i	n/a
47.12	0.18	94240	keystroke_l	l	n/a
47.285	0.09	94570	keystroke_d	d	n/a
47.7805	0.1045	95561	keystroke_r	r	n/a
47.856	0.105	95712	keystroke_e	e	n/a
48.005	0.121	96010	keystroke_n	n	n/a
48.111	0.12	96222	keystroke_Key.space	Key.space	n/a
48.201	0.12	96402	keystroke_s	s	n/a
48.291	0.0895	96582	keystroke_u	u	n/a
48.5605	0.06	97121	keystroke_p	p	n/a
48.6805	0.105	97361	keystroke_p	p	n/a
48.9055	0.075	97811	keystroke_o	o	n/a
49.0255	0.165	98051	keystroke_s	s	n/a
49.1755	0.1645	98351	keystroke_e	e	n/a
49.355	0.105	98710	keystroke_Key.space	Key.space	n/a
49.731	0.1345	99462	keystroke_f	f	n/a
49.9105	0.074	99821	keystroke_l	l	n/a
50.091	0.0895	100182	keystroke_o	o	n/a
50.3305	0.06	100661	keystroke_y	y	n/a
50.8405	0.105	101681	keystroke_d	d	n/a
51.231	0.09	102462	keystroke_Key.enter	Key.enter	n/a
51.328	6.579	102656	prompt	n/a	classified exterior newman renaissance\n
52.041	0.1495	104082	keystroke_c	c	n/a
52.2205	0.105	104441	keystroke_l	l	n/a
52.3105	0.0895	104621	keystroke_a	a	n/a
52.5205	0.0745	105041	keystroke_s	s	n/a
52.64	0.09	105280	keystroke_s	s	n/a
52.775	0.09	105550	keystroke_i	i	n/a
52.835	0.105	105670	keystroke_f	f	n/a
52.97	0.12	105940	keystroke_i	i	n/a
53.075	0.06	106150	keystroke_e	e	n/a
53.255	0.09	106510	keystroke_d	d	n/a
53.315	0.12	106630	keystroke_Key.space	Key.space	n/a
53.495	0.06	106990	keystroke_e	e	n/a
53.69	0.09	107380	keystroke_x	x	n/a
53.915	0.0755	107830	keystroke_t	t	n/a
54.035	0.12	108070	keystroke_e	e	n/a
54.11	0.09	108220	keystroke_r	r	n/a
54.245	0.195	108490	keystroke_i	i	n/a
54.35	0.12	108700	keystroke_o	o	n/a
54.515	0.135	109030	keystroke_r	r	n/a
54.635	0.09	109270	keystroke_Key.space	Key.space	n/a
54.83	0.12	109660	keystroke_n	n	n/a
54.965	0.135	109930	keystroke_e	e	n/a
55.04	0.12	110080	keystroke_w	w	n/a
55.235	0.105	110470	keystroke_m	m	n/a
55.355	0.1055	110710	keystroke_a	a	n/a
55.4455	0.09	110891	keystroke_n	n	n/a
55.5505	0.105	111101	keystroke_Key.space	Key.space	n/a
55.73	0.105	111460	keystroke_r	r	n/a
55.775	0.12	111550	keystroke_e	e	n/a
55.94	0.12	111880	keystroke_n	n	n/a
56.075	0.09	112150	keystroke_a	a	n/a
56.21	0.105	112420	keystroke_i	i	n/a
56.495	0.015	112990	keystroke_s	s	n/a
56.585	0.09	113170	keystroke_s	s	n/a
56.8245	0.0905	113649	keystroke_a	a	n/a
56.93	0.105	113860	keystroke_n	n	n/a
57.095	0.165	114190	keystroke_c	c	n/a
57.185	0.135	114370	keystroke_e	e	n/a
57.815	0.09	115630	keystroke_Key.enter	Key.enter	n/a
57.91	5.4125	115820	prompt	n/a	convertible deny clinic midi\n
58.5495	0.105	117099	keystroke_c	c	n/a
58.6245	0.075	117249	keystroke_o	o	n/a
58.7595	0.09	117519	keystroke_n	n	n/a
59.0305	0.12	118061	keystroke_v	v	n/a
59.2705	0.12	118541	keystroke_e	e	n/a
59.3455	0.12	118691	keystroke_r	r	n/a
59.5705	0.09	119141	keystroke_t	t	n/a
59.6755	0.075	119351	keystroke_i	i	n/a
59.8105	0.0905	119621	keystroke_b	b	n/a
59.9455	0.12	119891	keystroke_l	l	n/a
60.0505	0.12	120101	keystroke_e	e	n/a
60.1255	0.12	120251	keystroke_Key.space	Key.space	n/a
60.3055	0.075	120611	keystroke_d	d	n/a
60.4705	0.105	120941	keystroke_e	e	n/a
60.6055	0.12	121211	keystroke_n	n	n/a
60.86	0.075	121720	keystroke_y	y	n/a
61.04	0.105	122080	keystroke_Key.space	Key.space	n/a
61.28	0.09	122560	keystroke_c	c	n/a
61.355	0.1505	122710	keystroke_l	l	n/a
61.4455	0.135	122891	keystroke_i	i	n/a
61.5355	0.1195	123071	keystroke_n	n	n/a
61.64	0.105	123280	keystroke_i	i	n/a
62.21	0.165	124420	keystroke_c	c	n/a
62.42	0.1205	124840	keystroke_Key.space	Key.space	n/a
62.6755	0.075	125351	keystroke_m	m	n/a
62.7805	0.09	125561	keystroke_i	i	n/a
62.8555	0.105	125711	keystroke_d	d	n/a
62.946	0.1045	125892	keystroke_i	i	n/a
63.305	0.015	126610	keystroke_Key.enter	Key.enter	n/a
63.325	7.197	126650	prompt	n/a	cherry pdas position fundraising\n
64.2355	0.1345	128471	keystroke_c	c	n/a
64.355	0.1055	128710	keystroke_h	h	n/a
64.476	0.06	128952	keystroke_e	e	n/a
64.641	0.1045	129282	keystroke_r	r	n/a
64.761	0.09	129522	keystroke_r	r	n/a
64.986	0.06	129972	keystroke_y	y	n/a
65.061	0.09	130122	keystroke_Key.space	Key.space	n/a
65.5705	0.09	131141	keystroke_p	p	n/a
66.0495	0.12	132099	keystroke_d	d	n/a
66.2305	0.075	132461	keystroke_a	a	n/a
66.4545	0.091	132909	keystroke_s	s	n/a
66.6645	0.105	133329	keystroke_Key.space	Key.space	n/a
66.8295	0.0755	133659	keystroke_p	p	n/a
66.98	0.09	133960	keystroke_o	o	n/a
67.04	0.12	134080	keystroke_s	s	n/a
67.1905	0.075	134381	keystroke_i	i	n/a
67.2805	0.075	134561	keystroke_t	t	n/a
67.3405	0.1955	134681	keystroke_i	i	n/a
67.3855	0.1355	134771	keystroke_o	o	n/a
67.461	0.15	134922	keystroke_n	n	n/a
67.596	0.105	135192	keystroke_Key.space	Key.space	n/a
68.271	0.0895	136542	keystroke_f	f	n/a
68.3455	0.1355	136691	keystroke_u	u	n/a
68.421	0.15	136842	keystroke_n	n	n/a
68.496	0.105	136992	keystroke_d	d	n/a
68.706	0.0895	137412	keystroke_r	r	n/a
68.8855	0.0905	137771	keystroke_a	a	n/a
68.961	0.12	137922	keystroke_i	i	n/a
69.036	0.12	138072	keystroke_n	n	n/a
69.561	0.135	139122	keystroke_Key.backspace	Key.backspace	n/a
69.756	0.12	139512	keystroke_s	s	n/a
69.98	0.135	139960	keystroke_i	i	n/a
70.025	0.135	140050	keystroke_n	n	n/a
70.175	0.09	140350	keystroke_g	g	n/a
70.46	0.06	140920	keystroke_Key.enter	Key.enter	n/a
70.525	4.692	141050	prompt	n/a	terminal wherever mean anthony\n
71.1655	0.09	142331	keystroke_t	t	n/a
71.3305	0.09	142661	keystroke_e	e	n/a
71.3755	0.12	142751	keystroke_r	r	n/a
71.4805	0.0755	142961	keystroke_m	m	n/a
71.586	0.135	143172	keystroke_i	i	n/a
71.676	0.09	143352	keystroke_n	n	n/a
71.751	0.09	143502	keystroke_a	a	n/a
71.856	0.135	143712	keystroke_l	l	n/a
71.946	0.12	143892	keystroke_Key.space	Key.space	n/a
72.171	0.12	144342	keystroke_w	w	n/a
72.321	0.119	144642	keystroke_h	h	n/a
72.591	0.1045	145182	keystroke_e	e	n/a
72.6655	0.15	145331	keystroke_r	r	n/a
72.7855	0.135	145571	keystroke_e	e	n/a
73.115	0.0745	146230	keystroke_v	v	n/a
73.2795	0.135	146559	keystroke_e	e	n/a
73.3695	0.12	146739	keystroke_r	r	n/a
73.4595	0.1055	146919	keystroke_Key.space	Key.space	n/a
73.7155	0.0895	147431	keystroke_m	m	n/a
73.82	0.1195	147640	keystroke_e	e	n/a
73.9095	0.12	147819	keystroke_a	a	n/a
74.0305	0.104	148061	keystroke_n	n	n/a
74.1045	0.12	148209	keystroke_Key.space	Key.space	n/a
74.2255	0.1345	148451	keystroke_a	a	n/a
74.345	0.105	148690	keystroke_n	n	n/a
74.54	0.09	149080	keystroke_t	t	n/a
74.615	0.09	149230	keystroke_h	h	n/a
74.75	0.075	149500	keystroke_o	o	n/a
74.885	0.12	149770	keystroke_n	n	n/a
75.02	0.06	150040	keystroke_y	y	n/a
75.1405	0.075	150281	keystroke_Key.enter	Key.enter	n/a
75.2195	6.5525	150439	prompt	n/a	researcher cancellation deemed democracy\n
75.9805	0.12	151961	keystroke_r	r	n/a
76.0405	0.105	152081	keystroke_e	e	n/a
76.2205	0.12	152441	keystroke_s	s	n/a
76.3855	0.165	152771	keystroke_e	e	n/a
76.5355	0.2255	153071	keystroke_a	a	n/a
76.7005	0.0905	153401	keystroke_r	r	n/a
76.896	0.105	153792	keystroke_c	c	n/a
77.016	0.12	154032	keystroke_h	h	n/a
77.121	0.1345	154242	keystroke_e	e	n/a
77.1955	0.09	154391	keystroke_r	r	n/a
77.2405	0.12	154481	keystroke_Key.space	Key.space	n/a
77.4355	0.135	154871	keystroke_c	c	n/a
77.5255	0.1195	155051	keystroke_a	a	n/a
77.63	0.105	155260	keystroke_n	n	n/a
77.765	0.12	155530	keystroke_c	c	n/a
77.87	0.105	155740	keystroke_e	e	n/a
78.02	0.0595	156040	keystroke_l	l	n/a
78.1545	0.12	156309	keystroke_l	l	n/a
78.2595	0.09	156519	keystroke_a	a	n/a
78.4245	0.075	156849	keystroke_t	t	n/a
78.4845	0.226	156969	keystroke_i	i	n/a
78.5445	0.136	157089	keystroke_o	o	n/a
78.6505	0.135	157301	keystroke_n	n	n/a
78.7255	0.12	157451	keystroke_Key.space	Key.space	n/a
78.8755	0.075	157751	keystroke_d	d	n/a
79.055	0.045	158110	keystroke_e	e	n/a
79.1905	0.075	158381	keystroke_e	e	n/a
79.2805	0.105	158561	keystroke_m	m	n/a
79.3705	0.075	158741	keystroke_e	e	n/a
79.5505	0.12	159101	keystroke_d	d	n/a
79.7905	0.105	159581	keystroke_Key.space	Key.space	n/a
80.1355	0.075	160271	keystroke_d	d	n/a
80.2855	0.075	160571	keystroke_e	e	n/a
80.4205	0.075	160841	keystroke_m	m	n/a
80.5405	0.1055	161081	keystroke_o	o	n/a
80.751	0.1045	161502	keystroke_c	c	n/a
80.9455	0.075	161891	keystroke_r	r	n/a
81.0355	0.165	162071	keystroke_a	a	n/a
81.1705	0.09	162341	keystroke_c	c	n/a
81.4255	0.09	162851	keystroke_y	y	n/a
81.696	0.0745	163392	keystroke_Key.enter	Key.enter	n/a
81.7755	6.222	163551	prompt	n/a	winning cameron biographies ensemble\n
82.431	0.105	164862	keystroke_w	w	n/a
82.521	0.09	165042	keystroke_i	i	n/a
82.686	0.06	165372	keystroke_n	n	n/a
82.821	0.0895	165642	keystroke_n	n	n/a
82.9405	0.12	165881	keystroke_i	i	n/a
83.0305	0.105	166061	keystroke_n	n	n/a
83.0905	0.09	166181	keystroke_g	g	n/a
83.1505	0.104	166301	keystroke_Key.space	Key.space	n/a
83.6905	0.1045	167381	keystroke_c	c	n/a
83.78	0.12	167560	keystroke_a	a	n/a
83.885	0.1205	167770	keystroke_m	m	n/a
83.9905	0.075	167981	keystroke_e	e	n/a
84.0355	0.12	168071	keystroke_r	r	n/a
84.2155	0.105	168431	keystroke_o	o	n/a
84.3955	0.105	168791	keystroke_n	n	n/a
84.5305	0.12	169061	keystroke_Key.space	Key.space	n/a
84.665	0.0755	169330	keystroke_b	b	n/a
84.785	0.1655	169570	keystroke_i	i	n/a
84.845	0.1205	169690	keystroke_o	o	n/a
85.07	0.1365	170140	keystroke_g	g	n/a
85.49	0.075	170980	keystroke_r	r	n/a
85.775	0.121	171550	keystroke_a	a	n/a
85.955	0.075	171910	keystroke_p	p	n/a
86.1505	0.089	172301	keystroke_h	h	n/a
86.3445	0.0755	172689	keystroke_i	i	n/a
86.48	0.135	172960	keystroke_e	e	n/a
86.555	0.1505	173110	keystroke_s	s	n/a
86.66	0.1355	173320	keystroke_Key.space	Key.space	n/a
86.8405	0.09	173681	keystroke_e	e	n/a
86.9455	0.105	173891	keystroke_n	n	n/a
87.0505	0.135	174101	keystroke_s	s	n/a
87.1705	0.15	174341	keystroke_e	e	n/a
87.3355	0.09	174671	keystroke_m	m	n/a
87.5455	0.06	175091	keystroke_b	b	n/a
87.7105	0.1055	175421	keystroke_l	l	n/a
87.8005	0.075	175601	keystroke_e	e	n/a
87.9205	0.075	175841	keystroke_Key.enter	Key.enter	n/a
88	5.0675	176000	prompt	n/a	gradually byte uncle attitude\n
88.641	0.06	177282	keystroke_g	g	n/a
88.806	0.105	177612	keystroke_r	r	n/a
88.956	0.15	177912	keystroke_a	a	n/a
89.061	0.105	178122	keystroke_d	d	n/a
89.196	0.12	178392	keystroke_u	u	n/a
89.301	0.075	178602	keystroke_a	a	n/a
89.406	0.06	178812	keystroke_l	l	n/a
89.556	0.075	179112	keystroke_l	l	n/a
89.631	0.1195	179262	keystroke_y	y	n/a
89.8105	0.105	179621	keystroke_Key.space	Key.space	n/a
90.2005	0.09	180401	keystroke_b	b	n/a
90.4705	0.075	180941	keystroke_y	y	n/a
90.6505	0.1205	181301	keystroke_t	t	n/a
90.891	0.105	181782	keystroke_e	e	n/a
91.086	0.075	182172	keystroke_Key.space	Key.space	n/a
91.281	0.12	182562	keystroke_u	u	n/a
91.356	0.12	182712	keystroke_n	n	n/a
91.476	0.09	182952	keystroke_c	c	n/a
91.581	0.075	183162	keystroke_l	l	n/a
91.641	0.105	183282	keystroke_e	e	n/a
91.731	0.12	183462	keystroke_Key.space	Key.space	n/a
91.836	0.09	183672	keystroke_a	a	n/a
92.046	0.045	184092	keystroke_t	t	n/a
92.181	0.06	184362	keystroke_t	t	n/a
92.256	0.09	184512	keystroke_i	i	n/a
92.361	0.09	184722	keystroke_t	t	n/a
92.481	0.12	184962	keystroke_u	u	n/a
92.706	0.09	185412	keystroke_d	d	n/a
92.886	0.075	185772	keystroke_e	e	n/a
93.006	0.06	186012	keystroke_Key.enter	Key.enter	n/a
93.0705	6.0115	186141	prompt	n/a	smithsonian document spot guest\n
93.666	0.12	187332	keystroke_s	s	n/a
93.801	0.09	187602	keystroke_m	m	n/a
93.921	0.09	187842	keystroke_i	i	n/a
94.041	0.09	188082	keystroke_t	t	n/a
94.161	0.1045	188322	keystroke_h	h	n/a
94.3405	0.1045	188681	keystroke_s	s	n/a
94.446	0.074	188892	keystroke_o	o	n/a
94.58	0.105	189160	keystroke_n	n	n/a
94.7155	0.09	189431	keystroke_i	i	n/a
94.8205	0.105	189641	keystroke_a	a	n/a
94.9555	0.075	189911	keystroke_n	n	n/a
95.1355	0.1355	190271	keystroke_Key.space	Key.space	n/a
95.481	0.075	190962	keystroke_d	d	n/a
95.571	0.075	191142	keystroke_o	o	n/a
95.676	0.1055	191352	keystroke_c	c	n/a
95.7965	0.06	191593	keystroke_u	u	n/a
95.961	0.075	191922	keystroke_m	m	n/a
96.336	0.09	192672	keystroke_e	e	n/a
96.4865	0.105	192973	keystroke_n	n	n/a
96.6065	0.105	193213	keystroke_t	t	n/a
96.6665	0.12	193333	keystroke_Key.space	Key.space	n/a
96.8165	0.12	193633	keystroke_s	s	n/a
97.6715	0.06	195343	keystroke_p	p	n/a
97.8215	0.0895	195643	keystroke_o	o	n/a
97.971	0.0905	195942	keystroke_t	t	n/a
98.0315	0.12	196063	keystroke_Key.space	Key.space	n/a
98.451	0.075	196902	keystroke_g	g	n/a
98.526	0.105	197052	keystroke_u	u	n/a
98.616	0.12	197232	keystroke_e	e	n/a
98.721	0.135	197442	keystroke_s	s	n/a
98.841	0.09	197682	keystroke_t	t	n/a
99.021	0.06	198042	keystroke_Key.enter	Key.enter	n/a
99.086	5.817	198172	prompt	n/a	upgrade sharing brothers olympic\n
99.951	0.09	199902	keystroke_u	u	n/a
100.206	0.075	200412	keystroke_p	p	n/a
100.431	0.1505	200862	keystroke_g	g	n/a
100.7315	0.12	201463	keystroke_r	r	n/a
100.8815	0.12	201763	keystroke_a	a	n/a
100.9865	0.165	201973	keystroke_d	d	n/a
101.1215	0.1345	202243	keystroke_e	e	n/a
101.301	0.12	202602	keystroke_Key.space	Key.space	n/a
101.886	0.12	203772	keystroke_s	s	n/a
101.976	0.1355	203952	keystroke_h	h	n/a
102.0965	0.165	204193	keystroke_a	a	n/a
102.2465	0.09	204493	keystroke_r	r	n/a
102.351	0.12	204702	keystroke_i	i	n/a
102.411	0.1205	204822	keystroke_n	n	n/a
102.5015	0.09	205003	keystroke_g	g	n/a
102.5455	0.135	205091	keystroke_Key.space	Key.space	n/a
102.6965	0.075	205393	keystroke_b	b	n/a
102.7865	0.074	205573	keystroke_r	r	n/a
102.8615	0.074	205723	keystroke_o	o	n/a
102.9665	0.074	205933	keystroke_t	t	n/a
103.0255	0.1205	206051	keystroke_h	h	n/a
103.116	0.12	206232	keystroke_e	e	n/a
103.176	0.1655	206352	keystroke_r	r	n/a
103.296	0.15	206592	keystroke_s	s	n/a
103.4315	0.135	206863	keystroke_Key.space	Key.space	n/a
103.627	0.089	207254	keystroke_o	o	n/a
103.8505	0.09	207701	keystroke_l	l	n/a
104.046	0.06	208092	keystroke_y	y	n/a
104.2265	0.075	208453	keystroke_m	m	n/a
104.4215	0.045	208843	keystroke_p	p	n/a
104.586	0.105	209172	keystroke_i	i	n/a
104.706	0.075	209412	keystroke_c	c	n/a
104.811	0.09	209622	keystroke_Key.enter	Key.enter	n/a
104.906	5.321	209812	prompt	n/a	religions taiwan detect functions\n
105.771	0.12	211542	keystroke_r	r	n/a
105.846	0.1345	211692	keystroke_e	e	n/a
105.9655	0.075	211931	keystroke_l	l	n/a
106.1455	0.075	212291	keystroke_i	i	n/a
106.2355	0.075	212471	keystroke_g	g	n/a
106.3255	0.1805	212651	keystroke_i	i	n/a
106.3555	0.1205	212711	keystroke_o	o	n/a
106.4455	0.1355	212891	keystroke_n	n	n/a
106.551	0.1495	213102	keystroke_s	s	n/a
106.671	0.1345	213342	keystroke_Key.space	Key.space	n/a
106.8805	0.075	213761	keystroke_t	t	n/a
107.0305	0.105	214061	keystroke_a	a	n/a
107.1055	0.12	214211	keystroke_i	i	n/a
107.2255	0.135	214451	keystroke_w	w	n/a
107.3155	0.12	214631	keystroke_a	a	n/a
107.4505	0.105	214901	keystroke_n	n	n/a
107.6005	0.1205	215201	keystroke_Key.space	Key.space	n/a
107.826	0.075	215652	keystroke_d	d	n/a
108.006	0.03	216012	keystroke_e	e	n/a
108.036	0.105	216072	keystroke_t	t	n/a
108.156	0.135	216312	keystroke_e	e	n/a
108.486	0.12	216972	keystroke_c	c	n/a
108.8765	0.09	217753	keystroke_t	t	n/a
108.9965	0.1345	217993	keystroke_Key.space	Key.space	n/a
109.2505	0.15	218501	keystroke_f	f	n/a
109.3405	0.1355	218681	keystroke_u	u	n/a
109.4165	0.1195	218833	keystroke_n	n	n/a
109.506	0.075	219012	keystroke_c	c	n/a
109.686	0.075	219372	keystroke_t	t	n/a
109.701	0.24	219402	keystroke_i	i	n/a
109.791	0.135	219582	keystroke_o	o	n/a
109.851	0.15	219702	keystroke_n	n	n/a
110.002	0.074	220004	keystroke_s	s	n/a
110.1505	0.075	220301	keystroke_Key.enter	Key.enter	n/a
110.2305	4.932	220461	prompt	n/a	skilled suite solaris conversion\n
110.8105	0.12	221621	keystroke_s	s	n/a
110.8855	0.075	221771	keystroke_k	k	n/a
111.0655	0.06	222131	keystroke_i	i	n/a
111.231	0.045	222462	keystroke_l	l	n/a
111.336	0.105	222672	keystroke_l	l	n/a
111.426	0.075	222852	keystroke_e	e	n/a
111.606	0.165	223212	keystroke_d	d	n/a
111.741	0.1355	223482	keystroke_Key.space	Key.space	n/a
111.8615	0.12	223723	keystroke_s	s	n/a
111.9665	0.09	223933	keystroke_u	u	n/a
112.1465	0.1195	224293	keystroke_i	i	n/a
112.251	0.12	224502	keystroke_t	t	n/a
112.341	0.12	224682	keystroke_e	e	n/a
112.431	0.15	224862	keystroke_Key.space	Key.space	n/a
112.566	0.12	225132	keystroke_s	s	n/a
112.641	0.075	225282	keystroke_o	o	n/a
112.776	0.09	225552	keystroke_l	l	n/a
112.851	0.12	225702	keystroke_a	a	n/a
112.986	0.105	225972	keystroke_r	r	n/a
113.106	0.18	226212	keystroke_i	i	n/a
113.271	0.105	226542	keystroke_s	s	n/a
113.361	0.105	226722	keystroke_Key.space	Key.space	n/a
113.526	0.105	227052	keystroke_c	c	n/a
113.616	0.06	227232	keystroke_o	o	n/a
113.736	0.105	227472	keystroke_n	n	n/a
113.826	0.09	227652	keystroke_v	v	n/a
113.961	0.12	227922	keystroke_e	e	n/a
114.051	0.1495	228102	keystroke_r	r	n/a
114.1405	0.12	228281	keystroke_s	s	n/a
114.1855	0.255	228371	keystroke_i	i	n/a
114.2455	0.136	228491	keystroke_o	o	n/a
114.3505	0.135	228701	keystroke_n	n	n/a
115.101	0.06	230202	keystroke_Key.enter	Key.enter	n/a
115.1655	6.4175	230331	prompt	n/a	powered frozen telephony attended\n
115.7765	0.075	231553	keystroke_p	p	n/a
115.9265	0.09	231853	keystroke_o	o	n/a
116.0015	0.075	232003	keystroke_w	w	n/a
116.1815	0.075	232363	keystroke_e	e	n/a
116.2115	0.165	232423	keystroke_r	r	n/a
116.3465	0.105	232693	keystroke_e	e	n/a
116.5415	0.135	233083	keystroke_d	d	n/a
116.6465	0.12	233293	keystroke_Key.space	Key.space	n/a
117.187	0.105	234374	keystroke_f	f	n/a
117.351	0.106	234702	keystroke_r	r	n/a
117.442	0.074	234884	keystroke_o	o	n/a
117.7115	0.12	235423	keystroke_z	z	n/a
117.8465	0.105	235693	keystroke_e	e	n/a
117.9815	0.105	235963	keystroke_n	n	n/a
118.0715	0.12	236143	keystroke_Key.space	Key.space	n/a
118.296	0.06	236592	keystroke_t	t	n/a
118.416	0.0905	236832	keystroke_e	e	n/a
118.4315	0.1045	236863	keystroke_l	l	n/a
119.121	0.105	238242	keystroke_e	e	n/a
119.421	0.105	238842	keystroke_p	p	n/a
119.6615	0.0745	239323	keystroke_h	h	n/a
119.7665	0.105	239533	keystroke_o	o	n/a
119.9315	0.105	239863	keystroke_n	n	n/a
120.0365	0.105	240073	keystroke_y	y	n/a
120.1115	0.1345	240223	keystroke_Key.space	Key.space	n/a
120.261	0.09	240522	keystroke_a	a	n/a
120.486	0.045	240972	keystroke_t	t	n/a
120.591	0.105	241182	keystroke_t	t	n/a
120.727	0.09	241454	keystroke_e	e	n/a
120.876	0.12	241752	keystroke_n	n	n/a
121.012	0.0745	242024	keystroke_d	d	n/a
121.162	0.075	242324	keystroke_e	e	n/a
121.3115	0.105	242623	keystroke_d	d	n/a
121.5065	0.075	243013	keystroke_Key.enter	Key.enter	n/a
121.5875	5.831	243175	prompt	n/a	xbox walking proprietary base\n
122.4365	0.1195	244873	keystroke_x	x	n/a
122.766	0.0605	245532	keystroke_b	b	n/a
122.9765	0.09	245953	keystroke_o	o	n/a
123.2315	0.075	246463	keystroke_x	x	n/a
123.5015	0.12	247003	keystroke_Key.space	Key.space	n/a
123.6215	0.0905	247243	keystroke_w	w	n/a
123.681	0.136	247362	keystroke_a	a	n/a
123.772	0.1195	247544	keystroke_l	l	n/a
123.831	0.0755	247662	keystroke_k	k	n/a
124.011	0.12	248022	keystroke_i	i	n/a
124.086	0.136	248172	keystroke_n	n	n/a
124.161	0.121	248322	keystroke_g	g	n/a
124.236	0.12	248472	keystroke_Key.space	Key.space	n/a
124.386	0.06	248772	keystroke_p	p	n/a
124.491	0.09	248982	keystroke_r	r	n/a
124.567	0.074	249134	keystroke_o	o	n/a
124.731	0.076	249462	keystroke_p	p	n/a
125.376	0.09	250752	keystroke_r	r	n/a
125.557	0.119	251114	keystroke_i	i	n/a
125.661	0.136	251322	keystroke_e	e	n/a
125.8565	0.105	251713	keystroke_t	t	n/a
126.2465	0.165	252493	keystroke_a	a	n/a
126.3815	0.105	252763	keystroke_r	r	n/a
126.5915	0.09	253183	keystroke_y	y	n/a
126.6665	0.12	253333	keystroke_Key.space	Key.space	n/a
126.8465	0.105	253693	keystroke_b	b	n/a
126.9365	0.195	253873	keystroke_a	a	n/a
127.0415	0.1205	254083	keystroke_s	s	n/a
127.1165	0.1205	254233	keystroke_e	e	n/a
127.327	0.09	254654	keystroke_Key.enter	Key.enter	n/a
127.4235	3.834	254847	prompt	n/a	picked daily horse owner\n
128.017	0.0745	256034	keystroke_p	p	n/a
128.2115	0.0595	256423	keystroke_i	i	n/a
128.347	0.1195	256694	keystroke_c	c	n/a
128.4515	0.09	256903	keystroke_k	k	n/a
128.5565	0.06	257113	keystroke_e	e	n/a
128.7215	0.135	257443	keystroke_d	d	n/a
128.8415	0.105	257683	keystroke_Key.space	Key.space	n/a
128.9615	0.1205	257923	keystroke_d	d	n/a
129.082	0.134	258164	keystroke_a	a	n/a
129.112	0.2245	258224	keystroke_i	i	n/a
129.232	0.1345	258464	keystroke_l	l	n/a
129.4115	0.12	258823	keystroke_y	y	n/a
129.5015	0.1345	259003	keystroke_Key.space	Key.space	n/a
129.756	0.091	259512	keystroke_h	h	n/a
129.9065	0.075	259813	keystroke_o	o	n/a
129.9665	0.12	259933	keystroke_r	r	n/a
130.1015	0.165	260203	keystroke_s	s	n/a
130.2065	0.135	260413	keystroke_e	e	n/a
130.2815	0.135	260563	keystroke_Key.space	Key.space	n/a
130.4615	0.09	260923	keystroke_o	o	n/a
130.5965	0.09	261193	keystroke_w	w	n/a
130.7015	0.0895	261403	keystroke_n	n	n/a
130.896	0.12	261792	keystroke_e	e	n/a
130.986	0.12	261972	keystroke_r	r	n/a
131.166	0.0895	262332	keystroke_Key.enter	Key.enter	n/a
131.2605	7.1525	262521	prompt	n/a	expenditures realty recording projected\n
131.946	0.06	263892	keystroke_e	e	n/a
132.141	0.091	264282	keystroke_x	x	n/a
132.306	0.0755	264612	keystroke_p	p	n/a
132.397	0.105	264794	keystroke_e	e	n/a
132.562	0.12	265124	keystroke_n	n	n/a
132.7715	0.12	265543	keystroke_d	d	n/a
133.2215	0.0905	266443	keystroke_i	i	n/a
133.477	0.075	266954	keystroke_t	t	n/a
133.612	0.12	267224	keystroke_u	u	n/a
133.672	0.1645	267344	keystroke_r	r	n/a
133.762	0.1345	267524	keystroke_e	e	n/a
133.8515	0.12	267703	keystroke_s	s	n/a
133.9115	0.18	267823	keystroke_Key.space	Key.space	n/a
134.0615	0.12	268123	keystroke_r	r	n/a
134.1215	0.135	268243	keystroke_e	e	n/a
134.1965	0.1195	268393	keystroke_a	a	n/a
134.301	0.12	268602	keystroke_l	l	n/a
134.466	0.06	268932	keystroke_y	y	n/a
135.0665	0.09	270133	keystroke_Key.backspace	Key.backspace	n/a
135.2615	0.1195	270523	keystroke_t	t	n/a
135.486	0.06	270972	keystroke_y	y	n/a
135.816	0.121	271632	keystroke_Key.space	Key.space	n/a
136.0115	0.105	272023	keystroke_r	r	n/a
136.0715	0.105	272143	keystroke_e	e	n/a
136.2365	0.105	272473	keystroke_c	c	n/a
136.3565	0.105	272713	keystroke_o	o	n/a
136.4465	0.06	272893	keystroke_r	r	n/a
136.567	0.09	273134	keystroke_d	d	n/a
136.657	0.1505	273314	keystroke_i	i	n/a
136.7325	0.1645	273465	keystroke_n	n	n/a
136.7915	0.0905	273583	keystroke_g	g	n/a
136.851	0.135	273702	keystroke_Key.space	Key.space	n/a
137.031	0.0755	274062	keystroke_p	p	n/a
137.1215	0.105	274243	keystroke_r	r	n/a
137.2565	0.0895	274513	keystroke_o	o	n/a
137.467	0.104	274934	keystroke_j	j	n/a
137.616	0.181	275232	keystroke_e	e	n/a
137.691	0.12	275382	keystroke_c	c	n/a
137.916	0.135	275832	keystroke_t	t	n/a
138.022	0.104	276044	keystroke_e	e	n/a
138.201	0.12	276402	keystroke_d	d	n/a
138.351	0.06	276702	keystroke_Key.enter	Key.enter	n/a
138.416	5.0225	276832	prompt	n/a	inclusive episodes cole patches\n
139.0415	0.15	278083	keystroke_i	i	n/a
139.1315	0.1195	278263	keystroke_n	n	n/a
139.2065	0.1195	278413	keystroke_c	c	n/a
139.311	0.06	278622	keystroke_l	l	n/a
139.4615	0.075	278923	keystroke_u	u	n/a
139.5665	0.105	279133	keystroke_s	s	n/a
139.6565	0.12	279313	keystroke_i	i	n/a
139.7765	0.1055	279553	keystroke_v	v	n/a
139.8965	0.1205	279793	keystroke_e	e	n/a
140.002	0.105	280004	keystroke_Key.space	Key.space	n/a
140.108	0.104	280216	keystroke_e	e	n/a
140.257	0.06	280514	keystroke_p	p	n/a
140.437	0.075	280874	keystroke_i	i	n/a
140.527	0.1045	281054	keystroke_s	s	n/a
140.6465	0.075	281293	keystroke_o	o	n/a
140.7365	0.0755	281473	keystroke_d	d	n/a
140.902	0.1495	281804	keystroke_e	e	n/a
140.9915	0.165	281983	keystroke_s	s	n/a
141.1115	0.12	282223	keystroke_Key.space	Key.space	n/a
141.3215	0.12	282643	keystroke_c	c	n/a
141.3815	0.075	282763	keystroke_o	o	n/a
141.5315	0.075	283063	keystroke_l	l	n/a
141.6215	0.105	283243	keystroke_e	e	n/a
141.7415	0.105	283483	keystroke_Key.space	Key.space	n/a
141.982	0.119	283964	keystroke_p	p	n/a
142.146	0.1655	284292	keystroke_a	a	n/a
142.2215	0.105	284443	keystroke_t	t	n/a
142.416	0.1355	284832	keystroke_c	c	n/a
142.552	0.1045	285104	keystroke_h	h	n/a
142.641	0.121	285282	keystroke_e	e	n/a
143.0465	0.1055	286093	keystroke_s	s	n/a
143.347	0.09	286694	keystroke_Key.enter	Key.enter	n/a
143.4415	5.502	286883	prompt	n/a	basename pike bedding baskets\n
144.142	0.105	288284	keystroke_b	b	n/a
144.217	0.18	288434	keystroke_a	a	n/a
144.262	0.1795	288524	keystroke_s	s	n/a
144.397	0.1195	288794	keystroke_e	e	n/a
144.5465	0.135	289093	keystroke_n	n	n/a
144.6965	0.0905	289393	keystroke_a	a	n/a
144.772	0.1055	289544	keystroke_m	m	n/a
144.892	0.1205	289784	keystroke_e	e	n/a
144.9825	0.135	289965	keystroke_Key.space	Key.space	n/a
145.2375	0.075	290475	keystroke_p	p	n/a
145.432	0.075	290864	keystroke_i	i	n/a
145.567	0.12	291134	keystroke_k	k	n/a
145.672	0.1205	291344	keystroke_e	e	n/a
145.747	0.1205	291494	keystroke_Key.space	Key.space	n/a
145.8675	0.1045	291735	keystroke_b	b	n/a
145.9425	0.0745	291885	keystroke_e	e	n/a
146.407	0.0745	292814	keystroke_d	d	n/a
146.5715	0.135	293143	keystroke_d	d	n/a
146.7215	0.1265	293443	keystroke_i	i	n/a
146.767	0.165	293534	keystroke_n	n	n/a
146.887	0.135	293774	keystroke_g	g	n/a
146.977	0.15	293954	keystroke_Key.space	Key.space	n/a
147.9365	0.1055	295873	keystroke_b	b	n/a
148.027	0.15	296054	keystroke_a	a	n/a
148.147	0.135	296294	keystroke_s	s	n/a
148.297	0.105	296594	keystroke_k	k	n/a
148.417	0.195	296834	keystroke_e	e	n/a
148.567	0.165	297134	keystroke_t	t	n/a
148.687	0.12	297374	keystroke_s	s	n/a
148.837	0.105	297674	keystroke_Key.enter	Key.enter	n/a
148.9475	8.111	297895	prompt	n/a	flickr enjoying incoming architecture\n
149.6625	0.12	299325	keystroke_f	f	n/a
149.7525	0.104	299505	keystroke_l	l	n/a
149.872	0.1205	299744	keystroke_i	i	n/a
150.0365	0.09	300073	keystroke_c	c	n/a
150.1565	0.1055	300313	keystroke_k	k	n/a
150.337	0.09	300674	keystroke_r	r	n/a
150.741	0.0755	301482	keystroke_Key.space	Key.space	n/a
150.8765	0.106	301753	keystroke_e	e	n/a
150.9965	0.1055	301993	keystroke_n	n	n/a
151.192	0.075	302384	keystroke_j	j	n/a
151.357	0.105	302714	keystroke_o	o	n/a
151.522	0.06	303044	keystroke_t	t	n/a
151.537	0.06	303074	keystroke_y	y	n/a
151.612	0.12	303224	keystroke_i	i	n/a
151.672	0.1355	303344	keystroke_n	n	n/a
152.1375	0.0595	304275	keystroke_=	=	n/a
152.3175	0.075	304635	keystroke_Key.backspace	Key.backspace	n/a
152.512	0.0755	305024	keystroke_Key.backspace	Key.backspace	n/a
152.6625	0.06	305325	keystroke_Key.backspace	Key.backspace	n/a
152.8125	0.119	305625	keystroke_Key.backspace	Key.backspace	n/a
153.1725	0.06	306345	keystroke_Key.backspace	Key.backspace	n/a
153.7125	0.075	307425	keystroke_y	y	n/a
153.8325	0.1045	307665	keystroke_i	i	n/a
153.8775	0.135	307755	keystroke_n	n	n/a
153.9825	0.12	307965	keystroke_g	g	n/a
154.0575	0.164	308115	keystroke_Key.space	Key.space	n/a
154.521	0.1205	309042	keystroke_i	i	n/a
154.5965	0.105	309193	keystroke_n	n	n/a
154.7165	0.12	309433	keystroke_c	c	n/a
154.8065	0.105	309613	keystroke_o	o	n/a
154.8665	0.09	309733	keystroke_m	m	n/a
155.017	0.12	310034	keystroke_i	i	n/a
155.077	0.15	310154	keystroke_n	n	n/a
155.152	0.105	310304	keystroke_g	g	n/a
155.212	0.135	310424	keystroke_Key.space	Key.space	n/a
155.3915	0.1805	310783	keystroke_a	a	n/a
155.527	0.06	311054	keystroke_r	r	n/a
155.7075	0.1195	311415	keystroke_c	c	n/a
155.782	0.09	311564	keystroke_h	h	n/a
155.887	0.135	311774	keystroke_i	i	n/a
156.007	0.0895	312014	keystroke_t	t	n/a
156.1115	0.105	312223	keystroke_e	e	n/a
156.3365	0.09	312673	keystroke_c	c	n/a
156.5465	0.06	313093	keystroke_t	t	n/a
156.6665	0.09	313333	keystroke_u	u	n/a
156.7265	0.1055	313453	keystroke_r	r	n/a
156.7865	0.09	313573	keystroke_e	e	n/a
156.9965	0.06	313993	keystroke_Key.enter	Key.enter	n/a
157.0625	6.4915	314125	prompt	n/a	cambridge eyed cents guam\n
157.7175	0.1345	315435	keystroke_c	c	n/a
157.822	0.12	315644	keystroke_a	a	n/a
157.927	0.09	315854	keystroke_m	m	n/a
158.122	0.1195	316244	keystroke_b	b	n/a
158.2125	0.105	316425	keystroke_r	r	n/a
158.4215	0.091	316843	keystroke_i	i	n/a
158.6315	0.091	317263	keystroke_d	d	n/a
158.8265	0.105	317653	keystroke_g	g	n/a
158.9625	0.104	317925	keystroke_e	e	n/a
159.2015	0.135	318403	keystroke_Key.space	Key.space	n/a
159.937	0.09	319874	keystroke_e	e	n/a
160.1925	0.045	320385	keystroke_t	t	n/a
160.3275	0.09	320655	keystroke_e	e	n/a
161.002	0.09	322004	keystroke_Key.backspace	Key.backspace	n/a
161.152	0.09	322304	keystroke_Key.backspace	Key.backspace	n/a
161.257	0.09	322514	keystroke_y	y	n/a
161.422	0.165	322844	keystroke_e	e	n/a
161.9765	0.1055	323953	keystroke_d	d	n/a
162.142	0.135	324284	keystroke_Key.space	Key.space	n/a
162.352	0.105	324704	keystroke_c	c	n/a
162.427	0.105	324854	keystroke_e	e	n/a
162.562	0.09	325124	keystroke_n	n	n/a
162.622	0.12	325244	keystroke_t	t	n/a
162.712	0.135	325424	keystroke_s	s	n/a
162.802	0.135	325604	keystroke_Key.space	Key.space	n/a
162.997	0.12	325994	keystroke_g	g	n/a
163.102	0.09	326204	keystroke_u	u	n/a
163.207	0.09	326414	keystroke_a	a	n/a
163.312	0.0755	326624	keystroke_m	m	n/a
163.4915	0.061	326983	keystroke_Key.enter	Key.enter	n/a
163.5575	11.8015	327115	prompt	n/a	electoral calculator celebrate halifax\n
164.198	0.0745	328396	keystroke_e	e	n/a
164.3175	0.0895	328635	keystroke_l	l	n/a
164.378	0.119	328756	keystroke_e	e	n/a
164.467	0.15	328934	keystroke_c	c	n/a
164.7375	0.105	329475	keystroke_t	t	n/a
164.7975	0.105	329595	keystroke_r	r	n/a
164.8875	0.075	329775	keystroke_o	o	n/a
165.097	0.12	330194	keystroke_r	r	n/a
165.8475	0.12	331695	keystroke_a	a	n/a
165.9225	0.105	331845	keystroke_l	l	n/a
165.9975	0.12	331995	keystroke_Key.space	Key.space	n/a
166.132	0.15	332264	keystroke_c	c	n/a
166.4165	0.105	332833	keystroke_a	a	n/a
166.5515	0.105	333103	keystroke_l	l	n/a
166.8375	0.12	333675	keystroke_c	c	n/a
166.9725	0.075	333945	keystroke_u	u	n/a
167.1375	0.105	334275	keystroke_l	l	n/a
167.2125	0.105	334425	keystroke_a	a	n/a
167.4225	0.09	334845	keystroke_t	t	n/a
168.217	0.0905	336434	keystroke_Key.backspace	Key.backspace	n/a
168.367	0.0755	336734	keystroke_Key.backspace	Key.backspace	n/a
168.5175	0.075	337035	keystroke_Key.backspace	Key.backspace	n/a
168.832	0.075	337664	keystroke_Key.backspace	Key.backspace	n/a
168.997	0.045	337994	keystroke_Key.backspace	Key.backspace	n/a
169.117	0.075	338234	keystroke_Key.backspace	Key.backspace	n/a
169.252	0.1055	338504	keystroke_Key.backspace	Key.backspace	n/a
169.417	0.0755	338834	keystroke_Key.backspace	Key.backspace	n/a
169.5525	0.075	339105	keystroke_Key.backspace	Key.backspace	n/a
169.7025	0.06	339405	keystroke_Key.backspace	Key.backspace	n/a
169.8375	0.075	339675	keystroke_Key.backspace	Key.backspace	n/a
169.9725	0.0745	339945	keystroke_Key.backspace	Key.backspace	n/a
170.137	0.09	340274	keystroke_Key.backspace	Key.backspace	n/a
170.407	0.075	340814	keystroke_Key.backspace	Key.backspace	n/a
170.9175	0.09	341835	keystroke_o	o	n/a
170.9925	0.1195	341985	keystroke_r	r	n/a
171.082	0.09	342164	keystroke_a	a	n/a
171.142	0.076	342284	keystroke_l	l	n/a
171.337	0.105	342674	keystroke_Key.space	Key.space	n/a
171.787	0.135	343574	keystroke_c	c	n/a
171.907	0.105	343814	keystroke_a	a	n/a
172.0275	0.075	344055	keystroke_l	l	n/a
172.1325	0.105	344265	keystroke_c	c	n/a
172.2525	0.0745	344505	keystroke_u	u	n/a
172.417	0.09	344834	keystroke_l	l	n/a
172.492	0.165	344984	keystroke_a	a	n/a
172.612	0.0905	345224	keystroke_t	t	n/a
172.8075	0.075	345615	keystroke_o	o	n/a
172.9275	0.09	345855	keystroke_r	r	n/a
173.0025	0.1205	346005	keystroke_Key.space	Key.space	n/a
173.258	0.12	346516	keystroke_c	c	n/a
173.393	0.09	346786	keystroke_e	e	n/a
173.498	0.105	346996	keystroke_l	l	n/a
173.588	0.105	347176	keystroke_e	e	n/a
173.753	0.0745	347506	keystroke_b	b	n/a
173.8425	0.134	347685	keystroke_r	r	n/a
173.9615	0.105	347923	keystroke_a	a	n/a
174.142	0.09	348284	keystroke_t	t	n/a
174.188	0.104	348376	keystroke_e	e	n/a
174.262	0.1195	348524	keystroke_Key.space	Key.space	n/a
174.4275	0.104	348855	keystroke_h	h	n/a
174.4715	0.136	348943	keystroke_a	a	n/a
174.5925	0.0595	349185	keystroke_l	l	n/a
174.742	0.105	349484	keystroke_i	i	n/a
174.817	0.105	349634	keystroke_f	f	n/a
174.967	0.18	349934	keystroke_a	a	n/a
175.117	0.105	350234	keystroke_x	x	n/a
175.312	0.045	350624	keystroke_Key.enter	Key.enter	n/a
175.3625	6.1015	350725	prompt	n/a	numbers why're fancy overview\n
176.077	0.076	352154	keystroke_n	n	n/a
176.197	0.075	352394	keystroke_u	u	n/a
176.332	0.09	352664	keystroke_m	m	n/a
176.527	0.076	353054	keystroke_b	b	n/a
176.587	0.12	353174	keystroke_e	e	n/a
176.662	0.18	353324	keystroke_r	r	n/a
176.812	0.15	353624	keystroke_s	s	n/a
177.007	0.1355	354014	keystroke_Key.space	Key.space	n/a
177.2475	0.105	354495	keystroke_w	w	n/a
177.3825	0.12	354765	keystroke_h	h	n/a
177.5325	0.09	355065	keystroke_y	y	n/a
177.6825	0.105	355365	keystroke_'	'	n/a
177.8025	0.15	355605	keystroke_r	r	n/a
177.8775	0.12	355755	keystroke_e	e	n/a
177.9825	0.105	355965	keystroke_Key.space	Key.space	n/a
178.147	0.105	356294	keystroke_f	f	n/a
178.267	0.12	356534	keystroke_a	a	n/a
178.462	0.09	356924	keystroke_n	n	n/a
178.732	0.1055	357464	keystroke_c	c	n/a
178.8075	0.15	357615	keystroke_e	e	n/a
179.2125	0.075	358425	keystroke_y	y	n/a
179.5875	0.09	359175	keystroke_Key.backspace	Key.backspace	n/a
179.7375	0.0895	359475	keystroke_Key.backspace	Key.backspace	n/a
179.842	0.0755	359684	keystroke_y	y	n/a
179.9025	0.15	359805	keystroke_Key.space	Key.space	n/a
180.1275	0.075	360255	keystroke_o	o	n/a
180.2475	0.09	360495	keystroke_v	v	n/a
180.413	0.09	360826	keystroke_e	e	n/a
180.458	0.09	360916	keystroke_r	r	n/a
180.668	0.12	361336	keystroke_v	v	n/a
180.803	0.09	361606	keystroke_i	i	n/a
180.908	0.12	361816	keystroke_e	e	n/a
180.968	0.105	361936	keystroke_w	w	n/a
181.358	0.105	362716	keystroke_Key.enter	Key.enter	n/a
181.4675	4.4065	362935	prompt	n/a	called dealer roller theorem\n
182.0475	0.12	364095	keystroke_c	c	n/a
182.1075	0.135	364215	keystroke_a	a	n/a
182.2575	0.06	364515	keystroke_l	l	n/a
182.393	0.104	364786	keystroke_l	l	n/a
182.467	0.091	364934	keystroke_e	e	n/a
182.6625	0.12	365325	keystroke_d	d	n/a
182.7675	0.12	365535	keystroke_Key.space	Key.space	n/a
182.8725	0.12	365745	keystroke_d	d	n/a
183.0675	0.1205	366135	keystroke_e	e	n/a
183.143	0.12	366286	keystroke_a	a	n/a
183.233	0.12	366466	keystroke_l	l	n/a
183.3825	0.135	366765	keystroke_e	e	n/a
183.4425	0.12	366885	keystroke_r	r	n/a
183.5175	0.12	367035	keystroke_Key.space	Key.space	n/a
183.803	0.105	367606	keystroke_r	r	n/a
183.893	0.06	367786	keystroke_o	o	n/a
184.043	0.045	368086	keystroke_l	l	n/a
184.163	0.075	368326	keystroke_l	l	n/a
184.283	0.135	368566	keystroke_e	e	n/a
184.373	0.12	368746	keystroke_r	r	n/a
184.448	0.12	368896	keystroke_Key.space	Key.space	n/a
184.808	0.09	369616	keystroke_t	t	n/a
184.883	0.105	369766	keystroke_h	h	n/a
185.003	0.149	370006	keystroke_e	e	n/a
185.168	0.105	370336	keystroke_o	o	n/a
185.303	0.105	370606	keystroke_r	r	n/a
185.468	0.105	370936	keystroke_e	e	n/a
185.588	0.105	371176	keystroke_m	m	n/a
185.8125	0.06	371625	keystroke_Key.enter	Key.enter	n/a
185.8785	6.401	371757	prompt	n/a	terminals nasty volleyball rugs\n
186.848	0.105	373696	keystroke_t	t	n/a
186.998	0.165	373996	keystroke_e	e	n/a
187.118	0.12	374236	keystroke_r	r	n/a
187.208	0.09	374416	keystroke_m	m	n/a
187.313	0.135	374626	keystroke_i	i	n/a
187.403	0.075	374806	keystroke_n	n	n/a
187.463	0.09	374926	keystroke_a	a	n/a
187.583	0.1045	375166	keystroke_l	l	n/a
187.7025	0.09	375405	keystroke_s	s	n/a
187.7475	0.165	375495	keystroke_Key.space	Key.space	n/a
187.9275	0.105	375855	keystroke_n	n	n/a
187.9875	0.15	375975	keystroke_a	a	n/a
188.0925	0.105	376185	keystroke_s	s	n/a
188.2725	0.135	376545	keystroke_t	t	n/a
188.4825	0.09	376965	keystroke_y	y	n/a
188.5575	0.105	377115	keystroke_Key.space	Key.space	n/a
188.7225	0.105	377445	keystroke_c	c	n/a
189.173	0.12	378346	keystroke_Key.backspace	Key.backspace	n/a
189.353	0.12	378706	keystroke_v	v	n/a
189.488	0.09	378976	keystroke_o	o	n/a
189.668	0.06	379336	keystroke_l	l	n/a
189.788	0.104	379576	keystroke_l	l	n/a
189.8625	0.1195	379725	keystroke_y	y	n/a
190.312	0.09	380624	keystroke_Key.backspace	Key.backspace	n/a
190.447	0.09	380894	keystroke_e	e	n/a
190.627	0.075	381254	keystroke_y	y	n/a
190.9875	0.09	381975	keystroke_Key.space	Key.space	n/a
191.153	0.1345	382306	keystroke_b	b	n/a
191.3025	0.135	382605	keystroke_a	a	n/a
191.4075	0.075	382815	keystroke_l	l	n/a
191.5575	0.105	383115	keystroke_l	l	n/a
191.6325	0.12	383265	keystroke_Key.space	Key.space	n/a
191.7075	0.12	383415	keystroke_r	r	n/a
191.8125	0.12	383625	keystroke_u	u	n/a
191.9475	0.105	383895	keystroke_g	g	n/a
192.0225	0.12	384045	keystroke_s	s	n/a
192.2025	0.075	384405	keystroke_Key.enter	Key.enter	n/a
192.2825	4.6915	384565	prompt	n/a	lang mayor bishop sections\n
192.9225	0.09	385845	keystroke_l	l	n/a
192.9825	0.12	385965	keystroke_a	a	n/a
193.0875	0.105	386175	keystroke_n	n	n/a
193.1935	0.119	386387	keystroke_g	g	n/a
193.2825	0.1355	386565	keystroke_Key.space	Key.space	n/a
193.613	0.12	387226	keystroke_m	m	n/a
193.688	0.18	387376	keystroke_a	a	n/a
193.853	0.09	387706	keystroke_y	y	n/a
193.958	0.074	387916	keystroke_o	o	n/a
194.078	0.12	388156	keystroke_r	r	n/a
194.182	0.121	388364	keystroke_Key.space	Key.space	n/a
194.857	0.075	389714	keystroke_b	b	n/a
194.992	0.091	389984	keystroke_i	i	n/a
195.067	0.165	390134	keystroke_s	s	n/a
195.247	0.075	390494	keystroke_h	h	n/a
195.382	0.18	390764	keystroke_o	o	n/a
195.457	0.135	390914	keystroke_p	p	n/a
195.682	0.135	391364	keystroke_Key.space	Key.space	n/a
195.847	0.12	391694	keystroke_s	s	n/a
195.922	0.12	391844	keystroke_e	e	n/a
196.132	0.075	392264	keystroke_c	c	n/a
196.327	0.061	392654	keystroke_t	t	n/a
196.403	0.2545	392806	keystroke_i	i	n/a
196.477	0.1655	392954	keystroke_o	o	n/a
196.5675	0.1345	393135	keystroke_n	n	n/a
196.732	0.0755	393464	keystroke_s	s	n/a
196.927	0.045	393854	keystroke_Key.enter	Key.enter	n/a
196.977	5.344	393954	prompt	n/a	female assign french responded\n
197.842	0.09	395684	keystroke_f	f	n/a
197.992	0.075	395984	keystroke_e	e	n/a
198.142	0.12	396284	keystroke_m	m	n/a
198.247	0.09	396494	keystroke_a	a	n/a
198.352	0.105	396704	keystroke_l	l	n/a
198.517	0.1205	397034	keystroke_e	e	n/a
198.622	0.1205	397244	keystroke_Key.space	Key.space	n/a
198.848	0.105	397696	keystroke_a	a	n/a
199.0885	0.045	398177	keystroke_s	s	n/a
199.1935	0.0905	398387	keystroke_s	s	n/a
199.285	0.119	398570	keystroke_i	i	n/a
199.419	0.06	398838	keystroke_g	g	n/a
199.51	0.1045	399020	keystroke_n	n	n/a
199.6295	0.1055	399259	keystroke_Key.space	Key.space	n/a
199.8255	0.075	399651	keystroke_f	f	n/a
199.9755	0.1205	399951	keystroke_r	r	n/a
200.111	0.105	400222	keystroke_e	e	n/a
200.321	0.105	400642	keystroke_n	n	n/a
200.4565	0.105	400913	keystroke_c	c	n/a
200.5765	0.0905	401153	keystroke_h	h	n/a
200.712	0.1205	401424	keystroke_Key.space	Key.space	n/a
200.9975	0.105	401995	keystroke_r	r	n/a
201.0425	0.1355	402085	keystroke_e	e	n/a
201.1475	0.1355	402295	keystroke_s	s	n/a
201.253	0.105	402506	keystroke_p	p	n/a
201.448	0.06	402896	keystroke_o	o	n/a
201.5835	0.09	403167	keystroke_n	n	n/a
201.734	0.105	403468	keystroke_d	d	n/a
201.9135	0.0755	403827	keystroke_e	e	n/a
202.079	0.0905	404158	keystroke_d	d	n/a
202.259	0.061	404518	keystroke_Key.enter	Key.enter	n/a
202.325	6.907	404650	prompt	n/a	categories respectively have volunteer\n
202.9805	0.1205	405961	keystroke_c	c	n/a
203.116	0.12	406232	keystroke_a	a	n/a
203.281	0.09	406562	keystroke_t	t	n/a
203.416	0.09	406832	keystroke_e	e	n/a
203.5965	0.075	407193	keystroke_g	g	n/a
203.6865	0.075	407373	keystroke_o	o	n/a
203.792	0.0895	407584	keystroke_r	r	n/a
203.897	0.1045	407794	keystroke_i	i	n/a
204.0175	0.1045	408035	keystroke_e	e	n/a
204.0615	0.151	408123	keystroke_s	s	n/a
204.167	0.1505	408334	keystroke_Key.space	Key.space	n/a
204.363	0.12	408726	keystroke_r	r	n/a
204.4225	0.1355	408845	keystroke_e	e	n/a
204.513	0.1205	409026	keystroke_s	s	n/a
204.6485	0.06	409297	keystroke_p	p	n/a
204.7235	0.2095	409447	keystroke_e	e	n/a
204.8435	0.105	409687	keystroke_c	c	n/a
205.0235	0.105	410047	keystroke_i	i	n/a
205.219	0.12	410438	keystroke_t	t	n/a
205.8795	0.0605	411759	keystroke_Key.backspace	Key.backspace	n/a
206	0.075	412000	keystroke_Key.backspace	Key.backspace	n/a
206.105	0.1055	412210	keystroke_t	t	n/a
206.271	0.12	412542	keystroke_i	i	n/a
206.406	0.1055	412812	keystroke_v	v	n/a
206.5115	0.105	413023	keystroke_e	e	n/a
206.6765	0.09	413353	keystroke_l	l	n/a
206.7815	0.0905	413563	keystroke_y	y	n/a
206.8415	0.105	413683	keystroke_Key.space	Key.space	n/a
206.9765	0.1205	413953	keystroke_h	h	n/a
207.067	0.09	414134	keystroke_a	a	n/a
207.202	0.0755	414404	keystroke_v	v	n/a
207.2325	0.15	414465	keystroke_e	e	n/a
207.3525	0.075	414705	keystroke_Key.space	Key.space	n/a
207.638	0.12	415276	keystroke_v	v	n/a
207.743	0.0905	415486	keystroke_o	o	n/a
207.893	0.0905	415786	keystroke_l	l	n/a
208.1035	0.0905	416207	keystroke_u	u	n/a
208.269	0.09	416538	keystroke_n	n	n/a
208.5845	0.105	417169	keystroke_t	t	n/a
208.7495	0.076	417499	keystroke_e	e	n/a
208.9	0.135	417800	keystroke_e	e	n/a
209.02	0.1055	418040	keystroke_r	r	n/a
209.1705	0.06	418341	keystroke_Key.enter	Key.enter	n/a
209.235	4.1135	418470	prompt	n/a	clicking the horn parade\n
209.9365	0.1355	419873	keystroke_c	c	n/a
210.0115	0.1055	420023	keystroke_l	l	n/a
210.132	0.1205	420264	keystroke_i	i	n/a
210.3125	0.09	420625	keystroke_k	k	n/a
210.4475	0.12	420895	keystroke_c	c	n/a
210.7625	0.0605	421525	keystroke_Key.backspace	Key.backspace	n/a
210.8975	0.0755	421795	keystroke_Key.backspace	Key.backspace	n/a
211.078	0.1055	422156	keystroke_c	c	n/a
211.153	0.0755	422306	keystroke_k	k	n/a
211.3485	0.105	422697	keystroke_i	i	n/a
211.4085	0.1205	422817	keystroke_n	n	n/a
211.4835	0.0905	422967	keystroke_g	g	n/a
211.559	0.165	423118	keystroke_Key.space	Key.space	n/a
211.664	0.1055	423328	keystroke_t	t	n/a
211.709	0.1065	423418	keystroke_h	h	n/a
211.7995	0.135	423599	keystroke_e	e	n/a
211.8895	0.135	423779	keystroke_Key.space	Key.space	n/a
211.9645	0.09	423929	keystroke_h	h	n/a
212.115	0.075	424230	keystroke_o	o	n/a
212.205	0.105	424410	keystroke_r	r	n/a
212.265	0.0905	424530	keystroke_n	n	n/a
212.37	0.1355	424740	keystroke_Key.space	Key.space	n/a
212.5355	0.075	425071	keystroke_p	p	n/a
212.6255	0.151	425251	keystroke_a	a	n/a
212.7465	0.105	425493	keystroke_r	r	n/a
212.8365	0.1955	425673	keystroke_a	a	n/a
213.017	0.1645	426034	keystroke_d	d	n/a
213.1515	0.0905	426303	keystroke_e	e	n/a
213.287	0.06	426574	keystroke_Key.enter	Key.enter	n/a
213.3515	8.8315	426703	prompt	n/a	earthquake gibraltar opinions transmitted\n
214.3835	0.135	428767	keystroke_e	e	n/a
214.4735	0.1955	428947	keystroke_a	a	n/a
214.624	0.0905	429248	keystroke_r	r	n/a
215.331	0.089	430662	keystroke_t	t	n/a
215.451	0.134	430902	keystroke_h	h	n/a
215.7515	0.104	431503	keystroke_q	q	n/a
215.872	0.089	431744	keystroke_u	u	n/a
215.977	0.135	431954	keystroke_a	a	n/a
216.112	0.09	432224	keystroke_k	k	n/a
216.3065	0.106	432613	keystroke_e	e	n/a
216.4415	0.1355	432883	keystroke_Key.space	Key.space	n/a
217.298	0.1055	434596	keystroke_g	g	n/a
217.3885	0.12	434777	keystroke_i	i	n/a
217.6285	0.1205	435257	keystroke_b	b	n/a
217.764	0.12	435528	keystroke_r	r	n/a
217.899	0.12	435798	keystroke_a	a	n/a
218.0055	0.104	436011	keystroke_l	l	n/a
218.1545	0.075	436309	keystroke_t	t	n/a
218.2895	0.1955	436579	keystroke_a	a	n/a
218.44	0.12	436880	keystroke_r	r	n/a
218.605	0.1355	437210	keystroke_Key.space	Key.space	n/a
219.567	0.1355	439134	keystroke_o	o	n/a
219.627	0.0905	439254	keystroke_p	p	n/a
219.8525	0.0755	439705	keystroke_i	i	n/a
220.048	0.075	440096	keystroke_n	n	n/a
220.213	0.1805	440426	keystroke_i	i	n/a
220.2585	0.105	440517	keystroke_o	o	n/a
220.3485	0.12	440697	keystroke_n	n	n/a
220.514	0.15	441028	keystroke_s	s	n/a
220.634	0.1795	441268	keystroke_Key.space	Key.space	n/a
220.7235	0.1215	441447	keystroke_t	t	n/a
220.7995	0.1055	441599	keystroke_r	r	n/a
220.964	0.121	441928	keystroke_a	a	n/a
221.07	0.135	442140	keystroke_n	n	n/a
221.19	0.105	442380	keystroke_s	s	n/a
221.31	0.1055	442620	keystroke_m	m	n/a
221.4605	0.075	442921	keystroke_i	i	n/a
221.5505	0.06	443101	keystroke_t	t	n/a
221.671	0.135	443342	keystroke_t	t	n/a
221.791	0.09	443582	keystroke_e	e	n/a
221.9715	0.1195	443943	keystroke_d	d	n/a
222.106	0.075	444212	keystroke_Key.enter	Key.enter	n/a
222.186	4.3545	444372	prompt	n/a	chart mounting creates collar\n
222.813	0.105	445626	keystroke_c	c	n/a
222.888	0.12	445776	keystroke_h	h	n/a
222.978	0.135	445956	keystroke_a	a	n/a
223.053	0.1055	446106	keystroke_r	r	n/a
223.2335	0.105	446467	keystroke_t	t	n/a
223.3235	0.1355	446647	keystroke_Key.space	Key.space	n/a
223.474	0.105	446948	keystroke_m	m	n/a
223.594	0.135	447188	keystroke_o	o	n/a
223.699	0.0605	447398	keystroke_u	u	n/a
223.8345	0.0895	447669	keystroke_n	n	n/a
223.909	0.0905	447818	keystroke_t	t	n/a
224.0445	0.105	448089	keystroke_i	i	n/a
224.1195	0.105	448239	keystroke_n	n	n/a
224.2095	0.06	448419	keystroke_g	g	n/a
224.2395	0.1505	448479	keystroke_Key.space	Key.space	n/a
224.42	0.105	448840	keystroke_c	c	n/a
224.6305	0.1205	449261	keystroke_r	r	n/a
224.7055	0.1205	449411	keystroke_e	e	n/a
224.781	0.105	449562	keystroke_a	a	n/a
224.9465	0.104	449893	keystroke_t	t	n/a
225.0055	0.15	450011	keystroke_e	e	n/a
225.0815	0.1505	450163	keystroke_s	s	n/a
225.5765	0.12	451153	keystroke_Key.space	Key.space	n/a
225.8475	0.1205	451695	keystroke_c	c	n/a
225.938	0.06	451876	keystroke_o	o	n/a
226.088	0.06	452176	keystroke_l	l	n/a
226.2085	0.09	452417	keystroke_l	l	n/a
226.2835	0.134	452567	keystroke_a	a	n/a
226.3725	0.09	452745	keystroke_r	r	n/a
226.4635	0.0755	452927	keystroke_Key.enter	Key.enter	n/a
226.5435	5.21	453087	prompt	n/a	pork earrings museum tactics\n
227.185	0.059	454370	keystroke_p	p	n/a
227.38	0.0595	454760	keystroke_o	o	n/a
227.5005	0.075	455001	keystroke_r	r	n/a
227.5895	0.075	455179	keystroke_k	k	n/a
227.8	0.09	455600	keystroke_Key.space	Key.space	n/a
228.371	0.21	456742	keystroke_e	e	n/a
228.461	0.1655	456922	keystroke_a	a	n/a
228.566	0.1205	457132	keystroke_r	r	n/a
228.7315	0.105	457463	keystroke_n	n	n/a
228.9875	0.105	457975	keystroke_i	i	n/a
229.0625	0.1355	458125	keystroke_n	n	n/a
229.1525	0.1205	458305	keystroke_g	g	n/a
229.243	0.15	458486	keystroke_Key.space	Key.space	n/a
229.4385	0.045	458877	keystroke_m	m	n/a
229.5885	0.135	459177	keystroke_u	u	n/a
229.7085	0.1655	459417	keystroke_s	s	n/a
229.859	0.2105	459718	keystroke_e	e	n/a
230.264	0.0905	460528	keystroke_u	u	n/a
230.4445	0.105	460889	keystroke_m	m	n/a
230.6095	0.1055	461219	keystroke_Key.space	Key.space	n/a
230.745	0.09	461490	keystroke_t	t	n/a
230.88	0.196	461760	keystroke_a	a	n/a
231.0005	0.1055	462001	keystroke_c	c	n/a
231.211	0.06	462422	keystroke_t	t	n/a
231.286	0.105	462572	keystroke_i	i	n/a
231.4065	0.12	462813	keystroke_c	c	n/a
231.4665	0.12	462933	keystroke_s	s	n/a
231.6615	0.09	463323	keystroke_Key.enter	Key.enter	n/a
231.7565	5.0745	463513	prompt	n/a	norman just dover cloud\n
232.3675	0.0605	464735	keystroke_n	n	n/a
232.503	0.09	465006	keystroke_o	o	n/a
232.608	0.09	465216	keystroke_r	r	n/a
232.8185	0.105	465637	keystroke_m	m	n/a
232.9835	0.1055	465967	keystroke_a	a	n/a
233.209	0.09	466418	keystroke_l	l	n/a
233.6295	0.09	467259	keystroke_Key.backspace	Key.backspace	n/a
233.93	0.075	467860	keystroke_n	n	n/a
234.245	0.136	468490	keystroke_Key.space	Key.space	n/a
234.396	0.09	468792	keystroke_j	j	n/a
234.561	0.1055	469122	keystroke_u	u	n/a
234.6515	0.1345	469303	keystroke_s	s	n/a
234.7415	0.0895	469483	keystroke_t	t	n/a
234.801	0.1355	469602	keystroke_Key.space	Key.space	n/a
235.117	0.1045	470234	keystroke_d	d	n/a
235.2065	0.106	470413	keystroke_o	o	n/a
235.4175	0.1045	470835	keystroke_v	v	n/a
235.763	0.1195	471526	keystroke_e	e	n/a
235.8675	0.091	471735	keystroke_r	r	n/a
235.9275	0.1205	471855	keystroke_Key.space	Key.space	n/a
236.108	0.09	472216	keystroke_c	c	n/a
236.199	0.059	472398	keystroke_l	l	n/a
236.348	0.1505	472696	keystroke_o	o	n/a
236.4535	0.105	472907	keystroke_u	u	n/a
236.6035	0.106	473207	keystroke_d	d	n/a
236.739	0.09	473478	keystroke_Key.enter	Key.enter	n/a
236.834	6.862	473668	prompt	n/a	flyer smooth namespace measurements\n
237.49	0.1205	474980	keystroke_f	f	n/a
237.5805	0.1205	475161	keystroke_l	l	n/a
237.776	0.105	475552	keystroke_y	y	n/a
238.0015	0.15	476003	keystroke_e	e	n/a
238.1065	0.1205	476213	keystroke_r	r	n/a
238.196	0.1205	476392	keystroke_Key.space	Key.space	n/a
238.467	0.12	476934	keystroke_s	s	n/a
238.602	0.06	477204	keystroke_m	m	n/a
238.752	0.0605	477504	keystroke_o	o	n/a
238.8725	0.075	477745	keystroke_o	o	n/a
238.9625	0.1205	477925	keystroke_t	t	n/a
239.038	0.12	478076	keystroke_h	h	n/a
239.143	0.12	478286	keystroke_Key.space	Key.space	n/a
239.323	0.1055	478646	keystroke_n	n	n/a
239.4585	0.09	478917	keystroke_a	a	n/a
239.6235	0.0905	479247	keystroke_e	e	n/a
239.984	0.0605	479968	keystroke_=	=	n/a
240.63	0.1055	481260	keystroke_Key.backspace	Key.backspace	n/a
240.795	0.105	481590	keystroke_Key.backspace	Key.backspace	n/a
241.0505	0.09	482101	keystroke_m	m	n/a
241.2305	0.075	482461	keystroke_e	e	n/a
241.486	0.105	482972	keystroke_s	s	n/a
241.606	0.075	483212	keystroke_p	p	n/a
241.696	0.1355	483392	keystroke_a	a	n/a
241.8465	0.15	483693	keystroke_c	c	n/a
241.9215	0.1355	483843	keystroke_e	e	n/a
242.027	0.135	484054	keystroke_Key.space	Key.space	n/a
242.222	0.12	484444	keystroke_m	m	n/a
242.282	0.105	484564	keystroke_e	e	n/a
242.357	0.1805	484714	keystroke_a	a	n/a
242.4925	0.105	484985	keystroke_s	s	n/a
242.6575	0.09	485315	keystroke_u	u	n/a
242.7625	0.1205	485525	keystroke_r	r	n/a
242.853	0.09	485706	keystroke_e	e	n/a
243.0785	0.0905	486157	keystroke_m	m	n/a
243.199	0.105	486398	keystroke_e	e	n/a
243.274	0.09	486548	keystroke_n	n	n/a
243.364	0.1205	486728	keystroke_t	t	n/a
243.4695	0.09	486939	keystroke_s	s	n/a
243.6345	0.06	487269	keystroke_Key.enter	Key.enter	n/a
243.7005	7.2605	487401	prompt	n/a	prospect francis geometry running\n
244.521	0.045	489042	keystroke_p	p	n/a
244.551	0.12	489102	keystroke_r	r	n/a
244.7165	0.119	489433	keystroke_o	o	n/a
244.9415	0.105	489883	keystroke_s	s	n/a
245.4065	0.0905	490813	keystroke_p	p	n/a
245.557	0.165	491114	keystroke_e	e	n/a
245.707	0.105	491414	keystroke_c	c	n/a
245.9475	0.12	491895	keystroke_t	t	n/a
246.0525	0.1355	492105	keystroke_Key.space	Key.space	n/a
246.278	0.06	492556	keystroke_f	f	n/a
246.428	0.0905	492856	keystroke_r	r	n/a
246.5935	0.135	493187	keystroke_a	a	n/a
246.7285	0.105	493457	keystroke_n	n	n/a
246.8785	0.1205	493757	keystroke_c	c	n/a
247.014	0.09	494028	keystroke_i	i	n/a
247.119	0.12	494238	keystroke_s	s	n/a
247.254	0.1205	494508	keystroke_Key.space	Key.space	n/a
247.6145	0.09	495229	keystroke_g	g	n/a
247.81	0.075	495620	keystroke_e	e	n/a
247.93	0.105	495860	keystroke_o	o	n/a
248.185	0.1205	496370	keystroke_m	m	n/a
248.3805	0.1045	496761	keystroke_e	e	n/a
248.545	0.0755	497090	keystroke_t	t	n/a
248.6955	0.12	497391	keystroke_r	r	n/a
248.98	0.09	497960	keystroke_y	y	n/a
249.94	0.165	499880	keystroke_Key.space	Key.space	n/a
250.09	0.12	500180	keystroke_r	r	n/a
250.18	0.09	500360	keystroke_u	u	n/a
250.345	0.0605	500690	keystroke_n	n	n/a
250.4495	0.135	500899	keystroke_n	n	n/a
250.5845	0.1205	501169	keystroke_i	i	n/a
250.675	0.1045	501350	keystroke_n	n	n/a
250.75	0.0895	501500	keystroke_g	g	n/a
250.8845	0.0745	501769	keystroke_Key.enter	Key.enter	n/a
250.964	6.5215	501928	prompt	n/a	tree provided speaking lauderdale\n
251.649	0.105	503298	keystroke_t	t	n/a
251.815	0.1185	503630	keystroke_r	r	n/a
252.249	0.06	504498	keystroke_e	e	n/a
252.4145	0.0895	504829	keystroke_e	e	n/a
252.579	0.12	505158	keystroke_Key.space	Key.space	n/a
252.744	0.075	505488	keystroke_p	p	n/a
252.834	0.0745	505668	keystroke_r	r	n/a
252.9235	0.0755	505847	keystroke_o	o	n/a
253.029	0.135	506058	keystroke_v	v	n/a
253.149	0.09	506298	keystroke_i	i	n/a
253.284	0.09	506568	keystroke_d	d	n/a
253.629	0.031	507258	keystroke_d	d	n/a
254.3035	0.09	508607	keystroke_Key.backspace	Key.backspace	n/a
254.4685	0.12	508937	keystroke_e	e	n/a
254.6785	0.1205	509357	keystroke_d	d	n/a
254.799	0.105	509598	keystroke_Key.space	Key.space	n/a
254.963	0.091	509926	keystroke_s	s	n/a
255.038	0.09	510076	keystroke_p	p	n/a
255.159	0.1205	510318	keystroke_e	e	n/a
255.2185	0.105	510437	keystroke_a	a	n/a
255.2935	0.0755	510587	keystroke_k	k	n/a
255.473	0.105	510946	keystroke_i	i	n/a
255.533	0.121	511066	keystroke_n	n	n/a
255.624	0.09	511248	keystroke_g	g	n/a
255.683	0.12	511366	keystroke_Key.space	Key.space	n/a
255.849	0.1035	511698	keystroke_l	l	n/a
255.9375	0.151	511875	keystroke_a	a	n/a
256.0725	0.1065	512145	keystroke_u	u	n/a
256.224	0.06	512448	keystroke_d	d	n/a
256.358	0.1195	512716	keystroke_e	e	n/a
256.4325	0.09	512865	keystroke_r	r	n/a
256.6425	0.106	513285	keystroke_d	d	n/a
256.8685	0.1355	513737	keystroke_a	a	n/a
257.198	0.091	514396	keystroke_l	l	n/a
257.304	0.0585	514608	keystroke_e	e	n/a
257.4075	0.0755	514815	keystroke_Key.enter	Key.enter	n/a
257.4885	5.02	514977	prompt	n/a	add jackie incentive safer\n
258.233	0.0905	516466	keystroke_a	a	n/a
258.428	0.045	516856	keystroke_d	d	n/a
258.533	0.135	517066	keystroke_d	d	n/a
258.653	0.09	517306	keystroke_Key.space	Key.space	n/a
258.788	0.1055	517576	keystroke_j	j	n/a
258.833	0.1195	517666	keystroke_a	a	n/a
258.9225	0.1055	517845	keystroke_c	c	n/a
259.013	0.075	518026	keystroke_k	k	n/a
259.193	0.105	518386	keystroke_i	i	n/a
259.5825	0.06	519165	keystroke_e	e	n/a
259.7625	0.12	519525	keystroke_Key.space	Key.space	n/a
259.9575	0.135	519915	keystroke_i	i	n/a
260.0475	0.135	520095	keystroke_n	n	n/a
260.2125	0.105	520425	keystroke_c	c	n/a
260.3625	0.075	520725	keystroke_e	e	n/a
260.4525	0.105	520905	keystroke_n	n	n/a
260.5585	0.059	521117	keystroke_t	t	n/a
260.6475	0.12	521295	keystroke_i	i	n/a
260.7375	0.105	521475	keystroke_v	v	n/a
260.8575	0.105	521715	keystroke_e	e	n/a
260.9325	0.15	521865	keystroke_Key.space	Key.space	n/a
261.0975	0.045	522195	keystroke_d	d	n/a
261.5025	0.105	523005	keystroke_Key.backspace	Key.backspace	n/a
261.6225	0.105	523245	keystroke_s	s	n/a
261.7875	0.1045	523575	keystroke_a	a	n/a
261.952	0.105	523904	keystroke_f	f	n/a
262.132	0.0905	524264	keystroke_e	e	n/a
262.1925	0.1205	524385	keystroke_r	r	n/a
262.4025	0.105	524805	keystroke_Key.enter	Key.enter	n/a
262.512	5.906	525024	prompt	n/a	tennis minnesota jade solaris\n
263.152	0.09	526304	keystroke_t	t	n/a
263.287	0.1045	526574	keystroke_e	e	n/a
263.4815	0.06	526963	keystroke_n	n	n/a
263.6015	0.12	527203	keystroke_n	n	n/a
263.7065	0.1205	527413	keystroke_i	i	n/a
263.812	0.1195	527624	keystroke_s	s	n/a
263.8865	0.1205	527773	keystroke_Key.space	Key.space	n/a
263.992	0.105	527984	keystroke_m	m	n/a
264.142	0.09	528284	keystroke_i	i	n/a
264.307	0.1795	528614	keystroke_n	n	n/a
264.9665	0.09	529933	keystroke_n	n	n/a
265.1165	0.1645	530233	keystroke_e	e	n/a
265.206	0.1655	530412	keystroke_s	s	n/a
265.4315	0.09	530863	keystroke_o	o	n/a
265.7315	0.105	531463	keystroke_t	t	n/a
265.9415	0.105	531883	keystroke_a	a	n/a
266.1065	0.12	532213	keystroke_Key.space	Key.space	n/a
266.3915	0.105	532783	keystroke_j	j	n/a
266.5415	0.12	533083	keystroke_a	a	n/a
266.6765	0.1495	533353	keystroke_d	d	n/a
266.781	0.135	533562	keystroke_e	e	n/a
266.871	0.135	533742	keystroke_Key.space	Key.space	n/a
267.036	0.105	534072	keystroke_s	s	n/a
267.081	0.12	534162	keystroke_o	o	n/a
267.246	0.105	534492	keystroke_l	l	n/a
267.306	0.18	534612	keystroke_a	a	n/a
267.441	0.1195	534882	keystroke_r	r	n/a
267.5755	0.1205	535151	keystroke_i	i	n/a
267.741	0.09	535482	keystroke_s	s	n/a
268.2655	0.15	536531	keystroke_Key.enter	Key.enter	n/a
268.4205	4.466	536841	prompt	n/a	squad starter team merely\n
268.986	0.105	537972	keystroke_s	s	n/a
269.211	0.09	538422	keystroke_q	q	n/a
269.391	0.12	538782	keystroke_u	u	n/a
269.496	0.15	538992	keystroke_a	a	n/a
269.616	0.135	539232	keystroke_d	d	n/a
269.781	0.135	539562	keystroke_Key.space	Key.space	n/a
269.9305	0.195	539861	keystroke_s	s	n/a
270.081	0.1195	540162	keystroke_t	t	n/a
270.2305	0.15	540461	keystroke_a	a	n/a
270.3205	0.105	540641	keystroke_r	r	n/a
270.485	0.09	540970	keystroke_t	t	n/a
270.575	0.09	541150	keystroke_e	e	n/a
270.861	0.075	541722	keystroke_r	r	n/a
271.07	0.104	542140	keystroke_Key.space	Key.space	n/a
271.2955	0.075	542591	keystroke_t	t	n/a
271.3995	0.1205	542799	keystroke_e	e	n/a
271.4755	0.1195	542951	keystroke_a	a	n/a
271.565	0.12	543130	keystroke_m	m	n/a
271.67	0.12	543340	keystroke_Key.space	Key.space	n/a
271.85	0.09	543700	keystroke_m	m	n/a
271.925	0.12	543850	keystroke_e	e	n/a
272.03	0.135	544060	keystroke_r	r	n/a
272.105	0.165	544210	keystroke_e	e	n/a
272.42	0.105	544840	keystroke_l	l	n/a
272.585	0.06	545170	keystroke_y	y	n/a
272.825	0.06	545650	keystroke_Key.enter	Key.enter	n/a
272.89	7.3295	545780	prompt	n/a	facilities gmbh parcel finder\n
273.785	0.135	547570	keystroke_a	a	n/a
274.294	0.075	548588	keystroke_Key.backspace	Key.backspace	n/a
274.879	0.076	549758	keystroke_f	f	n/a
275.075	0.1045	550150	keystroke_a	a	n/a
275.2395	0.12	550479	keystroke_c	c	n/a
275.3445	0.15	550689	keystroke_i	i	n/a
275.4195	0.12	550839	keystroke_l	l	n/a
275.629	0.105	551258	keystroke_i	i	n/a
275.749	0.0895	551498	keystroke_t	t	n/a
275.8535	0.135	551707	keystroke_i	i	n/a
275.9585	0.135	551917	keystroke_e	e	n/a
276.0335	0.1655	552067	keystroke_s	s	n/a
276.184	0.135	552368	keystroke_Key.space	Key.space	n/a
276.529	0.105	553058	keystroke_g	g	n/a
276.6645	0.075	553329	keystroke_m	m	n/a
276.8885	0.075	553777	keystroke_b	b	n/a
277.1435	0.0905	554287	keystroke_d	d	n/a
277.579	0.09	555158	keystroke_Key.backspace	Key.backspace	n/a
277.758	0.03	555516	keystroke_h	h	n/a
278.478	0.1355	556956	keystroke_Key.space	Key.space	n/a
278.6735	0.105	557347	keystroke_p	p	n/a
278.7635	0.18	557527	keystroke_a	a	n/a
278.8685	0.09	557737	keystroke_r	r	n/a
279.0775	0.12	558155	keystroke_c	c	n/a
279.1675	0.105	558335	keystroke_e	e	n/a
279.3325	0.091	558665	keystroke_l	l	n/a
279.4375	0.1205	558875	keystroke_Key.space	Key.space	n/a
279.543	0.12	559086	keystroke_f	f	n/a
279.603	0.135	559206	keystroke_i	i	n/a
279.678	0.135	559356	keystroke_n	n	n/a
279.768	0.075	559536	keystroke_d	d	n/a
279.9325	0.091	559865	keystroke_e	e	n/a
279.9925	0.105	559985	keystroke_r	r	n/a
280.113	0.105	560226	keystroke_Key.enter	Key.enter	n/a
280.2225	4.5255	560445	prompt	n/a	runtime nikon visiting bent\n
280.9685	0.0895	561937	keystroke_r	r	n/a
281.0435	0.1195	562087	keystroke_u	u	n/a
281.103	0.105	562206	keystroke_n	n	n/a
281.208	0.09	562416	keystroke_t	t	n/a
281.313	0.105	562626	keystroke_i	i	n/a
281.373	0.135	562746	keystroke_m	m	n/a
281.463	0.135	562926	keystroke_e	e	n/a
281.613	0.12	563226	keystroke_Key.space	Key.space	n/a
281.748	0.12	563496	keystroke_n	n	n/a
281.883	0.075	563766	keystroke_i	i	n/a
282.048	0.0895	564096	keystroke_k	k	n/a
282.2125	0.06	564425	keystroke_o	o	n/a
282.3475	0.0905	564695	keystroke_n	n	n/a
282.453	0.105	564906	keystroke_Key.space	Key.space	n/a
282.647	0.09	565294	keystroke_v	v	n/a
282.722	0.0755	565444	keystroke_i	i	n/a
282.8125	0.105	565625	keystroke_s	s	n/a
282.9025	0.09	565805	keystroke_i	i	n/a
283.038	0.0745	566076	keystroke_t	t	n/a
283.083	0.1195	566166	keystroke_i	i	n/a
283.1425	0.12	566285	keystroke_n	n	n/a
283.2775	0.09	566555	keystroke_g	g	n/a
283.3525	0.12	566705	keystroke_Key.space	Key.space	n/a
283.892	0.09	567784	keystroke_b	b	n/a
284.027	0.09	568054	keystroke_e	e	n/a
284.1325	0.09	568265	keystroke_n	n	n/a
284.2525	0.075	568505	keystroke_t	t	n/a
284.627	0.12	569254	keystroke_Key.enter	Key.enter	n/a
284.7515	5.0205	569503	prompt	n/a	crew emperor larger add\n
285.3615	0.09	570723	keystroke_c	c	n/a
285.5715	0.105	571143	keystroke_r	r	n/a
285.7665	0.135	571533	keystroke_e	e	n/a
285.8565	0.135	571713	keystroke_w	w	n/a
285.9615	0.1195	571923	keystroke_Key.space	Key.space	n/a
286.126	0.09	572252	keystroke_e	e	n/a
286.231	0.06	572462	keystroke_m	m	n/a
286.3965	0.06	572793	keystroke_p	p	n/a
286.5315	0.1345	573063	keystroke_o	o	n/a
286.951	0.09	573902	keystroke_Key.backspace	Key.backspace	n/a
287.206	0.09	574412	keystroke_e	e	n/a
287.401	0.075	574802	keystroke_r	r	n/a
287.506	0.1195	575012	keystroke_o	o	n/a
287.6855	0.0905	575371	keystroke_r	r	n/a
287.776	0.12	575552	keystroke_Key.space	Key.space	n/a
288.256	0.12	576512	keystroke_l	l	n/a
288.346	0.165	576692	keystroke_a	a	n/a
288.451	0.09	576902	keystroke_r	r	n/a
288.646	0.075	577292	keystroke_g	g	n/a
288.766	0.149	577532	keystroke_e	e	n/a
288.856	0.135	577712	keystroke_r	r	n/a
288.931	0.1495	577862	keystroke_Key.space	Key.space	n/a
289.0955	0.135	578191	keystroke_a	a	n/a
289.3355	0.0755	578671	keystroke_d	d	n/a
289.5	0.09	579000	keystroke_d	d	n/a
289.695	0.075	579390	keystroke_Key.enter	Key.enter	n/a
289.775	6.6545	579550	prompt	n/a	korea afterwards fence villas\n
290.4	0.075	580800	keystroke_k	k	n/a
290.565	0.09	581130	keystroke_o	o	n/a
290.7	0.165	581400	keystroke_r	r	n/a
290.8045	0.1505	581609	keystroke_e	e	n/a
290.895	0.1495	581790	keystroke_a	a	n/a
291.2395	0.105	582479	keystroke_Key.space	Key.space	n/a
291.36	0.1355	582720	keystroke_a	a	n/a
291.5105	0.1195	583021	keystroke_f	f	n/a
291.75	0.075	583500	keystroke_t	t	n/a
291.87	0.105	583740	keystroke_e	e	n/a
291.93	0.105	583860	keystroke_r	r	n/a
292.08	0.15	584160	keystroke_w	w	n/a
292.17	0.15	584340	keystroke_a	a	n/a
292.305	0.09	584610	keystroke_r	r	n/a
292.44	0.15	584880	keystroke_d	d	n/a
292.515	0.135	585030	keystroke_s	s	n/a
292.665	0.12	585330	keystroke_Key.space	Key.space	n/a
292.86	0.105	585720	keystroke_f	f	n/a
293.04	0.09	586080	keystroke_e	e	n/a
293.19	0.104	586380	keystroke_n	n	n/a
293.34	0.1345	586680	keystroke_c	c	n/a
293.43	0.134	586860	keystroke_e	e	n/a
293.534	0.135	587068	keystroke_Key.space	Key.space	n/a
293.7295	0.075	587459	keystroke_c	c	n/a
294.209	0.0155	588418	keystroke_=	=	n/a
294.209	0.0895	588418	keystroke_Key.backspace	Key.backspace	n/a
294.4045	0.09	588809	keystroke_v	v	n/a
294.5545	0.075	589109	keystroke_i	i	n/a
294.869	0.0595	589738	keystroke_Key.backspace	Key.backspace	n/a
294.9885	0.0745	589977	keystroke_Key.backspace	Key.backspace	n/a
295.138	0.075	590276	keystroke_Key.backspace	Key.backspace	n/a
295.244	0.104	590488	keystroke_v	v	n/a
295.3935	0.0905	590787	keystroke_i	i	n/a
295.6035	0.045	591207	keystroke_l	l	n/a
295.7235	0.105	591447	keystroke_l	l	n/a
295.8135	0.105	591627	keystroke_a	a	n/a
296.0385	0.12	592077	keystroke_s	s	n/a
296.383	0.045	592766	keystroke_Key.enter	Key.enter	n/a
296.4335	6.8645	592867	prompt	n/a	relaxation companies javascript decimal\n
297.0885	0.1345	594177	keystroke_r	r	n/a
297.163	0.09	594326	keystroke_e	e	n/a
297.283	0.105	594566	keystroke_l	l	n/a
297.373	0.105	594746	keystroke_a	a	n/a
297.628	0.09	595256	keystroke_x	x	n/a
297.838	0.105	595676	keystroke_a	a	n/a
298.048	0.09	596096	keystroke_t	t	n/a
298.138	0.21	596276	keystroke_i	i	n/a
298.183	0.135	596366	keystroke_o	o	n/a
298.273	0.135	596546	keystroke_n	n	n/a
298.363	0.105	596726	keystroke_Key.space	Key.space	n/a
298.528	0.105	597056	keystroke_c	c	n/a
298.603	0.105	597206	keystroke_o	o	n/a
298.678	0.075	597356	keystroke_m	m	n/a
298.813	0.075	597626	keystroke_p	p	n/a
298.903	0.1195	597806	keystroke_a	a	n/a
299.008	0.0745	598016	keystroke_n	n	n/a
299.1275	0.09	598255	keystroke_i	i	n/a
299.2325	0.135	598465	keystroke_e	e	n/a
299.3075	0.165	598615	keystroke_s	s	n/a
299.4125	0.135	598825	keystroke_Key.space	Key.space	n/a
299.5625	0.1195	599125	keystroke_j	j	n/a
299.637	0.105	599274	keystroke_a	a	n/a
299.922	0.075	599844	keystroke_v	v	n/a
300.072	0.12	600144	keystroke_a	a	n/a
300.4025	0.09	600805	keystroke_s	s	n/a
300.5975	0.09	601195	keystroke_c	c	n/a
300.793	0.06	601586	keystroke_r	r	n/a
300.898	0.075	601796	keystroke_i	i	n/a
301.092	0.06	602184	keystroke_p	p	n/a
301.212	0.075	602424	keystroke_t	t	n/a
301.482	0.105	602964	keystroke_Key.space	Key.space	n/a
301.7675	0.0745	603535	keystroke_d	d	n/a
301.917	0.075	603834	keystroke_e	e	n/a
302.022	0.12	604044	keystroke_c	c	n/a
302.202	0.15	604404	keystroke_i	i	n/a
302.277	0.12	604554	keystroke_m	m	n/a
302.9225	0.119	605845	keystroke_a	a	n/a
303.0275	0.074	606055	keystroke_l	l	n/a
303.237	0.06	606474	keystroke_Key.enter	Key.enter	n/a
303.3025	5.274	606605	prompt	n/a	sources corpus bother can't\n
304.061	0.105	608122	keystroke_s	s	n/a
304.136	0.15	608272	keystroke_o	o	n/a
304.241	0.12	608482	keystroke_u	u	n/a
304.301	0.075	608602	keystroke_r	r	n/a
304.511	0.135	609022	keystroke_c	c	n/a
304.631	0.15	609262	keystroke_e	e	n/a
304.706	0.12	609412	keystroke_s	s	n/a
304.796	0.12	609592	keystroke_Key.space	Key.space	n/a
305.036	0.1355	610072	keystroke_c	c	n/a
305.1865	0.105	610373	keystroke_o	o	n/a
305.3065	0.09	610613	keystroke_r	r	n/a
305.4265	0.0895	610853	keystroke_p	p	n/a
305.636	0.09	611272	keystroke_u	u	n/a
305.741	0.165	611482	keystroke_s	s	n/a
305.876	0.135	611752	keystroke_Key.space	Key.space	n/a
306.101	0.06	612202	keystroke_b	b	n/a
306.266	0.075	612532	keystroke_o	o	n/a
306.371	0.075	612742	keystroke_t	t	n/a
306.446	0.12	612892	keystroke_h	h	n/a
306.551	0.12	613102	keystroke_e	e	n/a
306.611	0.09	613222	keystroke_r	r	n/a
306.656	0.15	613312	keystroke_Key.space	Key.space	n/a
306.881	0.12	613762	keystroke_c	c	n/a
306.971	0.12	613942	keystroke_a	a	n/a
307.031	0.09	614062	keystroke_n	n	n/a
307.1655	0.135	614331	keystroke_'	'	n/a
307.3305	0.105	614661	keystroke_t	t	n/a
307.4205	0.045	614841	keystroke_Key.space	Key.space	n/a
307.8105	0.015	615621	keystroke_=	=	n/a
307.8105	0.075	615621	keystroke_Key.backspace	Key.backspace	n/a
308.1995	0.105	616399	keystroke_Key.backspace	Key.backspace	n/a
308.485	0.0905	616970	keystroke_Key.enter	Key.enter	n/a
308.5815	5.978	617163	prompt	n/a	html reporters highways matrix\n
309.22	0.12	618440	keystroke_h	h	n/a
309.565	0.105	619130	keystroke_t	t	n/a
309.775	0.09	619550	keystroke_m	m	n/a
310.1345	0.09	620269	keystroke_l	l	n/a
310.3295	0.105	620659	keystroke_Key.space	Key.space	n/a
310.5395	0.105	621079	keystroke_r	r	n/a
310.5995	0.09	621199	keystroke_e	e	n/a
310.7045	0.06	621409	keystroke_p	p	n/a
310.8395	0.09	621679	keystroke_o	o	n/a
310.9145	0.06	621829	keystroke_r	r	n/a
311.0645	0.06	622129	keystroke_t	t	n/a
311.2295	0.135	622459	keystroke_e	e	n/a
311.3195	0.1795	622639	keystroke_r	r	n/a
311.469	0.12	622938	keystroke_s	s	n/a
311.604	0.105	623208	keystroke_Key.space	Key.space	n/a
311.754	0.105	623508	keystroke_h	h	n/a
311.844	0.06	623688	keystroke_i	i	n/a
311.905	0.089	623810	keystroke_g	g	n/a
312.009	0.09	624018	keystroke_h	h	n/a
312.309	0.0905	624618	keystroke_w	w	n/a
312.339	0.15	624678	keystroke_a	a	n/a
312.6395	0.075	625279	keystroke_y	y	n/a
312.819	0.105	625638	keystroke_s	s	n/a
312.9985	0.12	625997	keystroke_Key.space	Key.space	n/a
313.1935	0.12	626387	keystroke_m	m	n/a
313.2535	0.15	626507	keystroke_a	a	n/a
313.5535	0.15	627107	keystroke_t	t	n/a
313.6285	0.12	627257	keystroke_r	r	n/a
313.824	0.075	627648	keystroke_i	i	n/a
314.0185	0.0755	628037	keystroke_x	x	n/a
314.483	0.075	628966	keystroke_Key.enter	Key.enter	n/a
314.566	6.6365	629132	prompt	n/a	patrol respiratory donate loading\n
315.2325	0.06	630465	keystroke_p	p	n/a
315.3075	0.195	630615	keystroke_a	a	n/a
315.4725	0.06	630945	keystroke_r	r	n/a
315.877	0.1355	631754	keystroke_Key.backspace	Key.backspace	n/a
316.1025	0.12	632205	keystroke_t	t	n/a
316.1625	0.135	632325	keystroke_r	r	n/a
316.2975	0.075	632595	keystroke_o	o	n/a
316.4775	0.09	632955	keystroke_l	l	n/a
316.6575	0.135	633315	keystroke_Key.space	Key.space	n/a
316.8975	0.15	633795	keystroke_r	r	n/a
316.9575	0.165	633915	keystroke_e	e	n/a
317.0775	0.15	634155	keystroke_s	s	n/a
317.2575	0.075	634515	keystroke_p	p	n/a
318.157	0.09	636314	keystroke_i	i	n/a
318.337	0.12	636674	keystroke_r	r	n/a
318.442	0.195	636884	keystroke_a	a	n/a
318.592	0.09	637184	keystroke_t	t	n/a
318.697	0.09	637394	keystroke_o	o	n/a
318.802	0.075	637604	keystroke_r	r	n/a
318.997	0.09	637994	keystroke_y	y	n/a
319.071	0.12	638142	keystroke_Key.space	Key.space	n/a
319.326	0.075	638652	keystroke_d	d	n/a
319.521	0.075	639042	keystroke_o	o	n/a
319.642	0.15	639284	keystroke_n	n	n/a
319.806	0.121	639612	keystroke_a	a	n/a
319.942	0.134	639884	keystroke_t	t	n/a
320.062	0.1185	640124	keystroke_e	e	n/a
320.1365	0.149	640273	keystroke_Key.space	Key.space	n/a
320.3455	0.06	640691	keystroke_l	l	n/a
320.4805	0.121	640961	keystroke_o	o	n/a
320.5705	0.15	641141	keystroke_a	a	n/a
320.6605	0.105	641321	keystroke_d	d	n/a
320.7665	0.1195	641533	keystroke_i	i	n/a
320.841	0.105	641682	keystroke_n	n	n/a
320.931	0.09	641862	keystroke_g	g	n/a
321.096	0.105	642192	keystroke_Key.enter	Key.enter	n/a
321.2055	12.219	642411	prompt	n/a	advertisers derek streaming eating\n
321.7715	0.149	643543	keystroke_a	a	n/a
321.8765	0.104	643753	keystroke_d	d	n/a
322.0855	0.076	644171	keystroke_v	v	n/a
322.2215	0.135	644443	keystroke_e	e	n/a
322.3115	0.105	644623	keystroke_r	r	n/a
322.5365	0.09	645073	keystroke_t	t	n/a
322.6565	0.1045	645313	keystroke_i	i	n/a
322.776	0.15	645552	keystroke_s	s	n/a
322.881	0.12	645762	keystroke_e	e	n/a
323.061	0.1495	646122	keystroke_r	r	n/a
323.1955	0.15	646391	keystroke_s	s	n/a
323.3155	0.135	646631	keystroke_Key.space	Key.space	n/a
323.4805	0.0745	646961	keystroke_d	d	n/a
323.63	0.1195	647260	keystroke_e	e	n/a
323.7345	0.135	647469	keystroke_r	r	n/a
323.8405	0.119	647681	keystroke_e	e	n/a
323.99	0.105	647980	keystroke_k	k	n/a
324.125	0.1345	648250	keystroke_Key.space	Key.space	n/a
324.3495	0.075	648699	keystroke_s	s	n/a
324.4995	0.12	648999	keystroke_t	t	n/a
324.5745	0.105	649149	keystroke_r	r	n/a
324.98	0.09	649960	keystroke_e	e	n/a
325.3855	0.1345	650771	keystroke_Key.backspace	Key.backspace	n/a
325.64	0.105	651280	keystroke_r	r	n/a
325.79	0.135	651580	keystroke_e	e	n/a
325.88	0.12	651760	keystroke_a	a	n/a
325.985	0.075	651970	keystroke_m	m	n/a
326.21	0.045	652420	keystroke_i	i	n/a
326.2245	0.1055	652449	keystroke_n	n	n/a
326.3	0.105	652600	keystroke_g	g	n/a
326.375	0.135	652750	keystroke_Key.space	Key.space	n/a
326.615	0.135	653230	keystroke_e	e	n/a
326.69	0.12	653380	keystroke_a	a	n/a
326.87	0.105	653740	keystroke_t	t	n/a
327.005	0.105	654010	keystroke_i	i	n/a
327.05	0.12	654100	keystroke_n	n	n/a
327.6345	0.0745	655269	keystroke_Key.backspace	Key.backspace	n/a
327.769	0.075	655538	keystroke_Key.backspace	Key.backspace	n/a
327.919	0.075	655838	keystroke_Key.backspace	Key.backspace	n/a
328.0545	0.075	656109	keystroke_Key.backspace	Key.backspace	n/a
328.204	0.06	656408	keystroke_Key.backspace	Key.backspace	n/a
328.339	0.0595	656678	keystroke_Key.backspace	Key.backspace	n/a
328.4735	0.06	656947	keystroke_Key.backspace	Key.backspace	n/a
328.6235	0.06	657247	keystroke_Key.backspace	Key.backspace	n/a
328.7585	0.06	657517	keystroke_Key.backspace	Key.backspace	n/a
328.8935	0.075	657787	keystroke_Key.backspace	Key.backspace	n/a
329.0435	0.075	658087	keystroke_Key.backspace	Key.backspace	n/a
329.238	0.075	658476	keystroke_Key.backspace	Key.backspace	n/a
329.553	0.09	659106	keystroke_Key.backspace	Key.backspace	n/a
329.8235	0.105	659647	keystroke_e	e	n/a
329.8835	0.135	659767	keystroke_a	a	n/a
330.0335	0.045	660067	keystroke_m	m	n/a
330.0485	0.015	660097	keystroke_j	j	n/a
330.1985	0.135	660397	keystroke_i	i	n/a
330.2885	0.106	660577	keystroke_n	n	n/a
330.6785	0.0445	661357	keystroke_Key.backspace	Key.backspace	n/a
330.813	0.075	661626	keystroke_Key.backspace	Key.backspace	n/a
330.948	0.075	661896	keystroke_Key.backspace	Key.backspace	n/a
331.7725	0.0905	663545	keystroke_i	i	n/a
331.8175	0.1055	663635	keystroke_n	n	n/a
331.908	0.105	663816	keystroke_g	g	n/a
331.983	0.135	663966	keystroke_Key.space	Key.space	n/a
332.178	0.15	664356	keystroke_e	e	n/a
332.283	0.075	664566	keystroke_a	a	n/a
332.418	0.09	664836	keystroke_t	t	n/a
332.538	0.105	665076	keystroke_i	i	n/a
332.583	0.12	665166	keystroke_n	n	n/a
332.658	0.0905	665316	keystroke_g	g	n/a
333.3635	0.06	666727	keystroke_Key.enter	Key.enter	n/a
333.428	5.47	666856	prompt	n/a	jesse sufficiently nights integrate\n
334.098	0.12	668196	keystroke_j	j	n/a
334.173	0.105	668346	keystroke_e	e	n/a
334.398	0.06	668796	keystroke_s	s	n/a
334.518	0.15	669036	keystroke_s	s	n/a
334.638	0.12	669276	keystroke_e	e	n/a
334.743	0.135	669486	keystroke_Key.space	Key.space	n/a
334.878	0.135	669756	keystroke_s	s	n/a
334.998	0.12	669996	keystroke_u	u	n/a
335.133	0.06	670266	keystroke_f	f	n/a
335.2525	0.09	670505	keystroke_f	f	n/a
335.4025	0.0745	670805	keystroke_i	i	n/a
335.447	0.12	670894	keystroke_c	c	n/a
335.582	0.075	671164	keystroke_i	i	n/a
335.672	0.1045	671344	keystroke_e	e	n/a
335.7615	0.105	671523	keystroke_n	n	n/a
335.897	0.1045	671794	keystroke_t	t	n/a
336.0465	0.09	672093	keystroke_l	l	n/a
336.1515	0.105	672303	keystroke_y	y	n/a
336.2265	0.135	672453	keystroke_Key.space	Key.space	n/a
336.4215	0.075	672843	keystroke_n	n	n/a
336.5415	0.075	673083	keystroke_i	i	n/a
336.6315	0.09	673263	keystroke_g	g	n/a
336.7065	0.12	673413	keystroke_h	h	n/a
336.7965	0.12	673593	keystroke_t	t	n/a
336.9315	0.15	673863	keystroke_s	s	n/a
337.1265	0.135	674253	keystroke_Key.space	Key.space	n/a
337.5315	0.135	675063	keystroke_i	i	n/a
337.6365	0.135	675273	keystroke_n	n	n/a
337.8165	0.09	675633	keystroke_t	t	n/a
337.9815	0.09	675963	keystroke_e	e	n/a
338.1465	0.0745	676293	keystroke_g	g	n/a
338.311	0.15	676622	keystroke_r	r	n/a
338.446	0.09	676892	keystroke_a	a	n/a
338.596	0.09	677192	keystroke_t	t	n/a
338.656	0.1205	677312	keystroke_e	e	n/a
338.8215	0.075	677643	keystroke_Key.enter	Key.enter	n/a
338.9005	6.1305	677801	prompt	n/a	retro falling gene womens\n
339.4955	0.135	678991	keystroke_r	r	n/a
339.5565	0.104	679113	keystroke_e	e	n/a
339.7655	0.135	679531	keystroke_t	t	n/a
339.8255	0.105	679651	keystroke_r	r	n/a
340.0655	0.105	680131	keystroke_o	o	n/a
340.3805	0.09	680761	keystroke_Key.space	Key.space	n/a
341.386	0.135	682772	keystroke_f	f	n/a
341.491	0.135	682982	keystroke_a	a	n/a
341.686	0.045	683372	keystroke_l	l	n/a
341.806	0.09	683612	keystroke_l	l	n/a
342.031	0.1195	684062	keystroke_i	i	n/a
342.076	0.135	684152	keystroke_n	n	n/a
342.256	0.12	684512	keystroke_g	g	n/a
342.4355	0.135	684871	keystroke_Key.space	Key.space	n/a
342.706	0.074	685412	keystroke_g	g	n/a
342.855	0.091	685710	keystroke_e	e	n/a
342.9	0.03	685800	keystroke_n	n	n/a
342.961	0.12	685922	keystroke_n	n	n/a
343.11	0.0755	686220	keystroke_e	e	n/a
343.589	0.06	687178	keystroke_Key.backspace	Key.backspace	n/a
343.709	0.105	687418	keystroke_Key.backspace	Key.backspace	n/a
343.83	0.12	687660	keystroke_e	e	n/a
343.934	0.105	687868	keystroke_Key.space	Key.space	n/a
344.25	0.104	688500	keystroke_w	w	n/a
344.325	0.09	688650	keystroke_o	o	n/a
344.384	0.075	688768	keystroke_m	m	n/a
344.535	0.075	689070	keystroke_e	e	n/a
344.64	0.105	689280	keystroke_n	n	n/a
344.745	0.075	689490	keystroke_s	s	n/a
344.94	0.0895	689880	keystroke_Key.enter	Key.enter	n/a
345.0345	4.9905	690069	prompt	n/a	roller relative rays project\n
345.6145	0.105	691229	keystroke_r	r	n/a
345.7045	0.06	691409	keystroke_o	o	n/a
345.8545	0.045	691709	keystroke_l	l	n/a
345.9895	0.075	691979	keystroke_l	l	n/a
346.0495	0.1195	692099	keystroke_e	e	n/a
346.1245	0.1045	692249	keystroke_r	r	n/a
346.184	0.12	692368	keystroke_Key.space	Key.space	n/a
346.439	0.135	692878	keystroke_r	r	n/a
346.529	0.105	693058	keystroke_e	e	n/a
346.664	0.09	693328	keystroke_l	l	n/a
346.769	0.09	693538	keystroke_a	a	n/a
346.934	0.06	693868	keystroke_t	t	n/a
347.039	0.1045	694078	keystroke_i	i	n/a
347.129	0.1045	694258	keystroke_v	v	n/a
347.2185	0.12	694437	keystroke_e	e	n/a
347.3235	0.12	694647	keystroke_Key.space	Key.space	n/a
347.4135	0.135	694827	keystroke_r	r	n/a
347.5185	0.105	695037	keystroke_a	a	n/a
347.7435	0.06	695487	keystroke_y	y	n/a
347.8785	0.12	695757	keystroke_s	s	n/a
348.0135	0.12	696027	keystroke_Key.space	Key.space	n/a
348.554	0.09	697108	keystroke_p	p	n/a
348.899	0.09	697798	keystroke_r	r	n/a
349.049	0.09	698098	keystroke_o	o	n/a
349.214	0.105	698428	keystroke_j	j	n/a
349.364	0.165	698728	keystroke_e	e	n/a
349.454	0.135	698908	keystroke_c	c	n/a
349.7085	0.09	699417	keystroke_t	t	n/a
349.9335	0.09	699867	keystroke_Key.enter	Key.enter	n/a
350.0285	7.7645	700057	prompt	n/a	ranked geometry postings pentium\n
350.6975	0.1055	701395	keystroke_r	r	n/a
350.818	0.105	701636	keystroke_a	a	n/a
350.893	0.105	701786	keystroke_n	n	n/a
350.968	0.12	701936	keystroke_k	k	n/a
351.103	0.075	702206	keystroke_e	e	n/a
351.2825	0.12	702565	keystroke_d	d	n/a
351.3875	0.105	702775	keystroke_Key.space	Key.space	n/a
351.553	0.06	703106	keystroke_g	g	n/a
351.673	0.1045	703346	keystroke_e	e	n/a
352.0025	0.075	704005	keystroke_o	o	n/a
352.242	0.09	704484	keystroke_m	m	n/a
352.423	0.089	704846	keystroke_e	e	n/a
352.602	0.135	705204	keystroke_t	t	n/a
352.692	0.12	705384	keystroke_r	r	n/a
352.872	0.09	705744	keystroke_y	y	n/a
353.052	0.12	706104	keystroke_Key.space	Key.space	n/a
353.232	0.06	706464	keystroke_p	p	n/a
353.352	0.076	706704	keystroke_o	o	n/a
353.442	0.09	706884	keystroke_s	s	n/a
353.502	0.106	707004	keystroke_t	t	n/a
353.622	0.12	707244	keystroke_s	s	n/a
354.177	0.12	708354	keystroke_i	i	n/a
354.5525	0.06	709105	keystroke_Key.backspace	Key.backspace	n/a
354.7025	0.075	709405	keystroke_Key.backspace	Key.backspace	n/a
355.3775	0.105	710755	keystroke_i	i	n/a
355.4375	0.135	710875	keystroke_n	n	n/a
355.4975	0.12	710995	keystroke_g	g	n/a
355.6325	0.1495	711265	keystroke_s	s	n/a
355.707	0.165	711414	keystroke_Key.space	Key.space	n/a
355.977	0.09	711954	keystroke_p	p	n/a
356.112	0.09	712224	keystroke_e	e	n/a
356.187	0.0905	712374	keystroke_n	n	n/a
356.322	0.075	712644	keystroke_t	t	n/a
357.072	0.074	714144	keystroke_i	i	n/a
357.237	0.075	714474	keystroke_u	u	n/a
357.432	0.089	714864	keystroke_m	m	n/a
357.7165	0.075	715433	keystroke_Key.enter	Key.enter	n/a
357.796	6.49	715592	prompt	n/a	ensuring political phenomenon pike\n
358.766	0.075	717532	keystroke_e	e	n/a
358.871	0.09	717742	keystroke_n	n	n/a
358.946	0.105	717892	keystroke_s	s	n/a
359.066	0.09	718132	keystroke_u	u	n/a
359.141	0.075	718282	keystroke_r	r	n/a
359.246	0.1045	718492	keystroke_i	i	n/a
359.3055	0.12	718611	keystroke_n	n	n/a
359.3655	0.09	718731	keystroke_g	g	n/a
359.4405	0.09	718881	keystroke_Key.space	Key.space	n/a
359.5905	0.075	719181	keystroke_p	p	n/a
359.7405	0.09	719481	keystroke_o	o	n/a
359.9055	0.045	719811	keystroke_l	l	n/a
360.0405	0.105	720081	keystroke_i	i	n/a
360.1755	0.06	720351	keystroke_t	t	n/a
360.3105	0.09	720621	keystroke_i	i	n/a
360.3855	0.12	720771	keystroke_c	c	n/a
360.4755	0.12	720951	keystroke_a	a	n/a
360.6105	0.075	721221	keystroke_l	l	n/a
360.7305	0.09	721461	keystroke_Key.space	Key.space	n/a
360.9405	0.075	721881	keystroke_p	p	n/a
361.5105	0.12	723021	keystroke_h	h	n/a
361.93	0.075	723860	keystroke_e	e	n/a
362.035	0.075	724070	keystroke_n	n	n/a
362.17	0.15	724340	keystroke_o	o	n/a
362.29	0.1205	724580	keystroke_m	m	n/a
362.5155	0.075	725031	keystroke_e	e	n/a
362.6055	0.105	725211	keystroke_n	n	n/a
362.8155	0.09	725631	keystroke_o	o	n/a
362.9655	0.0895	725931	keystroke_n	n	n/a
363.13	0.105	726260	keystroke_Key.space	Key.space	n/a
363.28	0.03	726560	keystroke_p	p	n/a
363.6695	0.09	727339	keystroke_i	i	n/a
363.8645	0.0895	727729	keystroke_k	k	n/a
363.9845	0.0745	727969	keystroke_e	e	n/a
364.2095	0.075	728419	keystroke_Key.enter	Key.enter	n/a
364.2895	6.49	728579	prompt	n/a	vast patients luxury sender\n
365.2145	0.075	730429	keystroke_a	a	n/a
365.634	0.12	731268	keystroke_Key.backspace	Key.backspace	n/a
365.7845	0.105	731569	keystroke_v	v	n/a
365.9795	0.15	731959	keystroke_a	a	n/a
366.0695	0.15	732139	keystroke_s	s	n/a
366.3695	0.075	732739	keystroke_t	t	n/a
366.744	0.12	733488	keystroke_Key.space	Key.space	n/a
367.239	0.1195	734478	keystroke_p	p	n/a
367.4185	0.165	734837	keystroke_a	a	n/a
367.5535	0.09	735107	keystroke_t	t	n/a
367.6585	0.075	735317	keystroke_i	i	n/a
367.7485	0.075	735497	keystroke_e	e	n/a
367.8385	0.09	735677	keystroke_n	n	n/a
367.8835	0.15	735767	keystroke_t	t	n/a
367.9885	0.12	735977	keystroke_s	s	n/a
368.0935	0.1345	736187	keystroke_Key.space	Key.space	n/a
368.258	0.075	736516	keystroke_l	l	n/a
368.453	0.105	736906	keystroke_u	u	n/a
368.543	0.09	737086	keystroke_x	x	n/a
368.634	0.119	737268	keystroke_u	u	n/a
368.7835	0.15	737567	keystroke_r	r	n/a
369.2035	0.075	738407	keystroke_y	y	n/a
369.4135	0.105	738827	keystroke_Key.space	Key.space	n/a
369.6835	0.15	739367	keystroke_s	s	n/a
370.013	0.09	740026	keystroke_e	e	n/a
370.163	0.105	740326	keystroke_n	n	n/a
370.253	0.0895	740506	keystroke_d	d	n/a
370.4325	0.09	740865	keystroke_e	e	n/a
370.4935	0.104	740987	keystroke_r	r	n/a
370.7175	0.0605	741435	keystroke_Key.enter	Key.enter	n/a
370.7825	6.3105	741565	prompt	n/a	dylan advancement disorder launch\n
371.5725	0.105	743145	keystroke_d	d	n/a
371.7975	0.075	743595	keystroke_y	y	n/a
371.9475	0.075	743895	keystroke_l	l	n/a
372.0375	0.105	744075	keystroke_a	a	n/a
372.1275	0.105	744255	keystroke_n	n	n/a
372.2475	0.1645	744495	keystroke_Key.space	Key.space	n/a
372.712	0.165	745424	keystroke_a	a	n/a
372.847	0.135	745694	keystroke_d	d	n/a
373.297	0.1055	746594	keystroke_v	v	n/a
373.7775	0.1345	747555	keystroke_a	a	n/a
373.927	0.1045	747854	keystroke_n	n	n/a
374.0015	0.12	748003	keystroke_c	c	n/a
374.0765	0.105	748153	keystroke_e	e	n/a
374.2265	0.075	748453	keystroke_m	m	n/a
374.3165	0.09	748633	keystroke_e	e	n/a
374.3915	0.09	748783	keystroke_n	n	n/a
374.4965	0.076	748993	keystroke_t	t	n/a
374.5415	0.12	749083	keystroke_Key.space	Key.space	n/a
374.8415	0.1055	749683	keystroke_d	d	n/a
374.932	0.105	749864	keystroke_i	i	n/a
375.037	0.105	750074	keystroke_s	s	n/a
375.2015	0.09	750403	keystroke_o	o	n/a
375.3065	0.105	750613	keystroke_r	r	n/a
375.5165	0.09	751033	keystroke_d	d	n/a
375.6815	0.1495	751363	keystroke_e	e	n/a
375.7715	0.1195	751543	keystroke_r	r	n/a
375.846	0.12	751692	keystroke_Key.space	Key.space	n/a
376.011	0.09	752022	keystroke_l	l	n/a
376.071	0.165	752142	keystroke_a	a	n/a
376.2215	0.0895	752443	keystroke_u	u	n/a
376.356	0.135	752712	keystroke_n	n	n/a
376.641	0.12	753282	keystroke_c	c	n/a
376.762	0.0895	753524	keystroke_h	h	n/a
377.0315	0.06	754063	keystroke_Key.enter	Key.enter	n/a
377.096	6.58	754192	prompt	n/a	finance asthma medieval conf\n
377.8565	0.135	755713	keystroke_f	f	n/a
377.9165	0.1345	755833	keystroke_i	i	n/a
377.9765	0.1195	755953	keystroke_n	n	n/a
378.081	0.105	756162	keystroke_a	a	n/a
378.201	0.1195	756402	keystroke_n	n	n/a
378.3955	0.075	756791	keystroke_c	c	n/a
378.621	0.075	757242	keystroke_y	y	n/a
378.711	0.105	757422	keystroke_Key.space	Key.space	n/a
379.6405	0.06	759281	keystroke_Key.backspace	Key.backspace	n/a
379.7755	0.075	759551	keystroke_Key.backspace	Key.backspace	n/a
379.8655	0.105	759731	keystroke_e	e	n/a
380.0305	0.09	760061	keystroke_Key.space	Key.space	n/a
380.1655	0.195	760331	keystroke_a	a	n/a
380.2855	0.105	760571	keystroke_s	s	n/a
380.5105	0.075	761021	keystroke_t	t	n/a
380.6005	0.09	761201	keystroke_h	h	n/a
380.7955	0.075	761591	keystroke_m	m	n/a
380.9605	0.105	761921	keystroke_a	a	n/a
381.0955	0.135	762191	keystroke_Key.space	Key.space	n/a
381.3355	0.06	762671	keystroke_m	m	n/a
381.3805	0.09	762761	keystroke_e	e	n/a
381.5605	0.075	763121	keystroke_d	d	n/a
381.6355	0.12	763271	keystroke_i	i	n/a
381.7705	0.1045	763541	keystroke_e	e	n/a
382.01	0.075	764020	keystroke_v	v	n/a
382.46	0.1205	764920	keystroke_a	a	n/a
382.6255	0.075	765251	keystroke_l	l	n/a
382.8045	0.105	765609	keystroke_Key.space	Key.space	n/a
383.0445	0.105	766089	keystroke_c	c	n/a
383.0905	0.074	766181	keystroke_o	o	n/a
383.2255	0.119	766451	keystroke_n	n	n/a
383.3455	0.134	766691	keystroke_f	f	n/a
383.6145	0.06	767229	keystroke_Key.enter	Key.enter	n/a
383.679	6.116	767358	prompt	n/a	stockholm echo starting dose\n
384.5895	0.18	769179	keystroke_s	s	n/a
384.7395	0.09	769479	keystroke_t	t	n/a
384.8445	0.0745	769689	keystroke_o	o	n/a
384.949	0.105	769898	keystroke_c	c	n/a
385.039	0.075	770078	keystroke_k	k	n/a
385.279	0.045	770558	keystroke_l	l	n/a
385.639	0.075	771278	keystroke_Key.backspace	Key.backspace	n/a
386.089	0.105	772178	keystroke_h	h	n/a
386.239	0.12	772478	keystroke_o	o	n/a
386.404	0.12	772808	keystroke_l	l	n/a
386.674	0.09	773348	keystroke_m	m	n/a
386.884	0.12	773768	keystroke_Key.space	Key.space	n/a
387.154	0.1655	774308	keystroke_e	e	n/a
387.2595	0.15	774519	keystroke_c	c	n/a
387.4245	0.06	774849	keystroke_h	h	n/a
387.574	0.075	775148	keystroke_o	o	n/a
387.874	0.1045	775748	keystroke_Key.space	Key.space	n/a
388.1735	0.135	776347	keystroke_s	s	n/a
388.3095	0.119	776619	keystroke_t	t	n/a
388.4435	0.15	776887	keystroke_a	a	n/a
388.5335	0.09	777067	keystroke_r	r	n/a
388.6985	0.0895	777397	keystroke_t	t	n/a
388.803	0.1205	777606	keystroke_i	i	n/a
388.863	0.12	777726	keystroke_n	n	n/a
388.938	0.09	777876	keystroke_g	g	n/a
389.013	0.1055	778026	keystroke_Key.space	Key.space	n/a
389.1785	0.09	778357	keystroke_d	d	n/a
389.2535	0.09	778507	keystroke_o	o	n/a
389.3585	0.135	778717	keystroke_s	s	n/a
389.4485	0.105	778897	keystroke_e	e	n/a
389.7185	0.075	779437	keystroke_Key.enter	Key.enter	n/a
389.7995	6.5935	779599	prompt	n/a	race techno modify this's\n
390.5135	0.105	781027	keystroke_r	r	n/a
390.6485	0.1495	781297	keystroke_a	a	n/a
390.813	0.12	781626	keystroke_c	c	n/a
390.888	0.135	781776	keystroke_e	e	n/a
390.993	0.1655	781986	keystroke_Key.space	Key.space	n/a
391.1435	0.09	782287	keystroke_t	t	n/a
391.2185	0.165	782437	keystroke_e	e	n/a
391.3685	0.1045	782737	keystroke_c	c	n/a
391.488	0.105	782976	keystroke_h	h	n/a
391.728	0.075	783456	keystroke_n	n	n/a
391.908	0.075	783816	keystroke_o	o	n/a
392.058	0.135	784116	keystroke_Key.space	Key.space	n/a
392.223	0.105	784446	keystroke_m	m	n/a
392.373	0.105	784746	keystroke_i	i	n/a
392.508	0.1195	785016	keystroke_d	d	n/a
393.2725	0.06	786545	keystroke_Key.backspace	Key.backspace	n/a
393.4075	0.06	786815	keystroke_Key.backspace	Key.backspace	n/a
393.617	0.075	787234	keystroke_o	o	n/a
394.037	0.12	788074	keystroke_d	d	n/a
394.292	0.1045	788584	keystroke_i	i	n/a
394.681	0.105	789362	keystroke_f	f	n/a
394.966	0.12	789932	keystroke_y	y	n/a
395.176	0.12	790352	keystroke_Key.space	Key.space	n/a
395.341	0.1205	790682	keystroke_t	t	n/a
395.4015	0.12	790803	keystroke_h	h	n/a
395.4765	0.09	790953	keystroke_i	i	n/a
395.5815	0.06	791163	keystroke_s	s	n/a
395.971	0.105	791942	keystroke_'	'	n/a
396.061	0.09	792122	keystroke_s	s	n/a
396.331	0.06	792662	keystroke_Key.enter	Key.enter	n/a
396.396	8.756	792792	prompt	n/a	maintain whatever mortgages sheep\n
397.1265	0.075	794253	keystroke_m	m	n/a
397.2165	0.105	794433	keystroke_a	a	n/a
397.2915	0.105	794583	keystroke_i	i	n/a
397.3365	0.12	794673	keystroke_n	n	n/a
397.4865	0.06	794973	keystroke_t	t	n/a
397.6215	0.09	795243	keystroke_a	a	n/a
397.6815	0.12	795363	keystroke_i	i	n/a
397.7565	0.12	795513	keystroke_n	n	n/a
397.8915	0.12	795783	keystroke_Key.space	Key.space	n/a
398.1165	0.105	796233	keystroke_w	w	n/a
398.2365	0.105	796473	keystroke_h	h	n/a
398.2815	0.12	796563	keystroke_a	a	n/a
398.521	0.12	797042	keystroke_t	t	n/a
398.656	0.135	797312	keystroke_e	e	n/a
398.896	0.075	797792	keystroke_v	v	n/a
399.016	0.1355	798032	keystroke_e	e	n/a
399.121	0.1355	798242	keystroke_r	r	n/a
399.7805	0.1205	799561	keystroke_Key.space	Key.space	n/a
400.0955	0.06	800191	keystroke_m	m	n/a
400.2005	0.09	800401	keystroke_o	o	n/a
400.3055	0.075	800611	keystroke_r	r	n/a
400.4405	0.105	800881	keystroke_t	t	n/a
400.5905	0.135	801181	keystroke_a	a	n/a
400.935	0.076	801870	keystroke_Key.backspace	Key.backspace	n/a
401.07	0.075	802140	keystroke_Key.backspace	Key.backspace	n/a
401.191	0.075	802382	keystroke_g	g	n/a
401.626	0.06	803252	keystroke_Key.backspace	Key.backspace	n/a
401.641	0.03	803282	keystroke_=	=	n/a
401.731	0.105	803462	keystroke_t	t	n/a
401.97	0.061	803940	keystroke_g	g	n/a
402.241	0.074	804482	keystroke_Key.backspace	Key.backspace	n/a
402.3755	0.105	804751	keystroke_Key.backspace	Key.backspace	n/a
402.825	0.0895	805650	keystroke_Key.backspace	Key.backspace	n/a
403.0345	0.105	806069	keystroke_t	t	n/a
403.2145	0.105	806429	keystroke_g	g	n/a
403.425	0.105	806850	keystroke_a	a	n/a
403.56	0.1045	807120	keystroke_g	g	n/a
403.7395	0.15	807479	keystroke_e	e	n/a
403.8445	0.165	807689	keystroke_s	s	n/a
404.0395	0.105	808079	keystroke_Key.space	Key.space	n/a
404.2045	0.12	808409	keystroke_s	s	n/a
404.2945	0.105	808589	keystroke_h	h	n/a
404.4445	0.03	808889	keystroke_e	e	n/a
404.5495	0.105	809099	keystroke_e	e	n/a
404.6695	0.0905	809339	keystroke_p	p	n/a
405.0445	0.105	810089	keystroke_Key.enter	Key.enter	n/a
405.155	10.7635	810310	prompt	n/a	properties durable bunch postposted\n
405.8395	0.075	811679	keystroke_o	o	n/a
405.9295	0.09	811859	keystroke_r	r	n/a
406.0345	0.045	812069	keystroke_o	o	n/a
406.8745	0.045	813749	keystroke_Key.backspace	Key.backspace	n/a
406.9945	0.06	813989	keystroke_Key.backspace	Key.backspace	n/a
407.1445	0.045	814289	keystroke_Key.backspace	Key.backspace	n/a
407.2645	0.06	814529	keystroke_Key.backspace	Key.backspace	n/a
407.4595	0.09	814919	keystroke_p	p	n/a
407.6245	0.075	815249	keystroke_r	r	n/a
407.7145	0.045	815429	keystroke_o	o	n/a
407.8645	0.06	815729	keystroke_p	p	n/a
407.9245	0.1345	815849	keystroke_e	e	n/a
408.014	0.105	816028	keystroke_r	r	n/a
408.194	0.105	816388	keystroke_t	t	n/a
408.344	0.09	816688	keystroke_i	i	n/a
408.5835	0.135	817167	keystroke_e	e	n/a
408.6735	0.18	817347	keystroke_s	s	n/a
408.9135	0.12	817827	keystroke_Key.space	Key.space	n/a
409.1685	0.105	818337	keystroke_d	d	n/a
409.2435	0.135	818487	keystroke_u	u	n/a
409.3485	0.105	818697	keystroke_r	r	n/a
409.5285	0.135	819057	keystroke_a	a	n/a
409.6485	0.06	819297	keystroke_b	b	n/a
409.7835	0.09	819567	keystroke_l	l	n/a
409.8885	0.12	819777	keystroke_e	e	n/a
409.9935	0.15	819987	keystroke_Key.space	Key.space	n/a
410.5485	0.12	821097	keystroke_b	b	n/a
410.6835	0.0895	821367	keystroke_u	u	n/a
410.833	0.121	821666	keystroke_n	n	n/a
410.969	0.1045	821938	keystroke_c	c	n/a
411.0885	0.075	822177	keystroke_h	h	n/a
411.2235	0.15	822447	keystroke_Key.space	Key.space	n/a
411.5385	0.045	823077	keystroke_p	p	n/a
411.6585	0.09	823317	keystroke_o	o	n/a
411.778	0.135	823556	keystroke_s	s	n/a
411.958	0.09	823916	keystroke_t	t	n/a
413.578	0.045	827156	keystroke_o	o	n/a
414.1775	0.06	828355	keystroke_Key.backspace	Key.backspace	n/a
414.4025	0.06	828805	keystroke_p	p	n/a
414.5525	0.09	829105	keystroke_o	o	n/a
414.6725	0.21	829345	keystroke_s	s	n/a
414.8075	0.165	829615	keystroke_t	t	n/a
414.9875	0.075	829975	keystroke_e	e	n/a
415.1975	0.09	830395	keystroke_d	d	n/a
415.857	0.06	831714	keystroke_Key.enter	Key.enter	n/a
415.921	13.4955	831842	prompt	n/a	revelation fairfield metropolitan beast\n
416.6365	0.1505	833273	keystroke_r	r	n/a
416.772	0.12	833544	keystroke_e	e	n/a
417.027	0.0605	834054	keystroke_v	v	n/a
417.132	0.09	834264	keystroke_e	e	n/a
417.252	0.105	834504	keystroke_l	l	n/a
417.372	0.075	834744	keystroke_a	a	n/a
417.537	0.075	835074	keystroke_t	t	n/a
417.627	0.21	835254	keystroke_i	i	n/a
417.687	0.12	835374	keystroke_o	o	n/a
417.777	0.15	835554	keystroke_n	n	n/a
417.852	0.12	835704	keystroke_Key.space	Key.space	n/a
418.032	0.09	836064	keystroke_f	f	n/a
418.152	0.12	836304	keystroke_i	i	n/a
418.212	0.165	836424	keystroke_a	a	n/a
418.332	0.09	836664	keystroke_r	r	n/a
418.527	0.105	837054	keystroke_f	f	n/a
418.647	0.06	837294	keystroke_i	i	n/a
418.7665	0.09	837533	keystroke_e	e	n/a
418.9165	0.09	837833	keystroke_l	l	n/a
419.0215	0.135	838043	keystroke_d	d	n/a
419.1415	0.1205	838283	keystroke_Key.space	Key.space	n/a
419.292	0.135	838584	keystroke_m	m	n/a
419.3665	0.0905	838733	keystroke_e	e	n/a
419.5915	0.15	839183	keystroke_t	t	n/a
419.6965	0.135	839393	keystroke_r	r	n/a
420.597	0.089	841194	keystroke_o	o	n/a
420.881	0.075	841762	keystroke_p	p	n/a
