onset	duration	sample	value	key	prompt_text
38.4285	0.0895	76857	keystroke_a	a	n/a
38.5035	0.09	77007	keystroke_l	l	n/a
38.6085	0.1045	77217	keystroke_a	a	n/a
38.6535	0.0895	77307	keystroke_n	n	n/a
38.7585	0.0895	77517	keystroke_d	d	n/a
38.8635	0.0595	77727	keystroke_u	u	n/a
38.9985	0.0895	77997	keystroke_Key.tab	Key.tab	n/a
41.8785	0.1345	83757	keystroke_o	o	n/a
41.9385	0.1195	83877	keystroke_n	n	n/a
42.1035	0.18	84207	keystroke_Key.shift	Key.shift	n/a
42.1785	0.0745	84357	keystroke__	_	n/a
42.4035	0.09	84807	keystroke_k	k	n/a
42.479	0.1045	84958	keystroke_e	e	n/a
42.5985	0.0895	85197	keystroke_y	y	n/a
42.6735	0.1045	85347	keystroke_b	b	n/a
42.7935	0.0745	85587	keystroke_o	o	n/a
42.8535	0.1195	85707	keystroke_a	a	n/a
42.9285	0.12	85857	keystroke_r	r	n/a
43.0335	0.0595	86067	keystroke_d	d	n/a
43.0635	0.1045	86127	keystroke_Key.space	Key.space	n/a
43.168	0.105	86336	keystroke_p	p	n/a
43.2735	0.0895	86547	keystroke_r	r	n/a
43.3635	0.0895	86727	keystroke_o	o	n/a
43.4685	0.0745	86937	keystroke_t	t	n/a
43.5585	0.0745	87117	keystroke_o	o	n/a
43.6485	0.135	87297	keystroke_c	c	n/a
43.7235	0.0745	87447	keystroke_o	o	n/a
43.8885	0.075	87777	keystroke_l	l	n/a
43.9485	0.09	87897	keystroke_Key.space	Key.space	n/a
44.0835	0.0895	88167	keystroke_6	6	n/a
44.188	0.075	88376	keystroke_.	.	n/a
44.2335	0.0895	88467	keystroke_3	3	n/a
48.053	4.553	96106	prompt	n/a	the quick brown fox jumps over a lazy dog\n
48.9135	0.1195	97827	keystroke_t	t	n/a
48.9585	0.0595	97917	keystroke_h	h	n/a
49.0485	0.1195	98097	keystroke_e	e	n/a
49.1235	0.1045	98247	keystroke_Key.space	Key.space	n/a
49.1985	0.1195	98397	keystroke_q	q	n/a
49.2735	0.1195	98547	keystroke_u	u	n/a
49.3485	0.1045	98697	keystroke_i	i	n/a
49.4385	0.1495	98877	keystroke_c	c	n/a
49.5285	0.1045	99057	keystroke_k	k	n/a
49.6185	0.1045	99237	keystroke_Key.space	Key.space	n/a
49.6935	0.0895	99387	keystroke_b	b	n/a
49.9035	0.1195	99807	keystroke_r	r	n/a
49.9785	0.09	99957	keystroke_o	o	n/a
50.0385	0.1795	100077	keystroke_w	w	n/a
50.1435	0.1045	100287	keystroke_n	n	n/a
50.2335	0.0745	100467	keystroke_Key.space	Key.space	n/a
50.2935	0.1195	100587	keystroke_f	f	n/a
50.3535	0.0895	100707	keystroke_o	o	n/a
50.4585	0.0745	100917	keystroke_x	x	n/a
50.4885	0.1045	100977	keystroke_Key.space	Key.space	n/a
50.5485	0.0745	101097	keystroke_j	j	n/a
50.7135	0.0445	101427	keystroke_u	u	n/a
50.8635	0.105	101727	keystroke_m	m	n/a
50.9535	0.1045	101907	keystroke_p	p	n/a
51.0285	0.12	102057	keystroke_s	s	n/a
51.0885	0.1195	102177	keystroke_Key.space	Key.space	n/a
51.1935	0.0895	102387	keystroke_o	o	n/a
51.2235	0.1045	102447	keystroke_v	v	n/a
51.3735	0.12	102747	keystroke_e	e	n/a
51.4485	0.0895	102897	keystroke_r	r	n/a
51.4785	0.1045	102957	keystroke_Key.space	Key.space	n/a
51.569	0.134	103138	keystroke_a	a	n/a
51.6885	0.09	103377	keystroke_Key.space	Key.space	n/a
51.7635	0.075	103527	keystroke_l	l	n/a
51.8685	0.1045	103737	keystroke_a	a	n/a
52.0335	0.1645	104067	keystroke_z	z	n/a
52.0785	0.09	104157	keystroke_y	y	n/a
52.2135	0.0745	104427	keystroke_Key.space	Key.space	n/a
52.2735	0.1045	104547	keystroke_d	d	n/a
52.3335	0.0745	104667	keystroke_o	o	n/a
52.4235	0.0895	104847	keystroke_g	g	n/a
52.5135	0.0895	105027	keystroke_Key.enter	Key.enter	n/a
52.613	3.7115	105226	prompt	n/a	google jonathan awareness coin\n
53.1885	0.0895	106377	keystroke_g	g	n/a
53.2635	0.0745	106527	keystroke_o	o	n/a
53.3985	0.0745	106797	keystroke_o	o	n/a
53.5035	0.0895	107007	keystroke_g	g	n/a
53.5785	0.1045	107157	keystroke_l	l	n/a
53.6685	0.0895	107337	keystroke_e	e	n/a
53.6985	0.1195	107397	keystroke_Key.space	Key.space	n/a
53.7885	0.1045	107577	keystroke_j	j	n/a
53.9085	0.1195	107817	keystroke_o	o	n/a
53.9835	0.1045	107967	keystroke_n	n	n/a
54.0885	0.1345	108177	keystroke_a	a	n/a
54.1935	0.1195	108387	keystroke_t	t	n/a
54.2835	0.0895	108567	keystroke_h	h	n/a
54.3585	0.1495	108717	keystroke_a	a	n/a
54.4485	0.0895	108897	keystroke_n	n	n/a
54.5235	0.0895	109047	keystroke_Key.space	Key.space	n/a
54.6435	0.0445	109287	keystroke_a	a	n/a
54.6735	0.1495	109347	keystroke_w	w	n/a
54.8385	0.1195	109677	keystroke_a	a	n/a
54.9435	0.105	109887	keystroke_r	r	n/a
55.0335	0.0745	110067	keystroke_e	e	n/a
55.0935	0.0895	110187	keystroke_n	n	n/a
55.2285	0.045	110457	keystroke_e	e	n/a
55.3185	0.0745	110637	keystroke_s	s	n/a
55.454	0.1045	110908	keystroke_s	s	n/a
55.5435	0.1045	111087	keystroke_Key.space	Key.space	n/a
55.6635	0.1045	111327	keystroke_c	c	n/a
55.7535	0.105	111507	keystroke_o	o	n/a
55.8735	0.1195	111747	keystroke_i	i	n/a
55.9335	0.1495	111867	keystroke_n	n	n/a
56.2485	0.0745	112497	keystroke_Key.enter	Key.enter	n/a
56.3315	3.4135	112663	prompt	n/a	developers safe oops wagner\n
56.8935	0.1345	113787	keystroke_d	d	n/a
57.133	0.0905	114266	keystroke_e	e	n/a
57.2685	0.0895	114537	keystroke_v	v	n/a
57.3285	0.1045	114657	keystroke_e	e	n/a
57.4185	0.09	114837	keystroke_l	l	n/a
57.6135	0.1195	115227	keystroke_o	o	n/a
57.6885	0.1195	115377	keystroke_p	p	n/a
57.7635	0.1495	115527	keystroke_e	e	n/a
57.8235	0.1495	115647	keystroke_r	r	n/a
57.9285	0.09	115857	keystroke_s	s	n/a
57.9885	0.1045	115977	keystroke_Key.space	Key.space	n/a
58.1835	0.1045	116367	keystroke_s	s	n/a
58.3185	0.1195	116637	keystroke_a	a	n/a
58.3935	0.1045	116787	keystroke_f	f	n/a
58.4535	0.1045	116907	keystroke_e	e	n/a
58.5135	0.1195	117027	keystroke_Key.space	Key.space	n/a
58.6185	0.0445	117237	keystroke_o	o	n/a
58.7385	0.1195	117477	keystroke_o	o	n/a
58.8285	0.1045	117657	keystroke_p	p	n/a
58.9185	0.0895	117837	keystroke_s	s	n/a
58.9935	0.075	117987	keystroke_Key.space	Key.space	n/a
59.1135	0.12	118227	keystroke_w	w	n/a
59.2035	0.1345	118407	keystroke_a	a	n/a
59.3085	0.1195	118617	keystroke_g	g	n/a
59.4435	0.0595	118887	keystroke_n	n	n/a
59.5185	0.0895	119037	keystroke_e	e	n/a
59.5635	0.0895	119127	keystroke_r	r	n/a
59.6685	0.075	119337	keystroke_Key.enter	Key.enter	n/a
59.7515	3.9985	119503	prompt	n/a	talks delta biology sublime\n
60.3885	0.1195	120777	keystroke_t	t	n/a
60.4635	0.1195	120927	keystroke_e	e	n/a
60.8835	0.0595	121767	keystroke_Key.backspace	Key.backspace	n/a
61.0185	0.1195	122037	keystroke_a	a	n/a
61.1235	0.1195	122247	keystroke_l	l	n/a
61.1985	0.0895	122397	keystroke_k	k	n/a
61.2135	0.1045	122427	keystroke_s	s	n/a
61.3035	0.0895	122607	keystroke_Key.space	Key.space	n/a
61.4385	0.09	122877	keystroke_d	d	n/a
61.6035	0.1045	123207	keystroke_e	e	n/a
61.6935	0.0745	123387	keystroke_l	l	n/a
61.7535	0.1195	123507	keystroke_t	t	n/a
61.8285	0.12	123657	keystroke_a	a	n/a
61.9035	0.0895	123807	keystroke_Key.space	Key.space	n/a
62.0685	0.0595	124137	keystroke_b	b	n/a
62.3385	0.1195	124677	keystroke_i	i	n/a
62.3985	0.09	124797	keystroke_o	o	n/a
62.5635	0.0745	125127	keystroke_l	l	n/a
62.7435	0.075	125487	keystroke_o	o	n/a
62.8485	0.105	125697	keystroke_g	g	n/a
62.9085	0.0895	125817	keystroke_y	y	n/a
62.9985	0.0745	125997	keystroke_Key.space	Key.space	n/a
63.0585	0.1195	126117	keystroke_s	s	n/a
63.1185	0.1045	126237	keystroke_u	u	n/a
63.2685	0.1045	126537	keystroke_b	b	n/a
63.3585	0.1345	126717	keystroke_l	l	n/a
63.4185	0.1195	126837	keystroke_i	i	n/a
63.4785	0.0895	126957	keystroke_m	m	n/a
63.5535	0.075	127107	keystroke_e	e	n/a
63.6585	0.0895	127317	keystroke_Key.enter	Key.enter	n/a
63.757	3.428	127514	prompt	n/a	logged hints critics excuse\n
64.4235	0.0745	128847	keystroke_l	l	n/a
64.5885	0.0595	129177	keystroke_o	o	n/a
64.6335	0.075	129267	keystroke_g	g	n/a
64.7835	0.0745	129567	keystroke_g	g	n/a
64.8285	0.075	129657	keystroke_e	e	n/a
64.9635	0.1195	129927	keystroke_d	d	n/a
65.0535	0.1045	130107	keystroke_Key.space	Key.space	n/a
65.0985	0.0745	130197	keystroke_h	h	n/a
65.1585	0.1345	130317	keystroke_i	i	n/a
65.2335	0.1195	130467	keystroke_n	n	n/a
65.2635	0.1195	130527	keystroke_t	t	n/a
65.3385	0.1045	130677	keystroke_s	s	n/a
65.3985	0.0895	130797	keystroke_Key.space	Key.space	n/a
65.6685	0.0745	131337	keystroke_c	c	n/a
65.8035	0.1045	131607	keystroke_r	r	n/a
65.8935	0.0745	131787	keystroke_i	i	n/a
65.9685	0.1045	131937	keystroke_t	t	n/a
66.0735	0.09	132147	keystroke_i	i	n/a
66.1485	0.1195	132297	keystroke_c	c	n/a
66.2535	0.1195	132507	keystroke_s	s	n/a
66.3285	0.105	132657	keystroke_Key.space	Key.space	n/a
66.4485	0.06	132897	keystroke_e	e	n/a
66.5835	0.105	133167	keystroke_x	x	n/a
66.719	0.089	133438	keystroke_c	c	n/a
66.854	0.089	133708	keystroke_u	u	n/a
66.9285	0.1195	133857	keystroke_s	s	n/a
66.9885	0.1045	133977	keystroke_e	e	n/a
67.0785	0.1045	134157	keystroke_Key.enter	Key.enter	n/a
67.1915	3.5185	134383	prompt	n/a	holds portion tide tramadol\n
67.7385	0.1045	135477	keystroke_h	h	n/a
67.813	0.0905	135626	keystroke_o	o	n/a
67.9635	0.1195	135927	keystroke_l	l	n/a
68.0235	0.1495	136047	keystroke_d	d	n/a
68.1135	0.1345	136227	keystroke_s	s	n/a
68.1585	0.1045	136317	keystroke_Key.space	Key.space	n/a
68.2335	0.1045	136467	keystroke_p	p	n/a
68.459	0.089	136918	keystroke_o	o	n/a
68.5935	0.0745	137187	keystroke_r	r	n/a
68.7285	0.1045	137457	keystroke_t	t	n/a
68.8185	0.1945	137637	keystroke_i	i	n/a
68.8785	0.15	137757	keystroke_o	o	n/a
68.9835	0.105	137967	keystroke_n	n	n/a
69.0735	0.0895	138147	keystroke_Key.space	Key.space	n/a
69.149	0.104	138298	keystroke_t	t	n/a
69.2385	0.1195	138477	keystroke_i	i	n/a
69.3135	0.06	138627	keystroke_d	d	n/a
69.4335	0.1045	138867	keystroke_e	e	n/a
69.5085	0.0895	139017	keystroke_Key.space	Key.space	n/a
69.613	0.09	139226	keystroke_t	t	n/a
69.7785	0.105	139557	keystroke_r	r	n/a
69.8535	0.1045	139707	keystroke_a	a	n/a
69.9285	0.0895	139857	keystroke_m	m	n/a
70.0785	0.1195	140157	keystroke_a	a	n/a
70.1685	0.1045	140337	keystroke_d	d	n/a
70.3035	0.0895	140607	keystroke_o	o	n/a
70.4535	0.0895	140907	keystroke_l	l	n/a
70.6185	0.0895	141237	keystroke_Key.enter	Key.enter	n/a
70.7195	3.8305	141439	prompt	n/a	ceiling senate addressed errors\n
71.2935	0.0745	142587	keystroke_c	c	n/a
71.4585	0.0895	142917	keystroke_e	e	n/a
71.5635	0.1345	143127	keystroke_i	i	n/a
71.6385	0.15	143277	keystroke_l	l	n/a
71.7735	0.1205	143547	keystroke_i	i	n/a
71.8185	0.135	143637	keystroke_n	n	n/a
71.9235	0.0895	143847	keystroke_g	g	n/a
71.9685	0.0895	143937	keystroke_Key.space	Key.space	n/a
72.0885	0.1195	144177	keystroke_s	s	n/a
72.1335	0.12	144267	keystroke_e	e	n/a
72.2385	0.0895	144477	keystroke_n	n	n/a
72.3135	0.1045	144627	keystroke_a	a	n/a
72.3735	0.1345	144747	keystroke_t	t	n/a
72.4485	0.1195	144897	keystroke_e	e	n/a
72.5535	0.0595	145107	keystroke_Key.space	Key.space	n/a
72.5985	0.1045	145197	keystroke_a	a	n/a
72.6735	0.0895	145347	keystroke_d	d	n/a
72.8535	0.075	145707	keystroke_d	d	n/a
73.0785	0.0895	146157	keystroke_r	r	n/a
73.1535	0.0895	146307	keystroke_e	e	n/a
73.2735	0.0895	146547	keystroke_s	s	n/a
73.4385	0.0895	146877	keystroke_s	s	n/a
73.513	0.075	147026	keystroke_e	e	n/a
73.6485	0.1045	147297	keystroke_d	d	n/a
73.7985	0.045	147597	keystroke_Key.space	Key.space	n/a
73.8585	0.0745	147717	keystroke_e	e	n/a
73.9485	0.0745	147897	keystroke_r	r	n/a
74.0985	0.0745	148197	keystroke_r	r	n/a
74.2035	0.0745	148407	keystroke_o	o	n/a
74.2635	0.1195	148527	keystroke_r	r	n/a
74.3685	0.105	148737	keystroke_s	s	n/a
74.4585	0.0895	148917	keystroke_Key.enter	Key.enter	n/a
74.5565	3.2935	149113	prompt	n/a	enter inns contacting root\n
75.2085	0.0895	150417	keystroke_e	e	n/a
75.313	0.09	150626	keystroke_n	n	n/a
75.3885	0.1045	150777	keystroke_t	t	n/a
75.5085	0.1345	151017	keystroke_e	e	n/a
75.5985	0.135	151197	keystroke_r	r	n/a
75.7785	0.0895	151557	keystroke_Key.space	Key.space	n/a
75.9135	0.1045	151827	keystroke_i	i	n/a
75.9585	0.1045	151917	keystroke_n	n	n/a
76.1235	0.1045	152247	keystroke_n	n	n/a
76.2435	0.09	152487	keystroke_s	s	n/a
76.3035	0.0895	152607	keystroke_Key.space	Key.space	n/a
76.4385	0.0895	152877	keystroke_c	c	n/a
76.513	0.105	153026	keystroke_o	o	n/a
76.5735	0.1045	153147	keystroke_n	n	n/a
76.6485	0.135	153297	keystroke_t	t	n/a
76.7385	0.0895	153477	keystroke_a	a	n/a
76.9035	0.0595	153807	keystroke_c	c	n/a
77.0235	0.09	154047	keystroke_t	t	n/a
77.1135	0.1045	154227	keystroke_i	i	n/a
77.1585	0.1045	154317	keystroke_n	n	n/a
77.2035	0.0895	154407	keystroke_g	g	n/a
77.3085	0.0445	154617	keystroke_Key.space	Key.space	n/a
77.3835	0.1045	154767	keystroke_r	r	n/a
77.4435	0.0595	154887	keystroke_o	o	n/a
77.5935	0.0595	155187	keystroke_o	o	n/a
77.684	0.104	155368	keystroke_t	t	n/a
77.7735	0.0745	155547	keystroke_Key.enter	Key.enter	n/a
77.857	4.2985	155714	prompt	n/a	integrate learned tight constraints\n
78.5535	0.0895	157107	keystroke_i	i	n/a
78.584	0.1345	157168	keystroke_n	n	n/a
78.7185	0.1045	157437	keystroke_t	t	n/a
78.8085	0.0895	157617	keystroke_e	e	n/a
78.928	0.09	157856	keystroke_g	g	n/a
79.0935	0.1045	158187	keystroke_r	r	n/a
79.1835	0.1195	158367	keystroke_a	a	n/a
79.2885	0.0745	158577	keystroke_t	t	n/a
79.3185	0.075	158637	keystroke_e	e	n/a
79.4685	0.1045	158937	keystroke_d	d	n/a
79.5585	0.1195	159117	keystroke_Key.space	Key.space	n/a
79.663	0.0755	159326	keystroke_l	l	n/a
79.754	0.104	159508	keystroke_e	e	n/a
79.8435	0.1495	159687	keystroke_a	a	n/a
80.0085	0.0895	160017	keystroke_r	r	n/a
80.1285	0.0595	160257	keystroke_n	n	n/a
80.2035	0.0745	160407	keystroke_e	e	n/a
80.3685	0.0895	160737	keystroke_d	d	n/a
80.4735	0.1045	160947	keystroke_Key.space	Key.space	n/a
80.6535	0.1265	161307	keystroke_t	t	n/a
80.7805	0.0675	161561	keystroke_i	i	n/a
80.8805	0.073	161761	keystroke_g	g	n/a
80.9685	0.0895	161937	keystroke_h	h	n/a
81.043	0.09	162086	keystroke_t	t	n/a
81.119	0.074	162238	keystroke_Key.space	Key.space	n/a
81.2535	0.0895	162507	keystroke_c	c	n/a
81.3285	0.1045	162657	keystroke_o	o	n/a
81.3735	0.0895	162747	keystroke_n	n	n/a
81.4485	0.0895	162897	keystroke_s	s	n/a
81.5085	0.075	163017	keystroke_t	t	n/a
81.6435	0.105	163287	keystroke_r	r	n/a
81.704	0.194	163408	keystroke_a	a	n/a
81.8085	0.09	163617	keystroke_i	i	n/a
81.8685	0.075	163737	keystroke_n	n	n/a
81.9285	0.0745	163857	keystroke_t	t	n/a
81.9735	0.1195	163947	keystroke_s	s	n/a
82.0785	0.075	164157	keystroke_Key.enter	Key.enter	n/a
82.1615	4.2535	164323	prompt	n/a	leaf coordinated fired antarctica\n
82.7235	0.0895	165447	keystroke_l	l	n/a
82.7985	0.1195	165597	keystroke_e	e	n/a
82.8585	0.1345	165717	keystroke_a	a	n/a
82.9485	0.1195	165897	keystroke_f	f	n/a
83.0235	0.105	166047	keystroke_Key.space	Key.space	n/a
83.1735	0.09	166347	keystroke_c	c	n/a
83.2485	0.0595	166497	keystroke_o	o	n/a
83.3835	0.09	166767	keystroke_o	o	n/a
83.4585	0.105	166917	keystroke_r	r	n/a
83.5335	0.1045	167067	keystroke_d	d	n/a
83.6535	0.0895	167307	keystroke_i	i	n/a
83.6985	0.1045	167397	keystroke_n	n	n/a
83.7435	0.0895	167487	keystroke_a	a	n/a
83.8185	0.0745	167637	keystroke_t	t	n/a
83.8635	0.0595	167727	keystroke_e	e	n/a
83.9985	0.0895	167997	keystroke_d	d	n/a
84.0735	0.1195	168147	keystroke_Key.space	Key.space	n/a
84.2085	0.0595	168417	keystroke_f	f	n/a
84.269	0.074	168538	keystroke_i	i	n/a
84.3585	0.0745	168717	keystroke_r	r	n/a
84.4185	0.0595	168837	keystroke_e	e	n/a
84.5235	0.1195	169047	keystroke_d	d	n/a
84.6135	0.1045	169227	keystroke_Key.space	Key.space	n/a
84.8085	0.0895	169617	keystroke_a	a	n/a
84.8235	0.195	169647	keystroke_n	n	n/a
85.229	0.104	170458	keystroke_t	t	n/a
85.378	0.12	170756	keystroke_a	a	n/a
85.5435	0.0895	171087	keystroke_r	r	n/a
85.7535	0.0745	171507	keystroke_t	t	n/a
85.8735	0.0445	171747	keystroke_i	i	n/a
85.9335	0.0895	171867	keystroke_c	c	n/a
86.0535	0.1345	172107	keystroke_a	a	n/a
86.3235	0.0895	172647	keystroke_Key.enter	Key.enter	n/a
86.4215	3.2485	172843	prompt	n/a	ghana ambient violent china\n
87.1035	0.0745	174207	keystroke_g	g	n/a
87.1935	0.0745	174387	keystroke_h	h	n/a
87.2235	0.1345	174447	keystroke_a	a	n/a
87.3735	0.0745	174747	keystroke_n	n	n/a
87.4635	0.1045	174927	keystroke_a	a	n/a
87.5535	0.1195	175107	keystroke_Key.space	Key.space	n/a
87.7185	0.1345	175437	keystroke_a	a	n/a
87.793	0.075	175586	keystroke_m	m	n/a
87.9135	0.0745	175827	keystroke_b	b	n/a
88.0035	0.0745	176007	keystroke_i	i	n/a
88.0935	0.09	176187	keystroke_e	e	n/a
88.1535	0.0895	176307	keystroke_n	n	n/a
88.2435	0.0895	176487	keystroke_t	t	n/a
88.3035	0.0745	176607	keystroke_Key.space	Key.space	n/a
88.4235	0.1045	176847	keystroke_v	v	n/a
88.5135	0.12	177027	keystroke_i	i	n/a
88.5885	0.0745	177177	keystroke_o	o	n/a
88.7385	0.0895	177477	keystroke_l	l	n/a
88.7985	0.12	177597	keystroke_e	e	n/a
88.9035	0.0895	177807	keystroke_n	n	n/a
88.9635	0.1045	177927	keystroke_t	t	n/a
89.0385	0.0895	178077	keystroke_Key.space	Key.space	n/a
89.1735	0.1045	178347	keystroke_c	c	n/a
89.2185	0.1195	178437	keystroke_h	h	n/a
89.3235	0.1045	178647	keystroke_i	i	n/a
89.3985	0.09	178797	keystroke_n	n	n/a
89.4735	0.1045	178947	keystroke_a	a	n/a
89.5935	0.0745	179187	keystroke_Key.enter	Key.enter	n/a
89.6775	5.077	179355	prompt	n/a	conditioning naked belong interference\n
90.3735	0.09	180747	keystroke_c	c	n/a
90.4485	0.0895	180897	keystroke_o	o	n/a
90.5085	0.0895	181017	keystroke_n	n	n/a
90.6135	0.1195	181227	keystroke_d	d	n/a
90.7035	0.0745	181407	keystroke_i	i	n/a
90.8235	0.0895	181647	keystroke_t	t	n/a
90.8985	0.1495	181797	keystroke_i	i	n/a
90.9735	0.12	181947	keystroke_o	o	n/a
91.0035	0.1195	182007	keystroke_n	n	n/a
91.1535	0.1195	182307	keystroke_i	i	n/a
91.1985	0.1195	182397	keystroke_n	n	n/a
91.2885	0.1045	182577	keystroke_g	g	n/a
91.3635	0.1045	182727	keystroke_Key.space	Key.space	n/a
91.4535	0.1045	182907	keystroke_n	n	n/a
91.5435	0.1195	183087	keystroke_a	a	n/a
91.6485	0.0745	183297	keystroke_k	k	n/a
91.7085	0.075	183417	keystroke_e	e	n/a
91.8435	0.0895	183687	keystroke_d	d	n/a
91.9185	0.0595	183837	keystroke_Key.space	Key.space	n/a
91.9935	0.0895	183987	keystroke_b	b	n/a
92.1285	0.1045	184257	keystroke_e	e	n/a
92.2035	0.06	184407	keystroke_l	l	n/a
92.3535	0.1045	184707	keystroke_o	o	n/a
92.414	0.104	184828	keystroke_n	n	n/a
92.4885	0.1045	184977	keystroke_g	g	n/a
92.5485	0.0895	185097	keystroke_Key.space	Key.space	n/a
92.6535	0.0895	185307	keystroke_i	i	n/a
92.6985	0.1045	185397	keystroke_n	n	n/a
92.7585	0.1045	185517	keystroke_t	t	n/a
92.8785	0.1195	185757	keystroke_e	e	n/a
92.9685	0.075	185937	keystroke_r	r	n/a
93.1485	0.0895	186297	keystroke_f	f	n/a
93.2685	0.09	186537	keystroke_e	e	n/a
93.3435	0.1195	186687	keystroke_r	r	n/a
93.4485	0.0895	186897	keystroke_e	e	n/a
93.5535	0.1045	187107	keystroke_n	n	n/a
93.6285	0.075	187257	keystroke_d	d	n/a
94.094	0.059	188188	keystroke_Key.backspace	Key.backspace	n/a
94.2735	0.0595	188547	keystroke_c	c	n/a
94.4385	0.0595	188877	keystroke_e	e	n/a
94.6935	0.0595	189387	keystroke_Key.enter	Key.enter	n/a
94.7605	4.1045	189521	prompt	n/a	drink bufing disposal claimed\n
95.3085	0.0745	190617	keystroke_d	d	n/a
95.4735	0.1045	190947	keystroke_r	r	n/a
95.5335	0.1045	191067	keystroke_i	i	n/a
95.6085	0.0895	191217	keystroke_n	n	n/a
95.7285	0.1045	191457	keystroke_k	k	n/a
95.8335	0.0895	191667	keystroke_Key.space	Key.space	n/a
95.9385	0.0895	191877	keystroke_b	b	n/a
96.0285	0.0745	192057	keystroke_u	u	n/a
96.1335	0.1345	192267	keystroke_f	f	n/a
96.2385	0.1045	192477	keystroke_i	i	n/a
96.2835	0.1045	192567	keystroke_n	n	n/a
96.4035	0.1045	192807	keystroke_g	g	n/a
96.5235	0.075	193047	keystroke_Key.space	Key.space	n/a
96.8835	0.0745	193767	keystroke_d	d	n/a
96.9735	0.0595	193947	keystroke_i	i	n/a
97.064	0.104	194128	keystroke_s	s	n/a
97.1235	0.105	194247	keystroke_p	p	n/a
97.1985	0.1195	194397	keystroke_o	o	n/a
97.3035	0.1195	194607	keystroke_s	s	n/a
97.5135	0.1345	195027	keystroke_a	a	n/a
97.6035	0.0745	195207	keystroke_l	l	n/a
97.7835	0.075	195567	keystroke_Key.space	Key.space	n/a
98.2035	0.0895	196407	keystroke_c	c	n/a
98.2785	0.1045	196557	keystroke_l	l	n/a
98.3985	0.1045	196797	keystroke_a	a	n/a
98.474	0.119	196948	keystroke_i	i	n/a
98.5335	0.105	197067	keystroke_m	m	n/a
98.5785	0.0745	197157	keystroke_e	e	n/a
98.7135	0.1045	197427	keystroke_d	d	n/a
98.8035	0.0595	197607	keystroke_Key.enter	Key.enter	n/a
98.871	5.619	197742	prompt	n/a	drainage collections windows spring\n
99.4185	0.0895	198837	keystroke_d	d	n/a
99.5685	0.1195	199137	keystroke_r	r	n/a
99.6735	0.1495	199347	keystroke_a	a	n/a
99.7935	0.105	199587	keystroke_i	i	n/a
99.9435	0.1195	199887	keystroke_a	a	n/a
100.0335	0.0895	200067	keystroke_n	n	n/a
100.1385	0.1045	200277	keystroke_a	a	n/a
100.2135	0.1045	200427	keystroke_g	g	n/a
100.3035	0.1045	200607	keystroke_e	e	n/a
100.3785	0.1045	200757	keystroke_Key.space	Key.space	n/a
100.708	0.0455	201416	keystroke_Key.backspace	Key.backspace	n/a
100.8435	0.0595	201687	keystroke_Key.backspace	Key.backspace	n/a
100.9785	0.0595	201957	keystroke_Key.backspace	Key.backspace	n/a
101.1285	0.06	202257	keystroke_Key.backspace	Key.backspace	n/a
101.293	0.045	202586	keystroke_Key.backspace	Key.backspace	n/a
101.4735	0.0445	202947	keystroke_Key.backspace	Key.backspace	n/a
101.7135	0.0745	203427	keystroke_n	n	n/a
101.8185	0.1045	203637	keystroke_a	a	n/a
101.8935	0.1045	203787	keystroke_g	g	n/a
101.9535	0.1045	203907	keystroke_e	e	n/a
102.0285	0.0895	204057	keystroke_Key.space	Key.space	n/a
102.1635	0.0895	204327	keystroke_c	c	n/a
102.2385	0.0595	204477	keystroke_o	o	n/a
102.389	0.0445	204778	keystroke_l	l	n/a
102.4935	0.0895	204987	keystroke_l	l	n/a
102.5535	0.0895	205107	keystroke_e	e	n/a
102.7035	0.0745	205407	keystroke_c	c	n/a
102.8685	0.1045	205737	keystroke_t	t	n/a
102.9585	0.1495	205917	keystroke_i	i	n/a
103.0035	0.1195	206007	keystroke_o	o	n/a
103.0635	0.1195	206127	keystroke_n	n	n/a
103.0785	0.0895	206157	keystroke_s	s	n/a
103.1385	0.1055	206277	keystroke_Key.space	Key.space	n/a
103.2735	0.09	206547	keystroke_w	w	n/a
103.3335	0.1045	206667	keystroke_i	i	n/a
103.3935	0.0895	206787	keystroke_n	n	n/a
103.4385	0.1045	206877	keystroke_d	d	n/a
103.5585	0.09	207117	keystroke_o	o	n/a
103.6185	0.0595	207237	keystroke_w	w	n/a
103.7535	0.09	207507	keystroke_s	s	n/a
103.8285	0.0895	207657	keystroke_Key.space	Key.space	n/a
103.9335	0.1045	207867	keystroke_s	s	n/a
103.994	0.089	207988	keystroke_p	p	n/a
104.0985	0.1195	208197	keystroke_r	r	n/a
104.1885	0.105	208377	keystroke_i	i	n/a
104.2485	0.0745	208497	keystroke_n	n	n/a
104.3085	0.0745	208617	keystroke_g	g	n/a
104.4285	0.0595	208857	keystroke_Key.enter	Key.enter	n/a
104.4965	4.149	208993	prompt	n/a	shaped staffing ended concrete\n
105.0285	0.0895	210057	keystroke_s	s	n/a
105.1035	0.075	210207	keystroke_h	h	n/a
105.2085	0.105	210417	keystroke_a	a	n/a
105.2685	0.105	210537	keystroke_p	p	n/a
105.3285	0.075	210657	keystroke_e	e	n/a
105.4785	0.09	210957	keystroke_d	d	n/a
105.569	0.104	211138	keystroke_Key.space	Key.space	n/a
105.6435	0.1195	211287	keystroke_s	s	n/a
105.7485	0.1195	211497	keystroke_t	t	n/a
105.8985	0.0895	211797	keystroke_a	a	n/a
105.9735	0.09	211947	keystroke_f	f	n/a
106.124	0.134	212248	keystroke_f	f	n/a
106.2885	0.06	212577	keystroke_e	e	n/a
106.5435	0.0745	213087	keystroke_Key.backspace	Key.backspace	n/a
106.7385	0.12	213477	keystroke_i	i	n/a
106.799	0.1195	213598	keystroke_n	n	n/a
106.8735	0.0895	213747	keystroke_g	g	n/a
106.9335	0.105	213867	keystroke_Key.space	Key.space	n/a
107.0535	0.09	214107	keystroke_e	e	n/a
107.1735	0.0895	214347	keystroke_n	n	n/a
107.2785	0.0745	214557	keystroke_d	d	n/a
107.4435	0.0595	214887	keystroke_e	e	n/a
107.5635	0.1045	215127	keystroke_d	d	n/a
107.6535	0.0895	215307	keystroke_Key.space	Key.space	n/a
107.7885	0.0745	215577	keystroke_c	c	n/a
107.8935	0.0895	215787	keystroke_o	o	n/a
107.9235	0.1045	215847	keystroke_n	n	n/a
107.9835	0.0895	215967	keystroke_c	c	n/a
108.1485	0.12	216297	keystroke_r	r	n/a
108.2385	0.1345	216477	keystroke_e	e	n/a
108.3585	0.105	216717	keystroke_t	t	n/a
108.4335	0.09	216867	keystroke_e	e	n/a
108.5535	0.0895	217107	keystroke_Key.enter	Key.enter	n/a
108.6525	4.4475	217305	prompt	n/a	funding rich oxford banking\n
109.1985	0.1195	218397	keystroke_f	f	n/a
109.3035	0.075	218607	keystroke_u	u	n/a
109.4685	0.09	218937	keystroke_n	n	n/a
109.5285	0.1045	219057	keystroke_d	d	n/a
109.6335	0.1045	219267	keystroke_i	i	n/a
109.6935	0.0895	219387	keystroke_n	n	n/a
109.7235	0.1195	219447	keystroke_g	g	n/a
109.8285	0.0745	219657	keystroke_Key.space	Key.space	n/a
109.9335	0.1045	219867	keystroke_r	r	n/a
110.0385	0.0745	220077	keystroke_i	i	n/a
110.1735	0.1195	220347	keystroke_c	c	n/a
110.2335	0.0895	220467	keystroke_h	h	n/a
110.4285	0.1045	220857	keystroke_d	d	n/a
110.5935	0.045	221187	keystroke_Key.space	Key.space	n/a
110.7885	0.0895	221577	keystroke_Key.backspace	Key.backspace	n/a
110.9385	0.105	221877	keystroke_Key.space	Key.space	n/a
111.2385	0.045	222477	keystroke_Key.backspace	Key.backspace	n/a
111.3585	0.0745	222717	keystroke_Key.backspace	Key.backspace	n/a
111.5085	0.0895	223017	keystroke_Key.space	Key.space	n/a
111.5985	0.0895	223197	keystroke_o	o	n/a
111.7185	0.0895	223437	keystroke_x	x	n/a
111.8985	0.0895	223797	keystroke_f	f	n/a
111.9735	0.0745	223947	keystroke_o	o	n/a
112.0635	0.1045	224127	keystroke_r	r	n/a
112.1535	0.1045	224307	keystroke_d	d	n/a
112.244	0.0745	224488	keystroke_Key.space	Key.space	n/a
112.3485	0.0895	224697	keystroke_b	b	n/a
112.4535	0.1195	224907	keystroke_a	a	n/a
112.5135	0.135	225027	keystroke_n	n	n/a
112.6035	0.0745	225207	keystroke_k	k	n/a
112.7685	0.105	225537	keystroke_i	i	n/a
112.8285	0.0895	225657	keystroke_n	n	n/a
112.9035	0.09	225807	keystroke_g	g	n/a
113.0235	0.0745	226047	keystroke_Key.enter	Key.enter	n/a
113.106	3.4895	226212	prompt	n/a	antibodies fully force refuse\n
113.6985	0.12	227397	keystroke_a	a	n/a
113.7885	0.0895	227577	keystroke_n	n	n/a
113.8935	0.105	227787	keystroke_t	t	n/a
114.0135	0.0745	228027	keystroke_i	i	n/a
114.1035	0.1045	228207	keystroke_b	b	n/a
114.2085	0.09	228417	keystroke_o	o	n/a
114.3135	0.0745	228627	keystroke_d	d	n/a
114.4035	0.075	228807	keystroke_i	i	n/a
114.4785	0.1045	228957	keystroke_e	e	n/a
114.5235	0.1045	229047	keystroke_s	s	n/a
114.6135	0.0595	229227	keystroke_Key.space	Key.space	n/a
114.659	0.134	229318	keystroke_f	f	n/a
114.7635	0.06	229527	keystroke_u	u	n/a
114.8985	0.06	229797	keystroke_l	l	n/a
115.0335	0.1045	230067	keystroke_l	l	n/a
115.109	0.074	230218	keystroke_y	y	n/a
115.1985	0.09	230397	keystroke_Key.space	Key.space	n/a
115.3035	0.0895	230607	keystroke_f	f	n/a
115.3785	0.06	230757	keystroke_o	o	n/a
115.4685	0.0745	230937	keystroke_r	r	n/a
115.6485	0.0745	231297	keystroke_c	c	n/a
115.799	0.074	231598	keystroke_e	e	n/a
115.8735	0.0895	231747	keystroke_Key.space	Key.space	n/a
115.9635	0.105	231927	keystroke_r	r	n/a
116.0235	0.12	232047	keystroke_e	e	n/a
116.1595	0.104	232319	keystroke_f	f	n/a
116.2935	0.0595	232587	keystroke_u	u	n/a
116.3385	0.1045	232677	keystroke_s	s	n/a
116.3835	0.0895	232767	keystroke_e	e	n/a
116.5185	0.0765	233037	keystroke_Key.enter	Key.enter	n/a
116.6015	2.8735	233203	prompt	n/a	winning dual future poet\n
117.1335	0.105	234267	keystroke_w	w	n/a
117.2235	0.09	234447	keystroke_i	i	n/a
117.2835	0.0895	234567	keystroke_n	n	n/a
117.4335	0.0895	234867	keystroke_n	n	n/a
117.5535	0.1045	235107	keystroke_i	i	n/a
117.6135	0.1045	235227	keystroke_n	n	n/a
117.6885	0.0895	235377	keystroke_g	g	n/a
117.7635	0.0745	235527	keystroke_Key.space	Key.space	n/a
117.8535	0.0745	235707	keystroke_d	d	n/a
117.9435	0.06	235887	keystroke_u	u	n/a
118.0185	0.18	236037	keystroke_a	a	n/a
118.094	0.0895	236188	keystroke_l	l	n/a
118.1685	0.0895	236337	keystroke_Key.space	Key.space	n/a
118.3035	0.1045	236607	keystroke_f	f	n/a
118.4085	0.06	236817	keystroke_u	u	n/a
118.5285	0.0595	237057	keystroke_t	t	n/a
118.5735	0.09	237147	keystroke_u	u	n/a
118.6785	0.15	237357	keystroke_r	r	n/a
118.7685	0.1045	237537	keystroke_e	e	n/a
118.859	0.119	237718	keystroke_Key.space	Key.space	n/a
118.9635	0.12	237927	keystroke_p	p	n/a
119.0385	0.1195	238077	keystroke_o	o	n/a
119.1885	0.105	238377	keystroke_e	e	n/a
119.2635	0.105	238527	keystroke_t	t	n/a
119.3985	0.075	238797	keystroke_Key.enter	Key.enter	n/a
119.4845	4.0105	238969	prompt	n/a	contractor active deviant toyota\n
120.2235	0.09	240447	keystroke_c	c	n/a
120.2985	0.105	240597	keystroke_o	o	n/a
120.3435	0.1045	240687	keystroke_n	n	n/a
120.4185	0.0445	240837	keystroke_t	t	n/a
120.5385	0.09	241077	keystroke_r	r	n/a
120.5985	0.075	241197	keystroke_a	a	n/a
120.7485	0.06	241497	keystroke_c	c	n/a
120.8685	0.1045	241737	keystroke_t	t	n/a
120.9885	0.075	241977	keystroke_o	o	n/a
121.0635	0.1055	242127	keystroke_r	r	n/a
121.1385	0.09	242277	keystroke_Key.space	Key.space	n/a
121.244	0.089	242488	keystroke_a	a	n/a
121.4235	0.075	242847	keystroke_c	c	n/a
121.5885	0.0895	243177	keystroke_t	t	n/a
121.7235	0.075	243447	keystroke_i	i	n/a
121.7835	0.1045	243567	keystroke_v	v	n/a
121.9035	0.1055	243807	keystroke_e	e	n/a
121.9935	0.06	243987	keystroke_Key.space	Key.space	n/a
122.0985	0.06	244197	keystroke_d	d	n/a
122.234	0.089	244468	keystroke_e	e	n/a
122.3385	0.1045	244677	keystroke_v	v	n/a
122.4585	0.075	244917	keystroke_i	i	n/a
122.5485	0.12	245097	keystroke_a	a	n/a
122.6385	0.075	245277	keystroke_n	n	n/a
122.6985	0.0745	245397	keystroke_t	t	n/a
122.7435	0.0895	245487	keystroke_Key.space	Key.space	n/a
122.849	0.105	245698	keystroke_t	t	n/a
122.9085	0.12	245817	keystroke_o	o	n/a
123.0135	0.075	246027	keystroke_y	y	n/a
123.1485	0.0895	246297	keystroke_o	o	n/a
123.2235	0.1045	246447	keystroke_t	t	n/a
123.314	0.1195	246628	keystroke_a	a	n/a
123.4185	0.075	246837	keystroke_Key.enter	Key.enter	n/a
123.501	3.024	247002	prompt	n/a	honest whatever nodes cook\n
124.0635	0.09	248127	keystroke_h	h	n/a
124.17	0.118	248340	keystroke_o	o	n/a
124.2435	0.0895	248487	keystroke_n	n	n/a
124.2735	0.165	248547	keystroke_e	e	n/a
124.3635	0.105	248727	keystroke_s	s	n/a
124.4235	0.1195	248847	keystroke_t	t	n/a
124.4835	0.105	248967	keystroke_Key.space	Key.space	n/a
124.6035	0.1195	249207	keystroke_w	w	n/a
124.7385	0.06	249477	keystroke_h	h	n/a
124.8285	0.1195	249657	keystroke_a	a	n/a
124.9035	0.1045	249807	keystroke_t	t	n/a
124.9935	0.105	249987	keystroke_e	e	n/a
125.1285	0.0895	250257	keystroke_v	v	n/a
125.2635	0.09	250527	keystroke_e	e	n/a
125.3085	0.12	250617	keystroke_r	r	n/a
125.3985	0.105	250797	keystroke_Key.space	Key.space	n/a
125.4885	0.12	250977	keystroke_n	n	n/a
125.5935	0.09	251187	keystroke_o	o	n/a
125.6535	0.0445	251307	keystroke_d	d	n/a
125.7885	0.09	251577	keystroke_e	e	n/a
125.8485	0.09	251697	keystroke_s	s	n/a
125.9085	0.075	251817	keystroke_Key.space	Key.space	n/a
126.0285	0.09	252057	keystroke_c	c	n/a
126.0885	0.06	252177	keystroke_o	o	n/a
126.2085	0.105	252417	keystroke_o	o	n/a
126.2685	0.0895	252537	keystroke_k	k	n/a
126.4485	0.075	252897	keystroke_Key.enter	Key.enter	n/a
126.531	3.879	253062	prompt	n/a	stuck shame cleveland cent\n
127.0635	0.1195	254127	keystroke_s	s	n/a
127.1535	0.105	254307	keystroke_t	t	n/a
127.1985	0.105	254397	keystroke_u	u	n/a
127.3335	0.1495	254667	keystroke_c	c	n/a
127.4385	0.0895	254877	keystroke_k	k	n/a
127.5435	0.1045	255087	keystroke_Key.space	Key.space	n/a
127.7085	0.1045	255417	keystroke_s	s	n/a
127.7835	0.0895	255567	keystroke_h	h	n/a
127.8885	0.12	255777	keystroke_a	a	n/a
127.9635	0.105	255927	keystroke_m	m	n/a
128.0235	0.105	256047	keystroke_e	e	n/a
128.1135	0.075	256227	keystroke_Key.space	Key.space	n/a
128.234	0.0595	256468	keystroke_c	c	n/a
128.4135	0.09	256827	keystroke_e	e	n/a
128.4885	0.075	256977	keystroke_l	l	n/a
128.8785	0.045	257757	keystroke_Key.backspace	Key.backspace	n/a
128.9985	0.0745	257997	keystroke_Key.backspace	Key.backspace	n/a
129.209	0.0745	258418	keystroke_l	l	n/a
129.2385	0.105	258477	keystroke_e	e	n/a
129.3285	0.105	258657	keystroke_v	v	n/a
129.4185	0.1195	258837	keystroke_e	e	n/a
129.4935	0.09	258987	keystroke_l	l	n/a
129.5985	0.1495	259197	keystroke_a	a	n/a
129.6735	0.09	259347	keystroke_n	n	n/a
129.7185	0.09	259437	keystroke_d	d	n/a
129.7935	0.075	259587	keystroke_Key.space	Key.space	n/a
129.9135	0.045	259827	keystroke_c	c	n/a
130.0485	0.0745	260097	keystroke_e	e	n/a
130.1385	0.0755	260277	keystroke_n	n	n/a
130.215	0.0885	260430	keystroke_t	t	n/a
130.3335	0.075	260667	keystroke_Key.enter	Key.enter	n/a
130.4165	4.3135	260833	prompt	n/a	captain determination friend obtaining\n
131.1585	0.09	262317	keystroke_c	c	n/a
131.2635	0.12	262527	keystroke_a	a	n/a
131.3685	0.1045	262737	keystroke_p	p	n/a
131.5185	0.09	263037	keystroke_t	t	n/a
131.5935	0.1655	263187	keystroke_a	a	n/a
131.6685	0.105	263337	keystroke_i	i	n/a
131.7295	0.104	263459	keystroke_n	n	n/a
131.8035	0.09	263607	keystroke_Key.space	Key.space	n/a
131.9085	0.06	263817	keystroke_d	d	n/a
132.0435	0.1045	264087	keystroke_e	e	n/a
132.1335	0.105	264267	keystroke_t	t	n/a
132.2835	0.075	264567	keystroke_e	e	n/a
132.3135	0.12	264627	keystroke_r	r	n/a
132.3735	0.09	264747	keystroke_m	m	n/a
132.4785	0.12	264957	keystroke_i	i	n/a
132.5685	0.09	265137	keystroke_n	n	n/a
132.6285	0.12	265257	keystroke_a	a	n/a
132.6735	0.12	265347	keystroke_t	t	n/a
132.7785	0.135	265557	keystroke_i	i	n/a
132.824	0.104	265648	keystroke_o	o	n/a
132.8685	0.12	265737	keystroke_n	n	n/a
132.959	0.0895	265918	keystroke_Key.space	Key.space	n/a
133.034	0.0895	266068	keystroke_f	f	n/a
133.1985	0.1045	266397	keystroke_r	r	n/a
133.2885	0.09	266577	keystroke_i	i	n/a
133.3635	0.09	266727	keystroke_e	e	n/a
133.4385	0.09	266877	keystroke_n	n	n/a
133.5135	0.1045	267027	keystroke_d	d	n/a
133.5885	0.1045	267177	keystroke_Key.space	Key.space	n/a
133.6485	0.09	267297	keystroke_o	o	n/a
133.7535	0.06	267507	keystroke_b	b	n/a
133.9335	0.15	267867	keystroke_t	t	n/a
134.0685	0.135	268137	keystroke_a	a	n/a
134.1885	0.105	268377	keystroke_i	i	n/a
134.2485	0.12	268497	keystroke_n	n	n/a
134.3835	0.12	268767	keystroke_i	i	n/a
134.4435	0.105	268887	keystroke_n	n	n/a
134.5335	0.075	269067	keystroke_g	g	n/a
134.6535	0.075	269307	keystroke_Key.enter	Key.enter	n/a
134.7355	5.3195	269471	prompt	n/a	companion biotechnology religious ozone\n
135.4035	0.075	270807	keystroke_c	c	n/a
135.4635	0.075	270927	keystroke_o	o	n/a
135.4935	0.135	270987	keystroke_m	m	n/a
135.5985	0.1045	271197	keystroke_p	p	n/a
135.7185	0.12	271437	keystroke_a	a	n/a
135.8235	0.12	271647	keystroke_n	n	n/a
135.9285	0.18	271857	keystroke_i	i	n/a
136.0035	0.12	272007	keystroke_o	o	n/a
136.0785	0.1355	272157	keystroke_n	n	n/a
136.2585	0.105	272517	keystroke_Key.space	Key.space	n/a
136.8585	0.0745	273717	keystroke_b	b	n/a
137.0235	0.12	274047	keystroke_i	i	n/a
137.0985	0.12	274197	keystroke_o	o	n/a
137.2185	0.1045	274437	keystroke_t	t	n/a
137.2935	0.075	274587	keystroke_e	e	n/a
137.4585	0.09	274917	keystroke_c	c	n/a
137.5335	0.09	275067	keystroke_h	h	n/a
137.6985	0.105	275397	keystroke_n	n	n/a
137.7735	0.075	275547	keystroke_o	o	n/a
137.924	0.074	275848	keystroke_l	l	n/a
138.0735	0.105	276147	keystroke_o	o	n/a
138.2235	0.105	276447	keystroke_g	g	n/a
138.389	0.0895	276778	keystroke_y	y	n/a
138.5235	0.09	277047	keystroke_Key.space	Key.space	n/a
138.6885	0.12	277377	keystroke_r	r	n/a
138.7785	0.105	277557	keystroke_e	e	n/a
138.899	0.089	277798	keystroke_l	l	n/a
138.974	0.0745	277948	keystroke_i	i	n/a
139.0935	0.105	278187	keystroke_g	g	n/a
139.1685	0.1195	278337	keystroke_i	i	n/a
139.2135	0.12	278427	keystroke_o	o	n/a
139.3035	0.1045	278607	keystroke_u	u	n/a
139.3935	0.075	278787	keystroke_s	s	n/a
139.4385	0.09	278877	keystroke_Key.space	Key.space	n/a
139.5135	0.075	279027	keystroke_o	o	n/a
139.6185	0.1345	279237	keystroke_z	z	n/a
139.7085	0.105	279417	keystroke_o	o	n/a
139.7685	0.105	279537	keystroke_n	n	n/a
139.8885	0.1045	279777	keystroke_e	e	n/a
139.9785	0.075	279957	keystroke_Key.enter	Key.enter	n/a
140.0605	3.7745	280121	prompt	n/a	tree often wordpress wherever\n
140.6385	0.09	281277	keystroke_t	t	n/a
140.789	0.1195	281578	keystroke_r	r	n/a
140.8335	0.09	281667	keystroke_e	e	n/a
140.9835	0.15	281967	keystroke_e	e	n/a
141.1185	0.1345	282237	keystroke_Key.space	Key.space	n/a
141.2385	0.09	282477	keystroke_o	o	n/a
141.3435	0.075	282687	keystroke_f	f	n/a
141.5085	0.105	283017	keystroke_t	t	n/a
141.5835	0.165	283167	keystroke_e	e	n/a
141.6585	0.105	283317	keystroke_n	n	n/a
141.7485	0.0895	283497	keystroke_Key.space	Key.space	n/a
141.8235	0.105	283647	keystroke_w	w	n/a
141.8985	0.09	283797	keystroke_o	o	n/a
141.9585	0.09	283917	keystroke_r	r	n/a
142.0935	0.105	284187	keystroke_d	d	n/a
142.2135	0.09	284427	keystroke_p	p	n/a
142.3035	0.09	284607	keystroke_r	r	n/a
142.349	0.1045	284698	keystroke_e	e	n/a
142.4235	0.09	284847	keystroke_s	s	n/a
142.5885	0.09	285177	keystroke_s	s	n/a
142.6635	0.075	285327	keystroke_Key.space	Key.space	n/a
142.7685	0.0895	285537	keystroke_w	w	n/a
142.8735	0.06	285747	keystroke_h	h	n/a
142.9335	0.105	285867	keystroke_e	e	n/a
143.024	0.1345	286048	keystroke_r	r	n/a
143.1285	0.09	286257	keystroke_e	e	n/a
143.279	0.0895	286558	keystroke_v	v	n/a
143.4135	0.1045	286827	keystroke_e	e	n/a
143.489	0.0895	286978	keystroke_r	r	n/a
143.7585	0.075	287517	keystroke_Key.enter	Key.enter	n/a
143.8405	4.2545	287681	prompt	n/a	currencies matrix athletic somewhat\n
144.524	0.1045	289048	keystroke_c	c	n/a
144.6435	0.045	289287	keystroke_u	u	n/a
144.7185	0.045	289437	keystroke_r	r	n/a
144.8385	0.09	289677	keystroke_r	r	n/a
144.914	0.089	289828	keystroke_e	e	n/a
144.989	0.0745	289978	keystroke_n	n	n/a
145.1085	0.075	290217	keystroke_c	c	n/a
145.2435	0.09	290487	keystroke_i	i	n/a
145.319	0.1195	290638	keystroke_e	e	n/a
145.3635	0.135	290727	keystroke_s	s	n/a
145.4535	0.12	290907	keystroke_Key.space	Key.space	n/a
145.5435	0.09	291087	keystroke_m	m	n/a
145.7535	0.075	291507	keystroke_a	a	n/a
145.7985	0.09	291597	keystroke_t	t	n/a
145.9485	0.09	291897	keystroke_r	r	n/a
146.0235	0.075	292047	keystroke_i	i	n/a
146.1135	0.09	292227	keystroke_x	x	n/a
146.174	0.0895	292348	keystroke_Key.space	Key.space	n/a
146.3085	0.12	292617	keystroke_a	a	n/a
146.4285	0.09	292857	keystroke_t	t	n/a
146.4885	0.09	292977	keystroke_h	h	n/a
146.6835	0.0895	293367	keystroke_l	l	n/a
146.804	0.1045	293608	keystroke_e	e	n/a
146.8935	0.09	293787	keystroke_t	t	n/a
146.9835	0.09	293967	keystroke_i	i	n/a
147.089	0.1045	294178	keystroke_c	c	n/a
147.1785	0.09	294357	keystroke_Key.space	Key.space	n/a
147.3135	0.1045	294627	keystroke_s	s	n/a
147.389	0.1045	294778	keystroke_o	o	n/a
147.4335	0.12	294867	keystroke_m	m	n/a
147.5235	0.1195	295047	keystroke_e	e	n/a
147.6285	0.09	295257	keystroke_w	w	n/a
147.7335	0.075	295467	keystroke_h	h	n/a
147.8235	0.12	295647	keystroke_a	a	n/a
147.899	0.0895	295798	keystroke_t	t	n/a
148.0185	0.0745	296037	keystroke_Key.enter	Key.enter	n/a
148.101	2.844	296202	prompt	n/a	listing coffee lean coal\n
148.6635	0.09	297327	keystroke_l	l	n/a
148.7235	0.105	297447	keystroke_i	i	n/a
148.814	0.1045	297628	keystroke_s	s	n/a
148.8885	0.09	297777	keystroke_t	t	n/a
148.9485	0.12	297897	keystroke_i	i	n/a
149.0085	0.105	298017	keystroke_n	n	n/a
149.0835	0.12	298167	keystroke_g	g	n/a
149.1585	0.09	298317	keystroke_Key.space	Key.space	n/a
149.2785	0.0745	298557	keystroke_c	c	n/a
149.3685	0.075	298737	keystroke_o	o	n/a
149.4585	0.06	298917	keystroke_f	f	n/a
149.5935	0.105	299187	keystroke_f	f	n/a
149.6685	0.075	299337	keystroke_e	e	n/a
149.8185	0.09	299637	keystroke_e	e	n/a
149.9235	0.09	299847	keystroke_Key.space	Key.space	n/a
150.0285	0.075	300057	keystroke_l	l	n/a
150.1335	0.0895	300267	keystroke_e	e	n/a
150.2085	0.1505	300417	keystroke_a	a	n/a
150.2835	0.105	300567	keystroke_n	n	n/a
150.3735	0.075	300747	keystroke_Key.space	Key.space	n/a
150.4785	0.09	300957	keystroke_c	c	n/a
150.554	0.0595	301108	keystroke_o	o	n/a
150.6585	0.105	301317	keystroke_a	a	n/a
150.7185	0.06	301437	keystroke_l	l	n/a
150.8535	0.09	301707	keystroke_Key.enter	Key.enter	n/a
150.951	4.0295	301902	prompt	n/a	downloads treo station oscar\n
151.4985	0.09	302997	keystroke_d	d	n/a
151.604	0.0745	303208	keystroke_o	o	n/a
151.6635	0.105	303327	keystroke_w	w	n/a
151.739	0.1045	303478	keystroke_n	n	n/a
151.8585	0.06	303717	keystroke_l	l	n/a
152.0085	0.09	304017	keystroke_o	o	n/a
152.0685	0.135	304137	keystroke_a	a	n/a
152.1885	0.135	304377	keystroke_d	d	n/a
152.2785	0.135	304557	keystroke_s	s	n/a
152.3985	0.09	304797	keystroke_Key.space	Key.space	n/a
152.4735	0.09	304947	keystroke_t	t	n/a
152.6385	0.12	305277	keystroke_r	r	n/a
152.7135	0.15	305427	keystroke_e	e	n/a
152.8335	0.09	305667	keystroke_o	o	n/a
152.9685	0.075	305937	keystroke_Key.space	Key.space	n/a
153.0585	0.105	306117	keystroke_s	s	n/a
153.1335	0.09	306267	keystroke_t	t	n/a
153.239	0.1195	306478	keystroke_a	a	n/a
153.2985	0.12	306597	keystroke_t	t	n/a
153.404	0.1645	306808	keystroke_i	i	n/a
153.4485	0.135	306897	keystroke_o	o	n/a
153.5085	0.12	307017	keystroke_n	n	n/a
153.6585	0.06	307317	keystroke_Key.space	Key.space	n/a
153.8385	0.075	307677	keystroke_o	o	n/a
154.4235	0.06	308847	keystroke_s	s	n/a
154.5885	0.075	309177	keystroke_c	c	n/a
154.6935	0.12	309387	keystroke_a	a	n/a
154.7685	0.09	309537	keystroke_r	r	n/a
154.9035	0.075	309807	keystroke_Key.enter	Key.enter	n/a
154.986	4.689	309972	prompt	n/a	fears removing chicago correctly\n
155.5485	0.1345	311097	keystroke_f	f	n/a
155.6985	0.1345	311397	keystroke_e	e	n/a
155.7885	0.12	311577	keystroke_a	a	n/a
155.8485	0.195	311697	keystroke_r	r	n/a
155.9385	0.12	311877	keystroke_e	e	n/a
156.0285	0.075	312057	keystroke_s	s	n/a
156.2535	0.06	312507	keystroke_Key.backspace	Key.backspace	n/a
156.4035	0.075	312807	keystroke_Key.backspace	Key.backspace	n/a
156.5085	0.12	313017	keystroke_s	s	n/a
156.6135	0.09	313227	keystroke_Key.space	Key.space	n/a
156.6885	0.135	313377	keystroke_r	r	n/a
156.7635	0.12	313527	keystroke_e	e	n/a
156.839	0.1045	313678	keystroke_m	m	n/a
156.9135	0.0895	313827	keystroke_o	o	n/a
157.019	0.0895	314038	keystroke_v	v	n/a
157.0935	0.1195	314187	keystroke_i	i	n/a
157.1385	0.105	314277	keystroke_n	n	n/a
157.2285	0.1045	314457	keystroke_g	g	n/a
157.319	0.0595	314638	keystroke_Key.space	Key.space	n/a
157.4235	0.105	314847	keystroke_c	c	n/a
157.5135	0.105	315027	keystroke_h	h	n/a
157.5735	0.105	315147	keystroke_i	i	n/a
157.6335	0.105	315267	keystroke_c	c	n/a
157.754	0.1345	315508	keystroke_a	a	n/a
157.8135	0.135	315627	keystroke_g	g	n/a
157.919	0.0595	315838	keystroke_o	o	n/a
157.9935	0.075	315987	keystroke_Key.space	Key.space	n/a
158.0985	0.09	316197	keystroke_c	c	n/a
158.2035	0.075	316407	keystroke_u	u	n/a
158.4585	0.0745	316917	keystroke_Key.backspace	Key.backspace	n/a
158.6685	0.09	317337	keystroke_o	o	n/a
158.699	0.0895	317398	keystroke_r	r	n/a
158.8335	0.135	317667	keystroke_r	r	n/a
158.9385	0.075	317877	keystroke_e	e	n/a
159.104	0.0595	318208	keystroke_c	c	n/a
159.254	0.1045	318508	keystroke_t	t	n/a
159.3435	0.105	318687	keystroke_l	l	n/a
159.4035	0.09	318807	keystroke_y	y	n/a
159.5985	0.075	319197	keystroke_Key.enter	Key.enter	n/a
159.6805	3.7595	319361	prompt	n/a	blend jamaica budapest tremendous\n
160.244	0.1045	320488	keystroke_b	b	n/a
160.3335	0.1045	320667	keystroke_l	l	n/a
160.4235	0.09	320847	keystroke_e	e	n/a
160.5285	0.09	321057	keystroke_n	n	n/a
160.5885	0.105	321177	keystroke_d	d	n/a
160.6635	0.105	321327	keystroke_Key.space	Key.space	n/a
160.7835	0.06	321567	keystroke_j	j	n/a
160.859	0.1195	321718	keystroke_a	a	n/a
160.9785	0.075	321957	keystroke_m	m	n/a
161.0835	0.1045	322167	keystroke_a	a	n/a
161.1735	0.075	322347	keystroke_i	i	n/a
161.2785	0.09	322557	keystroke_c	c	n/a
161.3535	0.135	322707	keystroke_a	a	n/a
161.444	0.0895	322888	keystroke_Key.space	Key.space	n/a
161.5635	0.09	323127	keystroke_b	b	n/a
161.6685	0.075	323337	keystroke_u	u	n/a
161.759	0.1045	323518	keystroke_d	d	n/a
161.8485	0.12	323697	keystroke_a	a	n/a
161.9235	0.105	323847	keystroke_p	p	n/a
162.0135	0.15	324027	keystroke_e	e	n/a
162.1035	0.12	324207	keystroke_s	s	n/a
162.2085	0.135	324417	keystroke_t	t	n/a
162.2985	0.09	324597	keystroke_Key.space	Key.space	n/a
162.404	0.0745	324808	keystroke_t	t	n/a
162.554	0.1045	325108	keystroke_r	r	n/a
162.6135	0.105	325227	keystroke_e	e	n/a
162.7635	0.06	325527	keystroke_m	m	n/a
162.8085	0.105	325617	keystroke_e	e	n/a
162.899	0.0895	325798	keystroke_n	n	n/a
163.0035	0.105	326007	keystroke_d	d	n/a
163.1235	0.09	326247	keystroke_o	o	n/a
163.1685	0.09	326337	keystroke_u	u	n/a
163.229	0.0895	326458	keystroke_s	s	n/a
163.3635	0.075	326727	keystroke_Key.enter	Key.enter	n/a
163.448	3.0375	326896	prompt	n/a	mate equipped emma blocked\n
163.9935	0.09	327987	keystroke_m	m	n/a
164.0685	0.12	328137	keystroke_a	a	n/a
164.1435	0.135	328287	keystroke_t	t	n/a
164.2335	0.09	328467	keystroke_e	e	n/a
164.3085	0.09	328617	keystroke_Key.space	Key.space	n/a
164.4135	0.09	328827	keystroke_e	e	n/a
164.4735	0.105	328947	keystroke_q	q	n/a
164.5335	0.12	329067	keystroke_u	u	n/a
164.6235	0.09	329247	keystroke_i	i	n/a
164.6835	0.09	329367	keystroke_p	p	n/a
164.8335	0.105	329667	keystroke_p	p	n/a
164.909	0.0745	329818	keystroke_e	e	n/a
165.0585	0.09	330117	keystroke_d	d	n/a
165.1185	0.09	330237	keystroke_Key.space	Key.space	n/a
165.2235	0.09	330447	keystroke_e	e	n/a
165.3435	0.06	330687	keystroke_m	m	n/a
165.4635	0.09	330927	keystroke_m	m	n/a
165.569	0.1195	331138	keystroke_a	a	n/a
165.6585	0.0745	331317	keystroke_Key.space	Key.space	n/a
165.7485	0.12	331497	keystroke_b	b	n/a
165.8385	0.0445	331677	keystroke_l	l	n/a
165.9735	0.075	331947	keystroke_o	o	n/a
166.0335	0.075	332067	keystroke_c	c	n/a
166.1385	0.06	332277	keystroke_k	k	n/a
166.214	0.0745	332428	keystroke_e	e	n/a
166.3335	0.09	332667	keystroke_d	d	n/a
166.4385	0.045	332877	keystroke_Key.enter	Key.enter	n/a
166.492	3.233	332984	prompt	n/a	keep tries merge licensed\n
167.1135	0.0745	334227	keystroke_k	k	n/a
167.2185	0.06	334437	keystroke_e	e	n/a
167.3535	0.12	334707	keystroke_e	e	n/a
167.459	0.089	334918	keystroke_p	p	n/a
167.5935	0.09	335187	keystroke_Key.space	Key.space	n/a
167.7585	0.09	335517	keystroke_t	t	n/a
167.9235	0.12	335847	keystroke_r	r	n/a
167.9985	0.075	335997	keystroke_i	i	n/a
168.0585	0.12	336117	keystroke_e	e	n/a
168.134	0.1045	336268	keystroke_s	s	n/a
168.1935	0.105	336387	keystroke_Key.space	Key.space	n/a
168.3135	0.09	336627	keystroke_m	m	n/a
168.374	0.0895	336748	keystroke_e	e	n/a
168.4485	0.075	336897	keystroke_r	r	n/a
168.5985	0.09	337197	keystroke_g	g	n/a
168.6585	0.105	337317	keystroke_e	e	n/a
168.719	0.134	337438	keystroke_Key.space	Key.space	n/a
168.8385	0.09	337677	keystroke_l	l	n/a
168.884	0.119	337768	keystroke_i	i	n/a
168.9435	0.075	337887	keystroke_c	c	n/a
169.1235	0.06	338247	keystroke_e	e	n/a
169.1985	0.06	338397	keystroke_n	n	n/a
169.274	0.1195	338548	keystroke_s	s	n/a
169.3485	0.1045	338697	keystroke_e	e	n/a
169.5135	0.0895	339027	keystroke_d	d	n/a
169.6485	0.075	339297	keystroke_Key.enter	Key.enter	n/a
169.7335	4.012	339467	prompt	n/a	consolidation horror billing studying\n
170.3235	0.075	340647	keystroke_c	c	n/a
170.3835	0.12	340767	keystroke_o	o	n/a
170.519	0.0895	341038	keystroke_n	n	n/a
170.6385	0.105	341277	keystroke_s	s	n/a
170.7285	0.075	341457	keystroke_o	o	n/a
170.9085	0.09	341817	keystroke_l	l	n/a
170.9535	0.105	341907	keystroke_i	i	n/a
171.0135	0.09	342027	keystroke_d	d	n/a
171.119	0.1045	342238	keystroke_a	a	n/a
171.164	0.1345	342328	keystroke_t	t	n/a
171.254	0.1345	342508	keystroke_i	i	n/a
171.3135	0.105	342627	keystroke_o	o	n/a
171.3735	0.09	342747	keystroke_n	n	n/a
171.4785	0.075	342957	keystroke_Key.space	Key.space	n/a
171.5835	0.09	343167	keystroke_h	h	n/a
171.659	0.0895	343318	keystroke_o	o	n/a
171.7635	0.075	343527	keystroke_r	r	n/a
171.9135	0.09	343827	keystroke_r	r	n/a
172.0185	0.075	344037	keystroke_o	o	n/a
172.0935	0.0895	344187	keystroke_r	r	n/a
172.1685	0.09	344337	keystroke_Key.space	Key.space	n/a
172.3035	0.09	344607	keystroke_b	b	n/a
172.3635	0.06	344727	keystroke_i	i	n/a
172.4685	0.09	344937	keystroke_l	l	n/a
172.6335	0.105	345267	keystroke_l	l	n/a
172.6935	0.135	345387	keystroke_i	i	n/a
172.769	0.1045	345538	keystroke_n	n	n/a
172.8435	0.0895	345687	keystroke_g	g	n/a
172.919	0.0895	345838	keystroke_Key.space	Key.space	n/a
172.9935	0.1045	345987	keystroke_s	s	n/a
173.0685	0.09	346137	keystroke_t	t	n/a
173.1285	0.075	346257	keystroke_u	u	n/a
173.234	0.1045	346468	keystroke_d	d	n/a
173.3085	0.09	346617	keystroke_y	y	n/a
173.4135	0.1345	346827	keystroke_i	i	n/a
173.5035	0.09	347007	keystroke_n	n	n/a
173.5785	0.075	347157	keystroke_g	g	n/a
173.6685	0.075	347337	keystroke_Key.enter	Key.enter	n/a
173.751	3.624	347502	prompt	n/a	halo reference pledge dallas\n
174.2835	0.075	348567	keystroke_h	h	n/a
174.374	0.1345	348748	keystroke_a	a	n/a
174.4485	0.075	348897	keystroke_l	l	n/a
174.5985	0.105	349197	keystroke_o	o	n/a
174.6735	0.0895	349347	keystroke_Key.space	Key.space	n/a
174.7485	0.105	349497	keystroke_r	r	n/a
174.8385	0.09	349677	keystroke_e	e	n/a
174.9435	0.09	349887	keystroke_f	f	n/a
175.0495	0.089	350099	keystroke_e	e	n/a
175.1085	0.135	350217	keystroke_r	r	n/a
175.2285	0.075	350457	keystroke_e	e	n/a
175.2885	0.09	350577	keystroke_n	n	n/a
175.409	0.0745	350818	keystroke_c	c	n/a
175.5735	0.075	351147	keystroke_e	e	n/a
175.6635	0.12	351327	keystroke_Key.space	Key.space	n/a
175.7385	0.105	351477	keystroke_p	p	n/a
175.8885	0.09	351777	keystroke_l	l	n/a
175.9335	0.06	351867	keystroke_e	e	n/a
176.0835	0.075	352167	keystroke_d	d	n/a
176.1885	0.12	352377	keystroke_g	g	n/a
176.2785	0.12	352557	keystroke_e	e	n/a
176.3685	0.09	352737	keystroke_Key.space	Key.space	n/a
176.5035	0.09	353007	keystroke_d	d	n/a
176.6385	0.12	353277	keystroke_a	a	n/a
176.8335	0.075	353667	keystroke_l	l	n/a
176.9685	0.09	353937	keystroke_l	l	n/a
177.1185	0.09	354237	keystroke_a	a	n/a
177.194	0.1045	354388	keystroke_s	s	n/a
177.3145	0.059	354629	keystroke_Key.enter	Key.enter	n/a
177.3805	3.7295	354761	prompt	n/a	voip specifies chris theater\n
178.0035	0.12	356007	keystroke_v	v	n/a
178.1085	0.105	356217	keystroke_o	o	n/a
178.17	0.1795	356340	keystroke_i	i	n/a
178.3035	0.12	356607	keystroke_p	p	n/a
178.4385	0.09	356877	keystroke_Key.space	Key.space	n/a
178.5735	0.105	357147	keystroke_s	s	n/a
178.6635	0.12	357327	keystroke_p	p	n/a
178.769	0.0745	357538	keystroke_e	e	n/a
178.949	0.0895	357898	keystroke_c	c	n/a
179.024	0.0745	358048	keystroke_i	i	n/a
179.1135	0.135	358227	keystroke_f	f	n/a
179.2035	0.09	358407	keystroke_i	i	n/a
179.2785	0.1345	358557	keystroke_e	e	n/a
179.3685	0.105	358737	keystroke_s	s	n/a
179.4585	0.09	358917	keystroke_Key.space	Key.space	n/a
179.5935	0.09	359187	keystroke_c	c	n/a
179.6985	0.09	359397	keystroke_h	h	n/a
179.8035	0.12	359607	keystroke_r	r	n/a
179.8935	0.09	359787	keystroke_i	i	n/a
179.9535	0.12	359907	keystroke_s	s	n/a
180.0585	0.105	360117	keystroke_Key.space	Key.space	n/a
180.134	0.119	360268	keystroke_t	t	n/a
180.2235	0.09	360447	keystroke_h	h	n/a
180.2985	0.15	360597	keystroke_e	e	n/a
180.434	0.1195	360868	keystroke_a	a	n/a
180.5085	0.12	361017	keystroke_t	t	n/a
180.6735	0.15	361347	keystroke_e	e	n/a
180.8685	0.075	361737	keystroke_r	r	n/a
181.0185	0.09	362037	keystroke_Key.enter	Key.enter	n/a
181.1155	4.2845	362231	prompt	n/a	puzzle geneva accessibility grade\n
181.6935	0.12	363387	keystroke_p	p	n/a
181.7535	0.105	363507	keystroke_u	u	n/a
181.8885	0.075	363777	keystroke_z	z	n/a
182.0685	0.075	364137	keystroke_z	z	n/a
182.1285	0.075	364257	keystroke_l	l	n/a
182.234	0.1045	364468	keystroke_e	e	n/a
182.324	0.0895	364648	keystroke_Key.space	Key.space	n/a
182.399	0.0895	364798	keystroke_g	g	n/a
182.5035	0.105	365007	keystroke_e	e	n/a
182.5935	0.09	365187	keystroke_n	n	n/a
182.6985	0.09	365397	keystroke_e	e	n/a
182.8185	0.12	365637	keystroke_v	v	n/a
182.9235	0.135	365847	keystroke_a	a	n/a
183.0285	0.105	366057	keystroke_Key.space	Key.space	n/a
183.1935	0.075	366387	keystroke_a	a	n/a
183.3135	0.09	366627	keystroke_c	c	n/a
183.4635	0.075	366927	keystroke_c	c	n/a
183.6135	0.075	367227	keystroke_e	e	n/a
183.7335	0.075	367467	keystroke_s	s	n/a
183.8835	0.075	367767	keystroke_s	s	n/a
184.0035	0.09	368007	keystroke_i	i	n/a
184.0785	0.105	368157	keystroke_b	b	n/a
184.1835	0.12	368367	keystroke_i	i	n/a
184.3185	0.12	368637	keystroke_l	l	n/a
184.3785	0.12	368757	keystroke_i	i	n/a
184.4835	0.12	368967	keystroke_t	t	n/a
184.5885	0.09	369177	keystroke_y	y	n/a
184.6635	0.075	369327	keystroke_Key.space	Key.space	n/a
184.7535	0.06	369507	keystroke_g	g	n/a
184.9185	0.09	369837	keystroke_r	r	n/a
184.9785	0.0745	369957	keystroke_a	a	n/a
185.0685	0.06	370137	keystroke_d	d	n/a
185.2185	0.09	370437	keystroke_e	e	n/a
185.324	0.0745	370648	keystroke_Key.enter	Key.enter	n/a
185.406	3.901	370812	prompt	n/a	return ross necessity anaheim\n
185.9835	0.12	371967	keystroke_r	r	n/a
186.0585	0.12	372117	keystroke_e	e	n/a
186.1635	0.105	372327	keystroke_t	t	n/a
186.284	0.0745	372568	keystroke_u	u	n/a
186.3285	0.15	372657	keystroke_r	r	n/a
186.449	0.0895	372898	keystroke_n	n	n/a
186.5385	0.105	373077	keystroke_Key.space	Key.space	n/a
186.6285	0.09	373257	keystroke_r	r	n/a
186.704	0.0745	373408	keystroke_o	o	n/a
186.7935	0.06	373587	keystroke_s	s	n/a
186.929	0.1195	373858	keystroke_s	s	n/a
187.0635	0.09	374127	keystroke_Key.space	Key.space	n/a
187.1685	0.075	374337	keystroke_n	n	n/a
187.2435	0.075	374487	keystroke_e	e	n/a
187.4385	0.045	374877	keystroke_c	c	n/a
187.5885	0.045	375177	keystroke_e	e	n/a
187.6935	0.075	375387	keystroke_s	s	n/a
187.8585	0.075	375717	keystroke_s	s	n/a
187.9485	0.06	375897	keystroke_i	i	n/a
188.024	0.1045	376048	keystroke_t	t	n/a
188.1435	0.09	376287	keystroke_y	y	n/a
188.2185	0.09	376437	keystroke_Key.space	Key.space	n/a
188.3985	0.105	376797	keystroke_a	a	n/a
188.504	0.0895	377008	keystroke_n	n	n/a
188.6235	0.135	377247	keystroke_a	a	n/a
188.7735	0.075	377547	keystroke_h	h	n/a
188.864	0.1195	377728	keystroke_e	e	n/a
188.9685	0.105	377937	keystroke_i	i	n/a
189.0285	0.1045	378057	keystroke_m	m	n/a
189.2235	0.075	378447	keystroke_Key.enter	Key.enter	n/a
189.307	3.353	378614	prompt	n/a	shannon fast clinic republican\n
189.8985	0.09	379797	keystroke_s	s	n/a
189.9735	0.09	379947	keystroke_h	h	n/a
190.0785	0.1045	380157	keystroke_a	a	n/a
190.1685	0.075	380337	keystroke_n	n	n/a
190.3185	0.075	380637	keystroke_n	n	n/a
190.3785	0.12	380757	keystroke_o	o	n/a
190.4685	0.09	380937	keystroke_n	n	n/a
190.5885	0.12	381177	keystroke_Key.space	Key.space	n/a
190.6935	0.135	381387	keystroke_f	f	n/a
190.7535	0.15	381507	keystroke_a	a	n/a
190.8585	0.15	381717	keystroke_s	s	n/a
190.9635	0.105	381927	keystroke_t	t	n/a
191.0385	0.12	382077	keystroke_Key.space	Key.space	n/a
191.174	0.0895	382348	keystroke_c	c	n/a
191.249	0.0745	382498	keystroke_l	l	n/a
191.2935	0.105	382587	keystroke_i	i	n/a
191.3685	0.135	382737	keystroke_n	n	n/a
191.4735	0.12	382947	keystroke_i	i	n/a
191.549	0.1045	383098	keystroke_c	c	n/a
191.6385	0.06	383277	keystroke_Key.space	Key.space	n/a
191.7285	0.1045	383457	keystroke_r	r	n/a
191.7885	0.105	383577	keystroke_e	e	n/a
191.8785	0.12	383757	keystroke_p	p	n/a
191.9535	0.09	383907	keystroke_u	u	n/a
192.0285	0.12	384057	keystroke_b	b	n/a
192.1185	0.105	384237	keystroke_l	l	n/a
192.1785	0.1045	384357	keystroke_i	i	n/a
192.2685	0.09	384537	keystroke_c	c	n/a
192.3585	0.15	384717	keystroke_a	a	n/a
192.434	0.089	384868	keystroke_n	n	n/a
192.5835	0.075	385167	keystroke_Key.enter	Key.enter	n/a
192.666	4.029	385332	prompt	n/a	logic nasa cabin drill\n
193.2585	0.105	386517	keystroke_l	l	n/a
193.3335	0.1195	386667	keystroke_i	i	n/a
193.4095	0.1185	386819	keystroke_g	g	n/a
193.6785	0.06	387357	keystroke_Key.backspace	Key.backspace	n/a
193.8285	0.06	387657	keystroke_Key.backspace	Key.backspace	n/a
194.0235	0.1195	388047	keystroke_o	o	n/a
194.0985	0.09	388197	keystroke_g	g	n/a
194.1885	0.1045	388377	keystroke_i	i	n/a
194.2785	0.135	388557	keystroke_c	c	n/a
194.399	0.119	388798	keystroke_Key.space	Key.space	n/a
194.4735	0.075	388947	keystroke_n	n	n/a
194.5785	0.135	389157	keystroke_a	a	n/a
194.6835	0.12	389367	keystroke_s	s	n/a
194.849	0.1495	389698	keystroke_a	a	n/a
194.999	0.0895	389998	keystroke_Key.space	Key.space	n/a
195.2235	0.075	390447	keystroke_c	c	n/a
195.5535	0.135	391107	keystroke_a	a	n/a
195.6435	0.12	391287	keystroke_b	b	n/a
195.7335	0.1045	391467	keystroke_i	i	n/a
195.7785	0.12	391557	keystroke_n	n	n/a
195.8835	0.06	391767	keystroke_Key.space	Key.space	n/a
195.9585	0.075	391917	keystroke_d	d	n/a
196.0935	0.12	392187	keystroke_r	r	n/a
196.169	0.059	392338	keystroke_i	i	n/a
196.3185	0.0595	392637	keystroke_l	l	n/a
196.4685	0.045	392937	keystroke_l	l	n/a
196.6185	0.0745	393237	keystroke_Key.enter	Key.enter	n/a
196.7005	3.8045	393401	prompt	n/a	o'clock weekend incentive tones\n
197.4435	0.06	394887	keystroke_o	o	n/a
197.5635	0.105	395127	keystroke_'	'	n/a
197.714	0.1045	395428	keystroke_c	c	n/a
197.8035	0.0895	395607	keystroke_l	l	n/a
197.9685	0.09	395937	keystroke_o	o	n/a
198.0735	0.15	396147	keystroke_c	c	n/a
198.179	0.074	396358	keystroke_k	k	n/a
198.2685	0.075	396537	keystroke_Key.space	Key.space	n/a
198.3735	0.09	396747	keystroke_w	w	n/a
198.434	0.0895	396868	keystroke_e	e	n/a
198.5835	0.105	397167	keystroke_e	e	n/a
198.674	0.0745	397348	keystroke_k	k	n/a
198.7785	0.09	397557	keystroke_e	e	n/a
198.8535	0.075	397707	keystroke_n	n	n/a
198.9585	0.12	397917	keystroke_d	d	n/a
199.0635	0.09	398127	keystroke_Key.space	Key.space	n/a
199.1535	0.105	398307	keystroke_i	i	n/a
199.2135	0.0895	398427	keystroke_n	n	n/a
199.3185	0.06	398637	keystroke_c	c	n/a
199.4685	0.075	398937	keystroke_e	e	n/a
199.529	0.1045	399058	keystroke_n	n	n/a
199.6335	0.075	399267	keystroke_t	t	n/a
199.7385	0.09	399477	keystroke_i	i	n/a
199.8135	0.105	399627	keystroke_v	v	n/a
199.9035	0.105	399807	keystroke_e	e	n/a
199.9935	0.09	399987	keystroke_Key.space	Key.space	n/a
200.0685	0.12	400137	keystroke_t	t	n/a
200.144	0.1045	400288	keystroke_o	o	n/a
200.2035	0.09	400407	keystroke_n	n	n/a
200.2335	0.135	400467	keystroke_e	e	n/a
200.3235	0.105	400647	keystroke_s	s	n/a
200.429	0.074	400858	keystroke_Key.enter	Key.enter	n/a
200.511	4.089	401022	prompt	n/a	falling procedures pushing wisconsin\n
201.1185	0.06	402237	keystroke_f	f	n/a
201.149	0.1495	402298	keystroke_a	a	n/a
201.2835	0.06	402567	keystroke_l	l	n/a
201.434	0.1195	402868	keystroke_l	l	n/a
201.5085	0.135	403017	keystroke_i	i	n/a
201.5685	0.12	403137	keystroke_n	n	n/a
201.6285	0.1195	403257	keystroke_g	g	n/a
201.7335	0.0745	403467	keystroke_Key.space	Key.space	n/a
201.7935	0.105	403587	keystroke_p	p	n/a
201.8845	0.119	403769	keystroke_r	r	n/a
201.9885	0.12	403977	keystroke_o	o	n/a
202.1235	0.06	404247	keystroke_c	c	n/a
202.259	0.0895	404518	keystroke_e	e	n/a
202.4235	0.075	404847	keystroke_d	d	n/a
202.514	0.0895	405028	keystroke_u	u	n/a
202.628	0.1555	405256	keystroke_r	r	n/a
202.6935	0.135	405387	keystroke_e	e	n/a
202.754	0.1345	405508	keystroke_s	s	n/a
202.8435	0.105	405687	keystroke_Key.space	Key.space	n/a
202.9335	0.12	405867	keystroke_p	p	n/a
203.0385	0.105	406077	keystroke_u	u	n/a
203.1435	0.1045	406287	keystroke_s	s	n/a
203.2335	0.12	406467	keystroke_h	h	n/a
203.3085	0.15	406617	keystroke_i	i	n/a
203.399	0.0895	406798	keystroke_n	n	n/a
203.4735	0.12	406947	keystroke_g	g	n/a
203.549	0.0895	407098	keystroke_Key.space	Key.space	n/a
203.6085	0.09	407217	keystroke_w	w	n/a
203.714	0.0745	407428	keystroke_i	i	n/a
203.789	0.1195	407578	keystroke_s	s	n/a
203.9685	0.09	407937	keystroke_c	c	n/a
204.0435	0.12	408087	keystroke_o	o	n/a
204.0885	0.09	408177	keystroke_n	n	n/a
204.2085	0.105	408417	keystroke_s	s	n/a
204.2685	0.12	408537	keystroke_i	i	n/a
204.3435	0.075	408687	keystroke_n	n	n/a
204.524	0.0745	409048	keystroke_Key.enter	Key.enter	n/a
204.607	5.129	409214	prompt	n/a	what's maybe electronic optimize\n
205.2885	0.12	410577	keystroke_w	w	n/a
205.3935	0.09	410787	keystroke_h	h	n/a
205.4685	0.135	410937	keystroke_a	a	n/a
205.529	0.1045	411058	keystroke_t	t	n/a
205.6185	0.09	411237	keystroke_'	'	n/a
205.6935	0.12	411387	keystroke_s	s	n/a
205.784	0.1045	411568	keystroke_Key.space	Key.space	n/a
205.8435	0.105	411687	keystroke_m	m	n/a
205.9335	0.135	411867	keystroke_a	a	n/a
206.0835	0.06	412167	keystroke_b	b	n/a
206.0985	0.06	412197	keystroke_y	y	n/a
206.3385	0.105	412677	keystroke_e	e	n/a
206.4885	0.09	412977	keystroke_Key.space	Key.space	n/a
206.8635	0.06	413727	keystroke_Key.backspace	Key.backspace	n/a
206.999	0.0595	413998	keystroke_Key.backspace	Key.backspace	n/a
207.149	0.059	414298	keystroke_Key.backspace	Key.backspace	n/a
207.2835	0.0745	414567	keystroke_Key.backspace	Key.backspace	n/a
207.494	0.0745	414988	keystroke_y	y	n/a
207.5385	0.06	415077	keystroke_b	b	n/a
207.6435	0.09	415287	keystroke_e	e	n/a
207.7035	0.09	415407	keystroke_Key.space	Key.space	n/a
207.8535	0.09	415707	keystroke_e	e	n/a
207.929	0.0745	415858	keystroke_l	l	n/a
208.019	0.0745	416038	keystroke_e	e	n/a
208.1685	0.0745	416337	keystroke_c	c	n/a
208.3335	0.075	416667	keystroke_t	t	n/a
208.484	0.0895	416968	keystroke_r	r	n/a
208.529	0.1045	417058	keystroke_o	o	n/a
208.589	0.1495	417178	keystroke_n	n	n/a
208.7085	0.12	417417	keystroke_i	i	n/a
208.7985	0.09	417597	keystroke_c	c	n/a
208.8435	0.12	417687	keystroke_Key.space	Key.space	n/a
208.9485	0.135	417897	keystroke_o	o	n/a
209.0685	0.075	418137	keystroke_p	p	n/a
209.1735	0.12	418347	keystroke_t	t	n/a
209.2635	0.09	418527	keystroke_i	i	n/a
209.3235	0.135	418647	keystroke_m	m	n/a
209.444	0.0745	418888	keystroke_i	i	n/a
209.489	0.119	418978	keystroke_z	z	n/a
209.5335	0.105	419067	keystroke_e	e	n/a
209.6535	0.075	419307	keystroke_Key.enter	Key.enter	n/a
209.739	4.176	419478	prompt	n/a	call congratulations process ranked\n
210.3285	0.075	420657	keystroke_c	c	n/a
210.4185	0.15	420837	keystroke_a	a	n/a
210.5085	0.045	421017	keystroke_l	l	n/a
210.6135	0.105	421227	keystroke_l	l	n/a
210.7335	0.0755	421467	keystroke_Key.space	Key.space	n/a
210.8235	0.09	421647	keystroke_c	c	n/a
210.8985	0.105	421797	keystroke_o	o	n/a
210.944	0.1045	421888	keystroke_n	n	n/a
211.0185	0.045	422037	keystroke_g	g	n/a
211.169	0.0745	422338	keystroke_r	r	n/a
211.229	0.1345	422458	keystroke_a	a	n/a
211.3335	0.12	422667	keystroke_t	t	n/a
211.4235	0.075	422847	keystroke_u	u	n/a
211.514	0.1045	423028	keystroke_l	l	n/a
211.604	0.1195	423208	keystroke_a	a	n/a
211.6485	0.135	423297	keystroke_t	t	n/a
211.7385	0.15	423477	keystroke_i	i	n/a
211.799	0.1195	423598	keystroke_o	o	n/a
211.844	0.1195	423688	keystroke_n	n	n/a
211.9335	0.105	423867	keystroke_s	s	n/a
212.0085	0.105	424017	keystroke_Key.space	Key.space	n/a
212.129	0.1195	424258	keystroke_p	p	n/a
212.2335	0.06	424467	keystroke_r	r	n/a
212.3085	0.105	424617	keystroke_o	o	n/a
212.3985	0.06	424797	keystroke_c	c	n/a
212.549	0.0595	425098	keystroke_e	e	n/a
212.6685	0.075	425337	keystroke_s	s	n/a
212.8185	0.105	425637	keystroke_s	s	n/a
212.9085	0.075	425817	keystroke_Key.space	Key.space	n/a
212.9985	0.075	425997	keystroke_r	r	n/a
213.0585	0.15	426117	keystroke_a	a	n/a
213.1635	0.105	426327	keystroke_n	n	n/a
213.285	0.104	426570	keystroke_k	k	n/a
213.524	0.0745	427048	keystroke_e	e	n/a
213.6735	0.075	427347	keystroke_d	d	n/a
213.8535	0.06	427707	keystroke_Key.enter	Key.enter	n/a
213.9215	4.914	427843	prompt	n/a	summit cardiovascular indians chemicals\n
214.4235	0.045	428847	keystroke_c	c	n/a
214.6935	0.06	429387	keystroke_Key.backspace	Key.backspace	n/a
214.784	0.1045	429568	keystroke_s	s	n/a
214.8735	0.09	429747	keystroke_u	u	n/a
215.069	0.0595	430138	keystroke_m	m	n/a
215.1885	0.12	430377	keystroke_m	m	n/a
215.264	0.1195	430528	keystroke_i	i	n/a
215.3235	0.105	430647	keystroke_t	t	n/a
215.3985	0.09	430797	keystroke_Key.space	Key.space	n/a
215.5485	0.075	431097	keystroke_c	c	n/a
215.6685	0.135	431337	keystroke_a	a	n/a
215.7735	0.09	431547	keystroke_r	r	n/a
215.9235	0.105	431847	keystroke_d	d	n/a
216.0735	0.12	432147	keystroke_i	i	n/a
216.1185	0.12	432237	keystroke_o	o	n/a
216.3435	0.09	432687	keystroke_v	v	n/a
216.4785	0.105	432957	keystroke_a	a	n/a
216.5385	0.105	433077	keystroke_s	s	n/a
216.7185	0.09	433437	keystroke_c	c	n/a
216.794	0.0745	433588	keystroke_u	u	n/a
216.9135	0.12	433827	keystroke_l	l	n/a
216.9885	0.12	433977	keystroke_a	a	n/a
217.019	0.1495	434038	keystroke_r	r	n/a
217.1235	0.105	434247	keystroke_Key.space	Key.space	n/a
217.2135	0.105	434427	keystroke_i	i	n/a
217.2585	0.12	434517	keystroke_n	n	n/a
217.3635	0.12	434727	keystroke_d	d	n/a
217.4985	0.06	434997	keystroke_i	i	n/a
217.5735	0.12	435147	keystroke_a	a	n/a
217.6335	0.105	435267	keystroke_n	n	n/a
217.7235	0.0895	435447	keystroke_s	s	n/a
217.7835	0.075	435567	keystroke_Key.space	Key.space	n/a
217.9185	0.075	435837	keystroke_c	c	n/a
217.9785	0.09	435957	keystroke_h	h	n/a
218.0835	0.09	436167	keystroke_e	e	n/a
218.1885	0.1345	436377	keystroke_m	m	n/a
218.2935	0.105	436587	keystroke_i	i	n/a
218.3835	0.09	436767	keystroke_c	c	n/a
218.4735	0.12	436947	keystroke_a	a	n/a
218.5335	0.075	437067	keystroke_l	l	n/a
218.6535	0.105	437307	keystroke_s	s	n/a
218.7735	0.06	437547	keystroke_Key.enter	Key.enter	n/a
218.8415	3.564	437683	prompt	n/a	vice outstanding ultram next\n
219.4635	0.09	438927	keystroke_v	v	n/a
219.569	0.0895	439138	keystroke_i	i	n/a
219.6285	0.105	439257	keystroke_c	c	n/a
219.8085	0.12	439617	keystroke_e	e	n/a
219.884	0.1045	439768	keystroke_Key.space	Key.space	n/a
220.034	0.0595	440068	keystroke_o	o	n/a
220.0485	0.12	440097	keystroke_u	u	n/a
220.1385	0.1195	440277	keystroke_t	t	n/a
220.2885	0.135	440577	keystroke_s	s	n/a
220.454	0.1045	440908	keystroke_t	t	n/a
220.5735	0.12	441147	keystroke_a	a	n/a
220.6635	0.105	441327	keystroke_n	n	n/a
220.7535	0.12	441507	keystroke_d	d	n/a
220.859	0.1045	441718	keystroke_i	i	n/a
220.9035	0.105	441807	keystroke_n	n	n/a
220.9785	0.105	441957	keystroke_g	g	n/a
221.0535	0.09	442107	keystroke_Key.space	Key.space	n/a
221.1885	0.075	442377	keystroke_u	u	n/a
221.3235	0.12	442647	keystroke_l	l	n/a
221.4135	0.075	442827	keystroke_t	t	n/a
221.5785	0.105	443157	keystroke_r	r	n/a
221.6385	0.165	443277	keystroke_a	a	n/a
221.7285	0.105	443457	keystroke_m	m	n/a
221.834	0.1045	443668	keystroke_Key.space	Key.space	n/a
221.9235	0.075	443847	keystroke_n	n	n/a
221.9835	0.0765	443967	keystroke_e	e	n/a
222.1635	0.12	444327	keystroke_x	x	n/a
222.2235	0.105	444447	keystroke_t	t	n/a
222.3435	0.06	444687	keystroke_Key.enter	Key.enter	n/a
222.4165	3.9935	444833	prompt	n/a	bloom ready ecological receive\n
223.0035	0.105	446007	keystroke_b	b	n/a
223.1235	0.075	446247	keystroke_l	l	n/a
223.319	0.0595	446638	keystroke_o	o	n/a
223.454	0.1045	446908	keystroke_o	o	n/a
223.4985	0.135	446997	keystroke_m	m	n/a
223.6185	0.09	447237	keystroke_Key.space	Key.space	n/a
223.6485	0.165	447297	keystroke_r	r	n/a
223.7685	0.12	447537	keystroke_e	e	n/a
223.8735	0.12	447747	keystroke_a	a	n/a
223.9785	0.15	447957	keystroke_d	d	n/a
224.0835	0.09	448167	keystroke_y	y	n/a
224.1735	0.0595	448347	keystroke_Key.space	Key.space	n/a
224.2485	0.075	448497	keystroke_e	e	n/a
224.4135	0.105	448827	keystroke_c	c	n/a
224.4735	0.075	448947	keystroke_o	o	n/a
224.639	0.0445	449278	keystroke_l	l	n/a
224.7885	0.075	449577	keystroke_o	o	n/a
224.8785	0.075	449757	keystroke_g	g	n/a
224.969	0.0895	449938	keystroke_i	i	n/a
225.029	0.1045	450058	keystroke_c	c	n/a
225.1185	0.15	450237	keystroke_a	a	n/a
225.194	0.075	450388	keystroke_l	l	n/a
225.2535	0.105	450507	keystroke_Key.space	Key.space	n/a
225.329	0.1195	450658	keystroke_r	r	n/a
225.4185	0.075	450837	keystroke_e	e	n/a
225.5985	0.075	451197	keystroke_c	c	n/a
225.7635	0.105	451527	keystroke_e	e	n/a
225.8535	0.075	451707	keystroke_i	i	n/a
225.9435	0.09	451887	keystroke_e	e	n/a
226.0485	0.105	452097	keystroke_v	v	n/a
226.1385	0.09	452277	keystroke_e	e	n/a
226.3335	0.0745	452667	keystroke_Key.enter	Key.enter	n/a
226.416	5.979	452832	prompt	n/a	matthew highly buy annotated\n
227.0235	0.09	454047	keystroke_m	m	n/a
227.0835	0.105	454167	keystroke_a	a	n/a
227.159	0.0745	454318	keystroke_t	t	n/a
227.2935	0.12	454587	keystroke_t	t	n/a
227.3685	0.09	454737	keystroke_h	h	n/a
227.4435	0.135	454887	keystroke_e	e	n/a
227.5335	0.12	455067	keystroke_Key.space	Key.space	n/a
227.6385	0.12	455277	keystroke_h	h	n/a
227.7135	0.105	455427	keystroke_i	i	n/a
227.7885	0.105	455577	keystroke_g	g	n/a
227.8635	0.09	455727	keystroke_h	h	n/a
227.9985	0.12	455997	keystroke_l	l	n/a
228.0735	0.09	456147	keystroke_y	y	n/a
228.1785	0.09	456357	keystroke_Key.space	Key.space	n/a
228.4495	0.059	456899	keystroke_Key.backspace	Key.backspace	n/a
228.5985	0.075	457197	keystroke_Key.backspace	Key.backspace	n/a
228.7335	0.075	457467	keystroke_Key.backspace	Key.backspace	n/a
228.8835	0.06	457767	keystroke_Key.backspace	Key.backspace	n/a
229.0185	0.06	458037	keystroke_Key.backspace	Key.backspace	n/a
229.169	0.0595	458338	keystroke_Key.backspace	Key.backspace	n/a
229.3785	0.015	458757	keystroke_Key.backspace	Key.backspace	n/a
229.4685	0.06	458937	keystroke_Key.backspace	Key.backspace	n/a
229.6935	0.09	459387	keystroke_w	w	n/a
229.8285	0.0905	459657	keystroke_Key.space	Key.space	n/a
230.1285	0.12	460257	keystroke_h	h	n/a
230.2185	0.105	460437	keystroke_i	i	n/a
230.3085	0.105	460617	keystroke_g	g	n/a
230.384	0.0895	460768	keystroke_h	h	n/a
230.5185	0.12	461037	keystroke_l	l	n/a
230.6085	0.09	461217	keystroke_y	y	n/a
230.7585	0.075	461517	keystroke_Key.space	Key.space	n/a
231.0285	0.105	462057	keystroke_b	b	n/a
231.1185	0.075	462237	keystroke_u	u	n/a
231.2835	0.105	462567	keystroke_y	y	n/a
231.374	0.0745	462748	keystroke_Key.space	Key.space	n/a
231.4635	0.12	462927	keystroke_a	a	n/a
231.5695	0.074	463139	keystroke_n	n	n/a
231.7035	0.105	463407	keystroke_n	n	n/a
231.7635	0.12	463527	keystroke_o	o	n/a
231.824	0.1045	463648	keystroke_t	t	n/a
231.929	0.1345	463858	keystroke_a	a	n/a
232.0185	0.105	464037	keystroke_t	t	n/a
232.0785	0.09	464157	keystroke_e	e	n/a
232.2135	0.09	464427	keystroke_d	d	n/a
232.319	0.0745	464638	keystroke_Key.enter	Key.enter	n/a
232.4005	6.732	464801	prompt	n/a	records consolidated authority identifier\n
233.0835	0.105	466167	keystroke_r	r	n/a
233.1735	0.06	466347	keystroke_e	e	n/a
233.3685	0.06	466737	keystroke_c	c	n/a
233.4735	0.075	466947	keystroke_o	o	n/a
233.534	0.1195	467068	keystroke_r	r	n/a
233.5935	0.165	467187	keystroke_d	d	n/a
233.684	0.1195	467368	keystroke_s	s	n/a
233.7735	0.075	467547	keystroke_Key.space	Key.space	n/a
233.909	0.1045	467818	keystroke_c	c	n/a
233.984	0.1195	467968	keystroke_o	o	n/a
234.044	0.0895	468088	keystroke_n	n	n/a
234.1185	0.105	468237	keystroke_s	s	n/a
234.1935	0.075	468387	keystroke_o	o	n/a
234.359	0.0895	468718	keystroke_l	l	n/a
234.4035	0.105	468807	keystroke_i	i	n/a
234.419	0.1195	468838	keystroke_d	d	n/a
234.5235	0.105	469047	keystroke_a	a	n/a
234.5835	0.105	469167	keystroke_t	t	n/a
234.659	0.0595	469318	keystroke_e	e	n/a
234.7785	0.105	469557	keystroke_d	d	n/a
234.8535	0.105	469707	keystroke_Key.space	Key.space	n/a
235.0035	0.12	470007	keystroke_a	a	n/a
235.0635	0.105	470127	keystroke_u	u	n/a
235.259	0.1045	470518	keystroke_h	h	n/a
235.3185	0.105	470637	keystroke_t	t	n/a
235.4835	0.12	470967	keystroke_o	o	n/a
235.604	0.1195	471208	keystroke_r	r	n/a
235.7385	0.105	471477	keystroke_i	i	n/a
235.9335	0.06	471867	keystroke_t	t	n/a
236.159	0.0595	472318	keystroke_Key.backspace	Key.backspace	n/a
236.3835	0.015	472767	keystroke_Key.backspace	Key.backspace	n/a
236.459	0.0445	472918	keystroke_Key.backspace	Key.backspace	n/a
236.5785	0.075	473157	keystroke_Key.backspace	Key.backspace	n/a
236.7285	0.075	473457	keystroke_Key.backspace	Key.backspace	n/a
237.059	0.0595	474118	keystroke_Key.backspace	Key.backspace	n/a
237.224	0.1345	474448	keystroke_t	t	n/a
237.3135	0.075	474627	keystroke_h	h	n/a
237.404	0.1045	474808	keystroke_o	o	n/a
237.524	0.1045	475048	keystroke_r	r	n/a
237.6285	0.075	475257	keystroke_i	i	n/a
237.7035	0.15	475407	keystroke_t	t	n/a
237.7935	0.0905	475587	keystroke_y	y	n/a
237.8685	0.105	475737	keystroke_Key.space	Key.space	n/a
238.0035	0.09	476007	keystroke_i	i	n/a
238.109	0.0745	476218	keystroke_d	d	n/a
238.3035	0.09	476607	keystroke_e	e	n/a
238.4085	0.0905	476817	keystroke_n	n	n/a
238.4845	0.104	476969	keystroke_t	t	n/a
238.5885	0.06	477177	keystroke_i	i	n/a
238.6785	0.09	477357	keystroke_f	f	n/a
238.7385	0.075	477477	keystroke_i	i	n/a
238.8285	0.12	477657	keystroke_e	e	n/a
238.9035	0.105	477807	keystroke_r	r	n/a
239.0535	0.075	478107	keystroke_Key.enter	Key.enter	n/a
239.139	3.921	478278	prompt	n/a	living fuji gender poly\n
239.8035	0.09	479607	keystroke_l	l	n/a
239.8635	0.09	479727	keystroke_i	i	n/a
239.939	0.1045	479878	keystroke_v	v	n/a
240.059	0.1345	480118	keystroke_i	i	n/a
240.1185	0.105	480237	keystroke_n	n	n/a
240.1785	0.105	480357	keystroke_g	g	n/a
240.2535	0.075	480507	keystroke_Key.space	Key.space	n/a
240.404	0.0595	480808	keystroke_r	r	n/a
240.659	0.0595	481318	keystroke_Key.backspace	Key.backspace	n/a
240.7785	0.105	481557	keystroke_f	f	n/a
240.8535	0.09	481707	keystroke_u	u	n/a
241.034	0.1045	482068	keystroke_j	j	n/a
241.124	0.0745	482248	keystroke_i	i	n/a
241.2435	0.09	482487	keystroke_Key.space	Key.space	n/a
241.634	0.0895	483268	keystroke_g	g	n/a
241.739	0.0895	483478	keystroke_e	e	n/a
241.7985	0.09	483597	keystroke_n	n	n/a
241.949	0.0595	483898	keystroke_d	d	n/a
242.0685	0.105	484137	keystroke_e	e	n/a
242.1135	0.105	484227	keystroke_r	r	n/a
242.189	0.1045	484378	keystroke_Key.space	Key.space	n/a
242.234	0.1045	484468	keystroke_p	p	n/a
242.3535	0.075	484707	keystroke_o	o	n/a
242.5185	0.09	485037	keystroke_l	l	n/a
242.639	0.1045	485278	keystroke_y	y	n/a
242.9835	0.075	485967	keystroke_Key.enter	Key.enter	n/a
243.066	3.2795	486132	prompt	n/a	rangers limitations fuzzy epic\n
243.674	0.1195	487348	keystroke_r	r	n/a
243.7635	0.15	487527	keystroke_a	a	n/a
243.854	0.0895	487708	keystroke_n	n	n/a
243.9285	0.09	487857	keystroke_g	g	n/a
244.034	0.1345	488068	keystroke_e	e	n/a
244.1245	0.134	488249	keystroke_r	r	n/a
244.154	0.1345	488308	keystroke_s	s	n/a
244.244	0.1195	488488	keystroke_Key.space	Key.space	n/a
244.3035	0.075	488607	keystroke_l	l	n/a
244.3485	0.09	488697	keystroke_i	i	n/a
244.424	0.1195	488848	keystroke_m	m	n/a
244.529	0.1055	489058	keystroke_i	i	n/a
244.5585	0.09	489117	keystroke_t	t	n/a
244.6495	0.149	489299	keystroke_a	a	n/a
244.724	0.1195	489448	keystroke_t	t	n/a
244.7685	0.18	489537	keystroke_i	i	n/a
244.8435	0.075	489687	keystroke_o	o	n/a
244.9035	0.105	489807	keystroke_n	n	n/a
244.934	0.1045	489868	keystroke_s	s	n/a
245.024	0.0745	490048	keystroke_Key.space	Key.space	n/a
245.1285	0.075	490257	keystroke_f	f	n/a
245.1885	0.09	490377	keystroke_u	u	n/a
245.3085	0.075	490617	keystroke_z	z	n/a
245.459	0.1495	490918	keystroke_z	z	n/a
245.549	0.0745	491098	keystroke_y	y	n/a
245.6685	0.09	491337	keystroke_Key.space	Key.space	n/a
245.8635	0.075	491727	keystroke_e	e	n/a
245.9535	0.105	491907	keystroke_p	p	n/a
246.0135	0.09	492027	keystroke_i	i	n/a
246.0885	0.09	492177	keystroke_c	c	n/a
246.2535	0.09	492507	keystroke_Key.enter	Key.enter	n/a
246.351	5.3045	492702	prompt	n/a	appliances modifications wallace awarded\n
247.0335	0.0305	494067	keystroke_a	a	n/a
247.049	0.0745	494098	keystroke_p	p	n/a
247.2135	0.075	494427	keystroke_p	p	n/a
247.3635	0.135	494727	keystroke_l	l	n/a
247.4385	0.12	494877	keystroke_i	i	n/a
247.484	0.0895	494968	keystroke_c	c	n/a
247.6035	0.15	495207	keystroke_a	a	n/a
247.679	0.1195	495358	keystroke_t	t	n/a
247.7685	0.15	495537	keystroke_i	i	n/a
247.8285	0.105	495657	keystroke_o	o	n/a
247.874	0.1045	495748	keystroke_n	n	n/a
247.9035	0.105	495807	keystroke_s	s	n/a
247.949	0.1495	495898	keystroke_Key.space	Key.space	n/a
248.084	0.1195	496168	keystroke_m	m	n/a
248.159	0.0895	496318	keystroke_o	o	n/a
248.2335	0.09	496467	keystroke_d	d	n/a
248.369	0.0895	496738	keystroke_i	i	n/a
248.4285	0.09	496857	keystroke_f	f	n/a
248.549	0.0895	497098	keystroke_i	i	n/a
248.624	0.0745	497248	keystroke_c	c	n/a
248.7285	0.105	497457	keystroke_a	a	n/a
248.789	0.1045	497578	keystroke_t	t	n/a
248.8635	0.1355	497727	keystroke_i	i	n/a
248.9085	0.12	497817	keystroke_o	o	n/a
248.9535	0.12	497907	keystroke_n	n	n/a
249.0135	0.075	498027	keystroke_s	s	n/a
249.074	0.0895	498148	keystroke_Key.space	Key.space	n/a
249.1935	0.09	498387	keystroke_w	w	n/a
249.2685	0.105	498537	keystroke_a	a	n/a
249.3585	0.045	498717	keystroke_l	l	n/a
249.464	0.0895	498928	keystroke_l	l	n/a
249.539	0.1045	499078	keystroke_a	a	n/a
249.629	0.0745	499258	keystroke_c	c	n/a
249.779	0.1045	499558	keystroke_e	e	n/a
249.8685	0.105	499737	keystroke_Key.space	Key.space	n/a
249.9285	0.105	499857	keystroke_a	a	n/a
250.0485	0.12	500097	keystroke_w	w	n/a
250.184	0.1345	500368	keystroke_a	a	n/a
250.2735	0.09	500547	keystroke_r	r	n/a
250.4235	0.075	500847	keystroke_d	d	n/a
250.5585	0.075	501117	keystroke_e	e	n/a
250.7085	0.105	501417	keystroke_d	d	n/a
250.8285	0.0605	501657	keystroke_Key.space	Key.space	n/a
251.099	0.0895	502198	keystroke_b	b	n/a
251.174	0.0895	502348	keystroke_u	u	n/a
251.3085	0.06	502617	keystroke_z	z	n/a
251.4435	0.09	502887	keystroke_z	z	n/a
251.579	0.0745	503158	keystroke_Key.enter	Key.enter	n/a
251.6615	3.2935	503323	prompt	n/a	dictionary used union sealed\n
252.239	0.0595	504478	keystroke_d	d	n/a
252.3585	0.075	504717	keystroke_i	i	n/a
252.4185	0.06	504837	keystroke_c	c	n/a
252.599	0.1045	505198	keystroke_t	t	n/a
252.629	0.1645	505258	keystroke_i	i	n/a
252.689	0.1345	505378	keystroke_o	o	n/a
252.734	0.1345	505468	keystroke_n	n	n/a
252.8085	0.12	505617	keystroke_a	a	n/a
252.854	0.1495	505708	keystroke_r	r	n/a
252.9735	0.09	505947	keystroke_y	y	n/a
253.0785	0.105	506157	keystroke_Key.space	Key.space	n/a
253.154	0.1195	506308	keystroke_u	u	n/a
253.23	0.0885	506460	keystroke_s	s	n/a
253.289	0.0895	506578	keystroke_e	e	n/a
253.454	0.0745	506908	keystroke_d	d	n/a
253.4835	0.135	506967	keystroke_Key.space	Key.space	n/a
253.575	0.1035	507150	keystroke_u	u	n/a
253.7685	0.135	507537	keystroke_n	n	n/a
253.889	0.1795	507778	keystroke_i	i	n/a
253.9635	0.1355	507927	keystroke_o	o	n/a
254.039	0.1045	508078	keystroke_n	n	n/a
254.159	0.0895	508318	keystroke_Key.space	Key.space	n/a
254.2635	0.105	508527	keystroke_s	s	n/a
254.324	0.1495	508648	keystroke_e	e	n/a
254.444	0.1345	508888	keystroke_a	a	n/a
254.5485	0.075	509097	keystroke_l	l	n/a
254.6085	0.09	509217	keystroke_e	e	n/a
254.7735	0.09	509547	keystroke_d	d	n/a
254.909	0.0445	509818	keystroke_Key.enter	Key.enter	n/a
254.9625	4.7175	509925	prompt	n/a	translation coastal striking lexington\n
255.5685	0.09	511137	keystroke_t	t	n/a
255.7335	0.105	511467	keystroke_r	r	n/a
255.7935	0.12	511587	keystroke_a	a	n/a
255.884	0.0895	511768	keystroke_n	n	n/a
255.989	0.1195	511978	keystroke_s	s	n/a
256.1235	0.09	512247	keystroke_l	l	n/a
256.1835	0.135	512367	keystroke_a	a	n/a
256.2585	0.105	512517	keystroke_t	t	n/a
256.3785	0.165	512757	keystroke_i	i	n/a
256.4235	0.135	512847	keystroke_o	o	n/a
256.499	0.1195	512998	keystroke_n	n	n/a
256.604	0.0745	513208	keystroke_Key.space	Key.space	n/a
256.7985	0.075	513597	keystroke_c	c	n/a
256.8585	0.09	513717	keystroke_o	o	n/a
256.964	0.1195	513928	keystroke_a	a	n/a
257.039	0.1495	514078	keystroke_s	s	n/a
257.1585	0.105	514317	keystroke_t	t	n/a
257.2785	0.135	514557	keystroke_a	a	n/a
257.3835	0.09	514767	keystroke_l	l	n/a
257.4585	0.09	514917	keystroke_Key.space	Key.space	n/a
257.5335	0.105	515067	keystroke_s	s	n/a
257.624	0.1045	515248	keystroke_t	t	n/a
257.7735	0.135	515547	keystroke_r	r	n/a
257.864	0.0595	515728	keystroke_i	i	n/a
258.059	0.0595	516118	keystroke_k	k	n/a
258.224	0.1195	516448	keystroke_i	i	n/a
258.284	0.1195	516568	keystroke_n	n	n/a
258.3885	0.09	516777	keystroke_g	g	n/a
258.4635	0.12	516927	keystroke_Key.space	Key.space	n/a
258.5985	0.105	517197	keystroke_l	l	n/a
258.7185	0.075	517437	keystroke_e	e	n/a
258.8985	0.15	517797	keystroke_x	x	n/a
258.974	0.1195	517948	keystroke_i	i	n/a
259.0335	0.12	518067	keystroke_n	n	n/a
259.1235	0.06	518247	keystroke_g	g	n/a
259.259	0.1195	518518	keystroke_t	t	n/a
259.3485	0.105	518697	keystroke_o	o	n/a
259.4085	0.105	518817	keystroke_n	n	n/a
259.604	0.0745	519208	keystroke_Key.enter	Key.enter	n/a
259.6875	3.383	519375	prompt	n/a	race crazy that's proc\n
260.2185	0.075	520437	keystroke_t	t	n/a
260.519	0.0595	521038	keystroke_Key.backspace	Key.backspace	n/a
260.5935	0.105	521187	keystroke_r	r	n/a
260.6835	0.0905	521367	keystroke_a	a	n/a
260.8185	0.075	521637	keystroke_c	c	n/a
260.9835	0.105	521967	keystroke_e	e	n/a
261.0585	0.105	522117	keystroke_Key.space	Key.space	n/a
261.2385	0.105	522477	keystroke_c	c	n/a
261.4635	0.09	522927	keystroke_r	r	n/a
261.5385	0.097	523077	keystroke_a	a	n/a
261.7185	0.15	523437	keystroke_z	z	n/a
261.7935	0.09	523587	keystroke_y	y	n/a
261.914	0.0895	523828	keystroke_Key.space	Key.space	n/a
261.9885	0.12	523977	keystroke_t	t	n/a
262.079	0.0895	524158	keystroke_h	h	n/a
262.1385	0.12	524277	keystroke_a	a	n/a
262.2135	0.09	524427	keystroke_t	t	n/a
262.2735	0.105	524547	keystroke_'	'	n/a
262.364	0.1045	524728	keystroke_s	s	n/a
262.4235	0.105	524847	keystroke_Key.space	Key.space	n/a
262.5135	0.1055	525027	keystroke_p	p	n/a
262.604	0.0745	525208	keystroke_r	r	n/a
262.709	0.0895	525418	keystroke_o	o	n/a
262.814	0.0745	525628	keystroke_c	c	n/a
262.994	0.0745	525988	keystroke_Key.enter	Key.enter	n/a
263.0765	4.179	526153	prompt	n/a	calendar appliances bond optional\n
263.729	0.0595	527458	keystroke_c	c	n/a
263.804	0.1495	527608	keystroke_a	a	n/a
263.9235	0.09	527847	keystroke_l	l	n/a
263.9985	0.09	527997	keystroke_e	e	n/a
264.0885	0.1055	528177	keystroke_n	n	n/a
264.1785	0.105	528357	keystroke_d	d	n/a
264.2695	0.104	528539	keystroke_a	a	n/a
264.3135	0.12	528627	keystroke_r	r	n/a
264.404	0.0895	528808	keystroke_Key.space	Key.space	n/a
264.479	0.1195	528958	keystroke_a	a	n/a
264.5835	0.075	529167	keystroke_p	p	n/a
264.7335	0.09	529467	keystroke_p	p	n/a
264.9285	0.1205	529857	keystroke_l	l	n/a
264.989	0.1345	529978	keystroke_i	i	n/a
265.1685	0.1055	530337	keystroke_a	a	n/a
265.319	0.1345	530638	keystroke_n	n	n/a
265.469	0.0745	530938	keystroke_c	c	n/a
265.6335	0.075	531267	keystroke_e	e	n/a
265.7835	0.105	531567	keystroke_d	d	n/a
265.859	0.0895	531718	keystroke_Key.space	Key.space	n/a
265.9785	0.105	531957	keystroke_b	b	n/a
266.054	0.1195	532108	keystroke_o	o	n/a
266.114	0.1045	532228	keystroke_n	n	n/a
266.204	0.0895	532408	keystroke_d	d	n/a
266.249	0.1195	532498	keystroke_Key.space	Key.space	n/a
266.324	0.1495	532648	keystroke_o	o	n/a
266.459	0.0895	532918	keystroke_p	p	n/a
266.564	0.1195	533128	keystroke_t	t	n/a
266.624	0.1945	533248	keystroke_i	i	n/a
266.6835	0.12	533367	keystroke_o	o	n/a
266.759	0.12	533518	keystroke_n	n	n/a
266.864	0.1345	533728	keystroke_a	a	n/a
266.9835	0.06	533967	keystroke_l	l	n/a
267.179	0.0745	534358	keystroke_Key.enter	Key.enter	n/a
267.262	2.978	534524	prompt	n/a	member labor noted intro\n
268.0335	0.075	536067	keystroke_m	m	n/a
268.064	0.1195	536128	keystroke_e	e	n/a
268.1835	0.135	536367	keystroke_m	m	n/a
268.2735	0.105	536547	keystroke_b	b	n/a
268.4235	0.1205	536847	keystroke_e	e	n/a
268.4985	0.12	536997	keystroke_r	r	n/a
268.5585	0.105	537117	keystroke_Key.space	Key.space	n/a
268.5885	0.09	537177	keystroke_l	l	n/a
268.6935	0.105	537387	keystroke_a	a	n/a
268.7685	0.09	537537	keystroke_b	b	n/a
268.874	0.0595	537748	keystroke_o	o	n/a
268.964	0.1045	537928	keystroke_r	r	n/a
269.0235	0.105	538047	keystroke_Key.space	Key.space	n/a
269.0835	0.105	538167	keystroke_n	n	n/a
269.159	0.1045	538318	keystroke_o	o	n/a
269.2185	0.105	538437	keystroke_t	t	n/a
269.3085	0.06	538617	keystroke_e	e	n/a
269.459	0.1045	538918	keystroke_d	d	n/a
269.5485	0.105	539097	keystroke_Key.space	Key.space	n/a
269.639	0.1045	539278	keystroke_i	i	n/a
269.6835	0.105	539367	keystroke_n	n	n/a
269.759	0.0745	539518	keystroke_t	t	n/a
269.924	0.0895	539848	keystroke_r	r	n/a
269.9985	0.06	539997	keystroke_o	o	n/a
270.1635	0.075	540327	keystroke_Key.enter	Key.enter	n/a
270.2465	11.0935	540493	prompt	n/a	browsing finished pizza intensive\n
270.914	0.0745	541828	keystroke_b	b	n/a
271.109	0.1045	542218	keystroke_r	r	n/a
271.244	0.0895	542488	keystroke_o	o	n/a
271.2885	0.105	542577	keystroke_w	w	n/a
271.4535	0.135	542907	keystroke_s	s	n/a
271.544	0.0895	543088	keystroke_i	i	n/a
271.604	0.09	543208	keystroke_n	n	n/a
271.664	0.0895	543328	keystroke_g	g	n/a
271.724	0.0745	543448	keystroke_Key.space	Key.space	n/a
271.8285	0.135	543657	keystroke_f	f	n/a
271.889	0.0895	543778	keystroke_i	i	n/a
271.9485	0.135	543897	keystroke_n	n	n/a
272.0535	0.105	544107	keystroke_i	i	n/a
272.174	0.1195	544348	keystroke_s	s	n/a
272.279	0.0895	544558	keystroke_h	h	n/a
272.324	0.1045	544648	keystroke_e	e	n/a
272.474	0.1045	544948	keystroke_d	d	n/a
272.5335	0.105	545067	keystroke_Key.space	Key.space	n/a
272.609	0.12	545218	keystroke_p	p	n/a
272.6835	0.09	545367	keystroke_i	i	n/a
272.8485	0.06	545697	keystroke_z	z	n/a
272.9985	0.075	545997	keystroke_z	z	n/a
273.1785	0.12	546357	keystroke_a	a	n/a
273.254	0.1195	546508	keystroke_Key.space	Key.space	n/a
273.3885	0.09	546777	keystroke_i	i	n/a
273.4345	0.104	546869	keystroke_n	n	n/a
273.494	0.1195	546988	keystroke_t	t	n/a
273.569	0.1045	547138	keystroke_e	e	n/a
273.7035	0.09	547407	keystroke_n	n	n/a
273.764	0.12	547528	keystroke_s	s	n/a
273.8985	0.075	547797	keystroke_i	i	n/a
273.9435	0.09	547887	keystroke_v	v	n/a
274.0185	0.0905	548037	keystroke_e	e	n/a
274.0785	0.075	548157	keystroke_Key.space	Key.space	n/a
274.154	0.0895	548308	keystroke_f	f	n/a
274.2585	0.075	548517	keystroke_u	u	n/a
274.3485	0.045	548697	keystroke_z	z	n/a
274.484	0.1195	548968	keystroke_z	z	n/a
275.5035	0.12	551007	keystroke_i	i	n/a
275.564	0.1045	551128	keystroke_n	n	n/a
275.6535	0.12	551307	keystroke_g	g	n/a
275.7285	0.09	551457	keystroke_Key.space	Key.space	n/a
275.8335	0.09	551667	keystroke_i	i	n/a
275.9085	0.09	551817	keystroke_s	s	n/a
276.344	0.0745	552688	keystroke_Key.space	Key.space	n/a
276.4935	0.12	552987	keystroke_s	s	n/a
276.5985	0.09	553197	keystroke_u	u	n/a
276.7035	0.105	553407	keystroke_r	r	n/a
276.7785	0.105	553557	keystroke_p	p	n/a
276.869	0.1195	553738	keystroke_r	r	n/a
276.9435	0.09	553887	keystroke_i	i	n/a
277.0485	0.105	554097	keystroke_s	s	n/a
277.124	0.1045	554248	keystroke_i	i	n/a
277.169	0.1045	554338	keystroke_n	n	n/a
277.259	0.1045	554518	keystroke_g	g	n/a
277.3635	0.105	554727	keystroke_l	l	n/a
277.4385	0.09	554877	keystroke_y	y	n/a
277.544	0.0895	555088	keystroke_Key.space	Key.space	n/a
277.604	0.1345	555208	keystroke_g	g	n/a
277.709	0.0745	555418	keystroke_o	o	n/a
277.8435	0.09	555687	keystroke_o	o	n/a
277.904	0.0745	555808	keystroke_d	d	n/a
277.9635	0.12	555927	keystroke_Key.space	Key.space	n/a
278.069	0.1195	556138	keystroke_a	a	n/a
278.1285	0.105	556257	keystroke_t	t	n/a
278.2185	0.075	556437	keystroke_Key.space	Key.space	n/a
278.3235	0.135	556647	keystroke_f	f	n/a
278.399	0.12	556798	keystroke_i	i	n/a
278.474	0.1045	556948	keystroke_n	n	n/a
278.5935	0.09	557187	keystroke_d	d	n/a
278.6235	0.12	557247	keystroke_i	i	n/a
278.6685	0.12	557337	keystroke_n	n	n/a
278.7885	0.09	557577	keystroke_g	g	n/a
278.8635	0.09	557727	keystroke_Key.space	Key.space	n/a
278.924	0.0595	557848	keystroke_l	l	n/a
279.0585	0.105	558117	keystroke_o	o	n/a
279.089	0.1345	558178	keystroke_t	t	n/a
279.194	0.0895	558388	keystroke_s	s	n/a
279.2235	0.12	558447	keystroke_Key.space	Key.space	n/a
279.509	0.0745	559018	keystroke_o	o	n/a
279.5985	0.09	559197	keystroke_f	f	n/a
279.6735	0.075	559347	keystroke_Key.space	Key.space	n/a
279.8535	0.12	559707	keystroke_r	r	n/a
279.9285	0.105	559857	keystroke_e	e	n/a
279.9885	0.105	559977	keystroke_a	a	n/a
280.0485	0.06	560097	keystroke_l	l	n/a
280.1685	0.105	560337	keystroke_l	l	n/a
280.2135	0.105	560427	keystroke_y	y	n/a
280.2885	0.09	560577	keystroke_Key.space	Key.space	n/a
280.3635	0.075	560727	keystroke_s	s	n/a
280.4235	0.06	560847	keystroke_t	t	n/a
280.5585	0.12	561117	keystroke_r	r	n/a
280.634	0.1345	561268	keystroke_a	a	n/a
280.694	0.1045	561388	keystroke_n	n	n/a
280.784	0.0895	561568	keystroke_g	g	n/a
280.829	0.0745	561658	keystroke_e	e	n/a
280.889	0.0745	561778	keystroke_Key.space	Key.space	n/a
280.979	0.0895	561958	keystroke_b	b	n/a
281.039	0.0895	562078	keystroke_u	u	n/a
281.1435	0.09	562287	keystroke_g	g	n/a
281.2185	0.09	562437	keystroke_s	s	n/a
281.2635	0.075	562527	keystroke_Key.enter	Key.enter	n/a
281.347	3.998	562694	prompt	n/a	session collections lucky childhood\n
282.044	0.1045	564088	keystroke_s	s	n/a
282.134	0.0745	564268	keystroke_e	e	n/a
282.299	0.0745	564598	keystroke_s	s	n/a
282.434	0.1345	564868	keystroke_s	s	n/a
282.509	0.1495	565018	keystroke_i	i	n/a
282.5535	0.135	565107	keystroke_o	o	n/a
282.5985	0.12	565197	keystroke_n	n	n/a
282.6735	0.09	565347	keystroke_Key.space	Key.space	n/a
282.779	0.0595	565558	keystroke_c	c	n/a
282.809	0.0745	565618	keystroke_o	o	n/a
282.9735	0.06	565947	keystroke_l	l	n/a
283.0935	0.105	566187	keystroke_l	l	n/a
283.1385	0.075	566277	keystroke_e	e	n/a
283.304	0.0445	566608	keystroke_c	c	n/a
283.4385	0.105	566877	keystroke_t	t	n/a
283.5285	0.15	567057	keystroke_i	i	n/a
283.5735	0.12	567147	keystroke_o	o	n/a
283.619	0.1195	567238	keystroke_n	n	n/a
283.6635	0.09	567327	keystroke_s	s	n/a
283.709	0.1045	567418	keystroke_Key.space	Key.space	n/a
283.8285	0.105	567657	keystroke_l	l	n/a
283.9185	0.09	567837	keystroke_u	u	n/a
283.9935	0.105	567987	keystroke_c	c	n/a
284.0835	0.09	568167	keystroke_k	k	n/a
284.234	0.0895	568468	keystroke_y	y	n/a
284.309	0.0895	568618	keystroke_Key.space	Key.space	n/a
284.384	0.0895	568768	keystroke_c	c	n/a
284.4585	0.105	568917	keystroke_h	h	n/a
284.534	0.1195	569068	keystroke_i	i	n/a
284.594	0.1045	569188	keystroke_l	l	n/a
284.6685	0.09	569337	keystroke_d	d	n/a
284.759	0.0745	569518	keystroke_h	h	n/a
284.834	0.0745	569668	keystroke_o	o	n/a
284.9685	0.075	569937	keystroke_o	o	n/a
285.1185	0.09	570237	keystroke_d	d	n/a
285.2685	0.075	570537	keystroke_Key.enter	Key.enter	n/a
285.3505	4.7645	570701	prompt	n/a	substance prescribed recommend detector\n
285.974	0.0895	571948	keystroke_s	s	n/a
286.094	0.0745	572188	keystroke_u	u	n/a
286.1535	0.09	572307	keystroke_b	b	n/a
286.3035	0.105	572607	keystroke_s	s	n/a
286.3785	0.135	572757	keystroke_t	t	n/a
286.4685	0.105	572937	keystroke_a	a	n/a
286.5285	0.09	573057	keystroke_n	n	n/a
286.6485	0.075	573297	keystroke_c	c	n/a
286.799	0.0745	573598	keystroke_e	e	n/a
286.874	0.1045	573748	keystroke_Key.space	Key.space	n/a
286.9785	0.12	573957	keystroke_p	p	n/a
287.024	0.1195	574048	keystroke_r	r	n/a
287.084	0.1345	574168	keystroke_e	e	n/a
287.159	0.1045	574318	keystroke_s	s	n/a
287.384	0.0295	574768	keystroke_c	c	n/a
287.5185	0.09	575037	keystroke_r	r	n/a
287.624	0.0595	575248	keystroke_i	i	n/a
287.684	0.0745	575368	keystroke_b	b	n/a
287.7885	0.075	575577	keystroke_e	e	n/a
287.939	0.0895	575878	keystroke_d	d	n/a
288.0135	0.09	576027	keystroke_Key.space	Key.space	n/a
288.104	0.0895	576208	keystroke_r	r	n/a
288.1635	0.09	576327	keystroke_e	e	n/a
288.3435	0.075	576687	keystroke_c	c	n/a
288.4635	0.105	576927	keystroke_o	o	n/a
288.5235	0.075	577047	keystroke_m	m	n/a
288.659	0.1045	577318	keystroke_m	m	n/a
288.7785	0.06	577557	keystroke_e	e	n/a
288.839	0.1045	577678	keystroke_n	n	n/a
288.959	0.0745	577918	keystroke_d	d	n/a
289.0185	0.09	578037	keystroke_Key.space	Key.space	n/a
289.1385	0.075	578277	keystroke_d	d	n/a
289.2735	0.105	578547	keystroke_e	e	n/a
289.3635	0.105	578727	keystroke_t	t	n/a
289.4535	0.075	578907	keystroke_e	e	n/a
289.6185	0.075	579237	keystroke_c	c	n/a
289.7685	0.105	579537	keystroke_t	t	n/a
289.8585	0.06	579717	keystroke_o	o	n/a
289.934	0.0895	579868	keystroke_r	r	n/a
290.0385	0.075	580077	keystroke_Key.enter	Key.enter	n/a
290.121	4.1945	580242	prompt	n/a	judges asbestos malpractice fixtures\n
290.684	0.0595	581368	keystroke_j	j	n/a
290.8335	0.09	581667	keystroke_u	u	n/a
290.8785	0.09	581757	keystroke_d	d	n/a
290.984	0.1495	581968	keystroke_g	g	n/a
291.074	0.1495	582148	keystroke_e	e	n/a
291.149	0.1195	582298	keystroke_s	s	n/a
291.224	0.0895	582448	keystroke_Key.space	Key.space	n/a
291.3435	0.12	582687	keystroke_a	a	n/a
291.4335	0.15	582867	keystroke_s	s	n/a
291.599	0.1045	583198	keystroke_b	b	n/a
291.7635	0.18	583527	keystroke_e	e	n/a
291.8535	0.12	583707	keystroke_s	s	n/a
291.929	0.12	583858	keystroke_t	t	n/a
292.0335	0.09	584067	keystroke_o	o	n/a
292.1085	0.105	584217	keystroke_s	s	n/a
292.1985	0.105	584397	keystroke_Key.space	Key.space	n/a
292.3185	0.09	584637	keystroke_m	m	n/a
292.3785	0.12	584757	keystroke_a	a	n/a
292.4835	0.075	584967	keystroke_l	l	n/a
292.619	0.1045	585238	keystroke_p	p	n/a
292.739	0.1045	585478	keystroke_r	r	n/a
292.8135	0.075	585627	keystroke_a	a	n/a
292.9635	0.06	585927	keystroke_c	c	n/a
293.0685	0.105	586137	keystroke_t	t	n/a
293.204	0.0745	586408	keystroke_i	i	n/a
293.2335	0.075	586467	keystroke_c	c	n/a
293.3835	0.09	586767	keystroke_e	e	n/a
293.4585	0.09	586917	keystroke_Key.space	Key.space	n/a
293.534	0.1045	587068	keystroke_f	f	n/a
293.6235	0.075	587247	keystroke_i	i	n/a
293.699	0.1045	587398	keystroke_x	x	n/a
293.819	0.0745	587638	keystroke_t	t	n/a
293.9385	0.09	587877	keystroke_u	u	n/a
293.9835	0.135	587967	keystroke_r	r	n/a
294.0435	0.135	588087	keystroke_e	e	n/a
294.104	0.1345	588208	keystroke_s	s	n/a
294.224	0.0895	588448	keystroke_Key.enter	Key.enter	n/a
294.3245	3.4705	588649	prompt	n/a	costa paintings pending actions\n
294.9285	0.075	589857	keystroke_c	c	n/a
294.9885	0.09	589977	keystroke_o	o	n/a
295.079	0.1045	590158	keystroke_s	s	n/a
295.154	0.1195	590308	keystroke_t	t	n/a
295.259	0.1345	590518	keystroke_a	a	n/a
295.3785	0.105	590757	keystroke_Key.space	Key.space	n/a
295.4535	0.12	590907	keystroke_p	p	n/a
295.5735	0.135	591147	keystroke_a	a	n/a
295.6935	0.12	591387	keystroke_i	i	n/a
295.769	0.1045	591538	keystroke_n	n	n/a
295.8285	0.12	591657	keystroke_t	t	n/a
295.964	0.1045	591928	keystroke_i	i	n/a
296.024	0.1195	592048	keystroke_n	n	n/a
296.099	0.1195	592198	keystroke_g	g	n/a
296.1735	0.12	592347	keystroke_s	s	n/a
296.264	0.0895	592528	keystroke_Key.space	Key.space	n/a
296.4135	0.105	592827	keystroke_p	p	n/a
296.5335	0.09	593067	keystroke_e	e	n/a
296.6385	0.09	593277	keystroke_n	n	n/a
296.744	0.0745	593488	keystroke_d	d	n/a
296.804	0.1045	593608	keystroke_i	i	n/a
296.8635	0.105	593727	keystroke_n	n	n/a
296.9235	0.105	593847	keystroke_g	g	n/a
296.999	0.0895	593998	keystroke_Key.space	Key.space	n/a
297.0735	0.075	594147	keystroke_a	a	n/a
297.1785	0.09	594357	keystroke_c	c	n/a
297.3285	0.12	594657	keystroke_t	t	n/a
297.4035	0.15	594807	keystroke_i	i	n/a
297.4635	0.105	594927	keystroke_o	o	n/a
297.524	0.1045	595048	keystroke_n	n	n/a
297.6135	0.06	595227	keystroke_s	s	n/a
297.7185	0.075	595437	keystroke_Key.enter	Key.enter	n/a
297.8005	3.9695	595601	prompt	n/a	that chase recognized shannon\n
298.6035	0.12	597207	keystroke_t	t	n/a
298.694	0.0895	597388	keystroke_h	h	n/a
298.799	0.1195	597598	keystroke_t	t	n/a
298.9035	0.165	597807	keystroke_a	a	n/a
299.0085	0.105	598017	keystroke_t	t	n/a
299.084	0.1195	598168	keystroke_Key.space	Key.space	n/a
299.249	0.1045	598498	keystroke_c	c	n/a
299.414	0.0745	598828	keystroke_h	h	n/a
299.5335	0.105	599067	keystroke_a	a	n/a
299.5785	0.15	599157	keystroke_s	s	n/a
299.6535	0.12	599307	keystroke_e	e	n/a
299.7435	0.105	599487	keystroke_Key.space	Key.space	n/a
299.8335	0.12	599667	keystroke_r	r	n/a
299.909	0.0745	599818	keystroke_e	e	n/a
300.0885	0.075	600177	keystroke_c	c	n/a
300.194	0.1195	600388	keystroke_o	o	n/a
300.299	0.0895	600598	keystroke_g	g	n/a
300.374	0.1195	600748	keystroke_n	n	n/a
300.464	0.1045	600928	keystroke_i	i	n/a
300.509	0.0895	601018	keystroke_z	z	n/a
300.5535	0.06	601107	keystroke_e	e	n/a
300.7185	0.105	601437	keystroke_d	d	n/a
300.7935	0.105	601587	keystroke_Key.space	Key.space	n/a
300.9135	0.12	601827	keystroke_s	s	n/a
300.9735	0.09	601947	keystroke_h	h	n/a
301.1235	0.135	602247	keystroke_a	a	n/a
301.1835	0.12	602367	keystroke_n	n	n/a
301.334	0.0895	602668	keystroke_n	n	n/a
301.4685	0.09	602937	keystroke_o	o	n/a
301.5285	0.09	603057	keystroke_n	n	n/a
301.7085	0.06	603417	keystroke_Key.enter	Key.enter	n/a
301.777	3.2035	603554	prompt	n/a	places barbie suits dense\n
302.384	0.1045	604768	keystroke_p	p	n/a
302.624	0.1045	605248	keystroke_l	l	n/a
302.6985	0.09	605397	keystroke_a	a	n/a
302.804	0.0745	605608	keystroke_c	c	n/a
302.9535	0.135	605907	keystroke_e	e	n/a
303.0285	0.12	606057	keystroke_s	s	n/a
303.0735	0.12	606147	keystroke_Key.space	Key.space	n/a
303.254	0.0895	606508	keystroke_b	b	n/a
303.3885	0.135	606777	keystroke_a	a	n/a
303.464	0.0895	606928	keystroke_r	r	n/a
303.6435	0.09	607287	keystroke_b	b	n/a
303.7185	0.09	607437	keystroke_i	i	n/a
303.7935	0.09	607587	keystroke_e	e	n/a
303.869	0.0895	607738	keystroke_Key.space	Key.space	n/a
303.9435	0.105	607887	keystroke_s	s	n/a
304.0345	0.104	608069	keystroke_u	u	n/a
304.0935	0.105	608187	keystroke_i	i	n/a
304.1685	0.12	608337	keystroke_t	t	n/a
304.2435	0.09	608487	keystroke_s	s	n/a
304.3035	0.09	608607	keystroke_Key.space	Key.space	n/a
304.424	0.0445	608848	keystroke_d	d	n/a
304.5435	0.09	609087	keystroke_e	e	n/a
304.6185	0.09	609237	keystroke_n	n	n/a
304.7235	0.105	609447	keystroke_s	s	n/a
304.7685	0.105	609537	keystroke_e	e	n/a
304.9185	0.06	609837	keystroke_Key.enter	Key.enter	n/a
304.987	3.338	609974	prompt	n/a	eligibility cisco inter tips\n
305.6685	0.12	611337	keystroke_e	e	n/a
305.8185	0.12	611637	keystroke_l	l	n/a
305.8935	0.09	611787	keystroke_i	i	n/a
305.969	0.1045	611938	keystroke_g	g	n/a
306.1035	0.075	612207	keystroke_i	i	n/a
306.1935	0.105	612387	keystroke_b	b	n/a
306.2985	0.09	612597	keystroke_i	i	n/a
306.4035	0.12	612807	keystroke_l	l	n/a
306.479	0.1045	612958	keystroke_i	i	n/a
306.5535	0.12	613107	keystroke_t	t	n/a
306.6435	0.105	613287	keystroke_y	y	n/a
306.734	0.0745	613468	keystroke_Key.space	Key.space	n/a
306.8535	0.09	613707	keystroke_c	c	n/a
306.9585	0.075	613917	keystroke_i	i	n/a
307.0035	0.105	614007	keystroke_s	s	n/a
307.1085	0.12	614217	keystroke_c	c	n/a
307.214	0.0895	614428	keystroke_o	o	n/a
307.289	0.1495	614578	keystroke_Key.space	Key.space	n/a
307.3935	0.12	614787	keystroke_i	i	n/a
307.4535	0.135	614907	keystroke_n	n	n/a
307.4985	0.12	614997	keystroke_t	t	n/a
307.6035	0.105	615207	keystroke_e	e	n/a
307.664	0.1195	615328	keystroke_r	r	n/a
307.7535	0.12	615507	keystroke_Key.space	Key.space	n/a
307.859	0.0895	615718	keystroke_t	t	n/a
307.9035	0.135	615807	keystroke_i	i	n/a
307.9935	0.09	615987	keystroke_p	p	n/a
308.0985	0.105	616197	keystroke_s	s	n/a
308.2335	0.09	616467	keystroke_Key.enter	Key.enter	n/a
308.3305	9.9095	616661	prompt	n/a	centered photographs margaret follow\n
308.954	0.0745	617908	keystroke_c	c	n/a
309.1185	0.09	618237	keystroke_e	e	n/a
309.2235	0.105	618447	keystroke_n	n	n/a
309.3135	0.105	618627	keystroke_t	t	n/a
309.4335	0.105	618867	keystroke_e	e	n/a
309.5085	0.135	619017	keystroke_r	r	n/a
309.6135	0.075	619227	keystroke_e	e	n/a
309.7485	0.12	619497	keystroke_d	d	n/a
309.8385	0.12	619677	keystroke_Key.space	Key.space	n/a
309.914	0.1045	619828	keystroke_p	p	n/a
309.9735	0.09	619947	keystroke_h	h	n/a
310.0935	0.105	620187	keystroke_o	o	n/a
310.1085	0.105	620217	keystroke_t	t	n/a
310.274	0.1045	620548	keystroke_o	o	n/a
310.3335	0.09	620667	keystroke_g	g	n/a
310.514	0.1195	621028	keystroke_r	r	n/a
310.574	0.1345	621148	keystroke_a	a	n/a
310.6485	0.12	621297	keystroke_p	p	n/a
310.6935	0.12	621387	keystroke_h	h	n/a
310.799	0.0895	621598	keystroke_s	s	n/a
310.844	0.1195	621688	keystroke_Key.space	Key.space	n/a
310.934	0.1045	621868	keystroke_m	m	n/a
311.0085	0.135	622017	keystroke_a	a	n/a
311.0985	0.06	622197	keystroke_r	r	n/a
311.234	0.1195	622468	keystroke_g	g	n/a
311.3535	0.135	622707	keystroke_a	a	n/a
311.4435	0.15	622887	keystroke_r	r	n/a
311.579	0.1195	623158	keystroke_a	a	n/a
311.6835	0.12	623367	keystroke_e	e	n/a
311.7885	0.105	623577	keystroke_t	t	n/a
312.0135	0.06	624027	keystroke_Key.space	Key.space	n/a
312.1185	0.075	624237	keystroke_Key.backspace	Key.backspace	n/a
312.2685	0.075	624537	keystroke_Key.backspace	Key.backspace	n/a
312.4185	0.075	624837	keystroke_Key.backspace	Key.backspace	n/a
312.5685	0.075	625137	keystroke_Key.backspace	Key.backspace	n/a
312.674	0.0895	625348	keystroke_e	e	n/a
312.719	0.1195	625438	keystroke_t	t	n/a
312.8085	0.105	625617	keystroke_Key.space	Key.space	n/a
312.9745	0.119	625949	keystroke_f	f	n/a
313.0335	0.075	626067	keystroke_o	o	n/a
313.2135	0.075	626427	keystroke_l	l	n/a
313.529	0.0445	627058	keystroke_Key.backspace	Key.backspace	n/a
313.6635	0.075	627327	keystroke_Key.backspace	Key.backspace	n/a
313.829	0.0745	627658	keystroke_Key.backspace	Key.backspace	n/a
313.979	0.0595	627958	keystroke_Key.backspace	Key.backspace	n/a
316.0635	0.105	632127	keystroke_t	t	n/a
316.1835	0.105	632367	keystroke_Key.space	Key.space	n/a
316.4085	0.12	632817	keystroke_f	f	n/a
316.514	0.0445	633028	keystroke_o	o	n/a
316.8135	0.06	633627	keystroke_Key.backspace	Key.backspace	n/a
316.9635	0.06	633927	keystroke_Key.backspace	Key.backspace	n/a
317.0985	0.06	634197	keystroke_Key.backspace	Key.backspace	n/a
317.219	0.0745	634438	keystroke_Key.backspace	Key.backspace	n/a
317.3085	0.105	634617	keystroke_Key.space	Key.space	n/a
317.444	0.1045	634888	keystroke_f	f	n/a
317.5335	0.075	635067	keystroke_o	o	n/a
317.6985	0.06	635397	keystroke_l	l	n/a
317.834	0.0595	635668	keystroke_l	l	n/a
317.9685	0.075	635937	keystroke_o	o	n/a
318.0435	0.105	636087	keystroke_w	w	n/a
318.1635	0.075	636327	keystroke_Key.enter	Key.enter	n/a
318.2465	3.084	636493	prompt	n/a	park mono framework marble\n
318.8235	0.105	637647	keystroke_p	p	n/a
318.9135	0.15	637827	keystroke_a	a	n/a
318.9735	0.15	637947	keystroke_r	r	n/a
319.079	0.0745	638158	keystroke_k	k	n/a
319.1385	0.105	638277	keystroke_Key.space	Key.space	n/a
319.214	0.1045	638428	keystroke_m	m	n/a
319.3335	0.09	638667	keystroke_o	o	n/a
319.3935	0.15	638787	keystroke_n	n	n/a
319.5135	0.105	639027	keystroke_o	o	n/a
