onset	duration	sample	value	key	prompt_text
5.282	9.612	10564	prompt	n/a	the quick brown fox jumps over a lazy dog\n
6.433	0.0415	12866	keystroke_t	t	n/a
6.46	0.091	12920	keystroke_h	h	n/a
6.611	0.1055	13222	keystroke_e	e	n/a
6.625	0.031	13250	keystroke_d	d	n/a
6.671	0.1045	13342	keystroke_Key.space	Key.space	n/a
7.0905	0.0905	14181	keystroke_Key.backspace	Key.backspace	n/a
7.256	0.0595	14512	keystroke_Key.backspace	Key.backspace	n/a
7.4515	0.105	14903	keystroke_Key.space	Key.space	n/a
7.5705	0.136	15141	keystroke_q	q	n/a
7.676	0.105	15352	keystroke_y	y	n/a
7.841	0.1045	15682	keystroke_u	u	n/a
7.961	0.0755	15922	keystroke_c	c	n/a
8.5905	0.076	17181	keystroke_Key.backspace	Key.backspace	n/a
8.8155	0.0455	17631	keystroke_Key.backspace	Key.backspace	n/a
9.1905	0.0605	18381	keystroke_Key.backspace	Key.backspace	n/a
9.8215	0.06	19643	keystroke_u	u	n/a
10.0015	0.075	20003	keystroke_i	i	n/a
10.1365	0.1205	20273	keystroke_c	c	n/a
10.2415	0.0755	20483	keystroke_k	k	n/a
10.376	0.12	20752	keystroke_Key.space	Key.space	n/a
10.526	0.105	21052	keystroke_b	b	n/a
10.6465	0.1195	21293	keystroke_r	r	n/a
10.751	0.075	21502	keystroke_o	o	n/a
10.916	0.105	21832	keystroke_w	w	n/a
10.991	0.105	21982	keystroke_n	n	n/a
11.081	0.105	22162	keystroke_Key.space	Key.space	n/a
11.201	0.12	22402	keystroke_f	f	n/a
11.3065	0.1045	22613	keystroke_o	o	n/a
11.441	0.15	22882	keystroke_x	x	n/a
11.576	0.105	23152	keystroke_Key.space	Key.space	n/a
11.666	0.091	23332	keystroke_j	j	n/a
11.861	0.09	23722	keystroke_u	u	n/a
12.086	0.075	24172	keystroke_m	m	n/a
12.236	0.0905	24472	keystroke_p	p	n/a
12.3115	0.12	24623	keystroke_s	s	n/a
12.4165	0.1345	24833	keystroke_Key.space	Key.space	n/a
12.5215	0.105	25043	keystroke_o	o	n/a
12.611	0.0605	25222	keystroke_v	v	n/a
12.851	0.0145	25702	keystroke_e	e	n/a
12.8815	0.119	25763	keystroke_r	r	n/a
13.0915	0.104	26183	keystroke_Key.space	Key.space	n/a
13.3165	0.1195	26633	keystroke_a	a	n/a
13.496	0.09	26992	keystroke_Key.space	Key.space	n/a
13.841	0.0905	27682	keystroke_l	l	n/a
13.916	0.09	27832	keystroke_a	a	n/a
14.066	0.165	28132	keystroke_z	z	n/a
14.201	0.1205	28402	keystroke_y	y	n/a
14.336	0.12	28672	keystroke_Key.space	Key.space	n/a
14.4565	0.104	28913	keystroke_d	d	n/a
14.5315	0.1345	29063	keystroke_o	o	n/a
14.681	0.0895	29362	keystroke_g	g	n/a
14.7855	0.1055	29571	keystroke_Key.enter	Key.enter	n/a
14.9005	5.633	29801	prompt	n/a	finances resistance americas observed\n
15.581	0.12	31162	keystroke_f	f	n/a
15.641	0.075	31282	keystroke_i	i	n/a
15.836	0.075	31672	keystroke_n	n	n/a
15.9115	0.1045	31823	keystroke_a	a	n/a
16.061	0.105	32122	keystroke_n	n	n/a
16.151	0.09	32302	keystroke_c	c	n/a
16.361	0.09	32722	keystroke_e	e	n/a
16.511	0.09	33022	keystroke_s	s	n/a
16.601	0.105	33202	keystroke_Key.space	Key.space	n/a
16.706	0.0895	33412	keystroke_r	r	n/a
16.8115	0.1045	33623	keystroke_e	e	n/a
16.9755	0.076	33951	keystroke_s	s	n/a
17.0665	0.12	34133	keystroke_i	i	n/a
17.1715	0.0745	34343	keystroke_s	s	n/a
17.366	0.075	34732	keystroke_t	t	n/a
17.546	0.105	35092	keystroke_a	a	n/a
17.6655	0.091	35331	keystroke_n	n	n/a
17.8015	0.015	35603	keystroke_c	c	n/a
17.9355	0.091	35871	keystroke_e	e	n/a
18.0105	0.0755	36021	keystroke_Key.space	Key.space	n/a
18.1465	0.104	36293	keystroke_a	a	n/a
18.2355	0.09	36471	keystroke_m	m	n/a
18.506	0.1045	37012	keystroke_e	e	n/a
18.6855	0.09	37371	keystroke_r	r	n/a
18.7905	0.105	37581	keystroke_i	i	n/a
18.926	0.06	37852	keystroke_c	c	n/a
19.1055	0.0905	38211	keystroke_a	a	n/a
19.181	0.12	38362	keystroke_s	s	n/a
19.3015	0.1045	38603	keystroke_Key.space	Key.space	n/a
19.391	0.105	38782	keystroke_o	o	n/a
19.586	0.135	39172	keystroke_b	b	n/a
19.661	0.09	39322	keystroke_s	s	n/a
19.811	0.09	39622	keystroke_e	e	n/a
19.946	0.105	39892	keystroke_r	r	n/a
20.067	0.104	40134	keystroke_v	v	n/a
20.156	0.105	40312	keystroke_e	e	n/a
20.336	0.105	40672	keystroke_d	d	n/a
20.426	0.105	40852	keystroke_Key.enter	Key.enter	n/a
20.538	5.245	41076	prompt	n/a	those seattle alpha fascinating\n
21.131	0.09	42262	keystroke_t	t	n/a
21.191	0.105	42382	keystroke_h	h	n/a
21.4015	0.0745	42803	keystroke_o	o	n/a
21.461	0.09	42922	keystroke_s	s	n/a
21.596	0.105	43192	keystroke_e	e	n/a
21.656	0.105	43312	keystroke_Key.space	Key.space	n/a
21.821	0.045	43642	keystroke_s	s	n/a
21.926	0.121	43852	keystroke_e	e	n/a
22.136	0.075	44272	keystroke_a	a	n/a
22.316	0.09	44632	keystroke_t	t	n/a
22.496	0.075	44992	keystroke_t	t	n/a
22.541	0.105	45082	keystroke_l	l	n/a
22.676	0.075	45352	keystroke_e	e	n/a
22.766	0.105	45532	keystroke_Key.space	Key.space	n/a
22.916	0.09	45832	keystroke_a	a	n/a
23.021	0.045	46042	keystroke_l	l	n/a
23.216	0.09	46432	keystroke_p	p	n/a
23.396	0.1045	46792	keystroke_h	h	n/a
23.4705	0.105	46941	keystroke_a	a	n/a
23.6355	0.1205	47271	keystroke_Key.space	Key.space	n/a
23.876	0.06	47752	keystroke_f	f	n/a
24.326	0.09	48652	keystroke_a	a	n/a
24.4905	0.09	48981	keystroke_s	s	n/a
24.6865	0.074	49373	keystroke_c	c	n/a
24.8065	0.0745	49613	keystroke_i	i	n/a
24.971	0.1205	49942	keystroke_n	n	n/a
25.016	0.0905	50032	keystroke_a	a	n/a
25.211	0.09	50422	keystroke_t	t	n/a
25.271	0.075	50542	keystroke_i	i	n/a
25.4515	0.104	50903	keystroke_n	n	n/a
25.541	0.0605	51082	keystroke_g	g	n/a
25.6305	0.15	51261	keystroke_Key.enter	Key.enter	n/a
25.787	5.3065	51574	prompt	n/a	analyzed pointer lyrics reach\n
26.3215	0.104	52643	keystroke_a	a	n/a
26.4105	0.105	52821	keystroke_n	n	n/a
26.5315	0.1045	53063	keystroke_a	a	n/a
26.6505	0.0905	53301	keystroke_l	l	n/a
26.876	0.149	53752	keystroke_y	y	n/a
26.981	0.09	53962	keystroke_z	z	n/a
27.206	0.09	54412	keystroke_e	e	n/a
27.4005	0.076	54801	keystroke_d	d	n/a
27.4905	0.105	54981	keystroke_Key.space	Key.space	n/a
27.5815	0.209	55163	keystroke_p	p	n/a
27.701	0.1505	55402	keystroke_o	o	n/a
27.9255	0.106	55851	keystroke_i	i	n/a
28.0915	0.165	56183	keystroke_n	n	n/a
28.1815	0.089	56363	keystroke_t	t	n/a
28.3305	0.1205	56661	keystroke_e	e	n/a
28.4665	0.12	56933	keystroke_r	r	n/a
28.5875	0.074	57175	keystroke_Key.space	Key.space	n/a
28.7665	0.12	57533	keystroke_l	l	n/a
29.291	0.105	58582	keystroke_y	y	n/a
29.4115	0.1045	58823	keystroke_r	r	n/a
29.6665	0.0745	59333	keystroke_i	i	n/a
29.8315	0.0895	59663	keystroke_c	c	n/a
30.041	0.1055	60082	keystroke_s	s	n/a
30.1465	0.104	60293	keystroke_Key.space	Key.space	n/a
30.2815	0.104	60563	keystroke_r	r	n/a
30.4015	0.104	60803	keystroke_e	e	n/a
30.566	0.1055	61132	keystroke_a	a	n/a
30.7305	0.09	61461	keystroke_c	c	n/a
30.8355	0.06	61671	keystroke_h	h	n/a
30.9555	0.135	61911	keystroke_Key.enter	Key.enter	n/a
31.0995	6.234	62199	prompt	n/a	discovered uganda importance lobby\n
31.781	0.12	63562	keystroke_d	d	n/a
31.886	0.105	63772	keystroke_i	i	n/a
32.171	0.1055	64342	keystroke_s	s	n/a
32.3665	0.1645	64733	keystroke_c	c	n/a
32.5165	0.105	65033	keystroke_o	o	n/a
32.6355	0.091	65271	keystroke_v	v	n/a
32.8305	0.091	65661	keystroke_e	e	n/a
32.952	0.134	65904	keystroke_r	r	n/a
33.0865	0.104	66173	keystroke_e	e	n/a
33.236	0.105	66472	keystroke_d	d	n/a
33.3415	0.089	66683	keystroke_Key.space	Key.space	n/a
33.4765	0.1045	66953	keystroke_u	u	n/a
33.5215	0.1045	67043	keystroke_g	g	n/a
33.746	0.105	67492	keystroke_a	a	n/a
33.866	0.15	67732	keystroke_n	n	n/a
34.001	0.105	68002	keystroke_d	d	n/a
34.197	0.0745	68394	keystroke_a	a	n/a
34.286	0.12	68572	keystroke_Key.space	Key.space	n/a
34.421	0.075	68842	keystroke_i	i	n/a
34.586	0.0605	69172	keystroke_m	m	n/a
34.7515	0.195	69503	keystroke_p	p	n/a
34.856	0.1505	69712	keystroke_o	o	n/a
34.961	0.1505	69922	keystroke_r	r	n/a
35.142	0.104	70284	keystroke_t	t	n/a
35.336	0.105	70672	keystroke_a	a	n/a
35.4565	0.1045	70913	keystroke_n	n	n/a
35.5465	0.06	71093	keystroke_c	c	n/a
35.711	0.09	71422	keystroke_e	e	n/a
35.8315	0.09	71663	keystroke_Key.space	Key.space	n/a
35.9355	0.136	71871	keystroke_l	l	n/a
36.1305	0.12	72261	keystroke_o	o	n/a
36.8505	0.091	73701	keystroke_b	b	n/a
37.0005	0.091	74001	keystroke_b	b	n/a
37.076	0.1045	74152	keystroke_y	y	n/a
37.226	0.105	74452	keystroke_Key.enter	Key.enter	n/a
37.338	5.246	74676	prompt	n/a	an ethiopia denial systems\n
37.8715	0.1345	75743	keystroke_a	a	n/a
37.961	0.1205	75922	keystroke_n	n	n/a
38.111	0.105	76222	keystroke_Key.space	Key.space	n/a
38.201	0.105	76402	keystroke_e	e	n/a
38.4115	0.135	76823	keystroke_t	t	n/a
38.516	0.075	77032	keystroke_h	h	n/a
38.7115	0.105	77423	keystroke_i	i	n/a
38.951	0.09	77902	keystroke_p	p	n/a
39.4305	0.09	78861	keystroke_Key.backspace	Key.backspace	n/a
39.596	0.1655	79192	keystroke_o	o	n/a
39.762	0.1195	79524	keystroke_p	p	n/a
39.9715	0.12	79943	keystroke_i	i	n/a
40.1215	0.1195	80243	keystroke_a	a	n/a
40.226	0.1205	80452	keystroke_Key.space	Key.space	n/a
40.361	0.105	80722	keystroke_d	d	n/a
40.541	0.12	81082	keystroke_e	e	n/a
40.601	0.075	81202	keystroke_n	n	n/a
41.081	0.0755	82162	keystroke_i	i	n/a
41.231	0.0905	82462	keystroke_a	a	n/a
41.336	0.0905	82672	keystroke_l	l	n/a
41.471	0.1355	82942	keystroke_Key.space	Key.space	n/a
41.5915	0.09	83183	keystroke_s	s	n/a
41.6965	0.0895	83393	keystroke_y	y	n/a
41.787	0.089	83574	keystroke_s	s	n/a
41.9965	0.0595	83993	keystroke_t	t	n/a
42.131	0.105	84262	keystroke_e	e	n/a
42.251	0.105	84502	keystroke_m	m	n/a
42.356	0.1205	84712	keystroke_s	s	n/a
42.4615	0.119	84923	keystroke_Key.enter	Key.enter	n/a
42.594	5.6145	85188	prompt	n/a	idle checks though situation\n
43.3015	0.09	86603	keystroke_i	i	n/a
43.346	0.12	86692	keystroke_d	d	n/a
43.4955	0.121	86991	keystroke_l	l	n/a
43.6015	0.0905	87203	keystroke_e	e	n/a
43.7055	0.09	87411	keystroke_Key.space	Key.space	n/a
43.8415	0.075	87683	keystroke_c	c	n/a
43.917	0.1345	87834	keystroke_h	h	n/a
44.0365	0.105	88073	keystroke_e	e	n/a
44.246	0.1205	88492	keystroke_c	c	n/a
44.381	0.0905	88762	keystroke_k	k	n/a
45.0265	0.075	90053	keystroke_s	s	n/a
45.1315	0.09	90263	keystroke_Key.space	Key.space	n/a
45.2665	0.12	90533	keystroke_t	t	n/a
45.371	0.0755	90742	keystroke_h	h	n/a
45.7465	0.1045	91493	keystroke_o	o	n/a
45.9115	0.0895	91823	keystroke_u	u	n/a
46.031	0.105	92062	keystroke_g	g	n/a
46.106	0.12	92212	keystroke_h	h	n/a
46.2565	0.1345	92513	keystroke_Key.space	Key.space	n/a
46.376	0.105	92752	keystroke_s	s	n/a
46.497	0.0895	92994	keystroke_i	i	n/a
46.6165	0.09	93233	keystroke_t	t	n/a
46.766	0.0905	93532	keystroke_u	u	n/a
46.9915	0.106	93983	keystroke_a	a	n/a
47.2165	0.105	94433	keystroke_t	t	n/a
47.3065	0.18	94613	keystroke_i	i	n/a
47.6965	0.1045	95393	keystroke_o	o	n/a
47.9065	0.105	95813	keystroke_n	n	n/a
48.1015	0.1045	96203	keystroke_Key.enter	Key.enter	n/a
48.213	6.551	96426	prompt	n/a	dates great characters measurement\n
48.8215	0.135	97643	keystroke_d	d	n/a
49.0765	0.105	98153	keystroke_a	a	n/a
49.1665	0.135	98333	keystroke_t	t	n/a
49.271	0.1055	98542	keystroke_e	e	n/a
49.4365	0.105	98873	keystroke_s	s	n/a
49.5115	0.135	99023	keystroke_Key.space	Key.space	n/a
49.6615	0.1195	99323	keystroke_g	g	n/a
49.7665	0.0895	99533	keystroke_r	r	n/a
49.916	0.075	99832	keystroke_e	e	n/a
50.081	0.09	100162	keystroke_a	a	n/a
50.156	0.105	100312	keystroke_t	t	n/a
50.201	0.105	100402	keystroke_Key.space	Key.space	n/a
50.307	0.104	100614	keystroke_c	c	n/a
50.456	0.105	100912	keystroke_h	h	n/a
50.576	0.1355	101152	keystroke_a	a	n/a
51.011	0.1205	102022	keystroke_r	r	n/a
51.116	0.1055	102232	keystroke_a	a	n/a
51.3415	0.1055	102683	keystroke_c	c	n/a
51.4475	0.119	102895	keystroke_t	t	n/a
51.5815	0.1055	103163	keystroke_e	e	n/a
51.7315	0.09	103463	keystroke_r	r	n/a
51.8965	0.12	103793	keystroke_s	s	n/a
52.0015	0.0895	104003	keystroke_Key.space	Key.space	n/a
52.2115	0.1195	104423	keystroke_m	m	n/a
52.706	0.0755	105412	keystroke_e	e	n/a
52.8565	0.1345	105713	keystroke_a	a	n/a
53.0065	0.0895	106013	keystroke_s	s	n/a
53.126	0.09	106252	keystroke_y	y	n/a
53.6365	0.09	107273	keystroke_Key.backspace	Key.backspace	n/a
53.8465	0.1345	107693	keystroke_u	u	n/a
53.9665	0.0745	107933	keystroke_r	r	n/a
54.0865	0.1045	108173	keystroke_e	e	n/a
54.1765	0.09	108353	keystroke_m	m	n/a
54.2815	0.1195	108563	keystroke_e	e	n/a
54.386	0.09	108772	keystroke_n	n	n/a
54.5215	0.0895	109043	keystroke_t	t	n/a
54.626	0.135	109252	keystroke_Key.enter	Key.enter	n/a
54.7685	5.6195	109537	prompt	n/a	petroleum inkjet sale plug\n
55.377	0.135	110754	keystroke_p	p	n/a
55.526	0.076	111052	keystroke_e	e	n/a
55.796	0.105	111592	keystroke_t	t	n/a
55.962	0.119	111924	keystroke_r	r	n/a
56.111	0.1055	112222	keystroke_o	o	n/a
56.3215	0.09	112643	keystroke_l	l	n/a
56.472	0.1045	112944	keystroke_e	e	n/a
56.6365	0.09	113273	keystroke_u	u	n/a
56.862	0.09	113724	keystroke_m	m	n/a
56.9815	0.12	113963	keystroke_Key.space	Key.space	n/a
57.1765	0.09	114353	keystroke_i	i	n/a
57.3415	0.09	114683	keystroke_n	n	n/a
57.8515	0.0445	115703	keystroke_k	k	n/a
58.331	0.105	116662	keystroke_j	j	n/a
58.3915	0.1055	116783	keystroke_e	e	n/a
58.5715	0.1045	117143	keystroke_t	t	n/a
58.8265	0.09	117653	keystroke_Key.space	Key.space	n/a
58.9315	0.105	117863	keystroke_s	s	n/a
59.0965	0.105	118193	keystroke_a	a	n/a
59.1865	0.075	118373	keystroke_l	l	n/a
59.2915	0.1195	118583	keystroke_e	e	n/a
59.3815	0.1045	118763	keystroke_Key.space	Key.space	n/a
59.502	0.045	119004	keystroke_p	p	n/a
59.801	0.12	119602	keystroke_l	l	n/a
60.041	0.12	120082	keystroke_u	u	n/a
60.206	0.03	120412	keystroke_g	g	n/a
60.266	0.12	120532	keystroke_Key.enter	Key.enter	n/a
60.3925	5.3505	120785	prompt	n/a	msgstr memo judge peak\n
61.0765	0.0295	122153	keystroke_m	m	n/a
61.857	0.089	123714	keystroke_s	s	n/a
62.5925	0.104	125185	keystroke_g	g	n/a
62.7865	0.12	125573	keystroke_s	s	n/a
62.9815	0.12	125963	keystroke_t	t	n/a
63.1315	0.12	126263	keystroke_r	r	n/a
63.4015	0.105	126803	keystroke_Key.space	Key.space	n/a
63.5665	0.135	127133	keystroke_m	m	n/a
63.6865	0.105	127373	keystroke_e	e	n/a
63.8065	0.09	127613	keystroke_m	m	n/a
64.0015	0.06	128003	keystroke_o	o	n/a
64.1665	0.135	128333	keystroke_Key.space	Key.space	n/a
64.4065	0.105	128813	keystroke_j	j	n/a
64.5865	0.1205	129173	keystroke_u	u	n/a
64.6615	0.1205	129323	keystroke_d	d	n/a
64.7965	0.1355	129593	keystroke_g	g	n/a
64.917	0.12	129834	keystroke_e	e	n/a
64.991	0.1205	129982	keystroke_Key.space	Key.space	n/a
65.156	0.1055	130312	keystroke_p	p	n/a
65.2015	0.1205	130403	keystroke_e	e	n/a
65.411	0.09	130822	keystroke_a	a	n/a
65.502	0.074	131004	keystroke_k	k	n/a
65.6215	0.12	131243	keystroke_Key.enter	Key.enter	n/a
65.747	4.2415	131494	prompt	n/a	beads clinics how're wear\n
66.401	0.1205	132802	keystroke_b	b	n/a
66.461	0.09	132922	keystroke_e	e	n/a
66.626	0.0905	133252	keystroke_a	a	n/a
66.7765	0.12	133553	keystroke_d	d	n/a
66.9115	0.105	133823	keystroke_s	s	n/a
67.0015	0.09	134003	keystroke_Key.space	Key.space	n/a
67.1065	0.105	134213	keystroke_c	c	n/a
67.1815	0.12	134363	keystroke_l	l	n/a
67.3615	0.0745	134723	keystroke_i	i	n/a
67.512	0.0895	135024	keystroke_n	n	n/a
67.661	0.12	135322	keystroke_i	i	n/a
67.766	0.1205	135532	keystroke_c	c	n/a
67.9915	0.075	135983	keystroke_s	s	n/a
68.0815	0.075	136163	keystroke_Key.space	Key.space	n/a
68.2465	0.12	136493	keystroke_h	h	n/a
68.4715	0.105	136943	keystroke_o	o	n/a
68.5615	0.12	137123	keystroke_w	w	n/a
68.906	0.105	137812	keystroke_'	'	n/a
69.0265	0.075	138053	keystroke_r	r	n/a
69.131	0.1355	138262	keystroke_e	e	n/a
69.251	0.105	138502	keystroke_Key.space	Key.space	n/a
69.342	0.104	138684	keystroke_w	w	n/a
69.461	0.091	138922	keystroke_e	e	n/a
69.627	0.0745	139254	keystroke_a	a	n/a
69.807	0.089	139614	keystroke_r	r	n/a
69.881	0.105	139762	keystroke_Key.enter	Key.enter	n/a
69.992	6.026	139984	prompt	n/a	avatar friend walter stanford\n
70.6465	0.09	141293	keystroke_a	a	n/a
70.7215	0.09	141443	keystroke_v	v	n/a
70.812	0.0895	141624	keystroke_a	a	n/a
71.0665	0.105	142133	keystroke_t	t	n/a
71.1865	0.09	142373	keystroke_a	a	n/a
71.352	0.1195	142704	keystroke_r	r	n/a
71.4415	0.12	142883	keystroke_Key.space	Key.space	n/a
71.697	0.1195	143394	keystroke_f	f	n/a
71.8465	0.12	143693	keystroke_r	r	n/a
71.9515	0.105	143903	keystroke_i	i	n/a
72.1015	0.075	144203	keystroke_e	e	n/a
72.1615	0.12	144323	keystroke_n	n	n/a
72.312	0.1045	144624	keystroke_d	d	n/a
72.4315	0.12	144863	keystroke_Key.space	Key.space	n/a
72.5665	0.0905	145133	keystroke_w	w	n/a
72.7315	0.104	145463	keystroke_a	a	n/a
73.0615	0.12	146123	keystroke_l	l	n/a
73.1825	0.059	146365	keystroke_e	e	n/a
73.4965	0.09	146993	keystroke_Key.backspace	Key.backspace	n/a
73.601	0.076	147202	keystroke_t	t	n/a
73.7515	0.09	147503	keystroke_e	e	n/a
73.871	0.0905	147742	keystroke_r	r	n/a
73.9915	0.105	147983	keystroke_Key.space	Key.space	n/a
74.1715	0.09	148343	keystroke_s	s	n/a
74.517	0.09	149034	keystroke_t	t	n/a
74.7565	0.0755	149513	keystroke_a	a	n/a
74.8465	0.0905	149693	keystroke_n	n	n/a
74.952	0.0595	149904	keystroke_d	d	n/a
75.3255	0.076	150651	keystroke_Key.backspace	Key.backspace	n/a
75.402	0.104	150804	keystroke_f	f	n/a
75.551	0.1205	151102	keystroke_o	o	n/a
75.6415	0.105	151283	keystroke_r	r	n/a
75.8365	0.09	151673	keystroke_d	d	n/a
75.941	0.075	151882	keystroke_Key.enter	Key.enter	n/a
76.022	3.971	152044	prompt	n/a	father pickup make topics\n
76.692	0.089	153384	keystroke_f	f	n/a
76.8715	0.06	153743	keystroke_a	a	n/a
77.037	0.104	154074	keystroke_t	t	n/a
77.156	0.12	154312	keystroke_h	h	n/a
77.2315	0.09	154463	keystroke_e	e	n/a
77.351	0.106	154702	keystroke_r	r	n/a
77.3965	0.1495	154793	keystroke_Key.space	Key.space	n/a
77.561	0.0905	155122	keystroke_p	p	n/a
77.7415	0.0895	155483	keystroke_i	i	n/a
77.801	0.121	155602	keystroke_c	c	n/a
77.936	0.12	155872	keystroke_k	k	n/a
78.161	0.09	156322	keystroke_u	u	n/a
78.341	0.0905	156682	keystroke_p	p	n/a
78.461	0.0905	156922	keystroke_Key.space	Key.space	n/a
78.5965	0.12	157193	keystroke_m	m	n/a
78.672	0.104	157344	keystroke_a	a	n/a
78.8065	0.1055	157613	keystroke_k	k	n/a
78.927	0.104	157854	keystroke_e	e	n/a
79.0465	0.09	158093	keystroke_Key.space	Key.space	n/a
79.1815	0.1045	158363	keystroke_t	t	n/a
79.287	0.1645	158574	keystroke_o	o	n/a
79.3765	0.105	158753	keystroke_p	p	n/a
79.5415	0.1205	159083	keystroke_i	i	n/a
79.646	0.09	159292	keystroke_c	c	n/a
79.7965	0.105	159593	keystroke_s	s	n/a
79.871	0.12	159742	keystroke_Key.enter	Key.enter	n/a
79.996	8.007	159992	prompt	n/a	jesse definitions accordance observation\n
80.802	0.1195	161604	keystroke_j	j	n/a
80.876	0.091	161752	keystroke_e	e	n/a
81.026	0.075	162052	keystroke_s	s	n/a
81.206	0.1055	162412	keystroke_s	s	n/a
81.3565	0.12	162713	keystroke_e	e	n/a
81.4615	0.12	162923	keystroke_Key.space	Key.space	n/a
82.0915	0.09	164183	keystroke_d	d	n/a
82.3015	0.09	164603	keystroke_e	e	n/a
82.496	0.12	164992	keystroke_f	f	n/a
82.646	0.09	165292	keystroke_i	i	n/a
82.8565	0.0905	165713	keystroke_n	n	n/a
83.0215	0.105	166043	keystroke_i	i	n/a
83.1415	0.1055	166283	keystroke_t	t	n/a
83.247	0.1345	166494	keystroke_i	i	n/a
83.3215	0.105	166643	keystroke_o	o	n/a
83.5015	0.1345	167003	keystroke_n	n	n/a
83.5915	0.12	167183	keystroke_s	s	n/a
83.7265	0.1045	167453	keystroke_Key.space	Key.space	n/a
83.846	0.091	167692	keystroke_a	a	n/a
84.011	0.0605	168022	keystroke_c	c	n/a
84.161	0.075	168322	keystroke_c	c	n/a
84.237	0.104	168474	keystroke_o	o	n/a
84.356	0.12	168712	keystroke_r	r	n/a
84.5665	0.1055	169133	keystroke_d	d	n/a
84.731	0.105	169462	keystroke_a	a	n/a
84.851	0.105	169702	keystroke_n	n	n/a
84.9265	0.09	169853	keystroke_c	c	n/a
85.122	0.104	170244	keystroke_e	e	n/a
85.211	0.1055	170422	keystroke_Key.space	Key.space	n/a
85.3465	0.0895	170693	keystroke_o	o	n/a
85.5415	0.135	171083	keystroke_b	b	n/a
85.6615	0.105	171323	keystroke_s	s	n/a
85.827	0.1195	171654	keystroke_e	e	n/a
85.9755	0.091	171951	keystroke_r	r	n/a
86.907	0.074	173814	keystroke_v	v	n/a
87.1015	0.0895	174203	keystroke_a	a	n/a
87.3265	0.0895	174653	keystroke_t	t	n/a
87.432	0.194	174864	keystroke_i	i	n/a
87.5215	0.1195	175043	keystroke_o	o	n/a
87.746	0.0755	175492	keystroke_n	n	n/a
87.8965	0.105	175793	keystroke_Key.enter	Key.enter	n/a
88.0085	7.6	176017	prompt	n/a	portable winner financial interracial\n
88.7215	0.015	177443	keystroke_p	p	n/a
88.857	0.0895	177714	keystroke_r	r	n/a
89.1715	0.0745	178343	keystroke_Key.backspace	Key.backspace	n/a
89.322	0.1345	178644	keystroke_o	o	n/a
89.4565	0.105	178913	keystroke_r	r	n/a
89.6065	0.09	179213	keystroke_t	t	n/a
89.8015	0.105	179603	keystroke_a	a	n/a
89.8615	0.1045	179723	keystroke_b	b	n/a
90.0265	0.105	180053	keystroke_l	l	n/a
90.1165	0.1195	180233	keystroke_e	e	n/a
90.237	0.104	180474	keystroke_Key.space	Key.space	n/a
90.2665	0.1195	180533	keystroke_w	w	n/a
91.346	0.09	182692	keystroke_i	i	n/a
91.526	0.06	183052	keystroke_n	n	n/a
91.6765	0.0905	183353	keystroke_n	n	n/a
91.737	0.074	183474	keystroke_e	e	n/a
91.841	0.1355	183682	keystroke_r	r	n/a
91.931	0.12	183862	keystroke_Key.space	Key.space	n/a
92.0965	0.105	184193	keystroke_f	f	n/a
92.141	0.0755	184282	keystroke_i	i	n/a
92.3065	0.0605	184613	keystroke_n	n	n/a
92.4565	0.09	184913	keystroke_a	a	n/a
92.4865	0.075	184973	keystroke_n	n	n/a
93.2215	0.075	186443	keystroke_c	c	n/a
93.3115	0.105	186623	keystroke_i	i	n/a
93.4915	0.105	186983	keystroke_a	a	n/a
93.5815	0.135	187163	keystroke_l	l	n/a
93.7765	0.105	187553	keystroke_Key.space	Key.space	n/a
93.8665	0.075	187733	keystroke_i	i	n/a
94.0165	0.12	188033	keystroke_n	n	n/a
94.0915	0.075	188183	keystroke_t	t	n/a
94.2565	0.06	188513	keystroke_e	e	n/a
94.3465	0.105	188693	keystroke_r	r	n/a
94.5415	0.09	189083	keystroke_r	r	n/a
94.7515	0.075	189503	keystroke_a	a	n/a
94.9315	0.0755	189863	keystroke_c	c	n/a
95.022	0.074	190044	keystroke_i	i	n/a
95.217	0.0595	190434	keystroke_a	a	n/a
95.336	0.0755	190672	keystroke_l	l	n/a
95.4865	0.1195	190973	keystroke_Key.enter	Key.enter	n/a
95.6135	8.4395	191227	prompt	n/a	mailto southampton specifications cheats\n
96.281	0.105	192562	keystroke_m	m	n/a
96.401	0.1055	192802	keystroke_a	a	n/a
96.926	0.0605	193852	keystroke_i	i	n/a
97.091	0.091	194182	keystroke_l	l	n/a
97.2415	0.105	194483	keystroke_t	t	n/a
97.361	0.09	194722	keystroke_o	o	n/a
97.736	0.1205	195472	keystroke_Key.space	Key.space	n/a
97.8715	0.105	195743	keystroke_s	s	n/a
97.9615	0.0745	195923	keystroke_o	o	n/a
98.126	0.0905	196252	keystroke_u	u	n/a
98.231	0.09	196462	keystroke_t	t	n/a
98.336	0.09	196672	keystroke_h	h	n/a
99.326	0.12	198652	keystroke_a	a	n/a
99.4315	0.0595	198863	keystroke_m	m	n/a
99.6115	0.1195	199223	keystroke_p	p	n/a
99.746	0.105	199492	keystroke_t	t	n/a
99.8365	0.09	199673	keystroke_o	o	n/a
100.0165	0.12	200033	keystroke_n	n	n/a
100.137	0.134	200274	keystroke_Key.space	Key.space	n/a
100.211	0.1205	200422	keystroke_s	s	n/a
100.392	0.104	200784	keystroke_c	c	n/a
100.751	0.09	201502	keystroke_Key.backspace	Key.backspace	n/a
100.9615	0.1055	201923	keystroke_p	p	n/a
101.0365	0.1045	202073	keystroke_e	e	n/a
101.3065	0.09	202613	keystroke_c	c	n/a
101.412	0.119	202824	keystroke_i	i	n/a
101.636	0.0905	203272	keystroke_f	f	n/a
101.696	0.135	203392	keystroke_i	i	n/a
101.8615	0.09	203723	keystroke_c	c	n/a
102.041	0.0755	204082	keystroke_a	a	n/a
102.206	0.1205	204412	keystroke_t	t	n/a
102.281	0.1805	204562	keystroke_i	i	n/a
102.371	0.1205	204742	keystroke_o	o	n/a
102.671	0.106	205342	keystroke_n	n	n/a
102.806	0.09	205612	keystroke_s	s	n/a
102.9105	0.1355	205821	keystroke_Key.space	Key.space	n/a
103.0315	0.0605	206063	keystroke_c	c	n/a
103.121	0.12	206242	keystroke_h	h	n/a
103.211	0.12	206422	keystroke_e	e	n/a
103.4065	0.105	206813	keystroke_a	a	n/a
103.6165	0.09	207233	keystroke_t	t	n/a
103.7965	0.075	207593	keystroke_s	s	n/a
103.8865	0.165	207773	keystroke_Key.enter	Key.enter	n/a
104.0585	4.1345	208117	prompt	n/a	loose durham server puzzle\n
104.7415	0.075	209483	keystroke_l	l	n/a
104.9215	0.06	209843	keystroke_o	o	n/a
105.0715	0.09	210143	keystroke_o	o	n/a
105.1615	0.075	210323	keystroke_s	s	n/a
105.2965	0.105	210593	keystroke_e	e	n/a
105.3715	0.12	210743	keystroke_Key.space	Key.space	n/a
105.5065	0.1045	211013	keystroke_d	d	n/a
105.596	0.09	211192	keystroke_u	u	n/a
105.7465	0.0745	211493	keystroke_r	r	n/a
105.851	0.1055	211702	keystroke_h	h	n/a
106.0165	0.105	212033	keystroke_a	a	n/a
106.106	0.12	212212	keystroke_m	m	n/a
106.2565	0.1045	212513	keystroke_Key.space	Key.space	n/a
106.3465	0.0745	212693	keystroke_s	s	n/a
106.4965	0.09	212993	keystroke_e	e	n/a
106.616	0.105	213232	keystroke_r	r	n/a
106.706	0.12	213412	keystroke_v	v	n/a
106.842	0.0895	213684	keystroke_e	e	n/a
106.961	0.1355	213922	keystroke_r	r	n/a
107.0665	0.105	214133	keystroke_Key.space	Key.space	n/a
107.231	0.0905	214462	keystroke_p	p	n/a
107.412	0.119	214824	keystroke_u	u	n/a
107.547	0.06	215094	keystroke_z	z	n/a
107.711	0.075	215422	keystroke_z	z	n/a
107.817	0.1195	215634	keystroke_l	l	n/a
107.9515	0.09	215903	keystroke_e	e	n/a
108.071	0.1195	216142	keystroke_Key.enter	Key.enter	n/a
108.1985	5.049	216397	prompt	n/a	translation theoretical so're administered\n
108.8065	0.06	217613	keystroke_t	t	n/a
108.8815	0.09	217763	keystroke_h	h	n/a
109.2265	0.0895	218453	keystroke_Key.backspace	Key.backspace	n/a
109.3315	0.06	218663	keystroke_r	r	n/a
109.5715	0.105	219143	keystroke_a	a	n/a
109.6915	0.089	219383	keystroke_n	n	n/a
109.8415	0.104	219683	keystroke_s	s	n/a
109.9915	0.0905	219983	keystroke_l	l	n/a
110.0965	0.06	220193	keystroke_a	a	n/a
110.2765	0.0905	220553	keystroke_t	t	n/a
110.337	0.1495	220674	keystroke_i	i	n/a
110.427	0.0895	220854	keystroke_o	o	n/a
110.6215	0.1205	221243	keystroke_n	n	n/a
110.726	0.0755	221452	keystroke_Key.space	Key.space	n/a
110.816	0.106	221632	keystroke_t	t	n/a
110.9365	0.105	221873	keystroke_h	h	n/a
111.0265	0.1355	222053	keystroke_e	e	n/a
111.1765	0.12	222353	keystroke_o	o	n/a
111.341	0.075	222682	keystroke_r	r	n/a
111.7315	0.09	223463	keystroke_e	e	n/a
111.971	0.1055	223942	keystroke_t	t	n/a
112.167	0.1045	224334	keystroke_i	i	n/a
112.2865	0.09	224573	keystroke_c	c	n/a
112.4815	0.105	224963	keystroke_a	a	n/a
112.5565	0.12	225113	keystroke_l	l	n/a
112.6915	0.09	225383	keystroke_Key.space	Key.space	n/a
112.7665	0.12	225533	keystroke_s	s	n/a
112.901	0.105	225802	keystroke_o	o	n/a
113.186	0.06	226372	keystroke_Key.enter	Key.enter	n/a
113.2315	0.09	226463	keystroke_r	r	n/a
113.251	8.202	226502	prompt	n/a	rear neural currencies debug\n
113.4415	0.09	226883	keystroke_e	e	n/a
114.701	0.075	229402	keystroke_Key.backspace	Key.backspace	n/a
115.1965	0.105	230393	keystroke_r	r	n/a
115.346	0.1055	230692	keystroke_e	e	n/a
115.5415	0.06	231083	keystroke_a	a	n/a
115.6615	0.1045	231323	keystroke_d	d	n/a
115.751	0.15	231502	keystroke_Key.space	Key.space	n/a
115.917	0.12	231834	keystroke_n	n	n/a
116.276	0.09	232552	keystroke_Key.backspace	Key.backspace	n/a
116.471	0.0605	232942	keystroke_Key.backspace	Key.backspace	n/a
116.6365	0.06	233273	keystroke_Key.backspace	Key.backspace	n/a
116.7265	0.1055	233453	keystroke_r	r	n/a
116.801	0.1355	233602	keystroke_Key.space	Key.space	n/a
116.9515	0.1195	233903	keystroke_n	n	n/a
117.162	0.105	234324	keystroke_e	e	n/a
117.356	0.1055	234712	keystroke_u	u	n/a
117.491	0.1055	234982	keystroke_r	r	n/a
117.7165	0.1045	235433	keystroke_a	a	n/a
117.7915	0.09	235583	keystroke_l	l	n/a
117.896	0.1205	235792	keystroke_Key.space	Key.space	n/a
118.0315	0.105	236063	keystroke_c	c	n/a
118.1815	0.12	236363	keystroke_u	u	n/a
118.3165	0.045	236633	keystroke_r	r	n/a
118.4515	0.09	236903	keystroke_r	r	n/a
118.5865	0.105	237173	keystroke_e	e	n/a
118.7515	0.1205	237503	keystroke_n	n	n/a
118.9165	0.075	237833	keystroke_c	c	n/a
119.0515	0.105	238103	keystroke_i	i	n/a
119.2015	0.06	238403	keystroke_a	a	n/a
119.5765	0.09	239153	keystroke_Key.backspace	Key.backspace	n/a
119.6515	0.105	239303	keystroke_e	e	n/a
119.8315	0.12	239663	keystroke_s	s	n/a
119.9205	0.105	239841	keystroke_Key.space	Key.space	n/a
120.177	0.0595	240354	keystroke_d	d	n/a
120.357	0.1045	240714	keystroke_e	e	n/a
120.6265	0.09	241253	keystroke_b	b	n/a
120.8365	0.105	241673	keystroke_u	u	n/a
121.0465	0.09	242093	keystroke_g	g	n/a
121.3315	0.1195	242663	keystroke_Key.enter	Key.enter	n/a
121.4575	7.4505	242915	prompt	n/a	branches respected yang shannon\n
122.352	0.0895	244704	keystroke_b	b	n/a
122.412	0.1045	244824	keystroke_r	r	n/a
122.6665	0.105	245333	keystroke_a	a	n/a
122.756	0.0905	245512	keystroke_n	n	n/a
122.907	0.119	245814	keystroke_c	c	n/a
123.012	0.1345	246024	keystroke_h	h	n/a
123.461	0.105	246922	keystroke_e	e	n/a
123.686	0.076	247372	keystroke_s	s	n/a
123.8215	0.12	247643	keystroke_Key.space	Key.space	n/a
124.3615	0.015	248723	keystroke_r	r	n/a
124.4215	0.12	248843	keystroke_e	e	n/a
124.556	0.0905	249112	keystroke_p	p	n/a
124.9915	0.09	249983	keystroke_Key.backspace	Key.backspace	n/a
125.0965	0.105	250193	keystroke_s	s	n/a
125.2615	0.1205	250523	keystroke_p	p	n/a
125.5465	0.09	251093	keystroke_e	e	n/a
125.7715	0.045	251543	keystroke_c	c	n/a
125.9665	0.0755	251933	keystroke_t	t	n/a
126.1765	0.105	252353	keystroke_e	e	n/a
126.447	0.1345	252894	keystroke_d	d	n/a
126.551	0.105	253102	keystroke_Key.space	Key.space	n/a
126.687	0.105	253374	keystroke_y	y	n/a
126.821	0.12	253642	keystroke_a	a	n/a
127.016	0.12	254032	keystroke_n	n	n/a
127.287	0.1045	254574	keystroke_g	g	n/a
127.4055	0.121	254811	keystroke_Key.space	Key.space	n/a
127.752	0.1195	255504	keystroke_s	s	n/a
127.8415	0.1045	255683	keystroke_h	h	n/a
127.9765	0.104	255953	keystroke_a	a	n/a
128.0665	0.09	256133	keystroke_n	n	n/a
128.2165	0.0755	256433	keystroke_n	n	n/a
128.3815	0.0905	256763	keystroke_o	o	n/a
128.5765	0.06	257153	keystroke_n	n	n/a
128.801	0.105	257602	keystroke_Key.enter	Key.enter	n/a
128.9115	5.9245	257823	prompt	n/a	achievements essential homeless rosa\n
129.4915	0.105	258983	keystroke_a	a	n/a
129.6865	0.1195	259373	keystroke_c	c	n/a
129.7615	0.0895	259523	keystroke_h	h	n/a
129.911	0.1205	259822	keystroke_i	i	n/a
130.016	0.09	260032	keystroke_e	e	n/a
130.137	0.09	260274	keystroke_v	v	n/a
130.2405	0.0755	260481	keystroke_e	e	n/a
130.3615	0.12	260723	keystroke_m	m	n/a
130.4965	0.105	260993	keystroke_e	e	n/a
130.6165	0.104	261233	keystroke_n	n	n/a
130.7065	0.0605	261413	keystroke_t	t	n/a
130.8565	0.12	261713	keystroke_s	s	n/a
130.991	0.121	261982	keystroke_Key.space	Key.space	n/a
131.0515	0.105	262103	keystroke_e	e	n/a
131.291	0.0155	262582	keystroke_s	s	n/a
131.652	0.089	263304	keystroke_s	s	n/a
131.9215	0.1495	263843	keystroke_e	e	n/a
132.0565	0.1345	264113	keystroke_n	n	n/a
132.1765	0.09	264353	keystroke_t	t	n/a
132.327	0.119	264654	keystroke_i	i	n/a
132.5065	0.0905	265013	keystroke_a	a	n/a
132.626	0.06	265252	keystroke_l	l	n/a
132.761	0.09	265522	keystroke_Key.space	Key.space	n/a
132.8665	0.075	265733	keystroke_h	h	n/a
133.0465	0.09	266093	keystroke_o	o	n/a
133.2565	0.09	266513	keystroke_m	m	n/a
133.3165	0.12	266633	keystroke_e	e	n/a
133.541	0.136	267082	keystroke_l	l	n/a
133.6615	0.09	267323	keystroke_e	e	n/a
133.8415	0.0605	267683	keystroke_s	s	n/a
133.9915	0.0905	267983	keystroke_s	s	n/a
134.0965	0.105	268193	keystroke_Key.space	Key.space	n/a
134.2015	0.105	268403	keystroke_r	r	n/a
134.2915	0.12	268583	keystroke_o	o	n/a
134.4265	0.09	268853	keystroke_s	s	n/a
134.6365	0.075	269273	keystroke_a	a	n/a
134.7415	0.09	269483	keystroke_Key.enter	Key.enter	n/a
134.839	5.004	269678	prompt	n/a	ports auctions field speaks\n
135.461	0.195	270922	keystroke_p	p	n/a
135.596	0.135	271192	keystroke_o	o	n/a
135.702	0.09	271404	keystroke_r	r	n/a
135.836	0.105	271672	keystroke_t	t	n/a
136.016	0.106	272032	keystroke_s	s	n/a
136.1665	0.0745	272333	keystroke_Key.space	Key.space	n/a
136.4665	0.09	272933	keystroke_a	a	n/a
136.5865	0.135	273173	keystroke_u	u	n/a
136.9765	0.06	273953	keystroke_c	c	n/a
137.262	0.0595	274524	keystroke_t	t	n/a
137.336	0.15	274672	keystroke_i	i	n/a
137.396	0.1355	274792	keystroke_o	o	n/a
137.637	0.104	275274	keystroke_n	n	n/a
137.726	0.075	275452	keystroke_s	s	n/a
137.846	0.105	275692	keystroke_Key.space	Key.space	n/a
138.026	0.105	276052	keystroke_f	f	n/a
138.116	0.09	276232	keystroke_i	i	n/a
138.222	0.089	276444	keystroke_e	e	n/a
138.326	0.0905	276652	keystroke_l	l	n/a
138.4765	0.12	276953	keystroke_d	d	n/a
138.6115	0.09	277223	keystroke_Key.space	Key.space	n/a
138.762	0.0895	277524	keystroke_s	s	n/a
138.8365	0.12	277673	keystroke_p	p	n/a
139.212	0.09	278424	keystroke_e	e	n/a
139.406	0.106	278812	keystroke_a	a	n/a
139.526	0.1355	279052	keystroke_k	k	n/a
139.6315	0.1055	279263	keystroke_s	s	n/a
139.7515	0.0895	279503	keystroke_Key.enter	Key.enter	n/a
139.847	9.296	279694	prompt	n/a	raleigh opponents wherever celebrity\n
140.6065	0.1345	281213	keystroke_r	r	n/a
140.8165	0.0895	281633	keystroke_e	e	n/a
141.146	0.0905	282292	keystroke_Key.backspace	Key.backspace	n/a
141.2965	0.1045	282593	keystroke_a	a	n/a
141.492	0.1345	282984	keystroke_l	l	n/a
141.806	0.075	283612	keystroke_e	e	n/a
141.956	0.105	283912	keystroke_i	i	n/a
142.166	0.105	284332	keystroke_g	g	n/a
142.2865	0.105	284573	keystroke_h	h	n/a
142.392	0.119	284784	keystroke_Key.space	Key.space	n/a
142.8715	0.06	285743	keystroke_o	o	n/a
143.082	0.09	286164	keystroke_p	p	n/a
143.2765	0.12	286553	keystroke_p	p	n/a
143.531	0.0905	287062	keystroke_o	o	n/a
143.741	0.1055	287482	keystroke_n	n	n/a
143.8615	0.1355	287723	keystroke_e	e	n/a
143.9815	0.135	287963	keystroke_n	n	n/a
144.1015	0.09	288203	keystroke_t	t	n/a
144.282	0.1045	288564	keystroke_s	s	n/a
144.3865	0.09	288773	keystroke_Key.space	Key.space	n/a
144.4915	0.119	288983	keystroke_w	w	n/a
144.5965	0.135	289193	keystroke_h	h	n/a
144.672	0.1195	289344	keystroke_e	e	n/a
144.9265	0.09	289853	keystroke_r	r	n/a
145.166	0.0905	290332	keystroke_e	e	n/a
145.422	0.104	290844	keystroke_v	v	n/a
145.5405	0.15	291081	keystroke_e	e	n/a
146.2165	0.09	292433	keystroke_Key.backspace	Key.backspace	n/a
147.071	0.06	294142	keystroke_e	e	n/a
147.2215	0.09	294443	keystroke_r	r	n/a
147.3565	0.104	294713	keystroke_Key.space	Key.space	n/a
147.6105	0.106	295221	keystroke_c	c	n/a
147.807	0.0895	295614	keystroke_e	e	n/a
147.8815	0.09	295763	keystroke_l	l	n/a
148.0765	0.105	296153	keystroke_e	e	n/a
148.2265	0.105	296453	keystroke_b	b	n/a
148.3915	0.09	296783	keystroke_r	r	n/a
148.5415	0.12	297083	keystroke_i	i	n/a
148.6765	0.1045	297353	keystroke_t	t	n/a
148.856	0.1205	297712	keystroke_y	y	n/a
149.021	0.12	298042	keystroke_Key.enter	Key.enter	n/a
149.1465	6.3865	298293	prompt	n/a	bind investigated elliott tire\n
149.7715	0.075	299543	keystroke_b	b	n/a
150.0115	0.105	300023	keystroke_i	i	n/a
150.2065	0.105	300413	keystroke_n	n	n/a
150.2965	0.09	300593	keystroke_g	g	n/a
150.686	0.075	301372	keystroke_Key.backspace	Key.backspace	n/a
150.762	0.1495	301524	keystroke_d	d	n/a
150.8965	0.1495	301793	keystroke_Key.space	Key.space	n/a
151.376	0.075	302752	keystroke_i	i	n/a
151.5265	0.135	303053	keystroke_n	n	n/a
151.646	0.12	303292	keystroke_v	v	n/a
151.886	0.09	303772	keystroke_e	e	n/a
152.051	0.075	304102	keystroke_s	s	n/a
152.2315	0.1195	304463	keystroke_t	t	n/a
152.336	0.075	304672	keystroke_i	i	n/a
152.561	0.075	305122	keystroke_g	g	n/a
152.726	0.09	305452	keystroke_a	a	n/a
152.906	0.106	305812	keystroke_t	t	n/a
153.071	0.12	306142	keystroke_e	e	n/a
153.221	0.12	306442	keystroke_d	d	n/a
153.356	0.0905	306712	keystroke_Key.space	Key.space	n/a
153.4615	0.105	306923	keystroke_e	e	n/a
153.5815	0.075	307163	keystroke_l	l	n/a
153.7615	0.12	307523	keystroke_l	l	n/a
154.0455	0.181	308091	keystroke_i	i	n/a
154.3315	0.1205	308663	keystroke_o	o	n/a
154.4665	0.09	308933	keystroke_t	t	n/a
154.6465	0.09	309293	keystroke_t	t	n/a
154.6915	0.09	309383	keystroke_Key.space	Key.space	n/a
154.8715	0.09	309743	keystroke_t	t	n/a
154.9315	0.135	309863	keystroke_i	i	n/a
155.1575	0.089	310315	keystroke_r	r	n/a
155.336	0.135	310672	keystroke_e	e	n/a
155.426	0.105	310852	keystroke_Key.enter	Key.enter	n/a
155.5365	4.6165	311073	prompt	n/a	glad imperial much builder\n
156.1615	0.0905	312323	keystroke_g	g	n/a
156.312	0.1045	312624	keystroke_l	l	n/a
156.4315	0.0745	312863	keystroke_a	a	n/a
156.596	0.1055	313192	keystroke_d	d	n/a
156.746	0.0605	313492	keystroke_Key.space	Key.space	n/a
156.821	0.091	313642	keystroke_i	i	n/a
157.0165	0.1045	314033	keystroke_m	m	n/a
157.1965	0.1045	314393	keystroke_p	p	n/a
157.2715	0.09	314543	keystroke_e	e	n/a
157.3915	0.12	314783	keystroke_r	r	n/a
157.5265	0.1045	315053	keystroke_i	i	n/a
157.661	0.09	315322	keystroke_a	a	n/a
157.752	0.089	315504	keystroke_l	l	n/a
157.9165	0.09	315833	keystroke_Key.space	Key.space	n/a
158.1715	0.075	316343	keystroke_m	m	n/a
158.412	0.1045	316824	keystroke_u	u	n/a
158.5015	0.12	317003	keystroke_c	c	n/a
158.6065	0.12	317213	keystroke_h	h	n/a
158.7415	0.1045	317483	keystroke_Key.space	Key.space	n/a
159.041	0.09	318082	keystroke_b	b	n/a
159.161	0.1805	318322	keystroke_u	u	n/a
159.266	0.136	318532	keystroke_i	i	n/a
159.4915	0.105	318983	keystroke_l	l	n/a
159.6115	0.09	319223	keystroke_d	d	n/a
159.7915	0.09	319583	keystroke_e	e	n/a
159.9115	0.105	319823	keystroke_r	r	n/a
160.0315	0.1195	320063	keystroke_Key.enter	Key.enter	n/a
160.1585	5.7095	320317	prompt	n/a	citysearch swing shoes chapter\n
160.7965	0.09	321593	keystroke_c	c	n/a
160.9465	0.1045	321893	keystroke_u	u	n/a
161.3665	0.075	322733	keystroke_Key.backspace	Key.backspace	n/a
161.5315	0.12	323063	keystroke_i	i	n/a
161.6815	0.135	323363	keystroke_t	t	n/a
161.8015	0.12	323603	keystroke_y	y	n/a
162.0715	0.075	324143	keystroke_s	s	n/a
162.2365	0.12	324473	keystroke_e	e	n/a
162.4465	0.075	324893	keystroke_a	a	n/a
162.612	0.0895	325224	keystroke_r	r	n/a
162.7915	0.105	325583	keystroke_c	c	n/a
162.8515	0.15	325703	keystroke_h	h	n/a
162.9865	0.12	325973	keystroke_Key.space	Key.space	n/a
163.0615	0.09	326123	keystroke_s	s	n/a
163.2565	0.0895	326513	keystroke_w	w	n/a
163.3165	0.0755	326633	keystroke_i	i	n/a
163.4665	0.1195	326933	keystroke_n	n	n/a
163.5565	0.1045	327113	keystroke_g	g	n/a
163.676	0.0905	327352	keystroke_Key.space	Key.space	n/a
163.7965	0.105	327593	keystroke_s	s	n/a
163.8865	0.105	327773	keystroke_h	h	n/a
164.0665	0.12	328133	keystroke_o	o	n/a
164.1265	0.0895	328253	keystroke_e	e	n/a
164.2915	0.105	328583	keystroke_s	s	n/a
164.3815	0.119	328763	keystroke_Key.space	Key.space	n/a
164.4865	0.09	328973	keystroke_c	c	n/a
164.6365	0.074	329273	keystroke_h	h	n/a
165.1005	0.106	330201	keystroke_a	a	n/a
165.311	0.135	330622	keystroke_p	p	n/a
165.4315	0.06	330863	keystroke_t	t	n/a
165.567	0.1045	331134	keystroke_e	e	n/a
165.6865	0.105	331373	keystroke_r	r	n/a
165.7455	0.121	331491	keystroke_Key.enter	Key.enter	n/a
165.873	5.89	331746	prompt	n/a	browsers latest advert half\n
166.4365	0.09	332873	keystroke_b	b	n/a
166.5565	0.105	333113	keystroke_e	e	n/a
166.6015	0.045	333203	keystroke_r	r	n/a
167.0515	0.075	334103	keystroke_Key.backspace	Key.backspace	n/a
167.231	0.1205	334462	keystroke_Key.backspace	Key.backspace	n/a
167.277	0.1645	334554	keystroke_r	r	n/a
167.381	0.121	334762	keystroke_o	o	n/a
167.5165	0.09	335033	keystroke_w	w	n/a
167.9215	0.0595	335843	keystroke_s	s	n/a
168.131	0.075	336262	keystroke_e	e	n/a
168.236	0.106	336472	keystroke_r	r	n/a
168.4165	0.1045	336833	keystroke_s	s	n/a
168.506	0.12	337012	keystroke_Key.space	Key.space	n/a
168.656	0.1205	337312	keystroke_l	l	n/a
168.821	0.075	337642	keystroke_a	a	n/a
169.002	0.119	338004	keystroke_t	t	n/a
169.092	0.134	338184	keystroke_e	e	n/a
169.287	0.134	338574	keystroke_s	s	n/a
169.406	0.1355	338812	keystroke_t	t	n/a
169.5865	0.1045	339173	keystroke_Key.space	Key.space	n/a
169.8265	0.1055	339653	keystroke_a	a	n/a
170.081	0.105	340162	keystroke_d	d	n/a
170.2315	0.105	340463	keystroke_v	v	n/a
170.3515	0.105	340703	keystroke_e	e	n/a
170.606	0.076	341212	keystroke_r	r	n/a
170.801	0.09	341602	keystroke_t	t	n/a
170.906	0.12	341812	keystroke_Key.space	Key.space	n/a
171.057	0.104	342114	keystroke_h	h	n/a
171.1765	0.0745	342353	keystroke_a	a	n/a
171.311	0.135	342622	keystroke_l	l	n/a
171.416	0.106	342832	keystroke_f	f	n/a
171.671	0.09	343342	keystroke_Key.enter	Key.enter	n/a
171.768	6.43	343536	prompt	n/a	paste showers compounds advice\n
172.451	0.0755	344902	keystroke_p	p	n/a
172.5715	0.03	345143	keystroke_p	p	n/a
172.6765	0.1495	345353	keystroke_a	a	n/a
172.826	0.1355	345652	keystroke_s	s	n/a
173.2315	0.1045	346463	keystroke_Key.backspace	Key.backspace	n/a
173.441	0.045	346882	keystroke_Key.backspace	Key.backspace	n/a
173.591	0.075	347182	keystroke_Key.backspace	Key.backspace	n/a
173.667	0.1195	347334	keystroke_a	a	n/a
173.8765	0.1045	347753	keystroke_s	s	n/a
173.952	0.119	347904	keystroke_t	t	n/a
174.1165	0.1345	348233	keystroke_e	e	n/a
174.236	0.1355	348472	keystroke_Key.space	Key.space	n/a
174.417	0.089	348834	keystroke_s	s	n/a
174.491	0.0905	348982	keystroke_h	h	n/a
174.6565	0.12	349313	keystroke_o	o	n/a
174.7315	0.105	349463	keystroke_w	w	n/a
174.9115	0.105	349823	keystroke_e	e	n/a
175.0915	0.105	350183	keystroke_r	r	n/a
175.3165	0.09	350633	keystroke_s	s	n/a
175.3915	0.09	350783	keystroke_Key.space	Key.space	n/a
175.6615	0.075	351323	keystroke_c	c	n/a
175.707	0.0895	351414	keystroke_o	o	n/a
175.8715	0.09	351743	keystroke_m	m	n/a
176.0815	0.195	352163	keystroke_p	p	n/a
176.217	0.1195	352434	keystroke_o	o	n/a
176.4115	0.105	352823	keystroke_u	u	n/a
176.6365	0.135	353273	keystroke_n	n	n/a
176.7115	0.105	353423	keystroke_d	d	n/a
176.8465	0.105	353693	keystroke_s	s	n/a
176.9965	0.09	353993	keystroke_Key.space	Key.space	n/a
177.0715	0.09	354143	keystroke_a	a	n/a
177.2815	0.0595	354563	keystroke_d	d	n/a
177.5215	0.0745	355043	keystroke_v	v	n/a
177.6715	0.1645	355343	keystroke_i	i	n/a
177.746	0.1055	355492	keystroke_c	c	n/a
177.986	0.0895	355972	keystroke_e	e	n/a
178.0905	0.106	356181	keystroke_Key.enter	Key.enter	n/a
178.205	5.618	356410	prompt	n/a	exhibitions views testimony bill\n
178.886	0.09	357772	keystroke_e	e	n/a
179.1115	0.105	358223	keystroke_x	x	n/a
179.1865	0.104	358373	keystroke_h	h	n/a
179.3515	0.0745	358703	keystroke_i	i	n/a
179.5315	0.074	359063	keystroke_b	b	n/a
179.727	0.119	359454	keystroke_i	i	n/a
179.8615	0.1045	359723	keystroke_t	t	n/a
179.981	0.15	359962	keystroke_i	i	n/a
180.0565	0.1045	360113	keystroke_o	o	n/a
180.221	0.1055	360442	keystroke_n	n	n/a
180.2965	0.1045	360593	keystroke_s	s	n/a
180.431	0.105	360862	keystroke_Key.space	Key.space	n/a
180.5515	0.09	361103	keystroke_v	v	n/a
180.6715	0.15	361343	keystroke_i	i	n/a
180.8065	0.09	361613	keystroke_e	e	n/a
180.9565	0.09	361913	keystroke_w	w	n/a
181.1515	0.075	362303	keystroke_s	s	n/a
181.2265	0.119	362453	keystroke_Key.space	Key.space	n/a
181.376	0.075	362752	keystroke_t	t	n/a
181.526	0.1055	363052	keystroke_e	e	n/a
181.7365	0.0745	363473	keystroke_s	s	n/a
181.9315	0.0895	363863	keystroke_t	t	n/a
182.006	0.09	364012	keystroke_i	i	n/a
182.1865	0.075	364373	keystroke_m	m	n/a
182.366	0.06	364732	keystroke_o	o	n/a
182.531	0.105	365062	keystroke_n	n	n/a
182.621	0.1055	365242	keystroke_y	y	n/a
182.741	0.105	365482	keystroke_Key.space	Key.space	n/a
182.846	0.075	365692	keystroke_b	b	n/a
183.027	0.1045	366054	keystroke_i	i	n/a
183.251	0.105	366502	keystroke_l	l	n/a
183.431	0.1205	366862	keystroke_l	l	n/a
183.716	0.105	367432	keystroke_Key.enter	Key.enter	n/a
183.828	4.4365	367656	prompt	n/a	chosen oops duration marine\n
184.4665	0.12	368933	keystroke_c	c	n/a
184.5565	0.0745	369113	keystroke_h	h	n/a
184.6915	0.09	369383	keystroke_o	o	n/a
184.767	0.074	369534	keystroke_s	s	n/a
184.901	0.105	369802	keystroke_e	e	n/a
184.976	0.105	369952	keystroke_Key.space	Key.space	n/a
185.1565	0.1045	370313	keystroke_o	o	n/a
185.351	0.166	370702	keystroke_o	o	n/a
185.441	0.12	370882	keystroke_p	p	n/a
185.606	0.136	371212	keystroke_s	s	n/a
185.756	0.09	371512	keystroke_Key.space	Key.space	n/a
185.9515	0.0895	371903	keystroke_d	d	n/a
186.0265	0.1205	372053	keystroke_u	u	n/a
186.207	0.1195	372414	keystroke_r	r	n/a
186.4915	0.06	372983	keystroke_a	a	n/a
186.6865	0.09	373373	keystroke_t	t	n/a
186.7325	0.164	373465	keystroke_i	i	n/a
186.8215	0.09	373643	keystroke_o	o	n/a
187.0315	0.075	374063	keystroke_n	n	n/a
187.2115	0.0895	374423	keystroke_Key.space	Key.space	n/a
187.3765	0.15	374753	keystroke_m	m	n/a
187.5115	0.0455	375023	keystroke_a	a	n/a
187.6615	0.09	375323	keystroke_r	r	n/a
187.7665	0.105	375533	keystroke_i	i	n/a
187.9315	0.12	375863	keystroke_n	n	n/a
188.0365	0.0895	376073	keystroke_e	e	n/a
188.141	0.12	376282	keystroke_Key.enter	Key.enter	n/a
188.2685	7.1345	376537	prompt	n/a	suzuki till quarter christianity\n
189.6865	0.09	379373	keystroke_s	s	n/a
189.8215	0.1045	379643	keystroke_u	u	n/a
190.001	0.12	380002	keystroke_z	z	n/a
190.181	0.1055	380362	keystroke_u	u	n/a
190.5415	0.0895	381083	keystroke_k	k	n/a
190.7215	0.09	381443	keystroke_i	i	n/a
190.8565	0.1195	381713	keystroke_Key.space	Key.space	n/a
190.9915	0.1045	381983	keystroke_t	t	n/a
191.0815	0.1045	382163	keystroke_i	i	n/a
191.306	0.0445	382612	keystroke_l	l	n/a
191.4265	0.0895	382853	keystroke_l	l	n/a
191.531	0.1055	383062	keystroke_Key.space	Key.space	n/a
191.6665	0.105	383333	keystroke_q	q	n/a
191.7565	0.105	383513	keystroke_u	u	n/a
191.906	0.06	383812	keystroke_a	a	n/a
192.0565	0.1055	384113	keystroke_r	r	n/a
192.371	0.1205	384742	keystroke_t	t	n/a
192.4465	0.1045	384893	keystroke_e	e	n/a
192.5815	0.1195	385163	keystroke_r	r	n/a
192.6865	0.0895	385373	keystroke_Key.space	Key.space	n/a
192.8665	0.075	385733	keystroke_c	c	n/a
192.9265	0.075	385853	keystroke_h	h	n/a
193.0915	0.105	386183	keystroke_r	r	n/a
193.3015	0.0755	386603	keystroke_i	i	n/a
193.616	0.09	387232	keystroke_s	s	n/a
194.2465	0.09	388493	keystroke_t	t	n/a
194.3665	0.1205	388733	keystroke_i	i	n/a
194.651	0.0445	389302	keystroke_a	a	n/a
194.7565	0.045	389513	keystroke_n	n	n/a
194.906	0.1055	389812	keystroke_i	i	n/a
194.9965	0.075	389993	keystroke_t	t	n/a
195.1615	0.0755	390323	keystroke_y	y	n/a
195.296	0.1055	390592	keystroke_Key.enter	Key.enter	n/a
195.408	5.125	390816	prompt	n/a	strongly garlic riders benz\n
196.0765	0.105	392153	keystroke_s	s	n/a
196.2865	0.09	392573	keystroke_t	t	n/a
196.4365	0.0905	392873	keystroke_r	r	n/a
196.5115	0.09	393023	keystroke_o	o	n/a
196.6615	0.12	393323	keystroke_n	n	n/a
196.766	0.076	393532	keystroke_g	g	n/a
196.9915	0.1045	393983	keystroke_l	l	n/a
197.1265	0.1195	394253	keystroke_y	y	n/a
197.231	0.105	394462	keystroke_Key.space	Key.space	n/a
197.517	0.089	395034	keystroke_g	g	n/a
197.726	0.091	395452	keystroke_a	a	n/a
197.921	0.106	395842	keystroke_r	r	n/a
198.0415	0.09	396083	keystroke_l	l	n/a
198.1915	0.15	396383	keystroke_i	i	n/a
198.2815	0.0755	396563	keystroke_c	c	n/a
198.461	0.105	396922	keystroke_Key.space	Key.space	n/a
198.581	0.1205	397162	keystroke_r	r	n/a
198.7165	0.181	397433	keystroke_i	i	n/a
198.8665	0.0905	397733	keystroke_d	d	n/a
199.062	0.0895	398124	keystroke_e	e	n/a
199.2115	0.09	398423	keystroke_r	r	n/a
199.4215	0.061	398843	keystroke_s	s	n/a
199.4965	0.09	398993	keystroke_Key.space	Key.space	n/a
199.572	0.165	399144	keystroke_b	b	n/a
199.6465	0.1055	399293	keystroke_e	e	n/a
199.857	0.164	399714	keystroke_n	n	n/a
200.261	0.061	400522	keystroke_z	z	n/a
200.441	0.0905	400882	keystroke_Key.enter	Key.enter	n/a
200.5375	6.416	401075	prompt	n/a	paul adjustable what've exact\n
201.2365	0.1055	402473	keystroke_p	p	n/a
201.342	0.12	402684	keystroke_a	a	n/a
201.462	0.075	402924	keystroke_u	u	n/a
201.656	0.076	403312	keystroke_l	l	n/a
201.806	0.105	403612	keystroke_Key.space	Key.space	n/a
201.8665	0.1045	403733	keystroke_a	a	n/a
202.0465	0.1045	404093	keystroke_d	d	n/a
202.167	0.09	404334	keystroke_j	j	n/a
202.361	0.106	404722	keystroke_u	u	n/a
202.407	0.074	404814	keystroke_s	s	n/a
202.602	0.045	405204	keystroke_t	t	n/a
202.797	0.089	405594	keystroke_a	a	n/a
202.8565	0.0755	405713	keystroke_b	b	n/a
203.0365	0.0895	406073	keystroke_l	l	n/a
203.111	0.1205	406222	keystroke_e	e	n/a
203.246	0.0755	406492	keystroke_Key.space	Key.space	n/a
203.3065	0.12	406613	keystroke_w	w	n/a
203.4415	0.09	406883	keystroke_h	h	n/a
203.5165	0.075	407033	keystroke_a	a	n/a
203.7265	0.09	407453	keystroke_t	t	n/a
204.281	0.09	408562	keystroke_'	'	n/a
204.536	0.075	409072	keystroke_v	v	n/a
204.807	0.104	409614	keystroke_e	e	n/a
204.8815	0.1195	409763	keystroke_Key.space	Key.space	n/a
205.017	0.09	410034	keystroke_e	e	n/a
205.481	0.09	410962	keystroke_a	a	n/a
205.856	0.0905	411712	keystroke_Key.backspace	Key.backspace	n/a
205.931	0.091	411862	keystroke_x	x	n/a
206.171	0.045	412342	keystroke_a	a	n/a
206.456	0.0605	412912	keystroke_c	c	n/a
206.681	0.09	413362	keystroke_t	t	n/a
206.8465	0.1045	413693	keystroke_Key.enter	Key.enter	n/a
206.9575	4.7355	413915	prompt	n/a	cleaning grown with catering\n
207.6265	0.075	415253	keystroke_c	c	n/a
207.7915	0.12	415583	keystroke_l	l	n/a
207.8965	0.1045	415793	keystroke_e	e	n/a
208.0915	0.09	416183	keystroke_a	a	n/a
208.1965	0.06	416393	keystroke_n	n	n/a
208.3015	0.0905	416603	keystroke_i	i	n/a
208.4365	0.12	416873	keystroke_n	n	n/a
208.527	0.0595	417054	keystroke_g	g	n/a
208.6315	0.12	417263	keystroke_Key.space	Key.space	n/a
208.8115	0.135	417623	keystroke_g	g	n/a
209.021	0.105	418042	keystroke_r	r	n/a
209.112	0.104	418224	keystroke_o	o	n/a
209.2315	0.1045	418463	keystroke_w	w	n/a
209.321	0.12	418642	keystroke_n	n	n/a
209.426	0.1055	418852	keystroke_Key.space	Key.space	n/a
209.5765	0.135	419153	keystroke_w	w	n/a
209.6815	0.09	419363	keystroke_i	i	n/a
209.817	0.1045	419634	keystroke_t	t	n/a
209.892	0.1195	419784	keystroke_h	h	n/a
209.9965	0.15	419993	keystroke_Key.space	Key.space	n/a
210.1315	0.06	420263	keystroke_c	c	n/a
210.3565	0.075	420713	keystroke_a	a	n/a
210.6415	0.09	421283	keystroke_t	t	n/a
210.8065	0.105	421613	keystroke_e	e	n/a
210.9715	0.0755	421943	keystroke_r	r	n/a
211.1205	0.1065	422241	keystroke_i	i	n/a
211.3315	0.135	422663	keystroke_n	n	n/a
211.4215	0.105	422843	keystroke_g	g	n/a
211.6015	0.09	423203	keystroke_Key.enter	Key.enter	n/a
211.696	6.132	423392	prompt	n/a	customs meet equipped yemen\n
212.441	0.03	424882	keystroke_c	c	n/a
212.456	0.075	424912	keystroke_u	u	n/a
212.561	0.075	425122	keystroke_s	s	n/a
212.802	0.0745	425604	keystroke_t	t	n/a
212.8615	0.0595	425723	keystroke_o	o	n/a
213.027	0.104	426054	keystroke_m	m	n/a
213.146	0.0905	426292	keystroke_s	s	n/a
213.251	0.0905	426502	keystroke_Key.space	Key.space	n/a
213.3265	0.1505	426653	keystroke_m	m	n/a
213.4465	0.0905	426893	keystroke_e	e	n/a
213.6115	0.135	427223	keystroke_e	e	n/a
213.8665	0.105	427733	keystroke_t	t	n/a
213.9415	0.09	427883	keystroke_Key.space	Key.space	n/a
214.4515	0.03	428903	keystroke_e	e	n/a
214.902	0.104	429804	keystroke_q	q	n/a
215.0365	0.1795	430073	keystroke_u	u	n/a
215.141	0.1355	430282	keystroke_i	i	n/a
215.396	0.0755	430792	keystroke_p	p	n/a
215.546	0.105	431092	keystroke_p	p	n/a
215.6215	0.1045	431243	keystroke_e	e	n/a
215.786	0.165	431572	keystroke_d	d	n/a
215.9065	0.0745	431813	keystroke_Key.space	Key.space	n/a
216.207	0.0745	432414	keystroke_u	u	n/a
216.7165	0.0745	433433	keystroke_Key.backspace	Key.backspace	n/a
216.9415	0.09	433883	keystroke_y	y	n/a
217.0475	0.1045	434095	keystroke_e	e	n/a
217.1815	0.1505	434363	keystroke_m	m	n/a
217.302	0.105	434604	keystroke_e	e	n/a
217.497	0.104	434994	keystroke_n	n	n/a
217.7065	0.1195	435413	keystroke_Key.enter	Key.enter	n/a
217.832	4.5135	435664	prompt	n/a	actor the hygiene frame\n
218.457	0.1195	436914	keystroke_a	a	n/a
218.6365	0.1045	437273	keystroke_c	c	n/a
218.877	0.089	437754	keystroke_t	t	n/a
218.921	0.12	437842	keystroke_o	o	n/a
219.056	0.09	438112	keystroke_r	r	n/a
219.131	0.1205	438262	keystroke_Key.space	Key.space	n/a
219.2365	0.1045	438473	keystroke_t	t	n/a
219.2965	0.135	438593	keystroke_h	h	n/a
219.461	0.1355	438922	keystroke_e	e	n/a
219.5815	0.12	439163	keystroke_Key.space	Key.space	n/a
219.717	0.1045	439434	keystroke_h	h	n/a
219.9565	0.105	439913	keystroke_y	y	n/a
220.391	0.121	440782	keystroke_g	g	n/a
220.661	0.091	441322	keystroke_i	i	n/a
220.827	0.1195	441654	keystroke_e	e	n/a
220.931	0.1055	441862	keystroke_n	n	n/a
221.051	0.12	442102	keystroke_e	e	n/a
221.201	0.1205	442402	keystroke_Key.space	Key.space	n/a
221.4265	0.09	442853	keystroke_f	f	n/a
221.681	0.1045	443362	keystroke_r	r	n/a
221.891	0.1205	443782	keystroke_a	a	n/a
221.9665	0.09	443933	keystroke_m	m	n/a
222.116	0.1355	444232	keystroke_e	e	n/a
222.236	0.105	444472	keystroke_Key.enter	Key.enter	n/a
222.3495	5.364	444699	prompt	n/a	session learned wives catalyst\n
223.0915	0.075	446183	keystroke_s	s	n/a
223.227	0.119	446454	keystroke_e	e	n/a
223.4215	0.0755	446843	keystroke_s	s	n/a
223.6165	0.0755	447233	keystroke_s	s	n/a
223.676	0.165	447352	keystroke_i	i	n/a
223.7515	0.1355	447503	keystroke_o	o	n/a
223.901	0.165	447802	keystroke_n	n	n/a
224.081	0.0905	448162	keystroke_Key.space	Key.space	n/a
224.261	0.1205	448522	keystroke_l	l	n/a
224.366	0.1055	448732	keystroke_e	e	n/a
224.546	0.0605	449092	keystroke_a	a	n/a
224.7415	0.105	449483	keystroke_r	r	n/a
224.8615	0.12	449723	keystroke_n	n	n/a
224.9665	0.09	449933	keystroke_e	e	n/a
225.132	0.104	450264	keystroke_d	d	n/a
225.2515	0.105	450503	keystroke_Key.space	Key.space	n/a
225.3715	0.104	450743	keystroke_w	w	n/a
225.4915	0.1055	450983	keystroke_i	i	n/a
225.641	0.0745	451282	keystroke_v	v	n/a
225.792	0.1345	451584	keystroke_e	e	n/a
225.9865	0.12	451973	keystroke_s	s	n/a
226.0765	0.12	452153	keystroke_Key.space	Key.space	n/a
226.2865	0.09	452573	keystroke_c	c	n/a
226.5115	0.09	453023	keystroke_a	a	n/a
226.7365	0.09	453473	keystroke_t	t	n/a
226.961	0.135	453922	keystroke_a	a	n/a
227.0815	0.09	454163	keystroke_l	l	n/a
227.306	0.1205	454612	keystroke_y	y	n/a
227.3815	0.09	454763	keystroke_s	s	n/a
227.5615	0.09	455123	keystroke_t	t	n/a
227.6065	0.105	455213	keystroke_Key.enter	Key.enter	n/a
227.7175	6.536	455435	prompt	n/a	emphasis street seekers lafayette\n
228.386	0.12	456772	keystroke_e	e	n/a
228.476	0.09	456952	keystroke_m	m	n/a
228.641	0.0755	457282	keystroke_p	p	n/a
228.7925	0.1335	457585	keystroke_h	h	n/a
228.896	0.121	457792	keystroke_a	a	n/a
229.076	0.12	458152	keystroke_s	s	n/a
229.1815	0.12	458363	keystroke_i	i	n/a
229.2865	0.075	458573	keystroke_s	s	n/a
229.3915	0.12	458783	keystroke_Key.space	Key.space	n/a
229.557	0.0745	459114	keystroke_s	s	n/a
229.7515	0.105	459503	keystroke_t	t	n/a
229.8865	0.105	459773	keystroke_r	r	n/a
230.0965	0.075	460193	keystroke_e	e	n/a
230.2765	0.09	460553	keystroke_e	e	n/a
230.4415	0.105	460883	keystroke_t	t	n/a
230.5315	0.12	461063	keystroke_Key.space	Key.space	n/a
230.6665	0.105	461333	keystroke_s	s	n/a
230.8465	0.0905	461693	keystroke_e	e	n/a
231.011	0.106	462022	keystroke_e	e	n/a
231.101	0.136	462202	keystroke_k	k	n/a
231.221	0.1355	462442	keystroke_e	e	n/a
231.4005	0.076	462801	keystroke_r	r	n/a
231.597	0.0595	463194	keystroke_s	s	n/a
231.611	0.1055	463222	keystroke_Key.space	Key.space	n/a
231.7765	0.105	463553	keystroke_l	l	n/a
231.9115	0.09	463823	keystroke_a	a	n/a
232.152	0.0745	464304	keystroke_f	f	n/a
232.4515	0.09	464903	keystroke_a	a	n/a
232.6765	0.0445	465353	keystroke_t	t	n/a
233.321	0.06	466642	keystroke_Key.backspace	Key.backspace	n/a
233.5465	0.09	467093	keystroke_y	y	n/a
233.6515	0.1045	467303	keystroke_e	e	n/a
233.786	0.075	467572	keystroke_t	t	n/a
233.9515	0.0595	467903	keystroke_t	t	n/a
233.9965	0.1055	467993	keystroke_e	e	n/a
234.191	0.06	468382	keystroke_Key.enter	Key.enter	n/a
234.259	6.7295	468518	prompt	n/a	sampling denver moon touched\n
234.851	0.1205	469702	keystroke_s	s	n/a
235.046	0.121	470092	keystroke_a	a	n/a
235.167	0.1045	470334	keystroke_m	m	n/a
235.4365	0.0895	470873	keystroke_p	p	n/a
235.601	0.09	471202	keystroke_l	l	n/a
235.8565	0.0745	471713	keystroke_i	i	n/a
236.036	0.121	472072	keystroke_n	n	n/a
236.126	0.1055	472252	keystroke_g	g	n/a
236.216	0.135	472432	keystroke_Key.space	Key.space	n/a
236.3515	0.1045	472703	keystroke_d	d	n/a
236.651	0.135	473302	keystroke_e	e	n/a
236.771	0.12	473542	keystroke_n	n	n/a
237.057	0.074	474114	keystroke_b	b	n/a
237.146	0.076	474292	keystroke_e	e	n/a
237.537	0.089	475074	keystroke_Key.backspace	Key.backspace	n/a
237.597	0.09	475194	keystroke_v	v	n/a
237.7915	0.0595	475583	keystroke_e	e	n/a
237.9855	0.0905	475971	keystroke_Key.backspace	Key.backspace	n/a
238.1805	0.075	476361	keystroke_Key.backspace	Key.backspace	n/a
238.3305	0.075	476661	keystroke_Key.backspace	Key.backspace	n/a
238.407	0.0745	476814	keystroke_v	v	n/a
238.5565	0.09	477113	keystroke_e	e	n/a
238.7065	0.105	477413	keystroke_r	r	n/a
238.7815	0.12	477563	keystroke_Key.space	Key.space	n/a
238.8865	0.105	477773	keystroke_m	m	n/a
239.0665	0.09	478133	keystroke_o	o	n/a
239.232	0.0745	478464	keystroke_o	o	n/a
239.3965	0.135	478793	keystroke_n	n	n/a
239.5165	0.105	479033	keystroke_Key.space	Key.space	n/a
239.6065	0.105	479213	keystroke_t	t	n/a
239.6815	0.12	479363	keystroke_o	o	n/a
239.8165	0.12	479633	keystroke_u	u	n/a
239.8915	0.105	479783	keystroke_c	c	n/a
240.0115	0.12	480023	keystroke_h	h	n/a
240.1315	0.105	480263	keystroke_e	e	n/a
240.2665	0.075	480533	keystroke_r	r	n/a
240.6265	0.105	481253	keystroke_Key.backspace	Key.backspace	n/a
240.7165	0.09	481433	keystroke_d	d	n/a
240.8665	0.1195	481733	keystroke_Key.enter	Key.enter	n/a
240.995	6.8035	481990	prompt	n/a	particular institution codes yourself\n
241.6165	0.1345	483233	keystroke_p	p	n/a
241.7365	0.09	483473	keystroke_a	a	n/a
241.961	0.06	483922	keystroke_r	r	n/a
242.096	0.105	484192	keystroke_t	t	n/a
242.186	0.1355	484372	keystroke_i	i	n/a
242.651	0.12	485302	keystroke_c	c	n/a
242.801	0.09	485602	keystroke_u	u	n/a
243.0265	0.1045	486053	keystroke_l	l	n/a
243.101	0.09	486202	keystroke_a	a	n/a
243.296	0.0905	486592	keystroke_r	r	n/a
243.3565	0.1045	486713	keystroke_Key.space	Key.space	n/a
243.4765	0.0755	486953	keystroke_i	i	n/a
243.656	0.1205	487312	keystroke_n	n	n/a
243.777	0.074	487554	keystroke_s	s	n/a
244.0015	0.1055	488003	keystroke_t	t	n/a
244.2865	0.1045	488573	keystroke_i	i	n/a
244.421	0.12	488842	keystroke_t	t	n/a
244.571	0.1055	489142	keystroke_u	u	n/a
244.8865	0.105	489773	keystroke_t	t	n/a
245.0215	0.195	490043	keystroke_i	i	n/a
245.1265	0.12	490253	keystroke_o	o	n/a
245.366	0.0905	490732	keystroke_n	n	n/a
245.4265	0.12	490853	keystroke_Key.space	Key.space	n/a
245.562	0.119	491124	keystroke_c	c	n/a
245.696	0.09	491392	keystroke_o	o	n/a
245.771	0.09	491542	keystroke_d	d	n/a
245.9665	0.09	491933	keystroke_e	e	n/a
246.146	0.12	492292	keystroke_s	s	n/a
246.221	0.06	492442	keystroke_Key.space	Key.space	n/a
246.3415	0.1045	492683	keystroke_y	y	n/a
246.551	0.0905	493102	keystroke_o	o	n/a
246.687	0.119	493374	keystroke_u	u	n/a
246.791	0.105	493582	keystroke_r	r	n/a
247.016	0.0755	494032	keystroke_s	s	n/a
247.1515	0.105	494303	keystroke_e	e	n/a
247.2265	0.105	494453	keystroke_l	l	n/a
247.3765	0.105	494753	keystroke_f	f	n/a
247.6765	0.12	495353	keystroke_Key.enter	Key.enter	n/a
247.8025	5.9805	495605	prompt	n/a	promised french jpeg categories\n
248.3365	0.105	496673	keystroke_p	p	n/a
248.651	0.1055	497302	keystroke_r	r	n/a
248.7265	0.075	497453	keystroke_o	o	n/a
248.8915	0.09	497783	keystroke_m	m	n/a
249.0565	0.12	498113	keystroke_i	i	n/a
249.1315	0.075	498263	keystroke_s	s	n/a
249.3115	0.0895	498623	keystroke_e	e	n/a
249.476	0.105	498952	keystroke_d	d	n/a
249.5665	0.1195	499133	keystroke_Key.space	Key.space	n/a
249.701	0.09	499402	keystroke_f	f	n/a
249.821	0.1055	499642	keystroke_r	r	n/a
250.017	0.1045	500034	keystroke_e	e	n/a
250.0915	0.09	500183	keystroke_n	n	n/a
250.272	0.1045	500544	keystroke_c	c	n/a
250.3915	0.09	500783	keystroke_h	h	n/a
250.4665	0.12	500933	keystroke_Key.space	Key.space	n/a
250.6615	0.0455	501323	keystroke_j	j	n/a
251.381	0.1205	502762	keystroke_p	p	n/a
251.4865	0.1045	502973	keystroke_e	e	n/a
251.771	0.09	503542	keystroke_g	g	n/a
251.846	0.1505	503692	keystroke_Key.space	Key.space	n/a
252.3105	0.061	504621	keystroke_c	c	n/a
252.5065	0.0595	505013	keystroke_a	a	n/a
252.6865	0.0745	505373	keystroke_t	t	n/a
252.8365	0.09	505673	keystroke_e	e	n/a
252.9865	0.12	505973	keystroke_g	g	n/a
253.0765	0.105	506153	keystroke_o	o	n/a
253.1965	0.12	506393	keystroke_r	r	n/a
253.331	0.09	506662	keystroke_i	i	n/a
253.406	0.0905	506812	keystroke_e	e	n/a
253.571	0.106	507142	keystroke_s	s	n/a
253.6915	0.09	507383	keystroke_Key.enter	Key.enter	n/a
253.786	4.6625	507572	prompt	n/a	healthy tribute lone xerox\n
254.4265	0.12	508853	keystroke_h	h	n/a
254.501	0.12	509002	keystroke_e	e	n/a
254.6815	0.12	509363	keystroke_a	a	n/a
254.8315	0.0745	509663	keystroke_l	l	n/a
254.9665	0.0895	509933	keystroke_t	t	n/a
255.026	0.0905	510052	keystroke_h	h	n/a
255.222	0.1195	510444	keystroke_y	y	n/a
255.326	0.1205	510652	keystroke_Key.space	Key.space	n/a
255.4165	0.105	510833	keystroke_t	t	n/a
255.5665	0.135	511133	keystroke_r	r	n/a
255.6565	0.075	511313	keystroke_i	i	n/a
255.8215	0.09	511643	keystroke_b	b	n/a
255.9715	0.105	511943	keystroke_u	u	n/a
256.0315	0.105	512063	keystroke_t	t	n/a
256.1965	0.12	512393	keystroke_e	e	n/a
256.3015	0.105	512603	keystroke_Key.space	Key.space	n/a
256.4365	0.09	512873	keystroke_l	l	n/a
256.6465	0.06	513293	keystroke_o	o	n/a
256.781	0.105	513562	keystroke_n	n	n/a
256.796	0.151	513592	keystroke_e	e	n/a
257.066	0.166	514132	keystroke_Key.space	Key.space	n/a
257.6065	0.0905	515213	keystroke_x	x	n/a
257.831	0.076	515662	keystroke_e	e	n/a
257.936	0.1205	515872	keystroke_r	r	n/a
258.072	0.074	516144	keystroke_o	o	n/a
258.191	0.1505	516382	keystroke_x	x	n/a
258.3265	0.12	516653	keystroke_Key.enter	Key.enter	n/a
258.453	4.045	516906	prompt	n/a	small sparc new romania\n
259.137	0.104	518274	keystroke_s	s	n/a
259.226	0.1205	518452	keystroke_m	m	n/a
259.407	0.0895	518814	keystroke_a	a	n/a
259.481	0.06	518962	keystroke_l	l	n/a
259.6315	0.075	519263	keystroke_l	l	n/a
259.7215	0.135	519443	keystroke_Key.space	Key.space	n/a
259.827	0.1045	519654	keystroke_s	s	n/a
259.9465	0.12	519893	keystroke_p	p	n/a
260.0215	0.09	520043	keystroke_a	a	n/a
260.2465	0.12	520493	keystroke_r	r	n/a
260.486	0.105	520972	keystroke_c	c	n/a
260.592	0.074	521184	keystroke_Key.space	Key.space	n/a
260.9065	0.15	521813	keystroke_n	n	n/a
260.9815	0.105	521963	keystroke_e	e	n/a
261.1315	0.0895	522263	keystroke_w	w	n/a
261.221	0.105	522442	keystroke_Key.space	Key.space	n/a
261.461	0.12	522922	keystroke_r	r	n/a
261.5665	0.0745	523133	keystroke_o	o	n/a
261.716	0.105	523432	keystroke_m	m	n/a
261.806	0.075	523612	keystroke_a	a	n/a
261.941	0.09	523882	keystroke_n	n	n/a
262.151	0.1205	524302	keystroke_i	i	n/a
262.286	0.06	524572	keystroke_a	a	n/a
262.4065	0.09	524813	keystroke_Key.enter	Key.enter	n/a
262.5015	6.6565	525003	prompt	n/a	taste going louisiana millions\n
263.3065	0.0905	526613	keystroke_t	t	n/a
263.501	0.106	527002	keystroke_a	a	n/a
263.6355	0.076	527271	keystroke_s	s	n/a
263.6955	0.121	527391	keystroke_t	t	n/a
263.8315	0.105	527663	keystroke_e	e	n/a
263.9065	0.105	527813	keystroke_Key.space	Key.space	n/a
264.0265	0.105	528053	keystroke_g	g	n/a
264.1165	0.18	528233	keystroke_o	o	n/a
264.2215	0.135	528443	keystroke_i	i	n/a
264.4315	0.12	528863	keystroke_n	n	n/a
264.5065	0.09	529013	keystroke_g	g	n/a
264.6265	0.105	529253	keystroke_Key.space	Key.space	n/a
264.7765	0.135	529553	keystroke_l	l	n/a
265.0615	0.12	530123	keystroke_o	o	n/a
265.2865	0.09	530573	keystroke_u	u	n/a
265.7965	0.09	531593	keystroke_i	i	n/a
265.9315	0.135	531863	keystroke_s	s	n/a
266.7115	0.075	533423	keystroke_i	i	n/a
266.8915	0.105	533783	keystroke_a	a	n/a
266.9815	0.105	533963	keystroke_n	n	n/a
267.1765	0.1205	534353	keystroke_a	a	n/a
267.2805	0.076	534561	keystroke_Key.space	Key.space	n/a
267.8215	0.06	535643	keystroke_m	m	n/a
268.0015	0.0895	536003	keystroke_i	i	n/a
268.2265	0.075	536453	keystroke_l	l	n/a
268.481	0.015	536962	keystroke_l	l	n/a
268.556	0.1355	537112	keystroke_i	i	n/a
268.6315	0.12	537263	keystroke_o	o	n/a
268.8125	0.104	537625	keystroke_n	n	n/a
268.9315	0.075	537863	keystroke_s	s	n/a
269.0365	0.12	538073	keystroke_Key.enter	Key.enter	n/a
269.162	5.336	538324	prompt	n/a	civil denmark striking fate\n
269.771	0.1205	539542	keystroke_c	c	n/a
269.876	0.1055	539752	keystroke_i	i	n/a
269.996	0.1055	539992	keystroke_v	v	n/a
270.0865	0.105	540173	keystroke_i	i	n/a
270.296	0.075	540592	keystroke_l	l	n/a
270.4165	0.1045	540833	keystroke_Key.space	Key.space	n/a
270.4765	0.12	540953	keystroke_d	d	n/a
270.657	0.1195	541314	keystroke_e	e	n/a
270.7015	0.105	541403	keystroke_n	n	n/a
270.9115	0.105	541823	keystroke_m	m	n/a
271.0015	0.075	542003	keystroke_a	a	n/a
271.1965	0.09	542393	keystroke_r	r	n/a
271.2565	0.09	542513	keystroke_k	k	n/a
271.3615	0.135	542723	keystroke_Key.space	Key.space	n/a
271.5115	0.075	543023	keystroke_d	d	n/a
272.006	0.03	544012	keystroke_s	s	n/a
272.051	0.135	544102	keystroke_Key.backspace	Key.backspace	n/a
272.276	0.075	544552	keystroke_Key.backspace	Key.backspace	n/a
272.4715	0.0745	544943	keystroke_s	s	n/a
272.6515	0.0905	545303	keystroke_t	t	n/a
272.8015	0.0895	545603	keystroke_r	r	n/a
272.846	0.0905	545692	keystroke_i	i	n/a
273.027	0.0745	546054	keystroke_k	k	n/a
273.1915	0.06	546383	keystroke_i	i	n/a
273.3415	0.105	546683	keystroke_n	n	n/a
273.432	0.0745	546864	keystroke_g	g	n/a
273.5215	0.135	547043	keystroke_Key.space	Key.space	n/a
273.6715	0.0745	547343	keystroke_f	f	n/a
273.851	0.105	547702	keystroke_a	a	n/a
274.077	0.089	548154	keystroke_t	t	n/a
274.3015	0.09	548603	keystroke_e	e	n/a
274.376	0.1205	548752	keystroke_Key.enter	Key.enter	n/a
274.502	7.377	549004	prompt	n/a	antarctica deposits inherited assumes\n
275.1265	0.104	550253	keystroke_a	a	n/a
275.2015	0.105	550403	keystroke_n	n	n/a
275.6215	0.0905	551243	keystroke_t	t	n/a
275.877	0.0745	551754	keystroke_a	a	n/a
276.266	0.1055	552532	keystroke_r	r	n/a
276.596	0.075	553192	keystroke_c	c	n/a
276.821	0.1055	553642	keystroke_t	t	n/a
276.911	0.12	553822	keystroke_i	i	n/a
277.061	0.091	554122	keystroke_c	c	n/a
277.286	0.061	554572	keystroke_a	a	n/a
277.331	0.1355	554662	keystroke_Key.space	Key.space	n/a
277.4965	0.0755	554993	keystroke_d	d	n/a
277.6915	0.075	555383	keystroke_e	e	n/a
277.7515	0.18	555503	keystroke_p	p	n/a
277.8265	0.165	555653	keystroke_o	o	n/a
278.0365	0.135	556073	keystroke_s	s	n/a
278.1865	0.12	556373	keystroke_i	i	n/a
278.2765	0.105	556553	keystroke_t	t	n/a
278.5165	0.12	557033	keystroke_s	s	n/a
278.6215	0.12	557243	keystroke_Key.space	Key.space	n/a
278.8915	0.09	557783	keystroke_i	i	n/a
279.0565	0.12	558113	keystroke_n	n	n/a
279.2815	0.1495	558563	keystroke_h	h	n/a
279.5365	0.09	559073	keystroke_e	e	n/a
279.671	0.12	559342	keystroke_r	r	n/a
279.821	0.1355	559642	keystroke_i	i	n/a
279.9415	0.105	559883	keystroke_t	t	n/a
280.2115	0.1055	560423	keystroke_e	e	n/a
280.4215	0.09	560843	keystroke_d	d	n/a
280.5265	0.105	561053	keystroke_Key.space	Key.space	n/a
280.6915	0.09	561383	keystroke_a	a	n/a
280.8865	0.1045	561773	keystroke_s	s	n/a
281.097	0.074	562194	keystroke_s	s	n/a
281.156	0.105	562312	keystroke_u	u	n/a
281.396	0.1205	562792	keystroke_m	m	n/a
281.4865	0.1205	562973	keystroke_e	e	n/a
281.6665	0.105	563333	keystroke_s	s	n/a
281.7865	0.0895	563573	keystroke_Key.enter	Key.enter	n/a
281.884	6.519	563768	prompt	n/a	optional occupation learning iraqi\n
282.551	0.15	565102	keystroke_o	o	n/a
282.6415	0.135	565283	keystroke_p	p	n/a
282.761	0.105	565522	keystroke_t	t	n/a
282.881	0.2405	565762	keystroke_i	i	n/a
283.0765	0.15	566153	keystroke_o	o	n/a
283.376	0.09	566752	keystroke_n	n	n/a
283.571	0.0905	567142	keystroke_a	a	n/a
283.617	0.1045	567234	keystroke_l	l	n/a
283.781	0.135	567562	keystroke_Key.space	Key.space	n/a
284.037	0.1195	568074	keystroke_o	o	n/a
284.2015	0.105	568403	keystroke_c	c	n/a
284.3665	0.105	568733	keystroke_c	c	n/a
284.4415	0.09	568883	keystroke_u	u	n/a
284.5915	0.1505	569183	keystroke_p	p	n/a
284.682	0.0895	569364	keystroke_a	a	n/a
284.877	0.0895	569754	keystroke_t	t	n/a
284.9365	0.15	569873	keystroke_i	i	n/a
284.9965	0.1205	569993	keystroke_o	o	n/a
285.207	0.1345	570414	keystroke_n	n	n/a
285.3265	0.135	570653	keystroke_Key.space	Key.space	n/a
285.4765	0.135	570953	keystroke_l	l	n/a
285.5965	0.1045	571193	keystroke_e	e	n/a
285.7915	0.075	571583	keystroke_a	a	n/a
285.971	0.106	571942	keystroke_r	r	n/a
286.061	0.1055	572122	keystroke_n	n	n/a
286.227	0.089	572454	keystroke_i	i	n/a
286.3915	0.135	572783	keystroke_n	n	n/a
286.541	0.0755	573082	keystroke_g	g	n/a
286.6315	0.105	573263	keystroke_Key.space	Key.space	n/a
286.7215	0.135	573443	keystroke_i	i	n/a
287.2165	0.12	574433	keystroke_r	r	n/a
287.4415	0.1055	574883	keystroke_a	a	n/a
287.7115	0.0445	575423	keystroke_q	q	n/a
287.7865	0.1195	575573	keystroke_i	i	n/a
288.2815	0.12	576563	keystroke_Key.enter	Key.enter	n/a
288.415	7.0685	576830	prompt	n/a	came passed continuous currency\n
289.017	0.104	578034	keystroke_c	c	n/a
289.271	0.0755	578542	keystroke_a	a	n/a
289.9165	0.135	579833	keystroke_m	m	n/a
290.0515	0.1205	580103	keystroke_e	e	n/a
290.186	0.1055	580372	keystroke_Key.space	Key.space	n/a
290.5165	0.105	581033	keystroke_p	p	n/a
290.5465	0.09	581093	keystroke_a	a	n/a
290.757	0.09	581514	keystroke_s	s	n/a
290.937	0.09	581874	keystroke_s	s	n/a
291.087	0.105	582174	keystroke_e	e	n/a
291.252	0.0745	582504	keystroke_d	d	n/a
291.401	0.18	582802	keystroke_Key.space	Key.space	n/a
291.641	0.105	583282	keystroke_c	c	n/a
291.7615	0.0745	583523	keystroke_o	o	n/a
291.941	0.1055	583882	keystroke_n	n	n/a
292.0915	0.105	584183	keystroke_t	t	n/a
292.2865	0.045	584573	keystroke_i	i	n/a
292.766	0.09	585532	keystroke_n	n	n/a
293.2165	0.1205	586433	keystroke_u	u	n/a
293.472	0.119	586944	keystroke_o	o	n/a
293.6965	0.1055	587393	keystroke_u	u	n/a
293.921	0.12	587842	keystroke_s	s	n/a
294.1165	0.1495	588233	keystroke_Key.space	Key.space	n/a
294.282	0.09	588564	keystroke_c	c	n/a
294.386	0.106	588772	keystroke_u	u	n/a
294.507	0.074	589014	keystroke_r	r	n/a
294.6865	0.09	589373	keystroke_r	r	n/a
294.8065	0.1195	589613	keystroke_e	e	n/a
294.896	0.0905	589792	keystroke_n	n	n/a
295.0465	0.12	590093	keystroke_c	c	n/a
295.1515	0.1195	590303	keystroke_y	y	n/a
295.3615	0.12	590723	keystroke_Key.enter	Key.enter	n/a
295.4875	5.126	590975	prompt	n/a	spatial i chapters premier\n
296.0665	0.09	592133	keystroke_s	s	n/a
296.2015	0.1645	592403	keystroke_p	p	n/a
296.427	0.09	592854	keystroke_a	a	n/a
296.6215	0.105	593243	keystroke_t	t	n/a
296.696	0.09	593392	keystroke_i	i	n/a
296.876	0.0905	593752	keystroke_a	a	n/a
296.9965	0.1345	593993	keystroke_l	l	n/a
297.2215	0.075	594443	keystroke_Key.space	Key.space	n/a
297.4615	0.09	594923	keystroke_i	i	n/a
297.6265	0.105	595253	keystroke_Key.space	Key.space	n/a
297.987	0.074	595974	keystroke_c	c	n/a
298.0915	0.105	596183	keystroke_h	h	n/a
298.197	0.0745	596394	keystroke_a	a	n/a
298.3165	0.12	596633	keystroke_p	p	n/a
298.437	0.089	596874	keystroke_t	t	n/a
298.6015	0.12	597203	keystroke_e	e	n/a
298.7515	0.1055	597503	keystroke_r	r	n/a
298.961	0.1055	597922	keystroke_s	s	n/a
299.501	0.0455	599002	keystroke_Key.space	Key.space	n/a
299.6215	0.12	599243	keystroke_p	p	n/a
299.7265	0.09	599453	keystroke_r	r	n/a
299.8615	0.12	599723	keystroke_e	e	n/a
299.9665	0.09	599933	keystroke_m	m	n/a
300.1315	0.12	600263	keystroke_i	i	n/a
300.2365	0.105	600473	keystroke_e	e	n/a
300.3865	0.1045	600773	keystroke_r	r	n/a
300.5065	0.105	601013	keystroke_Key.enter	Key.enter	n/a
300.621	4.6115	601242	prompt	n/a	returns photos river november\n
301.2565	0.0895	602513	keystroke_r	r	n/a
301.421	0.09	602842	keystroke_e	e	n/a
301.556	0.135	603112	keystroke_t	t	n/a
301.616	0.105	603232	keystroke_u	u	n/a
301.736	0.1355	603472	keystroke_r	r	n/a
301.887	0.104	603774	keystroke_n	n	n/a
302.006	0.09	604012	keystroke_s	s	n/a
302.081	0.12	604162	keystroke_Key.space	Key.space	n/a
302.216	0.1055	604432	keystroke_p	p	n/a
302.382	0.1195	604764	keystroke_h	h	n/a
302.5165	0.09	605033	keystroke_o	o	n/a
302.5765	0.12	605153	keystroke_t	t	n/a
302.726	0.09	605452	keystroke_o	o	n/a
302.891	0.105	605782	keystroke_s	s	n/a
303.011	0.105	606022	keystroke_Key.space	Key.space	n/a
303.222	0.0895	606444	keystroke_r	r	n/a
303.296	0.106	606592	keystroke_i	i	n/a
303.4465	0.0745	606893	keystroke_v	v	n/a
303.611	0.075	607222	keystroke_e	e	n/a
303.716	0.1205	607432	keystroke_r	r	n/a
303.8205	0.091	607641	keystroke_Key.space	Key.space	n/a
304.062	0.0595	608124	keystroke_n	n	n/a
304.196	0.1355	608392	keystroke_o	o	n/a
304.3165	0.09	608633	keystroke_v	v	n/a
304.4815	0.12	608963	keystroke_e	e	n/a
304.5865	0.0895	609173	keystroke_m	m	n/a
304.797	0.104	609594	keystroke_b	b	n/a
304.886	0.075	609772	keystroke_e	e	n/a
304.991	0.121	609982	keystroke_r	r	n/a
305.081	0.1505	610162	keystroke_Key.enter	Key.enter	n/a
305.2355	4.288	610471	prompt	n/a	marine grounds binary sales\n
305.906	0.1205	611812	keystroke_m	m	n/a
306.011	0.075	612022	keystroke_a	a	n/a
306.1915	0.09	612383	keystroke_r	r	n/a
306.251	0.075	612502	keystroke_i	i	n/a
306.372	0.119	612744	keystroke_n	n	n/a
306.461	0.135	612922	keystroke_e	e	n/a
306.581	0.09	613162	keystroke_Key.space	Key.space	n/a
306.6565	0.105	613313	keystroke_g	g	n/a
306.791	0.1205	613582	keystroke_r	r	n/a
306.881	0.106	613762	keystroke_o	o	n/a
306.971	0.105	613942	keystroke_u	u	n/a
307.166	0.18	614332	keystroke_n	n	n/a
307.271	0.12	614542	keystroke_d	d	n/a
307.452	0.089	614904	keystroke_s	s	n/a
307.5565	0.09	615113	keystroke_Key.space	Key.space	n/a
307.721	0.105	615442	keystroke_b	b	n/a
307.9315	0.0595	615863	keystroke_i	i	n/a
308.051	0.165	616102	keystroke_n	n	n/a
308.156	0.0905	616312	keystroke_a	a	n/a
308.351	0.12	616702	keystroke_r	r	n/a
308.4865	0.1195	616973	keystroke_y	y	n/a
308.6065	0.1205	617213	keystroke_Key.space	Key.space	n/a
308.742	0.0895	617484	keystroke_s	s	n/a
308.936	0.075	617872	keystroke_a	a	n/a
309.0265	0.09	618053	keystroke_l	l	n/a
309.147	0.104	618294	keystroke_e	e	n/a
309.326	0.121	618652	keystroke_s	s	n/a
309.4305	0.091	618861	keystroke_Key.enter	Key.enter	n/a
309.5275	6.101	619055	prompt	n/a	deadly exceptions boxes border\n
310.3015	0.09	620603	keystroke_d	d	n/a
310.4815	0.105	620963	keystroke_e	e	n/a
310.6915	0.09	621383	keystroke_a	a	n/a
310.8415	0.075	621683	keystroke_d	d	n/a
310.9615	0.105	621923	keystroke_l	l	n/a
311.0965	0.12	622193	keystroke_y	y	n/a
311.217	0.1195	622434	keystroke_Key.space	Key.space	n/a
311.426	0.1205	622852	keystroke_e	e	n/a
311.696	0.061	623392	keystroke_c	c	n/a
312.071	0.105	624142	keystroke_Key.backspace	Key.backspace	n/a
312.192	0.0745	624384	keystroke_x	x	n/a
312.296	0.105	624592	keystroke_c	c	n/a
312.671	0.0905	625342	keystroke_e	e	n/a
312.807	0.105	625614	keystroke_p	p	n/a
312.927	0.135	625854	keystroke_t	t	n/a
313.076	0.195	626152	keystroke_i	i	n/a
313.1965	0.1045	626393	keystroke_o	o	n/a
313.4065	0.136	626813	keystroke_n	n	n/a
313.5265	0.105	627053	keystroke_s	s	n/a
313.6325	0.104	627265	keystroke_Key.space	Key.space	n/a
313.7215	0.12	627443	keystroke_b	b	n/a
313.9315	0.105	627863	keystroke_o	o	n/a
314.0515	0.0905	628103	keystroke_x	x	n/a
314.277	0.074	628554	keystroke_e	e	n/a
314.501	0.0905	629002	keystroke_s	s	n/a
314.5765	0.075	629153	keystroke_Key.space	Key.space	n/a
314.697	0.09	629394	keystroke_b	b	n/a
314.8775	0.119	629755	keystroke_o	o	n/a
314.967	0.0895	629934	keystroke_r	r	n/a
315.162	0.0755	630324	keystroke_d	d	n/a
315.3265	0.075	630653	keystroke_e	e	n/a
315.4165	0.135	630833	keystroke_r	r	n/a
315.536	0.0905	631072	keystroke_Key.enter	Key.enter	n/a
315.6335	3.325	631267	prompt	n/a	shoes shade army peers\n
316.2265	0.0895	632453	keystroke_s	s	n/a
316.2715	0.1045	632543	keystroke_h	h	n/a
316.451	0.105	632902	keystroke_o	o	n/a
316.4965	0.1045	632993	keystroke_e	e	n/a
316.676	0.1055	633352	keystroke_s	s	n/a
316.751	0.1205	633502	keystroke_Key.space	Key.space	n/a
316.886	0.121	633772	keystroke_s	s	n/a
316.962	0.119	633924	keystroke_h	h	n/a
317.097	0.104	634194	keystroke_a	a	n/a
317.247	0.0895	634494	keystroke_d	d	n/a
317.4415	0.105	634883	keystroke_e	e	n/a
317.5315	0.105	635063	keystroke_Key.space	Key.space	n/a
317.622	0.1045	635244	keystroke_a	a	n/a
317.8465	0.075	635693	keystroke_r	r	n/a
317.9225	0.1045	635845	keystroke_m	m	n/a
318.057	0.089	636114	keystroke_y	y	n/a
318.131	0.1055	636262	keystroke_Key.space	Key.space	n/a
318.2215	0.12	636443	keystroke_p	p	n/a
318.312	0.0745	636624	keystroke_e	e	n/a
318.4915	0.075	636983	keystroke_e	e	n/a
318.5825	0.119	637165	keystroke_r	r	n/a
318.7915	0.09	637583	keystroke_s	s	n/a
318.8815	0.075	637763	keystroke_Key.enter	Key.enter	n/a
318.963	4.0905	637926	prompt	n/a	ascii dust bean secure\n
319.647	0.1045	639294	keystroke_a	a	n/a
319.8715	0.09	639743	keystroke_s	s	n/a
320.0365	0.105	640073	keystroke_c	c	n/a
320.1565	0.09	640313	keystroke_i	i	n/a
320.3365	0.09	640673	keystroke_i	i	n/a
320.4865	0.075	640973	keystroke_Key.space	Key.space	n/a
320.5765	0.12	641153	keystroke_d	d	n/a
320.7115	0.1505	641423	keystroke_u	u	n/a
320.862	0.0895	641724	keystroke_s	s	n/a
321.0715	0.09	642143	keystroke_t	t	n/a
321.1315	0.105	642263	keystroke_Key.space	Key.space	n/a
321.2515	0.165	642503	keystroke_b	b	n/a
321.3265	0.105	642653	keystroke_e	e	n/a
321.5215	0.135	643043	keystroke_a	a	n/a
321.6265	0.135	643253	keystroke_n	n	n/a
321.7465	0.135	643493	keystroke_Key.space	Key.space	n/a
322.1365	0.09	644273	keystroke_s	s	n/a
322.2865	0.09	644573	keystroke_e	e	n/a
322.496	0.075	644992	keystroke_c	c	n/a
322.586	0.135	645172	keystroke_u	u	n/a
322.7065	0.1045	645413	keystroke_r	r	n/a
322.8565	0.1045	645713	keystroke_e	e	n/a
322.962	0.089	645924	keystroke_Key.enter	Key.enter	n/a
323.0565	4.7365	646113	prompt	n/a	russia familiar beads lens\n
323.712	0.104	647424	keystroke_r	r	n/a
323.7715	0.1355	647543	keystroke_u	u	n/a
323.921	0.091	647842	keystroke_s	s	n/a
324.072	0.1195	648144	keystroke_s	s	n/a
324.176	0.1805	648352	keystroke_i	i	n/a
324.3415	0.1045	648683	keystroke_a	a	n/a
324.491	0.12	648982	keystroke_Key.space	Key.space	n/a
324.7315	0.09	649463	keystroke_f	f	n/a
324.912	0.105	649824	keystroke_a	a	n/a
324.987	0.06	649974	keystroke_m	m	n/a
325.137	0.074	650274	keystroke_i	i	n/a
325.317	0.0595	650634	keystroke_l	l	n/a
325.4815	0.105	650963	keystroke_i	i	n/a
325.5265	0.075	651053	keystroke_a	a	n/a
325.6915	0.09	651383	keystroke_r	r	n/a
325.737	0.0745	651474	keystroke_Key.space	Key.space	n/a
325.8565	0.165	651713	keystroke_b	b	n/a
325.9315	0.09	651863	keystroke_e	e	n/a
326.0815	0.09	652163	keystroke_a	a	n/a
326.2315	0.105	652463	keystroke_d	d	n/a
326.3815	0.105	652763	keystroke_s	s	n/a
326.4715	0.105	652943	keystroke_Key.space	Key.space	n/a
326.6065	0.12	653213	keystroke_l	l	n/a
326.6965	0.105	653393	keystroke_e	e	n/a
326.9065	0.06	653813	keystroke_a	a	n/a
327.2665	0.0595	654533	keystroke_Key.backspace	Key.backspace	n/a
327.431	0.1055	654862	keystroke_n	n	n/a
327.507	0.089	655014	keystroke_s	s	n/a
327.701	0.09	655402	keystroke_Key.enter	Key.enter	n/a
327.797	5.381	655594	prompt	n/a	touch lightweight liquid award\n
328.361	0.106	656722	keystroke_t	t	n/a
328.481	0.105	656962	keystroke_o	o	n/a
328.677	0.105	657354	keystroke_u	u	n/a
328.751	0.105	657502	keystroke_c	c	n/a
328.8715	0.135	657743	keystroke_h	h	n/a
328.991	0.1205	657982	keystroke_Key.space	Key.space	n/a
329.2615	0.1205	658523	keystroke_l	l	n/a
329.427	0.105	658854	keystroke_i	i	n/a
329.487	0.1645	658974	keystroke_g	g	n/a
329.6365	0.09	659273	keystroke_h	h	n/a
329.6965	0.105	659393	keystroke_t	t	n/a
329.9365	0.0905	659873	keystroke_w	w	n/a
330.0865	0.105	660173	keystroke_e	e	n/a
330.1925	0.104	660385	keystroke_i	i	n/a
330.3415	0.1055	660683	keystroke_g	g	n/a
330.431	0.121	660862	keystroke_h	h	n/a
330.582	0.15	661164	keystroke_t	t	n/a
330.7465	0.06	661493	keystroke_Key.space	Key.space	n/a
330.882	0.09	661764	keystroke_l	l	n/a
331.1365	0.045	662273	keystroke_i	i	n/a
331.1515	0.12	662303	keystroke_q	q	n/a
331.5265	0.21	663053	keystroke_u	u	n/a
331.6915	0.1655	663383	keystroke_i	i	n/a
331.9165	0.12	663833	keystroke_d	d	n/a
332.0665	0.105	664133	keystroke_Key.space	Key.space	n/a
332.2915	0.075	664583	keystroke_a	a	n/a
332.4565	0.0905	664913	keystroke_w	w	n/a
332.622	0.0595	665244	keystroke_a	a	n/a
332.7865	0.0755	665573	keystroke_r	r	n/a
332.9665	0.1195	665933	keystroke_d	d	n/a
333.0715	0.105	666143	keystroke_Key.enter	Key.enter	n/a
333.182	3.956	666364	prompt	n/a	mario timer chosen planners\n
333.776	0.136	667552	keystroke_m	m	n/a
333.866	0.0905	667732	keystroke_a	a	n/a
334.047	0.09	668094	keystroke_r	r	n/a
334.121	0.1805	668242	keystroke_i	i	n/a
334.197	0.1645	668394	keystroke_o	o	n/a
334.3765	0.105	668753	keystroke_Key.space	Key.space	n/a
334.4365	0.105	668873	keystroke_t	t	n/a
334.5565	0.0595	669113	keystroke_i	i	n/a
334.722	0.15	669444	keystroke_m	m	n/a
334.7975	0.1045	669595	keystroke_e	e	n/a
334.917	0.12	669834	keystroke_r	r	n/a
335.021	0.12	670042	keystroke_Key.space	Key.space	n/a
335.187	0.105	670374	keystroke_c	c	n/a
335.231	0.076	670462	keystroke_h	h	n/a
335.366	0.12	670732	keystroke_o	o	n/a
335.4715	0.0595	670943	keystroke_s	s	n/a
335.6365	0.06	671273	keystroke_e	e	n/a
335.666	0.1505	671332	keystroke_n	n	n/a
335.8465	0.1045	671693	keystroke_Key.space	Key.space	n/a
335.9965	0.09	671993	keystroke_p	p	n/a
336.1915	0.061	672383	keystroke_l	l	n/a
336.2665	0.0755	672533	keystroke_a	a	n/a
336.3865	0.075	672773	keystroke_n	n	n/a
336.5365	0.12	673073	keystroke_n	n	n/a
336.6115	0.09	673223	keystroke_e	e	n/a
336.7315	0.105	673463	keystroke_r	r	n/a
336.942	0.105	673884	keystroke_s	s	n/a
337.032	0.1045	674064	keystroke_Key.enter	Key.enter	n/a
337.1415	6.3575	674283	prompt	n/a	scientist saturn peninsula passing\n
337.7665	0.09	675533	keystroke_s	s	n/a
337.9015	0.09	675803	keystroke_c	c	n/a
337.992	0.1045	675984	keystroke_i	i	n/a
338.1115	0.105	676223	keystroke_e	e	n/a
338.2315	0.1205	676463	keystroke_n	n	n/a
338.367	0.0895	676734	keystroke_t	t	n/a
338.502	0.089	677004	keystroke_i	i	n/a
338.996	0.091	677992	keystroke_s	s	n/a
339.191	0.09	678382	keystroke_t	t	n/a
339.326	0.1355	678652	keystroke_Key.space	Key.space	n/a
339.8665	0.0445	679733	keystroke_s	s	n/a
340.0765	0.0305	680153	keystroke_a	a	n/a
340.2265	0.105	680453	keystroke_t	t	n/a
340.3165	0.09	680633	keystroke_u	u	n/a
340.4365	0.0905	680873	keystroke_r	r	n/a
340.5415	0.12	681083	keystroke_n	n	n/a
340.6465	0.105	681293	keystroke_Key.space	Key.space	n/a
340.7665	0.12	681533	keystroke_p	p	n/a
340.9015	0.105	681803	keystroke_e	e	n/a
341.0365	0.09	682073	keystroke_n	n	n/a
341.3815	0.079	682763	keystroke_i	i	n/a
341.5465	0.09	683093	keystroke_n	n	n/a
341.6665	0.075	683333	keystroke_s	s	n/a
341.7715	0.06	683543	keystroke_u	u	n/a
341.9515	0.09	683903	keystroke_l	l	n/a
342.0715	0.075	684143	keystroke_a	a	n/a
342.2065	0.12	684413	keystroke_Key.space	Key.space	n/a
342.5365	0.12	685073	keystroke_p	p	n/a
342.612	0.0895	685224	keystroke_a	a	n/a
342.8065	0.09	685613	keystroke_s	s	n/a
342.9715	0.105	685943	keystroke_s	s	n/a
343.0315	0.0905	686063	keystroke_i	i	n/a
343.1815	0.09	686363	keystroke_n	n	n/a
343.272	0.0745	686544	keystroke_g	g	n/a
343.3765	0.12	686753	keystroke_Key.enter	Key.enter	n/a
343.5035	5.65	687007	prompt	n/a	metallic requesting toolbox whilst\n
344.156	0.105	688312	keystroke_m	m	n/a
344.231	0.0755	688462	keystroke_e	e	n/a
344.4115	0.0895	688823	keystroke_t	t	n/a
344.6215	0.0595	689243	keystroke_a	a	n/a
344.666	0.09	689332	keystroke_l	l	n/a
344.846	0.0605	689692	keystroke_l	l	n/a
344.966	0.12	689932	keystroke_i	i	n/a
345.0715	0.0895	690143	keystroke_c	c	n/a
345.206	0.135	690412	keystroke_Key.space	Key.space	n/a
345.417	0.104	690834	keystroke_r	r	n/a
345.581	0.12	691162	keystroke_e	e	n/a
345.7915	0.1055	691583	keystroke_q	q	n/a
345.9265	0.1495	691853	keystroke_u	u	n/a
346.0465	0.0895	692093	keystroke_e	e	n/a
346.1965	0.1045	692393	keystroke_s	s	n/a
346.406	0.1365	692812	keystroke_t	t	n/a
346.451	0.075	692902	keystroke_i	i	n/a
346.587	0.119	693174	keystroke_n	n	n/a
346.721	0.0755	693442	keystroke_g	g	n/a
346.8265	0.1645	693653	keystroke_Key.space	Key.space	n/a
347.0065	0.1045	694013	keystroke_t	t	n/a
347.097	0.09	694194	keystroke_o	o	n/a
347.2465	0.12	694493	keystroke_o	o	n/a
347.4265	0.09	694853	keystroke_l	l	n/a
347.6365	0.075	695273	keystroke_b	b	n/a
347.8315	0.06	695663	keystroke_o	o	n/a
347.9665	0.105	695933	keystroke_x	x	n/a
348.1315	0.09	696263	keystroke_Key.space	Key.space	n/a
348.237	0.119	696474	keystroke_w	w	n/a
348.342	0.044	696684	keystroke_h	h	n/a
348.446	0.1055	696892	keystroke_i	i	n/a
348.687	0.1045	697374	keystroke_l	l	n/a
348.777	0.059	697554	keystroke_s	s	n/a
348.957	0.0745	697914	keystroke_t	t	n/a
349.0465	0.105	698093	keystroke_Key.enter	Key.enter	n/a
349.157	5.577	698314	prompt	n/a	harmony forth raymond powered\n
349.857	0.134	699714	keystroke_h	h	n/a
349.961	0.06	699922	keystroke_a	a	n/a
350.1265	0.12	700253	keystroke_r	r	n/a
350.217	0.089	700434	keystroke_m	m	n/a
350.366	0.0755	700732	keystroke_o	o	n/a
350.5165	0.1195	701033	keystroke_n	n	n/a
350.666	0.1055	701332	keystroke_y	y	n/a
350.786	0.09	701572	keystroke_Key.space	Key.space	n/a
350.951	0.136	701902	keystroke_f	f	n/a
351.057	0.09	702114	keystroke_o	o	n/a
351.132	0.1195	702264	keystroke_r	r	n/a
351.2665	0.1355	702533	keystroke_t	t	n/a
351.3715	0.1195	702743	keystroke_h	h	n/a
351.477	0.149	702954	keystroke_Key.space	Key.space	n/a
351.612	0.09	703224	keystroke_r	r	n/a
351.851	0.076	703702	keystroke_a	a	n/a
351.9115	0.12	703823	keystroke_y	y	n/a
352.137	0.09	704274	keystroke_m	m	n/a
352.302	0.105	704604	keystroke_o	o	n/a
352.452	0.105	704904	keystroke_n	n	n/a
352.526	0.09	705052	keystroke_d	d	n/a
352.631	0.135	705262	keystroke_Key.space	Key.space	n/a
352.721	0.2255	705442	keystroke_p	p	n/a
352.901	0.0905	705802	keystroke_i	i	n/a
352.902	0.134	705804	keystroke_o	o	n/a
353.5315	0.075	707063	keystroke_Key.backspace	Key.backspace	n/a
353.6815	0.075	707363	keystroke_Key.backspace	Key.backspace	n/a
353.7865	0.15	707573	keystroke_o	o	n/a
353.9065	0.09	707813	keystroke_w	w	n/a
354.0265	0.105	708053	keystroke_e	e	n/a
354.1765	0.105	708353	keystroke_r	r	n/a
354.3865	0.0905	708773	keystroke_e	e	n/a
354.567	0.0895	709134	keystroke_d	d	n/a
354.6265	0.105	709253	keystroke_Key.enter	Key.enter	n/a
354.7375	4.2405	709475	prompt	n/a	today eric empire deutsch\n
355.287	0.0745	710574	keystroke_t	t	n/a
355.436	0.09	710872	keystroke_o	o	n/a
355.556	0.0755	711112	keystroke_d	d	n/a
355.7665	0.0905	711533	keystroke_a	a	n/a
355.811	0.136	711622	keystroke_y	y	n/a
355.901	0.1355	711802	keystroke_Key.space	Key.space	n/a
356.0065	0.135	712013	keystroke_e	e	n/a
356.186	0.0905	712372	keystroke_r	r	n/a
356.2915	0.1055	712583	keystroke_i	i	n/a
356.412	0.12	712824	keystroke_c	c	n/a
356.5165	0.1045	713033	keystroke_Key.space	Key.space	n/a
356.651	0.106	713302	keystroke_e	e	n/a
356.7265	0.0905	713453	keystroke_m	m	n/a
356.891	0.1055	713782	keystroke_p	p	n/a
357.0715	0.1205	714143	keystroke_i	i	n/a
357.161	0.09	714322	keystroke_r	r	n/a
357.282	0.135	714564	keystroke_e	e	n/a
357.4015	0.105	714803	keystroke_Key.space	Key.space	n/a
357.537	0.0895	715074	keystroke_d	d	n/a
357.717	0.1045	715434	keystroke_e	e	n/a
357.8365	0.1055	715673	keystroke_u	u	n/a
358.0165	0.09	716033	keystroke_t	t	n/a
358.4215	0.09	716843	keystroke_s	s	n/a
358.602	0.0895	717204	keystroke_c	c	n/a
358.6465	0.1195	717293	keystroke_h	h	n/a
358.8565	0.12	717713	keystroke_Key.enter	Key.enter	n/a
358.9845	5.109	717969	prompt	n/a	explanation remarks chart chess\n
359.577	0.1045	719154	keystroke_e	e	n/a
359.8015	0.135	719603	keystroke_x	x	n/a
359.8465	0.091	719693	keystroke_p	p	n/a
360.042	0.1045	720084	keystroke_l	l	n/a
360.1615	0.09	720323	keystroke_a	a	n/a
360.2965	0.12	720593	keystroke_n	n	n/a
360.4465	0.0895	720893	keystroke_a	a	n/a
360.671	0.1055	721342	keystroke_t	t	n/a
360.761	0.12	721522	keystroke_i	i	n/a
360.806	0.121	721612	keystroke_o	o	n/a
360.9715	0.1345	721943	keystroke_n	n	n/a
361.121	0.1355	722242	keystroke_Key.space	Key.space	n/a
361.2865	0.1045	722573	keystroke_r	r	n/a
361.421	0.12	722842	keystroke_e	e	n/a
361.5265	0.1045	723053	keystroke_m	m	n/a
361.676	0.1055	723352	keystroke_a	a	n/a
361.9165	0.075	723833	keystroke_r	r	n/a
362.0365	0.075	724073	keystroke_k	k	n/a
362.201	0.0755	724402	keystroke_s	s	n/a
362.3065	0.1045	724613	keystroke_Key.space	Key.space	n/a
362.427	0.0595	724854	keystroke_c	c	n/a
362.531	0.1355	725062	keystroke_h	h	n/a
362.621	0.075	725242	keystroke_a	a	n/a
362.816	0.076	725632	keystroke_r	r	n/a
362.996	0.075	725992	keystroke_t	t	n/a
363.086	0.075	726172	keystroke_Key.space	Key.space	n/a
363.267	0.1195	726534	keystroke_c	c	n/a
363.3565	0.119	726713	keystroke_h	h	n/a
363.4915	0.1055	726983	keystroke_e	e	n/a
363.702	0.0745	727404	keystroke_s	s	n/a
363.8815	0.075	727763	keystroke_s	s	n/a
363.9865	0.105	727973	keystroke_Key.enter	Key.enter	n/a
364.0975	11.216	728195	prompt	n/a	tight incorporated italia regularly\n
364.6925	0.089	729385	keystroke_t	t	n/a
364.7965	0.075	729593	keystroke_i	i	n/a
364.9315	0.135	729863	keystroke_g	g	n/a
365.0515	0.12	730103	keystroke_h	h	n/a
365.1565	0.135	730313	keystroke_t	t	n/a
365.276	0.1055	730552	keystroke_Key.space	Key.space	n/a
365.3665	0.09	730733	keystroke_i	i	n/a
365.5015	0.1205	731003	keystroke_n	n	n/a
365.6365	0.0905	731273	keystroke_c	c	n/a
365.8165	0.105	731633	keystroke_o	o	n/a
366.1615	0.105	732323	keystroke_r	r	n/a
366.3715	0.24	732743	keystroke_p	p	n/a
366.5365	0.15	733073	keystroke_o	o	n/a
366.7765	0.1355	733553	keystroke_r	r	n/a
367.4815	0.1205	734963	keystroke_a	a	n/a
367.5715	0.165	735143	keystroke_t	t	n/a
367.7205	0.105	735441	keystroke_e	e	n/a
368.0665	0.104	736133	keystroke_d	d	n/a
368.1565	0.074	736313	keystroke_Key.space	Key.space	n/a
368.6215	0.12	737243	keystroke_i	i	n/a
368.8465	0.06	737693	keystroke_r	r	n/a
369.506	0.105	739012	keystroke_Key.backspace	Key.backspace	n/a
369.6565	0.0445	739313	keystroke_t	t	n/a
369.851	0.0905	739702	keystroke_a	a	n/a
369.9565	0.075	739913	keystroke_l	l	n/a
370.0915	0.1055	740183	keystroke_i	i	n/a
370.2115	0.105	740423	keystroke_a	a	n/a
370.3615	0.135	740723	keystroke_Key.space	Key.space	n/a
370.5565	0.09	741113	keystroke_r	r	n/a
370.7065	0.075	741413	keystroke_e	e	n/a
370.872	0.0895	741744	keystroke_g	g	n/a
370.9315	0.075	741863	keystroke_u	u	n/a
371.1115	0.105	742223	keystroke_l	l	n/a
371.1565	0.075	742313	keystroke_a	a	n/a
371.3215	0.0755	742643	keystroke_r	r	n/a
372.2215	0.09	744443	keystroke_Key.backspace	Key.backspace	n/a
372.852	0.119	745704	keystroke_l	l	n/a
373.376	0.075	746752	keystroke_Key.backspace	Key.backspace	n/a
373.571	0.105	747142	keystroke_r	r	n/a
373.8865	0.12	747773	keystroke_l	l	n/a
374.2765	0.075	748553	keystroke_y	y	n/a
375.191	0.12	750382	keystroke_Key.enter	Key.enter	n/a
375.318	5.6205	750636	prompt	n/a	admin paragraph effective behind\n
376.047	0.1345	752094	keystroke_a	a	n/a
376.257	0.1045	752514	keystroke_d	d	n/a
376.2865	0.1045	752573	keystroke_m	m	n/a
376.481	0.061	752962	keystroke_i	i	n/a
376.586	0.136	753172	keystroke_n	n	n/a
376.7365	0.105	753473	keystroke_Key.space	Key.space	n/a
376.8865	0.12	753773	keystroke_p	p	n/a
376.9765	0.1045	753953	keystroke_a	a	n/a
377.187	0.0895	754374	keystroke_r	r	n/a
377.3665	0.15	754733	keystroke_a	a	n/a
377.5465	0.105	755093	keystroke_g	g	n/a
377.8315	0.09	755663	keystroke_r	r	n/a
377.9965	0.1195	755993	keystroke_a	a	n/a
378.0865	0.0895	756173	keystroke_p	p	n/a
378.2515	0.1195	756503	keystroke_h	h	n/a
378.356	0.1205	756712	keystroke_Key.space	Key.space	n/a
378.491	0.075	756982	keystroke_e	e	n/a
378.671	0.075	757342	keystroke_f	f	n/a
378.822	0.0745	757644	keystroke_f	f	n/a
378.9265	0.105	757853	keystroke_e	e	n/a
379.1065	0.09	758213	keystroke_c	c	n/a
379.3315	0.075	758663	keystroke_t	t	n/a
379.4065	0.12	758813	keystroke_i	i	n/a
379.542	0.06	759084	keystroke_v	v	n/a
379.6765	0.1355	759353	keystroke_e	e	n/a
379.796	0.0905	759592	keystroke_Key.space	Key.space	n/a
379.947	0.12	759894	keystroke_b	b	n/a
380.171	0.12	760342	keystroke_e	e	n/a
380.3365	0.0905	760673	keystroke_h	h	n/a
380.4865	0.0905	760973	keystroke_i	i	n/a
380.622	0.105	761244	keystroke_n	n	n/a
380.666	0.151	761332	keystroke_d	d	n/a
380.832	0.104	761664	keystroke_Key.enter	Key.enter	n/a
380.9425	4.3905	761885	prompt	n/a	honor liability trends homes\n
381.4765	0.0745	762953	keystroke_h	h	n/a
381.6415	0.12	763283	keystroke_o	o	n/a
381.8065	0.0755	763613	keystroke_n	n	n/a
381.941	0.0905	763882	keystroke_o	o	n/a
382.046	0.12	764092	keystroke_r	r	n/a
382.136	0.075	764272	keystroke_Key.space	Key.space	n/a
382.2565	0.0755	764513	keystroke_l	l	n/a
382.391	0.12	764782	keystroke_i	i	n/a
382.527	0.104	765054	keystroke_a	a	n/a
382.6015	0.0745	765203	keystroke_b	b	n/a
382.751	0.091	765502	keystroke_i	i	n/a
382.9455	0.0755	765891	keystroke_l	l	n/a
383.067	0.1195	766134	keystroke_i	i	n/a
383.172	0.089	766344	keystroke_t	t	n/a
383.3355	0.1065	766671	keystroke_y	y	n/a
383.4265	0.105	766853	keystroke_Key.space	Key.space	n/a
383.547	0.1195	767094	keystroke_t	t	n/a
383.8015	0.105	767603	keystroke_r	r	n/a
383.981	0.106	767962	keystroke_e	e	n/a
384.101	0.105	768202	keystroke_n	n	n/a
384.191	0.105	768382	keystroke_d	d	n/a
384.342	0.1195	768684	keystroke_s	s	n/a
384.4315	0.09	768863	keystroke_Key.space	Key.space	n/a
384.536	0.0755	769072	keystroke_h	h	n/a
384.6865	0.09	769373	keystroke_o	o	n/a
384.851	0.1205	769702	keystroke_m	m	n/a
384.9265	0.12	769853	keystroke_e	e	n/a
385.091	0.105	770182	keystroke_s	s	n/a
385.197	0.1345	770394	keystroke_Key.enter	Key.enter	n/a
385.336	5.337	770672	prompt	n/a	psychiatry growing hewlett lips\n
385.976	0.105	771952	keystroke_p	p	n/a
386.186	0.121	772372	keystroke_s	s	n/a
386.337	0.1045	772674	keystroke_y	y	n/a
386.487	0.1045	772974	keystroke_c	c	n/a
386.5765	0.1055	773153	keystroke_h	h	n/a
386.7415	0.105	773483	keystroke_i	i	n/a
386.892	0.1195	773784	keystroke_a	a	n/a
387.1315	0.09	774263	keystroke_t	t	n/a
387.267	0.1045	774534	keystroke_r	r	n/a
387.3265	0.12	774653	keystroke_y	y	n/a
387.4315	0.12	774863	keystroke_Key.space	Key.space	n/a
387.5665	0.09	775133	keystroke_g	g	n/a
387.7015	0.135	775403	keystroke_r	r	n/a
387.8515	0.075	775703	keystroke_o	o	n/a
387.9415	0.09	775883	keystroke_w	w	n/a
388.062	0.0895	776124	keystroke_i	i	n/a
388.2115	0.135	776423	keystroke_n	n	n/a
388.3315	0.075	776663	keystroke_g	g	n/a
388.4215	0.105	776843	keystroke_Key.space	Key.space	n/a
388.5865	0.12	777173	keystroke_h	h	n/a
388.677	0.135	777354	keystroke_e	e	n/a
389.1565	0.105	778313	keystroke_w	w	n/a
389.2765	0.1045	778553	keystroke_l	l	n/a
389.441	0.0755	778882	keystroke_e	e	n/a
389.652	0.0295	779304	keystroke_t	t	n/a
389.802	0.0895	779604	keystroke_t	t	n/a
389.876	0.0905	779752	keystroke_Key.space	Key.space	n/a
389.997	0.104	779994	keystroke_l	l	n/a
390.176	0.136	780352	keystroke_i	i	n/a
390.371	0.121	780742	keystroke_p	p	n/a
390.492	0.0895	780984	keystroke_s	s	n/a
390.597	0.0745	781194	keystroke_Key.enter	Key.enter	n/a
390.6765	6.9415	781353	prompt	n/a	buttons exclude chapters convertible\n
391.302	0.0895	782604	keystroke_b	b	n/a
391.4515	0.12	782903	keystroke_u	u	n/a
391.5865	0.105	783173	keystroke_t	t	n/a
391.7665	0.12	783533	keystroke_t	t	n/a
391.8265	0.1795	783653	keystroke_o	o	n/a
392.111	0.1355	784222	keystroke_n	n	n/a
392.231	0.0905	784462	keystroke_s	s	n/a
392.3965	0.09	784793	keystroke_Key.space	Key.space	n/a
392.4415	0.1055	784883	keystroke_e	e	n/a
392.696	0.0905	785392	keystroke_x	x	n/a
392.817	0.1045	785634	keystroke_c	c	n/a
392.9365	0.09	785873	keystroke_l	l	n/a
393.7465	0.1205	787493	keystroke_u	u	n/a
393.851	0.09	787702	keystroke_d	d	n/a
394.0315	0.105	788063	keystroke_e	e	n/a
394.1065	0.135	788213	keystroke_Key.space	Key.space	n/a
394.2715	0.09	788543	keystroke_c	c	n/a
394.3465	0.09	788693	keystroke_h	h	n/a
394.4815	0.06	788963	keystroke_a	a	n/a
394.5565	0.09	789113	keystroke_p	p	n/a
394.6765	0.1055	789353	keystroke_t	t	n/a
394.8565	0.12	789713	keystroke_e	e	n/a
395.0815	0.075	790163	keystroke_r	r	n/a
395.2765	0.1055	790553	keystroke_s	s	n/a
395.367	0.075	790734	keystroke_Key.space	Key.space	n/a
395.517	0.1195	791034	keystroke_c	c	n/a
395.621	0.061	791242	keystroke_o	o	n/a
395.772	0.149	791544	keystroke_n	n	n/a
396.177	0.1045	792354	keystroke_v	v	n/a
396.4015	0.075	792803	keystroke_e	e	n/a
396.522	0.1045	793044	keystroke_r	r	n/a
396.7165	0.135	793433	keystroke_t	t	n/a
396.8665	0.09	793733	keystroke_i	i	n/a
397.0765	0.06	794153	keystroke_b	b	n/a
397.2565	0.1505	794513	keystroke_l	l	n/a
397.347	0.105	794694	keystroke_e	e	n/a
397.497	0.1195	794994	keystroke_Key.enter	Key.enter	n/a
397.6225	4.616	795245	prompt	n/a	variations call tear shared\n
398.367	0.0895	796734	keystroke_v	v	n/a
398.547	0.1045	797094	keystroke_a	a	n/a
398.7415	0.09	797483	keystroke_r	r	n/a
398.9065	0.12	797813	keystroke_i	i	n/a
399.0865	0.09	798173	keystroke_a	a	n/a
399.3415	0.09	798683	keystroke_t	t	n/a
399.4015	0.15	798803	keystroke_i	i	n/a
399.4915	0.105	798983	keystroke_o	o	n/a
399.7015	0.09	799403	keystroke_n	n	n/a
399.7765	0.075	799553	keystroke_s	s	n/a
399.8815	0.105	799763	keystroke_Key.space	Key.space	n/a
399.9715	0.045	799943	keystroke_c	c	n/a
400.181	0.0605	800362	keystroke_a	a	n/a
400.227	0.0745	800454	keystroke_l	l	n/a
400.376	0.0755	800752	keystroke_l	l	n/a
400.481	0.12	800962	keystroke_Key.space	Key.space	n/a
400.542	0.089	801084	keystroke_t	t	n/a
400.707	0.104	801414	keystroke_e	e	n/a
400.917	0.075	801834	keystroke_a	a	n/a
401.081	0.106	802162	keystroke_r	r	n/a
401.2015	0.0755	802403	keystroke_Key.space	Key.space	n/a
401.337	0.075	802674	keystroke_s	s	n/a
401.457	0.135	802914	keystroke_h	h	n/a
401.577	0.06	803154	keystroke_a	a	n/a
401.727	0.09	803454	keystroke_r	r	n/a
401.862	0.105	803724	keystroke_e	e	n/a
402.027	0.105	804054	keystroke_d	d	n/a
402.147	0.089	804294	keystroke_Key.enter	Key.enter	n/a
402.2425	5.276	804485	prompt	n/a	black twiki publish nightmare\n
402.8815	0.1205	805763	keystroke_b	b	n/a
403.0915	0.12	806183	keystroke_l	l	n/a
403.1665	0.0755	806333	keystroke_a	a	n/a
403.317	0.089	806634	keystroke_c	c	n/a
403.362	0.104	806724	keystroke_k	k	n/a
403.496	0.1055	806992	keystroke_Key.space	Key.space	n/a
403.617	0.119	807234	keystroke_t	t	n/a
403.782	0.1195	807564	keystroke_w	w	n/a
403.916	0.06	807832	keystroke_i	i	n/a
404.1865	0.12	808373	keystroke_k	k	n/a
404.3815	0.0905	808763	keystroke_i	i	n/a
404.5015	0.12	809003	keystroke_Key.space	Key.space	n/a
404.6815	0.09	809363	keystroke_p	p	n/a
404.8315	0.09	809663	keystroke_u	u	n/a
404.967	0.1345	809934	keystroke_b	b	n/a
405.1165	0.09	810233	keystroke_l	l	n/a
405.2815	0.0905	810563	keystroke_i	i	n/a
405.402	0.0595	810804	keystroke_c	c	n/a
405.731	0.06	811462	keystroke_Key.backspace	Key.backspace	n/a
405.881	0.106	811762	keystroke_s	s	n/a
405.942	0.135	811884	keystroke_h	h	n/a
406.091	0.0905	812182	keystroke_Key.space	Key.space	n/a
406.316	0.075	812632	keystroke_n	n	n/a
406.482	0.105	812964	keystroke_i	i	n/a
406.5715	0.1045	813143	keystroke_g	g	n/a
406.691	0.091	813382	keystroke_h	h	n/a
406.782	0.134	813564	keystroke_t	t	n/a
406.9315	0.1195	813863	keystroke_m	m	n/a
407.0365	0.0755	814073	keystroke_a	a	n/a
407.216	0.105	814432	keystroke_r	r	n/a
407.367	0.0895	814734	keystroke_e	e	n/a
407.4115	0.105	814823	keystroke_Key.enter	Key.enter	n/a
407.523	5.4255	815046	prompt	n/a	shape previews preparing convertible\n
408.147	0.119	816294	keystroke_s	s	n/a
408.237	0.09	816474	keystroke_h	h	n/a
408.372	0.059	816744	keystroke_a	a	n/a
408.476	0.0905	816952	keystroke_p	p	n/a
408.6265	0.105	817253	keystroke_e	e	n/a
408.701	0.1205	817402	keystroke_Key.space	Key.space	n/a
408.837	0.1495	817674	keystroke_p	p	n/a
408.9715	0.105	817943	keystroke_r	r	n/a
409.0915	0.105	818183	keystroke_e	e	n/a
409.3315	0.0755	818663	keystroke_v	v	n/a
409.407	0.09	818814	keystroke_i	i	n/a
409.5265	0.1195	819053	keystroke_e	e	n/a
409.6765	0.1345	819353	keystroke_w	w	n/a
409.8715	0.12	819743	keystroke_s	s	n/a
409.961	0.106	819922	keystroke_Key.space	Key.space	n/a
410.037	0.12	820074	keystroke_p	p	n/a
410.187	0.105	820374	keystroke_r	r	n/a
410.337	0.135	820674	keystroke_e	e	n/a
410.427	0.12	820854	keystroke_p	p	n/a
410.591	0.105	821182	keystroke_a	a	n/a
410.7865	0.1055	821573	keystroke_r	r	n/a
410.861	0.0755	821722	keystroke_i	i	n/a
410.997	0.1195	821994	keystroke_n	n	n/a
411.1015	0.075	822203	keystroke_g	g	n/a
411.221	0.106	822442	keystroke_Key.space	Key.space	n/a
411.3425	0.104	822685	keystroke_c	c	n/a
411.4165	0.09	822833	keystroke_o	o	n/a
411.5965	0.0905	823193	keystroke_n	n	n/a
411.672	0.075	823344	keystroke_v	v	n/a
411.8515	0.09	823703	keystroke_e	e	n/a
411.9715	0.105	823943	keystroke_r	r	n/a
412.1815	0.105	824363	keystroke_t	t	n/a
412.272	0.075	824544	keystroke_i	i	n/a
412.4215	0.09	824843	keystroke_b	b	n/a
412.6315	0.135	825263	keystroke_l	l	n/a
412.7215	0.135	825443	keystroke_e	e	n/a
412.8715	0.075	825743	keystroke_Key.enter	Key.enter	n/a
412.954	5.994	825908	prompt	n/a	retired palestine says lenses\n
413.651	0.0155	827302	keystroke_r	r	n/a
413.682	0.1045	827364	keystroke_e	e	n/a
413.817	0.1045	827634	keystroke_i	i	n/a
413.997	0.1045	827994	keystroke_t	t	n/a
414.177	0.1045	828354	keystroke_r	r	n/a
414.536	0.06	829072	keystroke_Key.backspace	Key.backspace	n/a
414.7015	0.0595	829403	keystroke_Key.backspace	Key.backspace	n/a
414.836	0.1055	829672	keystroke_Key.backspace	Key.backspace	n/a
414.9265	0.1055	829853	keystroke_t	t	n/a
415.0165	0.1645	830033	keystroke_i	i	n/a
415.1965	0.075	830393	keystroke_r	r	n/a
415.3915	0.09	830783	keystroke_e	e	n/a
415.5565	0.12	831113	keystroke_d	d	n/a
415.6465	0.12	831293	keystroke_Key.space	Key.space	n/a
415.7815	0.12	831563	keystroke_p	p	n/a
415.9315	0.06	831863	keystroke_a	a	n/a
416.291	0.1355	832582	keystroke_l	l	n/a
416.412	0.104	832824	keystroke_e	e	n/a
416.591	0.0755	833182	keystroke_s	s	n/a
416.771	0.136	833542	keystroke_t	t	n/a
416.862	0.09	833724	keystroke_i	i	n/a
417.056	0.1055	834112	keystroke_n	n	n/a
417.116	0.1205	834232	keystroke_e	e	n/a
417.2215	0.105	834443	keystroke_Key.space	Key.space	n/a
