onset	duration	sample	value	key	prompt_text
1.8415	15.7655	3683	prompt	n/a	the quick brown fox jumps over a lazy dog\n
3.4275	0.088	6855	keystroke_t	t	n/a
3.5	0.121	7000	keystroke_h	h	n/a
3.5755	0.1645	7151	keystroke_e	e	n/a
3.68	0.1955	7360	keystroke_Key.space	Key.space	n/a
3.83	0.151	7660	keystroke_q	q	n/a
3.9655	0.1045	7931	keystroke_u	u	n/a
4.071	0.0895	8142	keystroke_i	i	n/a
4.22	0.135	8440	keystroke_c	c	n/a
4.371	0.119	8742	keystroke_k	k	n/a
4.46	0.165	8920	keystroke_Key.space	Key.space	n/a
4.6105	0.0905	9221	keystroke_b	b	n/a
4.881	0.0885	9762	keystroke_r	r	n/a
5.045	0.1045	10090	keystroke_o	o	n/a
5.451	0.1645	10902	keystroke_w	w	n/a
5.5705	0.105	11141	keystroke_n	n	n/a
9.085	0.001	18170	keystroke_Key.space	Key.space	n/a
12.386	0.0575	24772	keystroke_f	f	n/a
12.549	0.0895	25098	keystroke_o	o	n/a
12.6085	0.1205	25217	keystroke_x	x	n/a
12.758	0.1505	25516	keystroke_Key.space	Key.space	n/a
13.0885	0.0605	26177	keystroke_j	j	n/a
13.2695	0.059	26539	keystroke_u	u	n/a
13.7185	0.12	27437	keystroke_m	m	n/a
14.064	0.075	28128	keystroke_p	p	n/a
14.244	0.105	28488	keystroke_s	s	n/a
14.318	0.18	28636	keystroke_Key.space	Key.space	n/a
14.499	0.09	28998	keystroke_o	o	n/a
14.604	0.09	29208	keystroke_v	v	n/a
14.8735	0.12	29747	keystroke_e	e	n/a
14.949	0.135	29898	keystroke_r	r	n/a
15.1285	0.15	30257	keystroke_Key.space	Key.space	n/a
15.264	0.1655	30528	keystroke_a	a	n/a
15.3985	0.1345	30797	keystroke_Key.space	Key.space	n/a
15.549	0.1345	31098	keystroke_l	l	n/a
15.6985	0.1195	31397	keystroke_a	a	n/a
15.879	0.075	31758	keystroke_a	a	n/a
16.1035	0.0305	32207	keystroke_z	z	n/a
16.359	0.0595	32718	keystroke_Key.backspace	Key.backspace	n/a
16.5085	0.09	33017	keystroke_Key.backspace	Key.backspace	n/a
16.644	0.1195	33288	keystroke_z	z	n/a
16.779	0.0595	33558	keystroke_y	y	n/a
16.9135	0.1655	33827	keystroke_Key.space	Key.space	n/a
17.064	0.15	34128	keystroke_d	d	n/a
17.228	0.106	34456	keystroke_o	o	n/a
17.3485	0.075	34697	keystroke_g	g	n/a
17.5285	0.0755	35057	keystroke_Key.enter	Key.enter	n/a
17.6135	6.2325	35227	prompt	n/a	oclc support utils caused\n
18.369	0.075	36738	keystroke_o	o	n/a
18.459	0.12	36918	keystroke_c	c	n/a
18.8195	0.0895	37639	keystroke_l	l	n/a
18.9685	0.0905	37937	keystroke_c	c	n/a
19.284	0.12	38568	keystroke_Key.space	Key.space	n/a
19.554	0.03	39108	keystroke_c	c	n/a
19.764	0.105	39528	keystroke_s	s	n/a
20.109	0.06	40218	keystroke_Key.backspace	Key.backspace	n/a
20.259	0.089	40518	keystroke_Key.backspace	Key.backspace	n/a
20.4085	0.105	40817	keystroke_s	s	n/a
20.5135	0.105	41027	keystroke_u	u	n/a
20.664	0.0895	41328	keystroke_p	p	n/a
20.814	0.135	41628	keystroke_p	p	n/a
21.0395	0.1045	42079	keystroke_o	o	n/a
21.204	0.075	42408	keystroke_r	r	n/a
21.3835	0.105	42767	keystroke_t	t	n/a
21.503	0.1355	43006	keystroke_Key.space	Key.space	n/a
21.7285	0.0605	43457	keystroke_u	u	n/a
21.969	0.075	43938	keystroke_t	t	n/a
22.1785	0.18	44357	keystroke_i	i	n/a
22.314	0.135	44628	keystroke_l	l	n/a
22.464	0.1495	44928	keystroke_s	s	n/a
22.584	0.1495	45168	keystroke_Key.space	Key.space	n/a
22.823	0.106	45646	keystroke_c	c	n/a
22.9885	0.1505	45977	keystroke_a	a	n/a
23.1235	0.1205	46247	keystroke_u	u	n/a
23.259	0.12	46518	keystroke_s	s	n/a
23.364	0.1045	46728	keystroke_e	e	n/a
23.5885	0.0905	47177	keystroke_d	d	n/a
23.739	0.1045	47478	keystroke_Key.enter	Key.enter	n/a
23.8535	5.062	47707	prompt	n/a	molecules show textbook is\n
24.414	0.105	48828	keystroke_m	m	n/a
24.594	0.1045	49188	keystroke_o	o	n/a
24.8335	0.075	49667	keystroke_l	l	n/a
24.9835	0.1055	49967	keystroke_e	e	n/a
25.2385	0.09	50477	keystroke_c	c	n/a
25.3885	0.075	50777	keystroke_u	u	n/a
25.554	0.12	51108	keystroke_l	l	n/a
25.644	0.105	51288	keystroke_e	e	n/a
25.854	0.12	51708	keystroke_s	s	n/a
25.943	0.1805	51886	keystroke_Key.space	Key.space	n/a
26.094	0.15	52188	keystroke_s	s	n/a
26.2285	0.106	52457	keystroke_h	h	n/a
26.349	0.09	52698	keystroke_o	o	n/a
26.439	0.135	52878	keystroke_w	w	n/a
26.5585	0.18	53117	keystroke_Key.space	Key.space	n/a
26.694	0.105	53388	keystroke_t	t	n/a
26.8735	0.0905	53747	keystroke_e	e	n/a
27.0835	0.1055	54167	keystroke_x	x	n/a
27.2935	0.06	54587	keystroke_t	t	n/a
27.5485	0.0905	55097	keystroke_b	b	n/a
27.7135	0.0605	55427	keystroke_o	o	n/a
27.8635	0.09	55727	keystroke_o	o	n/a
28.059	0.075	56118	keystroke_k	k	n/a
28.3135	0.1205	56627	keystroke_Key.space	Key.space	n/a
28.509	0.105	57018	keystroke_i	i	n/a
28.629	0.09	57258	keystroke_s	s	n/a
28.794	0.12	57588	keystroke_Key.enter	Key.enter	n/a
28.9215	7.0895	57843	prompt	n/a	compression praise older services\n
29.529	0.135	59058	keystroke_c	c	n/a
29.649	0.18	59298	keystroke_o	o	n/a
29.799	0.12	59598	keystroke_m	m	n/a
29.994	0.105	59988	keystroke_p	p	n/a
30.1145	0.1045	60229	keystroke_r	r	n/a
30.264	0.0905	60528	keystroke_e	e	n/a
30.444	0.0895	60888	keystroke_s	s	n/a
30.6235	0.0905	61247	keystroke_s	s	n/a
30.744	0.135	61488	keystroke_i	i	n/a
30.8485	0.1505	61697	keystroke_o	o	n/a
30.984	0.09	61968	keystroke_n	n	n/a
31.134	0.15	62268	keystroke_Key.space	Key.space	n/a
31.359	0.06	62718	keystroke_p	p	n/a
31.464	0.09	62928	keystroke_r	r	n/a
31.629	0.0605	63258	keystroke_i	i	n/a
32.0185	0.06	64037	keystroke_Key.backspace	Key.backspace	n/a
32.154	0.135	64308	keystroke_a	a	n/a
32.289	0.0745	64578	keystroke_i	i	n/a
32.514	0.1345	65028	keystroke_s	s	n/a
32.6335	0.1505	65267	keystroke_e	e	n/a
32.769	0.1645	65538	keystroke_Key.space	Key.space	n/a
32.9345	0.0895	65869	keystroke_o	o	n/a
33.1445	0.0895	66289	keystroke_l	l	n/a
33.249	0.0905	66498	keystroke_d	d	n/a
33.444	0.135	66888	keystroke_e	e	n/a
33.549	0.105	67098	keystroke_r	r	n/a
33.6235	0.2105	67247	keystroke_Key.space	Key.space	n/a
33.789	0.165	67578	keystroke_s	s	n/a
33.894	0.1795	67788	keystroke_e	e	n/a
34.2985	0.0905	68597	keystroke_r	r	n/a
34.9285	0.06	69857	keystroke_v	v	n/a
35.2735	0.105	70547	keystroke_i	i	n/a
35.364	0.09	70728	keystroke_c	c	n/a
35.559	0.12	71118	keystroke_e	e	n/a
35.724	0.12	71448	keystroke_s	s	n/a
35.933	0.076	71866	keystroke_Key.enter	Key.enter	n/a
36.0165	7.5995	72033	prompt	n/a	merchant indicated again teen\n
36.759	0.1195	73518	keystroke_m	m	n/a
36.8635	0.1355	73727	keystroke_e	e	n/a
36.954	0.09	73908	keystroke_r	r	n/a
37.464	0.135	74928	keystroke_c	c	n/a
37.824	0.135	75648	keystroke_h	h	n/a
38.109	0.164	76218	keystroke_a	a	n/a
38.334	0.104	76668	keystroke_n	n	n/a
38.844	0.1355	77688	keystroke_t	t	n/a
39.0095	0.149	78019	keystroke_Key.space	Key.space	n/a
39.1735	0.181	78347	keystroke_i	i	n/a
39.294	0.12	78588	keystroke_n	n	n/a
39.474	0.15	78948	keystroke_d	d	n/a
39.684	0.09	79368	keystroke_i	i	n/a
39.804	0.135	79608	keystroke_c	c	n/a
39.969	0.0745	79938	keystroke_c	c	n/a
40.689	0.045	81378	keystroke_Key.backspace	Key.backspace	n/a
40.779	0.195	81558	keystroke_a	a	n/a
40.9595	0.0895	81919	keystroke_t	t	n/a
41.214	0.091	82428	keystroke_e	e	n/a
41.439	0.1195	82878	keystroke_d	d	n/a
41.514	0.15	83028	keystroke_Key.space	Key.space	n/a
41.8585	0.1355	83717	keystroke_a	a	n/a
41.9795	0.105	83959	keystroke_g	g	n/a
42.1435	0.121	84287	keystroke_a	a	n/a
42.279	0.1645	84558	keystroke_i	i	n/a
42.3995	0.135	84799	keystroke_n	n	n/a
42.6395	0.195	85279	keystroke_Key.space	Key.space	n/a
42.8035	0.091	85607	keystroke_t	t	n/a
42.9545	0.089	85909	keystroke_e	e	n/a
43.134	0.09	86268	keystroke_e	e	n/a
43.2995	0.104	86599	keystroke_n	n	n/a
43.5385	0.0755	87077	keystroke_Key.enter	Key.enter	n/a
43.621	6.0395	87242	prompt	n/a	tragedy showing univ inquiry\n
44.2295	0.0745	88459	keystroke_t	t	n/a
44.378	0.091	88756	keystroke_r	r	n/a
44.529	0.1495	89058	keystroke_a	a	n/a
44.6945	0.059	89389	keystroke_g	g	n/a
44.8135	0.105	89627	keystroke_e	e	n/a
45.054	0.0905	90108	keystroke_d	d	n/a
45.279	0.0455	90558	keystroke_y	y	n/a
45.354	0.134	90708	keystroke_Key.space	Key.space	n/a
45.504	0.105	91008	keystroke_s	s	n/a
45.579	0.105	91158	keystroke_h	h	n/a
45.6995	0.074	91399	keystroke_o	o	n/a
45.7885	0.1355	91577	keystroke_w	w	n/a
45.9535	0.165	91907	keystroke_i	i	n/a
46.1035	0.09	92207	keystroke_n	n	n/a
46.1485	0.12	92297	keystroke_g	g	n/a
46.2385	0.135	92477	keystroke_Key.space	Key.space	n/a
46.4035	0.105	92807	keystroke_u	u	n/a
46.644	0.045	93288	keystroke_n	n	n/a
46.749	0.1345	93498	keystroke_i	i	n/a
46.8695	0.089	93739	keystroke_v	v	n/a
47.1235	0.1505	94247	keystroke_Key.space	Key.space	n/a
47.304	0.045	94608	keystroke_i	i	n/a
47.529	0.105	95058	keystroke_n	n	n/a
48.054	0.165	96108	keystroke_q	q	n/a
48.204	0.135	96408	keystroke_u	u	n/a
48.369	0.1355	96738	keystroke_i	i	n/a
48.6395	0.0895	97279	keystroke_f	f	n/a
49.059	0.075	98118	keystroke_Key.backspace	Key.backspace	n/a
49.119	0.105	98238	keystroke_r	r	n/a
49.2845	0.0745	98569	keystroke_y	y	n/a
49.554	0.105	99108	keystroke_Key.enter	Key.enter	n/a
49.6665	7.03	99333	prompt	n/a	victims varieties aside tiffany\n
50.3345	0.089	100669	keystroke_v	v	n/a
50.4545	0.1495	100909	keystroke_i	i	n/a
50.5895	0.1045	101179	keystroke_c	c	n/a
50.844	0.06	101688	keystroke_t	t	n/a
50.9635	0.0755	101927	keystroke_i	i	n/a
51.174	0.12	102348	keystroke_m	m	n/a
51.309	0.165	102618	keystroke_s	s	n/a
51.399	0.164	102798	keystroke_Key.space	Key.space	n/a
51.624	0.12	103248	keystroke_v	v	n/a
51.849	0.165	103698	keystroke_a	a	n/a
52.0295	0.0745	104059	keystroke_r	r	n/a
52.164	0.1655	104328	keystroke_i	i	n/a
52.284	0.1205	104568	keystroke_e	e	n/a
52.539	0.09	105078	keystroke_t	t	n/a
52.7345	0.1195	105469	keystroke_i	i	n/a
52.8685	0.1055	105737	keystroke_e	e	n/a
53.0795	0.135	106159	keystroke_s	s	n/a
53.2885	0.135	106577	keystroke_Key.space	Key.space	n/a
53.544	0.1195	107088	keystroke_a	a	n/a
53.7085	0.1205	107417	keystroke_s	s	n/a
53.8435	0.1505	107687	keystroke_i	i	n/a
54.009	0.075	108018	keystroke_e	e	n/a
54.504	0.074	109008	keystroke_Key.backspace	Key.backspace	n/a
54.5495	0.0885	109099	keystroke_d	d	n/a
54.7445	0.09	109489	keystroke_e	e	n/a
54.878	0.211	109756	keystroke_Key.space	Key.space	n/a
55.059	0.09	110118	keystroke_t	t	n/a
55.4785	0.0915	110957	keystroke_i	i	n/a
55.7785	0.09	111557	keystroke_f	f	n/a
55.944	0.1055	111888	keystroke_f	f	n/a
56.0935	0.151	112187	keystroke_a	a	n/a
56.214	0.0745	112428	keystroke_n	n	n/a
56.394	0.0745	112788	keystroke_y	y	n/a
56.6185	0.075	113237	keystroke_Key.enter	Key.enter	n/a
56.7035	7.732	113407	prompt	n/a	long variety freeze vietnamese\n
57.3845	0.0745	114769	keystroke_l	l	n/a
57.549	0.12	115098	keystroke_o	o	n/a
57.6835	0.1055	115367	keystroke_n	n	n/a
57.819	0.135	115638	keystroke_g	g	n/a
57.924	0.1945	115848	keystroke_Key.space	Key.space	n/a
58.1195	0.104	116239	keystroke_v	v	n/a
58.299	0.1945	116598	keystroke_a	a	n/a
58.4795	0.089	116959	keystroke_r	r	n/a
58.6745	0.12	117349	keystroke_i	i	n/a
58.7635	0.121	117527	keystroke_e	e	n/a
59.0345	0.075	118069	keystroke_t	t	n/a
59.1845	0.0745	118369	keystroke_y	y	n/a
59.274	0.1345	118548	keystroke_Key.space	Key.space	n/a
59.499	0.1045	118998	keystroke_f	f	n/a
59.679	0.135	119358	keystroke_e	e	n/a
60.2185	0.075	120437	keystroke_Key.backspace	Key.backspace	n/a
60.3095	0.104	120619	keystroke_r	r	n/a
60.474	0.091	120948	keystroke_e	e	n/a
60.669	0.0605	121338	keystroke_e	e	n/a
60.864	0.1055	121728	keystroke_z	z	n/a
61.1195	0.0445	122239	keystroke_e	e	n/a
61.434	0.12	122868	keystroke_Key.space	Key.space	n/a
61.7185	0.12	123437	keystroke_v	v	n/a
61.9745	0.09	123949	keystroke_i	i	n/a
62.1395	0.1045	124279	keystroke_e	e	n/a
62.4385	0.0905	124877	keystroke_t	t	n/a
63.219	0.0905	126438	keystroke_n	n	n/a
63.3235	0.12	126647	keystroke_a	a	n/a
63.4445	0.1345	126889	keystroke_m	m	n/a
63.6395	0.0895	127279	keystroke_e	e	n/a
63.8945	0.0895	127789	keystroke_s	s	n/a
64.119	0.0755	128238	keystroke_e	e	n/a
64.344	0.09	128688	keystroke_Key.enter	Key.enter	n/a
64.44	7.677	128880	prompt	n/a	dominant gibson whats broader\n
65.0795	0.105	130159	keystroke_d	d	n/a
65.199	0.105	130398	keystroke_o	o	n/a
65.409	0.105	130818	keystroke_m	m	n/a
65.5745	0.1645	131149	keystroke_i	i	n/a
65.6935	0.1205	131387	keystroke_n	n	n/a
65.829	0.135	131658	keystroke_a	a	n/a
66.009	0.015	132018	keystroke_l	l	n/a
66.324	0.06	132648	keystroke_Key.backspace	Key.backspace	n/a
66.564	0.0755	133128	keystroke_n	n	n/a
66.6835	0.1055	133367	keystroke_t	t	n/a
66.9685	0.135	133937	keystroke_Key.space	Key.space	n/a
67.3135	0.105	134627	keystroke_g	g	n/a
67.434	0.1345	134868	keystroke_i	i	n/a
67.584	0.0755	135168	keystroke_v	v	n/a
67.8545	0.105	135709	keystroke_s	s	n/a
67.989	0.195	135978	keystroke_o	o	n/a
68.1235	0.1205	136247	keystroke_n	n	n/a
68.229	0.1645	136458	keystroke_Key.space	Key.space	n/a
68.6195	0.119	137239	keystroke_w	w	n/a
68.7245	0.1195	137449	keystroke_h	h	n/a
68.889	0.1795	137778	keystroke_a	a	n/a
69.0535	0.106	138107	keystroke_t	t	n/a
69.3545	0.12	138709	keystroke_s	s	n/a
69.9995	0.1045	139999	keystroke_Key.space	Key.space	n/a
70.599	0.0745	141198	keystroke_b	b	n/a
70.794	0.075	141588	keystroke_r	r	n/a
70.974	0.105	141948	keystroke_o	o	n/a
71.109	0.135	142218	keystroke_a	a	n/a
71.379	0.09	142758	keystroke_d	d	n/a
71.634	0.1505	143268	keystroke_e	e	n/a
71.7695	0.075	143539	keystroke_r	r	n/a
72.0095	0.105	144019	keystroke_Key.enter	Key.enter	n/a
72.128	6.575	144256	prompt	n/a	soup benz enjoying contractor\n
72.7885	0.121	145577	keystroke_s	s	n/a
72.9235	0.18	145847	keystroke_o	o	n/a
73.0435	0.136	146087	keystroke_u	u	n/a
73.2535	0.1205	146507	keystroke_p	p	n/a
73.4045	0.1345	146809	keystroke_Key.space	Key.space	n/a
74.1535	0.105	148307	keystroke_b	b	n/a
74.364	0.1055	148728	keystroke_e	e	n/a
74.499	0.1045	148998	keystroke_n	n	n/a
74.8145	0.1045	149629	keystroke_z	z	n/a
75.099	0.12	150198	keystroke_Key.space	Key.space	n/a
75.294	0.1205	150588	keystroke_e	e	n/a
75.444	0.09	150888	keystroke_n	n	n/a
75.639	0.09	151278	keystroke_j	j	n/a
75.7745	0.1345	151549	keystroke_o	o	n/a
75.8945	0.1045	151789	keystroke_y	y	n/a
76.104	0.15	152208	keystroke_i	i	n/a
76.239	0.1205	152478	keystroke_n	n	n/a
76.3445	0.135	152689	keystroke_g	g	n/a
76.419	0.1645	152838	keystroke_Key.space	Key.space	n/a
76.644	0.1205	153288	keystroke_c	c	n/a
76.7795	0.165	153559	keystroke_o	o	n/a
76.8845	0.1495	153769	keystroke_n	n	n/a
77.094	0.0905	154188	keystroke_t	t	n/a
77.3045	0.06	154609	keystroke_r	r	n/a
77.6495	0.149	155299	keystroke_a	a	n/a
77.874	0.075	155748	keystroke_c	c	n/a
78.0845	0.0595	156169	keystroke_t	t	n/a
78.2485	0.0915	156497	keystroke_o	o	n/a
78.3695	0.075	156739	keystroke_r	r	n/a
78.624	0.075	157248	keystroke_Key.enter	Key.enter	n/a
78.7075	6.2665	157415	prompt	n/a	auction landing cosmetic returning\n
79.3895	0.15	158779	keystroke_a	a	n/a
79.509	0.1205	159018	keystroke_u	u	n/a
79.764	0.075	159528	keystroke_c	c	n/a
79.974	0.045	159948	keystroke_t	t	n/a
80.124	0.135	160248	keystroke_i	i	n/a
80.229	0.1505	160458	keystroke_o	o	n/a
80.349	0.12	160698	keystroke_n	n	n/a
80.514	0.12	161028	keystroke_Key.space	Key.space	n/a
80.649	0.12	161298	keystroke_l	l	n/a
80.784	0.15	161568	keystroke_a	a	n/a
80.9195	0.1045	161839	keystroke_n	n	n/a
81.0695	0.1045	162139	keystroke_d	d	n/a
81.2045	0.195	162409	keystroke_i	i	n/a
81.3545	0.12	162709	keystroke_n	n	n/a
81.4595	0.135	162919	keystroke_g	g	n/a
81.5645	0.135	163129	keystroke_Key.space	Key.space	n/a
81.8055	0.104	163611	keystroke_c	c	n/a
81.9255	0.134	163851	keystroke_o	o	n/a
82.1195	0.09	164239	keystroke_s	s	n/a
82.2545	0.1795	164509	keystroke_m	m	n/a
82.4195	0.1045	164839	keystroke_e	e	n/a
82.5685	0.091	165137	keystroke_t	t	n/a
82.7045	0.104	165409	keystroke_i	i	n/a
82.839	0.0905	165678	keystroke_c	c	n/a
82.9735	0.2105	165947	keystroke_Key.space	Key.space	n/a
83.169	0.0755	166338	keystroke_r	r	n/a
83.484	0.105	166968	keystroke_e	e	n/a
83.739	0.1055	167478	keystroke_t	t	n/a
83.904	0.0905	167808	keystroke_u	u	n/a
84.0095	0.09	168019	keystroke_r	r	n/a
84.1295	0.105	168259	keystroke_n	n	n/a
84.3995	0.105	168799	keystroke_n	n	n/a
84.5345	0.09	169069	keystroke_g	g	n/a
84.879	0.0895	169758	keystroke_Key.enter	Key.enter	n/a
84.979	7.9425	169958	prompt	n/a	regulation webster self convinced\n
85.7345	0.104	171469	keystroke_r	r	n/a
85.8685	0.1205	171737	keystroke_e	e	n/a
86.139	0.12	172278	keystroke_f	f	n/a
86.3045	0.1195	172609	keystroke_u	u	n/a
86.694	0.0455	173388	keystroke_Key.backspace	Key.backspace	n/a
86.829	0.075	173658	keystroke_Key.backspace	Key.backspace	n/a
86.934	0.09	173868	keystroke_g	g	n/a
87.0685	0.106	174137	keystroke_u	u	n/a
87.2345	0.105	174469	keystroke_l	l	n/a
87.3695	0.165	174739	keystroke_a	a	n/a
87.5345	0.06	175069	keystroke_t	t	n/a
87.729	0.1495	175458	keystroke_i	i	n/a
87.8345	0.1645	175669	keystroke_o	o	n/a
87.984	0.1055	175968	keystroke_n	n	n/a
88.194	0.1205	176388	keystroke_Key.space	Key.space	n/a
88.4195	0.1195	176839	keystroke_w	w	n/a
88.5995	0.0595	177199	keystroke_e	e	n/a
88.869	0.1045	177738	keystroke_b	b	n/a
89.1545	0.09	178309	keystroke_s	s	n/a
89.4095	0.09	178819	keystroke_t	t	n/a
89.559	0.165	179118	keystroke_e	e	n/a
89.679	0.1355	179358	keystroke_r	r	n/a
89.799	0.15	179598	keystroke_Key.space	Key.space	n/a
90.009	0.1505	180018	keystroke_s	s	n/a
90.129	0.1505	180258	keystroke_e	e	n/a
90.309	0.135	180618	keystroke_l	l	n/a
90.429	0.135	180858	keystroke_f	f	n/a
90.549	0.1345	181098	keystroke_Key.space	Key.space	n/a
90.744	0.12	181488	keystroke_c	c	n/a
90.849	0.1655	181698	keystroke_o	o	n/a
90.954	0.12	181908	keystroke_n	n	n/a
91.164	0.1355	182328	keystroke_c	c	n/a
91.824	0.075	183648	keystroke_Key.backspace	Key.backspace	n/a
91.914	0.1055	183828	keystroke_v	v	n/a
92.0645	0.1495	184129	keystroke_i	i	n/a
92.184	0.1355	184368	keystroke_n	n	n/a
92.2595	0.0895	184519	keystroke_c	c	n/a
92.439	0.0905	184878	keystroke_e	e	n/a
92.664	0.0745	185328	keystroke_d	d	n/a
92.8285	0.0905	185657	keystroke_Key.enter	Key.enter	n/a
92.9265	5.3045	185853	prompt	n/a	pierre sand swingers helen\n
93.8795	0.06	187759	keystroke_p	p	n/a
94.0295	0.1195	188059	keystroke_i	i	n/a
94.224	0.1655	188448	keystroke_e	e	n/a
94.3595	0.105	188719	keystroke_r	r	n/a
94.569	0.105	189138	keystroke_r	r	n/a
94.7345	0.1345	189469	keystroke_e	e	n/a
94.899	0.1795	189798	keystroke_Key.space	Key.space	n/a
95.0645	0.15	190129	keystroke_s	s	n/a
95.2595	0.1645	190519	keystroke_a	a	n/a
95.3495	0.135	190699	keystroke_n	n	n/a
95.4685	0.105	190937	keystroke_d	d	n/a
95.5595	0.1945	191119	keystroke_Key.space	Key.space	n/a
95.7245	0.1045	191449	keystroke_s	s	n/a
95.934	0.09	191868	keystroke_w	w	n/a
96.2045	0.15	192409	keystroke_i	i	n/a
96.3995	0.105	192799	keystroke_n	n	n/a
96.5495	0.09	193099	keystroke_g	g	n/a
96.7295	0.12	193459	keystroke_e	e	n/a
96.8195	0.12	193639	keystroke_r	r	n/a
97.0735	0.12	194147	keystroke_s	s	n/a
97.164	0.1345	194328	keystroke_Key.space	Key.space	n/a
97.4185	0.1355	194837	keystroke_h	h	n/a
97.539	0.12	195078	keystroke_e	e	n/a
97.6895	0.1195	195379	keystroke_l	l	n/a
97.794	0.1195	195588	keystroke_e	e	n/a
97.9435	0.09	195887	keystroke_n	n	n/a
98.1695	0.0595	196339	keystroke_Key.enter	Key.enter	n/a
98.2355	9.2355	196471	prompt	n/a	cooperation atmospheric authorization velocity\n
98.964	0.1345	197928	keystroke_c	c	n/a
99.1135	0.076	198227	keystroke_o	o	n/a
99.264	0.1055	198528	keystroke_o	o	n/a
99.6385	0.1055	199277	keystroke_p	p	n/a
99.76	0.1645	199520	keystroke_e	e	n/a
99.8785	0.136	199757	keystroke_r	r	n/a
100.1495	0.074	200299	keystroke_a	a	n/a
100.2385	0.0755	200477	keystroke_t	t	n/a
100.389	0.1655	200778	keystroke_i	i	n/a
100.524	0.18	201048	keystroke_o	o	n/a
100.6745	0.1195	201349	keystroke_n	n	n/a
100.7645	0.15	201529	keystroke_Key.space	Key.space	n/a
100.9295	0.135	201859	keystroke_a	a	n/a
101.1845	0.0745	202369	keystroke_t	t	n/a
101.394	0.135	202788	keystroke_m	m	n/a
101.5595	0.12	203119	keystroke_o	o	n/a
101.7245	0.12	203449	keystroke_s	s	n/a
101.9945	0.09	203989	keystroke_p	p	n/a
102.1445	0.09	204289	keystroke_h	h	n/a
102.3245	0.15	204649	keystroke_e	e	n/a
102.4445	0.12	204889	keystroke_r	r	n/a
102.639	0.0905	205278	keystroke_i	i	n/a
102.745	0.12	205490	keystroke_c	c	n/a
102.9385	0.151	205877	keystroke_Key.space	Key.space	n/a
103.1945	0.1345	206389	keystroke_a	a	n/a
103.344	0.075	206688	keystroke_u	u	n/a
103.5535	0.105	207107	keystroke_t	t	n/a
103.6735	0.106	207347	keystroke_h	h	n/a
103.8685	0.09	207737	keystroke_o	o	n/a
104.0785	0.091	208157	keystroke_r	r	n/a
104.3335	0.106	208667	keystroke_i	i	n/a
104.5295	0.119	209059	keystroke_z	z	n/a
104.8595	0.09	209719	keystroke_a	a	n/a
105.0395	0.075	210079	keystroke_t	t	n/a
105.189	0.15	210378	keystroke_i	i	n/a
105.309	0.1805	210618	keystroke_o	o	n/a
105.459	0.105	210918	keystroke_n	n	n/a
105.534	0.18	211068	keystroke_Key.space	Key.space	n/a
105.6995	0.1045	211399	keystroke_v	v	n/a
105.8785	0.135	211757	keystroke_e	e	n/a
106.1495	0.12	212299	keystroke_l	l	n/a
106.3745	0.089	212749	keystroke_o	o	n/a
106.524	0.12	213048	keystroke_c	c	n/a
106.674	0.0905	213348	keystroke_i	i	n/a
107.0045	0.089	214009	keystroke_t	t	n/a
107.1535	0.091	214307	keystroke_y	y	n/a
107.3635	0.1055	214727	keystroke_Key.enter	Key.enter	n/a
107.477	6.969	214954	prompt	n/a	basketball cubic safari mistake\n
108.2045	0.09	216409	keystroke_b	b	n/a
108.3695	0.1505	216739	keystroke_a	a	n/a
108.5045	0.1345	217009	keystroke_s	s	n/a
108.7145	0.164	217429	keystroke_k	k	n/a
108.804	0.1055	217608	keystroke_e	e	n/a
108.999	0.0605	217998	keystroke_t	t	n/a
109.2395	0.06	218479	keystroke_b	b	n/a
109.4645	0.135	218929	keystroke_a	a	n/a
109.5845	0.06	219169	keystroke_l	l	n/a
109.7345	0.165	219469	keystroke_l	l	n/a
110.0335	0.136	220067	keystroke_Key.space	Key.space	n/a
110.2295	0.12	220459	keystroke_c	c	n/a
110.3785	0.091	220757	keystroke_u	u	n/a
110.619	0.0745	221238	keystroke_b	b	n/a
110.7835	0.105	221567	keystroke_i	i	n/a
110.9345	0.1345	221869	keystroke_c	c	n/a
111.084	0.15	222168	keystroke_Key.space	Key.space	n/a
111.264	0.105	222528	keystroke_s	s	n/a
111.459	0.1505	222918	keystroke_a	a	n/a
111.624	0.075	223248	keystroke_f	f	n/a
111.924	0.15	223848	keystroke_a	a	n/a
112.089	0.09	224178	keystroke_r	r	n/a
112.374	0.106	224748	keystroke_i	i	n/a
112.584	0.12	225168	keystroke_Key.space	Key.space	n/a
112.7195	0.105	225439	keystroke_m	m	n/a
113.14	0.1045	226280	keystroke_i	i	n/a
113.32	0.104	226640	keystroke_s	s	n/a
113.6195	0.0745	227239	keystroke_t	t	n/a
113.799	0.12	227598	keystroke_a	a	n/a
114.0395	0.1205	228079	keystroke_k	k	n/a
114.1435	0.076	228287	keystroke_e	e	n/a
114.3535	0.09	228707	keystroke_Key.enter	Key.enter	n/a
114.4515	5.4995	228903	prompt	n/a	theater owned previews aimed\n
115.1045	0.0895	230209	keystroke_t	t	n/a
115.209	0.12	230418	keystroke_h	h	n/a
115.344	0.12	230688	keystroke_e	e	n/a
115.599	0.15	231198	keystroke_a	a	n/a
115.764	0.075	231528	keystroke_t	t	n/a
115.9445	0.15	231889	keystroke_e	e	n/a
116.0645	0.1345	232129	keystroke_r	r	n/a
116.214	0.12	232428	keystroke_Key.space	Key.space	n/a
116.364	0.1055	232728	keystroke_o	o	n/a
116.4995	0.12	232999	keystroke_w	w	n/a
116.62	0.1345	233240	keystroke_n	n	n/a
116.7845	0.12	233569	keystroke_e	e	n/a
117.024	0.075	234048	keystroke_d	d	n/a
117.0845	0.135	234169	keystroke_Key.space	Key.space	n/a
117.309	0.105	234618	keystroke_p	p	n/a
117.429	0.136	234858	keystroke_r	r	n/a
117.609	0.105	235218	keystroke_e	e	n/a
118.044	0.105	236088	keystroke_v	v	n/a
118.2995	0.1495	236599	keystroke_i	i	n/a
118.4195	0.165	236839	keystroke_o	o	n/a
118.539	0.1205	237078	keystroke_u	u	n/a
118.674	0.1355	237348	keystroke_s	s	n/a
118.794	0.1355	237588	keystroke_Key.space	Key.space	n/a
119.094	0.1655	238188	keystroke_a	a	n/a
119.199	0.1055	238398	keystroke_i	i	n/a
119.4245	0.105	238849	keystroke_m	m	n/a
119.5145	0.1055	239029	keystroke_e	e	n/a
119.7245	0.09	239449	keystroke_d	d	n/a
119.8745	0.075	239749	keystroke_Key.enter	Key.enter	n/a
119.9545	6.6265	239909	prompt	n/a	strict surprise carlo amazon\n
120.609	0.18	241218	keystroke_s	s	n/a
120.759	0.075	241518	keystroke_t	t	n/a
120.9095	0.1045	241819	keystroke_r	r	n/a
121.0295	0.1345	242059	keystroke_i	i	n/a
121.689	0.12	243378	keystroke_c	c	n/a
121.9445	0.0895	243889	keystroke_t	t	n/a
122.0495	0.21	244099	keystroke_Key.space	Key.space	n/a
122.2295	0.12	244459	keystroke_s	s	n/a
122.3645	0.12	244729	keystroke_u	u	n/a
122.4995	0.12	244999	keystroke_r	r	n/a
122.7245	0.105	245449	keystroke_p	p	n/a
122.8745	0.1045	245749	keystroke_r	r	n/a
123.024	0.105	246048	keystroke_i	i	n/a
123.1745	0.1345	246349	keystroke_s	s	n/a
123.354	0.0905	246708	keystroke_e	e	n/a
123.5795	0.0595	247159	keystroke_d	d	n/a
123.6245	0.18	247249	keystroke_Key.space	Key.space	n/a
124.0595	0.135	248119	keystroke_c	c	n/a
124.5395	0.18	249079	keystroke_a	a	n/a
124.7795	0.075	249559	keystroke_r	r	n/a
125.034	0.075	250068	keystroke_l	l	n/a
125.229	0.075	250458	keystroke_o	o	n/a
125.454	0.1195	250908	keystroke_Key.space	Key.space	n/a
125.6045	0.135	251209	keystroke_a	a	n/a
125.6645	0.1645	251329	keystroke_m	m	n/a
125.8595	0.0745	251719	keystroke_a	a	n/a
126.054	0.105	252108	keystroke_z	z	n/a
126.129	0.165	252258	keystroke_o	o	n/a
126.2345	0.135	252469	keystroke_n	n	n/a
126.4745	0.1045	252949	keystroke_Key.enter	Key.enter	n/a
126.5845	5.953	253169	prompt	n/a	jokes we'll websites alaska\n
127.3745	0.105	254749	keystroke_j	j	n/a
127.6445	0.105	255289	keystroke_o	o	n/a
127.8545	0.0895	255709	keystroke_k	k	n/a
127.9595	0.105	255919	keystroke_e	e	n/a
128.244	0.135	256488	keystroke_s	s	n/a
128.394	0.1355	256788	keystroke_Key.space	Key.space	n/a
128.6045	0.149	257209	keystroke_w	w	n/a
128.7095	0.135	257419	keystroke_e	e	n/a
128.8745	0.15	257749	keystroke_'	'	n/a
129.0095	0.105	258019	keystroke_l	l	n/a
129.1745	0.15	258349	keystroke_l	l	n/a
129.3395	0.135	258679	keystroke_Key.space	Key.space	n/a
129.5795	0.135	259159	keystroke_w	w	n/a
129.6995	0.119	259399	keystroke_e	e	n/a
129.9395	0.075	259879	keystroke_b	b	n/a
130.1495	0.12	260299	keystroke_s	s	n/a
130.314	0.105	260628	keystroke_i	i	n/a
130.434	0.0605	260868	keystroke_t	t	n/a
130.629	0.105	261258	keystroke_e	e	n/a
130.8095	0.1345	261619	keystroke_s	s	n/a
130.899	0.1955	261798	keystroke_Key.space	Key.space	n/a
131.0795	0.18	262159	keystroke_a	a	n/a
131.3345	0.12	262669	keystroke_l	l	n/a
131.4995	0.1805	262999	keystroke_a	a	n/a
131.859	0.12	263718	keystroke_s	s	n/a
132.024	0.12	264048	keystroke_k	k	n/a
132.204	0.1205	264408	keystroke_a	a	n/a
132.429	0.1055	264858	keystroke_Key.enter	Key.enter	n/a
132.541	4.57	265082	prompt	n/a	broke vessel road oasis\n
133.149	0.1055	266298	keystroke_b	b	n/a
133.359	0.0905	266718	keystroke_r	r	n/a
133.5245	0.1205	267049	keystroke_o	o	n/a
133.7495	0.105	267499	keystroke_k	k	n/a
133.8245	0.135	267649	keystroke_e	e	n/a
133.9445	0.195	267889	keystroke_Key.space	Key.space	n/a
134.1095	0.09	268219	keystroke_v	v	n/a
134.3635	0.121	268727	keystroke_e	e	n/a
134.4845	0.1205	268969	keystroke_s	s	n/a
134.7095	0.09	269419	keystroke_s	s	n/a
134.8285	0.106	269657	keystroke_e	e	n/a
134.994	0.105	269988	keystroke_l	l	n/a
135.114	0.18	270228	keystroke_Key.space	Key.space	n/a
135.2645	0.1195	270529	keystroke_r	r	n/a
135.399	0.1055	270798	keystroke_o	o	n/a
135.564	0.1355	271128	keystroke_a	a	n/a
135.7445	0.12	271489	keystroke_d	d	n/a
135.8795	0.12	271759	keystroke_Key.space	Key.space	n/a
136.0745	0.1205	272149	keystroke_o	o	n/a
136.2995	0.135	272599	keystroke_a	a	n/a
136.4795	0.105	272959	keystroke_s	s	n/a
136.6445	0.135	273289	keystroke_i	i	n/a
136.7645	0.1205	273529	keystroke_s	s	n/a
137.019	0.0905	274038	keystroke_Key.enter	Key.enter	n/a
137.1185	5.3925	274237	prompt	n/a	bingo index acer deposit\n
137.875	0.089	275750	keystroke_b	b	n/a
137.994	0.1645	275988	keystroke_i	i	n/a
138.1295	0.119	276259	keystroke_n	n	n/a
138.28	0.104	276560	keystroke_g	g	n/a
138.4295	0.1045	276859	keystroke_o	o	n/a
139.1785	0.105	278357	keystroke_Key.space	Key.space	n/a
139.4195	0.15	278839	keystroke_i	i	n/a
139.5395	0.105	279079	keystroke_n	n	n/a
139.6595	0.075	279319	keystroke_d	d	n/a
139.8245	0.075	279649	keystroke_e	e	n/a
140.0495	0.135	280099	keystroke_x	x	n/a
140.1995	0.12	280399	keystroke_Key.space	Key.space	n/a
140.4545	0.105	280909	keystroke_a	a	n/a
140.6045	0.0755	281209	keystroke_c	c	n/a
140.815	0.1645	281630	keystroke_e	e	n/a
140.9645	0.105	281929	keystroke_r	r	n/a
141.0845	0.24	282169	keystroke_Key.space	Key.space	n/a
141.2495	0.105	282499	keystroke_d	d	n/a
141.4295	0.0745	282859	keystroke_e	e	n/a
141.639	0.15	283278	keystroke_p	p	n/a
141.774	0.1205	283548	keystroke_o	o	n/a
141.9395	0.1195	283879	keystroke_s	s	n/a
142.0895	0.1045	284179	keystroke_i	i	n/a
142.195	0.0745	284390	keystroke_t	t	n/a
142.389	0.1205	284778	keystroke_Key.enter	Key.enter	n/a
142.516	7.3	285032	prompt	n/a	opposite involved religious core\n
143.2145	0.18	286429	keystroke_o	o	n/a
143.3345	0.12	286669	keystroke_p	p	n/a
143.529	0.1505	287058	keystroke_p	p	n/a
143.6495	0.1505	287299	keystroke_o	o	n/a
143.9495	0.135	287899	keystroke_s	s	n/a
144.0995	0.15	288199	keystroke_i	i	n/a
144.1895	0.09	288379	keystroke_t	t	n/a
144.3835	0.1065	288767	keystroke_e	e	n/a
144.4745	0.135	288949	keystroke_Key.space	Key.space	n/a
144.6395	0.18	289279	keystroke_i	i	n/a
144.8045	0.09	289609	keystroke_n	n	n/a
144.9845	0.12	289969	keystroke_v	v	n/a
145.1195	0.075	290239	keystroke_o	o	n/a
145.3	0.09	290600	keystroke_l	l	n/a
145.465	0.119	290930	keystroke_v	v	n/a
145.675	0.09	291350	keystroke_e	e	n/a
145.899	0.091	291798	keystroke_d	d	n/a
145.974	0.195	291948	keystroke_Key.space	Key.space	n/a
146.1545	0.105	292309	keystroke_r	r	n/a
146.305	0.134	292610	keystroke_e	e	n/a
146.4545	0.12	292909	keystroke_l	l	n/a
146.634	0.121	293268	keystroke_i	i	n/a
146.815	0.06	293630	keystroke_f	f	n/a
146.83	0.046	293660	keystroke_g	g	n/a
146.95	0.195	293900	keystroke_i	i	n/a
147.115	0.194	294230	keystroke_o	o	n/a
147.37	0.0755	294740	keystroke_s	s	n/a
147.895	0.089	295790	keystroke_u	u	n/a
148.284	0.121	296568	keystroke_s	s	n/a
148.7045	0.149	297409	keystroke_Key.space	Key.space	n/a
148.9285	0.136	297857	keystroke_c	c	n/a
149.0945	0.1795	298189	keystroke_o	o	n/a
149.365	0.059	298730	keystroke_r	r	n/a
149.5585	0.0755	299117	keystroke_e	e	n/a
149.7235	0.0905	299447	keystroke_Key.enter	Key.enter	n/a
149.8215	8.0495	299643	prompt	n/a	volt guyana commander librarian\n
150.4895	0.12	300979	keystroke_v	v	n/a
150.6385	0.106	301277	keystroke_o	o	n/a
150.8195	0.105	301639	keystroke_l	l	n/a
151.0145	0.09	302029	keystroke_t	t	n/a
151.1195	0.15	302239	keystroke_Key.space	Key.space	n/a
151.4795	0.1345	302959	keystroke_g	g	n/a
151.7195	0.165	303439	keystroke_u	u	n/a
152.304	0.075	304608	keystroke_y	y	n/a
152.6795	0.1205	305359	keystroke_a	a	n/a
152.769	0.1355	305538	keystroke_n	n	n/a
152.9495	0.105	305899	keystroke_a	a	n/a
153.114	0.15	306228	keystroke_Key.space	Key.space	n/a
153.34	0.1195	306680	keystroke_c	c	n/a
153.46	0.179	306920	keystroke_o	o	n/a
153.609	0.106	307218	keystroke_m	m	n/a
153.804	0.076	307608	keystroke_m	m	n/a
153.9245	0.165	307849	keystroke_a	a	n/a
154.0295	0.1345	308059	keystroke_n	n	n/a
154.1795	0.0755	308359	keystroke_d	d	n/a
154.359	0.135	308718	keystroke_e	e	n/a
154.554	0.076	309108	keystroke_r	r	n/a
154.7945	0.1345	309589	keystroke_Key.space	Key.space	n/a
155.2595	0.1805	310519	keystroke_l	l	n/a
155.3945	0.1205	310789	keystroke_i	i	n/a
155.6795	0.09	311359	keystroke_v	v	n/a
156.369	0.105	312738	keystroke_Key.backspace	Key.backspace	n/a
156.46	0.0745	312920	keystroke_b	b	n/a
156.655	0.134	313310	keystroke_r	r	n/a
156.879	0.166	313758	keystroke_a	a	n/a
157.0295	0.105	314059	keystroke_r	r	n/a
157.1945	0.135	314389	keystroke_i	i	n/a
157.3745	0.1505	314749	keystroke_a	a	n/a
157.51	0.089	315020	keystroke_n	n	n/a
157.764	0.105	315528	keystroke_Key.enter	Key.enter	n/a
157.876	6.073	315752	prompt	n/a	demonstrates several doors super\n
158.469	0.09	316938	keystroke_d	d	n/a
158.6345	0.105	317269	keystroke_e	e	n/a
158.7695	0.1205	317539	keystroke_m	m	n/a
158.905	0.164	317810	keystroke_o	o	n/a
159.039	0.105	318078	keystroke_n	n	n/a
159.2645	0.1655	318529	keystroke_s	s	n/a
159.415	0.0745	318830	keystroke_t	t	n/a
159.5795	0.105	319159	keystroke_r	r	n/a
159.7595	0.165	319519	keystroke_a	a	n/a
159.894	0.09	319788	keystroke_t	t	n/a
160.0595	0.09	320119	keystroke_e	e	n/a
160.2395	0.1055	320479	keystroke_s	s	n/a
160.329	0.1655	320658	keystroke_Key.space	Key.space	n/a
160.509	0.1355	321018	keystroke_s	s	n/a
160.6145	0.134	321229	keystroke_e	e	n/a
160.87	0.09	321740	keystroke_v	v	n/a
161.0345	0.1355	322069	keystroke_e	e	n/a
161.139	0.105	322278	keystroke_r	r	n/a
161.3495	0.1355	322699	keystroke_a	a	n/a
161.499	0.0905	322998	keystroke_l	l	n/a
161.605	0.1645	323210	keystroke_Key.space	Key.space	n/a
161.755	0.1495	323510	keystroke_d	d	n/a
161.874	0.06	323748	keystroke_o	o	n/a
162.0395	0.15	324079	keystroke_o	o	n/a
162.204	0.105	324408	keystroke_r	r	n/a
162.5045	0.1205	325009	keystroke_s	s	n/a
162.714	0.135	325428	keystroke_Key.space	Key.space	n/a
163.0895	0.1345	326179	keystroke_s	s	n/a
163.2095	0.1645	326419	keystroke_u	u	n/a
163.36	0.135	326720	keystroke_p	p	n/a
163.5245	0.1345	327049	keystroke_e	e	n/a
163.644	0.105	327288	keystroke_r	r	n/a
163.8545	0.0895	327709	keystroke_Key.enter	Key.enter	n/a
163.953	7.314	327906	prompt	n/a	singing advise atom verification\n
164.455	0.104	328910	keystroke_d	d	n/a
164.62	0.18	329240	keystroke_i	i	n/a
164.7545	0.1205	329509	keystroke_n	n	n/a
164.935	0.104	329870	keystroke_g	g	n/a
165.115	0.1345	330230	keystroke_i	i	n/a
165.2195	0.1355	330439	keystroke_n	n	n/a
165.355	0.1195	330710	keystroke_g	g	n/a
165.4595	0.165	330919	keystroke_Key.space	Key.space	n/a
165.715	0.1645	331430	keystroke_a	a	n/a
165.894	0.106	331788	keystroke_d	d	n/a
166.12	0.09	332240	keystroke_v	v	n/a
166.7345	0.15	333469	keystroke_i	i	n/a
167.1545	0.165	334309	keystroke_s	s	n/a
167.3045	0.15	334609	keystroke_e	e	n/a
167.4245	0.195	334849	keystroke_Key.space	Key.space	n/a
167.6345	0.1505	335269	keystroke_a	a	n/a
167.7995	0.0905	335599	keystroke_t	t	n/a
167.9945	0.195	335989	keystroke_o	o	n/a
168.1745	0.15	336349	keystroke_m	m	n/a
168.2945	0.15	336589	keystroke_Key.space	Key.space	n/a
169.164	0.105	338328	keystroke_v	v	n/a
169.404	0.151	338808	keystroke_e	e	n/a
169.495	0.12	338990	keystroke_r	r	n/a
169.72	0.0895	339440	keystroke_i	i	n/a
169.825	0.12	339650	keystroke_f	f	n/a
169.9895	0.15	339979	keystroke_i	i	n/a
170.1995	0.135	340399	keystroke_c	c	n/a
170.4095	0.12	340819	keystroke_a	a	n/a
170.56	0.0595	341120	keystroke_t	t	n/a
170.6645	0.165	341329	keystroke_i	i	n/a
170.7845	0.195	341569	keystroke_o	o	n/a
170.9195	0.105	341839	keystroke_n	n	n/a
171.1435	0.1205	342287	keystroke_Key.enter	Key.enter	n/a
171.271	8.681	342542	prompt	n/a	illustrated dogs progress beds\n
171.6995	0.075	343399	keystroke_s	s	n/a
172.0745	0.09	344149	keystroke_Key.backspace	Key.backspace	n/a
172.3145	0.21	344629	keystroke_i	i	n/a
172.465	0.1045	344930	keystroke_l	l	n/a
172.66	0.119	345320	keystroke_l	l	n/a
172.854	0.12	345708	keystroke_u	u	n/a
173.0345	0.0745	346069	keystroke_a	a	n/a
173.379	0.0755	346758	keystroke_Key.backspace	Key.backspace	n/a
173.5295	0.105	347059	keystroke_s	s	n/a
173.769	0.106	347538	keystroke_t	t	n/a
173.965	0.1045	347930	keystroke_r	r	n/a
174.159	0.181	348318	keystroke_a	a	n/a
174.2945	0.105	348589	keystroke_t	t	n/a
174.4585	0.091	348917	keystroke_e	e	n/a
174.6845	0.0905	349369	keystroke_d	d	n/a
174.775	0.1645	349550	keystroke_Key.space	Key.space	n/a
174.8945	0.1345	349789	keystroke_d	d	n/a
174.9995	0.135	349999	keystroke_o	o	n/a
175.1495	0.1195	350299	keystroke_g	g	n/a
175.404	0.1055	350808	keystroke_s	s	n/a
175.494	0.165	350988	keystroke_Key.space	Key.space	n/a
175.764	0.1205	351528	keystroke_p	p	n/a
175.8995	0.1045	351799	keystroke_r	r	n/a
176.02	0.134	352040	keystroke_o	o	n/a
176.41	0.0295	352820	keystroke_g	g	n/a
176.469	0.075	352938	keystroke_g	g	n/a
176.9945	0.0745	353989	keystroke_Key.backspace	Key.backspace	n/a
177.2945	0.1195	354589	keystroke_r	r	n/a
177.429	0.195	354858	keystroke_e	e	n/a
177.594	0.12	355188	keystroke_s	s	n/a
177.834	0.09	355668	keystroke_s	s	n/a
177.925	0.1635	355850	keystroke_Key.space	Key.space	n/a
178.285	0.1195	356570	keystroke_b	b	n/a
178.509	0.105	357018	keystroke_e	e	n/a
179.005	0.03	358010	keystroke_s	s	n/a
179.4095	0.09	358819	keystroke_Key.backspace	Key.backspace	n/a
179.5145	0.075	359029	keystroke_d	d	n/a
179.6495	0.12	359299	keystroke_s	s	n/a
179.8445	0.105	359689	keystroke_Key.enter	Key.enter	n/a
179.9575	6.5185	359915	prompt	n/a	seemed citizens square strings\n
180.5795	0.1495	361159	keystroke_s	s	n/a
180.714	0.09	361428	keystroke_e	e	n/a
180.8795	0.105	361759	keystroke_e	e	n/a
181.0295	0.12	362059	keystroke_m	m	n/a
181.165	0.0745	362330	keystroke_e	e	n/a
181.3595	0.09	362719	keystroke_d	d	n/a
181.4795	0.18	362959	keystroke_Key.space	Key.space	n/a
181.7945	0.1205	363589	keystroke_c	c	n/a
181.9745	0.1055	363949	keystroke_i	i	n/a
182.124	0.061	364248	keystroke_t	t	n/a
182.2445	0.1805	364489	keystroke_i	i	n/a
182.454	0.1055	364908	keystroke_z	z	n/a
182.6945	0.09	365389	keystroke_e	e	n/a
182.814	0.135	365628	keystroke_n	n	n/a
182.9645	0.1205	365929	keystroke_s	s	n/a
183.0995	0.18	366199	keystroke_Key.space	Key.space	n/a
183.2635	0.0905	366527	keystroke_s	s	n/a
183.4745	0.1195	366949	keystroke_q	q	n/a
183.5795	0.15	367159	keystroke_u	u	n/a
183.744	0.15	367488	keystroke_a	a	n/a
183.9395	0.1205	367879	keystroke_r	r	n/a
184.089	0.121	368178	keystroke_e	e	n/a
184.179	0.15	368358	keystroke_Key.space	Key.space	n/a
184.374	0.1505	368748	keystroke_s	s	n/a
184.509	0.075	369018	keystroke_r	r	n/a
185.274	0.09	370548	keystroke_Key.backspace	Key.backspace	n/a
185.379	0.0905	370758	keystroke_t	t	n/a
185.5595	0.0895	371119	keystroke_r	r	n/a
185.665	0.1495	371330	keystroke_i	i	n/a
185.8295	0.105	371659	keystroke_n	n	n/a
185.949	0.09	371898	keystroke_g	g	n/a
186.144	0.09	372288	keystroke_s	s	n/a
186.3845	0.09	372769	keystroke_Key.enter	Key.enter	n/a
186.481	8.77	372962	prompt	n/a	congratulations sandra ring checkout\n
187.165	0.119	374330	keystroke_c	c	n/a
187.27	0.1795	374540	keystroke_o	o	n/a
187.4045	0.12	374809	keystroke_n	n	n/a
188.0945	0.0895	376189	keystroke_g	g	n/a
188.2745	0.0755	376549	keystroke_r	r	n/a
188.469	0.1355	376938	keystroke_a	a	n/a
189.6245	0.12	379249	keystroke_t	t	n/a
189.7745	0.15	379549	keystroke_u	u	n/a
190.0895	0.12	380179	keystroke_l	l	n/a
190.2395	0.135	380479	keystroke_a	a	n/a
190.3595	0.105	380719	keystroke_t	t	n/a
190.509	0.1955	381018	keystroke_i	i	n/a
190.674	0.1955	381348	keystroke_o	o	n/a
190.8395	0.12	381679	keystroke_n	n	n/a
191.0495	0.105	382099	keystroke_s	s	n/a
191.304	0.1355	382608	keystroke_Key.space	Key.space	n/a
191.5895	0.1205	383179	keystroke_s	s	n/a
191.8145	0.1655	383629	keystroke_a	a	n/a
191.9045	0.135	383809	keystroke_n	n	n/a
192.0545	0.1355	384109	keystroke_d	d	n/a
192.34	0.1045	384680	keystroke_r	r	n/a
192.5945	0.12	385189	keystroke_a	a	n/a
192.8045	0.12	385609	keystroke_Key.space	Key.space	n/a
193.1495	0.105	386299	keystroke_r	r	n/a
193.2695	0.165	386539	keystroke_i	i	n/a
193.4045	0.105	386809	keystroke_n	n	n/a
193.51	0.1345	387020	keystroke_g	g	n/a
193.6595	0.15	387319	keystroke_Key.space	Key.space	n/a
193.8845	0.121	387769	keystroke_c	c	n/a
194.0345	0.105	388069	keystroke_h	h	n/a
194.1545	0.105	388309	keystroke_e	e	n/a
194.3645	0.105	388729	keystroke_c	c	n/a
194.4845	0.09	388969	keystroke_k	k	n/a
194.7095	0.1805	389419	keystroke_o	o	n/a
194.8295	0.135	389659	keystroke_u	u	n/a
194.935	0.0895	389870	keystroke_t	t	n/a
195.1595	0.09	390319	keystroke_Key.enter	Key.enter	n/a
195.2565	5.935	390513	prompt	n/a	third consent cosmetic make\n
195.88	0.0895	391760	keystroke_t	t	n/a
196.0145	0.136	392029	keystroke_h	h	n/a
196.1795	0.1655	392359	keystroke_i	i	n/a
196.3745	0.105	392749	keystroke_r	r	n/a
196.6445	0.135	393289	keystroke_d	d	n/a
196.7645	0.15	393529	keystroke_Key.space	Key.space	n/a
197.0195	0.135	394039	keystroke_c	c	n/a
197.169	0.151	394338	keystroke_o	o	n/a
197.304	0.12	394608	keystroke_n	n	n/a
197.439	0.135	394878	keystroke_s	s	n/a
197.859	0.12	395718	keystroke_e	e	n/a
197.9945	0.1345	395989	keystroke_n	n	n/a
198.174	0.0755	396348	keystroke_t	t	n/a
198.3395	0.15	396679	keystroke_Key.space	Key.space	n/a
198.655	0.104	397310	keystroke_c	c	n/a
198.789	0.136	397578	keystroke_o	o	n/a
198.94	0.135	397880	keystroke_s	s	n/a
199.09	0.12	398180	keystroke_m	m	n/a
199.404	0.0905	398808	keystroke_e	e	n/a
199.5695	0.09	399139	keystroke_t	t	n/a
199.705	0.1195	399410	keystroke_i	i	n/a
199.9745	0.165	399949	keystroke_Key.space	Key.space	n/a
200.1545	0.15	400309	keystroke_m	m	n/a
200.4245	0.135	400849	keystroke_a	a	n/a
200.7695	0.105	401539	keystroke_k	k	n/a
200.934	0.06	401868	keystroke_e	e	n/a
201.0695	0.12	402139	keystroke_Key.enter	Key.enter	n/a
201.1955	7.481	402391	prompt	n/a	ntsc pixels reactions honor\n
202.0595	0.12	404119	keystroke_n	n	n/a
202.195	0.0895	404390	keystroke_t	t	n/a
202.4495	0.0755	404899	keystroke_s	s	n/a
202.899	0.1055	405798	keystroke_c	c	n/a
203.229	0.12	406458	keystroke_Key.space	Key.space	n/a
203.484	0.136	406968	keystroke_p	p	n/a
203.769	0.0755	407538	keystroke_i	i	n/a
204.1445	0.1055	408289	keystroke_x	x	n/a
204.415	0.105	408830	keystroke_e	e	n/a
204.549	0.105	409098	keystroke_l	l	n/a
204.789	0.136	409578	keystroke_s	s	n/a
204.909	0.1205	409818	keystroke_Key.space	Key.space	n/a
205.21	0.1345	410420	keystroke_r	r	n/a
205.3745	0.1045	410749	keystroke_e	e	n/a
205.5395	0.149	411079	keystroke_a	a	n/a
206.1545	0.1195	412309	keystroke_c	c	n/a
206.41	0.06	412820	keystroke_t	t	n/a
206.559	0.165	413118	keystroke_i	i	n/a
206.679	0.2105	413358	keystroke_o	o	n/a
206.8445	0.1205	413689	keystroke_n	n	n/a
207.0245	0.135	414049	keystroke_s	s	n/a
207.1445	0.15	414289	keystroke_Key.space	Key.space	n/a
207.3995	0.1055	414799	keystroke_h	h	n/a
207.52	0.1195	415040	keystroke_o	o	n/a
207.6845	0.0905	415369	keystroke_n	n	n/a
207.8195	0.1495	415639	keystroke_o	o	n/a
207.984	0.06	415968	keystroke_e	e	n/a
208.314	0.075	416628	keystroke_Key.backspace	Key.backspace	n/a
208.404	0.076	416808	keystroke_r	r	n/a
208.5995	0.075	417199	keystroke_Key.enter	Key.enter	n/a
208.6845	7.117	417369	prompt	n/a	consolidated duty scanning marketing\n
209.35	0.105	418700	keystroke_c	c	n/a
209.4695	0.1655	418939	keystroke_o	o	n/a
209.6045	0.1205	419209	keystroke_n	n	n/a
209.7695	0.12	419539	keystroke_s	s	n/a
210.399	0.09	420798	keystroke_o	o	n/a
210.5945	0.0895	421189	keystroke_l	l	n/a
210.744	0.1055	421488	keystroke_i	i	n/a
211.0895	0.135	422179	keystroke_d	d	n/a
211.2995	0.1655	422599	keystroke_a	a	n/a
211.45	0.09	422900	keystroke_t	t	n/a
211.614	0.091	423228	keystroke_e	e	n/a
211.8245	0.105	423649	keystroke_d	d	n/a
211.8995	0.165	423799	keystroke_Key.space	Key.space	n/a
212.0345	0.12	424069	keystroke_d	d	n/a
212.1995	0.12	424399	keystroke_u	u	n/a
212.485	0.1045	424970	keystroke_t	t	n/a
212.6795	0.075	425359	keystroke_y	y	n/a
212.7995	0.1645	425599	keystroke_Key.space	Key.space	n/a
213.0545	0.09	426109	keystroke_s	s	n/a
213.31	0.105	426620	keystroke_c	c	n/a
213.4445	0.165	426889	keystroke_a	a	n/a
213.5645	0.075	427129	keystroke_n	n	n/a
213.7445	0.0905	427489	keystroke_n	n	n/a
213.8795	0.15	427759	keystroke_i	i	n/a
214.0145	0.135	428029	keystroke_n	n	n/a
214.135	0.0895	428270	keystroke_g	g	n/a
214.1945	0.195	428389	keystroke_Key.space	Key.space	n/a
214.42	0.15	428840	keystroke_m	m	n/a
214.5845	0.18	429169	keystroke_a	a	n/a
214.7195	0.105	429439	keystroke_r	r	n/a
214.84	0.1345	429680	keystroke_k	k	n/a
214.96	0.1195	429920	keystroke_e	e	n/a
215.0945	0.09	430189	keystroke_t	t	n/a
215.2445	0.1805	430489	keystroke_i	i	n/a
215.3795	0.1195	430759	keystroke_n	n	n/a
215.5005	0.074	431001	keystroke_g	g	n/a
215.6945	0.105	431389	keystroke_Key.enter	Key.enter	n/a
215.8065	6.0095	431613	prompt	n/a	april describing truly actor\n
216.6395	0.1345	433279	keystroke_a	a	n/a
216.7295	0.134	433459	keystroke_p	p	n/a
216.8795	0.105	433759	keystroke_r	r	n/a
217.0145	0.15	434029	keystroke_i	i	n/a
217.209	0.136	434418	keystroke_l	l	n/a
217.345	0.1795	434690	keystroke_Key.space	Key.space	n/a
217.5095	0.09	435019	keystroke_d	d	n/a
217.7045	0.1055	435409	keystroke_e	e	n/a
217.9445	0.1345	435889	keystroke_s	s	n/a
218.199	0.0905	436398	keystroke_c	c	n/a
218.425	0.0745	436850	keystroke_r	r	n/a
218.5595	0.135	437119	keystroke_i	i	n/a
219.04	0.119	438080	keystroke_b	b	n/a
219.354	0.166	438708	keystroke_i	i	n/a
219.474	0.136	438948	keystroke_n	n	n/a
219.5945	0.09	439189	keystroke_g	g	n/a
219.8195	0.15	439639	keystroke_Key.space	Key.space	n/a
220.09	0.0895	440180	keystroke_t	t	n/a
220.27	0.06	440540	keystroke_r	r	n/a
220.36	0.1045	440720	keystroke_u	u	n/a
220.525	0.105	441050	keystroke_l	l	n/a
220.735	0.0745	441470	keystroke_y	y	n/a
220.824	0.106	441648	keystroke_Key.space	Key.space	n/a
220.945	0.165	441890	keystroke_a	a	n/a
221.095	0.06	442190	keystroke_c	c	n/a
221.2745	0.0455	442549	keystroke_t	t	n/a
221.425	0.0895	442850	keystroke_o	o	n/a
221.5	0.074	443000	keystroke_r	r	n/a
221.709	0.1055	443418	keystroke_Key.enter	Key.enter	n/a
221.822	6.954	443644	prompt	n/a	torture synopsis schema hint\n
222.4145	0.12	444829	keystroke_t	t	n/a
222.58	0.1195	445160	keystroke_o	o	n/a
222.7145	0.09	445429	keystroke_r	r	n/a
222.9095	0.0905	445819	keystroke_t	t	n/a
223.075	0.09	446150	keystroke_u	u	n/a
223.345	0.1195	446690	keystroke_r	r	n/a
223.51	0.1195	447020	keystroke_e	e	n/a
223.659	0.165	447318	keystroke_Key.space	Key.space	n/a
223.8395	0.15	447679	keystroke_s	s	n/a
224.02	0.089	448040	keystroke_y	y	n/a
224.2745	0.075	448549	keystroke_n	n	n/a
224.7395	0.09	449479	keystroke_o	o	n/a
224.904	0.105	449808	keystroke_p	p	n/a
225.205	0.1045	450410	keystroke_s	s	n/a
225.324	0.135	450648	keystroke_i	i	n/a
225.4445	0.1055	450889	keystroke_s	s	n/a
225.624	0.1655	451248	keystroke_Key.space	Key.space	n/a
225.8045	0.15	451609	keystroke_s	s	n/a
225.9995	0.1355	451999	keystroke_c	c	n/a
226.4045	0.12	452809	keystroke_h	h	n/a
226.6295	0.105	453259	keystroke_e	e	n/a
226.75	0.1495	453500	keystroke_m	m	n/a
227.5745	0.1045	455149	keystroke_a	a	n/a
227.83	0.1045	455660	keystroke_Key.space	Key.space	n/a
227.9945	0.105	455989	keystroke_h	h	n/a
228.1745	0.18	456349	keystroke_i	i	n/a
228.3095	0.1345	456619	keystroke_n	n	n/a
228.459	0.0755	456918	keystroke_t	t	n/a
228.6845	0.09	457369	keystroke_Key.enter	Key.enter	n/a
228.7795	7.3015	457559	prompt	n/a	documents brooks canberra corrections\n
229.4345	0.12	458869	keystroke_d	d	n/a
229.5395	0.135	459079	keystroke_o	o	n/a
229.6895	0.135	459379	keystroke_c	c	n/a
229.8995	0.105	459799	keystroke_u	u	n/a
230.1245	0.075	460249	keystroke_m	m	n/a
230.2295	0.1205	460459	keystroke_e	e	n/a
230.3345	0.105	460669	keystroke_n	n	n/a
230.47	0.075	460940	keystroke_t	t	n/a
230.649	0.09	461298	keystroke_s	s	n/a
230.709	0.1955	461418	keystroke_Key.space	Key.space	n/a
230.875	0.089	461750	keystroke_b	b	n/a
231.07	0.059	462140	keystroke_r	r	n/a
231.189	0.075	462378	keystroke_o	o	n/a
231.3395	0.12	462679	keystroke_o	o	n/a
231.5645	0.09	463129	keystroke_k	k	n/a
231.624	0.15	463248	keystroke_s	s	n/a
231.714	0.1655	463428	keystroke_Key.space	Key.space	n/a
231.939	0.135	463878	keystroke_c	c	n/a
232.329	0.1505	464658	keystroke_a	a	n/a
232.4645	0.12	464929	keystroke_n	n	n/a
233.064	0.1215	466128	keystroke_b	b	n/a
233.3345	0.1795	466669	keystroke_e	e	n/a
233.4545	0.0895	466909	keystroke_r	r	n/a
233.7395	0.0155	467479	keystroke_r	r	n/a
233.8	0.165	467600	keystroke_a	a	n/a
233.9195	0.1805	467839	keystroke_Key.space	Key.space	n/a
234.145	0.12	468290	keystroke_c	c	n/a
234.3095	0.091	468619	keystroke_o	o	n/a
234.49	0.09	468980	keystroke_r	r	n/a
234.67	0.09	469340	keystroke_r	r	n/a
234.804	0.106	469608	keystroke_e	e	n/a
235.1195	0.0755	470239	keystroke_c	c	n/a
235.3145	0.075	470629	keystroke_t	t	n/a
235.4495	0.135	470899	keystroke_i	i	n/a
235.5695	0.18	471139	keystroke_o	o	n/a
235.6895	0.12	471379	keystroke_n	n	n/a
235.7795	0.105	471559	keystroke_s	s	n/a
235.9895	0.0905	471979	keystroke_Key.enter	Key.enter	n/a
236.086	8.1865	472172	prompt	n/a	oclc institutional kitchen mystery\n
236.86	0.0895	473720	keystroke_o	o	n/a
237.0545	0.12	474109	keystroke_c	c	n/a
237.3395	0.1205	474679	keystroke_l	l	n/a
237.475	0.1045	474950	keystroke_c	c	n/a
237.654	0.1655	475308	keystroke_Key.space	Key.space	n/a
237.82	0.1945	475640	keystroke_i	i	n/a
237.969	0.136	475938	keystroke_n	n	n/a
238.135	0.15	476270	keystroke_s	s	n/a
238.345	0.09	476690	keystroke_t	t	n/a
238.51	0.1345	477020	keystroke_i	i	n/a
238.6295	0.1055	477259	keystroke_t	t	n/a
238.8095	0.12	477619	keystroke_u	u	n/a
238.96	0.105	477920	keystroke_t	t	n/a
239.425	0.1645	478850	keystroke_i	i	n/a
239.544	0.196	479088	keystroke_o	o	n/a
239.71	0.12	479420	keystroke_n	n	n/a
239.89	0.1495	479780	keystroke_a	a	n/a
240.024	0.105	480048	keystroke_l	l	n/a
240.1595	0.135	480319	keystroke_Key.space	Key.space	n/a
240.4895	0.09	480979	keystroke_d	d	n/a
240.5645	0.09	481129	keystroke_k	k	n/a
240.9095	0.06	481819	keystroke_Key.backspace	Key.backspace	n/a
241.059	0.0755	482118	keystroke_Key.backspace	Key.backspace	n/a
241.27	0.0595	482540	keystroke_k	k	n/a
241.4495	0.075	482899	keystroke_i	i	n/a
241.6145	0.0745	483229	keystroke_t	t	n/a
242.019	0.076	484038	keystroke_c	c	n/a
242.155	0.1045	484310	keystroke_h	h	n/a
242.32	0.09	484640	keystroke_e	e	n/a
242.44	0.075	484880	keystroke_n	n	n/a
242.664	0.105	485328	keystroke_Key.space	Key.space	n/a
242.829	0.12	485658	keystroke_m	m	n/a
243.1445	0.106	486289	keystroke_y	y	n/a
243.2645	0.1955	486529	keystroke_s	s	n/a
243.4445	0.09	486889	keystroke_t	t	n/a
243.6245	0.075	487249	keystroke_e	e	n/a
243.6695	0.1355	487339	keystroke_r	r	n/a
243.9395	0.0605	487879	keystroke_y	y	n/a
244.1495	0.12	488299	keystroke_Key.enter	Key.enter	n/a
244.2795	6.158	488559	prompt	n/a	study warnings convert models\n
244.9445	0.1655	489889	keystroke_s	s	n/a
245.0645	0.1205	490129	keystroke_t	t	n/a
245.2745	0.09	490549	keystroke_u	u	n/a
245.3795	0.1055	490759	keystroke_d	d	n/a
245.545	0.075	491090	keystroke_y	y	n/a
245.68	0.1345	491360	keystroke_Key.space	Key.space	n/a
246.0545	0.1355	492109	keystroke_w	w	n/a
246.3095	0.195	492619	keystroke_a	a	n/a
246.595	0.1345	493190	keystroke_r	r	n/a
246.7895	0.121	493579	keystroke_n	n	n/a
246.9695	0.18	493939	keystroke_i	i	n/a
247.0745	0.12	494149	keystroke_n	n	n/a
247.2245	0.1655	494449	keystroke_g	g	n/a
247.585	0.1345	495170	keystroke_s	s	n/a
247.7045	0.135	495409	keystroke_Key.space	Key.space	n/a
248.0345	0.1355	496069	keystroke_c	c	n/a
248.1995	0.195	496399	keystroke_o	o	n/a
248.3195	0.1505	496639	keystroke_n	n	n/a
248.5445	0.12	497089	keystroke_v	v	n/a
248.7545	0.15	497509	keystroke_e	e	n/a
248.89	0.0745	497780	keystroke_r	r	n/a
249.0845	0.076	498169	keystroke_t	t	n/a
249.2795	0.12	498559	keystroke_Key.space	Key.space	n/a
249.4595	0.12	498919	keystroke_m	m	n/a
249.61	0.165	499220	keystroke_o	o	n/a
249.745	0.104	499490	keystroke_d	d	n/a
249.939	0.0755	499878	keystroke_e	e	n/a
250.044	0.1205	500088	keystroke_l	l	n/a
250.179	0.09	500358	keystroke_s	s	n/a
250.344	0.09	500688	keystroke_Key.enter	Key.enter	n/a
250.4425	5.349	500885	prompt	n/a	devoted diploma corps alter\n
251.155	0.075	502310	keystroke_d	d	n/a
251.305	0.09	502610	keystroke_e	e	n/a
251.545	0.09	503090	keystroke_v	v	n/a
251.724	0.0905	503448	keystroke_o	o	n/a
251.9045	0.075	503809	keystroke_t	t	n/a
252.0555	0.0885	504111	keystroke_e	e	n/a
252.2645	0.105	504529	keystroke_d	d	n/a
252.324	0.1805	504648	keystroke_Key.space	Key.space	n/a
252.4595	0.135	504919	keystroke_d	d	n/a
252.834	0.151	505668	keystroke_i	i	n/a
253.0005	0.1495	506001	keystroke_p	p	n/a
253.255	0.075	506510	keystroke_l	l	n/a
253.45	0.0595	506900	keystroke_o	o	n/a
253.5845	0.105	507169	keystroke_m	m	n/a
253.7495	0.1205	507499	keystroke_a	a	n/a
253.8545	0.18	507709	keystroke_Key.space	Key.space	n/a
254.0195	0.1355	508039	keystroke_c	c	n/a
254.1995	0.1205	508399	keystroke_o	o	n/a
254.3045	0.075	508609	keystroke_r	r	n/a
254.4995	0.1205	508999	keystroke_p	p	n/a
254.65	0.135	509300	keystroke_s	s	n/a
254.7695	0.15	509539	keystroke_Key.space	Key.space	n/a
255.025	0.15	510050	keystroke_a	a	n/a
255.115	0.165	510230	keystroke_l	l	n/a
255.2645	0.0745	510529	keystroke_t	t	n/a
255.444	0.0905	510888	keystroke_e	e	n/a
255.504	0.136	511008	keystroke_r	r	n/a
255.685	0.1045	511370	keystroke_Key.enter	Key.enter	n/a
255.798	7.973	511596	prompt	n/a	depression spyware praise gorgeous\n
256.344	0.091	512688	keystroke_d	d	n/a
256.539	0.0905	513078	keystroke_e	e	n/a
256.6745	0.1205	513349	keystroke_p	p	n/a
256.825	0.1045	513650	keystroke_r	r	n/a
256.945	0.119	513890	keystroke_e	e	n/a
257.0795	0.1045	514159	keystroke_s	s	n/a
257.29	0.089	514580	keystroke_s	s	n/a
257.4545	0.1495	514909	keystroke_i	i	n/a
257.559	0.181	515118	keystroke_o	o	n/a
257.7095	0.12	515419	keystroke_n	n	n/a
257.95	0.09	515900	keystroke_s	s	n/a
258.399	0.075	516798	keystroke_Key.backspace	Key.backspace	n/a
258.624	0.1505	517248	keystroke_Key.space	Key.space	n/a
258.8345	0.135	517669	keystroke_s	s	n/a
259.0145	0.1205	518029	keystroke_p	p	n/a
259.24	0.105	518480	keystroke_i	i	n/a
259.5695	0.0605	519139	keystroke_Key.backspace	Key.backspace	n/a
259.78	0.09	519560	keystroke_y	y	n/a
260.1845	0.09	520369	keystroke_w	w	n/a
260.334	0.1805	520668	keystroke_a	a	n/a
260.5	0.119	521000	keystroke_r	r	n/a
260.6345	0.135	521269	keystroke_e	e	n/a
260.754	0.165	521508	keystroke_Key.space	Key.space	n/a
260.98	0.105	521960	keystroke_p	p	n/a
261.1	0.12	522200	keystroke_r	r	n/a
261.355	0.164	522710	keystroke_a	a	n/a
261.535	0.09	523070	keystroke_i	i	n/a
261.73	0.089	523460	keystroke_s	s	n/a
261.8945	0.1355	523789	keystroke_e	e	n/a
261.999	0.181	523998	keystroke_Key.space	Key.space	n/a
262.254	0.091	524508	keystroke_g	g	n/a
262.4195	0.045	524839	keystroke_o	o	n/a
262.69	0.0895	525380	keystroke_r	r	n/a
262.915	0.09	525830	keystroke_g	g	n/a
263.095	0.09	526190	keystroke_e	e	n/a
263.26	0.165	526520	keystroke_o	o	n/a
263.365	0.135	526730	keystroke_u	u	n/a
263.485	0.1045	526970	keystroke_s	s	n/a
263.65	0.119	527300	keystroke_Key.enter	Key.enter	n/a
263.7755	8.201	527551	prompt	n/a	granny columns screening birmingham\n
264.445	0.09	528890	keystroke_g	g	n/a
264.6245	0.075	529249	keystroke_r	r	n/a
264.745	0.1645	529490	keystroke_a	a	n/a
264.8645	0.0605	529729	keystroke_n	n	n/a
264.9995	0.0755	529999	keystroke_n	n	n/a
265.195	0.074	530390	keystroke_y	y	n/a
265.3145	0.1805	530629	keystroke_Key.space	Key.space	n/a
265.509	0.1205	531018	keystroke_c	c	n/a
265.645	0.105	531290	keystroke_o	o	n/a
266.2145	0.045	532429	keystroke_l	l	n/a
266.3655	0.104	532731	keystroke_u	u	n/a
266.814	0.195	533628	keystroke_m	m	n/a
267.4295	0.105	534859	keystroke_n	n	n/a
267.759	0.1505	535518	keystroke_s	s	n/a
267.8945	0.1355	535789	keystroke_Key.space	Key.space	n/a
268.165	0.15	536330	keystroke_s	s	n/a
268.435	0.105	536870	keystroke_c	c	n/a
268.675	0.105	537350	keystroke_r	r	n/a
268.84	0.09	537680	keystroke_e	e	n/a
269.005	0.104	538010	keystroke_e	e	n/a
269.154	0.091	538308	keystroke_n	n	n/a
269.29	0.1645	538580	keystroke_i	i	n/a
269.395	0.1495	538790	keystroke_n	n	n/a
269.515	0.1045	539030	keystroke_g	g	n/a
269.5895	0.24	539179	keystroke_Key.space	Key.space	n/a
269.8145	0.12	539629	keystroke_b	b	n/a
270.0395	0.1505	540079	keystroke_i	i	n/a
270.175	0.104	540350	keystroke_r	r	n/a
270.385	0.1045	540770	keystroke_m	m	n/a
270.5795	0.1655	541159	keystroke_i	i	n/a
270.7145	0.1055	541429	keystroke_n	n	n/a
270.9095	0.105	541819	keystroke_g	g	n/a
271.3445	0.09	542689	keystroke_h	h	n/a
271.4795	0.18	542959	keystroke_a	a	n/a
271.645	0.09	543290	keystroke_m	m	n/a
271.8845	0.09	543769	keystroke_Key.enter	Key.enter	n/a
271.983	8.6335	543966	prompt	n/a	possibly chest shanghai editing\n
272.605	0.18	545210	keystroke_p	p	n/a
272.74	0.1195	545480	keystroke_o	o	n/a
273.0245	0.0905	546049	keystroke_s	s	n/a
273.6555	0.1345	547311	keystroke_s	s	n/a
273.835	0.15	547670	keystroke_i	i	n/a
274.015	0.105	548030	keystroke_b	b	n/a
274.165	0.09	548330	keystroke_l	l	n/a
274.39	0.06	548780	keystroke_y	y	n/a
274.465	0.134	548930	keystroke_Key.space	Key.space	n/a
274.63	0.105	549260	keystroke_c	c	n/a
274.75	0.09	549500	keystroke_h	h	n/a
274.84	0.0895	549680	keystroke_e	e	n/a
275.0495	0.075	550099	keystroke_c	c	n/a
275.74	0.075	551480	keystroke_Key.backspace	Key.backspace	n/a
275.845	0.165	551690	keystroke_s	s	n/a
276.0245	0.09	552049	keystroke_t	t	n/a
276.3095	0.12	552619	keystroke_Key.space	Key.space	n/a
276.61	0.0895	553220	keystroke_s	s	n/a
276.88	0.1045	553760	keystroke_h	h	n/a
277.0445	0.1655	554089	keystroke_a	a	n/a
277.135	0.12	554270	keystroke_n	n	n/a
277.36	0.1655	554720	keystroke_g	g	n/a
277.7795	0.1205	555559	keystroke_h	h	n/a
277.9445	0.1355	555889	keystroke_a	a	n/a
278.2895	0.0755	556579	keystroke_i	i	n/a
278.5145	0.165	557029	keystroke_Key.space	Key.space	n/a
278.755	0.09	557510	keystroke_e	e	n/a
278.935	0.0895	557870	keystroke_d	d	n/a
279.04	0.09	558080	keystroke_i	i	n/a
279.19	0.075	558380	keystroke_t	t	n/a
279.34	0.09	558680	keystroke_i	i	n/a
279.79	0.075	559580	keystroke_g	g	n/a
280.5095	0.105	561019	keystroke_Key.enter	Key.enter	n/a
280.626	6.4105	561252	prompt	n/a	partly commission wishes symbols\n
281.275	0.165	562550	keystroke_p	p	n/a
281.44	0.1495	562880	keystroke_a	a	n/a
281.5295	0.12	563059	keystroke_r	r	n/a
281.6945	0.1205	563389	keystroke_t	t	n/a
282.01	0.1195	564020	keystroke_l	l	n/a
282.1745	0.09	564349	keystroke_y	y	n/a
282.2945	0.135	564589	keystroke_Key.space	Key.space	n/a
282.5045	0.1355	565009	keystroke_c	c	n/a
282.6245	0.1505	565249	keystroke_o	o	n/a
282.73	0.09	565460	keystroke_m	m	n/a
282.91	0.1045	565820	keystroke_m	m	n/a
283.09	0.105	566180	keystroke_i	i	n/a
283.24	0.0905	566480	keystroke_s	s	n/a
283.4045	0.1205	566809	keystroke_s	s	n/a
283.479	0.151	566958	keystroke_i	i	n/a
283.585	0.18	567170	keystroke_o	o	n/a
283.704	0.105	567408	keystroke_n	n	n/a
283.8245	0.135	567649	keystroke_Key.space	Key.space	n/a
283.9745	0.105	567949	keystroke_w	w	n/a
284.0645	0.135	568129	keystroke_i	i	n/a
284.245	0.09	568490	keystroke_s	s	n/a
284.35	0.09	568700	keystroke_h	h	n/a
284.47	0.09	568940	keystroke_e	e	n/a
284.62	0.15	569240	keystroke_s	s	n/a
284.74	0.179	569480	keystroke_Key.space	Key.space	n/a
284.89	0.1645	569780	keystroke_s	s	n/a
285.0695	0.0905	570139	keystroke_y	y	n/a
285.31	0.0895	570620	keystroke_m	m	n/a
285.6095	0.1205	571219	keystroke_b	b	n/a
285.8045	0.105	571609	keystroke_o	o	n/a
286.045	0.105	572090	keystroke_l	l	n/a
286.165	0.1055	572330	keystroke_w	w	n/a
286.57	0.075	573140	keystroke_Key.backspace	Key.backspace	n/a
286.5845	0.0455	573169	keystroke_=	=	n/a
286.675	0.075	573350	keystroke_s	s	n/a
286.93	0.104	573860	keystroke_Key.enter	Key.enter	n/a
287.042	6.4745	574084	prompt	n/a	zambia grade invisible leeds\n
288.13	0.1495	576260	keystroke_z	z	n/a
288.4745	0.12	576949	keystroke_a	a	n/a
288.6095	0.105	577219	keystroke_m	m	n/a
288.925	0.105	577850	keystroke_b	b	n/a
289.09	0.105	578180	keystroke_i	i	n/a
289.24	0.12	578480	keystroke_a	a	n/a
289.315	0.195	578630	keystroke_Key.space	Key.space	n/a
289.6	0.075	579200	keystroke_g	g	n/a
289.78	0.075	579560	keystroke_r	r	n/a
289.93	0.15	579860	keystroke_a	a	n/a
290.095	0.09	580190	keystroke_d	d	n/a
290.26	0.105	580520	keystroke_e	e	n/a
290.365	0.149	580730	keystroke_Key.space	Key.space	n/a
290.53	0.135	581060	keystroke_i	i	n/a
290.605	0.149	581210	keystroke_n	n	n/a
290.83	0.1205	581660	keystroke_v	v	n/a
291.01	0.119	582020	keystroke_i	i	n/a
291.16	0.12	582320	keystroke_s	s	n/a
291.324	0.121	582648	keystroke_i	i	n/a
291.8795	0.105	583759	keystroke_b	b	n/a
292.135	0.09	584270	keystroke_l	l	n/a
292.225	0.1045	584450	keystroke_e	e	n/a
292.375	0.135	584750	keystroke_Key.space	Key.space	n/a
292.555	0.105	585110	keystroke_l	l	n/a
292.675	0.09	585350	keystroke_e	e	n/a
292.825	0.09	585650	keystroke_e	e	n/a
293.034	0.076	586068	keystroke_d	d	n/a
293.1845	0.1205	586369	keystroke_s	s	n/a
293.41	0.105	586820	keystroke_Key.enter	Key.enter	n/a
293.522	5.2745	587044	prompt	n/a	torture heat point incorporate\n
294.2345	0.0895	588469	keystroke_t	t	n/a
294.354	0.121	588708	keystroke_o	o	n/a
294.46	0.09	588920	keystroke_r	r	n/a
294.64	0.105	589280	keystroke_t	t	n/a
294.8045	0.1045	589609	keystroke_u	u	n/a
294.925	0.105	589850	keystroke_r	r	n/a
295.0745	0.135	590149	keystroke_e	e	n/a
295.1945	0.1645	590389	keystroke_Key.space	Key.space	n/a
295.344	0.1205	590688	keystroke_h	h	n/a
295.42	0.1195	590840	keystroke_e	e	n/a
295.5845	0.18	591169	keystroke_a	a	n/a
295.7345	0.135	591469	keystroke_t	t	n/a
295.825	0.1645	591650	keystroke_Key.space	Key.space	n/a
295.9905	0.1185	591981	keystroke_p	p	n/a
296.095	0.225	592190	keystroke_o	o	n/a
296.2595	0.1805	592519	keystroke_i	i	n/a
296.3945	0.1355	592789	keystroke_n	n	n/a
296.5445	0.105	593089	keystroke_t	t	n/a
296.6195	0.15	593239	keystroke_Key.space	Key.space	n/a
296.8	0.165	593600	keystroke_i	i	n/a
296.95	0.1195	593900	keystroke_n	n	n/a
297.2045	0.12	594409	keystroke_c	c	n/a
297.3845	0.105	594769	keystroke_o	o	n/a
297.52	0.1045	595040	keystroke_r	r	n/a
297.7295	0.1645	595459	keystroke_p	p	n/a
297.865	0.1195	595730	keystroke_o	o	n/a
297.9695	0.12	595939	keystroke_r	r	n/a
298.1795	0.15	596359	keystroke_a	a	n/a
298.2845	0.12	596569	keystroke_t	t	n/a
298.495	0.075	596990	keystroke_e	e	n/a
298.7045	0.09	597409	keystroke_Key.enter	Key.enter	n/a
298.8	8.801	597600	prompt	n/a	defeat salvador acdbentity sperm\n
299.3345	0.0745	598669	keystroke_d	d	n/a
299.5	0.075	599000	keystroke_e	e	n/a
299.6945	0.09	599389	keystroke_f	f	n/a
299.859	0.136	599718	keystroke_e	e	n/a
300.04	0.165	600080	keystroke_a	a	n/a
300.19	0.1345	600380	keystroke_t	t	n/a
300.294	0.211	600588	keystroke_Key.space	Key.space	n/a
300.474	0.106	600948	keystroke_s	s	n/a
300.625	0.1495	601250	keystroke_a	a	n/a
300.7595	0.105	601519	keystroke_l	l	n/a
300.925	0.1205	601850	keystroke_v	v	n/a
301.1195	0.1355	602239	keystroke_a	a	n/a
301.3	0.134	602600	keystroke_d	d	n/a
301.465	0.09	602930	keystroke_o	o	n/a
301.599	0.1505	603198	keystroke_Key.space	Key.space	n/a
301.8995	0.0905	603799	keystroke_s	s	n/a
302.274	0.09	604548	keystroke_Key.backspace	Key.backspace	n/a
302.38	0.165	604760	keystroke_a	a	n/a
302.5745	0.0905	605149	keystroke_c	c	n/a
302.83	0.074	605660	keystroke_d	d	n/a
303.025	0.075	606050	keystroke_e	e	n/a
303.4	0.09	606800	keystroke_Key.backspace	Key.backspace	n/a
305.185	0.0895	610370	keystroke_b	b	n/a
305.4245	0.105	610849	keystroke_e	e	n/a
305.545	0.12	611090	keystroke_n	n	n/a
305.8445	0.0755	611689	keystroke_t	t	n/a
305.9345	0.1355	611869	keystroke_i	i	n/a
306.04	0.09	612080	keystroke_t	t	n/a
306.22	0.075	612440	keystroke_y	y	n/a
306.459	0.12	612918	keystroke_Key.space	Key.space	n/a
306.64	0.12	613280	keystroke_s	s	n/a
306.775	0.09	613550	keystroke_p	p	n/a
306.895	0.12	613790	keystroke_e	e	n/a
307.09	0.1045	614180	keystroke_r	r	n/a
307.255	0.105	614510	keystroke_m	m	n/a
307.495	0.105	614990	keystroke_Key.enter	Key.enter	n/a
307.6055	6.266	615211	prompt	n/a	tank princess consulting hence\n
308.0795	0.075	616159	keystroke_d	d	n/a
308.5	0.0895	617000	keystroke_Key.backspace	Key.backspace	n/a
308.6195	0.1045	617239	keystroke_t	t	n/a
308.8	0.1195	617600	keystroke_a	a	n/a
308.874	0.0755	617748	keystroke_n	n	n/a
309.114	0.075	618228	keystroke_k	k	n/a
309.5195	0.12	619039	keystroke_Key.space	Key.space	n/a
309.6545	0.135	619309	keystroke_p	p	n/a
309.76	0.12	619520	keystroke_r	r	n/a
309.9095	0.1205	619819	keystroke_i	i	n/a
310.1955	0.0895	620391	keystroke_n	n	n/a
310.36	0.075	620720	keystroke_c	c	n/a
310.5095	0.1205	621019	keystroke_e	e	n/a
310.7045	0.09	621409	keystroke_s	s	n/a
310.8695	0.1805	621739	keystroke_s	s	n/a
311.005	0.195	622010	keystroke_Key.space	Key.space	n/a
311.155	0.12	622310	keystroke_c	c	n/a
311.275	0.1795	622550	keystroke_o	o	n/a
311.395	0.135	622790	keystroke_n	n	n/a
311.5895	0.1355	623179	keystroke_s	s	n/a
311.71	0.105	623420	keystroke_u	u	n/a
311.86	0.1345	623720	keystroke_l	l	n/a
312.0095	0.09	624019	keystroke_t	t	n/a
312.1145	0.1805	624229	keystroke_i	i	n/a
312.235	0.1345	624470	keystroke_n	n	n/a
312.385	0.135	624770	keystroke_g	g	n/a
312.475	0.1495	624950	keystroke_Key.space	Key.space	n/a
312.6395	0.12	625279	keystroke_h	h	n/a
313.029	0.1055	626058	keystroke_e	e	n/a
313.15	0.1045	626300	keystroke_n	n	n/a
313.435	0.0745	626870	keystroke_c	c	n/a
313.6	0.0595	627200	keystroke_e	e	n/a
313.779	0.0905	627558	keystroke_Key.enter	Key.enter	n/a
313.878	5.5285	627756	prompt	n/a	wiki joining outlet swiss\n
314.62	0.135	629240	keystroke_w	w	n/a
314.74	0.09	629480	keystroke_i	i	n/a
314.965	0.06	629930	keystroke_k	k	n/a
315.0845	0.1055	630169	keystroke_i	i	n/a
315.2345	0.1205	630469	keystroke_Key.space	Key.space	n/a
315.625	0.135	631250	keystroke_j	j	n/a
315.82	0.21	631640	keystroke_o	o	n/a
315.985	0.15	631970	keystroke_i	i	n/a
316.12	0.1045	632240	keystroke_n	n	n/a
316.315	0.1345	632630	keystroke_i	i	n/a
316.42	0.12	632840	keystroke_n	n	n/a
316.5845	0.12	633169	keystroke_g	g	n/a
316.674	0.166	633348	keystroke_Key.space	Key.space	n/a
316.93	0.195	633860	keystroke_o	o	n/a
317.08	0.105	634160	keystroke_u	u	n/a
317.35	0.105	634700	keystroke_t	t	n/a
317.53	0.105	635060	keystroke_l	l	n/a
317.65	0.12	635300	keystroke_e	e	n/a
317.845	0.12	635690	keystroke_s	s	n/a
317.935	0.135	635870	keystroke_Key.space	Key.space	n/a
318.19	0.1345	636380	keystroke_s	s	n/a
318.46	0.105	636920	keystroke_w	w	n/a
318.58	0.09	637160	keystroke_i	i	n/a
318.9545	0.0755	637909	keystroke_s	s	n/a
319.1045	0.09	638209	keystroke_s	s	n/a
319.3	0.105	638600	keystroke_Key.enter	Key.enter	n/a
319.4115	8.38	638823	prompt	n/a	facial qualification produce evident\n
320.17	0.1045	640340	keystroke_f	f	n/a
320.3645	0.165	640729	keystroke_a	a	n/a
320.56	0.1045	641120	keystroke_c	c	n/a
320.7545	0.09	641509	keystroke_i	i	n/a
320.89	0.135	641780	keystroke_a	a	n/a
321.0105	0.1195	642021	keystroke_l	l	n/a
321.144	0.1505	642288	keystroke_Key.space	Key.space	n/a
321.715	0.0745	643430	keystroke_q	q	n/a
321.8195	0.105	643639	keystroke_u	u	n/a
321.9695	0.105	643939	keystroke_a	a	n/a
322.135	0.15	644270	keystroke_l	l	n/a
322.2695	0.12	644539	keystroke_i	i	n/a
322.4045	0.12	644809	keystroke_f	f	n/a
322.585	0.1045	645170	keystroke_i	i	n/a
322.705	0.1045	645410	keystroke_c	c	n/a
322.885	0.12	645770	keystroke_a	a	n/a
323.049	0.076	646098	keystroke_t	t	n/a
323.215	0.15	646430	keystroke_i	i	n/a
323.335	0.195	646670	keystroke_o	o	n/a
323.485	0.12	646970	keystroke_n	n	n/a
323.74	0.12	647480	keystroke_Key.space	Key.space	n/a
323.9795	0.1055	647959	keystroke_p	p	n/a
324.115	0.1045	648230	keystroke_r	r	n/a
324.2345	0.1355	648469	keystroke_o	o	n/a
324.43	0.1195	648860	keystroke_d	d	n/a
324.565	0.105	649130	keystroke_u	u	n/a
324.7145	0.1055	649429	keystroke_c	c	n/a
324.955	0.1195	649910	keystroke_e	e	n/a
325.0895	0.1655	650179	keystroke_Key.space	Key.space	n/a
325.435	0.105	650870	keystroke_e	e	n/a
325.675	0.09	651350	keystroke_v	v	n/a
325.855	0.09	651710	keystroke_i	i	n/a
326.5	0.0595	653000	keystroke_d	d	n/a
327.115	0.1055	654230	keystroke_e	e	n/a
327.2795	0.09	654559	keystroke_n	n	n/a
327.4145	0.06	654829	keystroke_t	t	n/a
327.684	0.1055	655368	keystroke_Key.enter	Key.enter	n/a
327.796	6.67	655592	prompt	n/a	nelson formal construction trials\n
328.525	0.135	657050	keystroke_n	n	n/a
328.7205	0.1045	657441	keystroke_e	e	n/a
328.87	0.105	657740	keystroke_l	l	n/a
329.0345	0.09	658069	keystroke_s	s	n/a
329.185	0.1495	658370	keystroke_o	o	n/a
329.3195	0.0905	658639	keystroke_n	n	n/a
329.44	0.165	658880	keystroke_Key.space	Key.space	n/a
329.545	0.105	659090	keystroke_f	f	n/a
329.68	0.12	659360	keystroke_o	o	n/a
329.8	0.075	659600	keystroke_r	r	n/a
329.949	0.106	659898	keystroke_m	m	n/a
330.0995	0.1045	660199	keystroke_Key.space	Key.space	n/a
330.565	0.074	661130	keystroke_Key.backspace	Key.backspace	n/a
330.685	0.135	661370	keystroke_a	a	n/a
330.835	0.075	661670	keystroke_l	l	n/a
331.0595	0.1205	662119	keystroke_Key.space	Key.space	n/a
331.285	0.1345	662570	keystroke_c	c	n/a
331.4345	0.15	662869	keystroke_o	o	n/a
331.5395	0.1355	663079	keystroke_n	n	n/a
331.705	0.15	663410	keystroke_s	s	n/a
331.87	0.075	663740	keystroke_t	t	n/a
332.019	0.091	664038	keystroke_r	r	n/a
332.17	0.105	664340	keystroke_u	u	n/a
332.29	0.09	664580	keystroke_c	c	n/a
332.5145	0.0455	665029	keystroke_t	t	n/a
332.665	0.134	665330	keystroke_i	i	n/a
332.784	0.1805	665568	keystroke_o	o	n/a
332.9345	0.1355	665869	keystroke_n	n	n/a
333.2645	0.1205	666529	keystroke_Key.space	Key.space	n/a
333.49	0.075	666980	keystroke_t	t	n/a
333.655	0.1045	667310	keystroke_r	r	n/a
333.7745	0.1055	667549	keystroke_i	i	n/a
333.9095	0.1355	667819	keystroke_a	a	n/a
334.06	0.12	668120	keystroke_l	l	n/a
334.1945	0.0905	668389	keystroke_s	s	n/a
334.405	0.06	668810	keystroke_Key.enter	Key.enter	n/a
334.471	8.6655	668942	prompt	n/a	loves catalogue counseling compiled\n
335.1395	0.0755	670279	keystroke_l	l	n/a
335.335	0.074	670670	keystroke_o	o	n/a
335.499	0.046	670998	keystroke_v	v	n/a
335.83	0.1045	671660	keystroke_e	e	n/a
336.04	0.1195	672080	keystroke_s	s	n/a
336.115	0.1645	672230	keystroke_Key.space	Key.space	n/a
336.31	0.135	672620	keystroke_c	c	n/a
336.5045	0.1355	673009	keystroke_a	a	n/a
336.6545	0.09	673309	keystroke_t	t	n/a
336.8205	0.1345	673641	keystroke_a	a	n/a
336.9555	0.119	673911	keystroke_Key.space	Key.space	n/a
337.4195	0.0605	674839	keystroke_Key.backspace	Key.backspace	n/a
337.69	0.06	675380	keystroke_l	l	n/a
338.2005	0.104	676401	keystroke_o	o	n/a
338.4105	0.104	676821	keystroke_g	g	n/a
338.6195	0.0755	677239	keystroke_u	u	n/a
338.785	0.1045	677570	keystroke_e	e	n/a
339.0395	0.12	678079	keystroke_Key.space	Key.space	n/a
339.3405	0.104	678681	keystroke_c	c	n/a
339.5345	0.1355	679069	keystroke_o	o	n/a
339.8205	0.074	679641	keystroke_u	u	n/a
340.03	0.0905	680060	keystroke_n	n	n/a
340.375	0.1045	680750	keystroke_s	s	n/a
340.6145	0.105	681229	keystroke_e	e	n/a
340.75	0.1505	681500	keystroke_l	l	n/a
340.915	0.1795	681830	keystroke_i	i	n/a
341.0345	0.1205	682069	keystroke_n	n	n/a
341.125	0.1345	682250	keystroke_g	g	n/a
341.2445	0.18	682489	keystroke_Key.space	Key.space	n/a
341.41	0.15	682820	keystroke_c	c	n/a
341.561	0.194	683122	keystroke_o	o	n/a
341.695	0.1495	683390	keystroke_m	m	n/a
341.875	0.135	683750	keystroke_p	p	n/a
342.2655	0.075	684531	keystroke_i	i	n/a
342.445	0.09	684890	keystroke_l	l	n/a
342.52	0.15	685040	keystroke_e	e	n/a
342.8355	0.1195	685671	keystroke_d	d	n/a
343.0295	0.1055	686059	keystroke_Key.enter	Key.enter	n/a
343.1415	7.165	686283	prompt	n/a	firewall lost bangkok handed\n
343.7505	0.105	687501	keystroke_f	f	n/a
343.9155	0.104	687831	keystroke_i	i	n/a
344.41	0.105	688820	keystroke_r	r	n/a
344.56	0.12	689120	keystroke_e	e	n/a
344.875	0.1195	689750	keystroke_w	w	n/a
345.0105	0.179	690021	keystroke_a	a	n/a
345.1755	0.044	690351	keystroke_l	l	n/a
345.325	0.0895	690650	keystroke_l	l	n/a
345.4295	0.1355	690859	keystroke_Key.space	Key.space	n/a
345.5945	0.075	691189	keystroke_l	l	n/a
345.7895	0.061	691579	keystroke_o	o	n/a
345.895	0.1645	691790	keystroke_s	s	n/a
346.0445	0.135	692089	keystroke_t	t	n/a
346.1345	0.18	692269	keystroke_Key.space	Key.space	n/a
346.4195	0.0755	692839	keystroke_b	b	n/a
346.5845	0.1505	693169	keystroke_a	a	n/a
346.7195	0.09	693439	keystroke_n	n	n/a
347.14	0.075	694280	keystroke_g	g	n/a
347.41	0.1345	694820	keystroke_k	k	n/a
347.62	0.18	695240	keystroke_o	o	n/a
347.815	0.075	695630	keystroke_i	i	n/a
348.5345	0.06	697069	keystroke_Key.backspace	Key.backspace	n/a
348.7455	0.0595	697491	keystroke_k	k	n/a
348.9255	0.105	697851	keystroke_Key.space	Key.space	n/a
349.1505	0.089	698301	keystroke_h	h	n/a
349.2995	0.1505	698599	keystroke_a	a	n/a
349.4195	0.105	698839	keystroke_n	n	n/a
349.6295	0.0905	699259	keystroke_d	d	n/a
349.81	0.075	699620	keystroke_e	e	n/a
349.9905	0.0745	699981	keystroke_d	d	n/a
350.2	0.105	700400	keystroke_Key.enter	Key.enter	n/a
350.3115	5.9055	700623	prompt	n/a	shooting clothing wells widely\n
350.9205	0.12	701841	keystroke_s	s	n/a
351.175	0.105	702350	keystroke_h	h	n/a
351.295	0.09	702590	keystroke_o	o	n/a
351.46	0.135	702920	keystroke_o	o	n/a
351.595	0.09	703190	keystroke_t	t	n/a
351.715	0.15	703430	keystroke_i	i	n/a
351.835	0.12	703670	keystroke_n	n	n/a
351.91	0.105	703820	keystroke_g	g	n/a
351.97	0.2395	703940	keystroke_Key.space	Key.space	n/a
352.1645	0.1205	704329	keystroke_c	c	n/a
352.3	0.06	704600	keystroke_l	l	n/a
352.4655	0.15	704931	keystroke_o	o	n/a
352.6	0.1055	705200	keystroke_t	t	n/a
352.7345	0.1055	705469	keystroke_h	h	n/a
352.855	0.1795	705710	keystroke_i	i	n/a
353.005	0.1195	706010	keystroke_n	n	n/a
353.095	0.0905	706190	keystroke_g	g	n/a
353.1695	0.195	706339	keystroke_Key.space	Key.space	n/a
353.3645	0.1655	706729	keystroke_w	w	n/a
353.5	0.165	707000	keystroke_e	e	n/a
353.65	0.0455	707300	keystroke_l	l	n/a
353.8	0.1205	707600	keystroke_l	l	n/a
354.055	0.15	708110	keystroke_s	s	n/a
354.19	0.12	708380	keystroke_Key.space	Key.space	n/a
354.445	0.105	708890	keystroke_w	w	n/a
354.535	0.15	709070	keystroke_i	i	n/a
354.7	0.12	709400	keystroke_d	d	n/a
354.94	0.0905	709880	keystroke_l	l	n/a
355.4495	0.06	710899	keystroke_Key.backspace	Key.backspace	n/a
355.5555	0.09	711111	keystroke_e	e	n/a
355.705	0.09	711410	keystroke_l	l	n/a
355.9	0.075	711800	keystroke_y	y	n/a
356.11	0.105	712220	keystroke_Key.enter	Key.enter	n/a
356.2265	8.4205	712453	prompt	n/a	walls becoming outcome judge\n
356.86	0.12	713720	keystroke_w	w	n/a
356.9945	0.18	713989	keystroke_a	a	n/a
357.115	0.0745	714230	keystroke_l	l	n/a
357.2645	0.1355	714529	keystroke_l	l	n/a
357.385	0.1345	714770	keystroke_s	s	n/a
357.5045	0.18	715009	keystroke_Key.space	Key.space	n/a
357.6545	0.0905	715309	keystroke_c	c	n/a
357.985	0.09	715970	keystroke_Key.backspace	Key.backspace	n/a
358.3605	0.0895	716721	keystroke_b	b	n/a
358.585	0.12	717170	keystroke_e	e	n/a
358.825	0.1055	717650	keystroke_c	c	n/a
358.9595	0.196	717919	keystroke_o	o	n/a
359.095	0.09	718190	keystroke_m	m	n/a
359.29	0.105	718580	keystroke_m	m	n/a
359.665	0.075	719330	keystroke_Key.backspace	Key.backspace	n/a
359.9205	0.09	719841	keystroke_i	i	n/a
360.055	0.09	720110	keystroke_n	n	n/a
360.1905	0.1345	720381	keystroke_g	g	n/a
360.31	0.165	720620	keystroke_Key.space	Key.space	n/a
360.565	0.1645	721130	keystroke_o	o	n/a
360.6845	0.1355	721369	keystroke_u	u	n/a
360.8055	0.089	721611	keystroke_t	t	n/a
361.075	0.105	722150	keystroke_c	c	n/a
361.21	0.1795	722420	keystroke_o	o	n/a
361.3455	0.135	722691	keystroke_m	m	n/a
361.4945	0.1055	722989	keystroke_e	e	n/a
361.645	0.1345	723290	keystroke_s	s	n/a
361.705	0.195	723410	keystroke_Key.space	Key.space	n/a
361.855	0.075	723710	keystroke_j	j	n/a
362.275	0.06	724550	keystroke_Key.backspace	Key.backspace	n/a
362.41	0.105	724820	keystroke_Key.backspace	Key.backspace	n/a
362.62	0.075	725240	keystroke_d	d	n/a
362.9495	0.06	725899	keystroke_Key.backspace	Key.backspace	n/a
363.0845	0.09	726169	keystroke_Key.backspace	Key.backspace	n/a
363.3405	0.1045	726681	keystroke_Key.space	Key.space	n/a
363.5505	0.0595	727101	keystroke_j	j	n/a
363.7295	0.061	727459	keystroke_u	u	n/a
363.8645	0.09	727729	keystroke_d	d	n/a
364.151	0.0885	728302	keystroke_g	g	n/a
364.2995	0.091	728599	keystroke_e	e	n/a
364.555	0.0905	729110	keystroke_Key.enter	Key.enter	n/a
364.652	8.9645	729304	prompt	n/a	terms volvo services moderators\n
365.3495	0.12	730699	keystroke_t	t	n/a
365.5595	0.1505	731119	keystroke_e	e	n/a
365.65	0.1205	731300	keystroke_r	r	n/a
365.8	0.1355	731600	keystroke_m	m	n/a
365.95	0.12	731900	keystroke_s	s	n/a
366.04	0.18	732080	keystroke_Key.space	Key.space	n/a
366.205	0.15	732410	keystroke_c	c	n/a
366.34	0.09	732680	keystroke_o	o	n/a
366.52	0.1205	733040	keystroke_l	l	n/a
366.67	0.105	733340	keystroke_v	v	n/a
367.12	0.09	734240	keystroke_o	o	n/a
367.5545	0.06	735109	keystroke_Key.backspace	Key.backspace	n/a
367.7195	0.0605	735439	keystroke_Key.backspace	Key.backspace	n/a
367.9	0.03	735800	keystroke_Key.backspace	Key.backspace	n/a
368.081	0.074	736162	keystroke_Key.backspace	Key.backspace	n/a
368.275	0.105	736550	keystroke_Key.backspace	Key.backspace	n/a
368.71	0.1205	737420	keystroke_v	v	n/a
368.8445	0.0905	737689	keystroke_o	o	n/a
369.01	0.09	738020	keystroke_l	l	n/a
369.16	0.09	738320	keystroke_v	v	n/a
369.49	0.075	738980	keystroke_o	o	n/a
369.67	0.1645	739340	keystroke_Key.space	Key.space	n/a
369.8495	0.135	739699	keystroke_s	s	n/a
369.955	0.195	739910	keystroke_e	e	n/a
370.105	0.09	740210	keystroke_r	r	n/a
370.3305	0.09	740661	keystroke_v	v	n/a
370.45	0.105	740900	keystroke_i	i	n/a
370.6	0.105	741200	keystroke_c	c	n/a
371.125	0.15	742250	keystroke_e	e	n/a
371.395	0.15	742790	keystroke_s	s	n/a
371.515	0.1495	743030	keystroke_Key.space	Key.space	n/a
371.7845	0.121	743569	keystroke_m	m	n/a
371.9655	0.135	743931	keystroke_o	o	n/a
372.0855	0.075	744171	keystroke_d	d	n/a
372.2345	0.1205	744469	keystroke_e	e	n/a
372.4455	0.135	744891	keystroke_r	r	n/a
372.715	0.135	745430	keystroke_a	a	n/a
372.864	0.061	745728	keystroke_t	t	n/a
373.0005	0.134	746001	keystroke_o	o	n/a
373.1205	0.09	746241	keystroke_r	r	n/a
373.3155	0.119	746631	keystroke_s	s	n/a
373.51	0.105	747020	keystroke_Key.enter	Key.enter	n/a
373.622	6.7445	747244	prompt	n/a	profit thomson great originally\n
374.365	0.105	748730	keystroke_p	p	n/a
374.485	0.105	748970	keystroke_r	r	n/a
374.6205	0.1195	749241	keystroke_o	o	n/a
374.9645	0.105	749929	keystroke_f	f	n/a
375.115	0.119	750230	keystroke_i	i	n/a
375.4	0.1205	750800	keystroke_e	e	n/a
375.535	0.1345	751070	keystroke_Key.space	Key.space	n/a
376.015	0.1055	752030	keystroke_t	t	n/a
376.121	0.104	752242	keystroke_h	h	n/a
376.255	0.18	752510	keystroke_o	o	n/a
376.585	0.09	753170	keystroke_m	m	n/a
376.81	0.15	753620	keystroke_s	s	n/a
376.945	0.12	753890	keystroke_o	o	n/a
377.2	0.09	754400	keystroke_n	n	n/a
377.5	0.135	755000	keystroke_Key.space	Key.space	n/a
377.6805	0.0895	755361	keystroke_g	g	n/a
377.875	0.09	755750	keystroke_r	r	n/a
378.01	0.15	756020	keystroke_e	e	n/a
378.19	0.15	756380	keystroke_a	a	n/a
378.31	0.135	756620	keystroke_t	t	n/a
378.4	0.135	756800	keystroke_Key.space	Key.space	n/a
378.55	0.12	757100	keystroke_o	o	n/a
378.73	0.1055	757460	keystroke_r	r	n/a
378.88	0.15	757760	keystroke_i	i	n/a
379.15	0.12	758300	keystroke_g	g	n/a
379.315	0.135	758630	keystroke_i	i	n/a
379.4945	0.0905	758989	keystroke_n	n	n/a
379.6145	0.151	759229	keystroke_a	a	n/a
379.7345	0.076	759469	keystroke_l	l	n/a
379.9895	0.0155	759979	keystroke_l	l	n/a
380.0345	0.091	760069	keystroke_y	y	n/a
380.2595	0.105	760519	keystroke_Key.enter	Key.enter	n/a
380.3715	5.9055	760743	prompt	n/a	offering newsletters baby story\n
381.04	0.1345	762080	keystroke_o	o	n/a
381.1895	0.075	762379	keystroke_f	f	n/a
381.3555	0.1045	762711	keystroke_f	f	n/a
381.5795	0.15	763159	keystroke_e	e	n/a
381.67	0.1195	763340	keystroke_r	r	n/a
381.8495	0.165	763699	keystroke_i	i	n/a
381.9845	0.12	763969	keystroke_n	n	n/a
382.0895	0.106	764179	keystroke_g	g	n/a
382.165	0.15	764330	keystroke_Key.space	Key.space	n/a
382.345	0.135	764690	keystroke_n	n	n/a
382.48	0.165	764960	keystroke_e	e	n/a
382.69	0.12	765380	keystroke_w	w	n/a
382.96	0.1345	765920	keystroke_s	s	n/a
383.2595	0.136	766519	keystroke_l	l	n/a
383.3645	0.166	766729	keystroke_e	e	n/a
383.6355	0.089	767271	keystroke_t	t	n/a
383.815	0.09	767630	keystroke_t	t	n/a
383.9645	0.1205	767929	keystroke_e	e	n/a
384.0545	0.105	768109	keystroke_r	r	n/a
384.295	0.12	768590	keystroke_s	s	n/a
384.4295	0.1355	768859	keystroke_Key.space	Key.space	n/a
384.655	0.1055	769310	keystroke_b	b	n/a
384.8045	0.196	769609	keystroke_a	a	n/a
384.9395	0.105	769879	keystroke_b	b	n/a
385.0905	0.0895	770181	keystroke_y	y	n/a
385.225	0.1795	770450	keystroke_Key.space	Key.space	n/a
385.39	0.1505	770780	keystroke_s	s	n/a
385.541	0.1035	771082	keystroke_t	t	n/a
385.6905	0.0895	771381	keystroke_o	o	n/a
385.7955	0.0895	771591	keystroke_r	r	n/a
385.93	0.075	771860	keystroke_y	y	n/a
386.155	0.12	772310	keystroke_Key.enter	Key.enter	n/a
386.282	7.1055	772564	prompt	n/a	born would buffer projectors\n
386.9205	0.105	773841	keystroke_b	b	n/a
387.07	0.105	774140	keystroke_o	o	n/a
387.1905	0.074	774381	keystroke_r	r	n/a
387.3245	0.106	774649	keystroke_n	n	n/a
387.475	0.165	774950	keystroke_Key.space	Key.space	n/a
387.67	0.1355	775340	keystroke_w	w	n/a
387.8345	0.12	775669	keystroke_o	o	n/a
387.94	0.0595	775880	keystroke_r	r	n/a
388.285	0.075	776570	keystroke_Key.backspace	Key.backspace	n/a
388.9005	0.0595	777801	keystroke_u	u	n/a
389.0805	0.075	778161	keystroke_l	l	n/a
389.2305	0.1345	778461	keystroke_d	d	n/a
389.3345	0.1655	778669	keystroke_Key.space	Key.space	n/a
389.77	0.105	779540	keystroke_b	b	n/a
389.92	0.1505	779840	keystroke_u	u	n/a
390.2055	0.0895	780411	keystroke_f	f	n/a
390.385	0.09	780770	keystroke_f	f	n/a
390.6695	0.0755	781339	keystroke_e	e	n/a
390.7005	0.149	781401	keystroke_r	r	n/a
391.045	0.105	782090	keystroke_Key.space	Key.space	n/a
391.241	0.0895	782482	keystroke_p	p	n/a
391.3445	0.1205	782689	keystroke_r	r	n/a
391.555	0.105	783110	keystroke_o	o	n/a
392.0955	0.045	784191	keystroke_j	j	n/a
392.1545	0.0905	784309	keystroke_e	e	n/a
392.3345	0.076	784669	keystroke_c	c	n/a
392.5905	0.06	785181	keystroke_t	t	n/a
392.7255	0.1045	785451	keystroke_o	o	n/a
392.8595	0.09	785719	keystroke_r	r	n/a
393.0855	0.1045	786171	keystroke_s	s	n/a
393.295	0.09	786590	keystroke_Key.enter	Key.enter	n/a
393.392	5.815	786784	prompt	n/a	polymer safari opera spare\n
394.1055	0.1345	788211	keystroke_p	p	n/a
394.375	0.09	788750	keystroke_o	o	n/a
394.57	0.0905	789140	keystroke_l	l	n/a
394.7955	0.074	789591	keystroke_y	y	n/a
395.0505	0.0895	790101	keystroke_m	m	n/a
395.1855	0.165	790371	keystroke_e	e	n/a
395.5605	0.12	791121	keystroke_r	r	n/a
395.7255	0.1495	791451	keystroke_Key.space	Key.space	n/a
395.935	0.1345	791870	keystroke_s	s	n/a
396.265	0.1645	792530	keystroke_a	a	n/a
396.4305	0.119	792861	keystroke_f	f	n/a
396.6545	0.165	793309	keystroke_a	a	n/a
396.805	0.105	793610	keystroke_r	r	n/a
397.03	0.0905	794060	keystroke_i	i	n/a
397.195	0.12	794390	keystroke_Key.space	Key.space	n/a
397.39	0.15	794780	keystroke_o	o	n/a
397.5695	0.135	795139	keystroke_p	p	n/a
397.7195	0.136	795439	keystroke_e	e	n/a
397.8245	0.121	795649	keystroke_r	r	n/a
398.0495	0.151	796099	keystroke_a	a	n/a
398.2305	0.164	796461	keystroke_Key.space	Key.space	n/a
398.3955	0.135	796791	keystroke_s	s	n/a
398.5305	0.12	797061	keystroke_p	p	n/a
398.6955	0.149	797391	keystroke_a	a	n/a
398.8155	0.12	797631	keystroke_r	r	n/a
398.9505	0.0895	797901	keystroke_e	e	n/a
399.085	0.1195	798170	keystroke_Key.enter	Key.enter	n/a
399.2115	7.1955	798423	prompt	n/a	consultancy warriors shortly additional\n
399.9555	0.1345	799911	keystroke_c	c	n/a
400.075	0.105	800150	keystroke_o	o	n/a
400.33	0.0895	800660	keystroke_n	n	n/a
400.495	0.15	800990	keystroke_s	s	n/a
400.63	0.105	801260	keystroke_u	u	n/a
400.78	0.1045	801560	keystroke_l	l	n/a
401.02	0.09	802040	keystroke_t	t	n/a
401.2155	0.15	802431	keystroke_a	a	n/a
401.3505	0.09	802701	keystroke_n	n	n/a
401.5005	0.09	803001	keystroke_c	c	n/a
401.665	0.0745	803330	keystroke_y	y	n/a
401.8755	0.12	803751	keystroke_Key.space	Key.space	n/a
402.0105	0.134	804021	keystroke_w	w	n/a
402.1455	0.165	804291	keystroke_a	a	n/a
402.2955	0.075	804591	keystroke_r	r	n/a
402.4605	0.12	804921	keystroke_r	r	n/a
402.6255	0.21	805251	keystroke_i	i	n/a
402.7755	0.149	805551	keystroke_o	o	n/a
403.0305	0.12	806061	keystroke_r	r	n/a
403.2395	0.121	806479	keystroke_s	s	n/a
403.3295	0.1955	806659	keystroke_Key.space	Key.space	n/a
403.51	0.165	807020	keystroke_s	s	n/a
403.66	0.12	807320	keystroke_h	h	n/a
403.765	0.121	807530	keystroke_o	o	n/a
403.9	0.075	807800	keystroke_r	r	n/a
404.11	0.06	808220	keystroke_t	t	n/a
404.2605	0.09	808521	keystroke_l	l	n/a
404.4705	0.089	808941	keystroke_y	y	n/a
404.6795	0.12	809359	keystroke_Key.space	Key.space	n/a
404.9045	0.1505	809809	keystroke_a	a	n/a
405.0255	0.0895	810051	keystroke_d	d	n/a
405.19	0.105	810380	keystroke_d	d	n/a
405.31	0.1055	810620	keystroke_i	i	n/a
405.431	0.074	810862	keystroke_t	t	n/a
405.565	0.1805	811130	keystroke_i	i	n/a
405.6855	0.135	811371	keystroke_o	o	n/a
405.7745	0.121	811549	keystroke_n	n	n/a
405.9255	0.149	811851	keystroke_a	a	n/a
406.0605	0.09	812121	keystroke_l	l	n/a
406.3005	0.104	812601	keystroke_Key.enter	Key.enter	n/a
406.411	5.381	812822	prompt	n/a	hobby bags belts packets\n
407.0645	0.091	814129	keystroke_h	h	n/a
407.1695	0.1355	814339	keystroke_o	o	n/a
407.5455	0.1195	815091	keystroke_b	b	n/a
407.7695	0.091	815539	keystroke_b	b	n/a
407.9795	0.075	815959	keystroke_y	y	n/a
408.16	0.1205	816320	keystroke_Key.space	Key.space	n/a
408.5495	0.121	817099	keystroke_b	b	n/a
408.7295	0.1655	817459	keystroke_a	a	n/a
408.9395	0.1055	817879	keystroke_g	g	n/a
409.225	0.135	818450	keystroke_s	s	n/a
409.3305	0.1945	818661	keystroke_Key.space	Key.space	n/a
409.495	0.105	818990	keystroke_b	b	n/a
409.675	0.1055	819350	keystroke_e	e	n/a
409.8255	0.105	819651	keystroke_l	l	n/a
409.96	0.09	819920	keystroke_t	t	n/a
410.275	0.105	820550	keystroke_s	s	n/a
410.365	0.12	820730	keystroke_Key.space	Key.space	n/a
410.575	0.1205	821150	keystroke_p	p	n/a
410.7105	0.15	821421	keystroke_a	a	n/a
410.8755	0.09	821751	keystroke_c	c	n/a
410.9805	0.1345	821961	keystroke_k	k	n/a
411.1305	0.149	822261	keystroke_e	e	n/a
411.2645	0.09	822529	keystroke_t	t	n/a
411.4895	0.0905	822979	keystroke_s	s	n/a
411.6995	0.0905	823399	keystroke_Key.enter	Key.enter	n/a
411.7965	6.8505	823593	prompt	n/a	turbo evaluations weights sometimes\n
412.5855	0.12	825171	keystroke_t	t	n/a
412.7355	0.12	825471	keystroke_u	u	n/a
412.8405	0.06	825681	keystroke_r	r	n/a
413.05	0.075	826100	keystroke_b	b	n/a
413.26	0.075	826520	keystroke_o	o	n/a
413.425	0.1045	826850	keystroke_Key.space	Key.space	n/a
413.5445	0.1205	827089	keystroke_e	e	n/a
413.8305	0.089	827661	keystroke_v	v	n/a
414.0545	0.1205	828109	keystroke_a	a	n/a
414.2495	0.091	828499	keystroke_l	l	n/a
414.5955	0.0595	829191	keystroke_u	u	n/a
414.9855	0.135	829971	keystroke_a	a	n/a
415.2245	0.0755	830449	keystroke_t	t	n/a
415.36	0.1495	830720	keystroke_i	i	n/a
415.4805	0.18	830961	keystroke_o	o	n/a
415.615	0.12	831230	keystroke_n	n	n/a
415.7495	0.106	831499	keystroke_s	s	n/a
415.8245	0.1655	831649	keystroke_Key.space	Key.space	n/a
416.0495	0.135	832099	keystroke_w	w	n/a
416.1545	0.15	832309	keystroke_e	e	n/a
416.2905	0.12	832581	keystroke_i	i	n/a
416.4405	0.075	832881	keystroke_g	g	n/a
416.5605	0.12	833121	keystroke_h	h	n/a
416.6955	0.045	833391	keystroke_t	t	n/a
416.8905	0.15	833781	keystroke_s	s	n/a
417.0245	0.166	834049	keystroke_Key.space	Key.space	n/a
417.1755	0.165	834351	keystroke_s	s	n/a
417.3255	0.1645	834651	keystroke_o	o	n/a
417.475	0.12	834950	keystroke_m	m	n/a
417.61	0.075	835220	keystroke_e	e	n/a
417.775	0.09	835550	keystroke_t	t	n/a
417.88	0.1045	835760	keystroke_i	i	n/a
418.0595	0.1055	836119	keystroke_m	m	n/a
418.1805	0.105	836361	keystroke_e	e	n/a
418.3755	0.104	836751	keystroke_s	s	n/a
418.5695	0.075	837139	keystroke_Key.enter	Key.enter	n/a
418.651	6.491	837302	prompt	n/a	donate craft delhi automatic\n
419.306	0.119	838612	keystroke_d	d	n/a
419.426	0.149	838852	keystroke_o	o	n/a
419.545	0.12	839090	keystroke_n	n	n/a
419.725	0.135	839450	keystroke_a	a	n/a
419.845	0.106	839690	keystroke_t	t	n/a
420.04	0.12	840080	keystroke_e	e	n/a
420.13	0.24	840260	keystroke_Key.space	Key.space	n/a
420.341	0.119	840682	keystroke_c	c	n/a
420.595	0.1045	841190	keystroke_r	r	n/a
420.8205	0.135	841641	keystroke_a	a	n/a
421.0295	0.0905	842059	keystroke_f	f	n/a
421.2395	0.06	842479	keystroke_t	t	n/a
421.4195	0.21	842839	keystroke_Key.space	Key.space	n/a
421.5995	0.091	843199	keystroke_d	d	n/a
421.7655	0.1055	843531	keystroke_e	e	n/a
421.9155	0.0745	843831	keystroke_l	l	n/a
422.125	0.075	844250	keystroke_h	h	n/a
422.29	0.12	844580	keystroke_a	a	n/a
422.8155	0.075	845631	keystroke_Key.backspace	Key.backspace	n/a
422.9655	0.0595	845931	keystroke_i	i	n/a
423.16	0.165	846320	keystroke_Key.space	Key.space	n/a
423.6255	0.165	847251	keystroke_a	a	n/a
423.7755	0.074	847551	keystroke_u	u	n/a
423.8955	0.09	847791	keystroke_t	t	n/a
424.045	0.09	848090	keystroke_o	o	n/a
424.2705	0.09	848541	keystroke_m	m	n/a
424.405	0.12	848810	keystroke_a	a	n/a
424.54	0.075	849080	keystroke_t	t	n/a
424.7045	0.106	849409	keystroke_i	i	n/a
424.8545	0.106	849709	keystroke_c	c	n/a
425.0345	0.105	850069	keystroke_Key.enter	Key.enter	n/a
425.1465	6.7005	850293	prompt	n/a	extensive james analyzed quiz\n
425.77	0.09	851540	keystroke_e	e	n/a
425.9805	0.1045	851961	keystroke_x	x	n/a
426.1905	0.0595	852381	keystroke_t	t	n/a
426.3405	0.089	852681	keystroke_e	e	n/a
426.445	0.1055	852890	keystroke_n	n	n/a
426.61	0.1055	853220	keystroke_s	s	n/a
426.745	0.12	853490	keystroke_i	i	n/a
426.895	0.0905	853790	keystroke_v	v	n/a
427.0905	0.1195	854181	keystroke_e	e	n/a
427.18	0.165	854360	keystroke_Key.space	Key.space	n/a
427.375	0.1055	854750	keystroke_j	j	n/a
427.5405	0.15	855081	keystroke_a	a	n/a
427.6455	0.135	855291	keystroke_m	m	n/a
427.795	0.0905	855590	keystroke_e	e	n/a
427.945	0.135	855890	keystroke_s	s	n/a
428.05	0.165	856100	keystroke_Key.space	Key.space	n/a
428.2005	0.1195	856401	keystroke_a	a	n/a
428.3055	0.1195	856611	keystroke_n	n	n/a
428.471	0.089	856942	keystroke_a	a	n/a
428.92	0.1055	857840	keystroke_l	l	n/a
429.2805	0.09	858561	keystroke_y	y	n/a
429.6105	0.12	859221	keystroke_z	z	n/a
429.85	0.075	859700	keystroke_e	e	n/a
430.0905	0.09	860181	keystroke_d	d	n/a
430.7055	0.135	861411	keystroke_Key.space	Key.space	n/a
431.035	0.105	862070	keystroke_q	q	n/a
431.17	0.1205	862340	keystroke_u	u	n/a
431.3355	0.0895	862671	keystroke_i	i	n/a
431.5305	0.12	863061	keystroke_z	z	n/a
431.7555	0.09	863511	keystroke_Key.enter	Key.enter	n/a
431.8555	8.9915	863711	prompt	n/a	nominations institute investigator canal\n
432.9705	0.134	865941	keystroke_n	n	n/a
433.1505	0.09	866301	keystroke_o	o	n/a
433.3605	0.075	866721	keystroke_m	m	n/a
433.5405	0.135	867081	keystroke_i	i	n/a
433.6445	0.09	867289	keystroke_n	n	n/a
433.8105	0.15	867621	keystroke_a	a	n/a
433.9905	0.09	867981	keystroke_t	t	n/a
434.1705	0.135	868341	keystroke_i	i	n/a
434.2905	0.1795	868581	keystroke_o	o	n/a
434.4255	0.122	868851	keystroke_n	n	n/a
434.5305	0.105	869061	keystroke_s	s	n/a
434.5755	0.164	869151	keystroke_Key.space	Key.space	n/a
434.7405	0.1495	869481	keystroke_i	i	n/a
434.845	0.1195	869690	keystroke_n	n	n/a
435.0245	0.1055	870049	keystroke_s	s	n/a
435.2645	0.12	870529	keystroke_t	t	n/a
435.491	0.0895	870982	keystroke_i	i	n/a
435.6105	0.105	871221	keystroke_t	t	n/a
435.8205	0.105	871641	keystroke_u	u	n/a
435.9555	0.09	871911	keystroke_t	t	n/a
436.1355	0.105	872271	keystroke_e	e	n/a
436.2845	0.151	872569	keystroke_Key.space	Key.space	n/a
436.4805	0.18	872961	keystroke_i	i	n/a
436.6005	0.18	873201	keystroke_n	n	n/a
436.886	0.2095	873772	keystroke_v	v	n/a
437.2605	0.149	874521	keystroke_e	e	n/a
437.4855	0.21	874971	keystroke_s	s	n/a
437.68	0.075	875360	keystroke_t	t	n/a
437.815	0.1205	875630	keystroke_i	i	n/a
437.995	0.09	875990	keystroke_f	f	n/a
438.16	0.165	876320	keystroke_a	a	n/a
438.295	0.0905	876590	keystroke_t	t	n/a
438.445	0.1055	876890	keystroke_o	o	n/a
438.8205	0.1045	877641	keystroke_r	r	n/a
439.105	0.12	878210	keystroke_Key.space	Key.space	n/a
439.465	0.105	878930	keystroke_c	c	n/a
439.5995	0.1355	879199	keystroke_a	a	n/a
439.7205	0.1345	879441	keystroke_n	n	n/a
439.885	0.1055	879770	keystroke_a	a	n/a
440.531	0.2095	881062	keystroke_l	l	n/a
440.755	0.09	881510	keystroke_Key.enter	Key.enter	n/a
440.852	5.8915	881704	prompt	n/a	servers modem portland carries\n
441.82	0.1805	883640	keystroke_s	s	n/a
441.955	0.18	883910	keystroke_e	e	n/a
442.0905	0.0895	884181	keystroke_r	r	n/a
442.3	0.0755	884600	keystroke_v	v	n/a
442.4505	0.12	884901	keystroke_e	e	n/a
442.5405	0.12	885081	keystroke_r	r	n/a
442.7655	0.134	885531	keystroke_s	s	n/a
442.8555	0.1345	885711	keystroke_Key.space	Key.space	n/a
442.975	0.1355	885950	keystroke_m	m	n/a
443.125	0.135	886250	keystroke_o	o	n/a
443.246	0.089	886492	keystroke_d	d	n/a
443.41	0.106	886820	keystroke_e	e	n/a
443.545	0.12	887090	keystroke_m	m	n/a
443.725	0.1205	887450	keystroke_Key.space	Key.space	n/a
444.0855	0.1645	888171	keystroke_p	p	n/a
444.2205	0.1495	888441	keystroke_o	o	n/a
444.385	0.0905	888770	keystroke_r	r	n/a
444.565	0.075	889130	keystroke_t	t	n/a
444.7605	0.12	889521	keystroke_l	l	n/a
444.8805	0.1495	889761	keystroke_a	a	n/a
444.986	0.104	889972	keystroke_n	n	n/a
445.12	0.1505	890240	keystroke_d	d	n/a
445.2395	0.166	890479	keystroke_Key.space	Key.space	n/a
445.4795	0.121	890959	keystroke_c	c	n/a
445.6905	0.164	891381	keystroke_a	a	n/a
445.84	0.075	891680	keystroke_r	r	n/a
445.9905	0.135	891981	keystroke_r	r	n/a
446.1405	0.119	892281	keystroke_i	i	n/a
446.2455	0.105	892491	keystroke_e	e	n/a
446.4255	0.1195	892851	keystroke_s	s	n/a
446.62	0.1205	893240	keystroke_Key.enter	Key.enter	n/a
446.753	7.2935	893506	prompt	n/a	practitioners awful storage observed\n
447.415	0.1055	894830	keystroke_p	p	n/a
447.535	0.105	895070	keystroke_r	r	n/a
447.745	0.12	895490	keystroke_a	a	n/a
447.895	0.075	895790	keystroke_c	c	n/a
448.09	0.06	896180	keystroke_t	t	n/a
448.225	0.105	896450	keystroke_i	i	n/a
448.4355	0.0595	896871	keystroke_t	t	n/a
448.6005	0.1495	897201	keystroke_i	i	n/a
448.7355	0.1645	897471	keystroke_o	o	n/a
448.915	0.106	897830	keystroke_n	n	n/a
449.066	0.0445	898132	keystroke_s	s	n/a
449.4855	0.06	898971	keystroke_Key.backspace	Key.backspace	n/a
449.5305	0.15	899061	keystroke_e	e	n/a
449.6505	0.074	899301	keystroke_r	r	n/a
449.9055	0.15	899811	keystroke_s	s	n/a
450.1	0.1505	900200	keystroke_Key.space	Key.space	n/a
450.5655	0.1045	901131	keystroke_a	a	n/a
450.715	0.09	901430	keystroke_w	w	n/a
450.9105	0.105	901821	keystroke_f	f	n/a
451.0305	0.105	902061	keystroke_u	u	n/a
451.1505	0.12	902301	keystroke_l	l	n/a
451.3005	0.135	902601	keystroke_Key.space	Key.space	n/a
451.4505	0.15	902901	keystroke_s	s	n/a
451.5855	0.09	903171	keystroke_t	t	n/a
451.7655	0.075	903531	keystroke_o	o	n/a
451.871	0.0895	903742	keystroke_r	r	n/a
452.0655	0.1505	904131	keystroke_a	a	n/a
452.201	0.0895	904402	keystroke_g	g	n/a
452.41	0.075	904820	keystroke_e	e	n/a
452.44	0.1805	904880	keystroke_Key.space	Key.space	n/a
452.6055	0.09	905211	keystroke_o	o	n/a
452.725	0.0905	905450	keystroke_b	b	n/a
452.95	0.165	905900	keystroke_s	s	n/a
453.0695	0.151	906139	keystroke_e	e	n/a
453.1895	0.075	906379	keystroke_r	r	n/a
453.416	0.0595	906832	keystroke_v	v	n/a
453.5805	0.06	907161	keystroke_e	e	n/a
453.7595	0.0755	907519	keystroke_d	d	n/a
453.94	0.1055	907880	keystroke_Key.enter	Key.enter	n/a
454.051	8.0055	908102	prompt	n/a	losing shadows rehabilitation mozambique\n
454.615	0.075	909230	keystroke_l	l	n/a
454.795	0.1205	909590	keystroke_o	o	n/a
455.08	0.1505	910160	keystroke_s	s	n/a
455.231	0.165	910462	keystroke_i	i	n/a
455.35	0.135	910700	keystroke_n	n	n/a
455.486	0.1345	910972	keystroke_g	g	n/a
455.6505	0.1645	911301	keystroke_Key.space	Key.space	n/a
455.816	0.149	911632	keystroke_s	s	n/a
455.95	0.0905	911900	keystroke_h	h	n/a
456.07	0.1655	912140	keystroke_a	a	n/a
456.2805	0.12	912561	keystroke_d	d	n/a
456.445	0.075	912890	keystroke_o	o	n/a
456.79	0.12	913580	keystroke_w	w	n/a
457.03	0.135	914060	keystroke_s	s	n/a
457.135	0.1505	914270	keystroke_Key.space	Key.space	n/a
457.3455	0.135	914691	keystroke_r	r	n/a
457.5105	0.1195	915021	keystroke_e	e	n/a
457.66	0.105	915320	keystroke_h	h	n/a
457.825	0.121	915650	keystroke_a	a	n/a
457.975	0.1055	915950	keystroke_b	b	n/a
458.155	0.12	916310	keystroke_i	i	n/a
458.395	0.18	916790	keystroke_l	l	n/a
458.56	0.1205	917120	keystroke_i	i	n/a
458.8005	0.09	917601	keystroke_t	t	n/a
458.995	0.1655	917990	keystroke_a	a	n/a
459.115	0.12	918230	keystroke_t	t	n/a
459.28	0.15	918560	keystroke_i	i	n/a
459.3855	0.1495	918771	keystroke_o	o	n/a
459.55	0.105	919100	keystroke_n	n	n/a
459.685	0.15	919370	keystroke_Key.space	Key.space	n/a
459.865	0.09	919730	keystroke_m	m	n/a
460.09	0.0905	920180	keystroke_o	o	n/a
460.33	0.1205	920660	keystroke_z	z	n/a
460.5995	0.106	921199	keystroke_a	a	n/a
460.7355	0.12	921471	keystroke_m	m	n/a
461.0205	0.105	922041	keystroke_b	b	n/a
461.1855	0.09	922371	keystroke_i	i	n/a
461.47	0.09	922940	keystroke_q	q	n/a
461.6355	0.09	923271	keystroke_u	u	n/a
461.785	0.06	923570	keystroke_e	e	n/a
461.9805	0.0745	923961	keystroke_Key.enter	Key.enter	n/a
462.059	8.443	924118	prompt	n/a	accomplished informational swingers workout\n
462.8505	0.1795	925701	keystroke_a	a	n/a
463.045	0.06	926090	keystroke_c	c	n/a
463.165	0.105	926330	keystroke_c	c	n/a
463.3	0.195	926600	keystroke_o	o	n/a
463.465	0.12	926930	keystroke_m	m	n/a
463.6905	0.1195	927381	keystroke_p	p	n/a
463.915	0.1955	927830	keystroke_l	l	n/a
464.0955	0.105	928191	keystroke_i	i	n/a
464.2455	0.12	928491	keystroke_s	s	n/a
464.3805	0.1195	928761	keystroke_h	h	n/a
464.515	0.0755	929030	keystroke_e	e	n/a
464.7105	0.1065	929421	keystroke_d	d	n/a
464.7855	0.1345	929571	keystroke_Key.space	Key.space	n/a
464.9655	0.0895	929931	keystroke_i	i	n/a
465.2045	0.09	930409	keystroke_n	n	n/a
465.4605	0.105	930921	keystroke_f	f	n/a
465.6105	0.1045	931221	keystroke_o	o	n/a
465.716	0.089	931432	keystroke_r	r	n/a
465.895	0.09	931790	keystroke_m	m	n/a
466.03	0.1055	932060	keystroke_a	a	n/a
466.1505	0.075	932301	keystroke_t	t	n/a
466.27	0.1805	932540	keystroke_i	i	n/a
466.4055	0.1945	932811	keystroke_o	o	n/a
466.555	0.0755	933110	keystroke_n	n	n/a
466.6755	0.15	933351	keystroke_a	a	n/a
466.8405	0.09	933681	keystroke_l	l	n/a
466.9595	0.18	933919	keystroke_Key.space	Key.space	n/a
467.1245	0.076	934249	keystroke_s	s	n/a
467.335	0.09	934670	keystroke_w	w	n/a
467.7105	0.165	935421	keystroke_i	i	n/a
467.86	0.105	935720	keystroke_n	n	n/a
467.98	0.1055	935960	keystroke_g	g	n/a
468.1605	0.1195	936321	keystroke_e	e	n/a
468.2505	0.12	936501	keystroke_r	r	n/a
468.49	0.1205	936980	keystroke_s	s	n/a
468.58	0.135	937160	keystroke_Key.space	Key.space	n/a
468.82	0.1505	937640	keystroke_w	w	n/a
468.955	0.1045	937910	keystroke_o	o	n/a
469.0905	0.105	938181	keystroke_r	r	n/a
469.2855	0.09	938571	keystroke_k	k	n/a
469.7955	0.119	939591	keystroke_o	o	n/a
470.0205	0.075	940041	keystroke_u	u	n/a
470.246	0.0585	940492	keystroke_t	t	n/a
470.4105	0.089	940821	keystroke_Key.enter	Key.enter	n/a
470.507	6.7915	941014	prompt	n/a	bless compared joke psychological\n
471.221	0.1045	942442	keystroke_b	b	n/a
471.355	0.135	942710	keystroke_l	l	n/a
471.476	0.1195	942952	keystroke_e	e	n/a
471.6405	0.104	943281	keystroke_s	s	n/a
471.8355	0.149	943671	keystroke_s	s	n/a
472	0.2255	944000	keystroke_Key.space	Key.space	n/a
472.2105	0.1055	944421	keystroke_c	c	n/a
472.3905	0.1345	944781	keystroke_o	o	n/a
472.48	0.1355	944960	keystroke_m	m	n/a
472.7205	0.1045	945441	keystroke_p	p	n/a
472.8855	0.15	945771	keystroke_a	a	n/a
473.0205	0.105	946041	keystroke_r	r	n/a
473.3355	0.0895	946671	keystroke_e	e	n/a
473.5455	0.12	947091	keystroke_d	d	n/a
473.6345	0.136	947269	keystroke_Key.space	Key.space	n/a
473.7555	0.1505	947511	keystroke_j	j	n/a
473.935	0.09	947870	keystroke_o	o	n/a
474.2055	0.09	948411	keystroke_k	k	n/a
474.37	0.1055	948740	keystroke_e	e	n/a
474.64	0.1205	949280	keystroke_d	d	n/a
474.73	0.1505	949460	keystroke_Key.space	Key.space	n/a
475.0755	0.105	950151	keystroke_p	p	n/a
475.2105	0.134	950421	keystroke_s	s	n/a
475.3605	0.074	950721	keystroke_y	y	n/a
475.5405	0.12	951081	keystroke_c	c	n/a
475.6755	0.105	951351	keystroke_h	h	n/a
475.7955	0.09	951591	keystroke_o	o	n/a
476.0055	0.06	952011	keystroke_l	l	n/a
476.1705	0.06	952341	keystroke_o	o	n/a
476.3205	0.105	952641	keystroke_g	g	n/a
476.4705	0.105	952941	keystroke_i	i	n/a
476.68	0.0895	953360	keystroke_c	c	n/a
476.8295	0.136	953659	keystroke_a	a	n/a
476.9805	0.09	953961	keystroke_l	l	n/a
477.1905	0.105	954381	keystroke_Key.enter	Key.enter	n/a
477.3035	7.1935	954607	prompt	n/a	activists optional membership urban\n
477.8955	0.15	955791	keystroke_a	a	n/a
478.0605	0.075	956121	keystroke_c	c	n/a
478.2405	0.075	956481	keystroke_t	t	n/a
478.3755	0.09	956751	keystroke_i	i	n/a
478.5105	0.105	957021	keystroke_v	v	n/a
478.6755	0.104	957351	keystroke_i	i	n/a
478.8855	0.12	957771	keystroke_s	s	n/a
479.1255	0.075	958251	keystroke_t	t	n/a
479.32	0.1205	958640	keystroke_s	s	n/a
479.425	0.15	958850	keystroke_Key.space	Key.space	n/a
479.696	0.134	959392	keystroke_o	o	n/a
479.9505	0.09	959901	keystroke_p	p	n/a
480.1155	0.105	960231	keystroke_t	t	n/a
480.2655	0.15	960531	keystroke_i	i	n/a
480.3855	0.1495	960771	keystroke_o	o	n/a
480.58	0.091	961160	keystroke_n	n	n/a
480.7605	0.0895	961521	keystroke_a	a	n/a
480.865	0.1055	961730	keystroke_l	l	n/a
481.015	0.12	962030	keystroke_Key.space	Key.space	n/a
481.165	0.105	962330	keystroke_m	m	n/a
481.315	0.1205	962630	keystroke_e	e	n/a
481.45	0.091	962900	keystroke_m	m	n/a
481.6905	0.09	963381	keystroke_b	b	n/a
481.8855	0.1495	963771	keystroke_e	e	n/a
481.975	0.1055	963950	keystroke_r	r	n/a
482.2005	0.105	964401	keystroke_s	s	n/a
482.4705	0.105	964941	keystroke_h	h	n/a
482.68	0.105	965360	keystroke_i	i	n/a
482.8455	0.105	965691	keystroke_p	p	n/a
483.055	0.1355	966110	keystroke_Key.space	Key.space	n/a
483.2655	0.105	966531	keystroke_u	u	n/a
483.6105	0.09	967221	keystroke_r	r	n/a
483.8505	0.0745	967701	keystroke_b	b	n/a
484.015	0.1205	968030	keystroke_a	a	n/a
484.1505	0.0905	968301	keystroke_n	n	n/a
484.375	0.12	968750	keystroke_Key.enter	Key.enter	n/a
484.502	6.206	969004	prompt	n/a	taste extending by congress\n
485.1405	0.1195	970281	keystroke_t	t	n/a
485.365	0.18	970730	keystroke_a	a	n/a
485.5305	0.1495	971061	keystroke_s	s	n/a
485.7405	0.09	971481	keystroke_t	t	n/a
485.8905	0.105	971781	keystroke_e	e	n/a
