onset	duration	sample	value	key	prompt_text
2.929	48.4615	5858	prompt	n/a	the quick brown fox jumps over a lazy dog\n
38.7145	0.072	77429	keystroke	t	n/a
38.8615	0.0905	77723	keystroke	h	n/a
39.012	0.075	78024	keystroke	e	n/a
39.117	0.09	78234	keystroke	Key.space	n/a
39.8515	0.105	79703	keystroke	q	n/a
40.0765	0.1055	80153	keystroke	u	n/a
40.1665	0.136	80333	keystroke	i	n/a
40.3925	0.135	80785	keystroke	c	n/a
40.5425	0.09	81085	keystroke	k	n/a
41.2315	0.1055	82463	keystroke	Key.space	n/a
41.352	0.09	82704	keystroke	b	n/a
41.577	0.105	83154	keystroke	r	n/a
41.697	0.06	83394	keystroke	o	n/a
41.802	0.075	83604	keystroke	w	n/a
41.862	0.12	83724	keystroke	n	n/a
41.997	0.075	83994	keystroke	Key.space	n/a
42.207	0.12	84414	keystroke	f	n/a
42.312	0.06	84624	keystroke	o	n/a
42.462	0.075	84924	keystroke	x	n/a
42.567	0.075	85134	keystroke	Key.space	n/a
43.707	0.135	87414	keystroke	j	n/a
43.932	0.09	87864	keystroke	u	n/a
44.112	0.09	88224	keystroke	l	n/a
44.142	0.18	88284	keystroke	m	n/a
44.952	0.0755	89904	keystroke	Key.backspace	n/a
45.0865	0.076	90173	keystroke	Key.backspace	n/a
45.3425	0.135	90685	keystroke	m	n/a
45.5975	0.09	91195	keystroke	p	n/a
45.8975	0.0595	91795	keystroke	s	n/a
46.212	0.075	92424	keystroke	o	n/a
46.302	0.12	92604	keystroke	v	n/a
46.407	0.135	92814	keystroke	e	n/a
46.527	0.105	93054	keystroke	r	n/a
46.662	0.12	93324	keystroke	Key.space	n/a
47.247	0.0595	94494	keystroke	Key.backspace	n/a
47.412	0.045	94824	keystroke	Key.backspace	n/a
47.562	0.0445	95124	keystroke	Key.backspace	n/a
47.7115	0.045	95423	keystroke	Key.backspace	n/a
47.8615	0.045	95723	keystroke	Key.backspace	n/a
48.5065	0.135	97013	keystroke	Key.space	n/a
48.912	0.06	97824	keystroke	o	n/a
49.017	0.09	98034	keystroke	v	n/a
49.1215	0.1355	98243	keystroke	e	n/a
49.242	0.09	98484	keystroke	r	n/a
49.347	0.12	98694	keystroke	Key.space	n/a
49.767	0.105	99534	keystroke	l	n/a
49.872	0.09	99744	keystroke	a	n/a
50.097	0.12	100194	keystroke	z	n/a
50.292	0.06	100584	keystroke	y	n/a
50.4115	0.165	100823	keystroke	Key.space	n/a
50.5915	0.15	101183	keystroke	d	n/a
50.7715	0.06	101543	keystroke	o	n/a
50.8915	0.09	101783	keystroke	g	n/a
51.3115	0.075	102623	keystroke	Key.enter	n/a
51.3995	10.0115	102799	prompt	n/a	salt receipt seen pass\n
52.9465	0.165	105893	keystroke	s	n/a
53.0515	0.105	106103	keystroke	a	n/a
53.2165	0.105	106433	keystroke	l	n/a
53.5165	0.105	107033	keystroke	t	n/a
53.6515	0.12	107303	keystroke	Key.space	n/a
54.072	0.105	108144	keystroke	r	n/a
54.162	0.09	108324	keystroke	e	n/a
54.402	0.105	108804	keystroke	c	n/a
54.657	0.105	109314	keystroke	e	n/a
55.302	0.045	110604	keystroke	i	n/a
55.437	0.075	110874	keystroke	p	n/a
55.557	0.105	111114	keystroke	t	n/a
55.766	0.0905	111532	keystroke	Key.space	n/a
56.607	0.12	113214	keystroke	s	n/a
56.8465	0.0755	113693	keystroke	e	n/a
56.9965	0.09	113993	keystroke	e	n/a
57.117	0.135	114234	keystroke	n	n/a
57.237	0.12	114474	keystroke	Key.space	n/a
57.7915	0.09	115583	keystroke	p	n/a
57.9265	0.1205	115853	keystroke	a	n/a
58.197	0.075	116394	keystroke	s	n/a
58.362	0.075	116724	keystroke	s	n/a
61.4085	0.001	122817	keystroke	Key.enter	n/a
61.416	9.2925	122832	prompt	n/a	chick processes translated dealt\n
62.4265	0.135	124853	keystroke	c	n/a
62.5765	0.12	125153	keystroke	h	n/a
62.9665	0.075	125933	keystroke	i	n/a
63.0565	0.12	126113	keystroke	c	n/a
63.1915	0.09	126383	keystroke	k	n/a
63.3565	0.1045	126713	keystroke	Key.space	n/a
63.896	0.12	127792	keystroke	p	n/a
64.152	0.135	128304	keystroke	r	n/a
64.302	0.075	128604	keystroke	o	n/a
64.482	0.12	128964	keystroke	c	n/a
64.707	0.09	129414	keystroke	e	n/a
64.962	0.06	129924	keystroke	s	n/a
65.097	0.075	130194	keystroke	s	n/a
65.262	0.12	130524	keystroke	e	n/a
65.5015	0.075	131003	keystroke	s	n/a
65.6065	0.12	131213	keystroke	Key.space	n/a
65.9365	0.09	131873	keystroke	t	n/a
66.1315	0.15	132263	keystroke	r	n/a
66.3115	0.105	132623	keystroke	a	n/a
66.9715	0.06	133943	keystroke	n	n/a
67.1515	0.09	134303	keystroke	s	n/a
67.2565	0.09	134513	keystroke	l	n/a
67.4065	0.12	134813	keystroke	a	n/a
67.5565	0.135	135113	keystroke	t	n/a
67.6765	0.105	135353	keystroke	e	n/a
67.9015	0.09	135803	keystroke	d	n/a
68.0515	0.135	136103	keystroke	Key.space	n/a
68.292	0.09	136584	keystroke	d	n/a
68.502	0.09	137004	keystroke	e	n/a
69.342	0.09	138684	keystroke	a	n/a
70.107	0.075	140214	keystroke	l	n/a
70.257	0.1045	140514	keystroke	t	n/a
70.6315	0.075	141263	keystroke	Key.enter	n/a
70.7135	11.485	141427	prompt	n/a	eyed happened strange childhood\n
72.522	0.09	145044	keystroke	e	n/a
72.641	0.075	145282	keystroke	y	n/a
72.761	0.105	145522	keystroke	e	n/a
73.286	0.1055	146572	keystroke	d	n/a
73.766	0.135	147532	keystroke	Key.space	n/a
74.126	0.06	148252	keystroke	h	n/a
74.216	0.105	148432	keystroke	a	n/a
74.397	0.09	148794	keystroke	p	n/a
74.577	0.09	149154	keystroke	p	n/a
75.192	0.09	150384	keystroke	e	n/a
75.312	0.09	150624	keystroke	n	n/a
75.612	0.105	151224	keystroke	d	n/a
76.302	0.075	152604	keystroke	Key.backspace	n/a
76.407	0.075	152814	keystroke	e	n/a
76.587	0.09	153174	keystroke	d	n/a
76.706	0.075	153412	keystroke	Key.space	n/a
77.637	0.1345	155274	keystroke	s	n/a
77.8315	0.09	155663	keystroke	t	n/a
78.0265	0.195	156053	keystroke	r	n/a
78.2365	0.105	156473	keystroke	a	n/a
78.6115	0.075	157223	keystroke	n	n/a
78.7315	0.15	157463	keystroke	g	n/a
78.8665	0.09	157733	keystroke	e	n/a
79.5265	0.105	159053	keystroke	Key.space	n/a
79.9165	0.165	159833	keystroke	c	n/a
80.0965	0.12	160193	keystroke	h	n/a
80.1715	0.21	160343	keystroke	i	n/a
80.3515	0.12	160703	keystroke	l	n/a
80.4715	0.105	160943	keystroke	d	n/a
81.3865	0.105	162773	keystroke	h	n/a
81.5365	0.09	163073	keystroke	o	n/a
81.6865	0.09	163373	keystroke	o	n/a
81.8215	0.0895	163643	keystroke	d	n/a
82.121	0.075	164242	keystroke	Key.enter	n/a
82.204	9.235	164408	prompt	n/a	nuke recruiting springer memorial\n
83.2465	0.105	166493	keystroke	n	n/a
83.4565	0.06	166913	keystroke	u	n/a
83.6365	0.075	167273	keystroke	k	n/a
83.7715	0.09	167543	keystroke	e	n/a
84.2065	0.165	168413	keystroke	Key.space	n/a
84.5065	0.12	169013	keystroke	r	n/a
84.5965	0.12	169193	keystroke	e	n/a
84.8815	0.135	169763	keystroke	c	n/a
85.3465	0.12	170693	keystroke	r	n/a
85.7365	0.105	171473	keystroke	u	n/a
85.9165	0.0905	171833	keystroke	i	n/a
86.052	0.12	172104	keystroke	t	n/a
86.127	0.12	172254	keystroke	i	n/a
86.232	0.12	172464	keystroke	n	n/a
86.336	0.106	172672	keystroke	g	n/a
86.411	0.12	172822	keystroke	Key.space	n/a
86.892	0.075	173784	keystroke	s	n/a
87.207	0.1045	174414	keystroke	p	n/a
87.4915	0.135	174983	keystroke	r	n/a
87.5665	0.12	175133	keystroke	i	n/a
87.6565	0.12	175313	keystroke	n	n/a
87.7915	0.12	175583	keystroke	g	n/a
87.9265	0.12	175853	keystroke	e	n/a
88.0315	0.09	176063	keystroke	r	n/a
88.1665	0.105	176333	keystroke	Key.space	n/a
88.5115	0.1345	177023	keystroke	m	n/a
88.6615	0.135	177323	keystroke	e	n/a
88.8265	0.09	177653	keystroke	r	n/a
89.6665	0.06	179333	keystroke	Key.backspace	n/a
89.9065	0.15	179813	keystroke	m	n/a
90.0865	0.075	180173	keystroke	o	n/a
90.2665	0.12	180533	keystroke	r	n/a
90.8215	0.09	181643	keystroke	i	n/a
90.9715	0.105	181943	keystroke	a	n/a
91.0915	0.09	182183	keystroke	l	n/a
91.3765	0.0595	182753	keystroke	Key.enter	n/a
91.4445	15.894	182889	prompt	n/a	portsmouth apartments identifier channel\n
92.502	0.09	185004	keystroke	p	n/a
92.666	0.075	185332	keystroke	o	n/a
93.191	0.09	186382	keystroke	r	n/a
93.3715	0.09	186743	keystroke	t	n/a
93.4915	0.15	186983	keystroke	Key.space	n/a
94.0765	0.075	188153	keystroke	Key.backspace	n/a
94.2115	0.09	188423	keystroke	s	n/a
94.616	0.135	189232	keystroke	m	n/a
94.736	0.12	189472	keystroke	o	n/a
95.111	0.12	190222	keystroke	t	n/a
95.276	0.075	190552	keystroke	h	n/a
95.756	0.06	191512	keystroke	Key.backspace	n/a
95.921	0.075	191842	keystroke	Key.backspace	n/a
96.191	0.03	192382	keystroke	u	n/a
96.296	0.075	192592	keystroke	t	n/a
96.387	0.0895	192774	keystroke	h	n/a
96.5215	0.075	193043	keystroke	Key.space	n/a
97.1515	0.105	194303	keystroke	a	n/a
100.8735	0.028	201747	keystroke	p	n/a
100.961	0.165	201922	keystroke	a	n/a
101.171	0.09	202342	keystroke	r	n/a
101.381	0.09	202762	keystroke	t	n/a
101.846	0.12	203692	keystroke	m	n/a
101.981	0.09	203962	keystroke	e	n/a
102.102	0.074	204204	keystroke	n	n/a
102.206	0.0905	204412	keystroke	t	n/a
102.4315	0.09	204863	keystroke	s	n/a
102.5815	0.12	205163	keystroke	Key.space	n/a
102.8065	0.09	205613	keystroke	i	n/a
103.0165	0.09	206033	keystroke	d	n/a
103.2265	0.09	206453	keystroke	e	n/a
103.3615	0.075	206723	keystroke	n	n/a
103.4965	0.09	206993	keystroke	t	n/a
103.6615	0.075	207323	keystroke	i	n/a
103.8565	0.12	207713	keystroke	f	n/a
103.9915	0.06	207983	keystroke	i	n/a
104.1565	0.09	208313	keystroke	e	n/a
104.7265	0.12	209453	keystroke	r	n/a
104.9215	0.1355	209843	keystroke	Key.space	n/a
105.417	0.135	210834	keystroke	c	n/a
105.912	0.06	211824	keystroke	h	n/a
106.002	0.105	212004	keystroke	a	n/a
106.257	0.075	212514	keystroke	n	n/a
106.407	0.09	212814	keystroke	n	n/a
106.556	0.136	213112	keystroke	e	n/a
106.737	0.105	213474	keystroke	l	n/a
107.232	0.104	214464	keystroke	Key.enter	n/a
107.345	9.714	214690	prompt	n/a	derek albert programming jackson\n
108.327	0.074	216654	keystroke	d	n/a
108.5065	0.15	217013	keystroke	e	n/a
108.6415	0.105	217283	keystroke	r	n/a
108.9265	0.105	217853	keystroke	e	n/a
109.0915	0.0895	218183	keystroke	k	n/a
109.541	0.12	219082	keystroke	Key.space	n/a
110.201	0.105	220402	keystroke	a	n/a
110.381	0.0755	220762	keystroke	l	n/a
110.5015	0.12	221003	keystroke	b	n/a
110.6965	0.15	221393	keystroke	e	n/a
110.8315	0.105	221663	keystroke	r	n/a
111.0115	0.09	222023	keystroke	t	n/a
111.1615	0.12	222323	keystroke	Key.space	n/a
111.8365	0.075	223673	keystroke	p	n/a
112.0165	0.09	224033	keystroke	r	n/a
112.0615	0.075	224123	keystroke	o	n/a
112.2115	0.135	224423	keystroke	g	n/a
112.4665	0.165	224933	keystroke	r	n/a
112.7065	0.105	225413	keystroke	a	n/a
112.932	0.1345	225864	keystroke	m	n/a
113.3965	0.12	226793	keystroke	i	n/a
113.5015	0.12	227003	keystroke	n	n/a
113.6815	0.09	227363	keystroke	g	n/a
114.0415	0.045	228083	keystroke	Key.backspace	n/a
114.1915	0.06	228383	keystroke	Key.backspace	n/a
114.476	0.061	228952	keystroke	Key.backspace	n/a
114.762	0.135	229524	keystroke	m	n/a
114.941	0.136	229882	keystroke	i	n/a
115.047	0.105	230094	keystroke	n	n/a
115.197	0.09	230394	keystroke	g	n/a
115.332	0.0595	230664	keystroke	Key.space	n/a
115.7965	0.1205	231593	keystroke	j	n/a
115.9315	0.135	231863	keystroke	a	n/a
116.2015	0.12	232403	keystroke	c	n/a
116.2915	0.09	232583	keystroke	k	n/a
116.456	0.105	232912	keystroke	s	n/a
116.576	0.12	233152	keystroke	o	n/a
116.681	0.135	233362	keystroke	n	n/a
116.981	0.075	233962	keystroke	Key.enter	n/a
117.067	19.851	234134	prompt	n/a	teens edgar sexuality consideration\n
118.1815	0.105	236363	keystroke	t	n/a
118.3615	0.0895	236723	keystroke	e	n/a
118.526	0.105	237052	keystroke	e	n/a
118.661	0.106	237322	keystroke	n	n/a
118.796	0.09	237592	keystroke	s	n/a
119.021	0.075	238042	keystroke	Key.space	n/a
119.486	0.06	238972	keystroke	e	n/a
119.786	0.105	239572	keystroke	d	n/a
120.716	0.165	241432	keystroke	g	n/a
120.867	0.224	241734	keystroke	e	n/a
121.061	0.09	242122	keystroke	r	n/a
121.526	0.075	243052	keystroke	Key.backspace	n/a
121.676	0.075	243352	keystroke	Key.backspace	n/a
121.737	0.104	243474	keystroke	a	n/a
121.872	0.089	243744	keystroke	r	n/a
122.006	0.091	244012	keystroke	Key.space	n/a
123.851	0.105	247702	keystroke	s	n/a
124.061	0.105	248122	keystroke	e	n/a
124.301	0.15	248602	keystroke	x	n/a
124.661	0.106	249322	keystroke	u	n/a
125.2615	0.075	250523	keystroke	l	n/a
125.4265	0.0745	250853	keystroke	i	n/a
125.666	0.091	251332	keystroke	t	n/a
125.786	0.09	251572	keystroke	y	n/a
125.921	0.135	251842	keystroke	Key.space	n/a
126.176	0.135	252352	keystroke	c	n/a
126.281	0.06	252562	keystroke	o	n/a
126.342	0.1045	252684	keystroke	n	n/a
129.539	0.0125	259078	keystroke	Key.backspace	n/a
129.6415	0.06	259283	keystroke	Key.backspace	n/a
129.8065	0.06	259613	keystroke	Key.backspace	n/a
129.9715	0.045	259943	keystroke	Key.backspace	n/a
130.1365	0.06	260273	keystroke	Key.backspace	n/a
130.2865	0.06	260573	keystroke	Key.backspace	n/a
130.452	0.0595	260904	keystroke	Key.backspace	n/a
130.797	0.075	261594	keystroke	Key.backspace	n/a
131.892	0.09	263784	keystroke	a	n/a
132.432	0.075	264864	keystroke	l	n/a
132.567	0.075	265134	keystroke	i	n/a
132.806	0.106	265612	keystroke	t	n/a
132.942	0.09	265884	keystroke	y	n/a
133.091	0.106	266182	keystroke	Key.space	n/a
134.127	0.15	268254	keystroke	c	n/a
134.246	0.076	268492	keystroke	o	n/a
134.307	0.1345	268614	keystroke	n	n/a
135.0115	0.12	270023	keystroke	s	n/a
135.1765	0.06	270353	keystroke	i	n/a
135.2515	0.09	270503	keystroke	d	n/a
135.4465	0.165	270893	keystroke	e	n/a
135.6715	0.135	271343	keystroke	r	n/a
135.8665	0.135	271733	keystroke	a	n/a
136.0165	0.105	272033	keystroke	t	n/a
136.0765	0.255	272153	keystroke	i	n/a
136.1665	0.15	272333	keystroke	o	n/a
136.2715	0.135	272543	keystroke	n	n/a
136.8115	0.105	273623	keystroke	Key.enter	n/a
136.9225	11.8605	273845	prompt	n/a	beliefs plus hugo addition\n
137.8165	0.12	275633	keystroke	b	n/a
137.9515	0.09	275903	keystroke	e	n/a
138.236	0.12	276472	keystroke	l	n/a
138.596	0.06	277192	keystroke	i	n/a
138.746	0.12	277492	keystroke	e	n/a
138.896	0.15	277792	keystroke	f	n/a
139.151	0.09	278302	keystroke	t	n/a
139.391	0.09	278782	keystroke	s	n/a
139.556	0.12	279112	keystroke	Key.space	n/a
139.886	0.075	279772	keystroke	p	n/a
141.566	0.076	283132	keystroke	Key.backspace	n/a
141.881	0.09	283762	keystroke	Key.backspace	n/a
142.046	0.075	284092	keystroke	Key.backspace	n/a
142.226	0.091	284452	keystroke	s	n/a
142.4665	0.09	284933	keystroke	Key.space	n/a
142.9465	0.075	285893	keystroke	Key.backspace	n/a
143.112	0.059	286224	keystroke	Key.backspace	n/a
143.261	0.076	286522	keystroke	Key.backspace	n/a
143.502	0.09	287004	keystroke	s	n/a
143.862	0.075	287724	keystroke	Key.space	n/a
144.492	0.089	288984	keystroke	p	n/a
144.627	0.134	289254	keystroke	l	n/a
144.942	0.059	289884	keystroke	u	n/a
145.121	0.075	290242	keystroke	s	n/a
145.256	0.12	290512	keystroke	Key.space	n/a
145.841	0.076	291682	keystroke	h	n/a
146.081	0.09	292162	keystroke	u	n/a
146.246	0.105	292492	keystroke	g	n/a
146.621	0.075	293242	keystroke	o	n/a
146.771	0.105	293542	keystroke	Key.space	n/a
147.221	0.075	294442	keystroke	a	n/a
147.4465	0.0445	294893	keystroke	d	n/a
147.581	0.075	295162	keystroke	d	n/a
148.016	0.076	296032	keystroke	i	n/a
148.136	0.121	296272	keystroke	t	n/a
148.242	0.225	296484	keystroke	i	n/a
148.332	0.15	296664	keystroke	o	n/a
148.437	0.12	296874	keystroke	n	n/a
148.721	0.06	297442	keystroke	Key.enter	n/a
148.789	6.6095	297578	prompt	n/a	cardiff winds bass hair\n
149.727	0.18	299454	keystroke	c	n/a
149.891	0.1205	299782	keystroke	a	n/a
150.1315	0.105	300263	keystroke	r	n/a
150.5065	0.09	301013	keystroke	d	n/a
151.0015	0.015	302003	keystroke	i	n/a
151.0615	0.09	302123	keystroke	f	n/a
151.2415	0.09	302483	keystroke	f	n/a
151.901	0.1055	303802	keystroke	Key.space	n/a
152.2315	0.15	304463	keystroke	w	n/a
152.3665	0.15	304733	keystroke	i	n/a
152.4715	0.12	304943	keystroke	n	n/a
152.5765	0.135	305153	keystroke	d	n/a
152.7865	0.09	305573	keystroke	s	n/a
152.9215	0.105	305843	keystroke	Key.space	n/a
153.2365	0.12	306473	keystroke	b	n/a
153.5665	0.09	307133	keystroke	a	n/a
153.8965	0.075	307793	keystroke	s	n/a
154.0615	0.075	308123	keystroke	s	n/a
154.2555	0.136	308511	keystroke	Key.space	n/a
154.5715	0.06	309143	keystroke	h	n/a
154.6465	0.135	309293	keystroke	a	n/a
154.8415	0.09	309683	keystroke	i	n/a
155.0215	0.09	310043	keystroke	r	n/a
155.3065	0.09	310613	keystroke	Key.enter	n/a
155.404	7.989	310808	prompt	n/a	cent titten hearts currently\n
156.3105	0.106	312621	keystroke	c	n/a
156.5215	0.105	313043	keystroke	e	n/a
156.6565	0.09	313313	keystroke	n	n/a
156.8215	0.09	313643	keystroke	t	n/a
157.4665	0.135	314933	keystroke	Key.space	n/a
157.7665	0.105	315533	keystroke	t	n/a
157.9315	0.06	315863	keystroke	i	n/a
158.0365	0.0755	316073	keystroke	t	n/a
158.216	0.061	316432	keystroke	t	n/a
158.501	0.105	317002	keystroke	e	n/a
159.101	0.09	318202	keystroke	n	n/a
159.296	0.0905	318592	keystroke	Key.space	n/a
159.7465	0.06	319493	keystroke	h	n/a
160.1365	0.165	320273	keystroke	e	n/a
160.2865	0.135	320573	keystroke	a	n/a
160.4665	0.105	320933	keystroke	r	n/a
160.6615	0.09	321323	keystroke	t	n/a
160.9465	0.06	321893	keystroke	s	n/a
161.0665	0.09	322133	keystroke	Key.space	n/a
161.4265	0.165	322853	keystroke	c	n/a
161.6365	0.09	323273	keystroke	u	n/a
161.7865	0.09	323573	keystroke	r	n/a
161.9815	0.105	323963	keystroke	r	n/a
162.1165	0.135	324233	keystroke	e	n/a
162.296	0.105	324592	keystroke	n	n/a
162.521	0.12	325042	keystroke	t	n/a
162.791	0.135	325582	keystroke	l	n/a
163.046	0.075	326092	keystroke	y	n/a
163.301	0.09	326602	keystroke	Key.enter	n/a
163.398	10.375	326796	prompt	n/a	hasn't option tremendous forms\n
164.3065	0.119	328613	keystroke	h	n/a
164.4415	0.12	328883	keystroke	a	n/a
164.6215	0.105	329243	keystroke	s	n/a
164.9665	0.135	329933	keystroke	n	n/a
166.0905	0.075	332181	keystroke	'	n/a
166.2555	0.091	332511	keystroke	t	n/a
166.4805	0.075	332961	keystroke	Key.space	n/a
167.0505	0.121	334101	keystroke	o	n/a
167.1855	0.09	334371	keystroke	p	n/a
167.3515	0.12	334703	keystroke	t	n/a
167.4265	0.2845	334853	keystroke	i	n/a
167.5305	0.12	335061	keystroke	o	n/a
167.6965	0.105	335393	keystroke	n	n/a
168.3565	0.135	336713	keystroke	Key.space	n/a
168.7165	0.12	337433	keystroke	t	n/a
168.8815	0.105	337763	keystroke	e	n/a
169.631	0.06	339262	keystroke	Key.backspace	n/a
169.736	0.151	339472	keystroke	r	n/a
169.841	0.09	339682	keystroke	e	n/a
170.8315	0.0895	341663	keystroke	m	n/a
171.191	0.1205	342382	keystroke	e	n/a
171.3265	0.09	342653	keystroke	n	n/a
171.4915	0.135	342983	keystroke	d	n/a
171.9115	0.135	343823	keystroke	o	n/a
172.1215	0.06	344243	keystroke	u	n/a
172.2565	0.09	344513	keystroke	s	n/a
172.3765	0.134	344753	keystroke	Key.space	n/a
172.7215	0.15	345443	keystroke	f	n/a
172.8265	0.09	345653	keystroke	o	n/a
173.0215	0.119	346043	keystroke	r	n/a
173.1705	0.136	346341	keystroke	m	n/a
173.4705	0.105	346941	keystroke	s	n/a
173.6955	0.075	347391	keystroke	Key.enter	n/a
173.7785	7.6445	347557	prompt	n/a	queries wooden extensive bone\n
174.7615	0.075	349523	keystroke	q	n/a
175.4515	0.06	350903	keystroke	u	n/a
175.9165	0.12	351833	keystroke	e	n/a
176.3665	0.1045	352733	keystroke	r	n/a
176.501	0.09	353002	keystroke	i	n/a
176.666	0.12	353332	keystroke	e	n/a
176.891	0.075	353782	keystroke	s	n/a
176.996	0.12	353992	keystroke	Key.space	n/a
177.236	0.105	354472	keystroke	w	n/a
177.491	0.06	354982	keystroke	o	n/a
177.626	0.075	355252	keystroke	o	n/a
177.836	0.105	355672	keystroke	d	n/a
178.181	0.105	356362	keystroke	e	n/a
178.316	0.075	356632	keystroke	n	n/a
178.4965	0.105	356993	keystroke	Key.space	n/a
178.8115	0.09	357623	keystroke	e	n/a
179.0365	0.09	358073	keystroke	x	n/a
179.2315	0.12	358463	keystroke	t	n/a
179.3965	0.135	358793	keystroke	e	n/a
179.6065	0.09	359213	keystroke	n	n/a
179.7415	0.12	359483	keystroke	s	n/a
179.8765	0.075	359753	keystroke	i	n/a
179.9815	0.12	359963	keystroke	v	n/a
180.0715	0.105	360143	keystroke	e	n/a
180.5215	0.195	361043	keystroke	Key.space	n/a
180.8065	0.09	361613	keystroke	b	n/a
180.9115	0.075	361823	keystroke	o	n/a
181.0315	0.09	362063	keystroke	n	n/a
181.1065	0.09	362213	keystroke	e	n/a
181.3615	0.06	362723	keystroke	Key.enter	n/a
181.4285	7.3295	362857	prompt	n/a	axis bend scuba football\n
182.3365	0.09	364673	keystroke	a	n/a
182.6215	0.12	365243	keystroke	x	n/a
182.8615	0.059	365723	keystroke	i	n/a
183.0265	0.059	366053	keystroke	s	n/a
183.1315	0.105	366263	keystroke	Key.space	n/a
183.5205	0.076	367041	keystroke	b	n/a
183.6715	0.105	367343	keystroke	e	n/a
183.7915	0.09	367583	keystroke	n	n/a
183.9865	0.1045	367973	keystroke	d	n/a
184.1515	0.1195	368303	keystroke	Key.space	n/a
184.661	0.1065	369322	keystroke	s	n/a
184.886	0.1205	369772	keystroke	c	n/a
185.336	0.075	370672	keystroke	u	n/a
185.4715	0.105	370943	keystroke	b	n/a
185.8015	0.0895	371603	keystroke	a	n/a
186.041	0.105	372082	keystroke	Key.space	n/a
186.581	0.135	373162	keystroke	f	n/a
186.881	0.06	373762	keystroke	o	n/a
187.031	0.06	374062	keystroke	o	n/a
187.151	0.105	374302	keystroke	t	n/a
187.556	0.105	375112	keystroke	b	n/a
188.051	0.1055	376102	keystroke	a	n/a
188.2015	0.06	376403	keystroke	l	n/a
188.3365	0.0745	376673	keystroke	l	n/a
188.681	0.075	377362	keystroke	Key.enter	n/a
188.7625	7.9605	377525	prompt	n/a	ottawa optics lopez tape\n
189.821	0.06	379642	keystroke	o	n/a
190.001	0.075	380002	keystroke	t	n/a
190.166	0.075	380332	keystroke	t	n/a
190.7065	0.135	381413	keystroke	a	n/a
190.9015	0.135	381803	keystroke	w	n/a
191.0665	0.075	382133	keystroke	a	n/a
191.6515	0.0895	383303	keystroke	Key.space	n/a
192.191	0.12	384382	keystroke	o	n/a
192.371	0.06	384742	keystroke	p	n/a
192.641	0.105	385282	keystroke	t	n/a
192.851	0.075	385702	keystroke	i	n/a
192.986	0.135	385972	keystroke	c	n/a
193.6165	0.089	387233	keystroke	s	n/a
193.8555	0.135	387711	keystroke	Key.space	n/a
194.1405	0.075	388281	keystroke	l	n/a
194.3055	0.061	388611	keystroke	o	n/a
194.771	0.06	389542	keystroke	p	n/a
194.9965	0.09	389993	keystroke	e	n/a
195.2815	0.105	390563	keystroke	z	n/a
195.5215	0.0895	391043	keystroke	Key.space	n/a
195.881	0.15	391762	keystroke	t	n/a
196.016	0.135	392032	keystroke	a	n/a
196.241	0.09	392482	keystroke	p	n/a
196.4065	0.09	392813	keystroke	e	n/a
196.6615	0.06	393323	keystroke	Key.enter	n/a
196.7295	14.9035	393459	prompt	n/a	photography timber selecting automation\n
197.546	0.09	395092	keystroke	p	n/a
197.7415	0.06	395483	keystroke	o	n/a
197.8465	0.104	395693	keystroke	t	n/a
197.9655	0.091	395931	keystroke	o	n/a
198.416	0.105	396832	keystroke	g	n/a
198.642	0.164	397284	keystroke	r	n/a
198.791	0.09	397582	keystroke	a	n/a
199.541	0.075	399082	keystroke	Key.backspace	n/a
199.706	0.06	399412	keystroke	Key.backspace	n/a
199.916	0.015	399832	keystroke	Key.backspace	n/a
200.006	0.06	400012	keystroke	Key.backspace	n/a
200.171	0.045	400342	keystroke	Key.backspace	n/a
200.306	0.06	400612	keystroke	Key.backspace	n/a
200.772	0.075	401544	keystroke	h	n/a
201.341	0.075	402682	keystroke	o	n/a
201.596	0.09	403192	keystroke	t	n/a
201.761	0.09	403522	keystroke	o	n/a
202.2565	0.105	404513	keystroke	g	n/a
202.4965	0.165	404993	keystroke	r	n/a
202.6315	0.105	405263	keystroke	a	n/a
203.381	0.105	406762	keystroke	p	n/a
203.816	0.0905	407632	keystroke	h	n/a
204.0415	0.06	408083	keystroke	y	n/a
204.2815	0.105	408563	keystroke	Key.space	n/a
205.0465	0.135	410093	keystroke	t	n/a
205.1665	0.105	410333	keystroke	i	n/a
205.2715	0.15	410543	keystroke	m	n/a
205.4515	0.12	410903	keystroke	b	n/a
205.6165	0.15	411233	keystroke	e	n/a
205.7515	0.09	411503	keystroke	r	n/a
206.396	0.105	412792	keystroke	Key.space	n/a
206.651	0.135	413302	keystroke	s	n/a
206.9365	0.105	413873	keystroke	e	n/a
207.0565	0.075	414113	keystroke	l	n/a
207.1465	0.12	414293	keystroke	e	n/a
207.4165	0.135	414833	keystroke	c	n/a
207.6865	0.105	415373	keystroke	t	n/a
208.0615	0.135	416123	keystroke	i	n/a
208.1965	0.09	416393	keystroke	n	n/a
208.3165	0.1045	416633	keystroke	g	n/a
208.407	0.089	416814	keystroke	Key.space	n/a
208.7365	0.105	417473	keystroke	a	n/a
209.2615	0.075	418523	keystroke	u	n/a
209.4265	0.105	418853	keystroke	t	n/a
210.131	0.09	420262	keystroke	o	n/a
210.326	0.1355	420652	keystroke	m	n/a
210.4765	0.12	420953	keystroke	a	n/a
210.6415	0.12	421283	keystroke	t	n/a
210.7315	0.21	421463	keystroke	i	n/a
210.7915	0.135	421583	keystroke	o	n/a
210.8965	0.105	421793	keystroke	n	n/a
211.5415	0.09	423083	keystroke	Key.enter	n/a
211.6385	7.8545	423277	prompt	n/a	accomplish lamb redeem softball\n
212.5615	0.09	425123	keystroke	a	n/a
212.8165	0.06	425633	keystroke	c	n/a
212.9815	0.075	425963	keystroke	c	n/a
213.1615	0.09	426323	keystroke	o	n/a
213.2965	0.195	426593	keystroke	m	n/a
213.5815	0.12	427163	keystroke	p	n/a
214.0915	0.09	428183	keystroke	l	n/a
214.2865	0.06	428573	keystroke	i	n/a
214.421	0.09	428842	keystroke	s	n/a
214.556	0.075	429112	keystroke	h	n/a
214.691	0.09	429382	keystroke	Key.space	n/a
214.946	0.075	429892	keystroke	l	n/a
215.066	0.105	430132	keystroke	a	n/a
215.366	0.09	430732	keystroke	m	n/a
215.621	0.06	431242	keystroke	b	n/a
216.071	0.105	432142	keystroke	Key.space	n/a
216.536	0.15	433072	keystroke	r	n/a
216.656	0.075	433312	keystroke	e	n/a
216.851	0.09	433702	keystroke	d	n/a
217.1665	0.0605	434333	keystroke	e	n/a
217.301	0.106	434602	keystroke	e	n/a
217.4805	0.151	434961	keystroke	m	n/a
217.6465	0.105	435293	keystroke	Key.space	n/a
217.9165	0.09	435833	keystroke	s	n/a
218.0515	0.075	436103	keystroke	o	n/a
218.1715	0.12	436343	keystroke	f	n/a
218.3815	0.0745	436763	keystroke	t	n/a
218.696	0.135	437392	keystroke	b	n/a
218.816	0.1055	437632	keystroke	a	n/a
219.0865	0.06	438173	keystroke	l	n/a
219.2515	0.045	438503	keystroke	l	n/a
219.4315	0.06	438863	keystroke	Key.enter	n/a
219.4975	13.616	438995	prompt	n/a	contractors essay financial undo\n
220.5415	0.045	441083	keystroke	o	n/a
220.6015	0.0745	441203	keystroke	n	n/a
221.096	0.045	442192	keystroke	Key.backspace	n/a
221.217	0.089	442434	keystroke	Key.backspace	n/a
221.352	0.134	442704	keystroke	c	n/a
221.502	0.104	443004	keystroke	o	n/a
221.577	0.105	443154	keystroke	n	n/a
221.801	0.09	443602	keystroke	t	n/a
222.027	0.149	444054	keystroke	r	n/a
222.807	0.105	445614	keystroke	a	n/a
222.986	0.1655	445972	keystroke	c	n/a
223.2565	0.15	446513	keystroke	t	n/a
223.5715	0.06	447143	keystroke	o	n/a
223.6915	0.135	447383	keystroke	r	n/a
223.9915	0.075	447983	keystroke	s	n/a
224.1115	0.105	448223	keystroke	Key.space	n/a
224.3815	0.09	448763	keystroke	e	n/a
224.6515	0.09	449303	keystroke	a	n/a
225.1915	0.06	450383	keystroke	Key.backspace	n/a
225.2665	0.075	450533	keystroke	s	n/a
225.4615	0.09	450923	keystroke	s	n/a
226.0165	0.105	452033	keystroke	a	n/a
226.376	0.06	452752	keystroke	y	n/a
226.526	0.09	453052	keystroke	Key.space	n/a
226.781	0.12	453562	keystroke	f	n/a
226.886	0.12	453772	keystroke	i	n/a
226.991	0.135	453982	keystroke	n	n/a
227.231	0.105	454462	keystroke	a	n/a
227.426	0.075	454852	keystroke	n	n/a
228.402	0.1345	456804	keystroke	c	n/a
228.5665	0.075	457133	keystroke	i	n/a
228.6865	0.105	457373	keystroke	a	n/a
228.8215	0.1045	457643	keystroke	l	n/a
228.9865	0.105	457973	keystroke	Key.space	n/a
229.5865	0.045	459173	keystroke	u	n/a
229.7815	0.06	459563	keystroke	n	n/a
229.7965	0.12	459593	keystroke	d	n/a
230.0215	0.105	460043	keystroke	e	n/a
230.1115	0.12	460223	keystroke	r	n/a
230.981	0.06	461962	keystroke	Key.backspace	n/a
231.146	0.075	462292	keystroke	Key.backspace	n/a
231.522	0.0745	463044	keystroke	o	n/a
233.096	0.015	466192	keystroke	Key.enter	n/a
233.124	21.979	466248	prompt	n/a	chapel picnic suggested cardiovascular\n
235.829	0.0425	471658	keystroke	c	n/a
235.9315	0.09	471863	keystroke	a	n/a
236.697	0.06	473394	keystroke	=	n/a
236.922	0.06	473844	keystroke	g	n/a
237.9565	0.075	475913	keystroke	Key.backspace	n/a
238.2115	0.06	476423	keystroke	Key.backspace	n/a
238.466	0.075	476932	keystroke	Key.backspace	n/a
242.1585	0.001	484317	keystroke	h	n/a
242.2915	0.105	484583	keystroke	a	n/a
243.177	0.104	486354	keystroke	p	n/a
243.491	0.016	486982	keystroke	e	n/a
243.522	0.135	487044	keystroke	l	n/a
243.717	0.09	487434	keystroke	Key.space	n/a
244.301	0.12	488602	keystroke	p	n/a
244.631	0.09	489262	keystroke	i	n/a
244.871	0.135	489742	keystroke	c	n/a
245.231	0.12	490462	keystroke	n	n/a
245.366	0.09	490732	keystroke	i	n/a
245.501	0.12	491002	keystroke	c	n/a
245.711	0.09	491422	keystroke	Key.space	n/a
246.806	0.045	493612	keystroke	s	n/a
246.926	0.105	493852	keystroke	u	n/a
247.362	0.075	494724	keystroke	g	n/a
247.5715	0.1055	495143	keystroke	g	n/a
247.9315	0.105	495863	keystroke	e	n/a
248.1715	0.165	496343	keystroke	s	n/a
248.3515	0.0895	496703	keystroke	t	n/a
248.561	0.091	497122	keystroke	e	n/a
248.756	0.075	497512	keystroke	d	n/a
248.921	0.12	497842	keystroke	Key.space	n/a
249.4315	0.165	498863	keystroke	c	n/a
249.5815	0.135	499163	keystroke	a	n/a
249.8515	0.105	499703	keystroke	r	n/a
250.5865	0.06	501173	keystroke	d	n/a
251.1265	0.015	502253	keystroke	i	n/a
251.3365	0.105	502673	keystroke	v	n/a
251.951	0.075	503902	keystroke	Key.backspace	n/a
252.1765	0.0905	504353	keystroke	o	n/a
253.002	0.135	506004	keystroke	v	n/a
253.2865	0.105	506573	keystroke	a	n/a
253.736	0.075	507472	keystroke	s	n/a
254.006	0.135	508012	keystroke	c	n/a
254.291	0.09	508582	keystroke	u	n/a
254.486	0.121	508972	keystroke	l	n/a
254.607	0.15	509214	keystroke	a	n/a
254.832	0.1345	509664	keystroke	r	n/a
255.0415	0.06	510083	keystroke	Key.enter	n/a
255.109	13.464	510218	prompt	n/a	freelance basin banned beastality\n
255.9565	0.12	511913	keystroke	f	n/a
256.1965	0.09	512393	keystroke	r	n/a
256.422	0.059	512844	keystroke	e	n/a
256.557	0.09	513114	keystroke	e	n/a
257.112	0.09	514224	keystroke	l	n/a
257.231	0.12	514462	keystroke	a	n/a
257.397	0.059	514794	keystroke	n	n/a
257.502	0.089	515004	keystroke	c	n/a
257.696	0.075	515392	keystroke	e	n/a
257.831	0.135	515662	keystroke	Key.space	n/a
258.131	0.15	516262	keystroke	b	n/a
258.251	0.1505	516502	keystroke	a	n/a
258.506	0.12	517012	keystroke	s	n/a
258.806	0.135	517612	keystroke	i	n/a
258.926	0.09	517852	keystroke	n	n/a
259.7365	0.15	519473	keystroke	Key.space	n/a
259.9915	0.15	519983	keystroke	b	n/a
260.1265	0.12	520253	keystroke	a	n/a
260.4115	0.06	520823	keystroke	n	n/a
260.5465	0.075	521093	keystroke	n	n/a
260.7115	0.105	521423	keystroke	e	n/a
260.9215	0.09	521843	keystroke	d	n/a
261.0865	0.12	522173	keystroke	Key.space	n/a
261.4315	0.09	522863	keystroke	b	n/a
261.6865	0.12	523373	keystroke	e	n/a
261.9115	0.12	523823	keystroke	a	n/a
262.1365	0.12	524273	keystroke	s	n/a
262.4515	0.105	524903	keystroke	t	n/a
264.1765	0.09	528353	keystroke	a	n/a
264.3865	0.1055	528773	keystroke	i	n/a
264.732	0.075	529464	keystroke	l	n/a
264.972	0.09	529944	keystroke	i	n/a
265.137	0.12	530274	keystroke	t	n/a
265.287	0.09	530574	keystroke	y	n/a
266.2465	0.075	532493	keystroke	Key.backspace	n/a
266.4265	0.045	532853	keystroke	Key.backspace	n/a
266.5765	0.06	533153	keystroke	Key.backspace	n/a
266.7115	0.075	533423	keystroke	Key.backspace	n/a
266.8915	0.06	533783	keystroke	Key.backspace	n/a
267.6115	0.0895	535223	keystroke	l	n/a
267.806	0.06	535612	keystroke	i	n/a
268.076	0.12	536152	keystroke	t	n/a
268.211	0.075	536422	keystroke	y	n/a
268.496	0.075	536992	keystroke	Key.enter	n/a
268.579	8.829	537158	prompt	n/a	where're beta gotta tabs\n
269.471	0.1205	538942	keystroke	w	n/a
269.651	0.075	539302	keystroke	h	n/a
269.726	0.105	539452	keystroke	e	n/a
269.816	0.1355	539632	keystroke	r	n/a
269.906	0.1055	539812	keystroke	e	n/a
271.1215	0.0745	542243	keystroke	Key.backspace	n/a
272.262	0.119	544524	keystroke	e	n/a
272.621	0.1055	545242	keystroke	'	n/a
272.8315	0.135	545663	keystroke	r	n/a
272.9365	0.12	545873	keystroke	e	n/a
273.506	0.12	547012	keystroke	Key.space	n/a
273.731	0.12	547462	keystroke	b	n/a
273.836	0.09	547672	keystroke	e	n/a
274.046	0.15	548092	keystroke	t	n/a
274.211	0.12	548422	keystroke	a	n/a
274.376	0.0905	548752	keystroke	Key.space	n/a
274.6765	0.105	549353	keystroke	g	n/a
274.857	0.0595	549714	keystroke	o	n/a
275.1115	0.089	550223	keystroke	t	n/a
275.3065	0.1055	550613	keystroke	t	n/a
275.531	0.121	551062	keystroke	a	n/a
275.786	0.09	551572	keystroke	Key.space	n/a
276.356	0.1505	552712	keystroke	t	n/a
276.4765	0.135	552953	keystroke	a	n/a
276.6415	0.12	553283	keystroke	b	n/a
276.8815	0.105	553763	keystroke	s	n/a
277.2865	0.12	554573	keystroke	Key.enter	n/a
277.413	8.815	554826	prompt	n/a	bristol desktops overcome boating\n
278.3815	0.1195	556763	keystroke	b	n/a
278.696	0.135	557392	keystroke	r	n/a
278.877	0.074	557754	keystroke	i	n/a
278.982	0.119	557964	keystroke	s	n/a
279.177	0.104	558354	keystroke	t	n/a
279.326	0.076	558652	keystroke	o	n/a
279.8065	0.09	559613	keystroke	l	n/a
280.0315	0.0895	560063	keystroke	Key.space	n/a
280.542	0.074	561084	keystroke	d	n/a
280.721	0.091	561442	keystroke	e	n/a
280.9165	0.09	561833	keystroke	s	n/a
281.0665	0.105	562133	keystroke	k	n/a
281.1865	0.105	562373	keystroke	t	n/a
281.4265	0.15	562853	keystroke	o	n/a
282.4915	0.075	564983	keystroke	p	n/a
282.6865	0.075	565373	keystroke	s	n/a
282.8515	0.105	565703	keystroke	Key.space	n/a
283.0915	0.075	566183	keystroke	o	n/a
283.1815	0.105	566363	keystroke	v	n/a
283.3015	0.135	566603	keystroke	e	n/a
283.4215	0.09	566843	keystroke	r	n/a
283.8855	0.106	567771	keystroke	c	n/a
284.0065	0.09	568013	keystroke	o	n/a
284.0655	0.106	568131	keystroke	m	n/a
284.1415	0.09	568283	keystroke	e	n/a
284.3055	0.03	568611	keystroke	Key.space	n/a
284.4565	0.105	568913	keystroke	b	n/a
284.9215	0.0605	569843	keystroke	o	n/a
285.296	0.09	570592	keystroke	a	n/a
285.506	0.105	571012	keystroke	t	n/a
285.626	0.105	571252	keystroke	i	n/a
285.716	0.12	571432	keystroke	n	n/a
285.806	0.09	571612	keystroke	g	n/a
286.166	0.06	572332	keystroke	Key.enter	n/a
286.2325	6.9705	572465	prompt	n/a	tampa sara fire comparisons\n
287.111	0.135	574222	keystroke	t	n/a
287.261	0.135	574522	keystroke	a	n/a
287.426	0.165	574852	keystroke	m	n/a
287.606	0.09	575212	keystroke	p	n/a
287.801	0.09	575602	keystroke	a	n/a
288.4015	0.104	576803	keystroke	Key.space	n/a
288.7605	0.09	577521	keystroke	s	n/a
288.9555	0.1205	577911	keystroke	a	n/a
289.211	0.105	578422	keystroke	r	n/a
289.391	0.105	578782	keystroke	a	n/a
289.571	0.135	579142	keystroke	Key.space	n/a
289.767	0.119	579534	keystroke	f	n/a
289.916	0.06	579832	keystroke	i	n/a
290.036	0.121	580072	keystroke	r	n/a
290.111	0.105	580222	keystroke	e	n/a
290.291	0.105	580582	keystroke	Key.space	n/a
290.7565	0.12	581513	keystroke	c	n/a
290.8615	0.165	581723	keystroke	o	n/a
290.9965	0.165	581993	keystroke	m	n/a
291.2965	0.09	582593	keystroke	p	n/a
291.6865	0.0745	583373	keystroke	a	n/a
291.941	0.09	583882	keystroke	r	n/a
292.241	0.06	584482	keystroke	i	n/a
292.376	0.09	584752	keystroke	s	n/a
292.496	0.15	584992	keystroke	o	n/a
292.631	0.09	585262	keystroke	n	n/a
292.826	0.09	585652	keystroke	s	n/a
293.1265	0.075	586253	keystroke	Key.enter	n/a
293.2075	12.7605	586415	prompt	n/a	houses plymouth acknowledged limitations\n
294.1015	0.135	588203	keystroke	h	n/a
294.2215	0.135	588443	keystroke	o	n/a
294.3265	0.075	588653	keystroke	u	n/a
294.4165	0.195	588833	keystroke	s	n/a
294.5815	0.09	589163	keystroke	e	n/a
295.2115	0.105	590423	keystroke	Key.space	n/a
295.7965	0.075	591593	keystroke	p	n/a
296.1565	0.135	592313	keystroke	l	n/a
296.4415	0.06	592883	keystroke	y	n/a
296.9215	0.18	593843	keystroke	m	n/a
297.0865	0.1795	594173	keystroke	o	n/a
297.221	0.09	594442	keystroke	u	n/a
297.611	0.12	595222	keystroke	t	n/a
297.7155	0.09	595431	keystroke	h	n/a
297.896	0.0905	595792	keystroke	Key.space	n/a
298.226	0.12	596452	keystroke	a	n/a
298.466	0.12	596932	keystroke	c	n/a
299.771	0.075	599542	keystroke	k	n/a
300.1165	0.15	600233	keystroke	n	n/a
300.3115	0.075	600623	keystroke	o	n/a
300.716	0.075	601432	keystroke	w	n/a
300.986	0.075	601972	keystroke	l	n/a
301.1365	0.09	602273	keystroke	e	n/a
301.4665	0.165	602933	keystroke	d	n/a
301.6465	0.1045	603293	keystroke	g	n/a
301.706	0.09	603412	keystroke	e	n/a
302.8915	0.09	605783	keystroke	d	n/a
303.2815	0.06	606563	keystroke	Key.space	n/a
303.7465	0.09	607493	keystroke	l	n/a
303.8665	0.09	607733	keystroke	i	n/a
304.1065	0.105	608213	keystroke	m	n/a
304.2865	0.075	608573	keystroke	i	n/a
304.5415	0.075	609083	keystroke	t	n/a
304.8255	0.105	609651	keystroke	a	n/a
304.9915	0.09	609983	keystroke	t	n/a
305.111	0.24	610222	keystroke	i	n/a
305.201	0.12	610402	keystroke	o	n/a
305.306	0.1055	610612	keystroke	n	n/a
305.4865	0.09	610973	keystroke	s	n/a
305.8765	0.09	611753	keystroke	Key.enter	n/a
305.973	12.7595	611946	prompt	n/a	what're indicator specialized clark\n
306.9565	0.12	613913	keystroke	w	n/a
307.2415	0.075	614483	keystroke	h	n/a
307.7665	0.104	615533	keystroke	a	n/a
307.9015	0.089	615803	keystroke	t	n/a
308.741	0.09	617482	keystroke	'	n/a
308.921	0.12	617842	keystroke	r	n/a
309.026	0.075	618052	keystroke	e	n/a
309.206	0.075	618412	keystroke	Key.space	n/a
310.0015	0.09	620003	keystroke	i	n/a
310.1215	0.105	620243	keystroke	n	n/a
310.736	0.1205	621472	keystroke	d	n/a
311.0515	0.06	622103	keystroke	i	n/a
311.1865	0.12	622373	keystroke	c	n/a
311.606	0.09	623212	keystroke	a	n/a
311.831	0.12	623662	keystroke	t	n/a
312.056	0.075	624112	keystroke	o	n/a
312.146	0.105	624292	keystroke	r	n/a
312.296	0.075	624592	keystroke	Key.space	n/a
312.701	0.075	625402	keystroke	s	n/a
313.181	0.09	626362	keystroke	p	n/a
313.406	0.09	626812	keystroke	e	n/a
313.736	0.135	627472	keystroke	c	n/a
313.976	0.06	627952	keystroke	i	n/a
314.171	0.075	628342	keystroke	a	n/a
314.336	0.075	628672	keystroke	l	n/a
314.531	0.06	629062	keystroke	i	n/a
314.712	0.104	629424	keystroke	z	n/a
314.996	0.075	629992	keystroke	e	n/a
315.191	0.09	630382	keystroke	d	n/a
315.371	0.075	630742	keystroke	Key.space	n/a
315.896	0.09	631792	keystroke	c	n/a
316.031	0.06	632062	keystroke	l	n/a
316.136	0.135	632272	keystroke	a	n/a
316.361	0.075	632722	keystroke	r	n/a
316.6915	0.089	633383	keystroke	d	n/a
318.041	0.06	636082	keystroke	Key.backspace	n/a
318.491	0.06	636982	keystroke	k	n/a
318.671	0.06	637342	keystroke	Key.enter	n/a
318.737	13.451	637474	prompt	n/a	presidential cancellation dining sees\n
321.7185	0.043	643437	keystroke	p	n/a
322.2265	0.135	644453	keystroke	r	n/a
322.8865	0.09	645773	keystroke	e	n/a
323.0965	0.12	646193	keystroke	s	n/a
323.3065	0.075	646613	keystroke	i	n/a
323.4415	0.105	646883	keystroke	d	n/a
323.696	0.105	647392	keystroke	e	n/a
323.861	0.075	647722	keystroke	n	n/a
323.996	0.075	647992	keystroke	t	n/a
324.191	0.075	648382	keystroke	i	n/a
324.342	0.1045	648684	keystroke	a	n/a
324.4615	0.09	648923	keystroke	l	n/a
325.1665	0.1045	650333	keystroke	Key.space	n/a
325.406	0.18	650812	keystroke	c	n/a
325.541	0.12	651082	keystroke	a	n/a
325.691	0.06	651382	keystroke	n	n/a
326.156	0.12	652312	keystroke	c	n/a
326.411	0.09	652822	keystroke	e	n/a
326.816	0.06	653632	keystroke	l	n/a
326.951	0.075	653902	keystroke	l	n/a
327.131	0.09	654262	keystroke	a	n/a
327.431	0.09	654862	keystroke	t	n/a
327.596	0.12	655192	keystroke	i	n/a
328.5415	0.105	657083	keystroke	o	n/a
328.6915	0.105	657383	keystroke	n	n/a
328.8705	0.106	657741	keystroke	Key.space	n/a
329.1715	0.135	658343	keystroke	d	n/a
329.4265	0.09	658853	keystroke	i	n/a
329.7415	0.0895	659483	keystroke	n	n/a
329.921	0.09	659842	keystroke	i	n/a
330.026	0.12	660052	keystroke	n	n/a
330.266	0.075	660532	keystroke	g	n/a
330.941	0.0905	661882	keystroke	Key.space	n/a
331.1665	0.09	662333	keystroke	s	n/a
331.3915	0.105	662783	keystroke	e	n/a
331.5565	0.105	663113	keystroke	e	n/a
331.7815	0.09	663563	keystroke	s	n/a
332.126	0.06	664252	keystroke	Key.enter	n/a
332.193	12.445	664386	prompt	n/a	statement continue homeland congratulations\n
332.996	0.135	665992	keystroke	s	n/a
333.206	0.15	666412	keystroke	t	n/a
333.656	0.12	667312	keystroke	a	n/a
333.896	0.075	667792	keystroke	t	n/a
334.061	0.105	668122	keystroke	e	n/a
334.406	0.105	668812	keystroke	m	n/a
334.526	0.12	669052	keystroke	e	n/a
334.661	0.06	669322	keystroke	n	n/a
334.781	0.09	669562	keystroke	t	n/a
335.246	0.135	670492	keystroke	Key.space	n/a
335.742	0.029	671484	keystroke	c	n/a
335.816	0.135	671632	keystroke	o	n/a
336.326	0.076	672652	keystroke	n	n/a
336.746	0.105	673492	keystroke	t	n/a
336.956	0.075	673912	keystroke	i	n/a
337.4365	0.105	674873	keystroke	n	n/a
337.7505	0.046	675501	keystroke	u	n/a
338.0215	0.075	676043	keystroke	e	n/a
338.2905	0.09	676581	keystroke	Key.space	n/a
338.7565	0.105	677513	keystroke	h	n/a
338.8915	0.1355	677783	keystroke	o	n/a
338.9955	0.106	677991	keystroke	m	n/a
339.0855	0.091	678171	keystroke	e	n/a
339.476	0.09	678952	keystroke	l	n/a
339.596	0.106	679192	keystroke	a	n/a
339.731	0.061	679462	keystroke	n	n/a
339.8215	0.075	679643	keystroke	d	n/a
339.9265	0.09	679853	keystroke	Key.space	n/a
340.3765	0.135	680753	keystroke	c	n/a
340.4665	0.09	680933	keystroke	o	n/a
340.5415	0.075	681083	keystroke	n	n/a
340.7365	0.06	681473	keystroke	g	n/a
341.561	0.2105	683122	keystroke	r	n/a
341.6965	0.18	683393	keystroke	a	n/a
341.9815	0.105	683963	keystroke	t	n/a
342.566	0.06	685132	keystroke	u	n/a
342.776	0.0905	685552	keystroke	l	n/a
342.9265	0.105	685853	keystroke	a	n/a
343.5115	0.09	687023	keystroke	t	n/a
343.9765	0.27	687953	keystroke	i	n/a
344.1115	0.15	688223	keystroke	o	n/a
344.2165	0.135	688433	keystroke	n	n/a
344.3365	0.09	688673	keystroke	s	n/a
344.5765	0.06	689153	keystroke	Key.enter	n/a
344.643	8.59	689286	prompt	n/a	been witnesses hammer spiritual\n
345.506	0.075	691012	keystroke	b	n/a
345.716	0.075	691432	keystroke	e	n/a
345.881	0.075	691762	keystroke	e	n/a
345.971	0.135	691942	keystroke	n	n/a
346.121	0.105	692242	keystroke	Key.space	n/a
346.301	0.09	692602	keystroke	w	n/a
346.436	0.09	692872	keystroke	i	n/a
346.646	0.075	693292	keystroke	t	n/a
346.886	0.06	693772	keystroke	n	n/a
347.051	0.12	694102	keystroke	e	n/a
347.366	0.06	694732	keystroke	s	n/a
347.516	0.075	695032	keystroke	s	n/a
348.266	0.12	696532	keystroke	e	n/a
348.566	0.09	697132	keystroke	s	n/a
348.821	0.105	697642	keystroke	Key.space	n/a
349.106	0.075	698212	keystroke	h	n/a
349.196	0.105	698392	keystroke	a	n/a
349.361	0.0905	698722	keystroke	m	n/a
349.511	0.09	699022	keystroke	m	n/a
349.646	0.15	699292	keystroke	e	n/a
349.781	0.105	699562	keystroke	r	n/a
350.381	0.09	700762	keystroke	Key.space	n/a
350.696	0.105	701392	keystroke	s	n/a
350.936	0.105	701872	keystroke	p	n/a
351.191	0.06	702382	keystroke	i	n/a
351.416	0.135	702832	keystroke	r	n/a
351.776	0.09	703552	keystroke	i	n/a
351.911	0.12	703822	keystroke	t	n/a
352.166	0.075	704332	keystroke	u	n/a
352.721	0.105	705442	keystroke	a	n/a
352.886	0.12	705772	keystroke	l	n/a
353.156	0.075	706312	keystroke	Key.enter	n/a
353.249	9.1045	706498	prompt	n/a	ideal pickup fotos sullivan\n
354.011	0.075	708022	keystroke	i	n/a
354.146	0.105	708292	keystroke	d	n/a
354.386	0.105	708772	keystroke	e	n/a
354.446	0.12	708892	keystroke	a	n/a
354.641	0.12	709282	keystroke	l	n/a
354.776	0.105	709552	keystroke	Key.space	n/a
355.361	0.09	710722	keystroke	p	n/a
355.466	0.09	710932	keystroke	i	n/a
355.661	0.12	711322	keystroke	c	n/a
355.766	0.06	711532	keystroke	k	n/a
356.246	0.135	712492	keystroke	u	n/a
356.351	0.105	712702	keystroke	p	n/a
356.546	0.12	713092	keystroke	Key.space	n/a
356.861	0.12	713722	keystroke	f	n/a
357.041	0.075	714082	keystroke	o	n/a
357.236	0.075	714472	keystroke	t	n/a
357.371	0.06	714742	keystroke	o	n/a
357.776	0.09	715552	keystroke	s	n/a
358.271	0.105	716542	keystroke	Key.space	n/a
358.586	0.105	717172	keystroke	s	n/a
358.796	0.06	717592	keystroke	u	n/a
359.276	0.075	718552	keystroke	l	n/a
359.846	0.09	719692	keystroke	l	n/a
360.011	0.06	720022	keystroke	i	n/a
360.131	0.135	720262	keystroke	v	n/a
360.356	0.12	720712	keystroke	a	n/a
361.076	0.075	722152	keystroke	n	n/a
362.2765	0.075	724553	keystroke	Key.enter	n/a
362.3615	12.367	724723	prompt	n/a	algeria bolt wives aurora\n
364.1815	0.09	728363	keystroke	a	n/a
364.3615	0.0745	728723	keystroke	l	n/a
364.871	0.09	729742	keystroke	g	n/a
365.531	0.135	731062	keystroke	e	n/a
365.921	0.105	731842	keystroke	r	n/a
366.2815	0.045	732563	keystroke	i	n/a
366.3865	0.105	732773	keystroke	a	n/a
366.6415	0.09	733283	keystroke	Key.space	n/a
366.9115	0.12	733823	keystroke	b	n/a
367.0765	0.06	734153	keystroke	o	n/a
367.2265	0.105	734453	keystroke	t	n/a
368.816	0.06	737632	keystroke	Key.backspace	n/a
369.041	0.06	738082	keystroke	l	n/a
369.161	0.06	738322	keystroke	t	n/a
369.611	0.105	739222	keystroke	w	n/a
369.791	0.06	739582	keystroke	i	n/a
370.166	0.12	740332	keystroke	v	n/a
370.4665	0.09	740933	keystroke	e	n/a
370.6915	0.0755	741383	keystroke	s	n/a
370.857	0.104	741714	keystroke	Key.space	n/a
371.067	0.075	742134	keystroke	a	n/a
371.472	0.089	742944	keystroke	u	n/a
371.846	0.105	743692	keystroke	r	n/a
372.116	0.0755	744232	keystroke	o	n/a
372.326	0.12	744652	keystroke	r	n/a
372.581	0.12	745162	keystroke	a	n/a
374.666	0.06	749332	keystroke	Key.enter	n/a
374.738	17.015	749476	prompt	n/a	essential municipal communicate grove\n
375.566	0.105	751132	keystroke	e	n/a
375.806	0.075	751612	keystroke	s	n/a
375.957	0.074	751914	keystroke	s	n/a
376.1515	0.105	752303	keystroke	e	n/a
376.3165	0.075	752633	keystroke	n	n/a
376.5115	0.09	753023	keystroke	t	n/a
377.0815	0.075	754163	keystroke	i	n/a
377.2165	0.09	754433	keystroke	a	n/a
377.3515	0.09	754703	keystroke	l	n/a
377.5165	0.105	755033	keystroke	Key.space	n/a
377.921	0.12	755842	keystroke	m	n/a
378.251	0.075	756502	keystroke	u	n/a
380.1115	0.09	760223	keystroke	n	n/a
380.3065	0.0745	760613	keystroke	i	n/a
380.456	0.15	760912	keystroke	c	n/a
380.831	0.06	761662	keystroke	i	n/a
381.5965	0.09	763193	keystroke	p	n/a
381.8065	0.075	763613	keystroke	a	n/a
381.9565	0.105	763913	keystroke	l	n/a
382.2115	0.09	764423	keystroke	Key.space	n/a
382.886	0.15	765772	keystroke	c	n/a
382.976	0.09	765952	keystroke	o	n/a
383.2615	0.075	766523	keystroke	m	n/a
383.4115	0.075	766823	keystroke	m	n/a
383.9815	0.105	767963	keystroke	u	n/a
384.2815	0.09	768563	keystroke	n	n/a
384.8065	0.06	769613	keystroke	i	n/a
385.436	0.165	770872	keystroke	c	n/a
385.586	0.12	771172	keystroke	a	n/a
385.826	0.1055	771652	keystroke	t	n/a
385.916	0.105	771832	keystroke	e	n/a
386.4865	0.105	772973	keystroke	g	n/a
386.7115	0.09	773423	keystroke	r	n/a
386.8465	0.075	773693	keystroke	o	n/a
386.9815	0.15	773963	keystroke	v	n/a
387.1165	0.09	774233	keystroke	e	n/a
388.661	0.075	777322	keystroke	Key.backspace	n/a
388.901	0.06	777802	keystroke	Key.backspace	n/a
389.186	0.06	778372	keystroke	Key.backspace	n/a
389.441	0.06	778882	keystroke	Key.backspace	n/a
389.696	0.045	779392	keystroke	Key.backspace	n/a
390.071	0.075	780142	keystroke	Key.space	n/a
390.357	0.089	780714	keystroke	g	n/a
390.551	0.105	781102	keystroke	r	n/a
390.686	0.075	781372	keystroke	o	n/a
390.806	0.135	781612	keystroke	v	n/a
390.926	0.09	781852	keystroke	e	n/a
391.691	0.06	783382	keystroke	Key.enter	n/a
391.758	8.7995	783516	prompt	n/a	const revenge above least\n
393.2965	0.105	786593	keystroke	c	n/a
393.4465	0.09	786893	keystroke	o	n/a
393.5515	0.105	787103	keystroke	n	n/a
394.106	0.135	788212	keystroke	s	n/a
394.331	0.09	788662	keystroke	t	n/a
394.436	0.12	788872	keystroke	Key.space	n/a
394.767	0.134	789534	keystroke	r	n/a
394.856	0.09	789712	keystroke	e	n/a
395.186	0.135	790372	keystroke	v	n/a
395.291	0.12	790582	keystroke	e	n/a
396.101	0.0905	792202	keystroke	n	n/a
396.3715	0.06	792743	keystroke	g	n/a
396.4165	0.12	792833	keystroke	e	n/a
396.8515	0.09	793703	keystroke	Key.space	n/a
397.4665	0.09	794933	keystroke	a	n/a
397.6615	0.12	795323	keystroke	b	n/a
397.9765	0.06	795953	keystroke	o	n/a
398.0215	0.1495	796043	keystroke	v	n/a
398.141	0.105	796282	keystroke	e	n/a
398.8615	0.105	797723	keystroke	Key.space	n/a
399.266	0.0905	798532	keystroke	l	n/a
399.386	0.1345	798772	keystroke	e	n/a
399.8055	0.121	799611	keystroke	a	n/a
400.1065	0.12	800213	keystroke	s	n/a
400.2565	0.119	800513	keystroke	t	n/a
400.4505	0.105	800901	keystroke	Key.enter	n/a
400.562	11.651	801124	prompt	n/a	confidence security appeals sampling\n
402.236	0.15	804472	keystroke	c	n/a
402.401	0.075	804802	keystroke	o	n/a
402.491	0.09	804982	keystroke	n	n/a
403.391	0.12	806782	keystroke	f	n/a
403.586	0.075	807172	keystroke	i	n/a
403.691	0.09	807382	keystroke	d	n/a
403.886	0.09	807772	keystroke	e	n/a
404.111	0.045	808222	keystroke	n	n/a
404.411	0.075	808822	keystroke	c	n/a
404.591	0.075	809182	keystroke	e	n/a
404.786	0.075	809572	keystroke	Key.space	n/a
405.056	0.165	810112	keystroke	s	n/a
405.206	0.15	810412	keystroke	e	n/a
405.5515	0.105	811103	keystroke	c	n/a
406.136	0.09	812272	keystroke	u	n/a
406.301	0.105	812602	keystroke	r	n/a
406.421	0.09	812842	keystroke	i	n/a
406.556	0.12	813112	keystroke	t	n/a
406.721	0.075	813442	keystroke	y	n/a
406.856	0.12	813712	keystroke	Key.space	n/a
407.126	0.09	814252	keystroke	a	n/a
407.366	0.09	814732	keystroke	p	n/a
407.531	0.09	815062	keystroke	p	n/a
408.086	0.1955	816172	keystroke	e	n/a
408.206	0.135	816412	keystroke	a	n/a
408.386	0.09	816772	keystroke	l	n/a
408.566	0.09	817132	keystroke	s	n/a
409.196	0.12	818392	keystroke	Key.space	n/a
409.466	0.12	818932	keystroke	s	n/a
409.691	0.09	819382	keystroke	a	n/a
409.841	0.21	819682	keystroke	m	n/a
410.066	0.09	820132	keystroke	p	n/a
410.816	0.12	821632	keystroke	l	n/a
411.011	0.18	822022	keystroke	i	n/a
411.146	0.1355	822292	keystroke	n	n/a
411.3265	0.105	822653	keystroke	g	n/a
412.1365	0.075	824273	keystroke	Key.enter	n/a
412.217	10.016	824434	prompt	n/a	unions toward russia mainstream\n
413.216	0.075	826432	keystroke	u	n/a
413.456	0.12	826912	keystroke	n	n/a
413.606	0.105	827212	keystroke	i	n/a
413.951	0.135	827902	keystroke	o	n/a
414.056	0.135	828112	keystroke	n	n/a
414.296	0.09	828592	keystroke	s	n/a
414.851	0.12	829702	keystroke	Key.space	n/a
415.3465	0.1345	830693	keystroke	t	n/a
415.541	0.09	831082	keystroke	o	n/a
415.676	0.1355	831352	keystroke	w	n/a
415.961	0.135	831922	keystroke	a	n/a
416.111	0.09	832222	keystroke	r	n/a
416.321	0.12	832642	keystroke	d	n/a
417.1755	0.15	834351	keystroke	Key.space	n/a
417.4615	0.15	834923	keystroke	r	n/a
417.7005	0.075	835401	keystroke	u	n/a
417.8355	0.045	835671	keystroke	s	n/a
417.9855	0.09	835971	keystroke	s	n/a
418.2705	0.075	836541	keystroke	i	n/a
418.436	0.1045	836872	keystroke	a	n/a
418.751	0.12	837502	keystroke	Key.space	n/a
419.141	0.12	838282	keystroke	m	n/a
419.246	0.12	838492	keystroke	a	n/a
419.486	0.09	838972	keystroke	i	n/a
419.621	0.09	839242	keystroke	n	n/a
420.5815	0.1345	841163	keystroke	s	n/a
420.866	0.075	841732	keystroke	t	n/a
421.106	0.1505	842212	keystroke	r	n/a
421.226	0.1795	842452	keystroke	e	n/a
421.3455	0.136	842691	keystroke	a	n/a
421.7505	0.12	843501	keystroke	m	n/a
422.1405	0.09	844281	keystroke	Key.enter	n/a
422.238	12.8045	844476	prompt	n/a	alternatives amend venue championship\n
423.161	0.105	846322	keystroke	a	n/a
423.326	0.09	846652	keystroke	l	n/a
423.566	0.12	847132	keystroke	t	n/a
423.716	0.12	847432	keystroke	e	n/a
423.806	0.12	847612	keystroke	r	n/a
424.3005	0.06	848601	keystroke	n	n/a
424.3905	0.135	848781	keystroke	a	n/a
424.6315	0.089	849263	keystroke	t	n/a
424.7505	0.075	849501	keystroke	i	n/a
424.8855	0.135	849771	keystroke	v	n/a
425.0055	0.12	850011	keystroke	e	n/a
425.2315	0.074	850463	keystroke	s	n/a
425.4115	0.104	850823	keystroke	Key.space	n/a
425.6355	0.12	851271	keystroke	a	n/a
425.8155	0.1355	851631	keystroke	m	n/a
425.9655	0.12	851931	keystroke	e	n/a
426.1615	0.089	852323	keystroke	n	n/a
426.3255	0.106	852651	keystroke	d	n/a
426.8815	0.119	853763	keystroke	Key.space	n/a
427.5115	0.149	855023	keystroke	v	n/a
427.6455	0.106	855291	keystroke	e	n/a
427.7815	0.104	855563	keystroke	n	n/a
428.3815	0.0445	856763	keystroke	u	n/a
428.516	0.075	857032	keystroke	e	n/a
428.726	0.075	857452	keystroke	Key.space	n/a
429.341	0.1205	858682	keystroke	c	n/a
429.4765	0.06	858953	keystroke	h	n/a
429.5515	0.0895	859103	keystroke	a	n/a
429.821	0.0905	859642	keystroke	p	n/a
431.051	0.06	862102	keystroke	Key.backspace	n/a
431.4255	0.076	862851	keystroke	m	n/a
431.6805	0.061	863361	keystroke	p	n/a
433.3915	0.1795	866783	keystroke	i	n/a
433.5255	0.1355	867051	keystroke	o	n/a
433.631	0.105	867262	keystroke	n	n/a
433.871	0.12	867742	keystroke	s	n/a
434.006	0.135	868012	keystroke	h	n/a
434.096	0.15	868192	keystroke	i	n/a
434.201	0.12	868402	keystroke	p	n/a
434.966	0.075	869932	keystroke	Key.enter	n/a
435.0475	11.3805	870095	prompt	n/a	boating mounts expect otherwise\n
436.661	0.09	873322	keystroke	b	n/a
437.171	0.06	874342	keystroke	o	n/a
437.3065	0.135	874613	keystroke	e	n/a
437.4265	0.105	874853	keystroke	a	n/a
437.7415	0.09	875483	keystroke	t	n/a
438.2515	0.06	876503	keystroke	Key.backspace	n/a
438.4155	0.045	876831	keystroke	Key.backspace	n/a
438.5665	0.074	877133	keystroke	Key.backspace	n/a
438.7465	0.12	877493	keystroke	a	n/a
438.9265	0.119	877853	keystroke	t	n/a
439.0615	0.134	878123	keystroke	i	n/a
439.1805	0.091	878361	keystroke	n	n/a
439.2865	0.089	878573	keystroke	g	n/a
439.4505	0.06	878901	keystroke	Key.space	n/a
440.321	0.165	880642	keystroke	m	n/a
440.501	0.195	881002	keystroke	o	n/a
440.651	0.09	881302	keystroke	u	n/a
440.951	0.075	881902	keystroke	n	n/a
441.596	0.09	883192	keystroke	t	n/a
441.911	0.075	883822	keystroke	s	n/a
442.271	0.015	884542	keystroke	Key.space	n/a
442.361	0.1055	884722	keystroke	e	n/a
442.5865	0.135	885173	keystroke	x	n/a
442.7665	0.09	885533	keystroke	p	n/a
442.9165	0.12	885833	keystroke	e	n/a
443.1715	0.12	886343	keystroke	c	n/a
443.5015	0.089	887003	keystroke	t	n/a
444.266	0.12	888532	keystroke	Key.space	n/a
444.491	0.105	888982	keystroke	o	n/a
444.671	0.135	889342	keystroke	t	n/a
444.821	0.06	889642	keystroke	h	n/a
444.866	0.12	889732	keystroke	e	n/a
444.971	0.09	889942	keystroke	r	n/a
445.376	0.105	890752	keystroke	w	n/a
445.556	0.06	891112	keystroke	i	n/a
446.0205	0.165	892041	keystroke	s	n/a
446.1715	0.104	892343	keystroke	e	n/a
446.3355	0.0905	892671	keystroke	Key.enter	n/a
446.433	12.9545	892866	prompt	n/a	configurations quote executives stay\n
447.5215	0.15	895043	keystroke	c	n/a
447.6115	0.105	895223	keystroke	o	n/a
447.7015	0.1045	895403	keystroke	n	n/a
447.926	0.105	895852	keystroke	f	n/a
448.076	0.06	896152	keystroke	i	n/a
448.256	0.105	896512	keystroke	g	n/a
448.436	0.06	896872	keystroke	u	n/a
448.616	0.18	897232	keystroke	r	n/a
448.781	0.15	897562	keystroke	a	n/a
448.916	0.105	897832	keystroke	t	n/a
449.036	0.21	898072	keystroke	i	n/a
449.156	0.12	898312	keystroke	o	n/a
449.261	0.075	898522	keystroke	n	n/a
449.411	0.09	898822	keystroke	s	n/a
449.651	0.09	899302	keystroke	Key.space	n/a
450.4615	0.12	900923	keystroke	q	n/a
450.8065	0.06	901613	keystroke	u	n/a
451.046	0.075	902092	keystroke	o	n/a
451.271	0.09	902542	keystroke	t	n/a
451.481	0.09	902962	keystroke	e	n/a
451.691	0.105	903382	keystroke	Key.space	n/a
452.006	0.09	904012	keystroke	e	n/a
452.6665	0.149	905333	keystroke	e	n/a
453.2055	0.09	906411	keystroke	Key.backspace	n/a
453.3415	0.12	906683	keystroke	x	n/a
453.6105	0.105	907221	keystroke	w	n/a
454.886	0.045	909772	keystroke	Key.backspace	n/a
455.096	0.105	910192	keystroke	e	n/a
456.071	0.09	912142	keystroke	c	n/a
456.386	0.09	912772	keystroke	u	n/a
456.536	0.12	913072	keystroke	t	n/a
456.686	0.0895	913372	keystroke	i	n/a
456.8355	0.1655	913671	keystroke	v	n/a
456.971	0.12	913942	keystroke	e	n/a
457.436	0.09	914872	keystroke	s	n/a
458.246	0.12	916492	keystroke	Key.space	n/a
458.471	0.15	916942	keystroke	s	n/a
458.636	0.12	917272	keystroke	t	n/a
458.741	0.12	917482	keystroke	a	n/a
458.981	0.075	917962	keystroke	y	n/a
459.296	0.09	918592	keystroke	Key.enter	n/a
459.3925	9.1	918785	prompt	n/a	surname he cedar magical\n
460.2105	0.15	920421	keystroke	s	n/a
460.481	0.105	920962	keystroke	u	n/a
460.736	0.105	921472	keystroke	r	n/a
461.051	0.105	922102	keystroke	n	n/a
461.201	0.12	922402	keystroke	a	n/a
461.291	0.15	922582	keystroke	m	n/a
461.456	0.105	922912	keystroke	e	n/a
463.4955	0.135	926991	keystroke	Key.space	n/a
464.426	0.075	928852	keystroke	h	n/a
464.561	0.09	929122	keystroke	e	n/a
464.666	0.105	929332	keystroke	Key.space	n/a
464.9805	0.105	929961	keystroke	c	n/a
465.2055	0.105	930411	keystroke	e	n/a
465.4155	0.09	930831	keystroke	d	n/a
465.8965	0.104	931793	keystroke	a	n/a
466.1355	0.09	932271	keystroke	r	n/a
466.3305	0.09	932661	keystroke	Key.space	n/a
467.0955	0.135	934191	keystroke	m	n/a
467.1855	0.12	934371	keystroke	a	n/a
467.4405	0.09	934881	keystroke	g	n/a
467.5905	0.0905	935181	keystroke	i	n/a
467.741	0.15	935482	keystroke	c	n/a
467.891	0.09	935782	keystroke	a	n/a
468.101	0.09	936202	keystroke	l	n/a
468.4155	0.075	936831	keystroke	Key.enter	n/a
468.499	11.799	936998	prompt	n/a	finding superintendent regulation incomplete\n
469.4055	0.15	938811	keystroke	f	n/a
469.4955	0.135	938991	keystroke	i	n/a
469.6155	0.12	939231	keystroke	n	n/a
469.7205	0.105	939441	keystroke	d	n/a
469.7805	0.106	939561	keystroke	i	n/a
469.8715	0.104	939743	keystroke	n	n/a
469.9605	0.06	939921	keystroke	g	n/a
470.0505	0.06	940101	keystroke	Key.space	n/a
470.9655	0.09	941931	keystroke	s	n/a
471.1905	0.165	942381	keystroke	u	n/a
471.3405	0.105	942681	keystroke	p	n/a
471.5055	0.15	943011	keystroke	e	n/a
471.6255	0.0905	943251	keystroke	r	n/a
472.4215	0.075	944843	keystroke	i	n/a
472.5415	0.09	945083	keystroke	n	n/a
472.8115	0.075	945623	keystroke	t	n/a
473.3205	0.105	946641	keystroke	e	n/a
473.4555	0.076	946911	keystroke	n	n/a
473.5615	0.09	947123	keystroke	d	n/a
474.4605	0.105	948921	keystroke	e	n/a
474.5805	0.06	949161	keystroke	n	n/a
474.7155	0.075	949431	keystroke	t	n/a
474.8805	0.105	949761	keystroke	Key.space	n/a
475.3905	0.106	950781	keystroke	r	n/a
475.4655	0.09	950931	keystroke	e	n/a
475.6915	0.104	951383	keystroke	g	n/a
476.3805	0.075	952761	keystroke	u	n/a
476.5305	0.09	953061	keystroke	l	n/a
476.6215	0.104	953243	keystroke	a	n/a
476.7855	0.0755	953571	keystroke	t	n/a
476.8305	0.18	953661	keystroke	i	n/a
476.9055	0.12	953811	keystroke	o	n/a
477.0115	0.089	954023	keystroke	n	n/a
477.1905	0.12	954381	keystroke	Key.space	n/a
477.5055	0.075	955011	keystroke	i	n/a
477.5955	0.075	955191	keystroke	n	n/a
478.1805	0.135	956361	keystroke	c	n/a
478.3305	0.1355	956661	keystroke	o	n/a
478.481	0.09	956962	keystroke	m	n/a
479.201	0.12	958402	keystroke	p	n/a
479.366	0.09	958732	keystroke	l	n/a
479.561	0.06	959122	keystroke	e	n/a
479.666	0.12	959332	keystroke	t	n/a
479.756	0.09	959512	keystroke	e	n/a
480.176	0.12	960352	keystroke	Key.enter	n/a
480.302	10.8705	960604	prompt	n/a	estate rhode tournament china\n
481.121	0.105	962242	keystroke	e	n/a
481.796	0.105	963592	keystroke	s	n/a
482.171	0.105	964342	keystroke	t	n/a
482.321	0.12	964642	keystroke	a	n/a
482.471	0.06	964942	keystroke	t	n/a
482.816	0.09	965632	keystroke	e	n/a
483.116	0.12	966232	keystroke	Key.space	n/a
483.446	0.075	966892	keystroke	r	n/a
483.701	0.09	967402	keystroke	h	n/a
483.851	0.075	967702	keystroke	o	n/a
484.166	0.105	968332	keystroke	d	n/a
484.391	0.075	968782	keystroke	e	n/a
484.7955	0.09	969591	keystroke	Key.space	n/a
485.2305	0.105	970461	keystroke	t	n/a
485.3505	0.075	970701	keystroke	o	n/a
485.4855	0.09	970971	keystroke	r	n/a
487.4505	0.09	974901	keystroke	Key.backspace	n/a
487.7205	0.06	975441	keystroke	u	n/a
488.3505	0.105	976701	keystroke	r	n/a
488.7705	0.075	977541	keystroke	n	n/a
488.8905	0.105	977781	keystroke	a	n/a
489.0105	0.135	978021	keystroke	m	n/a
489.2205	0.105	978441	keystroke	e	n/a
489.3265	0.074	978653	keystroke	n	n/a
489.446	0.09	978892	keystroke	t	n/a
490.271	0.135	980542	keystroke	Key.space	n/a
490.466	0.15	980932	keystroke	c	n/a
490.601	0.105	981202	keystroke	h	n/a
490.676	0.165	981352	keystroke	i	n/a
490.811	0.105	981622	keystroke	n	n/a
490.886	0.09	981772	keystroke	a	n/a
491.141	0.03	982282	keystroke	Key.enter	n/a
491.1885	11.639	982377	prompt	n/a	exceptions arrive entertaining estate\n
492.5665	0.12	985133	keystroke	e	n/a
492.8365	0.135	985673	keystroke	x	n/a
493.481	0.1055	986962	keystroke	c	n/a
493.6465	0.09	987293	keystroke	a	n/a
494.1705	0.06	988341	keystroke	Key.backspace	n/a
494.2605	0.106	988521	keystroke	e	n/a
494.6515	0.074	989303	keystroke	p	n/a
495.0705	0.121	990141	keystroke	t	n/a
495.2655	0.271	990531	keystroke	i	n/a
495.4005	0.15	990801	keystroke	o	n/a
495.5205	0.106	991041	keystroke	n	n/a
495.6715	0.089	991343	keystroke	s	n/a
496.0455	0.12	992091	keystroke	Key.space	n/a
496.2865	0.119	992573	keystroke	a	n/a
496.5255	0.075	993051	keystroke	r	n/a
496.6755	0.105	993351	keystroke	r	n/a
496.8705	0.045	993741	keystroke	i	n/a
496.9905	0.105	993981	keystroke	v	n/a
497.0805	0.105	994161	keystroke	e	n/a
498.0405	0.105	996081	keystroke	Key.space	n/a
498.251	0.09	996502	keystroke	e	n/a
498.4015	0.0895	996803	keystroke	n	n/a
498.581	0.12	997162	keystroke	t	n/a
498.746	0.15	997492	keystroke	e	n/a
498.866	0.1195	997732	keystroke	r	n/a
499.7065	0.09	999413	keystroke	t	n/a
499.9455	0.105	999891	keystroke	a	n/a
500.0955	0.091	1000191	keystroke	i	n/a
500.2155	0.12	1000431	keystroke	n	n/a
500.8005	0.105	1001601	keystroke	i	n/a
500.9065	0.134	1001813	keystroke	n	n/a
501.0705	0.075	1002141	keystroke	g	n/a
501.2205	0.09	1002441	keystroke	Key.space	n/a
501.4455	0.1205	1002891	keystroke	e	n/a
501.686	0.09	1003372	keystroke	s	n/a
501.926	0.105	1003852	keystroke	t	n/a
502.0755	0.135	1004151	keystroke	a	n/a
502.2255	0.075	1004451	keystroke	t	n/a
502.4655	0.12	1004931	keystroke	e	n/a
502.751	0.0745	1005502	keystroke	Key.enter	n/a
502.8325	7.18	1005665	prompt	n/a	seminars fist national stays\n
503.5755	0.105	1007151	keystroke	s	n/a
503.8155	0.09	1007631	keystroke	e	n/a
504.0405	0.12	1008081	keystroke	m	n/a
504.2965	0.105	1008593	keystroke	i	n/a
504.4165	0.12	1008833	keystroke	n	n/a
504.7015	0.12	1009403	keystroke	a	n/a
504.9115	0.0895	1009823	keystroke	r	n/a
505.1365	0.09	1010273	keystroke	s	n/a
505.36	0.0915	1010720	keystroke	Key.space	n/a
505.6465	0.1035	1011293	keystroke	f	n/a
505.766	0.0605	1011532	keystroke	i	n/a
505.9765	0.12	1011953	keystroke	s	n/a
506.1405	0.09	1012281	keystroke	t	n/a
506.3055	0.105	1012611	keystroke	Key.space	n/a
506.7705	0.105	1013541	keystroke	n	n/a
506.8605	0.135	1013721	keystroke	a	n/a
507.0865	0.0585	1014173	keystroke	t	n/a
507.7615	0.27	1015523	keystroke	i	n/a
507.9115	0.135	1015823	keystroke	o	n/a
508.001	0.1205	1016002	keystroke	n	n/a
508.1815	0.105	1016363	keystroke	a	n/a
508.3015	0.1195	1016603	keystroke	l	n/a
508.451	0.105	1016902	keystroke	Key.space	n/a
508.736	0.15	1017472	keystroke	s	n/a
508.931	0.12	1017862	keystroke	t	n/a
509.051	0.135	1018102	keystroke	a	n/a
509.246	0.075	1018492	keystroke	y	n/a
509.726	0.09	1019452	keystroke	s	n/a
509.9955	0.015	1019991	keystroke	Key.enter	n/a
510.0175	7.3145	1020035	prompt	n/a	charging banners data lows\n
511.2255	0.15	1022451	keystroke	c	n/a
511.3905	0.075	1022781	keystroke	h	n/a
511.4955	0.12	1022991	keystroke	a	n/a
511.6905	0.135	1023381	keystroke	r	n/a
512.801	0.1045	1025602	keystroke	g	n/a
512.9505	0.09	1025901	keystroke	i	n/a
513.0415	0.089	1026083	keystroke	n	n/a
513.1605	0.105	1026321	keystroke	g	n/a
513.3105	0.105	1026621	keystroke	Key.space	n/a
513.8355	0.135	1027671	keystroke	b	n/a
513.9555	0.105	1027911	keystroke	a	n/a
514.2105	0.06	1028421	keystroke	n	n/a
514.3765	0.059	1028753	keystroke	n	n/a
514.4805	0.12	1028961	keystroke	e	n/a
514.5705	0.12	1029141	keystroke	r	n/a
514.796	0.105	1029592	keystroke	s	n/a
515.081	0.104	1030162	keystroke	Key.space	n/a
515.4265	0.165	1030853	keystroke	d	n/a
515.5605	0.106	1031121	keystroke	a	n/a
515.7415	0.104	1031483	keystroke	t	n/a
515.8465	0.104	1031693	keystroke	a	n/a
516.1005	0.09	1032201	keystroke	Key.space	n/a
516.4305	0.09	1032861	keystroke	l	n/a
516.6255	0.06	1033251	keystroke	o	n/a
516.7905	0.075	1033581	keystroke	w	n/a
517.0015	0.089	1034003	keystroke	s	n/a
517.2705	0.06	1034541	keystroke	Key.enter	n/a
517.3365	9.8665	1034673	prompt	n/a	sampling whether lawrence monsters\n
518.111	0.105	1036222	keystroke	s	n/a
518.4105	0.105	1036821	keystroke	a	n/a
518.6655	0.165	1037331	keystroke	m	n/a
519.0105	0.121	1038021	keystroke	p	n/a
519.2965	0.09	1038593	keystroke	l	n/a
519.431	0.105	1038862	keystroke	i	n/a
519.506	0.105	1039012	keystroke	n	n/a
519.671	0.09	1039342	keystroke	g	n/a
519.761	0.075	1039522	keystroke	Key.space	n/a
520.226	0.09	1040452	keystroke	w	n/a
520.691	0.06	1041382	keystroke	h	n/a
521.306	0.15	1042612	keystroke	e	n/a
521.666	0.105	1043332	keystroke	t	n/a
521.831	0.075	1043662	keystroke	h	n/a
521.921	0.105	1043842	keystroke	e	n/a
521.981	0.12	1043962	keystroke	r	n/a
522.1905	0.06	1044381	keystroke	Key.space	n/a
522.9105	0.09	1045821	keystroke	l	n/a
523.0605	0.151	1046121	keystroke	a	n/a
523.2405	0.135	1046481	keystroke	w	n/a
523.8705	0.105	1047741	keystroke	r	n/a
524.1855	0.1055	1048371	keystroke	e	n/a
524.516	0.06	1049032	keystroke	n	n/a
524.621	0.105	1049242	keystroke	c	n/a
524.816	0.0755	1049632	keystroke	e	n/a
524.9655	0.1045	1049931	keystroke	Key.space	n/a
525.476	0.135	1050952	keystroke	m	n/a
525.611	0.1495	1051222	keystroke	o	n/a
525.7455	0.09	1051491	keystroke	n	n/a
526.241	0.12	1052482	keystroke	s	n/a
526.421	0.135	1052842	keystroke	t	n/a
526.541	0.15	1053082	keystroke	e	n/a
526.661	0.105	1053322	keystroke	r	n/a
526.946	0.09	1053892	keystroke	s	n/a
527.126	0.0745	1054252	keystroke	Key.enter	n/a
527.209	7.9285	1054418	prompt	n/a	thou paint composition constant\n
528.2655	0.135	1056531	keystroke	t	n/a
528.3855	0.135	1056771	keystroke	h	n/a
528.9255	0.1805	1057851	keystroke	o	n/a
529.136	0.075	1058272	keystroke	u	n/a
529.481	0.105	1058962	keystroke	Key.space	n/a
529.841	0.075	1059682	keystroke	p	n/a
529.961	0.105	1059922	keystroke	a	n/a
530.036	0.12	1060072	keystroke	i	n/a
530.141	0.09	1060282	keystroke	n	n/a
530.381	0.09	1060762	keystroke	t	n/a
530.636	0.09	1061272	keystroke	Key.space	n/a
531.221	0.18	1062442	keystroke	c	n/a
531.386	0.045	1062772	keystroke	o	n/a
531.416	0.165	1062832	keystroke	m	n/a
531.671	0.105	1063342	keystroke	p	n/a
531.941	0.06	1063882	keystroke	o	n/a
532.091	0.075	1064182	keystroke	s	n/a
532.301	0.075	1064602	keystroke	i	n/a
532.5105	0.075	1065021	keystroke	t	n/a
532.6005	0.3	1065201	keystroke	i	n/a
532.7355	0.15	1065471	keystroke	o	n/a
532.8705	0.09	1065741	keystroke	n	n/a
533.1705	0.1205	1066341	keystroke	Key.space	n/a
533.4705	0.135	1066941	keystroke	c	n/a
533.5755	0.075	1067151	keystroke	o	n/a
533.6355	0.09	1067271	keystroke	n	n/a
534.0405	0.12	1068081	keystroke	s	n/a
534.2505	0.12	1068501	keystroke	t	n/a
534.431	0.1195	1068862	keystroke	a	n/a
534.566	0.0595	1069132	keystroke	n	n/a
534.6555	0.105	1069311	keystroke	t	n/a
535.061	0.075	1070122	keystroke	Key.enter	n/a
535.1425	9.9145	1070285	prompt	n/a	jade fancy trailer complex\n
535.856	0.135	1071712	keystroke	j	n/a
535.976	0.12	1071952	keystroke	a	n/a
536.276	0.09	1072552	keystroke	d	n/a
536.4705	0.06	1072941	keystroke	e	n/a
536.546	0.1045	1073092	keystroke	Key.space	n/a
536.8455	0.135	1073691	keystroke	f	n/a
536.9355	0.135	1073871	keystroke	a	n/a
537.3565	0.089	1074713	keystroke	n	n/a
537.4765	0.165	1074953	keystroke	c	n/a
537.7465	0.075	1075493	keystroke	y	n/a
537.9115	0.104	1075823	keystroke	Key.space	n/a
538.571	0.09	1077142	keystroke	t	n/a
538.811	0.165	1077622	keystroke	r	n/a
538.946	0.105	1077892	keystroke	a	n/a
539.3955	0.15	1078791	keystroke	i	n/a
539.5155	0.105	1079031	keystroke	l	n/a
539.6955	0.136	1079391	keystroke	e	n/a
539.8005	0.1205	1079601	keystroke	r	n/a
539.951	0.09	1079902	keystroke	Key.space	n/a
540.236	0.12	1080472	keystroke	c	n/a
540.311	0.1795	1080622	keystroke	o	n/a
540.4305	0.27	1080861	keystroke	m	n/a
540.6105	0.12	1081221	keystroke	p	n/a
540.7305	0.12	1081461	keystroke	l	n/a
540.8805	0.135	1081761	keystroke	e	n/a
541.4955	0.075	1082991	keystroke	x	n/a
545.0535	0.001	1090107	keystroke	Key.enter	n/a
545.063	6.4995	1090126	prompt	n/a	killing support king pixels\n
546.176	0.09	1092352	keystroke	k	n/a
546.356	0.06	1092712	keystroke	i	n/a
546.551	0.06	1093102	keystroke	l	n/a
546.6715	0.075	1093343	keystroke	l	n/a
546.8365	0.09	1093673	keystroke	i	n/a
546.9415	0.075	1093883	keystroke	n	n/a
547.0615	0.075	1094123	keystroke	g	n/a
547.1215	0.0745	1094243	keystroke	Key.space	n/a
547.601	0.12	1095202	keystroke	s	n/a
547.751	0.12	1095502	keystroke	u	n/a
547.976	0.075	1095952	keystroke	p	n/a
548.126	0.075	1096252	keystroke	p	n/a
548.291	0.075	1096582	keystroke	o	n/a
548.441	0.105	1096882	keystroke	r	n/a
548.651	0.075	1097302	keystroke	t	n/a
548.741	0.075	1097482	keystroke	Key.space	n/a
549.041	0.09	1098082	keystroke	k	n/a
549.176	0.09	1098352	keystroke	i	n/a
549.281	0.09	1098562	keystroke	n	n/a
549.386	0.1045	1098772	keystroke	g	n/a
549.836	0.105	1099672	keystroke	Key.space	n/a
550.196	0.12	1100392	keystroke	p	n/a
550.391	0.075	1100782	keystroke	i	n/a
550.661	0.1205	1101322	keystroke	x	n/a
550.9315	0.105	1101863	keystroke	e	n/a
551.0665	0.075	1102133	keystroke	l	n/a
551.2465	0.09	1102493	keystroke	s	n/a
551.4865	0.0745	1102973	keystroke	Key.enter	n/a
551.567	10.931	1103134	prompt	n/a	elite calendars reef physical\n
552.6265	0.089	1105253	keystroke	e	n/a
552.8215	0.075	1105643	keystroke	l	n/a
553.1365	0.075	1106273	keystroke	i	n/a
553.3315	0.06	1106663	keystroke	t	n/a
553.5115	0.09	1107023	keystroke	e	n/a
553.7515	0.12	1107503	keystroke	Key.space	n/a
554.1415	0.195	1108283	keystroke	c	n/a
554.5015	0.12	1109003	keystroke	a	n/a
554.9655	0.061	1109931	keystroke	l	n/a
555.1915	0.104	1110383	keystroke	e	n/a
555.3415	0.075	1110683	keystroke	n	n/a
555.4465	0.12	1110893	keystroke	d	n/a
555.7615	0.12	1111523	keystroke	a	n/a
556.0155	0.091	1112031	keystroke	r	n/a
556.2265	0.09	1112453	keystroke	s	n/a
556.3605	0.106	1112721	keystroke	Key.space	n/a
556.7965	0.105	1113593	keystroke	r	n/a
557.1715	0.0745	1114343	keystroke	e	n/a
557.336	0.09	1114672	keystroke	e	n/a
557.546	0.09	1115092	keystroke	f	n/a
557.726	0.075	1115452	keystroke	Key.space	n/a
558.221	0.12	1116442	keystroke	p	n/a
559.601	0.09	1119202	keystroke	h	n/a
559.796	0.06	1119592	keystroke	y	n/a
560.4265	0.105	1120853	keystroke	s	n/a
560.5465	0.0895	1121093	keystroke	i	n/a
560.696	0.1655	1121392	keystroke	c	n/a
560.8315	0.105	1121663	keystroke	a	n/a
560.9665	0.105	1121933	keystroke	l	n/a
561.1165	0.075	1122233	keystroke	Key.space	n/a
562.436	0.06	1124872	keystroke	Key.enter	n/a
562.505	11.033	1125010	prompt	n/a	elimination node planned accordance\n
563.546	0.09	1127092	keystroke	e	n/a
563.681	0.105	1127362	keystroke	l	n/a
563.801	0.06	1127602	keystroke	e	n/a
564.9715	0.06	1129943	keystroke	Key.backspace	n/a
565.2265	0.075	1130453	keystroke	i	n/a
565.3615	0.135	1130723	keystroke	m	n/a
565.5715	0.105	1131143	keystroke	i	n/a
565.8865	0.09	1131773	keystroke	t	n/a
566.651	0.09	1133302	keystroke	Key.backspace	n/a
566.771	0.105	1133542	keystroke	n	n/a
567.041	0.1195	1134082	keystroke	a	n/a
567.2055	0.105	1134411	keystroke	t	n/a
567.3555	0.2555	1134711	keystroke	i	n/a
567.4755	0.15	1134951	keystroke	o	n/a
567.5955	0.105	1135191	keystroke	n	n/a
568.421	0.12	1136842	keystroke	Key.space	n/a
568.646	0.15	1137292	keystroke	n	n/a
568.751	0.09	1137502	keystroke	o	n/a
569.126	0.09	1138252	keystroke	d	n/a
569.306	0.075	1138612	keystroke	e	n/a
569.4715	0.104	1138943	keystroke	Key.space	n/a
569.8015	0.089	1139603	keystroke	p	n/a
569.9805	0.106	1139961	keystroke	l	n/a
570.1465	0.09	1140293	keystroke	a	n/a
570.416	0.06	1140832	keystroke	n	n/a
570.566	0.06	1141132	keystroke	n	n/a
570.671	0.105	1141342	keystroke	e	n/a
570.866	0.105	1141732	keystroke	d	n/a
570.986	0.09	1141972	keystroke	Key.space	n/a
571.226	0.075	1142452	keystroke	a	n/a
571.481	0.06	1142962	keystroke	c	n/a
571.631	0.135	1143262	keystroke	c	n/a
571.811	0.09	1143622	keystroke	o	n/a
572.036	0.135	1144072	keystroke	r	n/a
572.276	0.09	1144552	keystroke	d	n/a
572.501	0.105	1145002	keystroke	a	n/a
572.651	0.075	1145302	keystroke	n	n/a
572.786	0.105	1145572	keystroke	c	n/a
573.026	0.105	1146052	keystroke	e	n/a
573.446	0.09	1146892	keystroke	Key.enter	n/a
573.5435	8.424	1147087	prompt	n/a	communicate nitrogen onto filing\n
574.301	0.1505	1148602	keystroke	c	n/a
574.4215	0.09	1148843	keystroke	o	n/a
574.6465	0.075	1149293	keystroke	m	n/a
574.7815	0.09	1149563	keystroke	m	n/a
575.2315	0.06	1150463	keystroke	u	n/a
575.531	0.09	1151062	keystroke	n	n/a
575.756	0.09	1151512	keystroke	i	n/a
575.906	0.18	1151812	keystroke	c	n/a
576.056	0.105	1152112	keystroke	a	n/a
576.266	0.135	1152532	keystroke	t	n/a
576.386	0.0895	1152772	keystroke	e	n/a
576.5205	0.105	1153041	keystroke	Key.space	n/a
576.8515	0.119	1153703	keystroke	n	n/a
577.0155	0.075	1154031	keystroke	i	n/a
577.5405	0.09	1155081	keystroke	t	n/a
578.246	0.105	1156492	keystroke	r	n/a
578.3805	0.076	1156761	keystroke	o	n/a
578.6065	0.09	1157213	keystroke	g	n/a
578.8315	0.09	1157663	keystroke	e	n/a
578.9365	0.075	1157873	keystroke	n	n/a
579.341	0.12	1158682	keystroke	Key.space	n/a
579.806	0.075	1159612	keystroke	o	n/a
579.926	0.09	1159852	keystroke	n	n/a
580.091	0.12	1160182	keystroke	t	n/a
580.226	0.075	1160452	keystroke	o	n/a
580.4055	0.105	1160811	keystroke	Key.space	n/a
580.6315	0.105	1161263	keystroke	f	n/a
580.7205	0.09	1161441	keystroke	i	n/a
581.1865	0.06	1162373	keystroke	l	n/a
581.3055	0.075	1162611	keystroke	l	n/a
581.4105	0.15	1162821	keystroke	i	n/a
581.5305	0.105	1163061	keystroke	n	n/a
581.6055	0.075	1163211	keystroke	g	n/a
581.9055	0.06	1163811	keystroke	Key.enter	n/a
581.972	11.0805	1163944	prompt	n/a	brass anyone undergraduate district\n
583.0305	0.105	1166061	keystroke	b	n/a
583.3605	0.18	1166721	keystroke	r	n/a
583.5255	0.12	1167051	keystroke	a	n/a
583.8705	0.06	1167741	keystroke	s	n/a
584.0205	0.061	1168041	keystroke	s	n/a
584.3655	0.1055	1168731	keystroke	Key.space	n/a
584.681	0.09	1169362	keystroke	a	n/a
584.786	0.0895	1169572	keystroke	n	n/a
585.0105	0.09	1170021	keystroke	y	n/a
585.1455	0.105	1170291	keystroke	o	n/a
585.2655	0.075	1170531	keystroke	n	n/a
585.3255	0.075	1170651	keystroke	e	n/a
585.4305	0.06	1170861	keystroke	Key.space	n/a
586.241	0.06	1172482	keystroke	u	n/a
586.421	0.06	1172842	keystroke	n	n/a
586.436	0.075	1172872	keystroke	d	n/a
586.601	0.105	1173202	keystroke	e	n/a
586.691	0.09	1173382	keystroke	r	n/a
586.81	0.03	1173620	keystroke	Key.space	n/a
587.576	0.06	1175152	keystroke	Key.backspace	n/a
587.756	0.075	1175512	keystroke	g	n/a
588.5505	0.135	1177101	keystroke	r	n/a
588.7155	0.12	1177431	keystroke	a	n/a
588.8205	0.09	1177641	keystroke	d	n/a
590.456	0.075	1180912	keystroke	u	n/a
590.606	0.0745	1181212	keystroke	a	n/a
590.7255	0.12	1181451	keystroke	t	n/a
590.8305	0.045	1181661	keystroke	e	n/a
590.9655	0.0905	1181931	keystroke	Key.space	n/a
591.161	0.105	1182322	keystroke	d	n/a
591.281	0.06	1182562	keystroke	i	n/a
591.416	0.15	1182832	keystroke	s	n/a
591.611	0.0745	1183222	keystroke	t	n/a
592.0905	0.09	1184181	keystroke	r	n/a
592.2555	0.075	1184511	keystroke	i	n/a
592.4355	0.135	1184871	keystroke	c	n/a
592.7655	0.09	1185531	keystroke	t	n/a
592.9755	0.0755	1185951	keystroke	Key.enter	n/a
593.058	9.8645	1186116	prompt	n/a	photographic carry syndicate insert\n
593.936	0.1195	1187872	keystroke	p	n/a
594.1305	0.21	1188261	keystroke	h	n/a
594.2805	0.075	1188561	keystroke	o	n/a
594.5205	0.09	1189041	keystroke	t	n/a
594.6255	0.045	1189251	keystroke	o	n/a
595.6905	0.09	1191381	keystroke	g	n/a
595.9005	0.165	1191801	keystroke	r	n/a
596.0055	0.135	1192011	keystroke	a	n/a
596.2155	0.105	1192431	keystroke	p	n/a
596.3505	0.165	1192701	keystroke	h	n/a
596.4855	0.075	1192971	keystroke	i	n/a
596.6505	0.105	1193301	keystroke	c	n/a
596.8605	0.075	1193721	keystroke	Key.space	n/a
597.326	0.21	1194652	keystroke	c	n/a
597.52	0.106	1195040	keystroke	a	n/a
597.791	0.044	1195582	keystroke	r	n/a
597.941	0.074	1195882	keystroke	r	n/a
598.091	0.075	1196182	keystroke	y	n/a
598.255	0.075	1196510	keystroke	Key.space	n/a
598.69	0.105	1197380	keystroke	s	n/a
598.855	0.075	1197710	keystroke	y	n/a
599.11	0.076	1198220	keystroke	n	n/a
599.425	0.091	1198850	keystroke	d	n/a
599.531	0.089	1199062	keystroke	i	n/a
599.696	0.15	1199392	keystroke	c	n/a
599.831	0.105	1199662	keystroke	a	n/a
599.996	0.135	1199992	keystroke	t	n/a
600.67	0.09	1201340	keystroke	e	n/a
600.88	0.106	1201760	keystroke	Key.space	n/a
601.121	0.0895	1202242	keystroke	i	n/a
601.2555	0.075	1202511	keystroke	n	n/a
601.4055	0.06	1202811	keystroke	s	n/a
602.186	0.18	1204372	keystroke	e	n/a
602.396	0.135	1204792	keystroke	r	n/a
602.621	0.09	1205242	keystroke	t	n/a
602.861	0.06	1205722	keystroke	Key.enter	n/a
602.928	12.941	1205856	prompt	n/a	cigarettes discharge large recommendations\n
603.7455	0.12	1207491	keystroke	c	n/a
603.8805	0.0895	1207761	keystroke	i	n/a
604.105	0.1055	1208210	keystroke	g	n/a
604.4055	0.135	1208811	keystroke	a	n/a
604.7505	0.075	1209501	keystroke	r	n/a
605.5755	0.105	1211151	keystroke	e	n/a
605.8605	0.075	1211721	keystroke	t	n/a
606.0405	0.06	1212081	keystroke	t	n/a
606.2055	0.09	1212411	keystroke	e	n/a
606.43	0.075	1212860	keystroke	s	n/a
606.595	0.09	1213190	keystroke	Key.space	n/a
607.076	0.104	1214152	keystroke	d	n/a
607.195	0.0755	1214390	keystroke	i	n/a
607.3155	0.105	1214631	keystroke	s	n/a
607.8405	0.12	1215681	keystroke	c	n/a
608.081	0.06	1216162	keystroke	h	n/a
608.216	0.135	1216432	keystroke	a	n/a
608.4705	0.075	1216941	keystroke	r	n/a
608.6955	0.105	1217391	keystroke	g	n/a
608.7705	0.09	1217541	keystroke	e	n/a
608.9355	0.105	1217871	keystroke	Key.space	n/a
609.2655	0.09	1218531	keystroke	l	n/a
609.371	0.1495	1218742	keystroke	a	n/a
609.5955	0.09	1219191	keystroke	r	n/a
609.8205	0.105	1219641	keystroke	g	n/a
609.9105	0.09	1219821	keystroke	e	n/a
610.2405	0.015	1220481	keystroke	Key.space	n/a
610.736	0.105	1221472	keystroke	r	n/a
610.826	0.09	1221652	keystroke	e	n/a
611.081	0.09	1222162	keystroke	m	n/a
612.176	0.059	1224352	keystroke	Key.backspace	n/a
612.266	0.1045	1224532	keystroke	c	n/a
612.4605	0.09	1224921	keystroke	o	n/a
613.2105	0.06	1226421	keystroke	m	n/a
613.3455	0.075	1226691	keystroke	m	n/a
614.215	0.1355	1228430	keystroke	e	n/a
614.4255	0.09	1228851	keystroke	n	n/a
614.5615	0.104	1229123	keystroke	d	n/a
615.0265	0.104	1230053	keystroke	a	n/a
615.2505	0.09	1230501	keystroke	t	n/a
615.3405	0.195	1230681	keystroke	i	n/a
615.4305	0.12	1230861	keystroke	o	n/a
615.4905	0.12	1230981	keystroke	n	n/a
615.6105	0.09	1231221	keystroke	s	n/a
615.7905	0.075	1231581	keystroke	Key.enter	n/a
615.8745	5.663	1231749	prompt	n/a	this barn adipex launch\n
616.766	0.12	1233532	keystroke	t	n/a
616.886	0.089	1233772	keystroke	h	n/a
616.945	0.09	1233890	keystroke	i	n/a
617.02	0.09	1234040	keystroke	s	n/a
617.08	0.105	1234160	keystroke	Key.space	n/a
617.591	0.12	1235182	keystroke	b	n/a
617.846	0.135	1235692	keystroke	a	n/a
618.341	0.105	1236682	keystroke	r	n/a
618.506	0.12	1237012	keystroke	n	n/a
618.671	0.119	1237342	keystroke	Key.space	n/a
619.0305	0.09	1238061	keystroke	a	n/a
619.2105	0.075	1238421	keystroke	d	n/a
619.5255	0.12	1239051	keystroke	i	n/a
619.7505	0.105	1239501	keystroke	p	n/a
619.9605	0.075	1239921	keystroke	e	n/a
620.1705	0.105	1240341	keystroke	x	n/a
620.3355	0.12	1240671	keystroke	Key.space	n/a
620.591	0.1045	1241182	keystroke	l	n/a
620.7705	0.0605	1241541	keystroke	u	n/a
620.966	0.0745	1241932	keystroke	n	n/a
621.071	0.1195	1242142	keystroke	c	n/a
621.161	0.0595	1242322	keystroke	h	n/a
621.461	0.0745	1242922	keystroke	Key.enter	n/a
621.544	10.253	1243088	prompt	n/a	mariah amateur zone typical\n
622.5405	0.045	1245081	keystroke	m	n/a
622.6155	0.105	1245231	keystroke	a	n/a
623.1855	0.09	1246371	keystroke	r	n/a
623.3205	0.0755	1246641	keystroke	i	n/a
623.4555	0.09	1246911	keystroke	a	n/a
623.6505	0.075	1247301	keystroke	h	n/a
623.8305	0.075	1247661	keystroke	Key.space	n/a
624.4305	0.105	1248861	keystroke	a	n/a
624.5805	0.12	1249161	keystroke	m	n/a
625.1055	0.09	1250211	keystroke	a	n/a
626.621	0.09	1253242	keystroke	t	n/a
627.686	0.075	1255372	keystroke	e	n/a
627.911	0.075	1255822	keystroke	u	n/a
628.046	0.105	1256092	keystroke	r	n/a
628.421	0.09	1256842	keystroke	Key.space	n/a
628.811	0.12	1257622	keystroke	z	n/a
628.946	0.09	1257892	keystroke	o	n/a
629.021	0.075	1258042	keystroke	n	n/a
629.126	0.075	1258252	keystroke	e	n/a
629.306	0.075	1258612	keystroke	Key.space	n/a
629.876	0.12	1259752	keystroke	t	n/a
630.026	0.164	1260052	keystroke	y	n/a
630.176	0.119	1260352	keystroke	p	n/a
630.686	0.105	1261372	keystroke	i	n/a
630.805	0.181	1261610	keystroke	c	n/a
630.971	0.089	1261942	keystroke	a	n/a
631.106	0.09	1262212	keystroke	l	n/a
631.706	0.09	1263412	keystroke	Key.enter	n/a
631.803	11.1995	1263606	prompt	n/a	equal confirm deutsch pantyhose\n
633.056	0.135	1266112	keystroke	e	n/a
633.296	0.105	1266592	keystroke	q	n/a
633.566	0.09	1267132	keystroke	u	n/a
633.911	0.09	1267822	keystroke	a	n/a
634.076	0.075	1268152	keystroke	l	n/a
634.346	0.075	1268692	keystroke	Key.space	n/a
634.676	0.105	1269352	keystroke	c	n/a
634.706	0.105	1269412	keystroke	o	n/a
634.796	0.105	1269592	keystroke	n	n/a
635.366	0.105	1270732	keystroke	f	n/a
635.591	0.075	1271182	keystroke	i	n/a
635.786	0.09	1271572	keystroke	r	n/a
635.891	0.165	1271782	keystroke	m	n/a
636.04	0.106	1272080	keystroke	Key.space	n/a
636.4305	0.105	1272861	keystroke	d	n/a
637.0155	0.075	1274031	keystroke	e	n/a
637.4355	0.09	1274871	keystroke	u	n/a
637.6005	0.09	1275201	keystroke	t	n/a
638.0355	0.075	1276071	keystroke	s	n/a
638.531	0.135	1277062	keystroke	c	n/a
638.696	0.075	1277392	keystroke	h	n/a
638.876	0.12	1277752	keystroke	Key.space	n/a
639.281	0.0895	1278562	keystroke	p	n/a
639.5055	0.09	1279011	keystroke	a	n/a
639.6405	0.105	1279281	keystroke	n	n/a
640.0005	0.06	1280001	keystroke	y	n/a
641.1405	0.06	1282281	keystroke	Key.backspace	n/a
641.2455	0.105	1282491	keystroke	t	n/a
641.4555	0.06	1282911	keystroke	y	n/a
642.086	0.0745	1284172	keystroke	h	n/a
642.1755	0.09	1284351	keystroke	o	n/a
642.3705	0.1495	1284741	keystroke	s	n/a
642.461	0.135	1284922	keystroke	e	n/a
642.91	0.09	1285820	keystroke	Key.enter	n/a
643.007	14.699	1286014	prompt	n/a	footage pools secrets holland\n
644.111	0.12	1288222	keystroke	d	n/a
644.636	0.06	1289272	keystroke	Key.backspace	n/a
644.726	0.135	1289452	keystroke	f	n/a
644.951	0.06	1289902	keystroke	o	n/a
645.101	0.045	1290202	keystroke	o	n/a
645.266	0.105	1290532	keystroke	d	n/a
645.896	0.06	1291792	keystroke	Key.backspace	n/a
646.046	0.105	1292092	keystroke	t	n/a
646.451	0.105	1292902	keystroke	a	n/a
646.586	0.12	1293172	keystroke	g	n/a
646.691	0.09	1293382	keystroke	e	n/a
647.666	0.075	1295332	keystroke	Key.space	n/a
648.116	0.09	1296232	keystroke	p	n/a
648.371	0.075	1296742	keystroke	o	n/a
648.521	0.075	1297042	keystroke	o	n/a
648.716	0.09	1297432	keystroke	l	n/a
648.866	0.075	1297732	keystroke	s	n/a
649.06	0.106	1298120	keystroke	Key.space	n/a
649.496	0.09	1298992	keystroke	s	n/a
649.781	0.09	1299562	keystroke	e	n/a
650.066	0.12	1300132	keystroke	c	n/a
650.6505	0.135	1301301	keystroke	r	n/a
650.7705	0.1355	1301541	keystroke	e	n/a
651.0255	0.09	1302051	keystroke	t	n/a
651.2505	0.0905	1302501	keystroke	s	n/a
651.401	0.1045	1302802	keystroke	Key.space	n/a
651.7155	0.105	1303431	keystroke	h	n/a
651.8505	0.106	1303701	keystroke	o	n/a
652.0455	0.061	1304091	keystroke	o	n/a
652.736	0.075	1305472	keystroke	Key.backspace	n/a
652.991	0.06	1305982	keystroke	l	n/a
653.111	0.09	1306222	keystroke	l	n/a
653.456	0.105	1306912	keystroke	a	n/a
653.591	0.06	1307182	keystroke	n	n/a
653.696	0.09	1307392	keystroke	d	n/a
657.703	0	1315406	keystroke	Key.enter	n/a
657.7105	9.4725	1315421	prompt	n/a	gather becoming personality interaction\n
659.081	0.18	1318162	keystroke	g	n/a
659.231	0.135	1318462	keystroke	a	n/a
659.516	0.135	1319032	keystroke	t	n/a
659.696	0.06	1319392	keystroke	h	n/a
659.771	0.12	1319542	keystroke	e	n/a
659.846	0.12	1319692	keystroke	r	n/a
660.115	0.106	1320230	keystroke	Key.space	n/a
660.401	0.1045	1320802	keystroke	b	n/a
660.6255	0.0905	1321251	keystroke	e	n/a
660.851	0.15	1321702	keystroke	c	n/a
660.971	0.105	1321942	keystroke	o	n/a
661.091	0.105	1322182	keystroke	m	n/a
661.211	0.12	1322422	keystroke	i	n/a
661.301	0.105	1322602	keystroke	n	n/a
661.391	0.09	1322782	keystroke	g	n/a
661.466	0.09	1322932	keystroke	Key.space	n/a
662.021	0.105	1324042	keystroke	p	n/a
662.216	0.165	1324432	keystroke	e	n/a
662.351	0.105	1324702	keystroke	r	n/a
662.546	0.105	1325092	keystroke	s	n/a
662.606	0.075	1325212	keystroke	o	n/a
662.696	0.09	1325392	keystroke	n	n/a
664.151	0.105	1328302	keystroke	a	n/a
664.286	0.09	1328572	keystroke	l	n/a
664.436	0.09	1328872	keystroke	i	n/a
664.631	0.09	1329262	keystroke	t	n/a
664.721	0.075	1329442	keystroke	y	n/a
664.856	0.105	1329712	keystroke	Key.space	n/a
665.096	0.105	1330192	keystroke	i	n/a
665.216	0.12	1330432	keystroke	n	n/a
665.366	0.105	1330732	keystroke	t	n/a
665.471	0.135	1330942	keystroke	e	n/a
665.591	0.09	1331182	keystroke	r	n/a
666.011	0.12	1332022	keystroke	a	n/a
666.206	0.12	1332412	keystroke	c	n/a
666.4005	0.105	1332801	keystroke	t	n/a
666.4905	0.225	1332981	keystroke	i	n/a
666.5655	0.135	1333131	keystroke	o	n/a
666.6715	0.104	1333343	keystroke	n	n/a
667.1205	0.06	1334241	keystroke	Key.enter	n/a
667.191	10.822	1334382	prompt	n/a	booth number commodity doctrine\n
668.021	0.12	1336042	keystroke	b	n/a
668.201	0.06	1336402	keystroke	o	n/a
668.336	0.075	1336672	keystroke	o	n/a
668.456	0.06	1336912	keystroke	t	n/a
669.086	0.06	1338172	keystroke	h	n/a
669.596	0.09	1339192	keystroke	n	n/a
669.791	0.045	1339582	keystroke	u	n/a
670.076	0.105	1340152	keystroke	b	n/a
670.7055	0.0605	1341411	keystroke	Key.backspace	n/a
670.856	0.075	1341712	keystroke	Key.backspace	n/a
671.021	0.06	1342042	keystroke	Key.backspace	n/a
671.726	0.06	1343452	keystroke	Key.space	n/a
672.1605	0.075	1344321	keystroke	n	n/a
672.3405	0.06	1344681	keystroke	u	n/a
672.5205	0.075	1345041	keystroke	m	n/a
672.6405	0.105	1345281	keystroke	b	n/a
672.7755	0.136	1345551	keystroke	e	n/a
672.896	0.075	1345792	keystroke	r	n/a
673.046	0.0745	1346092	keystroke	Key.space	n/a
673.8405	0.151	1347681	keystroke	c	n/a
673.9615	0.074	1347923	keystroke	o	n/a
674.1715	0.059	1348343	keystroke	m	n/a
674.3205	0.045	1348641	keystroke	m	n/a
674.7855	0.075	1349571	keystroke	o	n/a
675.0555	0.12	1350111	keystroke	d	n/a
675.3105	0.06	1350621	keystroke	i	n/a
675.4905	0.075	1350981	keystroke	t	n/a
675.5955	0.075	1351191	keystroke	y	n/a
675.7305	0.09	1351461	keystroke	Key.space	n/a
676.0455	0.12	1352091	keystroke	d	n/a
676.181	0.06	1352362	keystroke	o	n/a
676.316	0.1055	1352632	keystroke	c	n/a
677.0065	0.09	1354013	keystroke	t	n/a
677.2765	0.104	1354553	keystroke	r	n/a
677.4255	0.075	1354851	keystroke	i	n/a
677.5455	0.106	1355091	keystroke	n	n/a
677.6665	0.059	1355333	keystroke	e	n/a
677.9355	0.076	1355871	keystroke	Key.enter	n/a
678.02	13.3725	1356040	prompt	n/a	beverages bookmark prostate anne\n
678.926	0.09	1357852	keystroke	b	n/a
679.481	0.09	1358962	keystroke	e	n/a
679.781	0.12	1359562	keystroke	v	n/a
680.066	0.12	1360132	keystroke	e	n/a
680.336	0.105	1360672	keystroke	r	n/a
680.816	0.09	1361632	keystroke	a	n/a
681.056	0.09	1362112	keystroke	g	n/a
681.176	0.105	1362352	keystroke	e	n/a
681.566	0.075	1363132	keystroke	s	n/a
681.836	0.1045	1363672	keystroke	Key.space	n/a
682.0905	0.09	1364181	keystroke	b	n/a
682.2415	0.059	1364483	keystroke	o	n/a
682.3755	0.075	1364751	keystroke	o	n/a
682.5405	0.075	1365081	keystroke	k	n/a
682.8855	0.105	1365771	keystroke	m	n/a
683.0205	0.105	1366041	keystroke	a	n/a
683.1855	0.105	1366371	keystroke	r	n/a
683.3355	0.06	1366671	keystroke	k	n/a
683.5005	0.045	1367001	keystroke	Key.space	n/a
684.0255	0.09	1368051	keystroke	p	n/a
684.1755	0.075	1368351	keystroke	o	n/a
684.9705	0.06	1369941	keystroke	Key.backspace	n/a
685.1805	0.105	1370361	keystroke	r	n/a
685.8555	0.045	1371711	keystroke	o	n/a
686.2155	0.12	1372431	keystroke	s	n/a
686.831	0.06	1373662	keystroke	t	n/a
687.641	0.12	1375282	keystroke	a	n/a
687.896	0.09	1375792	keystroke	t	n/a
688.136	0.09	1376272	keystroke	e	n/a
688.631	0.075	1377262	keystroke	Key.space	n/a
688.886	0.06	1377772	keystroke	n	n/a
688.991	0.09	1377982	keystroke	a	n/a
689.696	0.09	1379392	keystroke	Key.backspace	n/a
689.846	0.075	1379692	keystroke	Key.backspace	n/a
689.966	0.105	1379932	keystroke	a	n/a
690.161	0.06	1380322	keystroke	n	n/a
690.386	0.06	1380772	keystroke	n	n/a
690.581	0.1045	1381162	keystroke	e	n/a
691.3305	0.06	1382661	keystroke	Key.enter	n/a
691.4005	7.7015	1382801	prompt	n/a	sandy circles detective tied\n
692.1705	0.105	1384341	keystroke	s	n/a
692.3805	0.09	1384761	keystroke	a	n/a
692.5005	0.091	1385001	keystroke	n	n/a
692.6505	0.09	1385301	keystroke	d	n/a
692.7555	0.061	1385511	keystroke	y	n/a
692.9205	0.075	1385841	keystroke	Key.space	n/a
694.031	0.135	1388062	keystroke	c	n/a
694.196	0.09	1388392	keystroke	i	n/a
694.466	0.12	1388932	keystroke	r	n/a
694.766	0.12	1389532	keystroke	c	n/a
694.976	0.06	1389952	keystroke	l	n/a
695.081	0.105	1390162	keystroke	e	n/a
695.336	0.06	1390672	keystroke	s	n/a
695.531	0.09	1391062	keystroke	Key.space	n/a
695.906	0.075	1391812	keystroke	d	n/a
696.055	0.091	1392110	keystroke	e	n/a
696.386	0.09	1392772	keystroke	t	n/a
696.686	0.075	1393372	keystroke	e	n/a
696.911	0.105	1393822	keystroke	c	n/a
697.091	0.09	1394182	keystroke	t	n/a
697.226	0.075	1394452	keystroke	i	n/a
697.331	0.12	1394662	keystroke	v	n/a
697.421	0.09	1394842	keystroke	e	n/a
697.541	0.1045	1395082	keystroke	Key.space	n/a
697.7655	0.12	1395531	keystroke	t	n/a
697.9155	0.0755	1395831	keystroke	i	n/a
698.006	0.12	1396012	keystroke	e	n/a
698.381	0.1045	1396762	keystroke	d	n/a
699.0105	0.09	1398021	keystroke	Key.enter	n/a
699.1075	14.77	1398215	prompt	n/a	commission equipment cartoons baseball\n
699.9555	0.15	1399911	keystroke	c	n/a
700.0905	0.075	1400181	keystroke	o	n/a
700.3155	0.06	1400631	keystroke	m	n/a
700.466	0.075	1400932	keystroke	m	n/a
700.661	0.0745	1401322	keystroke	i	n/a
700.8105	0.06	1401621	keystroke	s	n/a
700.9005	0.135	1401801	keystroke	i	n/a
701.0055	0.12	1402011	keystroke	o	n/a
701.1105	0.09	1402221	keystroke	n	n/a
701.3505	0.015	1402701	keystroke	Key.space	n/a
702.671	0.075	1405342	keystroke	Key.backspace	n/a
702.821	0.06	1405642	keystroke	Key.backspace	n/a
702.971	0.075	1405942	keystroke	Key.backspace	n/a
703.106	0.075	1406212	keystroke	Key.backspace	n/a
703.946	0.09	1407892	keystroke	s	n/a
704.096	0.18	1408192	keystroke	i	n/a
704.216	0.15	1408432	keystroke	o	n/a
704.336	0.105	1408672	keystroke	n	n/a
704.456	0.075	1408912	keystroke	Key.space	n/a
705.311	0.075	1410622	keystroke	e	n/a
705.836	0.09	1411672	keystroke	q	n/a
706.376	0.09	1412752	keystroke	u	n/a
706.706	0.27	1413412	keystroke	i	n/a
706.961	0.105	1413922	keystroke	p	n/a
707.5155	0.12	1415031	keystroke	m	n/a
707.6505	0.0905	1415301	keystroke	e	n/a
707.7555	0.0605	1415511	keystroke	n	n/a
707.861	0.075	1415722	keystroke	t	n/a
708.641	0.105	1417282	keystroke	Key.space	n/a
709.496	0.18	1418992	keystroke	c	n/a
709.661	0.12	1419322	keystroke	a	n/a
709.931	0.105	1419862	keystroke	r	n/a
710.141	0.09	1420282	keystroke	t	n/a
710.441	0.075	1420882	keystroke	o	n/a
710.576	0.105	1421152	keystroke	o	n/a
710.741	0.09	1421482	keystroke	n	n/a
710.906	0.09	1421812	keystroke	s	n/a
711.2655	0.09	1422531	keystroke	Key.space	n/a
711.986	0.15	1423972	keystroke	b	n/a
712.121	0.1205	1424242	keystroke	a	n/a
712.331	0.195	1424662	keystroke	s	n/a
712.481	0.12	1424962	keystroke	e	n/a
712.931	0.12	1425862	keystroke	b	n/a
713.066	0.105	1426132	keystroke	a	n/a
713.2755	0.075	1426551	keystroke	l	n/a
713.4105	0.075	1426821	keystroke	l	n/a
713.8155	0.06	1427631	keystroke	Key.enter	n/a
713.8835	11.739	1427767	prompt	n/a	titled description physically void\n
714.9105	0.12	1429821	keystroke	t	n/a
715.0605	0.09	1430121	keystroke	i	n/a
715.3005	0.09	1430601	keystroke	t	n/a
715.4205	0.09	1430841	keystroke	l	n/a
715.6755	0.105	1431351	keystroke	e	n/a
715.9755	0.09	1431951	keystroke	d	n/a
716.1405	0.075	1432281	keystroke	Key.space	n/a
716.5455	0.045	1433091	keystroke	d	n/a
716.6355	0.136	1433271	keystroke	e	n/a
717.8965	0.104	1435793	keystroke	s	n/a
718.1655	0.1355	1436331	keystroke	c	n/a
718.391	0.135	1436782	keystroke	r	n/a
718.556	0.195	1437112	keystroke	i	n/a
718.751	0.12	1437502	keystroke	p	n/a
718.901	0.12	1437802	keystroke	t	n/a
719.036	0.18	1438072	keystroke	i	n/a
719.156	0.165	1438312	keystroke	o	n/a
719.351	0.12	1438702	keystroke	n	n/a
720.0105	0.09	1440021	keystroke	Key.space	n/a
720.3405	0.15	1440681	keystroke	p	n/a
720.7455	0.105	1441491	keystroke	h	n/a
720.9855	0.105	1441971	keystroke	y	n/a
721.361	0.09	1442722	keystroke	i	n/a
721.825	0.076	1443650	keystroke	Key.backspace	n/a
721.931	0.12	1443862	keystroke	s	n/a
722.11	0.061	1444220	keystroke	i	n/a
722.38	0.136	1444760	keystroke	c	n/a
723.221	0.09	1446442	keystroke	a	n/a
723.506	0.03	1447012	keystroke	l	n/a
723.611	0.0895	1447222	keystroke	l	n/a
723.896	0.075	1447792	keystroke	y	n/a
724.016	0.135	1448032	keystroke	Key.space	n/a
724.376	0.135	1448752	keystroke	v	n/a
724.556	0.09	1449112	keystroke	o	n/a
725.186	0.0595	1450372	keystroke	i	n/a
725.2755	0.12	1450551	keystroke	d	n/a
725.5605	0.06	1451121	keystroke	Key.enter	n/a
725.626	7.511	1451252	prompt	n/a	poker grocery mild dawn\n
726.851	0.09	1453702	keystroke	p	n/a
727.001	0.06	1454002	keystroke	o	n/a
727.196	0.075	1454392	keystroke	k	n/a
727.391	0.105	1454782	keystroke	e	n/a
727.481	0.105	1454962	keystroke	r	n/a
727.975	0.105	1455950	keystroke	Key.space	n/a
728.26	0.091	1456520	keystroke	g	n/a
728.876	0.104	1457752	keystroke	r	n/a
729.161	0.059	1458322	keystroke	o	n/a
729.326	0.1195	1458652	keystroke	c	n/a
729.6255	0.15	1459251	keystroke	e	n/a
729.7905	0.105	1459581	keystroke	r	n/a
730.0005	0.075	1460001	keystroke	y	n/a
730.1955	0.09	1460391	keystroke	Key.space	n/a
730.916	0.12	1461832	keystroke	m	n/a
731.051	0.21	1462102	keystroke	i	n/a
731.276	0.12	1462552	keystroke	l	n/a
731.4865	0.0745	1462973	keystroke	d	n/a
731.711	0.0895	1463422	keystroke	Key.space	n/a
732.0255	0.09	1464051	keystroke	d	n/a
732.3705	0.135	1464741	keystroke	a	n/a
732.6555	0.105	1465311	keystroke	w	n/a
732.8655	0.075	1465731	keystroke	n	n/a
733.0605	0.075	1466121	keystroke	Key.enter	n/a
733.1435	13.2235	1466287	prompt	n/a	february reuters treasure expectations\n
733.991	0.09	1467982	keystroke	f	n/a
734.156	0.09	1468312	keystroke	e	n/a
734.411	0.075	1468822	keystroke	b	n/a
735.176	0.105	1470352	keystroke	r	n/a
735.641	0.075	1471282	keystroke	u	n/a
735.731	0.09	1471462	keystroke	a	n/a
735.836	0.12	1471672	keystroke	r	n/a
736.001	0.06	1472002	keystroke	y	n/a
736.2105	0.09	1472421	keystroke	Key.space	n/a
737.6955	0.12	1475391	keystroke	r	n/a
737.7855	0.09	1475571	keystroke	e	n/a
738.446	0.074	1476892	keystroke	u	n/a
738.596	0.09	1477192	keystroke	t	n/a
738.85	0.1205	1477700	keystroke	e	n/a
738.9555	0.12	1477911	keystroke	r	n/a
739.2555	0.09	1478511	keystroke	s	n/a
739.6005	0.105	1479201	keystroke	Key.space	n/a
740.0355	0.12	1480071	keystroke	t	n/a
740.26	0.15	1480520	keystroke	e	n/a
740.8	0.045	1481600	keystroke	Key.backspace	n/a
740.89	0.165	1481780	keystroke	r	n/a
741.01	0.18	1482020	keystroke	e	n/a
741.175	0.091	1482350	keystroke	a	n/a
741.791	0.12	1483582	keystroke	s	n/a
741.971	0.06	1483942	keystroke	u	n/a
742.061	0.12	1484122	keystroke	r	n/a
742.136	0.105	1484272	keystroke	e	n/a
742.211	0.12	1484422	keystroke	Key.space	n/a
742.5405	0.105	1485081	keystroke	e	n/a
742.7805	0.12	1485561	keystroke	x	n/a
742.9605	0.09	1485921	keystroke	p	n/a
743.8	0.12	1487600	keystroke	e	n/a
744.086	0.12	1488172	keystroke	c	n/a
744.295	0.0905	1488590	keystroke	t	n/a
744.5955	0.105	1489191	keystroke	a	n/a
744.761	0.0745	1489522	keystroke	t	n/a
745.0905	0.21	1490181	keystroke	i	n/a
745.1955	0.12	1490391	keystroke	o	n/a
745.2855	0.105	1490571	keystroke	n	n/a
746.111	0.09	1492222	keystroke	s	n/a
746.291	0.075	1492582	keystroke	Key.enter	n/a
746.3715	7.961	1492743	prompt	n/a	toward clusters sanyo sick\n
747.416	0.135	1494832	keystroke	t	n/a
747.566	0.075	1495132	keystroke	o	n/a
747.986	0.12	1495972	keystroke	w	n/a
748.271	0.1195	1496542	keystroke	a	n/a
748.4355	0.075	1496871	keystroke	r	n/a
748.6605	0.075	1497321	keystroke	d	n/a
748.8405	0.105	1497681	keystroke	Key.space	n/a
749.2005	0.12	1498401	keystroke	c	n/a
749.3805	0.075	1498761	keystroke	l	n/a
749.9805	0.045	1499961	keystroke	u	n/a
750.1455	0.09	1500291	keystroke	s	n/a
750.4455	0.105	1500891	keystroke	t	n/a
750.6255	0.135	1501251	keystroke	e	n/a
750.7455	0.105	1501491	keystroke	r	n/a
750.9855	0.09	1501971	keystroke	s	n/a
751.4355	0.075	1502871	keystroke	Key.space	n/a
751.6455	0.18	1503291	keystroke	s	n/a
751.7955	0.12	1503591	keystroke	a	n/a
751.9605	0.075	1503921	keystroke	n	n/a
752.3055	0.1195	1504611	keystroke	y	n/a
752.8	0.075	1505600	keystroke	o	n/a
753.07	0.105	1506140	keystroke	Key.space	n/a
753.4755	0.09	1506951	keystroke	s	n/a
753.5665	0.059	1507133	keystroke	i	n/a
753.8055	0.12	1507611	keystroke	c	n/a
753.9855	0.09	1507971	keystroke	k	n/a
754.2555	0.075	1508511	keystroke	Key.enter	n/a
754.339	11.6785	1508678	prompt	n/a	roommate educational dale dispatched\n
755.3805	0.12	1510761	keystroke	r	n/a
755.5755	0.015	1511151	keystroke	o	n/a
755.6805	0.075	1511361	keystroke	o	n/a
755.9955	0.075	1511991	keystroke	m	n/a
756.626	0.15	1513252	keystroke	a	n/a
757.1655	0.045	1514331	keystroke	Key.backspace	n/a
757.3455	0.076	1514691	keystroke	m	n/a
757.4355	0.09	1514871	keystroke	a	n/a
757.5555	0.105	1515111	keystroke	t	n/a
757.6455	0.09	1515291	keystroke	e	n/a
757.9305	0.09	1515861	keystroke	Key.space	n/a
758.9505	0.105	1517901	keystroke	e	n/a
759.1605	0.105	1518321	keystroke	d	n/a
759.8355	0.09	1519671	keystroke	u	n/a
759.9705	0.165	1519941	keystroke	c	n/a
760.1055	0.12	1520211	keystroke	a	n/a
760.2855	0.106	1520571	keystroke	t	n/a
760.3305	0.195	1520661	keystroke	i	n/a
760.4205	0.12	1520841	keystroke	o	n/a
760.5105	0.105	1521021	keystroke	n	n/a
760.9155	0.09	1521831	keystroke	a	n/a
761.0805	0.12	1522161	keystroke	l	n/a
761.2905	0.045	1522581	keystroke	Key.space	n/a
761.6655	0.06	1523331	keystroke	d	n/a
762.086	0.09	1524172	keystroke	a	n/a
762.206	0.09	1524412	keystroke	l	n/a
762.491	0.105	1524982	keystroke	e	n/a
762.731	0.06	1525462	keystroke	Key.space	n/a
763.046	0.09	1526092	keystroke	d	n/a
763.421	0.075	1526842	keystroke	i	n/a
763.571	0.075	1527142	keystroke	s	n/a
764.111	0.075	1528222	keystroke	p	n/a
764.725	0.091	1529450	keystroke	a	n/a
764.846	0.105	1529692	keystroke	t	n/a
765.161	0.105	1530322	keystroke	c	n/a
765.281	0.09	1530562	keystroke	h	n/a
765.491	0.075	1530982	keystroke	e	n/a
765.686	0.075	1531372	keystroke	d	n/a
765.956	0.06	1531912	keystroke	Key.enter	n/a
766.022	9.7305	1532044	prompt	n/a	license luis alarm subtle\n
766.766	0.09	1533532	keystroke	l	n/a
766.885	0.076	1533770	keystroke	i	n/a
767.216	0.12	1534432	keystroke	c	n/a
767.531	0.105	1535062	keystroke	e	n/a
767.756	0.075	1535512	keystroke	n	n/a
767.951	0.135	1535902	keystroke	s	n/a
768.056	0.12	1536112	keystroke	e	n/a
769.286	0.105	1538572	keystroke	Key.space	n/a
770.3655	0.12	1540731	keystroke	l	n/a
770.6805	0.06	1541361	keystroke	u	n/a
770.8605	0.09	1541721	keystroke	i	n/a
771.0105	0.105	1542021	keystroke	s	n/a
771.1905	0.105	1542381	keystroke	Key.space	n/a
771.5055	0.075	1543011	keystroke	a	n/a
773.021	0.06	1546042	keystroke	l	n/a
773.291	0.12	1546582	keystroke	a	n/a
773.651	0.105	1547302	keystroke	r	n/a
773.831	0.135	1547662	keystroke	m	n/a
774.146	0.105	1548292	keystroke	Key.space	n/a
774.356	0.12	1548712	keystroke	s	n/a
774.596	0.09	1549192	keystroke	u	n/a
774.761	0.09	1549522	keystroke	b	n/a
775.136	0.105	1550272	keystroke	t	n/a
775.301	0.105	1550602	keystroke	l	n/a
775.421	0.09	1550842	keystroke	e	n/a
775.661	0.09	1551322	keystroke	Key.enter	n/a
775.759	7.644	1551518	prompt	n/a	finder third questions homeland\n
776.666	0.06	1553332	keystroke	f	n/a
776.786	0.075	1553572	keystroke	i	n/a
776.921	0.105	1553842	keystroke	n	n/a
777.041	0.09	1554082	keystroke	d	n/a
777.236	0.105	1554472	keystroke	e	n/a
777.326	0.1195	1554652	keystroke	r	n/a
777.4605	0.09	1554921	keystroke	Key.space	n/a
777.9705	0.105	1555941	keystroke	t	n/a
778.0905	0.075	1556181	keystroke	h	n/a
778.7355	0.075	1557471	keystroke	i	n/a
778.8555	0.1205	1557711	keystroke	r	n/a
779.0955	0.105	1558191	keystroke	d	n/a
779.2305	0.12	1558461	keystroke	Key.space	n/a
779.5005	0.135	1559001	keystroke	q	n/a
779.6955	0.1055	1559391	keystroke	u	n/a
779.786	0.104	1559572	keystroke	e	n/a
780.041	0.135	1560082	keystroke	s	n/a
780.176	0.104	1560352	keystroke	t	n/a
781.2105	0.21	1562421	keystroke	i	n/a
781.3155	0.135	1562631	keystroke	o	n/a
781.4215	0.104	1562843	keystroke	n	n/a
781.6005	0.09	1563201	keystroke	s	n/a
781.7655	0.045	1563531	keystroke	Key.space	n/a
782.0805	0.105	1564161	keystroke	h	n/a
782.2005	0.12	1564401	keystroke	o	n/a
782.3055	0.0905	1564611	keystroke	m	n/a
782.4105	0.105	1564821	keystroke	e	n/a
782.5905	0.105	1565181	keystroke	l	n/a
782.8155	0.105	1565631	keystroke	a	n/a
782.9355	0.075	1565871	keystroke	n	n/a
783.0405	0.105	1566081	keystroke	d	n/a
783.3405	0.06	1566681	keystroke	Key.enter	n/a
783.4075	10.9005	1566815	prompt	n/a	otherwise endangered buddy screenshots\n
784.316	0.074	1568632	keystroke	o	n/a
784.511	0.105	1569022	keystroke	t	n/a
784.6	0.06	1569200	keystroke	h	n/a
784.661	0.12	1569322	keystroke	e	n/a
784.765	0.09	1569530	keystroke	r	n/a
785.035	0.09	1570070	keystroke	w	n/a
785.185	0.06	1570370	keystroke	i	n/a
785.3665	0.044	1570733	keystroke	d	n/a
785.666	0.105	1571332	keystroke	s	n/a
785.981	0.06	1571962	keystroke	Key.backspace	n/a
786.116	0.075	1572232	keystroke	Key.backspace	n/a
786.191	0.18	1572382	keystroke	s	n/a
786.356	0.1195	1572712	keystroke	e	n/a
786.6105	0.075	1573221	keystroke	Key.space	n/a
787.3455	0.15	1574691	keystroke	e	n/a
787.5255	0.075	1575051	keystroke	n	n/a
787.6605	0.135	1575321	keystroke	d	n/a
788.5155	0.105	1577031	keystroke	a	n/a
788.9505	0.09	1577901	keystroke	n	n/a
789.1755	0.12	1578351	keystroke	g	n/a
789.386	0.165	1578772	keystroke	e	n/a
789.521	0.12	1579042	keystroke	r	n/a
789.986	0.105	1579972	keystroke	e	n/a
790.196	0.105	1580392	keystroke	d	n/a
790.331	0.1195	1580662	keystroke	Key.space	n/a
