onset	duration	sample	value	key	prompt_text
3.502	9.425	7004	prompt	n/a	the quick brown fox jumps over a lazy dog\n
6.068	0.044	12136	keystroke_t	t	n/a
6.142	0.09	12284	keystroke_h	h	n/a
6.322	0.106	12644	keystroke_e	e	n/a
6.4735	0.0895	12947	keystroke_Key.space	Key.space	n/a
6.564	0.1195	13128	keystroke_q	q	n/a
6.7435	0.075	13487	keystroke_u	u	n/a
6.8785	0.0905	13757	keystroke_i	i	n/a
7	0.1045	14000	keystroke_c	c	n/a
7.12	0.134	14240	keystroke_k	k	n/a
7.269	0.06	14538	keystroke_Key.space	Key.space	n/a
7.434	0.09	14868	keystroke_b	b	n/a
7.569	0.09	15138	keystroke_r	r	n/a
7.674	0.075	15348	keystroke_o	o	n/a
7.809	0.105	15618	keystroke_w	w	n/a
7.899	0.0905	15798	keystroke_n	n	n/a
8.0035	0.09	16007	keystroke_Key.space	Key.space	n/a
8.1245	0.075	16249	keystroke_f	f	n/a
8.2295	0.105	16459	keystroke_o	o	n/a
8.4245	0.104	16849	keystroke_x	x	n/a
8.559	0.0755	17118	keystroke_Key.space	Key.space	n/a
8.6795	0.09	17359	keystroke_j	j	n/a
8.8745	0.075	17749	keystroke_u	u	n/a
9.055	0.0895	18110	keystroke_m	m	n/a
9.2195	0.0895	18439	keystroke_p	p	n/a
9.3545	0.1345	18709	keystroke_s	s	n/a
9.55	0.0745	19100	keystroke_Key.space	Key.space	n/a
9.64	0.0895	19280	keystroke_o	o	n/a
9.91	0.0895	19820	keystroke_v	v	n/a
10.045	0.1645	20090	keystroke_e	e	n/a
10.1645	0.12	20329	keystroke_r	r	n/a
10.3145	0.105	20629	keystroke_Key.space	Key.space	n/a
10.4495	0.105	20899	keystroke_a	a	n/a
10.569	0.091	21138	keystroke_Key.space	Key.space	n/a
10.885	0.075	21770	keystroke_l	l	n/a
10.9745	0.105	21949	keystroke_a	a	n/a
11.35	0.1195	22700	keystroke_z	z	n/a
11.6645	0.1055	23329	keystroke_y	y	n/a
11.845	0.105	23690	keystroke_Key.space	Key.space	n/a
12.4	0.075	24800	keystroke_d	d	n/a
12.505	0.105	25010	keystroke_o	o	n/a
12.67	0.1195	25340	keystroke_g	g	n/a
12.8345	0.09	25669	keystroke_Key.enter	Key.enter	n/a
12.9315	6.5955	25863	prompt	n/a	previous defines tuition turning\n
13.7945	0.09	27589	keystroke_p	p	n/a
13.989	0.12	27978	keystroke_r	r	n/a
14.094	0.1055	28188	keystroke_e	e	n/a
14.32	0.165	28640	keystroke_v	v	n/a
14.559	0.1055	29118	keystroke_i	i	n/a
14.725	0.075	29450	keystroke_o	o	n/a
14.935	0.09	29870	keystroke_u	u	n/a
15.055	0.105	30110	keystroke_s	s	n/a
15.205	0.09	30410	keystroke_Key.space	Key.space	n/a
15.385	0.12	30770	keystroke_d	d	n/a
15.55	0.105	31100	keystroke_e	e	n/a
15.9995	0.06	31999	keystroke_f	f	n/a
16.0755	0.074	32151	keystroke_i	i	n/a
16.5855	0.09	33171	keystroke_n	n	n/a
16.7505	0.195	33501	keystroke_e	e	n/a
16.93	0.1205	33860	keystroke_s	s	n/a
17.0345	0.121	34069	keystroke_Key.space	Key.space	n/a
17.3195	0.106	34639	keystroke_t	t	n/a
17.4555	0.09	34911	keystroke_u	u	n/a
17.71	0.09	35420	keystroke_i	i	n/a
17.89	0.0895	35780	keystroke_t	t	n/a
17.9645	0.0755	35929	keystroke_i	i	n/a
18.0545	0.12	36109	keystroke_o	o	n/a
18.2945	0.09	36589	keystroke_n	n	n/a
18.4	0.09	36800	keystroke_Key.space	Key.space	n/a
18.595	0.0895	37190	keystroke_t	t	n/a
18.7	0.0595	37400	keystroke_u	u	n/a
18.835	0.09	37670	keystroke_r	r	n/a
18.8805	0.089	37761	keystroke_n	n	n/a
19.0595	0.075	38119	keystroke_i	i	n/a
19.21	0.09	38420	keystroke_n	n	n/a
19.345	0.0745	38690	keystroke_g	g	n/a
19.4345	0.0905	38869	keystroke_Key.enter	Key.enter	n/a
19.532	14.0955	39064	prompt	n/a	verification transparency announcement fibre\n
20.3045	0.0755	40609	keystroke_v	v	n/a
20.4095	0.135	40819	keystroke_a	a	n/a
20.5745	0.0905	41149	keystroke_r	r	n/a
21.6545	0.0605	43309	keystroke_Key.backspace	Key.backspace	n/a
21.805	0.06	43610	keystroke_Key.backspace	Key.backspace	n/a
21.9855	0.1345	43971	keystroke_e	e	n/a
22.1055	0.1045	44211	keystroke_r	r	n/a
22.285	0.09	44570	keystroke_i	i	n/a
22.9145	0.0905	45829	keystroke_f	f	n/a
23.0495	0.075	46099	keystroke_i	i	n/a
23.14	0.1195	46280	keystroke_c	c	n/a
23.275	0.15	46550	keystroke_a	a	n/a
23.4995	0.09	46999	keystroke_t	t	n/a
23.604	0.076	47208	keystroke_i	i	n/a
23.695	0.09	47390	keystroke_o	o	n/a
23.9345	0.03	47869	keystroke_n	n	n/a
24.355	0.075	48710	keystroke_Key.space	Key.space	n/a
24.52	0.18	49040	keystroke_r	r	n/a
24.776	0.089	49552	keystroke_a	a	n/a
25.045	0.0595	50090	keystroke_Key.backspace	Key.backspace	n/a
25.18	0.075	50360	keystroke_Key.backspace	Key.backspace	n/a
25.5845	0.1205	51169	keystroke_t	t	n/a
25.72	0.135	51440	keystroke_r	r	n/a
25.9	0.15	51800	keystroke_a	a	n/a
26.095	0.09	52190	keystroke_n	n	n/a
26.29	0.105	52580	keystroke_s	s	n/a
26.77	0.135	53540	keystroke_p	p	n/a
26.9655	0.1345	53931	keystroke_a	a	n/a
27.205	0.105	54410	keystroke_r	r	n/a
27.355	0.105	54710	keystroke_e	e	n/a
27.535	0.105	55070	keystroke_n	n	n/a
28.045	0.1055	56090	keystroke_c	c	n/a
28.18	0.09	56360	keystroke_y	y	n/a
28.39	0.09	56780	keystroke_Key.space	Key.space	n/a
28.57	0.09	57140	keystroke_a	a	n/a
28.735	0.075	57470	keystroke_n	n	n/a
28.87	0.0755	57740	keystroke_n	n	n/a
29.066	0.059	58132	keystroke_o	o	n/a
29.29	0.1055	58580	keystroke_u	u	n/a
29.62	0.06	59240	keystroke_n	n	n/a
30.0255	0.0895	60051	keystroke_c	c	n/a
30.37	0.075	60740	keystroke_e	e	n/a
30.58	0.06	61160	keystroke_m	m	n/a
31	0.1045	62000	keystroke_e	e	n/a
31.15	0.0905	62300	keystroke_n	n	n/a
31.2845	0.106	62569	keystroke_t	t	n/a
31.4355	0.104	62871	keystroke_Key.space	Key.space	n/a
32.095	0.12	64190	keystroke_f	f	n/a
32.619	0.1065	65238	keystroke_i	i	n/a
32.9805	0.105	65961	keystroke_b	b	n/a
33.2805	0.1195	66561	keystroke_r	r	n/a
33.415	0.0905	66830	keystroke_e	e	n/a
33.5495	0.0745	67099	keystroke_Key.enter	Key.enter	n/a
33.633	12.429	67266	prompt	n/a	metric corn strengthen convinced\n
34.2555	0.1045	68511	keystroke_m	m	n/a
34.406	0.1195	68812	keystroke_e	e	n/a
34.6605	0.106	69321	keystroke_t	t	n/a
34.9455	0.105	69891	keystroke_r	r	n/a
35.47	0.0605	70940	keystroke_i	i	n/a
36.16	0.09	72320	keystroke_c	c	n/a
36.385	0.12	72770	keystroke_Key.space	Key.space	n/a
36.76	0.1055	73520	keystroke_c	c	n/a
36.9255	0.09	73851	keystroke_o	o	n/a
37.255	0.09	74510	keystroke_r	r	n/a
37.4355	0.0745	74871	keystroke_n	n	n/a
37.5545	0.09	75109	keystroke_Key.space	Key.space	n/a
37.7505	0.105	75501	keystroke_s	s	n/a
37.9455	0.06	75891	keystroke_t	t	n/a
38.3495	0.061	76699	keystroke_r	r	n/a
38.5005	0.089	77001	keystroke_e	e	n/a
38.7555	0.074	77511	keystroke_n	n	n/a
39.2355	0.0895	78471	keystroke_g	g	n/a
39.491	0.09	78982	keystroke_h	h	n/a
39.745	0.06	79490	keystroke_t	t	n/a
41.365	0.045	82730	keystroke_Key.backspace	Key.backspace	n/a
41.965	0.09	83930	keystroke_Key.backspace	Key.backspace	n/a
42.2055	0.09	84411	keystroke_t	t	n/a
42.4	0.105	84800	keystroke_h	h	n/a
42.55	0.076	85100	keystroke_e	e	n/a
42.865	0.045	85730	keystroke_n	n	n/a
43.225	0.105	86450	keystroke_Key.space	Key.space	n/a
43.51	0.0895	87020	keystroke_c	c	n/a
43.6295	0.0755	87259	keystroke_o	o	n/a
43.855	0.09	87710	keystroke_n	n	n/a
44.0355	0.0895	88071	keystroke_v	v	n/a
44.1705	0.09	88341	keystroke_i	i	n/a
44.74	0.075	89480	keystroke_n	n	n/a
44.89	0.09	89780	keystroke_c	c	n/a
45.2655	0.09	90531	keystroke_e	e	n/a
45.58	0.09	91160	keystroke_d	d	n/a
45.985	0.075	91970	keystroke_Key.enter	Key.enter	n/a
46.0675	11.4555	92135	prompt	n/a	blocking audio fujitsu philadelphia\n
46.8405	0.075	93681	keystroke_b	b	n/a
47.0505	0.105	94101	keystroke_l	l	n/a
47.2905	0.089	94581	keystroke_o	o	n/a
47.5905	0.0895	95181	keystroke_c	c	n/a
47.7105	0.105	95421	keystroke_k	k	n/a
47.95	0.09	95900	keystroke_i	i	n/a
48.1905	0.09	96381	keystroke_n	n	n/a
48.3405	0.12	96681	keystroke_g	g	n/a
48.5055	0.09	97011	keystroke_Key.space	Key.space	n/a
48.865	0.135	97730	keystroke_a	a	n/a
49.1045	0.0755	98209	keystroke_u	u	n/a
49.2395	0.076	98479	keystroke_d	d	n/a
49.3755	0.0905	98751	keystroke_i	i	n/a
49.495	0.1355	98990	keystroke_o	o	n/a
49.69	0.09	99380	keystroke_Key.space	Key.space	n/a
50.23	0.0905	100460	keystroke_f	f	n/a
50.6055	0.09	101211	keystroke_u	u	n/a
51.0405	0.09	102081	keystroke_j	j	n/a
51.2355	0.105	102471	keystroke_i	i	n/a
52.0455	0.089	104091	keystroke_t	t	n/a
52.376	0.09	104752	keystroke_s	s	n/a
52.5095	0.1065	105019	keystroke_u	u	n/a
52.7495	0.106	105499	keystroke_Key.space	Key.space	n/a
53.0655	0.075	106131	keystroke_p	p	n/a
54.1755	0.09	108351	keystroke_h	h	n/a
54.385	0.075	108770	keystroke_i	i	n/a
54.5645	0.09	109129	keystroke_l	l	n/a
54.7	0.1055	109400	keystroke_a	a	n/a
54.91	0.0905	109820	keystroke_p	p	n/a
55.165	0.06	110330	keystroke_e	e	n/a
55.5555	0.0595	111111	keystroke_Key.backspace	Key.backspace	n/a
55.7205	0.0595	111441	keystroke_Key.backspace	Key.backspace	n/a
55.8405	0.135	111681	keystroke_d	d	n/a
55.9905	0.09	111981	keystroke_e	e	n/a
56.4405	0.089	112881	keystroke_l	l	n/a
56.65	0.09	113300	keystroke_p	p	n/a
56.8905	0.06	113781	keystroke_h	h	n/a
57.0405	0.09	114081	keystroke_i	i	n/a
57.2655	0.105	114531	keystroke_a	a	n/a
57.4155	0.105	114831	keystroke_Key.enter	Key.enter	n/a
57.5285	8.3785	115057	prompt	n/a	wings comments utilize strips\n
58.1655	0.12	116331	keystroke_w	w	n/a
58.2705	0.075	116541	keystroke_i	i	n/a
59.4555	0.0895	118911	keystroke_n	n	n/a
59.575	0.1355	119150	keystroke_g	g	n/a
60.505	0.09	121010	keystroke_s	s	n/a
60.64	0.105	121280	keystroke_Key.space	Key.space	n/a
60.8055	0.1345	121611	keystroke_c	c	n/a
60.925	0.091	121850	keystroke_o	o	n/a
61.12	0.06	122240	keystroke_m	m	n/a
61.285	0.046	122570	keystroke_m	m	n/a
61.376	0.1195	122752	keystroke_e	e	n/a
61.5105	0.1045	123021	keystroke_n	n	n/a
61.63	0.105	123260	keystroke_t	t	n/a
61.9	0.09	123800	keystroke_s	s	n/a
62.005	0.075	124010	keystroke_Key.space	Key.space	n/a
62.215	0.0905	124430	keystroke_u	u	n/a
62.365	0.1205	124730	keystroke_t	t	n/a
62.965	0.0905	125930	keystroke_i	i	n/a
63.1455	0.1045	126291	keystroke_l	l	n/a
63.325	0.0905	126650	keystroke_i	i	n/a
63.475	0.105	126950	keystroke_z	z	n/a
63.73	0.1055	127460	keystroke_e	e	n/a
63.895	0.09	127790	keystroke_Key.space	Key.space	n/a
64.7655	0.1195	129531	keystroke_s	s	n/a
64.99	0.0755	129980	keystroke_t	t	n/a
65.1105	0.1045	130221	keystroke_r	r	n/a
65.366	0.044	130732	keystroke_i	i	n/a
65.4855	0.1345	130971	keystroke_p	p	n/a
65.636	0.104	131272	keystroke_s	s	n/a
65.7995	0.106	131599	keystroke_Key.enter	Key.enter	n/a
65.9115	8.275	131823	prompt	n/a	increases breath layout domestic\n
66.4905	0.0895	132981	keystroke_i	i	n/a
66.7005	0.06	133401	keystroke_n	n	n/a
66.8655	0.089	133731	keystroke_c	c	n/a
67.1945	0.151	134389	keystroke_r	r	n/a
67.3305	0.2245	134661	keystroke_e	e	n/a
67.5105	0.18	135021	keystroke_a	a	n/a
67.7055	0.1645	135411	keystroke_s	s	n/a
67.885	0.15	135770	keystroke_e	e	n/a
68.0205	0.1345	136041	keystroke_s	s	n/a
68.1695	0.091	136339	keystroke_Key.space	Key.space	n/a
68.38	0.0895	136760	keystroke_b	b	n/a
68.53	0.1495	137060	keystroke_r	r	n/a
68.6955	0.15	137391	keystroke_e	e	n/a
68.8595	0.15	137719	keystroke_a	a	n/a
69.0855	0.119	138171	keystroke_t	t	n/a
69.2205	0.1195	138441	keystroke_h	h	n/a
69.4	0.1055	138800	keystroke_Key.space	Key.space	n/a
69.79	0.1205	139580	keystroke_l	l	n/a
69.9255	0.105	139851	keystroke_a	a	n/a
70.1795	0.106	140359	keystroke_u	u	n/a
70.66	0.1055	141320	keystroke_Key.backspace	Key.backspace	n/a
70.9895	0.091	141979	keystroke_y	y	n/a
71.2155	0.12	142431	keystroke_o	o	n/a
71.4405	0.09	142881	keystroke_u	u	n/a
71.6055	0.075	143211	keystroke_t	t	n/a
72.1445	0.0755	144289	keystroke_Key.space	Key.space	n/a
72.6095	0.09	145219	keystroke_d	d	n/a
72.76	0.09	145520	keystroke_o	o	n/a
72.94	0.1055	145880	keystroke_m	m	n/a
73.12	0.21	146240	keystroke_e	e	n/a
73.27	0.1355	146540	keystroke_s	s	n/a
73.5255	0.105	147051	keystroke_t	t	n/a
73.6455	0.105	147291	keystroke_i	i	n/a
73.885	0.1055	147770	keystroke_c	c	n/a
74.065	0.12	148130	keystroke_Key.enter	Key.enter	n/a
74.193	9.684	148386	prompt	n/a	grocery bunch holding himself\n
74.9655	0.075	149931	keystroke_g	g	n/a
75.1	0.075	150200	keystroke_r	r	n/a
75.2055	0.1505	150411	keystroke_o	o	n/a
75.46	0.0755	150920	keystroke_c	c	n/a
75.641	0.149	151282	keystroke_e	e	n/a
75.8055	0.135	151611	keystroke_r	r	n/a
75.9705	0.135	151941	keystroke_y	y	n/a
76.2255	0.105	152451	keystroke_Key.space	Key.space	n/a
76.8255	0.105	153651	keystroke_n	n	n/a
76.9455	0.0905	153891	keystroke_u	u	n/a
77.2455	0.015	154491	keystroke_c	c	n/a
77.59	0.075	155180	keystroke_Key.backspace	Key.backspace	n/a
77.755	0.0755	155510	keystroke_Key.backspace	Key.backspace	n/a
77.9355	0.0895	155871	keystroke_Key.backspace	Key.backspace	n/a
78.5955	0.0745	157191	keystroke_b	b	n/a
78.8055	0.075	157611	keystroke_u	u	n/a
79	0.0905	158000	keystroke_n	n	n/a
79.1505	0.09	158301	keystroke_c	c	n/a
79.3005	0.1195	158601	keystroke_h	h	n/a
79.5245	0.09	159049	keystroke_Key.space	Key.space	n/a
79.9	0.0895	159800	keystroke_h	h	n/a
80.14	0.0745	160280	keystroke_o	o	n/a
80.3355	0.09	160671	keystroke_l	l	n/a
80.455	0.105	160910	keystroke_d	d	n/a
80.5755	0.1045	161151	keystroke_i	i	n/a
80.8	0.1055	161600	keystroke_n	n	n/a
80.92	0.09	161840	keystroke_g	g	n/a
81.0405	0.09	162081	keystroke_Key.space	Key.space	n/a
81.2505	0.0895	162501	keystroke_h	h	n/a
81.4455	0.1045	162891	keystroke_i	i	n/a
81.73	0.0905	163460	keystroke_m	m	n/a
82.105	0.12	164210	keystroke_s	s	n/a
82.435	0.1355	164870	keystroke_l	l	n/a
82.87	0.06	165740	keystroke_Key.backspace	Key.backspace	n/a
82.9905	0.1045	165981	keystroke_e	e	n/a
83.14	0.135	166280	keystroke_l	l	n/a
83.44	0.1205	166880	keystroke_f	f	n/a
83.7855	0.0895	167571	keystroke_Key.enter	Key.enter	n/a
83.8815	8.6655	167763	prompt	n/a	vacations jobs discounts centers\n
84.85	0.09	169700	keystroke_v	v	n/a
85.045	0.12	170090	keystroke_a	a	n/a
85.2405	0.12	170481	keystroke_c	c	n/a
85.4205	0.1345	170841	keystroke_a	a	n/a
85.705	0.09	171410	keystroke_t	t	n/a
85.8555	0.09	171711	keystroke_i	i	n/a
85.96	0.12	171920	keystroke_o	o	n/a
86.155	0.1205	172310	keystroke_n	n	n/a
86.3355	0.12	172671	keystroke_s	s	n/a
86.4395	0.091	172879	keystroke_Key.space	Key.space	n/a
86.6345	0.091	173269	keystroke_j	j	n/a
86.7855	0.104	173571	keystroke_o	o	n/a
87.04	0.105	174080	keystroke_b	b	n/a
87.5645	0.076	175129	keystroke_s	s	n/a
87.67	0.1045	175340	keystroke_Key.space	Key.space	n/a
88.1055	0.0895	176211	keystroke_d	d	n/a
88.2245	0.1055	176449	keystroke_i	i	n/a
88.3455	0.074	176691	keystroke_s	s	n/a
88.4955	0.09	176991	keystroke_c	c	n/a
88.5705	0.105	177141	keystroke_o	o	n/a
88.7655	0.075	177531	keystroke_u	u	n/a
88.9305	0.105	177861	keystroke_n	n	n/a
89.0205	0.09	178041	keystroke_t	t	n/a
89.2305	0.09	178461	keystroke_s	s	n/a
89.3505	0.1045	178701	keystroke_Key.space	Key.space	n/a
89.5005	0.12	179001	keystroke_c	c	n/a
89.995	0.1045	179990	keystroke_e	e	n/a
90.175	0.09	180350	keystroke_n	n	n/a
90.325	0.1205	180650	keystroke_e	e	n/a
90.4745	0.09	180949	keystroke_t	t	n/a
90.88	0.075	181760	keystroke_Key.backspace	Key.backspace	n/a
91.0295	0.1055	182059	keystroke_Key.backspace	Key.backspace	n/a
91.2855	0.0895	182571	keystroke_e	e	n/a
91.63	0.09	183260	keystroke_Key.backspace	Key.backspace	n/a
91.7505	0.0895	183501	keystroke_t	t	n/a
91.93	0.1955	183860	keystroke_e	e	n/a
92.066	0.2395	184132	keystroke_r	r	n/a
92.2755	0.1945	184551	keystroke_s	s	n/a
92.44	0.105	184880	keystroke_Key.enter	Key.enter	n/a
92.551	9.341	185102	prompt	n/a	nail programme reference district\n
93.22	0.0605	186440	keystroke_n	n	n/a
93.265	0.1355	186530	keystroke_a	a	n/a
93.46	0.09	186920	keystroke_i	i	n/a
93.6705	0.1045	187341	keystroke_l	l	n/a
93.8195	0.0905	187639	keystroke_Key.space	Key.space	n/a
94.0905	0.12	188181	keystroke_p	p	n/a
94.2255	0.09	188451	keystroke_r	r	n/a
94.3455	0.105	188691	keystroke_o	o	n/a
94.6605	0.105	189321	keystroke_g	g	n/a
94.7805	0.165	189561	keystroke_r	r	n/a
95.2155	0.1345	190431	keystroke_a	a	n/a
95.4405	0.0145	190881	keystroke_m	m	n/a
95.5755	0.0745	191151	keystroke_m	m	n/a
95.7405	0.1045	191481	keystroke_e	e	n/a
95.83	0.1045	191660	keystroke_Key.space	Key.space	n/a
96.2355	0.089	192471	keystroke_r	r	n/a
96.34	0.1355	192680	keystroke_e	e	n/a
96.49	0.1345	192980	keystroke_f	f	n/a
96.7605	0.12	193521	keystroke_e	e	n/a
97.6755	0.0745	195351	keystroke_r	r	n/a
98.0655	0.075	196131	keystroke_e	e	n/a
98.2755	0.09	196551	keystroke_n	n	n/a
98.755	0.0755	197510	keystroke_c	c	n/a
99.3705	0.105	198741	keystroke_e	e	n/a
99.595	0.0905	199190	keystroke_Key.space	Key.space	n/a
100.2705	0.09	200541	keystroke_d	d	n/a
100.4055	0.075	200811	keystroke_i	i	n/a
100.5105	0.1345	201021	keystroke_s	s	n/a
100.7805	0.1045	201561	keystroke_t	t	n/a
100.9455	0.1195	201891	keystroke_r	r	n/a
101.2005	0.075	202401	keystroke_i	i	n/a
101.4105	0.075	202821	keystroke_c	c	n/a
101.68	0.09	203360	keystroke_t	t	n/a
101.7845	0.106	203569	keystroke_Key.enter	Key.enter	n/a
101.896	8.741	203792	prompt	n/a	singh proposal establishment walking\n
102.79	0.1355	205580	keystroke_s	s	n/a
102.895	0.075	205790	keystroke_i	i	n/a
103.135	0.09	206270	keystroke_n	n	n/a
103.39	0.09	206780	keystroke_g	g	n/a
103.585	0.135	207170	keystroke_h	h	n/a
103.795	0.1045	207590	keystroke_Key.space	Key.space	n/a
104.14	0.136	208280	keystroke_p	p	n/a
104.29	0.0905	208580	keystroke_r	r	n/a
104.4555	0.1195	208911	keystroke_o	o	n/a
104.8895	0.1205	209779	keystroke_p	p	n/a
105.19	0.09	210380	keystroke_o	o	n/a
105.445	0.1655	210890	keystroke_s	s	n/a
105.8205	0.105	211641	keystroke_a	a	n/a
105.97	0.1355	211940	keystroke_l	l	n/a
106.1655	0.1045	212331	keystroke_Key.space	Key.space	n/a
106.39	0.12	212780	keystroke_e	e	n/a
106.57	0.1355	213140	keystroke_s	s	n/a
106.81	0.105	213620	keystroke_t	t	n/a
107.065	0.0905	214130	keystroke_a	a	n/a
107.365	0.1045	214730	keystroke_b	b	n/a
107.6345	0.121	215269	keystroke_l	l	n/a
107.8305	0.1045	215661	keystroke_i	i	n/a
107.9795	0.121	215959	keystroke_s	s	n/a
108.1455	0.089	216291	keystroke_h	h	n/a
108.4	0.1045	216800	keystroke_m	m	n/a
108.5195	0.12	217039	keystroke_e	e	n/a
108.6545	0.1205	217309	keystroke_n	n	n/a
108.8795	0.09	217759	keystroke_t	t	n/a
109.0295	0.09	218059	keystroke_Key.space	Key.space	n/a
109.2545	0.12	218509	keystroke_w	w	n/a
109.4205	0.135	218841	keystroke_a	a	n/a
109.5705	0.1495	219141	keystroke_l	l	n/a
109.7505	0.1195	219501	keystroke_k	k	n/a
109.9755	0.089	219951	keystroke_i	i	n/a
110.2005	0.0745	220401	keystroke_n	n	n/a
110.3195	0.076	220639	keystroke_g	g	n/a
110.5455	0.089	221091	keystroke_Key.enter	Key.enter	n/a
110.6415	10.646	221283	prompt	n/a	jeans develop evidence cocktail\n
111.3095	0.106	222619	keystroke_j	j	n/a
111.73	0.1495	223460	keystroke_e	e	n/a
111.8655	0.1195	223731	keystroke_a	a	n/a
112.1355	0.1045	224271	keystroke_n	n	n/a
112.3	0.135	224600	keystroke_s	s	n/a
112.45	0.075	224900	keystroke_Key.space	Key.space	n/a
112.675	0.135	225350	keystroke_d	d	n/a
112.855	0.1205	225710	keystroke_e	e	n/a
113.2455	0.0745	226491	keystroke_b	b	n/a
114.0855	0.105	228171	keystroke_Key.backspace	Key.backspace	n/a
114.2805	0.165	228561	keystroke_v	v	n/a
114.5195	0.09	229039	keystroke_e	e	n/a
114.895	0.1055	229790	keystroke_l	l	n/a
115.2255	0.0895	230451	keystroke_o	o	n/a
115.3745	0.121	230749	keystroke_p	p	n/a
116.1245	0.105	232249	keystroke_Key.space	Key.space	n/a
116.2745	0.106	232549	keystroke_e	e	n/a
116.7855	0.015	233571	keystroke_v	v	n/a
117.22	0.0745	234440	keystroke_i	i	n/a
117.4155	0.15	234831	keystroke_d	d	n/a
117.5795	0.106	235159	keystroke_e	e	n/a
117.7295	0.09	235459	keystroke_n	n	n/a
117.895	0.12	235790	keystroke_c	c	n/a
118.075	0.12	236150	keystroke_e	e	n/a
118.24	0.09	236480	keystroke_Key.space	Key.space	n/a
118.54	0.1055	237080	keystroke_c	c	n/a
118.705	0.12	237410	keystroke_o	o	n/a
118.9	0.075	237800	keystroke_c	c	n/a
119.1405	0.075	238281	keystroke_k	k	n/a
119.65	0.105	239300	keystroke_t	t	n/a
119.83	0.1195	239660	keystroke_a	a	n/a
120.5055	0.105	241011	keystroke_i	i	n/a
120.8505	0.119	241701	keystroke_l	l	n/a
121.1645	0.12	242329	keystroke_Key.enter	Key.enter	n/a
121.292	7.09	242584	prompt	n/a	larry stated knew anger\n
121.9755	0.135	243951	keystroke_l	l	n/a
122.2005	0.18	244401	keystroke_a	a	n/a
122.485	0.075	244970	keystroke_r	r	n/a
122.666	0.119	245332	keystroke_r	r	n/a
122.905	0.151	245810	keystroke_y	y	n/a
123.4	0.12	246800	keystroke_Key.space	Key.space	n/a
123.82	0.135	247640	keystroke_s	s	n/a
124.66	0.12	249320	keystroke_t	t	n/a
124.9	0.1355	249800	keystroke_a	a	n/a
125.095	0.1205	250190	keystroke_t	t	n/a
125.3805	0.195	250761	keystroke_e	e	n/a
125.6355	0.105	251271	keystroke_d	d	n/a
125.7555	0.1045	251511	keystroke_Key.space	Key.space	n/a
125.966	0.089	251932	keystroke_k	k	n/a
126.3105	0.1045	252621	keystroke_n	n	n/a
126.55	0.1945	253100	keystroke_e	e	n/a
126.7755	0.164	253551	keystroke_w	w	n/a
127.0145	0.12	254029	keystroke_Key.space	Key.space	n/a
127.1945	0.151	254389	keystroke_a	a	n/a
127.36	0.0905	254720	keystroke_n	n	n/a
127.6	0.1045	255200	keystroke_g	g	n/a
127.975	0.1805	255950	keystroke_e	e	n/a
128.095	0.15	256190	keystroke_r	r	n/a
128.2755	0.1045	256551	keystroke_Key.enter	Key.enter	n/a
128.387	10.765	256774	prompt	n/a	itunes math constitutional stations\n
129.07	0.09	258140	keystroke_i	i	n/a
129.31	0.1045	258620	keystroke_t	t	n/a
129.4755	0.089	258951	keystroke_u	u	n/a
129.715	0.0755	259430	keystroke_n	n	n/a
129.88	0.12	259760	keystroke_e	e	n/a
130.2255	0.105	260451	keystroke_s	s	n/a
130.3605	0.105	260721	keystroke_Key.space	Key.space	n/a
130.585	0.0905	261170	keystroke_m	m	n/a
130.7055	0.12	261411	keystroke_a	a	n/a
130.96	0.1055	261920	keystroke_t	t	n/a
131.08	0.1205	262160	keystroke_h	h	n/a
131.275	0.09	262550	keystroke_Key.space	Key.space	n/a
131.515	0.105	263030	keystroke_c	c	n/a
131.665	0.075	263330	keystroke_o	o	n/a
131.875	0.075	263750	keystroke_n	n	n/a
132.055	0.0905	264110	keystroke_s	s	n/a
132.3105	0.105	264621	keystroke_t	t	n/a
132.5205	0.12	265041	keystroke_i	i	n/a
132.8805	0.09	265761	keystroke_t	t	n/a
133.3305	0.1195	266661	keystroke_u	u	n/a
133.7205	0.09	267441	keystroke_i	i	n/a
133.87	0.105	267740	keystroke_o	o	n/a
134.485	0.09	268970	keystroke_Key.backspace	Key.backspace	n/a
134.95	0.0895	269900	keystroke_Key.backspace	Key.backspace	n/a
135.82	0.105	271640	keystroke_Key.backspace	Key.backspace	n/a
136.5705	0.1045	273141	keystroke_i	i	n/a
136.7205	0.1045	273441	keystroke_o	o	n/a
136.93	0.0755	273860	keystroke_n	n	n/a
137.0495	0.121	274099	keystroke_a	a	n/a
137.1855	0.119	274371	keystroke_l	l	n/a
137.3805	0.0745	274761	keystroke_Key.space	Key.space	n/a
137.6655	0.12	275331	keystroke_s	s	n/a
137.905	0.12	275810	keystroke_t	t	n/a
138.0705	0.179	276141	keystroke_a	a	n/a
138.22	0.1345	276440	keystroke_t	t	n/a
138.4145	0.0905	276829	keystroke_i	i	n/a
138.5355	0.104	277071	keystroke_o	o	n/a
138.7145	0.106	277429	keystroke_n	n	n/a
138.8355	0.105	277671	keystroke_s	s	n/a
139.0455	0.104	278091	keystroke_Key.enter	Key.enter	n/a
139.1565	10.765	278313	prompt	n/a	limited trans northwest disabled\n
140.0645	0.121	280129	keystroke_l	l	n/a
140.4405	0.09	280881	keystroke_i	i	n/a
140.8155	0.0895	281631	keystroke_m	m	n/a
141.025	0.105	282050	keystroke_i	i	n/a
141.235	0.105	282470	keystroke_t	t	n/a
141.46	0.1805	282920	keystroke_e	e	n/a
141.6705	0.1045	283341	keystroke_d	d	n/a
141.82	0.105	283640	keystroke_Key.space	Key.space	n/a
142	0.1955	284000	keystroke_t	t	n/a
142.18	0.1355	284360	keystroke_r	r	n/a
142.39	0.15	284780	keystroke_a	a	n/a
142.78	0.1195	285560	keystroke_n	n	n/a
142.96	0.135	285920	keystroke_s	s	n/a
143.11	0.06	286220	keystroke_Key.space	Key.space	n/a
143.32	0.09	286640	keystroke_n	n	n/a
143.5	0.1205	287000	keystroke_o	o	n/a
143.6205	0.089	287241	keystroke_r	r	n/a
143.8445	0.12	287689	keystroke_t	t	n/a
143.996	0.0895	287992	keystroke_h	h	n/a
144.325	0.12	288650	keystroke_w	w	n/a
144.52	0.09	289040	keystroke_e	e	n/a
144.79	0.135	289580	keystroke_s	s	n/a
145.315	0.0605	290630	keystroke_t	t	n/a
145.8395	0.075	291679	keystroke_Key.space	Key.space	n/a
146.1545	0.106	292309	keystroke_d	d	n/a
146.3955	0.104	292791	keystroke_i	i	n/a
146.5595	0.18	293119	keystroke_s	s	n/a
146.7545	0.121	293509	keystroke_a	a	n/a
147.175	0.09	294350	keystroke_n	n	n/a
147.76	0.09	295520	keystroke_Key.backspace	Key.backspace	n/a
148.0595	0.09	296119	keystroke_b	b	n/a
148.27	0.09	296540	keystroke_l	l	n/a
148.4195	0.1805	296839	keystroke_e	e	n/a
148.96	0.06	297920	keystroke_s	s	n/a
149.485	0.12	298970	keystroke_Key.backspace	Key.backspace	n/a
149.635	0.075	299270	keystroke_d	d	n/a
149.815	0.105	299630	keystroke_Key.enter	Key.enter	n/a
149.926	5.336	299852	prompt	n/a	screen goat chronic dial\n
150.5205	0.075	301041	keystroke_s	s	n/a
150.7145	0.1055	301429	keystroke_c	c	n/a
151.06	0.165	302120	keystroke_r	r	n/a
151.195	0.106	302390	keystroke_e	e	n/a
151.42	0.09	302840	keystroke_e	e	n/a
151.556	0.0895	303112	keystroke_n	n	n/a
151.825	0.0905	303650	keystroke_Key.space	Key.space	n/a
152.005	0.0895	304010	keystroke_g	g	n/a
152.14	0.1205	304280	keystroke_o	o	n/a
152.2755	0.1345	304551	keystroke_a	a	n/a
152.4545	0.1055	304909	keystroke_t	t	n/a
152.6655	0.089	305331	keystroke_Key.space	Key.space	n/a
152.905	0.09	305810	keystroke_c	c	n/a
153.0695	0.076	306139	keystroke_h	h	n/a
153.2655	0.089	306531	keystroke_r	r	n/a
153.4745	0.09	306949	keystroke_o	o	n/a
153.7295	0.0755	307459	keystroke_n	n	n/a
153.91	0.1055	307820	keystroke_i	i	n/a
154.03	0.0905	308060	keystroke_c	c	n/a
154.165	0.12	308330	keystroke_Key.space	Key.space	n/a
154.3905	0.0895	308781	keystroke_d	d	n/a
154.57	0.09	309140	keystroke_i	i	n/a
154.69	0.12	309380	keystroke_a	a	n/a
154.87	0.105	309740	keystroke_l	l	n/a
155.1545	0.1055	310309	keystroke_Key.enter	Key.enter	n/a
155.2665	6.67	310533	prompt	n/a	tenant how're meetup hungry\n
156.085	0.12	312170	keystroke_t	t	n/a
156.295	0.0605	312590	keystroke_e	e	n/a
156.73	0.0445	313460	keystroke_n	n	n/a
156.7895	0.03	313579	keystroke_a	a	n/a
156.805	0.0445	313610	keystroke_n	n	n/a
156.9105	0.1045	313821	keystroke_t	t	n/a
157.045	0.09	314090	keystroke_Key.space	Key.space	n/a
157.285	0.105	314570	keystroke_h	h	n/a
157.5105	0.0895	315021	keystroke_o	o	n/a
157.63	0.105	315260	keystroke_w	w	n/a
157.8695	0.076	315739	keystroke_'	'	n/a
158.0495	0.12	316099	keystroke_r	r	n/a
158.2295	0.12	316459	keystroke_e	e	n/a
158.485	0.1045	316970	keystroke_Key.space	Key.space	n/a
158.755	0.1055	317510	keystroke_m	m	n/a
158.8755	0.089	317751	keystroke_e	e	n/a
159.0555	0.119	318111	keystroke_e	e	n/a
159.2655	0.105	318531	keystroke_t	t	n/a
159.4305	0.0755	318861	keystroke_u	u	n/a
159.6255	0.165	319251	keystroke_p	p	n/a
159.82	0.1205	319640	keystroke_Key.space	Key.space	n/a
160.15	0.09	320300	keystroke_h	h	n/a
160.315	0.09	320630	keystroke_u	u	n/a
160.5255	0.0745	321051	keystroke_n	n	n/a
160.675	0.091	321350	keystroke_g	g	n/a
160.8855	0.075	321771	keystroke_y	y	n/a
161.2295	0.0905	322459	keystroke_Key.backspace	Key.backspace	n/a
161.3805	0.105	322761	keystroke_r	r	n/a
161.605	0.0755	323210	keystroke_y	y	n/a
161.8905	0.0445	323781	keystroke_Key.enter	Key.enter	n/a
161.942	6.5195	323884	prompt	n/a	cheese calm flow palmer\n
162.6695	0.091	325339	keystroke_c	c	n/a
162.745	0.09	325490	keystroke_h	h	n/a
163.21	0.12	326420	keystroke_e	e	n/a
163.48	0.165	326960	keystroke_e	e	n/a
163.705	0.135	327410	keystroke_s	s	n/a
164.275	0.075	328550	keystroke_e	e	n/a
164.4705	0.0895	328941	keystroke_Key.space	Key.space	n/a
164.6205	0.1345	329241	keystroke_c	c	n/a
164.8	0.1505	329600	keystroke_a	a	n/a
164.935	0.12	329870	keystroke_l	l	n/a
165.19	0.1045	330380	keystroke_m	m	n/a
165.3545	0.1205	330709	keystroke_Key.space	Key.space	n/a
165.6705	0.104	331341	keystroke_f	f	n/a
165.8505	0.1045	331701	keystroke_l	l	n/a
166.0755	0.135	332151	keystroke_o	o	n/a
166.2705	0.135	332541	keystroke_w	w	n/a
166.5105	0.0745	333021	keystroke_Key.space	Key.space	n/a
166.6895	0.076	333379	keystroke_p	p	n/a
166.7795	0.166	333559	keystroke_a	a	n/a
166.9755	0.1195	333951	keystroke_l	l	n/a
167.1555	0.135	334311	keystroke_e	e	n/a
167.6345	0.075	335269	keystroke_Key.backspace	Key.backspace	n/a
167.9355	0.075	335871	keystroke_m	m	n/a
168.1005	0.18	336201	keystroke_e	e	n/a
168.2355	0.104	336471	keystroke_r	r	n/a
168.3705	0.089	336741	keystroke_Key.enter	Key.enter	n/a
168.468	11.424	336936	prompt	n/a	module ventures construct character\n
169.2255	0.09	338451	keystroke_m	m	n/a
169.3905	0.135	338781	keystroke_o	o	n/a
169.5855	0.105	339171	keystroke_d	d	n/a
170.4555	0.1345	340911	keystroke_u	u	n/a
170.8755	0.1195	341751	keystroke_l	l	n/a
171.055	0.136	342110	keystroke_e	e	n/a
171.37	0.105	342740	keystroke_Key.space	Key.space	n/a
172.405	0.045	344810	keystroke_v	v	n/a
172.5405	0.105	345081	keystroke_e	e	n/a
172.6755	0.09	345351	keystroke_n	n	n/a
172.945	0.0605	345890	keystroke_t	t	n/a
173.1705	0.075	346341	keystroke_u	u	n/a
173.3055	0.179	346611	keystroke_r	r	n/a
173.4555	0.2245	346911	keystroke_e	e	n/a
173.636	0.1485	347272	keystroke_s	s	n/a
173.89	0.075	347780	keystroke_Key.space	Key.space	n/a
174.1005	0.075	348201	keystroke_c	c	n/a
174.76	0.1055	349520	keystroke_o	o	n/a
174.9845	0.0905	349969	keystroke_n	n	n/a
175.1345	0.1355	350269	keystroke_s	s	n/a
175.39	0.0755	350780	keystroke_t	t	n/a
175.7195	0.1205	351439	keystroke_r	r	n/a
176.0345	0.1055	352069	keystroke_u	u	n/a
176.4395	0.1355	352879	keystroke_c	c	n/a
176.89	0.09	353780	keystroke_t	t	n/a
177.04	0.09	354080	keystroke_Key.space	Key.space	n/a
177.265	0.105	354530	keystroke_c	c	n/a
177.415	0.1205	354830	keystroke_h	h	n/a
177.58	0.1205	355160	keystroke_a	a	n/a
178.0455	0.12	356091	keystroke_r	r	n/a
178.2095	0.181	356419	keystroke_a	a	n/a
179.035	0.06	358070	keystroke_c	c	n/a
179.26	0.12	358520	keystroke_t	t	n/a
179.485	0.1355	358970	keystroke_e	e	n/a
179.605	0.1355	359210	keystroke_r	r	n/a
179.7855	0.1045	359571	keystroke_Key.enter	Key.enter	n/a
179.8965	6.371	359793	prompt	n/a	nelson wing acid me\n
180.5505	0.119	361101	keystroke_n	n	n/a
180.8055	0.09	361611	keystroke_e	e	n/a
180.9255	0.134	361851	keystroke_l	l	n/a
181.18	0.1355	362360	keystroke_s	s	n/a
181.3	0.09	362600	keystroke_o	o	n/a
181.54	0.09	363080	keystroke_n	n	n/a
181.675	0.105	363350	keystroke_Key.space	Key.space	n/a
181.8255	0.135	363651	keystroke_w	w	n/a
181.9755	0.075	363951	keystroke_i	i	n/a
182.1695	0.091	364339	keystroke_n	n	n/a
182.3205	0.1195	364641	keystroke_g	g	n/a
182.4855	0.0895	364971	keystroke_Key.space	Key.space	n/a
182.68	0.105	365360	keystroke_a	a	n/a
183.7605	0.12	367521	keystroke_c	c	n/a
184.2255	0.09	368451	keystroke_i	i	n/a
184.4955	0.09	368991	keystroke_f	f	n/a
184.765	0.1195	369530	keystroke_Key.space	Key.space	n/a
185.11	0.0905	370220	keystroke_Key.backspace	Key.backspace	n/a
185.2595	0.06	370519	keystroke_Key.backspace	Key.backspace	n/a
185.395	0.12	370790	keystroke_d	d	n/a
185.695	0.075	371390	keystroke_Key.space	Key.space	n/a
185.8895	0.06	371779	keystroke_m	m	n/a
185.995	0.09	371990	keystroke_e	e	n/a
186.1595	0.1055	372319	keystroke_Key.enter	Key.enter	n/a
186.2715	14.5005	372543	prompt	n/a	hats replace cartoons bradford\n
187.3145	0.06	374629	keystroke_h	h	n/a
187.6455	0.134	375291	keystroke_a	a	n/a
187.8405	0.134	375681	keystroke_t	t	n/a
188.4555	0.12	376911	keystroke_s	s	n/a
188.7995	0.091	377599	keystroke_Key.space	Key.space	n/a
189.0555	0.12	378111	keystroke_r	r	n/a
189.1905	0.134	378381	keystroke_e	e	n/a
189.775	0.09	379550	keystroke_p	p	n/a
190.315	0.1205	380630	keystroke_a	a	n/a
190.945	0.09	381890	keystroke_Key.backspace	Key.backspace	n/a
191.2905	0.12	382581	keystroke_l	l	n/a
191.5	0.1505	383000	keystroke_a	a	n/a
191.8755	0.1195	383751	keystroke_c	c	n/a
192.355	0.03	384710	keystroke_e	e	n/a
192.4605	0.0895	384921	keystroke_Key.space	Key.space	n/a
192.85	0.105	385700	keystroke_c	c	n/a
193.075	0.1355	386150	keystroke_a	a	n/a
193.345	0.12	386690	keystroke_t	t	n/a
193.93	0.09	387860	keystroke_Key.backspace	Key.backspace	n/a
194.0805	0.0895	388161	keystroke_r	r	n/a
194.335	0.075	388670	keystroke_t	t	n/a
194.47	0.09	388940	keystroke_o	o	n/a
194.6805	0.09	389361	keystroke_o	o	n/a
194.9345	0.106	389869	keystroke_n	n	n/a
195.1145	0.106	390229	keystroke_s	s	n/a
195.2345	0.091	390469	keystroke_Key.space	Key.space	n/a
195.61	0.12	391220	keystroke_b	b	n/a
195.9105	0.1355	391821	keystroke_r	r	n/a
196.1655	0.135	392331	keystroke_a	a	n/a
196.9305	0.135	393861	keystroke_s	s	n/a
197.875	0.12	395750	keystroke_Key.backspace	Key.backspace	n/a
198.175	0.09	396350	keystroke_d	d	n/a
198.7605	0.1045	397521	keystroke_f	f	n/a
198.9405	0.09	397881	keystroke_o	o	n/a
199.09	0.09	398180	keystroke_r	r	n/a
200.3655	0.075	400731	keystroke_d	d	n/a
200.68	0.09	401360	keystroke_Key.enter	Key.enter	n/a
200.776	13.436	401552	prompt	n/a	employees trinidad mysql recognize\n
201.8345	0.016	403669	keystroke_j	j	n/a
202.18	0.105	404360	keystroke_Key.backspace	Key.backspace	n/a
202.6155	0.09	405231	keystroke_e	e	n/a
202.78	0.06	405560	keystroke_m	m	n/a
202.9445	0.075	405889	keystroke_p	p	n/a
203.1245	0.1055	406249	keystroke_l	l	n/a
203.3355	0.1045	406671	keystroke_o	o	n/a
203.665	0.075	407330	keystroke_y	y	n/a
203.89	0.06	407780	keystroke_e	e	n/a
204.1005	0.2245	408201	keystroke_e	e	n/a
204.3405	0.12	408681	keystroke_s	s	n/a
204.5955	0.09	409191	keystroke_Key.space	Key.space	n/a
204.8195	0.106	409639	keystroke_t	t	n/a
205	0.075	410000	keystroke_r	r	n/a
205.12	0.075	410240	keystroke_i	i	n/a
205.3	0.0905	410600	keystroke_n	n	n/a
205.4355	0.104	410871	keystroke_i	i	n/a
205.5695	0.1205	411139	keystroke_d	d	n/a
205.75	0.1795	411500	keystroke_a	a	n/a
205.9145	0.135	411829	keystroke_d	d	n/a
206.1545	0.061	412309	keystroke_Key.space	Key.space	n/a
206.3945	0.0755	412789	keystroke_m	m	n/a
209.053	0.012	418106	keystroke_y	y	n/a
209.365	0.12	418730	keystroke_s	s	n/a
209.8005	0.09	419601	keystroke_q	q	n/a
211.315	0.135	422630	keystroke_l	l	n/a
211.615	0.106	423230	keystroke_Key.space	Key.space	n/a
212.0505	0.1495	424101	keystroke_r	r	n/a
212.1845	0.12	424369	keystroke_e	e	n/a
212.41	0.0905	424820	keystroke_c	c	n/a
212.56	0.1055	425120	keystroke_o	o	n/a
212.7255	0.09	425451	keystroke_g	g	n/a
212.875	0.09	425750	keystroke_n	n	n/a
213.1	0.0905	426200	keystroke_i	i	n/a
213.4	0.12	426800	keystroke_z	z	n/a
213.7745	0.09	427549	keystroke_e	e	n/a
214.075	0.135	428150	keystroke_Key.enter	Key.enter	n/a
214.216	8.471	428432	prompt	n/a	proved bookstore stronger influences\n
214.9155	0.134	429831	keystroke_p	p	n/a
215.0655	0.1045	430131	keystroke_r	r	n/a
215.17	0.105	430340	keystroke_o	o	n/a
215.425	0.1055	430850	keystroke_v	v	n/a
215.6505	0.179	431301	keystroke_e	e	n/a
215.7855	0.119	431571	keystroke_d	d	n/a
215.9645	0.076	431929	keystroke_Key.space	Key.space	n/a
216.1755	0.09	432351	keystroke_b	b	n/a
216.4755	0.06	432951	keystroke_o	o	n/a
216.625	0.105	433250	keystroke_o	o	n/a
216.835	0.12	433670	keystroke_k	k	n/a
217.2105	0.1195	434421	keystroke_s	s	n/a
217.4955	0.09	434991	keystroke_t	t	n/a
217.72	0.1205	435440	keystroke_o	o	n/a
217.915	0.1805	435830	keystroke_r	r	n/a
218.11	0.165	436220	keystroke_e	e	n/a
218.365	0.105	436730	keystroke_Key.space	Key.space	n/a
218.53	0.105	437060	keystroke_s	s	n/a
218.755	0.105	437510	keystroke_t	t	n/a
218.92	0.1055	437840	keystroke_r	r	n/a
219.0705	0.105	438141	keystroke_o	o	n/a
219.2805	0.075	438561	keystroke_n	n	n/a
219.4	0.135	438800	keystroke_g	g	n/a
219.685	0.1945	439370	keystroke_e	e	n/a
219.865	0.105	439730	keystroke_r	r	n/a
220.0295	0.1055	440059	keystroke_Key.space	Key.space	n/a
220.21	0.075	440420	keystroke_i	i	n/a
220.405	0.074	440810	keystroke_n	n	n/a
220.5995	0.09	441199	keystroke_f	f	n/a
220.7655	0.104	441531	keystroke_l	l	n/a
221.29	0.09	442580	keystroke_u	u	n/a
221.561	0.104	443122	keystroke_e	e	n/a
221.8755	0.09	443751	keystroke_n	n	n/a
222.085	0.105	444170	keystroke_c	c	n/a
222.295	0.21	444590	keystroke_e	e	n/a
222.4455	0.1645	444891	keystroke_s	s	n/a
222.595	0.09	445190	keystroke_Key.enter	Key.enter	n/a
222.6915	7.6455	445383	prompt	n/a	cult dirty finds incomplete\n
223.39	0.1045	446780	keystroke_c	c	n/a
223.5405	0.12	447081	keystroke_u	u	n/a
223.795	0.1345	447590	keystroke_l	l	n/a
223.9595	0.105	447919	keystroke_t	t	n/a
224.1095	0.135	448219	keystroke_Key.space	Key.space	n/a
224.44	0.105	448880	keystroke_d	d	n/a
224.6195	0.105	449239	keystroke_i	i	n/a
224.8155	0.179	449631	keystroke_r	r	n/a
225.0095	0.1355	450019	keystroke_t	t	n/a
225.49	0.0755	450980	keystroke_y	y	n/a
225.9855	0.104	451971	keystroke_Key.space	Key.space	n/a
226.4795	0.1205	452959	keystroke_f	f	n/a
226.9595	0.0455	453919	keystroke_i	i	n/a
227.1245	0.105	454249	keystroke_n	n	n/a
227.2895	0.1655	454579	keystroke_d	d	n/a
227.56	0.135	455120	keystroke_s	s	n/a
227.89	0.0895	455780	keystroke_Key.space	Key.space	n/a
228.1745	0.076	456349	keystroke_i	i	n/a
228.3705	0.075	456741	keystroke_n	n	n/a
228.6095	0.076	457219	keystroke_c	c	n/a
228.7605	0.105	457521	keystroke_o	o	n/a
228.9855	0.105	457971	keystroke_m	m	n/a
229.1945	0.06	458389	keystroke_p	p	n/a
229.39	0.1195	458780	keystroke_l	l	n/a
229.5395	0.1205	459079	keystroke_e	e	n/a
229.78	0.15	459560	keystroke_t	t	n/a
230.0055	0.135	460011	keystroke_e	e	n/a
230.2295	0.1055	460459	keystroke_Key.enter	Key.enter	n/a
230.3415	8.995	460683	prompt	n/a	cubic agents wednesday keno\n
231.1005	0.149	462201	keystroke_c	c	n/a
232.0455	0.075	464091	keystroke_u	u	n/a
232.1355	0.105	464271	keystroke_b	b	n/a
232.375	0.105	464750	keystroke_i	i	n/a
232.585	0.105	465170	keystroke_c	c	n/a
232.749	0.106	465498	keystroke_Key.space	Key.space	n/a
232.96	0.135	465920	keystroke_a	a	n/a
233.11	0.075	466220	keystroke_g	g	n/a
233.245	0.15	466490	keystroke_e	e	n/a
233.41	0.12	466820	keystroke_n	n	n/a
233.575	0.105	467150	keystroke_t	t	n/a
234.0695	0.12	468139	keystroke_s	s	n/a
234.2495	0.09	468499	keystroke_Key.space	Key.space	n/a
234.73	0.1505	469460	keystroke_w	w	n/a
234.8945	0.12	469789	keystroke_e	e	n/a
235.2255	0.09	470451	keystroke_d	d	n/a
235.8695	0.106	471739	keystroke_n	n	n/a
236.0055	0.2095	472011	keystroke_e	e	n/a
236.2	0.105	472400	keystroke_s	s	n/a
236.47	0.15	472940	keystroke_d	d	n/a
236.635	0.1205	473270	keystroke_a	a	n/a
236.8455	0.1045	473691	keystroke_y	y	n/a
237.3395	0.09	474679	keystroke_Key.space	Key.space	n/a
237.5805	0.105	475161	keystroke_k	k	n/a
237.7455	0.1045	475491	keystroke_e	e	n/a
237.925	0.1195	475850	keystroke_n	n	n/a
238.15	0.1195	476300	keystroke_o	o	n/a
239.23	0.105	478460	keystroke_Key.enter	Key.enter	n/a
239.342	9.085	478684	prompt	n/a	danny contractor phentermine grounds\n
240.28	0.12	480560	keystroke_d	d	n/a
240.415	0.104	480830	keystroke_a	a	n/a
240.535	0.0455	481070	keystroke_n	n	n/a
240.685	0.06	481370	keystroke_n	n	n/a
241.06	0.1055	482120	keystroke_y	y	n/a
241.3145	0.09	482629	keystroke_Key.space	Key.space	n/a
241.4955	0.074	482991	keystroke_c	c	n/a
241.5855	0.089	483171	keystroke_o	o	n/a
241.78	0.0905	483560	keystroke_n	n	n/a
242.14	0.12	484280	keystroke_t	t	n/a
242.305	0.18	484610	keystroke_r	r	n/a
242.455	0.15	484910	keystroke_a	a	n/a
242.7705	0.0895	485541	keystroke_c	c	n/a
243.13	0.09	486260	keystroke_t	t	n/a
243.28	0.12	486560	keystroke_o	o	n/a
243.49	0.09	486980	keystroke_r	r	n/a
243.685	0.06	487370	keystroke_Key.space	Key.space	n/a
243.85	0.09	487700	keystroke_p	p	n/a
244.151	0.104	488302	keystroke_h	h	n/a
244.5105	0.075	489021	keystroke_e	e	n/a
245.215	0.0905	490430	keystroke_t	t	n/a
245.5155	0.09	491031	keystroke_e	e	n/a
245.92	0.09	491840	keystroke_r	r	n/a
246.1595	0.076	492319	keystroke_m	m	n/a
246.3705	0.059	492741	keystroke_i	i	n/a
246.5805	0.09	493161	keystroke_n	n	n/a
246.7605	0.06	493521	keystroke_e	e	n/a
246.8805	0.059	493761	keystroke_Key.space	Key.space	n/a
247.135	0.06	494270	keystroke_g	g	n/a
247.315	0.0905	494630	keystroke_r	r	n/a
247.4505	0.0895	494901	keystroke_o	o	n/a
247.615	0.1055	495230	keystroke_u	u	n/a
247.8245	0.105	495649	keystroke_n	n	n/a
247.975	0.1355	495950	keystroke_d	d	n/a
248.1405	0.119	496281	keystroke_s	s	n/a
248.3205	0.104	496641	keystroke_Key.enter	Key.enter	n/a
248.431	8.876	496862	prompt	n/a	agrees republicans awarded just\n
249.2045	0.135	498409	keystroke_a	a	n/a
249.8505	0.1195	499701	keystroke_g	g	n/a
250.4055	0.12	500811	keystroke_r	r	n/a
250.5405	0.1045	501081	keystroke_e	e	n/a
250.78	0.135	501560	keystroke_e	e	n/a
250.9755	0.15	501951	keystroke_s	s	n/a
251.1555	0.0895	502311	keystroke_Key.space	Key.space	n/a
251.4405	0.104	502881	keystroke_r	r	n/a
251.6345	0.1205	503269	keystroke_e	e	n/a
252.085	0.1055	504170	keystroke_p	p	n/a
252.2655	0.09	504531	keystroke_u	u	n/a
252.46	0.0605	504920	keystroke_b	b	n/a
252.6245	0.105	505249	keystroke_l	l	n/a
252.79	0.105	505580	keystroke_i	i	n/a
252.91	0.135	505820	keystroke_c	c	n/a
253.06	0.135	506120	keystroke_a	a	n/a
253.21	0.06	506420	keystroke_n	n	n/a
253.345	0.135	506690	keystroke_s	s	n/a
253.495	0.09	506990	keystroke_Key.space	Key.space	n/a
253.9	0.09	507800	keystroke_w	w	n/a
254.41	0.0745	508820	keystroke_Key.backspace	Key.backspace	n/a
254.5145	0.1355	509029	keystroke_a	a	n/a
254.665	0.1645	509330	keystroke_w	w	n/a
254.8	0.15	509600	keystroke_a	a	n/a
255.0995	0.105	510199	keystroke_r	r	n/a
255.2955	0.165	510591	keystroke_e	e	n/a
255.7295	0.091	511459	keystroke_Key.backspace	Key.backspace	n/a
255.8655	0.1195	511731	keystroke_d	d	n/a
256.015	0.1355	512030	keystroke_e	e	n/a
256.1345	0.121	512269	keystroke_d	d	n/a
256.3605	0.0895	512721	keystroke_Key.space	Key.space	n/a
256.6155	0.09	513231	keystroke_j	j	n/a
256.78	0.09	513560	keystroke_u	u	n/a
256.9005	0.105	513801	keystroke_s	s	n/a
257.095	0.105	514190	keystroke_t	t	n/a
257.215	0.0905	514430	keystroke_Key.enter	Key.enter	n/a
257.3115	6.462	514623	prompt	n/a	lovers isolation builders strand\n
257.9045	0.076	515809	keystroke_l	l	n/a
258.0705	0.105	516141	keystroke_o	o	n/a
258.2055	0.105	516411	keystroke_v	v	n/a
258.4755	0.2695	516951	keystroke_e	e	n/a
258.6255	0.18	517251	keystroke_r	r	n/a
258.775	0.12	517550	keystroke_s	s	n/a
258.925	0.06	517850	keystroke_Key.space	Key.space	n/a
259.105	0.105	518210	keystroke_i	i	n/a
259.2255	0.135	518451	keystroke_s	s	n/a
259.3455	0.105	518691	keystroke_o	o	n/a
259.585	0.1055	519170	keystroke_l	l	n/a
259.705	0.105	519410	keystroke_a	a	n/a
259.9155	0.09	519831	keystroke_t	t	n/a
259.9905	0.105	519981	keystroke_i	i	n/a
260.1095	0.1055	520219	keystroke_o	o	n/a
260.35	0.075	520700	keystroke_n	n	n/a
260.515	0.075	521030	keystroke_Key.space	Key.space	n/a
260.71	0.075	521420	keystroke_b	b	n/a
260.905	0.1355	521810	keystroke_u	u	n/a
261.07	0.105	522140	keystroke_i	i	n/a
261.295	0.105	522590	keystroke_l	l	n/a
261.5055	0.1045	523011	keystroke_d	d	n/a
261.715	0.1945	523430	keystroke_e	e	n/a
262.061	0.1195	524122	keystroke_r	r	n/a
262.255	0.12	524510	keystroke_s	s	n/a
262.435	0.09	524870	keystroke_Key.space	Key.space	n/a
262.6305	0.0895	525261	keystroke_s	s	n/a
262.855	0.15	525710	keystroke_t	t	n/a
262.9905	0.1355	525981	keystroke_r	r	n/a
263.14	0.15	526280	keystroke_a	a	n/a
263.3055	0.105	526611	keystroke_n	n	n/a
263.4555	0.105	526911	keystroke_d	d	n/a
263.6505	0.119	527301	keystroke_Key.enter	Key.enter	n/a
263.777	7.93	527554	prompt	n/a	months abilities hook video\n
264.4305	0.074	528861	keystroke_m	m	n/a
264.6105	0.089	529221	keystroke_o	o	n/a
264.805	0.1045	529610	keystroke_n	n	n/a
264.9855	0.135	529971	keystroke_t	t	n/a
265.3155	0.105	530631	keystroke_h	h	n/a
265.7205	0.119	531441	keystroke_s	s	n/a
265.885	0.12	531770	keystroke_Key.space	Key.space	n/a
266.0805	0.1495	532161	keystroke_a	a	n/a
266.2455	0.09	532491	keystroke_b	b	n/a
266.5	0.09	533000	keystroke_i	i	n/a
266.695	0.1195	533390	keystroke_l	l	n/a
266.875	0.09	533750	keystroke_i	i	n/a
266.98	0.1045	533960	keystroke_t	t	n/a
267.4755	0.2245	534951	keystroke_e	e	n/a
267.6705	0.1495	535341	keystroke_s	s	n/a
267.835	0.09	535670	keystroke_Key.space	Key.space	n/a
268.0455	0.0745	536091	keystroke_h	h	n/a
268.2405	0.09	536481	keystroke_o	o	n/a
268.39	0.12	536780	keystroke_o	o	n/a
268.6155	0.165	537231	keystroke_k	k	n/a
268.81	0.09	537620	keystroke_Key.space	Key.space	n/a
270.805	0.06	541610	keystroke_v	v	n/a
270.91	0.12	541820	keystroke_i	i	n/a
271.06	0.15	542120	keystroke_d	d	n/a
271.195	0.105	542390	keystroke_e	e	n/a
271.33	0.1055	542660	keystroke_o	o	n/a
271.585	0.12	543170	keystroke_Key.enter	Key.enter	n/a
271.714	6.923	543428	prompt	n/a	their mason counted explains\n
272.485	0.09	544970	keystroke_t	t	n/a
272.545	0.0905	545090	keystroke_h	h	n/a
272.6805	0.1345	545361	keystroke_e	e	n/a
272.785	0.12	545570	keystroke_i	i	n/a
272.95	0.09	545900	keystroke_r	r	n/a
273.07	0.075	546140	keystroke_Key.space	Key.space	n/a
273.5505	0.0895	547101	keystroke_m	m	n/a
273.685	0.15	547370	keystroke_a	a	n/a
273.91	0.12	547820	keystroke_s	s	n/a
274.045	0.06	548090	keystroke_o	o	n/a
274.3155	0.0895	548631	keystroke_n	n	n/a
274.449	0.091	548898	keystroke_Key.space	Key.space	n/a
274.6755	0.1045	549351	keystroke_c	c	n/a
274.7655	0.09	549531	keystroke_o	o	n/a
274.9155	0.075	549831	keystroke_u	u	n/a
275.0805	0.104	550161	keystroke_n	n	n/a
275.23	0.1045	550460	keystroke_t	t	n/a
275.4845	0.196	550969	keystroke_e	e	n/a
275.7095	0.121	551419	keystroke_d	d	n/a
275.92	0.12	551840	keystroke_Key.space	Key.space	n/a
276.31	0.091	552620	keystroke_e	e	n/a
276.745	0.1505	553490	keystroke_x	x	n/a
277.3305	0.09	554661	keystroke_p	p	n/a
277.5245	0.136	555049	keystroke_l	l	n/a
277.7805	0.1345	555561	keystroke_a	a	n/a
277.9	0.0895	555800	keystroke_i	i	n/a
278.11	0.09	556220	keystroke_n	n	n/a
278.3355	0.12	556671	keystroke_s	s	n/a
278.5155	0.12	557031	keystroke_Key.enter	Key.enter	n/a
278.641	8.381	557282	prompt	n/a	cuts honest length tanks\n
279.415	0.03	558830	keystroke_c	c	n/a
279.805	0.0755	559610	keystroke_u	u	n/a
280.045	0.105	560090	keystroke_t	t	n/a
280.45	0.1355	560900	keystroke_s	s	n/a
280.645	0.1055	561290	keystroke_Key.space	Key.space	n/a
280.8705	0.09	561741	keystroke_h	h	n/a
281.0945	0.121	562189	keystroke_o	o	n/a
281.3205	0.075	562641	keystroke_n	n	n/a
281.5005	0.21	563001	keystroke_e	e	n/a
281.6495	0.15	563299	keystroke_s	s	n/a
281.8905	0.119	563781	keystroke_t	t	n/a
282.3405	0.0895	564681	keystroke_Key.space	Key.space	n/a
282.5795	0.105	565159	keystroke_l	l	n/a
282.73	0.0895	565460	keystroke_e	e	n/a
283.5845	0.106	567169	keystroke_n	n	n/a
284.17	0.1055	568340	keystroke_g	g	n/a
284.77	0.09	569540	keystroke_t	t	n/a
284.9355	0.119	569871	keystroke_h	h	n/a
285.7155	0.0895	571431	keystroke_Key.space	Key.space	n/a
286.0155	0.1045	572031	keystroke_t	t	n/a
286.21	0.1045	572420	keystroke_a	a	n/a
286.3605	0.09	572721	keystroke_n	n	n/a
286.5255	0.1345	573051	keystroke_k	k	n/a
286.6895	0.076	573379	keystroke_s	s	n/a
286.9155	0.104	573831	keystroke_Key.enter	Key.enter	n/a
287.0265	8.5155	574053	prompt	n/a	call taiwan nasdaq helmet\n
287.95	0.1205	575900	keystroke_c	c	n/a
288.175	0.105	576350	keystroke_a	a	n/a
288.3405	0.0745	576681	keystroke_l	l	n/a
288.4905	0.1045	576981	keystroke_l	l	n/a
288.7	0.0905	577400	keystroke_Key.space	Key.space	n/a
288.82	0.135	577640	keystroke_t	t	n/a
289.03	0.105	578060	keystroke_a	a	n/a
289.225	0.105	578450	keystroke_i	i	n/a
289.6305	0.1045	579261	keystroke_w	w	n/a
289.8255	0.15	579651	keystroke_a	a	n/a
291.19	0.105	582380	keystroke_n	n	n/a
291.37	0.09	582740	keystroke_Key.space	Key.space	n/a
291.61	0.09	583220	keystroke_n	n	n/a
291.73	0.105	583460	keystroke_a	a	n/a
292.285	0.06	584570	keystroke_s	s	n/a
292.8255	0.089	585651	keystroke_d	d	n/a
293.17	0.1195	586340	keystroke_a	a	n/a
293.8445	0.106	587689	keystroke_q	q	n/a
294.295	0.12	588590	keystroke_Key.space	Key.space	n/a
294.5655	0.0895	589131	keystroke_h	h	n/a
294.7005	0.0745	589401	keystroke_e	e	n/a
294.79	0.12	589580	keystroke_l	l	n/a
295.015	0.09	590030	keystroke_m	m	n/a
295.1205	0.0895	590241	keystroke_e	e	n/a
295.3155	0.0895	590631	keystroke_t	t	n/a
295.435	0.105	590870	keystroke_Key.enter	Key.enter	n/a
295.547	6.67	591094	prompt	n/a	username nashville soup holly\n
296.2755	0.0745	592551	keystroke_u	u	n/a
296.3655	0.149	592731	keystroke_s	s	n/a
296.5295	0.136	593059	keystroke_e	e	n/a
296.6505	0.105	593301	keystroke_r	r	n/a
296.7705	0.075	593541	keystroke_n	n	n/a
296.92	0.15	593840	keystroke_a	a	n/a
297.025	0.1205	594050	keystroke_m	m	n/a
297.19	0.09	594380	keystroke_e	e	n/a
297.295	0.075	594590	keystroke_Key.space	Key.space	n/a
297.505	0.09	595010	keystroke_n	n	n/a
297.625	0.135	595250	keystroke_a	a	n/a
297.8505	0.135	595701	keystroke_s	s	n/a
298.0755	0.09	596151	keystroke_h	h	n/a
298.975	0.06	597950	keystroke_v	v	n/a
299.155	0.09	598310	keystroke_i	i	n/a
299.365	0.09	598730	keystroke_l	l	n/a
299.545	0.09	599090	keystroke_l	l	n/a
299.6945	0.106	599389	keystroke_e	e	n/a
299.83	0.105	599660	keystroke_Key.space	Key.space	n/a
300.1895	0.136	600379	keystroke_s	s	n/a
300.3095	0.091	600619	keystroke_o	o	n/a
300.505	0.075	601010	keystroke_u	u	n/a
300.761	0.1195	601522	keystroke_p	p	n/a
301	0.105	602000	keystroke_Key.space	Key.space	n/a
301.3	0.075	602600	keystroke_h	h	n/a
301.465	0.09	602930	keystroke_o	o	n/a
301.675	0.075	603350	keystroke_l	l	n/a
301.81	0.09	603620	keystroke_l	l	n/a
301.9155	0.1045	603831	keystroke_y	y	n/a
302.125	0.09	604250	keystroke_Key.enter	Key.enter	n/a
302.221	7.3905	604442	prompt	n/a	forming mount craig atmospheric\n
303.0105	0.075	606021	keystroke_f	f	n/a
303.0545	0.106	606109	keystroke_o	o	n/a
303.22	0.0745	606440	keystroke_r	r	n/a
303.3245	0.0905	606649	keystroke_m	m	n/a
303.5355	0.089	607071	keystroke_i	i	n/a
303.7005	0.0895	607401	keystroke_n	n	n/a
303.805	0.1055	607610	keystroke_g	g	n/a
303.88	0.09	607760	keystroke_Key.space	Key.space	n/a
304.0305	0.105	608061	keystroke_m	m	n/a
304.18	0.1205	608360	keystroke_o	o	n/a
304.39	0.06	608780	keystroke_u	u	n/a
304.57	0.09	609140	keystroke_n	n	n/a
304.7655	0.12	609531	keystroke_t	t	n/a
305.035	0.1055	610070	keystroke_Key.space	Key.space	n/a
305.38	0.09	610760	keystroke_c	c	n/a
305.635	0.105	611270	keystroke_r	r	n/a
305.755	0.1355	611510	keystroke_a	a	n/a
305.905	0.105	611810	keystroke_i	i	n/a
306.071	0.089	612142	keystroke_g	g	n/a
306.235	0.12	612470	keystroke_Key.space	Key.space	n/a
306.505	0.1195	613010	keystroke_a	a	n/a
306.73	0.09	613460	keystroke_t	t	n/a
306.925	0.105	613850	keystroke_m	m	n/a
307.3595	0.091	614719	keystroke_o	o	n/a
307.7955	0.12	615591	keystroke_s	s	n/a
308.02	0.0605	616040	keystroke_p	p	n/a
308.605	0.0755	617210	keystroke_h	h	n/a
308.695	0.1655	617390	keystroke_e	e	n/a
308.815	0.09	617630	keystroke_r	r	n/a
308.995	0.076	617990	keystroke_i	i	n/a
309.235	0.1045	618470	keystroke_c	c	n/a
309.49	0.12	618980	keystroke_Key.enter	Key.enter	n/a
309.6155	6.972	619231	prompt	n/a	boats keyword disease messages\n
310.2405	0.0895	620481	keystroke_b	b	n/a
310.4055	0.119	620811	keystroke_o	o	n/a
310.5395	0.12	621079	keystroke_a	a	n/a
310.765	0.1055	621530	keystroke_t	t	n/a
310.99	0.12	621980	keystroke_s	s	n/a
311.17	0.06	622340	keystroke_Key.space	Key.space	n/a
311.3505	0.1045	622701	keystroke_k	k	n/a
311.47	0.09	622940	keystroke_e	e	n/a
312.34	0.06	624680	keystroke_y	y	n/a
312.7145	0.135	625429	keystroke_w	w	n/a
312.8645	0.135	625729	keystroke_o	o	n/a
313.03	0.0895	626060	keystroke_r	r	n/a
313.285	0.15	626570	keystroke_d	d	n/a
313.555	0.09	627110	keystroke_Key.space	Key.space	n/a
313.72	0.105	627440	keystroke_d	d	n/a
313.84	0.09	627680	keystroke_i	i	n/a
314.2005	0.0895	628401	keystroke_s	s	n/a
314.305	0.18	628610	keystroke_e	e	n/a
314.4705	0.1945	628941	keystroke_a	a	n/a
314.635	0.1495	629270	keystroke_s	s	n/a
314.77	0.12	629540	keystroke_e	e	n/a
314.9645	0.0755	629929	keystroke_Key.space	Key.space	n/a
315.175	0.06	630350	keystroke_m	m	n/a
315.25	0.1205	630500	keystroke_e	e	n/a
315.4155	0.1345	630831	keystroke_s	s	n/a
315.64	0.165	631280	keystroke_s	s	n/a
315.805	0.1655	631610	keystroke_a	a	n/a
316.03	0.1045	632060	keystroke_g	g	n/a
316.1655	0.134	632331	keystroke_e	e	n/a
316.2855	0.1195	632571	keystroke_s	s	n/a
316.4945	0.09	632989	keystroke_Key.enter	Key.enter	n/a
316.5915	14.3055	633183	prompt	n/a	louisville initiatives consistently allocation\n
317.32	0.1045	634640	keystroke_l	l	n/a
317.56	0.045	635120	keystroke_o	o	n/a
317.875	0.09	635750	keystroke_u	u	n/a
318.07	0.09	636140	keystroke_i	i	n/a
318.265	0.0905	636530	keystroke_s	s	n/a
318.745	0.09	637490	keystroke_v	v	n/a
318.88	0.105	637760	keystroke_i	i	n/a
319.12	0.0745	638240	keystroke_l	l	n/a
319.27	0.1205	638540	keystroke_l	l	n/a
319.42	0.12	638840	keystroke_e	e	n/a
319.585	0.09	639170	keystroke_Key.space	Key.space	n/a
319.78	0.0755	639560	keystroke_i	i	n/a
319.99	0.0895	639980	keystroke_n	n	n/a
320.1845	0.121	640369	keystroke_i	i	n/a
321.565	0.12	643130	keystroke_t	t	n/a
321.745	0.105	643490	keystroke_i	i	n/a
322.27	0.18	644540	keystroke_a	a	n/a
322.5555	0.09	645111	keystroke_t	t	n/a
322.6605	0.074	645321	keystroke_i	i	n/a
323.0655	0.0745	646131	keystroke_v	v	n/a
323.35	0.1955	646700	keystroke_e	e	n/a
323.5	0.135	647000	keystroke_s	s	n/a
323.635	0.09	647270	keystroke_Key.space	Key.space	n/a
323.965	0.1195	647930	keystroke_c	c	n/a
324.145	0.1195	648290	keystroke_o	o	n/a
324.385	0.105	648770	keystroke_n	n	n/a
324.595	0.15	649190	keystroke_s	s	n/a
325.24	0.1055	650480	keystroke_i	i	n/a
325.435	0.105	650870	keystroke_s	s	n/a
325.8105	0.1045	651621	keystroke_t	t	n/a
326.035	0.105	652070	keystroke_e	e	n/a
326.2	0.12	652400	keystroke_n	n	n/a
326.5	0.06	653000	keystroke_s	s	n/a
326.875	0.0595	653750	keystroke_Key.backspace	Key.backspace	n/a
326.9495	0.105	653899	keystroke_t	t	n/a
327.1745	0.12	654349	keystroke_l	l	n/a
327.4445	0.1355	654889	keystroke_y	y	n/a
327.7	0.09	655400	keystroke_Key.space	Key.space	n/a
327.985	0.12	655970	keystroke_a	a	n/a
328.2845	0.076	656569	keystroke_l	l	n/a
328.42	0.1055	656840	keystroke_l	l	n/a
328.5845	0.1055	657169	keystroke_o	o	n/a
328.84	0.1045	657680	keystroke_x	x	n/a
329.2895	0.09	658579	keystroke_Key.backspace	Key.backspace	n/a
329.4405	0.1195	658881	keystroke_c	c	n/a
329.875	0.12	659750	keystroke_a	a	n/a
330.145	0.105	660290	keystroke_t	t	n/a
330.265	0.09	660530	keystroke_i	i	n/a
330.4	0.12	660800	keystroke_o	o	n/a
330.58	0.09	661160	keystroke_n	n	n/a
330.8195	0.0755	661639	keystroke_Key.enter	Key.enter	n/a
330.9015	7.2855	661803	prompt	n/a	doctor noted performs releases\n
331.5845	0.0905	663169	keystroke_d	d	n/a
331.7495	0.1055	663499	keystroke_o	o	n/a
331.9	0.105	663800	keystroke_c	c	n/a
332.3055	0.06	664611	keystroke_t	t	n/a
332.4405	0.089	664881	keystroke_o	o	n/a
332.7995	0.106	665599	keystroke_r	r	n/a
333.04	0.1355	666080	keystroke_Key.space	Key.space	n/a
333.6705	0.0745	667341	keystroke_n	n	n/a
333.805	0.1205	667610	keystroke_o	o	n/a
333.9095	0.1055	667819	keystroke_t	t	n/a
334.1505	0.149	668301	keystroke_e	e	n/a
334.3305	0.1195	668661	keystroke_d	d	n/a
334.5695	0.12	669139	keystroke_Key.space	Key.space	n/a
334.825	0.0895	669650	keystroke_p	p	n/a
334.9155	0.1495	669831	keystroke_e	e	n/a
335.0195	0.105	670039	keystroke_r	r	n/a
335.7845	0.0905	671569	keystroke_f	f	n/a
335.905	0.09	671810	keystroke_o	o	n/a
336.04	0.09	672080	keystroke_r	r	n/a
336.159	0.136	672318	keystroke_m	m	n/a
336.505	0.12	673010	keystroke_s	s	n/a
336.64	0.06	673280	keystroke_Key.space	Key.space	n/a
336.82	0.105	673640	keystroke_r	r	n/a
336.94	0.09	673880	keystroke_e	e	n/a
337.075	0.1355	674150	keystroke_l	l	n/a
337.225	0.15	674450	keystroke_e	e	n/a
337.39	0.1645	674780	keystroke_a	a	n/a
337.5395	0.1505	675079	keystroke_s	s	n/a
337.7045	0.1505	675409	keystroke_e	e	n/a
337.84	0.09	675680	keystroke_s	s	n/a
338.0645	0.12	676129	keystroke_Key.enter	Key.enter	n/a
338.191	7.0305	676382	prompt	n/a	bearing text transfers strikes\n
339.1005	0.089	678201	keystroke_b	b	n/a
339.22	0.1945	678440	keystroke_e	e	n/a
339.3705	0.18	678741	keystroke_a	a	n/a
339.5205	0.1195	679041	keystroke_r	r	n/a
339.6995	0.0755	679399	keystroke_i	i	n/a
339.8795	0.091	679759	keystroke_n	n	n/a
339.9855	0.0745	679971	keystroke_g	g	n/a
340.1055	0.105	680211	keystroke_Key.space	Key.space	n/a
340.3005	0.134	680601	keystroke_t	t	n/a
340.4955	0.12	680991	keystroke_e	e	n/a
340.795	0.09	681590	keystroke_s	s	n/a
341.185	0.09	682370	keystroke_Key.backspace	Key.backspace	n/a
341.305	0.09	682610	keystroke_x	x	n/a
341.5595	0.12	683119	keystroke_t	t	n/a
341.74	0.0745	683480	keystroke_Key.space	Key.space	n/a
341.965	0.105	683930	keystroke_t	t	n/a
342.1155	0.1195	684231	keystroke_r	r	n/a
342.28	0.135	684560	keystroke_a	a	n/a
342.4	0.105	684800	keystroke_n	n	n/a
342.7005	0.089	685401	keystroke_s	s	n/a
342.8945	0.106	685789	keystroke_f	f	n/a
343.1205	0.2395	686241	keystroke_e	e	n/a
343.2255	0.239	686451	keystroke_r	r	n/a
343.4505	0.104	686901	keystroke_s	s	n/a
343.6595	0.06	687319	keystroke_Key.space	Key.space	n/a
343.75	0.12	687500	keystroke_s	s	n/a
343.99	0.09	687980	keystroke_t	t	n/a
344.395	0.0905	688790	keystroke_r	r	n/a
344.545	0.0605	689090	keystroke_i	i	n/a
344.74	0.0755	689480	keystroke_k	k	n/a
344.875	0.195	689750	keystroke_e	e	n/a
345.01	0.135	690020	keystroke_s	s	n/a
345.1	0.12	690200	keystroke_Key.enter	Key.enter	n/a
345.2245	10.017	690449	prompt	n/a	ruth conf involvement assessment\n
346.0755	0.1045	692151	keystroke_r	r	n/a
346.24	0.105	692480	keystroke_u	u	n/a
346.405	0.1055	692810	keystroke_t	t	n/a
346.525	0.105	693050	keystroke_h	h	n/a
346.705	0.12	693410	keystroke_Key.space	Key.space	n/a
347.14	0.075	694280	keystroke_c	c	n/a
347.26	0.1045	694520	keystroke_o	o	n/a
347.56	0.075	695120	keystroke_n	n	n/a
348.145	0.105	696290	keystroke_f	f	n/a
348.521	0.1035	697042	keystroke_Key.space	Key.space	n/a
348.8205	0.1045	697641	keystroke_i	i	n/a
349.06	0.09	698120	keystroke_n	n	n/a
349.525	0.0905	699050	keystroke_c	c	n/a
349.9895	0.09	699979	keystroke_Key.backspace	Key.backspace	n/a
350.455	0.075	700910	keystroke_v	v	n/a
350.56	0.075	701120	keystroke_o	o	n/a
350.74	0.09	701480	keystroke_l	l	n/a
350.8905	0.0745	701781	keystroke_v	v	n/a
351.8505	0.1195	703701	keystroke_e	e	n/a
352.0445	0.09	704089	keystroke_m	m	n/a
352.1655	0.12	704331	keystroke_e	e	n/a
352.2995	0.105	704599	keystroke_n	n	n/a
352.45	0.1055	704900	keystroke_t	t	n/a
352.585	0.1045	705170	keystroke_Key.space	Key.space	n/a
352.9745	0.166	705949	keystroke_a	a	n/a
353.2005	0.105	706401	keystroke_s	s	n/a
353.455	0.0895	706910	keystroke_s	s	n/a
353.8305	0.1345	707661	keystroke_e	e	n/a
354.0845	0.1355	708169	keystroke_s	s	n/a
354.3555	0.074	708711	keystroke_s	s	n/a
354.6245	0.076	709249	keystroke_m	m	n/a
354.7005	0.134	709401	keystroke_e	e	n/a
354.8495	0.09	709699	keystroke_n	n	n/a
354.9545	0.09	709909	keystroke_t	t	n/a
355.1045	0.135	710209	keystroke_Key.enter	Key.enter	n/a
355.2455	6.806	710491	prompt	n/a	many operation retailers spies\n
355.9155	0.0745	711831	keystroke_m	m	n/a
355.9905	0.1495	711981	keystroke_a	a	n/a
356.17	0.09	712340	keystroke_n	n	n/a
356.41	0.0905	712820	keystroke_y	y	n/a
356.575	0.075	713150	keystroke_Key.space	Key.space	n/a
356.7555	0.0895	713511	keystroke_o	o	n/a
356.89	0.135	713780	keystroke_p	p	n/a
357.0095	0.165	714019	keystroke_e	e	n/a
357.1595	0.166	714319	keystroke_r	r	n/a
357.3395	0.181	714679	keystroke_a	a	n/a
357.5805	0.105	715161	keystroke_t	t	n/a
358.045	0.1045	716090	keystroke_i	i	n/a
358.435	0.075	716870	keystroke_o	o	n/a
358.63	0.12	717260	keystroke_n	n	n/a
358.78	0.105	717560	keystroke_Key.space	Key.space	n/a
358.96	0.15	717920	keystroke_r	r	n/a
359.185	0.1205	718370	keystroke_e	e	n/a
359.44	0.12	718880	keystroke_t	t	n/a
359.59	0.15	719180	keystroke_a	a	n/a
360.01	0.09	720020	keystroke_i	i	n/a
360.2205	0.12	720441	keystroke_l	l	n/a
360.3845	0.301	720769	keystroke_e	e	n/a
360.5505	0.195	721101	keystroke_r	r	n/a
360.7155	0.12	721431	keystroke_s	s	n/a
360.8795	0.076	721759	keystroke_Key.space	Key.space	n/a
361.03	0.105	722060	keystroke_s	s	n/a
361.105	0.09	722210	keystroke_p	p	n/a
361.5255	0.0745	723051	keystroke_i	i	n/a
361.675	0.1955	723350	keystroke_e	e	n/a
361.8095	0.1655	723619	keystroke_s	s	n/a
361.945	0.105	723890	keystroke_Key.enter	Key.enter	n/a
362.0575	8.724	724115	prompt	n/a	resolve wrestling incorrect quantities\n
362.86	0.135	725720	keystroke_r	r	n/a
363.025	0.075	726050	keystroke_e	e	n/a
363.385	0.1355	726770	keystroke_s	s	n/a
363.49	0.0895	726980	keystroke_o	o	n/a
363.6855	0.105	727371	keystroke_l	l	n/a
363.775	0.12	727550	keystroke_v	v	n/a
364.045	0.105	728090	keystroke_e	e	n/a
364.225	0.059	728450	keystroke_Key.space	Key.space	n/a
364.465	0.135	728930	keystroke_w	w	n/a
364.615	0.105	729230	keystroke_e	e	n/a
364.959	0.106	729918	keystroke_Key.backspace	Key.backspace	n/a
365.0655	0.194	730131	keystroke_r	r	n/a
365.2	0.195	730400	keystroke_e	e	n/a
365.4545	0.135	730909	keystroke_s	s	n/a
365.7395	0.0905	731479	keystroke_t	t	n/a
365.9955	0.105	731991	keystroke_l	l	n/a
366.1595	0.105	732319	keystroke_i	i	n/a
366.3545	0.136	732709	keystroke_n	n	n/a
366.445	0.09	732890	keystroke_g	g	n/a
366.55	0.09	733100	keystroke_Key.space	Key.space	n/a
366.715	0.09	733430	keystroke_i	i	n/a
366.88	0.09	733760	keystroke_n	n	n/a
367	0.06	734000	keystroke_c	c	n/a
367.09	0.1205	734180	keystroke_o	o	n/a
367.285	0.06	734570	keystroke_r	r	n/a
367.42	0.12	734840	keystroke_r	r	n/a
367.525	0.1195	735050	keystroke_e	e	n/a
367.72	0.1055	735440	keystroke_c	c	n/a
368.0195	0.09	736039	keystroke_t	t	n/a
368.1105	0.104	736221	keystroke_Key.space	Key.space	n/a
368.575	0.0145	737150	keystroke_q	q	n/a
369.31	0.09	738620	keystroke_u	u	n/a
369.475	0.136	738950	keystroke_a	a	n/a
369.6245	0.0905	739249	keystroke_n	n	n/a
369.82	0.09	739640	keystroke_t	t	n/a
369.9105	0.1045	739821	keystroke_i	i	n/a
370.061	0.089	740122	keystroke_t	t	n/a
370.255	0.0905	740510	keystroke_i	i	n/a
370.465	0.1505	740930	keystroke_e	e	n/a
370.5855	0.135	741171	keystroke_s	s	n/a
370.6895	0.09	741379	keystroke_Key.enter	Key.enter	n/a
370.7855	18.026	741571	prompt	n/a	electronics ripe souls hometown\n
375.251	0.001	750502	keystroke_e	e	n/a
375.3255	0.105	750651	keystroke_l	l	n/a
375.4005	0.1195	750801	keystroke_e	e	n/a
375.8505	0.09	751701	keystroke_c	c	n/a
376.4345	0.091	752869	keystroke_r	r	n/a
376.6295	0.091	753259	keystroke_t	t	n/a
376.7355	0.09	753471	keystroke_o	o	n/a
377.1245	0.06	754249	keystroke_Key.backspace	Key.backspace	n/a
377.275	0.06	754550	keystroke_Key.backspace	Key.backspace	n/a
377.4395	0.045	754879	keystroke_Key.backspace	Key.backspace	n/a
377.875	0.0745	755750	keystroke_Key.backspace	Key.backspace	n/a
378.1905	0.09	756381	keystroke_t	t	n/a
378.3555	0.09	756711	keystroke_r	r	n/a
378.4755	0.075	756951	keystroke_o	o	n/a
378.6255	0.09	757251	keystroke_n	n	n/a
378.8205	0.0905	757641	keystroke_i	i	n/a
379.045	0.15	758090	keystroke_c	c	n/a
379.2405	0.12	758481	keystroke_s	s	n/a
379.4045	0.1055	758809	keystroke_Key.space	Key.space	n/a
379.705	0.075	759410	keystroke_r	r	n/a
379.8405	0.075	759681	keystroke_i	i	n/a
380.005	0.09	760010	keystroke_p	p	n/a
380.26	0.06	760520	keystroke_e	e	n/a
380.365	0.105	760730	keystroke_Key.space	Key.space	n/a
380.995	0.0755	761990	keystroke_c	c	n/a
381.115	0.105	762230	keystroke_o	o	n/a
383.035	0.15	766070	keystroke_u	u	n/a
385.3015	0.0435	770603	keystroke_Key.backspace	Key.backspace	n/a
385.45	0.09	770900	keystroke_Key.backspace	Key.backspace	n/a
385.63	0.075	771260	keystroke_Key.backspace	Key.backspace	n/a
385.9305	0.1045	771861	keystroke_s	s	n/a
386.08	0.105	772160	keystroke_o	o	n/a
386.2755	0.0745	772551	keystroke_u	u	n/a
386.455	0.1205	772910	keystroke_l	l	n/a
387.085	0.1495	774170	keystroke_s	s	n/a
387.25	0.0295	774500	keystroke_Key.space	Key.space	n/a
387.4305	0.074	774861	keystroke_h	h	n/a
387.5645	0.09	775129	keystroke_o	o	n/a
387.7305	0.089	775461	keystroke_m	m	n/a
387.7895	0.1205	775579	keystroke_e	e	n/a
388.105	0.09	776210	keystroke_t	t	n/a
388.2405	0.119	776481	keystroke_o	o	n/a
388.375	0.1195	776750	keystroke_w	w	n/a
388.5095	0.075	777019	keystroke_n	n	n/a
388.7045	0.105	777409	keystroke_Key.enter	Key.enter	n/a
388.816	12.7905	777632	prompt	n/a	stephen hughes whenever festivals\n
389.9055	0.119	779811	keystroke_s	s	n/a
390.1145	0.091	780229	keystroke_t	t	n/a
390.505	0.0595	781010	keystroke_e	e	n/a
390.73	0.09	781460	keystroke_p	p	n/a
391.15	0.1205	782300	keystroke_h	h	n/a
391.315	0.12	782630	keystroke_e	e	n/a
391.51	0.09	783020	keystroke_n	n	n/a
391.675	0.09	783350	keystroke_Key.space	Key.space	n/a
392.035	0.0145	784070	keystroke_h	h	n/a
392.1095	0.1205	784219	keystroke_i	i	n/a
392.2445	0.106	784489	keystroke_g	g	n/a
392.365	0.105	784730	keystroke_h	h	n/a
392.8455	0.2395	785691	keystroke_e	e	n/a
393.07	0.15	786140	keystroke_s	s	n/a
393.5645	0.09	787129	keystroke_Key.backspace	Key.backspace	n/a
393.76	0.06	787520	keystroke_Key.backspace	Key.backspace	n/a
393.9245	0.0755	787849	keystroke_Key.backspace	Key.backspace	n/a
394.1195	0.075	788239	keystroke_Key.backspace	Key.backspace	n/a
394.2995	0.0605	788599	keystroke_Key.backspace	Key.backspace	n/a
394.7795	0.0605	789559	keystroke_u	u	n/a
394.9305	0.06	789861	keystroke_g	g	n/a
394.9905	0.0895	789981	keystroke_h	h	n/a
395.185	0.225	790370	keystroke_e	e	n/a
395.365	0.135	790730	keystroke_s	s	n/a
395.635	0.09	791270	keystroke_Key.space	Key.space	n/a
396.04	0.09	792080	keystroke_w	w	n/a
396.1905	0.0895	792381	keystroke_h	h	n/a
396.3255	0.0745	792651	keystroke_e	e	n/a
396.565	0.075	793130	keystroke_n	n	n/a
396.805	0.1205	793610	keystroke_e	e	n/a
396.94	0.075	793880	keystroke_v	v	n/a
397.03	0.195	794060	keystroke_e	e	n/a
397.1505	0.164	794301	keystroke_r	r	n/a
398.5	0.09	797000	keystroke_Key.space	Key.space	n/a
398.785	0.135	797570	keystroke_f	f	n/a
398.965	0.21	797930	keystroke_e	e	n/a
399.131	0.149	798262	keystroke_s	s	n/a
399.311	0.089	798622	keystroke_t	t	n/a
399.445	0.105	798890	keystroke_i	i	n/a
399.76	0.1205	799520	keystroke_c	c	n/a
400.1795	0.09	800359	keystroke_Key.backspace	Key.backspace	n/a
400.2845	0.136	800569	keystroke_v	v	n/a
400.4355	0.1645	800871	keystroke_a	a	n/a
400.8555	0.1195	801711	keystroke_l	l	n/a
401.245	0.105	802490	keystroke_s	s	n/a
401.5	0.105	803000	keystroke_Key.enter	Key.enter	n/a
401.612	6.025	803224	prompt	n/a	limit symphony unto bell\n
402.2055	0.105	804411	keystroke_l	l	n/a
402.3855	0.09	804771	keystroke_i	i	n/a
402.5805	0.089	805161	keystroke_m	m	n/a
402.775	0.09	805550	keystroke_i	i	n/a
402.91	0.105	805820	keystroke_t	t	n/a
403.255	0.1045	806510	keystroke_Key.space	Key.space	n/a
403.4945	0.12	806989	keystroke_s	s	n/a
403.7495	0.061	807499	keystroke_y	y	n/a
403.9605	0.0745	807921	keystroke_m	m	n/a
404.155	0.0905	808310	keystroke_p	p	n/a
404.41	0.075	808820	keystroke_h	h	n/a
404.545	0.1055	809090	keystroke_o	o	n/a
404.755	0.105	809510	keystroke_n	n	n/a
404.935	0.12	809870	keystroke_y	y	n/a
405.1155	0.1195	810231	keystroke_Key.space	Key.space	n/a
405.67	0.12	811340	keystroke_u	u	n/a
405.88	0.12	811760	keystroke_n	n	n/a
406.03	0.0905	812060	keystroke_t	t	n/a
406.4505	0.1195	812901	keystroke_o	o	n/a
406.5845	0.09	813169	keystroke_Key.space	Key.space	n/a
406.795	0.12	813590	keystroke_b	b	n/a
407.05	0.105	814100	keystroke_e	e	n/a
407.185	0.09	814370	keystroke_l	l	n/a
407.3355	0.0895	814671	keystroke_l	l	n/a
407.5295	0.105	815059	keystroke_Key.enter	Key.enter	n/a
407.642	11.29	815284	prompt	n/a	specialists paragraph venues norway\n
408.3855	0.119	816771	keystroke_s	s	n/a
408.4595	0.121	816919	keystroke_p	p	n/a
408.5945	0.091	817189	keystroke_e	e	n/a
408.8345	0.1055	817669	keystroke_c	c	n/a
408.97	0.09	817940	keystroke_i	i	n/a
409.09	0.135	818180	keystroke_a	a	n/a
409.2255	0.0745	818451	keystroke_l	l	n/a
409.585	0.075	819170	keystroke_i	i	n/a
409.735	0.075	819470	keystroke_s	s	n/a
409.901	0.1345	819802	keystroke_t	t	n/a
410.5005	0.105	821001	keystroke_s	s	n/a
410.7105	0.0895	821421	keystroke_Key.space	Key.space	n/a
411.1145	0.106	822229	keystroke_p	p	n/a
411.221	0.1645	822442	keystroke_a	a	n/a
411.4305	0.135	822861	keystroke_r	r	n/a
411.595	0.15	823190	keystroke_a	a	n/a
411.879	0.0755	823758	keystroke_g	g	n/a
412.2545	0.091	824509	keystroke_r	r	n/a
412.5405	0.135	825081	keystroke_a	a	n/a
412.6895	0.1205	825379	keystroke_p	p	n/a
412.975	0.1195	825950	keystroke_h	h	n/a
413.305	0.075	826610	keystroke_Key.space	Key.space	n/a
414.13	0.03	828260	keystroke_v	v	n/a
414.385	0.09	828770	keystroke_e	e	n/a
414.5795	0.076	829159	keystroke_n	n	n/a
415.2995	0.1055	830599	keystroke_u	u	n/a
416.005	0.18	832010	keystroke_e	e	n/a
416.155	0.135	832310	keystroke_s	s	n/a
416.365	0.09	832730	keystroke_Key.space	Key.space	n/a
416.71	0.075	833420	keystroke_n	n	n/a
416.89	0.135	833780	keystroke_o	o	n/a
417.01	0.105	834020	keystroke_r	r	n/a
417.31	0.18	834620	keystroke_w	w	n/a
417.4605	0.1495	834921	keystroke_a	a	n/a
417.745	0.1205	835490	keystroke_t	t	n/a
418.2395	0.075	836479	keystroke_Key.backspace	Key.backspace	n/a
418.5255	0.06	837051	keystroke_y	y	n/a
418.855	0.0755	837710	keystroke_Key.enter	Key.enter	n/a
418.936	7.346	837872	prompt	n/a	by trade february none\n
419.6955	0.12	839391	keystroke_b	b	n/a
419.9055	0.0745	839811	keystroke_y	y	n/a
420.0245	0.105	840049	keystroke_Key.space	Key.space	n/a
420.205	0.1505	840410	keystroke_t	t	n/a
420.3555	0.135	840711	keystroke_r	r	n/a
420.5205	0.2245	841041	keystroke_a	a	n/a
420.7305	0.1495	841461	keystroke_d	d	n/a
420.91	0.12	841820	keystroke_e	e	n/a
421.075	0.09	842150	keystroke_Key.space	Key.space	n/a
421.345	0.105	842690	keystroke_f	f	n/a
421.885	0.135	843770	keystroke_e	e	n/a
422.305	0.12	844610	keystroke_b	b	n/a
422.6945	0.09	845389	keystroke_r	r	n/a
423.055	0.1195	846110	keystroke_u	u	n/a
423.37	0.18	846740	keystroke_a	a	n/a
423.67	0.09	847340	keystroke_r	r	n/a
424.015	0.075	848030	keystroke_y	y	n/a
424.525	0.12	849050	keystroke_Key.space	Key.space	n/a
424.885	0.09	849770	keystroke_n	n	n/a
425.1255	0.105	850251	keystroke_o	o	n/a
425.3505	0.075	850701	keystroke_n	n	n/a
425.4555	0.119	850911	keystroke_e	e	n/a
426.1605	0.119	852321	keystroke_Key.enter	Key.enter	n/a
426.2865	14.4405	852573	prompt	n/a	engaged calendars selected specialist\n
427.0295	0.1205	854059	keystroke_e	e	n/a
427.2695	0.12	854539	keystroke_n	n	n/a
427.9005	0.105	855801	keystroke_g	g	n/a
428.995	0.1505	857990	keystroke_a	a	n/a
429.565	0.15	859130	keystroke_g	g	n/a
429.9855	0.165	859971	keystroke_a	a	n/a
430.825	0.12	861650	keystroke_Key.backspace	Key.backspace	n/a
431.5	0.166	863000	keystroke_e	e	n/a
431.68	0.1205	863360	keystroke_d	d	n/a
432.3405	0.105	864681	keystroke_Key.space	Key.space	n/a
433.375	0.12	866750	keystroke_c	c	n/a
433.51	0.135	867020	keystroke_a	a	n/a
433.63	0.12	867260	keystroke_l	l	n/a
434.035	0.09	868070	keystroke_e	e	n/a
434.2	0.105	868400	keystroke_n	n	n/a
434.3805	0.1645	868761	keystroke_d	d	n/a
434.575	0.18	869150	keystroke_a	a	n/a
434.8	0.12	869600	keystroke_r	r	n/a
435.145	0.09	870290	keystroke_s	s	n/a
435.4	0.1055	870800	keystroke_Key.space	Key.space	n/a
435.7905	0.12	871581	keystroke_s	s	n/a
435.971	0.089	871942	keystroke_e	e	n/a
436.2105	0.059	872421	keystroke_l	l	n/a
436.405	0.1045	872810	keystroke_e	e	n/a
437.0195	0.09	874039	keystroke_c	c	n/a
437.5305	0.105	875061	keystroke_t	t	n/a
437.7695	0.18	875539	keystroke_e	e	n/a
437.9805	0.12	875961	keystroke_d	d	n/a
438.2805	0.059	876561	keystroke_Key.space	Key.space	n/a
438.76	0.106	877520	keystroke_s	s	n/a
438.866	0.119	877732	keystroke_p	p	n/a
438.97	0.09	877940	keystroke_e	e	n/a
439.4205	0.12	878841	keystroke_c	c	n/a
439.5705	0.105	879141	keystroke_i	i	n/a
439.7205	0.1045	879441	keystroke_a	a	n/a
439.9005	0.1195	879801	keystroke_l	l	n/a
440.2	0.09	880400	keystroke_i	i	n/a
440.3205	0.09	880641	keystroke_s	s	n/a
440.5	0.1355	881000	keystroke_t	t	n/a
440.6505	0.075	881301	keystroke_Key.enter	Key.enter	n/a
440.731	9.056	881462	prompt	n/a	defining measurements intent attract\n
441.5805	0.104	883161	keystroke_d	d	n/a
441.6995	0.136	883399	keystroke_e	e	n/a
441.895	0.09	883790	keystroke_f	f	n/a
441.97	0.09	883940	keystroke_i	i	n/a
442.18	0.0605	884360	keystroke_n	n	n/a
442.3305	0.0745	884661	keystroke_i	i	n/a
442.525	0.0605	885050	keystroke_n	n	n/a
442.555	0.09	885110	keystroke_g	g	n/a
442.69	0.09	885380	keystroke_Key.space	Key.space	n/a
442.855	0.0905	885710	keystroke_m	m	n/a
442.96	0.135	885920	keystroke_e	e	n/a
443.11	0.18	886220	keystroke_a	a	n/a
443.3205	0.1345	886641	keystroke_s	s	n/a
443.6055	0.105	887211	keystroke_u	u	n/a
443.7405	0.135	887481	keystroke_r	r	n/a
443.89	0.0755	887780	keystroke_e	e	n/a
444.055	0.09	888110	keystroke_m	m	n/a
444.19	0.1355	888380	keystroke_e	e	n/a
444.3555	0.0895	888711	keystroke_n	n	n/a
444.475	0.0905	888950	keystroke_t	t	n/a
444.6855	0.1045	889371	keystroke_s	s	n/a
444.8355	0.0895	889671	keystroke_Key.space	Key.space	n/a
445.015	0.075	890030	keystroke_i	i	n/a
445.285	0.09	890570	keystroke_n	n	n/a
445.435	0.1055	890870	keystroke_t	t	n/a
445.75	0.165	891500	keystroke_e	e	n/a
446.2	0.0905	892400	keystroke_t	t	n/a
446.7395	0.075	893479	keystroke_Key.backspace	Key.backspace	n/a
447.026	0.089	894052	keystroke_n	n	n/a
447.16	0.091	894320	keystroke_t	t	n/a
447.265	0.09	894530	keystroke_Key.space	Key.space	n/a
447.49	0.15	894980	keystroke_a	a	n/a
447.7005	0.089	895401	keystroke_t	t	n/a
447.9095	0.135	895819	keystroke_t	t	n/a
448.1355	0.1345	896271	keystroke_r	r	n/a
448.285	0.15	896570	keystroke_a	a	n/a
448.8695	0.12	897739	keystroke_c	c	n/a
449.38	0.0895	898760	keystroke_t	t	n/a
449.6805	0.1045	899361	keystroke_Key.enter	Key.enter	n/a
449.7925	14.275	899585	prompt	n/a	sociology roman deutsch wayne\n
450.3405	0.1045	900681	keystroke_d	d	n/a
450.88	0.09	901760	keystroke_Key.backspace	Key.backspace	n/a
451.09	0.105	902180	keystroke_s	s	n/a
451.3	0.105	902600	keystroke_o	o	n/a
451.66	0.0745	903320	keystroke_i	i	n/a
452.0945	0.06	904189	keystroke_Key.backspace	Key.backspace	n/a
452.245	0.0905	904490	keystroke_c	c	n/a
452.4105	0.1045	904821	keystroke_i	i	n/a
452.62	0.1195	905240	keystroke_o	o	n/a
452.965	0.105	905930	keystroke_l	l	n/a
453.131	0.104	906262	keystroke_o	o	n/a
453.385	0.0905	906770	keystroke_g	g	n/a
454.495	0.1355	908990	keystroke_u	u	n/a
455.005	0.12	910010	keystroke_Key.backspace	Key.backspace	n/a
455.3495	0.136	910699	keystroke_y	y	n/a
456.0105	0.0895	912021	keystroke_Key.space	Key.space	n/a
456.25	0.0905	912500	keystroke_r	r	n/a
456.325	0.09	912650	keystroke_o	o	n/a
456.5055	0.09	913011	keystroke_m	m	n/a
456.6405	0.12	913281	keystroke_a	a	n/a
456.7755	0.105	913551	keystroke_n	n	n/a
456.9545	0.0755	913909	keystroke_Key.space	Key.space	n/a
458.1255	0.09	916251	keystroke_s	s	n/a
458.47	0.06	916940	keystroke_Key.backspace	Key.backspace	n/a
458.5605	0.12	917121	keystroke_d	d	n/a
458.695	0.0905	917390	keystroke_e	e	n/a
459.025	0.075	918050	keystroke_u	u	n/a
459.8655	0.12	919731	keystroke_t	t	n/a
460.675	0.135	921350	keystroke_s	s	n/a
461.14	0.09	922280	keystroke_d	d	n/a
461.5305	0.0745	923061	keystroke_Key.backspace	Key.backspace	n/a
461.65	0.105	923300	keystroke_c	c	n/a
461.9505	0.12	923901	keystroke_h	h	n/a
462.655	0.0745	925310	keystroke_Key.space	Key.space	n/a
462.8805	0.195	925761	keystroke_w	w	n/a
463.0005	0.18	926001	keystroke_a	a	n/a
463.1955	0.0445	926391	keystroke_y	y	n/a
463.4205	0.015	926841	keystroke_n	n	n/a
463.4505	0.09	926901	keystroke_e	e	n/a
463.9595	0.105	927919	keystroke_Key.enter	Key.enter	n/a
464.072	8.3805	928144	prompt	n/a	tariff sociology danny tokyo\n
464.905	0.105	929810	keystroke_t	t	n/a
465.4605	0.0745	930921	keystroke_e	e	n/a
465.8205	0.089	931641	keystroke_Key.backspace	Key.backspace	n/a
465.955	0.1355	931910	keystroke_a	a	n/a
466.0755	0.1195	932151	keystroke_r	r	n/a
466.5105	0.0905	933021	keystroke_i	i	n/a
466.8255	0.075	933651	keystroke_f	f	n/a
467.0205	0.105	934041	keystroke_f	f	n/a
467.1855	0.09	934371	keystroke_Key.space	Key.space	n/a
467.3955	0.1195	934791	keystroke_s	s	n/a
467.5	0.1205	935000	keystroke_o	o	n/a
467.6655	0.1045	935331	keystroke_c	c	n/a
467.8755	0.135	935751	keystroke_i	i	n/a
468.101	0.1045	936202	keystroke_o	o	n/a
468.3555	0.105	936711	keystroke_l	l	n/a
468.5355	0.105	937071	keystroke_o	o	n/a
468.865	0.1055	937730	keystroke_g	g	n/a
469.015	0.1355	938030	keystroke_y	y	n/a
469.1955	0.1195	938391	keystroke_Key.space	Key.space	n/a
469.6755	0.1645	939351	keystroke_d	d	n/a
469.945	0.15	939890	keystroke_a	a	n/a
470.126	0.074	940252	keystroke_n	n	n/a
470.29	0.09	940580	keystroke_n	n	n/a
470.515	0.1055	941030	keystroke_y	y	n/a
470.68	0.105	941360	keystroke_Key.space	Key.space	n/a
470.905	0.0905	941810	keystroke_t	t	n/a
471.04	0.0605	942080	keystroke_o	o	n/a
471.25	0.1205	942500	keystroke_k	k	n/a
471.925	0.1355	943850	keystroke_y	y	n/a
472.0745	0.105	944149	keystroke_o	o	n/a
472.3295	0.12	944659	keystroke_Key.enter	Key.enter	n/a
472.4595	7.3875	944919	prompt	n/a	handbook opportunity specialist pottery\n
473.1105	0.0895	946221	keystroke_h	h	n/a
473.185	0.1355	946370	keystroke_a	a	n/a
473.3355	0.09	946671	keystroke_n	n	n/a
473.4555	0.09	946911	keystroke_d	d	n/a
473.6045	0.106	947209	keystroke_b	b	n/a
473.8445	0.0905	947689	keystroke_o	o	n/a
474.025	0.0905	948050	keystroke_o	o	n/a
474.19	0.12	948380	keystroke_k	k	n/a
474.3245	0.105	948649	keystroke_Key.space	Key.space	n/a
474.5205	0.105	949041	keystroke_o	o	n/a
474.6705	0.09	949341	keystroke_p	p	n/a
474.8505	0.105	949701	keystroke_p	p	n/a
475.0455	0.075	950091	keystroke_o	o	n/a
475.2555	0.12	950511	keystroke_r	r	n/a
475.5705	0.09	951141	keystroke_t	t	n/a
475.6905	0.074	951381	keystroke_u	u	n/a
475.8395	0.091	951679	keystroke_n	n	n/a
476.0205	0.09	952041	keystroke_i	i	n/a
476.1255	0.195	952251	keystroke_t	t	n/a
476.2905	0.15	952581	keystroke_y	y	n/a
476.5305	0.12	953061	keystroke_Key.space	Key.space	n/a
476.7855	0.135	953571	keystroke_s	s	n/a
476.935	0.1045	953870	keystroke_p	p	n/a
477.0405	0.09	954081	keystroke_e	e	n/a
477.2195	0.1355	954439	keystroke_c	c	n/a
477.3405	0.09	954681	keystroke_i	i	n/a
477.4595	0.135	954919	keystroke_a	a	n/a
477.565	0.105	955130	keystroke_l	l	n/a
477.7605	0.1045	955521	keystroke_i	i	n/a
477.91	0.09	955820	keystroke_s	s	n/a
478.1205	0.1195	956241	keystroke_t	t	n/a
478.27	0.12	956540	keystroke_Key.space	Key.space	n/a
478.555	0.075	957110	keystroke_p	p	n/a
478.735	0.09	957470	keystroke_o	o	n/a
478.915	0.09	957830	keystroke_t	t	n/a
479.11	0.0905	958220	keystroke_t	t	n/a
479.245	0.225	958490	keystroke_e	e	n/a
479.4245	0.1505	958849	keystroke_r	r	n/a
479.5595	0.1055	959119	keystroke_y	y	n/a
479.77	0.0745	959540	keystroke_Key.enter	Key.enter	n/a
479.8505	6.866	959701	prompt	n/a	multimedia chem consideration vertical\n
480.5805	0.075	961161	keystroke_m	m	n/a
480.7605	0.075	961521	keystroke_u	u	n/a
480.9545	0.121	961909	keystroke_l	l	n/a
481.1495	0.091	962299	keystroke_t	t	n/a
481.3905	0.074	962781	keystroke_i	i	n/a
481.6145	0.09	963229	keystroke_m	m	n/a
481.7495	0.15	963499	keystroke_e	e	n/a
481.93	0.12	963860	keystroke_d	d	n/a
482.065	0.1045	964130	keystroke_i	i	n/a
482.2005	0.1645	964401	keystroke_a	a	n/a
482.425	0.0895	964850	keystroke_Key.space	Key.space	n/a
482.9195	0.0305	965839	keystroke_c	c	n/a
482.9345	0.045	965869	keystroke_o	o	n/a
483.055	0.105	966110	keystroke_n	n	n/a
483.2645	0.0905	966529	keystroke_s	s	n/a
483.3845	0.09	966769	keystroke_i	i	n/a
483.5195	0.105	967039	keystroke_d	d	n/a
483.7005	0.1345	967401	keystroke_e	e	n/a
483.865	0.18	967730	keystroke_r	r	n/a
484.0605	0.194	968121	keystroke_a	a	n/a
484.285	0.1045	968570	keystroke_t	t	n/a
484.405	0.0905	968810	keystroke_i	i	n/a
484.4955	0.135	968991	keystroke_o	o	n/a
484.7355	0.0745	969471	keystroke_n	n	n/a
484.825	0.12	969650	keystroke_Key.space	Key.space	n/a
485.035	0.0905	970070	keystroke_v	v	n/a
485.2755	0.15	970551	keystroke_e	e	n/a
485.4105	0.1045	970821	keystroke_r	r	n/a
485.6505	0.105	971301	keystroke_t	t	n/a
485.9505	0.075	971901	keystroke_i	i	n/a
486.0855	0.15	972171	keystroke_c	c	n/a
486.2505	0.134	972501	keystroke_a	a	n/a
486.3695	0.105	972739	keystroke_l	l	n/a
486.595	0.12	973190	keystroke_Key.enter	Key.enter	n/a
486.721	7.556	973442	prompt	n/a	readily stranger search tail\n
487.4055	0.18	974811	keystroke_r	r	n/a
487.5105	0.15	975021	keystroke_e	e	n/a
487.6455	0.15	975291	keystroke_a	a	n/a
487.8705	0.09	975741	keystroke_d	d	n/a
488.0205	0.075	976041	keystroke_i	i	n/a
489.43	0.105	978860	keystroke_l	l	n/a
489.8055	0.119	979611	keystroke_y	y	n/a
490.0005	0.089	980001	keystroke_Key.space	Key.space	n/a
490.2995	0.1205	980599	keystroke_s	s	n/a
490.5705	0.12	981141	keystroke_t	t	n/a
490.7055	0.1195	981411	keystroke_r	r	n/a
490.8705	0.134	981741	keystroke_a	a	n/a
490.99	0.0905	981980	keystroke_n	n	n/a
491.2155	0.075	982431	keystroke_g	g	n/a
491.3345	0.166	982669	keystroke_e	e	n/a
491.4705	0.12	982941	keystroke_r	r	n/a
491.695	0.06	983390	keystroke_Key.space	Key.space	n/a
491.9505	0.075	983901	keystroke_s	s	n/a
492.1455	0.12	984291	keystroke_e	e	n/a
492.2505	0.179	984501	keystroke_a	a	n/a
492.4455	0.12	984891	keystroke_r	r	n/a
492.8955	0.044	985791	keystroke_c	c	n/a
492.9695	0.105	985939	keystroke_h	h	n/a
493.1045	0.1055	986209	keystroke_Key.space	Key.space	n/a
493.39	0.09	986780	keystroke_t	t	n/a
493.525	0.165	987050	keystroke_a	a	n/a
493.7055	0.0745	987411	keystroke_i	i	n/a
493.885	0.1645	987770	keystroke_l	l	n/a
494.1695	0.105	988339	keystroke_Key.enter	Key.enter	n/a
494.282	11.3355	988564	prompt	n/a	practice inspector prospective astronomy\n
495.0695	0.0755	990139	keystroke_p	p	n/a
495.2345	0.135	990469	keystroke_r	r	n/a
495.3845	0.165	990769	keystroke_a	a	n/a
495.5645	0.1055	991129	keystroke_c	c	n/a
495.805	0.09	991610	keystroke_t	t	n/a
495.9395	0.1055	991879	keystroke_i	i	n/a
496.1345	0.12	992269	keystroke_c	c	n/a
496.3305	0.119	992661	keystroke_e	e	n/a
496.5245	0.0905	993049	keystroke_Key.space	Key.space	n/a
496.8545	0.061	993709	keystroke_i	i	n/a
497.0495	0.091	994099	keystroke_n	n	n/a
497.2755	0.105	994551	keystroke_s	s	n/a
497.35	0.1205	994700	keystroke_p	p	n/a
497.5145	0.09	995029	keystroke_e	e	n/a
497.74	0.1055	995480	keystroke_c	c	n/a
498.13	0.075	996260	keystroke_t	t	n/a
498.265	0.12	996530	keystroke_o	o	n/a
498.49	0.09	996980	keystroke_r	r	n/a
498.685	0.09	997370	keystroke_Key.space	Key.space	n/a
498.91	0.045	997820	keystroke_p	p	n/a
499.1955	0.104	998391	keystroke_r	r	n/a
499.3445	0.12	998689	keystroke_o	o	n/a
499.855	0.12	999710	keystroke_s	s	n/a
500.1105	0.0895	1000221	keystroke_p	p	n/a
500.4705	0.0595	1000941	keystroke_e	e	n/a
500.71	0.0745	1001420	keystroke_c	c	n/a
500.9655	0.089	1001931	keystroke_t	t	n/a
501.0845	0.09	1002169	keystroke_i	i	n/a
501.3105	0.0895	1002621	keystroke_v	v	n/a
501.5505	0.105	1003101	keystroke_e	e	n/a
501.685	0.105	1003370	keystroke_Key.space	Key.space	n/a
501.865	0.18	1003730	keystroke_a	a	n/a
502.03	0.12	1004060	keystroke_s	s	n/a
502.27	0.105	1004540	keystroke_t	t	n/a
502.39	0.1205	1004780	keystroke_o	o	n/a
503.47	0.1195	1006940	keystroke_Key.backspace	Key.backspace	n/a
503.785	0.075	1007570	keystroke_r	r	n/a
503.965	0.075	1007930	keystroke_o	o	n/a
504.1905	0.0745	1008381	keystroke_n	n	n/a
504.3855	0.1045	1008771	keystroke_o	o	n/a
504.565	0.09	1009130	keystroke_m	m	n/a
505.105	0.1055	1010210	keystroke_y	y	n/a
505.5255	0.0895	1011051	keystroke_Key.enter	Key.enter	n/a
505.6215	10.0755	1011243	prompt	n/a	malawi exotic lucas contacted\n
506.35	0.09	1012700	keystroke_m	m	n/a
506.47	0.15	1012940	keystroke_a	a	n/a
506.6645	0.1205	1013329	keystroke_l	l	n/a
506.8305	0.105	1013661	keystroke_a	a	n/a
507.5645	0.211	1015129	keystroke_q	q	n/a
508.09	0.0905	1016180	keystroke_Key.backspace	Key.backspace	n/a
508.2255	0.105	1016451	keystroke_w	w	n/a
508.6455	0.0895	1017291	keystroke_i	i	n/a
508.825	0.09	1017650	keystroke_Key.space	Key.space	n/a
509.155	0.1045	1018310	keystroke_e	e	n/a
509.6495	0.121	1019299	keystroke_x	x	n/a
509.8445	0.12	1019689	keystroke_o	o	n/a
510.025	0.0895	1020050	keystroke_t	t	n/a
510.6555	0.089	1021311	keystroke_i	i	n/a
510.8645	0.076	1021729	keystroke_c	c	n/a
511.045	0.09	1022090	keystroke_Key.space	Key.space	n/a
511.2255	0.1045	1022451	keystroke_l	l	n/a
511.435	0.0755	1022870	keystroke_u	u	n/a
511.5855	0.1645	1023171	keystroke_c	c	n/a
511.765	0.1955	1023530	keystroke_a	a	n/a
511.93	0.15	1023860	keystroke_s	s	n/a
512.14	0.09	1024280	keystroke_Key.space	Key.space	n/a
512.3795	0.105	1024759	keystroke_c	c	n/a
512.575	0.105	1025150	keystroke_o	o	n/a
512.83	0.1045	1025660	keystroke_n	n	n/a
513.085	0.1345	1026170	keystroke_t	t	n/a
513.2645	0.15	1026529	keystroke_a	a	n/a
514.585	0.165	1029170	keystroke_c	c	n/a
515.02	0.1355	1030040	keystroke_t	t	n/a
515.245	0.195	1030490	keystroke_e	e	n/a
515.395	0.1355	1030790	keystroke_d	d	n/a
515.59	0.105	1031180	keystroke_Key.enter	Key.enter	n/a
515.7015	10.3905	1031403	prompt	n/a	nursery minimal convicted tablet\n
516.31	0.0905	1032620	keystroke_n	n	n/a
517.2545	0.061	1034509	keystroke_u	u	n/a
517.405	0.0905	1034810	keystroke_r	r	n/a
517.87	0.12	1035740	keystroke_s	s	n/a
518.02	0.12	1036040	keystroke_e	e	n/a
518.185	0.12	1036370	keystroke_r	r	n/a
518.44	0.12	1036880	keystroke_y	y	n/a
518.665	0.075	1037330	keystroke_Key.space	Key.space	n/a
518.95	0.0905	1037900	keystroke_m	m	n/a
519.16	0.09	1038320	keystroke_i	i	n/a
519.4	0.075	1038800	keystroke_n	n	n/a
519.64	0.0905	1039280	keystroke_i	i	n/a
519.895	0.075	1039790	keystroke_m	m	n/a
520.09	0.195	1040180	keystroke_a	a	n/a
520.3	0.12	1040600	keystroke_l	l	n/a
520.495	0.105	1040990	keystroke_Key.space	Key.space	n/a
520.855	0.105	1041710	keystroke_c	c	n/a
521.02	0.09	1042040	keystroke_o	o	n/a
521.245	0.105	1042490	keystroke_n	n	n/a
521.8305	0.1345	1043661	keystroke_v	v	n/a
522.1	0.09	1044200	keystroke_i	i	n/a
523.855	0.075	1047710	keystroke_c	c	n/a
524.11	0.105	1048220	keystroke_t	t	n/a
524.4255	0.1195	1048851	keystroke_e	e	n/a
524.605	0.135	1049210	keystroke_d	d	n/a
524.7855	0.1195	1049571	keystroke_Key.space	Key.space	n/a
524.995	0.105	1049990	keystroke_t	t	n/a
525.115	0.1495	1050230	keystroke_a	a	n/a
525.2795	0.1055	1050559	keystroke_b	b	n/a
525.49	0.165	1050980	keystroke_l	l	n/a
525.6695	0.1055	1051339	keystroke_e	e	n/a
525.835	0.1055	1051670	keystroke_t	t	n/a
525.97	0.12	1051940	keystroke_Key.enter	Key.enter	n/a
526.097	6.8795	1052194	prompt	n/a	european took paradise trained\n
526.705	0.1355	1053410	keystroke_e	e	n/a
526.87	0.1205	1053740	keystroke_u	u	n/a
527.02	0.09	1054040	keystroke_r	r	n/a
527.5145	0.09	1055029	keystroke_o	o	n/a
527.7095	0.136	1055419	keystroke_p	p	n/a
528.0695	0.166	1056139	keystroke_e	e	n/a
528.2195	0.196	1056439	keystroke_a	a	n/a
529.24	0.1045	1058480	keystroke_n	n	n/a
529.3595	0.1055	1058719	keystroke_Key.space	Key.space	n/a
529.4795	0.09	1058959	keystroke_t	t	n/a
529.6295	0.045	1059259	keystroke_o	o	n/a
529.7645	0.136	1059529	keystroke_o	o	n/a
529.9445	0.1205	1059889	keystroke_k	k	n/a
530.0945	0.0905	1060189	keystroke_Key.space	Key.space	n/a
530.245	0.105	1060490	keystroke_p	p	n/a
530.351	0.149	1060702	keystroke_a	a	n/a
530.53	0.165	1061060	keystroke_r	r	n/a
530.68	0.165	1061360	keystroke_a	a	n/a
530.92	0.075	1061840	keystroke_d	d	n/a
531.0405	0.1045	1062081	keystroke_i	i	n/a
531.22	0.1495	1062440	keystroke_s	s	n/a
531.355	0.135	1062710	keystroke_e	e	n/a
531.55	0.09	1063100	keystroke_Key.space	Key.space	n/a
531.685	0.15	1063370	keystroke_t	t	n/a
531.8805	0.0895	1063761	keystroke_r	r	n/a
532.15	0.135	1064300	keystroke_a	a	n/a
532.315	0.075	1064630	keystroke_i	i	n/a
532.48	0.1055	1064960	keystroke_n	n	n/a
532.6	0.1205	1065200	keystroke_e	e	n/a
532.69	0.15	1065380	keystroke_d	d	n/a
532.855	0.1195	1065710	keystroke_Key.enter	Key.enter	n/a
532.9805	9.7165	1065961	prompt	n/a	tender devel distinct developmental\n
533.9205	0.0895	1067841	keystroke_t	t	n/a
534.1155	0.1195	1068231	keystroke_e	e	n/a
534.25	0.09	1068500	keystroke_n	n	n/a
534.43	0.12	1068860	keystroke_d	d	n/a
534.5655	0.1945	1069131	keystroke_e	e	n/a
534.745	0.1205	1069490	keystroke_r	r	n/a
534.91	0.09	1069820	keystroke_Key.space	Key.space	n/a
535.12	0.1355	1070240	keystroke_d	d	n/a
535.36	0.105	1070720	keystroke_e	e	n/a
535.87	0.135	1071740	keystroke_v	v	n/a
536.1555	0.149	1072311	keystroke_e	e	n/a
536.3805	0.119	1072761	keystroke_l	l	n/a
536.575	0.09	1073150	keystroke_Key.space	Key.space	n/a
537.8505	0.0745	1075701	keystroke_d	d	n/a
537.97	0.105	1075940	keystroke_i	i	n/a
538.195	0.135	1076390	keystroke_s	s	n/a
538.691	0.089	1077382	keystroke_t	t	n/a
538.8105	0.09	1077621	keystroke_i	i	n/a
538.975	0.1055	1077950	keystroke_n	n	n/a
539.125	0.075	1078250	keystroke_c	c	n/a
539.3805	0.119	1078761	keystroke_t	t	n/a
539.515	0.0905	1079030	keystroke_Key.space	Key.space	n/a
539.8305	0.1045	1079661	keystroke_d	d	n/a
539.9805	0.105	1079961	keystroke_e	e	n/a
540.2945	0.12	1080589	keystroke_v	v	n/a
540.565	0.12	1081130	keystroke_e	e	n/a
540.9845	0.106	1081969	keystroke_l	l	n/a
541.75	0.09	1083500	keystroke_o	o	n/a
541.8855	0.1045	1083771	keystroke_p	p	n/a
542.11	0.105	1084220	keystroke_m	m	n/a
542.2295	0.1055	1084459	keystroke_e	e	n/a
542.3505	0.075	1084701	keystroke_n	n	n/a
542.455	0.09	1084910	keystroke_t	t	n/a
542.59	0.105	1085180	keystroke_Key.enter	Key.enter	n/a
542.702	11.08	1085404	prompt	n/a	pray classification printed characterized\n
543.295	0.1045	1086590	keystroke_p	p	n/a
543.4295	0.165	1086859	keystroke_r	r	n/a
543.6095	0.151	1087219	keystroke_a	a	n/a
543.821	0.089	1087642	keystroke_y	y	n/a
544	0.0745	1088000	keystroke_Key.space	Key.space	n/a
544.211	0.0885	1088422	keystroke_c	c	n/a
544.4205	0.104	1088841	keystroke_l	l	n/a
544.54	0.1205	1089080	keystroke_a	a	n/a
544.87	0.0605	1089740	keystroke_s	s	n/a
545.0505	0.09	1090101	keystroke_s	s	n/a
545.2005	0.09	1090401	keystroke_i	i	n/a
545.5155	0.09	1091031	keystroke_f	f	n/a
545.6955	0.0895	1091391	keystroke_i	i	n/a
545.845	0.12	1091690	keystroke_c	c	n/a
545.995	0.165	1091990	keystroke_a	a	n/a
546.2355	0.0895	1092471	keystroke_t	t	n/a
546.3545	0.091	1092709	keystroke_i	i	n/a
546.4295	0.1205	1092859	keystroke_o	o	n/a
546.61	0.135	1093220	keystroke_n	n	n/a
546.745	0.105	1093490	keystroke_Key.space	Key.space	n/a
546.925	0.12	1093850	keystroke_p	p	n/a
547.06	0.105	1094120	keystroke_r	r	n/a
547.195	0.075	1094390	keystroke_i	i	n/a
547.36	0.105	1094720	keystroke_n	n	n/a
547.495	0.09	1094990	keystroke_t	t	n/a
547.705	0.1945	1095410	keystroke_e	e	n/a
547.8695	0.135	1095739	keystroke_d	d	n/a
548.0505	0.09	1096101	keystroke_Key.space	Key.space	n/a
548.2455	0.12	1096491	keystroke_c	c	n/a
548.3505	0.105	1096701	keystroke_h	h	n/a
548.4705	0.165	1096941	keystroke_a	a	n/a
548.7395	0.046	1097479	keystroke_t	t	n/a
549.31	0.105	1098620	keystroke_Key.backspace	Key.backspace	n/a
549.4305	0.135	1098861	keystroke_r	r	n/a
549.6395	0.1655	1099279	keystroke_a	a	n/a
550.1805	0.0745	1100361	keystroke_c	c	n/a
550.4355	0.12	1100871	keystroke_t	t	n/a
550.645	0.1955	1101290	keystroke_e	e	n/a
550.825	0.1205	1101650	keystroke_r	r	n/a
550.99	0.1055	1101980	keystroke_i	i	n/a
551.515	0.12	1103030	keystroke_s	s	n/a
552.0405	0.1345	1104081	keystroke_Key.backspace	Key.backspace	n/a
552.3855	0.1345	1104771	keystroke_z	z	n/a
552.76	0.105	1105520	keystroke_e	e	n/a
553.2845	0.135	1106569	keystroke_d	d	n/a
553.6755	0.1045	1107351	keystroke_Key.enter	Key.enter	n/a
553.7865	11.7995	1107573	prompt	n/a	crop demonstration inclusion experiments\n
554.62	0.0605	1109240	keystroke_c	c	n/a
554.845	0.09	1109690	keystroke_r	r	n/a
554.9805	0.1045	1109961	keystroke_o	o	n/a
555.115	0.135	1110230	keystroke_p	p	n/a
555.205	0.135	1110410	keystroke_Key.space	Key.space	n/a
556.015	0.1495	1112030	keystroke_f	f	n/a
556.5545	0.09	1113109	keystroke_Key.backspace	Key.backspace	n/a
556.78	0.12	1113560	keystroke_d	d	n/a
556.885	0.1195	1113770	keystroke_e	e	n/a
557.7855	0.089	1115571	keystroke_o	o	n/a
558.4145	0.09	1116829	keystroke_Key.backspace	Key.backspace	n/a
558.6845	0.1055	1117369	keystroke_m	m	n/a
558.8795	0.075	1117759	keystroke_o	o	n/a
559.1195	0.09	1118239	keystroke_n	n	n/a
559.48	0.09	1118960	keystroke_s	s	n/a
559.7345	0.105	1119469	keystroke_t	t	n/a
559.8845	0.18	1119769	keystroke_a	a	n/a
560.1555	0.074	1120311	keystroke_t	t	n/a
560.4245	0.06	1120849	keystroke_Key.backspace	Key.backspace	n/a
560.5445	0.075	1121089	keystroke_Key.backspace	Key.backspace	n/a
560.6505	0.119	1121301	keystroke_r	r	n/a
560.7555	0.165	1121511	keystroke_a	a	n/a
560.9505	0.12	1121901	keystroke_t	t	n/a
561.0845	0.076	1122169	keystroke_i	i	n/a
561.2045	0.091	1122409	keystroke_o	o	n/a
561.4305	0.1045	1122861	keystroke_n	n	n/a
561.565	0.105	1123130	keystroke_Key.space	Key.space	n/a
561.79	0.075	1123580	keystroke_i	i	n/a
561.94	0.09	1123880	keystroke_n	n	n/a
562.12	0.09	1124240	keystroke_c	c	n/a
562.2255	0.09	1124451	keystroke_l	l	n/a
562.42	0.075	1124840	keystroke_u	u	n/a
562.7955	0.105	1125591	keystroke_s	s	n/a
563.005	0.06	1126010	keystroke_i	i	n/a
563.095	0.105	1126190	keystroke_o	o	n/a
563.275	0.12	1126550	keystroke_n	n	n/a
563.545	0.015	1127090	keystroke_Key.space	Key.space	n/a
563.605	0.09	1127210	keystroke_e	e	n/a
563.8	0.105	1127600	keystroke_x	x	n/a
563.9205	0.105	1127841	keystroke_p	p	n/a
564.0405	0.1495	1128081	keystroke_e	e	n/a
564.16	0.1345	1128320	keystroke_r	r	n/a
564.3105	0.089	1128621	keystroke_i	i	n/a
564.865	0.09	1129730	keystroke_m	m	n/a
564.9705	0.0895	1129941	keystroke_e	e	n/a
565.06	0.075	1130120	keystroke_n	n	n/a
565.1655	0.1195	1130331	keystroke_t	t	n/a
565.4045	0.151	1130809	keystroke_s	s	n/a
565.51	0.0745	1131020	keystroke_Key.enter	Key.enter	n/a
565.5895	10.062	1131179	prompt	n/a	optimum redeem strategic meta\n
566.515	0.105	1133030	keystroke_o	o	n/a
566.6945	0.1205	1133389	keystroke_p	p	n/a
566.8745	0.1355	1133749	keystroke_t	t	n/a
567.2495	0.09	1134499	keystroke_i	i	n/a
567.6705	0.075	1135341	keystroke_m	m	n/a
567.926	0.089	1135852	keystroke_u	u	n/a
568.2405	0.0895	1136481	keystroke_,	,	n/a
568.81	0.09	1137620	keystroke_Key.backspace	Key.backspace	n/a
569.171	0.074	1138342	keystroke_m	m	n/a
569.905	0.09	1139810	keystroke_Key.space	Key.space	n/a
570.13	0.135	1140260	keystroke_r	r	n/a
570.25	0.135	1140500	keystroke_e	e	n/a
570.4755	0.075	1140951	keystroke_d	d	n/a
570.6855	0.074	1141371	keystroke_d	d	n/a
570.775	0.135	1141550	keystroke_e	e	n/a
571.0305	0.104	1142061	keystroke_m	m	n/a
571.42	0.075	1142840	keystroke_Key.backspace	Key.backspace	n/a
571.5705	0.0595	1143141	keystroke_Key.backspace	Key.backspace	n/a
571.735	0.075	1143470	keystroke_Key.backspace	Key.backspace	n/a
571.9605	0.059	1143921	keystroke_e	e	n/a
572.1405	0.074	1144281	keystroke_e	e	n/a
572.4855	0.12	1144971	keystroke_m	m	n/a
572.6805	0.09	1145361	keystroke_Key.space	Key.space	n/a
573.0105	0.1045	1146021	keystroke_s	s	n/a
573.295	0.12	1146590	keystroke_t	t	n/a
573.43	0.135	1146860	keystroke_r	r	n/a
573.58	0.135	1147160	keystroke_a	a	n/a
573.8205	0.12	1147641	keystroke_t	t	n/a
574.045	0.075	1148090	keystroke_e	e	n/a
574.21	0.045	1148420	keystroke_g	g	n/a
574.36	0.1055	1148720	keystroke_i	i	n/a
574.525	0.0755	1149050	keystroke_c	c	n/a
574.63	0.09	1149260	keystroke_Key.space	Key.space	n/a
574.855	0.045	1149710	keystroke_m	m	n/a
575.0955	0.1345	1150191	keystroke_e	e	n/a
575.275	0.135	1150550	keystroke_t	t	n/a
575.425	0.15	1150850	keystroke_a	a	n/a
575.56	0.09	1151120	keystroke_Key.enter	Key.enter	n/a
575.655	11.082	1151310	prompt	n/a	weblog courtesy hits valley\n
576.49	0.1505	1152980	keystroke_w	w	n/a
576.6705	0.1195	1153341	keystroke_e	e	n/a
577.03	0.0605	1154060	keystroke_b	b	n/a
577.225	0.105	1154450	keystroke_l	l	n/a
577.3905	0.1345	1154781	keystroke_o	o	n/a
577.825	0.1195	1155650	keystroke_g	g	n/a
578.0045	0.121	1156009	keystroke_Key.space	Key.space	n/a
578.6055	0.135	1157211	keystroke_c	c	n/a
578.7245	0.121	1157449	keystroke_o	o	n/a
578.9505	0.105	1157901	keystroke_u	u	n/a
579.595	0.15	1159190	keystroke_r	r	n/a
581.1695	0.105	1162339	keystroke_t	t	n/a
581.3805	0.21	1162761	keystroke_e	e	n/a
581.5455	0.165	1163091	keystroke_s	s	n/a
581.6805	0.1205	1163361	keystroke_y	y	n/a
581.815	0.12	1163630	keystroke_Key.space	Key.space	n/a
582.325	0.045	1164650	keystroke_h	h	n/a
582.445	0.12	1164890	keystroke_i	i	n/a
582.595	0.1055	1165190	keystroke_t	t	n/a
582.8355	0.134	1165671	keystroke_s	s	n/a
582.9545	0.105	1165909	keystroke_Key.space	Key.space	n/a
583.6755	0.119	1167351	keystroke_b	b	n/a
584.185	0.075	1168370	keystroke_Key.backspace	Key.backspace	n/a
584.576	0.1345	1169152	keystroke_v	v	n/a
584.8155	0.165	1169631	keystroke_a	a	n/a
585.3705	0.075	1170741	keystroke_l	l	n/a
585.5355	0.09	1171071	keystroke_l	l	n/a
585.6855	0.12	1171371	keystroke_e	e	n/a
586.2105	0.059	1172421	keystroke_y	y	n/a
586.6295	0.1055	1173259	keystroke_Key.enter	Key.enter	n/a
586.7425	12.5945	1173485	prompt	n/a	discretion stewart gifts twin\n
587.53	0.06	1175060	keystroke_d	d	n/a
587.665	0.0755	1175330	keystroke_i	i	n/a
587.9655	0.1195	1175931	keystroke_s	s	n/a
588.61	0.1205	1177220	keystroke_c	c	n/a
589.0445	0.1355	1178089	keystroke_r	r	n/a
589.1645	0.196	1178329	keystroke_e	e	n/a
589.3455	0.149	1178691	keystroke_a	a	n/a
589.885	0.075	1179770	keystroke_Key.backspace	Key.backspace	n/a
589.9905	0.12	1179981	keystroke_t	t	n/a
590.23	0.09	1180460	keystroke_i	i	n/a
590.3655	0.12	1180731	keystroke_o	o	n/a
590.62	0.105	1181240	keystroke_n	n	n/a
590.755	0.09	1181510	keystroke_Key.space	Key.space	n/a
590.935	0.09	1181870	keystroke_s	s	n/a
591.52	0.12	1183040	keystroke_t	t	n/a
591.9105	0.1495	1183821	keystroke_e	e	n/a
592.5405	0.0145	1185081	keystroke_a	a	n/a
592.9005	0.059	1185801	keystroke_r	r	n/a
593.215	0.06	1186430	keystroke_Key.backspace	Key.backspace	n/a
593.3645	0.0755	1186729	keystroke_Key.backspace	Key.backspace	n/a
593.4545	0.2105	1186909	keystroke_w	w	n/a
593.935	0.0445	1187870	keystroke_r	r	n/a
594.505	0.12	1189010	keystroke_Key.backspace	Key.backspace	n/a
595.24	0.15	1190480	keystroke_a	a	n/a
595.54	0.0755	1191080	keystroke_r	r	n/a
595.7645	0.106	1191529	keystroke_t	t	n/a
595.9745	0.1055	1191949	keystroke_Key.space	Key.space	n/a
596.74	0.0605	1193480	keystroke_g	g	n/a
596.98	0.09	1193960	keystroke_i	i	n/a
597.19	0.1055	1194380	keystroke_f	f	n/a
597.5805	0.12	1195161	keystroke_t	t	n/a
597.85	0.1205	1195700	keystroke_s	s	n/a
598.2995	0.1055	1196599	keystroke_Key.space	Key.space	n/a
598.5545	0.09	1197109	keystroke_t	t	n/a
598.7495	0.1205	1197499	keystroke_w	w	n/a
598.855	0.075	1197710	keystroke_i	i	n/a
599.0205	0.09	1198041	keystroke_n	n	n/a
599.245	0.09	1198490	keystroke_Key.enter	Key.enter	n/a
599.3415	7.63	1198683	prompt	n/a	contests bibliographic minus chair\n
600.145	0.09	1200290	keystroke_c	c	n/a
600.2195	0.09	1200439	keystroke_o	o	n/a
600.3845	0.106	1200769	keystroke_n	n	n/a
600.5795	0.0905	1201159	keystroke_t	t	n/a
600.776	0.1935	1201552	keystroke_e	e	n/a
600.9995	0.15	1201999	keystroke_s	s	n/a
601.1945	0.105	1202389	keystroke_t	t	n/a
601.45	0.089	1202900	keystroke_s	s	n/a
601.645	0.09	1203290	keystroke_Key.space	Key.space	n/a
602.0055	0.1055	1204011	keystroke_b	b	n/a
602.2755	0.105	1204551	keystroke_i	i	n/a
602.4995	0.075	1204999	keystroke_b	b	n/a
602.7855	0.1645	1205571	keystroke_l	l	n/a
603.01	0.15	1206020	keystroke_i	i	n/a
603.175	0.135	1206350	keystroke_o	o	n/a
603.535	0.0605	1207070	keystroke_g	g	n/a
603.8505	0.1345	1207701	keystroke_r	r	n/a
604.015	0.105	1208030	keystroke_a	a	n/a
604.15	0.075	1208300	keystroke_p	p	n/a
604.405	0.0755	1208810	keystroke_h	h	n/a
604.57	0.12	1209140	keystroke_i	i	n/a
604.7955	0.0895	1209591	keystroke_c	c	n/a
605.02	0.09	1210040	keystroke_Key.space	Key.space	n/a
605.245	0.09	1210490	keystroke_m	m	n/a
605.44	0.075	1210880	keystroke_i	i	n/a
605.605	0.06	1211210	keystroke_n	n	n/a
605.755	0.1205	1211510	keystroke_u	u	n/a
605.89	0.12	1211780	keystroke_s	s	n/a
605.995	0.075	1211990	keystroke_Key.space	Key.space	n/a
606.31	0.105	1212620	keystroke_c	c	n/a
606.385	0.1055	1212770	keystroke_h	h	n/a
606.4755	0.15	1212951	keystroke_a	a	n/a
606.5955	0.12	1213191	keystroke_i	i	n/a
606.7155	0.089	1213431	keystroke_r	r	n/a
606.8655	0.1045	1213731	keystroke_Key.enter	Key.enter	n/a
606.977	8.2	1213954	prompt	n/a	causing joyce messaging removal\n
607.6905	0.1045	1215381	keystroke_c	c	n/a
607.81	0.15	1215620	keystroke_a	a	n/a
607.975	0.0755	1215950	keystroke_u	u	n/a
608.065	0.1045	1216130	keystroke_s	s	n/a
608.1705	0.06	1216341	keystroke_i	i	n/a
608.3345	0.1055	1216669	keystroke_n	n	n/a
608.4555	0.09	1216911	keystroke_g	g	n/a
608.5595	0.105	1217119	keystroke_Key.space	Key.space	n/a
609.5805	0.105	1219161	keystroke_j	j	n/a
610.0305	0.105	1220061	keystroke_o	o	n/a
610.4055	0.089	1220811	keystroke_y	y	n/a
610.6005	0.105	1221201	keystroke_c	c	n/a
610.81	0.09	1221620	keystroke_e	e	n/a
611.02	0.09	1222040	keystroke_Key.space	Key.space	n/a
611.215	0.105	1222430	keystroke_m	m	n/a
611.35	0.15	1222700	keystroke_e	e	n/a
611.515	0.105	1223030	keystroke_s	s	n/a
611.7255	0.1495	1223451	keystroke_s	s	n/a
611.921	0.1645	1223842	keystroke_a	a	n/a
613.0305	0.014	1226061	keystroke_g	g	n/a
613.075	0.0895	1226150	keystroke_i	i	n/a
613.2695	0.136	1226539	keystroke_n	n	n/a
613.4355	0.075	1226871	keystroke_g	g	n/a
613.5245	0.09	1227049	keystroke_Key.space	Key.space	n/a
614.1245	0.166	1228249	keystroke_r	r	n/a
614.2745	0.076	1228549	keystroke_e	e	n/a
614.3645	0.0605	1228729	keystroke_m	m	n/a
614.485	0.1055	1228970	keystroke_o	o	n/a
614.605	0.12	1229210	keystroke_v	v	n/a
614.6955	0.1495	1229391	keystroke_a	a	n/a
614.83	0.1045	1229660	keystroke_l	l	n/a
615.0545	0.121	1230109	keystroke_Key.enter	Key.enter	n/a
615.183	7.644	1230366	prompt	n/a	reviewed sales fourth lock\n
615.85	0.1355	1231700	keystroke_r	r	n/a
616	0.0755	1232000	keystroke_e	e	n/a
616.3305	0.0295	1232661	keystroke_i	i	n/a
617.425	0.015	1234850	keystroke_Key.backspace	Key.backspace	n/a
617.56	0.0155	1235120	keystroke_v	v	n/a
617.6955	0.059	1235391	keystroke_i	i	n/a
617.8445	0.1355	1235689	keystroke_e	e	n/a
618.055	0.195	1236110	keystroke_w	w	n/a
618.37	0.09	1236740	keystroke_e	e	n/a
618.8205	0.089	1237641	keystroke_d	d	n/a
618.9695	0.0905	1237939	keystroke_Key.space	Key.space	n/a
619.2395	0.15	1238479	keystroke_s	s	n/a
619.4045	0.1055	1238809	keystroke_a	a	n/a
619.4795	0.1205	1238959	keystroke_l	l	n/a
619.66	0.195	1239320	keystroke_e	e	n/a
619.8255	0.1495	1239651	keystroke_s	s	n/a
620.005	0.09	1240010	keystroke_Key.space	Key.space	n/a
620.47	0.06	1240940	keystroke_f	f	n/a
620.6345	0.12	1241269	keystroke_o	o	n/a
620.9805	0.119	1241961	keystroke_u	u	n/a
621.2045	0.105	1242409	keystroke_r	r	n/a
