onset	duration	sample	value	key	prompt_text
1.4535	11.5255	2907	prompt	n/a	the quick brown fox jumps over a lazy dog\n
2.808	0.0415	5616	keystroke_t	t	n/a
2.867	0.105	5734	keystroke_h	h	n/a
2.987	0.0745	5974	keystroke_w	w	n/a
3.107	0.1645	6214	keystroke_Key.space	Key.space	n/a
3.2565	0.09	6513	keystroke_q	q	n/a
3.3615	0.135	6723	keystroke_u	u	n/a
3.4215	0.09	6843	keystroke_i	i	n/a
3.6165	0.06	7233	keystroke_x	x	n/a
3.6615	0.06	7323	keystroke_k	k	n/a
4.757	0.075	9514	keystroke_Key.backspace	Key.backspace	n/a
4.922	0.06	9844	keystroke_Key.backspace	Key.backspace	n/a
5.072	0.06	10144	keystroke_Key.backspace	Key.backspace	n/a
5.237	0.06	10474	keystroke_Key.backspace	Key.backspace	n/a
5.4015	0.06	10803	keystroke_Key.backspace	Key.backspace	n/a
5.6115	0.06	11223	keystroke_Key.backspace	Key.backspace	n/a
5.9865	0.105	11973	keystroke_Key.backspace	Key.backspace	n/a
6.417	0.12	12834	keystroke_e	e	n/a
6.552	0.09	13104	keystroke_Key.space	Key.space	n/a
6.627	0.1075	13254	keystroke_q	q	n/a
6.7495	0.165	13499	keystroke_u	u	n/a
6.8695	0.12	13739	keystroke_i	i	n/a
7.0495	0.135	14099	keystroke_c	c	n/a
7.1995	0.151	14399	keystroke_k	k	n/a
7.3055	0.15	14611	keystroke_Key.space	Key.space	n/a
7.4405	0.105	14881	keystroke_b	b	n/a
7.5755	0.12	15151	keystroke_r	r	n/a
7.6805	0.12	15361	keystroke_o	o	n/a
7.7865	0.164	15573	keystroke_w	w	n/a
7.8905	0.165	15781	keystroke_n	n	n/a
7.9955	0.135	15991	keystroke_Key.space	Key.space	n/a
8.1005	0.12	16201	keystroke_f	f	n/a
8.2355	0.12	16471	keystroke_o	o	n/a
8.6105	0.105	17221	keystroke_x	x	n/a
8.7305	0.12	17461	keystroke_Key.space	Key.space	n/a
8.8055	0.12	17611	keystroke_j	j	n/a
9.0005	0.075	18001	keystroke_u	u	n/a
9.211	0.135	18422	keystroke_m	m	n/a
9.286	0.105	18572	keystroke_p	p	n/a
9.391	0.12	18782	keystroke_s	s	n/a
9.495	0.165	18990	keystroke_Key.space	Key.space	n/a
9.57	0.12	19140	keystroke_o	o	n/a
9.645	0.091	19290	keystroke_v	v	n/a
9.826	0.12	19652	keystroke_e	e	n/a
9.916	0.1345	19832	keystroke_r	r	n/a
9.961	0.075	19922	keystroke_Key.space	Key.space	n/a
10.125	0.15	20250	keystroke_Key.space	Key.space	n/a
10.171	0.09	20342	keystroke_a	a	n/a
10.3355	0.1495	20671	keystroke_l	l	n/a
10.44	0.165	20880	keystroke_a	a	n/a
10.905	0.06	21810	keystroke_Key.backspace	Key.backspace	n/a
11.055	0.075	22110	keystroke_Key.backspace	Key.backspace	n/a
11.235	0.06	22470	keystroke_Key.backspace	Key.backspace	n/a
11.49	0.09	22980	keystroke_Key.backspace	Key.backspace	n/a
11.7	0.1045	23400	keystroke_a	a	n/a
11.8195	0.1655	23639	keystroke_Key.space	Key.space	n/a
11.9245	0.135	23849	keystroke_l	l	n/a
12.0145	0.135	24029	keystroke_a	a	n/a
12.1195	0.15	24239	keystroke_z	z	n/a
12.255	0.1195	24510	keystroke_y	y	n/a
12.3445	0.12	24689	keystroke_Key.space	Key.space	n/a
12.5245	0.09	25049	keystroke_d	d	n/a
12.6155	0.104	25231	keystroke_o	o	n/a
12.7345	0.1055	25469	keystroke_g	g	n/a
12.9005	0.0735	25801	keystroke_Key.enter	Key.enter	n/a
12.987	5.7665	25974	prompt	n/a	baseline endangered voting carrying\n
14.2655	0.0895	28531	keystroke_b	b	n/a
14.415	0.195	28830	keystroke_a	a	n/a
14.535	0.12	29070	keystroke_s	s	n/a
14.611	0.134	29222	keystroke_e	e	n/a
14.7	0.135	29400	keystroke_l	l	n/a
14.76	0.195	29520	keystroke_i	i	n/a
14.895	0.121	29790	keystroke_n	n	n/a
14.97	0.09	29940	keystroke_e	e	n/a
15.105	0.12	30210	keystroke_Key.space	Key.space	n/a
15.21	0.12	30420	keystroke_e	e	n/a
15.315	0.105	30630	keystroke_n	n	n/a
15.435	0.12	30870	keystroke_d	d	n/a
15.54	0.165	31080	keystroke_a	a	n/a
15.9455	0.105	31891	keystroke_n	n	n/a
16.1105	0.105	32221	keystroke_g	g	n/a
16.35	0.15	32700	keystroke_e	e	n/a
16.485	0.135	32970	keystroke_r	r	n/a
16.605	0.15	33210	keystroke_e	e	n/a
16.74	0.1355	33480	keystroke_d	d	n/a
16.9205	0.12	33841	keystroke_Key.space	Key.space	n/a
17.0555	0.06	34111	keystroke_v	v	n/a
17.1905	0.09	34381	keystroke_o	o	n/a
17.2955	0.09	34591	keystroke_t	t	n/a
17.4305	0.105	34861	keystroke_i	i	n/a
17.4755	0.135	34951	keystroke_n	n	n/a
17.5955	0.075	35191	keystroke_g	g	n/a
17.7155	0.135	35431	keystroke_Key.space	Key.space	n/a
17.8205	0.105	35641	keystroke_c	c	n/a
17.9265	0.134	35853	keystroke_a	a	n/a
18.0755	0.06	36151	keystroke_r	r	n/a
18.2105	0.105	36421	keystroke_r	r	n/a
18.2855	0.105	36571	keystroke_y	y	n/a
18.3605	0.165	36721	keystroke_i	i	n/a
18.4655	0.09	36931	keystroke_n	n	n/a
18.5405	0.09	37081	keystroke_g	g	n/a
18.6605	0.0895	37321	keystroke_Key.enter	Key.enter	n/a
18.7605	6.1275	37521	prompt	n/a	comedy footage reject execution\n
20.131	0.105	40262	keystroke_c	c	n/a
20.281	0.12	40562	keystroke_o	o	n/a
20.475	0.106	40950	keystroke_m	m	n/a
20.596	0.195	41192	keystroke_e	e	n/a
20.701	0.149	41402	keystroke_d	d	n/a
20.866	0.12	41732	keystroke_y	y	n/a
21.075	0.121	42150	keystroke_Key.space	Key.space	n/a
21.241	0.12	42482	keystroke_f	f	n/a
21.331	0.059	42662	keystroke_o	o	n/a
21.481	0.09	42962	keystroke_o	o	n/a
21.526	0.104	43052	keystroke_t	t	n/a
21.631	0.119	43262	keystroke_a	a	n/a
21.825	0.15	43650	keystroke_g	g	n/a
21.931	0.135	43862	keystroke_e	e	n/a
22.05	0.105	44100	keystroke_Key.space	Key.space	n/a
22.231	0.165	44462	keystroke_r	r	n/a
22.306	0.165	44612	keystroke_e	e	n/a
22.5	0.12	45000	keystroke_j	j	n/a
22.59	0.1505	45180	keystroke_e	e	n/a
22.7705	0.135	45541	keystroke_c	c	n/a
22.8605	0.1345	45721	keystroke_t	t	n/a
23.04	0.15	46080	keystroke_Key.space	Key.space	n/a
23.415	0.15	46830	keystroke_e	e	n/a
23.686	0.134	47372	keystroke_x	x	n/a
23.79	0.15	47580	keystroke_e	e	n/a
23.925	0.09	47850	keystroke_c	c	n/a
24.061	0.104	48122	keystroke_u	u	n/a
24.166	0.104	48332	keystroke_t	t	n/a
24.271	0.119	48542	keystroke_i	i	n/a
24.36	0.165	48720	keystroke_o	o	n/a
24.465	0.105	48930	keystroke_n	n	n/a
24.795	0.0905	49590	keystroke_Key.enter	Key.enter	n/a
24.893	5.275	49786	prompt	n/a	quad danish donor battle\n
26.0115	0.119	52023	keystroke_q	q	n/a
26.1455	0.135	52291	keystroke_u	u	n/a
26.2655	0.121	52531	keystroke_a	a	n/a
26.7305	0.135	53461	keystroke_d	d	n/a
26.9555	0.135	53911	keystroke_Key.space	Key.space	n/a
27.1065	0.134	54213	keystroke_d	d	n/a
27.1965	0.164	54393	keystroke_a	a	n/a
27.3315	0.149	54663	keystroke_n	n	n/a
27.4505	0.165	54901	keystroke_i	i	n/a
27.6305	0.135	55261	keystroke_s	s	n/a
27.7965	0.165	55593	keystroke_h	h	n/a
27.9455	0.15	55891	keystroke_Key.space	Key.space	n/a
28.4705	0.1355	56941	keystroke_d	d	n/a
28.65	0.075	57300	keystroke_o	o	n/a
28.711	0.164	57422	keystroke_n	n	n/a
28.846	0.12	57692	keystroke_o	o	n/a
29.13	0.09	58260	keystroke_r	r	n/a
29.265	0.075	58530	keystroke_Key.space	Key.space	n/a
29.401	0.105	58802	keystroke_b	b	n/a
29.475	0.165	58950	keystroke_a	a	n/a
29.58	0.106	59160	keystroke_t	t	n/a
29.775	0.106	59550	keystroke_t	t	n/a
29.866	0.12	59732	keystroke_l	l	n/a
30	0.091	60000	keystroke_e	e	n/a
30.091	0.074	60182	keystroke_Key.enter	Key.enter	n/a
30.175	7.9595	60350	prompt	n/a	strengthen comparable foreign composite\n
30.9455	0.12	61891	keystroke_s	s	n/a
31.0805	0.12	62161	keystroke_t	t	n/a
31.2455	0.105	62491	keystroke_r	r	n/a
31.2905	0.12	62581	keystroke_e	e	n/a
31.4555	0.135	62911	keystroke_n	n	n/a
31.5605	0.09	63121	keystroke_g	g	n/a
31.7555	0.075	63511	keystroke_t	t	n/a
31.8455	0.15	63691	keystroke_h	h	n/a
32.46	0.105	64920	keystroke_Key.space	Key.space	n/a
32.566	0.119	65132	keystroke_c	c	n/a
32.655	0.075	65310	keystroke_o	o	n/a
32.7	0.2555	65400	keystroke_m	m	n/a
32.836	0.1345	65672	keystroke_p	p	n/a
32.9405	0.135	65881	keystroke_a	a	n/a
33.1055	0.15	66211	keystroke_r	r	n/a
33.5105	0.075	67021	keystroke_a	a	n/a
33.6905	0.075	67381	keystroke_b	b	n/a
33.8105	0.12	67621	keystroke_l	l	n/a
33.9755	0.1355	67951	keystroke_e	e	n/a
34.126	0.135	68252	keystroke_Key.space	Key.space	n/a
34.276	0.12	68552	keystroke_f	f	n/a
34.426	0.105	68852	keystroke_o	o	n/a
34.546	0.105	69092	keystroke_r	r	n/a
34.606	0.12	69212	keystroke_e	e	n/a
34.741	0.105	69482	keystroke_i	i	n/a
34.966	0.075	69932	keystroke_g	g	n/a
35.1455	0.105	70291	keystroke_n	n	n/a
35.415	0.12	70830	keystroke_Key.space	Key.space	n/a
35.55	0.105	71100	keystroke_c	c	n/a
35.6405	0.0895	71281	keystroke_o	o	n/a
35.7	0.135	71400	keystroke_m	m	n/a
35.865	0.1215	71730	keystroke_p	p	n/a
35.9705	0.1195	71941	keystroke_o	o	n/a
36.12	0.12	72240	keystroke_s	s	n/a
36.211	0.105	72422	keystroke_i	i	n/a
36.406	0.06	72812	keystroke_i	i	n/a
37.0955	0.135	74191	keystroke_Key.backspace	Key.backspace	n/a
37.696	0.12	75392	keystroke_t	t	n/a
37.771	0.135	75542	keystroke_e	e	n/a
38.026	0.105	76052	keystroke_Key.enter	Key.enter	n/a
38.1415	5.558	76283	prompt	n/a	realize sells deals describing\n
39.0455	0.135	78091	keystroke_r	r	n/a
39.1055	0.12	78211	keystroke_e	e	n/a
39.1655	0.1355	78331	keystroke_a	a	n/a
39.286	0.12	78572	keystroke_l	l	n/a
39.346	0.15	78692	keystroke_i	i	n/a
39.481	0.12	78962	keystroke_z	z	n/a
39.586	0.15	79172	keystroke_e	e	n/a
39.721	0.135	79442	keystroke_Key.space	Key.space	n/a
40.306	0.15	80612	keystroke_s	s	n/a
40.396	0.15	80792	keystroke_e	e	n/a
40.501	0.06	81002	keystroke_l	l	n/a
40.651	0.105	81302	keystroke_l	l	n/a
40.757	0.134	81514	keystroke_s	s	n/a
40.876	0.135	81752	keystroke_Key.space	Key.space	n/a
40.966	0.18	81932	keystroke_d	d	n/a
41.041	0.165	82082	keystroke_e	e	n/a
41.147	0.119	82294	keystroke_a	a	n/a
41.251	0.12	82502	keystroke_l	l	n/a
41.401	0.165	82802	keystroke_s	s	n/a
41.581	0.09	83162	keystroke_Key.space	Key.space	n/a
42.3305	0.195	84661	keystroke_d	d	n/a
42.4505	0.135	84901	keystroke_e	e	n/a
42.5265	0.089	85053	keystroke_s	s	n/a
42.6605	0.075	85321	keystroke_c	c	n/a
42.8555	0.12	85711	keystroke_r	r	n/a
42.9305	0.12	85861	keystroke_i	i	n/a
43.1105	0.12	86221	keystroke_b	b	n/a
43.2455	0.165	86491	keystroke_i	i	n/a
43.3655	0.09	86731	keystroke_n	n	n/a
43.4705	0.075	86941	keystroke_g	g	n/a
43.6205	0.075	87241	keystroke_Key.enter	Key.enter	n/a
43.7065	5.8865	87413	prompt	n/a	charts modifications oils lawrence\n
44.64	0.076	89280	keystroke_c	c	n/a
44.701	0.165	89402	keystroke_h	h	n/a
44.82	0.15	89640	keystroke_a	a	n/a
44.971	0.105	89942	keystroke_r	r	n/a
45.196	0.104	90392	keystroke_t	t	n/a
45.27	0.166	90540	keystroke_s	s	n/a
45.42	0.135	90840	keystroke_Key.space	Key.space	n/a
45.706	0.12	91412	keystroke_m	m	n/a
45.781	0.15	91562	keystroke_o	o	n/a
45.916	0.135	91832	keystroke_d	d	n/a
46.096	0.18	92192	keystroke_i	i	n/a
46.516	0.09	93032	keystroke_f	f	n/a
46.621	0.135	93242	keystroke_i	i	n/a
46.711	0.09	93422	keystroke_c	c	n/a
46.786	0.09	93572	keystroke_a	a	n/a
46.936	0.1355	93872	keystroke_t	t	n/a
47.0565	0.1795	94113	keystroke_i	i	n/a
47.161	0.12	94322	keystroke_o	o	n/a
47.221	0.09	94442	keystroke_n	n	n/a
47.326	0.105	94652	keystroke_s	s	n/a
47.446	0.12	94892	keystroke_Key.space	Key.space	n/a
47.521	0.18	95042	keystroke_o	o	n/a
47.626	0.135	95252	keystroke_i	i	n/a
47.836	0.12	95672	keystroke_l	l	n/a
48.016	0.15	96032	keystroke_s	s	n/a
48.136	0.18	96272	keystroke_Key.space	Key.space	n/a
48.331	0.135	96662	keystroke_l	l	n/a
48.421	0.195	96842	keystroke_a	a	n/a
48.601	0.225	97202	keystroke_w	w	n/a
48.841	0.1945	97682	keystroke_r	r	n/a
48.9905	0.165	97981	keystroke_e	e	n/a
49.1105	0.105	98221	keystroke_n	n	n/a
49.2605	0.18	98521	keystroke_c	c	n/a
49.3955	0.12	98791	keystroke_e	e	n/a
49.5005	0.09	99001	keystroke_Key.enter	Key.enter	n/a
49.6035	5.33	99207	prompt	n/a	publicity outdoors combine whose\n
50.371	0.1345	100742	keystroke_p	p	n/a
50.7305	0.09	101461	keystroke_u	u	n/a
50.9105	0.06	101821	keystroke_b	b	n/a
50.9855	0.15	101971	keystroke_l	l	n/a
51.0755	0.15	102151	keystroke_i	i	n/a
51.2105	0.135	102421	keystroke_c	c	n/a
51.4655	0.135	102931	keystroke_i	i	n/a
51.6755	0.135	103351	keystroke_t	t	n/a
51.8255	0.15	103651	keystroke_y	y	n/a
51.9905	0.105	103981	keystroke_Key.space	Key.space	n/a
52.0805	0.165	104161	keystroke_o	o	n/a
52.1705	0.135	104341	keystroke_u	u	n/a
52.3205	0.09	104641	keystroke_t	t	n/a
52.5305	0.12	105061	keystroke_d	d	n/a
52.6355	0.075	105271	keystroke_o	o	n/a
52.7705	0.106	105541	keystroke_o	o	n/a
52.9505	0.12	105901	keystroke_r	r	n/a
53.0255	0.15	106051	keystroke_s	s	n/a
53.1155	0.12	106231	keystroke_Key.space	Key.space	n/a
53.3255	0.075	106651	keystroke_c	c	n/a
53.3555	0.135	106711	keystroke_o	o	n/a
53.4455	0.105	106891	keystroke_m	m	n/a
53.6405	0.09	107281	keystroke_b	b	n/a
53.8505	0.09	107701	keystroke_i	i	n/a
53.9105	0.12	107821	keystroke_n	n	n/a
54.0155	0.15	108031	keystroke_e	e	n/a
54.1505	0.105	108301	keystroke_Key.space	Key.space	n/a
54.2705	0.165	108541	keystroke_w	w	n/a
54.3605	0.15	108721	keystroke_h	h	n/a
54.4205	0.15	108841	keystroke_o	o	n/a
54.5555	0.135	109111	keystroke_s	s	n/a
54.6305	0.12	109261	keystroke_e	e	n/a
54.8705	0.06	109741	keystroke_Key.enter	Key.enter	n/a
54.9405	6.817	109881	prompt	n/a	molecular oman treating film\n
56.1905	0.135	112381	keystroke_m	m	n/a
56.3405	0.09	112681	keystroke_o	o	n/a
56.5505	0.12	113101	keystroke_l	l	n/a
56.6555	0.075	113311	keystroke_e	e	n/a
56.8515	0.1345	113703	keystroke_c	c	n/a
56.971	0.12	113942	keystroke_u	u	n/a
57.076	0.165	114152	keystroke_l	l	n/a
57.226	0.21	114452	keystroke_a	a	n/a
57.766	0.09	115532	keystroke_r	r	n/a
58.276	0.1195	116552	keystroke_Key.space	Key.space	n/a
58.6205	0.09	117241	keystroke_o	o	n/a
58.966	0.09	117932	keystroke_m	m	n/a
59.086	0.135	118172	keystroke_a	a	n/a
59.311	0.135	118622	keystroke_n	n	n/a
59.446	0.1345	118892	keystroke_Key.space	Key.space	n/a
59.6855	0.06	119371	keystroke_t	t	n/a
59.8205	0.21	119641	keystroke_r	r	n/a
59.9705	0.091	119941	keystroke_e	e	n/a
60.0455	0.135	120091	keystroke_a	a	n/a
60.2105	0.105	120421	keystroke_t	t	n/a
60.3455	0.12	120691	keystroke_i	i	n/a
60.4205	0.15	120841	keystroke_n	n	n/a
60.5555	0.105	121111	keystroke_g	g	n/a
60.6755	0.09	121351	keystroke_Key.space	Key.space	n/a
60.8555	0.09	121711	keystroke_f	f	n/a
60.9315	0.089	121863	keystroke_i	i	n/a
61.0505	0.12	122101	keystroke_l	l	n/a
61.0955	0.135	122191	keystroke_m	m	n/a
61.6805	0.075	123361	keystroke_Key.enter	Key.enter	n/a
61.764	6.156	123528	prompt	n/a	adjustable august automobiles invision\n
62.5205	0.15	125041	keystroke_a	a	n/a
62.941	0.135	125882	keystroke_d	d	n/a
62.986	0.06	125972	keystroke_j	j	n/a
63.121	0.105	126242	keystroke_u	u	n/a
63.211	0.18	126422	keystroke_s	s	n/a
63.376	0.12	126752	keystroke_t	t	n/a
63.511	0.06	127022	keystroke_a	a	n/a
63.631	0.09	127262	keystroke_b	b	n/a
63.781	0.15	127562	keystroke_l	l	n/a
64.006	0.105	128012	keystroke_e	e	n/a
64.201	0.135	128402	keystroke_Key.space	Key.space	n/a
64.351	0.12	128702	keystroke_a	a	n/a
64.516	0.135	129032	keystroke_u	u	n/a
64.681	0.12	129362	keystroke_g	g	n/a
64.786	0.1505	129572	keystroke_u	u	n/a
64.9515	0.134	129903	keystroke_s	s	n/a
65.0565	0.1195	130113	keystroke_t	t	n/a
65.206	0.105	130412	keystroke_Key.space	Key.space	n/a
65.326	0.105	130652	keystroke_a	a	n/a
65.416	0.1205	130832	keystroke_u	u	n/a
65.5655	0.136	131131	keystroke_t	t	n/a
65.6705	0.121	131341	keystroke_o	o	n/a
65.8215	0.165	131643	keystroke_m	m	n/a
66.046	0.1505	132092	keystroke_o	o	n/a
66.2115	0.075	132423	keystroke_b	b	n/a
66.3315	0.209	132663	keystroke_i	i	n/a
66.4355	0.1345	132871	keystroke_l	l	n/a
66.6	0.1795	133200	keystroke_e	e	n/a
66.69	0.1345	133380	keystroke_s	s	n/a
66.8695	0.1195	133739	keystroke_Key.space	Key.space	n/a
66.975	0.1495	133950	keystroke_i	i	n/a
67.0495	0.135	134099	keystroke_n	n	n/a
67.1995	0.1045	134399	keystroke_v	v	n/a
67.288	0.075	134576	keystroke_i	i	n/a
67.3785	0.089	134757	keystroke_s	s	n/a
67.4535	0.0885	134907	keystroke_i	i	n/a
67.4985	0.1635	134997	keystroke_o	o	n/a
67.587	0.106	135174	keystroke_n	n	n/a
67.7975	0.1185	135595	keystroke_Key.enter	Key.enter	n/a
67.9265	7.217	135853	prompt	n/a	handed criteria orange pointing\n
68.755	0.1345	137510	keystroke_h	h	n/a
68.9195	0.119	137839	keystroke_a	a	n/a
69.083	0.1045	138166	keystroke_n	n	n/a
69.203	0.1505	138406	keystroke_d	d	n/a
69.368	0.2095	138736	keystroke_e	e	n/a
69.5625	0.105	139125	keystroke_d	d	n/a
69.8025	0.1495	139605	keystroke_Key.space	Key.space	n/a
69.982	0.0605	139964	keystroke_c	c	n/a
70.177	0.135	140354	keystroke_r	r	n/a
70.327	0.1345	140654	keystroke_i	i	n/a
70.4765	0.075	140953	keystroke_t	t	n/a
70.641	0.1665	141282	keystroke_e	e	n/a
70.7625	0.1195	141525	keystroke_r	r	n/a
70.867	0.12	141734	keystroke_i	i	n/a
71.0325	0.119	142065	keystroke_a	a	n/a
71.1215	0.151	142243	keystroke_Key.space	Key.space	n/a
71.2875	0.1345	142575	keystroke_o	o	n/a
71.392	0.135	142784	keystroke_r	r	n/a
71.512	0.1195	143024	keystroke_a	a	n/a
71.6015	0.121	143203	keystroke_n	n	n/a
71.7825	0.1645	143565	keystroke_g	g	n/a
71.902	0.105	143804	keystroke_e	e	n/a
71.992	0.1345	143984	keystroke_Key.space	Key.space	n/a
72.0665	0.1355	144133	keystroke_p	p	n/a
72.218	0.105	144436	keystroke_a	a	n/a
72.562	0.2705	145124	keystroke_o	o	n/a
72.7425	0.1645	145485	keystroke_i	i	n/a
73.1915	0.091	146383	keystroke_Key.backspace	Key.backspace	n/a
73.4925	0.105	146985	keystroke_Key.backspace	Key.backspace	n/a
73.7315	0.061	147463	keystroke_Key.backspace	Key.backspace	n/a
74.258	0.1195	148516	keystroke_o	o	n/a
74.333	0.0895	148666	keystroke_i	i	n/a
74.5425	0.1045	149085	keystroke_n	n	n/a
74.677	0.106	149354	keystroke_t	t	n/a
74.753	0.12	149506	keystroke_i	i	n/a
74.798	0.1045	149596	keystroke_n	n	n/a
74.9175	0.0895	149835	keystroke_g	g	n/a
75.052	0.0895	150104	keystroke_Key.enter	Key.enter	n/a
75.1535	10.0865	150307	prompt	n/a	average village reserved pounds\n
75.8625	0.09	151725	keystroke_a	a	n/a
76.0125	0.09	152025	keystroke_v	v	n/a
76.193	0.075	152386	keystroke_e	e	n/a
76.238	0.1195	152476	keystroke_r	r	n/a
76.328	0.1345	152656	keystroke_a	a	n/a
76.4925	0.1645	152985	keystroke_g	g	n/a
76.642	0.045	153284	keystroke_e	e	n/a
76.732	0.091	153464	keystroke_Key.space	Key.space	n/a
76.838	0.0745	153676	keystroke_b	b	n/a
76.8975	0.12	153795	keystroke_i	i	n/a
76.9575	0.1195	153915	keystroke_l	l	n/a
77.137	0.151	154274	keystroke_l	l	n/a
77.227	0.1505	154454	keystroke_a	a	n/a
77.318	0.1645	154636	keystroke_g	g	n/a
77.8275	0.1345	155655	keystroke_Key.backspace	Key.backspace	n/a
78.2015	0.061	156403	keystroke_Key.backspace	Key.backspace	n/a
78.3825	0.1035	156765	keystroke_Key.backspace	Key.backspace	n/a
78.592	0.1195	157184	keystroke_Key.backspace	Key.backspace	n/a
78.8175	0.2395	157635	keystroke_Key.backspace	Key.backspace	n/a
79.823	0.1345	159646	keystroke_Key.backspace	Key.backspace	n/a
80.1375	0.1045	160275	keystroke_v	v	n/a
80.288	0.1345	160576	keystroke_i	i	n/a
80.348	0.1195	160696	keystroke_l	l	n/a
80.5125	0.1495	161025	keystroke_l	l	n/a
80.6325	0.1195	161265	keystroke_a	a	n/a
80.722	0.151	161444	keystroke_g	g	n/a
80.843	0.075	161686	keystroke_e	e	n/a
80.933	0.0745	161866	keystroke_Key.space	Key.space	n/a
81.5475	0.1945	163095	keystroke_r	r	n/a
81.6375	0.1195	163275	keystroke_e	e	n/a
81.727	0.2555	163454	keystroke_s	s	n/a
81.908	0.269	163816	keystroke_e	e	n/a
82.1175	0.0745	164235	keystroke_r	r	n/a
82.328	0.075	164656	keystroke_v	v	n/a
82.5225	0.225	165045	keystroke_e	e	n/a
82.6425	0.1505	165285	keystroke_d	d	n/a
82.749	0.1035	165498	keystroke_Key.space	Key.space	n/a
82.808	0.2235	165616	keystroke_p	p	n/a
82.9565	0.27	165913	keystroke_o	o	n/a
84.0675	0.104	168135	keystroke_u	u	n/a
84.323	0.1195	168646	keystroke_n	n	n/a
84.4575	0.12	168915	keystroke_d	d	n/a
84.5175	0.12	169035	keystroke_s	s	n/a
85.102	0.1355	170204	keystroke_Key.enter	Key.enter	n/a
85.247	4.5525	170494	prompt	n/a	instruction file remaining jobs\n
86.0915	0.106	172183	keystroke_i	i	n/a
86.1365	0.136	172273	keystroke_n	n	n/a
86.2125	0.09	172425	keystroke_s	s	n/a
86.3475	0.1495	172695	keystroke_t	t	n/a
86.482	0.09	172964	keystroke_r	r	n/a
86.512	0.1195	173024	keystroke_u	u	n/a
86.7225	0.075	173445	keystroke_c	c	n/a
87.0815	0.0755	174163	keystroke_t	t	n/a
87.232	0.1045	174464	keystroke_i	i	n/a
87.3225	0.164	174645	keystroke_o	o	n/a
87.4715	0.1205	174943	keystroke_n	n	n/a
87.606	0.091	175212	keystroke_Key.space	Key.space	n/a
87.7265	0.121	175453	keystroke_f	f	n/a
87.8315	0.1795	175663	keystroke_i	i	n/a
87.9065	0.1795	175813	keystroke_l	l	n/a
88.042	0.1365	176084	keystroke_e	e	n/a
88.1625	0.1045	176325	keystroke_Key.space	Key.space	n/a
88.282	0.15	176564	keystroke_r	r	n/a
88.342	0.105	176684	keystroke_e	e	n/a
88.402	0.1355	176804	keystroke_m	m	n/a
88.5225	0.135	177045	keystroke_a	a	n/a
88.6115	0.1065	177223	keystroke_i	i	n/a
88.687	0.09	177374	keystroke_n	n	n/a
88.792	0.135	177584	keystroke_i	i	n/a
88.867	0.1045	177734	keystroke_n	n	n/a
88.9865	0.061	177973	keystroke_g	g	n/a
89.0315	0.1355	178063	keystroke_Key.space	Key.space	n/a
89.137	0.121	178274	keystroke_j	j	n/a
89.227	0.091	178454	keystroke_o	o	n/a
89.393	0.0885	178786	keystroke_b	b	n/a
89.4675	0.134	178935	keystroke_s	s	n/a
89.662	0.1355	179324	keystroke_Key.enter	Key.enter	n/a
89.806	4.6295	179612	prompt	n/a	pull orders chains developing\n
90.562	0.1045	181124	keystroke_p	p	n/a
90.8025	0.06	181605	keystroke_u	u	n/a
90.9525	0.06	181905	keystroke_l	l	n/a
91.087	0.1055	182174	keystroke_l	l	n/a
91.1765	0.166	182353	keystroke_Key.space	Key.space	n/a
91.313	0.1045	182626	keystroke_o	o	n/a
91.3725	0.105	182745	keystroke_r	r	n/a
91.5525	0.1195	183105	keystroke_d	d	n/a
91.642	0.121	183284	keystroke_e	e	n/a
91.748	0.1645	183496	keystroke_r	r	n/a
91.8375	0.105	183675	keystroke_e	e	n/a
91.8975	0.165	183795	keystroke_s	s	n/a
92.0475	0.0595	184095	keystroke_Key.space	Key.space	n/a
92.167	0.121	184334	keystroke_c	c	n/a
92.273	0.1055	184546	keystroke_h	h	n/a
92.4075	0.076	184815	keystroke_a	a	n/a
92.5875	0.1345	185175	keystroke_i	i	n/a
92.662	0.1365	185324	keystroke_n	n	n/a
92.7825	0.12	185565	keystroke_s	s	n/a
92.9175	0.12	185835	keystroke_Key.space	Key.space	n/a
93.0075	0.1345	186015	keystroke_d	d	n/a
93.0835	0.1485	186167	keystroke_e	e	n/a
93.3075	0.09	186615	keystroke_v	v	n/a
93.3675	0.1345	186735	keystroke_e	e	n/a
93.517	0.09	187034	keystroke_l	l	n/a
93.652	0.1655	187304	keystroke_o	o	n/a
93.727	0.1355	187454	keystroke_p	p	n/a
93.9675	0.1495	187935	keystroke_i	i	n/a
94.0575	0.1045	188115	keystroke_n	n	n/a
94.132	0.075	188264	keystroke_g	g	n/a
94.2825	0.15	188565	keystroke_Key.enter	Key.enter	n/a
94.442	4.6435	188884	prompt	n/a	look nicole corporation default\n
95.243	0.1045	190486	keystroke_l	l	n/a
95.4375	0.075	190875	keystroke_o	o	n/a
95.6025	0.0895	191205	keystroke_o	o	n/a
95.6625	0.1355	191325	keystroke_k	k	n/a
95.783	0.2095	191566	keystroke_Key.space	Key.space	n/a
95.903	0.1345	191806	keystroke_n	n	n/a
96.0075	0.135	192015	keystroke_i	i	n/a
96.2175	0.1215	192435	keystroke_c	c	n/a
96.353	0.12	192706	keystroke_o	o	n/a
96.593	0.105	193186	keystroke_l	l	n/a
96.683	0.12	193366	keystroke_e	e	n/a
96.818	0.075	193636	keystroke_Key.space	Key.space	n/a
96.878	0.09	193756	keystroke_c	c	n/a
96.953	0.1195	193906	keystroke_o	o	n/a
97.1325	0.12	194265	keystroke_r	r	n/a
97.2535	0.1645	194507	keystroke_p	p	n/a
97.3585	0.1495	194717	keystroke_o	o	n/a
97.448	0.105	194896	keystroke_r	r	n/a
97.523	0.12	195046	keystroke_a	a	n/a
97.628	0.1195	195256	keystroke_t	t	n/a
97.7325	0.105	195465	keystroke_i	i	n/a
97.808	0.1645	195616	keystroke_o	o	n/a
97.9125	0.135	195825	keystroke_n	n	n/a
98.0485	0.1335	196097	keystroke_Key.space	Key.space	n/a
98.303	0.136	196606	keystroke_d	d	n/a
98.408	0.1045	196816	keystroke_e	e	n/a
98.5275	0.165	197055	keystroke_f	f	n/a
98.6325	0.105	197265	keystroke_a	a	n/a
98.6935	0.149	197387	keystroke_u	u	n/a
98.7975	0.09	197595	keystroke_l	l	n/a
98.9025	0.075	197805	keystroke_t	t	n/a
98.9925	0.0895	197985	keystroke_Key.enter	Key.enter	n/a
99.0915	6.1435	198183	prompt	n/a	editors surveillance start pieces\n
99.937	0.105	199874	keystroke_e	e	n/a
100.568	0.074	201136	keystroke_d	d	n/a
100.672	0.105	201344	keystroke_i	i	n/a
100.822	0.0905	201644	keystroke_t	t	n/a
100.8825	0.136	201765	keystroke_o	o	n/a
101.0635	0.1485	202127	keystroke_r	r	n/a
101.1685	0.1335	202337	keystroke_s	s	n/a
101.3175	0.12	202635	keystroke_Key.space	Key.space	n/a
101.5885	0.089	203177	keystroke_s	s	n/a
101.7235	0.165	203447	keystroke_u	u	n/a
101.8425	0.0905	203685	keystroke_r	r	n/a
102.1575	0.165	204315	keystroke_v	v	n/a
102.307	0.135	204614	keystroke_e	e	n/a
102.443	0.12	204886	keystroke_i	i	n/a
102.502	0.09	205004	keystroke_l	l	n/a
102.653	0.134	205306	keystroke_l	l	n/a
102.8325	0.135	205665	keystroke_a	a	n/a
102.9685	0.12	205937	keystroke_n	n	n/a
103.1025	0.1345	206205	keystroke_c	c	n/a
103.162	0.12	206324	keystroke_e	e	n/a
103.267	0.136	206534	keystroke_Key.space	Key.space	n/a
103.373	0.1345	206746	keystroke_s	s	n/a
103.4925	0.12	206985	keystroke_t	t	n/a
103.6275	0.1205	207255	keystroke_a	a	n/a
103.7185	0.119	207437	keystroke_r	r	n/a
103.9435	0.1195	207887	keystroke_t	t	n/a
104.0325	0.1045	208065	keystroke_Key.space	Key.space	n/a
104.227	0.196	208454	keystroke_p	p	n/a
104.377	0.12	208754	keystroke_i	i	n/a
104.467	0.075	208934	keystroke_e	e	n/a
104.6625	0.2395	209325	keystroke_c	c	n/a
104.8125	0.1055	209625	keystroke_e	e	n/a
104.887	0.106	209774	keystroke_s	s	n/a
105.112	0.1195	210224	keystroke_Key.enter	Key.enter	n/a
105.243	4.943	210486	prompt	n/a	whom hewlett ozone for\n
105.9985	0.1345	211997	keystroke_w	w	n/a
106.118	0.1045	212236	keystroke_h	h	n/a
106.208	0.1945	212416	keystroke_o	o	n/a
106.328	0.1645	212656	keystroke_m	m	n/a
106.5075	0.135	213015	keystroke_Key.space	Key.space	n/a
106.9435	0.119	213887	keystroke_h	h	n/a
107.1375	0.1645	214275	keystroke_e	e	n/a
107.2275	0.135	214455	keystroke_w	w	n/a
107.3775	0.12	214755	keystroke_l	l	n/a
107.4675	0.12	214935	keystroke_e	e	n/a
107.6325	0.1045	215265	keystroke_t	t	n/a
107.9475	0.09	215895	keystroke_t	t	n/a
108.1275	0.12	216255	keystroke_Key.space	Key.space	n/a
108.428	0.1195	216856	keystroke_o	o	n/a
108.7275	0.09	217455	keystroke_z	z	n/a
108.9075	0.135	217815	keystroke_o	o	n/a
109.0575	0.12	218115	keystroke_n	n	n/a
109.2075	0.1355	218415	keystroke_e	e	n/a
109.433	0.1045	218866	keystroke_Key.space	Key.space	n/a
109.7175	0.075	219435	keystroke_f	f	n/a
109.8075	0.09	219615	keystroke_o	o	n/a
109.928	0.0745	219856	keystroke_r	r	n/a
110.0775	0.105	220155	keystroke_Key.enter	Key.enter	n/a
110.193	5.2265	220386	prompt	n/a	medicine closed relay instrumental\n
110.9485	0.1495	221897	keystroke_m	m	n/a
111.0535	0.1195	222107	keystroke_e	e	n/a
111.218	0.12	222436	keystroke_d	d	n/a
111.353	0.1055	222706	keystroke_i	i	n/a
111.4735	0.1345	222947	keystroke_c	c	n/a
111.593	0.105	223186	keystroke_i	i	n/a
111.638	0.135	223276	keystroke_n	n	n/a
111.758	0.105	223516	keystroke_e	e	n/a
111.893	0.12	223786	keystroke_Key.space	Key.space	n/a
111.983	0.135	223966	keystroke_c	c	n/a
112.043	0.09	224086	keystroke_l	l	n/a
112.238	0.1345	224476	keystroke_o	o	n/a
112.343	0.255	224686	keystroke_s	s	n/a
112.493	0.15	224986	keystroke_e	e	n/a
112.598	0.075	225196	keystroke_d	d	n/a
112.628	0.15	225256	keystroke_Key.space	Key.space	n/a
112.823	0.15	225646	keystroke_r	r	n/a
112.913	0.15	225826	keystroke_e	e	n/a
112.988	0.135	225976	keystroke_l	l	n/a
113.183	0.075	226366	keystroke_a	a	n/a
113.4085	0.1195	226817	keystroke_y	y	n/a
113.588	0.135	227176	keystroke_Key.space	Key.space	n/a
113.813	0.12	227626	keystroke_i	i	n/a
113.888	0.135	227776	keystroke_n	n	n/a
113.978	0.1195	227956	keystroke_t	t	n/a
114.038	0.1195	228076	keystroke_r	r	n/a
114.1725	0.12	228345	keystroke_u	u	n/a
114.6375	0.09	229275	keystroke_m	m	n/a
114.7575	0.09	229515	keystroke_e	e	n/a
114.8625	0.0905	229725	keystroke_n	n	n/a
114.938	0.12	229876	keystroke_t	t	n/a
115.028	0.0905	230056	keystroke_a	a	n/a
115.1025	0.121	230205	keystroke_l	l	n/a
115.312	0.1055	230624	keystroke_Key.enter	Key.enter	n/a
115.43	5.2845	230860	prompt	n/a	amber odds completely expanding\n
116.107	0.1955	232214	keystroke_a	a	n/a
116.363	0.1045	232726	keystroke_m	m	n/a
116.6335	0.06	233267	keystroke_b	b	n/a
116.7085	0.21	233417	keystroke_e	e	n/a
116.8285	0.18	233657	keystroke_r	r	n/a
116.9925	0.12	233985	keystroke_Key.space	Key.space	n/a
117.1135	0.1495	234227	keystroke_o	o	n/a
117.248	0.09	234496	keystroke_d	d	n/a
117.4285	0.1945	234857	keystroke_d	d	n/a
117.608	0.09	235216	keystroke_s	s	n/a
117.803	0.135	235606	keystroke_Key.space	Key.space	n/a
117.923	0.135	235846	keystroke_c	c	n/a
118.013	0.135	236026	keystroke_o	o	n/a
118.088	0.15	236176	keystroke_m	m	n/a
118.268	0.165	236536	keystroke_p	p	n/a
118.4025	0.1655	236805	keystroke_l	l	n/a
118.553	0.165	237106	keystroke_e	e	n/a
118.748	0.2255	237496	keystroke_t	t	n/a
118.898	0.165	237796	keystroke_e	e	n/a
119.048	0.135	238096	keystroke_l	l	n/a
119.213	0.09	238426	keystroke_y	y	n/a
119.348	0.1505	238696	keystroke_Key.space	Key.space	n/a
119.5285	0.1045	239057	keystroke_e	e	n/a
119.798	0.12	239596	keystroke_x	x	n/a
119.903	0.0895	239806	keystroke_p	p	n/a
120.0075	0.1045	240015	keystroke_a	a	n/a
120.127	0.09	240254	keystroke_n	n	n/a
120.202	0.12	240404	keystroke_d	d	n/a
120.307	0.105	240614	keystroke_i	i	n/a
120.367	0.1055	240734	keystroke_n	n	n/a
120.457	0.0755	240914	keystroke_g	g	n/a
120.6075	0.105	241215	keystroke_Key.enter	Key.enter	n/a
120.7215	5.723	241443	prompt	n/a	humans interviews questions extent\n
121.3875	0.1805	242775	keystroke_h	h	n/a
121.569	0.074	243138	keystroke_u	u	n/a
121.808	0.105	243616	keystroke_m	m	n/a
121.958	0.135	243916	keystroke_a	a	n/a
122.048	0.12	244096	keystroke_n	n	n/a
122.183	0.135	244366	keystroke_s	s	n/a
122.303	0.105	244606	keystroke_Key.space	Key.space	n/a
122.363	0.15	244726	keystroke_i	i	n/a
122.423	0.165	244846	keystroke_n	n	n/a
122.543	0.075	245086	keystroke_t	t	n/a
122.603	0.165	245206	keystroke_e	e	n/a
122.738	0.045	245476	keystroke_r	r	n/a
122.888	0.105	245776	keystroke_v	v	n/a
122.978	0.135	245956	keystroke_i	i	n/a
123.068	0.165	246136	keystroke_e	e	n/a
123.158	0.12	246316	keystroke_w	w	n/a
123.368	0.09	246736	keystroke_s	s	n/a
123.473	0.06	246946	keystroke_Key.space	Key.space	n/a
123.593	0.1345	247186	keystroke_q	q	n/a
123.713	0.1345	247426	keystroke_u	u	n/a
123.998	0.15	247996	keystroke_e	e	n/a
124.073	0.12	248146	keystroke_s	s	n/a
124.208	0.15	248416	keystroke_t	t	n/a
124.313	0.1645	248626	keystroke_i	i	n/a
124.388	0.165	248776	keystroke_o	o	n/a
124.4625	0.1205	248925	keystroke_n	n	n/a
124.613	0.15	249226	keystroke_s	s	n/a
125.123	0.12	250246	keystroke_Key.space	Key.space	n/a
125.303	0.15	250606	keystroke_e	e	n/a
125.438	0.1045	250876	keystroke_x	x	n/a
125.7525	0.15	251505	keystroke_t	t	n/a
125.8725	0.12	251745	keystroke_e	e	n/a
126.0075	0.12	252015	keystroke_n	n	n/a
126.2025	0.075	252405	keystroke_t	t	n/a
126.3375	0.105	252675	keystroke_Key.enter	Key.enter	n/a
126.451	5.498	252902	prompt	n/a	looked recordings sandy shoot\n
127.358	0.21	254716	keystroke_l	l	n/a
127.748	0.015	255496	keystroke_o	o	n/a
127.838	0.1345	255676	keystroke_o	o	n/a
127.898	0.1495	255796	keystroke_k	k	n/a
128.0325	0.18	256065	keystroke_e	e	n/a
128.2575	0.105	256515	keystroke_d	d	n/a
128.3475	0.165	256695	keystroke_Key.space	Key.space	n/a
128.5135	0.1195	257027	keystroke_r	r	n/a
128.588	0.12	257176	keystroke_e	e	n/a
128.8125	0.075	257625	keystroke_c	c	n/a
128.9025	0.105	257805	keystroke_o	o	n/a
129.038	0.045	258076	keystroke_r	r	n/a
129.158	0.09	258316	keystroke_d	d	n/a
129.263	0.135	258526	keystroke_i	i	n/a
129.368	0.105	258736	keystroke_n	n	n/a
129.458	0.09	258916	keystroke_g	g	n/a
129.668	0.105	259336	keystroke_s	s	n/a
130.013	0.135	260026	keystroke_Key.space	Key.space	n/a
130.178	0.135	260356	keystroke_s	s	n/a
130.298	0.135	260596	keystroke_a	a	n/a
130.448	0.075	260896	keystroke_n	n	n/a
130.568	0.12	261136	keystroke_d	d	n/a
130.703	0.105	261406	keystroke_y	y	n/a
130.853	0.1645	261706	keystroke_Key.space	Key.space	n/a
130.9725	0.135	261945	keystroke_s	s	n/a
131.1225	0.105	262245	keystroke_h	h	n/a
131.2575	0.105	262515	keystroke_o	o	n/a
131.4075	0.225	262815	keystroke_o	o	n/a
131.5425	0.105	263085	keystroke_t	t	n/a
131.8425	0.1045	263685	keystroke_Key.enter	Key.enter	n/a
131.955	7.1945	263910	prompt	n/a	jamie he'll presents customs\n
132.6375	0.075	265275	keystroke_f	f	n/a
132.7425	0.06	265485	keystroke_j	j	n/a
133.0875	0.075	266175	keystroke_Key.backspace	Key.backspace	n/a
133.2375	0.075	266475	keystroke_Key.backspace	Key.backspace	n/a
133.4475	0.09	266895	keystroke_j	j	n/a
133.5675	0.12	267135	keystroke_a	a	n/a
133.6575	0.1655	267315	keystroke_m	m	n/a
133.7625	0.1505	267525	keystroke_i	i	n/a
133.898	0.1645	267796	keystroke_e	e	n/a
134.0325	0.09	268065	keystroke_Key.space	Key.space	n/a
134.242	0.105	268484	keystroke_h	h	n/a
134.362	0.09	268724	keystroke_e	e	n/a
135.038	0.1045	270076	keystroke_'	'	n/a
135.338	0.03	270676	keystroke_l	l	n/a
135.488	0.075	270976	keystroke_l	l	n/a
135.848	0.1195	271696	keystroke_Key.space	Key.space	n/a
136.1335	0.224	272267	keystroke_p	p	n/a
136.5825	0.1805	273165	keystroke_r	r	n/a
136.6725	0.1505	273345	keystroke_e	e	n/a
136.764	0.209	273528	keystroke_s	s	n/a
136.868	0.15	273736	keystroke_e	e	n/a
137.019	0.1335	274038	keystroke_n	n	n/a
137.198	0.1505	274396	keystroke_t	t	n/a
137.3185	0.1495	274637	keystroke_s	s	n/a
137.453	0.09	274906	keystroke_Key.space	Key.space	n/a
137.603	0.135	275206	keystroke_c	c	n/a
137.708	0.1055	275416	keystroke_u	u	n/a
137.8285	0.1795	275657	keystroke_s	s	n/a
137.993	0.165	275986	keystroke_t	t	n/a
138.143	0.1345	276286	keystroke_o	o	n/a
138.218	0.1045	276436	keystroke_m	m	n/a
138.6225	0.061	277245	keystroke_s	s	n/a
139.0425	0.105	278085	keystroke_Key.enter	Key.enter	n/a
139.156	8.0495	278312	prompt	n/a	investigations negative tract preferred\n
139.837	0.135	279674	keystroke_i	i	n/a
139.942	0.135	279884	keystroke_n	n	n/a
140.212	0.09	280424	keystroke_v	v	n/a
140.317	0.165	280634	keystroke_e	e	n/a
140.3925	0.1495	280785	keystroke_s	s	n/a
140.617	0.075	281234	keystroke_t	t	n/a
140.707	0.1355	281414	keystroke_i	i	n/a
140.782	0.0905	281564	keystroke_g	g	n/a
140.8875	0.105	281775	keystroke_a	a	n/a
140.9625	0.135	281925	keystroke_t	t	n/a
141.0675	0.135	282135	keystroke_i	i	n/a
141.1425	0.135	282285	keystroke_o	o	n/a
141.2475	0.1055	282495	keystroke_n	n	n/a
141.383	0.15	282766	keystroke_s	s	n/a
141.518	0.09	283036	keystroke_Key.space	Key.space	n/a
141.698	0.12	283396	keystroke_n	n	n/a
141.788	0.1045	283576	keystroke_e	e	n/a
141.968	0.134	283936	keystroke_g	g	n/a
142.178	0.12	284356	keystroke_a	a	n/a
142.313	0.0905	284626	keystroke_t	t	n/a
142.448	0.1345	284896	keystroke_i	i	n/a
142.538	0.1495	285076	keystroke_v	v	n/a
142.6425	0.121	285285	keystroke_e	e	n/a
142.7775	0.1655	285555	keystroke_Key.space	Key.space	n/a
142.928	0.06	285856	keystroke_t	t	n/a
143.048	0.12	286096	keystroke_r	r	n/a
143.153	0.09	286306	keystroke_a	a	n/a
143.303	0.09	286606	keystroke_c	c	n/a
143.528	0.09	287056	keystroke_t	t	n/a
143.5885	0.1495	287177	keystroke_Key.space	Key.space	n/a
143.708	0.165	287416	keystroke_p	p	n/a
143.828	0.1055	287656	keystroke_r	r	n/a
143.9185	0.105	287837	keystroke_e	e	n/a
144.0385	0.09	288077	keystroke_f	f	n/a
144.2185	0.105	288437	keystroke_f	f	n/a
145.3875	0.105	290775	keystroke_Key.backspace	Key.backspace	n/a
145.5075	0.061	291015	keystroke_=	=	n/a
146.183	0.045	292366	keystroke_Key.backspace	Key.backspace	n/a
146.4835	0.165	292967	keystroke_e	e	n/a
146.6185	0.074	293237	keystroke_r	r	n/a
146.7685	0.0895	293537	keystroke_r	r	n/a
146.8285	0.1345	293657	keystroke_e	e	n/a
146.933	0.119	293866	keystroke_d	d	n/a
147.068	0.134	294136	keystroke_Key.enter	Key.enter	n/a
147.2125	5.888	294425	prompt	n/a	clearly excellence spatial luck\n
148.418	0.075	296836	keystroke_c	c	n/a
148.508	0.18	297016	keystroke_l	l	n/a
148.597	0.12	297194	keystroke_e	e	n/a
148.673	0.12	297346	keystroke_a	a	n/a
148.763	0.134	297526	keystroke_r	r	n/a
148.868	0.104	297736	keystroke_l	l	n/a
149.0185	0.1945	298037	keystroke_y	y	n/a
149.1525	0.1645	298305	keystroke_Key.space	Key.space	n/a
149.228	0.105	298456	keystroke_e	e	n/a
149.483	0.1345	298966	keystroke_x	x	n/a
149.737	0.09	299474	keystroke_c	c	n/a
149.797	0.12	299594	keystroke_e	e	n/a
149.901	0.091	299802	keystroke_l	l	n/a
150.0665	0.105	300133	keystroke_l	l	n/a
150.1855	0.106	300371	keystroke_e	e	n/a
150.3065	0.105	300613	keystroke_n	n	n/a
150.4855	0.166	300971	keystroke_c	c	n/a
150.5775	0.12	301155	keystroke_e	e	n/a
150.7115	0.105	301423	keystroke_Key.space	Key.space	n/a
150.7875	0.135	301575	keystroke_s	s	n/a
150.9375	0.12	301875	keystroke_p	p	n/a
151.0265	0.1215	302053	keystroke_a	a	n/a
151.163	0.105	302326	keystroke_t	t	n/a
151.2525	0.09	302505	keystroke_i	i	n/a
151.358	0.1495	302716	keystroke_a	a	n/a
151.4775	0.12	302955	keystroke_l	l	n/a
151.5375	0.1805	303075	keystroke_Key.space	Key.space	n/a
151.688	0.135	303376	keystroke_l	l	n/a
151.793	0.09	303586	keystroke_u	u	n/a
151.988	0.06	303976	keystroke_n	n	n/a
152.2885	0.1045	304577	keystroke_Key.backspace	Key.backspace	n/a
152.453	0.105	304906	keystroke_c	c	n/a
152.7835	0.09	305567	keystroke_k	k	n/a
152.9935	0.105	305987	keystroke_Key.enter	Key.enter	n/a
153.1085	8.9915	306217	prompt	n/a	beautifully issue aspects precious\n
153.998	0.1195	307996	keystroke_b	b	n/a
154.0725	0.135	308145	keystroke_e	e	n/a
154.1625	0.105	308325	keystroke_a	a	n/a
154.2225	0.105	308445	keystroke_u	u	n/a
154.3425	0.075	308685	keystroke_t	t	n/a
154.4325	0.105	308865	keystroke_i	i	n/a
154.5225	0.105	309045	keystroke_f	f	n/a
154.5825	0.15	309165	keystroke_u	u	n/a
154.6875	0.24	309375	keystroke_l	l	n/a
155.003	0.09	310006	keystroke_y	y	n/a
155.964	0.045	311928	keystroke_Key.backspace	Key.backspace	n/a
156.174	0.105	312348	keystroke_l	l	n/a
156.339	0.045	312678	keystroke_y	y	n/a
156.4585	0.12	312917	keystroke_Key.space	Key.space	n/a
156.4885	0.1505	312977	keystroke_i	i	n/a
156.5935	0.09	313187	keystroke_s	s	n/a
156.7895	0.104	313579	keystroke_s	s	n/a
156.9245	0.135	313849	keystroke_u	u	n/a
157.0295	0.119	314059	keystroke_e	e	n/a
157.1935	0.165	314387	keystroke_Key.space	Key.space	n/a
157.5535	0.1505	315107	keystroke_a	a	n/a
157.673	0.151	315346	keystroke_s	s	n/a
157.809	0.134	315618	keystroke_p	p	n/a
157.929	0.18	315858	keystroke_e	e	n/a
158.064	0.165	316128	keystroke_x	x	n/a
158.4685	0.03	316937	keystroke_t	t	n/a
158.784	0.105	317568	keystroke_s	s	n/a
159.2335	0.075	318467	keystroke_Key.backspace	Key.backspace	n/a
159.383	0.06	318766	keystroke_Key.backspace	Key.backspace	n/a
159.593	0.12	319186	keystroke_Key.backspace	Key.backspace	n/a
160.1175	0.06	320235	keystroke_c	c	n/a
160.2975	0.1045	320595	keystroke_t	t	n/a
160.5365	0.09	321073	keystroke_s	s	n/a
160.807	0.12	321614	keystroke_Key.space	Key.space	n/a
161.017	0.121	322034	keystroke_p	p	n/a
161.123	0.15	322246	keystroke_r	r	n/a
161.213	0.165	322426	keystroke_e	e	n/a
161.498	0.105	322996	keystroke_c	c	n/a
161.573	0.21	323146	keystroke_i	i	n/a
161.648	0.15	323296	keystroke_o	o	n/a
161.723	0.12	323446	keystroke_u	u	n/a
161.813	0.1205	323626	keystroke_s	s	n/a
162.008	0.09	324016	keystroke_Key.enter	Key.enter	n/a
162.107	9.6385	324214	prompt	n/a	assessments asin especially electronics\n
165.522	0.147	331044	keystroke_a	a	n/a
165.6985	0.105	331397	keystroke_s	s	n/a
165.939	0.165	331878	keystroke_s	s	n/a
166.194	0.165	332388	keystroke_e	e	n/a
166.299	0.075	332598	keystroke_s	s	n/a
166.4935	0.135	332987	keystroke_z	z	n/a
167.094	0.12	334188	keystroke_Key.backspace	Key.backspace	n/a
167.274	0.105	334548	keystroke_s	s	n/a
167.499	0.135	334998	keystroke_m	m	n/a
167.649	0.09	335298	keystroke_e	e	n/a
167.784	0.075	335568	keystroke_n	n	n/a
167.874	0.134	335748	keystroke_t	t	n/a
167.9785	0.1195	335957	keystroke_s	s	n/a
168.113	0.1955	336226	keystroke_Key.space	Key.space	n/a
168.233	0.1655	336466	keystroke_a	a	n/a
168.3835	0.15	336767	keystroke_s	s	n/a
168.6385	0.165	337277	keystroke_i	i	n/a
168.7585	0.165	337517	keystroke_n	n	n/a
168.8785	0.15	337757	keystroke_Key.space	Key.space	n/a
168.9985	0.09	337997	keystroke_a	a	n/a
169.0585	0.15	338117	keystroke_s	s	n/a
169.1935	0.12	338387	keystroke_p	p	n/a
169.2985	0.075	338597	keystroke_e	e	n/a
169.4485	0.1345	338897	keystroke_c	c	n/a
169.5385	0.0895	339077	keystroke_i	i	n/a
169.658	0.075	339316	keystroke_a	a	n/a
169.748	0.045	339496	keystroke_l	l	n/a
169.898	0.105	339796	keystroke_l	l	n/a
169.973	0.0755	339946	keystroke_y	y	n/a
170.3335	0.105	340667	keystroke_Key.space	Key.space	n/a
170.604	0.105	341208	keystroke_e	e	n/a
170.724	0.135	341448	keystroke_l	l	n/a
170.784	0.15	341568	keystroke_e	e	n/a
170.904	0.135	341808	keystroke_c	c	n/a
171.054	0.165	342108	keystroke_t	t	n/a
171.159	0.105	342318	keystroke_r	r	n/a
171.189	0.105	342378	keystroke_o	o	n/a
171.279	0.135	342558	keystroke_n	n	n/a
171.384	0.12	342768	keystroke_i	i	n/a
171.489	0.1045	342978	keystroke_c	c	n/a
171.564	0.0895	343128	keystroke_s	s	n/a
171.6685	0.0745	343337	keystroke_Key.enter	Key.enter	n/a
171.754	6.6975	343508	prompt	n/a	render birmingham activated jake\n
172.5835	0.15	345167	keystroke_r	r	n/a
172.6885	0.12	345377	keystroke_e	e	n/a
172.7935	0.105	345587	keystroke_n	n	n/a
172.9295	0.134	345859	keystroke_d	d	n/a
173.0785	0.1355	346157	keystroke_e	e	n/a
173.154	0.135	346308	keystroke_r	r	n/a
173.274	0.15	346548	keystroke_Key.space	Key.space	n/a
173.784	0.135	347568	keystroke_i	i	n/a
174.279	0.03	348558	keystroke_Key.backspace	Key.backspace	n/a
174.459	0.075	348918	keystroke_Key.backspace	Key.backspace	n/a
174.7885	0.105	349577	keystroke_Key.space	Key.space	n/a
175.0135	0.09	350027	keystroke_b	b	n/a
175.1185	0.09	350237	keystroke_i	i	n/a
175.2535	0.105	350507	keystroke_r	r	n/a
175.3435	0.12	350687	keystroke_m	m	n/a
175.4485	0.135	350897	keystroke_i	i	n/a
175.5535	0.1345	351107	keystroke_n	n	n/a
175.883	0.06	351766	keystroke_g	g	n/a
175.958	0.045	351916	keystroke_h	h	n/a
176.3035	0.135	352607	keystroke_a	a	n/a
176.4535	0.135	352907	keystroke_m	m	n/a
176.5585	0.1345	353117	keystroke_Key.space	Key.space	n/a
176.6335	0.1345	353267	keystroke_a	a	n/a
176.783	0.105	353566	keystroke_c	c	n/a
177.008	0.06	354016	keystroke_t	t	n/a
177.038	0.135	354076	keystroke_i	i	n/a
177.158	0.1055	354316	keystroke_v	v	n/a
177.2485	0.12	354497	keystroke_a	a	n/a
177.3835	0.075	354767	keystroke_t	t	n/a
177.4885	0.105	354977	keystroke_e	e	n/a
177.5635	0.135	355127	keystroke_d	d	n/a
177.6535	0.12	355307	keystroke_Key.space	Key.space	n/a
177.6835	0.135	355367	keystroke_j	j	n/a
177.8635	0.09	355727	keystroke_a	a	n/a
178.1035	0.075	356207	keystroke_k	k	n/a
178.2085	0.0755	356417	keystroke_e	e	n/a
178.374	0.075	356748	keystroke_Key.enter	Key.enter	n/a
178.457	5.5135	356914	prompt	n/a	bathrooms according affect royal\n
179.514	0.12	359028	keystroke_b	b	n/a
179.619	0.1795	359238	keystroke_a	a	n/a
179.694	0.1195	359388	keystroke_t	t	n/a
179.7685	0.135	359537	keystroke_h	h	n/a
179.9485	0.105	359897	keystroke_r	r	n/a
180.0985	0.045	360197	keystroke_o	o	n/a
180.2635	0.12	360527	keystroke_o	o	n/a
180.3235	0.12	360647	keystroke_m	m	n/a
180.4735	0.09	360947	keystroke_s	s	n/a
180.5935	0.135	361187	keystroke_Key.space	Key.space	n/a
180.6385	0.15	361277	keystroke_a	a	n/a
180.8335	0.09	361667	keystroke_c	c	n/a
181.0135	0.105	362027	keystroke_c	c	n/a
181.1335	0.135	362267	keystroke_o	o	n/a
181.2835	0.06	362567	keystroke_r	r	n/a
181.4785	0.03	362957	keystroke_d	d	n/a
181.5685	0.135	363137	keystroke_i	i	n/a
181.6435	0.105	363287	keystroke_n	n	n/a
181.7785	0.09	363557	keystroke_g	g	n/a
181.8985	0.135	363797	keystroke_Key.space	Key.space	n/a
182.0785	0.105	364157	keystroke_a	a	n/a
182.2585	0.0595	364517	keystroke_f	f	n/a
182.408	0.105	364816	keystroke_f	f	n/a
182.498	0.15	364996	keystroke_e	e	n/a
182.663	0.15	365326	keystroke_c	c	n/a
182.723	0.105	365446	keystroke_t	t	n/a
182.843	0.1055	365686	keystroke_Key.space	Key.space	n/a
183.3235	0.1045	366647	keystroke_r	r	n/a
183.3835	0.1495	366767	keystroke_o	o	n/a
183.518	0.12	367036	keystroke_y	y	n/a
183.623	0.1195	367246	keystroke_a	a	n/a
183.7285	0.075	367457	keystroke_l	l	n/a
183.8925	0.075	367785	keystroke_Key.enter	Key.enter	n/a
183.977	10.643	367954	prompt	n/a	lens sigma latinas uzbekistan\n
184.8085	0.09	369617	keystroke_l	l	n/a
184.9585	0.12	369917	keystroke_e	e	n/a
185.0935	0.0905	370187	keystroke_n	n	n/a
185.304	0.119	370608	keystroke_s	s	n/a
185.4825	0.1055	370965	keystroke_Key.space	Key.space	n/a
185.843	0.15	371686	keystroke_s	s	n/a
187.2075	0.075	374415	keystroke_i	i	n/a
187.6575	0.121	375315	keystroke_g	g	n/a
187.868	0.105	375736	keystroke_m	m	n/a
188.018	0.12	376036	keystroke_a	a	n/a
189.6385	0.135	379277	keystroke_Key.space	Key.space	n/a
189.8635	0.135	379727	keystroke_l	l	n/a
189.9835	0.21	379967	keystroke_a	a	n/a
190.1635	0.149	380327	keystroke_t	t	n/a
190.2825	0.1495	380565	keystroke_i	i	n/a
190.3725	0.1195	380745	keystroke_n	n	n/a
190.462	0.15	380924	keystroke_a	a	n/a
190.567	0.12	381134	keystroke_s	s	n/a
190.8975	0.135	381795	keystroke_Key.space	Key.space	n/a
191.2875	0.1355	382575	keystroke_u	u	n/a
191.948	0.15	383896	keystroke_z	z	n/a
192.397	0.135	384794	keystroke_b	b	n/a
193.207	0.1355	386414	keystroke_e	e	n/a
193.4165	0.12	386833	keystroke_k	k	n/a
193.6575	0.104	387315	keystroke_i	i	n/a
193.7465	0.136	387493	keystroke_s	s	n/a
193.8665	0.15	387733	keystroke_t	t	n/a
193.9575	0.15	387915	keystroke_a	a	n/a
194.1225	0.0895	388245	keystroke_n	n	n/a
194.422	0.195	388844	keystroke_Key.enter	Key.enter	n/a
194.6265	6.8635	389253	prompt	n/a	organisations royal holmes learned\n
195.2785	0.06	390557	keystroke_o	o	n/a
195.3835	0.1205	390767	keystroke_r	r	n/a
195.594	0.135	391188	keystroke_g	g	n/a
195.683	0.181	391366	keystroke_a	a	n/a
195.878	0.226	391756	keystroke_n	n	n/a
196.059	0.15	392118	keystroke_i	i	n/a
196.209	0.165	392418	keystroke_s	s	n/a
196.328	0.151	392656	keystroke_a	a	n/a
196.508	0.1505	393016	keystroke_t	t	n/a
196.599	0.2245	393198	keystroke_i	i	n/a
196.6885	0.165	393377	keystroke_o	o	n/a
196.7785	0.09	393557	keystroke_n	n	n/a
196.9575	0.136	393915	keystroke_s	s	n/a
197.0335	0.089	394067	keystroke_Key.space	Key.space	n/a
197.5885	0.135	395177	keystroke_r	r	n/a
197.7085	0.15	395417	keystroke_o	o	n/a
197.8285	0.12	395657	keystroke_y	y	n/a
197.9635	0.195	395927	keystroke_a	a	n/a
198.0835	0.1485	396167	keystroke_l	l	n/a
198.187	0.15	396374	keystroke_Key.space	Key.space	n/a
198.382	0.166	396764	keystroke_h	h	n/a
198.563	0.12	397126	keystroke_o	o	n/a
198.7725	0.119	397545	keystroke_l	l	n/a
199.312	0.09	398624	keystroke_m	m	n/a
199.4475	0.135	398895	keystroke_e	e	n/a
199.5075	0.18	399015	keystroke_s	s	n/a
199.8985	0.089	399797	keystroke_Key.space	Key.space	n/a
199.9885	0.09	399977	keystroke_h	h	n/a
200.4535	0.03	400907	keystroke_Key.backspace	Key.backspace	n/a
200.6485	0.135	401297	keystroke_l	l	n/a
200.7985	0.1045	401597	keystroke_e	e	n/a
200.828	0.165	401656	keystroke_a	a	n/a
200.978	0.1055	401956	keystroke_r	r	n/a
201.0535	0.09	402107	keystroke_n	n	n/a
201.1435	0.15	402287	keystroke_e	e	n/a
201.2785	0.135	402557	keystroke_d	d	n/a
201.3985	0.09	402797	keystroke_Key.enter	Key.enter	n/a
201.4985	5.798	402997	prompt	n/a	verizon mike advances personality\n
202.538	0.09	405076	keystroke_v	v	n/a
202.748	0.18	405496	keystroke_e	e	n/a
202.823	0.12	405646	keystroke_r	r	n/a
202.913	0.165	405826	keystroke_i	i	n/a
203.063	0.12	406126	keystroke_z	z	n/a
203.198	0.135	406396	keystroke_o	o	n/a
203.318	0.18	406636	keystroke_n	n	n/a
203.423	0.135	406846	keystroke_Key.space	Key.space	n/a
203.693	0.105	407386	keystroke_m	m	n/a
203.783	0.09	407566	keystroke_i	i	n/a
203.978	0.105	407956	keystroke_k	k	n/a
204.098	0.105	408196	keystroke_e	e	n/a
204.188	0.135	408376	keystroke_Key.space	Key.space	n/a
204.263	0.165	408526	keystroke_a	a	n/a
204.353	0.105	408706	keystroke_d	d	n/a
204.5785	0.1355	409157	keystroke_v	v	n/a
204.669	0.15	409338	keystroke_a	a	n/a
204.789	0.135	409578	keystroke_n	n	n/a
204.909	0.3445	409818	keystroke_c	c	n/a
205.0585	0.24	410117	keystroke_e	e	n/a
205.2385	0.1805	410477	keystroke_s	s	n/a
205.4785	0.1355	410957	keystroke_Key.space	Key.space	n/a
205.584	0.12	411168	keystroke_p	p	n/a
205.719	0.12	411438	keystroke_e	e	n/a
205.824	0.165	411648	keystroke_r	r	n/a
205.899	0.1355	411798	keystroke_s	s	n/a
205.974	0.1355	411948	keystroke_o	o	n/a
206.0635	0.12	412127	keystroke_n	n	n/a
206.1545	0.1045	412309	keystroke_a	a	n/a
206.289	0.165	412578	keystroke_l	l	n/a
206.394	0.18	412788	keystroke_i	i	n/a
206.799	0.135	413598	keystroke_t	t	n/a
206.949	0.105	413898	keystroke_y	y	n/a
207.219	0.075	414438	keystroke_Key.enter	Key.enter	n/a
207.3035	9.697	414607	prompt	n/a	dying exceptions ignored board\n
208.388	0.09	416776	keystroke_d	d	n/a
208.523	0.105	417046	keystroke_y	y	n/a
208.643	0.105	417286	keystroke_i	i	n/a
208.732	0.09	417464	keystroke_n	n	n/a
208.837	0.045	417674	keystroke_g	g	n/a
208.957	0.105	417914	keystroke_Key.space	Key.space	n/a
209.3775	0.134	418755	keystroke_a	a	n/a
209.782	0.1045	419564	keystroke_Key.backspace	Key.backspace	n/a
209.9015	0.1645	419803	keystroke_e	e	n/a
210.0215	0.1195	420043	keystroke_x	x	n/a
210.261	0.0745	420522	keystroke_x	x	n/a
210.291	0.1045	420582	keystroke_e	e	n/a
210.3505	0.105	420701	keystroke_p	p	n/a
210.5005	0.09	421001	keystroke_t	t	n/a
210.6055	0.105	421211	keystroke_i	i	n/a
210.6505	0.105	421301	keystroke_o	o	n/a
210.6955	0.105	421391	keystroke_n	n	n/a
210.8155	0.075	421631	keystroke_s	s	n/a
210.9955	0.045	421991	keystroke_Key.space	Key.space	n/a
211.4765	0.09	422953	keystroke_Key.backspace	Key.backspace	n/a
211.5815	0.09	423163	keystroke_Key.backspace	Key.backspace	n/a
211.746	0.09	423492	keystroke_Key.backspace	Key.backspace	n/a
211.911	0.0755	423822	keystroke_Key.backspace	Key.backspace	n/a
212.0615	0.045	424123	keystroke_Key.backspace	Key.backspace	n/a
212.1965	0.06	424393	keystroke_Key.backspace	Key.backspace	n/a
212.3315	0.045	424663	keystroke_Key.backspace	Key.backspace	n/a
212.4515	0.06	424903	keystroke_Key.backspace	Key.backspace	n/a
212.602	0.09	425204	keystroke_Key.backspace	Key.backspace	n/a
213.3525	0.165	426705	keystroke_e	e	n/a
213.878	0.12	427756	keystroke_Key.backspace	Key.backspace	n/a
214.4185	0.149	428837	keystroke_c	c	n/a
214.5225	0.12	429045	keystroke_e	e	n/a
214.6125	0.1045	429225	keystroke_p	p	n/a
214.762	0.105	429524	keystroke_t	t	n/a
214.897	0.1355	429794	keystroke_i	i	n/a
215.0035	0.104	430007	keystroke_o	o	n/a
215.0485	0.135	430097	keystroke_n	n	n/a
215.1835	0.149	430367	keystroke_s	s	n/a
215.3625	0.1505	430725	keystroke_Key.space	Key.space	n/a
215.4975	0.1365	430995	keystroke_i	i	n/a
215.753	0.105	431506	keystroke_g	g	n/a
215.843	0.136	431686	keystroke_n	n	n/a
215.918	0.12	431836	keystroke_o	o	n/a
215.993	0.12	431986	keystroke_r	r	n/a
216.069	0.179	432138	keystroke_e	e	n/a
216.233	0.165	432466	keystroke_d	d	n/a
216.308	0.075	432616	keystroke_Key.space	Key.space	n/a
216.429	0.134	432858	keystroke_b	b	n/a
216.488	0.105	432976	keystroke_o	o	n/a
216.608	0.106	433216	keystroke_a	a	n/a
216.684	0.074	433368	keystroke_r	r	n/a
216.803	0.0765	433606	keystroke_d	d	n/a
216.8935	0.105	433787	keystroke_Key.enter	Key.enter	n/a
217.008	5.768	434016	prompt	n/a	attending lightning induced featured\n
217.7045	0.149	435409	keystroke_a	a	n/a
217.8685	0.09	435737	keystroke_t	t	n/a
218.0635	0.12	436127	keystroke_t	t	n/a
218.1545	0.104	436309	keystroke_e	e	n/a
218.2435	0.0905	436487	keystroke_n	n	n/a
218.3495	0.1045	436699	keystroke_d	d	n/a
218.469	0.12	436938	keystroke_i	i	n/a
218.499	0.195	436998	keystroke_n	n	n/a
218.605	0.104	437210	keystroke_g	g	n/a
218.679	0.105	437358	keystroke_Key.space	Key.space	n/a
218.724	0.15	437448	keystroke_l	l	n/a
218.83	0.1495	437660	keystroke_i	i	n/a
218.9345	0.09	437869	keystroke_g	g	n/a
219.0845	0.075	438169	keystroke_h	h	n/a
219.2495	0.06	438499	keystroke_t	t	n/a
219.9095	0.135	439819	keystroke_n	n	n/a
220.0295	0.15	440059	keystroke_i	i	n/a
220.1495	0.105	440299	keystroke_n	n	n/a
220.2695	0.075	440539	keystroke_g	g	n/a
220.4045	0.105	440809	keystroke_Key.space	Key.space	n/a
220.4795	0.135	440959	keystroke_i	i	n/a
220.5695	0.105	441139	keystroke_n	n	n/a
220.6895	0.09	441379	keystroke_d	d	n/a
220.8395	0.09	441679	keystroke_u	u	n/a
220.944	0.12	441888	keystroke_c	c	n/a
221.259	0.181	442518	keystroke_e	e	n/a
221.4545	0.15	442909	keystroke_d	d	n/a
221.5885	0.12	443177	keystroke_Key.space	Key.space	n/a
221.7845	0.195	443569	keystroke_f	f	n/a
221.8895	0.12	443779	keystroke_e	e	n/a
221.9495	0.12	443899	keystroke_a	a	n/a
222.0845	0.135	444169	keystroke_t	t	n/a
222.1445	0.165	444289	keystroke_u	u	n/a
222.2935	0.166	444587	keystroke_r	r	n/a
222.4285	0.135	444857	keystroke_e	e	n/a
222.5495	0.09	445099	keystroke_d	d	n/a
222.6535	0.12	445307	keystroke_Key.enter	Key.enter	n/a
222.784	6.4435	445568	prompt	n/a	algeria powerpoint sees wells\n
223.599	0.135	447198	keystroke_a	a	n/a
223.794	0.15	447588	keystroke_l	l	n/a
224.7545	0.075	449509	keystroke_g	g	n/a
224.9045	0.225	449809	keystroke_e	e	n/a
225.0545	0.12	450109	keystroke_r	r	n/a
225.1585	0.151	450317	keystroke_i	i	n/a
225.2945	0.18	450589	keystroke_a	a	n/a
225.4135	0.196	450827	keystroke_Key.space	Key.space	n/a
225.5345	0.2095	451069	keystroke_p	p	n/a
225.6245	0.1945	451249	keystroke_o	o	n/a
225.774	0.1805	451548	keystroke_w	w	n/a
225.8645	0.2095	451729	keystroke_e	e	n/a
226.014	0.12	452028	keystroke_r	r	n/a
226.149	0.3155	452298	keystroke_p	p	n/a
226.2995	0.225	452599	keystroke_o	o	n/a
226.4345	0.135	452869	keystroke_i	i	n/a
227.5895	0.06	455179	keystroke_n	n	n/a
227.7095	0.09	455419	keystroke_t	t	n/a
227.8745	0.12	455749	keystroke_Key.space	Key.space	n/a
227.9795	0.12	455959	keystroke_s	s	n/a
228.0695	0.105	456139	keystroke_e	e	n/a
228.2795	0.135	456559	keystroke_e	e	n/a
228.3695	0.105	456739	keystroke_s	s	n/a
228.5345	0.105	457069	keystroke_Key.space	Key.space	n/a
228.6245	0.135	457249	keystroke_w	w	n/a
228.6995	0.135	457399	keystroke_e	e	n/a
228.8045	0.075	457609	keystroke_l	l	n/a
228.9395	0.09	457879	keystroke_l	l	n/a
229.0445	0.105	458089	keystroke_s	s	n/a
229.1345	0.09	458269	keystroke_Key.enter	Key.enter	n/a
229.2355	6.471	458471	prompt	n/a	earned encountered canada attempting\n
229.9595	0.135	459919	keystroke_e	e	n/a
230.3045	0.15	460609	keystroke_a	a	n/a
230.4995	0.09	460999	keystroke_r	r	n/a
230.6345	0.1355	461269	keystroke_n	n	n/a
230.7095	0.105	461419	keystroke_e	e	n/a
230.7845	0.12	461569	keystroke_d	d	n/a
230.9195	0.105	461839	keystroke_Key.space	Key.space	n/a
231.115	0.1495	462230	keystroke_e	e	n/a
231.2495	0.1055	462499	keystroke_n	n	n/a
231.444	0.12	462888	keystroke_c	c	n/a
231.504	0.151	463008	keystroke_o	o	n/a
231.594	0.075	463188	keystroke_u	u	n/a
231.8045	0.1205	463609	keystroke_n	n	n/a
231.984	0.031	463968	keystroke_t	t	n/a
232.015	0.165	464030	keystroke_e	e	n/a
232.195	0.135	464390	keystroke_r	r	n/a
232.314	0.165	464628	keystroke_e	e	n/a
232.464	0.121	464928	keystroke_d	d	n/a
232.704	0.075	465408	keystroke_Key.space	Key.space	n/a
233.589	0.091	467178	keystroke_c	c	n/a
233.634	0.12	467268	keystroke_a	a	n/a
233.77	0.134	467540	keystroke_n	n	n/a
233.89	0.149	467780	keystroke_a	a	n/a
234.084	0.15	468168	keystroke_d	d	n/a
234.189	0.15	468378	keystroke_a	a	n/a
234.429	0.1045	468858	keystroke_Key.space	Key.space	n/a
234.579	0.151	469158	keystroke_a	a	n/a
234.714	0.106	469428	keystroke_t	t	n/a
234.895	0.149	469790	keystroke_t	t	n/a
234.955	0.15	469910	keystroke_e	e	n/a
235.03	0.134	470060	keystroke_m	m	n/a
235.134	0.06	470268	keystroke_p	p	n/a
235.209	0.06	470418	keystroke_t	t	n/a
235.314	0.136	470628	keystroke_i	i	n/a
235.375	0.104	470750	keystroke_n	n	n/a
235.464	0.06	470928	keystroke_g	g	n/a
235.584	0.12	471168	keystroke_Key.enter	Key.enter	n/a
235.714	5.196	471428	prompt	n/a	where's aviation other proxy\n
236.6955	0.119	473391	keystroke_w	w	n/a
236.8455	0.15	473691	keystroke_h	h	n/a
236.9205	0.119	473841	keystroke_e	e	n/a
237.0255	0.15	474051	keystroke_r	r	n/a
237.1445	0.091	474289	keystroke_e	e	n/a
237.2655	0.119	474531	keystroke_'	'	n/a
237.4155	0.164	474831	keystroke_s	s	n/a
237.5945	0.135	475189	keystroke_Key.space	Key.space	n/a
237.7605	0.12	475521	keystroke_a	a	n/a
238.0455	0.074	476091	keystroke_v	v	n/a
238.1505	0.134	476301	keystroke_i	i	n/a
238.24	0.1655	476480	keystroke_a	a	n/a
238.375	0.1505	476750	keystroke_t	t	n/a
238.5105	0.0895	477021	keystroke_i	i	n/a
238.57	0.149	477140	keystroke_o	o	n/a
238.645	0.135	477290	keystroke_n	n	n/a
238.749	0.1505	477498	keystroke_Key.space	Key.space	n/a
238.8705	0.12	477741	keystroke_o	o	n/a
239.05	0.12	478100	keystroke_t	t	n/a
239.139	0.1505	478278	keystroke_h	h	n/a
239.2305	0.195	478461	keystroke_e	e	n/a
239.3205	0.12	478641	keystroke_r	r	n/a
239.4095	0.1205	478819	keystroke_Key.space	Key.space	n/a
239.5	0.105	479000	keystroke_p	p	n/a
239.634	0.091	479268	keystroke_r	r	n/a
239.739	0.121	479478	keystroke_o	o	n/a
240.219	0.135	480438	keystroke_x	x	n/a
240.354	0.075	480708	keystroke_y	y	n/a
240.788	0.12	481576	keystroke_Key.enter	Key.enter	n/a
240.918	5.9035	481836	prompt	n/a	plus floating understood organisations\n
241.885	0.179	483770	keystroke_p	p	n/a
241.945	0.164	483890	keystroke_l	l	n/a
242.214	0.106	484428	keystroke_u	u	n/a
242.349	0.135	484698	keystroke_s	s	n/a
242.439	0.1355	484878	keystroke_Key.space	Key.space	n/a
242.5595	0.1805	485119	keystroke_f	f	n/a
242.6345	0.0605	485269	keystroke_l	l	n/a
242.77	0.12	485540	keystroke_o	o	n/a
242.905	0.135	485810	keystroke_a	a	n/a
243.01	0.12	486020	keystroke_t	t	n/a
243.131	0.164	486262	keystroke_i	i	n/a
243.235	0.12	486470	keystroke_n	n	n/a
243.52	0.06	487040	keystroke_g	g	n/a
243.625	0.1195	487250	keystroke_Key.space	Key.space	n/a
243.73	0.1495	487460	keystroke_u	u	n/a
243.7745	0.135	487549	keystroke_n	n	n/a
243.8645	0.1505	487729	keystroke_d	d	n/a
243.9695	0.1505	487939	keystroke_e	e	n/a
244.105	0.165	488210	keystroke_r	r	n/a
244.255	0.135	488510	keystroke_s	s	n/a
244.36	0.12	488720	keystroke_t	t	n/a
244.465	0.045	488930	keystroke_o	o	n/a
244.615	0.12	489230	keystroke_o	o	n/a
244.8095	0.1355	489619	keystroke_d	d	n/a
244.959	0.106	489918	keystroke_Key.space	Key.space	n/a
245.02	0.15	490040	keystroke_o	o	n/a
245.125	0.105	490250	keystroke_r	r	n/a
245.32	0.0905	490640	keystroke_g	g	n/a
245.3955	0.105	490791	keystroke_a	a	n/a
245.4555	0.179	490911	keystroke_n	n	n/a
245.5605	0.15	491121	keystroke_i	i	n/a
246.025	0.12	492050	keystroke_s	s	n/a
246.13	0.15	492260	keystroke_a	a	n/a
246.3245	0.06	492649	keystroke_t	t	n/a
246.3695	0.15	492739	keystroke_i	i	n/a
246.4295	0.1505	492859	keystroke_o	o	n/a
246.4895	0.1055	492979	keystroke_n	n	n/a
246.581	0.089	493162	keystroke_s	s	n/a
246.73	0.0895	493460	keystroke_Key.enter	Key.enter	n/a
246.8275	5.7695	493655	prompt	n/a	explanation warrant wave registered\n
247.6145	0.12	495229	keystroke_e	e	n/a
247.855	0.12	495710	keystroke_x	x	n/a
247.99	0.165	495980	keystroke_p	p	n/a
248.05	0.1955	496100	keystroke_l	l	n/a
248.2005	0.135	496401	keystroke_a	a	n/a
248.485	0.12	496970	keystroke_n	n	n/a
248.634	0.151	497268	keystroke_a	a	n/a
248.7395	0.1655	497479	keystroke_t	t	n/a
248.89	0.1045	497780	keystroke_i	i	n/a
248.9645	0.15	497929	keystroke_o	o	n/a
249.0395	0.12	498079	keystroke_n	n	n/a
249.475	0.165	498950	keystroke_Key.space	Key.space	n/a
249.685	0.165	499370	keystroke_w	w	n/a
249.775	0.195	499550	keystroke_a	a	n/a
249.895	0.105	499790	keystroke_r	r	n/a
250.09	0.135	500180	keystroke_r	r	n/a
250.18	0.135	500360	keystroke_a	a	n/a
250.36	0.135	500720	keystroke_n	n	n/a
250.525	0.105	501050	keystroke_t	t	n/a
250.645	0.135	501290	keystroke_Key.space	Key.space	n/a
250.72	0.105	501440	keystroke_w	w	n/a
250.765	0.165	501530	keystroke_a	a	n/a
250.96	0.165	501920	keystroke_v	v	n/a
251.126	0.134	502252	keystroke_e	e	n/a
251.23	0.15	502460	keystroke_Key.space	Key.space	n/a
251.455	0.1355	502910	keystroke_r	r	n/a
251.5455	0.089	503091	keystroke_e	e	n/a
251.7255	0.1045	503451	keystroke_g	g	n/a
251.7555	0.165	503511	keystroke_i	i	n/a
251.8895	0.075	503779	keystroke_s	s	n/a
251.9495	0.121	503899	keystroke_t	t	n/a
252.0545	0.135	504109	keystroke_e	e	n/a
252.1755	0.12	504351	keystroke_r	r	n/a
252.2655	0.15	504531	keystroke_e	e	n/a
252.3855	0.135	504771	keystroke_d	d	n/a
252.4595	0.135	504919	keystroke_Key.enter	Key.enter	n/a
252.6035	12.4585	505207	prompt	n/a	representations syntax stores graduated\n
253.3755	0.18	506751	keystroke_r	r	n/a
253.4795	0.121	506959	keystroke_e	e	n/a
253.5705	0.1495	507141	keystroke_p	p	n/a
253.78	0.1505	507560	keystroke_r	r	n/a
253.87	0.1195	507740	keystroke_e	e	n/a
253.9005	0.194	507801	keystroke_s	s	n/a
254.1095	0.1205	508219	keystroke_e	e	n/a
254.26	0.135	508520	keystroke_n	n	n/a
254.365	0.1055	508730	keystroke_t	t	n/a
254.455	0.12	508910	keystroke_a	a	n/a
254.53	0.135	509060	keystroke_t	t	n/a
254.59	0.135	509180	keystroke_i	i	n/a
254.665	0.18	509330	keystroke_o	o	n/a
254.74	0.12	509480	keystroke_n	n	n/a
254.875	0.105	509750	keystroke_s	s	n/a
255.04	0.075	510080	keystroke_Key.space	Key.space	n/a
255.13	0.1345	510260	keystroke_s	s	n/a
255.2795	0.09	510559	keystroke_Key.left	Key.left	n/a
255.3095	0.09	510619	keystroke_y	y	n/a
255.5945	0.105	511189	keystroke_n	n	n/a
255.7295	0.09	511459	keystroke_t	t	n/a
255.8045	0.135	511609	keystroke_a	a	n/a
256.2095	0.1355	512419	keystroke_z	z	n/a
257.845	0.09	515690	keystroke_Key.right	Key.right	n/a
258.325	0.09	516650	keystroke_Key.backspace	Key.backspace	n/a
258.55	0.045	517100	keystroke_Key.backspace	Key.backspace	n/a
258.73	0.075	517460	keystroke_Key.backspace	Key.backspace	n/a
258.94	0.045	517880	keystroke_Key.backspace	Key.backspace	n/a
259.105	0.075	518210	keystroke_Key.backspace	Key.backspace	n/a
259.36	0.12	518720	keystroke_Key.backspace	Key.backspace	n/a
259.945	0.195	519890	keystroke_s	s	n/a
260.17	0.0905	520340	keystroke_y	y	n/a
260.2755	0.1795	520551	keystroke_n	n	n/a
260.425	0.105	520850	keystroke_t	t	n/a
260.515	0.09	521030	keystroke_a	a	n/a
261.04	0.09	522080	keystroke_x	x	n/a
261.4	0.1345	522800	keystroke_Key.space	Key.space	n/a
261.6845	0.15	523369	keystroke_s	s	n/a
261.8195	0.106	523639	keystroke_t	t	n/a
261.955	0.1045	523910	keystroke_o	o	n/a
262.03	0.1945	524060	keystroke_r	r	n/a
262.1345	0.12	524269	keystroke_e	e	n/a
262.1805	0.119	524361	keystroke_s	s	n/a
262.3445	0.105	524689	keystroke_Key.space	Key.space	n/a
262.6745	0.075	525349	keystroke_g	g	n/a
263.005	0.15	526010	keystroke_r	r	n/a
263.291	0.134	526582	keystroke_a	a	n/a
263.9645	0.136	527929	keystroke_d	d	n/a
264.16	0.1205	528320	keystroke_u	u	n/a
264.3405	0.15	528681	keystroke_a	a	n/a
264.565	0.105	529130	keystroke_t	t	n/a
264.73	0.135	529460	keystroke_e	e	n/a
264.82	0.135	529640	keystroke_d	d	n/a
264.97	0.09	529940	keystroke_Key.enter	Key.enter	n/a
265.067	6.2055	530134	prompt	n/a	configuring volkswagen relative knife\n
265.9605	0.135	531921	keystroke_c	c	n/a
266.0655	0.105	532131	keystroke_o	o	n/a
266.1405	0.119	532281	keystroke_n	n	n/a
266.2155	0.119	532431	keystroke_f	f	n/a
266.3205	0.089	532641	keystroke_i	i	n/a
266.4555	0.0595	532911	keystroke_g	g	n/a
266.546	0.1195	533092	keystroke_u	u	n/a
266.6795	0.075	533359	keystroke_r	r	n/a
266.7695	0.121	533539	keystroke_i	i	n/a
266.8295	0.1215	533659	keystroke_n	n	n/a
266.9055	0.0745	533811	keystroke_g	g	n/a
267.0845	0.12	534169	keystroke_Key.space	Key.space	n/a
267.49	0.076	534980	keystroke_v	v	n/a
267.581	0.1185	535162	keystroke_o	o	n/a
267.8045	0.121	535609	keystroke_l	l	n/a
267.9095	0.2105	535819	keystroke_k	k	n/a
268.046	0.089	536092	keystroke_s	s	n/a
268.2405	0.119	536481	keystroke_w	w	n/a
268.3005	0.149	536601	keystroke_a	a	n/a
268.6155	0.06	537231	keystroke_g	g	n/a
268.7505	0.195	537501	keystroke_o	o	n/a
268.8845	0.151	537769	keystroke_n	n	n/a
269.0495	0.12	538099	keystroke_Key.space	Key.space	n/a
269.275	0.165	538550	keystroke_r	r	n/a
269.35	0.106	538700	keystroke_e	e	n/a
269.425	0.15	538850	keystroke_l	l	n/a
269.516	0.12	539032	keystroke_a	a	n/a
269.621	0.104	539242	keystroke_t	t	n/a
269.726	0.15	539452	keystroke_i	i	n/a
269.877	0.149	539754	keystroke_v	v	n/a
269.965	0.12	539930	keystroke_e	e	n/a
270.145	0.12	540290	keystroke_Key.space	Key.space	n/a
270.61	0.15	541220	keystroke_k	k	n/a
270.716	0.164	541432	keystroke_n	n	n/a
270.881	0.104	541762	keystroke_i	i	n/a
270.97	0.106	541940	keystroke_f	f	n/a
271.015	0.166	542030	keystroke_e	e	n/a
271.15	0.12	542300	keystroke_Key.enter	Key.enter	n/a
271.279	7.0895	542558	prompt	n/a	extras communities safer influences\n
272.006	0.165	544012	keystroke_e	e	n/a
272.5005	0.105	545001	keystroke_x	x	n/a
272.786	0.075	545572	keystroke_t	t	n/a
272.966	0.12	545932	keystroke_r	r	n/a
273.041	0.18	546082	keystroke_a	a	n/a
273.191	0.135	546382	keystroke_s	s	n/a
273.446	0.104	546892	keystroke_Key.space	Key.space	n/a
273.566	0.09	547132	keystroke_c	c	n/a
273.596	0.12	547192	keystroke_o	o	n/a
273.671	0.075	547342	keystroke_m	m	n/a
273.881	0.044	547762	keystroke_m	m	n/a
274.2405	0.1505	548481	keystroke_u	u	n/a
274.585	0.0905	549170	keystroke_n	n	n/a
275.0655	0.135	550131	keystroke_i	i	n/a
275.456	0.104	550912	keystroke_t	t	n/a
275.575	0.135	551150	keystroke_i	i	n/a
275.695	0.1355	551390	keystroke_e	e	n/a
275.8005	0.105	551601	keystroke_s	s	n/a
276.0705	0.12	552141	keystroke_Key.space	Key.space	n/a
276.2205	0.135	552441	keystroke_s	s	n/a
276.3105	0.2395	552621	keystroke_a	a	n/a
276.491	0.134	552982	keystroke_f	f	n/a
276.656	0.2845	553312	keystroke_e	e	n/a
276.805	0.1505	553610	keystroke_r	r	n/a
276.85	0.1065	553700	keystroke_Key.space	Key.space	n/a
276.9105	0.1495	553821	keystroke_i	i	n/a
276.9855	0.1195	553971	keystroke_n	n	n/a
277.12	0.12	554240	keystroke_f	f	n/a
277.21	0.1655	554420	keystroke_l	l	n/a
277.3155	0.165	554631	keystroke_u	u	n/a
277.705	0.135	555410	keystroke_e	e	n/a
277.946	0.105	555892	keystroke_n	n	n/a
278.066	0.105	556132	keystroke_c	c	n/a
278.111	0.12	556222	keystroke_e	e	n/a
278.186	0.12	556372	keystroke_s	s	n/a
278.261	0.105	556522	keystroke_Key.enter	Key.enter	n/a
278.378	4.8355	556756	prompt	n/a	literally samsung heading personals\n
279.1305	0.135	558261	keystroke_l	l	n/a
279.2205	0.1655	558441	keystroke_i	i	n/a
279.341	0.075	558682	keystroke_t	t	n/a
279.431	0.1345	558862	keystroke_e	e	n/a
279.506	0.1195	559012	keystroke_r	r	n/a
279.5955	0.09	559191	keystroke_a	a	n/a
279.6555	0.075	559311	keystroke_l	l	n/a
279.8055	0.12	559611	keystroke_l	l	n/a
279.8805	0.1055	559761	keystroke_y	y	n/a
280.001	0.1345	560002	keystroke_Key.space	Key.space	n/a
280.0905	0.165	560181	keystroke_s	s	n/a
280.1805	0.18	560361	keystroke_a	a	n/a
280.4505	0.135	560901	keystroke_m	m	n/a
280.6005	0.105	561201	keystroke_s	s	n/a
280.7205	0.165	561441	keystroke_u	u	n/a
280.7955	0.1205	561591	keystroke_n	n	n/a
280.991	0.1045	561982	keystroke_g	g	n/a
281.2305	0.09	562461	keystroke_Key.space	Key.space	n/a
281.531	0.0745	563062	keystroke_h	h	n/a
281.6355	0.09	563271	keystroke_e	e	n/a
281.6655	0.1945	563331	keystroke_a	a	n/a
281.8305	0.1355	563661	keystroke_d	d	n/a
281.95	0.1345	563900	keystroke_i	i	n/a
282.0105	0.1355	564021	keystroke_n	n	n/a
282.131	0.105	564262	keystroke_g	g	n/a
282.221	0.12	564442	keystroke_Key.space	Key.space	n/a
282.251	0.12	564502	keystroke_p	p	n/a
282.326	0.09	564652	keystroke_e	e	n/a
282.386	0.18	564772	keystroke_r	r	n/a
282.446	0.165	564892	keystroke_s	s	n/a
282.58	0.121	565160	keystroke_o	o	n/a
282.626	0.12	565252	keystroke_n	n	n/a
282.776	0.06	565552	keystroke_a	a	n/a
282.805	0.106	565610	keystroke_l	l	n/a
283.016	0.105	566032	keystroke_s	s	n/a
283.136	0.074	566272	keystroke_Key.enter	Key.enter	n/a
283.221	6.5315	566442	prompt	n/a	correct atlanta essentially personality\n
284.0355	0.09	568071	keystroke_c	c	n/a
284.2005	0.105	568401	keystroke_o	o	n/a
284.3065	0.044	568613	keystroke_r	r	n/a
284.4705	0.0905	568941	keystroke_r	r	n/a
284.5155	0.135	569031	keystroke_e	e	n/a
284.802	0.224	569604	keystroke_c	c	n/a
284.936	0.105	569872	keystroke_t	t	n/a
285.1455	0.135	570291	keystroke_Key.space	Key.space	n/a
285.4305	0.12	570861	keystroke_a	a	n/a
285.955	0.076	571910	keystroke_t	t	n/a
286.046	0.105	572092	keystroke_l	l	n/a
286.18	0.136	572360	keystroke_a	a	n/a
286.285	0.136	572570	keystroke_n	n	n/a
286.511	0.0755	573022	keystroke_t	t	n/a
286.7205	0.165	573441	keystroke_a	a	n/a
286.976	0.105	573952	keystroke_Key.space	Key.space	n/a
287.1405	0.135	574281	keystroke_e	e	n/a
287.2305	0.12	574461	keystroke_s	s	n/a
287.4405	0.1805	574881	keystroke_s	s	n/a
287.5155	0.1795	575031	keystroke_e	e	n/a
287.68	0.1355	575360	keystroke_n	n	n/a
287.8455	0.1055	575691	keystroke_t	t	n/a
287.936	0.105	575872	keystroke_i	i	n/a
288.026	0.0895	576052	keystroke_a	a	n/a
288.1755	0.06	576351	keystroke_l	l	n/a
288.2955	0.1055	576591	keystroke_l	l	n/a
288.386	0.09	576772	keystroke_y	y	n/a
288.491	0.119	576982	keystroke_Key.space	Key.space	n/a
288.521	0.12	577042	keystroke_p	p	n/a
288.626	0.105	577252	keystroke_e	e	n/a
288.701	0.2095	577402	keystroke_r	r	n/a
288.8355	0.15	577671	keystroke_s	s	n/a
288.8955	0.135	577791	keystroke_o	o	n/a
289.0005	0.1055	578001	keystroke_n	n	n/a
289.076	0.1195	578152	keystroke_a	a	n/a
289.2105	0.135	578421	keystroke_l	l	n/a
289.3005	0.1205	578601	keystroke_i	i	n/a
289.406	0.075	578812	keystroke_t	t	n/a
289.526	0.03	579052	keystroke_y	y	n/a
289.661	0.09	579322	keystroke_Key.enter	Key.enter	n/a
289.759	5.604	579518	prompt	n/a	desert colors refuse readings\n
290.756	0.2405	581512	keystroke_d	d	n/a
290.891	0.1195	581782	keystroke_e	e	n/a
290.9965	0.1935	581993	keystroke_s	s	n/a
291.1005	0.2105	582201	keystroke_e	e	n/a
291.236	0.134	582472	keystroke_r	r	n/a
291.4765	0.09	582953	keystroke_t	t	n/a
291.6105	0.15	583221	keystroke_Key.space	Key.space	n/a
291.7015	0.134	583403	keystroke_c	c	n/a
291.7905	0.106	583581	keystroke_o	o	n/a
291.986	0.12	583972	keystroke_l	l	n/a
292.1805	0.135	584361	keystroke_o	o	n/a
292.2855	0.12	584571	keystroke_r	r	n/a
292.3755	0.135	584751	keystroke_s	s	n/a
292.5105	0.105	585021	keystroke_Key.space	Key.space	n/a
292.6165	0.119	585233	keystroke_r	r	n/a
292.6905	0.105	585381	keystroke_e	e	n/a
292.8705	0.135	585741	keystroke_f	f	n/a
292.9605	0.15	585921	keystroke_u	u	n/a
293.0805	0.135	586161	keystroke_s	s	n/a
293.1555	0.195	586311	keystroke_e	e	n/a
293.3355	0.135	586671	keystroke_Key.space	Key.space	n/a
293.4715	0.089	586943	keystroke_r	r	n/a
293.6205	0.1205	587241	keystroke_r	r	n/a
293.726	0.0895	587452	keystroke_e	e	n/a
294.0855	0.09	588171	keystroke_Key.backspace	Key.backspace	n/a
294.3555	0.135	588711	keystroke_Key.backspace	Key.backspace	n/a
294.5205	0.12	589041	keystroke_e	e	n/a
294.6105	0.165	589221	keystroke_a	a	n/a
294.8205	0.105	589641	keystroke_d	d	n/a
294.9405	0.12	589881	keystroke_i	i	n/a
294.9705	0.15	589941	keystroke_n	n	n/a
295.0905	0.09	590181	keystroke_g	g	n/a
295.1505	0.135	590301	keystroke_s	s	n/a
295.2705	0.09	590541	keystroke_Key.enter	Key.enter	n/a
295.3695	6.4735	590739	prompt	n/a	representing charging households purchased\n
296.0805	0.18	592161	keystroke_r	r	n/a
296.1855	0.135	592371	keystroke_e	e	n/a
296.3055	0.15	592611	keystroke_p	p	n/a
296.4405	0.15	592881	keystroke_r	r	n/a
296.5005	0.12	593001	keystroke_e	e	n/a
296.5605	0.165	593121	keystroke_s	s	n/a
296.6955	0.12	593391	keystroke_e	e	n/a
296.8455	0.135	593691	keystroke_n	n	n/a
296.9655	0.045	593931	keystroke_t	t	n/a
297.071	0.1345	594142	keystroke_i	i	n/a
297.1455	0.121	594291	keystroke_n	n	n/a
297.2205	0.06	594441	keystroke_g	g	n/a
297.3255	0.12	594651	keystroke_Key.space	Key.space	n/a
297.4155	0.12	594831	keystroke_c	c	n/a
297.5955	0.15	595191	keystroke_h	h	n/a
297.7005	0.15	595401	keystroke_a	a	n/a
297.8055	0.105	595611	keystroke_r	r	n/a
298.0155	0.12	596031	keystroke_g	g	n/a
298.1205	0.135	596241	keystroke_i	i	n/a
298.1805	0.12	596361	keystroke_n	n	n/a
298.3155	0.075	596631	keystroke_g	g	n/a
298.5255	0.1055	597051	keystroke_Key.space	Key.space	n/a
299.381	0.09	598762	keystroke_h	h	n/a
299.486	0.135	598972	keystroke_o	o	n/a
299.561	0.1195	599122	keystroke_u	u	n/a
299.621	0.1495	599242	keystroke_s	s	n/a
299.6815	0.149	599363	keystroke_e	e	n/a
299.8005	0.12	599601	keystroke_h	h	n/a
299.8455	0.12	599691	keystroke_o	o	n/a
300.0705	0.12	600141	keystroke_l	l	n/a
300.2205	0.1505	600441	keystroke_d	d	n/a
300.3105	0.1655	600621	keystroke_s	s	n/a
300.5655	0.12	601131	keystroke_Key.space	Key.space	n/a
300.7305	0.12	601461	keystroke_p	p	n/a
300.8655	0.1355	601731	keystroke_u	u	n/a
301.046	0.0745	602092	keystroke_r	r	n/a
301.2555	0.135	602511	keystroke_h	h	n/a
301.2705	0.105	602541	keystroke_c	c	n/a
301.3605	0.12	602721	keystroke_a	a	n/a
301.4355	0.195	602871	keystroke_s	s	n/a
301.5255	0.15	603051	keystroke_e	e	n/a
301.6455	0.12	603291	keystroke_d	d	n/a
301.7205	0.12	603441	keystroke_Key.enter	Key.enter	n/a
301.8495	5.423	603699	prompt	n/a	twist featuring industry artistic\n
302.7705	0.1505	605541	keystroke_t	t	n/a
302.8455	0.1055	605691	keystroke_w	w	n/a
302.936	0.1645	605872	keystroke_i	i	n/a
303.1305	0.1955	606261	keystroke_s	s	n/a
303.267	0.164	606534	keystroke_t	t	n/a
303.446	0.15	606892	keystroke_Key.space	Key.space	n/a
303.8205	0.2105	607641	keystroke_f	f	n/a
303.9255	0.1505	607851	keystroke_e	e	n/a
304.046	0.1195	608092	keystroke_a	a	n/a
304.1505	0.105	608301	keystroke_t	t	n/a
304.2255	0.15	608451	keystroke_u	u	n/a
304.3455	0.15	608691	keystroke_r	r	n/a
304.571	0.165	609142	keystroke_i	i	n/a
304.661	0.105	609322	keystroke_n	n	n/a
304.811	0.075	609622	keystroke_g	g	n/a
304.931	0.1195	609862	keystroke_Key.space	Key.space	n/a
305.0805	0.12	610161	keystroke_i	i	n/a
305.1415	0.105	610283	keystroke_n	n	n/a
305.2615	0.1195	610523	keystroke_d	d	n/a
305.366	0.12	610732	keystroke_u	u	n/a
305.411	0.12	610822	keystroke_s	s	n/a
305.576	0.165	611152	keystroke_t	t	n/a
305.666	0.135	611332	keystroke_r	r	n/a
305.756	0.1205	611512	keystroke_y	y	n/a
305.9055	0.105	611811	keystroke_Key.space	Key.space	n/a
306.0855	0.135	612171	keystroke_a	a	n/a
306.1905	0.105	612381	keystroke_r	r	n/a
306.4015	0.09	612803	keystroke_t	t	n/a
306.5205	0.15	613041	keystroke_i	i	n/a
306.6865	0.149	613373	keystroke_s	s	n/a
306.7765	0.104	613553	keystroke_t	t	n/a
306.8515	0.134	613703	keystroke_i	i	n/a
307.0615	0.105	614123	keystroke_c	c	n/a
307.2105	0.06	614421	keystroke_Key.enter	Key.enter	n/a
307.279	6.819	614558	prompt	n/a	warned headquarters europe messenger\n
308.0965	0.18	616193	keystroke_w	w	n/a
308.2305	0.241	616461	keystroke_a	a	n/a
308.4865	0.119	616973	keystroke_r	r	n/a
308.7115	0.134	617423	keystroke_n	n	n/a
308.8605	0.21	617721	keystroke_e	e	n/a
308.9505	0.195	617901	keystroke_d	d	n/a
309.1755	0.12	618351	keystroke_Key.space	Key.space	n/a
309.2505	0.18	618501	keystroke_h	h	n/a
309.4005	0.12	618801	keystroke_e	e	n/a
309.6405	0.12	619281	keystroke_d	d	n/a
310.0905	0.105	620181	keystroke_Key.backspace	Key.backspace	n/a
310.2105	0.18	620421	keystroke_a	a	n/a
310.3605	0.09	620721	keystroke_d	d	n/a
310.5255	0.135	621051	keystroke_q	q	n/a
310.6465	0.134	621293	keystroke_u	u	n/a
310.7355	0.135	621471	keystroke_a	a	n/a
310.8405	0.12	621681	keystroke_r	r	n/a
311.0665	0.089	622133	keystroke_t	t	n/a
311.1705	0.165	622341	keystroke_e	e	n/a
311.2755	0.135	622551	keystroke_r	r	n/a
311.3805	0.135	622761	keystroke_s	s	n/a
311.5305	0.12	623061	keystroke_Key.space	Key.space	n/a
311.8155	0.121	623631	keystroke_e	e	n/a
311.9205	0.105	623841	keystroke_u	u	n/a
312.0555	0.15	624111	keystroke_r	r	n/a
312.1605	0.165	624321	keystroke_o	o	n/a
312.2355	0.165	624471	keystroke_p	p	n/a
312.4615	0.105	624923	keystroke_e	e	n/a
312.5955	0.105	625191	keystroke_Key.space	Key.space	n/a
312.8505	0.12	625701	keystroke_m	m	n/a
312.9855	0.15	625971	keystroke_e	e	n/a
313.0605	0.105	626121	keystroke_s	s	n/a
313.2555	0.09	626511	keystroke_s	s	n/a
313.3005	0.195	626601	keystroke_e	e	n/a
313.4965	0.1345	626993	keystroke_n	n	n/a
313.646	0.0755	627292	keystroke_g	g	n/a
313.767	0.1335	627534	keystroke_e	e	n/a
313.841	0.1195	627682	keystroke_r	r	n/a
314.0055	0.09	628011	keystroke_Key.enter	Key.enter	n/a
314.1055	6.5325	628211	prompt	n/a	selected hearts recommendations organic\n
314.9055	0.09	629811	keystroke_s	s	n/a
314.9665	0.104	629933	keystroke_e	e	n/a
315.0865	0.134	630173	keystroke_l	l	n/a
315.146	0.2255	630292	keystroke_e	e	n/a
315.3115	0.135	630623	keystroke_c	c	n/a
315.4305	0.076	630861	keystroke_t	t	n/a
315.5965	0.104	631193	keystroke_e	e	n/a
315.6865	0.119	631373	keystroke_d	d	n/a
316.2855	0.105	632571	keystroke_Key.space	Key.space	n/a
316.5115	0.1045	633023	keystroke_h	h	n/a
316.571	0.1205	633142	keystroke_e	e	n/a
316.6765	0.135	633353	keystroke_a	a	n/a
316.7965	0.105	633593	keystroke_r	r	n/a
317.0665	0.105	634133	keystroke_t	t	n/a
317.1565	0.105	634313	keystroke_s	s	n/a
317.2765	0.12	634553	keystroke_Key.space	Key.space	n/a
317.6665	0.075	635333	keystroke_r	r	n/a
317.7115	0.09	635423	keystroke_e	e	n/a
317.8765	0.12	635753	keystroke_c	c	n/a
317.9515	0.149	635903	keystroke_o	o	n/a
318.0265	0.1345	636053	keystroke_m	m	n/a
318.266	0.18	636532	keystroke_m	m	n/a
318.6865	0.119	637373	keystroke_e	e	n/a
318.8365	0.119	637673	keystroke_n	n	n/a
318.9115	0.105	637823	keystroke_d	d	n/a
319.0005	0.181	638001	keystroke_a	a	n/a
319.1665	0.119	638333	keystroke_t	t	n/a
319.2415	0.164	638483	keystroke_i	i	n/a
319.3165	0.149	638633	keystroke_o	o	n/a
319.3905	0.12	638781	keystroke_n	n	n/a
319.5115	0.134	639023	keystroke_s	s	n/a
319.6005	0.135	639201	keystroke_Key.space	Key.space	n/a
319.6305	0.136	639261	keystroke_o	o	n/a
319.7205	0.105	639441	keystroke_r	r	n/a
319.9455	0.136	639891	keystroke_g	g	n/a
320.0515	0.149	640103	keystroke_a	a	n/a
320.1555	0.165	640311	keystroke_n	n	n/a
320.261	0.1345	640522	keystroke_i	i	n/a
320.4115	0.06	640823	keystroke_z	z	n/a
320.5605	0.075	641121	keystroke_Key.enter	Key.enter	n/a
320.644	9.5045	641288	prompt	n/a	policy room deals thousand\n
321.6555	0.136	643311	keystroke_p	p	n/a
321.7615	0.0745	643523	keystroke_o	o	n/a
321.955	0.076	643910	keystroke_l	l	n/a
322.1215	0.075	644243	keystroke_i	i	n/a
322.2255	0.0905	644451	keystroke_c	c	n/a
322.33	0.076	644660	keystroke_i	i	n/a
322.586	0.09	645172	keystroke_y	y	n/a
323.08	0.09	646160	keystroke_Key.space	Key.space	n/a
323.7255	0.076	647451	keystroke_Key.backspace	Key.backspace	n/a
323.9055	0.045	647811	keystroke_Key.backspace	Key.backspace	n/a
324.1315	0.0895	648263	keystroke_Key.backspace	Key.backspace	n/a
325.4515	0.12	650903	keystroke_y	y	n/a
325.6915	0.09	651383	keystroke_Key.space	Key.space	n/a
326.0515	0.135	652103	keystroke_r	r	n/a
326.1415	0.09	652283	keystroke_o	o	n/a
326.3515	0.165	652703	keystroke_o	o	n/a
326.3965	0.165	652793	keystroke_m	m	n/a
327.0115	0.075	654023	keystroke_Key.backspace	Key.backspace	n/a
327.762	0.12	655524	keystroke_m	m	n/a
327.867	0.134	655734	keystroke_Key.space	Key.space	n/a
327.972	0.254	655944	keystroke_d	d	n/a
328.092	0.149	656184	keystroke_e	e	n/a
328.228	0.089	656456	keystroke_a	a	n/a
328.271	0.166	656542	keystroke_l	l	n/a
328.422	0.1035	656844	keystroke_s	s	n/a
328.5415	0.1205	657083	keystroke_Key.space	Key.space	n/a
328.812	0.105	657624	keystroke_t	t	n/a
328.902	0.2245	657804	keystroke_h	h	n/a
329.1715	0.195	658343	keystroke_o	o	n/a
329.3215	0.165	658643	keystroke_u	u	n/a
329.5005	0.136	659001	keystroke_s	s	n/a
329.6215	0.1195	659243	keystroke_a	a	n/a
329.771	0.105	659542	keystroke_n	n	n/a
329.9065	0.075	659813	keystroke_d	d	n/a
330.026	0.1195	660052	keystroke_Key.enter	Key.enter	n/a
330.1555	5.213	660311	prompt	n/a	things expression master artist\n
330.8965	0.12	661793	keystroke_t	t	n/a
330.9565	0.1045	661913	keystroke_h	h	n/a
331.046	0.15	662092	keystroke_i	i	n/a
331.121	0.12	662242	keystroke_n	n	n/a
331.181	0.1505	662362	keystroke_g	g	n/a
331.3765	0.105	662753	keystroke_Key.space	Key.space	n/a
331.7515	0.075	663503	keystroke_Key.backspace	Key.backspace	n/a
331.8115	0.12	663623	keystroke_s	s	n/a
331.9915	0.1195	663983	keystroke_Key.space	Key.space	n/a
332.066	0.1355	664132	keystroke_e	e	n/a
332.1715	0.105	664343	keystroke_x	x	n/a
332.2615	0.12	664523	keystroke_p	p	n/a
332.4865	0.18	664973	keystroke_r	r	n/a
332.606	0.0905	665212	keystroke_e	e	n/a
332.636	0.1055	665272	keystroke_s	s	n/a
332.8015	0.15	665603	keystroke_s	s	n/a
332.8915	0.1795	665783	keystroke_i	i	n/a
332.9665	0.1645	665933	keystroke_o	o	n/a
333.071	0.1355	666142	keystroke_n	n	n/a
333.146	0.1205	666292	keystroke_Key.space	Key.space	n/a
333.3115	0.165	666623	keystroke_m	m	n/a
333.4915	0.1795	666983	keystroke_a	a	n/a
333.656	0.135	667312	keystroke_s	s	n/a
333.881	0.06	667762	keystroke_t	t	n/a
334.001	0.24	668002	keystroke_e	e	n/a
334.166	0.135	668332	keystroke_r	r	n/a
334.316	0.1645	668632	keystroke_Key.space	Key.space	n/a
334.4215	0.15	668843	keystroke_a	a	n/a
334.5265	0.1345	669053	keystroke_r	r	n/a
334.7665	0.09	669533	keystroke_t	t	n/a
334.8265	0.195	669653	keystroke_i	i	n/a
334.9765	0.165	669953	keystroke_s	s	n/a
335.0975	0.074	670195	keystroke_t	t	n/a
335.2015	0.165	670403	keystroke_Key.enter	Key.enter	n/a
335.3755	6.323	670751	prompt	n/a	anticipated performer yourself cook\n
336.0565	0.225	672113	keystroke_a	a	n/a
336.5215	0.135	673043	keystroke_n	n	n/a
336.6715	0.12	673343	keystroke_t	t	n/a
336.8065	0.2105	673613	keystroke_i	i	n/a
337.077	0.135	674154	keystroke_c	c	n/a
337.272	0.165	674544	keystroke_i	i	n/a
337.542	0.135	675084	keystroke_p	p	n/a
337.7965	0.121	675593	keystroke_a	a	n/a
337.9475	0.104	675895	keystroke_t	t	n/a
338.1265	0.121	676253	keystroke_e	e	n/a
338.2015	0.15	676403	keystroke_d	d	n/a
338.3665	0.12	676733	keystroke_Key.space	Key.space	n/a
338.4565	0.135	676913	keystroke_p	p	n/a
338.6075	0.12	677215	keystroke_e	e	n/a
338.6665	0.105	677333	keystroke_r	r	n/a
338.8325	0.12	677665	keystroke_f	f	n/a
338.9225	0.104	677845	keystroke_o	o	n/a
339.0565	0.12	678113	keystroke_r	r	n/a
339.2075	0.12	678415	keystroke_m	m	n/a
339.3275	0.27	678655	keystroke_e	e	n/a
339.4925	0.12	678985	keystroke_r	r	n/a
339.6865	0.0745	679373	keystroke_Key.space	Key.space	n/a
339.9715	0.075	679943	keystroke_y	y	n/a
340.0315	0.2105	680063	keystroke_o	o	n/a
340.182	0.1795	680364	keystroke_u	u	n/a
340.3015	0.1645	680603	keystroke_r	r	n/a
340.4065	0.1345	680813	keystroke_s	s	n/a
340.481	0.1355	680962	keystroke_e	e	n/a
340.632	0.1345	681264	keystroke_l	l	n/a
340.7815	0.075	681563	keystroke_f	f	n/a
340.9165	0.12	681833	keystroke_Key.space	Key.space	n/a
340.9615	0.12	681923	keystroke_c	c	n/a
341.1115	0.075	682223	keystroke_o	o	n/a
341.3065	0.165	682613	keystroke_o	o	n/a
341.3965	0.105	682793	keystroke_k	k	n/a
341.6065	0.09	683213	keystroke_Key.enter	Key.enter	n/a
341.705	6.1135	683410	prompt	n/a	invest roman aluminium prime\n
342.5665	0.135	685133	keystroke_i	i	n/a
342.6715	0.12	685343	keystroke_n	n	n/a
342.7925	0.119	685585	keystroke_v	v	n/a
342.8815	0.12	685763	keystroke_e	e	n/a
342.9865	0.12	685973	keystroke_s	s	n/a
343.0915	0.09	686183	keystroke_t	t	n/a
343.1965	0.135	686393	keystroke_Key.space	Key.space	n/a
343.3165	0.105	686633	keystroke_r	r	n/a
343.3765	0.15	686753	keystroke_o	o	n/a
343.4515	0.15	686903	keystroke_m	m	n/a
343.6165	0.105	687233	keystroke_a	a	n/a
343.7065	0.135	687413	keystroke_n	n	n/a
343.8115	0.135	687623	keystroke_Key.space	Key.space	n/a
344.0215	0.135	688043	keystroke_a	a	n/a
344.1415	0.105	688283	keystroke_l	l	n/a
344.382	0.1045	688764	keystroke_u	u	n/a
344.6815	0.136	689363	keystroke_m	m	n/a
345.4165	0.12	690833	keystroke_i	i	n/a
345.7625	0.1195	691525	keystroke_n	n	n/a
346.047	0.105	692094	keystroke_i	i	n/a
346.167	0.09	692334	keystroke_u	u	n/a
346.392	0.105	692784	keystroke_m	m	n/a
347.097	0.1195	694194	keystroke_Key.space	Key.space	n/a
347.2015	0.1205	694403	keystroke_p	p	n/a
347.337	0.0755	694674	keystroke_r	r	n/a
347.4265	0.1495	694853	keystroke_i	i	n/a
347.4875	0.1195	694975	keystroke_m	m	n/a
347.591	0.106	695182	keystroke_e	e	n/a
347.711	0.1055	695422	keystroke_Key.enter	Key.enter	n/a
347.8295	6.9345	695659	prompt	n/a	offer polished hayes southern\n
348.597	0.0895	697194	keystroke_o	o	n/a
348.9265	0.0605	697853	keystroke_f	f	n/a
349.107	0.075	698214	keystroke_f	f	n/a
349.242	0.225	698484	keystroke_e	e	n/a
349.361	0.121	698722	keystroke_r	r	n/a
349.421	0.195	698842	keystroke_Key.space	Key.space	n/a
349.556	0.195	699112	keystroke_p	p	n/a
349.752	0.09	699504	keystroke_o	o	n/a
349.932	0.105	699864	keystroke_l	l	n/a
350.1715	0.12	700343	keystroke_i	i	n/a
350.3365	0.1355	700673	keystroke_f	f	n/a
350.517	0.165	701034	keystroke_h	h	n/a
351.072	0.195	702144	keystroke_Key.backspace	Key.backspace	n/a
351.417	0.06	702834	keystroke_Key.backspace	Key.backspace	n/a
351.552	0.105	703104	keystroke_s	s	n/a
351.672	0.1195	703344	keystroke_h	h	n/a
351.8065	0.045	703613	keystroke_e	e	n/a
351.8215	0.135	703643	keystroke_d	d	n/a
352.3315	0.12	704663	keystroke_Key.space	Key.space	n/a
352.766	0.105	705532	keystroke_h	h	n/a
352.856	0.165	705712	keystroke_a	a	n/a
353.006	0.106	706012	keystroke_y	y	n/a
353.456	0.18	706912	keystroke_e	e	n/a
353.561	0.15	707122	keystroke_s	s	n/a
353.696	0.1205	707392	keystroke_Key.space	Key.space	n/a
353.8015	0.135	707603	keystroke_s	s	n/a
353.8915	0.135	707783	keystroke_o	o	n/a
353.9665	0.105	707933	keystroke_u	u	n/a
354.0865	0.12	708173	keystroke_t	t	n/a
354.1765	0.135	708353	keystroke_h	h	n/a
354.3265	0.165	708653	keystroke_e	e	n/a
354.4315	0.09	708863	keystroke_r	r	n/a
354.4765	0.075	708953	keystroke_n	n	n/a
354.6865	0.075	709373	keystroke_Key.enter	Key.enter	n/a
354.7715	5.708	709543	prompt	n/a	question robbie athletics skirt\n
355.5415	0.105	711083	keystroke_q	q	n/a
355.6615	0.12	711323	keystroke_u	u	n/a
355.7515	0.1805	711503	keystroke_e	e	n/a
355.8115	0.1345	711623	keystroke_s	s	n/a
355.9015	0.135	711803	keystroke_t	t	n/a
356.0215	0.18	712043	keystroke_i	i	n/a
356.1565	0.135	712313	keystroke_o	o	n/a
356.2165	0.15	712433	keystroke_n	n	n/a
356.3065	0.15	712613	keystroke_Key.space	Key.space	n/a
356.4265	0.12	712853	keystroke_r	r	n/a
356.5165	0.12	713033	keystroke_o	o	n/a
356.7265	0.045	713453	keystroke_b	b	n/a
356.8615	0.09	713723	keystroke_b	b	n/a
357.0565	0.075	714113	keystroke_i	i	n/a
357.2365	0.06	714473	keystroke_e	e	n/a
357.4165	0.03	714833	keystroke_Key.space	Key.space	n/a
357.491	0.075	714982	keystroke_Key.space	Key.space	n/a
357.9115	0.105	715823	keystroke_Key.backspace	Key.backspace	n/a
358.5865	0.12	717173	keystroke_a	a	n/a
358.6765	0.135	717353	keystroke_t	t	n/a
358.7515	0.105	717503	keystroke_h	h	n/a
358.9915	0.15	717983	keystroke_l	l	n/a
359.1865	0.165	718373	keystroke_e	e	n/a
359.2765	0.09	718553	keystroke_t	t	n/a
359.3815	0.135	718763	keystroke_i	i	n/a
359.5465	0.15	719093	keystroke_c	c	n/a
359.6665	0.12	719333	keystroke_s	s	n/a
359.7875	0.149	719575	keystroke_Key.space	Key.space	n/a
359.8615	0.165	719723	keystroke_s	s	n/a
359.9515	0.105	719903	keystroke_k	k	n/a
360.1315	0.09	720263	keystroke_i	i	n/a
360.1765	0.075	720353	keystroke_r	r	n/a
360.3565	0.076	720713	keystroke_t	t	n/a
360.4165	0.06	720833	keystroke_Key.enter	Key.enter	n/a
360.4845	4.375	720969	prompt	n/a	not fisheries printing unity\n
361.3915	0.166	722783	keystroke_n	n	n/a
361.4825	0.12	722965	keystroke_o	o	n/a
361.6165	0.061	723233	keystroke_t	t	n/a
361.6775	0.134	723355	keystroke_Key.space	Key.space	n/a
361.7965	0.121	723593	keystroke_f	f	n/a
361.8875	0.12	723775	keystroke_i	i	n/a
362.0225	0.104	724045	keystroke_s	s	n/a
362.1115	0.12	724223	keystroke_h	h	n/a
362.2165	0.165	724433	keystroke_e	e	n/a
362.3515	0.181	724703	keystroke_r	r	n/a
362.5465	0.151	725093	keystroke_i	i	n/a
362.6665	0.135	725333	keystroke_e	e	n/a
362.7425	0.119	725485	keystroke_s	s	n/a
362.9065	0.135	725813	keystroke_Key.space	Key.space	n/a
363.0265	0.12	726053	keystroke_p	p	n/a
363.1925	0.119	726385	keystroke_r	r	n/a
363.2375	0.164	726475	keystroke_i	i	n/a
363.3265	0.121	726653	keystroke_n	n	n/a
363.4925	0.075	726985	keystroke_t	t	n/a
363.5815	0.18	727163	keystroke_i	i	n/a
363.6715	0.121	727343	keystroke_n	n	n/a
363.7775	0.105	727555	keystroke_g	g	n/a
363.8825	0.119	727765	keystroke_Key.space	Key.space	n/a
364.1375	0.105	728275	keystroke_u	u	n/a
364.1975	0.179	728395	keystroke_n	n	n/a
364.3625	0.134	728725	keystroke_i	i	n/a
364.5125	0.135	729025	keystroke_t	t	n/a
364.6025	0.105	729205	keystroke_y	y	n/a
364.7965	0.06	729593	keystroke_Key.enter	Key.enter	n/a
364.8655	6.065	729731	prompt	n/a	reject totals pontiac diego\n
365.6065	0.15	731213	keystroke_r	r	n/a
366.1025	0.104	732205	keystroke_e	e	n/a
366.2815	0.151	732563	keystroke_j	j	n/a
366.4915	0.1805	732983	keystroke_e	e	n/a
366.643	0.134	733286	keystroke_c	c	n/a
367.049	0.075	734098	keystroke_t	t	n/a
367.1695	0.105	734339	keystroke_Key.space	Key.space	n/a
367.3045	0.0905	734609	keystroke_t	t	n/a
367.3795	0.1205	734759	keystroke_o	o	n/a
367.485	0.1205	734970	keystroke_t	t	n/a
367.5605	0.1505	735121	keystroke_a	a	n/a
367.711	0.15	735422	keystroke_l	l	n/a
367.846	0.1355	735692	keystroke_s	s	n/a
367.9655	0.136	735931	keystroke_Key.space	Key.space	n/a
368.0865	0.2255	736173	keystroke_p	p	n/a
368.327	0.1805	736654	keystroke_o	o	n/a
368.7185	0.15	737437	keystroke_n	n	n/a
368.9135	0.1205	737827	keystroke_t	t	n/a
369.1095	0.15	738219	keystroke_i	i	n/a
369.2745	0.075	738549	keystroke_a	a	n/a
369.951	0.1205	739902	keystroke_c	c	n/a
370.0565	0.1205	740113	keystroke_Key.space	Key.space	n/a
370.2215	0.1055	740443	keystroke_d	d	n/a
370.312	0.1355	740624	keystroke_i	i	n/a
370.4325	0.1355	740865	keystroke_e	e	n/a
370.553	0.135	741106	keystroke_g	g	n/a
370.643	0.09	741286	keystroke_o	o	n/a
370.8535	0.075	741707	keystroke_Key.enter	Key.enter	n/a
370.9365	8.326	741873	prompt	n/a	dynamics recovery coaching infectious\n
371.831	0.1655	743662	keystroke_d	d	n/a
371.951	0.0905	743902	keystroke_y	y	n/a
372.147	0.105	744294	keystroke_n	n	n/a
372.267	0.0905	744534	keystroke_a	a	n/a
372.3725	0.1955	744745	keystroke_m	m	n/a
372.4625	0.1355	744925	keystroke_i	i	n/a
372.628	0.166	745256	keystroke_c	c	n/a
372.7325	0.1665	745465	keystroke_s	s	n/a
372.883	0.1505	745766	keystroke_Key.space	Key.space	n/a
373.0485	0.061	746097	keystroke_r	r	n/a
373.0785	0.1215	746157	keystroke_e	e	n/a
373.35	0.045	746700	keystroke_c	c	n/a
373.364	0.016	746728	keystroke_x	x	n/a
373.5455	0.1505	747091	keystroke_o	o	n/a
373.74	0.0765	747480	keystroke_v	v	n/a
373.8615	0.21	747723	keystroke_e	e	n/a
373.966	0.1355	747932	keystroke_r	r	n/a
374.0865	0.075	748173	keystroke_y	y	n/a
374.432	0.0755	748864	keystroke_Key.backspace	Key.backspace	n/a
374.5675	0.0605	749135	keystroke_Key.backspace	Key.backspace	n/a
374.703	0.1055	749406	keystroke_Key.backspace	Key.backspace	n/a
374.9285	0.03	749857	keystroke_Key.backspace	Key.backspace	n/a
375.049	0.06	750098	keystroke_Key.backspace	Key.backspace	n/a
375.184	0.1355	750368	keystroke_Key.backspace	Key.backspace	n/a
375.485	0.12	750970	keystroke_o	o	n/a
375.6355	0.075	751271	keystroke_v	v	n/a
375.7855	0.1505	751571	keystroke_e	e	n/a
375.876	0.105	751752	keystroke_r	r	n/a
375.921	0.09	751842	keystroke_y	y	n/a
376.1615	0.1055	752323	keystroke_Key.space	Key.space	n/a
377.124	0.1055	754248	keystroke_c	c	n/a
377.2145	0.12	754429	keystroke_o	o	n/a
377.305	0.0595	754610	keystroke_a	a	n/a
377.38	0.135	754760	keystroke_c	c	n/a
377.485	0.091	754970	keystroke_h	h	n/a
377.545	0.1955	755090	keystroke_i	i	n/a
377.6655	0.1205	755331	keystroke_n	n	n/a
377.7555	0.1205	755511	keystroke_g	g	n/a
377.846	0.12	755692	keystroke_Key.space	Key.space	n/a
377.906	0.1505	755812	keystroke_i	i	n/a
377.981	0.1205	755962	keystroke_n	n	n/a
378.252	0.12	756504	keystroke_f	f	n/a
378.327	0.1055	756654	keystroke_e	e	n/a
378.4925	0.045	756985	keystroke_c	c	n/a
378.688	0.0905	757376	keystroke_t	t	n/a
378.763	0.1655	757526	keystroke_i	i	n/a
378.8685	0.1205	757737	keystroke_o	o	n/a
378.9435	0.1205	757887	keystroke_u	u	n/a
379.049	0.09	758098	keystroke_s	s	n/a
379.169	0.0905	758338	keystroke_Key.enter	Key.enter	n/a
379.27	6.924	758540	prompt	n/a	substitute otherwise receivers wishlist\n
380.2375	0.1505	760475	keystroke_s	s	n/a
380.389	0.119	760778	keystroke_u	u	n/a
380.463	0.1505	760926	keystroke_b	b	n/a
380.5985	0.135	761197	keystroke_s	s	n/a
380.899	0.0905	761798	keystroke_t	t	n/a
381.1095	0.0605	762219	keystroke_i	i	n/a
381.6655	0.1055	763331	keystroke_t	t	n/a
381.7855	0.1815	763571	keystroke_u	u	n/a
381.981	0.1215	763962	keystroke_t	t	n/a
382.1175	0.09	764235	keystroke_e	e	n/a
382.6885	0.12	765377	keystroke_Key.space	Key.space	n/a
382.7935	0.1355	765587	keystroke_o	o	n/a
382.899	0.1055	765798	keystroke_t	t	n/a
382.989	0.1505	765978	keystroke_h	h	n/a
383.0795	0.12	766159	keystroke_e	e	n/a
383.1545	0.1055	766309	keystroke_r	r	n/a
383.275	0.135	766550	keystroke_w	w	n/a
383.395	0.1505	766790	keystroke_i	i	n/a
383.5305	0.2105	767061	keystroke_s	s	n/a
383.711	0.121	767422	keystroke_e	e	n/a
383.906	0.1355	767812	keystroke_Key.space	Key.space	n/a
384.0115	0.12	768023	keystroke_r	r	n/a
384.1025	0.1205	768205	keystroke_e	e	n/a
384.328	0.1205	768656	keystroke_c	c	n/a
384.3875	0.135	768775	keystroke_e	e	n/a
384.4925	0.1505	768985	keystroke_i	i	n/a
384.674	0.044	769348	keystroke_v	v	n/a
384.8385	0.106	769677	keystroke_e	e	n/a
384.9135	0.1665	769827	keystroke_r	r	n/a
385.02	0.105	770040	keystroke_s	s	n/a
385.139	0.1355	770278	keystroke_Key.space	Key.space	n/a
385.2445	0.106	770489	keystroke_w	w	n/a
385.3195	0.1505	770639	keystroke_i	i	n/a
385.44	0.1365	770880	keystroke_s	s	n/a
385.515	0.1215	771030	keystroke_h	h	n/a
385.6065	0.1795	771213	keystroke_l	l	n/a
385.7105	0.2105	771421	keystroke_i	i	n/a
385.846	0.2115	771692	keystroke_s	s	n/a
386.0415	0.091	772083	keystroke_t	t	n/a
386.1015	0.0905	772203	keystroke_Key.enter	Key.enter	n/a
386.2	6.686	772400	prompt	n/a	we'd've edited shanghai witch\n
387.005	0.1805	774010	keystroke_w	w	n/a
387.11	0.1805	774220	keystroke_e	e	n/a
387.381	0.105	774762	keystroke_'	'	n/a
387.6365	0.09	775273	keystroke_d	d	n/a
387.7565	0.105	775513	keystroke_'	'	n/a
387.9215	0.1055	775843	keystroke_v	v	n/a
388.177	0.106	776354	keystroke_e	e	n/a
388.538	0.135	777076	keystroke_Key.space	Key.space	n/a
388.7645	0.119	777529	keystroke_e	e	n/a
388.8695	0.1205	777739	keystroke_d	d	n/a
389.004	0.1205	778008	keystroke_i	i	n/a
389.1405	0.074	778281	keystroke_t	t	n/a
389.2295	0.1815	778459	keystroke_e	e	n/a
389.38	0.136	778760	keystroke_d	d	n/a
389.53	0.1505	779060	keystroke_Key.space	Key.space	n/a
389.846	0.091	779692	keystroke_s	s	n/a
389.951	0.1515	779902	keystroke_h	h	n/a
390.0565	0.1205	780113	keystroke_a	a	n/a
390.4775	0.1365	780955	keystroke_n	n	n/a
390.8835	0.1215	781767	keystroke_g	g	n/a
391.485	0.135	782970	keystroke_h	h	n/a
391.817	0.164	783634	keystroke_a	a	n/a
391.952	0.1795	783904	keystroke_i	i	n/a
392.0715	0.1505	784143	keystroke_Key.space	Key.space	n/a
392.178	0.105	784356	keystroke_w	w	n/a
392.267	0.135	784534	keystroke_i	i	n/a
392.343	0.0895	784686	keystroke_t	t	n/a
392.5525	0.105	785105	keystroke_c	c	n/a
392.6275	0.0915	785255	keystroke_h	h	n/a
392.7935	0.0905	785587	keystroke_Key.enter	Key.enter	n/a
392.8925	8.488	785785	prompt	n/a	exams revolutionary haven patio\n
397.1575	0.0275	794315	keystroke_e	e	n/a
397.68	0.105	795360	keystroke_x	x	n/a
397.786	0.165	795572	keystroke_a	a	n/a
397.966	0.105	795932	keystroke_m	m	n/a
398.176	0.0905	796352	keystroke_s	s	n/a
398.2965	0.1355	796593	keystroke_Key.space	Key.space	n/a
398.537	0.1205	797074	keystroke_r	r	n/a
398.5985	0.104	797197	keystroke_e	e	n/a
398.7775	0.1205	797555	keystroke_v	v	n/a
398.8375	0.0755	797675	keystroke_o	o	n/a
399.0195	0.12	798039	keystroke_l	l	n/a
399.1245	0.134	798249	keystroke_u	u	n/a
399.2285	0.1365	798457	keystroke_t	t	n/a
399.335	0.1795	798670	keystroke_i	i	n/a
399.4095	0.15	798819	keystroke_o	o	n/a
399.4695	0.12	798939	keystroke_n	n	n/a
399.5755	0.1195	799151	keystroke_a	a	n/a
399.665	0.135	799330	keystroke_r	r	n/a
399.785	0.1065	799570	keystroke_y	y	n/a
399.8755	0.12	799751	keystroke_Key.space	Key.space	n/a
400.0405	0.1205	800081	keystroke_h	h	n/a
400.176	0.091	800352	keystroke_a	a	n/a
400.341	0.1055	800682	keystroke_v	v	n/a
400.4165	0.1205	800833	keystroke_e	e	n/a
400.4625	0.1195	800925	keystroke_n	n	n/a
400.567	0.105	801134	keystroke_Key.space	Key.space	n/a
400.612	0.1655	801224	keystroke_p	p	n/a
400.732	0.1355	801464	keystroke_a	a	n/a
400.8385	0.1195	801677	keystroke_t	t	n/a
400.973	0.075	801946	keystroke_i	i	n/a
400.989	0.105	801978	keystroke_o	o	n/a
401.2885	0.09	802577	keystroke_Key.enter	Key.enter	n/a
401.3875	6.022	802775	prompt	n/a	complex website weapon entities\n
402.281	0.136	804562	keystroke_c	c	n/a
402.326	0.075	804652	keystroke_o	o	n/a
402.386	0.1205	804772	keystroke_m	m	n/a
402.4915	0.1655	804983	keystroke_p	p	n/a
402.582	0.165	805164	keystroke_l	l	n/a
402.672	0.151	805344	keystroke_e	e	n/a
403.5895	0.135	807179	keystroke_x	x	n/a
403.7995	0.1355	807599	keystroke_Key.space	Key.space	n/a
404.0405	0.1505	808081	keystroke_w	w	n/a
404.146	0.12	808292	keystroke_e	e	n/a
404.206	0.12	808412	keystroke_b	b	n/a
404.311	0.105	808622	keystroke_s	s	n/a
404.386	0.1505	808772	keystroke_i	i	n/a
404.4915	0.1505	808983	keystroke_t	t	n/a
404.582	0.09	809164	keystroke_e	e	n/a
404.672	0.12	809344	keystroke_Key.space	Key.space	n/a
405.0025	0.1205	810005	keystroke_w	w	n/a
405.108	0.165	810216	keystroke_e	e	n/a
405.213	0.1055	810426	keystroke_a	a	n/a
405.2885	0.18	810577	keystroke_p	p	n/a
405.4085	0.105	810817	keystroke_o	o	n/a
405.589	0.1055	811178	keystroke_n	n	n/a
405.8885	0.1215	811777	keystroke_Key.space	Key.space	n/a
406.04	0.1355	812080	keystroke_e	e	n/a
406.1895	0.091	812379	keystroke_n	n	n/a
406.3095	0.1055	812619	keystroke_t	t	n/a
406.431	0.105	812862	keystroke_i	i	n/a
406.551	0.1055	813102	keystroke_t	t	n/a
406.6715	0.1655	813343	keystroke_i	i	n/a
406.792	0.105	813584	keystroke_t	t	n/a
406.941	0.1505	813882	keystroke_e	e	n/a
407.062	0.1055	814124	keystroke_s	s	n/a
407.303	0.105	814606	keystroke_Key.enter	Key.enter	n/a
407.415	5.542	814830	prompt	n/a	settle ending amendments unsigned\n
408.205	0.135	816410	keystroke_s	s	n/a
408.325	0.1805	816650	keystroke_e	e	n/a
408.4305	0.12	816861	keystroke_t	t	n/a
408.626	0.105	817252	keystroke_t	t	n/a
408.716	0.1505	817432	keystroke_l	l	n/a
408.8515	0.105	817703	keystroke_e	e	n/a
408.9265	0.119	817853	keystroke_Key.space	Key.space	n/a
409.0615	0.1055	818123	keystroke_e	e	n/a
409.152	0.1055	818304	keystroke_n	n	n/a
409.2725	0.045	818545	keystroke_d	d	n/a
409.3625	0.135	818725	keystroke_i	i	n/a
409.4075	0.12	818815	keystroke_n	n	n/a
409.4675	0.105	818935	keystroke_g	g	n/a
409.588	0.1505	819176	keystroke_Key.space	Key.space	n/a
409.7085	0.15	819417	keystroke_a	a	n/a
409.9185	0.135	819837	keystroke_m	m	n/a
410.159	0.09	820318	keystroke_e	e	n/a
410.279	0.15	820558	keystroke_n	n	n/a
410.444	0.1355	820888	keystroke_d	d	n/a
410.6245	0.1055	821249	keystroke_m	m	n/a
410.745	0.1205	821490	keystroke_e	e	n/a
410.8505	0.12	821701	keystroke_n	n	n/a
410.9415	0.149	821883	keystroke_t	t	n/a
411.0605	0.09	822121	keystroke_s	s	n/a
411.166	0.1355	822332	keystroke_Key.space	Key.space	n/a
411.7525	0.12	823505	keystroke_u	u	n/a
412.023	0.09	824046	keystroke_n	n	n/a
412.143	0.091	824286	keystroke_s	s	n/a
412.279	0.105	824558	keystroke_i	i	n/a
412.399	0.0905	824798	keystroke_g	g	n/a
412.5195	0.089	825039	keystroke_n	n	n/a
412.6245	0.1045	825249	keystroke_e	e	n/a
412.699	0.1055	825398	keystroke_d	d	n/a
412.865	0.09	825730	keystroke_Key.enter	Key.enter	n/a
412.969	5.396	825938	prompt	n/a	horse championships fares fusion\n
413.872	0.18	827744	keystroke_h	h	n/a
414.007	0.135	828014	keystroke_o	o	n/a
414.082	0.1355	828164	keystroke_r	r	n/a
414.2185	0.2095	828437	keystroke_s	s	n/a
414.353	0.15	828706	keystroke_e	e	n/a
414.488	0.135	828976	keystroke_Key.space	Key.space	n/a
414.638	0.121	829276	keystroke_c	c	n/a
414.7285	0.0905	829457	keystroke_h	h	n/a
414.864	0.165	829728	keystroke_a	a	n/a
414.969	0.1805	829938	keystroke_m	m	n/a
415.134	0.181	830268	keystroke_p	p	n/a
415.57	0.1355	831140	keystroke_i	i	n/a
415.6455	0.1655	831291	keystroke_o	o	n/a
415.7505	0.1355	831501	keystroke_n	n	n/a
416.006	0.1505	832012	keystroke_s	s	n/a
416.126	0.1655	832252	keystroke_h	h	n/a
416.2015	0.1505	832403	keystroke_i	i	n/a
416.3215	0.1355	832643	keystroke_p	p	n/a
416.487	0.12	832974	keystroke_s	s	n/a
416.577	0.1805	833154	keystroke_Key.space	Key.space	n/a
416.697	0.1055	833394	keystroke_f	f	n/a
416.7725	0.1345	833545	keystroke_a	a	n/a
416.922	0.18	833844	keystroke_r	r	n/a
417.012	0.135	834024	keystroke_e	e	n/a
417.072	0.15	834144	keystroke_s	s	n/a
417.237	0.12	834474	keystroke_Key.space	Key.space	n/a
417.5525	0.105	835105	keystroke_f	f	n/a
417.6425	0.1055	835285	keystroke_u	u	n/a
417.733	0.1195	835466	keystroke_s	s	n/a
417.838	0.165	835676	keystroke_i	i	n/a
417.958	0.1345	835916	keystroke_o	o	n/a
418.018	0.1345	836036	keystroke_n	n	n/a
418.228	0.135	836456	keystroke_Key.enter	Key.enter	n/a
418.373	5.345	836746	prompt	n/a	date refer camcorder jump\n
419.1425	0.105	838285	keystroke_d	d	n/a
419.2175	0.09	838435	keystroke_a	a	n/a
419.457	0.105	838914	keystroke_t	t	n/a
419.532	0.105	839064	keystroke_e	e	n/a
419.607	0.1655	839214	keystroke_Key.space	Key.space	n/a
419.7125	0.149	839425	keystroke_r	r	n/a
419.8315	0.105	839663	keystroke_e	e	n/a
419.997	0.105	839994	keystroke_f	f	n/a
420.087	0.165	840174	keystroke_e	e	n/a
420.207	0.06	840414	keystroke_r	r	n/a
420.297	0.135	840594	keystroke_Key.space	Key.space	n/a
420.417	0.135	840834	keystroke_c	c	n/a
420.7325	0.1345	841465	keystroke_a	a	n/a
420.9865	0.12	841973	keystroke_m	m	n/a
421.406	0.1355	842812	keystroke_o	o	n/a
421.7815	0.104	843563	keystroke_Key.backspace	Key.backspace	n/a
421.932	0.074	843864	keystroke_c	c	n/a
422.037	0.089	844074	keystroke_o	o	n/a
422.186	0.0905	844372	keystroke_r	r	n/a
422.3655	0.105	844731	keystroke_d	d	n/a
422.4555	0.3005	844911	keystroke_e	e	n/a
422.6055	0.1205	845211	keystroke_r	r	n/a
422.801	0.2095	845602	keystroke_Key.space	Key.space	n/a
422.9355	0.09	845871	keystroke_j	j	n/a
423.1155	0.06	846231	keystroke_u	u	n/a
423.3105	0.15	846621	keystroke_m	m	n/a
423.4005	0.105	846801	keystroke_p	p	n/a
423.6405	0.075	847281	keystroke_Key.enter	Key.enter	n/a
423.7235	4.103	847447	prompt	n/a	forums adidas list cherry\n
424.48	0.1045	848960	keystroke_f	f	n/a
