onset	duration	sample	value	key	prompt_text
4.92	5.6065	9840	prompt	n/a	the quick brown fox jumps over a lazy dog\n
5.7685	0.013	11537	keystroke_t	t	n/a
5.797	0.0745	11594	keystroke_h	h	n/a
5.8865	0.0755	11773	keystroke_e	e	n/a
5.962	0.075	11924	keystroke_Key.space	Key.space	n/a
6.1415	0.122	12283	keystroke_u	u	n/a
6.218	0.0755	12436	keystroke_i	i	n/a
6.548	0.0595	13096	keystroke_Key.backspace	Key.backspace	n/a
6.668	0.06	13336	keystroke_Key.backspace	Key.backspace	n/a
6.743	0.1055	13486	keystroke_q	q	n/a
6.8935	0.1195	13787	keystroke_u	u	n/a
6.953	0.105	13906	keystroke_i	i	n/a
7.088	0.06	14176	keystroke_c	c	n/a
7.1635	0.089	14327	keystroke_k	k	n/a
7.298	0.075	14596	keystroke_Key.space	Key.space	n/a
7.4185	0.06	14837	keystroke_b	b	n/a
7.493	0.0745	14986	keystroke_r	r	n/a
7.5825	0.061	15165	keystroke_o	o	n/a
7.658	0.075	15316	keystroke_w	w	n/a
7.733	0.075	15466	keystroke_n	n	n/a
7.838	0.09	15676	keystroke_Key.space	Key.space	n/a
7.898	0.075	15796	keystroke_f	f	n/a
8.0035	0.074	16007	keystroke_o	o	n/a
8.0935	0.06	16187	keystroke_x	x	n/a
8.1985	0.0295	16397	keystroke_Key.space	Key.space	n/a
8.258	0.0605	16516	keystroke_j	j	n/a
8.4075	0.046	16815	keystroke_u	u	n/a
8.5735	0.0595	17147	keystroke_m	m	n/a
8.7235	0.0595	17447	keystroke_p	p	n/a
8.813	0.06	17626	keystroke_s	s	n/a
8.8875	0.046	17775	keystroke_Key.space	Key.space	n/a
8.963	0.076	17926	keystroke_o	o	n/a
9.053	0.06	18106	keystroke_v	v	n/a
9.1885	0.075	18377	keystroke_e	e	n/a
9.293	0.0905	18586	keystroke_r	r	n/a
9.398	0.0455	18796	keystroke_Key.space	Key.space	n/a
9.4735	0.0745	18947	keystroke_a	a	n/a
9.533	0.06	19066	keystroke_Key.space	Key.space	n/a
9.6535	0.074	19307	keystroke_l	l	n/a
9.6985	0.045	19397	keystroke_a	a	n/a
9.8635	0.0895	19727	keystroke_z	z	n/a
9.938	0.0455	19876	keystroke_y	y	n/a
10.043	0.09	20086	keystroke_Key.space	Key.space	n/a
10.1185	0.0455	20237	keystroke_d	d	n/a
10.193	0.075	20386	keystroke_o	o	n/a
10.343	0.06	20686	keystroke_g	g	n/a
10.448	0.075	20896	keystroke_Key.enter	Key.enter	n/a
10.533	4.3725	21066	prompt	n/a	ceremony awards massage method\n
11.123	0.0755	22246	keystroke_c	c	n/a
11.2885	0.06	22577	keystroke_e	e	n/a
11.3785	0.1045	22757	keystroke_r	r	n/a
11.4685	0.1045	22937	keystroke_e	e	n/a
11.558	0.075	23116	keystroke_m	m	n/a
11.723	0.045	23446	keystroke_o	o	n/a
11.873	0.0755	23746	keystroke_n	n	n/a
11.9335	0.0595	23867	keystroke_y	y	n/a
12.023	0.075	24046	keystroke_Key.space	Key.space	n/a
12.219	0.1045	24438	keystroke_a	a	n/a
12.4135	0.075	24827	keystroke_w	w	n/a
12.533	0.12	25066	keystroke_a	a	n/a
12.683	0.075	25366	keystroke_r	r	n/a
12.848	0.1205	25696	keystroke_d	d	n/a
12.923	0.12	25846	keystroke_s	s	n/a
13.0585	0.0445	26117	keystroke_Key.space	Key.space	n/a
13.178	0.075	26356	keystroke_m	m	n/a
13.238	0.1055	26476	keystroke_a	a	n/a
13.358	0.09	26716	keystroke_s	s	n/a
13.553	0.075	27106	keystroke_s	s	n/a
13.673	0.106	27346	keystroke_a	a	n/a
13.823	0.03	27646	keystroke_g	g	n/a
13.899	0.09	27798	keystroke_e	e	n/a
13.958	0.0595	27916	keystroke_Key.space	Key.space	n/a
14.093	0.0605	28186	keystroke_m	m	n/a
14.1235	0.0895	28247	keystroke_e	e	n/a
14.288	0.0755	28576	keystroke_t	t	n/a
14.3185	0.06	28637	keystroke_h	h	n/a
14.4535	0.075	28907	keystroke_o	o	n/a
14.5735	0.0755	29147	keystroke_d	d	n/a
14.843	0.0605	29686	keystroke_Key.enter	Key.enter	n/a
14.9105	4.33	29821	prompt	n/a	skirt villages soundtrack span\n
15.488	0.09	30976	keystroke_s	s	n/a
15.593	0.046	31186	keystroke_k	k	n/a
15.7285	0.0745	31457	keystroke_i	i	n/a
15.7885	0.06	31577	keystroke_r	r	n/a
15.9685	0.0595	31937	keystroke_t	t	n/a
16.0435	0.0745	32087	keystroke_Key.space	Key.space	n/a
16.418	0.0605	32836	keystroke_v	v	n/a
16.463	0.0605	32926	keystroke_i	i	n/a
16.6285	0.0445	33257	keystroke_l	l	n/a
16.733	0.0755	33466	keystroke_l	l	n/a
16.748	0.1045	33496	keystroke_a	a	n/a
16.913	0.06	33826	keystroke_g	g	n/a
17.0635	0.0755	34127	keystroke_e	e	n/a
17.2435	0.0605	34487	keystroke_s	s	n/a
17.348	0.045	34696	keystroke_Key.space	Key.space	n/a
17.4085	0.06	34817	keystroke_s	s	n/a
17.4535	0.0595	34907	keystroke_o	o	n/a
17.6185	0.0595	35237	keystroke_u	u	n/a
17.7685	0.0595	35537	keystroke_n	n	n/a
17.798	0.0755	35596	keystroke_d	d	n/a
18.008	0.045	36016	keystroke_t	t	n/a
18.144	0.074	36288	keystroke_r	r	n/a
18.248	0.0905	36496	keystroke_a	a	n/a
18.413	0.0755	36826	keystroke_c	c	n/a
18.458	0.0755	36916	keystroke_k	k	n/a
18.5785	0.1045	37157	keystroke_Key.space	Key.space	n/a
18.698	0.045	37396	keystroke_s	s	n/a
18.7285	0.0745	37457	keystroke_p	p	n/a
18.848	0.0755	37696	keystroke_a	a	n/a
18.924	0.0595	37848	keystroke_n	n	n/a
19.193	0.0455	38386	keystroke_Key.enter	Key.enter	n/a
19.2445	9.131	38489	prompt	n/a	spirituality feat girlfriend reservation\n
19.898	0.105	39796	keystroke_s	s	n/a
20.079	0.0895	40158	keystroke_p	p	n/a
20.288	0.0605	40576	keystroke_i	i	n/a
20.349	0.0745	40698	keystroke_r	r	n/a
20.4835	0.06	40967	keystroke_i	i	n/a
21.1585	0.105	42317	keystroke_q	q	n/a
21.8775	0.1055	43755	keystroke_Key.backspace	Key.backspace	n/a
22.1185	0.0895	44237	keystroke_t	t	n/a
22.523	0.09	45046	keystroke_u	u	n/a
22.658	0.091	45316	keystroke_a	a	n/a
22.943	0.06	45886	keystroke_l	l	n/a
23.904	0.059	47808	keystroke_i	i	n/a
24.0085	0.104	48017	keystroke_t	t	n/a
24.248	0.0595	48496	keystroke_y	y	n/a
24.3235	0.0745	48647	keystroke_Key.space	Key.space	n/a
24.6085	0.0295	49217	keystroke_f	f	n/a
24.728	0.06	49456	keystroke_e	e	n/a
24.8485	0.0905	49697	keystroke_a	a	n/a
25.028	0.061	50056	keystroke_t	t	n/a
25.1035	0.075	50207	keystroke_Key.space	Key.space	n/a
25.238	0.0455	50476	keystroke_f	f	n/a
25.553	0.06	51106	keystroke_Key.backspace	Key.backspace	n/a
25.899	0.059	51798	keystroke_g	g	n/a
25.973	0.0455	51946	keystroke_i	i	n/a
26.048	0.0605	52096	keystroke_r	r	n/a
26.138	0.075	52276	keystroke_l	l	n/a
26.258	0.045	52516	keystroke_f	f	n/a
26.408	0.061	52816	keystroke_r	r	n/a
26.483	0.06	52966	keystroke_i	i	n/a
26.589	0.0595	53178	keystroke_e	e	n/a
26.6635	0.0745	53327	keystroke_n	n	n/a
26.7685	0.0745	53537	keystroke_d	d	n/a
26.8275	0.0755	53655	keystroke_Key.space	Key.space	n/a
26.949	0.0745	53898	keystroke_r	r	n/a
27.038	0.09	54076	keystroke_e	e	n/a
27.218	0.0755	54436	keystroke_s	s	n/a
27.413	0.0595	54826	keystroke_e	e	n/a
27.503	0.09	55006	keystroke_r	r	n/a
27.608	0.0595	55216	keystroke_v	v	n/a
27.713	0.06	55426	keystroke_a	a	n/a
27.834	0.075	55668	keystroke_t	t	n/a
27.909	0.1045	55818	keystroke_i	i	n/a
27.968	0.091	55936	keystroke_o	o	n/a
28.104	0.059	56208	keystroke_n	n	n/a
28.328	0.0455	56656	keystroke_Key.enter	Key.enter	n/a
28.3795	3.851	56759	prompt	n/a	oxide enemy guarantee week\n
28.9585	0.075	57917	keystroke_o	o	n/a
29.2285	0.06	58457	keystroke_x	x	n/a
29.3335	0.06	58667	keystroke_i	i	n/a
29.4385	0.0755	58877	keystroke_d	d	n/a
29.6035	0.0755	59207	keystroke_e	e	n/a
29.7085	0.075	59417	keystroke_Key.space	Key.space	n/a
29.8585	0.06	59717	keystroke_e	e	n/a
29.9335	0.0445	59867	keystroke_n	n	n/a
30.023	0.061	60046	keystroke_e	e	n/a
30.098	0.075	60196	keystroke_m	m	n/a
30.233	0.061	60466	keystroke_y	y	n/a
30.323	0.0755	60646	keystroke_Key.space	Key.space	n/a
30.6085	0.045	61217	keystroke_g	g	n/a
30.6685	0.045	61337	keystroke_u	u	n/a
30.774	0.0745	61548	keystroke_a	a	n/a
30.8785	0.0745	61757	keystroke_r	r	n/a
30.9835	0.1055	61967	keystroke_a	a	n/a
31.073	0.06	62146	keystroke_n	n	n/a
31.1635	0.0595	62327	keystroke_t	t	n/a
31.2985	0.0905	62597	keystroke_e	e	n/a
31.464	0.0595	62928	keystroke_e	e	n/a
31.5385	0.06	63077	keystroke_Key.space	Key.space	n/a
31.6435	0.09	63287	keystroke_w	w	n/a
31.7035	0.09	63407	keystroke_e	e	n/a
31.8685	0.0755	63737	keystroke_e	e	n/a
31.9585	0.06	63917	keystroke_k	k	n/a
32.184	0.0445	64368	keystroke_Key.enter	Key.enter	n/a
32.2355	10.5705	64471	prompt	n/a	associations entitled agreements charter\n
32.858	0.1055	65716	keystroke_a	a	n/a
32.9635	0.0895	65927	keystroke_s	s	n/a
33.144	0.0445	66288	keystroke_s	s	n/a
33.2335	0.075	66467	keystroke_o	o	n/a
33.324	0.0745	66648	keystroke_c	c	n/a
33.4285	0.06	66857	keystroke_i	i	n/a
33.4735	0.105	66947	keystroke_a	a	n/a
33.6685	0.0455	67337	keystroke_t	t	n/a
33.6835	0.075	67367	keystroke_i	i	n/a
33.7285	0.0905	67457	keystroke_o	o	n/a
33.893	0.0905	67786	keystroke_n	n	n/a
33.953	0.0905	67906	keystroke_s	s	n/a
34.0435	0.06	68087	keystroke_Key.space	Key.space	n/a
34.1485	0.075	68297	keystroke_e	e	n/a
34.2085	0.045	68417	keystroke_n	n	n/a
34.3135	0.075	68627	keystroke_t	t	n/a
34.4035	0.0595	68807	keystroke_i	i	n/a
34.4785	0.075	68957	keystroke_t	t	n/a
34.583	0.0605	69166	keystroke_l	l	n/a
34.658	0.06	69316	keystroke_t	t	n/a
34.7935	0.09	69587	keystroke_e	e	n/a
34.959	0.104	69918	keystroke_d	d	n/a
35.048	0.0755	70096	keystroke_Key.space	Key.space	n/a
35.2135	0.09	70427	keystroke_a	a	n/a
35.3185	0.045	70637	keystroke_g	g	n/a
35.4385	0.015	70877	keystroke_r	r	n/a
35.4835	0.09	70967	keystroke_e	e	n/a
35.6485	0.075	71297	keystroke_e	e	n/a
35.7385	0.0595	71477	keystroke_m	m	n/a
35.813	0.09	71626	keystroke_e	e	n/a
35.9485	0.06	71897	keystroke_n	n	n/a
36.4735	0.075	72947	keystroke_Key.backspace	Key.backspace	n/a
36.6235	0.06	73247	keystroke_Key.backspace	Key.backspace	n/a
36.7735	0.045	73547	keystroke_Key.backspace	Key.backspace	n/a
36.9085	0.0445	73817	keystroke_Key.backspace	Key.backspace	n/a
37.028	0.06	74056	keystroke_Key.backspace	Key.backspace	n/a
37.1785	0.06	74357	keystroke_Key.backspace	Key.backspace	n/a
37.3435	0.06	74687	keystroke_Key.backspace	Key.backspace	n/a
37.493	0.0605	74986	keystroke_Key.backspace	Key.backspace	n/a
37.643	0.06	75286	keystroke_Key.backspace	Key.backspace	n/a
37.7935	0.0595	75587	keystroke_Key.backspace	Key.backspace	n/a
37.9575	0.076	75915	keystroke_Key.backspace	Key.backspace	n/a
38.153	0.0605	76306	keystroke_Key.backspace	Key.backspace	n/a
38.348	0.075	76696	keystroke_e	e	n/a
38.559	0.0895	77118	keystroke_d	d	n/a
39.653	0.105	79306	keystroke_Key.space	Key.space	n/a
40.748	0.105	81496	keystroke_a	a	n/a
40.869	0.059	81738	keystroke_g	g	n/a
40.9585	0.0745	81917	keystroke_r	r	n/a
41.064	0.074	82128	keystroke_e	e	n/a
41.214	0.0895	82428	keystroke_e	e	n/a
41.304	0.0445	82608	keystroke_m	m	n/a
41.393	0.076	82786	keystroke_e	e	n/a
41.484	0.059	82968	keystroke_n	n	n/a
41.558	0.06	83116	keystroke_t	t	n/a
41.708	0.0605	83416	keystroke_s	s	n/a
41.783	0.06	83566	keystroke_Key.space	Key.space	n/a
41.904	0.074	83808	keystroke_c	c	n/a
41.993	0.06	83986	keystroke_h	h	n/a
42.068	0.091	84136	keystroke_a	a	n/a
42.2035	0.075	84407	keystroke_r	r	n/a
42.354	0.075	84708	keystroke_t	t	n/a
42.488	0.091	84976	keystroke_e	e	n/a
42.564	0.105	85128	keystroke_r	r	n/a
42.744	0.059	85488	keystroke_Key.enter	Key.enter	n/a
42.8115	4.2235	85623	prompt	n/a	consulting cottage ebony or\n
43.509	0.0595	87018	keystroke_c	c	n/a
43.584	0.0445	87168	keystroke_o	o	n/a
43.7335	0.06	87467	keystroke_n	n	n/a
43.7635	0.075	87527	keystroke_s	s	n/a
43.913	0.0455	87826	keystroke_u	u	n/a
44.079	0.0745	88158	keystroke_l	l	n/a
44.168	0.0755	88336	keystroke_t	t	n/a
44.2735	0.045	88547	keystroke_i	i	n/a
44.439	0.075	88878	keystroke_n	n	n/a
44.528	0.075	89056	keystroke_g	g	n/a
44.678	0.09	89356	keystroke_Key.space	Key.space	n/a
45.143	0.06	90286	keystroke_c	c	n/a
45.218	0.0455	90436	keystroke_o	o	n/a
45.353	0.0605	90706	keystroke_t	t	n/a
45.488	0.0605	90976	keystroke_t	t	n/a
45.6085	0.0745	91217	keystroke_a	a	n/a
45.698	0.06	91396	keystroke_g	g	n/a
45.7735	0.0745	91547	keystroke_e	e	n/a
45.863	0.09	91726	keystroke_Key.space	Key.space	n/a
45.938	0.06	91876	keystroke_e	e	n/a
46.118	0.075	92236	keystroke_b	b	n/a
46.178	0.06	92356	keystroke_o	o	n/a
46.3285	0.075	92657	keystroke_n	n	n/a
46.388	0.06	92776	keystroke_y	y	n/a
46.493	0.075	92986	keystroke_Key.space	Key.space	n/a
46.6285	0.075	93257	keystroke_o	o	n/a
46.7335	0.06	93467	keystroke_r	r	n/a
46.9735	0.06	93947	keystroke_Key.enter	Key.enter	n/a
47.0445	5.3605	94089	prompt	n/a	choose herb characteristics nationwide\n
47.6035	0.0595	95207	keystroke_c	c	n/a
47.678	0.045	95356	keystroke_h	h	n/a
47.8285	0.045	95657	keystroke_o	o	n/a
47.934	0.1045	95868	keystroke_o	o	n/a
47.9935	0.075	95987	keystroke_s	s	n/a
48.099	0.0895	96198	keystroke_e	e	n/a
48.1735	0.075	96347	keystroke_Key.space	Key.space	n/a
48.3385	0.0605	96677	keystroke_h	h	n/a
48.413	0.0905	96826	keystroke_e	e	n/a
48.533	0.09	97066	keystroke_r	r	n/a
48.653	0.0605	97306	keystroke_b	b	n/a
48.8485	0.0745	97697	keystroke_Key.space	Key.space	n/a
49.104	0.044	98208	keystroke_c	c	n/a
49.163	0.06	98326	keystroke_h	h	n/a
49.2385	0.0895	98477	keystroke_a	a	n/a
49.3885	0.06	98777	keystroke_r	r	n/a
49.4935	0.09	98987	keystroke_a	a	n/a
49.6585	0.105	99317	keystroke_c	c	n/a
49.899	0.045	99798	keystroke_t	t	n/a
50.0035	0.075	100007	keystroke_e	e	n/a
50.0935	0.09	100187	keystroke_r	r	n/a
50.2585	0.06	100517	keystroke_i	i	n/a
50.424	0.0745	100848	keystroke_s	s	n/a
50.634	0.0895	101268	keystroke_t	t	n/a
50.753	0.075	101506	keystroke_i	i	n/a
50.919	0.0595	101838	keystroke_c	c	n/a
51.0535	0.075	102107	keystroke_s	s	n/a
51.1135	0.06	102227	keystroke_Key.space	Key.space	n/a
51.2635	0.045	102527	keystroke_n	n	n/a
51.2785	0.0905	102557	keystroke_a	a	n/a
51.4435	0.075	102887	keystroke_t	t	n/a
51.489	0.09	102978	keystroke_i	i	n/a
51.5485	0.09	103097	keystroke_o	o	n/a
51.7285	0.075	103457	keystroke_n	n	n/a
51.7735	0.09	103547	keystroke_w	w	n/a
51.9385	0.045	103877	keystroke_i	i	n/a
52.028	0.0605	104056	keystroke_d	d	n/a
52.193	0.0605	104386	keystroke_e	e	n/a
52.3275	0.0755	104655	keystroke_Key.enter	Key.enter	n/a
52.4095	4.361	104819	prompt	n/a	triangle princeton hills gage\n
53.003	0.075	106006	keystroke_t	t	n/a
53.1835	0.075	106367	keystroke_r	r	n/a
53.2735	0.06	106547	keystroke_i	i	n/a
53.3635	0.06	106727	keystroke_a	a	n/a
53.4535	0.075	106907	keystroke_n	n	n/a
53.544	0.0745	107088	keystroke_g	g	n/a
53.6485	0.075	107297	keystroke_l	l	n/a
53.7385	0.045	107477	keystroke_e	e	n/a
53.8285	0.075	107657	keystroke_Key.space	Key.space	n/a
54.0235	0.075	108047	keystroke_p	p	n/a
54.0985	0.045	108197	keystroke_r	r	n/a
54.189	0.0595	108378	keystroke_i	i	n/a
54.3385	0.075	108677	keystroke_n	n	n/a
54.3985	0.0455	108797	keystroke_c	c	n/a
54.5335	0.075	109067	keystroke_e	e	n/a
54.7135	0.075	109427	keystroke_t	t	n/a
54.7735	0.0595	109547	keystroke_o	o	n/a
54.923	0.0905	109846	keystroke_n	n	n/a
55.0435	0.0895	110087	keystroke_Key.space	Key.space	n/a
55.1935	0.06	110387	keystroke_h	h	n/a
55.2685	0.06	110537	keystroke_i	i	n/a
55.419	0.0595	110838	keystroke_l	l	n/a
55.5085	0.105	111017	keystroke_l	l	n/a
55.5985	0.075	111197	keystroke_s	s	n/a
56.0185	0.045	112037	keystroke_Key.space	Key.space	n/a
56.1685	0.0605	112337	keystroke_g	g	n/a
56.214	0.075	112428	keystroke_a	a	n/a
56.334	0.059	112668	keystroke_g	g	n/a
56.424	0.074	112848	keystroke_e	e	n/a
56.7085	0.06	113417	keystroke_Key.enter	Key.enter	n/a
56.7755	5.065	113551	prompt	n/a	flight entirely count arrival\n
57.564	0.06	115128	keystroke_f	f	n/a
57.639	0.044	115278	keystroke_l	l	n/a
57.789	0.0595	115578	keystroke_i	i	n/a
57.8635	0.045	115727	keystroke_g	g	n/a
57.9535	0.075	115907	keystroke_h	h	n/a
58.0135	0.0605	116027	keystroke_t	t	n/a
58.119	0.09	116238	keystroke_Key.space	Key.space	n/a
58.344	0.105	116688	keystroke_e	e	n/a
58.404	0.06	116808	keystroke_n	n	n/a
58.539	0.06	117078	keystroke_t	t	n/a
58.614	0.045	117228	keystroke_i	i	n/a
58.689	0.09	117378	keystroke_r	r	n/a
58.794	0.075	117588	keystroke_e	e	n/a
58.884	0.06	117768	keystroke_l	l	n/a
59.0935	0.0745	118187	keystroke_y	y	n/a
59.183	0.075	118366	keystroke_Key.space	Key.space	n/a
59.393	0.0755	118786	keystroke_c	c	n/a
59.4235	0.0605	118847	keystroke_o	o	n/a
59.5885	0.045	119177	keystroke_u	u	n/a
59.739	0.075	119478	keystroke_n	n	n/a
59.7685	0.09	119537	keystroke_t	t	n/a
59.9635	0.075	119927	keystroke_r	r	n/a
60.338	0.0605	120676	keystroke_Key.backspace	Key.backspace	n/a
60.6085	0.06	121217	keystroke_Key.space	Key.space	n/a
60.8635	0.0895	121727	keystroke_a	a	n/a
61.043	0.06	122086	keystroke_r	r	n/a
61.178	0.06	122356	keystroke_r	r	n/a
61.253	0.06	122506	keystroke_i	i	n/a
61.3885	0.0605	122777	keystroke_v	v	n/a
61.4935	0.09	122987	keystroke_a	a	n/a
61.5985	0.0605	123197	keystroke_l	l	n/a
61.7785	0.06	123557	keystroke_Key.enter	Key.enter	n/a
61.853	4.323	123706	prompt	n/a	proud undertake russell towns\n
62.409	0.0595	124818	keystroke_p	p	n/a
62.5285	0.0755	125057	keystroke_r	r	n/a
62.6185	0.06	125237	keystroke_o	o	n/a
62.7835	0.06	125567	keystroke_u	u	n/a
62.8885	0.0605	125777	keystroke_d	d	n/a
62.9635	0.0745	125927	keystroke_Key.space	Key.space	n/a
63.3985	0.06	126797	keystroke_u	u	n/a
63.5635	0.06	127127	keystroke_n	n	n/a
63.5785	0.075	127157	keystroke_d	d	n/a
63.699	0.12	127398	keystroke_e	e	n/a
63.8335	0.075	127667	keystroke_r	r	n/a
63.9985	0.0755	127997	keystroke_t	t	n/a
64.1185	0.105	128237	keystroke_a	a	n/a
64.2085	0.0755	128417	keystroke_k	k	n/a
64.299	0.0595	128598	keystroke_e	e	n/a
64.3735	0.075	128747	keystroke_Key.space	Key.space	n/a
64.4785	0.075	128957	keystroke_r	r	n/a
64.5985	0.06	129197	keystroke_u	u	n/a
64.6735	0.0755	129347	keystroke_s	s	n/a
64.839	0.06	129678	keystroke_s	s	n/a
64.974	0.074	129948	keystroke_e	e	n/a
65.078	0.0605	130156	keystroke_l	l	n/a
65.1985	0.09	130397	keystroke_l	l	n/a
65.3635	0.075	130727	keystroke_Key.space	Key.space	n/a
65.4985	0.0605	130997	keystroke_t	t	n/a
65.574	0.0595	131148	keystroke_o	o	n/a
65.6635	0.0595	131327	keystroke_w	w	n/a
65.769	0.0595	131538	keystroke_n	n	n/a
65.873	0.091	131746	keystroke_s	s	n/a
66.114	0.059	132228	keystroke_Key.enter	Key.enter	n/a
66.18	5.2305	132360	prompt	n/a	hungary gasoline beast department\n
66.773	0.046	133546	keystroke_h	h	n/a
66.9085	0.0605	133817	keystroke_u	u	n/a
67.074	0.09	134148	keystroke_n	n	n/a
67.104	0.075	134208	keystroke_g	g	n/a
67.239	0.105	134478	keystroke_a	a	n/a
67.358	0.076	134716	keystroke_r	r	n/a
67.404	0.06	134808	keystroke_y	y	n/a
67.5235	0.0745	135047	keystroke_Key.space	Key.space	n/a
67.794	0.06	135588	keystroke_g	g	n/a
67.914	0.135	135828	keystroke_a	a	n/a
67.973	0.121	135946	keystroke_s	s	n/a
68.064	0.045	136128	keystroke_o	o	n/a
68.214	0.045	136428	keystroke_l	l	n/a
68.513	0.031	137026	keystroke_n	n	n/a
68.843	0.06	137686	keystroke_Key.backspace	Key.backspace	n/a
69.0685	0.0455	138137	keystroke_i	i	n/a
69.2185	0.0745	138437	keystroke_n	n	n/a
69.308	0.0755	138616	keystroke_e	e	n/a
69.413	0.06	138826	keystroke_Key.space	Key.space	n/a
69.5335	0.06	139067	keystroke_b	b	n/a
69.579	0.059	139158	keystroke_e	e	n/a
69.698	0.1205	139396	keystroke_a	a	n/a
69.7585	0.105	139517	keystroke_s	s	n/a
69.9835	0.06	139967	keystroke_t	t	n/a
70.074	0.0445	140148	keystroke_Key.space	Key.space	n/a
70.1935	0.0755	140387	keystroke_d	d	n/a
70.329	0.0745	140658	keystroke_e	e	n/a
70.4185	0.06	140837	keystroke_p	p	n/a
70.4935	0.1055	140987	keystroke_a	a	n/a
70.614	0.0745	141228	keystroke_r	r	n/a
70.7635	0.0755	141527	keystroke_t	t	n/a
70.8535	0.045	141707	keystroke_m	m	n/a
70.9135	0.09	141827	keystroke_e	e	n/a
71.019	0.06	142038	keystroke_n	n	n/a
71.1235	0.06	142247	keystroke_t	t	n/a
71.3485	0.0595	142697	keystroke_Key.enter	Key.enter	n/a
71.415	4.12	142830	prompt	n/a	mailing frames plug craft\n
72.0685	0.0595	144137	keystroke_m	m	n/a
72.143	0.091	144286	keystroke_a	a	n/a
72.263	0.046	144526	keystroke_i	i	n/a
72.413	0.076	144826	keystroke_l	l	n/a
72.579	0.0445	145158	keystroke_i	i	n/a
72.7285	0.075	145457	keystroke_n	n	n/a
72.7735	0.06	145547	keystroke_g	g	n/a
72.8635	0.075	145727	keystroke_Key.space	Key.space	n/a
72.9685	0.0595	145937	keystroke_f	f	n/a
73.103	0.0605	146206	keystroke_r	r	n/a
73.2535	0.075	146507	keystroke_a	a	n/a
73.3135	0.0445	146627	keystroke_m	m	n/a
73.433	0.076	146866	keystroke_e	e	n/a
73.644	0.059	147288	keystroke_s	s	n/a
73.763	0.0305	147526	keystroke_Key.space	Key.space	n/a
73.973	0.0605	147946	keystroke_p	p	n/a
74.139	0.06	148278	keystroke_l	l	n/a
74.3035	0.06	148607	keystroke_u	u	n/a
74.3785	0.03	148757	keystroke_g	g	n/a
74.453	0.06	148906	keystroke_Key.space	Key.space	n/a
74.559	0.09	149118	keystroke_c	c	n/a
74.783	0.0455	149566	keystroke_r	r	n/a
74.888	0.1055	149776	keystroke_a	a	n/a
75.0385	0.0905	150077	keystroke_f	f	n/a
75.2485	0.045	150497	keystroke_t	t	n/a
75.474	0.059	150948	keystroke_Key.enter	Key.enter	n/a
75.538	4.3475	151076	prompt	n/a	can taken treating estimated\n
76.1485	0.06	152297	keystroke_c	c	n/a
76.2835	0.09	152567	keystroke_a	a	n/a
76.359	0.0595	152718	keystroke_n	n	n/a
76.4785	0.09	152957	keystroke_Key.space	Key.space	n/a
76.539	0.0895	153078	keystroke_t	t	n/a
76.689	0.0895	153378	keystroke_a	a	n/a
76.764	0.0595	153528	keystroke_k	k	n/a
76.8535	0.075	153707	keystroke_e	e	n/a
76.943	0.0755	153886	keystroke_n	n	n/a
77.078	0.0755	154156	keystroke_Key.space	Key.space	n/a
77.244	0.074	154488	keystroke_t	t	n/a
77.408	0.12	154816	keystroke_r	r	n/a
77.513	0.1205	155026	keystroke_e	e	n/a
77.648	0.0905	155296	keystroke_a	a	n/a
77.8585	0.06	155717	keystroke_t	t	n/a
77.934	0.0595	155868	keystroke_i	i	n/a
78.1135	0.075	156227	keystroke_n	n	n/a
78.1735	0.06	156347	keystroke_g	g	n/a
78.2935	0.0755	156587	keystroke_Key.space	Key.space	n/a
78.564	0.074	157128	keystroke_e	e	n/a
78.758	0.06	157516	keystroke_s	s	n/a
78.9685	0.0605	157937	keystroke_t	t	n/a
79.0135	0.0455	158027	keystroke_i	i	n/a
79.1785	0.075	158357	keystroke_m	m	n/a
79.2085	0.075	158417	keystroke_a	a	n/a
79.3285	0.06	158657	keystroke_t	t	n/a
79.539	0.0145	159078	keystroke_e	e	n/a
79.6285	0.075	159257	keystroke_d	d	n/a
79.8085	0.075	159617	keystroke_Key.enter	Key.enter	n/a
79.8895	4.781	159779	prompt	n/a	leave banks explicitly tolerance\n
80.454	0.0595	160908	keystroke_l	l	n/a
80.498	0.09	160996	keystroke_e	e	n/a
80.6485	0.0905	161297	keystroke_a	a	n/a
80.7535	0.06	161507	keystroke_v	v	n/a
80.8285	0.06	161657	keystroke_e	e	n/a
80.904	0.09	161808	keystroke_Key.space	Key.space	n/a
81.0685	0.075	162137	keystroke_b	b	n/a
81.1735	0.075	162347	keystroke_a	a	n/a
81.2785	0.075	162557	keystroke_n	n	n/a
81.504	0.0445	163008	keystroke_k	k	n/a
81.594	0.0895	163188	keystroke_s	s	n/a
81.803	0.06	163606	keystroke_Key.space	Key.space	n/a
81.939	0.075	163878	keystroke_e	e	n/a
82.1485	0.06	164297	keystroke_x	x	n/a
82.1935	0.045	164387	keystroke_p	p	n/a
82.3285	0.0595	164657	keystroke_l	l	n/a
82.4635	0.0745	164927	keystroke_i	i	n/a
82.523	0.0455	165046	keystroke_c	c	n/a
82.6435	0.0605	165287	keystroke_i	i	n/a
82.7785	0.0755	165557	keystroke_t	t	n/a
82.944	0.0595	165888	keystroke_l	l	n/a
83.0335	0.0605	166067	keystroke_y	y	n/a
83.169	0.059	166338	keystroke_Key.space	Key.space	n/a
83.4985	0.0745	166997	keystroke_t	t	n/a
83.5885	0.06	167177	keystroke_o	o	n/a
83.753	0.06	167506	keystroke_l	l	n/a
83.828	0.075	167656	keystroke_e	e	n/a
83.948	0.075	167896	keystroke_r	r	n/a
84.0535	0.0895	168107	keystroke_a	a	n/a
84.128	0.061	168256	keystroke_n	n	n/a
84.278	0.0905	168556	keystroke_c	c	n/a
84.474	0.045	168948	keystroke_e	e	n/a
84.5935	0.075	169187	keystroke_Key.enter	Key.enter	n/a
84.6755	5.62	169351	prompt	n/a	distribute closes released supervisor\n
85.2685	0.075	170537	keystroke_d	d	n/a
85.3885	0.0595	170777	keystroke_i	i	n/a
85.4335	0.0595	170867	keystroke_s	s	n/a
85.598	0.045	171196	keystroke_t	t	n/a
85.733	0.0605	171466	keystroke_r	r	n/a
85.823	0.06	171646	keystroke_i	i	n/a
85.9285	0.0745	171857	keystroke_b	b	n/a
86.018	0.075	172036	keystroke_u	u	n/a
86.123	0.0605	172246	keystroke_t	t	n/a
86.2585	0.075	172517	keystroke_e	e	n/a
86.4385	0.0745	172877	keystroke_Key.space	Key.space	n/a
86.604	0.06	173208	keystroke_c	c	n/a
86.739	0.075	173478	keystroke_l	l	n/a
86.903	0.061	173806	keystroke_o	o	n/a
86.919	0.0595	173838	keystroke_s	s	n/a
87.0835	0.0605	174167	keystroke_e	e	n/a
87.2785	0.075	174557	keystroke_s	s	n/a
87.354	0.0595	174708	keystroke_Key.space	Key.space	n/a
87.5185	0.0905	175037	keystroke_r	r	n/a
87.6535	0.045	175307	keystroke_e	e	n/a
87.7135	0.06	175427	keystroke_l	l	n/a
88.0735	0.1195	176147	keystroke_e	e	n/a
88.239	0.18	176478	keystroke_a	a	n/a
88.329	0.179	176658	keystroke_s	s	n/a
88.5535	0.09	177107	keystroke_e	e	n/a
88.7635	0.0745	177527	keystroke_d	d	n/a
88.839	0.074	177678	keystroke_Key.space	Key.space	n/a
88.9435	0.0905	177887	keystroke_s	s	n/a
89.0185	0.06	178037	keystroke_u	u	n/a
89.1985	0.09	178397	keystroke_p	p	n/a
89.3035	0.075	178607	keystroke_e	e	n/a
89.3935	0.075	178787	keystroke_r	r	n/a
89.6185	0.06	179237	keystroke_v	v	n/a
89.709	0.06	179418	keystroke_i	i	n/a
89.799	0.06	179598	keystroke_s	s	n/a
89.919	0.074	179838	keystroke_o	o	n/a
90.039	0.075	180078	keystroke_r	r	n/a
90.233	0.0605	180466	keystroke_Key.enter	Key.enter	n/a
90.3095	5.6715	180619	prompt	n/a	accomplish annotated connector handbags\n
90.864	0.059	181728	keystroke_a	a	n/a
91.0435	0.06	182087	keystroke_c	c	n/a
91.178	0.0605	182356	keystroke_c	c	n/a
91.2385	0.06	182477	keystroke_o	o	n/a
91.404	0.06	182808	keystroke_m	m	n/a
91.568	0.1205	183136	keystroke_p	p	n/a
91.6735	0.105	183347	keystroke_l	l	n/a
91.9135	0.0455	183827	keystroke_i	i	n/a
92.0185	0.075	184037	keystroke_s	s	n/a
92.109	0.059	184218	keystroke_h	h	n/a
92.2435	0.0595	184487	keystroke_Key.space	Key.space	n/a
92.319	0.089	184638	keystroke_a	a	n/a
92.394	0.06	184788	keystroke_n	n	n/a
92.4985	0.0605	184997	keystroke_n	n	n/a
92.6785	0.045	185357	keystroke_o	o	n/a
92.7085	0.09	185417	keystroke_t	t	n/a
92.873	0.06	185746	keystroke_a	a	n/a
92.9785	0.0745	185957	keystroke_t	t	n/a
93.084	0.104	186168	keystroke_e	e	n/a
93.279	0.0595	186558	keystroke_d	d	n/a
93.3685	0.075	186737	keystroke_Key.space	Key.space	n/a
93.5035	0.0455	187007	keystroke_c	c	n/a
93.549	0.0595	187098	keystroke_o	o	n/a
93.7285	0.0295	187457	keystroke_n	n	n/a
93.834	0.0745	187668	keystroke_n	n	n/a
93.9235	0.045	187847	keystroke_e	e	n/a
94.1185	0.075	188237	keystroke_c	c	n/a
94.3435	0.06	188687	keystroke_t	t	n/a
94.4335	0.06	188867	keystroke_o	o	n/a
94.5385	0.06	189077	keystroke_r	r	n/a
94.614	0.06	189228	keystroke_Key.space	Key.space	n/a
94.7485	0.06	189497	keystroke_h	h	n/a
94.8235	0.075	189647	keystroke_a	a	n/a
94.9285	0.075	189857	keystroke_n	n	n/a
94.9885	0.06	189977	keystroke_d	d	n/a
95.1235	0.06	190247	keystroke_b	b	n/a
95.229	0.06	190458	keystroke_a	a	n/a
95.484	0.059	190968	keystroke_g	g	n/a
95.664	0.09	191328	keystroke_s	s	n/a
95.903	0.0755	191806	keystroke_Key.enter	Key.enter	n/a
95.9845	4.841	191969	prompt	n/a	data test reduce stations\n
96.6085	0.0745	193217	keystroke_d	d	n/a
96.699	0.0895	193398	keystroke_a	a	n/a
96.8635	0.075	193727	keystroke_t	t	n/a
96.9835	0.09	193967	keystroke_a	a	n/a
97.1335	0.06	194267	keystroke_Key.space	Key.space	n/a
97.2235	0.09	194447	keystroke_t	t	n/a
97.3735	0.075	194747	keystroke_e	e	n/a
97.569	0.0895	195138	keystroke_s	s	n/a
97.764	0.0745	195528	keystroke_t	t	n/a
97.8685	0.0745	195737	keystroke_Key.space	Key.space	n/a
97.959	0.075	195918	keystroke_r	r	n/a
98.064	0.0745	196128	keystroke_e	e	n/a
98.289	0.0595	196578	keystroke_d	d	n/a
98.499	0.06	196998	keystroke_c	c	n/a
98.5735	0.075	197147	keystroke_u	u	n/a
98.9785	0.06	197957	keystroke_Key.backspace	Key.backspace	n/a
99.113	0.045	198226	keystroke_Key.backspace	Key.backspace	n/a
99.3385	0.06	198677	keystroke_u	u	n/a
99.3995	0.059	198799	keystroke_c	c	n/a
99.5935	0.06	199187	keystroke_e	e	n/a
99.6685	0.075	199337	keystroke_Key.space	Key.space	n/a
99.8035	0.045	199607	keystroke_s	s	n/a
99.924	0.075	199848	keystroke_t	t	n/a
100.044	0.104	200088	keystroke_a	a	n/a
100.193	0.09	200386	keystroke_t	t	n/a
100.269	0.09	200538	keystroke_i	i	n/a
100.313	0.09	200626	keystroke_o	o	n/a
100.494	0.075	200988	keystroke_n	n	n/a
100.553	0.09	201106	keystroke_s	s	n/a
100.7635	0.06	201527	keystroke_Key.enter	Key.enter	n/a
100.833	4.4925	201666	prompt	n/a	metallic gently tournaments danger\n
101.469	0.059	202938	keystroke_m	m	n/a
101.5135	0.075	203027	keystroke_e	e	n/a
101.664	0.0745	203328	keystroke_t	t	n/a
101.7985	0.06	203597	keystroke_a	a	n/a
101.8885	0.045	203777	keystroke_l	l	n/a
101.9935	0.06	203987	keystroke_l	l	n/a
102.1585	0.06	204317	keystroke_i	i	n/a
102.2195	0.059	204439	keystroke_c	c	n/a
102.3085	0.075	204617	keystroke_Key.space	Key.space	n/a
102.444	0.059	204888	keystroke_g	g	n/a
102.5935	0.075	205187	keystroke_e	e	n/a
102.6685	0.0445	205337	keystroke_n	n	n/a
102.774	0.074	205548	keystroke_t	t	n/a
102.863	0.06	205726	keystroke_l	l	n/a
102.9835	0.045	205967	keystroke_y	y	n/a
103.0585	0.075	206117	keystroke_Key.space	Key.space	n/a
103.2535	0.06	206507	keystroke_t	t	n/a
103.3285	0.06	206657	keystroke_o	o	n/a
103.4935	0.0595	206987	keystroke_u	u	n/a
103.5685	0.075	207137	keystroke_r	r	n/a
103.6885	0.0605	207377	keystroke_n	n	n/a
103.7785	0.075	207557	keystroke_a	a	n/a
103.9435	0.0445	207887	keystroke_m	m	n/a
104.0035	0.0755	208007	keystroke_e	e	n/a
104.108	0.06	208216	keystroke_n	n	n/a
104.199	0.0745	208398	keystroke_t	t	n/a
104.3485	0.0595	208697	keystroke_s	s	n/a
104.4235	0.06	208847	keystroke_Key.space	Key.space	n/a
104.5285	0.105	209057	keystroke_d	d	n/a
104.6635	0.0755	209327	keystroke_a	a	n/a
104.739	0.0595	209478	keystroke_n	n	n/a
104.9185	0.0295	209837	keystroke_g	g	n/a
104.963	0.076	209926	keystroke_e	e	n/a
105.099	0.074	210198	keystroke_r	r	n/a
105.2785	0.045	210557	keystroke_Key.enter	Key.enter	n/a
105.33	4.72	210660	prompt	n/a	boards textbook rocks stockings\n
105.9535	0.06	211907	keystroke_b	b	n/a
106.0295	0.0595	212059	keystroke_o	o	n/a
106.1185	0.0605	212237	keystroke_a	a	n/a
106.2235	0.0895	212447	keystroke_r	r	n/a
106.374	0.119	212748	keystroke_d	d	n/a
106.479	0.1495	212958	keystroke_s	s	n/a
106.6435	0.045	213287	keystroke_Key.space	Key.space	n/a
106.7485	0.075	213497	keystroke_t	t	n/a
106.8685	0.09	213737	keystroke_e	e	n/a
107.0935	0.06	214187	keystroke_x	x	n/a
107.3935	0.0755	214787	keystroke_t	t	n/a
107.6485	0.06	215297	keystroke_b	b	n/a
107.7235	0.045	215447	keystroke_o	o	n/a
107.829	0.0745	215658	keystroke_o	o	n/a
107.993	0.09	215986	keystroke_k	k	n/a
108.128	0.075	216256	keystroke_Key.space	Key.space	n/a
108.173	0.075	216346	keystroke_r	r	n/a
108.278	0.061	216556	keystroke_o	o	n/a
108.399	0.075	216798	keystroke_c	c	n/a
108.459	0.09	216918	keystroke_k	k	n/a
108.564	0.119	217128	keystroke_s	s	n/a
108.638	0.0755	217276	keystroke_Key.space	Key.space	n/a
108.8185	0.075	217637	keystroke_s	s	n/a
108.9985	0.075	217997	keystroke_t	t	n/a
109.103	0.0605	218206	keystroke_o	o	n/a
109.238	0.06	218476	keystroke_c	c	n/a
109.283	0.076	218566	keystroke_k	k	n/a
109.4485	0.045	218897	keystroke_i	i	n/a
109.5985	0.0745	219197	keystroke_n	n	n/a
109.628	0.061	219256	keystroke_g	g	n/a
109.779	0.075	219558	keystroke_s	s	n/a
109.988	0.0605	219976	keystroke_Key.enter	Key.enter	n/a
110.0545	4.5705	220109	prompt	n/a	plan adjustments roberts valium\n
110.5885	0.06	221177	keystroke_p	p	n/a
110.754	0.045	221508	keystroke_l	l	n/a
110.829	0.06	221658	keystroke_a	a	n/a
110.949	0.06	221898	keystroke_n	n	n/a
111.098	0.0595	222196	keystroke_Key.space	Key.space	n/a
111.2035	0.075	222407	keystroke_a	a	n/a
111.3385	0.104	222677	keystroke_d	d	n/a
111.414	0.0445	222828	keystroke_j	j	n/a
111.564	0.0595	223128	keystroke_u	u	n/a
111.6085	0.0595	223217	keystroke_s	s	n/a
111.744	0.074	223488	keystroke_t	t	n/a
111.8335	0.0595	223667	keystroke_m	m	n/a
111.908	0.09	223816	keystroke_e	e	n/a
112.0135	0.06	224027	keystroke_n	n	n/a
112.1035	0.0605	224207	keystroke_t	t	n/a
112.2985	0.0595	224597	keystroke_s	s	n/a
112.403	0.075	224806	keystroke_Key.space	Key.space	n/a
112.568	0.061	225136	keystroke_r	r	n/a
112.6425	0.0465	225285	keystroke_o	o	n/a
112.8235	0.0455	225647	keystroke_b	b	n/a
112.853	0.09	225706	keystroke_e	e	n/a
112.958	0.1055	225916	keystroke_r	r	n/a
113.1535	0.075	226307	keystroke_t	t	n/a
113.2885	0.0755	226577	keystroke_s	s	n/a
113.378	0.0605	226756	keystroke_Key.space	Key.space	n/a
113.559	0.044	227118	keystroke_v	v	n/a
113.694	0.074	227388	keystroke_a	a	n/a
113.739	0.0745	227478	keystroke_l	l	n/a
113.934	0.0445	227868	keystroke_i	i	n/a
114.0685	0.06	228137	keystroke_u	u	n/a
114.2785	0.045	228557	keystroke_m	m	n/a
114.5785	0.045	229157	keystroke_Key.enter	Key.enter	n/a
114.629	5.081	229258	prompt	n/a	visited gnome precision you'll\n
115.239	0.0745	230478	keystroke_v	v	n/a
115.328	0.0455	230656	keystroke_i	i	n/a
115.3885	0.0745	230777	keystroke_s	s	n/a
115.5085	0.0295	231017	keystroke_i	i	n/a
115.5685	0.0745	231137	keystroke_t	t	n/a
115.6885	0.09	231377	keystroke_e	e	n/a
115.913	0.046	231826	keystroke_d	d	n/a
115.974	0.059	231948	keystroke_Key.space	Key.space	n/a
116.153	0.0605	232306	keystroke_g	g	n/a
116.2435	0.0745	232487	keystroke_n	n	n/a
116.5135	0.0745	233027	keystroke_o	o	n/a
116.708	0.06	233416	keystroke_m	m	n/a
116.813	0.09	233626	keystroke_e	e	n/a
116.963	0.075	233926	keystroke_Key.space	Key.space	n/a
117.234	0.044	234468	keystroke_p	p	n/a
117.263	0.075	234526	keystroke_r	r	n/a
117.383	0.076	234766	keystroke_e	e	n/a
117.5935	0.075	235187	keystroke_c	c	n/a
117.6385	0.0755	235277	keystroke_i	i	n/a
117.7885	0.075	235577	keystroke_s	s	n/a
117.8335	0.09	235667	keystroke_i	i	n/a
117.9085	0.075	235817	keystroke_o	o	n/a
118.1035	0.0745	236207	keystroke_n	n	n/a
118.2385	0.0745	236477	keystroke_Key.space	Key.space	n/a
118.538	0.075	237076	keystroke_y	y	n/a
118.628	0.0455	237256	keystroke_o	o	n/a
118.778	0.045	237556	keystroke_u	u	n/a
119.108	0.06	238216	keystroke_'	'	n/a
119.3035	0.0445	238607	keystroke_l	l	n/a
119.4085	0.0595	238817	keystroke_l	l	n/a
119.6485	0.0595	239297	keystroke_Key.enter	Key.enter	n/a
119.714	5.0665	239428	prompt	n/a	highways made camcorder bookmark\n
120.3985	0.045	240797	keystroke_h	h	n/a
120.5185	0.075	241037	keystroke_i	i	n/a
120.579	0.0595	241158	keystroke_g	g	n/a
120.6685	0.075	241337	keystroke_h	h	n/a
120.7735	0.0605	241547	keystroke_w	w	n/a
120.924	0.0895	241848	keystroke_a	a	n/a
120.9985	0.06	241997	keystroke_y	y	n/a
121.119	0.0445	242238	keystroke_s	s	n/a
121.1785	0.045	242357	keystroke_Key.space	Key.space	n/a
121.3285	0.06	242657	keystroke_m	m	n/a
121.4485	0.105	242897	keystroke_a	a	n/a
121.6885	0.09	243377	keystroke_d	d	n/a
121.898	0.075	243796	keystroke_e	e	n/a
122.063	0.09	244126	keystroke_Key.space	Key.space	n/a
122.4535	0.06	244907	keystroke_c	c	n/a
122.5585	0.09	245117	keystroke_a	a	n/a
122.6335	0.075	245267	keystroke_m	m	n/a
122.754	0.089	245508	keystroke_c	c	n/a
122.858	0.045	245716	keystroke_o	o	n/a
122.9785	0.06	245957	keystroke_r	r	n/a
123.1585	0.075	246317	keystroke_d	d	n/a
123.3385	0.075	246677	keystroke_e	e	n/a
123.4435	0.075	246887	keystroke_r	r	n/a
123.5635	0.075	247127	keystroke_Key.space	Key.space	n/a
123.7285	0.045	247457	keystroke_b	b	n/a
123.759	0.059	247518	keystroke_o	o	n/a
123.8785	0.06	247757	keystroke_o	o	n/a
124.029	0.0735	248058	keystroke_k	k	n/a
124.1935	0.0745	248387	keystroke_m	m	n/a
124.253	0.075	248506	keystroke_a	a	n/a
124.373	0.075	248746	keystroke_r	r	n/a
124.463	0.0455	248926	keystroke_k	k	n/a
124.733	0.045	249466	keystroke_Key.enter	Key.enter	n/a
124.7845	5.381	249569	prompt	n/a	footage turner common poetry\n
125.3785	0.0745	250757	keystroke_f	f	n/a
125.454	0.059	250908	keystroke_o	o	n/a
125.573	0.0605	251146	keystroke_o	o	n/a
125.6185	0.0605	251237	keystroke_t	t	n/a
125.753	0.1055	251506	keystroke_a	a	n/a
125.874	0.0445	251748	keystroke_g	g	n/a
125.9335	0.075	251867	keystroke_e	e	n/a
126.0385	0.075	252077	keystroke_Key.space	Key.space	n/a
126.3535	0.06	252707	keystroke_t	t	n/a
126.459	0.029	252918	keystroke_u	u	n/a
126.533	0.075	253066	keystroke_r	r	n/a
126.6235	0.0755	253247	keystroke_n	n	n/a
126.6835	0.0745	253367	keystroke_e	e	n/a
126.803	0.0755	253606	keystroke_r	r	n/a
126.893	0.06	253786	keystroke_Key.space	Key.space	n/a
127.0585	0.075	254117	keystroke_c	c	n/a
127.103	0.0445	254206	keystroke_o	o	n/a
127.253	0.046	254506	keystroke_m	m	n/a
127.359	0.0745	254718	keystroke_m	m	n/a
127.539	0.0445	255078	keystroke_o	o	n/a
127.6885	0.0745	255377	keystroke_n	n	n/a
127.7935	0.09	255587	keystroke_Key.space	Key.space	n/a
127.944	0.104	255888	keystroke_p	p	n/a
128.0035	0.0745	256007	keystroke_o	o	n/a
128.063	0.1055	256126	keystroke_e	e	n/a
128.1835	0.03	256367	keystroke_r	r	n/a
128.363	0.076	256726	keystroke_t	t	n/a
128.619	0.06	257238	keystroke_r	r	n/a
129.008	0.045	258016	keystroke_Key.backspace	Key.backspace	n/a
129.2185	0.0145	258437	keystroke_Key.backspace	Key.backspace	n/a
129.3235	0.0595	258647	keystroke_Key.backspace	Key.backspace	n/a
129.473	0.0905	258946	keystroke_t	t	n/a
129.683	0.061	259366	keystroke_r	r	n/a
129.788	0.016	259576	keystroke_y	y	n/a
130.1035	0.06	260207	keystroke_Key.enter	Key.enter	n/a
130.17	5.56	260340	prompt	n/a	intention anderson depression terrain\n
130.8235	0.045	261647	keystroke_i	i	n/a
130.9735	0.06	261947	keystroke_n	n	n/a
130.989	0.045	261978	keystroke_t	t	n/a
131.1085	0.1055	262217	keystroke_e	e	n/a
131.1985	0.06	262397	keystroke_n	n	n/a
131.2885	0.075	262577	keystroke_t	t	n/a
131.424	0.09	262848	keystroke_i	i	n/a
131.4835	0.09	262967	keystroke_o	o	n/a
131.693	0.0905	263386	keystroke_n	n	n/a
131.843	0.075	263686	keystroke_Key.space	Key.space	n/a
131.9635	0.09	263927	keystroke_a	a	n/a
132.0835	0.06	264167	keystroke_n	n	n/a
132.399	0.0895	264798	keystroke_d	d	n/a
132.5935	0.075	265187	keystroke_e	e	n/a
132.6835	0.1055	265367	keystroke_r	r	n/a
132.863	0.0905	265726	keystroke_s	s	n/a
132.938	0.06	265876	keystroke_o	o	n/a
133.118	0.0605	266236	keystroke_n	n	n/a
133.2235	0.0605	266447	keystroke_Key.space	Key.space	n/a
133.2985	0.0595	266597	keystroke_d	d	n/a
133.433	0.09	266866	keystroke_e	e	n/a
133.538	0.06	267076	keystroke_p	p	n/a
133.613	0.0905	267226	keystroke_r	r	n/a
133.704	0.089	267408	keystroke_e	e	n/a
133.899	0.0745	267798	keystroke_s	s	n/a
134.0335	0.075	268067	keystroke_s	s	n/a
134.1095	0.059	268219	keystroke_i	i	n/a
134.1385	0.075	268277	keystroke_o	o	n/a
134.319	0.0895	268638	keystroke_n	n	n/a
134.4385	0.075	268877	keystroke_Key.space	Key.space	n/a
134.4985	0.06	268997	keystroke_t	t	n/a
134.6335	0.09	269267	keystroke_e	e	n/a
134.7085	0.105	269417	keystroke_r	r	n/a
134.8735	0.075	269747	keystroke_r	r	n/a
135.0085	0.075	270017	keystroke_a	a	n/a
135.0985	0.06	270197	keystroke_i	i	n/a
135.2635	0.06	270527	keystroke_n	n	n/a
135.6685	0.06	271337	keystroke_Key.enter	Key.enter	n/a
135.7345	4.1205	271469	prompt	n/a	solving hoped loops graduate\n
136.284	0.075	272568	keystroke_s	s	n/a
136.374	0.059	272748	keystroke_o	o	n/a
136.523	0.06	273046	keystroke_l	l	n/a
136.598	0.06	273196	keystroke_v	v	n/a
136.703	0.045	273406	keystroke_i	i	n/a
136.854	0.074	273708	keystroke_n	n	n/a
136.899	0.059	273798	keystroke_g	g	n/a
137.004	0.075	274008	keystroke_Key.space	Key.space	n/a
137.184	0.06	274368	keystroke_h	h	n/a
137.379	0.12	274758	keystroke_o	o	n/a
137.468	0.0905	274936	keystroke_p	p	n/a
137.5435	0.0895	275087	keystroke_e	e	n/a
137.739	0.074	275478	keystroke_d	d	n/a
137.7835	0.0745	275567	keystroke_Key.space	Key.space	n/a
137.9335	0.09	275867	keystroke_l	l	n/a
138.1135	0.06	276227	keystroke_o	o	n/a
138.2185	0.12	276437	keystroke_o	o	n/a
138.2935	0.075	276587	keystroke_p	p	n/a
138.413	0.061	276826	keystroke_s	s	n/a
138.548	0.0755	277096	keystroke_Key.space	Key.space	n/a
138.728	0.061	277456	keystroke_g	g	n/a
138.8935	0.0595	277787	keystroke_r	r	n/a
139.0285	0.09	278057	keystroke_a	a	n/a
139.1485	0.075	278297	keystroke_d	d	n/a
139.253	0.06	278506	keystroke_u	u	n/a
139.358	0.0905	278716	keystroke_a	a	n/a
139.4635	0.06	278927	keystroke_t	t	n/a
139.5835	0.075	279167	keystroke_e	e	n/a
139.808	0.045	279616	keystroke_Key.enter	Key.enter	n/a
139.859	4.8275	279718	prompt	n/a	stack pharmacies mardi partition\n
140.348	0.09	280696	keystroke_s	s	n/a
140.573	0.0605	281146	keystroke_t	t	n/a
140.7235	0.06	281447	keystroke_a	a	n/a
140.889	0.06	281778	keystroke_c	c	n/a
140.934	0.06	281868	keystroke_k	k	n/a
141.054	0.075	282108	keystroke_Key.space	Key.space	n/a
141.2485	0.0605	282497	keystroke_p	p	n/a
141.4435	0.06	282887	keystroke_h	h	n/a
141.5485	0.0455	283097	keystroke_a	a	n/a
141.6685	0.06	283337	keystroke_r	r	n/a
141.759	0.0745	283518	keystroke_m	m	n/a
141.849	0.059	283698	keystroke_a	a	n/a
142.028	0.075	284056	keystroke_c	c	n/a
142.088	0.0755	284176	keystroke_i	i	n/a
142.2235	0.0455	284447	keystroke_e	e	n/a
142.389	0.0745	284778	keystroke_s	s	n/a
142.4485	0.06	284897	keystroke_Key.space	Key.space	n/a
142.629	0.0745	285258	keystroke_m	m	n/a
142.674	0.105	285348	keystroke_a	a	n/a
142.8835	0.06	285767	keystroke_r	r	n/a
143.078	0.06	286156	keystroke_d	d	n/a
143.123	0.061	286246	keystroke_i	i	n/a
143.2585	0.0445	286517	keystroke_Key.space	Key.space	n/a
143.393	0.061	286786	keystroke_p	p	n/a
143.439	0.074	286878	keystroke_a	a	n/a
143.618	0.091	287236	keystroke_r	r	n/a
143.859	0.059	287718	keystroke_t	t	n/a
143.963	0.0605	287926	keystroke_i	i	n/a
144.174	0.06	288348	keystroke_t	t	n/a
144.219	0.1195	288438	keystroke_i	i	n/a
144.294	0.0745	288588	keystroke_o	o	n/a
144.4285	0.0605	288857	keystroke_n	n	n/a
144.639	0.045	289278	keystroke_Key.enter	Key.enter	n/a
144.69	5.4255	289380	prompt	n/a	directed photographs anyone capitol\n
145.2535	0.0605	290507	keystroke_d	d	n/a
145.344	0.0595	290688	keystroke_i	i	n/a
145.434	0.045	290868	keystroke_r	r	n/a
145.5235	0.075	291047	keystroke_e	e	n/a
145.7335	0.06	291467	keystroke_c	c	n/a
145.8095	0.059	291619	keystroke_t	t	n/a
145.914	0.0745	291828	keystroke_e	e	n/a
146.1085	0.06	292217	keystroke_d	d	n/a
146.1835	0.06	292367	keystroke_Key.space	Key.space	n/a
146.4235	0.06	292847	keystroke_p	p	n/a
146.559	0.0595	293118	keystroke_h	h	n/a
146.6335	0.06	293267	keystroke_o	o	n/a
146.724	0.0745	293448	keystroke_t	t	n/a
146.814	0.06	293628	keystroke_o	o	n/a
147.0385	0.06	294077	keystroke_g	g	n/a
147.2035	0.06	294407	keystroke_r	r	n/a
147.3235	0.105	294647	keystroke_a	a	n/a
147.3835	0.06	294767	keystroke_p	p	n/a
147.5935	0.06	295187	keystroke_h	h	n/a
147.6985	0.09	295397	keystroke_s	s	n/a
147.819	0.075	295638	keystroke_Key.space	Key.space	n/a
148.059	0.074	296118	keystroke_a	a	n/a
148.118	0.06	296236	keystroke_n	n	n/a
148.299	0.0445	296598	keystroke_y	y	n/a
148.464	0.0445	296928	keystroke_o	o	n/a
148.6135	0.0755	297227	keystroke_n	n	n/a
148.6585	0.06	297317	keystroke_e	e	n/a
148.8085	0.075	297617	keystroke_Key.space	Key.space	n/a
148.8985	0.03	297797	keystroke_c	c	n/a
149.0335	0.075	298067	keystroke_a	a	n/a
149.1235	0.06	298247	keystroke_p	p	n/a
149.2585	0.0745	298517	keystroke_i	i	n/a
149.318	0.075	298636	keystroke_t	t	n/a
149.679	0.06	299358	keystroke_o	o	n/a
149.8435	0.075	299687	keystroke_l	l	n/a
150.0535	0.06	300107	keystroke_Key.enter	Key.enter	n/a
150.12	6.1455	300240	prompt	n/a	recipient deviant dosage thumbnail\n
150.774	0.06	301548	keystroke_r	r	n/a
150.864	0.09	301728	keystroke_e	e	n/a
151.104	0.06	302208	keystroke_c	c	n/a
151.3135	0.06	302627	keystroke_i	i	n/a
151.539	0.0745	303078	keystroke_p	p	n/a
151.7335	0.045	303467	keystroke_i	i	n/a
151.794	0.1045	303588	keystroke_e	e	n/a
151.9285	0.0755	303857	keystroke_n	n	n/a
152.0335	0.0605	304067	keystroke_t	t	n/a
152.108	0.0905	304216	keystroke_Key.space	Key.space	n/a
152.274	0.0595	304548	keystroke_d	d	n/a
152.3185	0.0595	304637	keystroke_i	i	n/a
152.693	0.06	305386	keystroke_Key.backspace	Key.backspace	n/a
152.828	0.091	305656	keystroke_e	e	n/a
153.099	0.044	306198	keystroke_v	v	n/a
153.489	0.045	306978	keystroke_i	i	n/a
153.698	0.09	307396	keystroke_a	a	n/a
153.803	0.0605	307606	keystroke_n	n	n/a
153.9535	0.06	307907	keystroke_t	t	n/a
154.0435	0.06	308087	keystroke_Key.space	Key.space	n/a
154.179	0.0745	308358	keystroke_d	d	n/a
154.239	0.0595	308478	keystroke_o	o	n/a
154.3135	0.09	308627	keystroke_s	s	n/a
154.4785	0.09	308957	keystroke_a	a	n/a
154.5985	0.06	309197	keystroke_g	g	n/a
154.7185	0.075	309437	keystroke_e	e	n/a
154.8085	0.075	309617	keystroke_Key.space	Key.space	n/a
154.989	0.0595	309978	keystroke_t	t	n/a
155.0485	0.0605	310097	keystroke_h	h	n/a
155.1985	0.0605	310397	keystroke_u	u	n/a
155.3635	0.075	310727	keystroke_m	m	n/a
155.4535	0.045	310907	keystroke_b	b	n/a
155.5585	0.06	311117	keystroke_n	n	n/a
155.678	0.0605	311356	keystroke_a	a	n/a
155.7685	0.0445	311537	keystroke_i	i	n/a
155.933	0.075	311866	keystroke_l	l	n/a
156.203	0.06	312406	keystroke_Key.enter	Key.enter	n/a
156.2735	4.072	312547	prompt	n/a	sound deemed corners doug\n
156.908	0.0755	313816	keystroke_s	s	n/a
156.9985	0.0745	313997	keystroke_o	o	n/a
157.1935	0.0445	314387	keystroke_u	u	n/a
157.344	0.06	314688	keystroke_n	n	n/a
157.419	0.0745	314838	keystroke_d	d	n/a
157.5385	0.0905	315077	keystroke_Key.space	Key.space	n/a
157.6885	0.075	315377	keystroke_d	d	n/a
157.8685	0.075	315737	keystroke_e	e	n/a
158.0335	0.06	316067	keystroke_e	e	n/a
158.109	0.0595	316218	keystroke_m	m	n/a
158.229	0.0895	316458	keystroke_e	e	n/a
158.483	0.031	316966	keystroke_d	d	n/a
158.604	0.075	317208	keystroke_Key.space	Key.space	n/a
158.9185	0.06	317837	keystroke_c	c	n/a
158.9935	0.045	317987	keystroke_o	o	n/a
159.1435	0.06	318287	keystroke_r	r	n/a
159.2335	0.0595	318467	keystroke_n	n	n/a
159.279	0.089	318558	keystroke_e	e	n/a
159.3835	0.09	318767	keystroke_r	r	n/a
159.548	0.06	319096	keystroke_s	s	n/a
159.6235	0.075	319247	keystroke_Key.space	Key.space	n/a
159.7435	0.06	319487	keystroke_d	d	n/a
159.804	0.0595	319608	keystroke_o	o	n/a
159.9685	0.06	319937	keystroke_u	u	n/a
160.0585	0.06	320117	keystroke_g	g	n/a
160.2835	0.06	320567	keystroke_Key.enter	Key.enter	n/a
160.35	4.5705	320700	prompt	n/a	complete trading spanish audio\n
160.8985	0.06	321797	keystroke_c	c	n/a
160.9595	0.044	321919	keystroke_o	o	n/a
161.1235	0.06	322247	keystroke_m	m	n/a
161.304	0.135	322608	keystroke_p	p	n/a
161.393	0.09	322786	keystroke_l	l	n/a
161.4685	0.0745	322937	keystroke_e	e	n/a
161.603	0.09	323206	keystroke_t	t	n/a
161.7685	0.0605	323537	keystroke_e	e	n/a
161.918	0.075	323836	keystroke_Key.space	Key.space	n/a
162.189	0.06	324378	keystroke_t	t	n/a
162.3835	0.075	324767	keystroke_r	r	n/a
162.533	0.105	325066	keystroke_a	a	n/a
162.668	0.09	325336	keystroke_d	d	n/a
162.788	0.06	325576	keystroke_i	i	n/a
162.983	0.0755	325966	keystroke_n	n	n/a
163.0735	0.06	326147	keystroke_g	g	n/a
163.1785	0.075	326357	keystroke_Key.space	Key.space	n/a
163.3585	0.075	326717	keystroke_s	s	n/a
163.4185	0.045	326837	keystroke_p	p	n/a
163.5085	0.0755	327017	keystroke_a	a	n/a
163.5985	0.06	327197	keystroke_n	n	n/a
163.748	0.061	327496	keystroke_i	i	n/a
163.8235	0.0755	327647	keystroke_s	s	n/a
163.914	0.0595	327828	keystroke_h	h	n/a
164.019	0.0595	328038	keystroke_Key.space	Key.space	n/a
164.0935	0.075	328187	keystroke_a	a	n/a
164.184	0.06	328368	keystroke_u	u	n/a
164.274	0.06	328548	keystroke_d	d	n/a
164.3635	0.1055	328727	keystroke_i	i	n/a
164.469	0.0895	328938	keystroke_o	o	n/a
164.8585	0.06	329717	keystroke_Key.enter	Key.enter	n/a
164.925	5.5155	329850	prompt	n/a	integrating required connect order\n
165.5335	0.045	331067	keystroke_i	i	n/a
165.6835	0.075	331367	keystroke_n	n	n/a
165.7285	0.0755	331457	keystroke_t	t	n/a
165.849	0.0895	331698	keystroke_e	e	n/a
165.9685	0.06	331937	keystroke_g	g	n/a
166.0295	0.0595	332059	keystroke_r	r	n/a
166.1635	0.0755	332327	keystroke_a	a	n/a
166.314	0.0895	332628	keystroke_t	t	n/a
166.389	0.0445	332778	keystroke_i	i	n/a
166.5385	0.075	333077	keystroke_n	n	n/a
166.5835	0.045	333167	keystroke_g	g	n/a
166.6735	0.06	333347	keystroke_Key.space	Key.space	n/a
166.7785	0.075	333557	keystroke_r	r	n/a
166.8835	0.09	333767	keystroke_e	e	n/a
167.1085	0.075	334217	keystroke_q	q	n/a
167.1985	0.1205	334397	keystroke_u	u	n/a
167.289	0.075	334578	keystroke_i	i	n/a
167.349	0.075	334698	keystroke_r	r	n/a
167.454	0.104	334908	keystroke_e	e	n/a
167.6485	0.09	335297	keystroke_d	d	n/a
167.7535	0.06	335507	keystroke_Key.space	Key.space	n/a
168.533	0.075	337066	keystroke_c	c	n/a
168.5935	0.045	337187	keystroke_o	o	n/a
168.7585	0.045	337517	keystroke_n	n	n/a
168.8635	0.0745	337727	keystroke_n	n	n/a
168.8935	0.0745	337787	keystroke_e	e	n/a
169.104	0.06	338208	keystroke_c	c	n/a
169.284	0.059	338568	keystroke_t	t	n/a
169.373	0.061	338746	keystroke_Key.space	Key.space	n/a
169.508	0.061	339016	keystroke_o	o	n/a
169.659	0.074	339318	keystroke_r	r	n/a
169.8535	0.075	339707	keystroke_d	d	n/a
169.988	0.076	339976	keystroke_e	e	n/a
170.079	0.089	340158	keystroke_r	r	n/a
170.378	0.06	340756	keystroke_Key.enter	Key.enter	n/a
170.4455	4.375	340891	prompt	n/a	survive riverside thanks passive\n
171.0085	0.0905	342017	keystroke_s	s	n/a
171.113	0.061	342226	keystroke_u	u	n/a
171.218	0.046	342436	keystroke_r	r	n/a
171.414	0.044	342828	keystroke_v	v	n/a
171.473	0.061	342946	keystroke_i	i	n/a
171.563	0.061	343126	keystroke_v	v	n/a
171.714	0.06	343428	keystroke_e	e	n/a
171.789	0.074	343578	keystroke_Key.space	Key.space	n/a
171.924	0.06	343848	keystroke_r	r	n/a
171.999	0.06	343998	keystroke_i	i	n/a
172.134	0.045	344268	keystroke_v	v	n/a
172.284	0.045	344568	keystroke_e	e	n/a
172.359	0.0745	344718	keystroke_r	r	n/a
172.6135	0.015	345227	keystroke_s	s	n/a
172.6435	0.06	345287	keystroke_i	i	n/a
172.7335	0.06	345467	keystroke_d	d	n/a
172.9135	0.0605	345827	keystroke_e	e	n/a
172.9885	0.06	345977	keystroke_Key.space	Key.space	n/a
173.0785	0.09	346157	keystroke_t	t	n/a
173.1695	0.044	346339	keystroke_h	h	n/a
173.2435	0.0905	346487	keystroke_a	a	n/a
173.349	0.03	346698	keystroke_n	n	n/a
173.454	0.0745	346908	keystroke_k	k	n/a
173.4985	0.0905	346997	keystroke_s	s	n/a
173.6485	0.075	347297	keystroke_Key.space	Key.space	n/a
173.8435	0.0595	347687	keystroke_p	p	n/a
173.9335	0.1055	347867	keystroke_a	a	n/a
174.054	0.0895	348108	keystroke_s	s	n/a
174.2335	0.06	348467	keystroke_s	s	n/a
174.309	0.0445	348618	keystroke_i	i	n/a
174.414	0.06	348828	keystroke_v	v	n/a
174.6085	0.0605	349217	keystroke_e	e	n/a
174.7585	0.06	349517	keystroke_Key.enter	Key.enter	n/a
174.825	4.195	349650	prompt	n/a	patches buy laid strengths\n
175.433	0.045	350866	keystroke_p	p	n/a
175.464	0.104	350928	keystroke_a	a	n/a
175.644	0.075	351288	keystroke_t	t	n/a
175.8535	0.06	351707	keystroke_c	c	n/a
175.929	0.0445	351858	keystroke_h	h	n/a
176.049	0.075	352098	keystroke_e	e	n/a
176.244	0.06	352488	keystroke_s	s	n/a
176.288	0.0755	352576	keystroke_Key.space	Key.space	n/a
176.469	0.0445	352938	keystroke_b	b	n/a
176.4985	0.0605	352997	keystroke_u	u	n/a
176.649	0.06	353298	keystroke_y	y	n/a
176.769	0.0445	353538	keystroke_Key.space	Key.space	n/a
176.8885	0.075	353777	keystroke_l	l	n/a
176.994	0.0595	353988	keystroke_a	a	n/a
177.083	0.0455	354166	keystroke_i	i	n/a
177.158	0.076	354316	keystroke_d	d	n/a
177.234	0.074	354468	keystroke_Key.space	Key.space	n/a
177.398	0.061	354796	keystroke_s	s	n/a
177.5335	0.0755	355067	keystroke_t	t	n/a
177.7135	0.0755	355427	keystroke_r	r	n/a
177.8185	0.105	355637	keystroke_e	e	n/a
177.9535	0.0755	355907	keystroke_n	n	n/a
178.0885	0.0755	356177	keystroke_g	g	n/a
178.4335	0.0595	356867	keystroke_t	t	n/a
178.508	0.0455	357016	keystroke_h	h	n/a
178.658	0.076	357316	keystroke_s	s	n/a
178.959	0.0595	357918	keystroke_Key.enter	Key.enter	n/a
179.0245	5.0655	358049	prompt	n/a	carlos rows replaced cannon\n
179.664	0.075	359328	keystroke_c	c	n/a
179.949	0.0595	359898	keystroke_a	a	n/a
180.099	0.075	360198	keystroke_r	r	n/a
180.189	0.074	360378	keystroke_l	l	n/a
180.353	0.046	360706	keystroke_o	o	n/a
180.428	0.076	360856	keystroke_s	s	n/a
180.563	0.075	361126	keystroke_Key.space	Key.space	n/a
180.728	0.061	361456	keystroke_r	r	n/a
180.833	0.06	361666	keystroke_o	o	n/a
180.954	0.075	361908	keystroke_w	w	n/a
181.1785	0.075	362357	keystroke_s	s	n/a
181.298	0.0605	362596	keystroke_Key.space	Key.space	n/a
181.5535	0.06	363107	keystroke_r	r	n/a
181.6435	0.075	363287	keystroke_e	e	n/a
181.7185	0.06	363437	keystroke_p	p	n/a
181.8685	0.0745	363737	keystroke_l	l	n/a
181.9135	0.0605	363827	keystroke_a	a	n/a
182.0935	0.0295	364187	keystroke_c	c	n/a
182.243	0.06	364486	keystroke_e	e	n/a
182.4085	0.0605	364817	keystroke_d	d	n/a
182.5135	0.0455	365027	keystroke_Key.space	Key.space	n/a
182.919	0.075	365838	keystroke_c	c	n/a
183.054	0.075	366108	keystroke_a	a	n/a
183.114	0.045	366228	keystroke_n	n	n/a
183.2335	0.075	366467	keystroke_n	n	n/a
183.4135	0.0605	366827	keystroke_o	o	n/a
183.594	0.045	367188	keystroke_n	n	n/a
184.0285	0.06	368057	keystroke_Key.enter	Key.enter	n/a
184.0935	5.052	368187	prompt	n/a	it'll rangers catalyst critical\n
184.884	0.0445	369768	keystroke_i	i	n/a
184.9435	0.0745	369887	keystroke_t	t	n/a
185.1235	0.0605	370247	keystroke_'	'	n/a
185.333	0.0455	370666	keystroke_l	l	n/a
185.439	0.059	370878	keystroke_l	l	n/a
185.618	0.06	371236	keystroke_Key.space	Key.space	n/a
185.663	0.076	371326	keystroke_r	r	n/a
185.813	0.076	371626	keystroke_a	a	n/a
185.903	0.045	371806	keystroke_n	n	n/a
186.0535	0.0595	372107	keystroke_g	g	n/a
186.099	0.089	372198	keystroke_e	e	n/a
186.218	0.0905	372436	keystroke_r	r	n/a
186.369	0.0745	372738	keystroke_s	s	n/a
186.4285	0.075	372857	keystroke_Key.space	Key.space	n/a
186.579	0.0595	373158	keystroke_c	c	n/a
186.759	0.075	373518	keystroke_a	a	n/a
186.939	0.0745	373878	keystroke_t	t	n/a
187.0585	0.075	374117	keystroke_a	a	n/a
187.149	0.06	374298	keystroke_l	l	n/a
187.3435	0.045	374687	keystroke_y	y	n/a
187.3735	0.09	374747	keystroke_s	s	n/a
187.584	0.059	375168	keystroke_t	t	n/a
187.6735	0.075	375347	keystroke_Key.space	Key.space	n/a
187.8985	0.0755	375797	keystroke_c	c	n/a
188.1085	0.0605	376217	keystroke_r	r	n/a
188.1835	0.06	376367	keystroke_i	i	n/a
188.2735	0.0755	376547	keystroke_t	t	n/a
188.364	0.075	376728	keystroke_i	i	n/a
188.528	0.046	377056	keystroke_c	c	n/a
188.6185	0.105	377237	keystroke_a	a	n/a
188.7385	0.06	377477	keystroke_l	l	n/a
189.0835	0.06	378167	keystroke_Key.enter	Key.enter	n/a
189.15	5.6205	378300	prompt	n/a	recovery labeled stewart canadian\n
189.714	0.0445	379428	keystroke_r	r	n/a
189.7885	0.1055	379577	keystroke_e	e	n/a
190.0135	0.075	380027	keystroke_c	c	n/a
190.104	0.0595	380208	keystroke_o	o	n/a
190.179	0.0595	380358	keystroke_v	v	n/a
190.343	0.046	380686	keystroke_e	e	n/a
190.419	0.089	380838	keystroke_r	r	n/a
190.509	0.074	381018	keystroke_y	y	n/a
190.628	0.06	381256	keystroke_Key.space	Key.space	n/a
190.7785	0.06	381557	keystroke_l	l	n/a
190.8235	0.075	381647	keystroke_a	a	n/a
190.959	0.0895	381918	keystroke_b	b	n/a
191.0635	0.0305	382127	keystroke_e	e	n/a
191.139	0.0745	382278	keystroke_l	l	n/a
191.214	0.074	382428	keystroke_e	e	n/a
191.3785	0.0755	382757	keystroke_d	d	n/a
191.468	0.076	382936	keystroke_Key.space	Key.space	n/a
191.634	0.06	383268	keystroke_s	s	n/a
191.8285	0.0605	383657	keystroke_t	t	n/a
192.113	0.046	384226	keystroke_e	e	n/a
192.294	0.075	384588	keystroke_w	w	n/a
192.4285	0.105	384857	keystroke_a	a	n/a
192.609	0.0745	385218	keystroke_r	r	n/a
192.863	0.046	385726	keystroke_t	t	n/a
192.9685	0.075	385937	keystroke_Key.space	Key.space	n/a
193.1485	0.06	386297	keystroke_c	c	n/a
193.269	0.0895	386538	keystroke_a	a	n/a
193.3435	0.0605	386687	keystroke_n	n	n/a
193.779	0.075	387558	keystroke_a	a	n/a
194.0035	0.0605	388007	keystroke_d	d	n/a
194.0935	0.0745	388187	keystroke_i	i	n/a
194.1835	0.075	388367	keystroke_a	a	n/a
194.3035	0.0595	388607	keystroke_n	n	n/a
194.7085	0.0595	389417	keystroke_Key.enter	Key.enter	n/a
194.775	3.7455	389550	prompt	n/a	walks producing teens sleep\n
195.4285	0.075	390857	keystroke_w	w	n/a
195.6535	0.03	391307	keystroke_a	a	n/a
195.6685	0.0455	391337	keystroke_l	l	n/a
195.789	0.0745	391578	keystroke_k	k	n/a
195.8935	0.045	391787	keystroke_s	s	n/a
195.9685	0.075	391937	keystroke_Key.space	Key.space	n/a
196.209	0.0595	392418	keystroke_p	p	n/a
196.2835	0.0755	392567	keystroke_r	r	n/a
196.3735	0.0595	392747	keystroke_o	o	n/a
196.478	0.061	392956	keystroke_d	d	n/a
196.553	0.0605	393106	keystroke_u	u	n/a
196.6735	0.06	393347	keystroke_c	c	n/a
196.7485	0.045	393497	keystroke_i	i	n/a
196.8985	0.075	393797	keystroke_n	n	n/a
196.9585	0.045	393917	keystroke_g	g	n/a
197.0335	0.0755	394067	keystroke_Key.space	Key.space	n/a
197.1385	0.06	394277	keystroke_t	t	n/a
197.274	0.075	394548	keystroke_e	e	n/a
197.423	0.061	394846	keystroke_e	e	n/a
197.514	0.06	395028	keystroke_n	n	n/a
197.589	0.075	395178	keystroke_s	s	n/a
197.679	0.0595	395358	keystroke_Key.space	Key.space	n/a
197.7835	0.045	395567	keystroke_s	s	n/a
197.859	0.0595	395718	keystroke_l	l	n/a
198.0085	0.0755	396017	keystroke_e	e	n/a
198.189	0.0595	396378	keystroke_e	e	n/a
198.2785	0.0445	396557	keystroke_p	p	n/a
198.459	0.0595	396918	keystroke_Key.enter	Key.enter	n/a
198.525	5.4405	397050	prompt	n/a	examination traveller providence attach\n
199.1635	0.0595	398327	keystroke_e	e	n/a
199.359	0.074	398718	keystroke_x	x	n/a
199.4935	0.0745	398987	keystroke_a	a	n/a
199.5535	0.0595	399107	keystroke_m	m	n/a
199.7185	0.045	399437	keystroke_i	i	n/a
199.8535	0.075	399707	keystroke_n	n	n/a
199.8835	0.0755	399767	keystroke_a	a	n/a
200.064	0.06	400128	keystroke_t	t	n/a
200.094	0.09	400188	keystroke_i	i	n/a
200.1685	0.0605	400337	keystroke_o	o	n/a
200.334	0.06	400668	keystroke_n	n	n/a
200.439	0.075	400878	keystroke_Key.space	Key.space	n/a
200.484	0.0595	400968	keystroke_t	t	n/a
200.6485	0.075	401297	keystroke_r	r	n/a
200.7385	0.09	401477	keystroke_a	a	n/a
200.889	0.074	401778	keystroke_v	v	n/a
201.038	0.076	402076	keystroke_e	e	n/a
201.114	0.0595	402228	keystroke_l	l	n/a
201.219	0.074	402438	keystroke_l	l	n/a
201.308	0.1055	402616	keystroke_e	e	n/a
201.4435	0.09	402887	keystroke_r	r	n/a
201.5635	0.0755	403127	keystroke_Key.space	Key.space	n/a
201.7735	0.06	403547	keystroke_p	p	n/a
201.8785	0.045	403757	keystroke_r	r	n/a
201.938	0.06	403876	keystroke_o	o	n/a
202.058	0.06	404116	keystroke_v	v	n/a
202.133	0.075	404266	keystroke_i	i	n/a
202.223	0.0455	404446	keystroke_d	d	n/a
202.3885	0.06	404777	keystroke_e	e	n/a
202.479	0.0445	404958	keystroke_n	n	n/a
202.599	0.0595	405198	keystroke_c	c	n/a
202.764	0.0595	405528	keystroke_e	e	n/a
202.8535	0.06	405707	keystroke_Key.space	Key.space	n/a
202.9435	0.0745	405887	keystroke_a	a	n/a
203.063	0.016	406126	keystroke_t	t	n/a
203.183	0.06	406366	keystroke_t	t	n/a
203.258	0.0455	406516	keystroke_a	a	n/a
203.558	0.06	407116	keystroke_c	c	n/a
203.619	0.0595	407238	keystroke_h	h	n/a
203.9035	0.06	407807	keystroke_Key.enter	Key.enter	n/a
203.97	4.8555	407940	prompt	n/a	sectors hiring tucson losses\n
204.564	0.09	409128	keystroke_s	s	n/a
204.758	0.0755	409516	keystroke_e	e	n/a
204.969	0.0445	409938	keystroke_c	c	n/a
205.1335	0.06	410267	keystroke_t	t	n/a
205.2085	0.0755	410417	keystroke_o	o	n/a
205.313	0.061	410626	keystroke_r	r	n/a
205.449	0.0595	410898	keystroke_s	s	n/a
205.4935	0.06	410987	keystroke_Key.space	Key.space	n/a
205.5985	0.0605	411197	keystroke_h	h	n/a
205.7335	0.0595	411467	keystroke_i	i	n/a
205.778	0.075	411556	keystroke_r	r	n/a
205.883	0.0605	411766	keystroke_i	i	n/a
206.048	0.076	412096	keystroke_n	n	n/a
206.1385	0.0755	412277	keystroke_g	g	n/a
206.2585	0.06	412517	keystroke_Key.space	Key.space	n/a
206.364	0.0745	412728	keystroke_t	t	n/a
206.4535	0.06	412907	keystroke_u	u	n/a
206.5885	0.0755	413177	keystroke_c	c	n/a
206.754	0.09	413508	keystroke_s	s	n/a
206.9035	0.0605	413807	keystroke_o	o	n/a
207.083	0.06	414166	keystroke_n	n	n/a
207.219	0.059	414438	keystroke_Key.space	Key.space	n/a
207.369	0.06	414738	keystroke_l	l	n/a
207.5185	0.045	415037	keystroke_o	o	n/a
207.5485	0.075	415097	keystroke_s	s	n/a
207.759	0.06	415518	keystroke_e	e	n/a
208.119	0.045	416238	keystroke_Key.backspace	Key.backspace	n/a
208.254	0.06	416508	keystroke_s	s	n/a
208.404	0.06	416808	keystroke_e	e	n/a
208.5835	0.075	417167	keystroke_s	s	n/a
208.7635	0.0605	417527	keystroke_Key.enter	Key.enter	n/a
208.833	6.337	417666	prompt	n/a	wherever algeria brunette optimum\n
209.439	0.105	418878	keystroke_w	w	n/a
209.5885	0.0455	419177	keystroke_h	h	n/a
209.663	0.091	419326	keystroke_e	e	n/a
209.799	0.075	419598	keystroke_r	r	n/a
210.429	0.0745	420858	keystroke_e	e	n/a
210.594	0.059	421188	keystroke_v	v	n/a
210.699	0.09	421398	keystroke_e	e	n/a
210.864	0.0745	421728	keystroke_r	r	n/a
210.9535	0.075	421907	keystroke_Key.space	Key.space	n/a
211.089	0.0745	422178	keystroke_a	a	n/a
211.149	0.075	422298	keystroke_l	l	n/a
211.389	0.0445	422778	keystroke_g	g	n/a
211.419	0.0895	422838	keystroke_e	e	n/a
211.5385	0.0905	423077	keystroke_r	r	n/a
211.6435	0.06	423287	keystroke_i	i	n/a
211.7485	0.06	423497	keystroke_a	a	n/a
211.8235	0.075	423647	keystroke_Key.space	Key.space	n/a
212.064	0.0595	424128	keystroke_b	b	n/a
212.229	0.06	424458	keystroke_r	r	n/a
212.319	0.06	424638	keystroke_u	u	n/a
212.499	0.06	424998	keystroke_n	n	n/a
212.574	0.075	425148	keystroke_e	e	n/a
212.784	0.0745	425568	keystroke_t	t	n/a
212.919	0.0745	425838	keystroke_t	t	n/a
213.114	0.1045	426228	keystroke_e	e	n/a
213.5035	0.0755	427007	keystroke_Key.space	Key.space	n/a
213.699	0.1045	427398	keystroke_o	o	n/a
213.774	0.1045	427548	keystroke_p	p	n/a
213.9685	0.075	427937	keystroke_t	t	n/a
214.1935	0.06	428387	keystroke_i	i	n/a
214.3885	0.075	428777	keystroke_m	m	n/a
214.5985	0.0305	429197	keystroke_u	u	n/a
214.7935	0.0905	429587	keystroke_m	m	n/a
215.124	0.0445	430248	keystroke_Key.enter	Key.enter	n/a
215.1735	3.222	430347	prompt	n/a	elements devil cork tops\n
215.7835	0.0605	431567	keystroke_e	e	n/a
215.8585	0.06	431717	keystroke_l	l	n/a
215.9485	0.0755	431897	keystroke_e	e	n/a
216.0385	0.0605	432077	keystroke_m	m	n/a
216.1135	0.06	432227	keystroke_e	e	n/a
216.2035	0.06	432407	keystroke_n	n	n/a
216.279	0.0745	432558	keystroke_t	t	n/a
216.444	0.06	432888	keystroke_s	s	n/a
216.5335	0.075	433067	keystroke_Key.space	Key.space	n/a
216.6985	0.06	433397	keystroke_d	d	n/a
216.864	0.06	433728	keystroke_e	e	n/a
217.059	0.06	434118	keystroke_v	v	n/a
217.0735	0.06	434147	keystroke_i	i	n/a
217.239	0.0445	434478	keystroke_l	l	n/a
217.344	0.06	434688	keystroke_Key.space	Key.space	n/a
217.4335	0.0755	434867	keystroke_c	c	n/a
217.4935	0.0605	434987	keystroke_o	o	n/a
217.629	0.075	435258	keystroke_r	r	n/a
217.689	0.0595	435378	keystroke_k	k	n/a
217.8085	0.0605	435617	keystroke_Key.space	Key.space	n/a
217.899	0.0595	435798	keystroke_t	t	n/a
217.9735	0.1205	435947	keystroke_o	o	n/a
218.0335	0.09	436067	keystroke_p	p	n/a
218.154	0.0745	436308	keystroke_s	s	n/a
218.3335	0.06	436667	keystroke_Key.enter	Key.enter	n/a
218.3995	7.736	436799	prompt	n/a	guidelines michigan shakespeare includes\n
219.309	0.045	438618	keystroke_g	g	n/a
219.3545	0.1045	438709	keystroke_u	u	n/a
219.4135	0.09	438827	keystroke_i	i	n/a
219.5185	0.075	439037	keystroke_d	d	n/a
219.669	0.0745	439338	keystroke_e	e	n/a
219.819	0.0755	439638	keystroke_l	l	n/a
220.029	0.045	440058	keystroke_i	i	n/a
220.194	0.06	440388	keystroke_n	n	n/a
220.239	0.074	440478	keystroke_e	e	n/a
220.404	0.0895	440808	keystroke_s	s	n/a
220.4785	0.0455	440957	keystroke_Key.space	Key.space	n/a
220.614	0.0595	441228	keystroke_m	m	n/a
220.7635	0.0605	441527	keystroke_i	i	n/a
220.8685	0.0745	441737	keystroke_c	c	n/a
220.944	0.045	441888	keystroke_h	h	n/a
221.049	0.074	442098	keystroke_i	i	n/a
221.169	0.075	442338	keystroke_g	g	n/a
221.319	0.09	442638	keystroke_a	a	n/a
221.379	0.075	442758	keystroke_n	n	n/a
221.484	0.09	442968	keystroke_Key.space	Key.space	n/a
221.559	0.075	443118	keystroke_s	s	n/a
221.649	0.075	443298	keystroke_h	h	n/a
221.739	0.0895	443478	keystroke_a	a	n/a
222.189	0.06	444378	keystroke_k	k	n/a
222.2945	0.0885	444589	keystroke_e	e	n/a
222.8335	0.09	445667	keystroke_s	s	n/a
222.9535	0.09	445907	keystroke_p	p	n/a
223.2685	0.075	446537	keystroke_e	e	n/a
223.419	0.089	446838	keystroke_a	a	n/a
223.554	0.0895	447108	keystroke_r	r	n/a
223.689	0.059	447378	keystroke_e	e	n/a
223.883	0.12	447766	keystroke_Key.space	Key.space	n/a
224.213	0.0455	448426	keystroke_i	i	n/a
224.3635	0.0605	448727	keystroke_n	n	n/a
224.4535	0.0605	448907	keystroke_c	c	n/a
224.5585	0.0755	449117	keystroke_l	l	n/a
224.7835	0.045	449567	keystroke_u	u	n/a
224.933	0.061	449866	keystroke_d	d	n/a
225.249	0.09	450498	keystroke_e	e	n/a
225.5335	0.09	451067	keystroke_s	s	n/a
226.0435	0.09	452087	keystroke_Key.enter	Key.enter	n/a
226.1395	5.5455	452279	prompt	n/a	vbulletin constitute improve latin\n
226.8535	0.075	453707	keystroke_v	v	n/a
227.2135	0.06	454427	keystroke_b	b	n/a
227.2885	0.0605	454577	keystroke_u	u	n/a
227.5135	0.0455	455027	keystroke_l	l	n/a
227.619	0.0895	455238	keystroke_l	l	n/a
227.828	0.075	455656	keystroke_e	e	n/a
228.0385	0.075	456077	keystroke_t	t	n/a
228.1135	0.06	456227	keystroke_i	i	n/a
228.2935	0.06	456587	keystroke_n	n	n/a
228.413	0.075	456826	keystroke_Key.space	Key.space	n/a
228.5485	0.0595	457097	keystroke_c	c	n/a
228.6235	0.045	457247	keystroke_o	o	n/a
228.773	0.0755	457546	keystroke_n	n	n/a
228.849	0.074	457698	keystroke_s	s	n/a
229.043	0.06	458086	keystroke_t	t	n/a
229.119	0.0745	458238	keystroke_i	i	n/a
229.2235	0.0605	458447	keystroke_t	t	n/a
229.3135	0.06	458627	keystroke_u	u	n/a
229.4185	0.045	458837	keystroke_t	t	n/a
229.539	0.0895	459078	keystroke_e	e	n/a
229.6435	0.0755	459287	keystroke_Key.space	Key.space	n/a
229.824	0.045	459648	keystroke_i	i	n/a
229.974	0.075	459948	keystroke_m	m	n/a
230.138	0.076	460276	keystroke_p	p	n/a
230.199	0.0745	460398	keystroke_r	r	n/a
230.304	0.06	460608	keystroke_o	o	n/a
230.423	0.075	460846	keystroke_v	v	n/a
230.604	0.0595	461208	keystroke_e	e	n/a
230.6935	0.06	461387	keystroke_Key.space	Key.space	n/a
230.9035	0.06	461807	keystroke_l	l	n/a
231.0085	0.045	462017	keystroke_a	a	n/a
231.1585	0.0755	462317	keystroke_t	t	n/a
231.2345	0.044	462469	keystroke_i	i	n/a
231.3835	0.045	462767	keystroke_n	n	n/a
231.624	0.06	463248	keystroke_Key.enter	Key.enter	n/a
231.689	4.9035	463378	prompt	n/a	conclusions listprice access swing\n
232.269	0.075	464538	keystroke_c	c	n/a
232.359	0.06	464718	keystroke_o	o	n/a
232.509	0.06	465018	keystroke_n	n	n/a
232.5535	0.06	465107	keystroke_c	c	n/a
232.674	0.09	465348	keystroke_l	l	n/a
232.839	0.045	465678	keystroke_u	u	n/a
232.929	0.0445	465858	keystroke_s	s	n/a
232.9885	0.105	465977	keystroke_i	i	n/a
233.0635	0.09	466127	keystroke_o	o	n/a
233.2585	0.09	466517	keystroke_n	n	n/a
233.3495	0.0745	466699	keystroke_s	s	n/a
233.439	0.075	466878	keystroke_Key.space	Key.space	n/a
233.559	0.075	467118	keystroke_l	l	n/a
233.724	0.045	467448	keystroke_i	i	n/a
233.739	0.045	467478	keystroke_s	s	n/a
233.904	0.06	467808	keystroke_t	t	n/a
233.979	0.045	467958	keystroke_p	p	n/a
234.084	0.059	468168	keystroke_r	r	n/a
234.158	0.061	468316	keystroke_i	i	n/a
234.354	0.029	468708	keystroke_c	c	n/a
234.609	0.0595	469218	keystroke_e	e	n/a
234.7135	0.09	469427	keystroke_Key.space	Key.space	n/a
234.8785	0.06	469757	keystroke_a	a	n/a
235.0585	0.06	470117	keystroke_c	c	n/a
235.1935	0.075	470387	keystroke_c	c	n/a
235.3735	0.06	470747	keystroke_e	e	n/a
235.583	0.031	471166	keystroke_s	s	n/a
235.689	0.06	471378	keystroke_s	s	n/a
235.794	0.0895	471588	keystroke_Key.space	Key.space	n/a
235.868	0.075	471736	keystroke_s	s	n/a
236.0485	0.06	472097	keystroke_w	w	n/a
236.1235	0.03	472247	keystroke_i	i	n/a
236.259	0.06	472518	keystroke_n	n	n/a
236.3485	0.06	472697	keystroke_g	g	n/a
236.544	0.0445	473088	keystroke_Key.enter	Key.enter	n/a
236.596	6.3705	473192	prompt	n/a	tion poison atmospheric nails\n
237.188	0.0755	474376	keystroke_t	t	n/a
237.278	0.0755	474556	keystroke_i	i	n/a
237.309	0.089	474618	keystroke_o	o	n/a
237.4885	0.0905	474977	keystroke_n	n	n/a
237.624	0.075	475248	keystroke_Key.space	Key.space	n/a
237.774	0.12	475548	keystroke_p	p	n/a
237.849	0.089	475698	keystroke_o	o	n/a
238.0135	0.0455	476027	keystroke_s	s	n/a
238.0885	0.075	476177	keystroke_i	i	n/a
238.928	0.03	477856	keystroke_Key.backspace	Key.backspace	n/a
239.033	0.046	478066	keystroke_Key.backspace	Key.backspace	n/a
239.243	0.046	478486	keystroke_i	i	n/a
239.349	0.06	478698	keystroke_s	s	n/a
239.424	0.06	478848	keystroke_o	o	n/a
239.649	0.045	479298	keystroke_n	n	n/a
239.7985	0.0755	479597	keystroke_Key.space	Key.space	n/a
240.0385	0.0755	480077	keystroke_a	a	n/a
240.2635	0.06	480527	keystroke_t	t	n/a
240.3085	0.0605	480617	keystroke_m	m	n/a
240.458	0.045	480916	keystroke_o	o	n/a
240.519	0.06	481038	keystroke_s	s	n/a
240.624	0.06	481248	keystroke_p	p	n/a
240.804	0.045	481608	keystroke_h	h	n/a
240.819	0.104	481638	keystroke_e	e	n/a
240.9385	0.0755	481877	keystroke_r	r	n/a
241.043	0.061	482086	keystroke_i	i	n/a
241.178	0.076	482356	keystroke_c	c	n/a
241.239	0.074	482478	keystroke_Key.space	Key.space	n/a
241.4335	0.045	482867	keystroke_n	n	n/a
241.449	0.0745	482898	keystroke_a	a	n/a
241.6735	0.06	483347	keystroke_i	i	n/a
241.8835	0.075	483767	keystroke_s	s	n/a
241.9735	0.075	483947	keystroke_l	l	n/a
242.3635	0.045	484727	keystroke_Key.backspace	Key.backspace	n/a
242.4985	0.0305	484997	keystroke_Key.backspace	Key.backspace	n/a
242.679	0.045	485358	keystroke_l	l	n/a
242.724	0.075	485448	keystroke_s	s	n/a
242.933	0.03	485866	keystroke_Key.enter	Key.enter	n/a
242.9715	4.689	485943	prompt	n/a	daren't camp omissions perry\n
243.4885	0.06	486977	keystroke_d	d	n/a
243.6235	0.075	487247	keystroke_a	a	n/a
243.759	0.075	487518	keystroke_r	r	n/a
243.893	0.091	487786	keystroke_e	e	n/a
244.028	0.046	488056	keystroke_n	n	n/a
244.328	0.06	488656	keystroke_'	'	n/a
244.448	0.076	488896	keystroke_t	t	n/a
244.613	0.076	489226	keystroke_Key.space	Key.space	n/a
244.7185	0.075	489437	keystroke_c	c	n/a
244.854	0.0745	489708	keystroke_a	a	n/a
244.944	0.0445	489888	keystroke_m	m	n/a
245.0935	0.06	490187	keystroke_p	p	n/a
245.228	0.06	490456	keystroke_Key.space	Key.space	n/a
245.394	0.03	490788	keystroke_o	o	n/a
245.559	0.045	491118	keystroke_m	m	n/a
245.994	0.059	491988	keystroke_i	i	n/a
246.2485	0.0455	492497	keystroke_s	s	n/a
246.3985	0.06	492797	keystroke_s	s	n/a
246.4435	0.075	492887	keystroke_i	i	n/a
246.4885	0.09	492977	keystroke_o	o	n/a
246.6835	0.06	493367	keystroke_n	n	n/a
246.729	0.0745	493458	keystroke_s	s	n/a
246.8185	0.045	493637	keystroke_Key.space	Key.space	n/a
246.939	0.0595	493878	keystroke_p	p	n/a
247.0135	0.0905	494027	keystroke_e	e	n/a
247.1335	0.075	494267	keystroke_r	r	n/a
247.2835	0.0605	494567	keystroke_r	r	n/a
247.3445	0.0595	494689	keystroke_y	y	n/a
247.599	0.06	495198	keystroke_Key.enter	Key.enter	n/a
247.665	6.3705	495330	prompt	n/a	qualification pollution prostores interact\n
248.334	0.0745	496668	keystroke_q	q	n/a
248.424	0.0445	496848	keystroke_u	u	n/a
248.544	0.0895	497088	keystroke_a	a	n/a
248.5885	0.0755	497177	keystroke_l	l	n/a
248.7385	0.0605	497477	keystroke_i	i	n/a
248.813	0.046	497626	keystroke_f	f	n/a
248.904	0.0745	497808	keystroke_i	i	n/a
249.009	0.075	498018	keystroke_c	c	n/a
249.159	0.06	498318	keystroke_a	a	n/a
249.324	0.06	498648	keystroke_t	t	n/a
249.3535	0.0905	498707	keystroke_i	i	n/a
249.399	0.09	498798	keystroke_o	o	n/a
249.594	0.0895	499188	keystroke_n	n	n/a
249.7135	0.0605	499427	keystroke_Key.space	Key.space	n/a
249.834	0.1345	499668	keystroke_p	p	n/a
249.9535	0.06	499907	keystroke_o	o	n/a
250.1335	0.045	500267	keystroke_l	l	n/a
250.2385	0.0755	500477	keystroke_l	l	n/a
250.4185	0.045	500837	keystroke_u	u	n/a
250.494	0.075	500988	keystroke_t	t	n/a
250.569	0.09	501138	keystroke_i	i	n/a
250.629	0.075	501258	keystroke_o	o	n/a
250.8235	0.06	501647	keystroke_n	n	n/a
250.9285	0.075	501857	keystroke_Key.space	Key.space	n/a
251.0635	0.0605	502127	keystroke_p	p	n/a
251.139	0.0595	502278	keystroke_r	r	n/a
251.2285	0.06	502457	keystroke_o	o	n/a
251.3785	0.075	502757	keystroke_s	s	n/a
251.6185	0.045	503237	keystroke_t	t	n/a
251.694	0.0595	503388	keystroke_o	o	n/a
251.7985	0.075	503597	keystroke_r	r	n/a
251.903	0.09	503806	keystroke_e	e	n/a
252.143	0.045	504286	keystroke_s	s	n/a
252.203	0.046	504406	keystroke_Key.space	Key.space	n/a
252.3385	0.03	504677	keystroke_i	i	n/a
252.474	0.075	504948	keystroke_n	n	n/a
252.534	0.045	505068	keystroke_t	t	n/a
252.6535	0.105	505307	keystroke_e	e	n/a
252.7135	0.105	505427	keystroke_r	r	n/a
252.8935	0.075	505787	keystroke_a	a	n/a
253.3435	0.0755	506687	keystroke_c	c	n/a
253.6735	0.0595	507347	keystroke_t	t	n/a
253.989	0.0445	507978	keystroke_Key.enter	Key.enter	n/a
254.04	4.1965	508080	prompt	n/a	everybody drawn file error\n
254.649	0.075	509298	keystroke_a	a	n/a
255.0535	0.06	510107	keystroke_Key.backspace	Key.backspace	n/a
255.2335	0.075	510467	keystroke_e	e	n/a
255.3235	0.06	510647	keystroke_v	v	n/a
255.3985	0.075	510797	keystroke_e	e	n/a
255.474	0.0895	510948	keystroke_r	r	n/a
255.5785	0.045	511157	keystroke_y	y	n/a
255.7135	0.06	511427	keystroke_b	b	n/a
255.7885	0.06	511577	keystroke_o	o	n/a
255.909	0.0595	511818	keystroke_d	d	n/a
255.9835	0.06	511967	keystroke_y	y	n/a
256.104	0.075	512208	keystroke_Key.space	Key.space	n/a
256.2235	0.075	512447	keystroke_d	d	n/a
256.419	0.06	512838	keystroke_r	r	n/a
256.539	0.12	513078	keystroke_a	a	n/a
256.689	0.075	513378	keystroke_w	w	n/a
256.7785	0.0755	513557	keystroke_n	n	n/a
256.8985	0.09	513797	keystroke_Key.space	Key.space	n/a
257.003	0.076	514006	keystroke_f	f	n/a
257.093	0.03	514186	keystroke_i	i	n/a
257.228	0.075	514456	keystroke_l	l	n/a
257.288	0.0755	514576	keystroke_e	e	n/a
257.3785	0.045	514757	keystroke_Key.space	Key.space	n/a
257.454	0.089	514908	keystroke_e	e	n/a
257.588	0.075	515176	keystroke_r	r	n/a
257.768	0.0615	515536	keystroke_r	r	n/a
257.858	0.061	515716	keystroke_o	o	n/a
258.009	0.075	516018	keystroke_r	r	n/a
258.1735	0.06	516347	keystroke_Key.enter	Key.enter	n/a
258.2405	5.8595	516481	prompt	n/a	contemporary alignment controlled destination\n
258.879	0.06	517758	keystroke_c	c	n/a
258.9535	0.0595	517907	keystroke_o	o	n/a
259.134	0.045	518268	keystroke_n	n	n/a
259.239	0.075	518478	keystroke_t	t	n/a
259.434	0.045	518868	keystroke_e	e	n/a
259.494	0.045	518988	keystroke_m	m	n/a
259.6435	0.105	519287	keystroke_p	p	n/a
259.7185	0.075	519437	keystroke_o	o	n/a
259.839	0.059	519678	keystroke_r	r	n/a
259.958	0.091	519916	keystroke_a	a	n/a
260.093	0.0755	520186	keystroke_r	r	n/a
260.1835	0.06	520367	keystroke_y	y	n/a
260.3335	0.0455	520667	keystroke_Key.space	Key.space	n/a
260.3935	0.09	520787	keystroke_a	a	n/a
260.4985	0.0595	520997	keystroke_l	l	n/a
260.648	0.0455	521296	keystroke_i	i	n/a
260.724	0.06	521448	keystroke_g	g	n/a
260.8285	0.06	521657	keystroke_n	n	n/a
260.994	0.06	521988	keystroke_m	m	n/a
261.0685	0.0755	522137	keystroke_e	e	n/a
261.174	0.06	522348	keystroke_n	n	n/a
261.249	0.0595	522498	keystroke_t	t	n/a
261.3235	0.045	522647	keystroke_Key.space	Key.space	n/a
261.4885	0.06	522977	keystroke_c	c	n/a
261.534	0.0445	523068	keystroke_o	o	n/a
261.699	0.06	523398	keystroke_n	n	n/a
261.789	0.045	523578	keystroke_t	t	n/a
261.9535	0.0455	523907	keystroke_r	r	n/a
262.0135	0.0455	524027	keystroke_o	o	n/a
262.178	0.03	524356	keystroke_l	l	n/a
262.2835	0.06	524567	keystroke_l	l	n/a
262.3735	0.06	524747	keystroke_e	e	n/a
262.554	0.06	525108	keystroke_d	d	n/a
262.6285	0.06	525257	keystroke_Key.space	Key.space	n/a
262.7335	0.0605	525467	keystroke_d	d	n/a
262.868	0.076	525736	keystroke_e	e	n/a
263.0185	0.075	526037	keystroke_s	s	n/a
263.1685	0.075	526337	keystroke_t	t	n/a
263.2135	0.075	526427	keystroke_i	i	n/a
263.3635	0.0755	526727	keystroke_n	n	n/a
263.4085	0.045	526817	keystroke_a	a	n/a
263.544	0.0445	527088	keystroke_t	t	n/a
263.604	0.089	527208	keystroke_i	i	n/a
263.648	0.106	527296	keystroke_o	o	n/a
263.784	0.059	527568	keystroke_n	n	n/a
264.054	0.0445	528108	keystroke_Key.enter	Key.enter	n/a
264.103	4.8125	528206	prompt	n/a	drinks outreach filling holdings\n
264.8035	0.0755	529607	keystroke_d	d	n/a
264.9835	0.0755	529967	keystroke_r	r	n/a
265.0435	0.045	530087	keystroke_i	i	n/a
265.194	0.0595	530388	keystroke_n	n	n/a
265.3435	0.075	530687	keystroke_k	k	n/a
265.4035	0.0755	530807	keystroke_s	s	n/a
265.5985	0.06	531197	keystroke_Key.space	Key.space	n/a
265.869	0.0595	531738	keystroke_o	o	n/a
266.0335	0.0605	532067	keystroke_u	u	n/a
266.0785	0.075	532157	keystroke_t	t	n/a
266.273	0.0755	532546	keystroke_r	r	n/a
266.3785	0.06	532757	keystroke_e	e	n/a
266.499	0.0895	532998	keystroke_a	a	n/a
266.6935	0.075	533387	keystroke_c	c	n/a
266.7535	0.06	533507	keystroke_h	h	n/a
266.9035	0.075	533807	keystroke_Key.space	Key.space	n/a
267.039	0.06	534078	keystroke_f	f	n/a
267.0835	0.0455	534167	keystroke_i	i	n/a
267.264	0.06	534528	keystroke_l	l	n/a
267.429	0.0445	534858	keystroke_i	i	n/a
267.578	0.075	535156	keystroke_n	n	n/a
267.639	0.0595	535278	keystroke_g	g	n/a
267.7135	0.06	535427	keystroke_Key.space	Key.space	n/a
267.834	0.06	535668	keystroke_h	h	n/a
267.9835	0.0605	535967	keystroke_o	o	n/a
268.149	0.0745	536298	keystroke_l	l	n/a
268.2535	0.06	536507	keystroke_d	d	n/a
268.374	0.06	536748	keystroke_i	i	n/a
268.524	0.06	537048	keystroke_n	n	n/a
268.584	0.075	537168	keystroke_g	g	n/a
268.734	0.06	537468	keystroke_s	s	n/a
268.854	0.06	537708	keystroke_Key.enter	Key.enter	n/a
268.92	5.081	537840	prompt	n/a	examining cayman freedom surge\n
269.469	0.075	538938	keystroke_e	e	n/a
269.679	0.06	539358	keystroke_x	x	n/a
269.844	0.045	539688	keystroke_a	a	n/a
269.874	0.075	539748	keystroke_m	m	n/a
270.054	0.045	540108	keystroke_i	i	n/a
270.1885	0.06	540377	keystroke_n	n	n/a
270.339	0.0595	540678	keystroke_i	i	n/a
270.4885	0.075	540977	keystroke_n	n	n/a
270.5635	0.0605	541127	keystroke_g	g	n/a
270.6385	0.075	541277	keystroke_Key.space	Key.space	n/a
270.8635	0.0755	541727	keystroke_c	c	n/a
270.9985	0.075	541997	keystroke_a	a	n/a
271.059	0.0595	542118	keystroke_y	y	n/a
271.2695	0.059	542539	keystroke_m	m	n/a
271.4035	0.0755	542807	keystroke_a	a	n/a
271.494	0.06	542988	keystroke_n	n	n/a
271.6735	0.0755	543347	keystroke_Key.space	Key.space	n/a
271.8085	0.045	543617	keystroke_d	d	n/a
272.1835	0.045	544367	keystroke_Key.backspace	Key.backspace	n/a
272.289	0.0595	544578	keystroke_f	f	n/a
272.469	0.06	544938	keystroke_r	r	n/a
272.589	0.06	545178	keystroke_e	e	n/a
272.723	0.061	545446	keystroke_e	e	n/a
272.889	0.06	545778	keystroke_d	d	n/a
272.934	0.06	545868	keystroke_o	o	n/a
273.099	0.06	546198	keystroke_m	m	n/a
273.234	0.075	546468	keystroke_Key.space	Key.space	n/a
273.324	0.06	546648	keystroke_s	s	n/a
273.444	0.03	546888	keystroke_u	u	n/a
273.519	0.06	547038	keystroke_r	r	n/a
273.609	0.044	547218	keystroke_g	g	n/a
273.668	0.091	547336	keystroke_e	e	n/a
273.939	0.06	547878	keystroke_Key.enter	Key.enter	n/a
274.0075	4.868	548015	prompt	n/a	gary survey sbjct focused\n
274.853	0.0455	549706	keystroke_g	g	n/a
274.929	0.09	549858	keystroke_a	a	n/a
275.078	0.0755	550156	keystroke_r	r	n/a
275.138	0.076	550276	keystroke_y	y	n/a
275.2885	0.06	550577	keystroke_Key.space	Key.space	n/a
275.3785	0.0755	550757	keystroke_s	s	n/a
275.4685	0.06	550937	keystroke_u	u	n/a
275.573	0.0455	551146	keystroke_r	r	n/a
275.7685	0.0455	551537	keystroke_v	v	n/a
275.919	0.075	551838	keystroke_e	e	n/a
276.009	0.0445	552018	keystroke_y	y	n/a
276.1135	0.06	552227	keystroke_Key.space	Key.space	n/a
276.2485	0.0605	552497	keystroke_s	s	n/a
276.5635	0.045	553127	keystroke_b	b	n/a
276.654	0.0595	553308	keystroke_j	j	n/a
276.939	0.0595	553878	keystroke_c	c	n/a
277.2235	0.06	554447	keystroke_t	t	n/a
277.3735	0.0755	554747	keystroke_Key.space	Key.space	n/a
277.599	0.045	555198	keystroke_f	f	n/a
277.659	0.075	555318	keystroke_o	o	n/a
277.824	0.045	555648	keystroke_c	c	n/a
277.899	0.06	555798	keystroke_u	u	n/a
278.318	0.0905	556636	keystroke_s	s	n/a
278.5285	0.0745	557057	keystroke_e	e	n/a
278.724	0.045	557448	keystroke_d	d	n/a
278.814	0.0595	557628	keystroke_Key.enter	Key.enter	n/a
278.8795	4.196	557759	prompt	n/a	refresh chris manga marina\n
279.5185	0.075	559037	keystroke_r	r	n/a
279.6535	0.06	559307	keystroke_e	e	n/a
279.8185	0.0755	559637	keystroke_f	f	n/a
279.984	0.06	559968	keystroke_r	r	n/a
280.0885	0.105	560177	keystroke_e	e	n/a
280.2835	0.06	560567	keystroke_s	s	n/a
280.3735	0.075	560747	keystroke_h	h	n/a
280.568	0.0755	561136	keystroke_Key.space	Key.space	n/a
280.778	0.061	561556	keystroke_c	c	n/a
280.839	0.075	561678	keystroke_h	h	n/a
280.974	0.075	561948	keystroke_r	r	n/a
281.033	0.076	562066	keystroke_i	i	n/a
281.138	0.061	562276	keystroke_s	s	n/a
281.183	0.06	562366	keystroke_Key.space	Key.space	n/a
281.318	0.061	562636	keystroke_m	m	n/a
281.394	0.0745	562788	keystroke_a	a	n/a
281.514	0.014	563028	keystroke_n	n	n/a
281.708	0.045	563416	keystroke_g	g	n/a
281.844	0.075	563688	keystroke_a	a	n/a
281.9195	0.0435	563839	keystroke_Key.space	Key.space	n/a
282.068	0.0755	564136	keystroke_m	m	n/a
282.128	0.061	564256	keystroke_a	a	n/a
282.264	0.06	564528	keystroke_r	r	n/a
282.369	0.105	564738	keystroke_i	i	n/a
282.609	0.06	565218	keystroke_n	n	n/a
282.699	0.0745	565398	keystroke_a	a	n/a
283.014	0.06	566028	keystroke_Key.enter	Key.enter	n/a
283.08	3.8505	566160	prompt	n/a	trash imposed anne items\n
283.689	0.0745	567378	keystroke_t	t	n/a
283.869	0.0745	567738	keystroke_r	r	n/a
283.9735	0.1055	567947	keystroke_a	a	n/a
284.049	0.1205	568098	keystroke_s	s	n/a
284.184	0.0595	568368	keystroke_h	h	n/a
284.3185	0.0605	568637	keystroke_Key.space	Key.space	n/a
284.4685	0.06	568937	keystroke_i	i	n/a
284.6335	0.045	569267	keystroke_m	m	n/a
284.784	0.12	569568	keystroke_p	p	n/a
284.8585	0.075	569717	keystroke_o	o	n/a
284.919	0.0595	569838	keystroke_s	s	n/a
285.0385	0.0905	570077	keystroke_e	e	n/a
285.249	0.0595	570498	keystroke_d	d	n/a
285.2935	0.045	570587	keystroke_Key.space	Key.space	n/a
285.3985	0.06	570797	keystroke_a	a	n/a
285.4735	0.0605	570947	keystroke_n	n	n/a
285.594	0.0745	571188	keystroke_n	n	n/a
285.6535	0.0755	571307	keystroke_e	e	n/a
285.7585	0.075	571517	keystroke_Key.space	Key.space	n/a
286.134	0.0445	572268	keystroke_i	i	n/a
286.194	0.074	572388	keystroke_t	t	n/a
286.344	0.075	572688	keystroke_e	e	n/a
286.419	0.06	572838	keystroke_m	m	n/a
286.538	0.0905	573076	keystroke_s	s	n/a
286.8835	0.0455	573767	keystroke_Key.enter	Key.enter	n/a
286.9335	7.362	573867	prompt	n/a	precise mitsubishi addressing remarkable\n
287.649	0.075	575298	keystroke_p	p	n/a
287.738	0.061	575476	keystroke_r	r	n/a
288.2485	0.06	576497	keystroke_e	e	n/a
288.4885	0.06	576977	keystroke_c	c	n/a
288.5785	0.06	577157	keystroke_i	i	n/a
288.7885	0.09	577577	keystroke_s	s	n/a
288.9835	0.075	577967	keystroke_e	e	n/a
289.0735	0.045	578147	keystroke_Key.space	Key.space	n/a
289.2235	0.1055	578447	keystroke_m	m	n/a
289.464	0.0605	578928	keystroke_i	i	n/a
289.5685	0.12	579137	keystroke_t	t	n/a
289.8235	0.06	579647	keystroke_s	s	n/a
289.9285	0.06	579857	keystroke_u	u	n/a
290.199	0.045	580398	keystroke_b	b	n/a
290.2735	0.06	580547	keystroke_i	i	n/a
290.3935	0.075	580787	keystroke_s	s	n/a
290.904	0.06	581808	keystroke_h	h	n/a
291.129	0.059	582258	keystroke_i	i	n/a
291.369	0.06	582738	keystroke_Key.space	Key.space	n/a
291.564	0.06	583128	keystroke_a	a	n/a
291.729	0.06	583458	keystroke_d	d	n/a
291.879	0.044	583758	keystroke_d	d	n/a
292.0585	0.06	584117	keystroke_r	r	n/a
292.1635	0.09	584327	keystroke_e	e	n/a
292.419	0.0445	584838	keystroke_s	s	n/a
292.554	0.0595	585108	keystroke_s	s	n/a
292.6285	0.06	585257	keystroke_i	i	n/a
292.809	0.075	585618	keystroke_n	n	n/a
292.869	0.06	585738	keystroke_g	g	n/a
292.958	0.09	585916	keystroke_Key.space	Key.space	n/a
293.063	0.076	586126	keystroke_r	r	n/a
293.154	0.074	586308	keystroke_e	e	n/a
293.259	0.075	586518	keystroke_m	m	n/a
293.348	0.0905	586696	keystroke_a	a	n/a
293.484	0.075	586968	keystroke_r	r	n/a
293.574	0.06	587148	keystroke_k	k	n/a
293.649	0.0895	587298	keystroke_a	a	n/a
293.8435	0.06	587687	keystroke_b	b	n/a
293.9335	0.06	587867	keystroke_l	l	n/a
294.0535	0.0755	588107	keystroke_e	e	n/a
294.248	0.0455	588496	keystroke_Key.enter	Key.enter	n/a
294.3005	5.74	588601	prompt	n/a	copied ronald logitech simulation\n
294.8945	0.0595	589789	keystroke_c	c	n/a
294.969	0.12	589938	keystroke_o	o	n/a
295.059	0.0895	590118	keystroke_p	p	n/a
295.254	0.0745	590508	keystroke_i	i	n/a
295.314	0.09	590628	keystroke_e	e	n/a
295.5085	0.06	591017	keystroke_d	d	n/a
295.6135	0.0755	591227	keystroke_Key.space	Key.space	n/a
295.8985	0.06	591797	keystroke_r	r	n/a
295.9735	0.045	591947	keystroke_o	o	n/a
296.139	0.0445	592278	keystroke_n	n	n/a
296.2285	0.0605	592457	keystroke_a	a	n/a
296.319	0.0745	592638	keystroke_l	l	n/a
296.5735	0.06	593147	keystroke_Key.space	Key.space	n/a
297.038	0.046	594076	keystroke_Key.backspace	Key.backspace	n/a
297.203	0.076	594406	keystroke_d	d	n/a
297.323	0.075	594646	keystroke_Key.space	Key.space	n/a
297.549	0.074	595098	keystroke_l	l	n/a
297.699	0.075	595398	keystroke_o	o	n/a
297.789	0.075	595578	keystroke_g	g	n/a
297.894	0.075	595788	keystroke_i	i	n/a
298.014	0.075	596028	keystroke_t	t	n/a
298.164	0.06	596328	keystroke_e	e	n/a
298.389	0.045	596778	keystroke_c	c	n/a
298.419	0.045	596838	keystroke_h	h	n/a
298.524	0.09	597048	keystroke_Key.space	Key.space	n/a
298.629	0.06	597258	keystroke_s	s	n/a
298.7035	0.0455	597407	keystroke_i	i	n/a
298.854	0.075	597708	keystroke_m	m	n/a
299.049	0.0305	598098	keystroke_u	u	n/a
299.199	0.0745	598398	keystroke_l	l	n/a
299.289	0.0595	598578	keystroke_a	a	n/a
299.4235	0.0605	598847	keystroke_t	t	n/a
299.454	0.0895	598908	keystroke_i	i	n/a
299.4985	0.09	598997	keystroke_o	o	n/a
299.709	0.0595	599418	keystroke_n	n	n/a
299.994	0.0445	599988	keystroke_Key.enter	Key.enter	n/a
300.0455	3.82	600091	prompt	n/a	services emma town hostel\n
300.6835	0.045	601367	keystroke_s	s	n/a
300.834	0.0895	601668	keystroke_e	e	n/a
300.9085	0.09	601817	keystroke_r	r	n/a
301.1485	0.03	602297	keystroke_v	v	n/a
301.2235	0.045	602447	keystroke_i	i	n/a
301.314	0.075	602628	keystroke_c	c	n/a
301.479	0.045	602958	keystroke_e	e	n/a
301.659	0.059	603318	keystroke_s	s	n/a
301.734	0.06	603468	keystroke_Key.space	Key.space	n/a
301.854	0.075	603708	keystroke_e	e	n/a
301.959	0.045	603918	keystroke_m	m	n/a
302.0635	0.09	604127	keystroke_m	m	n/a
302.124	0.09	604248	keystroke_a	a	n/a
302.2285	0.0755	604457	keystroke_Key.space	Key.space	n/a
302.3335	0.0755	604667	keystroke_t	t	n/a
302.424	0.045	604848	keystroke_o	o	n/a
302.499	0.075	604998	keystroke_w	w	n/a
302.589	0.075	605178	keystroke_n	n	n/a
302.694	0.0745	605388	keystroke_Key.space	Key.space	n/a
302.9035	0.06	605807	keystroke_h	h	n/a
303.024	0.075	606048	keystroke_o	o	n/a
303.084	0.074	606168	keystroke_s	s	n/a
303.233	0.076	606466	keystroke_t	t	n/a
303.3685	0.0755	606737	keystroke_e	e	n/a
303.429	0.0745	606858	keystroke_l	l	n/a
303.8035	0.06	607607	keystroke_Key.enter	Key.enter	n/a
303.87	4.615	607740	prompt	n/a	apollo receipt bloom selling\n
304.524	0.0895	609048	keystroke_a	a	n/a
304.6435	0.1205	609287	keystroke_p	p	n/a
304.7185	0.1055	609437	keystroke_o	o	n/a
304.9585	0.0455	609917	keystroke_l	l	n/a
305.0635	0.09	610127	keystroke_l	l	n/a
305.289	0.03	610578	keystroke_o	o	n/a
305.423	0.076	610846	keystroke_Key.space	Key.space	n/a
305.619	0.075	611238	keystroke_r	r	n/a
305.723	0.076	611446	keystroke_e	e	n/a
305.934	0.06	611868	keystroke_c	c	n/a
306.099	0.06	612198	keystroke_e	e	n/a
306.144	0.06	612288	keystroke_i	i	n/a
306.279	0.075	612558	keystroke_p	p	n/a
306.383	0.075	612766	keystroke_t	t	n/a
306.488	0.09	612976	keystroke_Key.space	Key.space	n/a
306.7135	0.0605	613427	keystroke_b	b	n/a
306.759	0.075	613518	keystroke_l	l	n/a
306.939	0.045	613878	keystroke_o	o	n/a
307.044	0.0595	614088	keystroke_o	o	n/a
307.208	0.076	614416	keystroke_m	m	n/a
307.343	0.0605	614686	keystroke_Key.space	Key.space	n/a
307.434	0.0595	614868	keystroke_s	s	n/a
307.5835	0.075	615167	keystroke_e	e	n/a
307.6735	0.015	615347	keystroke_l	l	n/a
307.749	0.09	615498	keystroke_l	l	n/a
307.9585	0.0455	615917	keystroke_i	i	n/a
308.124	0.06	616248	keystroke_n	n	n/a
308.2135	0.0605	616427	keystroke_g	g	n/a
308.439	0.045	616878	keystroke_Key.enter	Key.enter	n/a
308.489	5.2615	616978	prompt	n/a	hurt shadow punishment kilometers\n
309.189	0.06	618378	keystroke_h	h	n/a
309.324	0.075	618648	keystroke_u	u	n/a
309.414	0.059	618828	keystroke_r	r	n/a
309.579	0.059	619158	keystroke_t	t	n/a
309.654	0.075	619308	keystroke_Key.space	Key.space	n/a
309.834	0.06	619668	keystroke_s	s	n/a
309.924	0.0595	619848	keystroke_h	h	n/a
310.0285	0.0905	620057	keystroke_a	a	n/a
310.179	0.09	620358	keystroke_d	d	n/a
310.284	0.075	620568	keystroke_o	o	n/a
310.389	0.0745	620778	keystroke_w	w	n/a
310.4785	0.0755	620957	keystroke_Key.space	Key.space	n/a
310.6435	0.075	621287	keystroke_p	p	n/a
310.824	0.059	621648	keystroke_u	u	n/a
310.9735	0.0455	621947	keystroke_n	n	n/a
311.124	0.045	622248	keystroke_i	i	n/a
311.199	0.06	622398	keystroke_s	s	n/a
311.274	0.06	622548	keystroke_h	h	n/a
311.454	0.06	622908	keystroke_m	m	n/a
311.529	0.09	623058	keystroke_e	e	n/a
311.634	0.06	623268	keystroke_n	n	n/a
311.739	0.06	623478	keystroke_t	t	n/a
311.784	0.0745	623568	keystroke_Key.space	Key.space	n/a
311.9785	0.0755	623957	keystroke_k	k	n/a
312.129	0.045	624258	keystroke_i	i	n/a
312.309	0.075	624618	keystroke_l	l	n/a
312.474	0.045	624948	keystroke_o	o	n/a
312.639	0.089	625278	keystroke_m	m	n/a
312.684	0.1045	625368	keystroke_e	e	n/a
312.894	0.059	625788	keystroke_t	t	n/a
313.059	0.09	626118	keystroke_e	e	n/a
313.164	0.0905	626328	keystroke_r	r	n/a
313.3735	0.0455	626747	keystroke_s	s	n/a
313.704	0.045	627408	keystroke_Key.enter	Key.enter	n/a
313.755	4.4955	627510	prompt	n/a	designed voting playing begun\n
314.409	0.06	628818	keystroke_d	d	n/a
314.544	0.075	629088	keystroke_e	e	n/a
314.724	0.0595	629448	keystroke_s	s	n/a
314.7685	0.06	629537	keystroke_i	i	n/a
314.918	0.06	629836	keystroke_g	g	n/a
315.009	0.045	630018	keystroke_n	n	n/a
315.0995	0.0745	630199	keystroke_e	e	n/a
315.264	0.06	630528	keystroke_d	d	n/a
315.3385	0.045	630677	keystroke_Key.space	Key.space	n/a
315.4435	0.09	630887	keystroke_v	v	n/a
315.549	0.0445	631098	keystroke_o	o	n/a
315.7135	0.06	631427	keystroke_t	t	n/a
315.834	0.0445	631668	keystroke_i	i	n/a
315.9835	0.075	631967	keystroke_n	n	n/a
316.059	0.06	632118	keystroke_g	g	n/a
316.164	0.0595	632328	keystroke_Key.space	Key.space	n/a
316.3435	0.045	632687	keystroke_p	p	n/a
316.464	0.0745	632928	keystroke_l	l	n/a
316.509	0.06	633018	keystroke_a	a	n/a
316.704	0.074	633408	keystroke_y	y	n/a
316.793	0.061	633586	keystroke_i	i	n/a
316.944	0.075	633888	keystroke_n	n	n/a
317.034	0.045	634068	keystroke_g	g	n/a
317.124	0.075	634248	keystroke_Key.space	Key.space	n/a
317.4385	0.06	634877	keystroke_b	b	n/a
317.5135	0.06	635027	keystroke_e	e	n/a
317.6785	0.0755	635357	keystroke_g	g	n/a
317.7385	0.0455	635477	keystroke_u	u	n/a
317.889	0.0595	635778	keystroke_n	n	n/a
318.189	0.0595	636378	keystroke_Key.enter	Key.enter	n/a
318.255	4.7505	636510	prompt	n/a	honda ours champion automatically\n
319.014	0.03	638028	keystroke_h	h	n/a
319.119	0.075	638238	keystroke_o	o	n/a
319.269	0.089	638538	keystroke_n	n	n/a
319.344	0.105	638688	keystroke_d	d	n/a
319.4785	0.1055	638957	keystroke_a	a	n/a
319.5685	0.0605	639137	keystroke_Key.space	Key.space	n/a
319.704	0.0745	639408	keystroke_o	o	n/a
319.853	0.075	639706	keystroke_u	u	n/a
319.8985	0.0755	639797	keystroke_r	r	n/a
320.064	0.059	640128	keystroke_s	s	n/a
320.109	0.06	640218	keystroke_Key.space	Key.space	n/a
320.244	0.06	640488	keystroke_c	c	n/a
320.334	0.06	640668	keystroke_h	h	n/a
320.409	0.09	640818	keystroke_a	a	n/a
320.5135	0.075	641027	keystroke_m	m	n/a
320.7085	0.0595	641417	keystroke_p	p	n/a
320.904	0.12	641808	keystroke_i	i	n/a
320.963	0.121	641926	keystroke_o	o	n/a
321.248	0.061	642496	keystroke_n	n	n/a
321.444	0.045	642888	keystroke_Key.space	Key.space	n/a
321.6085	0.06	643217	keystroke_a	a	n/a
321.684	0.045	643368	keystroke_u	u	n/a
321.789	0.075	643578	keystroke_t	t	n/a
321.834	0.06	643668	keystroke_o	o	n/a
321.969	0.09	643938	keystroke_m	m	n/a
322.029	0.059	644058	keystroke_a	a	n/a
322.164	0.075	644328	keystroke_t	t	n/a
322.239	0.0595	644478	keystroke_i	i	n/a
322.3885	0.06	644777	keystroke_c	c	n/a
322.5085	0.075	645017	keystroke_a	a	n/a
322.5835	0.045	645167	keystroke_l	l	n/a
322.6885	0.0605	645377	keystroke_l	l	n/a
322.779	0.0595	645558	keystroke_y	y	n/a
322.959	0.0445	645918	keystroke_Key.enter	Key.enter	n/a
323.009	5.5615	646018	prompt	n/a	touched allowed europe offerings\n
323.649	0.06	647298	keystroke_t	t	n/a
323.694	0.059	647388	keystroke_o	o	n/a
323.918	0.015	647836	keystroke_u	u	n/a
324.023	0.061	648046	keystroke_h	h	n/a
324.3685	0.045	648737	keystroke_Key.backspace	Key.backspace	n/a
324.4735	0.075	648947	keystroke_c	c	n/a
324.5935	0.06	649187	keystroke_h	h	n/a
324.7285	0.075	649457	keystroke_e	e	n/a
324.9235	0.0755	649847	keystroke_d	d	n/a
324.999	0.059	649998	keystroke_Key.space	Key.space	n/a
325.133	0.076	650266	keystroke_a	a	n/a
325.209	0.059	650418	keystroke_l	l	n/a
325.284	0.09	650568	keystroke_l	l	n/a
326.033	0.045	652066	keystroke_o	o	n/a
326.124	0.105	652248	keystroke_w	w	n/a
326.2135	0.105	652427	keystroke_e	e	n/a
326.409	0.09	652818	keystroke_d	d	n/a
326.5285	0.06	653057	keystroke_Key.space	Key.space	n/a
326.754	0.0895	653508	keystroke_e	e	n/a
326.8285	0.06	653657	keystroke_u	u	n/a
326.9335	0.076	653867	keystroke_r	r	n/a
327.0235	0.1205	654047	keystroke_o	o	n/a
327.099	0.09	654198	keystroke_p	p	n/a
327.249	0.089	654498	keystroke_e	e	n/a
327.3835	0.0595	654767	keystroke_Key.space	Key.space	n/a
327.518	0.075	655036	keystroke_o	o	n/a
327.5785	0.0595	655157	keystroke_f	f	n/a
327.699	0.0745	655398	keystroke_f	f	n/a
327.849	0.06	655698	keystroke_e	e	n/a
327.924	0.0745	655848	keystroke_r	r	n/a
328.029	0.06	656058	keystroke_i	i	n/a
328.1935	0.075	656387	keystroke_n	n	n/a
328.2235	0.075	656447	keystroke_g	g	n/a
328.3735	0.0745	656747	keystroke_s	s	n/a
328.508	0.0605	657016	keystroke_Key.enter	Key.enter	n/a
328.5745	5.2765	657149	prompt	n/a	ground attractive upgrade tablet\n
329.2285	0.0605	658457	keystroke_g	g	n/a
329.3785	0.0745	658757	keystroke_r	r	n/a
329.438	0.045	658876	keystroke_o	o	n/a
329.573	0.0605	659146	keystroke_u	u	n/a
329.738	0.076	659476	keystroke_n	n	n/a
329.769	0.0745	659538	keystroke_d	d	n/a
329.874	0.075	659748	keystroke_Key.space	Key.space	n/a
329.964	0.06	659928	keystroke_a	a	n/a
330.0985	0.076	660197	keystroke_t	t	n/a
330.234	0.075	660468	keystroke_t	t	n/a
330.3985	0.075	660797	keystroke_r	r	n/a
330.5485	0.075	661097	keystroke_a	a	n/a
330.728	0.0755	661456	keystroke_c	c	n/a
330.9535	0.0605	661907	keystroke_t	t	n/a
331.0585	0.0605	662117	keystroke_i	i	n/a
331.164	0.045	662328	keystroke_v	v	n/a
331.2995	0.0745	662599	keystroke_e	e	n/a
331.389	0.06	662778	keystroke_Key.space	Key.space	n/a
331.9585	0.0605	663917	keystroke_u	u	n/a
332.094	0.1195	664188	keystroke_p	p	n/a
332.1685	0.06	664337	keystroke_g	g	n/a
332.3185	0.09	664637	keystroke_r	r	n/a
332.4685	0.1205	664937	keystroke_a	a	n/a
332.574	0.135	665148	keystroke_d	d	n/a
332.739	0.0895	665478	keystroke_e	e	n/a
332.8295	0.0745	665659	keystroke_Key.space	Key.space	n/a
332.9185	0.0605	665837	keystroke_t	t	n/a
333.0395	0.09	666079	keystroke_a	a	n/a
333.2345	0.06	666469	keystroke_b	b	n/a
333.339	0.06	666678	keystroke_l	l	n/a
333.444	0.0905	666888	keystroke_e	e	n/a
333.609	0.0905	667218	keystroke_t	t	n/a
333.7895	0.0595	667579	keystroke_Key.enter	Key.enter	n/a
333.8585	5.168	667717	prompt	n/a	suppliers obituaries routing beyond\n
334.479	0.09	668958	keystroke_s	s	n/a
334.5845	0.045	669169	keystroke_u	u	n/a
334.7495	0.03	669499	keystroke_p	p	n/a
334.8695	0.105	669739	keystroke_p	p	n/a
334.9595	0.089	669919	keystroke_l	l	n/a
335.1695	0.044	670339	keystroke_i	i	n/a
335.1995	0.119	670399	keystroke_e	e	n/a
335.3045	0.09	670609	keystroke_r	r	n/a
335.4545	0.104	670909	keystroke_s	s	n/a
335.5735	0.03	671147	keystroke_Key.space	Key.space	n/a
335.755	0.059	671510	keystroke_o	o	n/a
336.13	0.089	672260	keystroke_b	b	n/a
336.2795	0.0755	672559	keystroke_i	i	n/a
336.4595	0.075	672919	keystroke_t	t	n/a
336.5495	0.075	673099	keystroke_u	u	n/a
336.6995	0.09	673399	keystroke_a	a	n/a
336.9095	0.06	673819	keystroke_r	r	n/a
337.015	0.0595	674030	keystroke_i	i	n/a
337.1195	0.0605	674239	keystroke_e	e	n/a
337.2845	0.075	674569	keystroke_s	s	n/a
337.3445	0.06	674689	keystroke_Key.space	Key.space	n/a
337.5245	0.06	675049	keystroke_r	r	n/a
337.5695	0.045	675139	keystroke_o	o	n/a
337.734	0.031	675468	keystroke_u	u	n/a
337.779	0.105	675558	keystroke_t	t	n/a
337.8695	0.0455	675739	keystroke_i	i	n/a
338.02	0.075	676040	keystroke_n	n	n/a
338.0795	0.045	676159	keystroke_g	g	n/a
338.1395	0.06	676279	keystroke_Key.space	Key.space	n/a
338.2445	0.06	676489	keystroke_b	b	n/a
338.3195	0.0605	676639	keystroke_e	e	n/a
338.425	0.044	676850	keystroke_y	y	n/a
338.59	0.045	677180	keystroke_o	o	n/a
338.74	0.0445	677480	keystroke_n	n	n/a
338.8145	0.075	677629	keystroke_d	d	n/a
338.98	0.045	677960	keystroke_Key.enter	Key.enter	n/a
339.0305	5.3965	678061	prompt	n/a	charitable shoes theta continuity\n
339.61	0.075	679220	keystroke_c	c	n/a
339.7	0.044	679400	keystroke_h	h	n/a
339.76	0.09	679520	keystroke_a	a	n/a
339.895	0.06	679790	keystroke_r	r	n/a
339.955	0.06	679910	keystroke_i	i	n/a
340.075	0.06	680150	keystroke_t	t	n/a
340.165	0.09	680330	keystroke_a	a	n/a
340.3895	0.0755	680779	keystroke_b	b	n/a
340.51	0.0595	681020	keystroke_l	l	n/a
340.6745	0.045	681349	keystroke_e	e	n/a
340.825	0.0295	681650	keystroke_Key.space	Key.space	n/a
340.945	0.0745	681890	keystroke_s	s	n/a
341.005	0.0445	682010	keystroke_h	h	n/a
341.14	0.0595	682280	keystroke_o	o	n/a
341.2005	0.0745	682401	keystroke_e	e	n/a
341.3645	0.0905	682729	keystroke_s	s	n/a
341.4395	0.06	682879	keystroke_Key.space	Key.space	n/a
341.56	0.0755	683120	keystroke_t	t	n/a
341.649	0.0315	683298	keystroke_h	h	n/a
341.7245	0.0905	683449	keystroke_e	e	n/a
341.8605	0.059	683721	keystroke_a	a	n/a
342.055	0.09	684110	keystroke_t	t	n/a
342.49	0.045	684980	keystroke_Key.backspace	Key.backspace	n/a
342.6095	0.061	685219	keystroke_Key.backspace	Key.backspace	n/a
342.6855	0.0745	685371	keystroke_t	t	n/a
342.8195	0.0905	685639	keystroke_a	a	n/a
342.9695	0.06	685939	keystroke_Key.space	Key.space	n/a
343.1505	0.09	686301	keystroke_c	c	n/a
343.225	0.0445	686450	keystroke_o	o	n/a
343.345	0.075	686690	keystroke_n	n	n/a
343.45	0.0595	686900	keystroke_t	t	n/a
343.5255	0.074	687051	keystroke_i	i	n/a
343.69	0.045	687380	keystroke_n	n	n/a
343.8405	0.1045	687681	keystroke_u	u	n/a
343.915	0.09	687830	keystroke_i	i	n/a
344.0205	0.0745	688041	keystroke_t	t	n/a
344.2455	0.0445	688491	keystroke_y	y	n/a
344.365	0.06	688730	keystroke_Key.enter	Key.enter	n/a
344.4305	4.7375	688861	prompt	n/a	tablet us refugees minimize\n
345.0255	0.09	690051	keystroke_t	t	n/a
345.1605	0.075	690321	keystroke_a	a	n/a
345.3255	0.06	690651	keystroke_b	b	n/a
345.4005	0.059	690801	keystroke_l	l	n/a
345.4895	0.0605	690979	keystroke_e	e	n/a
345.64	0.06	691280	keystroke_t	t	n/a
345.7155	0.0595	691431	keystroke_Key.space	Key.space	n/a
345.8645	0.06	691729	keystroke_u	u	n/a
345.971	0.045	691942	keystroke_s	s	n/a
346.045	0.0755	692090	keystroke_Key.space	Key.space	n/a
346.3905	0.0745	692781	keystroke_r	r	n/a
346.48	0.105	692960	keystroke_e	e	n/a
346.6905	0.0745	693381	keystroke_f	f	n/a
346.811	0.06	693622	keystroke_u	u	n/a
347.066	0.045	694132	keystroke_g	g	n/a
347.2305	0.075	694461	keystroke_e	e	n/a
347.381	0.06	694762	keystroke_e	e	n/a
347.56	0.06	695120	keystroke_s	s	n/a
347.605	0.06	695210	keystroke_Key.space	Key.space	n/a
347.755	0.0605	695510	keystroke_m	m	n/a
347.921	0.045	695842	keystroke_i	i	n/a
348.086	0.0595	696172	keystroke_n	n	n/a
348.25	0.045	696500	keystroke_i	i	n/a
348.46	0.0605	696920	keystroke_m	m	n/a
348.655	0.046	697310	keystroke_i	i	n/a
348.701	0.074	697402	keystroke_z	z	n/a
348.88	0.076	697760	keystroke_e	e	n/a
349.106	0.06	698212	keystroke_Key.enter	Key.enter	n/a
349.1715	3.7465	698343	prompt	n/a	adam found female compound\n
349.766	0.09	699532	keystroke_a	a	n/a
349.931	0.105	699862	keystroke_d	d	n/a
350.051	0.075	700102	keystroke_a	a	n/a
350.141	0.06	700282	keystroke_m	m	n/a
350.306	0.06	700612	keystroke_Key.space	Key.space	n/a
350.381	0.0745	700762	keystroke_f	f	n/a
350.471	0.06	700942	keystroke_o	o	n/a
350.6505	0.045	701301	keystroke_u	u	n/a
350.7855	0.0755	701571	keystroke_n	n	n/a
350.831	0.06	701662	keystroke_d	d	n/a
350.921	0.075	701842	keystroke_Key.space	Key.space	n/a
350.9965	0.0595	701993	keystroke_f	f	n/a
351.116	0.0755	702232	keystroke_e	e	n/a
351.1915	0.0595	702383	keystroke_m	m	n/a
351.311	0.0745	702622	keystroke_a	a	n/a
351.3705	0.076	702741	keystroke_l	l	n/a
351.491	0.0745	702982	keystroke_e	e	n/a
351.5505	0.06	703101	keystroke_Key.space	Key.space	n/a
351.701	0.0605	703402	keystroke_c	c	n/a
351.746	0.045	703492	keystroke_o	o	n/a
351.8965	0.06	703793	keystroke_m	m	n/a
352.0605	0.075	704121	keystroke_p	p	n/a
352.2255	0.061	704451	keystroke_o	o	n/a
352.4205	0.0755	704841	keystroke_u	u	n/a
352.5855	0.046	705171	keystroke_n	n	n/a
352.6455	0.06	705291	keystroke_d	d	n/a
352.8705	0.0455	705741	keystroke_Key.enter	Key.enter	n/a
352.922	5.231	705844	prompt	n/a	threatening holds complaints observer\n
353.4855	0.0755	706971	keystroke_t	t	n/a
353.5905	0.06	707181	keystroke_h	h	n/a
353.6655	0.0905	707331	keystroke_r	r	n/a
353.726	0.09	707452	keystroke_e	e	n/a
353.8915	0.0895	707783	keystroke_a	a	n/a
354.146	0.0605	708292	keystroke_t	t	n/a
354.2815	0.0595	708563	keystroke_e	e	n/a
354.3555	0.045	708711	keystroke_n	n	n/a
354.506	0.045	709012	keystroke_i	i	n/a
354.641	0.0905	709282	keystroke_n	n	n/a
354.7165	0.06	709433	keystroke_g	g	n/a
354.791	0.075	709582	keystroke_Key.space	Key.space	n/a
355.031	0.06	710062	keystroke_h	h	n/a
355.1215	0.045	710243	keystroke_o	o	n/a
355.256	0.0755	710512	keystroke_l	l	n/a
355.3015	0.09	710603	keystroke_d	d	n/a
355.4215	0.075	710843	keystroke_s	s	n/a
355.4965	0.075	710993	keystroke_Key.space	Key.space	n/a
355.6465	0.075	711293	keystroke_c	c	n/a
355.7065	0.03	711413	keystroke_o	o	n/a
355.8565	0.0455	711713	keystroke_m	m	n/a
356.0215	0.105	712043	keystroke_p	p	n/a
356.096	0.0905	712192	keystroke_l	l	n/a
356.2015	0.075	712403	keystroke_a	a	n/a
