onset	duration	sample	value	key	prompt_text
9.8665	10.1445	19733	prompt	n/a	the quick brown fox jumps over a lazy dog\n
11.743	0.011	23486	keystroke	t	n/a
11.769	0.075	23538	keystroke	h	n/a
11.859	0.105	23718	keystroke	e	n/a
12.024	0.105	24048	keystroke	Key.space	n/a
12.249	0.09	24498	keystroke	q	n/a
12.475	0.0745	24950	keystroke	u	n/a
12.6995	0.045	25399	keystroke	i	n/a
12.7895	0.1495	25579	keystroke	c	n/a
12.954	0.075	25908	keystroke	k	n/a
13.269	0.0755	26538	keystroke	Key.space	n/a
13.54	0.06	27080	keystroke	b	n/a
13.7805	0.09	27561	keystroke	r	n/a
14.0945	0.076	28189	keystroke	o	n/a
14.2305	0.105	28461	keystroke	w	n/a
14.35	0.075	28700	keystroke	n	n/a
14.59	0.09	29180	keystroke	Key.space	n/a
15.386	0.06	30772	keystroke	f	n/a
15.491	0.075	30982	keystroke	o	n/a
15.7755	0.1055	31551	keystroke	x	n/a
15.926	0.09	31852	keystroke	Key.space	n/a
16.151	0.046	32302	keystroke	j	n/a
16.286	0.06	32572	keystroke	u	n/a
16.4665	0.105	32933	keystroke	m	n/a
16.646	0.0755	33292	keystroke	p	n/a
16.7965	0.12	33593	keystroke	s	n/a
16.8865	0.12	33773	keystroke	Key.space	n/a
17.0515	0.075	34103	keystroke	o	n/a
17.1715	0.09	34343	keystroke	v	n/a
17.427	0.0895	34854	keystroke	e	n/a
17.442	0.1345	34884	keystroke	r	n/a
17.757	0.045	35514	keystroke	Key.space	n/a
17.832	0.12	35664	keystroke	a	n/a
17.937	0.075	35874	keystroke	Key.space	n/a
18.1775	0.0905	36355	keystroke	l	n/a
18.298	0.105	36596	keystroke	a	n/a
18.537	0.105	37074	keystroke	z	n/a
18.657	0.0755	37314	keystroke	y	n/a
18.8675	0.075	37735	keystroke	Key.space	n/a
19.3175	0.0905	38635	keystroke	d	n/a
19.468	0.105	38936	keystroke	o	n/a
19.648	0.0745	39296	keystroke	g	n/a
19.903	0.105	39806	keystroke	Key.enter	n/a
20.015	8.339	40030	prompt	n/a	issued bundle riding processor\n
21.074	0.075	42148	keystroke	i	n/a
21.254	0.0595	42508	keystroke	s	n/a
21.4185	0.091	42837	keystroke	s	n/a
21.5245	0.0895	43049	keystroke	u	n/a
22.14	0.09	44280	keystroke	e	n/a
22.469	0.105	44938	keystroke	Key.space	n/a
22.89	0.06	45780	keystroke	Key.backspace	n/a
23.085	0.09	46170	keystroke	d	n/a
23.385	0.0905	46770	keystroke	Key.space	n/a
23.715	0.075	47430	keystroke	b	n/a
23.865	0.105	47730	keystroke	u	n/a
24.2255	0.09	48451	keystroke	n	n/a
24.4055	0.105	48811	keystroke	d	n/a
24.5555	0.105	49111	keystroke	l	n/a
25.0955	0.09	50191	keystroke	e	n/a
25.2465	0.09	50493	keystroke	Key.space	n/a
25.516	0.09	51032	keystroke	r	n/a
25.636	0.075	51272	keystroke	i	n/a
25.756	0.09	51512	keystroke	d	n/a
25.847	0.134	51694	keystroke	i	n/a
25.936	0.105	51872	keystroke	n	n/a
26.101	0.105	52202	keystroke	g	n/a
26.281	0.09	52562	keystroke	Key.space	n/a
26.4615	0.075	52923	keystroke	p	n/a
26.5815	0.105	53163	keystroke	r	n/a
26.7165	0.075	53433	keystroke	o	n/a
27.302	0.12	54604	keystroke	c	n/a
27.4365	0.105	54873	keystroke	e	n/a
27.677	0.015	55354	keystroke	s	n/a
27.797	0.06	55594	keystroke	s	n/a
27.917	0.0755	55834	keystroke	o	n/a
28.0525	0.09	56105	keystroke	r	n/a
28.2775	0.075	56555	keystroke	Key.enter	n/a
28.3575	9.856	56715	prompt	n/a	hosts therefore relates international\n
29.373	0.06	58746	keystroke	h	n/a
29.538	0.09	59076	keystroke	o	n/a
29.643	0.09	59286	keystroke	s	n/a
29.883	0.12	59766	keystroke	t	n/a
30.138	0.075	60276	keystroke	s	n/a
30.243	0.12	60486	keystroke	Key.space	n/a
30.393	0.12	60786	keystroke	t	n/a
30.573	0.045	61146	keystroke	h	n/a
30.678	0.2105	61356	keystroke	e	n/a
30.7685	0.165	61537	keystroke	r	n/a
31.3985	0.06	62797	keystroke	e	n/a
31.5635	0.0905	63127	keystroke	d	n/a
31.714	0.12	63428	keystroke	o	n/a
31.864	0.165	63728	keystroke	r	n/a
32.014	0.045	64028	keystroke	e	n/a
32.4635	0.06	64927	keystroke	Key.backspace	n/a
32.7195	0.06	65439	keystroke	Key.backspace	n/a
32.9295	0.045	65859	keystroke	Key.backspace	n/a
33.1245	0.075	66249	keystroke	Key.backspace	n/a
33.4245	0.075	66849	keystroke	f	n/a
33.6045	0.075	67209	keystroke	o	n/a
33.8745	0.03	67749	keystroke	r	n/a
33.8895	0.09	67779	keystroke	e	n/a
34.5355	0.09	69071	keystroke	Key.space	n/a
34.8205	0.09	69641	keystroke	r	n/a
34.8805	0.075	69761	keystroke	e	n/a
35.0005	0.075	70001	keystroke	l	n/a
35.0905	0.0745	70181	keystroke	a	n/a
35.255	0.105	70510	keystroke	t	n/a
35.4055	0.06	70811	keystroke	e	n/a
35.75	0.106	71500	keystroke	s	n/a
36.006	0.09	72012	keystroke	Key.space	n/a
36.261	0.09	72522	keystroke	i	n/a
36.321	0.105	72642	keystroke	n	n/a
36.5155	0.135	73031	keystroke	t	n/a
36.6805	0.09	73361	keystroke	e	n/a
36.7555	0.09	73511	keystroke	r	n/a
36.906	0.075	73812	keystroke	n	n/a
37.011	0.09	74022	keystroke	a	n/a
37.221	0.09	74442	keystroke	t	n/a
37.326	0.045	74652	keystroke	i	n/a
37.461	0.12	74922	keystroke	o	n/a
37.536	0.105	75072	keystroke	n	n/a
37.686	0.09	75372	keystroke	a	n/a
37.791	0.075	75582	keystroke	l	n/a
38.121	0.09	76242	keystroke	Key.enter	n/a
38.2245	6.5765	76449	prompt	n/a	elect adapted tigers sleeps\n
39.172	0.0745	78344	keystroke	e	n/a
39.2765	0.0755	78553	keystroke	l	n/a
39.367	0.105	78734	keystroke	e	n/a
39.607	0.075	79214	keystroke	c	n/a
39.802	0.105	79604	keystroke	t	n/a
39.952	0.09	79904	keystroke	Key.space	n/a
40.147	0.06	80294	keystroke	a	n/a
40.297	0.091	80594	keystroke	d	n/a
40.447	0.1055	80894	keystroke	a	n/a
40.9875	0.075	81975	keystroke	p	n/a
41.1225	0.105	82245	keystroke	t	n/a
41.3175	0.075	82635	keystroke	e	n/a
41.5275	0.0905	83055	keystroke	d	n/a
41.723	0.09	83446	keystroke	Key.space	n/a
42.158	0.06	84316	keystroke	t	n/a
42.263	0.105	84526	keystroke	i	n/a
42.398	0.06	84796	keystroke	g	n/a
42.578	0.1055	85156	keystroke	e	n/a
42.6385	0.105	85277	keystroke	r	n/a
43.1635	0.1205	86327	keystroke	s	n/a
43.3735	0.075	86747	keystroke	Key.space	n/a
43.659	0.105	87318	keystroke	s	n/a
43.748	0.076	87496	keystroke	l	n/a
43.914	0.075	87828	keystroke	e	n/a
44.064	0.075	88128	keystroke	e	n/a
44.184	0.075	88368	keystroke	p	n/a
44.3785	0.091	88757	keystroke	s	n/a
44.694	0.105	89388	keystroke	Key.enter	n/a
44.804	8.3525	89608	prompt	n/a	synthetic trio hollywood italic\n
45.8345	0.075	91669	keystroke	s	n/a
45.9245	0.06	91849	keystroke	y	n/a
46.1045	0.06	92209	keystroke	n	n/a
46.1795	0.105	92359	keystroke	t	n/a
46.3145	0.06	92629	keystroke	h	n/a
46.4195	0.091	92839	keystroke	e	n/a
46.7805	0.06	93561	keystroke	i	n/a
47.29	0.0455	94580	keystroke	Key.backspace	n/a
47.561	0.0745	95122	keystroke	t	n/a
47.7255	0.045	95451	keystroke	i	n/a
47.8755	0.09	95751	keystroke	c	n/a
48.0555	0.075	96111	keystroke	Key.space	n/a
48.7455	0.09	97491	keystroke	t	n/a
48.8055	0.105	97611	keystroke	r	n/a
49.0755	0.0745	98151	keystroke	i	n/a
49.24	0.045	98480	keystroke	o	n/a
49.405	0.105	98810	keystroke	Key.space	n/a
49.6605	0.06	99321	keystroke	h	n/a
49.8105	0.075	99621	keystroke	o	n/a
49.9905	0.03	99981	keystroke	l	n/a
50.11	0.061	100220	keystroke	l	n/a
50.215	0.1195	100430	keystroke	y	n/a
50.95	0.0895	101900	keystroke	w	n/a
51.0995	0.06	102199	keystroke	o	n/a
51.2345	0.075	102469	keystroke	o	n/a
51.3545	0.09	102709	keystroke	d	n/a
51.6245	0.06	103249	keystroke	Key.space	n/a
51.85	0.075	103700	keystroke	i	n/a
52.0445	0.09	104089	keystroke	t	n/a
52.2095	0.105	104419	keystroke	a	n/a
52.2845	0.06	104569	keystroke	l	n/a
52.45	0.06	104900	keystroke	i	n/a
52.525	0.105	105050	keystroke	c	n/a
53.079	0.076	106158	keystroke	Key.enter	n/a
53.16	6.537	106320	prompt	n/a	shaved tracker sims favor\n
54.054	0.105	108108	keystroke	s	n/a
54.144	0.105	108288	keystroke	h	n/a
54.264	0.105	108528	keystroke	a	n/a
54.504	0.09	109008	keystroke	v	n/a
54.624	0.06	109248	keystroke	e	n/a
54.8045	0.09	109609	keystroke	d	n/a
54.9545	0.12	109909	keystroke	Key.space	n/a
55.1795	0.135	110359	keystroke	t	n/a
55.2695	0.105	110539	keystroke	r	n/a
55.5095	0.075	111019	keystroke	a	n/a
55.6295	0.135	111259	keystroke	c	n/a
55.8095	0.0745	111619	keystroke	k	n/a
56.019	0.15	112038	keystroke	e	n/a
56.139	0.105	112278	keystroke	r	n/a
56.394	0.075	112788	keystroke	Key.space	n/a
56.635	0.0895	113270	keystroke	s	n/a
56.7545	0.135	113509	keystroke	i	n/a
57.1135	0.091	114227	keystroke	s	n/a
57.6695	0.06	115339	keystroke	Key.backspace	n/a
57.9085	0.076	115817	keystroke	m	n/a
58.0445	0.09	116089	keystroke	s	n/a
58.269	0.075	116538	keystroke	Key.space	n/a
58.764	0.075	117528	keystroke	f	n/a
58.884	0.1655	117768	keystroke	a	n/a
59.0945	0.09	118189	keystroke	v	n/a
59.2445	0.075	118489	keystroke	o	n/a
59.3645	0.09	118729	keystroke	r	n/a
59.664	0.03	119328	keystroke	Key.enter	n/a
59.7005	9.43	119401	prompt	n/a	applies perceived exactly tariff\n
60.4145	0.0895	120829	keystroke	a	n/a
60.774	0.06	121548	keystroke	p	n/a
60.909	0.075	121818	keystroke	p	n/a
61.044	0.135	122088	keystroke	l	n/a
61.269	0.075	122538	keystroke	i	n/a
61.4035	0.135	122807	keystroke	e	n/a
61.4935	0.105	122987	keystroke	s	n/a
61.6735	0.075	123347	keystroke	Key.space	n/a
61.989	0.06	123978	keystroke	p	n/a
62.109	0.1195	124218	keystroke	e	n/a
62.1835	0.09	124367	keystroke	r	n/a
62.649	0.105	125298	keystroke	c	n/a
63.2485	0.015	126497	keystroke	e	n/a
63.3085	0.105	126617	keystroke	i	n/a
63.7585	0.075	127517	keystroke	v	n/a
63.9535	0.06	127907	keystroke	e	n/a
64.1935	0.06	128387	keystroke	d	n/a
64.449	0.12	128898	keystroke	Key.space	n/a
64.8085	0.06	129617	keystroke	e	n/a
65.0485	0.1195	130097	keystroke	x	n/a
65.258	0.135	130516	keystroke	a	n/a
65.408	0.091	130816	keystroke	c	n/a
65.6335	0.12	131267	keystroke	t	n/a
65.7685	0.09	131537	keystroke	l	n/a
65.8885	0.12	131777	keystroke	y	n/a
66.0985	0.105	132197	keystroke	Key.space	n/a
66.8935	0.0895	133787	keystroke	t	n/a
67.103	0.12	134206	keystroke	a	n/a
67.268	0.15	134536	keystroke	r	n/a
67.9435	0.074	135887	keystroke	i	n/a
68.513	0.09	137026	keystroke	f	n/a
68.708	0.045	137416	keystroke	f	n/a
69.038	0.09	138076	keystroke	Key.enter	n/a
69.1355	12.3375	138271	prompt	n/a	reporter upper washington somebody's\n
70.043	0.0595	140086	keystroke	r	n/a
70.088	0.0745	140176	keystroke	e	n/a
70.2525	0.15	140505	keystroke	p	n/a
70.4175	0.075	140835	keystroke	o	n/a
70.5225	0.15	141045	keystroke	r	n/a
70.6125	0.121	141225	keystroke	t	n/a
70.9875	0.1655	141975	keystroke	e	n/a
71.123	0.105	142246	keystroke	r	n/a
71.303	0.09	142606	keystroke	Key.space	n/a
71.528	0.06	143056	keystroke	u	n/a
71.7525	0.045	143505	keystroke	p	n/a
71.8875	0.075	143775	keystroke	p	n/a
72.037	0.15	144074	keystroke	e	n/a
72.143	0.119	144286	keystroke	r	n/a
72.247	0.12	144494	keystroke	Key.space	n/a
72.413	0.12	144826	keystroke	w	n/a
72.548	0.18	145096	keystroke	a	n/a
72.713	0.21	145426	keystroke	s	n/a
73.0125	0.135	146025	keystroke	h	n/a
73.283	0.089	146566	keystroke	i	n/a
73.343	0.12	146686	keystroke	n	n/a
73.538	0.1195	147076	keystroke	t	n/a
73.7775	0.12	147555	keystroke	o	n/a
73.8525	0.105	147705	keystroke	n	n/a
74.317	0.061	148634	keystroke	Key.backspace	n/a
74.498	0.045	148996	keystroke	Key.backspace	n/a
74.6325	0.075	149265	keystroke	Key.backspace	n/a
74.7675	0.075	149535	keystroke	g	n/a
75.217	0.045	150434	keystroke	t	n/a
75.457	0.105	150914	keystroke	n	n/a
76.117	0.015	152234	keystroke	Key.backspace	n/a
76.372	0.075	152744	keystroke	o	n/a
76.537	0.076	153074	keystroke	n	n/a
76.7325	0.0895	153465	keystroke	Key.space	n/a
76.942	0.105	153884	keystroke	s	n/a
77.032	0.105	154064	keystroke	o	n/a
77.122	0.09	154244	keystroke	m	n/a
77.3475	0.1195	154695	keystroke	e	n/a
78.3965	0.045	156793	keystroke	b	n/a
78.5765	0.06	157153	keystroke	o	n/a
78.817	0.105	157634	keystroke	d	n/a
78.997	0.075	157994	keystroke	y	n/a
79.117	0.1195	158234	keystroke	s	n/a
79.8065	0.075	159613	keystroke	Key.backspace	n/a
80.452	0.06	160904	keystroke	'	n/a
80.9915	0.105	161983	keystroke	s	n/a
81.396	0.0755	162792	keystroke	Key.enter	n/a
81.476	8.8315	162952	prompt	n/a	verizon navigator optimum spain\n
82.4915	0.09	164983	keystroke	v	n/a
82.7165	0.0755	165433	keystroke	e	n/a
82.7615	0.0905	165523	keystroke	r	n/a
82.957	0.075	165914	keystroke	i	n/a
83.3465	0.15	166693	keystroke	z	n/a
83.4815	0.1205	166963	keystroke	o	n/a
83.5715	0.0905	167143	keystroke	n	n/a
84.0815	0.105	168163	keystroke	Key.space	n/a
84.5315	0.075	169063	keystroke	n	n/a
84.6365	0.105	169273	keystroke	a	n/a
84.8465	0.105	169693	keystroke	v	n/a
85.026	0.075	170052	keystroke	i	n/a
85.236	0.06	170472	keystroke	g	n/a
85.4165	0.075	170833	keystroke	a	n/a
85.596	0.09	171192	keystroke	t	n/a
85.746	0.105	171492	keystroke	o	n/a
85.881	0.075	171762	keystroke	r	n/a
86.257	0.075	172514	keystroke	Key.space	n/a
86.8705	0.0455	173741	keystroke	o	n/a
87.021	0.06	174042	keystroke	p	n/a
87.186	0.09	174372	keystroke	t	n/a
87.426	0.075	174852	keystroke	i	n/a
87.8305	0.046	175661	keystroke	m	n/a
88.446	0.09	176892	keystroke	u	n/a
88.671	0.075	177342	keystroke	m	n/a
88.9855	0.075	177971	keystroke	Key.space	n/a
89.3165	0.09	178633	keystroke	s	n/a
89.3765	0.1045	178753	keystroke	p	n/a
89.511	0.105	179022	keystroke	a	n/a
89.736	0.1045	179472	keystroke	i	n/a
89.8105	0.105	179621	keystroke	n	n/a
90.2305	0.075	180461	keystroke	Key.enter	n/a
90.312	12.429	180624	prompt	n/a	reflection attributes dragon leone\n
91.116	0.12	182232	keystroke	r	n/a
91.176	0.12	182352	keystroke	e	n/a
91.386	0.09	182772	keystroke	f	n/a
91.491	0.075	182982	keystroke	l	n/a
91.567	0.1035	183134	keystroke	e	n/a
91.6865	0.074	183373	keystroke	c	n/a
91.88	0.076	183760	keystroke	t	n/a
92.556	0.075	185112	keystroke	i	n/a
92.766	0.1195	185532	keystroke	o	n/a
92.9005	0.105	185801	keystroke	n	n/a
93.1855	0.06	186371	keystroke	Key.space	n/a
93.2905	0.09	186581	keystroke	a	n/a
93.6655	0.0755	187331	keystroke	t	n/a
93.831	0.1345	187662	keystroke	t	n/a
93.9205	0.12	187841	keystroke	r	n/a
94.1905	0.09	188381	keystroke	u	n/a
94.745	0.06	189490	keystroke	Key.backspace	n/a
94.985	0.0605	189970	keystroke	i	n/a
95	0.03	190000	keystroke	u	n/a
95.465	0.06	190930	keystroke	Key.backspace	n/a
95.96	0.06	191920	keystroke	v	n/a
96.276	0.0745	192552	keystroke	u	n/a
96.6355	0.045	193271	keystroke	Key.backspace	n/a
96.7705	0.0745	193541	keystroke	Key.backspace	n/a
97.22	0.105	194440	keystroke	v	n/a
97.535	0.0445	195070	keystroke	Key.backspace	n/a
97.7295	0.0755	195459	keystroke	b	n/a
97.835	0.075	195670	keystroke	u	n/a
98.0445	0.121	196089	keystroke	t	n/a
98.2705	0.09	196541	keystroke	e	n/a
98.5405	0.105	197081	keystroke	s	n/a
98.69	0.06	197380	keystroke	Key.space	n/a
99.035	0.09	198070	keystroke	f	n/a
99.3795	0.075	198759	keystroke	Key.backspace	n/a
99.5745	0.09	199149	keystroke	d	n/a
99.7695	0.09	199539	keystroke	r	n/a
99.964	0.045	199928	keystroke	g	n/a
100.37	0.06	200740	keystroke	Key.backspace	n/a
100.625	0.075	201250	keystroke	a	n/a
100.82	0.0745	201640	keystroke	g	n/a
100.984	0.12	201968	keystroke	o	n/a
101.045	0.119	202090	keystroke	n	n/a
101.3745	0.0745	202749	keystroke	Key.space	n/a
101.7795	0.0745	203559	keystroke	l	n/a
101.944	0.105	203888	keystroke	e	n/a
102.079	0.1495	204158	keystroke	o	n/a
102.214	0.0595	204428	keystroke	n	n/a
102.394	0.09	204788	keystroke	e	n/a
102.649	0.09	205298	keystroke	Key.enter	n/a
102.744	8.966	205488	prompt	n/a	families zones carey breeds\n
103.4435	0.091	206887	keystroke	f	n/a
103.5495	0.12	207099	keystroke	a	n/a
103.7295	0.06	207459	keystroke	m	n/a
103.8645	0.075	207729	keystroke	i	n/a
104.044	0.06	208088	keystroke	l	n/a
104.209	0.045	208418	keystroke	i	n/a
105.169	0.105	210338	keystroke	e	n/a
105.409	0.09	210818	keystroke	s	n/a
105.604	0.105	211208	keystroke	Key.space	n/a
106.129	0.12	212258	keystroke	z	n/a
106.309	0.105	212618	keystroke	o	n/a
106.384	0.105	212768	keystroke	n	n/a
106.579	0.0745	213158	keystroke	e	n/a
107.134	0.12	214268	keystroke	s	n/a
107.3435	0.105	214687	keystroke	Key.space	n/a
107.5985	0.075	215197	keystroke	c	n/a
107.7035	0.15	215407	keystroke	a	n/a
107.9735	0.09	215947	keystroke	r	n/a
108.1685	0.075	216337	keystroke	e	n/a
108.4085	0.06	216817	keystroke	t	n/a
108.994	0.0745	217988	keystroke	Key.backspace	n/a
109.2185	0.105	218437	keystroke	y	n/a
109.4285	0.105	218857	keystroke	Key.space	n/a
110.0585	0.075	220117	keystroke	b	n/a
110.2085	0.09	220417	keystroke	r	n/a
110.4035	0.03	220807	keystroke	e	n/a
110.5235	0.075	221047	keystroke	e	n/a
110.764	0.104	221528	keystroke	d	n/a
111.004	0.06	222008	keystroke	s	n/a
111.573	0.1355	223146	keystroke	Key.enter	n/a
111.713	12.4165	223426	prompt	n/a	insulation refrigerator amplifier characterized\n
113.0885	0.075	226177	keystroke	i	n/a
113.2535	0.09	226507	keystroke	n	n/a
113.4185	0.105	226837	keystroke	s	n/a
113.5535	0.075	227107	keystroke	u	n/a
113.7635	0.075	227527	keystroke	l	n/a
113.8985	0.0745	227797	keystroke	a	n/a
114.078	0.09	228156	keystroke	t	n/a
114.198	0.06	228396	keystroke	i	n/a
114.348	0.105	228696	keystroke	o	n/a
114.438	0.1505	228876	keystroke	n	n/a
114.7685	0.075	229537	keystroke	Key.space	n/a
114.993	0.135	229986	keystroke	r	n/a
115.143	0.135	230286	keystroke	e	n/a
115.8185	0.0745	231637	keystroke	f	n/a
116.433	0.0745	232866	keystroke	r	n/a
116.8225	0.09	233645	keystroke	i	n/a
117.302	0.091	234604	keystroke	g	n/a
117.573	0.135	235146	keystroke	e	n/a
117.663	0.12	235326	keystroke	r	n/a
118.0675	0.09	236135	keystroke	a	n/a
118.4425	0.105	236885	keystroke	t	n/a
118.6525	0.105	237305	keystroke	o	n/a
118.8025	0.0745	237605	keystroke	r	n/a
118.9525	0.1195	237905	keystroke	Key.space	n/a
119.283	0.09	238566	keystroke	a	n/a
119.943	0.0895	239886	keystroke	m	n/a
120.3475	0.135	240695	keystroke	p	n/a
120.4675	0.09	240935	keystroke	l	n/a
120.737	0.075	241474	keystroke	i	n/a
120.9775	0.09	241955	keystroke	f	n/a
121.0975	0.0895	242195	keystroke	i	n/a
121.247	0.15	242494	keystroke	e	n/a
121.398	0.104	242796	keystroke	r	n/a
121.6675	0.06	243335	keystroke	Key.space	n/a
122.0125	0.1045	244025	keystroke	c	n/a
122.132	0.076	244264	keystroke	h	n/a
122.237	0.121	244474	keystroke	a	n/a
122.373	0.075	244746	keystroke	r	n/a
122.508	0.1045	245016	keystroke	a	n/a
122.6725	0.075	245345	keystroke	c	n/a
122.8675	0.0745	245735	keystroke	t	n/a
123.032	0.09	246064	keystroke	e	n/a
123.092	0.105	246184	keystroke	r	n/a
123.2275	0.105	246455	keystroke	i	n/a
123.3925	0.12	246785	keystroke	z	n/a
123.6025	0.075	247205	keystroke	e	n/a
123.7975	0.09	247595	keystroke	d	n/a
123.962	0.1655	247924	keystroke	Key.enter	n/a
124.1325	7.136	248265	prompt	n/a	permission hunt liberal interior\n
124.892	0.075	249784	keystroke	p	n/a
125.0275	0.105	250055	keystroke	e	n/a
125.0875	0.105	250175	keystroke	r	n/a
125.2225	0.105	250445	keystroke	m	n/a
125.3575	0.09	250715	keystroke	i	n/a
125.522	0.12	251044	keystroke	s	n/a
126.017	0.09	252034	keystroke	s	n/a
126.167	0.075	252334	keystroke	i	n/a
126.362	0.105	252724	keystroke	o	n/a
126.4375	0.1495	252875	keystroke	n	n/a
126.692	0.12	253384	keystroke	Key.space	n/a
127.172	0.06	254344	keystroke	h	n/a
127.367	0.075	254734	keystroke	u	n/a
127.397	0.1195	254794	keystroke	n	n/a
127.5315	0.1055	255063	keystroke	t	n/a
127.682	0.105	255364	keystroke	Key.space	n/a
127.922	0.06	255844	keystroke	l	n/a
128.192	0.045	256384	keystroke	i	n/a
128.3715	0.06	256743	keystroke	b	n/a
128.5215	0.106	257043	keystroke	e	n/a
128.5815	0.105	257163	keystroke	r	n/a
128.7925	0.089	257585	keystroke	a	n/a
129.002	0.075	258004	keystroke	l	n/a
129.1965	0.12	258393	keystroke	Key.space	n/a
129.3915	0.06	258783	keystroke	i	n/a
129.4365	0.106	258873	keystroke	n	n/a
129.5865	0.1055	259173	keystroke	t	n/a
129.767	0.135	259534	keystroke	e	n/a
129.947	0.0745	259894	keystroke	r	n/a
130.1265	0.105	260253	keystroke	i	n/a
130.6965	0.09	261393	keystroke	o	n/a
130.8925	0.06	261785	keystroke	r	n/a
131.177	0.09	262354	keystroke	Key.enter	n/a
131.2715	8.081	262543	prompt	n/a	hughes supposed stupid vehicle\n
132.1665	0.105	264333	keystroke	h	n/a
132.3015	0.075	264603	keystroke	u	n/a
132.4815	0.09	264963	keystroke	g	n/a
132.6015	0.09	265203	keystroke	h	n/a
132.7815	0.0745	265563	keystroke	e	n/a
133.3665	0.09	266733	keystroke	s	n/a
133.5165	0.075	267033	keystroke	Key.space	n/a
133.6815	0.09	267363	keystroke	s	n/a
133.7865	0.1195	267573	keystroke	u	n/a
134.101	0.046	268202	keystroke	p	n/a
134.252	0.075	268504	keystroke	p	n/a
134.342	0.1195	268684	keystroke	o	n/a
134.5365	0.165	269073	keystroke	s	n/a
134.657	0.1045	269314	keystroke	e	n/a
134.8965	0.09	269793	keystroke	d	n/a
135.0915	0.09	270183	keystroke	Key.space	n/a
135.676	0.09	271352	keystroke	s	n/a
135.886	0.1055	271772	keystroke	t	n/a
136.0965	0.075	272193	keystroke	u	n/a
136.306	0.09	272612	keystroke	p	n/a
136.366	0.12	272732	keystroke	i	n/a
136.546	0.135	273092	keystroke	d	n/a
136.666	0.12	273332	keystroke	Key.space	n/a
137.461	0.075	274922	keystroke	v	n/a
137.671	0.06	275342	keystroke	e	n/a
138.0755	0.076	276151	keystroke	h	n/a
138.2415	0.075	276483	keystroke	i	n/a
138.6305	0.105	277261	keystroke	c	n/a
138.7805	0.09	277561	keystroke	l	n/a
138.9755	0.045	277951	keystroke	e	n/a
139.2315	0.12	278463	keystroke	Key.enter	n/a
139.358	9.3685	278716	prompt	n/a	incoming antenna honolulu hurt\n
140.131	0.105	280262	keystroke	i	n/a
140.206	0.12	280412	keystroke	n	n/a
140.356	0.12	280712	keystroke	c	n/a
140.551	0.0745	281102	keystroke	o	n/a
140.5805	0.105	281161	keystroke	m	n/a
140.7905	0.105	281581	keystroke	i	n/a
140.8505	0.1055	281701	keystroke	n	n/a
141.016	0.105	282032	keystroke	g	n/a
141.181	0.09	282362	keystroke	Key.space	n/a
141.346	0.0895	282692	keystroke	a	n/a
141.4805	0.105	282961	keystroke	n	n/a
141.6605	0.135	283321	keystroke	t	n/a
142.0515	0.075	284103	keystroke	e	n/a
142.1865	0.074	284373	keystroke	n	n/a
142.3505	0.06	284701	keystroke	n	n/a
142.4855	0.12	284971	keystroke	a	n/a
142.665	0.1205	285330	keystroke	Key.space	n/a
143.1455	0.06	286291	keystroke	h	n/a
143.4005	0.06	286801	keystroke	o	n/a
143.5805	0.09	287161	keystroke	n	n/a
143.7755	0.075	287551	keystroke	o	n/a
143.9705	0.06	287941	keystroke	l	n/a
144.646	0.09	289292	keystroke	l	n/a
145.3355	0.075	290671	keystroke	Key.backspace	n/a
145.891	0.074	291782	keystroke	u	n/a
146.4605	0.09	292921	keystroke	l	n/a
146.7605	0.105	293521	keystroke	u	n/a
147.375	0.105	294750	keystroke	Key.space	n/a
147.946	0.105	295892	keystroke	h	n/a
148.005	0.12	296010	keystroke	u	n/a
148.141	0.135	296282	keystroke	r	n/a
148.246	0.105	296492	keystroke	t	n/a
148.6505	0.075	297301	keystroke	Key.enter	n/a
148.7295	13.3615	297459	prompt	n/a	that're incidence commonwealth dedicated\n
149.73	0.0895	299460	keystroke	t	n/a
149.8495	0.061	299699	keystroke	h	n/a
149.9255	0.089	299851	keystroke	a	n/a
150.0745	0.106	300149	keystroke	t	n/a
150.4655	0.15	300931	keystroke	'	n/a
150.84	0.135	301680	keystroke	r	n/a
150.915	0.135	301830	keystroke	e	n/a
151.185	0.075	302370	keystroke	Key.space	n/a
152.28	0.09	304560	keystroke	i	n/a
152.325	0.135	304650	keystroke	n	n/a
152.595	0.15	305190	keystroke	c	n/a
152.775	0.075	305550	keystroke	i	n/a
152.97	0.1195	305940	keystroke	d	n/a
153.27	0.06	306540	keystroke	e	n/a
153.345	0.15	306690	keystroke	n	n/a
153.6	0.075	307200	keystroke	c	n/a
153.63	0.135	307260	keystroke	e	n/a
153.885	0.0745	307770	keystroke	Key.space	n/a
154.1545	0.105	308309	keystroke	c	n/a
154.59	0.09	309180	keystroke	o	n/a
155.46	0.075	310920	keystroke	m	n/a
155.985	0.119	311970	keystroke	m	n/a
156.375	0.09	312750	keystroke	o	n/a
156.63	0.1045	313260	keystroke	n	n/a
156.8845	0.105	313769	keystroke	e	n/a
157.59	0.0895	315180	keystroke	Key.backspace	n/a
158.1445	0.18	316289	keystroke	w	n/a
158.3095	0.12	316619	keystroke	e	n/a
158.729	0.09	317458	keystroke	a	n/a
159.0445	0.045	318089	keystroke	l	n/a
159.284	0.09	318568	keystroke	t	n/a
159.434	0.09	318868	keystroke	h	n/a
159.704	0.09	319408	keystroke	Key.space	n/a
160.3195	0.135	320639	keystroke	d	n/a
160.4095	0.15	320819	keystroke	e	n/a
160.6345	0.12	321269	keystroke	d	n/a
160.8145	0.09	321629	keystroke	i	n/a
160.9495	0.1345	321899	keystroke	c	n/a
161.069	0.075	322138	keystroke	a	n/a
161.219	0.12	322438	keystroke	t	n/a
161.354	0.076	322708	keystroke	e	n/a
161.534	0.121	323068	keystroke	d	n/a
161.9695	0.12	323939	keystroke	Key.enter	n/a
162.094	19.2705	324188	prompt	n/a	reservations materials mysterious wouldn't\n
163.1995	0.12	326399	keystroke	r	n/a
163.2595	0.105	326519	keystroke	e	n/a
163.469	0.075	326938	keystroke	s	n/a
163.6635	0.061	327327	keystroke	e	n/a
163.6945	0.104	327389	keystroke	r	n/a
163.9195	0.045	327839	keystroke	v	n/a
163.9795	0.03	327959	keystroke	c	n/a
164.0395	0.105	328079	keystroke	a	n/a
164.2195	0.06	328439	keystroke	t	n/a
164.309	0.12	328618	keystroke	i	n/a
165.0295	0.03	330059	keystroke	Key.backspace	n/a
165.164	0.09	330328	keystroke	Key.backspace	n/a
165.3285	0.06	330657	keystroke	Key.backspace	n/a
165.779	0.075	331558	keystroke	Key.backspace	n/a
165.8985	0.0905	331797	keystroke	a	n/a
166.094	0.0595	332188	keystroke	t	n/a
166.7545	0.119	333509	keystroke	i	n/a
167.0085	0.12	334017	keystroke	o	n/a
167.399	0.09	334798	keystroke	n	n/a
167.6385	0.12	335277	keystroke	s	n/a
167.9985	0.075	335997	keystroke	Key.space	n/a
168.253	0.091	336506	keystroke	m	n/a
168.359	0.09	336718	keystroke	a	n/a
168.584	0.0445	337168	keystroke	t	n/a
168.7035	0.075	337407	keystroke	e	n/a
168.7635	0.105	337527	keystroke	r	n/a
168.8835	0.0905	337767	keystroke	i	n/a
169.004	0.12	338008	keystroke	a	n/a
169.4085	0.12	338817	keystroke	l	n/a
169.7085	0.105	339417	keystroke	s	n/a
169.979	0.09	339958	keystroke	Key.space	n/a
170.4735	0.09	340947	keystroke	m	n/a
170.968	0.106	341936	keystroke	y	n/a
171.119	0.09	342238	keystroke	s	n/a
171.3285	0.0445	342657	keystroke	t	n/a
171.418	0.12	342836	keystroke	e	n/a
171.508	0.105	343016	keystroke	r	n/a
171.628	0.105	343256	keystroke	i	n/a
172.2885	0.225	344577	keystroke	o	n/a
172.3935	0.135	344787	keystroke	u	n/a
172.8285	0.1045	345657	keystroke	s	n/a
173.038	0.03	346076	keystroke	Key.space	n/a
173.3835	0.1645	346767	keystroke	w	n/a
173.623	0.151	347246	keystroke	o	n/a
173.8635	0.075	347727	keystroke	u	n/a
174.2085	0.09	348417	keystroke	l	n/a
174.5235	0.0895	349047	keystroke	b	n/a
174.718	0.075	349436	keystroke	d	n/a
175.229	0.06	350458	keystroke	Key.backspace	n/a
175.379	0.0745	350758	keystroke	Key.backspace	n/a
175.5285	0.06	351057	keystroke	d	n/a
175.6485	0.075	351297	keystroke	b	n/a
176.398	0.06	352796	keystroke	Key.backspace	n/a
176.8475	0.075	353695	keystroke	n	n/a
177.1635	0.105	354327	keystroke	;	n/a
177.4185	0.105	354837	keystroke	t	n/a
177.748	0.06	355496	keystroke	Key.backspace	n/a
177.913	0.075	355826	keystroke	Key.backspace	n/a
178.138	0.0455	356276	keystroke	;	n/a
178.573	0.0595	357146	keystroke	Key.backspace	n/a
179.458	0.1045	358916	keystroke	'	n/a
179.7585	0.09	359517	keystroke	t	n/a
180.2975	0.105	360595	keystroke	Key.space	n/a
181.2435	0.1185	362487	keystroke	Key.enter	n/a
181.3675	5.6815	362735	prompt	n/a	master banners matters claim\n
182.263	0.075	364526	keystroke	m	n/a
182.383	0.12	364766	keystroke	a	n/a
182.458	0.12	364916	keystroke	s	n/a
182.653	0.09	365306	keystroke	t	n/a
182.818	0.075	365636	keystroke	e	n/a
182.878	0.06	365756	keystroke	r	n/a
182.983	0.0895	365966	keystroke	Key.space	n/a
183.1325	0.075	366265	keystroke	b	n/a
183.2375	0.09	366475	keystroke	a	n/a
183.3425	0.06	366685	keystroke	n	n/a
183.4625	0.075	366925	keystroke	n	n/a
183.6425	0.06	367285	keystroke	e	n/a
183.6575	0.105	367315	keystroke	r	n/a
183.8525	0.09	367705	keystroke	s	n/a
184.0025	0.12	368005	keystroke	Key.space	n/a
184.2275	0.075	368455	keystroke	m	n/a
184.3175	0.12	368635	keystroke	a	n/a
184.753	0.045	369506	keystroke	t	n/a
184.903	0.045	369806	keystroke	t	n/a
185.0225	0.09	370045	keystroke	e	n/a
185.0975	0.0755	370195	keystroke	r	n/a
185.293	0.105	370586	keystroke	s	n/a
185.473	0.0595	370946	keystroke	Key.space	n/a
185.5775	0.0895	371155	keystroke	c	n/a
185.712	0.106	371424	keystroke	l	n/a
185.818	0.0895	371636	keystroke	a	n/a
185.9375	0.15	371875	keystroke	i	n/a
186.208	0.12	372416	keystroke	m	n/a
186.9425	0.105	373885	keystroke	Key.enter	n/a
187.0555	8.6185	374111	prompt	n/a	textbooks austria indication riders\n
187.932	0.075	375864	keystroke	t	n/a
188.037	0.075	376074	keystroke	e	n/a
188.338	0.0895	376676	keystroke	x	n/a
188.5325	0.09	377065	keystroke	t	n/a
188.6825	0.075	377365	keystroke	b	n/a
188.9075	0.06	377815	keystroke	o	n/a
189.0425	0.09	378085	keystroke	o	n/a
190.0175	0.075	380035	keystroke	k	n/a
190.2725	0.09	380545	keystroke	Key.space	n/a
190.422	0.105	380844	keystroke	a	n/a
190.557	0.075	381114	keystroke	u	n/a
190.6775	0.074	381355	keystroke	s	n/a
190.8725	0.075	381745	keystroke	t	n/a
190.9025	0.105	381805	keystroke	r	n/a
191.1875	0.075	382375	keystroke	i	n/a
191.3075	0.12	382615	keystroke	a	n/a
191.4725	0.1045	382945	keystroke	Key.space	n/a
191.9825	0.12	383965	keystroke	i	n/a
192.1775	0.09	384355	keystroke	n	n/a
192.342	0.1195	384684	keystroke	d	n/a
192.5365	0.075	385073	keystroke	i	n/a
192.8075	0.135	385615	keystroke	c	n/a
193.0625	0.06	386125	keystroke	a	n/a
193.2575	0.105	386515	keystroke	t	n/a
193.557	0.09	387114	keystroke	i	n/a
193.782	0.12	387564	keystroke	o	n/a
193.917	0.105	387834	keystroke	n	n/a
194.3515	0.12	388703	keystroke	Key.space	n/a
194.547	0.12	389094	keystroke	r	n/a
194.712	0.09	389424	keystroke	i	n/a
194.862	0.105	389724	keystroke	d	n/a
195.0265	0.09	390053	keystroke	e	n/a
195.0865	0.0905	390173	keystroke	r	n/a
195.252	0.1195	390504	keystroke	s	n/a
195.552	0.12	391104	keystroke	Key.enter	n/a
195.678	11.185	391356	prompt	n/a	demanding springer grant unemployment\n
196.4375	0.15	392875	keystroke	d	n/a
196.5425	0.075	393085	keystroke	e	n/a
196.662	0.09	393324	keystroke	m	n/a
196.812	0.105	393624	keystroke	a	n/a
196.992	0.09	393984	keystroke	n	n/a
197.157	0.0755	394314	keystroke	d	n/a
197.2615	0.1355	394523	keystroke	i	n/a
197.3375	0.1195	394675	keystroke	n	n/a
197.637	0.105	395274	keystroke	g	n/a
197.847	0.09	395694	keystroke	Key.space	n/a
198.1315	0.075	396263	keystroke	s	n/a
198.2665	0.09	396533	keystroke	p	n/a
198.4015	0.105	396803	keystroke	r	n/a
198.5665	0.105	397133	keystroke	i	n/a
198.6565	0.12	397313	keystroke	n	n/a
198.7915	0.075	397583	keystroke	g	n/a
198.986	0.0905	397972	keystroke	e	n/a
199.0465	0.0895	398093	keystroke	r	n/a
199.256	0.105	398512	keystroke	Key.space	n/a
199.467	0.0895	398934	keystroke	g	n/a
199.6015	0.105	399203	keystroke	r	n/a
199.8415	0.0895	399683	keystroke	a	n/a
199.9765	0.1045	399953	keystroke	n	n/a
200.126	0.135	400252	keystroke	t	n/a
200.321	0.09	400642	keystroke	Key.space	n/a
200.712	0.09	401424	keystroke	u	n/a
200.787	0.12	401574	keystroke	n	n/a
201.0565	0.105	402113	keystroke	e	n/a
201.1765	0.1195	402353	keystroke	m	n/a
201.446	0.1205	402892	keystroke	p	n/a
201.5665	0.12	403133	keystroke	k	n/a
201.791	0.09	403582	keystroke	o	n/a
202.497	0.1495	404994	keystroke	Key.backspace	n/a
202.6615	0.015	405323	keystroke	Key.backspace	n/a
202.9915	0.06	405983	keystroke	Key.backspace	n/a
204.5665	0.105	409133	keystroke	p	n/a
204.8365	0.09	409673	keystroke	l	n/a
205.451	0.1345	410902	keystroke	o	n/a
205.6915	0.075	411383	keystroke	y	n/a
206.1115	0.06	412223	keystroke	m	n/a
206.2465	0.09	412493	keystroke	e	n/a
206.3665	0.0895	412733	keystroke	n	n/a
206.516	0.09	413032	keystroke	t	n/a
206.756	0.105	413512	keystroke	Key.enter	n/a
206.869	7.7335	413738	prompt	n/a	reaching enabled daddy handling\n
207.581	0.1345	415162	keystroke	r	n/a
207.7605	0.091	415521	keystroke	e	n/a
207.9565	0.09	415913	keystroke	a	n/a
208.0465	0.135	416093	keystroke	c	n/a
208.2265	0.09	416453	keystroke	h	n/a
208.3465	0.1495	416693	keystroke	i	n/a
208.4215	0.1195	416843	keystroke	n	n/a
208.586	0.09	417172	keystroke	g	n/a
208.766	0.09	417532	keystroke	Key.space	n/a
208.946	0.075	417892	keystroke	e	n/a
209.081	0.06	418162	keystroke	n	n/a
209.231	0.0905	418462	keystroke	a	n/a
209.3515	0.0895	418703	keystroke	b	n/a
209.8315	0.075	419663	keystroke	l	n/a
210.1765	0.12	420353	keystroke	e	n/a
210.536	0.075	421072	keystroke	d	n/a
210.701	0.075	421402	keystroke	Key.space	n/a
210.881	0.12	421762	keystroke	d	n/a
211.436	0.105	422872	keystroke	a	n/a
211.631	0.0445	423262	keystroke	d	n/a
211.7505	0.105	423501	keystroke	d	n/a
211.8855	0.06	423771	keystroke	y	n/a
212.0655	0.09	424131	keystroke	Key.space	n/a
212.576	0.0595	425152	keystroke	h	n/a
212.6805	0.105	425361	keystroke	a	n/a
212.8155	0.09	425631	keystroke	n	n/a
212.9215	0.09	425843	keystroke	d	n/a
213.1305	0.076	426261	keystroke	l	n/a
213.8655	0.135	427731	keystroke	i	n/a
213.9705	0.106	427941	keystroke	n	n/a
214.0915	0.1195	428183	keystroke	g	n/a
214.466	0.135	428932	keystroke	Key.enter	n/a
214.6055	10.076	429211	prompt	n/a	developments regarding gently apple\n
215.351	0.135	430702	keystroke	d	n/a
215.456	0.0895	430912	keystroke	e	n/a
215.6505	0.105	431301	keystroke	v	n/a
215.8005	0.075	431601	keystroke	e	n/a
216.0555	0.106	432111	keystroke	l	n/a
216.416	0.12	432832	keystroke	p	n/a
216.821	0.09	433642	keystroke	Key.backspace	n/a
217.0605	0.18	434121	keystroke	o	n/a
217.1805	0.105	434361	keystroke	p	n/a
217.4955	0.045	434991	keystroke	m	n/a
217.6305	0.075	435261	keystroke	e	n/a
217.7205	0.09	435441	keystroke	n	n/a
217.8705	0.1045	435741	keystroke	t	n/a
218.11	0.106	436220	keystroke	s	n/a
218.23	0.121	436460	keystroke	Key.space	n/a
218.411	0.105	436822	keystroke	r	n/a
218.456	0.12	436912	keystroke	e	n/a
218.711	0.09	437422	keystroke	g	n/a
218.9055	0.1195	437811	keystroke	a	n/a
219.01	0.091	438020	keystroke	r	n/a
219.236	0.09	438472	keystroke	d	n/a
219.581	0.03	439162	keystroke	i	n/a
220.0455	0.105	440091	keystroke	n	n/a
220.1805	0.09	440361	keystroke	g	n/a
220.3755	0.045	440751	keystroke	Key.space	n/a
221.456	0.0445	442912	keystroke	g	n/a
221.5155	0.045	443031	keystroke	e	n/a
221.5755	0.09	443151	keystroke	n	n/a
221.6955	0.105	443391	keystroke	t	n/a
222.1305	0.12	444261	keystroke	l	n/a
222.2955	0.105	444591	keystroke	y	n/a
222.5505	0.09	445101	keystroke	Key.space	n/a
222.6855	0.12	445371	keystroke	a	n/a
222.8655	0.06	445731	keystroke	p	n/a
223.0155	0.045	446031	keystroke	p	n/a
223.195	0.091	446390	keystroke	l	n/a
223.376	0.0895	446752	keystroke	e	n/a
224.5605	0.12	449121	keystroke	Key.enter	n/a
224.6845	7.3025	449369	prompt	n/a	everybody dimension want warnings\n
225.5355	0.09	451071	keystroke	e	n/a
225.7455	0.09	451491	keystroke	v	n/a
225.8655	0.105	451731	keystroke	e	n/a
225.9555	0.105	451911	keystroke	r	n/a
226.0455	0.09	452091	keystroke	y	n/a
226.255	0.075	452510	keystroke	b	n/a
226.48	0.06	452960	keystroke	o	n/a
226.705	0.09	453410	keystroke	d	n/a
226.855	0.03	453710	keystroke	y	n/a
227.1395	0.0755	454279	keystroke	Key.space	n/a
227.6655	0.09	455331	keystroke	d	n/a
228.13	0.075	456260	keystroke	i	n/a
228.295	0.105	456590	keystroke	m	n/a
228.445	0.09	456890	keystroke	e	n/a
228.55	0.075	457100	keystroke	n	n/a
228.76	0.0895	457520	keystroke	s	n/a
228.8645	0.09	457729	keystroke	i	n/a
229.0745	0.121	458149	keystroke	o	n/a
229.3005	0.1045	458601	keystroke	n	n/a
229.54	0.06	459080	keystroke	Key.space	n/a
229.81	0.1045	459620	keystroke	w	n/a
229.9295	0.106	459859	keystroke	a	n/a
230.0495	0.105	460099	keystroke	n	n/a
230.1855	0.1045	460371	keystroke	t	n/a
230.32	0.09	460640	keystroke	Key.space	n/a
230.515	0.12	461030	keystroke	w	n/a
230.59	0.135	461180	keystroke	a	n/a
230.74	0.105	461480	keystroke	r	n/a
230.86	0.09	461720	keystroke	n	n/a
231.0245	0.136	462049	keystroke	i	n/a
231.0995	0.136	462199	keystroke	n	n/a
231.2495	0.076	462499	keystroke	g	n/a
231.565	0.1045	463130	keystroke	s	n/a
231.85	0.135	463700	keystroke	Key.enter	n/a
231.9975	11.8235	463995	prompt	n/a	disappointed foreign temporarily weapons\n
232.7955	0.1045	465591	keystroke	d	n/a
232.915	0.0895	465830	keystroke	i	n/a
233.0345	0.09	466069	keystroke	s	n/a
233.1405	0.119	466281	keystroke	a	n/a
233.59	0.075	467180	keystroke	p	n/a
234.1145	0.15	468229	keystroke	p	n/a
234.3255	0.075	468651	keystroke	o	n/a
234.58	0.12	469160	keystroke	i	n/a
234.655	0.105	469310	keystroke	n	n/a
234.805	0.105	469610	keystroke	t	n/a
234.955	0.06	469910	keystroke	e	n/a
235.135	0.09	470270	keystroke	d	n/a
235.3	0.105	470600	keystroke	Key.space	n/a
235.6305	0.0895	471261	keystroke	f	n/a
235.825	0.0895	471650	keystroke	o	n/a
236.0045	0.075	472009	keystroke	r	n/a
236.2295	0.09	472459	keystroke	e	n/a
236.395	0.09	472790	keystroke	i	n/a
236.575	0.075	473150	keystroke	g	n/a
236.8595	0.075	473719	keystroke	n	n/a
237.0995	0.06	474199	keystroke	Key.space	n/a
237.2795	0.09	474559	keystroke	r	n/a
237.8645	0.075	475729	keystroke	Key.backspace	n/a
238.0445	0.09	476089	keystroke	t	n/a
238.2095	0.106	476419	keystroke	e	n/a
238.389	0.105	476778	keystroke	m	n/a
238.645	0.075	477290	keystroke	p	n/a
238.69	0.105	477380	keystroke	o	n/a
239.1095	0.075	478219	keystroke	r	n/a
239.6645	0.09	479329	keystroke	a	n/a
239.8445	0.09	479689	keystroke	r	n/a
240.0245	0.06	480049	keystroke	i	n/a
240.294	0.06	480588	keystroke	k	n/a
240.805	0.045	481610	keystroke	Key.backspace	n/a
240.9695	0.09	481939	keystroke	l	n/a
241.0895	0.105	482179	keystroke	y	n/a
241.5395	0.0895	483079	keystroke	Key.space	n/a
242.155	0.03	484310	keystroke	w	n/a
242.17	0.06	484340	keystroke	e	n/a
242.245	0.12	484490	keystroke	a	n/a
242.4395	0.06	484879	keystroke	p	n/a
242.8595	0.135	485719	keystroke	o	n/a
243.219	0.12	486438	keystroke	n	n/a
243.444	0.1055	486888	keystroke	s	n/a
243.6995	0.12	487399	keystroke	Key.enter	n/a
243.8335	9.512	487667	prompt	n/a	privilege pest select auditor\n
244.8245	0.075	489649	keystroke	p	n/a
244.9595	0.0895	489919	keystroke	r	n/a
245.064	0.105	490128	keystroke	i	n/a
245.5595	0.06	491119	keystroke	v	n/a
246.774	0.09	493548	keystroke	i	n/a
247.1635	0.106	494327	keystroke	l	n/a
247.4045	0.09	494809	keystroke	e	n/a
247.6295	0.06	495259	keystroke	g	n/a
247.7645	0.105	495529	keystroke	e	n/a
248.139	0.12	496278	keystroke	Key.space	n/a
248.439	0.0755	496878	keystroke	p	n/a
248.6045	0.09	497209	keystroke	e	n/a
248.7995	0.075	497599	keystroke	s	n/a
248.994	0.0595	497988	keystroke	t	n/a
249.0835	0.106	498167	keystroke	Key.space	n/a
249.2645	0.135	498529	keystroke	s	n/a
249.3845	0.075	498769	keystroke	e	n/a
249.5045	0.105	499009	keystroke	l	n/a
250.6745	0.09	501349	keystroke	e	n/a
250.854	0.105	501708	keystroke	c	n/a
251.094	0.1045	502188	keystroke	t	n/a
251.2285	0.105	502457	keystroke	Key.space	n/a
251.3935	0.09	502787	keystroke	a	n/a
251.514	0.12	503028	keystroke	u	n/a
251.664	0.1055	503328	keystroke	d	n/a
252.459	0.09	504918	keystroke	i	n/a
252.639	0.105	505278	keystroke	t	n/a
252.759	0.12	505518	keystroke	o	n/a
252.9385	0.075	505877	keystroke	r	n/a
253.224	0.12	506448	keystroke	Key.enter	n/a
253.349	7.751	506698	prompt	n/a	dumb census silk malpractice\n
254.214	0.1055	508428	keystroke	d	n/a
254.3495	0.0745	508699	keystroke	u	n/a
254.5735	0.105	509147	keystroke	m	n/a
254.8135	0.06	509627	keystroke	b	n/a
255.0995	0.12	510199	keystroke	Key.space	n/a
255.5635	0.135	511127	keystroke	c	n/a
255.6685	0.09	511337	keystroke	e	n/a
255.8035	0.0755	511607	keystroke	n	n/a
255.969	0.075	511938	keystroke	s	n/a
256.7485	0.105	513497	keystroke	u	n/a
256.8985	0.105	513797	keystroke	s	n/a
257.0185	0.09	514037	keystroke	Key.space	n/a
257.1535	0.0755	514307	keystroke	s	n/a
257.199	0.105	514398	keystroke	i	n/a
257.484	0.135	514968	keystroke	l	n/a
257.724	0.12	515448	keystroke	k	n/a
258.159	0.0895	516318	keystroke	Key.space	n/a
258.5035	0.105	517007	keystroke	m	n/a
258.6095	0.119	517219	keystroke	a	n/a
258.7885	0.105	517577	keystroke	l	n/a
259.359	0.105	518718	keystroke	p	n/a
259.539	0.12	519078	keystroke	r	n/a
259.674	0.135	519348	keystroke	a	n/a
259.914	0.075	519828	keystroke	c	n/a
260.124	0.0895	520248	keystroke	t	n/a
260.2285	0.09	520457	keystroke	i	n/a
260.3935	0.135	520787	keystroke	c	n/a
260.4835	0.105	520967	keystroke	e	n/a
260.9635	0.1345	521927	keystroke	Key.enter	n/a
261.1115	7.7735	522223	prompt	n/a	headline hurricane character intro\n
261.9095	0.0895	523819	keystroke	h	n/a
262.043	0.09	524086	keystroke	e	n/a
262.103	0.181	524206	keystroke	a	n/a
262.254	0.1345	524508	keystroke	d	n/a
262.4035	0.15	524807	keystroke	l	n/a
262.6735	0.181	525347	keystroke	i	n/a
262.8085	0.12	525617	keystroke	n	n/a
262.9445	0.104	525889	keystroke	e	n/a
263.138	0.12	526276	keystroke	Key.space	n/a
263.514	0.12	527028	keystroke	h	n/a
263.589	0.135	527178	keystroke	u	n/a
263.8585	0.06	527717	keystroke	r	n/a
264.008	0.105	528016	keystroke	r	n/a
264.128	0.105	528256	keystroke	i	n/a
264.263	0.151	528526	keystroke	c	n/a
264.368	0.091	528736	keystroke	a	n/a
264.504	0.135	529008	keystroke	n	n/a
264.669	0.09	529338	keystroke	e	n/a
264.789	0.1195	529578	keystroke	Key.space	n/a
265.0435	0.105	530087	keystroke	c	n/a
265.1635	0.06	530327	keystroke	h	n/a
265.2085	0.075	530417	keystroke	a	n/a
265.2985	0.135	530597	keystroke	r	n/a
265.4345	0.104	530869	keystroke	a	n/a
265.5985	0.0895	531197	keystroke	c	n/a
265.793	0.09	531586	keystroke	t	n/a
265.913	0.12	531826	keystroke	e	n/a
266.018	0.06	532036	keystroke	r	n/a
266.108	0.12	532216	keystroke	Key.space	n/a
266.259	0.135	532518	keystroke	i	n/a
266.334	0.1495	532668	keystroke	n	n/a
266.4985	0.12	532997	keystroke	t	n/a
266.6335	0.0745	533267	keystroke	o	n/a
267.0085	0.075	534017	keystroke	Key.backspace	n/a
267.1735	0.09	534347	keystroke	r	n/a
267.473	0.09	534946	keystroke	p	n/a
268.043	0.0905	536086	keystroke	Key.backspace	n/a
268.493	0.105	536986	keystroke	o	n/a
268.793	0.09	537586	keystroke	Key.enter	n/a
268.888	5.757	537776	prompt	n/a	flesh another signals wrote\n
269.9035	0.12	539807	keystroke	f	n/a
270.0535	0.12	540107	keystroke	l	n/a
270.1885	0.075	540377	keystroke	e	n/a
270.383	0.075	540766	keystroke	s	n/a
270.488	0.045	540976	keystroke	h	n/a
270.638	0.09	541276	keystroke	Key.space	n/a
270.743	0.1055	541486	keystroke	a	n/a
270.818	0.0905	541636	keystroke	n	n/a
271.0435	0.06	542087	keystroke	o	n/a
271.1335	0.12	542267	keystroke	t	n/a
271.2835	0.0745	542567	keystroke	h	n/a
271.403	0.1055	542806	keystroke	e	n/a
271.4785	0.12	542957	keystroke	r	n/a
271.6135	0.09	543227	keystroke	Key.space	n/a
271.7635	0.09	543527	keystroke	s	n/a
271.8385	0.09	543677	keystroke	i	n/a
271.9885	0.12	543977	keystroke	g	n/a
272.1235	0.09	544247	keystroke	n	n/a
272.273	0.12	544546	keystroke	a	n/a
272.798	0.061	545596	keystroke	l	n/a
272.994	0.0745	545988	keystroke	s	n/a
273.1885	0.09	546377	keystroke	Key.space	n/a
273.3985	0.105	546797	keystroke	w	n/a
273.6835	0.09	547367	keystroke	r	n/a
273.9385	0.045	547877	keystroke	o	n/a
274.073	0.135	548146	keystroke	t	n/a
274.283	0.06	548566	keystroke	e	n/a
274.553	0.09	549106	keystroke	Key.enter	n/a
274.6475	9.312	549295	prompt	n/a	aspect conventional oregon officially\n
275.3935	0.135	550787	keystroke	a	n/a
275.4835	0.12	550967	keystroke	s	n/a
275.6485	0.1345	551297	keystroke	p	n/a
275.798	0.1055	551596	keystroke	e	n/a
275.9935	0.09	551987	keystroke	c	n/a
276.1885	0.135	552377	keystroke	t	n/a
276.3235	0.105	552647	keystroke	Key.space	n/a
276.4885	0.0595	552977	keystroke	c	n/a
276.593	0.105	553186	keystroke	o	n/a
276.788	0.12	553576	keystroke	n	n/a
277.043	0.09	554086	keystroke	v	n/a
277.208	0.09	554416	keystroke	e	n/a
277.343	0.0895	554686	keystroke	n	n/a
277.508	0.135	555016	keystroke	t	n/a
277.628	0.016	555256	keystroke	i	n/a
277.943	0.075	555886	keystroke	o	n/a
278.123	0.105	556246	keystroke	n	n/a
278.258	0.105	556516	keystroke	a	n/a
278.4525	0.135	556905	keystroke	l	n/a
278.8585	0.15	557717	keystroke	Key.space	n/a
279.6525	0.076	559305	keystroke	o	n/a
279.8185	0.105	559637	keystroke	r	n/a
279.9085	0.105	559817	keystroke	e	n/a
280.1635	0.075	560327	keystroke	g	n/a
280.2685	0.119	560537	keystroke	o	n/a
280.4925	0.106	560985	keystroke	n	n/a
280.7335	0.1195	561467	keystroke	Key.space	n/a
280.943	0.075	561886	keystroke	o	n/a
281.588	0.15	563176	keystroke	f	n/a
281.753	0.015	563506	keystroke	f	n/a
281.783	0.075	563566	keystroke	i	n/a
281.9185	0.119	563837	keystroke	c	n/a
282.0525	0.09	564105	keystroke	u	n/a
282.5175	0.061	565035	keystroke	Key.backspace	n/a
282.7135	0.09	565427	keystroke	i	n/a
282.8635	0.1045	565727	keystroke	a	n/a
283.043	0.075	566086	keystroke	l	n/a
283.193	0.075	566386	keystroke	l	n/a
283.448	0.1205	566896	keystroke	y	n/a
283.823	0.135	567646	keystroke	Key.enter	n/a
283.964	7.4955	567928	prompt	n/a	aged puppy manually registered\n
284.648	0.1195	569296	keystroke	a	n/a
284.9775	0.075	569955	keystroke	g	n/a
285.1275	0.075	570255	keystroke	e	n/a
285.3225	0.09	570645	keystroke	d	n/a
285.4275	0.136	570855	keystroke	Key.space	n/a
286.223	0.045	572446	keystroke	p	n/a
286.5085	0.075	573017	keystroke	u	n/a
286.763	0.06	573526	keystroke	p	n/a
286.928	0.06	573856	keystroke	p	n/a
287.048	0.105	574096	keystroke	y	n/a
287.4825	0.1205	574965	keystroke	Key.space	n/a
287.783	0.075	575566	keystroke	m	n/a
287.933	0.09	575866	keystroke	a	n/a
287.993	0.09	575986	keystroke	n	n/a
288.113	0.12	576226	keystroke	u	n/a
288.248	0.0905	576496	keystroke	a	n/a
288.503	0.12	577006	keystroke	l	n/a
288.683	0.09	577366	keystroke	l	n/a
288.833	0.075	577666	keystroke	y	n/a
289.043	0.09	578086	keystroke	Key.space	n/a
289.2675	0.105	578535	keystroke	r	n/a
289.3125	0.12	578625	keystroke	e	n/a
289.5075	0.09	579015	keystroke	g	n/a
289.6125	0.105	579225	keystroke	i	n/a
289.7625	0.075	579525	keystroke	s	n/a
289.943	0.135	579886	keystroke	t	n/a
290.033	0.06	580066	keystroke	r	n/a
290.4525	0.075	580905	keystroke	Key.backspace	n/a
290.6775	0.12	581355	keystroke	e	n/a
290.7825	0.15	581565	keystroke	r	n/a
290.9175	0.075	581835	keystroke	e	n/a
291.1425	0.12	582285	keystroke	d	n/a
291.3075	0.15	582615	keystroke	Key.enter	n/a
291.462	11.532	582924	prompt	n/a	apparatus pins italia privileges\n
292.238	0.12	584476	keystroke	a	n/a
292.388	0.045	584776	keystroke	p	n/a
292.538	0.074	585076	keystroke	p	n/a
292.658	0.045	585316	keystroke	a	n/a
292.853	0.045	585706	keystroke	r	n/a
293.138	0.105	586276	keystroke	a	n/a
293.318	0.0895	586636	keystroke	t	n/a
293.7225	0.075	587445	keystroke	u	n/a
293.8575	0.105	587715	keystroke	s	n/a
294.1425	0.1345	588285	keystroke	Key.space	n/a
294.9375	0.0595	589875	keystroke	p	n/a
295.328	0.105	590656	keystroke	i	n/a
295.538	0.09	591076	keystroke	n	n/a
295.688	0.12	591376	keystroke	s	n/a
295.8975	0.075	591795	keystroke	Key.space	n/a
296.4075	0.06	592815	keystroke	i	n/a
296.723	0.06	593446	keystroke	t	n/a
296.8725	0.09	593745	keystroke	a	n/a
296.9625	0.0895	593925	keystroke	l	n/a
297.172	0.105	594344	keystroke	i	n/a
297.338	0.09	594676	keystroke	a	n/a
297.457	0.106	594914	keystroke	Key.space	n/a
298.2825	0.12	596565	keystroke	p	n/a
298.4625	0.075	596925	keystroke	r	n/a
298.5675	0.12	597135	keystroke	o	n/a
298.867	0.09	597734	keystroke	v	n/a
299.243	0.075	598486	keystroke	i	n/a
299.8275	0.06	599655	keystroke	Key.backspace	n/a
299.9775	0.0895	599955	keystroke	Key.backspace	n/a
300.6675	0.1195	601335	keystroke	Key.backspace	n/a
301.208	0.105	602416	keystroke	i	n/a
301.523	0.075	603046	keystroke	v	n/a
301.673	0.0745	603346	keystroke	i	n/a
301.9575	0.105	603915	keystroke	l	n/a
302.1675	0.09	604335	keystroke	e	n/a
302.3625	0.09	604725	keystroke	g	n/a
302.4825	0.09	604965	keystroke	e	n/a
302.7075	0.0745	605415	keystroke	s	n/a
302.902	0.09	605804	keystroke	Key.enter	n/a
302.998	17.861	605996	prompt	n/a	compiled fair pathology settlement\n
304.0725	0.12	608145	keystroke	c	n/a
304.2225	0.105	608445	keystroke	o	n/a
304.2675	0.12	608535	keystroke	m	n/a
304.522	0.09	609044	keystroke	p	n/a
304.567	0.12	609134	keystroke	l	n/a
304.882	0.045	609764	keystroke	i	n/a
305.077	0.09	610154	keystroke	l	n/a
305.243	0.0895	610486	keystroke	e	n/a
306.158	0.074	612316	keystroke	s	n/a
306.337	0.105	612674	keystroke	Key.space	n/a
306.8625	0.06	613725	keystroke	Key.backspace	n/a
307.0125	0.075	614025	keystroke	Key.backspace	n/a
307.1175	0.06	614235	keystroke	d	n/a
307.3425	0.09	614685	keystroke	Key.space	n/a
308.392	0.09	616784	keystroke	Key.backspace	n/a
308.693	0.0595	617386	keystroke	Key.backspace	n/a
308.9025	0.0595	617805	keystroke	Key.backspace	n/a
309.187	0.06	618374	keystroke	Key.backspace	n/a
309.202	0.03	618404	keystroke	=	n/a
309.6225	0.06	619245	keystroke	Key.backspace	n/a
309.8775	0.09	619755	keystroke	Key.backspace	n/a
310.2975	0.09	620595	keystroke	Key.backspace	n/a
310.912	0.075	621824	keystroke	o	n/a
311.257	0.075	622514	keystroke	Key.backspace	n/a
311.5425	0.06	623085	keystroke	i	n/a
311.752	0.0905	623504	keystroke	l	n/a
311.9315	0.106	623863	keystroke	e	n/a
312.157	0.06	624314	keystroke	d	n/a
312.277	0.105	624554	keystroke	Key.space	n/a
312.8025	0.105	625605	keystroke	f	n/a
312.9225	0.089	625845	keystroke	a	n/a
313.0265	0.076	626053	keystroke	i	n/a
313.1765	0.076	626353	keystroke	r	n/a
313.2375	0.105	626475	keystroke	Key.space	n/a
313.4925	0.075	626985	keystroke	p	n/a
313.5525	0.09	627105	keystroke	a	n/a
313.7775	0.06	627555	keystroke	t	n/a
313.8075	0.045	627615	keystroke	h	n/a
313.9575	0.0595	627915	keystroke	o	n/a
314.362	0.075	628724	keystroke	l	n/a
314.6325	0.09	629265	keystroke	o	n/a
315.277	0.09	630554	keystroke	g	n/a
315.412	0.0895	630824	keystroke	y	n/a
315.6825	0.09	631365	keystroke	Key.space	n/a
316.642	0.075	633284	keystroke	s	n/a
316.882	0.015	633764	keystroke	e	n/a
316.927	0.105	633854	keystroke	t	n/a
317.1815	0.09	634363	keystroke	l	n/a
317.3315	0.06	634663	keystroke	l	n/a
317.7525	0.06	635505	keystroke	Key.backspace	n/a
317.9025	0.075	635805	keystroke	Key.backspace	n/a
318.1125	0.0895	636225	keystroke	t	n/a
318.307	0.045	636614	keystroke	t	n/a
318.7125	0.06	637425	keystroke	Key.backspace	n/a
319.057	0.09	638114	keystroke	l	n/a
319.312	0.06	638624	keystroke	e	n/a
319.5365	0.09	639073	keystroke	m	n/a
319.6715	0.106	639343	keystroke	e	n/a
319.7775	0.09	639555	keystroke	n	n/a
319.8975	0.075	639795	keystroke	t	n/a
320.737	0.12	641474	keystroke	Key.enter	n/a
320.8655	10.478	641731	prompt	n/a	showed theology additions kind\n
321.6525	0.075	643305	keystroke	s	n/a
321.6975	0.075	643395	keystroke	h	n/a
321.9225	0.075	643845	keystroke	o	n/a
322.0575	0.06	644115	keystroke	w	n/a
322.267	0.045	644534	keystroke	e	n/a
322.5815	0.106	645163	keystroke	Key.space	n/a
323.137	0.075	646274	keystroke	Key.backspace	n/a
323.3175	0.1045	646635	keystroke	d	n/a
323.467	0.15	646934	keystroke	Key.space	n/a
323.662	0.12	647324	keystroke	t	n/a
323.783	0.089	647566	keystroke	h	n/a
323.902	0.1055	647804	keystroke	e	n/a
324.0975	0.0745	648195	keystroke	o	n/a
324.427	0.105	648854	keystroke	l	n/a
324.712	0.09	649424	keystroke	o	n/a
325.4325	0.0895	650865	keystroke	g	n/a
325.567	0.105	651134	keystroke	y	n/a
326.107	0.105	652214	keystroke	Key.space	n/a
326.317	0.0895	652634	keystroke	a	n/a
326.5565	0.09	653113	keystroke	d	n/a
326.6915	0.105	653383	keystroke	d	n/a
326.9315	0.06	653863	keystroke	d	n/a
327.652	0.105	655304	keystroke	Key.backspace	n/a
328.1025	0.105	656205	keystroke	i	n/a
328.282	0.105	656564	keystroke	t	n/a
328.402	0.105	656804	keystroke	i	n/a
328.687	0.105	657374	keystroke	o	n/a
328.882	0.09	657764	keystroke	n	n/a
329.2115	0.105	658423	keystroke	s	n/a
329.4965	0.09	658993	keystroke	Key.space	n/a
330.157	0.06	660314	keystroke	k	n/a
330.577	0.075	661154	keystroke	i	n/a
330.7865	0.105	661573	keystroke	n	n/a
330.967	0.105	661934	keystroke	d	n/a
331.252	0.0895	662504	keystroke	Key.enter	n/a
331.347	19.991	662694	prompt	n/a	screens coordinated inappropriate charms\n
332.0915	0.09	664183	keystroke	s	n/a
332.3175	0.059	664635	keystroke	c	n/a
332.511	0.091	665022	keystroke	r	n/a
332.557	0.09	665114	keystroke	e	n/a
332.737	0.09	665474	keystroke	e	n/a
332.902	0.105	665804	keystroke	n	n/a
333.052	0.105	666104	keystroke	s	n/a
333.277	0.045	666554	keystroke	Key.space	n/a
333.5015	0.09	667003	keystroke	c	n/a
333.787	0.075	667574	keystroke	o	n/a
333.967	0.03	667934	keystroke	o	n/a
334.057	0.12	668114	keystroke	d	n/a
334.4015	0.105	668803	keystroke	r	n/a
335.1365	0.0745	670273	keystroke	Key.backspace	n/a
335.286	0.091	670572	keystroke	Key.backspace	n/a
335.497	0.075	670994	keystroke	r	n/a
335.932	0.105	671864	keystroke	i	n/a
336.3815	0.015	672763	keystroke	n	n/a
336.8015	0.045	673603	keystroke	=	n/a
336.9515	0.0745	673903	keystroke	Key.backspace	n/a
337.2365	0.075	674473	keystroke	Key.backspace	n/a
337.4165	0.06	674833	keystroke	Key.backspace	n/a
339.5535	0.038	679107	keystroke	d	n/a
339.7565	0.105	679513	keystroke	i	n/a
340.0115	0.105	680023	keystroke	n	n/a
340.176	0.105	680352	keystroke	a	n/a
340.371	0.09	680742	keystroke	t	n/a
340.446	0.091	680892	keystroke	e	n/a
340.687	0.09	681374	keystroke	d	n/a
341.3165	0.06	682633	keystroke	Key.space	n/a
341.526	0.076	683052	keystroke	i	n/a
341.692	0.12	683384	keystroke	n	n/a
341.9465	0.105	683893	keystroke	a	n/a
342.1115	0.0895	684223	keystroke	Key.space	n/a
342.666	0.09	685332	keystroke	Key.backspace	n/a
343.7015	0.075	687403	keystroke	p	n/a
343.8815	0.06	687763	keystroke	p	n/a
344.6015	0.12	689203	keystroke	r	n/a
344.7965	0.06	689593	keystroke	o	n/a
345.0065	0.09	690013	keystroke	p	n/a
345.547	0.12	691094	keystroke	r	n/a
345.8465	0.15	691693	keystroke	o	n/a
346.461	0.03	692922	keystroke	=	n/a
346.656	0.09	693312	keystroke	i	n/a
347.032	0.06	694064	keystroke	=	n/a
347.2115	0.045	694423	keystroke	Key.backspace	n/a
347.5715	0.075	695143	keystroke	Key.backspace	n/a
347.7815	0.12	695563	keystroke	Key.backspace	n/a
348.351	0.075	696702	keystroke	Key.backspace	n/a
348.982	0.075	697964	keystroke	i	n/a
349.177	0.09	698354	keystroke	a	n/a
349.3565	0.12	698713	keystroke	t	n/a
349.4465	0.105	698893	keystroke	e	n/a
349.6565	0.12	699313	keystroke	Key.space	n/a
350.152	0.09	700304	keystroke	c	n/a
350.2565	0.105	700513	keystroke	h	n/a
350.287	0.0895	700574	keystroke	a	n/a
350.4215	0.09	700843	keystroke	r	n/a
350.5265	0.1195	701053	keystroke	m	n/a
350.766	0.075	701532	keystroke	s	n/a
351.2015	0.135	702403	keystroke	Key.enter	n/a
351.3415	10.6765	702683	prompt	n/a	saves dental sets elementary\n
352.536	0.135	705072	keystroke	s	n/a
352.626	0.09	705252	keystroke	a	n/a
352.821	0.09	705642	keystroke	v	n/a
352.926	0.06	705852	keystroke	e	n/a
353.106	0.091	706212	keystroke	s	n/a
353.242	0.165	706484	keystroke	Key.space	n/a
353.392	0.0745	706784	keystroke	d	n/a
353.4215	0.105	706843	keystroke	e	n/a
353.5415	0.105	707083	keystroke	n	n/a
353.6315	0.075	707263	keystroke	t	n/a
353.7665	0.12	707533	keystroke	a	n/a
353.8715	0.15	707743	keystroke	l	n/a
354.4265	0.09	708853	keystroke	Key.space	n/a
354.8165	0.135	709633	keystroke	s	n/a
355.0715	0.1045	710143	keystroke	e	n/a
355.1775	0.1035	710355	keystroke	t	n/a
355.416	0.105	710832	keystroke	s	n/a
355.551	0.135	711102	keystroke	Key.space	n/a
355.731	0.075	711462	keystroke	e	n/a
356.0615	0.12	712123	keystroke	l	n/a
356.1965	0.09	712393	keystroke	e	n/a
356.6465	0.0295	713293	keystroke	m	n/a
357.2465	0.09	714493	keystroke	e	n/a
357.5015	0.09	715003	keystroke	n	n/a
358.101	0.075	716202	keystroke	r	n/a
358.297	0.119	716594	keystroke	a	n/a
358.8815	0.075	717763	keystroke	Key.backspace	n/a
359.0465	0.075	718093	keystroke	Key.backspace	n/a
359.1665	0.1045	718333	keystroke	e	n/a
359.272	0.1345	718544	keystroke	a	n/a
359.4515	0.075	718903	keystroke	r	n/a
359.7365	0.045	719473	keystroke	=	n/a
359.8865	0.09	719773	keystroke	Key.backspace	n/a
360.051	0.075	720102	keystroke	Key.backspace	n/a
360.201	0.075	720402	keystroke	Key.backspace	n/a
360.366	0.06	720732	keystroke	Key.backspace	n/a
361.1015	0.105	722203	keystroke	t	n/a
361.2365	0.12	722473	keystroke	a	n/a
361.3265	0.135	722653	keystroke	r	n/a
361.5065	0.12	723013	keystroke	y	n/a
361.8515	0.1645	723703	keystroke	Key.enter	n/a
362.024	8.469	724048	prompt	n/a	immediate his restrict trim\n
362.842	0.1035	725684	keystroke	i	n/a
363.1265	0.045	726253	keystroke	m	n/a
363.261	0.075	726522	keystroke	m	n/a
363.4565	0.059	726913	keystroke	e	n/a
363.6215	0.0895	727243	keystroke	d	n/a
363.756	0.075	727512	keystroke	i	n/a
363.891	0.045	727782	keystroke	a	n/a
364.026	0.09	728052	keystroke	t	n/a
364.101	0.12	728202	keystroke	e	n/a
364.311	0.1045	728622	keystroke	Key.space	n/a
364.7015	0.12	729403	keystroke	h	n/a
364.9115	0.09	729823	keystroke	i	n/a
365.0315	0.12	730063	keystroke	s	n/a
365.1965	0.1045	730393	keystroke	Key.space	n/a
365.8265	0.09	731653	keystroke	r	n/a
365.8715	0.075	731743	keystroke	e	n/a
366.0965	0.075	732193	keystroke	s	n/a
366.756	0.135	733512	keystroke	t	n/a
366.831	0.135	733662	keystroke	r	n/a
366.967	0.104	733934	keystroke	i	n/a
367.1615	0.0895	734323	keystroke	c	n/a
367.401	0.1355	734802	keystroke	t	n/a
367.8215	0.1495	735643	keystroke	Key.space	n/a
368.046	0.15	736092	keystroke	t	n/a
368.136	0.15	736272	keystroke	r	n/a
368.256	0.105	736512	keystroke	i	n/a
368.676	0.1195	737352	keystroke	,	n/a
369.3215	0.12	738643	keystroke	Key.backspace	n/a
370.0715	0.12	740143	keystroke	m	n/a
370.371	0.12	740742	keystroke	Key.enter	n/a
370.4955	10.932	740991	prompt	n/a	conversations chip logical terrain\n
371.3315	0.12	742663	keystroke	c	n/a
371.5115	0.105	743023	keystroke	o	n/a
371.976	0.075	743952	keystroke	n	n/a
372.1715	0.0595	744343	keystroke	v	n/a
372.381	0.075	744762	keystroke	e	n/a
372.426	0.09	744852	keystroke	r	n/a
372.6505	0.136	745301	keystroke	s	n/a
372.7255	0.136	745451	keystroke	a	n/a
372.997	0.119	745994	keystroke	t	n/a
373.386	0.09	746772	keystroke	i	n/a
373.6105	0.106	747221	keystroke	o	n/a
373.8815	0.12	747763	keystroke	n	n/a
374.1365	0.09	748273	keystroke	s	n/a
374.6305	0.12	749261	keystroke	Key.space	n/a
374.8865	0.15	749773	keystroke	c	n/a
375.0215	0.135	750043	keystroke	h	n/a
375.861	0.1345	751722	keystroke	i	n/a
376.191	0.075	752382	keystroke	p	n/a
376.401	0.105	752802	keystroke	Key.space	n/a
376.6855	0.06	753371	keystroke	l	n/a
376.9115	0.105	753823	keystroke	o	n/a
377.5405	0.135	755081	keystroke	g	n/a
377.6905	0.015	755381	keystroke	i	n/a
377.7655	0.121	755531	keystroke	c	n/a
377.9005	0.106	755801	keystroke	a	n/a
378.0665	0.12	756133	keystroke	l	n/a
378.3365	0.119	756673	keystroke	Key.space	n/a
378.8615	0.105	757723	keystroke	t	n/a
379.0565	0.09	758113	keystroke	e	n/a
379.1165	0.09	758233	keystroke	r	n/a
379.8815	0.12	759763	keystroke	r	n/a
380.1515	0.105	760303	keystroke	a	n/a
380.481	0.15	760962	keystroke	i	n/a
380.871	0.12	761742	keystroke	n	n/a
381.336	0.09	762672	keystroke	Key.enter	n/a
381.43	9.3425	762860	prompt	n/a	broker aquatic marie ourselves\n
382.1905	0.06	764381	keystroke	b	n/a
382.2805	0.09	764561	keystroke	r	n/a
382.4155	0.0905	764831	keystroke	o	n/a
382.716	0.06	765432	keystroke	k	n/a
382.8815	0.105	765763	keystroke	e	n/a
382.9715	0.105	765943	keystroke	r	n/a
383.691	0.105	767382	keystroke	Key.space	n/a
383.931	0.105	767862	keystroke	a	n/a
384.3505	0.105	768701	keystroke	q	n/a
384.5005	0.091	769001	keystroke	u	n/a
384.6205	0.106	769241	keystroke	a	n/a
384.8765	0.075	769753	keystroke	t	n/a
385.3705	0.1205	770741	keystroke	i	n/a
385.551	0.12	771102	keystroke	c	n/a
385.971	0.105	771942	keystroke	Key.space	n/a
386.7665	0.105	773533	keystroke	m	n/a
386.9015	0.1045	773803	keystroke	a	n/a
387.156	0.09	774312	keystroke	r	n/a
387.336	0.03	774672	keystroke	i	n/a
387.711	0.075	775422	keystroke	e	n/a
387.936	0.1345	775872	keystroke	Key.space	n/a
388.386	0.12	776772	keystroke	o	n/a
388.521	0.075	777042	keystroke	u	n/a
388.746	0.06	777492	keystroke	r	n/a
388.941	0.0745	777882	keystroke	s	n/a
389.1505	0.075	778301	keystroke	e	n/a
389.421	0.135	778842	keystroke	l	n/a
389.661	0.09	779322	keystroke	v	n/a
389.766	0.0745	779532	keystroke	e	n/a
389.9755	0.09	779951	keystroke	s	n/a
390.6515	0.119	781303	keystroke	Key.enter	n/a
390.7755	9.8825	781551	prompt	n/a	newman commodity hosting divide\n
391.716	0.075	783432	keystroke	n	n/a
392.0605	0.06	784121	keystroke	e	n/a
392.1805	0.1205	784361	keystroke	m	n/a
392.436	0.0445	784872	keystroke	w	n/a
392.916	0.09	785832	keystroke	Key.backspace	n/a
393.5605	0.09	787121	keystroke	Key.backspace	n/a
393.7705	0.075	787541	keystroke	w	n/a
393.9805	0.09	787961	keystroke	m	n/a
394.2065	0.09	788413	keystroke	a	n/a
394.3255	0.076	788651	keystroke	n	n/a
394.761	0.1345	789522	keystroke	Key.space	n/a
395.0905	0.09	790181	keystroke	c	n/a
395.2255	0.09	790451	keystroke	o	n/a
395.451	0.09	790902	keystroke	m	n/a
395.601	0.09	791202	keystroke	m	n/a
395.811	0.075	791622	keystroke	o	n/a
396.111	0.075	792222	keystroke	d	n/a
396.336	0.015	792672	keystroke	i	n/a
396.6205	0.09	793241	keystroke	t	n/a
396.891	0.06	793782	keystroke	y	n/a
397.176	0.12	794352	keystroke	Key.space	n/a
397.8805	0.06	795761	keystroke	h	n/a
398.0455	0.09	796091	keystroke	o	n/a
398.1805	0.09	796361	keystroke	s	n/a
398.391	0.1045	796782	keystroke	t	n/a
398.4505	0.15	796901	keystroke	i	n/a
398.9015	0.089	797803	keystroke	n	n/a
399.0355	0.075	798071	keystroke	g	n/a
399.1855	0.12	798371	keystroke	Key.space	n/a
399.471	0.12	798942	keystroke	d	n/a
399.636	0.09	799272	keystroke	i	n/a
399.801	0.135	799602	keystroke	v	n/a
399.921	0.09	799842	keystroke	i	n/a
400.191	0.1345	800382	keystroke	d	n/a
400.3105	0.091	800621	keystroke	e	n/a
400.491	0.165	800982	keystroke	Key.enter	n/a
400.6605	8.952	801321	prompt	n/a	represent logo similarly baby\n
401.4505	0.12	802901	keystroke	r	n/a
401.5255	0.12	803051	keystroke	e	n/a
401.6905	0.12	803381	keystroke	p	n/a
401.9755	0.12	803951	keystroke	r	n/a
402.0205	0.12	804041	keystroke	e	n/a
402.291	0.1645	804582	keystroke	s	n/a
402.4255	0.105	804851	keystroke	e	n/a
402.6505	0.12	805301	keystroke	n	n/a
402.7855	0.12	805571	keystroke	t	n/a
402.9655	0.12	805931	keystroke	Key.space	n/a
403.2215	0.075	806443	keystroke	l	n/a
403.416	0.06	806832	keystroke	o	n/a
403.671	0.09	807342	keystroke	g	n/a
403.896	0.105	807792	keystroke	o	n/a
404.196	0.119	808392	keystroke	Key.space	n/a
404.451	0.075	808902	keystroke	s	n/a
404.556	0.105	809112	keystroke	i	n/a
404.796	0.105	809592	keystroke	m	n/a
405.036	0.0595	810072	keystroke	i	n/a
405.336	0.075	810672	keystroke	l	n/a
405.531	0.135	811062	keystroke	a	n/a
405.681	0.1495	811362	keystroke	r	n/a
405.9505	0.09	811901	keystroke	i	n/a
406.4455	0.09	812891	keystroke	Key.backspace	n/a
407.6755	0.075	815351	keystroke	l	n/a
407.9155	0.075	815831	keystroke	y	n/a
408.4105	0.1355	816821	keystroke	Key.space	n/a
408.8755	0.045	817751	keystroke	b	n/a
408.9655	0.09	817931	keystroke	a	n/a
409.0105	0.075	818021	keystroke	b	n/a
409.1755	0.075	818351	keystroke	y	n/a
409.4905	0.1205	818981	keystroke	Key.enter	n/a
409.621	10.686	819242	prompt	n/a	automotive shadows tracker hear\n
410.331	0.06	820662	keystroke	a	n/a
410.466	0.09	820932	keystroke	u	n/a
410.676	0.09	821352	keystroke	t	n/a
411.0505	0.0905	822101	keystroke	o	n/a
411.336	0.0745	822672	keystroke	m	n/a
411.6655	0.12	823331	keystroke	o	n/a
411.8155	0.105	823631	keystroke	t	n/a
412.0105	0.105	824021	keystroke	i	n/a
412.1305	0.1345	824261	keystroke	v	n/a
412.686	0.075	825372	keystroke	e	n/a
412.911	0.09	825822	keystroke	Key.space	n/a
413.091	0.0745	826182	keystroke	s	n/a
413.1655	0.075	826331	keystroke	h	n/a
413.2255	0.12	826451	keystroke	a	n/a
413.391	0.1495	826782	keystroke	d	n/a
413.8855	0.1055	827771	keystroke	p	n/a
414.051	0.075	828102	keystroke	w	n/a
414.231	0.09	828462	keystroke	s	n/a
414.366	0.1345	828732	keystroke	Key.space	n/a
414.5155	0.1195	829031	keystroke	t	n/a
414.5605	0.1345	829121	keystroke	r	n/a
414.981	0.075	829962	keystroke	Key.backspace	n/a
415.146	0.06	830292	keystroke	Key.backspace	n/a
415.3105	0.0755	830621	keystroke	Key.backspace	n/a
415.461	0.075	830922	keystroke	Key.backspace	n/a
415.611	0.075	831222	keystroke	Key.backspace	n/a
415.836	0.075	831672	keystroke	o	n/a
416.061	0.06	832122	keystroke	w	n/a
416.3005	0.075	832601	keystroke	Key.backspace	n/a
416.4505	0.075	832901	keystroke	Key.backspace	n/a
416.616	0.09	833232	keystroke	Key.backspace	n/a
416.826	0.06	833652	keystroke	o	n/a
417.1705	0.0745	834341	keystroke	w	n/a
417.3955	0.09	834791	keystroke	s	n/a
417.545	0.151	835090	keystroke	Key.space	n/a
417.726	0.12	835452	keystroke	t	n/a
417.756	0.15	835512	keystroke	r	n/a
418.0255	0.105	836051	keystroke	a	n/a
418.2055	0.1045	836411	keystroke	c	n/a
418.911	0.105	837822	keystroke	k	n/a
419.121	0.1195	838242	keystroke	e	n/a
419.2255	0.0745	838451	keystroke	r	n/a
419.301	0.149	838602	keystroke	Key.space	n/a
419.466	0.105	838932	keystroke	h	n/a
419.601	0.15	839202	keystroke	e	n/a
419.691	0.12	839382	keystroke	a	n/a
419.8705	0.09	839741	keystroke	r	n/a
420.1555	0.1495	840311	keystroke	Key.enter	n/a
420.3115	9.4005	840623	prompt	n/a	widespread now perform printer\n
421.056	0.09	842112	keystroke	w	n/a
421.1905	0.105	842381	keystroke	i	n/a
421.4005	0.165	842801	keystroke	d	n/a
421.4905	0.105	842981	keystroke	e	n/a
421.7005	0.105	843401	keystroke	s	n/a
421.8805	0.1345	843761	keystroke	p	n/a
422.12	0.1355	844240	keystroke	r	n/a
422.165	0.1205	844330	keystroke	e	n/a
422.3755	0.12	844751	keystroke	a	n/a
422.4505	0.135	844901	keystroke	d	n/a
422.78	0.135	845560	keystroke	Key.space	n/a
423.1555	0.105	846311	keystroke	n	n/a
423.3655	0.0745	846731	keystroke	o	n/a
423.53	0.06	847060	keystroke	w	n/a
423.621	0.12	847242	keystroke	Key.space	n/a
423.981	0.1195	847962	keystroke	o	n/a
424.1605	0.105	848321	keystroke	e	n/a
424.2355	0.09	848471	keystroke	r	n/a
424.4455	0.09	848891	keystroke	f	n/a
424.941	0.06	849882	keystroke	Key.backspace	n/a
425.091	0.0595	850182	keystroke	Key.backspace	n/a
425.2555	0.06	850511	keystroke	Key.backspace	n/a
425.42	0.075	850840	keystroke	Key.backspace	n/a
425.616	0.105	851232	keystroke	p	n/a
425.826	0.105	851652	keystroke	e	n/a
425.901	0.09	851802	keystroke	r	n/a
426.4255	0.06	852851	keystroke	f	n/a
426.5005	0.09	853001	keystroke	o	n/a
426.6505	0.105	853301	keystroke	r	n/a
426.7105	0.135	853421	keystroke	m	n/a
427.0555	0.105	854111	keystroke	Key.space	n/a
428.0905	0.09	856181	keystroke	p	n/a
428.4055	0.09	856811	keystroke	r	n/a
428.63	0.105	857260	keystroke	i	n/a
428.69	0.15	857380	keystroke	n	n/a
428.93	0.12	857860	keystroke	t	n/a
429.14	0.106	858280	keystroke	e	n/a
429.2	0.121	858400	keystroke	r	n/a
429.5605	0.1495	859121	keystroke	Key.enter	n/a
429.715	14.352	859430	prompt	n/a	disease continuing sussex flickr\n
430.461	0.1345	860922	keystroke	d	n/a
430.5955	0.09	861191	keystroke	i	n/a
430.8805	0.165	861761	keystroke	e	n/a
431.1655	0.15	862331	keystroke	a	n/a
431.3305	0.12	862661	keystroke	s	n/a
431.99	0.12	863980	keystroke	Key.backspace	n/a
432.125	0.045	864250	keystroke	Key.backspace	n/a
432.29	0.091	864580	keystroke	Key.backspace	n/a
432.576	0.1345	865152	keystroke	s	n/a
432.6805	0.135	865361	keystroke	e	n/a
432.8005	0.15	865601	keystroke	a	n/a
432.9655	0.1495	865931	keystroke	s	n/a
433.1	0.121	866200	keystroke	e	n/a
433.28	0.121	866560	keystroke	Key.space	n/a
433.8205	0.12	867641	keystroke	c	n/a
433.9855	0.105	867971	keystroke	o	n/a
434.1505	0.09	868301	keystroke	n	n/a
434.646	0.0745	869292	keystroke	t	n/a
434.8855	0.075	869771	keystroke	i	n/a
435.605	0.1055	871210	keystroke	n	n/a
435.8455	0.045	871691	keystroke	u	n/a
436.0105	0.075	872021	keystroke	i	n/a
436.2055	0.12	872411	keystroke	i	n/a
436.2955	0.12	872591	keystroke	n	n/a
436.4755	0.1045	872951	keystroke	g	n/a
438.0505	0.075	876101	keystroke	Key.backspace	n/a
438.2305	0.075	876461	keystroke	Key.backspace	n/a
438.395	0.105	876790	keystroke	Key.backspace	n/a
438.875	0.075	877750	keystroke	n	n/a
439.131	0.0745	878262	keystroke	g	n/a
439.31	0.0755	878620	keystroke	Key.space	n/a
440.1055	0.075	880211	keystroke	s	n/a
440.2405	0.075	880481	keystroke	u	n/a
440.54	0.06	881080	keystroke	s	n/a
440.705	0.165	881410	keystroke	s	n/a
440.841	0.089	881682	keystroke	e	n/a
441.156	0.1645	882312	keystroke	x	n/a
441.6805	0.12	883361	keystroke	Key.space	n/a
442.265	0.076	884530	keystroke	f	n/a
442.385	0.0755	884770	keystroke	l	n/a
442.5955	0.06	885191	keystroke	i	n/a
442.7605	0.06	885521	keystroke	c	n/a
443.0005	0.12	886001	keystroke	k	n/a
443.2255	0.09	886451	keystroke	r	n/a
443.945	0.12	887890	keystroke	Key.enter	n/a
444.07	9.7185	888140	prompt	n/a	disposal grace ferrari thereof\n
444.83	0.105	889660	keystroke	d	n/a
444.95	0.106	889900	keystroke	i	n/a
445.101	0.089	890202	keystroke	s	n/a
445.8805	0.165	891761	keystroke	p	n/a
446.0305	0.03	892061	keystroke	o	n/a
446.1505	0.1495	892301	keystroke	s	n/a
446.24	0.12	892480	keystroke	a	n/a
446.361	0.119	892722	keystroke	l	n/a
446.66	0.09	893320	keystroke	Key.space	n/a
447.185	0.136	894370	keystroke	g	n/a
447.26	0.1355	894520	keystroke	r	n/a
447.5905	0.18	895181	keystroke	a	n/a
447.8305	0.1795	895661	keystroke	c	n/a
447.935	0.135	895870	keystroke	e	n/a
448.115	0.15	896230	keystroke	Key.space	n/a
448.31	0.12	896620	keystroke	r	n/a
449.0605	0.09	898121	keystroke	Key.backspace	n/a
449.27	0.091	898540	keystroke	g	n/a
449.765	0.09	899530	keystroke	Key.backspace	n/a
449.9755	0.06	899951	keystroke	f	n/a
450.1255	0.105	900251	keystroke	e	n/a
450.4105	0.075	900821	keystroke	r	n/a
450.936	0.0745	901872	keystroke	r	n/a
451.1005	0.12	902201	keystroke	a	n/a
451.2505	0.1195	902501	keystroke	r	n/a
451.475	0.09	902950	keystroke	i	n/a
451.9705	0.09	903941	keystroke	Key.space	n/a
452.3905	0.09	904781	keystroke	t	n/a
452.5255	0.09	905051	keystroke	h	n/a
452.6005	0.1045	905201	keystroke	e	n/a
452.6755	0.1645	905351	keystroke	r	n/a
452.81	0.0905	905620	keystroke	e	n/a
452.9755	0.09	905951	keystroke	o	n/a
453.1255	0.09	906251	keystroke	f	n/a
453.605	0.18	907210	keystroke	Key.enter	n/a
453.7935	10.898	907587	prompt	n/a	lauderdale ampland merry remarks\n
454.6255	0.1345	909251	keystroke	l	n/a
454.94	0.12	909880	keystroke	a	n/a
455.09	0.105	910180	keystroke	u	n/a
455.3	0.105	910600	keystroke	d	n/a
455.5845	0.136	911169	keystroke	e	n/a
455.6905	0.135	911381	keystroke	r	n/a
456.26	0.12	912520	keystroke	f	n/a
456.395	0.1345	912790	keystroke	a	n/a
456.5605	0.15	913121	keystroke	l	n/a
456.9805	0.075	913961	keystroke	Key.backspace	n/a
457.1605	0.075	914321	keystroke	Key.backspace	n/a
457.3105	0.105	914621	keystroke	Key.backspace	n/a
457.6255	0.135	915251	keystroke	d	n/a
457.7455	0.1195	915491	keystroke	a	n/a
458	0.12	916000	keystroke	l	n/a
458.195	0.1055	916390	keystroke	e	n/a
458.4205	0.09	916841	keystroke	Key.space	n/a
458.93	0.1055	917860	keystroke	a	n/a
459.305	0.0905	918610	keystroke	m	n/a
459.59	0.105	919180	keystroke	p	n/a
459.665	0.135	919330	keystroke	l	n/a
459.935	0.09	919870	keystroke	a	n/a
460.07	0.075	920140	keystroke	n	n/a
460.175	0.121	920350	keystroke	d	n/a
460.8505	0.075	921701	keystroke	Key.space	n/a
461.195	0.045	922390	keystroke	m	n/a
461.331	0.0895	922662	keystroke	e	n/a
461.4205	0.059	922841	keystroke	r	n/a
461.585	0.075	923170	keystroke	r	n/a
461.69	0.09	923380	keystroke	y	n/a
461.885	0.12	923770	keystroke	Key.space	n/a
462.351	0.1345	924702	keystroke	r	n/a
462.4555	0.09	924911	keystroke	e	n/a
462.6205	0.105	925241	keystroke	m	n/a
462.7555	0.09	925511	keystroke	a	n/a
463.025	0.12	926050	keystroke	r	n/a
464.0605	0.06	928121	keystroke	k	n/a
464.375	0.1055	928750	keystroke	s	n/a
464.5705	0.12	929141	keystroke	Key.enter	n/a
464.6945	11.2325	929389	prompt	n/a	thanks poetry collecting plasma\n
465.4105	0.09	930821	keystroke	t	n/a
465.4705	0.075	930941	keystroke	h	n/a
465.605	0.12	931210	keystroke	a	n/a
465.71	0.21	931420	keystroke	n	n/a
466.4005	0.09	932801	keystroke	k	n/a
466.5355	0.105	933071	keystroke	s	n/a
466.8505	0.1045	933701	keystroke	Key.space	n/a
467.6005	0.06	935201	keystroke	p	n/a
467.84	0.105	935680	keystroke	o	n/a
468.11	0.135	936220	keystroke	e	n/a
468.425	0.15	936850	keystroke	t	n/a
468.545	0.105	937090	keystroke	r	n/a
468.711	0.119	937422	keystroke	y	n/a
468.9955	0.12	937991	keystroke	Key.space	n/a
469.55	0.105	939100	keystroke	c	n/a
469.6855	0.075	939371	keystroke	o	n/a
469.94	0.105	939880	keystroke	l	n/a
470.12	0.075	940240	keystroke	l	n/a
470.255	0.12	940510	keystroke	e	n/a
470.39	0.09	940780	keystroke	c	n/a
470.585	0.12	941170	keystroke	t	n/a
470.676	0.1185	941352	keystroke	i	n/a
470.7205	0.164	941441	keystroke	n	n/a
470.8995	0.091	941799	keystroke	g	n/a
471.0055	0.12	942011	keystroke	Key.space	n/a
471.8905	0.105	943781	keystroke	p	n/a
472.1155	0.135	944231	keystroke	l	n/a
472.3555	0.09	944711	keystroke	a	n/a
472.5655	0.1195	945131	keystroke	s	n/a
472.9255	0.09	945851	keystroke	a	n/a
473.885	0.12	947770	keystroke	Key.backspace	n/a
474.7255	0.15	949451	keystroke	m	n/a
475.0105	0.1045	950021	keystroke	a	n/a
475.82	0.105	951640	keystroke	Key.enter	n/a
475.9295	7.212	951859	prompt	n/a	latex she extend papers\n
477.0655	0.075	954131	keystroke	l	n/a
477.1555	0.1045	954311	keystroke	a	n/a
477.395	0.09	954790	keystroke	t	n/a
477.8	0.1045	955600	keystroke	x	n/a
478.2505	0.12	956501	keystroke	Key.backspace	n/a
478.4905	0.09	956981	keystroke	e	n/a
478.775	0.135	957550	keystroke	x	n/a
479.225	0.1355	958450	keystroke	Key.space	n/a
479.4205	0.105	958841	keystroke	s	n/a
479.5405	0.09	959081	keystroke	h	n/a
479.645	0.09	959290	keystroke	e	n/a
479.75	0.12	959500	keystroke	Key.space	n/a
479.93	0.09	959860	keystroke	e	n/a
480.275	0.105	960550	keystroke	x	n/a
480.53	0.135	961060	keystroke	t	n/a
480.74	0.09	961480	keystroke	e	n/a
481.1145	0.106	962229	keystroke	n	n/a
481.3105	0.074	962621	keystroke	d	n/a
481.4895	0.106	962979	keystroke	Key.space	n/a
481.7305	0.09	963461	keystroke	p	n/a
481.8505	0.1045	963701	keystroke	a	n/a
482	0.09	964000	keystroke	p	n/a
482.285	0.1045	964570	keystroke	e	n/a
482.3605	0.104	964721	keystroke	r	n/a
482.6605	0.09	965321	keystroke	s	n/a
482.9905	0.15	965981	keystroke	Key.enter	n/a
483.1455	13.842	966291	prompt	n/a	manga exempt armstrong exhibits\n
484.3705	0.1045	968741	keystroke	m	n/a
484.52	0.09	969040	keystroke	a	n/a
484.655	0.105	969310	keystroke	n	n/a
484.985	0.045	969970	keystroke	g	n/a
485.21	0.06	970420	keystroke	a	n/a
485.4505	0.195	970901	keystroke	Key.space	n/a
486.53	0.075	973060	keystroke	e	n/a
486.7395	0.091	973479	keystroke	x	n/a
486.9805	0.12	973961	keystroke	a	n/a
487.2055	0.09	974411	keystroke	m	n/a
487.4455	0.09	974891	keystroke	p	n/a
487.64	0.105	975280	keystroke	t	n/a
488.675	0.0905	977350	keystroke	Key.backspace	n/a
488.8705	0.045	977741	keystroke	Key.backspace	n/a
489.0055	0.09	978011	keystroke	Key.backspace	n/a
489.1405	0.105	978281	keystroke	Key.backspace	n/a
489.3055	0.09	978611	keystroke	e	n/a
489.77	0.105	979540	keystroke	m	n/a
489.995	0.09	979990	keystroke	p	n/a
490.175	0.09	980350	keystroke	t	n/a
490.6105	0.12	981221	keystroke	Key.space	n/a
491.0455	0.09	982091	keystroke	a	n/a
491.24	0.0895	982480	keystroke	r	n/a
491.3745	0.075	982749	keystroke	m	n/a
491.51	0.045	983020	keystroke	s	n/a
491.69	0.12	983380	keystroke	t	n/a
491.75	0.135	983500	keystroke	r	n/a
491.915	0.09	983830	keystroke	o	n/a
492.17	0.0595	984340	keystroke	g	n/a
492.5605	0.06	985121	keystroke	Key.backspace	n/a
492.8005	0.045	985601	keystroke	n	n/a
492.9055	0.0745	985811	keystroke	g	n/a
493.13	0.09	986260	keystroke	Key.space	n/a
493.76	0.045	987520	keystroke	e	n/a
493.82	0.075	987640	keystroke	h	n/a
494.2395	0.09	988479	keystroke	Key.backspace	n/a
494.78	0.135	989560	keystroke	x	n/a
494.93	0.045	989860	keystroke	h	n/a
495.35	0.075	990700	keystroke	i	n/a
495.56	0.075	991120	keystroke	b	n/a
495.74	0.09	991480	keystroke	i	n/a
495.8895	0.075	991779	keystroke	t	n/a
496.1305	0.105	992261	keystroke	s	n/a
496.835	0.15	993670	keystroke	Key.enter	n/a
496.9905	6.611	993981	prompt	n/a	oliver anger feed pens\n
497.7495	0.06	995499	keystroke	o	n/a
498.1395	0.106	996279	keystroke	l	n/a
498.3655	0.105	996731	keystroke	i	n/a
498.5755	0.075	997151	keystroke	v	n/a
498.7555	0.0895	997511	keystroke	e	n/a
498.8	0.135	997600	keystroke	r	n/a
498.98	0.09	997960	keystroke	Key.space	n/a
499.88	0.06	999760	keystroke	a	n/a
499.97	0.09	999940	keystroke	n	n/a
500.15	0.075	1000300	keystroke	g	n/a
500.315	0.075	1000630	keystroke	e	n/a
500.36	0.09	1000720	keystroke	r	n/a
500.51	0.105	1001020	keystroke	Key.space	n/a
500.645	0.0895	1001290	keystroke	f	n/a
500.7495	0.09	1001499	keystroke	e	n/a
500.9155	0.074	1001831	keystroke	e	n/a
501.11	0.12	1002220	keystroke	d	n/a
501.275	0.1205	1002550	keystroke	Key.space	n/a
501.71	0.105	1003420	keystroke	p	n/a
501.875	0.075	1003750	keystroke	e	n/a
501.935	0.09	1003870	keystroke	r	n/a
502.5345	0.12	1005069	keystroke	Key.backspace	n/a
502.8805	0.0595	1005761	keystroke	n	n/a
503.2395	0.105	1006479	keystroke	s	n/a
503.4795	0.12	1006959	keystroke	Key.enter	n/a
503.606	13.181	1007212	prompt	n/a	homepage gold panasonic encyclopedia\n
504.71	0.045	1009420	keystroke	h	n/a
504.935	0.135	1009870	keystroke	m	n/a
504.95	0.03	1009900	keystroke	o	n/a
505.1905	0.1195	1010381	keystroke	e	n/a
505.8655	0.09	1011731	keystroke	p	n/a
506.2705	0.0595	1012541	keystroke	Key.backspace	n/a
506.435	0.0595	1012870	keystroke	Key.backspace	n/a
506.5845	0.045	1013169	keystroke	Key.backspace	n/a
506.7045	0.06	1013409	keystroke	Key.backspace	n/a
506.9755	0.09	1013951	keystroke	o	n/a
507.7855	0.0745	1015571	keystroke	m	n/a
507.9355	0.075	1015871	keystroke	e	n/a
508.0855	0.06	1016171	keystroke	p	n/a
508.2205	0.09	1016441	keystroke	a	n/a
508.4305	0.105	1016861	keystroke	g	n/a
508.5505	0.12	1017101	keystroke	e	n/a
508.805	0.12	1017610	keystroke	Key.space	n/a
509.1045	0.076	1018209	keystroke	g	n/a
509.195	0.06	1018390	keystroke	o	n/a
509.3755	0.075	1018751	keystroke	l	n/a
509.4805	0.119	1018961	keystroke	d	n/a
509.7345	0.09	1019469	keystroke	Key.space	n/a
510.545	0.09	1021090	keystroke	p	n/a
510.77	0.105	1021540	keystroke	a	n/a
510.89	0.06	1021780	keystroke	n	n/a
511.025	0.09	1022050	keystroke	a	n/a
511.355	0.0745	1022710	keystroke	s	n/a
511.6095	0.09	1023219	keystroke	o	n/a
511.8195	0.091	1023639	keystroke	n	n/a
511.9705	0.075	1023941	keystroke	i	n/a
512.705	0.105	1025410	keystroke	c	n/a
512.9905	0.09	1025981	keystroke	Key.space	n/a
513.4545	0.075	1026909	keystroke	e	n/a
513.6955	0.075	1027391	keystroke	n	n/a
513.9655	0.105	1027931	keystroke	c	n/a
514.145	0.105	1028290	keystroke	y	n/a
514.385	0.075	1028770	keystroke	c	n/a
514.6545	0.09	1029309	keystroke	l	n/a
515.1505	0.0745	1030301	keystroke	o	n/a
515.4655	0.1045	1030931	keystroke	p	n/a
515.645	0.075	1031290	keystroke	e	n/a
515.855	0.105	1031710	keystroke	d	n/a
516.0045	0.091	1032009	keystroke	i	n/a
516.3205	0.075	1032641	keystroke	a	n/a
516.68	0.105	1033360	keystroke	Key.enter	n/a
516.7915	15.97	1033583	prompt	n/a	global problem efficiency italic\n
517.8955	0.0745	1035791	keystroke	g	n/a
518	0.09	1036000	keystroke	l	n/a
518.195	0.06	1036390	keystroke	o	n/a
518.4345	0.075	1036869	keystroke	b	n/a
518.5845	0.076	1037169	keystroke	a	n/a
518.7045	0.076	1037409	keystroke	l	n/a
519.2895	0.12	1038579	keystroke	Key.space	n/a
519.5745	0.12	1039149	keystroke	p	n/a
519.7395	0.091	1039479	keystroke	r	n/a
519.8905	0.105	1039781	keystroke	o	n/a
520.55	0.045	1041100	keystroke	b	n/a
520.865	0.045	1041730	keystroke	;	n/a
521.465	0.1045	1042930	keystroke	Key.backspace	n/a
521.8105	0.06	1043621	keystroke	;	n/a
522.275	0.09	1044550	keystroke	Key.backspace	n/a
522.77	0.0905	1045540	keystroke	;	n/a
523.3395	0.12	1046679	keystroke	Key.backspace	n/a
523.8505	0.12	1047701	keystroke	l	n/a
524.09	0.09	1048180	keystroke	e	n/a
524.2095	0.12	1048419	keystroke	m	n/a
524.7045	0.106	1049409	keystroke	Key.space	n/a
524.945	0.09	1049890	keystroke	e	n/a
525.1845	0.06	1050369	keystroke	f	n/a
525.4845	0.091	1050969	keystroke	f	n/a
525.8305	0.075	1051661	keystroke	i	n/a
526.055	0.12	1052110	keystroke	e	n/a
526.685	0.075	1053370	keystroke	Key.backspace	n/a
526.82	0.12	1053640	keystroke	c	n/a
527.6445	0.091	1055289	keystroke	i	n/a
527.8405	0.06	1055681	keystroke	e	n/a
527.9455	0.0745	1055891	keystroke	n	n/a
528.1395	0.1205	1056279	keystroke	c	n/a
528.2605	0.134	1056521	keystroke	y	n/a
528.5745	0.105	1057149	keystroke	Key.space	n/a
529.34	0.09	1058680	keystroke	i	n/a
529.475	0.075	1058950	keystroke	t	n/a
529.6395	0.09	1059279	keystroke	a	n/a
529.8955	0.09	1059791	keystroke	l	n/a
531.0345	0.091	1062069	keystroke	i	n/a
531.395	0.135	1062790	keystroke	x	n/a
531.995	0.12	1063990	keystroke	Key.backspace	n/a
532.19	0.135	1064380	keystroke	c	n/a
532.5945	0.165	1065189	keystroke	Key.enter	n/a
532.765	10.1665	1065530	prompt	n/a	amended lightweight pattern captured\n
533.5695	0.076	1067139	keystroke	a	n/a
533.7045	0.12	1067409	keystroke	m	n/a
533.8705	0.06	1067741	keystroke	e	n/a
534.35	0.075	1068700	keystroke	n	n/a
534.53	0.12	1069060	keystroke	d	n/a
534.635	0.12	1069270	keystroke	e	n/a
534.785	0.105	1069570	keystroke	d	n/a
534.98	0.1205	1069960	keystroke	Key.space	n/a
535.205	0.075	1070410	keystroke	l	n/a
535.3555	0.1045	1070711	keystroke	i	n/a
535.58	0.105	1071160	keystroke	g	n/a
535.67	0.09	1071340	keystroke	h	n/a
535.79	0.105	1071580	keystroke	t	n/a
536.06	0.105	1072120	keystroke	w	n/a
536.3445	0.1355	1072689	keystroke	e	n/a
536.54	0.075	1073080	keystroke	i	n/a
536.69	0.09	1073380	keystroke	g	n/a
536.81	0.09	1073620	keystroke	h	n/a
536.915	0.105	1073830	keystroke	t	n/a
537.11	0.105	1074220	keystroke	Key.space	n/a
537.3645	0.075	1074729	keystroke	p	n/a
537.4545	0.105	1074909	keystroke	a	n/a
537.9205	0.074	1075841	keystroke	t	n/a
538.1005	0.075	1076201	keystroke	t	n/a
538.2505	0.1045	1076501	keystroke	e	n/a
538.325	0.105	1076650	keystroke	r	n/a
538.475	0.135	1076950	keystroke	n	n/a
538.715	0.105	1077430	keystroke	Key.space	n/a
538.94	0.045	1077880	keystroke	e	n/a
539.2695	0.106	1078539	keystroke	Key.backspace	n/a
539.51	0.135	1079020	keystroke	c	n/a
539.66	0.09	1079320	keystroke	a	n/a
539.81	0.12	1079620	keystroke	p	n/a
540.05	0.105	1080100	keystroke	t	n/a
540.5595	0.09	1081119	keystroke	y	n/a
540.7245	0.151	1081449	keystroke	r	n/a
540.8605	0.075	1081721	keystroke	e	n/a
541.1005	0.0595	1082201	keystroke	Key.backspace	n/a
541.265	0.045	1082530	keystroke	Key.backspace	n/a
541.4145	0.06	1082829	keystroke	Key.backspace	n/a
541.6095	0.105	1083219	keystroke	u	n/a
541.7455	0.105	1083491	keystroke	r	n/a
541.7895	0.121	1083579	keystroke	e	n/a
542.375	0.09	1084750	keystroke	d	n/a
542.765	0.1645	1085530	keystroke	Key.enter	n/a
542.935	10.092	1085870	prompt	n/a	tongue disney homework surveillance\n
543.725	0.0905	1087450	keystroke	t	n/a
543.8605	0.06	1087721	keystroke	o	n/a
544.0555	0.1195	1088111	keystroke	n	n/a
544.235	0.075	1088470	keystroke	g	n/a
544.355	0.075	1088710	keystroke	u	n/a
544.445	0.12	1088890	keystroke	e	n/a
544.64	0.09	1089280	keystroke	Key.space	n/a
545.06	0.12	1090120	keystroke	d	n/a
545.195	0.075	1090390	keystroke	i	n/a
545.555	0.09	1091110	keystroke	s	n/a
545.63	0.105	1091260	keystroke	n	n/a
545.93	0.12	1091860	keystroke	e	n/a
546.11	0.09	1092220	keystroke	y	n/a
546.4395	0.105	1092879	keystroke	Key.space	n/a
546.8605	0.074	1093721	keystroke	h	n/a
547.16	0.075	1094320	keystroke	o	n/a
547.205	0.135	1094410	keystroke	m	n/a
547.385	0.045	1094770	keystroke	e	n/a
547.685	0.09	1095370	keystroke	w	n/a
547.7	0.03	1095400	keystroke	o	n/a
548.6905	0.1045	1097381	keystroke	r	n/a
548.825	0.105	1097650	keystroke	k	n/a
549.4695	0.135	1098939	keystroke	Key.space	n/a
549.845	0.06	1099690	keystroke	s	n/a
550.61	0.09	1101220	keystroke	u	n/a
550.8645	0.075	1101729	keystroke	r	n/a
551.1045	0.09	1102209	keystroke	v	n/a
551.2545	0.12	1102509	keystroke	e	n/a
551.54	0.09	1103080	keystroke	i	n/a
552.0195	0.045	1104039	keystroke	l	n/a
552.17	0.045	1104340	keystroke	l	n/a
552.29	0.09	1104580	keystroke	a	n/a
552.455	0.075	1104910	keystroke	n	n/a
552.605	0.105	1105210	keystroke	c	n/a
552.725	0.0445	1105450	keystroke	e	n/a
552.9495	0.075	1105899	keystroke	Key.enter	n/a
553.036	7.1305	1106072	prompt	n/a	leeds jacob nashville states\n
553.73	0.1045	1107460	keystroke	l	n/a
553.8945	0.075	1107789	keystroke	e	n/a
554.0595	0.06	1108119	keystroke	e	n/a
554.27	0.105	1108540	keystroke	d	n/a
554.33	0.09	1108660	keystroke	s	n/a
554.48	0.105	1108960	keystroke	Key.space	n/a
554.72	0.09	1109440	keystroke	j	n/a
554.855	0.0745	1109710	keystroke	a	n/a
555.32	0.12	1110640	keystroke	c	n/a
555.47	0.1045	1110940	keystroke	o	n/a
555.7545	0.105	1111509	keystroke	b	n/a
556.535	0.135	1113070	keystroke	Key.space	n/a
556.985	0.105	1113970	keystroke	n	n/a
557.12	0.09	1114240	keystroke	a	n/a
557.195	0.12	1114390	keystroke	s	n/a
557.33	0.1045	1114660	keystroke	h	n/a
557.5545	0.105	1115109	keystroke	v	n/a
557.6745	0.06	1115349	keystroke	i	n/a
557.9145	0.075	1115829	keystroke	l	n/a
558.0795	0.045	1116159	keystroke	l	n/a
558.26	0.06	1116520	keystroke	e	n/a
558.6195	0.12	1117239	keystroke	Key.space	n/a
558.8295	0.09	1117659	keystroke	s	n/a
559.0095	0.09	1118019	keystroke	t	n/a
559.1745	0.09	1118349	keystroke	a	n/a
559.355	0.12	1118710	keystroke	t	n/a
559.5945	0.0755	1119189	keystroke	e	n/a
559.79	0.075	1119580	keystroke	s	n/a
559.985	0.1795	1119970	keystroke	Key.enter	n/a
560.169	10.227	1120338	prompt	n/a	solomon validation divided circuit\n
560.84	0.09	1121680	keystroke	s	n/a
561.02	0.045	1122040	keystroke	o	n/a
561.23	0.075	1122460	keystroke	l	n/a
561.425	0.09	1122850	keystroke	o	n/a
561.635	0.105	1123270	keystroke	m	n/a
561.815	0.06	1123630	keystroke	o	n/a
561.9945	0.105	1123989	keystroke	n	n/a
562.5045	0.12	1125009	keystroke	Key.space	n/a
563.0455	0.044	1126091	keystroke	v	n/a
563.134	0.105	1126268	keystroke	a	n/a
563.225	0.09	1126450	keystroke	l	n/a
563.4195	0.09	1126839	keystroke	i	n/a
563.5695	0.105	1127139	keystroke	d	n/a
563.6595	0.0755	1127319	keystroke	a	n/a
563.825	0.12	1127650	keystroke	t	n/a
564.26	0.12	1128520	keystroke	i	n/a
564.5145	0.105	1129029	keystroke	o	n/a
564.6645	0.105	1129329	keystroke	j	n/a
565.355	0.09	1130710	keystroke	Key.backspace	n/a
565.8645	0.09	1131729	keystroke	n	n/a
566.2845	0.105	1132569	keystroke	Key.space	n/a
566.9145	0.075	1133829	keystroke	d	n/a
567.0645	0.075	1134129	keystroke	i	n/a
567.2445	0.1055	1134489	keystroke	v	n/a
567.365	0.09	1134730	keystroke	i	n/a
567.605	0.12	1135210	keystroke	d	n/a
567.695	0.1495	1135390	keystroke	e	n/a
567.8595	0.1355	1135719	keystroke	d	n/a
568.1145	0.1205	1136229	keystroke	Key.space	n/a
568.64	0.105	1137280	keystroke	c	n/a
568.8045	0.06	1137609	keystroke	i	n/a
569.2545	0.09	1138509	keystroke	r	n/a
569.4795	0.09	1138959	keystroke	c	n/a
569.5995	0.075	1139199	keystroke	u	n/a
569.7945	0.075	1139589	keystroke	i	n/a
569.9145	0.105	1139829	keystroke	t	n/a
570.245	0.1495	1140490	keystroke	Key.enter	n/a
570.401	13.4055	1140802	prompt	n/a	conversations pope bluetooth contracts\n
571.16	0.12	1142320	keystroke	c	n/a
571.28	0.09	1142560	keystroke	o	n/a
571.46	0.105	1142920	keystroke	n	n/a
571.5945	0.09	1143189	keystroke	v	n/a
571.7445	0.105	1143489	keystroke	e	n/a
571.8345	0.1205	1143669	keystroke	r	n/a
572.06	0.105	1144120	keystroke	s	n/a
572.105	0.105	1144210	keystroke	a	n/a
572.285	0.12	1144570	keystroke	t	n/a
572.6895	0.09	1145379	keystroke	i	n/a
573.0345	0.09	1146069	keystroke	o	n/a
573.455	0.0895	1146910	keystroke	n	n/a
573.7395	0.09	1147479	keystroke	s	n/a
573.9195	0.15	1147839	keystroke	Key.space	n/a
574.1295	0.09	1148259	keystroke	p	n/a
574.8945	0.075	1149789	keystroke	u	n/a
575.345	0.105	1150690	keystroke	Key.backspace	n/a
576.08	0.12	1152160	keystroke	o	n/a
576.275	0.075	1152550	keystroke	p	n/a
576.455	0.105	1152910	keystroke	e	n/a
576.8295	0.105	1153659	keystroke	Key.space	n/a
577.4445	0.075	1154889	keystroke	b	n/a
577.715	0.074	1155430	keystroke	l	n/a
577.925	0.06	1155850	keystroke	u	n/a
578.09	0.075	1156180	keystroke	e	n/a
578.3	0.03	1156600	keystroke	t	n/a
578.345	0.045	1156690	keystroke	i	n/a
578.54	0.015	1157080	keystroke	o	n/a
578.9295	0.0755	1157859	keystroke	Key.backspace	n/a
579.079	0.091	1158158	keystroke	Key.backspace	n/a
579.305	0.105	1158610	keystroke	o	n/a
579.8295	0.12	1159659	keystroke	o	n/a
580.1	0.0745	1160200	keystroke	t	n/a
580.6245	0.075	1161249	keystroke	h	n/a
581.3595	0.105	1162719	keystroke	Key.space	n/a
581.57	0.105	1163140	keystroke	c	n/a
581.72	0.1345	1163440	keystroke	o	n/a
581.795	0.1495	1163590	keystroke	n	n/a
582.0495	0.045	1164099	keystroke	s	n/a
582.5595	0.045	1165119	keystroke	Key.backspace	n/a
582.6495	0.12	1165299	keystroke	t	n/a
582.6955	0.134	1165391	keystroke	r	n/a
582.9345	0.1055	1165869	keystroke	a	n/a
583.054	0.091	1166108	keystroke	c	n/a
583.28	0.075	1166560	keystroke	t	n/a
583.49	0.09	1166980	keystroke	s	n/a
583.685	0.12	1167370	keystroke	Key.enter	n/a
583.809	9.0725	1167618	prompt	n/a	between troubleshooting metric reset\n
584.765	0.0595	1169530	keystroke	b	n/a
584.84	0.1195	1169680	keystroke	e	n/a
584.9745	0.09	1169949	keystroke	t	n/a
585.1695	0.09	1170339	keystroke	w	n/a
585.2295	0.06	1170459	keystroke	e	n/a
585.3945	0.075	1170789	keystroke	e	n/a
585.53	0.105	1171060	keystroke	n	n/a
585.755	0.09	1171510	keystroke	Key.space	n/a
585.875	0.18	1171750	keystroke	t	n/a
585.98	0.105	1171960	keystroke	r	n/a
586.07	0.06	1172140	keystroke	h	n/a
586.64	0.075	1173280	keystroke	Key.backspace	n/a
587.33	0.09	1174660	keystroke	o	n/a
587.39	0.1045	1174780	keystroke	u	n/a
587.8545	0.075	1175709	keystroke	b	n/a
588.1395	0.0905	1176279	keystroke	l	n/a
588.335	0.09	1176670	keystroke	e	n/a
589.0095	0.09	1178019	keystroke	s	n/a
589.1595	0.06	1178319	keystroke	h	n/a
589.64	0.045	1179280	keystroke	o	n/a
589.775	0.09	1179550	keystroke	o	n/a
589.895	0.105	1179790	keystroke	t	n/a
590.015	0.1495	1180030	keystroke	i	n/a
590.1195	0.15	1180239	keystroke	n	n/a
590.2545	0.09	1180509	keystroke	g	n/a
590.4345	0.15	1180869	keystroke	Key.space	n/a
590.6295	0.09	1181259	keystroke	m	n/a
590.7795	0.105	1181559	keystroke	e	n/a
590.9895	0.1505	1181979	keystroke	t	n/a
591.109	0.106	1182218	keystroke	r	n/a
591.23	0.09	1182460	keystroke	i	n/a
591.41	0.075	1182820	keystroke	c	n/a
591.545	0.105	1183090	keystroke	Key.space	n/a
591.755	0.1195	1183510	keystroke	r	n/a
591.83	0.1195	1183660	keystroke	e	n/a
592.0845	0.075	1184169	keystroke	s	n/a
592.2645	0.105	1184529	keystroke	e	n/a
592.4445	0.09	1184889	keystroke	t	n/a
592.76	0.12	1185520	keystroke	Key.enter	n/a
592.886	9.085	1185772	prompt	n/a	tribune glossary elements safely\n
593.7045	0.135	1187409	keystroke	t	n/a
593.7945	0.12	1187589	keystroke	r	n/a
594.514	0.106	1189028	keystroke	i	n/a
594.755	0.075	1189510	keystroke	b	n/a
594.95	0.06	1189900	keystroke	u	n/a
594.965	0.165	1189930	keystroke	n	n/a
595.205	0.105	1190410	keystroke	e	n/a
595.6995	0.09	1191399	keystroke	Key.space	n/a
596.1645	0.075	1192329	keystroke	g	n/a
596.2545	0.105	1192509	keystroke	l	n/a
596.464	0.091	1192928	keystroke	o	n/a
597.08	0.09	1194160	keystroke	s	n/a
597.215	0.1495	1194430	keystroke	s	n/a
597.3195	0.09	1194639	keystroke	a	n/a
597.4845	0.105	1194969	keystroke	r	n/a
597.6345	0.075	1195269	keystroke	y	n/a
597.8145	0.105	1195629	keystroke	Key.space	n/a
597.9945	0.0755	1195989	keystroke	e	n/a
598.13	0.105	1196260	keystroke	l	n/a
598.25	0.105	1196500	keystroke	e	n/a
598.4445	0.0455	1196889	keystroke	m	n/a
598.7145	0.09	1197429	keystroke	t	n/a
598.9695	0.105	1197939	keystroke	n	n/a
599.3595	0.06	1198719	keystroke	Key.backspace	n/a
599.4795	0.09	1198959	keystroke	Key.backspace	n/a
599.5995	0.12	1199199	keystroke	e	n/a
599.7645	0.09	1199529	keystroke	n	n/a
599.884	0.12	1199768	keystroke	t	n/a
600.125	0.105	1200250	keystroke	s	n/a
600.2895	0.105	1200579	keystroke	Key.space	n/a
600.4845	0.12	1200969	keystroke	s	n/a
600.5595	0.09	1201119	keystroke	a	n/a
600.784	0.1505	1201568	keystroke	f	n/a
600.9495	0.12	1201899	keystroke	e	n/a
601.1145	0.135	1202229	keystroke	l	n/a
601.3095	0.12	1202619	keystroke	y	n/a
601.8345	0.135	1203669	keystroke	Key.enter	n/a
601.975	9.7015	1203950	prompt	n/a	tion cocktail mauritius suppose\n
602.9145	0.1045	1205829	keystroke	t	n/a
603.08	0.1045	1206160	keystroke	i	n/a
603.3495	0.105	1206699	keystroke	o	n/a
603.5445	0.105	1207089	keystroke	n	n/a
603.7695	0.09	1207539	keystroke	Key.space	n/a
603.9345	0.1495	1207869	keystroke	c	n/a
604.0395	0.0605	1208079	keystroke	o	n/a
604.6695	0.105	1209339	keystroke	c	n/a
604.8645	0.105	1209729	keystroke	k	n/a
605.224	0.106	1210448	keystroke	t	n/a
605.405	0.1345	1210810	keystroke	a	n/a
605.6145	0.075	1211229	keystroke	i	n/a
605.93	0.09	1211860	keystroke	l	n/a
606.23	0.09	1212460	keystroke	Key.space	n/a
606.41	0.09	1212820	keystroke	m	n/a
606.5145	0.12	1213029	keystroke	a	n/a
607.055	0.105	1214110	keystroke	u	n/a
607.25	0.1045	1214500	keystroke	r	n/a
607.5495	0.09	1215099	keystroke	i	n/a
608.6595	0.1195	1217319	keystroke	t	n/a
608.899	0.106	1217798	keystroke	i	n/a
609.245	0.09	1218490	keystroke	u	n/a
609.665	0.1045	1219330	keystroke	s	n/a
609.8745	0.1045	1219749	keystroke	Key.space	n/a
610.129	0.075	1220258	keystroke	s	n/a
610.25	0.075	1220500	keystroke	u	n/a
610.58	0.015	1221160	keystroke	p	n/a
610.685	0.06	1221370	keystroke	p	n/a
610.835	0.105	1221670	keystroke	o	n/a
610.985	0.1045	1221970	keystroke	s	n/a
611.1045	0.06	1222209	keystroke	e	n/a
611.5845	0.09	1223169	keystroke	Key.enter	n/a
611.6795	8.757	1223359	prompt	n/a	boost greeting sponsor cams\n
612.5	0.045	1225000	keystroke	b	n/a
612.77	0.045	1225540	keystroke	o	n/a
612.89	0.0895	1225780	keystroke	o	n/a
613.0095	0.105	1226019	keystroke	s	n/a
613.2495	0.12	1226499	keystroke	t	n/a
613.4595	0.045	1226919	keystroke	Key.space	n/a
613.6395	0.06	1227279	keystroke	g	n/a
613.8345	0.165	1227669	keystroke	r	n/a
613.9545	0.105	1227909	keystroke	e	n/a
614.1495	0.09	1228299	keystroke	e	n/a
614.3295	0.09	1228659	keystroke	t	n/a
614.4495	0.105	1228899	keystroke	i	n/a
614.5095	0.105	1229019	keystroke	h	n/a
614.6295	0.0905	1229259	keystroke	g	n/a
614.9895	0.09	1229979	keystroke	Key.backspace	n/a
615.1845	0.075	1230369	keystroke	Key.backspace	n/a
615.455	0.06	1230910	keystroke	n	n/a
615.68	0.06	1231360	keystroke	Key.space	n/a
616.114	0.015	1232228	keystroke	Key.backspace	n/a
616.235	0.06	1232470	keystroke	g	n/a
616.34	0.135	1232680	keystroke	Key.space	n/a
616.55	0.105	1233100	keystroke	s	n/a
616.685	0.0895	1233370	keystroke	p	n/a
616.9695	0.105	1233939	keystroke	o	n/a
617.1195	0.105	1234239	keystroke	n	n/a
617.36	0.09	1234720	keystroke	s	n/a
617.8695	0.075	1235739	keystroke	p	n/a
618.0645	0.1355	1236129	keystroke	r	n/a
618.605	0.06	1237210	keystroke	Key.backspace	n/a
618.7245	0.06	1237449	keystroke	Key.backspace	n/a
618.9345	0.09	1237869	keystroke	o	n/a
619.0545	0.075	1238109	keystroke	r	n/a
619.355	0.12	1238710	keystroke	Key.space	n/a
619.5495	0.1495	1239099	keystroke	c	n/a
619.669	0.09	1239338	keystroke	a	n/a
619.744	0.135	1239488	keystroke	m	n/a
619.939	0.076	1239878	keystroke	s	n/a
620.3	0.135	1240600	keystroke	Key.enter	n/a
620.4405	5.7555	1240881	prompt	n/a	wines dies radar charlie\n
621.32	0.075	1242640	keystroke	w	n/a
621.395	0.12	1242790	keystroke	i	n/a
621.455	0.15	1242910	keystroke	n	n/a
621.62	0.12	1243240	keystroke	e	n/a
621.695	0.1345	1243390	keystroke	s	n/a
621.8895	0.12	1243779	keystroke	Key.space	n/a
622.0245	0.12	1244049	keystroke	d	n/a
622.1595	0.06	1244319	keystroke	i	n/a
622.355	0.135	1244710	keystroke	e	n/a
622.475	0.12	1244950	keystroke	s	n/a
622.64	0.105	1245280	keystroke	Key.space	n/a
622.985	0.06	1245970	keystroke	r	n/a
623.0745	0.1045	1246149	keystroke	a	n/a
623.194	0.135	1246388	keystroke	d	n/a
623.314	0.105	1246628	keystroke	a	n/a
623.449	0.12	1246898	keystroke	r	n/a
623.599	0.151	1247198	keystroke	Key.space	n/a
623.93	0.1045	1247860	keystroke	c	n/a
624.2745	0.075	1248549	keystroke	h	n/a
624.3945	0.1355	1248789	keystroke	a	n/a
624.4995	0.1355	1248999	keystroke	r	n/a
625.025	0.135	1250050	keystroke	l	n/a
625.5345	0.105	1251069	keystroke	i	n/a
625.685	0.105	1251370	keystroke	e	n/a
626.0895	0.105	1252179	keystroke	Key.enter	n/a
626.2005	9.4005	1252401	prompt	n/a	vulnerable moisture moreover threat\n
627.0945	0.1345	1254189	keystroke	v	n/a
627.259	0.09	1254518	keystroke	u	n/a
627.514	0.045	1255028	keystroke	l	n/a
628.384	0.091	1256768	keystroke	n	n/a
628.564	0.076	1257128	keystroke	e	n/a
628.594	0.12	1257188	keystroke	r	n/a
628.865	0.1345	1257730	keystroke	s	n/a
628.9695	0.135	1257939	keystroke	a	n/a
629.4795	0.075	1258959	keystroke	Key.backspace	n/a
629.6295	0.075	1259259	keystroke	Key.backspace	n/a
629.8095	0.075	1259619	keystroke	a	n/a
629.8995	0.075	1259799	keystroke	b	n/a
630.1705	0.104	1260341	keystroke	l	n/a
630.3645	0.0895	1260729	keystroke	e	n/a
630.679	0.105	1261358	keystroke	Key.space	n/a
630.9645	0.09	1261929	keystroke	m	n/a
631.16	0.0895	1262320	keystroke	o	n/a
631.2195	0.09	1262439	keystroke	i	n/a
631.5495	0.0745	1263099	keystroke	s	n/a
631.8195	0.075	1263639	keystroke	t	n/a
631.9095	0.09	1263819	keystroke	u	n/a
632.0595	0.105	1264119	keystroke	r	n/a
632.1345	0.09	1264269	keystroke	e	n/a
632.329	0.1355	1264658	keystroke	Key.space	n/a
632.8095	0.12	1265619	keystroke	m	n/a
632.9595	0.12	1265919	keystroke	o	n/a
633.0945	0.12	1266189	keystroke	r	n/a
633.1695	0.105	1266339	keystroke	e	n/a
633.349	0.105	1266698	keystroke	o	n/a
633.589	0.061	1267178	keystroke	v	n/a
633.785	0.075	1267570	keystroke	e	n/a
633.8	0.135	1267600	keystroke	r	n/a
634.2345	0.135	1268469	keystroke	Key.space	n/a
634.4145	0.165	1268829	keystroke	t	n/a
634.535	0.1045	1269070	keystroke	h	n/a
634.7595	0.1495	1269519	keystroke	r	n/a
634.8495	0.1045	1269699	keystroke	e	n/a
635.03	0.075	1270060	keystroke	a	n/a
635.18	0.1345	1270360	keystroke	t	n/a
635.449	0.15	1270898	keystroke	Key.enter	n/a
635.604	9.747	1271208	prompt	n/a	mexican latex nascar palm\n
636.394	0.09	1272788	keystroke	m	n/a
636.499	0.06	1272998	keystroke	e	n/a
636.754	0.09	1273508	keystroke	x	n/a
637.01	0.0745	1274020	keystroke	c	n/a
637.339	0.045	1274678	keystroke	Key.backspace	n/a
637.579	0.03	1275158	keystroke	i	n/a
637.639	0.15	1275278	keystroke	c	n/a
637.759	0.12	1275518	keystroke	a	n/a
637.925	0.1045	1275850	keystroke	n	n/a
638.255	0.09	1276510	keystroke	Key.space	n/a
638.659	0.09	1277318	keystroke	l	n/a
638.989	0.091	1277978	keystroke	a	n/a
639.155	0.105	1278310	keystroke	t	n/a
639.4245	0.03	1278849	keystroke	e	n/a
639.6495	0.09	1279299	keystroke	x	n/a
639.8145	0.15	1279629	keystroke	Key.space	n/a
641.329	0.091	1282658	keystroke	n	n/a
641.6595	0.135	1283319	keystroke	a	n/a
641.8545	0.045	1283709	keystroke	s	n/a
642.664	0.1505	1285328	keystroke	c	n/a
642.8295	0.06	1285659	keystroke	a	n/a
642.9945	0.12	1285989	keystroke	r	n/a
643.4	0.1495	1286800	keystroke	Key.space	n/a
643.924	0.091	1287848	keystroke	p	n/a
644.044	0.121	1288088	keystroke	a	n/a
644.539	0.15	1289078	keystroke	l	n/a
644.674	0.12	1289348	keystroke	m	n/a
645.23	0.1195	1290460	keystroke	Key.enter	n/a
645.3615	16.2495	1290723	prompt	n/a	ripe simultaneously boards pharmaceuticals\n
646.5495	0.12	1293099	keystroke	r	n/a
646.8195	0.15	1293639	keystroke	i	n/a
647.63	0.0895	1295260	keystroke	p	n/a
647.8395	0.09	1295679	keystroke	e	n/a
647.9745	0.12	1295949	keystroke	Key.space	n/a
648.379	0.106	1296758	keystroke	s	n/a
648.514	0.091	1297028	keystroke	i	n/a
648.8295	0.075	1297659	keystroke	u	n/a
649.0245	0.135	1298049	keystroke	m	n/a
650.224	0.09	1300448	keystroke	Key.backspace	n/a
650.374	0.105	1300748	keystroke	Key.backspace	n/a
650.645	0.075	1301290	keystroke	m	n/a
651.3495	0.105	1302699	keystroke	u	n/a
651.4845	0.09	1302969	keystroke	l	n/a
651.844	0.105	1303688	keystroke	t	n/a
652.054	0.076	1304108	keystroke	a	n/a
652.174	0.09	1304348	keystroke	n	n/a
653.2245	0.09	1306449	keystroke	e	n/a
653.465	0.12	1306930	keystroke	o	n/a
653.524	0.106	1307048	keystroke	u	n/a
653.66	0.135	1307320	keystroke	s	n/a
654.094	0.09	1308188	keystroke	l	n/a
654.229	0.15	1308458	keystroke	y	n/a
654.77	0.15	1309540	keystroke	Key.space	n/a
655.4145	0.06	1310829	keystroke	b	n/a
655.6095	0.12	1311219	keystroke	o	n/a
655.7145	0.12	1311429	keystroke	a	n/a
655.8195	0.09	1311639	keystroke	r	n/a
656.0145	0.1345	1312029	keystroke	d	n/a
656.074	0.135	1312148	keystroke	s	n/a
656.299	0.12	1312598	keystroke	Key.space	n/a
657.109	0.0905	1314218	keystroke	p	n/a
657.409	0.075	1314818	keystroke	h	n/a
657.544	0.12	1315088	keystroke	a	n/a
657.634	0.135	1315268	keystroke	r	n/a
657.784	0.09	1315568	keystroke	m	n/a
657.919	0.09	1315838	keystroke	a	n/a
658.834	0.121	1317668	keystroke	c	n/a
660.2745	0.075	1320549	keystroke	e	n/a
660.3795	0.1045	1320759	keystroke	u	n/a
660.544	0.105	1321088	keystroke	t	n/a
660.679	0.076	1321358	keystroke	i	n/a
660.83	0.12	1321660	keystroke	c	n/a
660.904	0.121	1321808	keystroke	a	n/a
661.0395	0.1045	1322079	keystroke	l	n/a
661.159	0.09	1322318	keystroke	s	n/a
661.459	0.15	1322918	keystroke	Key.enter	n/a
661.614	9.2965	1323228	prompt	n/a	screenshots reminder brilliant notebooks\n
662.3595	0.105	1324719	keystroke	s	n/a
662.5095	0.09	1325019	keystroke	c	n/a
662.7045	0.12	1325409	keystroke	r	n/a
662.7645	0.075	1325529	keystroke	e	n/a
662.9295	0.1045	1325859	keystroke	e	n/a
663.064	0.075	1326128	keystroke	n	n/a
663.199	0.12	1326398	keystroke	s	n/a
663.334	0.09	1326668	keystroke	h	n/a
663.559	0.075	1327118	keystroke	o	n/a
663.679	0.121	1327358	keystroke	t	n/a
663.9645	0.12	1327929	keystroke	s	n/a
664.1895	0.105	1328379	keystroke	Key.space	n/a
664.3545	0.09	1328709	keystroke	r	n/a
664.4295	0.12	1328859	keystroke	e	n/a
664.535	0.0895	1329070	keystroke	m	n/a
664.6995	0.12	1329399	keystroke	i	n/a
664.7595	0.12	1329519	keystroke	n	n/a
664.8945	0.135	1329789	keystroke	d	n/a
665.1195	0.12	1330239	keystroke	e	n/a
665.2245	0.09	1330449	keystroke	r	n/a
665.3595	0.135	1330719	keystroke	Key.space	n/a
665.749	0.075	1331498	keystroke	b	n/a
666.2895	0.09	1332579	keystroke	r	n/a
666.4395	0.0745	1332879	keystroke	i	n/a
666.799	0.105	1333598	keystroke	l	n/a
666.979	0.06	1333958	keystroke	l	n/a
667.159	0.0905	1334318	keystroke	i	n/a
667.3395	0.0895	1334679	keystroke	a	n/a
667.4145	0.1045	1334829	keystroke	n	n/a
667.579	0.15	1335158	keystroke	t	n/a
667.744	0.105	1335488	keystroke	Key.space	n/a
667.97	0.104	1335940	keystroke	n	n/a
668.18	0.09	1336360	keystroke	o	n/a
668.285	0.105	1336570	keystroke	t	n/a
668.7345	0.09	1337469	keystroke	e	n/a
668.9295	0.09	1337859	keystroke	b	n/a
669.1545	0.075	1338309	keystroke	o	n/a
669.3045	0.1045	1338609	keystroke	o	n/a
669.559	0.165	1339118	keystroke	s	n/a
670.054	0.09	1340108	keystroke	Key.backspace	n/a
670.265	0.0895	1340530	keystroke	k	n/a
670.4895	0.09	1340979	keystroke	s	n/a
670.7745	0.135	1341549	keystroke	Key.enter	n/a
670.914	12.942	1341828	prompt	n/a	frontier cedar receiver advisors\n
671.9895	0.075	1343979	keystroke	f	n/a
