onset	duration	sample	value	key	prompt_text
15.0135	0.001	30027	keystroke	Key.backspace	n/a
15.0665	22.541	30133	prompt	n/a	the quick brown fox jumps over a lazy dog\n
18.419	0.001	36838	keystroke	t	n/a
18.791	0.061	37582	keystroke	h	n/a
18.911	0.075	37822	keystroke	e	n/a
19.046	0.105	38092	keystroke	Key.space	n/a
19.827	0.089	39654	keystroke	q	n/a
19.932	0.09	39864	keystroke	u	n/a
20.082	0.09	40164	keystroke	i	n/a
21.027	0.06	42054	keystroke	c	n/a
21.131	0.075	42262	keystroke	k	n/a
21.251	0.105	42502	keystroke	Key.space	n/a
21.672	0.075	43344	keystroke	b	n/a
21.972	0.059	43944	keystroke	r	n/a
22.541	0.06	45082	keystroke	i	n/a
22.676	0.075	45352	keystroke	w	n/a
22.811	0.06	45622	keystroke	n	n/a
23.697	0.075	47394	keystroke	Key.backspace	n/a
23.922	0.075	47844	keystroke	Key.backspace	n/a
24.162	0.06	48324	keystroke	Key.backspace	n/a
24.9865	0.06	49973	keystroke	o	n/a
25.0765	0.075	50153	keystroke	w	n/a
25.2115	0.075	50423	keystroke	n	n/a
25.3165	0.09	50633	keystroke	Key.space	n/a
25.9165	0.06	51833	keystroke	f	n/a
25.9915	0.075	51983	keystroke	o	n/a
26.3665	0.075	52733	keystroke	x	n/a
26.666	0.075	53332	keystroke	Key.space	n/a
27.8215	0.075	55643	keystroke	j	n/a
27.9565	0.075	55913	keystroke	u	n/a
28.1515	0.075	56303	keystroke	m	n/a
28.5565	0.06	57113	keystroke	p	n/a
28.6915	0.12	57383	keystroke	s	n/a
28.7965	0.105	57593	keystroke	Key.space	n/a
29.127	0.06	58254	keystroke	o	n/a
29.472	0.06	58944	keystroke	v	n/a
29.562	0.06	59124	keystroke	e	n/a
29.727	0.12	59454	keystroke	r	n/a
29.802	0.09	59604	keystroke	Key.space	n/a
29.982	0.06	59964	keystroke	t	n/a
30.147	0.075	60294	keystroke	h	n/a
30.222	0.12	60444	keystroke	e	n/a
30.297	0.105	60594	keystroke	Key.space	n/a
30.582	0.075	61164	keystroke	l	n/a
30.732	0.12	61464	keystroke	a	n/a
30.972	0.075	61944	keystroke	z	n/a
31.167	0.06	62334	keystroke	y	n/a
31.362	0.09	62724	keystroke	Key.space	n/a
31.617	0.075	63234	keystroke	d	n/a
31.827	0.06	63654	keystroke	o	n/a
32.1115	0.045	64223	keystroke	g	n/a
37.604	0	75208	keystroke	Key.enter	n/a
37.612	10.777	75224	prompt	n/a	ohio mats maine annex\n
38.6215	0.06	77243	keystroke	o	n/a
38.982	0.06	77964	keystroke	h	n/a
39.102	0.075	78204	keystroke	i	n/a
39.222	0.105	78444	keystroke	a	n/a
40.167	0.045	80334	keystroke	o	n/a
40.302	0.09	80604	keystroke	Key.space	n/a
42.072	0.06	84144	keystroke	Key.backspace	n/a
42.237	0.075	84474	keystroke	Key.backspace	n/a
42.507	0.06	85014	keystroke	Key.backspace	n/a
43.197	0.075	86394	keystroke	o	n/a
43.392	0.105	86784	keystroke	Key.space	n/a
44.007	0.06	88014	keystroke	m	n/a
44.112	0.105	88224	keystroke	a	n/a
44.307	0.06	88614	keystroke	t	n/a
44.457	0.105	88914	keystroke	s	n/a
44.592	0.09	89184	keystroke	Key.space	n/a
45.132	0.075	90264	keystroke	m	n/a
45.267	0.12	90534	keystroke	a	n/a
45.357	0.06	90714	keystroke	i	n/a
45.507	0.06	91014	keystroke	n	n/a
45.612	0.105	91224	keystroke	e	n/a
45.702	0.09	91404	keystroke	Key.space	n/a
46.002	0.09	92004	keystroke	a	n/a
46.122	0.075	92244	keystroke	n	n/a
46.272	0.075	92544	keystroke	n	n/a
46.797	0.045	93594	keystroke	e	n/a
47.022	0.075	94044	keystroke	x	n/a
48.342	0.045	96684	keystroke	Key.enter	n/a
48.3925	13.1515	96785	prompt	n/a	whatever administrators allocation specs\n
49.617	0.075	99234	keystroke	w	n/a
49.707	0.075	99414	keystroke	h	n/a
49.887	0.09	99774	keystroke	a	n/a
49.992	0.075	99984	keystroke	t	n/a
50.142	0.09	100284	keystroke	e	n/a
50.157	0.06	100314	keystroke	w	n/a
51.132	0.06	102264	keystroke	Key.backspace	n/a
51.942	0.045	103884	keystroke	v	n/a
52.032	0.09	104064	keystroke	e	n/a
52.212	0.15	104424	keystroke	r	n/a
52.332	0.12	104664	keystroke	Key.space	n/a
52.992	0.09	105984	keystroke	a	n/a
53.217	0.075	106434	keystroke	d	n/a
53.352	0.105	106704	keystroke	m	n/a
53.562	0.06	107124	keystroke	i	n/a
53.712	0.09	107424	keystroke	n	n/a
53.862	0.06	107724	keystroke	i	n/a
54.837	0.075	109674	keystroke	s	n/a
54.927	0.0745	109854	keystroke	t	n/a
55.0915	0.075	110183	keystroke	r	n/a
55.1815	0.105	110363	keystroke	a	n/a
55.4515	0.075	110903	keystroke	t	n/a
55.6015	0.075	111203	keystroke	o	n/a
56.352	0.075	112704	keystroke	r	n/a
56.592	0.15	113184	keystroke	s	n/a
56.727	0.105	113454	keystroke	Key.space	n/a
56.922	0.09	113844	keystroke	a	n/a
57.087	0.075	114174	keystroke	l	n/a
57.252	0.06	114504	keystroke	l	n/a
57.387	0.06	114774	keystroke	o	n/a
57.657	0.075	115314	keystroke	c	n/a
57.852	0.105	115704	keystroke	a	n/a
58.107	0.045	116214	keystroke	t	n/a
58.182	0.075	116364	keystroke	i	n/a
58.5275	0.09	117055	keystroke	o	n/a
58.7675	0.075	117535	keystroke	n	n/a
58.9025	0.105	117805	keystroke	Key.space	n/a
59.802	0.075	119604	keystroke	s	n/a
60.027	0.06	120054	keystroke	p	n/a
60.117	0.06	120234	keystroke	e	n/a
60.387	0.06	120774	keystroke	c	n/a
60.537	0.045	121074	keystroke	s	n/a
61.482	0.06	122964	keystroke	Key.enter	n/a
61.548	6.671	123096	prompt	n/a	sunshine woods mesh samba\n
62.472	0.06	124944	keystroke	s	n/a
62.593	0.059	125186	keystroke	u	n/a
62.757	0.09	125514	keystroke	n	n/a
62.907	0.075	125814	keystroke	s	n/a
63.057	0.075	126114	keystroke	h	n/a
63.222	0.06	126444	keystroke	i	n/a
63.387	0.076	126774	keystroke	n	n/a
63.493	0.104	126986	keystroke	e	n/a
63.582	0.09	127164	keystroke	Key.space	n/a
64.422	0.075	128844	keystroke	w	n/a
64.527	0.06	129054	keystroke	o	n/a
64.677	0.06	129354	keystroke	o	n/a
64.812	0.106	129624	keystroke	d	n/a
65.052	0.1505	130104	keystroke	s	n/a
65.1725	0.105	130345	keystroke	Key.space	n/a
65.3975	0.09	130795	keystroke	m	n/a
65.5025	0.075	131005	keystroke	e	n/a
65.7125	0.075	131425	keystroke	s	n/a
65.9525	0.09	131905	keystroke	h	n/a
66.3425	0.09	132685	keystroke	Key.space	n/a
66.4925	0.12	132985	keystroke	s	n/a
66.6425	0.12	133285	keystroke	a	n/a
66.7775	0.09	133555	keystroke	m	n/a
67.3475	0.06	134695	keystroke	b	n/a
67.4225	0.105	134845	keystroke	a	n/a
68.1575	0.06	136315	keystroke	Key.enter	n/a
68.2225	15.791	136445	prompt	n/a	earl administrators person login\n
69.282	0.045	138564	keystroke	e	n/a
69.493	0.089	138986	keystroke	a	n/a
69.627	0.06	139254	keystroke	r	n/a
70.5565	0.061	141113	keystroke	l	n/a
70.7215	0.075	141443	keystroke	Key.space	n/a
70.9325	0.105	141865	keystroke	a	n/a
71.593	0.075	143186	keystroke	d	n/a
71.712	0.075	143424	keystroke	m	n/a
71.877	0.06	143754	keystroke	i	n/a
72.027	0.075	144054	keystroke	n	n/a
72.162	0.06	144324	keystroke	i	n/a
72.268	0.075	144536	keystroke	s	n/a
72.882	0.0595	145764	keystroke	t	n/a
73.032	0.075	146064	keystroke	r	n/a
73.1365	0.075	146273	keystroke	a	n/a
73.4065	0.06	146813	keystroke	t	n/a
73.5125	0.075	147025	keystroke	o	n/a
73.6465	0.075	147293	keystroke	r	n/a
74.3815	0.061	148763	keystroke	s	n/a
74.6515	0.075	149303	keystroke	Key.space	n/a
79.484	0.001	158968	keystroke	p	n/a
79.542	0.075	159084	keystroke	e	n/a
80.3075	0.06	160615	keystroke	s	n/a
81.3115	0.06	162623	keystroke	Key.backspace	n/a
81.4765	0.061	162953	keystroke	r	n/a
81.7015	0.075	163403	keystroke	s	n/a
81.7775	0.059	163555	keystroke	o	n/a
81.9875	0.059	163975	keystroke	n	n/a
82.0915	0.09	164183	keystroke	Key.space	n/a
82.2125	0.089	164425	keystroke	l	n/a
82.4215	0.06	164843	keystroke	o	n/a
82.9015	0.061	165803	keystroke	g	n/a
82.9765	0.061	165953	keystroke	i	n/a
83.1415	0.09	166283	keystroke	n	n/a
83.9665	0.045	167933	keystroke	Key.enter	n/a
84.0175	11.1715	168035	prompt	n/a	comply hopefully seriously cache\n
84.897	0.06	169794	keystroke	c	n/a
84.987	0.06	169974	keystroke	o	n/a
85.122	0.075	170244	keystroke	m	n/a
85.257	0.09	170514	keystroke	p	n/a
85.482	0.09	170964	keystroke	l	n/a
85.947	0.06	171894	keystroke	y	n/a
86.247	0.12	172494	keystroke	Key.space	n/a
86.637	0.06	173274	keystroke	h	n/a
87.132	0.06	174264	keystroke	o	n/a
87.297	0.075	174594	keystroke	p	n/a
87.357	0.075	174714	keystroke	e	n/a
88.047	0.12	176094	keystroke	f	n/a
88.182	0.06	176364	keystroke	u	n/a
88.752	0.075	177504	keystroke	l	n/a
88.917	0.075	177834	keystroke	l	n/a
89.202	0.06	178404	keystroke	y	n/a
89.892	0.105	179784	keystroke	Key.space	n/a
90.252	0.06	180504	keystroke	s	n/a
90.417	0.045	180834	keystroke	e	n/a
90.567	0.06	181134	keystroke	r	n/a
90.717	0.06	181434	keystroke	i	n/a
91.4075	0.059	182815	keystroke	o	n/a
91.6315	0.075	183263	keystroke	u	n/a
92.3515	0.075	184703	keystroke	s	n/a
92.4565	0.075	184913	keystroke	l	n/a
92.7265	0.075	185453	keystroke	y	n/a
92.8625	0.089	185725	keystroke	Key.space	n/a
93.0875	0.075	186175	keystroke	c	n/a
93.3125	0.09	186625	keystroke	a	n/a
93.5215	0.075	187043	keystroke	c	n/a
93.6125	0.089	187225	keystroke	h	n/a
93.7775	0.089	187555	keystroke	e	n/a
95.1265	0.061	190253	keystroke	Key.enter	n/a
95.194	10.105	190388	prompt	n/a	along albania female prominent\n
96.1625	0.105	192325	keystroke	a	n/a
96.2825	0.09	192565	keystroke	l	n/a
96.4765	0.061	192953	keystroke	o	n/a
96.6425	0.075	193285	keystroke	n	n/a
97.1225	0.044	194245	keystroke	g	n/a
97.2125	0.105	194425	keystroke	Key.space	n/a
97.3775	0.105	194755	keystroke	a	n/a
97.4975	0.06	194995	keystroke	b	n/a
98.2465	0.06	196493	keystroke	Key.backspace	n/a
98.6075	0.059	197215	keystroke	l	n/a
98.8625	0.059	197725	keystroke	b	n/a
98.9525	0.105	197905	keystroke	a	n/a
99.0425	0.09	198085	keystroke	n	n/a
99.2075	0.075	198415	keystroke	i	n/a
99.3265	0.121	198653	keystroke	a	n/a
99.4315	0.09	198863	keystroke	Key.space	n/a
100.2875	0.045	200575	keystroke	f	n/a
100.437	0.075	200874	keystroke	e	n/a
100.872	0.075	201744	keystroke	m	n/a
100.977	0.1055	201954	keystroke	a	n/a
101.1125	0.06	202225	keystroke	l	n/a
101.2325	0.105	202465	keystroke	e	n/a
101.3515	0.09	202703	keystroke	Key.space	n/a
101.6525	0.075	203305	keystroke	o	n/a
101.8325	0.075	203665	keystroke	r	n/a
102.492	0.045	204984	keystroke	Key.backspace	n/a
102.642	0.06	205284	keystroke	Key.backspace	n/a
102.882	0.06	205764	keystroke	p	n/a
103.017	0.075	206034	keystroke	r	n/a
103.452	0.075	206904	keystroke	o	n/a
103.647	0.09	207294	keystroke	m	n/a
103.827	0.06	207654	keystroke	i	n/a
103.962	0.09	207924	keystroke	n	n/a
104.067	0.075	208134	keystroke	e	n/a
104.322	0.015	208644	keystroke	n	n/a
104.397	0.075	208794	keystroke	t	n/a
105.2375	0.059	210475	keystroke	Key.enter	n/a
105.3025	12.0265	210605	prompt	n/a	divide identical infection substitute\n
106.3015	0.045	212603	keystroke	d	n/a
106.4065	0.06	212813	keystroke	i	n/a
106.5715	0.06	213143	keystroke	v	n/a
106.6465	0.06	213293	keystroke	i	n/a
106.8115	0.075	213623	keystroke	s	n/a
107.4265	0.075	214853	keystroke	Key.backspace	n/a
107.5165	0.075	215033	keystroke	d	n/a
107.6965	0.12	215393	keystroke	e	n/a
107.7865	0.09	215573	keystroke	Key.space	n/a
108.7915	0.045	217583	keystroke	i	n/a
109.0915	0.06	218183	keystroke	d	n/a
109.2415	0.075	218483	keystroke	e	n/a
109.3475	0.089	218695	keystroke	n	n/a
109.4965	0.075	218993	keystroke	t	n/a
109.6325	0.075	219265	keystroke	i	n/a
109.7665	0.091	219533	keystroke	c	n/a
109.9765	0.075	219953	keystroke	a	n/a
110.0825	0.059	220165	keystroke	l	n/a
110.2165	0.0905	220433	keystroke	Key.space	n/a
110.937	0.06	221874	keystroke	i	n/a
111.072	0.09	222144	keystroke	n	n/a
111.312	0.06	222624	keystroke	f	n/a
111.402	0.075	222804	keystroke	e	n/a
111.6115	0.075	223223	keystroke	c	n/a
111.8365	0.06	223673	keystroke	t	n/a
111.9415	0.075	223883	keystroke	i	n/a
112.0915	0.075	224183	keystroke	o	n/a
112.2715	0.075	224543	keystroke	n	n/a
112.4215	0.09	224843	keystroke	Key.space	n/a
113.2465	0.045	226493	keystroke	s	n/a
113.3215	0.06	226643	keystroke	u	n/a
113.5015	0.075	227003	keystroke	b	n/a
113.6515	0.09	227303	keystroke	s	n/a
114.8365	0.06	229673	keystroke	t	n/a
114.9265	0.075	229853	keystroke	i	n/a
115.2265	0.06	230453	keystroke	t	n/a
115.3165	0.075	230633	keystroke	u	n/a
115.4365	0.075	230873	keystroke	t	n/a
116.3065	0.045	232613	keystroke	e	n/a
117.252	0.075	234504	keystroke	Key.enter	n/a
117.333	15.7155	234666	prompt	n/a	celebrate approve reasonably theoretical\n
118.632	0.075	237264	keystroke	c	n/a
118.737	0.06	237474	keystroke	e	n/a
118.962	0.06	237924	keystroke	l	n/a
119.1115	0.03	238223	keystroke	e	n/a
119.2165	0.075	238433	keystroke	b	n/a
119.3365	0.075	238673	keystroke	r	n/a
119.5165	0.12	239033	keystroke	a	n/a
119.6665	0.061	239333	keystroke	t	n/a
119.7715	0.12	239543	keystroke	e	n/a
119.8615	0.105	239723	keystroke	Key.space	n/a
120.4325	0.104	240865	keystroke	a	n/a
121.1215	0.075	242243	keystroke	p	n/a
121.2575	0.089	242515	keystroke	r	n/a
122.1265	0.075	244253	keystroke	Key.backspace	n/a
122.7125	0.06	245425	keystroke	p	n/a
122.8015	0.075	245603	keystroke	r	n/a
122.9075	0.0745	245815	keystroke	o	n/a
123.417	0.06	246834	keystroke	v	n/a
123.507	0.135	247014	keystroke	e	n/a
123.597	0.12	247194	keystroke	Key.space	n/a
124.467	0.06	248934	keystroke	r	n/a
124.527	0.075	249054	keystroke	e	n/a
124.707	0.18	249414	keystroke	a	n/a
124.857	0.09	249714	keystroke	s	n/a
125.007	0.06	250014	keystroke	o	n/a
125.922	0.075	251844	keystroke	n	n/a
126.027	0.12	252054	keystroke	a	n/a
126.177	0.09	252354	keystroke	b	n/a
126.387	0.09	252774	keystroke	l	n/a
126.492	0.12	252984	keystroke	e	n/a
127.5865	0.045	255173	keystroke	Key.backspace	n/a
128.007	0.045	256014	keystroke	y	n/a
128.067	0.105	256134	keystroke	Key.space	n/a
128.982	0.06	257964	keystroke	t	n/a
129.1615	0.075	258323	keystroke	h	n/a
129.2515	0.075	258503	keystroke	e	n/a
130.3015	0.075	260603	keystroke	o	n/a
131.142	0.06	262284	keystroke	r	n/a
131.322	0.075	262644	keystroke	e	n/a
131.547	0.06	263094	keystroke	t	n/a
131.667	0.06	263334	keystroke	i	n/a
131.847	0.105	263694	keystroke	c	n/a
132.057	0.09	264114	keystroke	a	n/a
132.327	0.06	264654	keystroke	l	n/a
132.987	0.06	265974	keystroke	Key.enter	n/a
133.0515	11.1275	266103	prompt	n/a	neon maldives hence limousines\n
134.112	0.075	268224	keystroke	n	n/a
134.187	0.06	268374	keystroke	e	n/a
134.292	0.075	268584	keystroke	o	n/a
134.472	0.06	268944	keystroke	n	n/a
134.592	0.105	269184	keystroke	Key.space	n/a
134.772	0.075	269544	keystroke	m	n/a
134.862	0.105	269724	keystroke	a	n/a
135.057	0.075	270114	keystroke	l	n/a
135.702	0.09	271404	keystroke	d	n/a
135.777	0.075	271554	keystroke	i	n/a
135.987	0.075	271974	keystroke	v	n/a
136.077	0.06	272154	keystroke	e	n/a
136.257	0.12	272514	keystroke	s	n/a
136.362	0.09	272724	keystroke	Key.space	n/a
136.782	0.06	273564	keystroke	h	n/a
136.857	0.0755	273714	keystroke	e	n/a
136.9925	0.09	273985	keystroke	n	n/a
137.1725	0.105	274345	keystroke	c	n/a
137.3975	0.12	274795	keystroke	e	n/a
137.5625	0.105	275125	keystroke	Key.space	n/a
139.0625	0.06	278125	keystroke	l	n/a
139.2575	0.06	278515	keystroke	i	n/a
139.4225	0.09	278845	keystroke	m	n/a
139.5875	0.075	279175	keystroke	o	n/a
141.2525	0.075	282505	keystroke	u	n/a
141.3575	0.09	282715	keystroke	s	n/a
141.4625	0.06	282925	keystroke	i	n/a
141.642	0.075	283284	keystroke	n	n/a
141.702	0.0755	283404	keystroke	e	n/a
141.882	0.12	283764	keystroke	s	n/a
142.017	0.09	284034	keystroke	Key.space	n/a
143.232	0.06	286464	keystroke	Key.backspace	n/a
144.132	0.045	288264	keystroke	Key.enter	n/a
144.1825	8.501	288365	prompt	n/a	pairs merely jordan rocket\n
145.197	0.075	290394	keystroke	p	n/a
145.302	0.12	290604	keystroke	a	n/a
145.407	0.075	290814	keystroke	i	n/a
145.557	0.09	291114	keystroke	r	n/a
145.812	0.12	291624	keystroke	s	n/a
145.917	0.105	291834	keystroke	Key.space	n/a
146.397	0.075	292794	keystroke	m	n/a
146.442	0.075	292884	keystroke	e	n/a
146.607	0.075	293214	keystroke	r	n/a
146.757	0.105	293514	keystroke	e	n/a
146.862	0.09	293724	keystroke	l	n/a
147.102	0.09	294204	keystroke	y	n/a
147.237	0.105	294474	keystroke	Key.space	n/a
148.077	0.075	296154	keystroke	j	n/a
148.197	0.075	296394	keystroke	o	n/a
148.287	0.06	296574	keystroke	r	n/a
148.482	0.075	296964	keystroke	d	n/a
148.587	0.12	297174	keystroke	a	n/a
148.692	0.09	297384	keystroke	n	n/a
148.872	0.09	297744	keystroke	Key.space	n/a
149.172	0.075	298344	keystroke	r	n/a
149.262	0.09	298524	keystroke	o	n/a
149.412	0.09	298824	keystroke	c	n/a
149.622	0.075	299244	keystroke	k	n/a
149.757	0.06	299514	keystroke	e	n/a
150.237	0.06	300474	keystroke	t	n/a
150.432	0.075	300864	keystroke	s	n/a
151.8865	0.06	303773	keystroke	Key.backspace	n/a
152.6365	0.045	305273	keystroke	Key.enter	n/a
152.6865	15.9125	305373	prompt	n/a	french contributed paying fifth\n
154.4815	0.06	308963	keystroke	f	n/a
154.7215	0.015	309443	keystroke	r	n/a
154.7815	0.105	309563	keystroke	e	n/a
154.9465	0.09	309893	keystroke	n	n/a
155.0815	0.075	310163	keystroke	c	n/a
155.2775	0.059	310555	keystroke	h	n/a
155.7865	0.105	311573	keystroke	Key.space	n/a
156.0415	0.061	312083	keystroke	c	n/a
156.1165	0.061	312233	keystroke	o	n/a
156.2665	0.09	312533	keystroke	n	n/a
156.3715	0.076	312743	keystroke	t	n/a
156.5065	0.06	313013	keystroke	i	n/a
156.8365	0.06	313673	keystroke	Key.backspace	n/a
156.8815	0.076	313763	keystroke	r	n/a
157.4525	0.059	314905	keystroke	i	n/a
157.6775	0.059	315355	keystroke	b	n/a
157.8115	0.075	315623	keystroke	u	n/a
158.0065	0.06	316013	keystroke	t	n/a
158.0965	0.09	316193	keystroke	e	n/a
158.2915	0.12	316583	keystroke	d	n/a
158.3965	0.09	316793	keystroke	Key.space	n/a
158.997	0.06	317994	keystroke	p	n/a
159.087	0.09	318174	keystroke	a	n/a
159.387	0.06	318774	keystroke	y	n/a
159.552	0.075	319104	keystroke	i	n/a
159.717	0.075	319434	keystroke	n	n/a
159.837	0.075	319674	keystroke	g	n/a
160.227	0.12	320454	keystroke	Key.space	n/a
160.827	0.06	321654	keystroke	f	n/a
160.902	0.09	321804	keystroke	i	n/a
161.472	0.06	322944	keystroke	f	n/a
161.562	0.06	323124	keystroke	h	n/a
161.667	0.075	323334	keystroke	t	n/a
163.512	0.09	327024	keystroke	Key.backspace	n/a
163.917	0.135	327834	keystroke	Key.backspace	n/a
167.669	0.001	335338	keystroke	t	n/a
167.67	0.057	335340	keystroke	h	n/a
168.537	0.06	337074	keystroke	Key.enter	n/a
168.603	8.891	337206	prompt	n/a	rehab garbage frog beatles\n
169.7825	0.045	339565	keystroke	r	n/a
169.8875	0.06	339775	keystroke	e	n/a
170.0375	0.06	340075	keystroke	h	n/a
170.1425	0.09	340285	keystroke	a	n/a
170.3675	0.06	340735	keystroke	b	n/a
170.5325	0.09	341065	keystroke	Key.space	n/a
171.1025	0.06	342205	keystroke	g	n/a
171.1925	0.105	342385	keystroke	a	n/a
171.4175	0.06	342835	keystroke	r	n/a
171.5075	0.09	343015	keystroke	b	n/a
171.6425	0.15	343285	keystroke	a	n/a
171.9125	0.06	343825	keystroke	b	n/a
172.6625	0.06	345325	keystroke	Key.backspace	n/a
173.248	0.029	346496	keystroke	g	n/a
173.323	0.134	346646	keystroke	e	n/a
173.442	0.12	346884	keystroke	Key.space	n/a
174.5075	0.06	349015	keystroke	f	n/a
174.6575	0.075	349315	keystroke	r	n/a
174.7475	0.105	349495	keystroke	o	n/a
175.1675	0.075	350335	keystroke	g	n/a
175.2725	0.09	350545	keystroke	Key.space	n/a
176.0675	0.06	352135	keystroke	b	n/a
176.1425	0.06	352285	keystroke	e	n/a
176.3525	0.12	352705	keystroke	a	n/a
176.4875	0.06	352975	keystroke	t	n/a
176.9825	0.075	353965	keystroke	l	n/a
177.0575	0.09	354115	keystroke	e	n/a
177.2525	0.09	354505	keystroke	s	n/a
177.4175	0.075	354835	keystroke	Key.enter	n/a
177.4985	12.175	354997	prompt	n/a	belly column continuity berkeley\n
178.647	0.075	357294	keystroke	b	n/a
178.782	0.06	357564	keystroke	e	n/a
179.082	0.06	358164	keystroke	l	n/a
179.217	0.075	358434	keystroke	l	n/a
179.473	0.075	358946	keystroke	y	n/a
179.577	0.09	359154	keystroke	Key.space	n/a
179.757	0.06	359514	keystroke	c	n/a
179.847	0.075	359694	keystroke	o	n/a
180.042	0.09	360084	keystroke	l	n/a
180.327	0.075	360654	keystroke	u	n/a
180.582	0.09	361164	keystroke	m	n/a
180.792	0.06	361584	keystroke	n	n/a
180.9265	0.105	361853	keystroke	Key.space	n/a
181.4065	0.091	362813	keystroke	c	n/a
181.4665	0.075	362933	keystroke	o	n/a
181.6315	0.09	363263	keystroke	n	n/a
181.7665	0.045	363533	keystroke	t	n/a
181.7815	0.015	363563	keystroke	r	n/a
181.8715	0.076	363743	keystroke	i	n/a
182.3965	0.06	364793	keystroke	Key.backspace	n/a
182.5475	0.059	365095	keystroke	Key.backspace	n/a
183.132	0.12	366264	keystroke	i	n/a
183.417	0.075	366834	keystroke	n	n/a
183.612	0.06	367224	keystroke	u	n/a
185.037	0.075	370074	keystroke	i	n/a
185.172	0.075	370344	keystroke	t	n/a
185.532	0.075	371064	keystroke	y	n/a
185.742	0.105	371484	keystroke	Key.space	n/a
187.212	0.06	374424	keystroke	b	n/a
187.287	0.06	374574	keystroke	e	n/a
187.437	0.075	374874	keystroke	r	n/a
187.767	0.06	375534	keystroke	k	n/a
187.842	0.06	375684	keystroke	e	n/a
187.9475	0.06	375895	keystroke	l	n/a
188.0675	0.075	376135	keystroke	e	n/a
188.2175	0.015	376435	keystroke	u	n/a
188.2175	0.075	376435	keystroke	y	n/a
189.342	0.06	378684	keystroke	Key.backspace	n/a
189.612	0.06	379224	keystroke	Key.enter	n/a
189.677	8.0815	379354	prompt	n/a	lamp cleared config doors\n
190.857	0.06	381714	keystroke	l	n/a
190.977	0.09	381954	keystroke	a	n/a
191.052	0.075	382104	keystroke	m	n/a
191.232	0.06	382464	keystroke	p	n/a
191.412	0.135	382824	keystroke	Key.space	n/a
191.817	0.0745	383634	keystroke	c	n/a
191.9215	0.09	383843	keystroke	l	n/a
192.1165	0.075	384233	keystroke	e	n/a
192.5515	0.105	385103	keystroke	a	n/a
192.7465	0.075	385493	keystroke	r	n/a
192.897	0.075	385794	keystroke	e	n/a
193.092	0.12	386184	keystroke	d	n/a
193.226	0.076	386452	keystroke	Key.space	n/a
193.602	0.09	387204	keystroke	c	n/a
193.677	0.075	387354	keystroke	o	n/a
193.857	0.09	387714	keystroke	n	n/a
194.292	0.075	388584	keystroke	f	n/a
194.397	0.075	388794	keystroke	i	n/a
194.547	0.09	389094	keystroke	g	n/a
194.681	0.091	389362	keystroke	Key.space	n/a
195.807	0.075	391614	keystroke	d	n/a
195.912	0.09	391824	keystroke	o	n/a
196.197	0.075	392394	keystroke	o	n/a
196.347	0.09	392694	keystroke	r	n/a
196.722	0.105	393444	keystroke	s	n/a
197.697	0.06	395394	keystroke	Key.enter	n/a
197.7615	13.6475	395523	prompt	n/a	norton convenience dump photographic\n
198.972	0.03	397944	keystroke	n	n/a
199.062	0.105	398124	keystroke	o	n/a
199.152	0.075	398304	keystroke	r	n/a
199.332	0.075	398664	keystroke	t	n/a
199.467	0.075	398934	keystroke	o	n/a
199.602	0.104	399204	keystroke	n	n/a
200.322	0.104	400644	keystroke	Key.space	n/a
200.562	0.09	401124	keystroke	c	n/a
200.622	0.09	401244	keystroke	o	n/a
200.772	0.09	401544	keystroke	n	n/a
201.162	0.03	402324	keystroke	b	n/a
201.252	0.075	402504	keystroke	e	n/a
201.552	0.06	403104	keystroke	Key.backspace	n/a
201.717	0.075	403434	keystroke	Key.backspace	n/a
202.317	0.06	404634	keystroke	v	n/a
202.422	0.045	404844	keystroke	e	n/a
202.632	0.075	405264	keystroke	n	n/a
202.812	0.075	405624	keystroke	i	n/a
202.977	0.0895	405954	keystroke	e	n/a
203.0515	0.105	406103	keystroke	n	n/a
203.7565	0.03	407513	keystroke	c	n/a
203.8015	0.15	407603	keystroke	e	n/a
203.9215	0.09	407843	keystroke	Key.space	n/a
204.987	0.075	409974	keystroke	d	n/a
205.077	0.075	410154	keystroke	u	n/a
205.2865	0.09	410573	keystroke	m	n/a
205.4515	0.091	410903	keystroke	p	n/a
205.6165	0.105	411233	keystroke	Key.space	n/a
206.7125	0.059	413425	keystroke	p	n/a
206.9375	0.075	413875	keystroke	h	n/a
207.1175	0.089	414235	keystroke	o	n/a
207.2365	0.076	414473	keystroke	t	n/a
207.3265	0.075	414653	keystroke	o	n/a
208.0925	0.09	416185	keystroke	g	n/a
208.2875	0.059	416575	keystroke	r	n/a
208.3925	0.089	416785	keystroke	a	n/a
208.9015	0.061	417803	keystroke	p	n/a
209.1575	0.09	418315	keystroke	h	n/a
209.3075	0.075	418615	keystroke	i	n/a
209.4565	0.075	418913	keystroke	c	n/a
211.3625	0.044	422725	keystroke	Key.enter	n/a
211.412	10.016	422824	prompt	n/a	level mysql tower more\n
212.8775	0.06	425755	keystroke	l	n/a
213.0275	0.075	426055	keystroke	e	n/a
213.1775	0.09	426355	keystroke	v	n/a
213.2825	0.075	426565	keystroke	e	n/a
213.4175	0.075	426835	keystroke	l	n/a
213.5375	0.105	427075	keystroke	s	n/a
213.6265	0.091	427253	keystroke	Key.space	n/a
213.8075	0.09	427615	keystroke	m	n/a
214.7075	0.075	429415	keystroke	y	n/a
214.7975	0.09	429595	keystroke	s	n/a
215.0975	0.089	430195	keystroke	q	n/a
215.3975	0.09	430795	keystroke	l	n/a
215.5325	0.105	431065	keystroke	Key.space	n/a
216.4775	0.045	432955	keystroke	t	n/a
216.5525	0.0895	433105	keystroke	o	n/a
216.867	0.075	433734	keystroke	w	n/a
217.047	0.075	434094	keystroke	e	n/a
217.257	0.15	434514	keystroke	r	n/a
217.422	0.09	434844	keystroke	Key.space	n/a
218.307	0.06	436614	keystroke	m	n/a
218.472	0.075	436944	keystroke	o	n/a
218.622	0.165	437244	keystroke	r	n/a
218.742	0.105	437484	keystroke	e	n/a
221.4145	0.012	442829	keystroke	Key.enter	n/a
221.4335	13.4805	442867	prompt	n/a	missed citizenship girlfriend salon\n
222.4175	0.059	444835	keystroke	m	n/a
222.6115	0.06	445223	keystroke	i	n/a
222.7165	0.076	445433	keystroke	d	n/a
223.0465	0.075	446093	keystroke	Key.backspace	n/a
223.1525	0.089	446305	keystroke	s	n/a
223.3315	0.06	446663	keystroke	s	n/a
223.5115	0.09	447023	keystroke	e	n/a
223.6765	0.12	447353	keystroke	d	n/a
223.7815	0.105	447563	keystroke	Key.space	n/a
224.5015	0.06	449003	keystroke	c	n/a
224.5765	0.091	449153	keystroke	i	n/a
224.8765	0.061	449753	keystroke	t	n/a
224.9675	0.089	449935	keystroke	i	n/a
225.1625	0.074	450325	keystroke	n	n/a
225.5365	0.06	451073	keystroke	Key.backspace	n/a
226.6625	0.044	453325	keystroke	x	n/a
226.9315	0.075	453863	keystroke	Key.backspace	n/a
227.0365	0.09	454073	keystroke	z	n/a
227.3075	0.074	454615	keystroke	e	n/a
227.4715	0.0605	454943	keystroke	n	n/a
228.432	0.075	456864	keystroke	s	n/a
228.492	0.089	456984	keystroke	h	n/a
228.627	0.0895	457254	keystroke	i	n/a
228.852	0.075	457704	keystroke	p	n/a
229.002	0.105	458004	keystroke	Key.space	n/a
229.9615	0.075	459923	keystroke	f	n/a
230.2765	0.09	460553	keystroke	Key.backspace	n/a
230.4715	0.075	460943	keystroke	g	n/a
230.5915	0.09	461183	keystroke	i	n/a
230.7565	0.06	461513	keystroke	r	n/a
232.1215	0.06	464243	keystroke	l	n/a
232.3165	0.075	464633	keystroke	f	n/a
232.5565	0.075	465113	keystroke	r	n/a
232.6765	0.075	465353	keystroke	i	n/a
232.7965	0.0605	465593	keystroke	e	n/a
232.902	0.06	465804	keystroke	n	n/a
232.992	0.12	465984	keystroke	d	n/a
233.127	0.09	466254	keystroke	Key.space	n/a
233.5615	0.12	467123	keystroke	s	n/a
233.6515	0.15	467303	keystroke	a	n/a
233.7415	0.091	467483	keystroke	l	n/a
233.9965	0.075	467993	keystroke	o	n/a
234.1615	0.075	468323	keystroke	n	n/a
234.8665	0.045	469733	keystroke	Key.enter	n/a
234.917	14.22	469834	prompt	n/a	fairy eric paris ship\n
240.4045	0.012	480809	keystroke	f	n/a
240.4315	0.106	480863	keystroke	a	n/a
240.6875	0.075	481375	keystroke	i	n/a
240.8065	0.075	481613	keystroke	r	n/a
240.9715	0.091	481943	keystroke	y	n/a
241.1065	0.09	482213	keystroke	Key.space	n/a
241.3165	0.09	482633	keystroke	e	n/a
241.4375	0.089	482875	keystroke	p	n/a
241.8865	0.075	483773	keystroke	Key.backspace	n/a
242.7125	0.059	485425	keystroke	r	n/a
242.8015	0.076	485603	keystroke	i	n/a
242.9525	0.119	485905	keystroke	c	n/a
243.0725	0.089	486145	keystroke	Key.space	n/a
244.4975	0.0595	488995	keystroke	p	n/a
244.587	0.09	489174	keystroke	a	n/a
244.812	0.06	489624	keystroke	r	n/a
244.917	0.075	489834	keystroke	i	n/a
245.067	0.1345	490134	keystroke	s	n/a
245.187	0.1045	490374	keystroke	Key.space	n/a
245.3375	0.104	490675	keystroke	s	n/a
245.4565	0.09	490913	keystroke	h	n/a
245.6515	0.075	491303	keystroke	i	n/a
245.9515	0.061	491903	keystroke	p	n/a
249.134	0.001	498268	keystroke	Key.enter	n/a
249.14	11.364	498280	prompt	n/a	sans workflow us impacts\n
250.632	0.09	501264	keystroke	s	n/a
250.767	0.075	501534	keystroke	n	n/a
250.857	0.09	501714	keystroke	a	n/a
251.052	0.105	502104	keystroke	s	n/a
251.292	0.06	502584	keystroke	Key.space	n/a
252.072	0.0595	504144	keystroke	Key.backspace	n/a
252.2365	0.075	504473	keystroke	Key.backspace	n/a
252.4465	0.075	504893	keystroke	Key.backspace	n/a
252.7165	0.045	505433	keystroke	Key.backspace	n/a
252.9265	0.09	505853	keystroke	a	n/a
253.1215	0.0755	506243	keystroke	n	n/a
253.2415	0.0905	506483	keystroke	s	n/a
253.5265	0.075	507053	keystroke	Key.space	n/a
254.2915	0.075	508583	keystroke	w	n/a
254.3965	0.12	508793	keystroke	o	n/a
254.5465	0.075	509093	keystroke	r	n/a
254.9215	0.075	509843	keystroke	k	n/a
255.7315	0.075	511463	keystroke	f	n/a
255.8215	0.075	511643	keystroke	l	n/a
256.0165	0.06	512033	keystroke	o	n/a
256.1065	0.09	512213	keystroke	w	n/a
256.3915	0.09	512783	keystroke	Key.space	n/a
257.0065	0.075	514013	keystroke	u	n/a
257.0965	0.12	514193	keystroke	s	n/a
257.2015	0.105	514403	keystroke	Key.space	n/a
257.3965	0.075	514793	keystroke	i	n/a
257.5765	0.09	515153	keystroke	m	n/a
257.7415	0.09	515483	keystroke	p	n/a
257.8765	0.106	515753	keystroke	a	n/a
258.3265	0.075	516653	keystroke	c	n/a
258.4765	0.075	516953	keystroke	t	n/a
258.5825	0.105	517165	keystroke	s	n/a
258.7615	0.075	517523	keystroke	Key.space	n/a
260.1875	0.075	520375	keystroke	Key.backspace	n/a
260.4425	0.06	520885	keystroke	Key.enter	n/a
260.507	13.2415	521014	prompt	n/a	banners states conventional potatoes\n
261.8375	0.06	523675	keystroke	b	n/a
261.9425	0.12	523885	keystroke	a	n/a
262.0475	0.06	524095	keystroke	n	n/a
262.1975	0.075	524395	keystroke	n	n/a
262.3625	0.09	524725	keystroke	e	n/a
262.5575	0.09	525115	keystroke	r	n/a
262.902	0.1505	525804	keystroke	s	n/a
263.1125	0.045	526225	keystroke	Key.space	n/a
263.3975	0.09	526795	keystroke	s	n/a
263.4725	0.12	526945	keystroke	a	n/a
264.4325	0.06	528865	keystroke	Key.backspace	n/a
264.7325	0.06	529465	keystroke	t	n/a
264.8075	0.09	529615	keystroke	a	n/a
266.157	0.06	532314	keystroke	t	n/a
266.262	0.075	532524	keystroke	e	n/a
266.472	0.09	532944	keystroke	s	n/a
266.697	0.09	533394	keystroke	Key.space	n/a
267.402	0.075	534804	keystroke	c	n/a
267.462	0.075	534924	keystroke	o	n/a
267.642	0.075	535284	keystroke	n	n/a
267.912	0.06	535824	keystroke	v	n/a
268.002	0.075	536004	keystroke	e	n/a
268.122	0.12	536244	keystroke	n	n/a
268.287	0.075	536574	keystroke	t	n/a
268.377	0.075	536754	keystroke	i	n/a
268.557	0.075	537114	keystroke	o	n/a
268.737	0.09	537474	keystroke	n	n/a
270.447	0.09	540894	keystroke	a	n/a
270.552	0.06	541104	keystroke	l	n/a
270.717	0.075	541434	keystroke	Key.space	n/a
271.212	0.06	542424	keystroke	p	n/a
271.332	0.09	542664	keystroke	o	n/a
271.692	0.045	543384	keystroke	t	n/a
271.797	0.12	543594	keystroke	a	n/a
271.857	0.075	543714	keystroke	t	n/a
272.127	0.06	544254	keystroke	o	n/a
272.247	0.075	544494	keystroke	e	n/a
272.457	0.105	544914	keystroke	s	n/a
272.577	0.06	545154	keystroke	Key.space	n/a
273.432	0.06	546864	keystroke	Key.backspace	n/a
273.672	0.075	547344	keystroke	Key.enter	n/a
273.7515	18.237	547503	prompt	n/a	dating yugoslavia banned cingular\n
275.337	0.06	550674	keystroke	d	n/a
275.412	0.09	550824	keystroke	a	n/a
275.907	0.075	551814	keystroke	t	n/a
275.997	0.075	551994	keystroke	i	n/a
276.177	0.075	552354	keystroke	n	n/a
276.282	0.12	552564	keystroke	g	n/a
276.387	0.09	552774	keystroke	Key.space	n/a
277.4365	0.061	554873	keystroke	y	n/a
277.6015	0.076	555203	keystroke	u	n/a
278.3365	0.075	556673	keystroke	g	n/a
278.4715	0.09	556943	keystroke	o	n/a
278.8325	0.1045	557665	keystroke	s	n/a
279.882	0.075	559764	keystroke	l	n/a
280.002	0.105	560004	keystroke	a	n/a
280.827	0.09	561654	keystroke	v	n/a
281.052	0.09	562104	keystroke	i	n/a
281.202	0.105	562404	keystroke	a	n/a
281.337	0.105	562674	keystroke	Key.space	n/a
284.67	0.012	569340	keystroke	b	n/a
285.1025	0.105	570205	keystroke	a	n/a
285.2675	0.075	570535	keystroke	n	n/a
285.4175	0.09	570835	keystroke	e	n/a
285.5675	0.09	571135	keystroke	e	n/a
285.7925	0.135	571585	keystroke	d	n/a
285.9125	0.105	571825	keystroke	Key.space	n/a
287.1275	0.06	574255	keystroke	Key.backspace	n/a
287.2775	0.075	574555	keystroke	Key.backspace	n/a
287.6825	0.075	575365	keystroke	Key.backspace	n/a
288.0575	0.06	576115	keystroke	Key.backspace	n/a
288.687	0.0755	577374	keystroke	n	n/a
288.7775	0.045	577555	keystroke	e	n/a
288.9875	0.1045	577975	keystroke	d	n/a
289.0625	0.1195	578125	keystroke	Key.space	n/a
289.737	0.06	579474	keystroke	c	n/a
289.8875	0.06	579775	keystroke	i	n/a
290.0225	0.105	580045	keystroke	n	n/a
290.1875	0.06	580375	keystroke	g	n/a
290.3075	0.075	580615	keystroke	u	n/a
290.5325	0.0895	581065	keystroke	l	n/a
290.637	0.0905	581274	keystroke	a	n/a
290.8475	0.06	581695	keystroke	r	n/a
291.942	0.045	583884	keystroke	Key.enter	n/a
291.9915	7.7825	583983	prompt	n/a	hometown crest fort completed\n
293.082	0.06	586164	keystroke	h	n/a
293.232	0.075	586464	keystroke	o	n/a
293.397	0.09	586794	keystroke	m	n/a
293.502	0.06	587004	keystroke	e	n/a
293.712	0.045	587424	keystroke	t	n/a
293.787	0.075	587574	keystroke	o	n/a
294.028	0.059	588056	keystroke	w	n/a
294.222	0.075	588444	keystroke	n	n/a
294.387	0.075	588774	keystroke	Key.space	n/a
295.317	0.075	590634	keystroke	c	n/a
295.467	0.105	590934	keystroke	r	n/a
295.587	0.075	591174	keystroke	e	n/a
295.797	0.075	591594	keystroke	s	n/a
295.903	0.075	591806	keystroke	t	n/a
296.067	0.105	592134	keystroke	Key.space	n/a
296.607	0.09	593214	keystroke	f	n/a
296.712	0.075	593424	keystroke	o	n/a
296.817	0.09	593634	keystroke	r	n/a
297.012	0.075	594024	keystroke	t	n/a
297.867	0.06	595734	keystroke	Key.space	n/a
298.032	0.09	596064	keystroke	c	n/a
298.107	0.09	596214	keystroke	o	n/a
298.242	0.105	596484	keystroke	m	n/a
298.452	0.075	596904	keystroke	p	n/a
298.587	0.075	597174	keystroke	l	n/a
298.677	0.06	597354	keystroke	e	n/a
299.127	0.06	598254	keystroke	t	n/a
299.187	0.075	598374	keystroke	e	n/a
299.352	0.076	598704	keystroke	d	n/a
299.712	0.06	599424	keystroke	Key.enter	n/a
299.7785	11.2455	599557	prompt	n/a	leslie extraction floors breach\n
301.2425	0.06	602485	keystroke	l	n/a
301.3625	0.075	602725	keystroke	e	n/a
301.5575	0.075	603115	keystroke	s	n/a
301.8275	0.09	603655	keystroke	l	n/a
302.0375	0.06	604075	keystroke	i	n/a
302.1275	0.075	604255	keystroke	e	n/a
302.8325	0.135	605665	keystroke	Key.space	n/a
303.3725	0.06	606745	keystroke	e	n/a
303.5675	0.09	607135	keystroke	x	n/a
303.6725	0.06	607345	keystroke	t	n/a
303.8225	0.06	607645	keystroke	r	n/a
303.9275	0.09	607855	keystroke	a	n/a
304.6325	0.075	609265	keystroke	c	n/a
304.9925	0.074	609985	keystroke	t	n/a
305.0375	0.09	610075	keystroke	i	n/a
305.1725	0.089	610345	keystroke	o	n/a
305.3665	0.09	610733	keystroke	n	n/a
305.5165	0.075	611033	keystroke	Key.space	n/a
306.1175	0.12	612235	keystroke	f	n/a
306.1925	0.089	612385	keystroke	l	n/a
306.4325	0.075	612865	keystroke	o	n/a
306.5815	0.076	613163	keystroke	o	n/a
306.7025	0.075	613405	keystroke	r	n/a
306.9865	0.121	613973	keystroke	s	n/a
307.1075	0.074	614215	keystroke	Key.space	n/a
307.9465	0.06	615893	keystroke	b	n/a
308.0525	0.075	616105	keystroke	r	n/a
308.2025	0.089	616405	keystroke	e	n/a
308.6525	0.045	617305	keystroke	a	n/a
308.8475	0.075	617695	keystroke	h	n/a
309.5365	0.075	619073	keystroke	Key.backspace	n/a
309.672	0.0755	619344	keystroke	c	n/a
309.7925	0.075	619585	keystroke	h	n/a
310.9625	0.06	621925	keystroke	Key.enter	n/a
311.027	10.917	622054	prompt	n/a	wireless revised let's tracy\n
312.0125	0.06	624025	keystroke	w	n/a
312.0875	0.075	624175	keystroke	i	n/a
312.6275	0.105	625255	keystroke	r	n/a
312.7775	0.075	625555	keystroke	e	n/a
313.4375	0.075	626875	keystroke	l	n/a
313.5275	0.105	627055	keystroke	e	n/a
313.7825	0.075	627565	keystroke	s	n/a
313.9625	0.09	627925	keystroke	s	n/a
314.0375	0.105	628075	keystroke	Key.space	n/a
314.8625	0.075	629725	keystroke	r	n/a
314.9825	0.09	629965	keystroke	e	n/a
315.3275	0.06	630655	keystroke	v	n/a
315.4175	0.075	630835	keystroke	i	n/a
315.5675	0.105	631135	keystroke	s	n/a
315.792	0.075	631584	keystroke	e	n/a
315.987	0.09	631974	keystroke	d	n/a
316.152	0.12	632304	keystroke	Key.space	n/a
316.482	0.09	632964	keystroke	l	n/a
316.587	0.105	633174	keystroke	e	n/a
317.052	0.045	634104	keystroke	t	n/a
318.732	0.015	637464	keystroke	'	n/a
318.792	0.045	637584	keystroke	s	n/a
320.037	0.105	640074	keystroke	Key.space	n/a
320.427	0.06	640854	keystroke	t	n/a
320.562	0.09	641124	keystroke	r	n/a
320.667	0.0895	641334	keystroke	a	n/a
320.8615	0.075	641723	keystroke	c	n/a
321.0275	0.089	642055	keystroke	y	n/a
321.897	0.045	643794	keystroke	Key.enter	n/a
321.947	15.7175	643894	prompt	n/a	touch participated what're continued\n
322.917	0.0595	645834	keystroke	t	n/a
323.0065	0.091	646013	keystroke	o	n/a
323.2025	0.075	646405	keystroke	u	n/a
323.5475	0.044	647095	keystroke	c	n/a
323.6215	0.09	647243	keystroke	h	n/a
323.7565	0.09	647513	keystroke	Key.space	n/a
324.852	0.045	649704	keystroke	p	n/a
324.972	0.105	649944	keystroke	a	n/a
325.242	0.075	650484	keystroke	r	n/a
325.9165	0.075	651833	keystroke	t	n/a
326.0525	0.089	652105	keystroke	i	n/a
326.1565	0.09	652313	keystroke	c	n/a
326.2915	0.045	652583	keystroke	i	n/a
326.7565	0.09	653513	keystroke	p	n/a
326.862	0.1195	653724	keystroke	a	n/a
327.342	0.06	654684	keystroke	t	n/a
327.432	0.075	654864	keystroke	e	n/a
327.627	0.12	655254	keystroke	d	n/a
328.407	0.12	656814	keystroke	Key.space	n/a
331.1395	0.001	662279	keystroke	w	n/a
331.1525	0.075	662305	keystroke	h	n/a
331.2875	0.105	662575	keystroke	a	n/a
331.4225	0.075	662845	keystroke	t	n/a
333.447	0.045	666894	keystroke	'	n/a
334.647	0.105	669294	keystroke	r	n/a
334.797	0.105	669594	keystroke	e	n/a
334.887	0.105	669774	keystroke	Key.space	n/a
335.1425	0.075	670285	keystroke	c	n/a
335.2325	0.06	670465	keystroke	o	n/a
335.3825	0.0895	670765	keystroke	n	n/a
335.937	0.06	671874	keystroke	t	n/a
336.372	0.06	672744	keystroke	i	n/a
336.522	0.09	673044	keystroke	n	n/a
336.687	0.09	673374	keystroke	u	n/a
336.747	0.075	673494	keystroke	e	n/a
336.897	0.105	673794	keystroke	d	n/a
337.587	0.075	675174	keystroke	Key.enter	n/a
337.669	17.1845	675338	prompt	n/a	deutsche thesaurus jewellery depth\n
338.832	0.09	677664	keystroke	d	n/a
338.937	0.06	677874	keystroke	e	n/a
339.342	0.06	678684	keystroke	u	n/a
339.507	0.06	679014	keystroke	t	n/a
340.3925	0.0745	680785	keystroke	s	n/a
340.587	0.0745	681174	keystroke	c	n/a
340.6765	0.075	681353	keystroke	h	n/a
340.8725	0.0595	681745	keystroke	e	n/a
341.0815	0.105	682163	keystroke	Key.space	n/a
341.9515	0.0605	683903	keystroke	t	n/a
342.162	0.06	684324	keystroke	h	n/a
342.252	0.06	684504	keystroke	e	n/a
342.702	0.09	685404	keystroke	a	n/a
343.197	0.075	686394	keystroke	Key.backspace	n/a
343.287	0.12	686574	keystroke	s	n/a
343.392	0.12	686784	keystroke	a	n/a
343.617	0.075	687234	keystroke	u	n/a
344.817	0.06	689634	keystroke	r	n/a
344.922	0.09	689844	keystroke	u	n/a
345.087	0.135	690174	keystroke	s	n/a
345.207	0.075	690414	keystroke	Key.space	n/a
346.302	0.075	692604	keystroke	j	n/a
346.392	0.06	692784	keystroke	e	n/a
347.022	0.075	694044	keystroke	w	n/a
347.217	0.06	694434	keystroke	e	n/a
347.337	0.09	694674	keystroke	l	n/a
350.0525	0.06	700105	keystroke	l	n/a
350.1875	0.09	700375	keystroke	e	n/a
350.3225	0.075	700645	keystroke	r	n/a
350.4725	0.075	700945	keystroke	y	n/a
350.6075	0.09	701215	keystroke	Key.space	n/a
351.2225	0.075	702445	keystroke	d	n/a
351.4025	0.075	702805	keystroke	e	n/a
351.5525	0.09	703105	keystroke	p	n/a
351.7325	0.06	703465	keystroke	t	n/a
351.8525	0.075	703705	keystroke	h	n/a
354.7925	0.06	709585	keystroke	Key.enter	n/a
354.8585	7.4805	709717	prompt	n/a	by eliminate potter swim\n
356.0375	0.075	712075	keystroke	b	n/a
356.2475	0.045	712495	keystroke	y	n/a
356.3225	0.105	712645	keystroke	Key.space	n/a
356.5925	0.09	713185	keystroke	e	n/a
356.6975	0.075	713395	keystroke	l	n/a
356.8925	0.075	713785	keystroke	i	n/a
357.0725	0.105	714145	keystroke	m	n/a
357.2525	0.06	714505	keystroke	i	n/a
357.3875	0.105	714775	keystroke	n	n/a
357.6275	0.105	715255	keystroke	a	n/a
357.8225	0.075	715645	keystroke	t	n/a
357.9275	0.135	715855	keystroke	e	n/a
358.0475	0.105	716095	keystroke	Key.space	n/a
358.8575	0.075	717715	keystroke	p	n/a
359.0075	0.0445	718015	keystroke	o	n/a
359.337	0.045	718674	keystroke	t	n/a
359.457	0.075	718914	keystroke	t	n/a
359.532	0.075	719064	keystroke	e	n/a
359.7125	0.1195	719425	keystroke	r	n/a
359.817	0.105	719634	keystroke	Key.space	n/a
360.4025	0.0895	720805	keystroke	s	n/a
360.597	0.075	721194	keystroke	w	n/a
360.762	0.09	721524	keystroke	i	n/a
360.972	0.09	721944	keystroke	m	n/a
362.247	0.09	724494	keystroke	Key.enter	n/a
362.342	9.252	724684	prompt	n/a	platforms penn twins fathers\n
363.252	0.06	726504	keystroke	p	n/a
363.402	0.09	726804	keystroke	l	n/a
363.868	0.089	727736	keystroke	a	n/a
363.973	0.059	727946	keystroke	t	n/a
364.2865	0.0755	728573	keystroke	f	n/a
364.407	0.1045	728814	keystroke	o	n/a
364.5425	0.059	729085	keystroke	r	n/a
365.2765	0.06	730553	keystroke	m	n/a
365.3675	0.15	730735	keystroke	s	n/a
365.5015	0.075	731003	keystroke	Key.space	n/a
365.7115	0.075	731423	keystroke	p	n/a
365.8175	0.089	731635	keystroke	e	n/a
365.9815	0.09	731963	keystroke	n	n/a
366.1615	0.075	732323	keystroke	n	n/a
366.987	0.075	733974	keystroke	Key.space	n/a
367.362	0.075	734724	keystroke	t	n/a
367.917	0.075	735834	keystroke	w	n/a
368.007	0.0905	736014	keystroke	i	n/a
368.187	0.09	736374	keystroke	n	n/a
368.322	0.15	736644	keystroke	s	n/a
368.502	0.12	737004	keystroke	Key.space	n/a
369.3425	0.075	738685	keystroke	f	n/a
369.4175	0.09	738835	keystroke	a	n/a
369.5375	0.075	739075	keystroke	t	n/a
369.7175	0.09	739435	keystroke	h	n/a
369.7925	0.075	739585	keystroke	e	n/a
369.9725	0.06	739945	keystroke	r	n/a
370.1675	0.09	740335	keystroke	s	n/a
371.5175	0.075	743035	keystroke	Key.enter	n/a
371.597	14.3965	743194	prompt	n/a	nightmare tony attorney returns\n
373.077	0.06	746154	keystroke	n	n/a
373.242	0.06	746484	keystroke	i	n/a
373.437	0.06	746874	keystroke	g	n/a
373.542	0.076	747084	keystroke	h	n/a
373.692	0.075	747384	keystroke	t	n/a
373.992	0.075	747984	keystroke	m	n/a
374.112	0.12	748224	keystroke	a	n/a
374.397	0.105	748794	keystroke	r	n/a
374.592	0.165	749184	keystroke	e	n/a
374.712	0.12	749424	keystroke	Key.space	n/a
374.967	0.09	749934	keystroke	t	n/a
375.072	0.09	750144	keystroke	o	n/a
375.252	0.105	750504	keystroke	n	n/a
375.507	0.09	751014	keystroke	y	n/a
375.627	0.12	751254	keystroke	Key.space	n/a
375.912	0.09	751824	keystroke	a	n/a
376.527	0.06	753054	keystroke	t	n/a
376.692	0.06	753384	keystroke	t	n/a
376.782	0.075	753564	keystroke	o	n/a
376.962	0.09	753924	keystroke	n	n/a
377.652	0.075	755304	keystroke	r	n/a
378.432	0.03	756864	keystroke	=	n/a
378.582	0.075	757164	keystroke	=	n/a
379.272	0.0605	758544	keystroke	Key.backspace	n/a
379.422	0.075	758844	keystroke	Key.backspace	n/a
379.572	0.09	759144	keystroke	Key.backspace	n/a
379.932	0.06	759864	keystroke	Key.backspace	n/a
380.637	0.06	761274	keystroke	r	n/a
380.743	0.089	761486	keystroke	n	n/a
380.847	0.1055	761694	keystroke	e	n/a
380.9975	0.09	761995	keystroke	y	n/a
381.1175	0.105	762235	keystroke	Key.space	n/a
381.9275	0.09	763855	keystroke	r	n/a
382.0325	0.06	764065	keystroke	e	n/a
382.1225	0.09	764245	keystroke	t	n/a
382.3475	0.075	764695	keystroke	u	n/a
382.6475	0.075	765295	keystroke	r	n/a
382.737	0.12	765474	keystroke	n	n/a
382.947	0.075	765894	keystroke	o	n/a
384.102	0.06	768204	keystroke	Key.backspace	n/a
384.163	0.074	768326	keystroke	s	n/a
385.917	0.075	771834	keystroke	Key.enter	n/a
385.9975	8.7115	771995	prompt	n/a	funded linux numerical exist\n
387.4625	0.075	774925	keystroke	f	n/a
387.5515	0.061	775103	keystroke	u	n/a
387.7175	0.089	775435	keystroke	n	n/a
387.7925	0.06	775585	keystroke	d	n/a
387.9565	0.075	775913	keystroke	e	n/a
388.1675	0.09	776335	keystroke	d	n/a
388.3315	0.12	776663	keystroke	Key.space	n/a
388.8125	0.09	777625	keystroke	l	n/a
389.0515	0.076	778103	keystroke	i	n/a
389.2465	0.091	778493	keystroke	n	n/a
389.5165	0.061	779033	keystroke	u	n/a
390.162	0.12	780324	keystroke	x	n/a
390.327	0.09	780654	keystroke	Key.space	n/a
390.9575	0.09	781915	keystroke	n	n/a
391.1375	0.075	782275	keystroke	u	n/a
391.3175	0.12	782635	keystroke	m	n/a
391.4225	0.075	782845	keystroke	e	n/a
391.5875	0.06	783175	keystroke	r	n/a
391.6775	0.075	783355	keystroke	i	n/a
391.8275	0.0595	783655	keystroke	c	n/a
391.977	0.105	783954	keystroke	a	n/a
392.097	0.075	784194	keystroke	l	n/a
392.217	0.105	784434	keystroke	Key.space	n/a
392.442	0.06	784884	keystroke	e	n/a
392.712	0.09	785424	keystroke	x	n/a
393.0425	0.0745	786085	keystroke	i	n/a
393.207	0.09	786414	keystroke	s	n/a
393.312	0.09	786624	keystroke	t	n/a
394.647	0.06	789294	keystroke	Key.enter	n/a
394.712	10.3615	789424	prompt	n/a	privilege spears secret malta\n
395.772	0.06	791544	keystroke	p	n/a
395.892	0.045	791784	keystroke	r	n/a
396.012	0.075	792024	keystroke	i	n/a
396.342	0.06	792684	keystroke	v	n/a
396.417	0.075	792834	keystroke	i	n/a
396.612	0.09	793224	keystroke	l	n/a
396.777	0.075	793554	keystroke	e	n/a
397.077	0.06	794154	keystroke	g	n/a
397.152	0.135	794304	keystroke	e	n/a
397.257	0.105	794514	keystroke	Key.space	n/a
397.767	0.09	795534	keystroke	s	n/a
397.872	0.09	795744	keystroke	p	n/a
397.992	0.09	795984	keystroke	e	n/a
398.802	0.09	797604	keystroke	a	n/a
399.132	0.09	798264	keystroke	r	n/a
399.402	0.18	798804	keystroke	s	n/a
399.627	0.03	799254	keystroke	Key.space	n/a
400.257	0.105	800514	keystroke	s	n/a
400.437	0.075	800874	keystroke	e	n/a
400.6315	0.09	801263	keystroke	c	n/a
400.8415	0.09	801683	keystroke	r	n/a
401.7715	0.06	803543	keystroke	e	n/a
401.8625	0.075	803725	keystroke	t	n/a
402.0125	0.104	804025	keystroke	Key.space	n/a
402.8515	0.106	805703	keystroke	m	n/a
402.9875	0.105	805975	keystroke	a	n/a
403.0625	0.09	806125	keystroke	l	n/a
403.3625	0.06	806725	keystroke	t	n/a
403.4515	0.09	806903	keystroke	a	n/a
405.0125	0.06	810025	keystroke	Key.enter	n/a
405.077	15.642	810154	prompt	n/a	partly meet fourth devil\n
410.7005	0.012	821401	keystroke	p	n/a
410.7275	0.105	821455	keystroke	a	n/a
411.0725	0.075	822145	keystroke	r	n/a
411.2675	0.075	822535	keystroke	t	n/a
412.0475	0.075	824095	keystroke	l	n/a
412.3025	0.06	824605	keystroke	y	n/a
412.4075	0.105	824815	keystroke	Key.space	n/a
413.0075	0.075	826015	keystroke	m	n/a
413.1725	0.075	826345	keystroke	e	n/a
413.4425	0.015	826885	keystroke	e	n/a
413.4875	0.075	826975	keystroke	t	n/a
413.6075	0.105	827215	keystroke	Key.space	n/a
414.642	0.075	829284	keystroke	f	n/a
414.732	0.106	829464	keystroke	o	n/a
414.972	0.06	829944	keystroke	u	n/a
415.092	0.09	830184	keystroke	r	n/a
415.317	0.06	830634	keystroke	t	n/a
416.2475	0.03	832495	keystroke	h	n/a
416.997	0.075	833994	keystroke	Key.space	n/a
417.117	0.075	834234	keystroke	f	n/a
417.283	0.089	834566	keystroke	r	n/a
418.497	0.045	836994	keystroke	Key.backspace	n/a
418.617	0.09	837234	keystroke	Key.backspace	n/a
418.708	0.089	837416	keystroke	d	n/a
418.812	0.075	837624	keystroke	e	n/a
419.367	0.06	838734	keystroke	v	n/a
419.458	0.089	838916	keystroke	i	n/a
419.683	0.059	839366	keystroke	l	n/a
420.658	0.059	841316	keystroke	Key.enter	n/a
420.722	11.742	841444	prompt	n/a	highlights formed addressed seminar\n
421.677	0.076	843354	keystroke	h	n/a
421.827	0.09	843654	keystroke	i	n/a
421.992	0.075	843984	keystroke	g	n/a
422.098	0.074	844196	keystroke	h	n/a
422.472	0.09	844944	keystroke	l	n/a
422.712	0.06	845424	keystroke	i	n/a
422.817	0.075	845634	keystroke	t	n/a
423.987	0.09	847974	keystroke	Key.backspace	n/a
424.212	0.046	848424	keystroke	g	n/a
424.377	0.06	848754	keystroke	h	n/a
424.527	0.075	849054	keystroke	t	n/a
424.857	0.151	849714	keystroke	s	n/a
426.222	0.09	852444	keystroke	Key.space	n/a
426.837	0.06	853674	keystroke	f	n/a
426.942	0.075	853884	keystroke	o	n/a
427.047	0.061	854094	keystroke	r	n/a
427.137	0.105	854274	keystroke	m	n/a
427.257	0.076	854514	keystroke	e	n/a
427.453	0.119	854906	keystroke	d	n/a
427.587	0.06	855174	keystroke	Key.space	n/a
427.827	0.12	855654	keystroke	a	n/a
428.187	0.06	856374	keystroke	d	n/a
428.337	0.075	856674	keystroke	d	n/a
428.487	0.06	856974	keystroke	r	n/a
428.608	0.075	857216	keystroke	e	n/a
428.833	0.104	857666	keystroke	s	n/a
429.058	0.119	858116	keystroke	s	n/a
429.312	0.12	858624	keystroke	e	n/a
429.598	0.135	859196	keystroke	d	n/a
429.687	0.12	859374	keystroke	Key.space	n/a
430.287	0.06	860574	keystroke	s	n/a
430.437	0.105	860874	keystroke	e	n/a
430.962	0.09	861924	keystroke	m	n/a
431.142	0.06	862284	keystroke	i	n/a
431.277	0.106	862554	keystroke	n	n/a
431.367	0.091	862734	keystroke	a	n/a
431.562	0.09	863124	keystroke	r	n/a
432.402	0.06	864804	keystroke	Key.enter	n/a
432.467	11.052	864934	prompt	n/a	awards cookie projector fabric\n
433.393	0.09	866786	keystroke	a	n/a
433.708	0.059	867416	keystroke	w	n/a
433.828	0.09	867656	keystroke	a	n/a
433.918	0.09	867836	keystroke	r	n/a
434.067	0.091	868134	keystroke	d	n/a
434.292	0.151	868584	keystroke	s	n/a
434.472	0.045	868944	keystroke	Key.space	n/a
434.9225	0.06	869845	keystroke	c	n/a
435.1175	0.06	870235	keystroke	o	n/a
435.2525	0.06	870505	keystroke	o	n/a
435.3725	0.105	870745	keystroke	k	n/a
435.598	0.0595	871196	keystroke	i	n/a
435.6875	0.075	871375	keystroke	e	n/a
436.4525	0.105	872905	keystroke	Key.space	n/a
436.6025	0.075	873205	keystroke	p	n/a
436.7375	0.075	873475	keystroke	r	n/a
436.8425	0.06	873685	keystroke	o	n/a
437.4725	0.09	874945	keystroke	j	n/a
437.5475	0.06	875095	keystroke	e	n/a
437.7425	0.09	875485	keystroke	c	n/a
437.9975	0.075	875995	keystroke	t	n/a
438.1175	0.075	876235	keystroke	o	n/a
438.2075	0.165	876415	keystroke	r	n/a
438.3275	0.09	876655	keystroke	Key.space	n/a
438.912	0.06	877824	keystroke	f	n/a
439.002	0.09	878004	keystroke	a	n/a
439.137	0.045	878274	keystroke	c	n/a
439.452	0.06	878904	keystroke	=	n/a
439.692	0.06	879384	keystroke	b	n/a
440.427	0.075	880854	keystroke	Key.backspace	n/a
440.772	0.06	881544	keystroke	Key.backspace	n/a
440.907	0.09	881814	keystroke	Key.backspace	n/a
441.0875	0.06	882175	keystroke	b	n/a
441.7175	0.06	883435	keystroke	r	n/a
441.8675	0.06	883735	keystroke	i	n/a
441.9575	0.09	883915	keystroke	c	n/a
443.4725	0.045	886945	keystroke	Key.enter	n/a
443.5235	15.1155	887047	prompt	n/a	raised zshops upcoming subsidiaries\n
444.882	0.075	889764	keystroke	r	n/a
444.987	0.12	889974	keystroke	a	n/a
445.182	0.09	890364	keystroke	i	n/a
445.257	0.09	890514	keystroke	s	n/a
445.452	0.06	890904	keystroke	e	n/a
445.662	0.135	891324	keystroke	d	n/a
445.812	0.075	891624	keystroke	Key.space	n/a
446.682	0.06	893364	keystroke	z	n/a
447.0575	0.075	894115	keystroke	s	n/a
447.1475	0.09	894295	keystroke	h	n/a
447.3725	0.075	894745	keystroke	o	n/a
447.5675	0.09	895135	keystroke	p	n/a
448.2425	0.075	896485	keystroke	s	n/a
448.4825	0.09	896965	keystroke	Key.space	n/a
449.4725	0.06	898945	keystroke	u	n/a
449.6825	0.09	899365	keystroke	p	n/a
449.9075	0.075	899815	keystroke	c	n/a
450.0275	0.075	900055	keystroke	o	n/a
450.2075	0.09	900415	keystroke	m	n/a
450.4625	0.075	900925	keystroke	i	n/a
450.6425	0.075	901285	keystroke	n	n/a
450.7775	0.075	901555	keystroke	g	n/a
451.4825	0.075	902965	keystroke	Key.space	n/a
451.6775	0.09	903355	keystroke	s	n/a
452.4425	0.06	904885	keystroke	u	n/a
452.6225	0.09	905245	keystroke	b	n/a
452.9375	0.09	905875	keystroke	s	n/a
453.0575	0.075	906115	keystroke	i	n/a
455.88	0.027	911760	keystroke	d	n/a
455.967	0.075	911934	keystroke	i	n/a
456.462	0.12	912924	keystroke	a	n/a
457.032	0.09	914064	keystroke	r	n/a
457.647	0.06	915294	keystroke	i	n/a
457.722	0.06	915444	keystroke	e	n/a
457.9025	0.09	915805	keystroke	s	n/a
458.6225	0.015	917245	keystroke	Key.enter	n/a
458.6425	10.6765	917285	prompt	n/a	item hartford audi measured\n
459.5975	0.06	919195	keystroke	i	n/a
459.8375	0.06	919675	keystroke	t	n/a
459.9275	0.06	919855	keystroke	e	n/a
460.0925	0.06	920185	keystroke	n	n/a
461.0225	0.06	922045	keystroke	Key.backspace	n/a
461.2775	0.06	922555	keystroke	m	n/a
461.3825	0.09	922765	keystroke	Key.space	n/a
462.2825	0.075	924565	keystroke	h	n/a
462.3725	0.09	924745	keystroke	a	n/a
462.5975	0.06	925195	keystroke	r	n/a
463.6625	0.015	927325	keystroke	t	n/a
464.0225	0.06	928045	keystroke	f	n/a
464.1275	0.06	928255	keystroke	o	n/a
464.2175	0.09	928435	keystroke	r	n/a
464.5025	0.075	929005	keystroke	d	n/a
464.6675	0.105	929335	keystroke	Key.space	n/a
466.213	0.09	932426	keystroke	a	n/a
466.438	0.075	932876	keystroke	u	n/a
466.543	0.075	933086	keystroke	d	n/a
466.663	0.075	933326	keystroke	i	n/a
466.798	0.105	933596	keystroke	Key.space	n/a
467.428	0.075	934856	keystroke	m	n/a
467.473	0.09	934946	keystroke	e	n/a
467.698	0.135	935396	keystroke	a	n/a
467.818	0.105	935636	keystroke	s	n/a
467.968	0.075	935936	keystroke	u	n/a
468.088	0.075	936176	keystroke	r	n/a
468.238	0.09	936476	keystroke	e	n/a
468.433	0.075	936866	keystroke	d	n/a
469.2725	0.045	938545	keystroke	Key.enter	n/a
469.323	17.561	938646	prompt	n/a	veterans advisors lloyd indicates\n
473.1295	0.013	946259	keystroke	v	n/a
473.1575	0.09	946315	keystroke	e	n/a
473.2925	0.075	946585	keystroke	t	n/a
473.4125	0.045	946825	keystroke	e	n/a
473.5325	0.075	947065	keystroke	r	n/a
473.7125	0.105	947425	keystroke	a	n/a
473.8485	0.074	947697	keystroke	n	n/a
473.9375	0.09	947875	keystroke	Key.space	n/a
474.1325	0.105	948265	keystroke	a	n/a
474.6275	0.06	949255	keystroke	d	n/a
474.9575	0.06	949915	keystroke	b	n/a
475.3475	0.09	950695	keystroke	Key.backspace	n/a
475.4225	0.06	950845	keystroke	v	n/a
475.6325	0.09	951265	keystroke	i	n/a
475.8125	0.06	951625	keystroke	s	n/a
476.3525	0.06	952705	keystroke	o	n/a
476.4275	0.09	952855	keystroke	r	n/a
476.7275	0.121	953455	keystroke	s	n/a
476.8485	0.089	953697	keystroke	Key.space	n/a
477.1775	0.06	954355	keystroke	l	n/a
477.3125	0.075	954625	keystroke	l	n/a
477.4775	0.075	954955	keystroke	o	n/a
477.9425	0.06	955885	keystroke	y	n/a
478.0475	0.06	956095	keystroke	e	n/a
478.2275	0.105	956455	keystroke	d	n/a
478.3175	0.075	956635	keystroke	Key.space	n/a
478.8725	0.075	957745	keystroke	i	n/a
479.0225	0.105	958045	keystroke	n	n/a
479.218	0.075	958436	keystroke	c	n/a
479.382	0.016	958764	keystroke	i	n/a
480.387	0.061	960774	keystroke	Key.backspace	n/a
480.6425	0.06	961285	keystroke	Key.backspace	n/a
480.8525	0.075	961705	keystroke	Key.backspace	n/a
481.0175	0.075	962035	keystroke	Key.backspace	n/a
481.1975	0.09	962395	keystroke	Key.backspace	n/a
481.4975	0.075	962995	keystroke	Key.backspace	n/a
482.0375	0.075	964075	keystroke	Key.backspace	n/a
482.1725	0.105	964345	keystroke	d	n/a
482.3225	0.09	964645	keystroke	Key.space	n/a
483.0725	0.06	966145	keystroke	i	n/a
483.2225	0.09	966445	keystroke	n	n/a
483.3575	0.075	966715	keystroke	c	n/a
483.6875	0.06	967375	keystroke	Key.backspace	n/a
483.8075	0.09	967615	keystroke	d	n/a
483.9875	0.075	967975	keystroke	i	n/a
484.1375	0.09	968275	keystroke	c	n/a
484.6625	0.09	969325	keystroke	a	n/a
484.9025	0.09	969805	keystroke	t	n/a
485.098	0.09	970196	keystroke	e	n/a
485.323	0.134	970646	keystroke	s	n/a
485.442	0.06	970884	keystroke	Key.space	n/a
486.568	0.075	973136	keystroke	Key.backspace	n/a
486.838	0.045	973676	keystroke	Key.enter	n/a
486.8895	17.5595	973779	prompt	n/a	covering talking kazakhstan downloads\n
488.248	0.075	976496	keystroke	c	n/a
488.308	0.075	976616	keystroke	o	n/a
488.548	0.075	977096	keystroke	b	n/a
488.608	0.09	977216	keystroke	e	n/a
488.803	0.075	977606	keystroke	r	n/a
489.088	0.075	978176	keystroke	Key.backspace	n/a
489.223	0.06	978446	keystroke	Key.backspace	n/a
489.373	0.09	978746	keystroke	Key.backspace	n/a
489.943	0.075	979886	keystroke	v	n/a
490.003	0.075	980006	keystroke	e	n/a
490.183	0.09	980366	keystroke	r	n/a
490.318	0.06	980636	keystroke	i	n/a
490.483	0.0905	980966	keystroke	n	n/a
490.6325	0.091	981265	keystroke	g	n/a
490.7525	0.105	981505	keystroke	Key.space	n/a
491.5775	0.075	983155	keystroke	t	n/a
491.6985	0.134	983397	keystroke	a	n/a
492.0425	0.075	984085	keystroke	l	n/a
492.2375	0.075	984475	keystroke	k	n/a
492.4025	0.06	984805	keystroke	i	n/a
492.6575	0.09	985315	keystroke	n	n/a
492.7925	0.075	985585	keystroke	f	n/a
493.3625	0.06	986725	keystroke	Key.backspace	n/a
493.7525	0.075	987505	keystroke	f	n/a
494.3825	0.075	988765	keystroke	Key.backspace	n/a
494.4735	0.089	988947	keystroke	g	n/a
494.6075	0.105	989215	keystroke	Key.space	n/a
496.273	0.075	992546	keystroke	k	n/a
496.453	0.06	992906	keystroke	a	n/a
496.708	0.075	993416	keystroke	z	n/a
496.888	0.09	993776	keystroke	a	n/a
497.578	0.075	995156	keystroke	k	n/a
498.493	0.075	996986	keystroke	h	n/a
498.613	0.09	997226	keystroke	s	n/a
498.763	0.06	997526	keystroke	t	n/a
498.913	0.09	997826	keystroke	a	n/a
500.113	0.015	1000226	keystroke	n	n/a
500.278	0.105	1000556	keystroke	Key.space	n/a
501.628	0.06	1003256	keystroke	d	n/a
501.718	0.09	1003436	keystroke	o	n/a
501.838	0.075	1003676	keystroke	w	n/a
502.078	0.075	1004156	keystroke	n	n/a
502.318	0.075	1004636	keystroke	l	n/a
502.498	0.09	1004996	keystroke	o	n/a
502.618	0.105	1005236	keystroke	a	n/a
502.798	0.09	1005596	keystroke	d	n/a
503.008	0.105	1006016	keystroke	s	n/a
503.143	0.09	1006286	keystroke	Key.space	n/a
504.088	0.06	1008176	keystroke	Key.backspace	n/a
504.373	0.075	1008746	keystroke	Key.enter	n/a
504.4525	8.217	1008905	prompt	n/a	orlando fixes nothing souls\n
505.453	0.075	1010906	keystroke	o	n/a
505.573	0.075	1011146	keystroke	r	n/a
505.663	0.09	1011326	keystroke	l	n/a
505.828	0.09	1011656	keystroke	a	n/a
505.933	0.09	1011866	keystroke	n	n/a
506.053	0.075	1012106	keystroke	d	n/a
506.158	0.075	1012316	keystroke	o	n/a
506.293	0.09	1012586	keystroke	Key.space	n/a
506.683	0.06	1013366	keystroke	f	n/a
506.773	0.076	1013546	keystroke	i	n/a
507.238	0.045	1014476	keystroke	x	n/a
507.433	0.06	1014866	keystroke	e	n/a
507.613	0.12	1015226	keystroke	s	n/a
507.748	0.075	1015496	keystroke	Key.space	n/a
508.243	0.075	1016486	keystroke	n	n/a
508.393	0.075	1016786	keystroke	o	n/a
508.513	0.075	1017026	keystroke	t	n/a
508.603	0.09	1017206	keystroke	h	n/a
509.083	0.015	1018166	keystroke	i	n/a
509.7425	0.06	1019485	keystroke	n	n/a
509.8625	0.106	1019725	keystroke	g	n/a
509.9825	0.12	1019965	keystroke	Key.space	n/a
510.9575	0.075	1021915	keystroke	s	n/a
511.0635	0.089	1022127	keystroke	o	n/a
511.2575	0.091	1022515	keystroke	u	n/a
511.4685	0.075	1022937	keystroke	l	n/a
511.632	0.061	1023264	keystroke	s	n/a
512.608	0.06	1025216	keystroke	Key.enter	n/a
512.6725	11.517	1025345	prompt	n/a	msgstr frontier nothing continued\n
514.3775	0.075	1028755	keystroke	m	n/a
514.5435	0.074	1029087	keystroke	s	n/a
514.7525	0.09	1029505	keystroke	g	n/a
515.3825	0.075	1030765	keystroke	s	n/a
516.0425	0.06	1032085	keystroke	t	n/a
516.1475	0.121	1032295	keystroke	r	n/a
517.4675	0.105	1034935	keystroke	Key.space	n/a
517.6775	0.0605	1035355	keystroke	f	n/a
517.843	0.06	1035686	keystroke	r	n/a
517.918	0.06	1035836	keystroke	o	n/a
518.053	0.12	1036106	keystroke	n	n/a
518.173	0.06	1036346	keystroke	t	n/a
518.293	0.045	1036586	keystroke	i	n/a
518.413	0.075	1036826	keystroke	e	n/a
519.148	0.06	1038296	keystroke	r	n/a
519.328	0.075	1038656	keystroke	Key.space	n/a
520.273	0.075	1040546	keystroke	n	n/a
520.453	0.075	1040906	keystroke	o	n/a
520.588	0.0595	1041176	keystroke	t	n/a
520.7075	0.075	1041415	keystroke	h	n/a
520.9025	0.091	1041805	keystroke	i	n/a
521.1125	0.075	1042225	keystroke	n	n/a
521.2025	0.075	1042405	keystroke	g	n/a
521.3675	0.09	1042735	keystroke	Key.space	n/a
522.0125	0.075	1044025	keystroke	c	n/a
522.1025	0.045	1044205	keystroke	o	n/a
522.2225	0.105	1044445	keystroke	n	n/a
522.5975	0.075	1045195	keystroke	t	n/a
522.6875	0.075	1045375	keystroke	i	n/a
522.8975	0.1055	1045795	keystroke	n	n/a
523.0925	0.0905	1046185	keystroke	u	n/a
523.1675	0.0905	1046335	keystroke	e	n/a
523.363	0.0745	1046726	keystroke	d	n/a
524.128	0.06	1048256	keystroke	Key.enter	n/a
524.194	9.3855	1048388	prompt	n/a	taylor ambient designs radios\n
525.193	0.0595	1050386	keystroke	t	n/a
525.8975	0.0905	1051795	keystroke	a	n/a
525.988	0.0745	1051976	keystroke	y	n/a
526.2425	0.09	1052485	keystroke	l	n/a
526.4375	0.06	1052875	keystroke	o	n/a
526.5425	0.15	1053085	keystroke	r	n/a
526.6775	0.09	1053355	keystroke	Key.space	n/a
527.383	0.09	1054766	keystroke	a	n/a
527.458	0.09	1054916	keystroke	m	n/a
527.668	0.09	1055336	keystroke	b	n/a
527.818	0.0895	1055636	keystroke	i	n/a
527.8935	0.09	1055787	keystroke	e	n/a
528.0125	0.09	1056025	keystroke	n	n/a
528.1635	0.089	1056327	keystroke	t	n/a
528.4935	0.089	1056987	keystroke	Key.space	n/a
529.2575	0.0755	1058515	keystroke	d	n/a
529.438	0.075	1058876	keystroke	e	n/a
529.603	0.09	1059206	keystroke	s	n/a
529.828	0.045	1059656	keystroke	i	n/a
530.098	0.075	1060196	keystroke	g	n/a
530.263	0.06	1060526	keystroke	n	n/a
530.488	0.09	1060976	keystroke	s	n/a
531.118	0.0895	1062236	keystroke	Key.space	n/a
531.2975	0.105	1062595	keystroke	r	n/a
531.5525	0.15	1063105	keystroke	a	n/a
532.258	0.09	1064516	keystroke	d	n/a
532.378	0.074	1064756	keystroke	i	n/a
532.528	0.09	1065056	keystroke	o	n/a
532.603	0.1205	1065206	keystroke	s	n/a
533.5635	0.014	1067127	keystroke	Key.enter	n/a
533.582	12.972	1067164	prompt	n/a	deserve instrumental computing gang\n
536.325	0.001	1072650	keystroke	d	n/a
536.368	0.075	1072736	keystroke	e	n/a
536.563	0.105	1073126	keystroke	s	n/a
536.773	0.06	1073546	keystroke	e	n/a
536.953	0.09	1073906	keystroke	r	n/a
537.568	0.06	1075136	keystroke	v	n/a
537.643	0.12	1075286	keystroke	e	n/a
537.748	0.105	1075496	keystroke	Key.space	n/a
538.3325	0.06	1076665	keystroke	i	n/a
538.4675	0.105	1076935	keystroke	n	n/a
538.5875	0.09	1077175	keystroke	s	n/a
538.9025	0.075	1077805	keystroke	t	n/a
539.0675	0.09	1078135	keystroke	r	n/a
539.1875	0.075	1078375	keystroke	u	n/a
539.4125	0.075	1078825	keystroke	m	n/a
539.5475	0.06	1079095	keystroke	e	n/a
539.6375	0.075	1079275	keystroke	n	n/a
539.878	0.06	1079756	keystroke	t	n/a
539.998	0.075	1079996	keystroke	a	n/a
540.178	0.06	1080356	keystroke	l	n/a
540.373	0.075	1080746	keystroke	Key.space	n/a
540.613	0.075	1081226	keystroke	c	n/a
540.703	0.075	1081406	keystroke	o	n/a
540.853	0.09	1081706	keystroke	m	n/a
541.0325	0.105	1082065	keystroke	p	n/a
541.5425	0.075	1083085	keystroke	u	n/a
541.7525	0.105	1083505	keystroke	t	n/a
541.9775	0.075	1083955	keystroke	i	n/a
542.9075	0.06	1085815	keystroke	n	n/a
543.0125	0.0755	1086025	keystroke	g	n/a
543.9125	0.075	1087825	keystroke	Key.space	n/a
544.3025	0.06	1088605	keystroke	g	n/a
544.4075	0.105	1088815	keystroke	a	n/a
544.4975	0.075	1088995	keystroke	n	n/a
544.7075	0.075	1089415	keystroke	g	n/a
546.4925	0.06	1092985	keystroke	Key.enter	n/a
546.5575	17.7575	1093115	prompt	n/a	triple royal junction batteries\n
547.588	0.059	1095176	keystroke	t	n/a
547.707	0.075	1095414	keystroke	r	n/a
548.097	0.075	1096194	keystroke	i	n/a
548.413	0.074	1096826	keystroke	p	n/a
548.577	0.075	1097154	keystroke	l	n/a
548.682	0.12	1097364	keystroke	e	n/a
548.787	0.075	1097574	keystroke	Key.space	n/a
549.1175	0.09	1098235	keystroke	r	n/a
549.2375	0.06	1098475	keystroke	o	n/a
549.9875	0.09	1099975	keystroke	y	n/a
550.0625	0.105	1100125	keystroke	a	n/a
550.2725	0.075	1100545	keystroke	l	n/a
550.4225	0.09	1100845	keystroke	Key.space	n/a
550.8125	0.075	1101625	keystroke	j	n/a
551.0075	0.075	1102015	keystroke	u	n/a
551.3825	0.075	1102765	keystroke	c	n/a
551.6225	0.06	1103245	keystroke	t	n/a
551.8175	0.075	1103635	keystroke	i	n/a
551.9525	0.09	1103905	keystroke	o	n/a
552.1325	0.09	1104265	keystroke	n	n/a
552.2675	0.105	1104535	keystroke	Key.space	n/a
552.5975	0.075	1105195	keystroke	b	n/a
552.7025	0.105	1105405	keystroke	a	n/a
552.8525	0.06	1105705	keystroke	t	n/a
552.9875	0.0755	1105975	keystroke	t	n/a
553.092	0.075	1106184	keystroke	e	n/a
553.242	0.09	1106484	keystroke	r	n/a
553.422	0.0755	1106844	keystroke	i	n/a
553.527	0.0755	1107054	keystroke	e	n/a
553.707	0.09	1107414	keystroke	s	n/a
556.785	0.012	1113570	keystroke	Key.backspace	n/a
556.857	0.06	1113714	keystroke	Key.backspace	n/a
557.112	0.06	1114224	keystroke	Key.backspace	n/a
557.367	0.06	1114734	keystroke	Key.backspace	n/a
557.547	0.06	1115094	keystroke	Key.backspace	n/a
557.742	0.06	1115484	keystroke	Key.backspace	n/a
557.938	0.059	1115876	keystroke	Key.backspace	n/a
558.147	0.06	1116294	keystroke	Key.backspace	n/a
558.402	0.061	1116804	keystroke	Key.backspace	n/a
558.672	0.0605	1117344	keystroke	Key.backspace	n/a
558.8675	0.075	1117735	keystroke	Key.backspace	n/a
559.1225	0.06	1118245	keystroke	Key.backspace	n/a
559.3625	0.075	1118725	keystroke	Key.backspace	n/a
559.6325	0.06	1119265	keystroke	Key.backspace	n/a
560.0525	0.03	1120105	keystroke	Key.backspace	n/a
560.7875	0.06	1121575	keystroke	n	n/a
560.9075	0.09	1121815	keystroke	c	n/a
561.268	0.075	1122536	keystroke	t	n/a
561.358	0.075	1122716	keystroke	i	n/a
561.508	0.09	1123016	keystroke	o	n/a
561.658	0.09	1123316	keystroke	n	n/a
562.183	0.075	1124366	keystroke	Key.space	n/a
562.528	0.105	1125056	keystroke	b	n/a
562.648	0.12	1125296	keystroke	a	n/a
562.813	0.06	1125626	keystroke	t	n/a
562.948	0.075	1125896	keystroke	t	n/a
563.038	0.075	1126076	keystroke	e	n/a
563.203	0.075	1126406	keystroke	r	n/a
563.338	0.075	1126676	keystroke	i	n/a
563.428	0.06	1126856	keystroke	e	n/a
563.668	0.015	1127336	keystroke	s	n/a
564.2675	0.045	1128535	keystroke	Key.enter	n/a
564.3185	12.0585	1128637	prompt	n/a	reductions media explanation perl\n
565.3775	0.045	1130755	keystroke	r	n/a
565.4675	0.09	1130935	keystroke	e	n/a
565.6475	0.105	1131295	keystroke	d	n/a
565.8275	0.075	1131655	keystroke	u	n/a
565.9625	0.075	1131925	keystroke	c	n/a
566.9825	0.06	1133965	keystroke	t	n/a
567.0575	0.075	1134115	keystroke	i	n/a
567.1925	0.09	1134385	keystroke	o	n/a
567.3725	0.091	1134745	keystroke	n	n/a
567.4475	0.15	1134895	keystroke	s	n/a
567.6125	0.105	1135225	keystroke	Key.space	n/a
568.1975	0.075	1136395	keystroke	m	n/a
568.3025	0.075	1136605	keystroke	e	n/a
568.5425	0.09	1137085	keystroke	d	n/a
568.6775	0.075	1137355	keystroke	i	n/a
569.158	0.12	1138316	keystroke	a	n/a
569.308	0.075	1138616	keystroke	Key.space	n/a
569.458	0.075	1138916	keystroke	e	n/a
569.893	0.075	1139786	keystroke	x	n/a
570.178	0.06	1140356	keystroke	p	n/a
570.298	0.09	1140596	keystroke	l	n/a
570.403	0.105	1140806	keystroke	a	n/a
570.553	0.075	1141106	keystroke	n	n/a
570.688	0.09	1141376	keystroke	e	n/a
571.228	0.09	1142456	keystroke	Key.backspace	n/a
571.378	0.09	1142756	keystroke	a	n/a
571.888	0.06	1143776	keystroke	t	n/a
572.278	0.045	1144556	keystroke	i	n/a
572.428	0.075	1144856	keystroke	o	n/a
572.608	0.075	1145216	keystroke	n	n/a
572.743	0.09	1145486	keystroke	Key.space	n/a
573.433	0.06	1146866	keystroke	p	n/a
573.523	0.075	1147046	keystroke	e	n/a
573.688	0.075	1147376	keystroke	r	n/a
573.808	0.075	1147616	keystroke	l	n/a
576.375	0.001	1152750	keystroke	Key.enter	n/a
576.38	12.2945	1152760	prompt	n/a	hollywood theaters categories lisa\n
577.3775	0.0605	1154755	keystroke	h	n/a
577.528	0.075	1155056	keystroke	o	n/a
577.903	0.06	1155806	keystroke	l	n/a
578.0375	0.0755	1156075	keystroke	l	n/a
578.758	0.0595	1157516	keystroke	y	n/a
578.8925	0.09	1157785	keystroke	w	n/a
579.118	0.06	1158236	keystroke	o	n/a
579.238	0.09	1158476	keystroke	o	n/a
579.343	0.15	1158686	keystroke	d	n/a
579.508	0.105	1159016	keystroke	Key.space	n/a
580.273	0.075	1160546	keystroke	t	n/a
580.438	0.075	1160876	keystroke	h	n/a
580.498	0.075	1160996	keystroke	e	n/a
580.648	0.09	1161296	keystroke	r	n/a
580.873	0.12	1161746	keystroke	a	n/a
581.3225	0.075	1162645	keystroke	Key.backspace	n/a
581.4725	0.06	1162945	keystroke	Key.backspace	n/a
581.5485	0.105	1163097	keystroke	a	n/a
582.6275	0.09	1165255	keystroke	t	n/a
582.7325	0.045	1165465	keystroke	e	n/a
582.8675	0.075	1165735	keystroke	r	n/a
583.093	0.12	1166186	keystroke	s	n/a
583.678	0.09	1167356	keystroke	Key.space	n/a
583.9475	0.075	1167895	keystroke	c	n/a
584.1425	0.105	1168285	keystroke	a	n/a
584.3375	0.06	1168675	keystroke	t	n/a
584.4425	0.075	1168885	keystroke	e	n/a
585.238	0.06	1170476	keystroke	g	n/a
585.343	0.075	1170686	keystroke	o	n/a
585.463	0.075	1170926	keystroke	r	n/a
585.583	0.09	1171166	keystroke	i	n/a
585.733	0.0895	1171466	keystroke	e	n/a
585.9425	0.12	1171885	keystroke	s	n/a
587.0825	0.105	1174165	keystroke	Key.space	n/a
587.1725	0.075	1174345	keystroke	l	n/a
587.3825	0.075	1174765	keystroke	i	n/a
587.4585	0.119	1174917	keystroke	s	n/a
587.5475	0.12	1175095	keystroke	a	n/a
588.6125	0.06	1177225	keystroke	Key.enter	n/a
588.688	13.1565	1177376	prompt	n/a	advertisements strange balloon edinburgh\n
590.653	0.0755	1181306	keystroke	a	n/a
590.7425	0.091	1181485	keystroke	d	n/a
591.2225	0.061	1182445	keystroke	v	n/a
591.2975	0.075	1182595	keystroke	e	n/a
591.4935	0.075	1182987	keystroke	r	n/a
591.6875	0.06	1183375	keystroke	t	n/a
591.8835	0.075	1183767	keystroke	i	n/a
592.0785	0.075	1184157	keystroke	s	n/a
592.3035	0.09	1184607	keystroke	e	n/a
592.8125	0.076	1185625	keystroke	m	n/a
592.9185	0.09	1185837	keystroke	e	n/a
593.0535	0.059	1186107	keystroke	n	n/a
593.2035	0.06	1186407	keystroke	t	n/a
593.9385	0.135	1187877	keystroke	s	n/a
594.0875	0.105	1188175	keystroke	Key.space	n/a
594.703	0.09	1189406	keystroke	s	n/a
594.823	0.075	1189646	keystroke	t	n/a
594.988	0.06	1189976	keystroke	r	n/a
595.093	0.1045	1190186	keystroke	a	n/a
595.4075	0.09	1190815	keystroke	n	n/a
595.6175	0.06	1191235	keystroke	g	n/a
595.7375	0.135	1191475	keystroke	e	n/a
595.8725	0.09	1191745	keystroke	Key.space	n/a
596.4575	0.075	1192915	keystroke	b	n/a
596.5775	0.075	1193155	keystroke	a	n/a
596.7575	0.0605	1193515	keystroke	l	n/a
596.878	0.075	1193756	keystroke	l	n/a
597.058	0.06	1194116	keystroke	o	n/a
597.448	0.06	1194896	keystroke	o	n/a
597.598	0.075	1195196	keystroke	n	n/a
597.733	0.09	1195466	keystroke	Key.space	n/a
598.648	0.075	1197296	keystroke	e	n/a
599.158	0.075	1198316	keystroke	d	n/a
599.248	0.09	1198496	keystroke	i	n/a
599.443	0.075	1198886	keystroke	n	n/a
599.773	0.075	1199546	keystroke	b	n/a
599.953	0.06	1199906	keystroke	u	n/a
600.088	0.075	1200176	keystroke	r	n/a
600.328	0.075	1200656	keystroke	g	n/a
600.523	0.06	1201046	keystroke	h	n/a
601.798	0.045	1203596	keystroke	Key.enter	n/a
601.848	14.246	1203696	prompt	n/a	spectacular excerpt style pakistan\n
602.968	0.06	1205936	keystroke	s	n/a
603.058	0.075	1206116	keystroke	p	n/a
603.238	0.0605	1206476	keystroke	e	n/a
603.508	0.075	1207016	keystroke	c	n/a
603.688	0.06	1207376	keystroke	t	n/a
603.778	0.09	1207556	keystroke	a	n/a
604.108	0.06	1208216	keystroke	c	n/a
604.243	0.06	1208486	keystroke	u	n/a
604.573	0.06	1209146	keystroke	l	n/a
604.648	0.105	1209296	keystroke	a	n/a
604.858	0.135	1209716	keystroke	r	n/a
604.993	0.1045	1209986	keystroke	Key.space	n/a
605.4875	0.075	1210975	keystroke	e	n/a
605.7425	0.075	1211485	keystroke	x	n/a
605.9675	0.075	1211935	keystroke	c	n/a
607.1525	0.09	1214305	keystroke	e	n/a
607.2875	0.075	1214575	keystroke	p	n/a
607.4375	0.105	1214875	keystroke	r	n/a
608.2475	0.06	1216495	keystroke	Key.backspace	n/a
608.3235	0.074	1216647	keystroke	t	n/a
608.9225	0.06	1217845	keystroke	Key.backspace	n/a
609.0575	0.075	1218115	keystroke	Key.backspace	n/a
609.7475	0.0745	1219495	keystroke	r	n/a
610.783	0.029	1221566	keystroke	p	n/a
610.842	0.136	1221684	keystroke	t	n/a
610.963	0.105	1221926	keystroke	Key.space	n/a
611.683	0.075	1223366	keystroke	s	n/a
611.908	0.075	1223816	keystroke	t	n/a
612.073	0.075	1224146	keystroke	y	n/a
612.538	0.075	1225076	keystroke	l	n/a
612.628	0.135	1225256	keystroke	e	n/a
612.733	0.12	1225466	keystroke	Key.space	n/a
614.3075	0.046	1228615	keystroke	p	n/a
614.3975	0.105	1228795	keystroke	a	n/a
614.5175	0.075	1229035	keystroke	k	n/a
614.6975	0.075	1229395	keystroke	i	n/a
614.7575	0.09	1229515	keystroke	s	n/a
614.9535	0.0745	1229907	keystroke	t	n/a
615.058	0.09	1230116	keystroke	a	n/a
615.193	0.09	1230386	keystroke	n	n/a
616.033	0.06	1232066	keystroke	Key.enter	n/a
616.099	12.46	1232198	prompt	n/a	inside substitute coupons loaded\n
617.023	0.075	1234046	keystroke	i	n/a
617.203	0.075	1234406	keystroke	n	n/a
617.398	0.09	1234796	keystroke	s	n/a
617.653	0.075	1235306	keystroke	i	n/a
617.758	0.09	1235516	keystroke	d	n/a
617.923	0.105	1235846	keystroke	e	n/a
618.163	0.12	1236326	keystroke	Key.space	n/a
618.778	0.09	1237556	keystroke	s	n/a
618.913	0.075	1237826	keystroke	u	n/a
619.138	0.06	1238276	keystroke	b	n/a
620.218	0.09	1240436	keystroke	s	n/a
620.7125	0.075	1241425	keystroke	t	n/a
620.8325	0.09	1241665	keystroke	u	n/a
620.9075	0.075	1241815	keystroke	t	n/a
621.553	0.09	1243106	keystroke	Key.backspace	n/a
621.868	0.06	1243736	keystroke	Key.backspace	n/a
622.333	0.075	1244666	keystroke	i	n/a
622.453	0.09	1244906	keystroke	t	n/a
622.558	0.06	1245116	keystroke	u	n/a
622.633	0.06	1245266	keystroke	t	n/a
623.428	0.075	1246856	keystroke	e	n/a
624.028	0.135	1248056	keystroke	Key.space	n/a
624.253	0.075	1248506	keystroke	c	n/a
624.373	0.09	1248746	keystroke	o	n/a
624.583	0.06	1249166	keystroke	u	n/a
624.853	0.06	1249706	keystroke	p	n/a
625.108	0.06	1250216	keystroke	o	n/a
625.723	0.06	1251446	keystroke	n	n/a
625.798	0.12	1251596	keystroke	s	n/a
625.903	0.105	1251806	keystroke	Key.space	n/a
626.368	0.075	1252736	keystroke	l	n/a
626.548	0.075	1253096	keystroke	o	n/a
626.683	0.105	1253366	keystroke	a	n/a
626.923	0.075	1253846	keystroke	d	n/a
627.028	0.09	1254056	keystroke	e	n/a
627.598	0.06	1255196	keystroke	d	n/a
628.4975	0.06	1256995	keystroke	Key.enter	n/a
628.562	15.013	1257124	prompt	n/a	acdbentity pressed chris calls\n
631.529	0.028	1263058	keystroke	a	n/a
631.573	0.075	1263146	keystroke	c	n/a
632.263	0.1045	1264526	keystroke	d	n/a
633.012	0.0755	1266024	keystroke	b	n/a
633.117	0.09	1266234	keystroke	e	n/a
633.688	0.075	1267376	keystroke	n	n/a
633.853	0.075	1267706	keystroke	t	n/a
634.678	0.06	1269356	keystroke	i	n/a
636.855	0	1273710	keystroke	t	n/a
636.856	0.072	1273712	keystroke	y	n/a
637.003	0.09	1274006	keystroke	Key.space	n/a
637.8875	0.0755	1275775	keystroke	p	n/a
637.9775	0.09	1275955	keystroke	r	n/a
638.1275	0.075	1276255	keystroke	e	n/a
638.428	0.075	1276856	keystroke	s	n/a
638.578	0.0895	1277156	keystroke	s	n/a
638.773	0.06	1277546	keystroke	e	n/a
638.938	0.15	1277876	keystroke	d	n/a
639.073	0.09	1278146	keystroke	Key.space	n/a
639.778	0.12	1279556	keystroke	c	n/a
639.913	0.0145	1279826	keystroke	h	n/a
640.003	0.0745	1280006	keystroke	r	n/a
640.1225	0.06	1280245	keystroke	i	n/a
640.3025	0.09	1280605	keystroke	s	n/a
641.278	0.06	1282556	keystroke	Key.space	n/a
641.413	0.1045	1282826	keystroke	c	n/a
642.5075	0.105	1285015	keystroke	a	n/a
642.6275	0.075	1285255	keystroke	l	n/a
642.7785	0.089	1285557	keystroke	l	n/a
642.8825	0.075	1285765	keystroke	s	n/a
643.5125	0.06	1287025	keystroke	Key.enter	n/a
643.578	7.2565	1287156	prompt	n/a	closer sticks tale reduced\n
644.4275	0.075	1288855	keystroke	c	n/a
644.5185	0.074	1289037	keystroke	l	n/a
644.6835	0.074	1289367	keystroke	o	n/a
644.848	0.045	1289696	keystroke	s	n/a
644.998	0.105	1289996	keystroke	e	n/a
645.253	0.15	1290506	keystroke	r	n/a
645.373	0.105	1290746	keystroke	Key.space	n/a
645.763	0.09	1291526	keystroke	s	n/a
646.063	0.06	1292126	keystroke	t	n/a
646.258	0.075	1292516	keystroke	i	n/a
646.363	0.075	1292726	keystroke	c	n/a
646.573	0.06	1293146	keystroke	k	n/a
646.693	0.12	1293386	keystroke	s	n/a
646.903	0.105	1293806	keystroke	Key.space	n/a
647.728	0.075	1295456	keystroke	t	n/a
647.938	0.09	1295876	keystroke	a	n/a
648.133	0.06	1296266	keystroke	l	n/a
648.253	0.12	1296506	keystroke	e	n/a
648.403	0.105	1296806	keystroke	Key.space	n/a
649.1235	0.044	1298247	keystroke	r	n/a
649.2425	0.09	1298485	keystroke	e	n/a
649.4825	0.091	1298965	keystroke	d	n/a
649.6025	0.075	1299205	keystroke	u	n/a
649.8735	0.075	1299747	keystroke	c	n/a
649.9485	0.059	1299897	keystroke	e	n/a
650.1125	0.09	1300225	keystroke	d	n/a
650.7735	0.059	1301547	keystroke	Key.enter	n/a
650.8375	13.3025	1301675	prompt	n/a	beam insider comic violations\n
652.4075	0.075	1304815	keystroke	b	n/a
652.4675	0.075	1304935	keystroke	e	n/a
652.6775	0.105	1305355	keystroke	a	n/a
652.7525	0.075	1305505	keystroke	m	n/a
652.932	0.12	1305864	keystroke	Key.space	n/a
653.458	0.06	1306916	keystroke	i	n/a
653.608	0.09	1307216	keystroke	n	n/a
653.758	0.075	1307516	keystroke	s	n/a
653.863	0.074	1307726	keystroke	i	n/a
654.4475	0.06	1308895	keystroke	d	n/a
654.5675	0.075	1309135	keystroke	e	n/a
654.7025	0.12	1309405	keystroke	r	n/a
654.7925	0.105	1309585	keystroke	Key.space	n/a
655.0625	0.09	1310125	keystroke	c	n/a
655.1375	0.075	1310275	keystroke	o	n/a
655.4675	0.075	1310935	keystroke	m	n/a
655.6775	0.075	1311355	keystroke	i	n/a
656.2625	0.0905	1312525	keystroke	v	n/a
656.413	0.09	1312826	keystroke	Key.space	n/a
657.0725	0.075	1314145	keystroke	v	n/a
657.1925	0.075	1314385	keystroke	i	n/a
657.3725	0.075	1314745	keystroke	o	n/a
657.568	0.09	1315136	keystroke	l	n/a
657.9725	0.06	1315945	keystroke	Key.backspace	n/a
658.1225	0.075	1316245	keystroke	Key.backspace	n/a
658.332	0.061	1316664	keystroke	Key.backspace	n/a
658.543	0.075	1317086	keystroke	Key.backspace	n/a
658.858	0.075	1317716	keystroke	Key.backspace	n/a
659.2325	0.045	1318465	keystroke	Key.backspace	n/a
659.3685	0.044	1318737	keystroke	c	n/a
659.6525	0.105	1319305	keystroke	Key.space	n/a
660.1485	0.075	1320297	keystroke	v	n/a
660.2525	0.076	1320505	keystroke	i	n/a
660.4025	0.075	1320805	keystroke	o	n/a
660.5385	0.09	1321077	keystroke	a	n/a
660.6135	0.09	1321227	keystroke	l	n/a
661.1375	0.075	1322275	keystroke	Key.backspace	n/a
661.2875	0.045	1322575	keystroke	Key.backspace	n/a
661.6785	0.075	1323357	keystroke	l	n/a
661.798	0.105	1323596	keystroke	a	n/a
662.338	0.074	1324676	keystroke	t	n/a
662.428	0.06	1324856	keystroke	i	n/a
662.578	0.06	1325156	keystroke	o	n/a
662.743	0.075	1325486	keystroke	n	n/a
662.848	0.09	1325696	keystroke	s	n/a
664.0775	0.06	1328155	keystroke	Key.enter	n/a
664.144	7.4505	1328288	prompt	n/a	verse admissions leads prep\n
664.9625	0.06	1329925	keystroke	v	n/a
665.0675	0.09	1330135	keystroke	e	n/a
665.2325	0.075	1330465	keystroke	r	n/a
665.3975	0.09	1330795	keystroke	s	n/a
665.5775	0.135	1331155	keystroke	e	n/a
665.6675	0.105	1331335	keystroke	Key.space	n/a
665.9375	0.12	1331875	keystroke	a	n/a
666.3575	0.075	1332715	keystroke	d	n/a
666.4625	0.075	1332925	keystroke	m	n/a
666.6425	0.075	1333285	keystroke	i	n/a
666.7485	0.074	1333497	keystroke	s	n/a
666.9125	0.075	1333825	keystroke	s	n/a
667.0325	0.075	1334065	keystroke	i	n/a
667.2125	0.075	1334425	keystroke	o	n/a
667.4825	0.075	1334965	keystroke	n	n/a
668.2625	0.105	1336525	keystroke	s	n/a
668.4125	0.0905	1336825	keystroke	Key.space	n/a
668.743	0.09	1337486	keystroke	l	n/a
668.863	0.075	1337726	keystroke	e	n/a
669.133	0.105	1338266	keystroke	a	n/a
669.343	0.06	1338686	keystroke	d	n/a
669.523	0.15	1339046	keystroke	s	n/a
669.658	0.105	1339316	keystroke	Key.space	n/a
670.108	0.09	1340216	keystroke	p	n/a
670.213	0.075	1340426	keystroke	r	n/a
670.378	0.09	1340756	keystroke	e	n/a
670.512	0.061	1341024	keystroke	p	n/a
671.532	0.06	1343064	keystroke	Key.enter	n/a
671.598	8.5615	1343196	prompt	n/a	dicke christ invision riding\n
672.958	0.06	1345916	keystroke	d	n/a
673.0625	0.06	1346125	keystroke	i	n/a
673.1825	0.075	1346365	keystroke	c	n/a
673.3325	0.06	1346665	keystroke	k	n/a
673.4375	0.09	1346875	keystroke	e	n/a
673.9775	0.045	1347955	keystroke	Key.space	n/a
674.2775	0.105	1348555	keystroke	c	n/a
674.4425	0.09	1348885	keystroke	h	n/a
675.1625	0.06	1350325	keystroke	r	n/a
675.3125	0.09	1350625	keystroke	i	n/a
675.9275	0.06	1351855	keystroke	s	n/a
676.0175	0.09	1352035	keystroke	t	n/a
676.1675	0.105	1352335	keystroke	Key.space	n/a
676.663	0.075	1353326	keystroke	i	n/a
676.797	0.105	1353594	keystroke	n	n/a
677.428	0.09	1354856	keystroke	v	n/a
677.532	0.061	1355064	keystroke	i	n/a
677.668	0.104	1355336	keystroke	s	n/a
677.788	0.06	1355576	keystroke	i	n/a
677.938	0.089	1355876	keystroke	o	n/a
678.147	0.09	1356294	keystroke	n	n/a
678.268	0.089	1356536	keystroke	Key.space	n/a
678.733	0.06	1357466	keystroke	r	n/a
678.837	0.045	1357674	keystroke	i	n/a
678.927	0.075	1357854	keystroke	d	n/a
679.063	0.075	1358126	keystroke	i	n/a
679.213	0.105	1358426	keystroke	n	n/a
679.408	0.075	1358816	keystroke	g	n/a
680.097	0.06	1360194	keystroke	Key.enter	n/a
680.1645	9.1005	1360329	prompt	n/a	australian quote names ballot\n
681.928	0.105	1363856	keystroke	a	n/a
682.048	0.075	1364096	keystroke	u	n/a
682.123	0.09	1364246	keystroke	s	n/a
682.618	0.06	1365236	keystroke	t	n/a
682.753	0.075	1365506	keystroke	r	n/a
682.948	0.105	1365896	keystroke	a	n/a
683.038	0.105	1366076	keystroke	l	n/a
683.263	0.075	1366526	keystroke	i	n/a
683.368	0.105	1366736	keystroke	a	n/a
683.488	0.09	1366976	keystroke	n	n/a
683.623	0.09	1367246	keystroke	Key.space	n/a
684.553	0.09	1369106	keystroke	q	n/a
684.628	0.09	1369256	keystroke	u	n/a
684.838	0.09	1369676	keystroke	o	n/a
685.408	0.09	1370816	keystroke	t	n/a
685.513	0.12	1371026	keystroke	e	n/a
685.723	0.075	1371446	keystroke	Key.space	n/a
686.413	0.045	1372826	keystroke	n	n/a
686.503	0.075	1373006	keystroke	a	n/a
686.593	0.09	1373186	keystroke	m	n/a
686.713	0.09	1373426	keystroke	e	n/a
686.908	0.12	1373816	keystroke	s	n/a
687.013	0.105	1374026	keystroke	Key.space	n/a
687.328	0.09	1374656	keystroke	b	n/a
687.508	0.09	1375016	keystroke	a	n/a
687.628	0.06	1375256	keystroke	l	n/a
687.748	0.075	1375496	keystroke	l	n/a
687.928	0.075	1375856	keystroke	o	n/a
688.078	0.09	1376156	keystroke	t	n/a
689.188	0.075	1378376	keystroke	Key.enter	n/a
689.2675	9.972	1378535	prompt	n/a	valued mystery exactly baths\n
690.298	0.075	1380596	keystroke	v	n/a
690.418	0.09	1380836	keystroke	a	n/a
690.553	0.075	1381106	keystroke	l	n/a
690.778	0.075	1381556	keystroke	u	n/a
690.898	0.0445	1381796	keystroke	e	n/a
691.063	0.12	1382126	keystroke	d	n/a
691.198	0.105	1382396	keystroke	Key.space	n/a
691.693	0.075	1383386	keystroke	m	n/a
691.918	0.075	1383836	keystroke	y	n/a
692.008	0.105	1384016	keystroke	s	n/a
692.2025	0.075	1384405	keystroke	t	n/a
692.3225	0.09	1384645	keystroke	e	n/a
692.5175	0.06	1385035	keystroke	r	n/a
693.3125	0.06	1386625	keystroke	y	n/a
693.4175	0.09	1386835	keystroke	Key.space	n/a
694.9625	0.045	1389925	keystroke	e	n/a
695.1275	0.09	1390255	keystroke	x	n/a
695.5475	0.075	1391095	keystroke	a	n/a
695.6525	0.09	1391305	keystroke	c	n/a
696.1025	0.06	1392205	keystroke	t	n/a
696.2375	0.075	1392475	keystroke	l	n/a
696.4925	0.06	1392985	keystroke	y	n/a
696.7025	0.105	1393405	keystroke	Key.space	n/a
697.2875	0.075	1394575	keystroke	b	n/a
697.3925	0.09	1394785	keystroke	a	n/a
697.5875	0.0605	1395175	keystroke	t	n/a
697.753	0.075	1395506	keystroke	h	n/a
697.843	0.075	1395686	keystroke	s	n/a
699.178	0.06	1398356	keystroke	Key.enter	n/a
699.2435	11.0055	1398487	prompt	n/a	butts surgical gang discussed\n
700.273	0.06	1400546	keystroke	b	n/a
700.438	0.075	1400876	keystroke	u	n/a
700.573	0.045	1401146	keystroke	t	n/a
700.693	0.075	1401386	keystroke	t	n/a
700.933	0.12	1401866	keystroke	s	n/a
701.083	0.135	1402166	keystroke	Key.space	n/a
701.818	0.075	1403636	keystroke	s	n/a
701.953	0.06	1403906	keystroke	u	n/a
702.178	0.06	1404356	keystroke	r	n/a
703.5125	0.06	1407025	keystroke	g	n/a
703.6175	0.075	1407235	keystroke	i	n/a
703.7225	0.09	1407445	keystroke	c	n/a
703.9025	0.075	1407805	keystroke	a	n/a
704.0525	0.06	1408105	keystroke	l	n/a
704.2325	0.075	1408465	keystroke	Key.space	n/a
704.6975	0.075	1409395	keystroke	f	n/a
704.7875	0.09	1409575	keystroke	a	n/a
705.4025	0.09	1410805	keystroke	Key.backspace	n/a
705.6425	0.075	1411285	keystroke	Key.backspace	n/a
705.7475	0.075	1411495	keystroke	g	n/a
705.9875	0.09	1411975	keystroke	a	n/a
706.1675	0.09	1412335	keystroke	n	n/a
706.7385	0.074	1413477	keystroke	g	n/a
706.8725	0.1055	1413745	keystroke	Key.space	n/a
707.758	0.06	1415516	keystroke	d	n/a
707.863	0.075	1415726	keystroke	i	n/a
707.968	0.09	1415936	keystroke	s	n/a
708.373	0.075	1416746	keystroke	c	n/a
708.523	0.075	1417046	keystroke	u	n/a
708.748	0.075	1417496	keystroke	s	n/a
708.928	0.06	1417856	keystroke	s	n/a
709.108	0.06	1418216	keystroke	e	n/a
709.273	0.09	1418546	keystroke	d	n/a
710.173	0.075	1420346	keystroke	Key.enter	n/a
710.2525	10.242	1420505	prompt	n/a	munich shopzilla clear austria\n
711.193	0.075	1422386	keystroke	m	n/a
711.403	0.06	1422806	keystroke	u	n/a
711.553	0.105	1423106	keystroke	n	n/a
711.733	0.09	1423466	keystroke	i	n/a
711.838	0.075	1423676	keystroke	c	n/a
711.943	0.075	1423886	keystroke	h	n/a
712.498	0.105	1424996	keystroke	Key.space	n/a
712.9775	0.0755	1425955	keystroke	s	n/a
713.0675	0.09	1426135	keystroke	h	n/a
713.2925	0.075	1426585	keystroke	o	n/a
713.6975	0.075	1427395	keystroke	p	n/a
714.4925	0.075	1428985	keystroke	z	n/a
714.5825	0.075	1429165	keystroke	i	n/a
714.8075	0.06	1429615	keystroke	l	n/a
714.9425	0.06	1429885	keystroke	l	n/a
715.0325	0.105	1430065	keystroke	a	n/a
715.2425	0.075	1430485	keystroke	Key.space	n/a
716.052	0.076	1432104	keystroke	c	n/a
716.158	0.089	1432316	keystroke	l	n/a
716.262	0.076	1432524	keystroke	e	n/a
716.458	0.12	1432916	keystroke	a	n/a
716.742	0.061	1433484	keystroke	r	n/a
717.388	0.119	1434776	keystroke	Key.space	n/a
717.673	0.104	1435346	keystroke	a	n/a
717.822	0.091	1435644	keystroke	u	n/a
717.927	0.091	1435854	keystroke	s	n/a
718.182	0.061	1436364	keystroke	t	n/a
718.348	0.06	1436696	keystroke	r	n/a
718.438	0.075	1436876	keystroke	i	n/a
720.4325	0.06	1440865	keystroke	Key.enter	n/a
720.499	20.9205	1440998	prompt	n/a	rochester utility drivers combines\n
722.955	0.013	1445910	keystroke	r	n/a
722.983	0.075	1445966	keystroke	o	n/a
723.103	0.105	1446206	keystroke	c	n/a
723.298	0.105	1446596	keystroke	h	n/a
723.418	0.075	1446836	keystroke	e	n/a
723.6125	0.09	1447225	keystroke	s	n/a
723.7175	0.075	1447435	keystroke	t	n/a
723.9135	0.075	1447827	keystroke	r	n/a
724.0175	0.075	1448035	keystroke	e	n/a
724.3625	0.06	1448725	keystroke	Key.backspace	n/a
724.6025	0.075	1449205	keystroke	Key.backspace	n/a
724.6925	0.075	1449385	keystroke	e	n/a
724.8725	0.091	1449745	keystroke	r	n/a
726.1625	0.09	1452325	keystroke	Key.space	n/a
726.4925	0.06	1452985	keystroke	u	n/a
726.8525	0.045	1453705	keystroke	t	n/a
727.063	0.06	1454126	keystroke	i	n/a
727.228	0.075	1454456	keystroke	l	n/a
727.423	0.075	1454846	keystroke	i	n/a
727.633	0.06	1455266	keystroke	y	n/a
729.448	0.06	1458896	keystroke	Key.backspace	n/a
729.748	0.0445	1459496	keystroke	i	n/a
731.4275	0.09	1462855	keystroke	Key.backspace	n/a
734.6395	0.001	1469279	keystroke	t	n/a
734.6535	0.06	1469307	keystroke	y	n/a
735.1785	0.089	1470357	keystroke	Key.space	n/a
735.598	0.075	1471196	keystroke	d	n/a
735.718	0.075	1471436	keystroke	r	n/a
736.003	0.06	1472006	keystroke	i	n/a
736.243	0.06	1472486	keystroke	v	n/a
736.318	0.075	1472636	keystroke	e	n/a
736.483	0.075	1472966	keystroke	r	n/a
736.723	0.12	1473446	keystroke	s	n/a
736.828	0.09	1473656	keystroke	Key.space	n/a
737.398	0.09	1474796	keystroke	c	n/a
737.833	0.06	1475666	keystroke	o	n/a
737.983	0.09	1475966	keystroke	m	n/a
738.223	0.075	1476446	keystroke	b	n/a
738.373	0.075	1476746	keystroke	i	n/a
738.538	0.09	1477076	keystroke	n	n/a
738.613	0.075	1477226	keystroke	e	n/a
738.808	0.12	1477616	keystroke	s	n/a
738.898	0.105	1477796	keystroke	Key.space	n/a
739.558	0.045	1479116	keystroke	Key.backspace	n/a
741.3275	0.09	1482655	keystroke	Key.enter	n/a
741.4225	19.572	1482845	prompt	n/a	surname rights handheld facilitate\n
742.5875	0.09	1485175	keystroke	s	n/a
742.7225	0.03	1485445	keystroke	u	n/a
742.8125	0.075	1485625	keystroke	r	n/a
742.9025	0.075	1485805	keystroke	n	n/a
743.0835	0.075	1486167	keystroke	m	n/a
743.1585	0.104	1486317	keystroke	a	n/a
743.3675	0.06	1486735	keystroke	n	n/a
743.4425	0.105	1486885	keystroke	e	n/a
744.1925	0.075	1488385	keystroke	=	n/a
744.3585	0.075	1488717	keystroke	=	n/a
745.0025	0.09	1490005	keystroke	Key.backspace	n/a
745.2125	0.075	1490425	keystroke	Key.backspace	n/a
745.3625	0.075	1490725	keystroke	Key.backspace	n/a
745.5425	0.06	1491085	keystroke	Key.backspace	n/a
745.7225	0.075	1491445	keystroke	Key.backspace	n/a
745.9025	0.075	1491805	keystroke	Key.backspace	n/a
746.4425	0.045	1492885	keystroke	Key.backspace	n/a
748.9505	0.012	1497901	keystroke	n	n/a
748.9925	0.136	1497985	keystroke	a	n/a
749.1125	0.075	1498225	keystroke	m	n/a
749.2335	0.15	1498467	keystroke	e	n/a
749.8175	0.105	1499635	keystroke	Key.space	n/a
750.3585	0.089	1500717	keystroke	r	n/a
750.4175	0.091	1500835	keystroke	i	n/a
750.6885	0.059	1501377	keystroke	g	n/a
750.7925	0.091	1501585	keystroke	h	n/a
750.8975	0.075	1501795	keystroke	t	n/a
751.1835	0.12	1502367	keystroke	d	n/a
751.3175	0.12	1502635	keystroke	Key.space	n/a
752.0975	0.075	1504195	keystroke	Key.backspace	n/a
752.308	0.075	1504616	keystroke	Key.backspace	n/a
752.413	0.135	1504826	keystroke	s	n/a
752.518	0.105	1505036	keystroke	Key.space	n/a
753.088	0.075	1506176	keystroke	h	n/a
753.178	0.135	1506356	keystroke	a	n/a
753.629	0.074	1507258	keystroke	n	n/a
754.828	0.045	1509656	keystroke	d	n/a
755.743	0.075	1511486	keystroke	h	n/a
755.863	0.075	1511726	keystroke	e	n/a
756.043	0.09	1512086	keystroke	k	n/a
756.268	0.075	1512536	keystroke	d	n/a
756.5375	0.06	1513075	keystroke	Key.backspace	n/a
756.7475	0.09	1513495	keystroke	Key.backspace	n/a
757.348	0.06	1514696	keystroke	l	n/a
757.453	0.12	1514906	keystroke	d	n/a
757.528	0.135	1515056	keystroke	Key.space	n/a
758.683	0.06	1517366	keystroke	f	n/a
758.833	0.09	1517666	keystroke	a	n/a
759.013	0.075	1518026	keystroke	c	n/a
759.118	0.06	1518236	keystroke	i	n/a
759.298	0.075	1518596	keystroke	l	n/a
759.508	0.06	1519016	keystroke	i	n/a
759.733	0.075	1519466	keystroke	t	n/a
759.809	0.104	1519618	keystroke	a	n/a
759.913	0.09	1519826	keystroke	t	n/a
760.033	0.09	1520066	keystroke	e	n/a
760.933	0.06	1521866	keystroke	Key.enter	n/a
760.9975	17.862	1521995	prompt	n/a	earthquake concentrations campbell threats\n
762.148	0.06	1524296	keystroke	e	n/a
762.343	0.09	1524686	keystroke	a	n/a
762.508	0.075	1525016	keystroke	r	n/a
762.688	0.075	1525376	keystroke	t	n/a
762.883	0.0755	1525766	keystroke	h	n/a
764.0385	0.075	1528077	keystroke	q	n/a
764.1435	0.09	1528287	keystroke	u	n/a
764.3085	0.105	1528617	keystroke	a	n/a
764.6085	0.09	1529217	keystroke	k	n/a
764.6985	0.149	1529397	keystroke	e	n/a
764.8035	0.105	1529607	keystroke	Key.space	n/a
765.553	0.09	1531106	keystroke	c	n/a
765.658	0.075	1531316	keystroke	o	n/a
765.8085	0.104	1531617	keystroke	n	n/a
765.9285	0.075	1531857	keystroke	e	n/a
766.9175	0.091	1533835	keystroke	Key.backspace	n/a
767.1725	0.076	1534345	keystroke	c	n/a
767.7735	0.075	1535547	keystroke	e	n/a
767.8335	0.105	1535667	keystroke	n	n/a
768.0885	0.06	1536177	keystroke	t	n/a
768.2225	0.106	1536445	keystroke	r	n/a
768.3135	0.09	1536627	keystroke	a	n/a
768.643	0.045	1537286	keystroke	t	n/a
768.748	0.075	1537496	keystroke	i	n/a
769.843	0.06	1539686	keystroke	o	n/a
770.023	0.075	1540046	keystroke	n	n/a
770.113	0.15	1540226	keystroke	s	n/a
770.248	0.09	1540496	keystroke	Key.space	n/a
771.658	0.06	1543316	keystroke	c	n/a
771.853	0.09	1543706	keystroke	a	n/a
771.973	0.09	1543946	keystroke	m	n/a
772.183	0.0745	1544366	keystroke	p	n/a
773.9375	0.091	1547875	keystroke	b	n/a
774.0285	0.0595	1548057	keystroke	e	n/a
774.208	0.06	1548416	keystroke	l	n/a
774.358	0.075	1548716	keystroke	l	n/a
774.463	0.105	1548926	keystroke	Key.space	n/a
775.003	0.09	1550006	keystroke	t	n/a
775.198	0.075	1550396	keystroke	h	n/a
775.318	0.09	1550636	keystroke	e	n/a
775.693	0.075	1551386	keystroke	=	n/a
775.783	0.06	1551566	keystroke	r	n/a
775.948	0.09	1551896	keystroke	e	n/a
776.173	0.09	1552346	keystroke	Key.backspace	n/a
776.368	0.075	1552736	keystroke	Key.backspace	n/a
776.533	0.09	1553066	keystroke	Key.backspace	n/a
776.8625	0.075	1553725	keystroke	Key.backspace	n/a
776.9825	0.105	1553965	keystroke	r	n/a
777.0885	0.104	1554177	keystroke	e	n/a
777.8975	0.09	1555795	keystroke	a	n/a
778.0475	0.075	1556095	keystroke	t	n/a
778.1375	0.075	1556275	keystroke	s	n/a
778.8275	0.03	1557655	keystroke	Key.enter	n/a
778.8625	9.822	1557725	prompt	n/a	exploring glance components line\n
780.1325	0.075	1560265	keystroke	e	n/a
780.3875	0.075	1560775	keystroke	x	n/a
780.5225	0.075	1561045	keystroke	p	n/a
780.6575	0.105	1561315	keystroke	l	n/a
780.8535	0.075	1561707	keystroke	o	n/a
781.1235	0.059	1562247	keystroke	t	n/a
781.2575	0.09	1562515	keystroke	i	n/a
781.5725	0.09	1563145	keystroke	n	n/a
781.7675	0.105	1563535	keystroke	g	n/a
782.0075	0.09	1564015	keystroke	Key.space	n/a
782.6675	0.075	1565335	keystroke	g	n/a
783.2075	0.075	1566415	keystroke	l	n/a
783.3425	0.075	1566685	keystroke	a	n/a
783.4475	0.09	1566895	keystroke	n	n/a
783.5975	0.075	1567195	keystroke	c	n/a
783.8225	0.106	1567645	keystroke	e	n/a
784.3175	0.061	1568635	keystroke	Key.space	n/a
784.4975	0.09	1568995	keystroke	c	n/a
784.5885	0.074	1569177	keystroke	o	n/a
784.7675	0.106	1569535	keystroke	m	n/a
785.7285	0.075	1571457	keystroke	p	n/a
785.8925	0.091	1571785	keystroke	o	n/a
786.1325	0.075	1572265	keystroke	n	n/a
786.2375	0.105	1572475	keystroke	e	n/a
786.9735	0.0745	1573947	keystroke	n	n/a
787.078	0.06	1574156	keystroke	t	n/a
787.318	0.12	1574636	keystroke	s	n/a
787.408	0.12	1574816	keystroke	Key.space	n/a
787.543	0.075	1575086	keystroke	l	n/a
787.783	0.075	1575566	keystroke	i	n/a
787.948	0.09	1575896	keystroke	n	n/a
788.023	0.075	1576046	keystroke	e	n/a
788.608	0.075	1577216	keystroke	Key.enter	n/a
788.688	12.1165	1577376	prompt	n/a	editor seconds partnership tones\n
789.538	0.06	1579076	keystroke	e	n/a
789.703	0.09	1579406	keystroke	d	n/a
789.808	0.075	1579616	keystroke	i	n/a
789.988	0.075	1579976	keystroke	t	n/a
790.123	0.075	1580246	keystroke	o	n/a
790.393	0.09	1580786	keystroke	r	n/a
790.558	0.075	1581116	keystroke	Key.space	n/a
791.2325	0.106	1582465	keystroke	s	n/a
791.4285	0.059	1582857	keystroke	e	n/a
791.6075	0.105	1583215	keystroke	c	n/a
791.6975	0.06	1583395	keystroke	o	n/a
791.8325	0.09	1583665	keystroke	n	n/a
791.9675	0.09	1583935	keystroke	d	n/a
792.2675	0.12	1584535	keystroke	a	n/a
792.3725	0.09	1584745	keystroke	s	n/a
793.6625	0.09	1587325	keystroke	Key.backspace	n/a
793.8575	0.09	1587715	keystroke	Key.backspace	n/a
793.9625	0.105	1587925	keystroke	s	n/a
794.1875	0.09	1588375	keystroke	Key.space	n/a
794.9225	0.09	1589845	keystroke	p	n/a
795.0275	0.09	1590055	keystroke	a	n/a
795.2525	0.075	1590505	keystroke	t	n/a
795.4625	0.06	1590925	keystroke	r	n/a
795.9725	0.075	1591945	keystroke	Key.backspace	n/a
796.1075	0.09	1592215	keystroke	Key.backspace	n/a
796.1675	0.075	1592335	keystroke	r	n/a
796.4375	0.075	1592875	keystroke	t	n/a
796.7235	0.074	1593447	keystroke	n	n/a
796.8275	0.09	1593655	keystroke	e	n/a
797.083	0.09	1594166	keystroke	r	n/a
797.6685	0.105	1595337	keystroke	s	n/a
797.7585	0.105	1595517	keystroke	h	n/a
797.9535	0.09	1595907	keystroke	i	n/a
798.1935	0.06	1596387	keystroke	p	n/a
798.9735	0.09	1597947	keystroke	Key.space	n/a
799.2885	0.06	1598577	keystroke	t	n/a
799.3935	0.06	1598787	keystroke	o	n/a
799.5585	0.075	1599117	keystroke	n	n/a
799.6035	0.075	1599207	keystroke	e	n/a
799.7685	0.09	1599537	keystroke	s	n/a
800.743	0.06	1601486	keystroke	Key.enter	n/a
800.808	23.592	1601616	prompt	n/a	warning examinations enhancements african\n
801.868	0.075	1603736	keystroke	w	n/a
802.063	0.12	1604126	keystroke	a	n/a
802.348	0.075	1604696	keystroke	r	n/a
802.618	0.075	1605236	keystroke	n	n/a
802.753	0.09	1605506	keystroke	i	n/a
802.918	0.105	1605836	keystroke	n	n/a
803.038	0.075	1606076	keystroke	g	n/a
803.233	0.075	1606466	keystroke	Key.space	n/a
803.518	0.06	1607036	keystroke	e	n/a
804.103	0.1045	1608206	keystroke	x	n/a
804.2225	0.135	1608445	keystroke	a	n/a
804.3275	0.105	1608655	keystroke	m	n/a
804.5075	0.075	1609015	keystroke	i	n/a
804.6735	0.089	1609347	keystroke	n	n/a
804.8375	0.09	1609675	keystroke	i	n/a
805.4525	0.075	1610905	keystroke	Key.backspace	n/a
805.5725	0.06	1611145	keystroke	t	n/a
805.8875	0.0755	1611775	keystroke	Key.backspace	n/a
805.9775	0.09	1611955	keystroke	a	n/a
806.2185	0.075	1612437	keystroke	t	n/a
806.3085	0.09	1612617	keystroke	i	n/a
806.4435	0.105	1612887	keystroke	o	n/a
806.6385	0.075	1613277	keystroke	n	n/a
806.7435	0.1495	1613487	keystroke	s	n/a
806.908	0.09	1613816	keystroke	Key.space	n/a
808.288	0.075	1616576	keystroke	e	n/a
808.378	0.09	1616756	keystroke	n	n/a
808.768	0.06	1617536	keystroke	h	n/a
808.874	0.119	1617748	keystroke	a	n/a
809.293	0.045	1618586	keystroke	c	n/a
809.368	0.09	1618736	keystroke	e	n/a
809.548	0.09	1619096	keystroke	m	n/a
809.683	0.105	1619366	keystroke	e	n/a
809.803	0.075	1619606	keystroke	n	n/a
809.938	0.09	1619876	keystroke	t	n/a
810.268	0.09	1620536	keystroke	s	n/a
811.123	0.09	1622246	keystroke	Key.space	n/a
811.393	0.09	1622786	keystroke	a	n/a
811.603	0.0755	1623206	keystroke	f	n/a
811.7375	0.105	1623475	keystroke	r	n/a
811.8575	0.091	1623715	keystroke	i	n/a
812.0675	0.075	1624135	keystroke	c	n/a
812.2175	0.106	1624435	keystroke	a	n/a
812.3235	0.074	1624647	keystroke	n	n/a
815.2805	0.001	1630561	keystroke	Key.backspace	n/a
815.3525	0.075	1630705	keystroke	Key.backspace	n/a
815.5625	0.06	1631125	keystroke	Key.backspace	n/a
815.7425	0.075	1631485	keystroke	Key.backspace	n/a
815.9375	0.09	1631875	keystroke	Key.backspace	n/a
816.1175	0.06	1632235	keystroke	Key.backspace	n/a
816.298	0.06	1632596	keystroke	Key.backspace	n/a
816.4775	0.06	1632955	keystroke	Key.backspace	n/a
816.6425	0.06	1633285	keystroke	Key.backspace	n/a
816.7925	0.075	1633585	keystroke	Key.backspace	n/a
816.9725	0.0755	1633945	keystroke	Key.backspace	n/a
817.168	0.075	1634336	keystroke	Key.backspace	n/a
817.378	0.075	1634756	keystroke	Key.backspace	n/a
817.933	0.045	1635866	keystroke	Key.backspace	n/a
819.088	0.06	1638176	keystroke	Key.backspace	n/a
820.783	0.075	1641566	keystroke	n	n/a
821.068	0.06	1642136	keystroke	c	n/a
821.158	0.09	1642316	keystroke	e	n/a
821.398	0.06	1642796	keystroke	m	n/a
821.503	0.06	1643006	keystroke	e	n/a
821.578	0.075	1643156	keystroke	n	n/a
821.803	0.06	1643606	keystroke	t	n/a
821.923	0.09	1643846	keystroke	s	n/a
822.4485	0.105	1644897	keystroke	Key.space	n/a
822.6135	0.09	1645227	keystroke	a	n/a
822.7935	0.075	1645587	keystroke	f	n/a
822.958	0.0755	1645916	keystroke	r	n/a
823.0335	0.075	1646067	keystroke	i	n/a
823.2585	0.075	1646517	keystroke	c	n/a
823.3635	0.075	1646727	keystroke	a	n/a
823.4985	0.06	1646997	keystroke	n	n/a
824.3235	0.075	1648647	keystroke	Key.enter	n/a
824.4035	8.187	1648807	prompt	n/a	advised message stolen fake\n
825.2985	0.075	1650597	keystroke	a	n/a
825.4785	0.075	1650957	keystroke	d	n/a
825.8985	0.06	1651797	keystroke	v	n/a
826.0035	0.09	1652007	keystroke	i	n/a
826.1385	0.09	1652277	keystroke	s	n/a
826.3335	0.06	1652667	keystroke	e	n/a
826.5435	0.09	1653087	keystroke	s	n/a
826.8135	0.075	1653627	keystroke	Key.space	n/a
826.9035	0.105	1653807	keystroke	m	n/a
827.0235	0.075	1654047	keystroke	e	n/a
827.2035	0.075	1654407	keystroke	s	n/a
827.3685	0.09	1654737	keystroke	s	n/a
827.4435	0.12	1654887	keystroke	a	n/a
827.7135	0.045	1655427	keystroke	f	n/a
827.8335	0.075	1655667	keystroke	e	n/a
828.2385	0.075	1656477	keystroke	Key.backspace	n/a
828.5235	0.075	1657047	keystroke	Key.backspace	n/a
829.0635	0.075	1658127	keystroke	g	n/a
829.1235	0.105	1658247	keystroke	e	n/a
829.1985	0.075	1658397	keystroke	Key.space	n/a
829.4085	0.09	1658817	keystroke	s	n/a
829.6485	0.075	1659297	keystroke	t	n/a
829.7685	0.075	1659537	keystroke	o	n/a
829.9335	0.09	1659867	keystroke	l	n/a
830.0535	0.09	1660107	keystroke	e	n/a
830.2485	0.075	1660497	keystroke	n	n/a
830.6835	0.09	1661367	keystroke	Key.space	n/a
831.1185	0.09	1662237	keystroke	f	n/a
831.2235	0.105	1662447	keystroke	a	n/a
831.6585	0.075	1663317	keystroke	k	n/a
831.7635	0.09	1663527	keystroke	e	n/a
832.5285	0.06	1665057	keystroke	Key.enter	n/a
832.593	10.7065	1665186	prompt	n/a	glad paraguay item positions\n
833.728	0.06	1667456	keystroke	g	n/a
833.833	0.075	1667666	keystroke	l	n/a
833.998	0.105	1667996	keystroke	a	n/a
834.223	0.09	1668446	keystroke	d	n/a
834.898	0.075	1669796	keystroke	Key.space	n/a
835.048	0.075	1670096	keystroke	p	n/a
835.138	0.106	1670276	keystroke	a	n/a
835.363	0.075	1670726	keystroke	r	n/a
835.453	0.105	1670906	keystroke	a	n/a
835.828	0.06	1671656	keystroke	g	n/a
836.008	0.06	1672016	keystroke	u	n/a
836.083	0.12	1672166	keystroke	a	n/a
836.383	0.09	1672766	keystroke	y	n/a
837.3285	0.105	1674657	keystroke	Key.space	n/a
837.6735	0.06	1675347	keystroke	i	n/a
837.8085	0.075	1675617	keystroke	t	n/a
838.0935	0.075	1676187	keystroke	e	n/a
838.2285	0.09	1676457	keystroke	m	n/a
838.4985	0.105	1676997	keystroke	Key.space	n/a
838.7085	0.09	1677417	keystroke	p	n/a
838.8735	0.09	1677747	keystroke	o	n/a
839.0085	0.09	1678017	keystroke	s	n/a
839.1435	0.075	1678287	keystroke	i	n/a
839.9085	0.015	1679817	keystroke	t	n/a
840.0285	0.105	1680057	keystroke	i	n/a
841.8435	0.075	1683687	keystroke	o	n/a
842.5185	0.075	1685037	keystroke	n	n/a
842.6085	0.075	1685217	keystroke	s	n/a
843.2385	0.06	1686477	keystroke	Key.enter	n/a
843.303	11.757	1686606	prompt	n/a	producing watt advertise lopez\n
844.588	0.06	1689176	keystroke	p	n/a
844.693	0.075	1689386	keystroke	r	n/a
844.843	0.09	1689686	keystroke	o	n/a
845.293	0.075	1690586	keystroke	d	n/a
845.383	0.09	1690766	keystroke	u	n/a
845.563	0.105	1691126	keystroke	c	n/a
845.683	0.075	1691366	keystroke	i	n/a
845.878	0.09	1691756	keystroke	n	n/a
847.003	0.105	1694006	keystroke	g	n/a
847.123	0.105	1694246	keystroke	Key.space	n/a
848.023	0.075	1696046	keystroke	e	n/a
848.773	0.06	1697546	keystroke	Key.backspace	n/a
848.819	0.1045	1697638	keystroke	w	n/a
849.1185	0.105	1698237	keystroke	a	n/a
849.2985	0.06	1698597	keystroke	t	n/a
849.4035	0.09	1698807	keystroke	t	n/a
849.6435	0.105	1699287	keystroke	Key.space	n/a
850.6035	0.075	1701207	keystroke	a	n/a
850.7985	0.075	1701597	keystroke	d	n/a
851.0985	0.06	1702197	keystroke	v	n/a
851.1735	0.075	1702347	keystroke	e	n/a
851.3685	0.075	1702737	keystroke	r	n/a
851.6385	0.06	1703277	keystroke	t	n/a
851.7435	0.06	1703487	keystroke	i	n/a
851.8935	0.09	1703787	keystroke	s	n/a
852.1185	0.135	1704237	keystroke	e	n/a
852.2385	0.12	1704477	keystroke	Key.space	n/a
852.628	0.09	1705256	keystroke	l	n/a
