onset	duration	sample	value	key	prompt_text
10.721	20.05	21442	prompt	n/a	the quick brown fox jumps over a lazy dog\n
13.4305	0.027	26861	keystroke	t	n/a
13.5325	0.06	27065	keystroke	h	n/a
13.8175	0.075	27635	keystroke	e	n/a
14.7025	0.105	29405	keystroke	Key.space	n/a
15.0475	0.135	30095	keystroke	q	n/a
15.3325	0.075	30665	keystroke	u	n/a
15.5735	0.074	31147	keystroke	i	n/a
15.7825	0.12	31565	keystroke	c	n/a
15.9325	0.075	31865	keystroke	i	n/a
16.0675	0.105	32135	keystroke	Key.space	n/a
16.3375	0.015	32675	keystroke	h	n/a
17.3125	0.075	34625	keystroke	Key.backspace	n/a
17.6275	0.12	35255	keystroke	Key.backspace	n/a
18.0025	0.075	36005	keystroke	Key.backspace	n/a
18.8275	0.075	37655	keystroke	k	n/a
19.1425	0.105	38285	keystroke	Key.space	n/a
19.4125	0.075	38825	keystroke	b	n/a
19.7275	0.09	39455	keystroke	r	n/a
19.9225	0.075	39845	keystroke	o	n/a
20.0575	0.12	40115	keystroke	w	n/a
20.2525	0.06	40505	keystroke	j	n/a
20.2825	0.015	40565	keystroke	n	n/a
20.4025	0.105	40805	keystroke	Key.space	n/a
21.3175	0.06	42635	keystroke	Key.backspace	n/a
21.6625	0.105	43325	keystroke	Key.backspace	n/a
22.0225	0.045	44045	keystroke	Key.backspace	n/a
22.4125	0.06	44825	keystroke	n	n/a
22.9525	0.105	45905	keystroke	Key.space	n/a
23.2225	0.12	46445	keystroke	f	n/a
23.3275	0.105	46655	keystroke	o	n/a
23.6275	0.135	47255	keystroke	x	n/a
23.7925	0.135	47585	keystroke	Key.space	n/a
23.9875	0.075	47975	keystroke	j	n/a
24.1675	0.06	48335	keystroke	u	n/a
24.3475	0.09	48695	keystroke	m	n/a
24.5275	0.105	49055	keystroke	p	n/a
24.7975	0.121	49595	keystroke	s	n/a
25.3075	0.075	50615	keystroke	Key.space	n/a
25.6675	0.105	51335	keystroke	o	n/a
25.8325	0.106	51665	keystroke	v	n/a
26.0575	0.181	52115	keystroke	e	n/a
26.2675	0.121	52535	keystroke	r	n/a
26.4025	0.105	52805	keystroke	Key.space	n/a
27.1525	0.135	54305	keystroke	a	n/a
27.3025	0.105	54605	keystroke	Key.space	n/a
27.5425	0.105	55085	keystroke	l	n/a
27.7085	0.119	55417	keystroke	a	n/a
28.9525	0.135	57905	keystroke	z	n/a
29.1925	0.06	58385	keystroke	y	n/a
29.3275	0.105	58655	keystroke	Key.space	n/a
29.6125	0.135	59225	keystroke	d	n/a
29.7335	0.089	59467	keystroke	o	n/a
30.2435	0.09	60487	keystroke	g	n/a
30.6635	0.104	61327	keystroke	Key.enter	n/a
30.7765	12.144	61553	prompt	n/a	failing interpreted collapse where're\n
31.5635	0.12	63127	keystroke	f	n/a
31.8485	0.135	63697	keystroke	a	n/a
32.0585	0.059	64117	keystroke	i	n/a
32.2375	0.075	64475	keystroke	l	n/a
32.4635	0.03	64927	keystroke	i	n/a
32.6585	0.075	65317	keystroke	n	n/a
32.8085	0.12	65617	keystroke	g	n/a
32.9125	0.121	65825	keystroke	Key.space	n/a
33.1825	0.106	66365	keystroke	i	n/a
33.4375	0.121	66875	keystroke	n	n/a
33.6485	0.1045	67297	keystroke	t	n/a
34.098	0.09	68196	keystroke	e	n/a
34.308	0.09	68616	keystroke	r	n/a
34.488	0.12	68976	keystroke	p	n/a
34.758	0.165	69516	keystroke	r	n/a
34.938	0.12	69876	keystroke	e	n/a
35.133	0.12	70266	keystroke	t	n/a
35.298	0.105	70596	keystroke	e	n/a
35.778	0.105	71556	keystroke	d	n/a
36.423	0.105	72846	keystroke	Key.space	n/a
36.738	0.105	73476	keystroke	c	n/a
36.858	0.045	73716	keystroke	o	n/a
37.038	0.06	74076	keystroke	l	n/a
37.203	0.075	74406	keystroke	l	n/a
37.488	0.15	74976	keystroke	a	n/a
38.223	0.12	76446	keystroke	p	n/a
38.553	0.15	77106	keystroke	s	n/a
38.688	0.15	77376	keystroke	e	n/a
38.898	0.135	77796	keystroke	Key.space	n/a
39.423	0.135	78846	keystroke	w	n/a
39.573	0.06	79146	keystroke	h	n/a
39.783	0.18	79566	keystroke	e	n/a
40.548	0.12	81096	keystroke	r	n/a
40.728	0.09	81456	keystroke	e	n/a
41.178	0.12	82356	keystroke	'	n/a
42.138	0.135	84276	keystroke	r	n/a
42.213	0.135	84426	keystroke	e	n/a
42.813	0.105	85626	keystroke	Key.enter	n/a
42.9245	11.561	85849	prompt	n/a	identifier gradually brush formerly\n
43.713	0.105	87426	keystroke	i	n/a
43.908	0.045	87816	keystroke	d	n/a
44.343	0.06	88686	keystroke	e	n/a
44.433	0.105	88866	keystroke	n	n/a
44.658	0.09	89316	keystroke	t	n/a
44.778	0.09	89556	keystroke	i	n/a
44.958	0.105	89916	keystroke	f	n/a
45.064	0.089	90128	keystroke	i	n/a
45.228	0.165	90456	keystroke	e	n/a
45.348	0.105	90696	keystroke	r	n/a
45.468	0.105	90936	keystroke	Key.space	n/a
45.678	0.075	91356	keystroke	g	n/a
45.888	0.12	91776	keystroke	r	n/a
46.038	0.06	92076	keystroke	q	n/a
47.658	0.09	95316	keystroke	Key.backspace	n/a
47.899	0.134	95798	keystroke	a	n/a
48.228	0.12	96456	keystroke	d	n/a
48.363	0.06	96726	keystroke	u	n/a
48.858	0.12	97716	keystroke	a	n/a
49.008	0.075	98016	keystroke	l	n/a
49.173	0.045	98346	keystroke	l	n/a
49.353	0.06	98706	keystroke	y	n/a
49.758	0.045	99516	keystroke	Key.space	n/a
49.923	0.09	99846	keystroke	b	n/a
50.133	0.12	100266	keystroke	r	n/a
50.238	0.075	100476	keystroke	u	n/a
50.854	0.119	101708	keystroke	s	n/a
50.988	0.06	101976	keystroke	h	n/a
51.153	0.105	102306	keystroke	Key.space	n/a
51.363	0.075	102726	keystroke	f	n/a
51.453	0.12	102906	keystroke	o	n/a
51.588	0.12	103176	keystroke	r	n/a
51.754	0.059	103508	keystroke	m	n/a
51.918	0.12	103836	keystroke	e	n/a
52.638	0.105	105276	keystroke	r	n/a
52.713	0.09	105426	keystroke	l	n/a
52.953	0.045	105906	keystroke	y	n/a
54.378	0.105	108756	keystroke	Key.enter	n/a
54.4915	9.2045	108983	prompt	n/a	till alias dynamics consultancy\n
55.263	0.09	110526	keystroke	t	n/a
55.413	0.06	110826	keystroke	i	n/a
55.593	0.075	111186	keystroke	l	n/a
55.743	0.091	111486	keystroke	l	n/a
55.893	0.135	111786	keystroke	Key.space	n/a
56.463	0.195	112926	keystroke	a	n/a
57.453	0.09	114906	keystroke	l	n/a
57.633	0.135	115266	keystroke	i	n/a
58.188	0.15	116376	keystroke	a	n/a
58.443	0.12	116886	keystroke	s	n/a
58.623	0.075	117246	keystroke	Key.space	n/a
58.923	0.135	117846	keystroke	d	n/a
59.013	0.06	118026	keystroke	y	n/a
59.238	0.06	118476	keystroke	n	n/a
59.328	0.151	118656	keystroke	a	n/a
59.448	0.075	118896	keystroke	m	n/a
59.568	0.105	119136	keystroke	i	n/a
59.913	0.06	119826	keystroke	c	n/a
60.093	0.12	120186	keystroke	s	n/a
60.228	0.105	120456	keystroke	Key.space	n/a
60.543	0.105	121086	keystroke	c	n/a
60.633	0.12	121266	keystroke	o	n/a
60.723	0.09	121446	keystroke	n	n/a
61.113	0.135	122226	keystroke	s	n/a
61.263	0.046	122526	keystroke	u	n/a
61.428	0.091	122856	keystroke	l	n/a
61.608	0.09	123216	keystroke	t	n/a
62.433	0.135	124866	keystroke	a	n/a
62.523	0.091	125046	keystroke	n	n/a
62.943	0.105	125886	keystroke	c	n/a
63.018	0.09	126036	keystroke	y	n/a
63.603	0.09	127206	keystroke	Key.enter	n/a
63.7015	12.294	127403	prompt	n/a	jimmy channel cycles nepal\n
64.713	0.061	129426	keystroke	j	n/a
64.923	0.075	129846	keystroke	i	n/a
65.163	0.06	130326	keystroke	m	n/a
65.284	0.074	130568	keystroke	m	n/a
65.568	0.061	131136	keystroke	y	n/a
66.154	0.104	132308	keystroke	Key.space	n/a
66.544	0.104	133088	keystroke	c	n/a
66.663	0.061	133326	keystroke	h	n/a
66.768	0.165	133536	keystroke	a	n/a
66.919	0.044	133838	keystroke	n	n/a
67.053	0.06	134106	keystroke	n	n/a
67.158	0.106	134316	keystroke	e	n/a
67.278	0.09	134556	keystroke	l	n/a
67.383	0.105	134766	keystroke	Key.space	n/a
67.548	0.136	135096	keystroke	c	n/a
67.654	0.059	135308	keystroke	y	n/a
67.999	0.075	135998	keystroke	e	n/a
68.868	0.09	137736	keystroke	Key.backspace	n/a
69.259	0.134	138518	keystroke	c	n/a
69.408	0.12	138816	keystroke	l	n/a
69.633	0.0755	139266	keystroke	e	n/a
70.1425	0.135	140285	keystroke	s	n/a
70.4125	0.106	140825	keystroke	Key.space	n/a
70.5935	0.09	141187	keystroke	n	n/a
70.7135	0.119	141427	keystroke	e	n/a
71.8675	0.121	143735	keystroke	p	n/a
73.1885	0.149	146377	keystroke	a	n/a
73.5635	0.104	147127	keystroke	;	n/a
74.5975	0.061	149195	keystroke	Key.backspace	n/a
75.1675	0.075	150335	keystroke	l	n/a
75.9025	0.09	151805	keystroke	Key.enter	n/a
76	8.351	152000	prompt	n/a	ballot restricted folding well\n
76.6975	0.076	153395	keystroke	b	n/a
76.9375	0.135	153875	keystroke	a	n/a
77.1475	0.045	154295	keystroke	l	n/a
77.2825	0.091	154565	keystroke	l	n/a
77.5985	0.09	155197	keystroke	o	n/a
77.9725	0.09	155945	keystroke	t	n/a
78.2275	0.135	156455	keystroke	Key.space	n/a
78.4825	0.181	156965	keystroke	r	n/a
78.5725	0.121	157145	keystroke	e	n/a
78.8125	0.136	157625	keystroke	s	n/a
78.9935	0.105	157987	keystroke	t	n/a
79.2035	0.105	158407	keystroke	r	n/a
79.3235	0.075	158647	keystroke	i	n/a
79.4585	0.105	158917	keystroke	c	n/a
79.6235	0.15	159247	keystroke	t	n/a
79.6975	0.106	159395	keystroke	e	n/a
79.8935	0.09	159787	keystroke	d	n/a
79.9835	0.074	159967	keystroke	Key.space	n/a
80.2235	0.105	160447	keystroke	f	n/a
80.3285	0.075	160657	keystroke	o	n/a
80.5085	0.06	161017	keystroke	l	n/a
80.7035	0.105	161407	keystroke	o	n/a
81.8125	0.076	163625	keystroke	Key.backspace	n/a
82.8925	0.12	165785	keystroke	d	n/a
83.0435	0.12	166087	keystroke	i	n/a
83.1485	0.1045	166297	keystroke	n	n/a
83.2385	0.1195	166477	keystroke	g	n/a
83.343	0.105	166686	keystroke	Key.space	n/a
83.568	0.15	167136	keystroke	w	n/a
83.688	0.135	167376	keystroke	e	n/a
83.853	0.075	167706	keystroke	l	n/a
84.003	0.075	168006	keystroke	l	n/a
84.243	0.105	168486	keystroke	Key.enter	n/a
84.356	8.844	168712	prompt	n/a	missile ratio excellent latin\n
85.023	0.075	170046	keystroke	m	n/a
85.203	0.075	170406	keystroke	i	n/a
85.338	0.075	170676	keystroke	s	n/a
85.488	0.12	170976	keystroke	s	n/a
85.728	0.03	171456	keystroke	i	n/a
85.923	0.12	171846	keystroke	l	n/a
86.148	0.09	172296	keystroke	e	n/a
86.268	0.12	172536	keystroke	Key.space	n/a
86.523	0.09	173046	keystroke	r	n/a
86.628	0.165	173256	keystroke	a	n/a
86.763	0.135	173526	keystroke	t	n/a
86.883	0.09	173766	keystroke	i	n/a
87.018	0.135	174036	keystroke	o	n/a
87.258	0.09	174516	keystroke	n	n/a
88.668	0.105	177336	keystroke	Key.backspace	n/a
89.013	0.09	178026	keystroke	Key.space	n/a
89.928	0.06	179856	keystroke	e	n/a
90.138	0.12	180276	keystroke	x	n/a
90.348	0.09	180696	keystroke	c	n/a
90.543	0.105	181086	keystroke	e	n/a
90.723	0.06	181446	keystroke	l	n/a
90.858	0.06	181716	keystroke	l	n/a
90.963	0.09	181926	keystroke	e	n/a
91.038	0.09	182076	keystroke	n	n/a
91.143	0.06	182286	keystroke	t	n/a
91.233	0.12	182466	keystroke	Key.space	n/a
91.578	0.12	183156	keystroke	l	n/a
91.699	0.149	183398	keystroke	a	n/a
91.953	0.12	183906	keystroke	t	n/a
92.058	0.075	184116	keystroke	i	n/a
92.178	0.09	184356	keystroke	n	n/a
93.078	0.12	186156	keystroke	Key.enter	n/a
93.207	6.953	186414	prompt	n/a	pierre pays any caught\n
94.098	0.12	188196	keystroke	p	n/a
94.353	0.075	188706	keystroke	i	n/a
94.563	0.09	189126	keystroke	e	n/a
94.818	0.06	189636	keystroke	r	n/a
94.968	0.075	189936	keystroke	r	n/a
95.943	0.09	191886	keystroke	e	n/a
96.093	0.135	192186	keystroke	Key.space	n/a
96.499	0.104	192998	keystroke	p	n/a
96.633	0.15	193266	keystroke	a	n/a
96.753	0.075	193506	keystroke	y	n/a
96.948	0.12	193896	keystroke	s	n/a
97.053	0.09	194106	keystroke	Key.space	n/a
97.278	0.135	194556	keystroke	a	n/a
97.398	0.075	194796	keystroke	n	n/a
97.7575	0.09	195515	keystroke	y	n/a
98.898	0.0745	197796	keystroke	Key.space	n/a
99.1235	0.104	198247	keystroke	c	n/a
99.363	0.1495	198726	keystroke	a	n/a
99.4825	0.075	198965	keystroke	u	n/a
99.6475	0.075	199295	keystroke	g	n/a
99.7235	0.089	199447	keystroke	h	n/a
99.8275	0.12	199655	keystroke	t	n/a
100.0675	0.09	200135	keystroke	Key.enter	n/a
100.1655	11.8395	200331	prompt	n/a	listprice affiliates scripts babies\n
101.0885	0.0895	202177	keystroke	l	n/a
101.2835	0.09	202567	keystroke	i	n/a
101.388	0.12	202776	keystroke	s	n/a
101.5385	0.1195	203077	keystroke	t	n/a
101.913	0.1205	203826	keystroke	p	n/a
102.153	0.075	204306	keystroke	r	n/a
102.243	0.0755	204486	keystroke	i	n/a
102.378	0.045	204756	keystroke	c	n/a
102.528	0.105	205056	keystroke	e	n/a
102.6185	0.1045	205237	keystroke	Key.space	n/a
102.933	0.1655	205866	keystroke	a	n/a
106.626	0	213252	keystroke	f	n/a
106.698	0.075	213396	keystroke	f	n/a
106.863	0.045	213726	keystroke	i	n/a
107.043	0.075	214086	keystroke	l	n/a
107.193	0.105	214386	keystroke	i	n/a
107.358	0.15	214716	keystroke	a	n/a
107.493	0.105	214986	keystroke	t	n/a
107.553	0.12	215106	keystroke	e	n/a
107.808	0.12	215616	keystroke	s	n/a
107.943	0.12	215886	keystroke	Key.space	n/a
108.708	0.09	217416	keystroke	s	n/a
108.918	0.09	217836	keystroke	c	n/a
109.188	0.105	218376	keystroke	r	n/a
109.263	0.09	218526	keystroke	i	n/a
109.458	0.105	218916	keystroke	p	n/a
109.578	0.09	219156	keystroke	t	n/a
109.713	0.135	219426	keystroke	s	n/a
110.148	0.12	220296	keystroke	Key.space	n/a
110.658	0.09	221316	keystroke	b	n/a
110.838	0.15	221676	keystroke	a	n/a
111.003	0.075	222006	keystroke	b	n/a
111.168	0.12	222336	keystroke	i	n/a
111.289	0.089	222578	keystroke	e	n/a
111.468	0.135	222936	keystroke	s	n/a
111.858	0.135	223716	keystroke	Key.enter	n/a
112.01	9.075	224020	prompt	n/a	community removable felt secretariat\n
112.683	0.12	225366	keystroke	c	n/a
112.833	0.105	225666	keystroke	o	n/a
113.044	0.044	226088	keystroke	m	n/a
113.178	0.03	226356	keystroke	m	n/a
113.358	0.045	226716	keystroke	u	n/a
113.538	0.09	227076	keystroke	n	n/a
113.673	0.105	227346	keystroke	i	n/a
113.853	0.105	227706	keystroke	t	n/a
113.973	0.045	227946	keystroke	y	n/a
114.123	0.135	228246	keystroke	Key.space	n/a
114.408	0.135	228816	keystroke	r	n/a
114.483	0.135	228966	keystroke	e	n/a
114.693	0.09	229386	keystroke	m	n/a
114.798	0.12	229596	keystroke	o	n/a
114.933	0.15	229866	keystroke	v	n/a
115.098	0.195	230196	keystroke	a	n/a
115.848	0.045	231696	keystroke	b	n/a
115.983	0.105	231966	keystroke	l	n/a
116.133	0.1055	232266	keystroke	e	n/a
116.373	0.105	232746	keystroke	Key.space	n/a
116.808	0.06	233616	keystroke	f	n/a
116.973	0.105	233946	keystroke	e	n/a
117.123	0.105	234246	keystroke	l	n/a
117.993	0.105	235986	keystroke	t	n/a
118.083	0.105	236166	keystroke	Key.space	n/a
118.323	0.105	236646	keystroke	s	n/a
118.623	0.075	237246	keystroke	e	n/a
118.893	0.105	237786	keystroke	c	n/a
119.163	0.165	238326	keystroke	r	n/a
119.253	0.165	238506	keystroke	e	n/a
119.538	0.105	239076	keystroke	t	n/a
119.808	0.195	239616	keystroke	a	n/a
120.093	0.12	240186	keystroke	r	n/a
120.198	0.105	240396	keystroke	i	n/a
120.393	0.15	240786	keystroke	a	n/a
120.513	0.09	241026	keystroke	t	n/a
120.933	0.15	241866	keystroke	Key.enter	n/a
121.09	11.3805	242180	prompt	n/a	closest absorption continually frederick\n
121.818	0.12	243636	keystroke	c	n/a
121.983	0.105	243966	keystroke	l	n/a
122.193	0.09	244386	keystroke	o	n/a
122.343	0.135	244686	keystroke	s	n/a
122.538	0.135	245076	keystroke	e	n/a
122.763	0.135	245526	keystroke	s	n/a
122.9725	0.105	245945	keystroke	t	n/a
123.093	0.105	246186	keystroke	Key.space	n/a
123.513	0.1345	247026	keystroke	a	n/a
123.708	0.0745	247416	keystroke	b	n/a
124.0375	0.12	248075	keystroke	s	n/a
124.1275	0.12	248255	keystroke	o	n/a
124.2625	0.12	248525	keystroke	r	n/a
124.488	0.1045	248976	keystroke	p	n/a
125.1175	0.09	250235	keystroke	i	n/a
126.2425	0.06	252485	keystroke	Key.backspace	n/a
126.6925	0.09	253385	keystroke	t	n/a
126.9475	0.06	253895	keystroke	i	n/a
127.0375	0.135	254075	keystroke	o	n/a
127.1575	0.105	254315	keystroke	n	n/a
127.7425	0.105	255485	keystroke	Key.space	n/a
127.9675	0.105	255935	keystroke	c	n/a
128.0875	0.09	256175	keystroke	o	n/a
128.3125	0.09	256625	keystroke	n	n/a
129.1525	0.075	258305	keystroke	t	n/a
129.2425	0.09	258485	keystroke	i	n/a
129.5725	0.045	259145	keystroke	n	n/a
129.7375	0.06	259475	keystroke	u	n/a
129.8725	0.15	259745	keystroke	a	n/a
129.9775	0.03	259955	keystroke	l	n/a
130.0825	0.09	260165	keystroke	l	n/a
130.2785	0.044	260557	keystroke	y	n/a
130.3675	0.12	260735	keystroke	Key.space	n/a
130.8175	0.09	261635	keystroke	f	n/a
131.0575	0.135	262115	keystroke	r	n/a
131.1475	0.09	262295	keystroke	e	n/a
131.3575	0.075	262715	keystroke	d	n/a
131.5525	0.075	263105	keystroke	e	n/a
131.8525	0.105	263705	keystroke	r	n/a
131.9725	0.03	263945	keystroke	i	n/a
132.1225	0.09	264245	keystroke	c	n/a
132.1825	0.075	264365	keystroke	k	n/a
132.3625	0.105	264725	keystroke	Key.enter	n/a
132.476	11.409	264952	prompt	n/a	websites lessons lenses wallpapers\n
133.0675	0.09	266135	keystroke	w	n/a
133.2185	0.104	266437	keystroke	e	n/a
133.3525	0.075	266705	keystroke	b	n/a
133.5625	0.06	267125	keystroke	i	n/a
133.6975	0.15	267395	keystroke	s	n/a
133.9675	0.12	267935	keystroke	t	n/a
134.0425	0.135	268085	keystroke	e	n/a
134.2675	0.12	268535	keystroke	s	n/a
134.3725	0.12	268745	keystroke	Key.space	n/a
134.5525	0.12	269105	keystroke	l	n/a
134.6275	0.105	269255	keystroke	e	n/a
135.9175	0.105	271835	keystroke	Key.backspace	n/a
136.6825	0.15	273365	keystroke	Key.backspace	n/a
137.2525	0.075	274505	keystroke	Key.backspace	n/a
137.4325	0.09	274865	keystroke	Key.backspace	n/a
137.5975	0.09	275195	keystroke	Key.backspace	n/a
137.7775	0.105	275555	keystroke	Key.backspace	n/a
138.1225	0.105	276245	keystroke	Key.backspace	n/a
138.4225	0.09	276845	keystroke	Key.backspace	n/a
138.9925	0.12	277985	keystroke	s	n/a
139.3375	0.06	278675	keystroke	i	n/a
139.4575	0.135	278915	keystroke	t	n/a
139.5325	0.12	279065	keystroke	e	n/a
139.7725	0.105	279545	keystroke	s	n/a
139.863	0.1045	279726	keystroke	Key.space	n/a
140.0285	0.119	280057	keystroke	l	n/a
140.1485	0.089	280297	keystroke	e	n/a
140.3575	0.06	280715	keystroke	s	n/a
140.4775	0.135	280955	keystroke	s	n/a
140.5825	0.12	281165	keystroke	o	n/a
140.6875	0.106	281375	keystroke	n	n/a
140.8235	0.134	281647	keystroke	s	n/a
140.9425	0.105	281885	keystroke	Key.space	n/a
141.1825	0.105	282365	keystroke	l	n/a
141.3025	0.091	282605	keystroke	e	n/a
141.4225	0.091	282845	keystroke	n	n/a
141.5575	0.165	283115	keystroke	s	n/a
141.6775	0.105	283355	keystroke	e	n/a
141.8875	0.121	283775	keystroke	s	n/a
141.9925	0.12	283985	keystroke	Key.space	n/a
142.2025	0.091	284405	keystroke	w	n/a
142.3985	0.164	284797	keystroke	a	n/a
142.4725	0.075	284945	keystroke	l	n/a
142.6375	0.06	285275	keystroke	l	n/a
142.8175	0.135	285635	keystroke	p	n/a
142.9235	0.134	285847	keystroke	a	n/a
143.0725	0.135	286145	keystroke	p	n/a
143.2375	0.15	286475	keystroke	e	n/a
143.3575	0.12	286715	keystroke	r	n/a
143.5835	0.119	287167	keystroke	s	n/a
143.7775	0.105	287555	keystroke	Key.enter	n/a
143.89	11.08	287780	prompt	n/a	receivers billing ordinance loved\n
144.6625	0.135	289325	keystroke	r	n/a
144.7375	0.075	289475	keystroke	e	n/a
144.9485	0.044	289897	keystroke	c	n/a
145.0825	0.121	290165	keystroke	e	n/a
145.2335	0.06	290467	keystroke	i	n/a
145.3525	0.045	290705	keystroke	t	n/a
146.4175	0.075	292835	keystroke	Key.backspace	n/a
146.5825	0.106	293165	keystroke	v	n/a
146.7625	0.151	293525	keystroke	e	n/a
146.8685	0.105	293737	keystroke	r	n/a
147.1375	0.03	294275	keystroke	w	n/a
148.2025	0.075	296405	keystroke	Key.backspace	n/a
148.2935	0.119	296587	keystroke	s	n/a
148.9525	0.105	297905	keystroke	Key.space	n/a
149.2825	0.061	298565	keystroke	b	n/a
149.4935	0.044	298987	keystroke	i	n/a
149.6885	0.059	299377	keystroke	l	n/a
149.8225	0.076	299645	keystroke	l	n/a
149.9725	0.121	299945	keystroke	i	n/a
150.0485	0.075	300097	keystroke	n	n/a
150.1525	0.091	300305	keystroke	g	n/a
150.6175	0.105	301235	keystroke	Key.space	n/a
150.9185	0.119	301837	keystroke	o	n/a
151.0535	0.075	302107	keystroke	r	n/a
151.2485	0.104	302497	keystroke	d	n/a
151.3375	0.09	302675	keystroke	i	n/a
151.4585	0.09	302917	keystroke	n	n/a
151.5785	0.21	303157	keystroke	a	n/a
152.4035	0.074	304807	keystroke	n	n/a
153.018	0.1055	306036	keystroke	c	n/a
153.258	0.09	306516	keystroke	e	n/a
153.362	0.12	306724	keystroke	Key.space	n/a
153.5125	0.091	307025	keystroke	l	n/a
153.707	0.106	307414	keystroke	o	n/a
153.843	0.105	307686	keystroke	v	n/a
154.053	0.12	308106	keystroke	e	n/a
154.518	0.104	309036	keystroke	d	n/a
154.848	0.119	309696	keystroke	Key.enter	n/a
154.975	7.585	309950	prompt	n/a	turbo socket albums comment\n
155.748	0.165	311496	keystroke	t	n/a
155.943	0.089	311886	keystroke	u	n/a
156.288	0.09	312576	keystroke	r	n/a
156.738	0.045	313476	keystroke	b	n/a
156.918	0.12	313836	keystroke	o	n/a
157.128	0.104	314256	keystroke	Key.space	n/a
158.163	0.119	316326	keystroke	s	n/a
158.268	0.09	316536	keystroke	o	n/a
158.402	0.106	316804	keystroke	c	n/a
158.538	0.104	317076	keystroke	k	n/a
158.657	0.076	317314	keystroke	e	n/a
158.792	0.091	317584	keystroke	t	n/a
158.913	0.105	317826	keystroke	Key.space	n/a
159.168	0.135	318336	keystroke	a	n/a
159.273	0.12	318546	keystroke	l	n/a
159.573	0.075	319146	keystroke	b	n/a
160.173	0.045	320346	keystroke	u	n/a
160.578	0.075	321156	keystroke	m	n/a
160.878	0.075	321756	keystroke	s	n/a
161.057	0.09	322114	keystroke	Key.space	n/a
161.253	0.104	322506	keystroke	c	n/a
161.327	0.121	322654	keystroke	o	n/a
161.538	0.045	323076	keystroke	m	n/a
161.658	0.06	323316	keystroke	m	n/a
161.733	0.12	323466	keystroke	e	n/a
161.883	0.105	323766	keystroke	n	n/a
161.973	0.105	323946	keystroke	t	n/a
162.453	0.104	324906	keystroke	Key.enter	n/a
162.5645	9.3405	325129	prompt	n/a	notified prizes arena thanksgiving\n
163.233	0.075	326466	keystroke	n	n/a
163.383	0.12	326766	keystroke	o	n/a
163.563	0.09	327126	keystroke	t	n/a
163.668	0.06	327336	keystroke	i	n/a
163.818	0.105	327636	keystroke	f	n/a
163.938	0.075	327876	keystroke	i	n/a
164.043	0.075	328086	keystroke	e	n/a
164.223	0.09	328446	keystroke	d	n/a
164.298	0.105	328596	keystroke	Key.space	n/a
164.463	0.135	328926	keystroke	p	n/a
164.628	0.09	329256	keystroke	r	n/a
164.733	0.06	329466	keystroke	i	n/a
165.108	0.15	330216	keystroke	z	n/a
165.303	0.12	330606	keystroke	e	n/a
165.573	0.12	331146	keystroke	s	n/a
165.708	0.075	331416	keystroke	Key.space	n/a
166.098	0.165	332196	keystroke	a	n/a
166.308	0.135	332616	keystroke	r	n/a
166.398	0.105	332796	keystroke	e	n/a
166.668	0.06	333336	keystroke	n	n/a
166.758	0.15	333516	keystroke	a	n/a
166.878	0.105	333756	keystroke	Key.space	n/a
167.088	0.09	334176	keystroke	t	n/a
167.163	0.045	334326	keystroke	h	n/a
167.283	0.135	334566	keystroke	a	n/a
167.343	0.06	334686	keystroke	n	n/a
167.508	0.075	335016	keystroke	k	n/a
167.553	0.15	335106	keystroke	s	n/a
168.633	0.105	337266	keystroke	v	n/a
169.848	0.075	339696	keystroke	Key.backspace	n/a
170.133	0.075	340266	keystroke	g	n/a
170.313	0.06	340626	keystroke	i	n/a
170.508	0.06	341016	keystroke	v	n/a
170.583	0.15	341166	keystroke	i	n/a
170.718	0.075	341436	keystroke	n	n/a
170.823	0.12	341646	keystroke	g	n/a
171.768	0.135	343536	keystroke	Key.enter	n/a
171.9095	10.481	343819	prompt	n/a	properly anything ending deal\n
172.533	0.135	345066	keystroke	p	n/a
172.773	0.135	345546	keystroke	r	n/a
172.878	0.06	345756	keystroke	o	n/a
173.418	0.105	346836	keystroke	p	n/a
173.628	0.09	347256	keystroke	l	n/a
173.748	0.15	347496	keystroke	e	n/a
173.838	0.09	347676	keystroke	r	n/a
174.948	0.105	349896	keystroke	Key.backspace	n/a
175.263	0.09	350526	keystroke	Key.backspace	n/a
175.473	0.09	350946	keystroke	Key.backspace	n/a
175.878	0.105	351756	keystroke	e	n/a
176.553	0.12	353106	keystroke	r	n/a
176.688	0.09	353376	keystroke	l	n/a
177.543	0.105	355086	keystroke	y	n/a
178.698	0.105	357396	keystroke	Key.space	n/a
178.923	0.165	357846	keystroke	a	n/a
179.028	0.045	358056	keystroke	n	n/a
179.193	0.045	358386	keystroke	y	n/a
179.343	0.105	358686	keystroke	t	n/a
179.388	0.075	358776	keystroke	h	n/a
179.493	0.12	358986	keystroke	i	n/a
179.598	0.075	359196	keystroke	n	n/a
179.748	0.09	359496	keystroke	g	n/a
179.823	0.105	359646	keystroke	Key.space	n/a
180.483	0.075	360966	keystroke	e	n/a
180.678	0.09	361356	keystroke	n	n/a
180.828	0.105	361656	keystroke	d	n/a
180.918	0.12	361836	keystroke	i	n/a
181.008	0.075	362016	keystroke	n	n/a
181.084	0.059	362168	keystroke	g	n/a
181.158	0.09	362316	keystroke	Key.space	n/a
181.398	0.06	362796	keystroke	d	n/a
181.518	0.075	363036	keystroke	e	n/a
181.683	0.12	363366	keystroke	a	n/a
181.743	0.12	363486	keystroke	l	n/a
182.283	0.105	364566	keystroke	Key.enter	n/a
182.3955	8.0335	364791	prompt	n/a	threads distributed acrylic supervisor\n
183.138	0.075	366276	keystroke	t	n/a
183.198	0.09	366396	keystroke	h	n/a
183.468	0.135	366936	keystroke	r	n/a
183.528	0.12	367056	keystroke	e	n/a
183.738	0.12	367476	keystroke	a	n/a
183.918	0.09	367836	keystroke	d	n/a
184.098	0.105	368196	keystroke	s	n/a
184.5475	0.09	369095	keystroke	Key.space	n/a
184.7875	0.075	369575	keystroke	d	n/a
185.1325	0.075	370265	keystroke	i	n/a
185.2375	0.105	370475	keystroke	s	n/a
185.4175	0.075	370835	keystroke	t	n/a
185.6125	0.09	371225	keystroke	r	n/a
185.6875	0.045	371375	keystroke	i	n/a
185.8375	0.045	371675	keystroke	b	n/a
186.0175	0.09	372035	keystroke	u	n/a
186.1675	0.12	372335	keystroke	t	n/a
186.2425	0.105	372485	keystroke	e	n/a
186.4525	0.12	372905	keystroke	d	n/a
186.5725	0.12	373145	keystroke	Key.space	n/a
186.8275	0.09	373655	keystroke	a	n/a
187.0975	0.105	374195	keystroke	c	n/a
187.4125	0.12	374825	keystroke	r	n/a
187.5025	0.06	375005	keystroke	y	n/a
187.7275	0.09	375455	keystroke	l	n/a
187.8925	0.105	375785	keystroke	i	n/a
188.0275	0.075	376055	keystroke	c	n/a
188.1475	0.105	376295	keystroke	Key.space	n/a
188.4025	0.12	376805	keystroke	s	n/a
188.5825	0.135	377165	keystroke	u	n/a
188.8825	0.12	377765	keystroke	p	n/a
189.0175	0.12	378035	keystroke	e	n/a
189.0775	0.09	378155	keystroke	r	n/a
189.3475	0.09	378695	keystroke	v	n/a
189.4075	0.09	378815	keystroke	i	n/a
189.6325	0.09	379265	keystroke	s	n/a
189.7075	0.12	379415	keystroke	o	n/a
189.8125	0.09	379625	keystroke	r	n/a
190.3075	0.12	380615	keystroke	Key.enter	n/a
190.4405	7.925	380881	prompt	n/a	garmin words cape pregnancy\n
191.1625	0.09	382325	keystroke	g	n/a
191.3275	0.15	382655	keystroke	a	n/a
191.8075	0.105	383615	keystroke	r	n/a
192.0025	0.09	384005	keystroke	m	n/a
192.1225	0.105	384245	keystroke	i	n/a
192.2875	0.06	384575	keystroke	n	n/a
192.4225	0.12	384845	keystroke	Key.space	n/a
192.8875	0.135	385775	keystroke	w	n/a
193.0375	0.105	386075	keystroke	o	n/a
193.2475	0.09	386495	keystroke	r	n/a
193.7575	0.12	387515	keystroke	d	n/a
194.4475	0.12	388895	keystroke	s	n/a
194.6875	0.12	389375	keystroke	Key.space	n/a
195.0925	0.075	390185	keystroke	c	n/a
195.2125	0.165	390425	keystroke	a	n/a
195.4075	0.12	390815	keystroke	p	n/a
195.5575	0.09	391115	keystroke	e	n/a
195.6775	0.135	391355	keystroke	Key.space	n/a
195.9025	0.15	391805	keystroke	p	n/a
196.0675	0.135	392135	keystroke	r	n/a
196.127	0.1355	392254	keystroke	e	n/a
196.4275	0.105	392855	keystroke	g	n/a
196.6675	0.0595	393335	keystroke	n	n/a
196.7425	0.12	393485	keystroke	a	n/a
197.0275	0.105	394055	keystroke	n	n/a
197.2375	0.09	394475	keystroke	c	n/a
197.9275	0.0895	395855	keystroke	y	n/a
198.2875	0.0745	396575	keystroke	Key.enter	n/a
198.373	8.421	396746	prompt	n/a	runs freeze revealed adaptor\n
199.503	0.1345	399006	keystroke	r	n/a
199.592	0.06	399184	keystroke	u	n/a
199.757	0.06	399514	keystroke	n	n/a
199.847	0.105	399694	keystroke	s	n/a
199.937	0.105	399874	keystroke	Key.space	n/a
200.132	0.09	400264	keystroke	f	n/a
200.3275	0.1195	400655	keystroke	r	n/a
200.538	0.059	401076	keystroke	e	n/a
200.657	0.06	401314	keystroke	e	n/a
201.047	0.15	402094	keystroke	z	n/a
201.272	0.09	402544	keystroke	e	n/a
201.347	0.12	402694	keystroke	Key.space	n/a
201.617	0.12	403234	keystroke	r	n/a
201.662	0.165	403324	keystroke	e	n/a
202.382	0.09	404764	keystroke	v	n/a
202.577	0.105	405154	keystroke	e	n/a
202.862	0.135	405724	keystroke	a	n/a
202.967	0.12	405934	keystroke	l	n/a
203.088	0.089	406176	keystroke	e	n/a
203.282	0.075	406564	keystroke	d	n/a
203.372	0.09	406744	keystroke	Key.space	n/a
203.582	0.105	407164	keystroke	a	n/a
203.792	0.09	407584	keystroke	f	n/a
204.662	0.075	409324	keystroke	Key.backspace	n/a
204.827	0.15	409654	keystroke	d	n/a
204.932	0.15	409864	keystroke	a	n/a
205.127	0.105	410254	keystroke	p	n/a
205.337	0.09	410674	keystroke	t	n/a
205.892	0.09	411784	keystroke	o	n/a
205.967	0.09	411934	keystroke	r	n/a
206.702	0.09	413404	keystroke	Key.enter	n/a
206.7985	8.6355	413597	prompt	n/a	zope answering lite centered\n
207.692	0.135	415384	keystroke	z	n/a
207.812	0.165	415624	keystroke	p	n/a
208.847	0.09	417694	keystroke	Key.backspace	n/a
209.177	0.09	418354	keystroke	o	n/a
209.357	0.075	418714	keystroke	p	n/a
209.507	0.06	419014	keystroke	e	n/a
210.047	0.105	420094	keystroke	Key.space	n/a
210.272	0.151	420544	keystroke	a	n/a
210.407	0.075	420814	keystroke	n	n/a
210.557	0.12	421114	keystroke	s	n/a
210.842	0.18	421684	keystroke	w	n/a
211.142	0.15	422284	keystroke	e	n/a
211.382	0.15	422764	keystroke	r	n/a
211.623	0.104	423246	keystroke	i	n/a
211.712	0.075	423424	keystroke	n	n/a
211.757	0.075	423514	keystroke	g	n/a
211.862	0.105	423724	keystroke	Key.space	n/a
212.732	0.09	425464	keystroke	l	n/a
212.913	0.074	425826	keystroke	i	n/a
213.107	0.12	426214	keystroke	t	n/a
213.167	0.12	426334	keystroke	e	n/a
213.347	0.12	426694	keystroke	Key.space	n/a
213.617	0.06	427234	keystroke	c	n/a
213.797	0.09	427594	keystroke	e	n/a
213.902	0.075	427804	keystroke	n	n/a
213.992	0.075	427984	keystroke	t	n/a
214.187	0.195	428374	keystroke	e	n/a
214.368	0.104	428736	keystroke	r	n/a
214.982	0.045	429964	keystroke	e	n/a
215.163	0.105	430326	keystroke	d	n/a
215.312	0.12	430624	keystroke	Key.enter	n/a
215.44	16.15	430880	prompt	n/a	univ manufacture cuisine increase\n
216.167	0.075	432334	keystroke	u	n/a
216.438	0.059	432876	keystroke	n	n/a
216.542	0.106	433084	keystroke	i	n/a
217.022	0.091	434044	keystroke	v	n/a
225.321	0.041	450642	keystroke	Key.space	n/a
225.557	0.091	451114	keystroke	m	n/a
225.708	0.12	451416	keystroke	a	n/a
225.843	0.03	451686	keystroke	n	n/a
226.007	0.061	452014	keystroke	u	n/a
226.202	0.136	452404	keystroke	f	n/a
226.323	0.12	452646	keystroke	a	n/a
226.548	0.134	453096	keystroke	c	n/a
227.222	0.121	454444	keystroke	t	n/a
227.328	0.09	454656	keystroke	u	n/a
227.493	0.15	454986	keystroke	r	n/a
227.583	0.12	455166	keystroke	e	n/a
228.092	0.106	456184	keystroke	Key.space	n/a
228.333	0.12	456666	keystroke	c	n/a
228.468	0.075	456936	keystroke	u	n/a
228.693	0.074	457386	keystroke	i	n/a
228.873	0.119	457746	keystroke	s	n/a
229.097	0.105	458194	keystroke	i	n/a
229.217	0.075	458434	keystroke	n	n/a
229.308	0.12	458616	keystroke	e	n/a
229.413	0.104	458826	keystroke	Key.space	n/a
229.578	0.089	459156	keystroke	i	n/a
229.697	0.091	459394	keystroke	n	n/a
229.863	0.075	459726	keystroke	c	n/a
230.132	0.136	460264	keystroke	r	n/a
230.298	0.15	460596	keystroke	e	n/a
230.538	0.135	461076	keystroke	a	n/a
230.703	0.15	461406	keystroke	s	n/a
230.793	0.12	461586	keystroke	e	n/a
231.468	0.12	462936	keystroke	Key.enter	n/a
231.5955	6.0535	463191	prompt	n/a	permission standings memo eternal\n
232.218	0.135	464436	keystroke	p	n/a
232.413	0.15	464826	keystroke	e	n/a
232.488	0.105	464976	keystroke	r	n/a
232.713	0.075	465426	keystroke	m	n/a
232.802	0.091	465604	keystroke	i	n/a
232.953	0.06	465906	keystroke	s	n/a
233.088	0.135	466176	keystroke	s	n/a
233.193	0.075	466386	keystroke	i	n/a
233.283	0.135	466566	keystroke	o	n/a
233.373	0.104	466746	keystroke	n	n/a
233.492	0.091	466984	keystroke	Key.space	n/a
233.672	0.121	467344	keystroke	s	n/a
233.837	0.12	467674	keystroke	t	n/a
233.913	0.15	467826	keystroke	a	n/a
234.033	0.075	468066	keystroke	n	n/a
234.168	0.135	468336	keystroke	d	n/a
234.258	0.105	468516	keystroke	i	n/a
234.333	0.074	468666	keystroke	n	n/a
234.393	0.09	468786	keystroke	g	n/a
234.558	0.15	469116	keystroke	s	n/a
234.903	0.12	469806	keystroke	Key.space	n/a
235.158	0.074	470316	keystroke	m	n/a
235.338	0.075	470676	keystroke	e	n/a
235.398	0.074	470796	keystroke	m	n/a
235.532	0.106	471064	keystroke	o	n/a
235.698	0.105	471396	keystroke	Key.space	n/a
235.8925	0.0895	471785	keystroke	e	n/a
236.208	0.06	472416	keystroke	t	n/a
236.3875	0.1205	472775	keystroke	e	n/a
236.4925	0.12	472985	keystroke	r	n/a
236.658	0.09	473316	keystroke	n	n/a
236.7775	0.15	473555	keystroke	a	n/a
237.2125	0.12	474425	keystroke	l	n/a
237.5275	0.12	475055	keystroke	Key.enter	n/a
237.655	7.2695	475310	prompt	n/a	tours mandatory lingerie neighbors\n
238.4275	0.075	476855	keystroke	t	n/a
238.5775	0.06	477155	keystroke	o	n/a
238.6675	0.075	477335	keystroke	u	n/a
238.8475	0.12	477695	keystroke	r	n/a
239.0425	0.12	478085	keystroke	s	n/a
239.1475	0.105	478295	keystroke	Key.space	n/a
239.2975	0.09	478595	keystroke	m	n/a
240.0025	0.149	480005	keystroke	a	n/a
240.0925	0.075	480185	keystroke	n	n/a
240.3025	0.105	480605	keystroke	d	n/a
240.4075	0.15	480815	keystroke	a	n/a
240.5875	0.075	481175	keystroke	t	n/a
240.6625	0.09	481325	keystroke	o	n/a
240.7525	0.12	481505	keystroke	r	n/a
240.8875	0.06	481775	keystroke	y	n/a
240.9625	0.135	481925	keystroke	Key.space	n/a
241.1575	0.075	482315	keystroke	l	n/a
241.3675	0.045	482735	keystroke	i	n/a
241.5325	0.075	483065	keystroke	n	n/a
241.6525	0.075	483305	keystroke	g	n/a
241.8775	0.09	483755	keystroke	e	n/a
242.2225	0.105	484445	keystroke	r	n/a
242.5225	0.075	485045	keystroke	i	n/a
242.6275	0.12	485255	keystroke	e	n/a
242.8375	0.105	485675	keystroke	Key.space	n/a
243.0325	0.075	486065	keystroke	n	n/a
243.1225	0.06	486245	keystroke	e	n/a
243.6025	0.075	487205	keystroke	i	n/a
243.7675	0.06	487535	keystroke	g	n/a
243.8275	0.045	487655	keystroke	h	n/a
244.1725	0.045	488345	keystroke	b	n/a
244.3225	0.12	488645	keystroke	o	n/a
244.4275	0.12	488855	keystroke	r	n/a
244.6375	0.12	489275	keystroke	s	n/a
244.7875	0.135	489575	keystroke	Key.enter	n/a
244.9285	10.361	489857	prompt	n/a	tube hypothetical exclusion oxygen\n
245.8525	0.12	491705	keystroke	t	n/a
245.9575	0.06	491915	keystroke	u	n/a
246.4225	0.105	492845	keystroke	b	n/a
246.7225	0.075	493445	keystroke	e	n/a
246.9325	0.09	493865	keystroke	Key.space	n/a
247.2325	0.045	494465	keystroke	h	n/a
247.4125	0.06	494825	keystroke	y	n/a
247.6225	0.135	495245	keystroke	p	n/a
247.8625	0.105	495725	keystroke	o	n/a
248.1475	0.09	496295	keystroke	t	n/a
248.2225	0.06	496445	keystroke	h	n/a
248.3425	0.105	496685	keystroke	e	n/a
248.8375	0.09	497675	keystroke	t	n/a
248.9425	0.09	497885	keystroke	i	n/a
249.0785	0.119	498157	keystroke	c	n/a
249.1675	0.15	498335	keystroke	a	n/a
249.2875	0.105	498575	keystroke	l	n/a
249.3935	0.089	498787	keystroke	Key.space	n/a
249.5875	0.06	499175	keystroke	e	n/a
249.7975	0.09	499595	keystroke	x	n/a
250.9075	0.12	501815	keystroke	c	n/a
251.1625	0.075	502325	keystroke	l	n/a
251.3425	0.06	502685	keystroke	u	n/a
251.6725	0.135	503345	keystroke	s	n/a
251.7625	0.075	503525	keystroke	i	n/a
251.8375	0.165	503675	keystroke	o	n/a
251.9275	0.09	503855	keystroke	n	n/a
252.0625	0.105	504125	keystroke	Key.space	n/a
252.8275	0.03	505655	keystroke	e	n/a
253.6075	0.075	507215	keystroke	Key.backspace	n/a
254.1025	0.09	508205	keystroke	o	n/a
254.2975	0.135	508595	keystroke	x	n/a
254.3875	0.06	508775	keystroke	y	n/a
254.7625	0.06	509525	keystroke	g	n/a
254.8525	0.135	509705	keystroke	e	n/a
254.9885	0.059	509977	keystroke	n	n/a
255.1825	0.1045	510365	keystroke	Key.enter	n/a
255.2955	5.4845	510591	prompt	n/a	arbitrary priced care cloud\n
256.037	0.1505	512074	keystroke	a	n/a
256.2025	0.12	512405	keystroke	r	n/a
256.4575	0.0445	512915	keystroke	b	n/a
256.577	0.0905	513154	keystroke	i	n/a
256.712	0.0605	513424	keystroke	t	n/a
256.9525	0.09	513905	keystroke	r	n/a
257.057	0.165	514114	keystroke	a	n/a
257.252	0.12	514504	keystroke	r	n/a
257.357	0.0605	514714	keystroke	y	n/a
257.4775	0.1195	514955	keystroke	Key.space	n/a
257.657	0.135	515314	keystroke	p	n/a
257.8525	0.1045	515705	keystroke	r	n/a
257.972	0.045	515944	keystroke	i	n/a
258.0775	0.075	516155	keystroke	c	n/a
258.227	0.09	516454	keystroke	e	n/a
258.467	0.1055	516934	keystroke	d	n/a
258.5575	0.1045	517115	keystroke	Key.space	n/a
258.827	0.105	517654	keystroke	c	n/a
259.007	0.18	518014	keystroke	a	n/a
259.188	0.119	518376	keystroke	r	n/a
259.247	0.12	518494	keystroke	e	n/a
259.4725	0.1045	518945	keystroke	Key.space	n/a
259.712	0.105	519424	keystroke	c	n/a
259.952	0.09	519904	keystroke	l	n/a
260.162	0.09	520324	keystroke	o	n/a
260.282	0.06	520564	keystroke	u	n/a
260.387	0.15	520774	keystroke	d	n/a
260.702	0.075	521404	keystroke	Key.enter	n/a
260.7865	12.9835	521573	prompt	n/a	melbourne renaissance powers affecting\n
261.692	0.091	523384	keystroke	m	n/a
261.842	0.09	523684	keystroke	e	n/a
261.977	0.105	523954	keystroke	l	n/a
262.517	0.06	525034	keystroke	b	n/a
262.652	0.12	525304	keystroke	o	n/a
262.787	0.09	525574	keystroke	u	n/a
263.492	0.09	526984	keystroke	r	n/a
263.552	0.09	527104	keystroke	n	n/a
263.687	0.09	527374	keystroke	e	n/a
263.807	0.105	527614	keystroke	Key.space	n/a
264.092	0.18	528184	keystroke	r	n/a
264.182	0.15	528364	keystroke	e	n/a
268.175	0.027	536350	keystroke	n	n/a
268.187	0.165	536374	keystroke	a	n/a
268.787	0.075	537574	keystroke	i	n/a
269.042	0.075	538084	keystroke	s	n/a
269.177	0.09	538354	keystroke	s	n/a
269.552	0.12	539104	keystroke	a	n/a
269.657	0.076	539314	keystroke	n	n/a
269.792	0.06	539584	keystroke	c	n/a
269.957	0.09	539914	keystroke	e	n/a
270.048	0.104	540096	keystroke	Key.space	n/a
270.287	0.09	540574	keystroke	p	n/a
270.512	0.105	541024	keystroke	o	n/a
270.842	0.12	541684	keystroke	w	n/a
270.992	0.15	541984	keystroke	e	n/a
271.217	0.12	542434	keystroke	r	n/a
271.712	0.12	543424	keystroke	s	n/a
271.833	0.089	543666	keystroke	Key.space	n/a
272.192	0.12	544384	keystroke	a	n/a
272.567	0.06	545134	keystroke	f	n/a
272.687	0.06	545374	keystroke	f	n/a
272.807	0.075	545614	keystroke	e	n/a
273.017	0.12	546034	keystroke	c	n/a
273.212	0.075	546424	keystroke	t	n/a
273.317	0.12	546634	keystroke	i	n/a
273.377	0.075	546754	keystroke	n	n/a
273.497	0.075	546994	keystroke	g	n/a
273.662	0.105	547324	keystroke	Key.enter	n/a
273.7745	4.3445	547549	prompt	n/a	paperback semi graph meal\n
274.383	0.119	548766	keystroke	p	n/a
274.517	0.135	549034	keystroke	a	n/a
274.637	0.09	549274	keystroke	p	n/a
274.742	0.15	549484	keystroke	e	n/a
274.817	0.09	549634	keystroke	r	n/a
275.102	0.06	550204	keystroke	b	n/a
275.177	0.105	550354	keystroke	a	n/a
275.387	0.105	550774	keystroke	c	n/a
275.462	0.045	550924	keystroke	k	n/a
275.522	0.09	551044	keystroke	Key.space	n/a
275.732	0.135	551464	keystroke	s	n/a
275.987	0.105	551974	keystroke	e	n/a
276.107	0.075	552214	keystroke	m	n/a
276.242	0.09	552484	keystroke	i	n/a
276.392	0.045	552784	keystroke	Key.space	n/a
276.512	0.045	553024	keystroke	g	n/a
276.737	0.09	553474	keystroke	r	n/a
276.812	0.135	553624	keystroke	a	n/a
276.932	0.105	553864	keystroke	p	n/a
277.127	0.06	554254	keystroke	h	n/a
277.307	0.12	554614	keystroke	Key.space	n/a
277.532	0.09	555064	keystroke	m	n/a
277.607	0.12	555214	keystroke	e	n/a
277.712	0.165	555424	keystroke	a	n/a
277.892	0.06	555784	keystroke	l	n/a
278.072	0.045	556144	keystroke	Key.enter	n/a
278.124	9.8955	556248	prompt	n/a	conventions influenced relates schemes\n
279.047	0.09	558094	keystroke	c	n/a
279.122	0.105	558244	keystroke	o	n/a
279.167	0.09	558334	keystroke	n	n/a
279.633	0.059	559266	keystroke	v	n/a
279.752	0.12	559504	keystroke	e	n/a
279.887	0.045	559774	keystroke	n	n/a
280.247	0.09	560494	keystroke	t	n/a
280.307	0.075	560614	keystroke	i	n/a
280.383	0.179	560766	keystroke	o	n/a
280.487	0.09	560974	keystroke	n	n/a
280.548	0.104	561096	keystroke	s	n/a
280.622	0.105	561244	keystroke	Key.space	n/a
280.877	0.061	561754	keystroke	i	n/a
281.027	0.03	562054	keystroke	n	n/a
282.002	0.09	564004	keystroke	f	n/a
282.107	0.12	564214	keystroke	l	n/a
282.317	0.06	564634	keystroke	u	n/a
282.602	0.075	565204	keystroke	e	n/a
282.678	0.059	565356	keystroke	n	n/a
282.827	0.045	565654	keystroke	c	n/a
282.963	0.074	565926	keystroke	e	n/a
283.127	0.105	566254	keystroke	d	n/a
283.247	0.105	566494	keystroke	Key.space	n/a
283.442	0.136	566884	keystroke	r	n/a
283.502	0.12	567004	keystroke	e	n/a
283.667	0.12	567334	keystroke	l	n/a
284.057	0.165	568114	keystroke	a	n/a
284.192	0.105	568384	keystroke	t	n/a
284.267	0.12	568534	keystroke	e	n/a
284.582	0.105	569164	keystroke	s	n/a
284.688	0.089	569376	keystroke	Key.space	n/a
284.897	0.045	569794	keystroke	d	n/a
285.752	0.075	571504	keystroke	Key.backspace	n/a
285.888	0.104	571776	keystroke	s	n/a
286.532	0.09	573064	keystroke	c	n/a
286.607	0.045	573214	keystroke	h	n/a
286.712	0.105	573424	keystroke	e	n/a
287.402	0.09	574804	keystroke	m	n/a
287.493	0.059	574986	keystroke	e	n/a
287.808	0.089	575616	keystroke	s	n/a
287.942	0.075	575884	keystroke	Key.enter	n/a
288.0245	8.5295	576049	prompt	n/a	limited guard experts consensus\n
288.813	0.074	577626	keystroke	l	n/a
288.963	0.075	577926	keystroke	i	n/a
289.113	0.075	578226	keystroke	m	n/a
289.217	0.106	578434	keystroke	i	n/a
289.308	0.074	578616	keystroke	t	n/a
289.338	0.119	578676	keystroke	e	n/a
289.608	0.119	579216	keystroke	d	n/a
290.312	0.105	580624	keystroke	Key.space	n/a
291.182	0.105	582364	keystroke	g	n/a
291.497	0.076	582994	keystroke	u	n/a
291.723	0.194	583446	keystroke	a	n/a
291.903	0.074	583806	keystroke	r	n/a
292.112	0.09	584224	keystroke	d	n/a
292.187	0.105	584374	keystroke	Key.space	n/a
292.352	0.09	584704	keystroke	e	n/a
292.577	0.12	585154	keystroke	x	n/a
292.667	0.1345	585334	keystroke	p	n/a
292.863	0.164	585726	keystroke	e	n/a
292.9825	0.0755	585965	keystroke	r	n/a
293.1615	0.105	586323	keystroke	t	n/a
293.2515	0.061	586503	keystroke	e	n/a
293.5375	0.044	587075	keystroke	s	n/a
294.1515	0.075	588303	keystroke	Key.backspace	n/a
294.2865	0.105	588573	keystroke	Key.backspace	n/a
294.4225	0.1195	588845	keystroke	s	n/a
294.917	0.1045	589834	keystroke	Key.space	n/a
295.2925	0.12	590585	keystroke	c	n/a
295.3815	0.09	590763	keystroke	o	n/a
295.4415	0.076	590883	keystroke	n	n/a
295.6075	0.165	591215	keystroke	s	n/a
295.7425	0.104	591485	keystroke	e	n/a
295.9065	0.075	591813	keystroke	n	n/a
296.0125	0.12	592025	keystroke	s	n/a
296.1765	0.075	592353	keystroke	u	n/a
296.2825	0.134	592565	keystroke	s	n/a
296.4615	0.09	592923	keystroke	Key.enter	n/a
296.5585	14.1105	593117	prompt	n/a	target republican folks persian\n
297.3775	0.074	594755	keystroke	t	n/a
297.4665	0.166	594933	keystroke	a	n/a
297.5865	0.106	595173	keystroke	r	n/a
297.7965	0.09	595593	keystroke	g	n/a
297.8725	0.194	595745	keystroke	e	n/a
298.0075	0.15	596015	keystroke	t	n/a
298.2015	0.106	596403	keystroke	Key.space	n/a
298.4575	0.134	596915	keystroke	r	n/a
298.4875	0.105	596975	keystroke	e	n/a
298.6975	0.074	597395	keystroke	p	n/a
298.8615	0.046	597723	keystroke	u	n/a
299.1915	0.09	598383	keystroke	b	n/a
299.2975	0.135	598595	keystroke	a	n/a
299.6565	0.12	599313	keystroke	l	n/a
299.7475	0.149	599495	keystroke	i	n/a
301.2165	0.076	602433	keystroke	=	n/a
301.4125	0.074	602825	keystroke	=	n/a
301.7265	0.09	603453	keystroke	Key.backspace	n/a
301.9065	0.075	603813	keystroke	Key.backspace	n/a
302.1915	0.075	604383	keystroke	Key.backspace	n/a
302.4315	0.09	604863	keystroke	Key.backspace	n/a
302.7765	0.09	605553	keystroke	Key.backspace	n/a
303.6915	0.091	607383	keystroke	l	n/a
303.8715	0.076	607743	keystroke	i	n/a
303.9775	0.119	607955	keystroke	c	n/a
304.0675	0.135	608135	keystroke	a	n/a
304.1415	0.075	608283	keystroke	n	n/a
304.2915	0.166	608583	keystroke	Key.space	n/a
304.6365	0.136	609273	keystroke	f	n/a
304.6665	0.091	609333	keystroke	l	n/a
304.8925	0.104	609785	keystroke	o	n/a
305.4625	0.075	610925	keystroke	k	n/a
305.5515	0.121	611103	keystroke	s	n/a
306.3315	0.09	612663	keystroke	Key.backspace	n/a
306.4965	0.105	612993	keystroke	Key.backspace	n/a
306.7065	0.09	613413	keystroke	Key.backspace	n/a
307.0215	0.09	614043	keystroke	Key.backspace	n/a
307.6075	0.075	615215	keystroke	o	n/a
307.7875	0.09	615575	keystroke	l	n/a
308.0275	0.075	616055	keystroke	k	n/a
308.6275	0.135	617255	keystroke	s	n/a
308.7475	0.09	617495	keystroke	Key.space	n/a
309.002	0.059	618004	keystroke	p	n/a
309.1225	0.1795	618245	keystroke	e	n/a
309.211	0.105	618422	keystroke	r	n/a
309.4975	0.119	618995	keystroke	s	n/a
310.022	0.105	620044	keystroke	i	n/a
310.097	0.1495	620194	keystroke	a	n/a
310.262	0.075	620524	keystroke	n	n/a
310.547	0.119	621094	keystroke	Key.enter	n/a
310.6785	6.7105	621357	prompt	n/a	editorials guest contractors baltimore\n
311.582	0.075	623164	keystroke	e	n/a
311.837	0.1055	623674	keystroke	d	n/a
311.912	0.075	623824	keystroke	i	n/a
312.0625	0.0595	624125	keystroke	t	n/a
312.122	0.119	624244	keystroke	o	n/a
312.3475	0.12	624695	keystroke	r	n/a
312.4225	0.075	624845	keystroke	i	n/a
312.557	0.135	625114	keystroke	a	n/a
312.6625	0.105	625325	keystroke	l	n/a
312.7975	0.1045	625595	keystroke	s	n/a
312.9475	0.0595	625895	keystroke	Key.space	n/a
313.127	0.09	626254	keystroke	g	n/a
313.202	0.06	626404	keystroke	u	n/a
313.412	0.075	626824	keystroke	e	n/a
313.592	0.15	627184	keystroke	s	n/a
313.757	0.045	627514	keystroke	t	n/a
313.787	0.09	627574	keystroke	Key.space	n/a
314.057	0.075	628114	keystroke	c	n/a
314.072	0.135	628144	keystroke	o	n/a
314.177	0.09	628354	keystroke	n	n/a
314.282	0.09	628564	keystroke	t	n/a
314.4765	0.1205	628953	keystroke	r	n/a
314.6265	0.1505	629253	keystroke	a	n/a
314.8515	0.15	629703	keystroke	c	n/a
314.9565	0.075	629913	keystroke	t	n/a
315.0465	0.12	630093	keystroke	o	n/a
315.1515	0.09	630303	keystroke	r	n/a
315.3315	0.105	630663	keystroke	s	n/a
315.4515	0.105	630903	keystroke	Key.space	n/a
315.6915	0.06	631383	keystroke	b	n/a
315.8565	0.1205	631713	keystroke	a	n/a
316.0965	0.12	632193	keystroke	l	n/a
316.3365	0.075	632673	keystroke	t	n/a
316.4265	0.06	632853	keystroke	i	n/a
316.6065	0.075	633213	keystroke	m	n/a
316.7265	0.12	633453	keystroke	o	n/a
316.8015	0.15	633603	keystroke	r	n/a
316.8915	0.09	633783	keystroke	e	n/a
317.2815	0.105	634563	keystroke	Key.enter	n/a
317.3955	13.554	634791	prompt	n/a	fastest exports available guitars\n
318.1515	0.09	636303	keystroke	f	n/a
318.4215	0.135	636843	keystroke	a	n/a
318.6465	0.12	637293	keystroke	s	n/a
318.8415	0.12	637683	keystroke	t	n/a
318.9915	0.18	637983	keystroke	e	n/a
319.8465	0.12	639693	keystroke	s	n/a
320.0115	0.09	640023	keystroke	t	n/a
320.1315	0.105	640263	keystroke	Key.space	n/a
320.3565	0.061	640713	keystroke	e	n/a
320.5365	0.135	641073	keystroke	x	n/a
320.6565	0.12	641313	keystroke	p	n/a
320.8815	0.105	641763	keystroke	o	n/a
321.0315	0.03	642063	keystroke	r	n/a
321.1665	0.075	642333	keystroke	t	n/a
321.3165	0.121	642633	keystroke	s	n/a
321.4215	0.12	642843	keystroke	Key.space	n/a
321.6915	0.12	643383	keystroke	a	n/a
321.8715	0.105	643743	keystroke	v	n/a
321.9615	0.12	643923	keystroke	a	n/a
322.0525	0.059	644105	keystroke	i	n/a
322.2165	0.12	644433	keystroke	a	n/a
322.2315	0.06	644463	keystroke	l	n/a
322.3965	0.075	644793	keystroke	b	n/a
322.9215	0.105	645843	keystroke	l	n/a
323.0115	0.105	646023	keystroke	e	n/a
323.5065	0.105	647013	keystroke	Key.space	n/a
324.7365	0.12	649473	keystroke	Key.backspace	n/a
324.9615	0.105	649923	keystroke	Key.backspace	n/a
325.2015	0.12	650403	keystroke	Key.backspace	n/a
325.8165	0.075	651633	keystroke	Key.backspace	n/a
325.9815	0.09	651963	keystroke	Key.backspace	n/a
326.2515	0.075	652503	keystroke	Key.backspace	n/a
327.5415	0.09	655083	keystroke	l	n/a
327.6465	0.165	655293	keystroke	a	n/a
328.0815	0.075	656163	keystroke	b	n/a
328.2775	0.105	656555	keystroke	l	n/a
328.4425	0.104	656885	keystroke	e	n/a
328.5915	0.12	657183	keystroke	Key.space	n/a
329.3715	0.135	658743	keystroke	g	n/a
329.4625	0.074	658925	keystroke	u	n/a
329.8965	0.09	659793	keystroke	i	n/a
330.1965	0.106	660393	keystroke	t	n/a
330.3465	0.18	660693	keystroke	a	n/a
330.4665	0.106	660933	keystroke	r	n/a
330.6775	0.134	661355	keystroke	s	n/a
330.8415	0.105	661683	keystroke	Key.enter	n/a
330.9535	8.066	661907	prompt	n/a	golden texas stuart encoding\n
331.5165	0.091	663033	keystroke	g	n/a
331.6365	0.06	663273	keystroke	o	n/a
331.8015	0.09	663603	keystroke	l	n/a
331.9365	0.075	663873	keystroke	d	n/a
332.1165	0.121	664233	keystroke	e	n/a
332.4015	0.09	664803	keystroke	n	n/a
332.5965	0.12	665193	keystroke	Key.space	n/a
333.0765	0.09	666153	keystroke	t	n/a
333.3765	0.106	666753	keystroke	e	n/a
333.6165	0.105	667233	keystroke	x	n/a
333.8265	0.135	667653	keystroke	a	n/a
334.0225	0.104	668045	keystroke	s	n/a
334.1565	0.105	668313	keystroke	Key.space	n/a
335.7615	0.12	671523	keystroke	s	n/a
336.0015	0.135	672003	keystroke	t	n/a
336.1675	0.075	672335	keystroke	u	n/a
336.8265	0.195	673653	keystroke	a	n/a
336.9925	0.06	673985	keystroke	r	n/a
337.1575	0.06	674315	keystroke	t	n/a
337.3215	0.075	674643	keystroke	Key.space	n/a
337.4865	0.075	674973	keystroke	e	n/a
337.8315	0.091	675663	keystroke	n	n/a
338.1175	0.12	676235	keystroke	c	n/a
338.1915	0.12	676383	keystroke	o	n/a
338.4325	0.105	676865	keystroke	d	n/a
338.5525	0.12	677105	keystroke	i	n/a
338.6425	0.075	677285	keystroke	n	n/a
338.7025	0.105	677405	keystroke	g	n/a
338.8815	0.135	677763	keystroke	Key.enter	n/a
339.0255	6.803	678051	prompt	n/a	exhibit graphic second onto\n
340.3225	0.06	680645	keystroke	e	n/a
340.5025	0.134	681005	keystroke	x	n/a
340.7265	0.061	681453	keystroke	h	n/a
340.8475	0.089	681695	keystroke	i	n/a
341.0575	0.045	682115	keystroke	b	n/a
341.1915	0.09	682383	keystroke	i	n/a
341.3115	0.076	682623	keystroke	t	n/a
341.4165	0.09	682833	keystroke	Key.space	n/a
341.5675	0.09	683135	keystroke	g	n/a
341.7625	0.09	683525	keystroke	r	n/a
341.8215	0.181	683643	keystroke	a	n/a
342.0925	0.105	684185	keystroke	p	n/a
342.2715	0.06	684543	keystroke	h	n/a
342.3775	0.105	684755	keystroke	i	n/a
342.5275	0.075	685055	keystroke	c	n/a
342.6615	0.06	685323	keystroke	Key.space	n/a
342.9915	0.12	685983	keystroke	s	n/a
343.1575	0.075	686315	keystroke	e	n/a
343.3815	0.121	686763	keystroke	c	n/a
343.4425	0.134	686885	keystroke	o	n/a
343.5475	0.075	687095	keystroke	n	n/a
343.6825	0.105	687365	keystroke	d	n/a
343.7725	0.104	687545	keystroke	Key.space	n/a
343.9525	0.135	687905	keystroke	o	n/a
344.0715	0.091	688143	keystroke	n	n/a
344.2225	0.12	688445	keystroke	t	n/a
345.0765	0.09	690153	keystroke	o	n/a
345.7365	0.09	691473	keystroke	Key.enter	n/a
345.8335	6.9255	691667	prompt	n/a	obligations racing papers grenada\n
346.5465	0.06	693093	keystroke	o	n/a
346.7415	0.045	693483	keystroke	b	n/a
346.9815	0.075	693963	keystroke	l	n/a
347.1615	0.105	694323	keystroke	i	n/a
347.3565	0.091	694713	keystroke	g	n/a
347.4775	0.164	694955	keystroke	a	n/a
347.5665	0.135	695133	keystroke	t	n/a
347.6865	0.06	695373	keystroke	i	n/a
347.7315	0.18	695463	keystroke	o	n/a
347.8665	0.076	695733	keystroke	n	n/a
347.9275	0.134	695855	keystroke	s	n/a
348.0165	0.12	696033	keystroke	Key.space	n/a
348.3315	0.106	696663	keystroke	r	n/a
348.4215	0.136	696843	keystroke	a	n/a
348.6775	0.119	697355	keystroke	c	n/a
348.8715	0.076	697743	keystroke	i	n/a
349.1125	0.104	698225	keystroke	n	n/a
349.2325	0.09	698465	keystroke	g	n/a
349.3065	0.105	698613	keystroke	Key.space	n/a
349.5475	0.149	699095	keystroke	p	n/a
349.8915	0.135	699783	keystroke	a	n/a
350.0415	0.105	700083	keystroke	p	n/a
350.2065	0.135	700413	keystroke	e	n/a
350.2975	0.105	700595	keystroke	r	n/a
350.5075	0.12	701015	keystroke	s	n/a
350.6115	0.075	701223	keystroke	Key.space	n/a
350.8075	0.089	701615	keystroke	g	n/a
351.1225	0.12	702245	keystroke	r	n/a
351.1975	0.134	702395	keystroke	e	n/a
351.4065	0.09	702813	keystroke	n	n/a
351.5125	0.119	703025	keystroke	a	n/a
351.7365	0.15	703473	keystroke	d	n/a
351.8725	0.164	703745	keystroke	a	n/a
352.6665	0.09	705333	keystroke	Key.enter	n/a
352.6815	0.091	705363	keystroke	'	n/a
352.764	11.6055	705528	prompt	n/a	bridal congratulations danish garlic\n
353.9875	0.075	707975	keystroke	b	n/a
354.1965	0.105	708393	keystroke	i	n/a
354.4075	0.105	708815	keystroke	r	n/a
355.5615	0.105	711123	keystroke	Key.backspace	n/a
355.8765	0.09	711753	keystroke	Key.backspace	n/a
356.2065	0.106	712413	keystroke	r	n/a
356.3265	0.09	712653	keystroke	i	n/a
356.5365	0.106	713073	keystroke	d	n/a
356.6115	0.151	713223	keystroke	a	n/a
356.7025	0.089	713405	keystroke	l	n/a
357.1515	0.105	714303	keystroke	Key.space	n/a
357.4525	0.105	714905	keystroke	c	n/a
357.5275	0.104	715055	keystroke	o	n/a
357.6015	0.106	715203	keystroke	n	n/a
357.7525	0.09	715505	keystroke	g	n/a
357.9615	0.121	715923	keystroke	r	n/a
358.0375	0.165	716075	keystroke	a	n/a
358.5915	0.106	717183	keystroke	t	n/a
358.6525	0.075	717305	keystroke	u	n/a
358.8775	0.09	717755	keystroke	l	n/a
358.9525	0.165	717905	keystroke	a	n/a
359.1185	0.119	718237	keystroke	t	n/a
359.2065	0.106	718413	keystroke	i	n/a
359.2815	0.181	718563	keystroke	o	n/a
359.3875	0.105	718775	keystroke	n	n/a
359.4475	0.12	718895	keystroke	s	n/a
359.5515	0.105	719103	keystroke	Key.space	n/a
360.2875	0.09	720575	keystroke	d	n/a
360.4525	0.135	720905	keystroke	a	n/a
360.5885	0.059	721177	keystroke	n	n/a
360.6925	0.105	721385	keystroke	i	n/a
360.8125	0.12	721625	keystroke	s	n/a
360.8865	0.06	721773	keystroke	h	n/a
360.9615	0.105	721923	keystroke	Key.space	n/a
361.2165	0.076	722433	keystroke	g	n/a
361.3665	0.15	722733	keystroke	a	n/a
363.256	0.091	726512	keystroke	r	n/a
363.3915	0.12	726783	keystroke	l	n/a
363.527	0.105	727054	keystroke	i	n/a
363.827	0.12	727654	keystroke	c	n/a
364.261	0.106	728522	keystroke	Key.enter	n/a
364.375	6.009	728750	prompt	n/a	herein tells shade johnny\n
365.072	0.06	730144	keystroke	h	n/a
365.252	0.135	730504	keystroke	e	n/a
365.507	0.134	731014	keystroke	r	n/a
365.747	0.105	731494	keystroke	e	n/a
366.241	0.121	732482	keystroke	i	n/a
366.332	0.075	732664	keystroke	n	n/a
366.392	0.105	732784	keystroke	Key.space	n/a
366.616	0.106	733232	keystroke	t	n/a
366.692	0.089	733384	keystroke	e	n/a
366.841	0.061	733682	keystroke	l	n/a
367.067	0.015	734134	keystroke	l	n/a
367.097	0.105	734194	keystroke	s	n/a
367.187	0.105	734374	keystroke	Key.space	n/a
367.622	0.12	735244	keystroke	s	n/a
367.743	0.089	735486	keystroke	h	n/a
367.847	0.149	735694	keystroke	a	n/a
368.162	0.045	736324	keystroke	d	n/a
368.282	0.104	736564	keystroke	e	n/a
368.357	0.105	736714	keystroke	Key.space	n/a
368.597	0.075	737194	keystroke	j	n/a
368.807	0.12	737614	keystroke	o	n/a
369.032	0.045	738064	keystroke	h	n/a
369.347	0.045	738694	keystroke	n	n/a
369.452	0.06	738904	keystroke	n	n/a
369.662	0.075	739324	keystroke	y	n/a
370.277	0.105	740554	keystroke	Key.enter	n/a
370.3895	11.29	740779	prompt	n/a	nickname michael comfortable diamonds\n
371.297	0.06	742594	keystroke	n	n/a
371.417	0.06	742834	keystroke	i	n/a
371.537	0.12	743074	keystroke	c	n/a
371.612	0.06	743224	keystroke	k	n/a
371.807	0.06	743614	keystroke	n	n/a
371.882	0.135	743764	keystroke	a	n/a
372.018	0.059	744036	keystroke	m	n/a
372.137	0.105	744274	keystroke	e	n/a
372.257	0.12	744514	keystroke	Key.space	n/a
372.542	0.06	745084	keystroke	m	n/a
372.677	0.105	745354	keystroke	i	n/a
372.827	0.105	745654	keystroke	c	n/a
372.917	0.045	745834	keystroke	h	n/a
373.067	0.12	746134	keystroke	a	n/a
373.292	0.105	746584	keystroke	e	n/a
373.517	0.09	747034	keystroke	l	n/a
373.937	0.09	747874	keystroke	Key.space	n/a
374.132	0.105	748264	keystroke	c	n/a
374.177	0.165	748354	keystroke	o	n/a
374.267	0.06	748534	keystroke	n	n/a
376.535	0.001	753070	keystroke	Key.backspace	n/a
377.132	0.06	754264	keystroke	m	n/a
378.077	0.045	756154	keystroke	f	n/a
378.137	0.165	756274	keystroke	o	n/a
378.212	0.075	756424	keystroke	r	n/a
378.452	0.135	756904	keystroke	t	n/a
379.142	0.15	758284	keystroke	a	n/a
379.232	0.075	758464	keystroke	b	n/a
379.352	0.09	758704	keystroke	l	n/a
379.427	0.105	758854	keystroke	e	n/a
379.802	0.12	759604	keystroke	Key.space	n/a
380.327	0.075	760654	keystroke	d	n/a
380.387	0.06	760774	keystroke	i	n/a
380.552	0.135	761104	keystroke	a	n/a
380.702	0.06	761404	keystroke	m	n/a
380.807	0.12	761614	keystroke	o	n/a
380.942	0.09	761884	keystroke	n	n/a
381.167	0.105	762334	keystroke	d	n/a
381.362	0.135	762724	keystroke	s	n/a
381.587	0.09	763174	keystroke	Key.enter	n/a
381.6855	8.963	763371	prompt	n/a	kinase forests hundred fundamental\n
382.577	0.075	765154	keystroke	k	n/a
382.772	0.045	765544	keystroke	i	n/a
382.937	0.06	765874	keystroke	n	n/a
383.057	0.105	766114	keystroke	a	n/a
383.222	0.135	766444	keystroke	s	n/a
383.342	0.105	766684	keystroke	e	n/a
383.462	0.09	766924	keystroke	Key.space	n/a
383.702	0.075	767404	keystroke	f	n/a
383.762	0.12	767524	keystroke	o	n/a
383.897	0.135	767794	keystroke	r	n/a
383.987	0.09	767974	keystroke	e	n/a
384.272	0.12	768544	keystroke	s	n/a
384.407	0.09	768814	keystroke	t	n/a
384.872	0.06	769744	keystroke	s	n/a
384.947	0.015	769894	keystroke	z	n/a
385.892	0.075	771784	keystroke	Key.backspace	n/a
386.087	0.09	772174	keystroke	Key.space	n/a
386.927	0.045	773854	keystroke	h	n/a
387.122	0.045	774244	keystroke	u	n/a
387.287	0.06	774574	keystroke	n	n/a
387.392	0.075	774784	keystroke	d	n/a
387.572	0.12	775144	keystroke	r	n/a
387.617	0.135	775234	keystroke	e	n/a
387.887	0.075	775774	keystroke	d	n/a
387.992	0.12	775984	keystroke	Key.space	n/a
388.352	0.105	776704	keystroke	f	n/a
388.412	0.046	776824	keystroke	u	n/a
388.577	0.075	777154	keystroke	n	n/a
388.712	0.105	777424	keystroke	d	n/a
388.802	0.18	777604	keystroke	a	n/a
389.012	0.06	778024	keystroke	m	n/a
389.102	0.09	778204	keystroke	e	n/a
389.222	0.075	778444	keystroke	n	n/a
389.312	0.075	778624	keystroke	t	n/a
389.417	0.165	778834	keystroke	a	n/a
389.507	0.135	779014	keystroke	l	n/a
390.542	0.105	781084	keystroke	Key.enter	n/a
390.6525	6.987	781305	prompt	n/a	susan cooked downloading where's\n
391.427	0.12	782854	keystroke	s	n/a
391.502	0.06	783004	keystroke	u	n/a
391.697	0.12	783394	keystroke	s	n/a
391.787	0.195	783574	keystroke	a	n/a
391.907	0.06	783814	keystroke	n	n/a
392.027	0.105	784054	keystroke	Key.space	n/a
392.252	0.15	784504	keystroke	c	n/a
392.297	0.075	784594	keystroke	o	n/a
392.972	0.09	785944	keystroke	o	n/a
393.542	0.075	787084	keystroke	k	n/a
393.632	0.075	787264	keystroke	e	n/a
393.797	0.105	787594	keystroke	d	n/a
393.887	0.12	787774	keystroke	Key.space	n/a
394.082	0.105	788164	keystroke	d	n/a
394.172	0.105	788344	keystroke	o	n/a
394.262	0.12	788524	keystroke	w	n/a
394.397	0.06	788794	keystroke	n	n/a
394.592	0.075	789184	keystroke	l	n/a
394.757	0.105	789514	keystroke	o	n/a
394.832	0.12	789664	keystroke	a	n/a
395.027	0.105	790054	keystroke	d	n/a
395.087	0.12	790174	keystroke	i	n/a
395.177	0.09	790354	keystroke	n	n/a
395.237	0.045	790474	keystroke	g	n/a
395.297	0.09	790594	keystroke	Key.space	n/a
395.582	0.09	791164	keystroke	w	n/a
395.672	0.06	791344	keystroke	h	n/a
395.777	0.195	791554	keystroke	e	n/a
396.1365	0.1055	792273	keystroke	r	n/a
396.3165	0.1055	792633	keystroke	e	n/a
396.9165	0.06	793833	keystroke	'	n/a
397.0065	0.12	794013	keystroke	s	n/a
397.5465	0.0905	795093	keystroke	Key.enter	n/a
397.645	15.699	795290	prompt	n/a	hopkins lyrics saturn angela\n
398.5975	0.029	797195	keystroke	h	n/a
398.7015	0.0905	797403	keystroke	o	n/a
398.9415	0.0605	797883	keystroke	l	n/a
399.4215	0.12	798843	keystroke	p	n/a
400.1565	0.09	800313	keystroke	Key.backspace	n/a
400.3815	0.09	800763	keystroke	Key.backspace	n/a
400.6515	0.075	801303	keystroke	p	n/a
401.2815	0.075	802563	keystroke	k	n/a
401.4615	0.075	802923	keystroke	i	n/a
401.7015	0.09	803403	keystroke	n	n/a
401.8515	0.12	803703	keystroke	g	n/a
403.0215	0.12	806043	keystroke	Key.backspace	n/a
403.2925	0.104	806585	keystroke	s	n/a
403.9665	0.09	807933	keystroke	Key.space	n/a
404.0865	0.075	808173	keystroke	l	n/a
404.2815	0.045	808563	keystroke	y	n/a
404.5515	0.135	809103	keystroke	r	n/a
404.6265	0.105	809253	keystroke	i	n/a
404.9715	0.09	809943	keystroke	c	n/a
405.9915	0.15	811983	keystroke	s	n/a
407.9715	0.105	815943	keystroke	Key.space	n/a
408.1965	0.105	816393	keystroke	s	n/a
408.4065	0.165	816813	keystroke	a	n/a
408.5565	0.12	817113	keystroke	t	n/a
408.6915	0.075	817383	keystroke	u	n/a
408.7815	0.105	817563	keystroke	r	n/a
408.9315	0.075	817863	keystroke	n	n/a
409.0365	0.1195	818073	keystroke	Key.space	n/a
409.531	0.12	819062	keystroke	a	n/a
409.6365	0.0895	819273	keystroke	n	n/a
409.786	0.135	819572	keystroke	g	n/a
411.9965	0.025	823993	keystroke	e	n/a
412.1265	0.135	824253	keystroke	l	n/a
412.4115	0.136	824823	keystroke	a	n/a
413.2665	0.075	826533	keystroke	Key.enter	n/a
413.3525	11.3465	826705	prompt	n/a	scholarships athletics lighter mounting\n
414.0625	0.1035	828125	keystroke	s	n/a
414.2865	0.1195	828573	keystroke	c	n/a
414.361	0.03	828722	keystroke	h	n/a
414.451	0.1055	828902	keystroke	o	n/a
414.9615	0.1195	829923	keystroke	l	n/a
415.051	0.1655	830102	keystroke	a	n/a
415.186	0.1505	830372	keystroke	r	n/a
415.681	0.12	831362	keystroke	s	n/a
415.7415	0.0745	831483	keystroke	h	n/a
415.876	0.09	831752	keystroke	i	n/a
416.056	0.12	832112	keystroke	p	n/a
416.192	0.134	832384	keystroke	s	n/a
416.341	0.09	832682	keystroke	Key.space	n/a
416.626	0.12	833252	keystroke	a	n/a
416.896	0.1205	833792	keystroke	t	n/a
417.001	0.075	834002	keystroke	h	n/a
417.226	0.12	834452	keystroke	l	n/a
417.331	0.09	834662	keystroke	e	n/a
417.496	0.105	834992	keystroke	t	n/a
417.646	0.105	835292	keystroke	i	n/a
417.766	0.09	835532	keystroke	c	n/a
417.946	0.135	835892	keystroke	s	n/a
418.156	0.15	836312	keystroke	Key.space	n/a
418.396	0.12	836792	keystroke	l	n/a
418.592	0.104	837184	keystroke	i	n/a
418.726	0.105	837452	keystroke	g	n/a
418.846	0.06	837692	keystroke	h	n/a
419.5365	0.0745	839073	keystroke	t	n/a
419.716	0.105	839432	keystroke	e	n/a
419.761	0.12	839522	keystroke	r	n/a
420.376	0.09	840752	keystroke	Key.space	n/a
420.602	0.074	841204	keystroke	m	n/a
420.751	0.135	841502	keystroke	o	n/a
420.901	0.06	841802	keystroke	u	n/a
421.081	0.12	842162	keystroke	n	n/a
421.261	0.15	842522	keystroke	i	n/a
422.866	0.135	845732	keystroke	Key.backspace	n/a
423.886	0.075	847772	keystroke	t	n/a
424.171	0.105	848342	keystroke	i	n/a
424.291	0.06	848582	keystroke	n	n/a
424.366	0.106	848732	keystroke	g	n/a
424.576	0.12	849152	keystroke	Key.enter	n/a
424.704	6.415	849408	prompt	n/a	institutions singles blocked users\n
425.372	0.045	850744	keystroke	i	n/a
425.521	0.06	851042	keystroke	n	n/a
425.641	0.12	851282	keystroke	s	n/a
426.047	0.104	852094	keystroke	t	n/a
426.106	0.09	852212	keystroke	i	n/a
426.301	0.12	852602	keystroke	t	n/a
426.361	0.075	852722	keystroke	u	n/a
426.586	0.135	853172	keystroke	t	n/a
426.706	0.09	853412	keystroke	i	n/a
426.781	0.165	853562	keystroke	o	n/a
426.901	0.075	853802	keystroke	n	n/a
426.991	0.135	853982	keystroke	s	n/a
427.081	0.12	854162	keystroke	Key.space	n/a
427.501	0.135	855002	keystroke	s	n/a
427.562	0.105	855124	keystroke	i	n/a
427.651	0.09	855302	keystroke	n	n/a
427.922	0.104	855844	keystroke	g	n/a
428.042	0.105	856084	keystroke	l	n/a
428.161	0.075	856322	keystroke	e	n/a
428.341	0.105	856682	keystroke	s	n/a
428.431	0.12	856862	keystroke	Key.space	n/a
428.702	0.044	857404	keystroke	b	n/a
428.956	0.061	857912	keystroke	l	n/a
429.121	0.09	858242	keystroke	o	n/a
429.436	0.075	858872	keystroke	c	n/a
429.526	0.06	859052	keystroke	k	n/a
429.601	0.06	859202	keystroke	e	n/a
429.782	0.074	859564	keystroke	d	n/a
429.871	0.105	859742	keystroke	Key.space	n/a
430.231	0.046	860462	keystroke	u	n/a
430.426	0.165	860852	keystroke	s	n/a
430.592	0.119	861184	keystroke	e	n/a
430.666	0.12	861332	keystroke	r	n/a
430.876	0.136	861752	keystroke	s	n/a
431.056	0.061	862112	keystroke	Key.enter	n/a
431.1245	8.7405	862249	prompt	n/a	anatomy concrete reviews link\n
431.942	0.105	863884	keystroke	a	n/a
432.151	0.075	864302	keystroke	n	n/a
432.242	0.119	864484	keystroke	a	n/a
432.377	0.12	864754	keystroke	t	n/a
432.481	0.076	864962	keystroke	o	n/a
432.767	0.089	865534	keystroke	m	n/a
433.052	0.06	866104	keystroke	y	n/a
433.441	0.105	866882	keystroke	Key.space	n/a
433.831	0.12	867662	keystroke	c	n/a
433.936	0.121	867872	keystroke	o	n/a
434.042	0.074	868084	keystroke	n	n/a
434.297	0.09	868594	keystroke	c	n/a
434.552	0.015	869104	keystroke	e	n/a
434.611	0.091	869222	keystroke	e	n/a
435.886	0.105	871772	keystroke	Key.backspace	n/a
436.036	0.09	872072	keystroke	Key.backspace	n/a
436.892	0.135	873784	keystroke	r	n/a
436.967	0.119	873934	keystroke	e	n/a
437.131	0.105	874262	keystroke	t	n/a
437.207	0.12	874414	keystroke	e	n/a
437.342	0.119	874684	keystroke	Key.space	n/a
437.582	0.135	875164	keystroke	r	n/a
437.642	0.12	875284	keystroke	e	n/a
437.897	0.105	875794	keystroke	v	n/a
438.047	0.06	876094	keystroke	i	n/a
438.092	0.119	876184	keystroke	e	n/a
438.181	0.121	876362	keystroke	w	n/a
438.451	0.105	876902	keystroke	s	n/a
438.571	0.09	877142	keystroke	Key.space	n/a
438.737	0.09	877474	keystroke	l	n/a
438.902	0.134	877804	keystroke	i	n/a
439.022	0.059	878044	keystroke	n	n/a
439.202	0.12	878404	keystroke	k	n/a
439.756	0.105	879512	keystroke	Key.enter	n/a
439.8805	9.0885	879761	prompt	n/a	cost accessory purple lawsuit\n
440.521	0.106	881042	keystroke	c	n/a
440.612	0.119	881224	keystroke	o	n/a
440.836	0.136	881672	keystroke	s	n/a
440.957	0.105	881914	keystroke	t	n/a
441.047	0.09	882094	keystroke	Key.space	n/a
441.257	0.12	882514	keystroke	a	n/a
441.497	0.045	882994	keystroke	c	n/a
441.617	0.06	883234	keystroke	c	n/a
441.767	0.105	883534	keystroke	e	n/a
441.992	0.06	883984	keystroke	s	n/a
442.127	0.12	884254	keystroke	s	n/a
442.442	0.105	884884	keystroke	r	n/a
442.517	0.104	885034	keystroke	o	n/a
443.596	0.09	887192	keystroke	Key.backspace	n/a
443.791	0.075	887582	keystroke	Key.backspace	n/a
444.017	0.12	888034	keystroke	o	n/a
444.256	0.106	888512	keystroke	r	n/a
444.362	0.045	888724	keystroke	y	n/a
444.872	0.089	889744	keystroke	Key.space	n/a
445.097	0.12	890194	keystroke	p	n/a
445.277	0.075	890554	keystroke	u	n/a
445.517	0.089	891034	keystroke	r	n/a
446.177	0.165	892354	keystroke	p	n/a
446.462	0.12	892924	keystroke	l	n/a
446.597	0.075	893194	keystroke	e	n/a
446.867	0.105	893734	keystroke	Key.space	n/a
447.136	0.106	894272	keystroke	l	n/a
447.227	0.135	894454	keystroke	a	n/a
447.452	0.105	894904	keystroke	w	n/a
448.037	0.12	896074	keystroke	s	n/a
448.112	0.075	896224	keystroke	u	n/a
448.442	0.09	896884	keystroke	i	n/a
448.562	0.12	897124	keystroke	t	n/a
448.862	0.105	897724	keystroke	Key.enter	n/a
448.9745	13.269	897949	prompt	n/a	concert czech brooks thumb\n
449.612	0.105	899224	keystroke	c	n/a
449.687	0.105	899374	keystroke	o	n/a
449.777	0.075	899554	keystroke	n	n/a
449.867	0.045	899734	keystroke	c	n/a
450.017	0.21	900034	keystroke	e	n/a
450.302	0.105	900604	keystroke	r	n/a
450.812	0.075	901624	keystroke	t	n/a
450.932	0.075	901864	keystroke	Key.space	n/a
451.187	0.075	902374	keystroke	c	n/a
451.487	0.105	902974	keystroke	z	n/a
451.712	0.075	903424	keystroke	e	n/a
452.447	0.105	904894	keystroke	c	n/a
452.553	0.029	905106	keystroke	h	n/a
452.747	0.09	905494	keystroke	Key.space	n/a
452.987	0.075	905974	keystroke	b	n/a
453.227	0.105	906454	keystroke	r	n/a
453.317	0.06	906634	keystroke	o	n/a
453.422	0.075	906844	keystroke	o	n/a
453.572	0.075	907144	keystroke	k	n/a
453.677	0.135	907354	keystroke	s	n/a
454.412	0.09	908824	keystroke	Key.space	n/a
454.697	0.09	909394	keystroke	t	n/a
454.997	0.06	909994	keystroke	h	n/a
455.177	0.06	910354	keystroke	u	n/a
455.357	0.075	910714	keystroke	m	n/a
455.537	0.06	911074	keystroke	n	n/a
456.5565	0.075	913113	keystroke	Key.backspace	n/a
457.8915	0.075	915783	keystroke	l	n/a
458.7915	0.06	917583	keystroke	Key.backspace	n/a
460.7275	0.044	921455	keystroke	b	n/a
462.1515	0.09	924303	keystroke	Key.enter	n/a
462.248	12.565	924496	prompt	n/a	lobby cologne console euro\n
463.172	0.0595	926344	keystroke	l	n/a
463.336	0.06	926672	keystroke	o	n/a
463.5315	0.0445	927063	keystroke	b	n/a
463.666	0.0455	927332	keystroke	b	n/a
463.921	0.0605	927842	keystroke	y	n/a
464.386	0.09	928772	keystroke	Key.space	n/a
464.6565	0.1045	929313	keystroke	c	n/a
464.731	0.106	929462	keystroke	o	n/a
465.1065	0.075	930213	keystroke	l	n/a
465.271	0.09	930542	keystroke	o	n/a
465.422	0.074	930844	keystroke	n	n/a
465.542	0.135	931084	keystroke	g	n/a
466.981	0.12	933962	keystroke	Key.backspace	n/a
468.362	0.074	936724	keystroke	Key.backspace	n/a
468.632	0.089	937264	keystroke	g	n/a
468.826	0.12	937652	keystroke	n	n/a
469.006	0.105	938012	keystroke	e	n/a
469.186	0.135	938372	keystroke	Key.space	n/a
469.772	0.119	939544	keystroke	c	n/a
469.846	0.12	939692	keystroke	o	n/a
469.936	0.106	939872	keystroke	n	n/a
470.776	0.121	941552	keystroke	c	n/a
470.881	0.09	941762	keystroke	o	n/a
471.7355	0.075	943471	keystroke	Key.backspace	n/a
471.8855	0.075	943771	keystroke	Key.backspace	n/a
472.0365	0.164	944073	keystroke	s	n/a
472.1405	0.075	944281	keystroke	o	n/a
472.5605	0.09	945121	keystroke	l	n/a
472.6655	0.105	945331	keystroke	e	n/a
472.8605	0.105	945721	keystroke	Key.space	n/a
473.7305	0.1055	947461	keystroke	e	n/a
474.0305	0.075	948061	keystroke	u	n/a
474.1815	0.105	948363	keystroke	r	n/a
474.2715	0.12	948543	keystroke	o	n/a
474.7215	0.089	949443	keystroke	Key.enter	n/a
474.818	5.38	949636	prompt	n/a	illegal helps grad converter\n
475.6065	0.06	951213	keystroke	i	n/a
475.7865	0.059	951573	keystroke	l	n/a
475.9055	0.106	951811	keystroke	l	n/a
475.9965	0.075	951993	keystroke	e	n/a
476.1765	0.075	952353	keystroke	g	n/a
476.2655	0.136	952531	keystroke	a	n/a
476.3565	0.105	952713	keystroke	l	n/a
476.4905	0.105	952981	keystroke	Key.space	n/a
476.6565	0.059	953313	keystroke	h	n/a
476.8215	0.09	953643	keystroke	e	n/a
476.9265	0.06	953853	keystroke	l	n/a
477.0915	0.135	954183	keystroke	p	n/a
477.2865	0.12	954573	keystroke	s	n/a
477.4205	0.105	954841	keystroke	Key.space	n/a
477.6005	0.091	955201	keystroke	g	n/a
477.8115	0.105	955623	keystroke	r	n/a
477.9005	0.136	955801	keystroke	a	n/a
478.1115	0.089	956223	keystroke	d	n/a
478.2025	0.088	956405	keystroke	Key.space	n/a
478.4265	0.12	956853	keystroke	c	n/a
478.5015	0.12	957003	keystroke	o	n/a
478.5755	0.105	957151	keystroke	n	n/a
478.7565	0.105	957513	keystroke	v	n/a
478.9665	0.165	957933	keystroke	e	n/a
479.1015	0.075	958203	keystroke	r	n/a
479.2655	0.075	958531	keystroke	t	n/a
479.3265	0.149	958653	keystroke	e	n/a
479.4455	0.106	958891	keystroke	r	n/a
480.0915	0.104	960183	keystroke	Key.enter	n/a
480.2035	9.2945	960407	prompt	n/a	beer suicide supporters jean\n
480.9165	0.089	961833	keystroke	b	n/a
481.1715	0.03	962343	keystroke	e	n/a
481.2915	0.105	962583	keystroke	e	n/a
481.4265	0.119	962853	keystroke	r	n/a
481.5755	0.136	963151	keystroke	Key.space	n/a
481.8605	0.135	963721	keystroke	s	n/a
481.9215	0.06	963843	keystroke	u	n/a
482.0715	0.074	964143	keystroke	i	n/a
482.2815	0.09	964563	keystroke	d	n/a
483.5405	0.105	967081	keystroke	Key.backspace	n/a
485.2815	0.09	970563	keystroke	c	n/a
485.3415	0.089	970683	keystroke	i	n/a
485.4755	0.061	970951	keystroke	d	n/a
485.6265	0.104	971253	keystroke	e	n/a
485.7465	0.12	971493	keystroke	Key.space	n/a
485.9865	0.134	971973	keystroke	s	n/a
486.0615	0.075	972123	keystroke	u	n/a
486.2555	0.091	972511	keystroke	p	n/a
486.4205	0.105	972841	keystroke	p	n/a
486.6315	0.105	973263	keystroke	o	n/a
486.8115	0.09	973623	keystroke	r	n/a
487.1415	0.09	974283	keystroke	t	n/a
487.2465	0.149	974493	keystroke	e	n/a
487.3665	0.12	974733	keystroke	r	n/a
487.6515	0.105	975303	keystroke	s	n/a
487.7415	0.134	975483	keystroke	Key.space	n/a
488.6715	0.075	977343	keystroke	j	n/a
488.8515	0.06	977703	keystroke	e	n/a
489.0915	0.135	978183	keystroke	a	n/a
489.2115	0.06	978423	keystroke	n	n/a
489.3915	0.104	978783	keystroke	Key.enter	n/a
489.5025	10.1655	979005	prompt	n/a	brunette graduation limousines studying\n
490.3065	0.09	980613	keystroke	b	n/a
490.6065	0.12	981213	keystroke	r	n/a
490.6965	0.06	981393	keystroke	u	n/a
490.8765	0.06	981753	keystroke	n	n/a
491.1615	0.09	982323	keystroke	e	n/a
491.5215	0.03	983043	keystroke	t	n/a
491.6265	0.06	983253	keystroke	t	n/a
491.7165	0.135	983433	keystroke	e	n/a
491.9565	0.164	983913	keystroke	Key.space	n/a
492.2265	0.06	984453	keystroke	g	n/a
492.4065	0.09	984813	keystroke	r	n/a
492.4665	0.12	984933	keystroke	a	n/a
492.6765	0.12	985353	keystroke	d	n/a
492.7365	0.045	985473	keystroke	u	n/a
492.9465	0.165	985893	keystroke	a	n/a
493.0965	0.12	986193	keystroke	t	n/a
493.2315	0.075	986463	keystroke	i	n/a
493.3365	0.18	986673	keystroke	o	n/a
493.4565	0.105	986913	keystroke	n	n/a
493.5765	0.105	987153	keystroke	Key.space	n/a
493.6965	0.105	987393	keystroke	l	n/a
493.9815	0.015	987963	keystroke	i	n/a
494.0565	0.105	988113	keystroke	m	n/a
494.1465	0.15	988293	keystroke	o	n/a
494.2975	0.089	988595	keystroke	u	n/a
494.5815	0.105	989163	keystroke	s	n/a
494.6715	0.09	989343	keystroke	i	n/a
494.7765	0.075	989553	keystroke	n	n/a
494.8815	0.075	989763	keystroke	e	n/a
495.0915	0.045	990183	keystroke	s	n/a
495.8415	0.105	991683	keystroke	Key.space	n/a
496.6215	0.105	993243	keystroke	s	n/a
496.7865	0.09	993573	keystroke	t	n/a
496.8915	0.06	993783	keystroke	u	n/a
497.0715	0.105	994143	keystroke	d	n/a
497.1315	0.046	994263	keystroke	y	n/a
497.3715	0.09	994743	keystroke	i	n/a
497.5515	0.075	995103	keystroke	n	n/a
497.6865	0.09	995373	keystroke	g	n/a
497.8365	0.12	995673	keystroke	]	n/a
498.7065	0.105	997413	keystroke	Key.backspace	n/a
499.5915	0.075	999183	keystroke	Key.enter	n/a
499.672	11.801	999344	prompt	n/a	mpegs committed bikes justify\n
500.776	0.075	1001552	keystroke	m	n/a
500.956	0.151	1001912	keystroke	p	n/a
501.196	0.105	1002392	keystroke	e	n/a
501.406	0.106	1002812	keystroke	g	n/a
501.706	0.12	1003412	keystroke	s	n/a
502.621	0.105	1005242	keystroke	Key.space	n/a
502.906	0.12	1005812	keystroke	c	n/a
503.161	0.12	1006322	keystroke	o	n/a
503.416	0.03	1006832	keystroke	m	n/a
503.521	0.105	1007042	keystroke	m	n/a
503.761	0.105	1007522	keystroke	i	n/a
503.881	0.15	1007762	keystroke	t	n/a
503.956	0.12	1007912	keystroke	e	n/a
504.9005	0.105	1009801	keystroke	Key.backspace	n/a
505.0655	0.12	1010131	keystroke	t	n/a
505.156	0.0595	1010312	keystroke	e	n/a
505.4705	0.06	1010941	keystroke	d	n/a
505.6205	0.12	1011241	keystroke	Key.space	n/a
506.2805	0.06	1012561	keystroke	b	n/a
506.2955	0.015	1012591	keystroke	n	n/a
506.461	0.0595	1012922	keystroke	i	n/a
506.6255	0.09	1013251	keystroke	k	n/a
506.7305	0.075	1013461	keystroke	e	n/a
507.7055	0.09	1015411	keystroke	Key.backspace	n/a
507.8855	0.09	1015771	keystroke	Key.backspace	n/a
508.0655	0.105	1016131	keystroke	Key.backspace	n/a
508.3655	0.075	1016731	keystroke	Key.backspace	n/a
508.6805	0.105	1017361	keystroke	i	n/a
508.8905	0.09	1017781	keystroke	k	n/a
508.9955	0.091	1017991	keystroke	e	n/a
509.2205	0.106	1018441	keystroke	s	n/a
509.3105	0.105	1018621	keystroke	Key.space	n/a
510.0155	0.075	1020031	keystroke	j	n/a
510.3905	0.06	1020781	keystroke	u	n/a
510.5255	0.12	1021051	keystroke	s	n/a
510.7205	0.12	1021441	keystroke	t	n/a
510.9005	0.105	1021801	keystroke	i	n/a
511.0505	0.135	1022101	keystroke	f	n/a
511.1555	0.06	1022311	keystroke	y	n/a
511.3505	0.12	1022701	keystroke	Key.enter	n/a
511.4775	8.7405	1022955	prompt	n/a	beyond athletes novel anger\n
512.2205	0.075	1024441	keystroke	b	n/a
512.5955	0.06	1025191	keystroke	e	n/a
512.9415	0.089	1025883	keystroke	b	n/a
513.0165	0.029	1026033	keystroke	y	n/a
513.6755	0.105	1027351	keystroke	=	n/a
514.0055	0.09	1028011	keystroke	Key.backspace	n/a
514.1855	0.075	1028371	keystroke	Key.backspace	n/a
514.3655	0.075	1028731	keystroke	Key.backspace	n/a
515.1915	0.03	1030383	keystroke	y	n/a
515.2655	0.12	1030531	keystroke	o	n/a
515.4605	0.06	1030921	keystroke	n	n/a
516.0755	0.076	1032151	keystroke	d	n/a
516.2105	0.105	1032421	keystroke	Key.space	n/a
516.5565	0.119	1033113	keystroke	a	n/a
516.7665	0.104	1033533	keystroke	t	n/a
516.8415	0.074	1033683	keystroke	h	n/a
517.0355	0.12	1034071	keystroke	l	n/a
517.1565	0.09	1034313	keystroke	e	n/a
517.3355	0.09	1034671	keystroke	t	n/a
517.4105	0.121	1034821	keystroke	e	n/a
517.6805	0.105	1035361	keystroke	s	n/a
517.7705	0.105	1035541	keystroke	Key.space	n/a
518.0115	0.059	1036023	keystroke	n	n/a
518.1015	0.119	1036203	keystroke	o	n/a
518.2355	0.121	1036471	keystroke	v	n/a
518.3715	0.12	1036743	keystroke	e	n/a
518.5205	0.09	1037041	keystroke	l	n/a
518.6555	0.12	1037311	keystroke	Key.space	n/a
518.8955	0.136	1037791	keystroke	a	n/a
518.9715	0.09	1037943	keystroke	n	n/a
519.4065	0.089	1038813	keystroke	g	n/a
519.6465	0.149	1039293	keystroke	e	n/a
519.7665	0.089	1039533	keystroke	r	n/a
520.1265	0.089	1040253	keystroke	Key.enter	n/a
520.2235	7.3145	1040447	prompt	n/a	routes girlfriend as forth\n
520.9815	0.12	1041963	keystroke	r	n/a
521.0855	0.06	1042171	keystroke	o	n/a
521.1615	0.075	1042323	keystroke	u	n/a
521.2515	0.089	1042503	keystroke	t	n/a
521.3115	0.09	1042623	keystroke	e	n/a
521.5365	0.104	1043073	keystroke	s	n/a
521.6105	0.12	1043221	keystroke	Key.space	n/a
521.8655	0.075	1043731	keystroke	g	n/a
522.0755	0.061	1044151	keystroke	i	n/a
522.1965	0.105	1044393	keystroke	r	n/a
522.3755	0.105	1044751	keystroke	l	n/a
522.7365	0.089	1045473	keystroke	f	n/a
522.9165	0.09	1045833	keystroke	i	n/a
522.9615	0.135	1045923	keystroke	r	n/a
523.9955	0.075	1047991	keystroke	Key.backspace	n/a
524.1605	0.075	1048321	keystroke	Key.backspace	n/a
524.3565	0.119	1048713	keystroke	r	n/a
524.4905	0.091	1048981	keystroke	i	n/a
524.7155	0.106	1049431	keystroke	e	n/a
524.8365	0.09	1049673	keystroke	n	n/a
525.0765	0.135	1050153	keystroke	d	n/a
525.5115	0.09	1051023	keystroke	Key.space	n/a
525.6315	0.12	1051263	keystroke	a	n/a
525.7215	0.119	1051443	keystroke	s	n/a
525.8255	0.105	1051651	keystroke	Key.space	n/a
526.0205	0.075	1052041	keystroke	f	n/a
526.1115	0.12	1052223	keystroke	o	n/a
526.2015	0.06	1052403	keystroke	r	n/a
526.4115	0.075	1052823	keystroke	t	n/a
526.4715	0.045	1052943	keystroke	h	n/a
527.4455	0.091	1054891	keystroke	Key.enter	n/a
527.5455	6.263	1055091	prompt	n/a	mills holders clearing cache\n
528.4965	0.09	1056993	keystroke	m	n/a
528.6915	0.075	1057383	keystroke	i	n/a
528.8865	0.06	1057773	keystroke	l	n/a
529.0065	0.075	1058013	keystroke	l	n/a
529.0965	0.135	1058193	keystroke	s	n/a
529.2165	0.075	1058433	keystroke	Key.space	n/a
529.3665	0.03	1058733	keystroke	h	n/a
529.4865	0.06	1058973	keystroke	o	n/a
529.6365	0.105	1059273	keystroke	l	n/a
529.7565	0.03	1059513	keystroke	d	n/a
529.9065	0.105	1059813	keystroke	e	n/a
529.9665	0.105	1059933	keystroke	r	n/a
530.2215	0.105	1060443	keystroke	s	n/a
530.3105	0.076	1060621	keystroke	Key.space	n/a
530.4915	0.09	1060983	keystroke	c	n/a
530.5665	0.135	1061133	keystroke	l	n/a
530.7165	0.135	1061433	keystroke	e	n/a
530.8065	0.21	1061613	keystroke	a	n/a
531.1815	0.12	1062363	keystroke	r	n/a
531.3915	0.105	1062783	keystroke	i	n/a
531.6015	0.075	1063203	keystroke	n	n/a
531.8715	0.12	1063743	keystroke	g	n/a
532.1565	0.165	1064313	keystroke	Key.space	n/a
532.7415	0.105	1065483	keystroke	c	n/a
532.8615	0.165	1065723	keystroke	a	n/a
533.2815	0.075	1066563	keystroke	c	n/a
533.3265	0.09	1066653	keystroke	h	n/a
533.4765	0.105	1066953	keystroke	e	n/a
533.6565	0.15	1067313	keystroke	Key.enter	n/a
533.8125	8.2465	1067625	prompt	n/a	menu building lauren listing\n
534.6315	0.09	1069263	keystroke	m	n/a
534.7965	0.12	1069593	keystroke	e	n/a
535.0515	0.045	1070103	keystroke	n	n/a
535.2765	0.06	1070553	keystroke	u	n/a
535.6965	0.075	1071393	keystroke	Key.space	n/a
535.8315	0.075	1071663	keystroke	b	n/a
536.0415	0.045	1072083	keystroke	u	n/a
536.1915	0.06	1072383	keystroke	i	n/a
536.3565	0.105	1072713	keystroke	l	n/a
536.7465	0.09	1073493	keystroke	d	n/a
536.8065	0.09	1073613	keystroke	i	n/a
536.8515	0.09	1073703	keystroke	n	n/a
536.9415	0.06	1073883	keystroke	g	n/a
537.0165	0.09	1074033	keystroke	Key.space	n/a
537.7365	0.12	1075473	keystroke	l	n/a
537.8865	0.135	1075773	keystroke	a	n/a
538.0365	0.045	1076073	keystroke	u	n/a
538.1715	0.135	1076343	keystroke	r	n/a
538.3365	0.135	1076673	keystroke	e	n/a
538.5015	0.06	1077003	keystroke	n	n/a
538.6215	0.12	1077243	keystroke	Key.space	n/a
538.7565	0.105	1077513	keystroke	l	n/a
538.9215	0.12	1077843	keystroke	i	n/a
539.0565	0.255	1078113	keystroke	s	n/a
539.2215	0.135	1078443	keystroke	t	n/a
541.5795	0.027	1083159	keystroke	i	n/a
541.5805	0.071	1083161	keystroke	n	n/a
541.6815	0.09	1083363	keystroke	g	n/a
541.9365	0.12	1083873	keystroke	Key.enter	n/a
542.076	7.647	1084152	prompt	n/a	variety hist temperature friend\n
542.776	0.0755	1085552	keystroke	v	n/a
542.971	0.15	1085942	keystroke	a	n/a
543.5265	0.1195	1087053	keystroke	r	n/a
543.631	0.06	1087262	keystroke	i	n/a
543.9165	0.0895	1087833	keystroke	e	n/a
544.081	0.0905	1088162	keystroke	t	n/a
544.1565	0.0595	1088313	keystroke	y	n/a
544.276	0.105	1088552	keystroke	Key.space	n/a
544.5765	0.075	1089153	keystroke	h	n/a
544.771	0.105	1089542	keystroke	i	n/a
544.9215	0.1345	1089843	keystroke	s	n/a
545.161	0.0905	1090322	keystroke	t	n/a
545.252	0.104	1090504	keystroke	Key.space	n/a
545.4915	0.0895	1090983	keystroke	t	n/a
545.611	0.15	1091222	keystroke	e	n/a
545.731	0.0905	1091462	keystroke	m	n/a
545.926	0.12	1091852	keystroke	p	n/a
546.121	0.15	1092242	keystroke	e	n/a
546.316	0.135	1092632	keystroke	r	n/a
546.481	0.225	1092962	keystroke	a	n/a
546.691	0.105	1093382	keystroke	t	n/a
546.826	0.075	1093652	keystroke	u	n/a
546.931	0.135	1093862	keystroke	r	n/a
547.006	0.105	1094012	keystroke	e	n/a
547.126	0.09	1094252	keystroke	Key.space	n/a
547.456	0.09	1094912	keystroke	f	n/a
547.651	0.165	1095302	keystroke	r	n/a
547.861	0.09	1095722	keystroke	i	n/a
548.626	0.075	1097252	keystroke	e	n/a
548.702	0.089	1097404	keystroke	n	n/a
548.896	0.09	1097792	keystroke	d	n/a
549.601	0.12	1099202	keystroke	Key.enter	n/a
549.7275	8.0055	1099455	prompt	n/a	welfare mumbai coleman signatures\n
550.501	0.105	1101002	keystroke	w	n/a
550.636	0.105	1101272	keystroke	e	n/a
550.756	0.12	1101512	keystroke	l	n/a
551.056	0.105	1102112	keystroke	f	n/a
551.191	0.15	1102382	keystroke	a	n/a
551.326	0.15	1102652	keystroke	r	n/a
551.416	0.12	1102832	keystroke	e	n/a
551.536	0.09	1103072	keystroke	Key.space	n/a
551.686	0.075	1103372	keystroke	m	n/a
552.121	0.06	1104242	keystroke	u	n/a
552.331	0.075	1104662	keystroke	m	n/a
552.646	0.06	1105292	keystroke	b	n/a
552.751	0.135	1105502	keystroke	a	n/a
552.916	0.09	1105832	keystroke	i	n/a
553.081	0.105	1106162	keystroke	Key.space	n/a
553.546	0.105	1107092	keystroke	c	n/a
553.786	0.105	1107572	keystroke	o	n/a
553.996	0.105	1107992	keystroke	l	n/a
554.071	0.09	1108142	keystroke	e	n/a
554.281	0.045	1108562	keystroke	m	n/a
554.341	0.15	1108682	keystroke	a	n/a
554.461	0.06	1108922	keystroke	n	n/a
554.581	0.105	1109162	keystroke	Key.space	n/a
554.851	0.105	1109702	keystroke	s	n/a
555.001	0.045	1110002	keystroke	i	n/a
555.151	0.12	1110302	keystroke	g	n/a
556.186	0.09	1112372	keystroke	n	n/a
556.261	0.15	1112522	keystroke	a	n/a
556.486	0.075	1112972	keystroke	t	n/a
556.621	0.09	1113242	keystroke	u	n/a
556.696	0.15	1113392	keystroke	r	n/a
556.771	0.105	1113542	keystroke	e	n/a
557.026	0.12	1114052	keystroke	s	n/a
557.626	0.105	1115252	keystroke	Key.enter	n/a
557.738	9.1905	1115476	prompt	n/a	download broadcasting simon commons\n
558.511	0.06	1117022	keystroke	d	n/a
558.586	0.09	1117172	keystroke	o	n/a
558.691	0.12	1117382	keystroke	w	n/a
559.081	0.06	1118162	keystroke	n	n/a
560.266	0.075	1120532	keystroke	l	n/a
560.446	0.09	1120892	keystroke	o	n/a
560.521	0.105	1121042	keystroke	a	n/a
560.986	0.06	1121972	keystroke	d	n/a
561.076	0.12	1122152	keystroke	Key.space	n/a
561.406	0.075	1122812	keystroke	b	n/a
561.541	0.12	1123082	keystroke	r	n/a
561.646	0.105	1123292	keystroke	o	n/a
561.721	0.12	1123442	keystroke	a	n/a
561.901	0.12	1123802	keystroke	d	n/a
562.306	0.105	1124612	keystroke	c	n/a
562.426	0.135	1124852	keystroke	a	n/a
562.741	0.15	1125482	keystroke	s	n/a
562.936	0.09	1125872	keystroke	t	n/a
563.041	0.105	1126082	keystroke	i	n/a
563.116	0.09	1126232	keystroke	n	n/a
563.191	0.075	1126382	keystroke	g	n/a
563.251	0.105	1126502	keystroke	Key.space	n/a
564.0315	0.165	1128063	keystroke	s	n/a
564.1815	0.075	1128363	keystroke	i	n/a
564.3465	0.075	1128693	keystroke	m	n/a
564.4505	0.121	1128901	keystroke	o	n/a
564.6465	0.09	1129293	keystroke	n	n/a
564.7655	0.105	1129531	keystroke	Key.space	n/a
565.1115	0.1195	1130223	keystroke	c	n/a
565.186	0.12	1130372	keystroke	o	n/a
565.426	0.06	1130852	keystroke	m	n/a
565.561	0.06	1131122	keystroke	m	n/a
565.681	0.12	1131362	keystroke	o	n/a
566.551	0.06	1133102	keystroke	n	n/a
566.626	0.105	1133252	keystroke	s	n/a
566.806	0.12	1133612	keystroke	Key.enter	n/a
566.933	12.715	1133866	prompt	n/a	font qualification strange reflected\n
567.526	0.15	1135052	keystroke	f	n/a
567.871	0.105	1135742	keystroke	o	n/a
567.961	0.09	1135922	keystroke	n	n/a
568.066	0.09	1136132	keystroke	t	n/a
568.141	0.12	1136282	keystroke	Key.space	n/a
568.711	0.135	1137422	keystroke	q	n/a
568.861	0.06	1137722	keystroke	u	n/a
569.041	0.135	1138082	keystroke	a	n/a
569.161	0.105	1138322	keystroke	l	n/a
569.281	0.09	1138562	keystroke	i	n/a
569.431	0.105	1138862	keystroke	f	n/a
569.521	0.075	1139042	keystroke	i	n/a
569.701	0.12	1139402	keystroke	c	n/a
569.822	0.209	1139644	keystroke	a	n/a
569.926	0.12	1139852	keystroke	t	n/a
570.001	0.09	1140002	keystroke	i	n/a
570.077	0.179	1140154	keystroke	o	n/a
570.211	0.105	1140422	keystroke	n	n/a
570.301	0.12	1140602	keystroke	Key.space	n/a
570.811	0.12	1141622	keystroke	s	n/a
571.006	0.09	1142012	keystroke	t	n/a
571.201	0.12	1142402	keystroke	r	n/a
571.336	0.21	1142672	keystroke	a	n/a
571.531	0.135	1143062	keystroke	g	n/a
571.636	0.135	1143272	keystroke	e	n/a
571.756	0.15	1143512	keystroke	Key.space	n/a
573.766	0.09	1147532	keystroke	Key.backspace	n/a
574.006	0.075	1148012	keystroke	Key.backspace	n/a
574.186	0.09	1148372	keystroke	Key.backspace	n/a
574.426	0.06	1148852	keystroke	j	n/a
574.471	0.03	1148942	keystroke	n	n/a
574.531	0.15	1149062	keystroke	g	n/a
574.606	0.15	1149212	keystroke	e	n/a
574.786	0.09	1149572	keystroke	Key.space	n/a
575.176	0.075	1150352	keystroke	Key.backspace	n/a
575.341	0.06	1150682	keystroke	Key.backspace	n/a
575.536	0.045	1151072	keystroke	Key.backspace	n/a
575.701	0.075	1151402	keystroke	Key.backspace	n/a
575.926	0.075	1151852	keystroke	Key.backspace	n/a
576.452	0.074	1152904	keystroke	n	n/a
576.661	0.135	1153322	keystroke	g	n/a
576.797	0.149	1153594	keystroke	e	n/a
576.961	0.105	1153922	keystroke	Key.space	n/a
577.711	0.15	1155422	keystroke	r	n/a
577.771	0.105	1155542	keystroke	e	n/a
578.221	0.105	1156442	keystroke	f	n/a
578.356	0.12	1156712	keystroke	l	n/a
578.491	0.075	1156982	keystroke	e	n/a
578.686	0.075	1157372	keystroke	c	n/a
578.776	0.165	1157552	keystroke	t	n/a
578.881	0.105	1157762	keystroke	e	n/a
579.076	0.12	1158152	keystroke	d	n/a
579.571	0.075	1159142	keystroke	Key.enter	n/a
579.6535	5.2305	1159307	prompt	n/a	bend firewall such testing\n
580.306	0.06	1160612	keystroke	b	n/a
580.426	0.075	1160852	keystroke	e	n/a
580.516	0.075	1161032	keystroke	n	n/a
580.606	0.105	1161212	keystroke	d	n/a
580.712	0.104	1161424	keystroke	Key.space	n/a
581.431	0.075	1162862	keystroke	f	n/a
581.521	0.045	1163042	keystroke	i	n/a
581.611	0.15	1163222	keystroke	r	n/a
581.686	0.105	1163372	keystroke	e	n/a
582.016	0.09	1164032	keystroke	w	n/a
582.241	0.135	1164482	keystroke	a	n/a
582.406	0.045	1164812	keystroke	l	n/a
582.526	0.105	1165052	keystroke	l	n/a
582.691	0.09	1165382	keystroke	Key.space	n/a
582.916	0.105	1165832	keystroke	s	n/a
582.977	0.059	1165954	keystroke	u	n/a
583.156	0.105	1166312	keystroke	c	n/a
583.216	0.06	1166432	keystroke	h	n/a
583.336	0.075	1166672	keystroke	Key.space	n/a
583.531	0.12	1167062	keystroke	t	n/a
583.592	0.104	1167184	keystroke	e	n/a
583.801	0.12	1167602	keystroke	s	n/a
583.966	0.105	1167932	keystroke	t	n/a
584.056	0.12	1168112	keystroke	i	n/a
584.146	0.075	1168292	keystroke	n	n/a
584.206	0.075	1168412	keystroke	g	n/a
584.791	0.09	1169582	keystroke	Key.enter	n/a
584.89	8.903	1169780	prompt	n/a	picnic appliances wallpaper programmes\n
585.586	0.12	1171172	keystroke	p	n/a
585.856	0.135	1171712	keystroke	c	n/a
586.696	0.12	1173392	keystroke	Key.backspace	n/a
586.967	0.09	1173934	keystroke	i	n/a
587.221	0.09	1174442	keystroke	c	n/a
587.371	0.06	1174742	keystroke	n	n/a
587.491	0.09	1174982	keystroke	i	n/a
587.641	0.09	1175282	keystroke	c	n/a
587.746	0.09	1175492	keystroke	Key.space	n/a
587.926	0.135	1175852	keystroke	a	n/a
588.046	0.09	1176092	keystroke	p	n/a
588.181	0.105	1176362	keystroke	p	n/a
588.662	0.074	1177324	keystroke	l	n/a
588.901	0.091	1177802	keystroke	i	n/a
589.052	0.164	1178104	keystroke	a	n/a
589.592	0.074	1179184	keystroke	n	n/a
589.711	0.06	1179422	keystroke	c	n/a
589.877	0.075	1179754	keystroke	e	n/a
590.161	0.105	1180322	keystroke	s	n/a
590.251	0.105	1180502	keystroke	Key.space	n/a
590.462	0.089	1180924	keystroke	w	n/a
590.746	0.136	1181492	keystroke	a	n/a
590.956	0.06	1181912	keystroke	l	n/a
591.106	0.06	1182212	keystroke	l	n/a
591.302	0.135	1182604	keystroke	p	n/a
591.406	0.135	1182812	keystroke	a	n/a
591.601	0.135	1183202	keystroke	p	n/a
591.721	0.15	1183442	keystroke	e	n/a
591.781	0.12	1183562	keystroke	r	n/a
591.946	0.135	1183892	keystroke	Key.space	n/a
592.291	0.12	1184582	keystroke	p	n/a
592.501	0.076	1185002	keystroke	r	n/a
592.561	0.09	1185122	keystroke	o	n/a
592.712	0.074	1185424	keystroke	g	n/a
592.937	0.09	1185874	keystroke	r	n/a
592.981	0.18	1185962	keystroke	a	n/a
593.146	0.03	1186292	keystroke	m	n/a
593.251	0.105	1186502	keystroke	m	n/a
593.341	0.091	1186682	keystroke	e	n/a
593.521	0.136	1187042	keystroke	s	n/a
593.686	0.105	1187372	keystroke	Key.enter	n/a
593.798	7.6145	1187596	prompt	n/a	chen alert player operators\n
594.6315	0.0895	1189263	keystroke	c	n/a
594.7365	0.09	1189473	keystroke	h	n/a
594.841	0.0755	1189682	keystroke	e	n/a
595.4405	0.075	1190881	keystroke	n	n/a
595.6055	0.106	1191211	keystroke	Key.space	n/a
595.967	0.1345	1191934	keystroke	a	n/a
596.2055	0.121	1192411	keystroke	l	n/a
596.3105	0.21	1192621	keystroke	e	n/a
596.5815	0.134	1193163	keystroke	r	n/a
596.8055	0.105	1193611	keystroke	t	n/a
597.2855	0.09	1194571	keystroke	Key.space	n/a
597.6005	0.106	1195201	keystroke	p	n/a
597.8265	0.089	1195653	keystroke	l	n/a
597.9905	0.165	1195981	keystroke	a	n/a
598.0965	0.075	1196193	keystroke	y	n/a
598.5765	0.119	1197153	keystroke	e	n/a
598.6655	0.105	1197331	keystroke	r	n/a
598.9355	0.105	1197871	keystroke	Key.space	n/a
599.2065	0.06	1198413	keystroke	o	n/a
599.7155	0.091	1199431	keystroke	p	n/a
599.9115	0.089	1199823	keystroke	e	n/a
600.1665	0.104	1200333	keystroke	r	n/a
600.2555	0.196	1200511	keystroke	a	n/a
600.4355	0.135	1200871	keystroke	t	n/a
600.8115	0.134	1201623	keystroke	o	n/a
600.9305	0.106	1201861	keystroke	r	n/a
601.1415	0.135	1202283	keystroke	s	n/a
601.2905	0.12	1202581	keystroke	Key.enter	n/a
601.4175	11.2905	1202835	prompt	n/a	pounds guilty populations marie\n
602.5515	0.12	1205103	keystroke	p	n/a
602.7765	0.105	1205553	keystroke	o	n/a
602.9415	0.06	1205883	keystroke	u	n/a
603.1665	0.09	1206333	keystroke	n	n/a
603.3905	0.061	1206781	keystroke	d	n/a
603.5415	0.135	1207083	keystroke	s	n/a
603.7065	0.12	1207413	keystroke	Key.space	n/a
604.7115	0.104	1209423	keystroke	q	n/a
604.8315	0.045	1209663	keystroke	u	n/a
604.9965	0.089	1209993	keystroke	i	n/a
606.0915	0.135	1212183	keystroke	l	n/a
607.2315	0.104	1214463	keystroke	Key.backspace	n/a
607.4265	0.075	1214853	keystroke	Key.backspace	n/a
607.5905	0.091	1215181	keystroke	Key.backspace	n/a
607.7715	0.09	1215543	keystroke	Key.backspace	n/a
608.0265	0.104	1216053	keystroke	g	n/a
608.1615	0.044	1216323	keystroke	u	n/a
608.3265	0.045	1216653	keystroke	i	n/a
608.4765	0.09	1216953	keystroke	l	n/a
608.9565	0.105	1217913	keystroke	t	n/a
609.0455	0.075	1218091	keystroke	y	n/a
609.5565	0.09	1219113	keystroke	Key.space	n/a
609.8115	0.105	1219623	keystroke	p	n/a
610.0815	0.075	1220163	keystroke	o	n/a
610.2605	0.106	1220521	keystroke	p	n/a
610.5015	0.044	1221003	keystroke	u	n/a
610.6815	0.089	1221363	keystroke	l	n/a
610.801	0.18	1221602	keystroke	a	n/a
610.996	0.15	1221992	keystroke	t	n/a
611.071	0.105	1222142	keystroke	i	n/a
611.161	0.165	1222322	keystroke	o	n/a
611.2965	0.0745	1222593	keystroke	n	n/a
611.356	0.12	1222712	keystroke	s	n/a
611.431	0.1055	1222862	keystroke	Key.space	n/a
611.656	0.105	1223312	keystroke	m	n/a
611.82	0.196	1223640	keystroke	a	n/a
612.12	0.12	1224240	keystroke	r	n/a
612.226	0.105	1224452	keystroke	i	n/a
612.3465	0.12	1224693	keystroke	e	n/a
612.586	0.12	1225172	keystroke	Key.enter	n/a
612.7125	9.7155	1225425	prompt	n/a	continuously testimonials interviews gentle\n
613.47	0.106	1226940	keystroke	c	n/a
613.531	0.0895	1227062	keystroke	o	n/a
613.651	0.09	1227302	keystroke	n	n/a
613.771	0.09	1227542	keystroke	t	n/a
613.891	0.09	1227782	keystroke	i	n/a
614.131	0.045	1228262	keystroke	n	n/a
614.296	0.06	1228592	keystroke	u	n/a
614.506	0.105	1229012	keystroke	o	n/a
614.612	0.0745	1229224	keystroke	u	n/a
614.731	0.165	1229462	keystroke	s	n/a
614.851	0.089	1229702	keystroke	l	n/a
615.091	0.06	1230182	keystroke	y	n/a
615.286	0.12	1230572	keystroke	Key.space	n/a
616.261	0.09	1232522	keystroke	t	n/a
616.366	0.105	1232732	keystroke	e	n/a
616.621	0.12	1233242	keystroke	s	n/a
617.521	0.105	1235042	keystroke	t	n/a
617.611	0.075	1235222	keystroke	i	n/a
617.911	0.06	1235822	keystroke	m	n/a
617.986	0.12	1235972	keystroke	o	n/a
618.181	0.09	1236362	keystroke	n	n/a
618.301	0.105	1236602	keystroke	i	n/a
618.466	0.135	1236932	keystroke	a	n/a
618.541	0.105	1237082	keystroke	l	n/a
618.661	0.12	1237322	keystroke	s	n/a
619.171	0.09	1238342	keystroke	Key.space	n/a
619.471	0.075	1238942	keystroke	i	n/a
619.606	0.09	1239212	keystroke	n	n/a
619.681	0.09	1239362	keystroke	t	n/a
619.786	0.135	1239572	keystroke	e	n/a
619.876	0.12	1239752	keystroke	r	n/a
620.146	0.105	1240292	keystroke	v	n/a
620.296	0.09	1240592	keystroke	i	n/a
620.401	0.135	1240802	keystroke	e	n/a
620.491	0.135	1240982	keystroke	w	n/a
620.731	0.105	1241462	keystroke	s	n/a
620.821	0.105	1241642	keystroke	Key.space	n/a
621.106	0.015	1242212	keystroke	g	n/a
621.211	0.105	1242422	keystroke	e	n/a
621.346	0.105	1242692	keystroke	n	n/a
621.481	0.15	1242962	keystroke	t	n/a
622.036	0.15	1244072	keystroke	l	n/a
622.156	0.12	1244312	keystroke	e	n/a
622.321	0.105	1244642	keystroke	Key.enter	n/a
622.4335	6.054	1244867	prompt	n/a	prepaid cables located voters\n
623.146	0.12	1246292	keystroke	p	n/a
623.446	0.165	1246892	keystroke	r	n/a
623.521	0.12	1247042	keystroke	e	n/a
623.656	0.135	1247312	keystroke	p	n/a
624.046	0.105	1248092	keystroke	a	n/a
624.166	0.09	1248332	keystroke	i	n/a
625.021	0.105	1250042	keystroke	d	n/a
625.111	0.105	1250222	keystroke	Key.space	n/a
625.381	0.105	1250762	keystroke	c	n/a
625.516	0.165	1251032	keystroke	a	n/a
625.651	0.06	1251302	keystroke	b	n/a
625.786	0.135	1251572	keystroke	l	n/a
625.906	0.09	1251812	keystroke	e	n/a
626.056	0.135	1252112	keystroke	s	n/a
626.161	0.075	1252322	keystroke	Key.space	n/a
626.266	0.09	1252532	keystroke	l	n/a
626.461	0.12	1252922	keystroke	o	n/a
626.596	0.09	1253192	keystroke	c	n/a
626.671	0.21	1253342	keystroke	a	n/a
626.836	0.12	1253672	keystroke	t	n/a
626.882	0.104	1253764	keystroke	e	n/a
627.076	0.09	1254152	keystroke	d	n/a
627.151	0.09	1254302	keystroke	Key.space	n/a
627.316	0.105	1254632	keystroke	v	n/a
627.406	0.12	1254812	keystroke	o	n/a
627.781	0.105	1255562	keystroke	t	n/a
627.871	0.18	1255742	keystroke	e	n/a
628.021	0.12	1256042	keystroke	r	n/a
628.231	0.15	1256462	keystroke	s	n/a
628.396	0.09	1256792	keystroke	Key.enter	n/a
628.4935	6.834	1256987	prompt	n/a	gradually equal pill modular\n
629.356	0.09	1258712	keystroke	g	n/a
629.611	0.18	1259222	keystroke	a	n/a
630.406	0.09	1260812	keystroke	Key.backspace	n/a
630.556	0.12	1261112	keystroke	r	n/a
630.631	0.12	1261262	keystroke	a	n/a
630.841	0.12	1261682	keystroke	d	n/a
630.901	0.075	1261802	keystroke	u	n/a
631.081	0.135	1262162	keystroke	a	n/a
631.186	0.06	1262372	keystroke	l	n/a
631.306	0.06	1262612	keystroke	l	n/a
631.471	0.06	1262942	keystroke	y	n/a
631.576	0.105	1263152	keystroke	Key.space	n/a
631.996	0.105	1263992	keystroke	e	n/a
632.191	0.12	1264382	keystroke	q	n/a
632.296	0.03	1264592	keystroke	u	n/a
632.521	0.135	1265042	keystroke	a	n/a
632.686	0.09	1265372	keystroke	l	n/a
632.851	0.105	1265702	keystroke	Key.space	n/a
633.046	0.105	1266092	keystroke	p	n/a
633.271	0.045	1266542	keystroke	i	n/a
633.466	0.06	1266932	keystroke	l	n/a
633.616	0.075	1267232	keystroke	l	n/a
633.991	0.09	1267982	keystroke	Key.space	n/a
634.366	0.06	1268732	keystroke	m	n/a
634.486	0.105	1268972	keystroke	o	n/a
634.651	0.135	1269302	keystroke	d	n/a
634.741	0.046	1269482	keystroke	u	n/a
634.891	0.075	1269782	keystroke	l	n/a
634.981	0.105	1269962	keystroke	a	n/a
635.056	0.105	1270112	keystroke	r	n/a
635.206	0.12	1270412	keystroke	Key.enter	n/a
635.3345	8.5285	1270669	prompt	n/a	collect where dodge argued\n
636.031	0.12	1272062	keystroke	c	n/a
636.121	0.09	1272242	keystroke	o	n/a
636.316	0.06	1272632	keystroke	l	n/a
636.436	0.12	1272872	keystroke	l	n/a
636.541	0.09	1273082	keystroke	e	n/a
636.811	0.09	1273622	keystroke	c	n/a
636.976	0.09	1273952	keystroke	t	n/a
638.896	0.09	1277792	keystroke	Key.space	n/a
639.151	0.135	1278302	keystroke	w	n/a
639.301	0.06	1278602	keystroke	h	n/a
639.391	0.18	1278782	keystroke	e	n/a
639.586	0.135	1279172	keystroke	r	n/a
639.676	0.15	1279352	keystroke	e	n/a
639.886	0.15	1279772	keystroke	Key.space	n/a
640.321	0.105	1280642	keystroke	d	n/a
640.366	0.12	1280732	keystroke	o	n/a
640.831	0.075	1281662	keystroke	d	n/a
641.011	0.12	1282022	keystroke	g	n/a
641.101	0.135	1282202	keystroke	e	n/a
641.296	0.15	1282592	keystroke	Key.space	n/a
641.971	0.165	1283942	keystroke	a	n/a
642.121	0.105	1284242	keystroke	r	n/a
642.376	0.12	1284752	keystroke	g	n/a
642.541	0.075	1285082	keystroke	u	n/a
642.646	0.105	1285292	keystroke	e	n/a
643.456	0.09	1286912	keystroke	d	n/a
643.756	0.105	1287512	keystroke	Key.enter	n/a
643.868	8.5005	1287736	prompt	n/a	examinations viral floating digital\n
644.551	0.06	1289102	keystroke	e	n/a
644.776	0.105	1289552	keystroke	x	n/a
644.9705	0.135	1289941	keystroke	a	n/a
645.1205	0.09	1290241	keystroke	m	n/a
645.331	0.045	1290662	keystroke	i	n/a
645.466	0.075	1290932	keystroke	n	n/a
645.5555	0.1505	1291111	keystroke	a	n/a
645.6755	0.105	1291351	keystroke	t	n/a
645.796	0.1045	1291592	keystroke	i	n/a
645.9305	0.15	1291861	keystroke	o	n/a
646.141	0.0895	1292282	keystroke	s	n/a
646.1555	0.105	1292311	keystroke	n	n/a
647.071	0.0895	1294142	keystroke	Key.backspace	n/a
647.2205	0.105	1294441	keystroke	Key.backspace	n/a
647.4755	0.06	1294951	keystroke	n	n/a
647.5805	0.12	1295161	keystroke	s	n/a
647.7905	0.12	1295581	keystroke	Key.space	n/a
648.5855	0.105	1297171	keystroke	v	n/a
648.7205	0.105	1297441	keystroke	i	n/a
648.9455	0.105	1297891	keystroke	r	n/a
649.0515	0.119	1298103	keystroke	a	n/a
649.1255	0.105	1298251	keystroke	l	n/a
649.2755	0.09	1298551	keystroke	Key.space	n/a
649.5005	0.135	1299001	keystroke	f	n/a
649.6055	0.075	1299211	keystroke	l	n/a
649.7855	0.09	1299571	keystroke	o	n/a
649.8605	0.12	1299721	keystroke	a	n/a
650.0705	0.105	1300141	keystroke	t	n/a
650.1765	0.119	1300353	keystroke	i	n/a
650.2505	0.09	1300501	keystroke	n	n/a
650.3415	0.089	1300683	keystroke	g	n/a
650.4155	0.105	1300831	keystroke	Key.space	n/a
650.8055	0.105	1301611	keystroke	d	n/a
650.8955	0.075	1301791	keystroke	i	n/a
651.0155	0.09	1302031	keystroke	g	n/a
651.1215	0.044	1302243	keystroke	i	n/a
651.3605	0.075	1302721	keystroke	t	n/a
651.4505	0.165	1302901	keystroke	a	n/a
651.6305	0.09	1303261	keystroke	l	n/a
652.2455	0.12	1304491	keystroke	Key.enter	n/a
652.3735	5.724	1304747	prompt	n/a	eight annex incurred joke\n
653.0865	0.104	1306173	keystroke	e	n/a
653.2505	0.075	1306501	keystroke	i	n/a
653.3555	0.075	1306711	keystroke	g	n/a
653.4455	0.06	1306891	keystroke	h	n/a
653.5355	0.09	1307071	keystroke	t	n/a
653.6405	0.09	1307281	keystroke	Key.space	n/a
653.8355	0.15	1307671	keystroke	a	n/a
653.9715	0.029	1307943	keystroke	n	n/a
654.0755	0.075	1308151	keystroke	n	n/a
654.1655	0.09	1308331	keystroke	e	n/a
654.4805	0.12	1308961	keystroke	x	n/a
654.7355	0.12	1309471	keystroke	Key.space	n/a
655.1555	0.06	1310311	keystroke	i	n/a
655.3205	0.06	1310641	keystroke	n	n/a
655.5155	0.105	1311031	keystroke	c	n/a
655.6055	0.06	1311211	keystroke	u	n/a
655.9355	0.045	1311871	keystroke	r	n/a
656.0705	0.165	1312141	keystroke	r	n/a
656.2055	0.12	1312411	keystroke	e	n/a
656.4755	0.105	1312951	keystroke	d	n/a
656.5655	0.12	1313131	keystroke	Key.space	n/a
656.7455	0.06	1313491	keystroke	j	n/a
656.8655	0.09	1313731	keystroke	o	n/a
657.6305	0.12	1315261	keystroke	k	n/a
657.8105	0.106	1315621	keystroke	e	n/a
657.9905	0.105	1315981	keystroke	Key.enter	n/a
658.1025	9.551	1316205	prompt	n/a	enrollment twist harassment assumed\n
658.8605	0.075	1317721	keystroke	e	n/a
659.1455	0.105	1318291	keystroke	n	n/a
659.3405	0.12	1318681	keystroke	r	n/a
659.4155	0.105	1318831	keystroke	o	n/a
659.6255	0.06	1319251	keystroke	l	n/a
659.7605	0.091	1319521	keystroke	l	n/a
659.9705	0.045	1319941	keystroke	m	n/a
660.0465	0.089	1320093	keystroke	e	n/a
660.1365	0.104	1320273	keystroke	n	n/a
660.2555	0.075	1320511	keystroke	t	n/a
660.3155	0.105	1320631	keystroke	Key.space	n/a
660.6005	0.075	1321201	keystroke	t	n/a
660.7955	0.151	1321591	keystroke	w	n/a
660.9915	0.104	1321983	keystroke	i	n/a
661.9205	0.135	1323841	keystroke	s	n/a
662.0705	0.09	1324141	keystroke	t	n/a
662.1455	0.12	1324291	keystroke	Key.space	n/a
662.7905	0.09	1325581	keystroke	h	n/a
662.9105	0.165	1325821	keystroke	a	n/a
663.2415	0.074	1326483	keystroke	r	n/a
663.3755	0.075	1326751	keystroke	r	n/a
663.4355	0.135	1326871	keystroke	a	n/a
664.4555	0.075	1328911	keystroke	Key.backspace	n/a
664.6205	0.075	1329241	keystroke	Key.backspace	n/a
664.9965	0.15	1329993	keystroke	a	n/a
665.3555	0.061	1330711	keystroke	s	n/a
665.4905	0.105	1330981	keystroke	s	n/a
665.6855	0.075	1331371	keystroke	m	n/a
665.7755	0.075	1331551	keystroke	e	n/a
665.8355	0.09	1331671	keystroke	n	n/a
665.9265	0.059	1331853	keystroke	t	n/a
666.0005	0.12	1332001	keystroke	Key.space	n/a
666.2255	0.15	1332451	keystroke	a	n/a
666.4805	0.06	1332961	keystroke	s	n/a
666.6005	0.135	1333201	keystroke	s	n/a
