onset	duration	sample	value	key	prompt_text
9.168	25.8785	18336	prompt	n/a	the quick brown fox jumps over a lazy dog\n
27.4535	0.026	54907	keystroke_t	t	n/a
27.494	0.121	54988	keystroke_h	h	n/a
27.8695	0.09	55739	keystroke_e	e	n/a
28.049	0.075	56098	keystroke_Key.space	Key.space	n/a
28.4095	0.0895	56819	keystroke_q	q	n/a
28.514	0.0755	57028	keystroke_u	u	n/a
28.634	0.075	57268	keystroke_i	i	n/a
28.724	0.09	57448	keystroke_c	c	n/a
28.8295	0.105	57659	keystroke_k	k	n/a
28.9495	0.075	57899	keystroke_Key.space	Key.space	n/a
29.3095	0.06	58619	keystroke_b	b	n/a
29.46	0.0745	58920	keystroke_r	r	n/a
29.5795	0.09	59159	keystroke_o	o	n/a
29.7	0.0895	59400	keystroke_w	w	n/a
29.7745	0.105	59549	keystroke_n	n	n/a
29.8945	0.089	59789	keystroke_Key.space	Key.space	n/a
30.315	0.0745	60630	keystroke_f	f	n/a
30.4645	0.105	60929	keystroke_o	o	n/a
30.614	0.0905	61228	keystroke_x	x	n/a
30.7485	0.0755	61497	keystroke_Key.space	Key.space	n/a
30.96	0.0755	61920	keystroke_j	j	n/a
31.1095	0.075	62219	keystroke_u	u	n/a
31.2595	0.1195	62519	keystroke_m	m	n/a
31.44	0.0895	62880	keystroke_p	p	n/a
31.6345	0.075	63269	keystroke_s	s	n/a
31.7705	0.074	63541	keystroke_Key.space	Key.space	n/a
32.0095	0.0755	64019	keystroke_o	o	n/a
32.1145	0.0895	64229	keystroke_v	v	n/a
32.265	0.0895	64530	keystroke_e	e	n/a
32.339	0.1055	64678	keystroke_r	r	n/a
32.429	0.0905	64858	keystroke_Key.space	Key.space	n/a
32.5495	0.105	65099	keystroke_a	a	n/a
32.6545	0.075	65309	keystroke_Key.space	Key.space	n/a
33.3595	0.165	66719	keystroke_l	l	n/a
33.5395	0.045	67079	keystroke_a	a	n/a
33.9	0.09	67800	keystroke_y	y	n/a
34.019	0.075	68038	keystroke_Key.space	Key.space	n/a
34.4695	0.09	68939	keystroke_d	d	n/a
34.5605	0.104	69121	keystroke_o	o	n/a
34.6795	0.09	69359	keystroke_g	g	n/a
34.9495	0.09	69899	keystroke_Key.enter	Key.enter	n/a
35.0605	9.61	70121	prompt	n/a	suit indoor kijiji folding\n
35.8495	0.09	71699	keystroke_s	s	n/a
35.9545	0.075	71909	keystroke_u	u	n/a
36.105	0.0895	72210	keystroke_i	i	n/a
36.2245	0.0895	72449	keystroke_t	t	n/a
36.419	0.0605	72838	keystroke_Key.space	Key.space	n/a
36.674	0.0755	73348	keystroke_i	i	n/a
36.809	0.09	73618	keystroke_n	n	n/a
37.034	0.061	74068	keystroke_d	d	n/a
37.215	0.045	74430	keystroke_d	d	n/a
37.9195	0.06	75839	keystroke_=	=	n/a
38.8495	0.074	77699	keystroke_Key.backspace	Key.backspace	n/a
39.015	0.0745	78030	keystroke_Key.backspace	Key.backspace	n/a
39.8995	0.075	79799	keystroke_o	o	n/a
40.0495	0.105	80099	keystroke_o	o	n/a
40.215	0.0745	80430	keystroke_r	r	n/a
40.3195	0.106	80639	keystroke_Key.space	Key.space	n/a
40.5895	0.075	81179	keystroke_k	k	n/a
41.52	0.074	83040	keystroke_i	i	n/a
41.819	0.076	83638	keystroke_j	j	n/a
41.97	0.075	83940	keystroke_i	i	n/a
42.135	0.105	84270	keystroke_j	j	n/a
42.2695	0.09	84539	keystroke_i	i	n/a
42.644	0.0445	85288	keystroke_Key.space	Key.space	n/a
42.8395	0.075	85679	keystroke_f	f	n/a
42.974	0.076	85948	keystroke_o	o	n/a
43.17	0.104	86340	keystroke_l	l	n/a
44.0845	0.0755	88169	keystroke_d	d	n/a
44.1895	0.165	88379	keystroke_i	i	n/a
44.2945	0.1645	88589	keystroke_n	n	n/a
44.384	0.09	88768	keystroke_g	g	n/a
44.594	0.0745	89188	keystroke_Key.enter	Key.enter	n/a
44.6735	9.568	89347	prompt	n/a	amazon document thumbnails interim\n
45.389	0.0765	90778	keystroke_a	a	n/a
45.479	0.12	90958	keystroke_m	m	n/a
45.6	0.074	91200	keystroke_a	a	n/a
45.8845	0.135	91769	keystroke_o	o	n/a
45.959	0.1795	91918	keystroke_n	n	n/a
46.1535	0.045	92307	keystroke_Key.space	Key.space	n/a
46.754	0.1955	93508	keystroke_Key.backspace	Key.backspace	n/a
46.9635	0.015	93927	keystroke_Key.backspace	Key.backspace	n/a
47.0845	0.075	94169	keystroke_Key.backspace	Key.backspace	n/a
47.8645	0.136	95729	keystroke_z	z	n/a
47.9545	0.135	95909	keystroke_o	o	n/a
48.0445	0.165	96089	keystroke_n	n	n/a
48.1795	0.075	96359	keystroke_Key.space	Key.space	n/a
48.359	0.076	96718	keystroke_d	d	n/a
48.479	0.075	96958	keystroke_o	o	n/a
48.705	0.075	97410	keystroke_c	c	n/a
48.7945	0.09	97589	keystroke_u	u	n/a
49.0055	0.1045	98011	keystroke_m	m	n/a
49.139	0.0755	98278	keystroke_e	e	n/a
49.2145	0.09	98429	keystroke_n	n	n/a
49.3195	0.0745	98639	keystroke_t	t	n/a
49.424	0.075	98848	keystroke_Key.space	Key.space	n/a
49.6195	0.0745	99239	keystroke_t	t	n/a
49.7095	0.0895	99419	keystroke_h	h	n/a
50.0545	0.0595	100109	keystroke_u	u	n/a
50.204	0.105	100408	keystroke_m	m	n/a
50.4295	0.0755	100859	keystroke_b	b	n/a
51.1795	0.0445	102359	keystroke_n	n	n/a
51.239	0.1205	102478	keystroke_a	a	n/a
51.36	0.119	102720	keystroke_i	i	n/a
51.434	0.1955	102868	keystroke_l	l	n/a
51.644	0.091	103288	keystroke_s	s	n/a
51.779	0.075	103558	keystroke_Key.space	Key.space	n/a
51.9595	0.0595	103919	keystroke_i	i	n/a
52.049	0.1355	104098	keystroke_n	n	n/a
52.185	0.0745	104370	keystroke_t	t	n/a
52.3195	0.105	104639	keystroke_e	e	n/a
52.4095	0.1055	104819	keystroke_r	r	n/a
52.6795	0.06	105359	keystroke_i	i	n/a
52.8145	0.12	105629	keystroke_m	m	n/a
54.1345	0.1045	108269	keystroke_Key.enter	Key.enter	n/a
54.2465	7.9955	108493	prompt	n/a	sudan symbol metro versions\n
56.227	0.088	112454	keystroke_s	s	n/a
56.3445	0.089	112689	keystroke_u	u	n/a
57.228	0.06	114456	keystroke_d	d	n/a
57.3325	0.119	114665	keystroke_a	a	n/a
57.4845	0.1195	114969	keystroke_n	n	n/a
57.634	0.0595	115268	keystroke_Key.space	Key.space	n/a
57.872	0.0785	115744	keystroke_s	s	n/a
58.1435	0.104	116287	keystroke_y	y	n/a
58.637	0.183	117274	keystroke_m	m	n/a
59.5665	0.079	119133	keystroke_b	b	n/a
59.6605	0.089	119321	keystroke_o	o	n/a
59.8535	0.104	119707	keystroke_l	l	n/a
59.9715	0.0635	119943	keystroke_Key.space	Key.space	n/a
60.1405	0.0885	120281	keystroke_m	m	n/a
60.2595	0.074	120519	keystroke_e	e	n/a
60.408	0.078	120816	keystroke_t	t	n/a
60.545	0.105	121090	keystroke_r	r	n/a
60.6645	0.103	121329	keystroke_o	o	n/a
60.7975	0.078	121595	keystroke_Key.space	Key.space	n/a
61.203	0.045	122406	keystroke_v	v	n/a
61.3255	0.089	122651	keystroke_e	e	n/a
61.3995	0.088	122799	keystroke_r	r	n/a
61.6225	0.0935	123245	keystroke_s	s	n/a
61.6835	0.1215	123367	keystroke_i	i	n/a
61.7755	0.1485	123551	keystroke_o	o	n/a
61.8645	0.1635	123729	keystroke_n	n	n/a
61.9685	0.0895	123937	keystroke_s	s	n/a
62.1335	0.1065	124267	keystroke_Key.enter	Key.enter	n/a
62.247	5.0795	124494	prompt	n/a	verde letter showers crisis\n
62.9725	0.0775	125945	keystroke_v	v	n/a
63.139	0.104	126278	keystroke_e	e	n/a
63.2135	0.0895	126427	keystroke_r	r	n/a
63.471	0.0735	126942	keystroke_d	d	n/a
63.6345	0.0595	127269	keystroke_e	e	n/a
63.7835	0.058	127567	keystroke_Key.space	Key.space	n/a
63.9645	0.104	127929	keystroke_l	l	n/a
64.0835	0.0745	128167	keystroke_e	e	n/a
64.247	0.078	128494	keystroke_t	t	n/a
64.414	0.0745	128828	keystroke_t	t	n/a
64.548	0.105	129096	keystroke_e	e	n/a
64.637	0.093	129274	keystroke_r	r	n/a
64.76	0.0745	129520	keystroke_Key.space	Key.space	n/a
64.9385	0.0745	129877	keystroke_s	s	n/a
65.043	0.0755	130086	keystroke_h	h	n/a
65.181	0.1035	130362	keystroke_o	o	n/a
65.2995	0.089	130599	keystroke_w	w	n/a
65.4625	0.1075	130925	keystroke_e	e	n/a
65.5535	0.1065	131107	keystroke_r	r	n/a
65.749	0.0895	131498	keystroke_s	s	n/a
65.883	0.0735	131766	keystroke_Key.space	Key.space	n/a
66.0655	0.0745	132131	keystroke_c	c	n/a
66.244	0.0735	132488	keystroke_r	r	n/a
66.41	0.0905	132820	keystroke_i	i	n/a
66.6935	0.106	133387	keystroke_s	s	n/a
66.8465	0.074	133693	keystroke_i	i	n/a
66.936	0.089	133872	keystroke_s	s	n/a
67.2345	0.0895	134469	keystroke_Key.enter	Key.enter	n/a
67.333	21.9545	134666	prompt	n/a	economies density album months\n
68.165	0.0895	136330	keystroke_e	e	n/a
68.433	0.091	136866	keystroke_c	c	n/a
68.6	0.0905	137200	keystroke_o	o	n/a
68.9275	0.063	137855	keystroke_n	n	n/a
69.065	0.0745	138130	keystroke_o	o	n/a
69.199	0.0895	138398	keystroke_m	m	n/a
69.364	0.0915	138728	keystroke_i	i	n/a
73.8205	0.029	147641	keystroke_n	n	n/a
73.9245	0.134	147849	keystroke_o	o	n/a
74.883	0.092	149766	keystroke_m	m	n/a
75.0345	0.0895	150069	keystroke_i	i	n/a
75.3465	0.078	150693	keystroke_e	e	n/a
75.47	0.0895	150940	keystroke_s	s	n/a
75.619	0.0745	151238	keystroke_Key.space	Key.space	n/a
75.8615	0.074	151723	keystroke_d	d	n/a
76.0095	0.0895	152019	keystroke_e	e	n/a
84.384	0.0865	168768	keystroke_d	d	n/a
84.787	0.1035	169574	keystroke_e	e	n/a
85.579	0.107	171158	keystroke_n	n	n/a
85.8655	0.0895	171731	keystroke_s	s	n/a
85.97	0.0915	171940	keystroke_i	i	n/a
86.0765	0.0895	172153	keystroke_t	t	n/a
86.181	0.1045	172362	keystroke_y	y	n/a
86.3005	0.0595	172601	keystroke_Key.space	Key.space	n/a
86.4495	0.0915	172899	keystroke_a	a	n/a
86.7945	0.1045	173589	keystroke_l	l	n/a
87.096	0.0745	174192	keystroke_b	b	n/a
87.456	0.105	174912	keystroke_u	u	n/a
87.831	0.0895	175662	keystroke_m	m	n/a
88.055	0.075	176110	keystroke_Key.space	Key.space	n/a
88.2815	0.1045	176563	keystroke_m	m	n/a
88.431	0.075	176862	keystroke_o	o	n/a
88.5355	0.105	177071	keystroke_n	n	n/a
88.7305	0.0755	177461	keystroke_t	t	n/a
88.836	0.0895	177672	keystroke_h	h	n/a
88.9995	0.1075	177999	keystroke_s	s	n/a
89.1815	0.1045	178363	keystroke_Key.enter	Key.enter	n/a
89.2925	5.816	178585	prompt	n/a	detail choosing alerts madness\n
89.976	0.09	179952	keystroke_d	d	n/a
90.1255	0.075	180251	keystroke_e	e	n/a
90.26	0.091	180520	keystroke_t	t	n/a
90.3815	0.089	180763	keystroke_a	a	n/a
90.4855	0.1345	180971	keystroke_i	i	n/a
90.56	0.1645	181120	keystroke_l	l	n/a
90.7705	0.076	181541	keystroke_Key.space	Key.space	n/a
91.0255	0.0895	182051	keystroke_c	c	n/a
91.13	0.076	182260	keystroke_h	h	n/a
91.281	0.0895	182562	keystroke_o	o	n/a
91.641	0.075	183282	keystroke_o	o	n/a
91.8655	0.0895	183731	keystroke_s	s	n/a
92.015	0.122	184030	keystroke_i	i	n/a
92.107	0.15	184214	keystroke_n	n	n/a
92.1815	0.09	184363	keystroke_g	g	n/a
92.272	0.089	184544	keystroke_Key.space	Key.space	n/a
92.467	0.0895	184934	keystroke_a	a	n/a
92.6165	0.1195	185233	keystroke_l	l	n/a
92.917	0.105	185834	keystroke_e	e	n/a
93.0065	0.105	186013	keystroke_r	r	n/a
93.261	0.076	186522	keystroke_t	t	n/a
93.487	0.0885	186974	keystroke_s	s	n/a
93.6205	0.0915	187241	keystroke_Key.space	Key.space	n/a
93.817	0.1195	187634	keystroke_m	m	n/a
93.966	0.104	187932	keystroke_a	a	n/a
94.1465	0.0895	188293	keystroke_d	d	n/a
94.4465	0.089	188893	keystroke_n	n	n/a
94.5665	0.0605	189133	keystroke_e	e	n/a
94.7155	0.0605	189431	keystroke_s	s	n/a
94.865	0.0745	189730	keystroke_s	s	n/a
95.016	0.09	190032	keystroke_Key.enter	Key.enter	n/a
95.117	6.3655	190234	prompt	n/a	seattle speaking chem equity\n
95.766	0.106	191532	keystroke_s	s	n/a
95.932	0.0895	191864	keystroke_e	e	n/a
96.066	0.12	192132	keystroke_a	a	n/a
96.3665	0.09	192733	keystroke_t	t	n/a
96.5605	0.0905	193121	keystroke_t	t	n/a
96.7715	0.1195	193543	keystroke_l	l	n/a
96.921	0.075	193842	keystroke_e	e	n/a
97.132	0.075	194264	keystroke_Key.space	Key.space	n/a
97.3415	0.075	194683	keystroke_s	s	n/a
98.0765	0.1345	196153	keystroke_p	p	n/a
98.3765	0.06	196753	keystroke_e	e	n/a
98.4815	0.1355	196963	keystroke_a	a	n/a
98.661	0.0745	197322	keystroke_k	k	n/a
98.8425	0.1185	197685	keystroke_i	i	n/a
98.917	0.1795	197834	keystroke_n	n	n/a
98.976	0.15	197952	keystroke_g	g	n/a
99.111	0.075	198222	keystroke_Key.space	Key.space	n/a
99.3065	0.09	198613	keystroke_c	c	n/a
99.4255	0.0895	198851	keystroke_h	h	n/a
99.546	0.0745	199092	keystroke_e	e	n/a
99.8155	0.0895	199631	keystroke_m	m	n/a
99.9955	0.09	199991	keystroke_Key.space	Key.space	n/a
100.2065	0.088	200413	keystroke_e	e	n/a
100.46	0.1365	200920	keystroke_q	q	n/a
100.581	0.0905	201162	keystroke_u	u	n/a
100.7455	0.106	201491	keystroke_i	i	n/a
100.9115	0.09	201823	keystroke_t	t	n/a
101.0305	0.075	202061	keystroke_y	y	n/a
101.3905	0.09	202781	keystroke_Key.enter	Key.enter	n/a
101.4885	8.32	202977	prompt	n/a	shipments presidential prostores refused\n
102.3365	0.0905	204673	keystroke_s	s	n/a
102.4415	0.075	204883	keystroke_h	h	n/a
102.547	0.1045	205094	keystroke_i	i	n/a
102.6665	0.1055	205333	keystroke_p	p	n/a
102.9055	0.0915	205811	keystroke_m	m	n/a
103.012	0.0745	206024	keystroke_e	e	n/a
103.102	0.1045	206204	keystroke_n	n	n/a
103.1915	0.075	206383	keystroke_t	t	n/a
103.356	0.09	206712	keystroke_s	s	n/a
103.476	0.075	206952	keystroke_Key.space	Key.space	n/a
103.685	0.1055	207370	keystroke_p	p	n/a
103.7745	0.107	207549	keystroke_r	r	n/a
103.866	0.0765	207732	keystroke_e	e	n/a
104.211	0.076	208422	keystroke_s	s	n/a
104.4515	0.075	208903	keystroke_i	i	n/a
104.8105	0.045	209621	keystroke_e	e	n/a
104.8855	0.0905	209771	keystroke_n	n	n/a
104.991	0.075	209982	keystroke_t	t	n/a
105.127	0.0745	210254	keystroke_i	i	n/a
105.157	0.1035	210314	keystroke_a	a	n/a
105.3215	0.1185	210643	keystroke_l	l	n/a
105.455	0.076	210910	keystroke_Key.space	Key.space	n/a
105.6515	0.1195	211303	keystroke_p	p	n/a
105.7565	0.0745	211513	keystroke_r	r	n/a
105.8455	0.09	211691	keystroke_o	o	n/a
106.0565	0.09	212113	keystroke_s	s	n/a
106.4465	0.09	212893	keystroke_t	t	n/a
106.8065	0.09	213613	keystroke_o	o	n/a
106.9115	0.09	213823	keystroke_r	r	n/a
107.076	0.075	214152	keystroke_e	e	n/a
107.272	0.0755	214544	keystroke_s	s	n/a
107.4065	0.075	214813	keystroke_Key.space	Key.space	n/a
107.6315	0.0755	215263	keystroke_r	r	n/a
107.752	0.0745	215504	keystroke_e	e	n/a
107.9615	0.091	215923	keystroke_f	f	n/a
108.1125	0.0895	216225	keystroke_u	u	n/a
108.547	0.105	217094	keystroke_s	s	n/a
108.6815	0.061	217363	keystroke_e	e	n/a
108.861	0.076	217722	keystroke_d	d	n/a
109.7315	0.0755	219463	keystroke_Key.enter	Key.enter	n/a
109.8215	7.5345	219643	prompt	n/a	indonesia region stated dryer\n
110.586	0.0605	221172	keystroke_i	i	n/a
110.7065	0.1055	221413	keystroke_n	n	n/a
110.9015	0.1205	221803	keystroke_d	d	n/a
111.052	0.09	222104	keystroke_o	o	n/a
112.912	0.0895	225824	keystroke_n	n	n/a
113.2275	0.12	226455	keystroke_e	e	n/a
113.602	0.09	227204	keystroke_s	s	n/a
113.707	0.09	227414	keystroke_i	i	n/a
113.798	0.119	227596	keystroke_a	a	n/a
113.962	0.105	227924	keystroke_Key.space	Key.space	n/a
114.2315	0.105	228463	keystroke_r	r	n/a
114.3665	0.0605	228733	keystroke_e	e	n/a
114.593	0.0735	229186	keystroke_g	g	n/a
114.697	0.136	229394	keystroke_i	i	n/a
114.803	0.15	229606	keystroke_o	o	n/a
114.908	0.1645	229816	keystroke_n	n	n/a
115.0565	0.075	230113	keystroke_Key.space	Key.space	n/a
115.237	0.1055	230474	keystroke_s	s	n/a
115.3715	0.091	230743	keystroke_t	t	n/a
115.492	0.1045	230984	keystroke_a	a	n/a
115.5665	0.1205	231133	keystroke_t	t	n/a
115.747	0.09	231494	keystroke_e	e	n/a
115.927	0.0905	231854	keystroke_d	d	n/a
116.062	0.0605	232124	keystroke_Key.space	Key.space	n/a
116.287	0.0895	232574	keystroke_d	d	n/a
116.4225	0.09	232845	keystroke_r	r	n/a
116.7815	0.0755	233563	keystroke_y	y	n/a
116.963	0.09	233926	keystroke_e	e	n/a
117.038	0.0895	234076	keystroke_r	r	n/a
117.2625	0.09	234525	keystroke_Key.enter	Key.enter	n/a
117.3655	5.9285	234731	prompt	n/a	cement apparatus house slave\n
118.4325	0.0895	236865	keystroke_c	c	n/a
118.6115	0.061	237223	keystroke_e	e	n/a
118.867	0.016	237734	keystroke_m	m	n/a
118.897	0.045	237794	keystroke_e	e	n/a
118.972	0.106	237944	keystroke_n	n	n/a
119.0325	0.09	238065	keystroke_t	t	n/a
119.1665	0.076	238333	keystroke_Key.space	Key.space	n/a
119.347	0.1055	238694	keystroke_a	a	n/a
119.5575	0.075	239115	keystroke_p	p	n/a
119.7065	0.09	239413	keystroke_p	p	n/a
119.9015	0.105	239803	keystroke_a	a	n/a
120.127	0.0745	240254	keystroke_r	r	n/a
120.4565	0.105	240913	keystroke_a	a	n/a
120.787	0.075	241574	keystroke_t	t	n/a
120.907	0.1045	241814	keystroke_u	u	n/a
121.0715	0.106	242143	keystroke_s	s	n/a
121.207	0.0755	242414	keystroke_Key.space	Key.space	n/a
121.552	0.075	243104	keystroke_h	h	n/a
121.687	0.135	243374	keystroke_o	o	n/a
121.777	0.1355	243554	keystroke_u	u	n/a
121.8815	0.121	243763	keystroke_s	s	n/a
121.9865	0.121	243973	keystroke_e	e	n/a
122.1365	0.1055	244273	keystroke_Key.space	Key.space	n/a
122.392	0.0895	244784	keystroke_s	s	n/a
122.4975	0.1345	244995	keystroke_l	l	n/a
122.6165	0.091	245233	keystroke_a	a	n/a
122.782	0.105	245564	keystroke_v	v	n/a
122.948	0.075	245896	keystroke_e	e	n/a
123.202	0.0905	246404	keystroke_Key.enter	Key.enter	n/a
123.299	10.78	246598	prompt	n/a	bright assessments plan appreciate\n
124.1475	0.0745	248295	keystroke_b	b	n/a
124.327	0.0745	248654	keystroke_r	r	n/a
124.507	0.061	249014	keystroke_i	i	n/a
124.6275	0.0755	249255	keystroke_g	g	n/a
124.718	0.1045	249436	keystroke_h	h	n/a
124.807	0.075	249614	keystroke_t	t	n/a
124.927	0.0615	249854	keystroke_Key.space	Key.space	n/a
125.1085	0.1195	250217	keystroke_a	a	n/a
125.347	0.0605	250694	keystroke_s	s	n/a
125.4975	0.075	250995	keystroke_s	s	n/a
125.6775	0.075	251355	keystroke_e	e	n/a
125.9175	0.075	251835	keystroke_s	s	n/a
126.067	0.09	252134	keystroke_s	s	n/a
126.352	0.075	252704	keystroke_m	m	n/a
126.457	0.0755	252914	keystroke_e	e	n/a
126.534	0.088	253068	keystroke_n	n	n/a
126.637	0.0755	253274	keystroke_t	t	n/a
126.7725	0.1345	253545	keystroke_s	s	n/a
126.9515	0.0755	253903	keystroke_Key.space	Key.space	n/a
127.252	0.0895	254504	keystroke_p	p	n/a
127.551	0.031	255102	keystroke_l	l	n/a
127.5665	0.09	255133	keystroke_a	a	n/a
127.6715	0.0905	255343	keystroke_n	n	n/a
127.7775	0.1045	255555	keystroke_Key.space	Key.space	n/a
131.259	0.028	262518	keystroke_l	l	n/a
131.4825	0.1205	262965	keystroke_a	a	n/a
131.843	0.0895	263686	keystroke_n	n	n/a
132.1875	0.06	264375	keystroke_Key.space	Key.space	n/a
132.4425	0.1055	264885	keystroke_a	a	n/a
132.5935	0.09	265187	keystroke_p	p	n/a
132.7435	0.0895	265487	keystroke_p	p	n/a
132.863	0.135	265726	keystroke_r	r	n/a
132.983	0.09	265966	keystroke_e	e	n/a
133.389	0.074	266778	keystroke_c	c	n/a
133.464	0.104	266928	keystroke_i	i	n/a
133.5525	0.1205	267105	keystroke_a	a	n/a
133.628	0.1195	267256	keystroke_t	t	n/a
133.7485	0.089	267497	keystroke_e	e	n/a
133.973	0.1045	267946	keystroke_Key.enter	Key.enter	n/a
134.0825	11.622	268165	prompt	n/a	armor romantic character sullivan\n
134.738	0.0905	269476	keystroke_a	a	n/a
134.873	0.12	269746	keystroke_m	m	n/a
135.143	0.0895	270286	keystroke_o	o	n/a
135.2475	0.1055	270495	keystroke_r	r	n/a
135.3675	0.075	270735	keystroke_Key.space	Key.space	n/a
135.6075	0.09	271215	keystroke_r	r	n/a
135.7575	0.0755	271515	keystroke_o	o	n/a
135.998	0.09	271996	keystroke_m	m	n/a
136.208	0.1055	272416	keystroke_a	a	n/a
136.448	0.09	272896	keystroke_n	n	n/a
136.8975	0.076	273795	keystroke_t	t	n/a
136.9885	0.0895	273977	keystroke_i	i	n/a
137.1375	0.075	274275	keystroke_c	c	n/a
137.273	0.0905	274546	keystroke_Key.space	Key.space	n/a
137.543	0.0905	275086	keystroke_c	c	n/a
137.6485	0.075	275297	keystroke_h	h	n/a
137.7675	0.135	275535	keystroke_a	a	n/a
137.9325	0.075	275865	keystroke_r	r	n/a
138.2325	0.1055	276465	keystroke_a	a	n/a
138.4425	0.104	276885	keystroke_c	c	n/a
138.6675	0.0605	277335	keystroke_t	t	n/a
138.863	0.104	277726	keystroke_e	e	n/a
138.953	0.0905	277906	keystroke_r	r	n/a
139.118	0.09	278236	keystroke_Key.space	Key.space	n/a
139.4185	0.104	278837	keystroke_s	s	n/a
139.8825	0.0905	279765	keystroke_u	u	n/a
140.618	0.1795	281236	keystroke_i	i	n/a
141.8785	0.074	283757	keystroke_Key.backspace	Key.backspace	n/a
143.589	0.0885	287178	keystroke_l	l	n/a
143.752	0.09	287504	keystroke_l	l	n/a
144.5785	0.075	289157	keystroke_i	i	n/a
144.9825	0.09	289965	keystroke_v	v	n/a
145.118	0.1045	290236	keystroke_a	a	n/a
145.237	0.105	290474	keystroke_n	n	n/a
145.6575	0.0455	291315	keystroke_Key.enter	Key.enter	n/a
145.7085	6.7615	291417	prompt	n/a	satin globe woods sitting\n
146.5285	0.0895	293057	keystroke_s	s	n/a
146.663	0.1045	293326	keystroke_a	a	n/a
146.8735	0.0895	293747	keystroke_t	t	n/a
147.369	0.0595	294738	keystroke_i	i	n/a
147.473	0.1195	294946	keystroke_n	n	n/a
147.6075	0.09	295215	keystroke_Key.space	Key.space	n/a
147.9675	0.075	295935	keystroke_g	g	n/a
148.1025	0.106	296205	keystroke_l	l	n/a
148.313	0.075	296626	keystroke_o	o	n/a
148.508	0.0755	297016	keystroke_b	b	n/a
148.659	0.075	297318	keystroke_e	e	n/a
148.7485	0.105	297497	keystroke_Key.space	Key.space	n/a
148.913	0.0905	297826	keystroke_w	w	n/a
149.063	0.06	298126	keystroke_o	o	n/a
149.2135	0.0745	298427	keystroke_o	o	n/a
149.3485	0.089	298697	keystroke_d	d	n/a
149.933	0.09	299866	keystroke_s	s	n/a
150.068	0.105	300136	keystroke_Key.space	Key.space	n/a
150.445	0.103	300890	keystroke_s	s	n/a
150.8175	0.0905	301635	keystroke_t	t	n/a
151.313	0.0745	302626	keystroke_Key.backspace	Key.backspace	n/a
151.538	0.09	303076	keystroke_i	i	n/a
151.748	0.0605	303496	keystroke_t	t	n/a
151.898	0.075	303796	keystroke_t	t	n/a
151.9885	0.1495	303977	keystroke_i	i	n/a
152.0935	0.1495	304187	keystroke_n	n	n/a
152.183	0.0905	304366	keystroke_g	g	n/a
152.3635	0.105	304727	keystroke_Key.enter	Key.enter	n/a
152.4755	5.8325	304951	prompt	n/a	becomes horn cats evidence\n
153.743	0.075	307486	keystroke_b	b	n/a
153.878	0.0755	307756	keystroke_e	e	n/a
154.104	0.105	308208	keystroke_c	c	n/a
154.223	0.136	308446	keystroke_o	o	n/a
154.314	0.164	308628	keystroke_m	m	n/a
154.433	0.091	308866	keystroke_e	e	n/a
154.584	0.09	309168	keystroke_s	s	n/a
154.719	0.074	309438	keystroke_Key.space	Key.space	n/a
154.973	0.061	309946	keystroke_h	h	n/a
155.124	0.0895	310248	keystroke_o	o	n/a
155.394	0.015	310788	keystroke_r	r	n/a
155.439	0.105	310878	keystroke_n	n	n/a
155.574	0.0895	311148	keystroke_Key.space	Key.space	n/a
155.873	0.075	311746	keystroke_c	c	n/a
155.994	0.1035	311988	keystroke_a	a	n/a
156.158	0.0895	312316	keystroke_t	t	n/a
156.338	0.09	312676	keystroke_s	s	n/a
156.473	0.075	312946	keystroke_Key.space	Key.space	n/a
156.728	0.0755	313456	keystroke_e	e	n/a
156.9385	0.12	313877	keystroke_v	v	n/a
157.2385	0.074	314477	keystroke_i	i	n/a
157.463	0.076	314926	keystroke_d	d	n/a
157.644	0.0745	315288	keystroke_e	e	n/a
157.7485	0.09	315497	keystroke_n	n	n/a
157.883	0.0765	315766	keystroke_c	c	n/a
158.0485	0.076	316097	keystroke_e	e	n/a
158.1985	0.105	316397	keystroke_Key.enter	Key.enter	n/a
158.323	7.094	316646	prompt	n/a	iowa slim regime matched\n
159.4285	0.075	318857	keystroke_i	i	n/a
159.789	0.1035	319578	keystroke_o	o	n/a
160.0585	0.0605	320117	keystroke_w	w	n/a
160.164	0.12	320328	keystroke_a	a	n/a
160.3735	0.075	320747	keystroke_Key.space	Key.space	n/a
160.854	0.09	321708	keystroke_s	s	n/a
160.989	0.135	321978	keystroke_l	l	n/a
161.0945	0.1345	322189	keystroke_i	i	n/a
161.47	0.104	322940	keystroke_m	m	n/a
161.708	0.0605	323416	keystroke_Key.space	Key.space	n/a
161.963	0.105	323926	keystroke_r	r	n/a
162.0985	0.075	324197	keystroke_e	e	n/a
162.309	0.075	324618	keystroke_g	g	n/a
162.4135	0.135	324827	keystroke_i	i	n/a
162.5335	0.135	325067	keystroke_n	n	n/a
163.0585	0.075	326117	keystroke_Key.backspace	Key.backspace	n/a
163.3135	0.105	326627	keystroke_m	m	n/a
163.4935	0.075	326987	keystroke_e	e	n/a
163.6725	0.0755	327345	keystroke_Key.space	Key.space	n/a
164.0185	0.1055	328037	keystroke_m	m	n/a
164.1075	0.1205	328215	keystroke_a	a	n/a
164.274	0.089	328548	keystroke_t	t	n/a
164.574	0.0895	329148	keystroke_c	c	n/a
164.6485	0.105	329297	keystroke_h	h	n/a
164.7845	0.0745	329569	keystroke_e	e	n/a
165.0835	0.09	330167	keystroke_d	d	n/a
165.324	0.0885	330648	keystroke_Key.enter	Key.enter	n/a
165.434	7.6165	330868	prompt	n/a	scholar contacting interfaces engineers\n
166.254	0.0895	332508	keystroke_s	s	n/a
166.494	0.0905	332988	keystroke_c	c	n/a
166.899	0.075	333798	keystroke_h	h	n/a
167.1985	0.09	334397	keystroke_o	o	n/a
167.424	0.1045	334848	keystroke_l	l	n/a
167.513	0.1205	335026	keystroke_a	a	n/a
167.6185	0.105	335237	keystroke_r	r	n/a
167.8135	0.075	335627	keystroke_Key.space	Key.space	n/a
168.0385	0.075	336077	keystroke_c	c	n/a
168.1435	0.1355	336287	keystroke_o	o	n/a
168.2485	0.15	336497	keystroke_n	n	n/a
168.414	0.09	336828	keystroke_t	t	n/a
168.564	0.075	337128	keystroke_a	a	n/a
168.7435	0.09	337487	keystroke_c	c	n/a
168.9235	0.091	337847	keystroke_t	t	n/a
169.0735	0.1355	338147	keystroke_i	i	n/a
169.163	0.165	338326	keystroke_n	n	n/a
169.268	0.09	338536	keystroke_g	g	n/a
169.3435	0.09	338687	keystroke_Key.space	Key.space	n/a
169.584	0.06	339168	keystroke_i	i	n/a
169.704	0.105	339408	keystroke_n	n	n/a
169.8385	0.0605	339677	keystroke_t	t	n/a
170.003	0.105	340006	keystroke_e	e	n/a
170.094	0.104	340188	keystroke_r	r	n/a
170.3645	0.089	340729	keystroke_f	f	n/a
170.484	0.119	340968	keystroke_a	a	n/a
170.7385	0.0755	341477	keystroke_c	c	n/a
170.934	0.06	341868	keystroke_e	e	n/a
171.084	0.0745	342168	keystroke_s	s	n/a
171.219	0.089	342438	keystroke_Key.space	Key.space	n/a
171.533	0.075	343066	keystroke_e	e	n/a
171.684	0.1045	343368	keystroke_n	n	n/a
171.879	0.075	343758	keystroke_g	g	n/a
172.029	0.0755	344058	keystroke_i	i	n/a
172.149	0.12	344298	keystroke_n	n	n/a
172.3445	0.06	344689	keystroke_e	e	n/a
172.4945	0.0895	344989	keystroke_e	e	n/a
172.599	0.0755	345198	keystroke_r	r	n/a
172.7495	0.1055	345499	keystroke_s	s	n/a
172.929	0.1195	345858	keystroke_Key.enter	Key.enter	n/a
173.0615	6.846	346123	prompt	n/a	injury tribute muze studio\n
173.7695	0.0595	347539	keystroke_i	i	n/a
173.903	0.0905	347806	keystroke_n	n	n/a
174.1885	0.0755	348377	keystroke_j	j	n/a
174.3835	0.075	348767	keystroke_u	u	n/a
175.4485	0.0745	350897	keystroke_r	r	n/a
175.569	0.09	351138	keystroke_y	y	n/a
175.704	0.075	351408	keystroke_Key.space	Key.space	n/a
176.0335	0.075	352067	keystroke_t	t	n/a
176.199	0.061	352398	keystroke_r	r	n/a
176.289	0.075	352578	keystroke_i	i	n/a
176.499	0.075	352998	keystroke_b	b	n/a
176.6045	0.0885	353209	keystroke_u	u	n/a
176.7095	0.075	353419	keystroke_t	t	n/a
177.1595	0.0895	354319	keystroke_e	e	n/a
177.2935	0.0905	354587	keystroke_Key.space	Key.space	n/a
177.5935	0.091	355187	keystroke_m	m	n/a
177.789	0.09	355578	keystroke_u	u	n/a
178.1185	0.1055	356237	keystroke_z	z	n/a
178.344	0.09	356688	keystroke_e	e	n/a
178.508	0.091	357016	keystroke_Key.space	Key.space	n/a
178.689	0.0905	357378	keystroke_s	s	n/a
178.8395	0.0895	357679	keystroke_t	t	n/a
178.9885	0.1055	357977	keystroke_u	u	n/a
179.124	0.075	358248	keystroke_d	d	n/a
179.4095	0.1195	358819	keystroke_i	i	n/a
179.484	0.1645	358968	keystroke_o	o	n/a
179.8135	0.0905	359627	keystroke_Key.enter	Key.enter	n/a
179.924	8.2915	359848	prompt	n/a	forever sussex arrangements motorcycle\n
180.759	0.0745	361518	keystroke_f	f	n/a
180.8495	0.1195	361699	keystroke_o	o	n/a
180.999	0.09	361998	keystroke_r	r	n/a
181.2845	0.0745	362569	keystroke_e	e	n/a
181.494	0.075	362988	keystroke_v	v	n/a
181.614	0.09	363228	keystroke_e	e	n/a
181.689	0.1055	363378	keystroke_r	r	n/a
181.8545	0.0745	363709	keystroke_Key.space	Key.space	n/a
182.169	0.09	364338	keystroke_s	s	n/a
182.304	0.0895	364608	keystroke_u	u	n/a
182.604	0.075	365208	keystroke_s	s	n/a
182.769	0.075	365538	keystroke_s	s	n/a
182.919	0.09	365838	keystroke_e	e	n/a
183.204	0.09	366408	keystroke_s	s	n/a
183.459	0.0605	366918	keystroke_Key.space	Key.space	n/a
183.91	0.119	367820	keystroke_a	a	n/a
184.104	0.075	368208	keystroke_r	r	n/a
184.2545	0.09	368509	keystroke_r	r	n/a
184.419	0.1205	368838	keystroke_a	a	n/a
184.5695	0.12	369139	keystroke_n	n	n/a
184.7345	0.075	369469	keystroke_g	g	n/a
184.84	0.075	369680	keystroke_e	e	n/a
185.0345	0.0905	370069	keystroke_m	m	n/a
185.14	0.0755	370280	keystroke_e	e	n/a
185.23	0.0885	370460	keystroke_n	n	n/a
185.3335	0.076	370667	keystroke_t	t	n/a
185.47	0.104	370940	keystroke_s	s	n/a
185.619	0.09	371238	keystroke_Key.space	Key.space	n/a
185.8445	0.105	371689	keystroke_m	m	n/a
185.9945	0.104	371989	keystroke_o	o	n/a
186.143	0.075	372286	keystroke_t	t	n/a
186.293	0.0905	372586	keystroke_o	o	n/a
186.969	0.0595	373938	keystroke_r	r	n/a
187.329	0.0895	374658	keystroke_c	c	n/a
187.4795	0.1045	374959	keystroke_y	y	n/a
187.704	0.09	375408	keystroke_c	c	n/a
187.8835	0.105	375767	keystroke_l	l	n/a
187.9735	0.0755	375947	keystroke_e	e	n/a
188.1235	0.0905	376247	keystroke_Key.enter	Key.enter	n/a
188.2205	7.1385	376441	prompt	n/a	textbooks cannon brighton google\n
188.9795	0.075	377959	keystroke_t	t	n/a
189.0995	0.0745	378199	keystroke_e	e	n/a
189.339	0.0905	378678	keystroke_x	x	n/a
189.6845	0.0755	379369	keystroke_t	t	n/a
190.5545	0.075	381109	keystroke_b	b	n/a
190.674	0.076	381348	keystroke_o	o	n/a
190.839	0.0755	381678	keystroke_o	o	n/a
191.0495	0.0895	382099	keystroke_k	k	n/a
191.289	0.0895	382578	keystroke_s	s	n/a
191.4235	0.0905	382847	keystroke_Key.space	Key.space	n/a
191.649	0.0745	383298	keystroke_c	c	n/a
191.8745	0.1045	383749	keystroke_a	a	n/a
192.069	0.075	384138	keystroke_n	n	n/a
192.3545	0.06	384709	keystroke_n	n	n/a
192.5045	0.1045	385009	keystroke_o	o	n/a
192.624	0.1205	385248	keystroke_n	n	n/a
192.8495	0.074	385699	keystroke_Key.space	Key.space	n/a
193.059	0.06	386118	keystroke_b	b	n/a
193.2395	0.075	386479	keystroke_r	r	n/a
193.3595	0.0905	386719	keystroke_i	i	n/a
193.5995	0.0755	387199	keystroke_g	g	n/a
193.689	0.1055	387378	keystroke_h	h	n/a
193.8095	0.0595	387619	keystroke_t	t	n/a
194.02	0.06	388040	keystroke_o	o	n/a
194.139	0.12	388278	keystroke_n	n	n/a
194.274	0.0905	388548	keystroke_Key.space	Key.space	n/a
194.455	0.0905	388910	keystroke_g	g	n/a
194.62	0.0595	389240	keystroke_o	o	n/a
194.7555	0.0895	389511	keystroke_o	o	n/a
194.889	0.061	389778	keystroke_g	g	n/a
194.995	0.0905	389990	keystroke_l	l	n/a
195.0705	0.104	390141	keystroke_e	e	n/a
195.2635	0.09	390527	keystroke_Key.enter	Key.enter	n/a
195.364	6.337	390728	prompt	n/a	ipaq apps advisor ahead\n
196.15	0.075	392300	keystroke_i	i	n/a
196.3445	0.1055	392689	keystroke_p	p	n/a
196.659	0.12	393318	keystroke_a	a	n/a
197.2285	0.1055	394457	keystroke_q	q	n/a
197.454	0.06	394908	keystroke_Key.space	Key.space	n/a
197.65	0.09	395300	keystroke_a	a	n/a
197.8745	0.06	395749	keystroke_p	p	n/a
198.039	0.0755	396078	keystroke_p	p	n/a
198.22	0.09	396440	keystroke_s	s	n/a
198.399	0.06	396798	keystroke_Key.space	Key.space	n/a
198.625	0.1045	397250	keystroke_a	a	n/a
198.7895	0.0905	397579	keystroke_d	d	n/a
199.075	0.09	398150	keystroke_v	v	n/a
199.2105	0.089	398421	keystroke_i	i	n/a
199.45	0.1055	398900	keystroke_s	s	n/a
199.8545	0.075	399709	keystroke_o	o	n/a
199.975	0.0905	399950	keystroke_r	r	n/a
200.08	0.0895	400160	keystroke_Key.space	Key.space	n/a
200.2895	0.12	400579	keystroke_a	a	n/a
200.8445	0.015	401689	keystroke_h	h	n/a
200.92	0.06	401840	keystroke_e	e	n/a
201.054	0.12	402108	keystroke_a	a	n/a
201.369	0.0605	402738	keystroke_d	d	n/a
201.6095	0.09	403219	keystroke_Key.enter	Key.enter	n/a
201.715	7.906	403430	prompt	n/a	game steven controller joan\n
204.612	0.028	409224	keystroke_g	g	n/a
204.641	0.1195	409282	keystroke_a	a	n/a
204.805	0.1185	409610	keystroke_m	m	n/a
204.9835	0.091	409967	keystroke_e	e	n/a
205.0895	0.075	410179	keystroke_Key.space	Key.space	n/a
205.4945	0.0295	410989	keystroke_s	s	n/a
205.5845	0.0905	411169	keystroke_t	t	n/a
205.734	0.075	411468	keystroke_e	e	n/a
205.915	0.075	411830	keystroke_v	v	n/a
206.035	0.06	412070	keystroke_e	e	n/a
206.11	0.1195	412220	keystroke_n	n	n/a
206.379	0.045	412758	keystroke_Key.space	Key.space	n/a
206.635	0.0895	413270	keystroke_c	c	n/a
206.7395	0.0905	413479	keystroke_o	o	n/a
206.9795	0.105	413959	keystroke_n	n	n/a
207.4005	0.074	414801	keystroke_t	t	n/a
207.5635	0.06	415127	keystroke_r	r	n/a
207.6685	0.1055	415337	keystroke_o	o	n/a
207.9245	0.075	415849	keystroke_l	l	n/a
208.0745	0.075	416149	keystroke_l	l	n/a
208.1645	0.12	416329	keystroke_e	e	n/a
208.2695	0.09	416539	keystroke_r	r	n/a
208.404	0.1055	416808	keystroke_Key.space	Key.space	n/a
208.675	0.075	417350	keystroke_j	j	n/a
208.839	0.091	417678	keystroke_o	o	n/a
209.1245	0.1045	418249	keystroke_a	a	n/a
209.259	0.0905	418518	keystroke_n	n	n/a
209.5145	0.105	419029	keystroke_Key.enter	Key.enter	n/a
209.627	8.605	419254	prompt	n/a	juice vocabulary authorization hayes\n
210.85	0.015	421700	keystroke_j	j	n/a
211.09	0.075	422180	keystroke_u	u	n/a
211.329	0.0905	422658	keystroke_i	i	n/a
211.5545	0.0905	423109	keystroke_c	c	n/a
211.749	0.0755	423498	keystroke_e	e	n/a
211.8835	0.075	423767	keystroke_Key.space	Key.space	n/a
212.169	0.09	424338	keystroke_v	v	n/a
212.3785	0.0905	424757	keystroke_o	o	n/a
212.6045	0.1045	425209	keystroke_c	c	n/a
212.8	0.1055	425600	keystroke_a	a	n/a
213.19	0.0745	426380	keystroke_b	b	n/a
213.34	0.0595	426680	keystroke_u	u	n/a
213.55	0.135	427100	keystroke_l	l	n/a
213.655	0.1495	427310	keystroke_a	a	n/a
213.7745	0.09	427549	keystroke_r	r	n/a
213.9545	0.076	427909	keystroke_y	y	n/a
214.09	0.0895	428180	keystroke_Key.space	Key.space	n/a
214.434	0.1215	428868	keystroke_a	a	n/a
214.586	0.074	429172	keystroke_u	u	n/a
214.825	0.0745	429650	keystroke_t	t	n/a
214.9155	0.09	429831	keystroke_h	h	n/a
215.125	0.0905	430250	keystroke_o	o	n/a
215.4095	0.0905	430819	keystroke_r	r	n/a
215.545	0.0895	431090	keystroke_i	i	n/a
215.7705	0.09	431541	keystroke_z	z	n/a
215.98	0.09	431960	keystroke_a	a	n/a
216.1755	0.0745	432351	keystroke_t	t	n/a
216.2355	0.104	432471	keystroke_i	i	n/a
216.324	0.165	432648	keystroke_o	o	n/a
216.43	0.165	432860	keystroke_n	n	n/a
216.58	0.075	433160	keystroke_Key.space	Key.space	n/a
216.94	0.075	433880	keystroke_h	h	n/a
217.314	0.1055	434628	keystroke_a	a	n/a
217.4655	0.0895	434931	keystroke_y	y	n/a
217.765	0.09	435530	keystroke_e	e	n/a
217.96	0.09	435920	keystroke_s	s	n/a
218.1245	0.105	436249	keystroke_Key.enter	Key.enter	n/a
218.237	6.294	436474	prompt	n/a	treating staff partner avoid\n
219.01	0.09	438020	keystroke_t	t	n/a
219.19	0.0755	438380	keystroke_r	r	n/a
219.55	0.0905	439100	keystroke_e	e	n/a
219.701	0.104	439402	keystroke_a	a	n/a
219.91	0.075	439820	keystroke_t	t	n/a
220.0905	0.149	440181	keystroke_i	i	n/a
220.179	0.1955	440358	keystroke_n	n	n/a
220.285	0.1195	440570	keystroke_g	g	n/a
220.3755	0.104	440751	keystroke_Key.space	Key.space	n/a
220.5705	0.0895	441141	keystroke_s	s	n/a
220.69	0.09	441380	keystroke_t	t	n/a
220.825	0.1355	441650	keystroke_a	a	n/a
221.0345	0.075	442069	keystroke_f	f	n/a
221.1995	0.076	442399	keystroke_f	f	n/a
221.3495	0.0755	442699	keystroke_Key.space	Key.space	n/a
221.59	0.1195	443180	keystroke_p	p	n/a
221.7395	0.121	443479	keystroke_a	a	n/a
221.8755	0.1045	443751	keystroke_r	r	n/a
222.13	0.0755	444260	keystroke_t	t	n/a
222.49	0.0905	444980	keystroke_n	n	n/a
222.6405	0.0895	445281	keystroke_e	e	n/a
222.745	0.1205	445490	keystroke_r	r	n/a
222.88	0.0745	445760	keystroke_Key.space	Key.space	n/a
223.165	0.1205	446330	keystroke_a	a	n/a
223.599	0.0755	447198	keystroke_v	v	n/a
223.7345	0.0905	447469	keystroke_o	o	n/a
223.9	0.0895	447800	keystroke_i	i	n/a
224.0345	0.105	448069	keystroke_d	d	n/a
224.425	0.104	448850	keystroke_Key.enter	Key.enter	n/a
224.534	6.0575	449068	prompt	n/a	results quite paid occurs\n
225.1905	0.1195	450381	keystroke_r	r	n/a
225.3255	0.0595	450651	keystroke_e	e	n/a
225.565	0.0895	451130	keystroke_s	s	n/a
225.6545	0.0895	451309	keystroke_u	u	n/a
225.834	0.1365	451668	keystroke_l	l	n/a
225.9855	0.075	451971	keystroke_t	t	n/a
226.1795	0.075	452359	keystroke_s	s	n/a
226.2995	0.076	452599	keystroke_Key.space	Key.space	n/a
226.6905	0.074	453381	keystroke_q	q	n/a
226.7795	0.076	453559	keystroke_u	u	n/a
226.915	0.1055	453830	keystroke_i	i	n/a
227.0345	0.076	454069	keystroke_t	t	n/a
227.155	0.1055	454310	keystroke_e	e	n/a
227.29	0.0915	454580	keystroke_Key.space	Key.space	n/a
227.485	0.1055	454970	keystroke_p	p	n/a
227.605	0.135	455210	keystroke_a	a	n/a
227.905	0.075	455810	keystroke_i	i	n/a
228.115	0.1055	456230	keystroke_d	d	n/a
228.3245	0.1055	456649	keystroke_Key.space	Key.space	n/a
228.625	0.1045	457250	keystroke_o	o	n/a
228.8655	0.06	457731	keystroke_c	c	n/a
229.0155	0.075	458031	keystroke_c	c	n/a
229.195	0.121	458390	keystroke_u	u	n/a
229.9905	0.075	459981	keystroke_r	r	n/a
230.276	0.1045	460552	keystroke_s	s	n/a
230.485	0.105	460970	keystroke_Key.enter	Key.enter	n/a
230.5985	7.811	461197	prompt	n/a	sticky kirk february late\n
231.3695	0.09	462739	keystroke_s	s	n/a
231.7895	0.106	463579	keystroke_t	t	n/a
232.076	0.0895	464152	keystroke_i	i	n/a
233.0795	0.1055	466159	keystroke_c	c	n/a
233.215	0.121	466430	keystroke_k	k	n/a
233.4855	0.0895	466971	keystroke_y	y	n/a
233.68	0.075	467360	keystroke_Key.space	Key.space	n/a
233.9195	0.091	467839	keystroke_k	k	n/a
234.1005	0.0745	468201	keystroke_i	i	n/a
234.1905	0.0895	468381	keystroke_r	r	n/a
234.685	0.076	469370	keystroke_k	k	n/a
234.8655	0.09	469731	keystroke_Key.space	Key.space	n/a
235.1655	0.089	470331	keystroke_f	f	n/a
235.3605	0.06	470721	keystroke_e	e	n/a
235.615	0.0755	471230	keystroke_b	b	n/a
235.825	0.0905	471650	keystroke_r	r	n/a
236.6215	0.089	473243	keystroke_u	u	n/a
237.056	0.1045	474112	keystroke_a	a	n/a
237.2205	0.0755	474441	keystroke_r	r	n/a
237.371	0.1045	474742	keystroke_y	y	n/a
237.46	0.076	474920	keystroke_Key.space	Key.space	n/a
237.79	0.12	475580	keystroke_l	l	n/a
237.895	0.1055	475790	keystroke_a	a	n/a
237.9705	0.1045	475941	keystroke_t	t	n/a
238.09	0.1205	476180	keystroke_e	e	n/a
238.3	0.1055	476600	keystroke_Key.enter	Key.enter	n/a
238.419	7.4885	476838	prompt	n/a	functions amendments talk prostores\n
239.41	0.076	478820	keystroke_f	f	n/a
239.5	0.061	479000	keystroke_u	u	n/a
239.7545	0.015	479509	keystroke_n	n	n/a
239.9205	0.0905	479841	keystroke_c	c	n/a
240.101	0.089	480202	keystroke_t	t	n/a
240.16	0.1205	480320	keystroke_i	i	n/a
240.251	0.1645	480502	keystroke_o	o	n/a
240.3555	0.1655	480711	keystroke_n	n	n/a
240.491	0.089	480982	keystroke_s	s	n/a
240.609	0.0905	481218	keystroke_Key.space	Key.space	n/a
240.7755	0.12	481551	keystroke_a	a	n/a
240.97	0.09	481940	keystroke_m	m	n/a
241.2405	0.0905	482481	keystroke_e	e	n/a
241.36	0.1045	482720	keystroke_n	n	n/a
241.6155	0.1045	483231	keystroke_d	d	n/a
242.4695	0.015	484939	keystroke_m	m	n/a
242.4995	0.06	484999	keystroke_e	e	n/a
242.5745	0.106	485149	keystroke_n	n	n/a
242.6655	0.075	485331	keystroke_t	t	n/a
242.8455	0.0895	485691	keystroke_s	s	n/a
242.98	0.075	485960	keystroke_Key.space	Key.space	n/a
243.22	0.061	486440	keystroke_t	t	n/a
243.31	0.121	486620	keystroke_a	a	n/a
243.4605	0.105	486921	keystroke_l	l	n/a
243.625	0.09	487250	keystroke_k	k	n/a
243.76	0.0755	487520	keystroke_Key.space	Key.space	n/a
243.9855	0.1045	487971	keystroke_p	p	n/a
244.105	0.0755	488210	keystroke_r	r	n/a
244.1955	0.105	488391	keystroke_o	o	n/a
244.451	0.104	488902	keystroke_s	s	n/a
244.811	0.1195	489622	keystroke_t	t	n/a
245.111	0.104	490222	keystroke_o	o	n/a
245.2305	0.1035	490461	keystroke_r	r	n/a
245.3645	0.1355	490729	keystroke_e	e	n/a
245.6205	0.09	491241	keystroke_s	s	n/a
245.8145	0.0905	491629	keystroke_Key.enter	Key.enter	n/a
245.9125	5.9645	491825	prompt	n/a	craps sure should've ellis\n
246.7905	0.0905	493581	keystroke_c	c	n/a
247.0455	0.075	494091	keystroke_r	r	n/a
247.1645	0.1065	494329	keystroke_a	a	n/a
247.331	0.1185	494662	keystroke_p	p	n/a
247.5705	0.075	495141	keystroke_s	s	n/a
247.705	0.0905	495410	keystroke_Key.space	Key.space	n/a
247.96	0.0905	495920	keystroke_s	s	n/a
248.0655	0.09	496131	keystroke_u	u	n/a
248.2	0.105	496400	keystroke_r	r	n/a
248.2895	0.1055	496579	keystroke_e	e	n/a
248.4395	0.0905	496879	keystroke_Key.space	Key.space	n/a
248.71	0.105	497420	keystroke_s	s	n/a
248.83	0.075	497660	keystroke_h	h	n/a
248.966	0.1345	497932	keystroke_o	o	n/a
249.056	0.104	498112	keystroke_u	u	n/a
249.251	0.149	498502	keystroke_l	l	n/a
249.8195	0.0915	499639	keystroke_d	d	n/a
250.1645	0.136	500329	keystroke_'	'	n/a
250.4055	0.09	500811	keystroke_v	v	n/a
250.5705	0.09	501141	keystroke_e	e	n/a
250.7355	0.09	501471	keystroke_Key.space	Key.space	n/a
250.975	0.0755	501950	keystroke_e	e	n/a
251.1705	0.0755	502341	keystroke_l	l	n/a
251.3205	0.0745	502641	keystroke_l	l	n/a
251.4555	0.075	502911	keystroke_i	i	n/a
251.6055	0.1055	503211	keystroke_s	s	n/a
251.77	0.1055	503540	keystroke_Key.enter	Key.enter	n/a
251.884	6.116	503768	prompt	n/a	chambers vertex mines loud\n
252.6105	0.075	505221	keystroke_c	c	n/a
252.7155	0.105	505431	keystroke_h	h	n/a
252.8505	0.1355	505701	keystroke_a	a	n/a
253.0755	0.105	506151	keystroke_m	m	n/a
253.3915	0.0585	506783	keystroke_b	b	n/a
253.5855	0.09	507171	keystroke_e	e	n/a
253.661	0.105	507322	keystroke_r	r	n/a
253.885	0.105	507770	keystroke_s	s	n/a
254.035	0.09	508070	keystroke_Key.space	Key.space	n/a
254.2305	0.0905	508461	keystroke_v	v	n/a
254.411	0.12	508822	keystroke_e	e	n/a
254.532	0.104	509064	keystroke_r	r	n/a
254.876	0.075	509752	keystroke_t	t	n/a
255.099	0.0765	510198	keystroke_e	e	n/a
255.3705	0.09	510741	keystroke_x	x	n/a
255.5195	0.106	511039	keystroke_Key.space	Key.space	n/a
255.7755	0.075	511551	keystroke_m	m	n/a
255.9115	0.1185	511823	keystroke_i	i	n/a
256.015	0.166	512030	keystroke_n	n	n/a
256.1505	0.09	512301	keystroke_e	e	n/a
256.2705	0.1195	512541	keystroke_s	s	n/a
256.4045	0.09	512809	keystroke_Key.space	Key.space	n/a
256.6155	0.075	513231	keystroke_l	l	n/a
256.7965	0.089	513593	keystroke_o	o	n/a
256.901	0.105	513802	keystroke_u	u	n/a
257.53	0.0755	515060	keystroke_d	d	n/a
257.9205	0.075	515841	keystroke_Key.enter	Key.enter	n/a
258.0095	7.4725	516019	prompt	n/a	remarks medicaid lending sender\n
258.716	0.0905	517432	keystroke_r	r	n/a
258.8075	0.0735	517615	keystroke_e	e	n/a
258.986	0.1055	517972	keystroke_m	m	n/a
259.106	0.135	518212	keystroke_a	a	n/a
259.181	0.15	518362	keystroke_r	r	n/a
259.526	0.075	519052	keystroke_k	k	n/a
259.811	0.09	519622	keystroke_s	s	n/a
260.005	0.076	520010	keystroke_Key.space	Key.space	n/a
260.2155	0.105	520431	keystroke_m	m	n/a
260.5305	0.0905	521061	keystroke_e	e	n/a
260.861	0.09	521722	keystroke_d	d	n/a
261.01	0.105	522020	keystroke_i	i	n/a
261.221	0.0895	522442	keystroke_c	c	n/a
261.58	0.0155	523160	keystroke_a	a	n/a
261.716	0.09	523432	keystroke_i	i	n/a
262.7355	0.0905	525471	keystroke_d	d	n/a
263.0055	0.0745	526011	keystroke_Key.space	Key.space	n/a
263.261	0.104	526522	keystroke_l	l	n/a
263.411	0.09	526822	keystroke_e	e	n/a
263.561	0.089	527122	keystroke_n	n	n/a
263.725	0.106	527450	keystroke_d	d	n/a
263.8465	0.133	527693	keystroke_i	i	n/a
263.936	0.1645	527872	keystroke_n	n	n/a
264.0255	0.105	528051	keystroke_g	g	n/a
264.1305	0.12	528261	keystroke_Key.space	Key.space	n/a
264.4005	0.075	528801	keystroke_s	s	n/a
264.5355	0.09	529071	keystroke_e	e	n/a
264.6705	0.12	529341	keystroke_n	n	n/a
264.8355	0.105	529671	keystroke_d	d	n/a
265.0155	0.075	530031	keystroke_e	e	n/a
265.105	0.121	530210	keystroke_r	r	n/a
265.3905	0.09	530781	keystroke_Key.enter	Key.enter	n/a
265.4875	8.5145	530975	prompt	n/a	strengths magnificent combined buying\n
266.1555	0.105	532311	keystroke_s	s	n/a
266.3505	0.091	532701	keystroke_t	t	n/a
266.516	0.105	533032	keystroke_r	r	n/a
266.711	0.105	533422	keystroke_e	e	n/a
267.146	0.09	534292	keystroke_n	n	n/a
267.5065	0.0745	535013	keystroke_g	g	n/a
267.746	0.0735	535492	keystroke_t	t	n/a
267.8205	0.105	535641	keystroke_h	h	n/a
268.0155	0.12	536031	keystroke_s	s	n/a
268.1665	0.089	536333	keystroke_Key.space	Key.space	n/a
268.391	0.105	536782	keystroke_m	m	n/a
268.5265	0.1185	537053	keystroke_a	a	n/a
268.811	0.0755	537622	keystroke_g	g	n/a
269.1555	0.0905	538311	keystroke_n	n	n/a
269.3065	0.0895	538613	keystroke_i	i	n/a
269.516	0.09	539032	keystroke_f	f	n/a
269.651	0.0895	539302	keystroke_i	i	n/a
269.8615	0.0745	539723	keystroke_c	c	n/a
270.2355	0.075	540471	keystroke_e	e	n/a
270.3405	0.0895	540681	keystroke_n	n	n/a
270.446	0.0745	540892	keystroke_t	t	n/a
270.5655	0.0905	541131	keystroke_Key.space	Key.space	n/a
270.836	0.09	541672	keystroke_c	c	n/a
270.941	0.1345	541882	keystroke_o	o	n/a
271.0455	0.136	542091	keystroke_m	m	n/a
271.3755	0.075	542751	keystroke_b	b	n/a
271.4805	0.1345	542961	keystroke_i	i	n/a
271.5705	0.195	543141	keystroke_n	n	n/a
271.721	0.0895	543442	keystroke_e	e	n/a
271.886	0.1205	543772	keystroke_s	s	n/a
272.305	0.076	544610	keystroke_Key.backspace	Key.backspace	n/a
272.456	0.09	544912	keystroke_d	d	n/a
272.605	0.091	545210	keystroke_Key.space	Key.space	n/a
272.8315	0.0745	545663	keystroke_b	b	n/a
272.936	0.075	545872	keystroke_u	u	n/a
273.13	0.0755	546260	keystroke_y	y	n/a
273.46	0.1355	546920	keystroke_i	i	n/a
273.5505	0.1805	547101	keystroke_n	n	n/a
273.6565	0.105	547313	keystroke_g	g	n/a
273.8955	0.104	547791	keystroke_Key.enter	Key.enter	n/a
274.008	6.669	548016	prompt	n/a	downloads proved taylor sensitive\n
274.781	0.105	549562	keystroke_d	d	n/a
274.886	0.0905	549772	keystroke_o	o	n/a
275.0515	0.089	550103	keystroke_w	w	n/a
275.1705	0.1055	550341	keystroke_n	n	n/a
275.59	0.1055	551180	keystroke_l	l	n/a
275.8315	0.075	551663	keystroke_o	o	n/a
275.921	0.1055	551842	keystroke_a	a	n/a
276.0865	0.089	552173	keystroke_d	d	n/a
276.3105	0.09	552621	keystroke_s	s	n/a
276.461	0.0895	552922	keystroke_Key.space	Key.space	n/a
276.6865	0.103	553373	keystroke_p	p	n/a
276.8055	0.0605	553611	keystroke_r	r	n/a
276.911	0.09	553822	keystroke_o	o	n/a
277.016	0.09	554032	keystroke_v	v	n/a
277.27	0.0755	554540	keystroke_e	e	n/a
277.4655	0.0905	554931	keystroke_d	d	n/a
277.6605	0.075	555321	keystroke_Key.space	Key.space	n/a
277.886	0.0595	555772	keystroke_t	t	n/a
278.02	0.1055	556040	keystroke_a	a	n/a
278.1405	0.091	556281	keystroke_y	y	n/a
278.351	0.1045	556702	keystroke_l	l	n/a
278.5755	0.075	557151	keystroke_o	o	n/a
278.696	0.0905	557392	keystroke_r	r	n/a
278.816	0.09	557632	keystroke_Key.space	Key.space	n/a
279.027	0.1045	558054	keystroke_s	s	n/a
279.1915	0.0745	558383	keystroke_e	e	n/a
279.3255	0.1205	558651	keystroke_n	n	n/a
279.611	0.1045	559222	keystroke_s	s	n/a
279.746	0.0895	559492	keystroke_i	i	n/a
279.971	0.075	559942	keystroke_t	t	n/a
280.106	0.0745	560212	keystroke_i	i	n/a
280.2405	0.09	560481	keystroke_v	v	n/a
280.3765	0.1045	560753	keystroke_e	e	n/a
280.5555	0.12	561111	keystroke_Key.enter	Key.enter	n/a
280.6845	5.4675	561369	prompt	n/a	ending vehicle now frames\n
281.291	0.09	562582	keystroke_e	e	n/a
281.4255	0.1055	562851	keystroke_n	n	n/a
281.5765	0.089	563153	keystroke_d	d	n/a
281.741	0.15	563482	keystroke_i	i	n/a
281.831	0.1955	563662	keystroke_n	n	n/a
281.9655	0.1205	563931	keystroke_g	g	n/a
282.071	0.1045	564142	keystroke_Key.space	Key.space	n/a
282.551	0.075	565102	keystroke_v	v	n/a
282.7305	0.1055	565461	keystroke_e	e	n/a
283.0315	0.074	566063	keystroke_h	h	n/a
283.21	0.076	566420	keystroke_i	i	n/a
283.66	0.091	567320	keystroke_c	c	n/a
283.7805	0.1055	567561	keystroke_l	l	n/a
283.93	0.0765	567860	keystroke_e	e	n/a
284.1855	0.0605	568371	keystroke_Key.space	Key.space	n/a
284.396	0.06	568792	keystroke_n	n	n/a
284.531	0.1045	569062	keystroke_o	o	n/a
284.606	0.09	569212	keystroke_w	w	n/a
284.771	0.075	569542	keystroke_Key.space	Key.space	n/a
284.9805	0.075	569961	keystroke_f	f	n/a
285.1455	0.0755	570291	keystroke_r	r	n/a
285.3555	0.1055	570711	keystroke_a	a	n/a
285.5965	0.1045	571193	keystroke_m	m	n/a
285.7455	0.0755	571491	keystroke_e	e	n/a
285.881	0.09	571762	keystroke_s	s	n/a
286.046	0.1045	572092	keystroke_Key.enter	Key.enter	n/a
286.159	6.1735	572318	prompt	n/a	clarke temple advocacy bull\n
286.796	0.075	573592	keystroke_c	c	n/a
286.885	0.121	573770	keystroke_l	l	n/a
287.051	0.1195	574102	keystroke_a	a	n/a
287.2905	0.0905	574581	keystroke_r	r	n/a
287.515	0.0905	575030	keystroke_k	k	n/a
287.6505	0.0605	575301	keystroke_e	e	n/a
287.7855	0.075	575571	keystroke_Key.space	Key.space	n/a
287.9805	0.06	575961	keystroke_t	t	n/a
288.145	0.061	576290	keystroke_e	e	n/a
288.251	0.1195	576502	keystroke_m	m	n/a
288.431	0.075	576862	keystroke_p	p	n/a
288.5965	0.12	577193	keystroke_l	l	n/a
288.7455	0.0755	577491	keystroke_e	e	n/a
288.956	0.075	577912	keystroke_Key.space	Key.space	n/a
289.496	0.1195	578992	keystroke_a	a	n/a
289.6755	0.076	579351	keystroke_d	d	n/a
290.096	0.09	580192	keystroke_v	v	n/a
290.2615	0.09	580523	keystroke_o	o	n/a
290.44	0.0905	580880	keystroke_c	c	n/a
290.591	0.1345	581182	keystroke_a	a	n/a
290.8755	0.1055	581751	keystroke_c	c	n/a
291.101	0.09	582202	keystroke_y	y	n/a
291.311	0.06	582622	keystroke_Key.space	Key.space	n/a
291.4915	0.09	582983	keystroke_b	b	n/a
291.5965	0.074	583193	keystroke_u	u	n/a
291.8355	0.061	583671	keystroke_l	l	n/a
291.9715	0.1485	583943	keystroke_l	l	n/a
292.2555	0.0755	584511	keystroke_Key.enter	Key.enter	n/a
292.337	7.8255	584674	prompt	n/a	drainage welcome something's attorneys\n
293.276	0.075	586552	keystroke_d	d	n/a
293.4255	0.075	586851	keystroke_r	r	n/a
293.7105	0.1055	587421	keystroke_a	a	n/a
293.891	0.06	587782	keystroke_i	i	n/a
294.011	0.105	588022	keystroke_n	n	n/a
294.326	0.105	588652	keystroke_a	a	n/a
294.4765	0.0895	588953	keystroke_g	g	n/a
294.581	0.1045	589162	keystroke_e	e	n/a
294.7005	0.076	589401	keystroke_Key.space	Key.space	n/a
294.9565	0.09	589913	keystroke_w	w	n/a
295.091	0.0755	590182	keystroke_e	e	n/a
295.2715	0.09	590543	keystroke_l	l	n/a
295.4665	0.089	590933	keystroke_c	c	n/a
295.571	0.1355	591142	keystroke_o	o	n/a
295.661	0.18	591322	keystroke_m	m	n/a
296.097	0.089	592194	keystroke_e	e	n/a
296.291	0.0745	592582	keystroke_Key.space	Key.space	n/a
296.517	0.1045	593034	keystroke_s	s	n/a
296.6365	0.09	593273	keystroke_o	o	n/a
296.741	0.15	593482	keystroke_m	m	n/a
296.891	0.0755	593782	keystroke_e	e	n/a
297.1015	0.0735	594203	keystroke_t	t	n/a
297.161	0.09	594322	keystroke_h	h	n/a
297.2365	0.165	594473	keystroke_i	i	n/a
297.3565	0.1505	594713	keystroke_n	n	n/a
297.4315	0.09	594863	keystroke_g	g	n/a
297.7165	0.1195	595433	keystroke_'	'	n/a
297.851	0.1055	595702	keystroke_s	s	n/a
298.001	0.09	596002	keystroke_Key.space	Key.space	n/a
298.2865	0.105	596573	keystroke_a	a	n/a
298.48	0.0615	596960	keystroke_t	t	n/a
298.6155	0.076	597231	keystroke_t	t	n/a
298.7665	0.104	597533	keystroke_o	o	n/a
298.886	0.0905	597772	keystroke_r	r	n/a
299.0965	0.1055	598193	keystroke_n	n	n/a
299.2465	0.06	598493	keystroke_e	e	n/a
299.6065	0.1045	599213	keystroke_y	y	n/a
299.8315	0.09	599663	keystroke_s	s	n/a
300.0565	0.104	600113	keystroke_Key.enter	Key.enter	n/a
300.167	11.3805	600334	prompt	n/a	royal challenged destinations accompanying\n
300.926	0.09	601852	keystroke_r	r	n/a
301.061	0.075	602122	keystroke_y	y	n/a
301.481	0.059	602962	keystroke_Key.backspace	Key.backspace	n/a
301.706	0.09	603412	keystroke_o	o	n/a
302.021	0.0605	604042	keystroke_y	y	n/a
302.201	0.1045	604402	keystroke_a	a	n/a
302.3505	0.121	604701	keystroke_l	l	n/a
302.5025	0.0735	605005	keystroke_Key.space	Key.space	n/a
302.8005	0.075	605601	keystroke_c	c	n/a
302.9055	0.09	605811	keystroke_h	h	n/a
303.0415	0.1195	606083	keystroke_a	a	n/a
303.3265	0.0905	606653	keystroke_l	l	n/a
303.521	0.0755	607042	keystroke_l	l	n/a
303.8365	0.075	607673	keystroke_e	e	n/a
303.971	0.0905	607942	keystroke_n	n	n/a
304.0765	0.075	608153	keystroke_g	g	n/a
304.1965	0.075	608393	keystroke_e	e	n/a
304.4215	0.0895	608843	keystroke_d	d	n/a
304.5715	0.105	609143	keystroke_Key.space	Key.space	n/a
304.841	0.0605	609682	keystroke_d	d	n/a
305.0815	0.0595	610163	keystroke_e	e	n/a
305.4265	0.1045	610853	keystroke_s	s	n/a
305.8315	0.0745	611663	keystroke_t	t	n/a
305.9365	0.075	611873	keystroke_i	i	n/a
306.071	0.105	612142	keystroke_n	n	n/a
306.1915	0.1345	612383	keystroke_a	a	n/a
306.282	0.089	612564	keystroke_t	t	n/a
306.4305	0.09	612861	keystroke_e	e	n/a
306.5355	0.135	613071	keystroke_i	i	n/a
306.5965	0.195	613193	keystroke_o	o	n/a
306.7165	0.18	613433	keystroke_n	n	n/a
307.1355	0.06	614271	keystroke_Key.backspace	Key.backspace	n/a
307.3015	0.0595	614603	keystroke_Key.backspace	Key.backspace	n/a
307.4655	0.06	614931	keystroke_Key.backspace	Key.backspace	n/a
307.6305	0.075	615261	keystroke_Key.backspace	Key.backspace	n/a
308.2455	0.135	616491	keystroke_i	i	n/a
308.3505	0.181	616701	keystroke_o	o	n/a
308.4705	0.181	616941	keystroke_n	n	n/a
308.711	0.1055	617422	keystroke_s	s	n/a
308.951	0.09	617902	keystroke_Key.space	Key.space	n/a
309.131	0.1055	618262	keystroke_a	a	n/a
309.326	0.076	618652	keystroke_c	c	n/a
309.5065	0.06	619013	keystroke_c	c	n/a
309.6555	0.1665	619311	keystroke_o	o	n/a
309.7465	0.164	619493	keystroke_m	m	n/a
310.017	0.104	620034	keystroke_p	p	n/a
310.1515	0.1195	620303	keystroke_a	a	n/a
310.2865	0.0895	620573	keystroke_n	n	n/a
310.9465	0.015	621893	keystroke_y	y	n/a
311.0365	0.15	622073	keystroke_i	i	n/a
311.111	0.2095	622222	keystroke_n	n	n/a
311.2455	0.105	622491	keystroke_g	g	n/a
311.456	0.09	622912	keystroke_Key.enter	Key.enter	n/a
311.554	9.1735	623108	prompt	n/a	capability knitting smilies exams\n
313.3615	0.075	626723	keystroke_c	c	n/a
313.497	0.105	626994	keystroke_a	a	n/a
313.9315	0.1045	627863	keystroke_p	p	n/a
314.172	0.09	628344	keystroke_a	a	n/a
314.517	0.075	629034	keystroke_b	b	n/a
314.6665	0.075	629333	keystroke_i	i	n/a
314.8765	0.075	629753	keystroke_l	l	n/a
315.026	0.0755	630052	keystroke_i	i	n/a
315.146	0.09	630292	keystroke_t	t	n/a
315.2515	0.1055	630503	keystroke_y	y	n/a
315.3715	0.0745	630743	keystroke_Key.space	Key.space	n/a
315.611	0.105	631222	keystroke_k	k	n/a
315.866	0.09	631732	keystroke_n	n	n/a
316.0315	0.09	632063	keystroke_i	i	n/a
316.2565	0.075	632513	keystroke_t	t	n/a
316.4065	0.075	632813	keystroke_t	t	n/a
316.5115	0.135	633023	keystroke_i	i	n/a
316.6015	0.1655	633203	keystroke_n	n	n/a
316.706	0.1205	633412	keystroke_g	g	n/a
316.8115	0.0905	633623	keystroke_Key.space	Key.space	n/a
317.052	0.105	634104	keystroke_s	s	n/a
317.202	0.0745	634404	keystroke_m	m	n/a
317.3815	0.09	634763	keystroke_i	i	n/a
318.1465	0.105	636293	keystroke_l	l	n/a
318.3865	0.09	636773	keystroke_i	i	n/a
319.032	0.074	638064	keystroke_e	e	n/a
319.2265	0.09	638453	keystroke_s	s	n/a
319.407	0.0895	638814	keystroke_Key.space	Key.space	n/a
319.6615	0.075	639323	keystroke_e	e	n/a
319.9015	0.089	639803	keystroke_x	x	n/a
320.1115	0.09	640223	keystroke_a	a	n/a
320.247	0.1045	640494	keystroke_m	m	n/a
320.4415	0.09	640883	keystroke_s	s	n/a
320.6355	0.09	641271	keystroke_Key.enter	Key.enter	n/a
320.7305	6.612	641461	prompt	n/a	powers emails insurance disposition\n
321.372	0.09	642744	keystroke_p	p	n/a
321.537	0.089	643074	keystroke_o	o	n/a
321.7165	0.0905	643433	keystroke_w	w	n/a
321.957	0.09	643914	keystroke_e	e	n/a
322.062	0.0895	644124	keystroke_r	r	n/a
322.332	0.105	644664	keystroke_s	s	n/a
322.4815	0.09	644963	keystroke_Key.space	Key.space	n/a
322.7065	0.0745	645413	keystroke_e	e	n/a
322.8415	0.12	645683	keystroke_m	m	n/a
323.0215	0.135	646043	keystroke_a	a	n/a
323.172	0.119	646344	keystroke_i	i	n/a
323.262	0.1945	646524	keystroke_l	l	n/a
323.382	0.105	646764	keystroke_s	s	n/a
323.546	0.105	647092	keystroke_Key.space	Key.space	n/a
323.802	0.0595	647604	keystroke_i	i	n/a
323.9065	0.104	647813	keystroke_n	n	n/a
324.1765	0.0905	648353	keystroke_s	s	n/a
324.357	0.059	648714	keystroke_u	u	n/a
324.5975	0.015	649195	keystroke_r	r	n/a
324.732	0.09	649464	keystroke_a	a	n/a
324.8365	0.105	649673	keystroke_n	n	n/a
324.9575	0.09	649915	keystroke_c	c	n/a
325.166	0.0605	650332	keystroke_e	e	n/a
325.2865	0.0895	650573	keystroke_Key.space	Key.space	n/a
325.482	0.0895	650964	keystroke_d	d	n/a
325.616	0.1055	651232	keystroke_i	i	n/a
325.752	0.09	651504	keystroke_s	s	n/a
325.976	0.091	651952	keystroke_p	p	n/a
326.1715	0.0905	652343	keystroke_o	o	n/a
326.3965	0.09	652793	keystroke_s	s	n/a
326.5165	0.09	653033	keystroke_i	i	n/a
326.6375	0.0745	653275	keystroke_t	t	n/a
326.727	0.12	653454	keystroke_i	i	n/a
326.8015	0.18	653603	keystroke_o	o	n/a
326.9225	0.1945	653845	keystroke_n	n	n/a
327.251	0.0905	654502	keystroke_Key.enter	Key.enter	n/a
327.3475	6.31	654695	prompt	n/a	ridge print font drink\n
328.122	0.074	656244	keystroke_r	r	n/a
328.256	0.0915	656512	keystroke_i	i	n/a
328.7975	0.074	657595	keystroke_d	d	n/a
329.0365	0.0755	658073	keystroke_g	g	n/a
329.1565	0.075	658313	keystroke_e	e	n/a
329.396	0.0605	658792	keystroke_Key.space	Key.space	n/a
329.6515	0.09	659303	keystroke_p	p	n/a
329.7715	0.0745	659543	keystroke_r	r	n/a
329.8615	0.09	659723	keystroke_i	i	n/a
330.0115	0.12	660023	keystroke_n	n	n/a
330.147	0.074	660294	keystroke_t	t	n/a
330.266	0.0755	660532	keystroke_Key.space	Key.space	n/a
330.5365	0.09	661073	keystroke_f	f	n/a
330.671	0.0895	661342	keystroke_o	o	n/a
330.852	0.104	661704	keystroke_n	n	n/a
331.0465	0.09	662093	keystroke_t	t	n/a
331.196	0.091	662392	keystroke_Key.space	Key.space	n/a
331.4815	0.059	662963	keystroke_f	f	n/a
331.9315	0.075	663863	keystroke_Key.backspace	Key.backspace	n/a
332.3365	0.09	664673	keystroke_d	d	n/a
332.5315	0.075	665063	keystroke_r	r	n/a
332.8915	0.06	665783	keystroke_i	i	n/a
333.042	0.0895	666084	keystroke_n	n	n/a
333.312	0.0895	666624	keystroke_k	k	n/a
333.5665	0.09	667133	keystroke_Key.enter	Key.enter	n/a
333.661	11.232	667322	prompt	n/a	institutes wear addiction forge\n
334.7215	0.061	669443	keystroke_i	i	n/a
334.8715	0.075	669743	keystroke_n	n	n/a
335.0815	0.106	670163	keystroke_s	s	n/a
335.4415	0.075	670883	keystroke_t	t	n/a
335.561	0.075	671122	keystroke_i	i	n/a
335.6815	0.074	671363	keystroke_t	t	n/a
335.771	0.091	671542	keystroke_u	u	n/a
335.9965	0.015	671993	keystroke_e	e	n/a
336.0565	0.0905	672113	keystroke_t	t	n/a
337.0015	0.0595	674003	keystroke_Key.backspace	Key.backspace	n/a
337.181	0.075	674362	keystroke_Key.backspace	Key.backspace	n/a
337.991	0.0765	675982	keystroke_t	t	n/a
338.2755	0.0755	676551	keystroke_e	e	n/a
338.472	0.09	676944	keystroke_s	s	n/a
338.6215	0.0895	677243	keystroke_Key.space	Key.space	n/a
339.026	0.091	678052	keystroke_w	w	n/a
339.222	0.074	678444	keystroke_e	e	n/a
339.341	0.1205	678682	keystroke_a	a	n/a
339.507	0.0895	679014	keystroke_r	r	n/a
339.731	0.075	679462	keystroke_Key.space	Key.space	n/a
339.927	0.089	679854	keystroke_a	a	n/a
340.106	0.076	680212	keystroke_d	d	n/a
340.271	0.075	680542	keystroke_d	d	n/a
340.451	0.0905	680902	keystroke_i	i	n/a
340.8265	0.1055	681653	keystroke_c	c	n/a
340.977	0.135	681954	keystroke_i	i	n/a
341.097	0.15	682194	keystroke_o	o	n/a
341.2015	0.1955	682403	keystroke_n	n	n/a
341.922	0.075	683844	keystroke_Key.backspace	Key.backspace	n/a
342.1015	0.0895	684203	keystroke_Key.backspace	Key.backspace	n/a
342.8665	0.09	685733	keystroke_Key.backspace	Key.backspace	n/a
343.3615	0.075	686723	keystroke_t	t	n/a
343.451	0.1355	686902	keystroke_i	i	n/a
343.5415	0.166	687083	keystroke_o	o	n/a
343.6615	0.165	687323	keystroke_n	n	n/a
343.842	0.0745	687684	keystroke_Key.space	Key.space	n/a
344.052	0.089	688104	keystroke_f	f	n/a
344.157	0.104	688314	keystroke_o	o	n/a
344.231	0.0765	688462	keystroke_r	r	n/a
344.441	0.075	688882	keystroke_g	g	n/a
344.577	0.09	689154	keystroke_e	e	n/a
344.787	0.1045	689574	keystroke_Key.enter	Key.enter	n/a
344.901	6.7275	689802	prompt	n/a	annual through vitamins damages\n
345.596	0.0905	691192	keystroke_a	a	n/a
345.7615	0.0905	691523	keystroke_n	n	n/a
345.9115	0.0745	691823	keystroke_n	n	n/a
346.0915	0.075	692183	keystroke_u	u	n/a
346.3615	0.105	692723	keystroke_a	a	n/a
346.4965	0.1055	692993	keystroke_l	l	n/a
346.6165	0.09	693233	keystroke_Key.space	Key.space	n/a
346.826	0.091	693652	keystroke_t	t	n/a
346.932	0.089	693864	keystroke_h	h	n/a
347.3065	0.0745	694613	keystroke_r	r	n/a
347.426	0.1205	694852	keystroke_o	o	n/a
347.516	0.1205	695032	keystroke_u	u	n/a
347.6815	0.09	695363	keystroke_g	g	n/a
347.7865	0.105	695573	keystroke_h	h	n/a
347.9065	0.0905	695813	keystroke_Key.space	Key.space	n/a
348.387	0.0895	696774	keystroke_v	v	n/a
348.536	0.091	697072	keystroke_i	i	n/a
348.686	0.09	697372	keystroke_t	t	n/a
349.016	0.121	698032	keystroke_a	a	n/a
349.4065	0.075	698813	keystroke_m	m	n/a
349.631	0.0605	699262	keystroke_i	i	n/a
349.7665	0.0895	699533	keystroke_n	n	n/a
349.916	0.0905	699832	keystroke_s	s	n/a
350.097	0.0745	700194	keystroke_Key.space	Key.space	n/a
350.337	0.105	700674	keystroke_d	d	n/a
350.4715	0.121	700943	keystroke_a	a	n/a
350.697	0.09	701394	keystroke_m	m	n/a
350.832	0.09	701664	keystroke_a	a	n/a
350.997	0.0895	701994	keystroke_g	g	n/a
351.1015	0.105	702203	keystroke_e	e	n/a
351.2965	0.105	702593	keystroke_s	s	n/a
351.537	0.09	703074	keystroke_Key.enter	Key.enter	n/a
351.633	7.516	703266	prompt	n/a	integrating cache final seems\n
352.4375	0.059	704875	keystroke_i	i	n/a
352.542	0.135	705084	keystroke_n	n	n/a
352.736	0.106	705472	keystroke_t	t	n/a
352.9765	0.0755	705953	keystroke_e	e	n/a
353.2025	0.0585	706405	keystroke_g	g	n/a
353.366	0.075	706732	keystroke_r	r	n/a
353.4865	0.1045	706973	keystroke_a	a	n/a
353.651	0.091	707302	keystroke_t	t	n/a
353.802	0.075	707604	keystroke_e	e	n/a
354.5665	0.075	709133	keystroke_Key.backspace	Key.backspace	n/a
354.912	0.1195	709824	keystroke_i	i	n/a
355.002	0.18	710004	keystroke_n	n	n/a
355.1065	0.09	710213	keystroke_g	g	n/a
355.2265	0.1045	710453	keystroke_Key.space	Key.space	n/a
355.438	0.1355	710876	keystroke_a	a	n/a
355.937	0.061	711874	keystroke_Key.backspace	Key.backspace	n/a
356.059	0.0905	712118	keystroke_c	c	n/a
356.194	0.1225	712388	keystroke_a	a	n/a
356.5125	0.0905	713025	keystroke_c	c	n/a
356.618	0.107	713236	keystroke_h	h	n/a
356.7395	0.076	713479	keystroke_e	e	n/a
356.922	0.075	713844	keystroke_Key.space	Key.space	n/a
357.134	0.076	714268	keystroke_f	f	n/a
357.224	0.076	714448	keystroke_i	i	n/a
357.3615	0.0905	714723	keystroke_n	n	n/a
357.452	0.121	714904	keystroke_a	a	n/a
357.603	0.1215	715206	keystroke_l	l	n/a
357.694	0.09	715388	keystroke_Key.space	Key.space	n/a
357.906	0.106	715812	keystroke_s	s	n/a
358.103	0.076	716206	keystroke_e	e	n/a
358.315	0.0745	716630	keystroke_e	e	n/a
358.5265	0.1055	717053	keystroke_m	m	n/a
358.784	0.076	717568	keystroke_s	s	n/a
359.057	0.09	718114	keystroke_Key.enter	Key.enter	n/a
359.154	6.476	718308	prompt	n/a	premier yahoo hair monster\n
359.949	0.107	719898	keystroke_p	p	n/a
360.0865	0.106	720173	keystroke_r	r	n/a
360.2385	0.1205	720477	keystroke_e	e	n/a
360.812	0.092	721624	keystroke_m	m	n/a
360.995	0.0755	721990	keystroke_i	i	n/a
361.343	0.091	722686	keystroke_e	e	n/a
361.434	0.091	722868	keystroke_r	r	n/a
361.7365	0.0605	723473	keystroke_Key.space	Key.space	n/a
362.1455	0.091	724291	keystroke_y	y	n/a
362.282	0.106	724564	keystroke_a	a	n/a
362.5235	0.092	725047	keystroke_h	h	n/a
362.8275	0.0755	725655	keystroke_o	o	n/a
362.9785	0.091	725957	keystroke_o	o	n/a
363.099	0.0615	726198	keystroke_Key.space	Key.space	n/a
363.2815	0.0765	726563	keystroke_h	h	n/a
363.388	0.1205	726776	keystroke_a	a	n/a
363.524	0.0895	727048	keystroke_i	i	n/a
363.646	0.09	727292	keystroke_r	r	n/a
363.993	0.0605	727986	keystroke_Key.space	Key.space	n/a
364.2195	0.0915	728439	keystroke_m	m	n/a
364.371	0.092	728742	keystroke_o	o	n/a
364.5225	0.106	729045	keystroke_n	n	n/a
364.8405	0.0905	729681	keystroke_s	s	n/a
365.023	0.0915	730046	keystroke_t	t	n/a
365.189	0.091	730378	keystroke_e	e	n/a
365.265	0.106	730530	keystroke_r	r	n/a
365.5225	0.106	731045	keystroke_Key.enter	Key.enter	n/a
365.635	8.08	731270	prompt	n/a	scholar pants electric portuguese\n
366.461	0.091	732922	keystroke_s	s	n/a
366.7035	0.121	733407	keystroke_c	c	n/a
366.81	0.075	733620	keystroke_h	h	n/a
367.007	0.0755	734014	keystroke_o	o	n/a
367.264	0.106	734528	keystroke_l	l	n/a
367.4005	0.121	734801	keystroke_a	a	n/a
367.5065	0.0905	735013	keystroke_r	r	n/a
367.718	0.076	735436	keystroke_Key.space	Key.space	n/a
367.9305	0.1055	735861	keystroke_p	p	n/a
368.0655	0.122	736131	keystroke_a	a	n/a
368.218	0.121	736436	keystroke_n	n	n/a
368.7025	0.0295	737405	keystroke_i	i	n/a
369.111	0.091	738222	keystroke_Key.backspace	Key.backspace	n/a
369.308	0.0755	738616	keystroke_t	t	n/a
369.5345	0.1075	739069	keystroke_s	s	n/a
369.6865	0.0905	739373	keystroke_Key.space	Key.space	n/a
369.8835	0.0905	739767	keystroke_e	e	n/a
370.004	0.136	740008	keystroke_l	l	n/a
370.1255	0.075	740251	keystroke_e	e	n/a
370.3365	0.106	740673	keystroke_c	c	n/a
370.579	0.0755	741158	keystroke_t	t	n/a
370.746	0.075	741492	keystroke_r	r	n/a
370.8525	0.076	741705	keystroke_i	i	n/a
370.988	0.107	741976	keystroke_c	c	n/a
371.1545	0.0915	742309	keystroke_Key.space	Key.space	n/a
371.397	0.106	742794	keystroke_p	p	n/a
371.6085	0.076	743217	keystroke_o	o	n/a
371.7305	0.0915	743461	keystroke_r	r	n/a
371.988	0.06	743976	keystroke_t	t	n/a
372.169	0.0765	744338	keystroke_u	u	n/a
372.3805	0.0615	744761	keystroke_g	g	n/a
372.9265	0.0755	745853	keystroke_u	u	n/a
373.1375	0.062	746275	keystroke_e	e	n/a
373.29	0.075	746580	keystroke_s	s	n/a
373.6225	0.091	747245	keystroke_Key.enter	Key.enter	n/a
373.7195	5.808	747439	prompt	n/a	clothing glasses turn editing\n
374.5005	0.0915	749001	keystroke_c	c	n/a
374.6065	0.0755	749213	keystroke_l	l	n/a
374.7885	0.0755	749577	keystroke_o	o	n/a
375.015	0.076	750030	keystroke_t	t	n/a
375.121	0.0765	750242	keystroke_h	h	n/a
375.288	0.151	750576	keystroke_i	i	n/a
375.3635	0.1965	750727	keystroke_n	n	n/a
375.5	0.091	751000	keystroke_g	g	n/a
375.621	0.1055	751242	keystroke_Key.space	Key.space	n/a
375.863	0.092	751726	keystroke_g	g	n/a
375.9835	0.122	751967	keystroke_l	l	n/a
376.1205	0.0755	752241	keystroke_a	a	n/a
376.332	0.0605	752664	keystroke_s	s	n/a
376.499	0.076	752998	keystroke_s	s	n/a
376.6955	0.0905	753391	keystroke_e	e	n/a
376.861	0.1075	753722	keystroke_s	s	n/a
377.028	0.0755	754056	keystroke_Key.space	Key.space	n/a
377.2555	0.0755	754511	keystroke_t	t	n/a
377.3765	0.0905	754753	keystroke_u	u	n/a
377.513	0.091	755026	keystroke_r	r	n/a
377.6335	0.122	755267	keystroke_n	n	n/a
377.8005	0.075	755601	keystroke_Key.space	Key.space	n/a
377.9975	0.0755	755995	keystroke_e	e	n/a
378.239	0.0915	756478	keystroke_d	d	n/a
378.4055	0.076	756811	keystroke_i	i	n/a
378.753	0.0755	757506	keystroke_t	t	n/a
378.981	0.1365	757962	keystroke_i	i	n/a
379.057	0.1815	758114	keystroke_n	n	n/a
379.193	0.0905	758386	keystroke_g	g	n/a
379.4195	0.106	758839	keystroke_Key.enter	Key.enter	n/a
379.5325	5.882	759065	prompt	n/a	domain cabin identical alike\n
380.389	0.0905	760778	keystroke_d	d	n/a
380.5245	0.0905	761049	keystroke_o	o	n/a
380.7205	0.1075	761441	keystroke_m	m	n/a
380.9335	0.121	761867	keystroke_a	a	n/a
381.0695	0.1215	762139	keystroke_i	i	n/a
381.1595	0.1825	762319	keystroke_n	n	n/a
381.326	0.0755	762652	keystroke_Key.space	Key.space	n/a
381.583	0.092	763166	keystroke_c	c	n/a
381.7355	0.0905	763471	keystroke_a	a	n/a
381.977	0.0605	763954	keystroke_b	b	n/a
382.0835	0.136	764167	keystroke_i	i	n/a
382.174	0.1665	764348	keystroke_n	n	n/a
382.3705	0.06	764741	keystroke_Key.space	Key.space	n/a
382.628	0.0905	765256	keystroke_i	i	n/a
382.8695	0.107	765739	keystroke_d	d	n/a
383.1275	0.0755	766255	keystroke_e	e	n/a
383.248	0.0915	766496	keystroke_n	n	n/a
383.385	0.0755	766770	keystroke_t	t	n/a
383.4755	0.0905	766951	keystroke_i	i	n/a
383.611	0.137	767222	keystroke_a	a	n/a
383.732	0.137	767464	keystroke_l	l	n/a
383.853	0.0915	767706	keystroke_Key.space	Key.space	n/a
384.5795	0.1055	769159	keystroke_a	a	n/a
384.7165	0.106	769433	keystroke_l	l	n/a
384.807	0.1045	769614	keystroke_i	i	n/a
385.003	0.0915	770006	keystroke_k	k	n/a
385.125	0.0905	770250	keystroke_e	e	n/a
385.321	0.09	770642	keystroke_Key.enter	Key.enter	n/a
385.4185	6.002	770837	prompt	n/a	global heater paul protecting\n
386.153	0.076	772306	keystroke_g	g	n/a
386.2735	0.107	772547	keystroke_l	l	n/a
386.4555	0.0905	772911	keystroke_o	o	n/a
386.712	0.092	773424	keystroke_b	b	n/a
386.849	0.1205	773698	keystroke_a	a	n/a
387	0.12	774000	keystroke_l	l	n/a
387.121	0.076	774242	keystroke_Key.space	Key.space	n/a
387.3335	0.0905	774667	keystroke_h	h	n/a
387.4695	0.075	774939	keystroke_e	e	n/a
387.5605	0.1355	775121	keystroke_a	a	n/a
387.8015	0.09	775603	keystroke_t	t	n/a
387.9845	0.0895	775969	keystroke_e	e	n/a
388.059	0.1215	776118	keystroke_r	r	n/a
388.21	0.06	776420	keystroke_Key.space	Key.space	n/a
388.376	0.1065	776752	keystroke_p	p	n/a
388.5275	0.1215	777055	keystroke_a	a	n/a
388.6645	0.0905	777329	keystroke_u	u	n/a
389.1775	0.122	778355	keystroke_l	l	n/a
389.48	0.076	778960	keystroke_Key.space	Key.space	n/a
389.799	0.0895	779598	keystroke_p	p	n/a
389.9045	0.075	779809	keystroke_r	r	n/a
389.995	0.0895	779990	keystroke_o	o	n/a
390.1925	0.089	780385	keystroke_t	t	n/a
390.373	0.09	780746	keystroke_e	e	n/a
390.6155	0.045	781231	keystroke_c	c	n/a
390.781	0.0605	781562	keystroke_t	t	n/a
390.8865	0.137	781773	keystroke_i	i	n/a
390.9785	0.166	781957	keystroke_n	n	n/a
391.114	0.0755	782228	keystroke_g	g	n/a
391.31	0.1075	782620	keystroke_Key.enter	Key.enter	n/a
391.43	7.4455	782860	prompt	n/a	holdem swim delivered irrigation\n
392.2495	0.074	784499	keystroke_h	h	n/a
392.399	0.0905	784798	keystroke_o	o	n/a
392.595	0.138	785190	keystroke_l	l	n/a
392.793	0.0895	785586	keystroke_d	d	n/a
393.0645	0.107	786129	keystroke_e	e	n/a
393.2315	0.1055	786463	keystroke_m	m	n/a
393.3965	0.091	786793	keystroke_Key.space	Key.space	n/a
393.67	0.1055	787340	keystroke_s	s	n/a
393.942	0.107	787884	keystroke_w	w	n/a
394.3345	0.077	788669	keystroke_i	i	n/a
394.487	0.1045	788974	keystroke_m	m	n/a
394.622	0.0745	789244	keystroke_Key.space	Key.space	n/a
394.85	0.0895	789700	keystroke_d	d	n/a
395.0305	0.0755	790061	keystroke_e	e	n/a
395.1965	0.0765	790393	keystroke_l	l	n/a
395.378	0.0605	790756	keystroke_i	i	n/a
395.484	0.09	790968	keystroke_v	v	n/a
395.6345	0.0915	791269	keystroke_e	e	n/a
395.7415	0.1055	791483	keystroke_r	r	n/a
395.937	0.09	791874	keystroke_e	e	n/a
396.134	0.0905	792268	keystroke_d	d	n/a
396.27	0.09	792540	keystroke_Key.space	Key.space	n/a
396.5275	0.0905	793055	keystroke_i	i	n/a
396.8285	0.06	793657	keystroke_r	r	n/a
396.9805	0.0755	793961	keystroke_r	r	n/a
397.1615	0.075	794323	keystroke_i	i	n/a
397.4175	0.075	794835	keystroke_g	g	n/a
397.5385	0.1195	795077	keystroke_a	a	n/a
397.7195	0.074	795439	keystroke_t	t	n/a
398.155	0.149	796310	keystroke_i	i	n/a
398.274	0.1655	796548	keystroke_o	o	n/a
398.4245	0.1355	796849	keystroke_n	n	n/a
398.7535	0.1205	797507	keystroke_Key.enter	Key.enter	n/a
398.882	8.742	797764	prompt	n/a	cleaner mental prince mississippi\n
399.6075	0.09	799215	keystroke_c	c	n/a
399.713	0.119	799426	keystroke_l	l	n/a
399.817	0.074	799634	keystroke_e	e	n/a
399.921	0.167	799842	keystroke_a	a	n/a
400.117	0.1055	800234	keystroke_n	n	n/a
400.4915	0.1055	800983	keystroke_e	e	n/a
400.5815	0.121	801163	keystroke_r	r	n/a
400.7595	0.0905	801519	keystroke_Key.space	Key.space	n/a
401.299	0.0455	802598	keystroke_m	m	n/a
401.3595	0.09	802719	keystroke_e	e	n/a
401.481	0.1035	802962	keystroke_n	n	n/a
401.613	0.0905	803226	keystroke_t	t	n/a
401.7485	0.1215	803497	keystroke_a	a	n/a
401.839	0.1215	803678	keystroke_l	l	n/a
401.975	0.074	803950	keystroke_Key.space	Key.space	n/a
402.1995	0.09	804399	keystroke_p	p	n/a
402.319	0.075	804638	keystroke_r	r	n/a
402.4395	0.089	804879	keystroke_i	i	n/a
402.8445	0.088	805689	keystroke_n	n	n/a
403.0685	0.075	806137	keystroke_c	c	n/a
403.249	0.089	806498	keystroke_e	e	n/a
403.3975	0.0895	806795	keystroke_Key.space	Key.space	n/a
403.7435	0.088	807487	keystroke_m	m	n/a
404.1625	0.0735	808325	keystroke_i	i	n/a
404.4325	0.06	808865	keystroke_s	s	n/a
404.568	0.0875	809136	keystroke_s	s	n/a
405.076	0.0905	810152	keystroke_i	i	n/a
406.3935	0.0755	812787	keystroke_s	s	n/a
406.4845	0.015	812969	keystroke_s	s	n/a
406.5595	0.0905	813119	keystroke_i	i	n/a
406.8285	0.0755	813657	keystroke_p	p	n/a
406.994	0.1055	813988	keystroke_p	p	n/a
407.173	0.075	814346	keystroke_i	i	n/a
407.608	0.014	815216	keystroke_Key.enter	Key.enter	n/a
407.6305	8.3985	815261	prompt	n/a	shepherd magnet manufacture outer\n
408.6125	0.089	817225	keystroke_s	s	n/a
408.7185	0.0885	817437	keystroke_h	h	n/a
408.837	0.1035	817674	keystroke_e	e	n/a
409.676	0.1035	819352	keystroke_p	p	n/a
410.0945	0.088	820189	keystroke_h	h	n/a
410.2585	0.1045	820517	keystroke_e	e	n/a
410.3935	0.105	820787	keystroke_r	r	n/a
410.708	0.121	821416	keystroke_d	d	n/a
410.9335	0.074	821867	keystroke_Key.space	Key.space	n/a
411.1425	0.105	822285	keystroke_m	m	n/a
411.263	0.12	822526	keystroke_a	a	n/a
411.637	0.075	823274	keystroke_g	g	n/a
412.0565	0.045	824113	keystroke_n	n	n/a
412.1165	0.015	824233	keystroke_e	e	n/a
412.1765	0.09	824353	keystroke_t	t	n/a
412.3255	0.075	824651	keystroke_Key.space	Key.space	n/a
412.536	0.075	825072	keystroke_m	m	n/a
412.656	0.1345	825312	keystroke_a	a	n/a
412.7755	0.075	825551	keystroke_n	n	n/a
412.9705	0.0745	825941	keystroke_u	u	n/a
413.2245	0.0745	826449	keystroke_f	f	n/a
413.344	0.091	826688	keystroke_a	a	n/a
413.567	0.076	827134	keystroke_c	c	n/a
413.7635	0.0745	827527	keystroke_t	t	n/a
413.898	0.1045	827796	keystroke_u	u	n/a
413.972	0.15	827944	keystroke_r	r	n/a
414.108	0.1045	828216	keystroke_e	e	n/a
414.2575	0.09	828515	keystroke_r	r	n/a
414.557	0.0605	829114	keystroke_Key.space	Key.space	n/a
414.782	0.0885	829564	keystroke_o	o	n/a
414.946	0.091	829892	keystroke_u	u	n/a
415.067	0.075	830134	keystroke_t	t	n/a
415.261	0.1045	830522	keystroke_e	e	n/a
415.4405	0.121	830881	keystroke_r	r	n/a
415.576	0.076	831152	keystroke_Key.space	Key.space	n/a
415.936	0.09	831872	keystroke_Key.enter	Key.enter	n/a
416.0405	9.18	832081	prompt	n/a	greensboro decide verzeichnis pull\n
417.012	0.0615	834024	keystroke_g	g	n/a
417.1785	0.104	834357	keystroke_r	r	n/a
417.342	0.09	834684	keystroke_e	e	n/a
417.507	0.0905	835014	keystroke_e	e	n/a
417.6425	0.09	835285	keystroke_n	n	n/a
417.957	0.104	835914	keystroke_s	s	n/a
418.0765	0.075	836153	keystroke_h	h	n/a
418.9295	0.074	837859	keystroke_Key.backspace	Key.backspace	n/a
419.1995	0.09	838399	keystroke_b	b	n/a
419.6185	0.1055	839237	keystroke_o	o	n/a
419.813	0.0895	839626	keystroke_r	r	n/a
419.9175	0.09	839835	keystroke_o	o	n/a
420.128	0.06	840256	keystroke_Key.space	Key.space	n/a
420.307	0.1055	840614	keystroke_d	d	n/a
420.5015	0.0605	841003	keystroke_e	e	n/a
420.726	0.09	841452	keystroke_c	c	n/a
420.846	0.0905	841692	keystroke_i	i	n/a
420.9665	0.074	841933	keystroke_d	d	n/a
421.1305	0.075	842261	keystroke_e	e	n/a
421.25	0.091	842500	keystroke_Key.space	Key.space	n/a
421.476	0.0885	842952	keystroke_v	v	n/a
421.655	0.0905	843310	keystroke_e	e	n/a
421.73	0.1195	843460	keystroke_r	r	n/a
422.3895	0.118	844779	keystroke_z	z	n/a
422.748	0.0755	845496	keystroke_e	e	n/a
422.8815	0.0755	845763	keystroke_i	i	n/a
423.4365	0.09	846873	keystroke_h	h	n/a
423.691	0.09	847382	keystroke_n	n	n/a
423.886	0.0755	847772	keystroke_i	i	n/a
424.021	0.104	848042	keystroke_s	s	n/a
424.1695	0.1055	848339	keystroke_Key.space	Key.space	n/a
424.3655	0.075	848731	keystroke_p	p	n/a
424.5005	0.089	849001	keystroke_u	u	n/a
424.785	0.0605	849570	keystroke_l	l	n/a
424.935	0.104	849870	keystroke_l	l	n/a
425.159	0.059	850318	keystroke_Key.enter	Key.enter	n/a
425.225	7.7075	850450	prompt	n/a	gather costs funky records\n
425.952	0.0605	851904	keystroke_g	g	n/a
426.0875	0.1055	852175	keystroke_a	a	n/a
426.2805	0.076	852561	keystroke_t	t	n/a
426.4015	0.1055	852803	keystroke_h	h	n/a
426.4765	0.1045	852953	keystroke_e	e	n/a
426.5665	0.1195	853133	keystroke_r	r	n/a
426.7155	0.09	853431	keystroke_Key.space	Key.space	n/a
426.986	0.0895	853972	keystroke_c	c	n/a
427.12	0.105	854240	keystroke_o	o	n/a
427.3005	0.0745	854601	keystroke_s	s	n/a
427.4805	0.0745	854961	keystroke_t	t	n/a
427.72	0.09	855440	keystroke_s	s	n/a
427.885	0.073	855770	keystroke_Key.space	Key.space	n/a
428.1235	0.075	856247	keystroke_f	f	n/a
428.244	0.075	856488	keystroke_u	u	n/a
428.438	0.105	856876	keystroke_n	n	n/a
428.797	0.06	857594	keystroke_k	k	n/a
428.9775	0.075	857955	keystroke_y	y	n/a
429.1725	0.0435	858345	keystroke_Key.space	Key.space	n/a
429.411	0.105	858822	keystroke_r	r	n/a
429.517	0.0745	859034	keystroke_e	e	n/a
429.906	0.075	859812	keystroke_c	c	n/a
430.0115	0.0885	860023	keystroke_o	o	n/a
430.13	0.075	860260	keystroke_r	r	n/a
430.3105	0.0295	860621	keystroke_d	d	n/a
430.3545	0.031	860709	keystroke_c	c	n/a
430.4885	0.105	860977	keystroke_s	s	n/a
431.179	0.045	862358	keystroke_Key.backspace	Key.backspace	n/a
431.373	0.075	862746	keystroke_Key.backspace	Key.backspace	n/a
432.5725	0.134	865145	keystroke_s	s	n/a
432.8415	0.0895	865683	keystroke_Key.enter	Key.enter	n/a
432.9365	7.738	865873	prompt	n/a	dust milk convenient legislature\n
433.71	0.089	867420	keystroke_d	d	n/a
433.815	0.089	867630	keystroke_u	u	n/a
433.934	0.09	867868	keystroke_s	s	n/a
434.1295	0.09	868259	keystroke_t	t	n/a
434.5185	0.0745	869037	keystroke_Key.space	Key.space	n/a
434.757	0.075	869514	keystroke_m	m	n/a
434.9075	0.075	869815	keystroke_i	i	n/a
435.0575	0.119	870115	keystroke_l	l	n/a
435.2965	0.09	870593	keystroke_k	k	n/a
435.5065	0.06	871013	keystroke_Key.space	Key.space	n/a
435.7005	0.09	871401	keystroke_c	c	n/a
435.7755	0.135	871551	keystroke_o	o	n/a
435.8955	0.134	871791	keystroke_n	n	n/a
436.1345	0.09	872269	keystroke_v	v	n/a
436.419	0.075	872838	keystroke_e	e	n/a
436.675	0.0745	873350	keystroke_n	n	n/a
436.973	0.09	873946	keystroke_i	i	n/a
437.4835	0.0445	874967	keystroke_e	e	n/a
437.5735	0.105	875147	keystroke_n	n	n/a
437.6635	0.0735	875327	keystroke_t	t	n/a
437.796	0.0755	875592	keystroke_Key.space	Key.space	n/a
438.1565	0.1045	876313	keystroke_l	l	n/a
438.306	0.061	876612	keystroke_e	e	n/a
438.472	0.0895	876944	keystroke_g	g	n/a
438.621	0.09	877242	keystroke_i	i	n/a
438.816	0.09	877632	keystroke_s	s	n/a
439.34	0.089	878680	keystroke_l	l	n/a
439.5355	0.1045	879071	keystroke_a	a	n/a
439.924	0.09	879848	keystroke_t	t	n/a
440.044	0.1045	880088	keystroke_u	u	n/a
440.1635	0.134	880327	keystroke_r	r	n/a
440.2825	0.105	880565	keystroke_e	e	n/a
440.5675	0.105	881135	keystroke_Key.enter	Key.enter	n/a
440.6805	6.1775	881361	prompt	n/a	prefix done levy prayer\n
441.3465	0.12	882693	keystroke_p	p	n/a
441.4515	0.1045	882903	keystroke_r	r	n/a
441.5415	0.089	883083	keystroke_e	e	n/a
441.7955	0.09	883591	keystroke_f	f	n/a
441.96	0.0895	883920	keystroke_i	i	n/a
442.2005	0.12	884401	keystroke_x	x	n/a
442.484	0.09	884968	keystroke_Key.space	Key.space	n/a
442.964	0.09	885928	keystroke_d	d	n/a
443.055	0.088	886110	keystroke_o	o	n/a
443.2035	0.1045	886407	keystroke_n	n	n/a
443.338	0.0895	886676	keystroke_e	e	n/a
443.5325	0.09	887065	keystroke_Key.space	Key.space	n/a
443.7565	0.1505	887513	keystroke_l	l	n/a
443.8925	0.0595	887785	keystroke_e	e	n/a
444.027	0.12	888054	keystroke_v	v	n/a
444.2065	0.09	888413	keystroke_y	y	n/a
444.4015	0.0445	888803	keystroke_Key.space	Key.space	n/a
444.5955	0.105	889191	keystroke_p	p	n/a
444.715	0.0755	889430	keystroke_r	r	n/a
444.8205	0.09	889641	keystroke_o	o	n/a
445.239	0.0755	890478	keystroke_Key.backspace	Key.backspace	n/a
445.45	0.0895	890900	keystroke_a	a	n/a
445.5845	0.1035	891169	keystroke_y	y	n/a
446.3775	0.0755	892755	keystroke_e	e	n/a
446.5125	0.09	893025	keystroke_r	r	n/a
446.7665	0.09	893533	keystroke_Key.enter	Key.enter	n/a
446.8615	5.238	893723	prompt	n/a	knock added realm backed\n
447.591	0.0745	895182	keystroke_k	k	n/a
447.755	0.0755	895510	keystroke_n	n	n/a
447.9205	0.089	895841	keystroke_o	o	n/a
448.204	0.1055	896408	keystroke_c	c	n/a
448.295	0.0885	896590	keystroke_k	k	n/a
448.4135	0.0905	896827	keystroke_Key.space	Key.space	n/a
448.609	0.09	897218	keystroke_a	a	n/a
448.7885	0.0745	897577	keystroke_d	d	n/a
448.953	0.075	897906	keystroke_d	d	n/a
449.118	0.06	898236	keystroke_e	e	n/a
449.283	0.075	898566	keystroke_d	d	n/a
449.387	0.09	898774	keystroke_Key.space	Key.space	n/a
449.6125	0.075	899225	keystroke_r	r	n/a
449.746	0.076	899492	keystroke_e	e	n/a
449.8815	0.12	899763	keystroke_a	a	n/a
450.196	0.1055	900392	keystroke_l	l	n/a
450.436	0.1035	900872	keystroke_m	m	n/a
450.6445	0.076	901289	keystroke_Key.space	Key.space	n/a
450.93	0.045	901860	keystroke_b	b	n/a
451.0195	0.0895	902039	keystroke_a	a	n/a
451.215	0.089	902430	keystroke_c	c	n/a
451.3695	0.084	902739	keystroke_k	k	n/a
451.5285	0.0905	903057	keystroke_e	e	n/a
451.7535	0.0895	903507	keystroke_d	d	n/a
451.9935	0.104	903987	keystroke_Key.enter	Key.enter	n/a
452.106	9.924	904212	prompt	n/a	strong mercury brisbane patients\n
452.816	0.0895	905632	keystroke_s	s	n/a
452.981	0.075	905962	keystroke_t	t	n/a
453.4295	0.0755	906859	keystroke_r	r	n/a
453.565	0.149	907130	keystroke_o	o	n/a
453.67	0.165	907340	keystroke_n	n	n/a
453.775	0.1195	907550	keystroke_g	g	n/a
453.8955	0.074	907791	keystroke_Key.space	Key.space	n/a
454.2095	0.104	908419	keystroke_m	m	n/a
454.434	0.1195	908868	keystroke_e	e	n/a
454.5385	0.105	909077	keystroke_r	r	n/a
454.8525	0.105	909705	keystroke_c	c	n/a
455.063	0.1045	910126	keystroke_u	u	n/a
455.3475	0.075	910695	keystroke_r	r	n/a
455.467	0.105	910934	keystroke_y	y	n/a
455.5865	0.0595	911173	keystroke_Key.space	Key.space	n/a
455.842	0.089	911684	keystroke_b	b	n/a
456.035	0.09	912070	keystroke_r	r	n/a
456.215	0.091	912430	keystroke_i	i	n/a
456.5905	0.0895	913181	keystroke_s	s	n/a
456.919	0.0605	913838	keystroke_b	b	n/a
457.114	0.1045	914228	keystroke_a	a	n/a
457.2635	0.1205	914527	keystroke_n	n	n/a
457.473	0.0915	914946	keystroke_c	c	n/a
457.9225	0.075	915845	keystroke_e	e	n/a
459	0.0605	918000	keystroke_Key.backspace	Key.backspace	n/a
459.165	0.075	918330	keystroke_Key.backspace	Key.backspace	n/a
459.585	0.075	919170	keystroke_e	e	n/a
460.2285	0.059	920457	keystroke_Key.space	Key.space	n/a
460.5725	0.1055	921145	keystroke_p	p	n/a
460.708	0.1195	921416	keystroke_a	a	n/a
460.902	0.09	921804	keystroke_t	t	n/a
461.0665	0.09	922133	keystroke_i	i	n/a
461.4275	0.0885	922855	keystroke_e	e	n/a
461.531	0.105	923062	keystroke_n	n	n/a
461.621	0.0905	923242	keystroke_t	t	n/a
461.7715	0.1195	923543	keystroke_s	s	n/a
461.936	0.09	923872	keystroke_Key.enter	Key.enter	n/a
462.0395	4.885	924079	prompt	n/a	fake exit corruption lots\n
462.805	0.0895	925610	keystroke_f	f	n/a
462.9395	0.09	925879	keystroke_a	a	n/a
463.165	0.0885	926330	keystroke_k	k	n/a
463.2835	0.0905	926567	keystroke_e	e	n/a
463.4185	0.075	926837	keystroke_Key.space	Key.space	n/a
463.5835	0.1045	927167	keystroke_e	e	n/a
463.8225	0.12	927645	keystroke_x	x	n/a
464.0175	0.0895	928035	keystroke_i	i	n/a
464.182	0.075	928364	keystroke_t	t	n/a
464.317	0.0595	928634	keystroke_Key.space	Key.space	n/a
464.7065	0.0895	929413	keystroke_c	c	n/a
464.8415	0.1045	929683	keystroke_o	o	n/a
464.991	0.0745	929982	keystroke_r	r	n/a
465.1405	0.075	930281	keystroke_r	r	n/a
465.276	0.0895	930552	keystroke_u	u	n/a
465.4705	0.089	930941	keystroke_p	p	n/a
465.62	0.09	931240	keystroke_t	t	n/a
465.7695	0.119	931539	keystroke_i	i	n/a
465.859	0.1495	931718	keystroke_o	o	n/a
465.9635	0.15	931927	keystroke_n	n	n/a
466.084	0.0745	932168	keystroke_Key.space	Key.space	n/a
466.2635	0.0905	932527	keystroke_l	l	n/a
466.4585	0.0905	932917	keystroke_o	o	n/a
466.534	0.074	933068	keystroke_t	t	n/a
466.6825	0.105	933365	keystroke_s	s	n/a
466.8025	0.12	933605	keystroke_Key.enter	Key.enter	n/a
466.9295	6.719	933859	prompt	n/a	lenses legend markets likewise\n
467.7315	0.12	935463	keystroke_l	l	n/a
467.866	0.0895	935732	keystroke_e	e	n/a
467.9705	0.12	935941	keystroke_n	n	n/a
468.3	0.1055	936600	keystroke_s	s	n/a
468.465	0.09	936930	keystroke_e	e	n/a
468.615	0.105	937230	keystroke_s	s	n/a
468.989	0.06	937978	keystroke_Key.space	Key.space	n/a
469.2135	0.12	938427	keystroke_l	l	n/a
469.349	0.0745	938698	keystroke_e	e	n/a
469.708	0.0755	939416	keystroke_g	g	n/a
469.8875	0.075	939775	keystroke_e	e	n/a
469.993	0.119	939986	keystroke_n	n	n/a
470.127	0.09	940254	keystroke_d	d	n/a
470.277	0.105	940554	keystroke_Key.space	Key.space	n/a
470.532	0.1045	941064	keystroke_m	m	n/a
470.6665	0.135	941333	keystroke_a	a	n/a
470.7415	0.12	941483	keystroke_r	r	n/a
471.131	0.075	942262	keystroke_k	k	n/a
471.2815	0.059	942563	keystroke_e	e	n/a
471.371	0.074	942742	keystroke_t	t	n/a
471.55	0.106	943100	keystroke_s	s	n/a
471.715	0.061	943430	keystroke_Key.space	Key.space	n/a
471.8805	0.075	943761	keystroke_l	l	n/a
472.045	0.0595	944090	keystroke_i	i	n/a
472.225	0.1035	944450	keystroke_k	k	n/a
472.3585	0.105	944717	keystroke_e	e	n/a
472.734	0.09	945468	keystroke_w	w	n/a
472.883	0.091	945766	keystroke_i	i	n/a
473.213	0.1055	946426	keystroke_s	s	n/a
473.3775	0.075	946755	keystroke_e	e	n/a
473.557	0.09	947114	keystroke_Key.enter	Key.enter	n/a
473.6595	5.514	947319	prompt	n/a	friday rights meeting mono\n
474.5305	0.075	949061	keystroke_f	f	n/a
474.71	0.06	949420	keystroke_r	r	n/a
474.8455	0.09	949691	keystroke_i	i	n/a
475.0395	0.09	950079	keystroke_d	d	n/a
475.2345	0.105	950469	keystroke_a	a	n/a
475.3545	0.105	950709	keystroke_y	y	n/a
475.533	0.075	951066	keystroke_Key.space	Key.space	n/a
475.743	0.075	951486	keystroke_r	r	n/a
475.8635	0.075	951727	keystroke_i	i	n/a
475.9675	0.0895	951935	keystroke_g	g	n/a
476.0725	0.09	952145	keystroke_h	h	n/a
476.1765	0.0605	952353	keystroke_t	t	n/a
476.4025	0.1035	952805	keystroke_s	s	n/a
476.6115	0.0905	953223	keystroke_Key.space	Key.space	n/a
476.791	0.1205	953582	keystroke_m	m	n/a
476.9855	0.0755	953971	keystroke_e	e	n/a
477.166	0.059	954332	keystroke_e	e	n/a
477.2995	0.091	954599	keystroke_t	t	n/a
477.6905	0.104	955381	keystroke_i	i	n/a
477.75	0.195	955500	keystroke_n	n	n/a
477.854	0.105	955708	keystroke_g	g	n/a
477.9895	0.09	955979	keystroke_Key.space	Key.space	n/a
478.2295	0.0895	956459	keystroke_m	m	n/a
478.364	0.1045	956728	keystroke_o	o	n/a
478.484	0.119	956968	keystroke_n	n	n/a
478.633	0.12	957266	keystroke_o	o	n/a
479.0675	0.104	958135	keystroke_Key.enter	Key.enter	n/a
479.1805	5.1315	958361	prompt	n/a	dennis luther shirt shut\n
480.0855	0.09	960171	keystroke_d	d	n/a
480.2655	0.075	960531	keystroke_e	e	n/a
480.4595	0.06	960919	keystroke_n	n	n/a
480.6095	0.0605	961219	keystroke_n	n	n/a
480.7305	0.0745	961461	keystroke_i	i	n/a
480.8195	0.1055	961639	keystroke_s	s	n/a
480.969	0.0745	961938	keystroke_Key.space	Key.space	n/a
481.1785	0.09	962357	keystroke_l	l	n/a
481.359	0.0895	962718	keystroke_u	u	n/a
481.6135	0.074	963227	keystroke_t	t	n/a
481.7335	0.0895	963467	keystroke_h	h	n/a
481.8675	0.091	963735	keystroke_e	e	n/a
481.9435	0.1185	963887	keystroke_r	r	n/a
482.1225	0.0895	964245	keystroke_Key.space	Key.space	n/a
482.3775	0.1195	964755	keystroke_s	s	n/a
482.467	0.09	964934	keystroke_h	h	n/a
482.7515	0.075	965503	keystroke_i	i	n/a
482.9165	0.076	965833	keystroke_r	r	n/a
483.0815	0.075	966163	keystroke_t	t	n/a
483.231	0.075	966462	keystroke_Key.space	Key.space	n/a
483.426	0.1045	966852	keystroke_s	s	n/a
483.5155	0.075	967031	keystroke_h	h	n/a
483.74	0.09	967480	keystroke_u	u	n/a
483.995	0.075	967990	keystroke_t	t	n/a
484.2045	0.1045	968409	keystroke_Key.enter	Key.enter	n/a
484.329	7.5895	968658	prompt	n/a	appreciate differences condos scripting\n
485.043	0.12	970086	keystroke_a	a	n/a
485.2075	0.075	970415	keystroke_p	p	n/a
485.358	0.0885	970716	keystroke_p	p	n/a
485.4615	0.105	970923	keystroke_r	r	n/a
485.6575	0.0745	971315	keystroke_e	e	n/a
486.001	0.09	972002	keystroke_c	c	n/a
486.076	0.09	972152	keystroke_i	i	n/a
486.2405	0.1205	972481	keystroke_t	t	n/a
486.2855	0.016	972571	keystroke_a	a	n/a
486.375	0.0905	972750	keystroke_e	e	n/a
486.6595	0.075	973319	keystroke_Key.space	Key.space	n/a
487.334	0.074	974668	keystroke_d	d	n/a
487.4985	0.06	974997	keystroke_i	i	n/a
487.6785	0.06	975357	keystroke_f	f	n/a
487.8285	0.06	975657	keystroke_f	f	n/a
487.9935	0.104	975987	keystroke_e	e	n/a
488.0675	0.15	976135	keystroke_r	r	n/a
488.2185	0.089	976437	keystroke_e	e	n/a
488.3675	0.1045	976735	keystroke_n	n	n/a
488.532	0.075	977064	keystroke_c	c	n/a
488.697	0.0595	977394	keystroke_e	e	n/a
488.8465	0.0745	977693	keystroke_s	s	n/a
488.966	0.075	977932	keystroke_Key.space	Key.space	n/a
489.2355	0.0605	978471	keystroke_c	c	n/a
489.311	0.15	978622	keystroke_o	o	n/a
489.4165	0.1495	978833	keystroke_n	n	n/a
489.67	0.075	979340	keystroke_d	d	n/a
489.8345	0.105	979669	keystroke_o	o	n/a
489.984	0.091	979968	keystroke_s	s	n/a
490.12	0.09	980240	keystroke_Key.space	Key.space	n/a
490.4645	0.09	980929	keystroke_s	s	n/a
490.689	0.075	981378	keystroke_c	c	n/a
490.8685	0.0745	981737	keystroke_r	r	n/a
490.988	0.0755	981976	keystroke_i	i	n/a
491.1535	0.1045	982307	keystroke_p	p	n/a
491.303	0.0745	982606	keystroke_t	t	n/a
491.422	0.15	982844	keystroke_i	i	n/a
491.527	0.165	983054	keystroke_n	n	n/a
491.617	0.1045	983234	keystroke_g	g	n/a
491.812	0.104	983624	keystroke_Key.enter	Key.enter	n/a
491.927	7.8695	983854	prompt	n/a	outlined michigan drawing tions\n
492.7105	0.075	985421	keystroke_o	o	n/a
492.8155	0.105	985631	keystroke_u	u	n/a
492.935	0.075	985870	keystroke_t	t	n/a
493.2205	0.089	986441	keystroke_l	l	n/a
493.4155	0.0745	986831	keystroke_i	i	n/a
493.819	0.0745	987638	keystroke_n	n	n/a
494.028	0.045	988056	keystroke_e	e	n/a
494.208	0.0905	988416	keystroke_d	d	n/a
494.3735	0.1045	988747	keystroke_Key.space	Key.space	n/a
494.748	0.09	989496	keystroke_m	m	n/a
494.9415	0.06	989883	keystroke_i	i	n/a
495.1065	0.09	990213	keystroke_c	c	n/a
495.226	0.09	990452	keystroke_h	h	n/a
495.481	0.0755	990962	keystroke_i	i	n/a
495.915	0.0745	991830	keystroke_g	g	n/a
496.065	0.105	992130	keystroke_a	a	n/a
496.2	0.09	992400	keystroke_n	n	n/a
496.349	0.075	992698	keystroke_Key.space	Key.space	n/a
496.619	0.09	993238	keystroke_d	d	n/a
496.799	0.0745	993598	keystroke_r	r	n/a
497.069	0.0155	994138	keystroke_a	a	n/a
497.188	0.075	994376	keystroke_w	w	n/a
497.6525	0.1205	995305	keystroke_i	i	n/a
497.728	0.1955	995456	keystroke_n	n	n/a
497.818	0.1195	995636	keystroke_g	g	n/a
498.012	0.09	996024	keystroke_Key.space	Key.space	n/a
498.5815	0.075	997163	keystroke_t	t	n/a
498.671	0.1195	997342	keystroke_i	i	n/a
498.776	0.164	997552	keystroke_o	o	n/a
498.9105	0.1495	997821	keystroke_n	n	n/a
499.3755	0.089	998751	keystroke_s	s	n/a
499.6895	0.105	999379	keystroke_Key.enter	Key.enter	n/a
499.8	6.8425	999600	prompt	n/a	gear specially handling consequently\n
500.5585	0.075	1001117	keystroke_g	g	n/a
500.7085	0.0895	1001417	keystroke_e	e	n/a
500.873	0.1205	1001746	keystroke_a	a	n/a
500.9785	0.119	1001957	keystroke_r	r	n/a
501.2175	0.0605	1002435	keystroke_Key.space	Key.space	n/a
501.4125	0.1045	1002825	keystroke_s	s	n/a
501.547	0.12	1003094	keystroke_p	p	n/a
501.7265	0.0905	1003453	keystroke_e	e	n/a
502.0115	0.0895	1004023	keystroke_c	c	n/a
502.116	0.104	1004232	keystroke_i	i	n/a
502.3855	0.1205	1004771	keystroke_a	a	n/a
502.64	0.06	1005280	keystroke_l	l	n/a
502.775	0.06	1005550	keystroke_l	l	n/a
502.8795	0.0905	1005759	keystroke_y	y	n/a
503	0.06	1006000	keystroke_Key.space	Key.space	n/a
503.165	0.0895	1006330	keystroke_h	h	n/a
503.3005	0.1195	1006601	keystroke_a	a	n/a
503.4045	0.105	1006809	keystroke_n	n	n/a
503.57	0.0895	1007140	keystroke_d	d	n/a
503.8835	0.09	1007767	keystroke_l	l	n/a
504.048	0.121	1008096	keystroke_i	i	n/a
504.1235	0.1795	1008247	keystroke_n	n	n/a
504.213	0.12	1008426	keystroke_g	g	n/a
504.318	0.09	1008636	keystroke_Key.space	Key.space	n/a
504.557	0.0905	1009114	keystroke_c	c	n/a
504.648	0.149	1009296	keystroke_o	o	n/a
504.752	0.151	1009504	keystroke_n	n	n/a
504.9325	0.104	1009865	keystroke_s	s	n/a
505.1565	0.105	1010313	keystroke_e	e	n/a
505.4565	0.105	1010913	keystroke_q	q	n/a
505.591	0.105	1011182	keystroke_u	u	n/a
505.7705	0.0755	1011541	keystroke_e	e	n/a
505.861	0.119	1011722	keystroke_n	n	n/a
505.981	0.089	1011962	keystroke_t	t	n/a
506.1305	0.1045	1012261	keystroke_l	l	n/a
506.2955	0.09	1012591	keystroke_y	y	n/a
506.564	0.0745	1013128	keystroke_Key.enter	Key.enter	n/a
506.646	5.8805	1013292	prompt	n/a	interest transform jobs fate\n
507.298	0.0595	1014596	keystroke_i	i	n/a
507.4185	0.104	1014837	keystroke_n	n	n/a
507.5535	0.09	1015107	keystroke_t	t	n/a
507.7035	0.089	1015407	keystroke_e	e	n/a
507.7785	0.104	1015557	keystroke_r	r	n/a
507.9725	0.0895	1015945	keystroke_e	e	n/a
508.123	0.104	1016246	keystroke_s	s	n/a
508.242	0.0905	1016484	keystroke_t	t	n/a
508.497	0.06	1016994	keystroke_Key.space	Key.space	n/a
508.707	0.0595	1017414	keystroke_t	t	n/a
508.8565	0.075	1017713	keystroke_r	r	n/a
509.111	0.09	1018222	keystroke_a	a	n/a
509.291	0.0895	1018582	keystroke_n	n	n/a
509.4855	0.075	1018971	keystroke_s	s	n/a
509.7245	0.0755	1019449	keystroke_f	f	n/a
509.8145	0.09	1019629	keystroke_o	o	n/a
509.92	0.0595	1019840	keystroke_r	r	n/a
510.5035	0.075	1021007	keystroke_m	m	n/a
510.6985	0.0605	1021397	keystroke_Key.space	Key.space	n/a
511.058	0.015	1022116	keystroke_j	j	n/a
511.088	0.12	1022176	keystroke_o	o	n/a
511.2815	0.076	1022563	keystroke_b	b	n/a
511.5065	0.09	1023013	keystroke_s	s	n/a
511.6715	0.09	1023343	keystroke_Key.space	Key.space	n/a
511.8365	0.09	1023673	keystroke_f	f	n/a
511.9565	0.12	1023913	keystroke_a	a	n/a
512.091	0.09	1024182	keystroke_t	t	n/a
512.2405	0.0895	1024481	keystroke_e	e	n/a
512.435	0.0895	1024870	keystroke_Key.enter	Key.enter	n/a
512.53	6.05	1025060	prompt	n/a	davis ultram leeds class\n
513.2295	0.09	1026459	keystroke_d	d	n/a
513.4095	0.105	1026819	keystroke_a	a	n/a
513.649	0.089	1027298	keystroke_v	v	n/a
513.7975	0.09	1027595	keystroke_i	i	n/a
513.9635	0.1045	1027927	keystroke_s	s	n/a
514.098	0.105	1028196	keystroke_Key.space	Key.space	n/a
514.3825	0.09	1028765	keystroke_u	u	n/a
514.712	0.0905	1029424	keystroke_l	l	n/a
514.9515	0.0905	1029903	keystroke_t	t	n/a
515.147	0.0895	1030294	keystroke_r	r	n/a
515.2965	0.105	1030593	keystroke_a	a	n/a
515.462	0.104	1030924	keystroke_m	m	n/a
515.626	0.075	1031252	keystroke_Key.space	Key.space	n/a
515.8505	0.09	1031701	keystroke_l	l	n/a
515.9995	0.061	1031999	keystroke_e	e	n/a
516.1655	0.0595	1032331	keystroke_e	e	n/a
516.4035	0.015	1032807	keystroke_d	d	n/a
516.5095	0.09	1033019	keystroke_s	s	n/a
516.703	0.0615	1033406	keystroke_Key.space	Key.space	n/a
516.9895	0.12	1033979	keystroke_l	l	n/a
517.124	0.0745	1034248	keystroke_c	c	n/a
517.469	0.015	1034938	keystroke_Key.backspace	Key.backspace	n/a
517.573	0.076	1035146	keystroke_Key.backspace	Key.backspace	n/a
517.7085	0.0905	1035417	keystroke_c	c	n/a
517.843	0.1205	1035686	keystroke_l	l	n/a
517.9485	0.1195	1035897	keystroke_a	a	n/a
518.1875	0.06	1036375	keystroke_s	s	n/a
518.3225	0.0895	1036645	keystroke_s	s	n/a
518.472	0.105	1036944	keystroke_Key.enter	Key.enter	n/a
518.592	5.439	1037184	prompt	n/a	offer pitch skirts oils\n
519.251	0.09	1038502	keystroke_o	o	n/a
519.431	0.076	1038862	keystroke_f	f	n/a
519.596	0.09	1039192	keystroke_f	f	n/a
519.791	0.0895	1039582	keystroke_e	e	n/a
519.8655	0.135	1039731	keystroke_r	r	n/a
520.0155	0.075	1040031	keystroke_Key.space	Key.space	n/a
520.255	0.09	1040510	keystroke_p	p	n/a
520.4345	0.075	1040869	keystroke_i	i	n/a
520.57	0.074	1041140	keystroke_t	t	n/a
520.8095	0.0745	1041619	keystroke_c	c	n/a
520.899	0.089	1041798	keystroke_h	h	n/a
521.004	0.089	1042008	keystroke_Key.space	Key.space	n/a
521.4235	0.09	1042847	keystroke_s	s	n/a
521.573	0.09	1043146	keystroke_k	k	n/a
522.0675	0.075	1044135	keystroke_i	i	n/a
522.1565	0.0905	1044313	keystroke_r	r	n/a
522.352	0.06	1044704	keystroke_t	t	n/a
522.876	0.045	1045752	keystroke_s	s	n/a
522.951	0.075	1045902	keystroke_Key.space	Key.space	n/a
523.146	0.0745	1046292	keystroke_o	o	n/a
523.295	0.09	1046590	keystroke_i	i	n/a
523.445	0.12	1046890	keystroke_l	l	n/a
523.7	0.1045	1047400	keystroke_s	s	n/a
523.939	0.0905	1047878	keystroke_Key.enter	Key.enter	n/a
524.042	6.385	1048084	prompt	n/a	shoe boxing setting appliance\n
524.853	0.0895	1049706	keystroke_s	s	n/a
524.958	0.09	1049916	keystroke_h	h	n/a
525.123	0.0745	1050246	keystroke_e	e	n/a
525.5125	0.0745	1051025	keystroke_Key.backspace	Key.backspace	n/a
525.753	0.105	1051506	keystroke_o	o	n/a
525.872	0.09	1051744	keystroke_e	e	n/a
525.977	0.0895	1051954	keystroke_Key.space	Key.space	n/a
526.6955	0.0605	1053391	keystroke_b	b	n/a
526.77	0.016	1053540	keystroke_o	o	n/a
526.89	0.106	1053780	keystroke_x	x	n/a
527.1145	0.136	1054229	keystroke_i	i	n/a
527.1755	0.1795	1054351	keystroke_n	n	n/a
527.295	0.12	1054590	keystroke_g	g	n/a
527.4005	0.089	1054801	keystroke_Key.space	Key.space	n/a
527.6245	0.104	1055249	keystroke_s	s	n/a
527.7895	0.0905	1055579	keystroke_e	e	n/a
527.984	0.0755	1055968	keystroke_t	t	n/a
528.134	0.06	1056268	keystroke_t	t	n/a
528.2395	0.1355	1056479	keystroke_i	i	n/a
528.314	0.1795	1056628	keystroke_n	n	n/a
528.4335	0.105	1056867	keystroke_g	g	n/a
528.5235	0.09	1057047	keystroke_Key.space	Key.space	n/a
528.704	0.1195	1057408	keystroke_a	a	n/a
528.8685	0.0745	1057737	keystroke_p	p	n/a
529.0475	0.0755	1058095	keystroke_p	p	n/a
529.273	0.09	1058546	keystroke_l	l	n/a
529.4225	0.09	1058845	keystroke_i	i	n/a
529.7675	0.0895	1059535	keystroke_a	a	n/a
529.8865	0.075	1059773	keystroke_n	n	n/a
529.9765	0.09	1059953	keystroke_c	c	n/a
530.1705	0.06	1060341	keystroke_e	e	n/a
530.3355	0.09	1060671	keystroke_Key.enter	Key.enter	n/a
530.4315	6.681	1060863	prompt	n/a	generic arrives included culture\n
531.5645	0.075	1063129	keystroke_g	g	n/a
531.684	0.0755	1063368	keystroke_e	e	n/a
531.834	0.09	1063668	keystroke_n	n	n/a
531.954	0.0745	1063908	keystroke_e	e	n/a
532.089	0.0895	1064178	keystroke_r	r	n/a
532.418	0.0595	1064836	keystroke_i	i	n/a
532.5675	0.09	1065135	keystroke_c	c	n/a
532.732	0.0905	1065464	keystroke_Key.space	Key.space	n/a
532.928	0.1195	1065856	keystroke_a	a	n/a
533.108	0.0745	1066216	keystroke_r	r	n/a
533.257	0.0905	1066514	keystroke_r	r	n/a
533.3925	0.1045	1066785	keystroke_i	i	n/a
533.557	0.0745	1067114	keystroke_v	v	n/a
533.7065	0.075	1067413	keystroke_e	e	n/a
533.8565	0.1045	1067713	keystroke_s	s	n/a
533.991	0.075	1067982	keystroke_Key.space	Key.space	n/a
534.2165	0.0605	1068433	keystroke_i	i	n/a
534.3215	0.1195	1068643	keystroke_n	n	n/a
534.56	0.091	1069120	keystroke_c	c	n/a
534.651	0.12	1069302	keystroke_l	l	n/a
534.741	0.135	1069482	keystroke_u	u	n/a
534.906	0.0895	1069812	keystroke_d	d	n/a
535.0855	0.075	1070171	keystroke_e	e	n/a
535.264	0.076	1070528	keystroke_d	d	n/a
535.37	0.075	1070740	keystroke_Key.space	Key.space	n/a
535.684	0.0905	1071368	keystroke_c	c	n/a
535.8045	0.09	1071609	keystroke_u	u	n/a
536.029	0.1055	1072058	keystroke_l	l	n/a
536.269	0.0745	1072538	keystroke_t	t	n/a
536.553	0.0745	1073106	keystroke_u	u	n/a
536.6725	0.12	1073345	keystroke_r	r	n/a
536.7775	0.09	1073555	keystroke_e	e	n/a
537.017	0.0905	1074034	keystroke_Key.enter	Key.enter	n/a
537.1205	10.7155	1074241	prompt	n/a	derived vocational install civilian\n
537.8265	0.09	1075653	keystroke_d	d	n/a
538.0065	0.1195	1076013	keystroke_e	e	n/a
538.5905	0.06	1077181	keystroke_r	r	n/a
538.7105	0.0905	1077421	keystroke_i	i	n/a
538.8755	0.075	1077751	keystroke_v	v	n/a
539.0105	0.075	1078021	keystroke_e	e	n/a
539.175	0.0895	1078350	keystroke_d	d	n/a
539.28	0.075	1078560	keystroke_Key.space	Key.space	n/a
539.85	0.044	1079700	keystroke_v	v	n/a
540.3135	0.0895	1080627	keystroke_o	o	n/a
540.6285	0.104	1081257	keystroke_c	c	n/a
540.7925	0.121	1081585	keystroke_a	a	n/a
541.273	0.1045	1082546	keystroke_t	t	n/a
541.362	0.121	1082724	keystroke_i	i	n/a
541.453	0.149	1082906	keystroke_o	o	n/a
541.572	0.15	1083144	keystroke_n	n	n/a
541.7825	0.1195	1083565	keystroke_a	a	n/a
541.917	0.105	1083834	keystroke_l	l	n/a
541.992	0.0895	1083984	keystroke_Key.space	Key.space	n/a
542.2015	0.0595	1084403	keystroke_i	i	n/a
542.3215	0.0895	1084643	keystroke_n	n	n/a
542.456	0.09	1084912	keystroke_s	s	n/a
542.576	0.075	1085152	keystroke_t	t	n/a
542.7115	0.119	1085423	keystroke_a	a	n/a
542.9805	0.045	1085961	keystroke_l	l	n/a
543.1155	0.075	1086231	keystroke_l	l	n/a
543.849	0.045	1087698	keystroke_Key.space	Key.space	n/a
544.39	0.0745	1088780	keystroke_v	v	n/a
544.793	0.075	1089586	keystroke_i	i	n/a
545.227	0.06	1090454	keystroke_Key.backspace	Key.backspace	n/a
545.362	0.0755	1090724	keystroke_Key.backspace	Key.backspace	n/a
545.5125	0.09	1091025	keystroke_c	c	n/a
545.632	0.0905	1091264	keystroke_i	i	n/a
545.842	0.0895	1091684	keystroke_v	v	n/a
546.0065	0.076	1092013	keystroke_i	i	n/a
546.4565	0.0745	1092913	keystroke_l	l	n/a
547.116	0.0595	1094232	keystroke_i	i	n/a
547.3255	0.1035	1094651	keystroke_a	a	n/a
547.46	0.074	1094920	keystroke_n	n	n/a
547.7445	0.09	1095489	keystroke_Key.enter	Key.enter	n/a
547.86	5.9395	1095720	prompt	n/a	adapter turned dennis what\n
548.674	0.1055	1097348	keystroke_a	a	n/a
548.8385	0.106	1097677	keystroke_d	d	n/a
549.1235	0.1045	1098247	keystroke_a	a	n/a
549.393	0.1055	1098786	keystroke_p	p	n/a
549.6185	0.0745	1099237	keystroke_t	t	n/a
549.8575	0.09	1099715	keystroke_e	e	n/a
549.949	0.1035	1099898	keystroke_r	r	n/a
550.172	0.059	1100344	keystroke_Key.space	Key.space	n/a
550.4265	0.09	1100853	keystroke_t	t	n/a
550.5615	0.0905	1101123	keystroke_u	u	n/a
550.6665	0.075	1101333	keystroke_r	r	n/a
550.7865	0.1055	1101573	keystroke_n	n	n/a
550.9215	0.0895	1101843	keystroke_e	e	n/a
551.086	0.105	1102172	keystroke_d	d	n/a
551.206	0.09	1102412	keystroke_Key.space	Key.space	n/a
551.4165	0.09	1102833	keystroke_d	d	n/a
551.611	0.06	1103222	keystroke_e	e	n/a
551.7905	0.075	1103581	keystroke_n	n	n/a
551.9255	0.075	1103851	keystroke_n	n	n/a
552.0455	0.074	1104091	keystroke_i	i	n/a
552.134	0.0905	1104268	keystroke_s	s	n/a
552.27	0.075	1104540	keystroke_Key.space	Key.space	n/a
552.4645	0.0905	1104929	keystroke_s	s	n/a
552.959	0.06	1105918	keystroke_Key.backspace	Key.backspace	n/a
553.154	0.075	1106308	keystroke_w	w	n/a
553.244	0.105	1106488	keystroke_h	h	n/a
553.394	0.075	1106788	keystroke_a	a	n/a
553.4835	0.0905	1106967	keystroke_t	t	n/a
553.6925	0.105	1107385	keystroke_Key.enter	Key.enter	n/a
553.8135	7.553	1107627	prompt	n/a	guys imposed suse server\n
554.4725	0.0895	1108945	keystroke_f	f	n/a
554.5925	0.0745	1109185	keystroke_u	u	n/a
554.7725	0.059	1109545	keystroke_y	y	n/a
555.236	0.061	1110472	keystroke_Key.backspace	Key.backspace	n/a
555.3865	0.0745	1110773	keystroke_Key.backspace	Key.backspace	n/a
555.551	0.059	1111102	keystroke_Key.backspace	Key.backspace	n/a
555.73	0.076	1111460	keystroke_g	g	n/a
555.851	0.075	1111702	keystroke_u	u	n/a
556.046	0.06	1112092	keystroke_y	y	n/a
556.181	0.0895	1112362	keystroke_s	s	n/a
556.315	0.0895	1112630	keystroke_Key.space	Key.space	n/a
556.5695	0.061	1113139	keystroke_i	i	n/a
556.7045	0.1055	1113409	keystroke_m	m	n/a
