onset	duration	sample	value	key	prompt_text
2.057	19.447	4114	prompt	n/a	the quick brown fox jumps over a lazy dog\n
3.7225	0.08	7445	keystroke_t	t	n/a
3.9225	0.12	7845	keystroke_h	h	n/a
4.1545	0.1505	8309	keystroke_e	e	n/a
9.5605	0.096	19121	keystroke_Key.space	Key.space	n/a
9.76	0.136	19520	keystroke_q	q	n/a
9.881	0.088	19762	keystroke_u	u	n/a
10.072	0.065	20144	keystroke_i	i	n/a
10.368	0.16	20736	keystroke_c	c	n/a
10.577	0.096	21154	keystroke_k	k	n/a
10.872	0.096	21744	keystroke_Key.space	Key.space	n/a
11.777	0.063	23554	keystroke_b	b	n/a
11.936	0.113	23872	keystroke_r	r	n/a
12.192	0.0725	24384	keystroke_o	o	n/a
12.5125	0.112	25025	keystroke_w	w	n/a
12.6805	0.072	25361	keystroke_n	n	n/a
12.84	0.1045	25680	keystroke_Key.space	Key.space	n/a
13.1125	0.08	26225	keystroke_f	f	n/a
13.8485	0.072	27697	keystroke_o	o	n/a
14.0245	0.152	28049	keystroke_x	x	n/a
14.2805	0.088	28561	keystroke_Key.space	Key.space	n/a
15.1045	0.064	30209	keystroke_j	j	n/a
15.281	0.088	30562	keystroke_u	u	n/a
15.5285	0.104	31057	keystroke_m	m	n/a
15.72	0.088	31440	keystroke_p	p	n/a
16.184	0.16	32368	keystroke_s	s	n/a
16.448	0.088	32896	keystroke_Key.space	Key.space	n/a
17.6645	0.064	35329	keystroke_o	o	n/a
18.0325	0.088	36065	keystroke_v	v	n/a
18.1845	0.12	36369	keystroke_e	e	n/a
18.3365	0.088	36673	keystroke_r	r	n/a
18.7285	0.0795	37457	keystroke_Key.space	Key.space	n/a
18.896	0.136	37792	keystroke_a	a	n/a
19.128	0.112	38256	keystroke_Key.space	Key.space	n/a
19.4885	0.072	38977	keystroke_l	l	n/a
19.6325	0.096	39265	keystroke_a	a	n/a
19.936	0.128	39872	keystroke_z	z	n/a
20.296	0.072	40592	keystroke_y	y	n/a
20.512	0.136	41024	keystroke_Key.space	Key.space	n/a
20.745	0.127	41490	keystroke_d	d	n/a
20.88	0.072	41760	keystroke_o	o	n/a
21.104	0.089	42208	keystroke_g	g	n/a
21.408	0.088	42816	keystroke_Key.enter	Key.enter	n/a
21.5085	12.028	43017	prompt	n/a	usda deleted identify stanley\n
22.8485	0.08	45697	keystroke_u	u	n/a
23.001	0.1355	46002	keystroke_s	s	n/a
23.2645	0.088	46529	keystroke_d	d	n/a
23.5205	0.136	47041	keystroke_a	a	n/a
23.8885	0.096	47777	keystroke_Key.space	Key.space	n/a
24.1445	0.128	48289	keystroke_d	d	n/a
24.4085	0.152	48817	keystroke_e	e	n/a
24.5605	0.08	49121	keystroke_l	l	n/a
24.6965	0.168	49393	keystroke_e	e	n/a
24.9125	0.104	49825	keystroke_t	t	n/a
25.0325	0.136	50065	keystroke_e	e	n/a
25.2165	0.104	50433	keystroke_d	d	n/a
25.5845	0.096	51169	keystroke_Key.space	Key.space	n/a
27.448	0.064	54896	keystroke_i	i	n/a
27.6245	0.112	55249	keystroke_d	d	n/a
27.8805	0.1275	55761	keystroke_e	e	n/a
27.984	0.08	55968	keystroke_n	n	n/a
28.24	0.152	56480	keystroke_t	t	n/a
29.3685	0.072	58737	keystroke_i	i	n/a
29.7605	0.112	59521	keystroke_f	f	n/a
29.9365	0.104	59873	keystroke_y	y	n/a
30.3365	0.104	60673	keystroke_Key.space	Key.space	n/a
30.928	0.112	61856	keystroke_s	s	n/a
31.072	0.056	62144	keystroke_t	t	n/a
31.352	0.104	62704	keystroke_a	a	n/a
31.496	0.088	62992	keystroke_n	n	n/a
31.856	0.096	63712	keystroke_l	l	n/a
32.016	0.152	64032	keystroke_e	e	n/a
32.2	0.088	64400	keystroke_t	t	n/a
32.84	0.0885	65680	keystroke_Key.backspace	Key.backspace	n/a
33.137	0.079	66274	keystroke_y	y	n/a
33.432	0.0965	66864	keystroke_Key.enter	Key.enter	n/a
33.541	53.0495	67082	prompt	n/a	healthy addressed stupid speed\n
77.7595	0.04	155519	keystroke_h	h	n/a
77.8635	0.0795	155727	keystroke_e	e	n/a
78.143	0.136	156286	keystroke_a	a	n/a
78.487	0.088	156974	keystroke_l	l	n/a
78.927	0.0875	157854	keystroke_t	t	n/a
79.1745	0.104	158349	keystroke_h	h	n/a
79.5105	0.0805	159021	keystroke_y	y	n/a
80.1595	0.071	160319	keystroke_Key.space	Key.space	n/a
80.3995	0.144	160799	keystroke_a	a	n/a
80.6395	0.08	161279	keystroke_d	d	n/a
80.8235	0.104	161647	keystroke_d	d	n/a
81.0075	0.12	162015	keystroke_r	r	n/a
81.2235	0.088	162447	keystroke_e	e	n/a
81.4795	0.144	162959	keystroke_s	s	n/a
81.7595	0.168	163519	keystroke_s	s	n/a
82.0795	0.136	164159	keystroke_e	e	n/a
82.2635	0.088	164527	keystroke_d	d	n/a
82.5665	0.096	165133	keystroke_Key.space	Key.space	n/a
83.0625	0.168	166125	keystroke_s	s	n/a
83.2145	0.08	166429	keystroke_t	t	n/a
83.6705	0.072	167341	keystroke_u	u	n/a
83.9825	0.072	167965	keystroke_p	p	n/a
84.3265	0.096	168653	keystroke_i	i	n/a
84.5105	0.112	169021	keystroke_d	d	n/a
84.6865	0.088	169373	keystroke_Key.space	Key.space	n/a
85.351	0.136	170702	keystroke_s	s	n/a
85.559	0.064	171118	keystroke_p	p	n/a
85.743	0.104	171486	keystroke_e	e	n/a
85.935	0.12	171870	keystroke_e	e	n/a
86.079	0.088	172158	keystroke_d	d	n/a
86.479	0.1035	172958	keystroke_Key.enter	Key.enter	n/a
86.5955	8.972	173191	prompt	n/a	competing offered stunning lack\n
87.639	0.144	175278	keystroke_c	c	n/a
87.759	0.064	175518	keystroke_o	o	n/a
87.943	0.12	175886	keystroke_m	m	n/a
88.151	0.064	176302	keystroke_p	p	n/a
88.303	0.144	176606	keystroke_e	e	n/a
88.487	0.088	176974	keystroke_t	t	n/a
88.695	0.112	177390	keystroke_i	i	n/a
88.943	0.12	177886	keystroke_n	n	n/a
89.239	0.0805	178478	keystroke_g	g	n/a
89.4715	0.1355	178943	keystroke_Key.space	Key.space	n/a
89.8955	0.072	179791	keystroke_o	o	n/a
90.2075	0.08	180415	keystroke_f	f	n/a
90.3595	0.0875	180719	keystroke_f	f	n/a
90.463	0.144	180926	keystroke_e	e	n/a
90.639	0.104	181278	keystroke_r	r	n/a
90.7275	0.12	181455	keystroke_e	e	n/a
90.919	0.096	181838	keystroke_d	d	n/a
91.2465	0.112	182493	keystroke_Key.space	Key.space	n/a
91.7275	0.191	183455	keystroke_s	s	n/a
91.8865	0.081	183773	keystroke_t	t	n/a
92.0545	0.089	184109	keystroke_u	u	n/a
92.3755	0.071	184751	keystroke_n	n	n/a
92.5265	0.1125	185053	keystroke_n	n	n/a
92.703	0.088	185406	keystroke_i	i	n/a
92.919	0.1035	185838	keystroke_n	n	n/a
93.143	0.064	186286	keystroke_g	g	n/a
93.335	0.104	186670	keystroke_Key.space	Key.space	n/a
93.895	0.064	187790	keystroke_l	l	n/a
94.079	0.12	188158	keystroke_a	a	n/a
94.239	0.072	188478	keystroke_c	c	n/a
94.855	0.088	189710	keystroke_k	k	n/a
95.4715	0.088	190943	keystroke_Key.enter	Key.enter	n/a
95.5715	8.1645	191143	prompt	n/a	rhode manner fame valentine\n
96.8075	0.112	193615	keystroke_r	r	n/a
96.9115	0.088	193823	keystroke_h	h	n/a
97.119	0.096	194238	keystroke_o	o	n/a
97.423	0.104	194846	keystroke_d	d	n/a
97.679	0.16	195358	keystroke_e	e	n/a
97.919	0.0875	195838	keystroke_Key.space	Key.space	n/a
98.335	0.096	196670	keystroke_m	m	n/a
98.511	0.1285	197022	keystroke_a	a	n/a
98.6955	0.064	197391	keystroke_n	n	n/a
98.8555	0.096	197711	keystroke_n	n	n/a
99.0155	0.143	198031	keystroke_e	e	n/a
99.1915	0.096	198383	keystroke_r	r	n/a
99.5425	0.112	199085	keystroke_Key.space	Key.space	n/a
100.2385	0.056	200477	keystroke_f	f	n/a
100.5985	0.104	201197	keystroke_a	a	n/a
100.8225	0.064	201645	keystroke_m	m	n/a
100.9665	0.113	201933	keystroke_e	e	n/a
101.1665	0.08	202333	keystroke_Key.space	Key.space	n/a
101.839	0.072	203678	keystroke_v	v	n/a
102.087	0.096	204174	keystroke_a	a	n/a
102.239	0.08	204478	keystroke_l	l	n/a
102.391	0.136	204782	keystroke_e	e	n/a
102.543	0.104	205086	keystroke_n	n	n/a
102.791	0.088	205582	keystroke_t	t	n/a
103.015	0.104	206030	keystroke_i	i	n/a
103.311	0.112	206622	keystroke_n	n	n/a
103.447	0.16	206894	keystroke_e	e	n/a
103.639	0.0955	207278	keystroke_Key.enter	Key.enter	n/a
103.739	9.86	207478	prompt	n/a	sprint recorded false filtering\n
104.8635	0.136	209727	keystroke_s	s	n/a
105.0155	0.056	210031	keystroke_p	p	n/a
105.3185	0.112	210637	keystroke_r	r	n/a
105.4545	0.081	210909	keystroke_i	i	n/a
105.6635	0.119	211327	keystroke_n	n	n/a
105.9265	0.08	211853	keystroke_t	t	n/a
106.2785	0.12	212557	keystroke_Key.space	Key.space	n/a
106.743	0.08	213486	keystroke_r	r	n/a
106.935	0.112	213870	keystroke_e	e	n/a
107.031	0.088	214062	keystroke_c	c	n/a
107.287	0.0965	214574	keystroke_o	o	n/a
107.5595	0.088	215119	keystroke_r	r	n/a
107.7435	0.1355	215487	keystroke_d	d	n/a
107.887	0.112	215774	keystroke_e	e	n/a
108.055	0.12	216110	keystroke_r	r	n/a
108.351	0.104	216702	keystroke_Key.space	Key.space	n/a
108.855	0.088	217710	keystroke_f	f	n/a
109.055	0.128	218110	keystroke_a	a	n/a
109.231	0.08	218462	keystroke_l	l	n/a
109.463	0.088	218926	keystroke_s	s	n/a
109.711	0.1595	219422	keystroke_e	e	n/a
109.9025	0.088	219805	keystroke_Key.space	Key.space	n/a
110.7835	0.079	221567	keystroke_f	f	n/a
111.0555	0.095	222111	keystroke_i	i	n/a
111.2865	0.096	222573	keystroke_l	l	n/a
111.6385	0.104	223277	keystroke_t	t	n/a
111.8065	0.136	223613	keystroke_e	e	n/a
111.9665	0.104	223933	keystroke_r	r	n/a
112.8145	0.072	225629	keystroke_i	i	n/a
112.9825	0.1285	225965	keystroke_n	n	n/a
113.223	0.096	226446	keystroke_g	g	n/a
113.519	0.072	227038	keystroke_Key.enter	Key.enter	n/a
113.603	11.708	227206	prompt	n/a	periodic donald dial municipality\n
114.7505	0.072	229501	keystroke_p	p	n/a
114.9425	0.144	229885	keystroke_e	e	n/a
115.1265	0.08	230253	keystroke_r	r	n/a
115.5355	0.095	231071	keystroke_i	i	n/a
116.0795	0.063	232159	keystroke_o	o	n/a
116.3665	0.112	232733	keystroke_d	d	n/a
116.5425	0.0805	233085	keystroke_i	i	n/a
116.7025	0.136	233405	keystroke_c	c	n/a
117.023	0.088	234046	keystroke_Key.space	Key.space	n/a
117.7665	0.08	235533	keystroke_d	d	n/a
117.8945	0.073	235789	keystroke_o	o	n/a
118.1355	0.088	236271	keystroke_n	n	n/a
118.4635	0.16	236927	keystroke_a	a	n/a
118.7355	0.096	237471	keystroke_l	l	n/a
119.4555	0.12	238911	keystroke_d	d	n/a
119.6225	0.096	239245	keystroke_Key.space	Key.space	n/a
119.8315	0.12	239663	keystroke_d	d	n/a
120.0475	0.064	240095	keystroke_i	i	n/a
120.2555	0.112	240511	keystroke_a	a	n/a
120.3995	0.08	240799	keystroke_l	l	n/a
120.663	0.08	241326	keystroke_Key.space	Key.space	n/a
121.103	0.112	242206	keystroke_m	m	n/a
121.367	0.08	242734	keystroke_u	u	n/a
121.639	0.112	243278	keystroke_n	n	n/a
121.911	0.104	243822	keystroke_i	i	n/a
123.383	0.144	246766	keystroke_c	c	n/a
123.559	0.072	247118	keystroke_i	i	n/a
123.807	0.088	247614	keystroke_p	p	n/a
124.127	0.112	248254	keystroke_a	a	n/a
124.223	0.088	248446	keystroke_l	l	n/a
124.423	0.08	248846	keystroke_i	i	n/a
124.679	0.088	249358	keystroke_t	t	n/a
124.847	0.08	249694	keystroke_y	y	n/a
125.207	0.096	250414	keystroke_Key.enter	Key.enter	n/a
125.317	8.5935	250634	prompt	n/a	harbor use method simpsons\n
126.231	0.072	252462	keystroke_h	h	n/a
126.431	0.104	252862	keystroke_a	a	n/a
126.583	0.08	253166	keystroke_r	r	n/a
126.919	0.112	253838	keystroke_b	b	n/a
128.287	0.072	256574	keystroke_o	o	n/a
128.423	0.104	256846	keystroke_r	r	n/a
128.623	0.128	257246	keystroke_Key.space	Key.space	n/a
129.007	0.056	258014	keystroke_u	u	n/a
129.143	0.104	258286	keystroke_s	s	n/a
129.4075	0.128	258815	keystroke_e	e	n/a
129.5985	0.08	259197	keystroke_Key.space	Key.space	n/a
130.175	0.072	260350	keystroke_m	m	n/a
130.311	0.152	260622	keystroke_e	e	n/a
130.511	0.096	261022	keystroke_t	t	n/a
130.695	0.096	261390	keystroke_h	h	n/a
130.879	0.104	261758	keystroke_o	o	n/a
131.159	0.128	262318	keystroke_d	d	n/a
131.359	0.104	262718	keystroke_Key.space	Key.space	n/a
131.799	0.144	263598	keystroke_s	s	n/a
132.215	0.056	264430	keystroke_i	i	n/a
132.4145	0.104	264829	keystroke_m	m	n/a
132.6225	0.073	265245	keystroke_p	p	n/a
132.9995	0.119	265999	keystroke_s	s	n/a
133.1275	0.087	266255	keystroke_o	o	n/a
133.3985	0.096	266797	keystroke_n	n	n/a
133.6065	0.1445	267213	keystroke_s	s	n/a
133.799	0.104	267598	keystroke_Key.enter	Key.enter	n/a
133.915	11.003	267830	prompt	n/a	arena relying prospective suddenly\n
134.807	0.152	269614	keystroke_a	a	n/a
134.951	0.08	269902	keystroke_r	r	n/a
135.215	0.168	270430	keystroke_e	e	n/a
135.607	0.08	271214	keystroke_n	n	n/a
135.791	0.136	271582	keystroke_a	a	n/a
135.967	0.088	271934	keystroke_Key.space	Key.space	n/a
136.511	0.12	273022	keystroke_r	r	n/a
136.759	0.128	273518	keystroke_e	e	n/a
136.879	0.08	273758	keystroke_l	l	n/a
137.151	0.0885	274302	keystroke_y	y	n/a
137.343	0.1445	274686	keystroke_i	i	n/a
137.5985	0.1115	275197	keystroke_n	n	n/a
137.8305	0.088	275661	keystroke_g	g	n/a
138.103	0.104	276206	keystroke_Key.space	Key.space	n/a
138.8305	0.072	277661	keystroke_p	p	n/a
139.2145	0.0645	278429	keystroke_r	r	n/a
139.343	0.08	278686	keystroke_o	o	n/a
139.751	0.144	279502	keystroke_s	s	n/a
139.9825	0.072	279965	keystroke_p	p	n/a
140.1345	0.144	280269	keystroke_e	e	n/a
140.3185	0.104	280637	keystroke_c	c	n/a
140.4865	0.064	280973	keystroke_t	t	n/a
140.7265	0.096	281453	keystroke_i	i	n/a
141.0705	0.088	282141	keystroke_v	v	n/a
141.2145	0.144	282429	keystroke_e	e	n/a
141.4785	0.096	282957	keystroke_Key.space	Key.space	n/a
142.143	0.1355	284286	keystroke_s	s	n/a
142.3265	0.08	284653	keystroke_u	u	n/a
142.5985	0.064	285197	keystroke_d	d	n/a
142.7505	0.08	285501	keystroke_d	d	n/a
142.9985	0.128	285997	keystroke_e	e	n/a
143.1505	0.1045	286301	keystroke_n	n	n/a
144.0145	0.088	288029	keystroke_l	l	n/a
144.2945	0.072	288589	keystroke_y	y	n/a
144.7905	0.12	289581	keystroke_Key.enter	Key.enter	n/a
144.922	12.4285	289844	prompt	n/a	interface debian stayed slope\n
146.4465	0.072	292893	keystroke_i	i	n/a
146.6225	0.104	293245	keystroke_n	n	n/a
146.9105	0.088	293821	keystroke_t	t	n/a
147.0545	0.12	294109	keystroke_e	e	n/a
147.2065	0.08	294413	keystroke_r	r	n/a
147.6785	0.064	295357	keystroke_f	f	n/a
147.8065	0.112	295613	keystroke_a	a	n/a
147.951	0.088	295902	keystroke_c	c	n/a
148.135	0.168	296270	keystroke_e	e	n/a
148.375	0.088	296750	keystroke_Key.space	Key.space	n/a
149.559	0.104	299118	keystroke_d	d	n/a
150.6385	0.136	301277	keystroke_e	e	n/a
150.8545	0.088	301709	keystroke_b	b	n/a
152.3745	0.064	304749	keystroke_i	i	n/a
152.942	0.144	305884	keystroke_a	a	n/a
153.118	0.0805	306236	keystroke_n	n	n/a
153.326	0.104	306652	keystroke_Key.space	Key.space	n/a
154.006	0.12	308012	keystroke_s	s	n/a
154.15	0.08	308300	keystroke_t	t	n/a
154.334	0.096	308668	keystroke_a	a	n/a
154.414	0.088	308828	keystroke_y	y	n/a
154.638	0.128	309276	keystroke_e	e	n/a
154.823	0.103	309646	keystroke_d	d	n/a
155.27	0.112	310540	keystroke_Key.space	Key.space	n/a
156.406	0.1205	312812	keystroke_s	s	n/a
156.5185	0.072	313037	keystroke_l	l	n/a
156.702	0.065	313404	keystroke_o	o	n/a
156.902	0.064	313804	keystroke_p	p	n/a
157.03	0.152	314060	keystroke_e	e	n/a
157.254	0.0885	314508	keystroke_Key.enter	Key.enter	n/a
157.3545	8.58	314709	prompt	n/a	recovered versions radios holmes\n
158.215	0.136	316430	keystroke_r	r	n/a
158.527	0.136	317054	keystroke_e	e	n/a
158.606	0.088	317212	keystroke_c	c	n/a
158.838	0.121	317676	keystroke_o	o	n/a
159.134	0.088	318268	keystroke_v	v	n/a
159.278	0.1125	318556	keystroke_e	e	n/a
159.4465	0.112	318893	keystroke_r	r	n/a
159.5585	0.144	319117	keystroke_e	e	n/a
159.7425	0.144	319485	keystroke_d	d	n/a
160.0865	0.144	320173	keystroke_Key.space	Key.space	n/a
160.4385	0.096	320877	keystroke_v	v	n/a
160.5905	0.096	321181	keystroke_e	e	n/a
160.7105	0.08	321421	keystroke_r	r	n/a
160.9265	0.136	321853	keystroke_s	s	n/a
161.0945	0.088	322189	keystroke_i	i	n/a
161.2865	0.1045	322573	keystroke_o	o	n/a
161.551	0.096	323102	keystroke_n	n	n/a
161.735	0.144	323470	keystroke_s	s	n/a
161.919	0.1115	323838	keystroke_Key.space	Key.space	n/a
162.5745	0.08	325149	keystroke_r	r	n/a
162.7185	0.128	325437	keystroke_a	a	n/a
162.7825	0.104	325565	keystroke_d	d	n/a
163.094	0.081	326188	keystroke_i	i	n/a
163.327	0.1195	326654	keystroke_o	o	n/a
163.5345	0.144	327069	keystroke_s	s	n/a
163.8145	0.104	327629	keystroke_Key.space	Key.space	n/a
164.5665	0.096	329133	keystroke_h	h	n/a
164.742	0.112	329484	keystroke_o	o	n/a
164.974	0.096	329948	keystroke_l	l	n/a
165.2545	0.072	330509	keystroke_m	m	n/a
165.3985	0.104	330797	keystroke_e	e	n/a
165.6705	0.136	331341	keystroke_s	s	n/a
165.8305	0.096	331661	keystroke_Key.enter	Key.enter	n/a
165.9385	11.116	331877	prompt	n/a	tender franchise exemption conventions\n
166.9825	0.08	333965	keystroke_t	t	n/a
167.2545	0.144	334509	keystroke_e	e	n/a
167.4065	0.088	334813	keystroke_n	n	n/a
167.7025	0.12	335405	keystroke_d	d	n/a
167.8225	0.128	335645	keystroke_e	e	n/a
167.9585	0.104	335917	keystroke_r	r	n/a
168.278	0.096	336556	keystroke_Key.space	Key.space	n/a
168.8865	0.096	337773	keystroke_f	f	n/a
169.0785	0.072	338157	keystroke_r	r	n/a
169.3985	0.096	338797	keystroke_a	a	n/a
169.6065	0.056	339213	keystroke_n	n	n/a
169.8625	0.112	339725	keystroke_c	c	n/a
170.0545	0.12	340109	keystroke_h	h	n/a
170.2545	0.112	340509	keystroke_i	i	n/a
170.4145	0.12	340829	keystroke_s	s	n/a
170.7185	0.16	341437	keystroke_e	e	n/a
170.9585	0.112	341917	keystroke_Key.space	Key.space	n/a
171.3985	0.12	342797	keystroke_e	e	n/a
171.7585	0.128	343517	keystroke_x	x	n/a
172.1985	0.136	344397	keystroke_e	e	n/a
172.3825	0.12	344765	keystroke_m	m	n/a
172.5745	0.112	345149	keystroke_p	p	n/a
172.8945	0.0885	345789	keystroke_t	t	n/a
173.118	0.088	346236	keystroke_i	i	n/a
173.31	0.12	346620	keystroke_o	o	n/a
173.646	0.112	347292	keystroke_n	n	n/a
173.926	0.112	347852	keystroke_Key.space	Key.space	n/a
174.574	0.112	349148	keystroke_c	c	n/a
174.702	0.08	349404	keystroke_o	o	n/a
174.91	0.12	349820	keystroke_n	n	n/a
175.23	0.072	350460	keystroke_v	v	n/a
175.4305	0.16	350861	keystroke_e	e	n/a
175.6225	0.104	351245	keystroke_n	n	n/a
175.8865	0.104	351773	keystroke_t	t	n/a
176.1505	0.096	352301	keystroke_i	i	n/a
176.3585	0.096	352717	keystroke_o	o	n/a
176.5585	0.12	353117	keystroke_n	n	n/a
176.7425	0.144	353485	keystroke_s	s	n/a
176.9585	0.088	353917	keystroke_Key.enter	Key.enter	n/a
177.058	9.5155	354116	prompt	n/a	operations vanilla announced newton\n
177.9345	0.088	355869	keystroke_o	o	n/a
178.1265	0.088	356253	keystroke_p	p	n/a
178.2545	0.136	356509	keystroke_e	e	n/a
178.5105	0.104	357021	keystroke_r	r	n/a
178.7345	0.12	357469	keystroke_a	a	n/a
178.8545	0.088	357709	keystroke_t	t	n/a
179.1905	0.104	358381	keystroke_i	i	n/a
179.414	0.112	358828	keystroke_o	o	n/a
179.83	0.136	359660	keystroke_n	n	n/a
180.039	0.143	360078	keystroke_s	s	n/a
180.238	0.104	360476	keystroke_Key.space	Key.space	n/a
180.734	0.064	361468	keystroke_v	v	n/a
180.942	0.12	361884	keystroke_a	a	n/a
181.183	0.088	362366	keystroke_n	n	n/a
181.374	0.088	362748	keystroke_i	i	n/a
181.614	0.072	363228	keystroke_l	l	n/a
181.79	0.08	363580	keystroke_l	l	n/a
181.966	0.16	363932	keystroke_a	a	n/a
182.158	0.096	364316	keystroke_Key.space	Key.space	n/a
182.47	0.152	364940	keystroke_a	a	n/a
182.734	0.072	365468	keystroke_n	n	n/a
182.8865	0.0955	365773	keystroke_n	n	n/a
183.0625	0.1275	366125	keystroke_o	o	n/a
183.27	0.088	366540	keystroke_u	u	n/a
183.4945	0.096	366989	keystroke_n	n	n/a
183.7825	0.088	367565	keystroke_c	c	n/a
183.9425	0.112	367885	keystroke_e	e	n/a
184.1105	0.104	368221	keystroke_d	d	n/a
184.4295	0.104	368859	keystroke_Key.space	Key.space	n/a
184.9665	0.08	369933	keystroke_n	n	n/a
185.1905	0.112	370381	keystroke_e	e	n/a
185.4455	0.137	370891	keystroke_w	w	n/a
185.6375	0.104	371275	keystroke_t	t	n/a
185.8705	0.135	371741	keystroke_o	o	n/a
186.1425	0.112	372285	keystroke_n	n	n/a
186.4625	0.104	372925	keystroke_Key.enter	Key.enter	n/a
186.578	10.9075	373156	prompt	n/a	context psychology northeast his\n
187.638	0.1285	375276	keystroke_c	c	n/a
187.7345	0.072	375469	keystroke_o	o	n/a
187.942	0.104	375884	keystroke_n	n	n/a
188.27	0.088	376540	keystroke_t	t	n/a
188.406	0.112	376812	keystroke_e	e	n/a
188.519	0.143	377038	keystroke_c	c	n/a
188.71	0.0965	377420	keystroke_t	t	n/a
189.03	0.12	378060	keystroke_Key.space	Key.space	n/a
189.438	0.088	378876	keystroke_p	p	n/a
189.966	0.128	379932	keystroke_s	s	n/a
190.086	0.064	380172	keystroke_y	y	n/a
190.358	0.1275	380716	keystroke_c	c	n/a
190.5015	0.104	381003	keystroke_h	h	n/a
190.7095	0.088	381419	keystroke_o	o	n/a
190.9175	0.128	381835	keystroke_l	l	n/a
191.1335	0.088	382267	keystroke_o	o	n/a
191.574	0.12	383148	keystroke_g	g	n/a
191.742	0.128	383484	keystroke_y	y	n/a
192.238	0.12	384476	keystroke_Key.space	Key.space	n/a
192.7495	0.104	385499	keystroke_n	n	n/a
192.95	0.096	385900	keystroke_o	o	n/a
193.3585	0.079	386717	keystroke_r	r	n/a
193.5265	0.095	387053	keystroke_t	t	n/a
193.7335	0.1045	387467	keystroke_h	h	n/a
193.918	0.136	387836	keystroke_e	e	n/a
194.2625	0.08	388525	keystroke_a	a	n/a
194.4785	0.152	388957	keystroke_s	s	n/a
194.6385	0.0795	389277	keystroke_t	t	n/a
195.59	0.128	391180	keystroke_Key.space	Key.space	n/a
195.974	0.12	391948	keystroke_h	h	n/a
196.19	0.128	392380	keystroke_i	i	n/a
197.238	0.152	394476	keystroke_s	s	n/a
197.398	0.08	394796	keystroke_Key.enter	Key.enter	n/a
197.4895	15.1165	394979	prompt	n/a	wouldn't considering nothing resulted\n
198.742	0.112	397484	keystroke_w	w	n/a
198.83	0.08	397660	keystroke_o	o	n/a
199.006	0.088	398012	keystroke_u	u	n/a
199.238	0.1035	398476	keystroke_l	l	n/a
199.446	0.1435	398892	keystroke_d	d	n/a
199.6055	0.104	399211	keystroke_n	n	n/a
204.4055	0.112	408811	keystroke_'	'	n/a
204.5735	0.112	409147	keystroke_t	t	n/a
204.8695	0.088	409739	keystroke_Key.space	Key.space	n/a
205.4295	0.1205	410859	keystroke_c	c	n/a
205.558	0.104	411116	keystroke_o	o	n/a
205.79	0.112	411580	keystroke_n	n	n/a
206.3745	0.143	412749	keystroke_s	s	n/a
206.4935	0.072	412987	keystroke_i	i	n/a
206.7575	0.096	413515	keystroke_d	d	n/a
206.8695	0.104	413739	keystroke_e	e	n/a
206.9575	0.104	413915	keystroke_r	r	n/a
207.2855	0.096	414571	keystroke_i	i	n/a
207.5415	0.128	415083	keystroke_n	n	n/a
207.8135	0.08	415627	keystroke_g	g	n/a
208.0535	0.096	416107	keystroke_Key.space	Key.space	n/a
208.5415	0.081	417083	keystroke_n	n	n/a
208.7255	0.112	417451	keystroke_o	o	n/a
209.0305	0.079	418061	keystroke_t	t	n/a
209.2135	0.12	418427	keystroke_h	h	n/a
209.3735	0.1125	418747	keystroke_i	i	n/a
209.662	0.104	419324	keystroke_n	n	n/a
209.838	0.104	419676	keystroke_g	g	n/a
210.014	0.112	420028	keystroke_Key.space	Key.space	n/a
210.702	0.064	421404	keystroke_r	r	n/a
210.838	0.1115	421676	keystroke_e	e	n/a
211.1415	0.12	422283	keystroke_s	s	n/a
211.2695	0.064	422539	keystroke_u	u	n/a
211.5095	0.12	423019	keystroke_l	l	n/a
211.8935	0.088	423787	keystroke_t	t	n/a
212.0375	0.128	424075	keystroke_e	e	n/a
212.1735	0.096	424347	keystroke_d	d	n/a
212.5175	0.08	425035	keystroke_Key.enter	Key.enter	n/a
212.611	12.658	425222	prompt	n/a	buck arkansas eligible discussing\n
213.678	0.0715	427356	keystroke_b	b	n/a
214.293	0.0575	428586	keystroke_u	u	n/a
214.5665	0.112	429133	keystroke_c	c	n/a
214.8215	0.096	429643	keystroke_k	k	n/a
215.0855	0.088	430171	keystroke_Key.space	Key.space	n/a
215.6535	0.136	431307	keystroke_a	a	n/a
215.8215	0.08	431643	keystroke_r	r	n/a
216.878	0.08	433756	keystroke_k	k	n/a
217.15	0.144	434300	keystroke_a	a	n/a
217.302	0.08	434604	keystroke_n	n	n/a
217.67	0.128	435340	keystroke_s	s	n/a
218.134	0.1355	436268	keystroke_a	a	n/a
218.3095	0.12	436619	keystroke_s	s	n/a
218.8055	0.112	437611	keystroke_Key.space	Key.space	n/a
219.3575	0.128	438715	keystroke_e	e	n/a
219.5975	0.096	439195	keystroke_l	l	n/a
219.8135	0.072	439627	keystroke_i	i	n/a
220.0775	0.096	440155	keystroke_g	g	n/a
220.2855	0.112	440571	keystroke_i	i	n/a
220.6055	0.0965	441211	keystroke_b	b	n/a
220.9175	0.1045	441835	keystroke_l	l	n/a
221.102	0.128	442204	keystroke_e	e	n/a
221.318	0.096	442636	keystroke_Key.space	Key.space	n/a
223.3175	0.088	446635	keystroke_d	d	n/a
223.4535	0.072	446907	keystroke_i	i	n/a
223.5575	0.144	447115	keystroke_s	s	n/a
223.7175	0.112	447435	keystroke_c	c	n/a
223.9575	0.08	447915	keystroke_u	u	n/a
224.1255	0.128	448251	keystroke_s	s	n/a
224.3495	0.152	448699	keystroke_s	s	n/a
224.4375	0.112	448875	keystroke_i	i	n/a
224.6535	0.12	449307	keystroke_n	n	n/a
224.8695	0.104	449739	keystroke_g	g	n/a
225.1815	0.08	450363	keystroke_Key.enter	Key.enter	n/a
225.2735	8.923	450547	prompt	n/a	using were reproduced utilize\n
226.494	0.08	452988	keystroke_u	u	n/a
226.702	0.127	453404	keystroke_s	s	n/a
226.901	0.104	453802	keystroke_i	i	n/a
227.646	0.096	455292	keystroke_n	n	n/a
227.87	0.0875	455740	keystroke_g	g	n/a
228.077	0.112	456154	keystroke_Key.space	Key.space	n/a
228.205	0.104	456410	keystroke_w	w	n/a
228.429	0.153	456858	keystroke_e	e	n/a
228.525	0.104	457050	keystroke_r	r	n/a
228.7015	0.12	457403	keystroke_e	e	n/a
228.8695	0.136	457739	keystroke_Key.space	Key.space	n/a
229.2455	0.064	458491	keystroke_r	r	n/a
229.4215	0.136	458843	keystroke_e	e	n/a
229.6615	0.104	459323	keystroke_p	p	n/a
229.838	0.12	459676	keystroke_r	r	n/a
230.006	0.08	460012	keystroke_o	o	n/a
230.294	0.144	460588	keystroke_d	d	n/a
230.47	0.088	460940	keystroke_u	u	n/a
230.622	0.136	461244	keystroke_c	c	n/a
231.03	0.112	462060	keystroke_e	e	n/a
231.174	0.096	462348	keystroke_d	d	n/a
231.438	0.112	462876	keystroke_Key.space	Key.space	n/a
232.5495	0.072	465099	keystroke_u	u	n/a
232.7095	0.096	465419	keystroke_t	t	n/a
232.8455	0.088	465691	keystroke_i	i	n/a
233.0695	0.096	466139	keystroke_l	l	n/a
233.2935	0.064	466587	keystroke_i	i	n/a
233.5015	0.1445	467003	keystroke_z	z	n/a
233.846	0.192	467692	keystroke_e	e	n/a
234.093	0.096	468186	keystroke_Key.enter	Key.enter	n/a
234.2005	12.748	468401	prompt	n/a	spectacular coastal flexibility telecharger\n
235.4455	0.112	470891	keystroke_s	s	n/a
235.5495	0.064	471099	keystroke_p	p	n/a
235.7015	0.136	471403	keystroke_e	e	n/a
235.9095	0.096	471819	keystroke_c	c	n/a
236.0855	0.088	472171	keystroke_t	t	n/a
236.3255	0.12	472651	keystroke_a	a	n/a
237.1975	0.144	474395	keystroke_c	c	n/a
237.3255	0.088	474651	keystroke_u	u	n/a
237.5575	0.128	475115	keystroke_l	l	n/a
237.742	0.111	475484	keystroke_a	a	n/a
237.885	0.088	475770	keystroke_r	r	n/a
238.213	0.105	476426	keystroke_Key.space	Key.space	n/a
238.5975	0.136	477195	keystroke_c	c	n/a
238.9335	0.064	477867	keystroke_o	o	n/a
239.1015	0.072	478203	keystroke_a	a	n/a
239.3095	0.16	478619	keystroke_s	s	n/a
239.4775	0.072	478955	keystroke_t	t	n/a
239.8455	0.144	479691	keystroke_a	a	n/a
240.0855	0.104	480171	keystroke_l	l	n/a
240.4045	0.088	480809	keystroke_Key.space	Key.space	n/a
241.1815	0.096	482363	keystroke_f	f	n/a
241.3175	0.08	482635	keystroke_l	l	n/a
241.4935	0.1125	482987	keystroke_e	e	n/a
241.821	0.088	483642	keystroke_x	x	n/a
242.133	0.105	484266	keystroke_i	i	n/a
242.525	0.104	485050	keystroke_b	b	n/a
242.725	0.0725	485450	keystroke_i	i	n/a
242.9255	0.0955	485851	keystroke_l	l	n/a
243.141	0.096	486282	keystroke_i	i	n/a
243.405	0.104	486810	keystroke_t	t	n/a
243.5975	0.096	487195	keystroke_y	y	n/a
243.8855	0.128	487771	keystroke_Key.space	Key.space	n/a
244.4135	0.072	488827	keystroke_t	t	n/a
244.6215	0.136	489243	keystroke_e	e	n/a
245.0135	0.112	490027	keystroke_l	l	n/a
245.1655	0.128	490331	keystroke_e	e	n/a
245.4135	0.088	490827	keystroke_c	c	n/a
245.6135	0.112	491227	keystroke_h	h	n/a
245.8055	0.096	491611	keystroke_a	a	n/a
245.9495	0.088	491899	keystroke_r	r	n/a
246.1895	0.112	492379	keystroke_g	g	n/a
246.3415	0.128	492683	keystroke_e	e	n/a
246.4775	0.088	492955	keystroke_r	r	n/a
246.8445	0.0965	493689	keystroke_Key.enter	Key.enter	n/a
246.9535	16.1	493907	prompt	n/a	objective protein experiment searched\n
247.9575	0.072	495915	keystroke_o	o	n/a
248.3895	0.096	496779	keystroke_b	b	n/a
248.8295	0.056	497659	keystroke_j	j	n/a
248.9655	0.104	497931	keystroke_e	e	n/a
249.1335	0.112	498267	keystroke_c	c	n/a
249.3095	0.08	498619	keystroke_t	t	n/a
249.541	0.12	499082	keystroke_i	i	n/a
249.9895	0.08	499979	keystroke_v	v	n/a
250.1335	0.112	500267	keystroke_e	e	n/a
250.3095	0.112	500619	keystroke_Key.space	Key.space	n/a
250.9415	0.096	501883	keystroke_p	p	n/a
251.1255	0.112	502251	keystroke_r	r	n/a
251.2695	0.104	502539	keystroke_o	o	n/a
251.6135	0.0955	503227	keystroke_t	t	n/a
251.869	0.112	503738	keystroke_i	i	n/a
252.221	0.128	504442	keystroke_e	e	n/a
252.429	0.096	504858	keystroke_n	n	n/a
252.661	0.112	505322	keystroke_Key.space	Key.space	n/a
253.4365	0.104	506873	keystroke_Key.backspace	Key.backspace	n/a
253.677	0.0485	507354	keystroke_Key.backspace	Key.backspace	n/a
253.8375	0.08	507675	keystroke_Key.backspace	Key.backspace	n/a
254.0135	0.08	508027	keystroke_Key.backspace	Key.backspace	n/a
254.317	0.088	508634	keystroke_Key.backspace	Key.backspace	n/a
255.173	0.088	510346	keystroke_t	t	n/a
255.517	0.112	511034	keystroke_e	e	n/a
255.669	0.12	511338	keystroke_i	i	n/a
255.917	0.112	511834	keystroke_n	n	n/a
256.157	0.112	512314	keystroke_Key.space	Key.space	n/a
256.974	0.103	513948	keystroke_e	e	n/a
257.309	0.136	514618	keystroke_x	x	n/a
257.461	0.056	514922	keystroke_p	p	n/a
257.613	0.1685	515226	keystroke_e	e	n/a
257.8045	0.081	515609	keystroke_r	r	n/a
258.037	0.104	516074	keystroke_i	i	n/a
258.317	0.104	516634	keystroke_m	m	n/a
258.485	0.112	516970	keystroke_e	e	n/a
258.573	0.104	517146	keystroke_n	n	n/a
258.821	0.104	517642	keystroke_t	t	n/a
259.173	0.104	518346	keystroke_Key.space	Key.space	n/a
259.9015	0.136	519803	keystroke_s	s	n/a
260.1575	0.136	520315	keystroke_e	e	n/a
260.5335	0.096	521067	keystroke_a	a	n/a
260.6375	0.064	521275	keystroke_r	r	n/a
260.8615	0.088	521723	keystroke_c	c	n/a
261.9895	0.08	523979	keystroke_h	h	n/a
262.2695	0.088	524539	keystroke_e	e	n/a
262.4215	0.096	524843	keystroke_d	d	n/a
262.909	0.136	525818	keystroke_Key.enter	Key.enter	n/a
263.058	9.73	526116	prompt	n/a	linear aircraft euros december\n
264.2695	0.103	528539	keystroke_l	l	n/a
264.4925	0.081	528985	keystroke_i	i	n/a
264.7255	0.095	529451	keystroke_n	n	n/a
264.9325	0.089	529865	keystroke_e	e	n/a
265.2685	0.113	530537	keystroke_a	a	n/a
265.3655	0.12	530731	keystroke_r	r	n/a
265.6925	0.12	531385	keystroke_Key.space	Key.space	n/a
266.1485	0.129	532297	keystroke_a	a	n/a
266.2695	0.087	532539	keystroke_i	i	n/a
266.5325	0.089	533065	keystroke_r	r	n/a
266.7485	0.121	533497	keystroke_c	c	n/a
266.9405	0.08	533881	keystroke_r	r	n/a
267.2205	0.128	534441	keystroke_a	a	n/a
267.4845	0.128	534969	keystroke_f	f	n/a
267.6685	0.112	535337	keystroke_t	t	n/a
268.101	0.12	536202	keystroke_Key.space	Key.space	n/a
268.7815	0.152	537563	keystroke_e	e	n/a
268.9735	0.1115	537947	keystroke_u	u	n/a
269.229	0.088	538458	keystroke_r	r	n/a
269.6845	0.1285	539369	keystroke_o	o	n/a
269.8765	0.128	539753	keystroke_s	s	n/a
270.1005	0.096	540201	keystroke_Key.space	Key.space	n/a
270.4925	0.152	540985	keystroke_d	d	n/a
270.7655	0.151	541531	keystroke_e	e	n/a
271.1655	0.063	542331	keystroke_c	c	n/a
271.3165	0.1365	542633	keystroke_e	e	n/a
271.6365	0.096	543273	keystroke_m	m	n/a
271.9005	0.096	543801	keystroke_b	b	n/a
272.0445	0.144	544089	keystroke_e	e	n/a
272.1805	0.088	544361	keystroke_r	r	n/a
272.645	0.136	545290	keystroke_Key.enter	Key.enter	n/a
272.792	9.22	545584	prompt	n/a	significant spouse trap asking\n
273.9165	0.128	547833	keystroke_s	s	n/a
274.0045	0.0805	548009	keystroke_i	i	n/a
274.2045	0.096	548409	keystroke_g	g	n/a
274.4525	0.112	548905	keystroke_n	n	n/a
274.6605	0.08	549321	keystroke_i	i	n/a
275.013	0.087	550026	keystroke_f	f	n/a
275.212	0.104	550424	keystroke_i	i	n/a
275.461	0.088	550922	keystroke_c	c	n/a
275.725	0.1115	551450	keystroke_a	a	n/a
275.8845	0.104	551769	keystroke_n	n	n/a
276.2525	0.104	552505	keystroke_t	t	n/a
276.5885	0.104	553177	keystroke_Key.space	Key.space	n/a
277.1325	0.136	554265	keystroke_s	s	n/a
277.3965	0.096	554793	keystroke_p	p	n/a
277.5565	0.12	555113	keystroke_o	o	n/a
277.917	0.1035	555834	keystroke_u	u	n/a
278.1725	0.12	556345	keystroke_s	s	n/a
278.4285	0.136	556857	keystroke_e	e	n/a
278.6525	0.088	557305	keystroke_Key.space	Key.space	n/a
279.3565	0.104	558713	keystroke_t	t	n/a
279.5565	0.08	559113	keystroke_r	r	n/a
279.7805	0.128	559561	keystroke_a	a	n/a
280.4125	0.088	560825	keystroke_p	p	n/a
280.6765	0.096	561353	keystroke_Key.space	Key.space	n/a
280.8445	0.08	561689	keystroke_a	a	n/a
281.0525	0.136	562105	keystroke_s	s	n/a
281.1485	0.088	562297	keystroke_k	k	n/a
281.3245	0.096	562649	keystroke_i	i	n/a
281.5565	0.112	563113	keystroke_n	n	n/a
281.7005	0.136	563401	keystroke_g	g	n/a
281.9005	0.104	563801	keystroke_Key.enter	Key.enter	n/a
282.0165	10.4915	564033	prompt	n/a	substantial purposes pull reveal\n
283.108	0.112	566216	keystroke_s	s	n/a
283.221	0.079	566442	keystroke_u	u	n/a
283.452	0.104	566904	keystroke_b	b	n/a
283.8925	0.1045	567785	keystroke_s	s	n/a
284.0125	0.0725	568025	keystroke_t	t	n/a
284.293	0.104	568586	keystroke_a	a	n/a
284.413	0.104	568826	keystroke_n	n	n/a
284.853	0.088	569706	keystroke_t	t	n/a
285.069	0.1515	570138	keystroke_i	i	n/a
285.4125	0.144	570825	keystroke_a	a	n/a
285.5405	0.152	571081	keystroke_l	l	n/a
285.8605	0.112	571721	keystroke_Key.space	Key.space	n/a
286.7565	0.112	573513	keystroke_p	p	n/a
287.2365	0.08	574473	keystroke_u	u	n/a
287.3645	0.136	574729	keystroke_r	r	n/a
287.5405	0.112	575081	keystroke_p	p	n/a
287.7245	0.096	575449	keystroke_o	o	n/a
287.9165	0.1285	575833	keystroke_s	s	n/a
288.164	0.144	576328	keystroke_e	e	n/a
288.477	0.143	576954	keystroke_s	s	n/a
288.684	0.096	577368	keystroke_Key.space	Key.space	n/a
289.293	0.12	578586	keystroke_p	p	n/a
289.637	0.08	579274	keystroke_u	u	n/a
289.8685	0.08	579737	keystroke_l	l	n/a
290.0125	0.096	580025	keystroke_l	l	n/a
290.2765	0.096	580553	keystroke_Key.space	Key.space	n/a
290.3885	0.104	580777	keystroke_r	r	n/a
290.6125	0.104	581225	keystroke_e	e	n/a
290.8525	0.104	581705	keystroke_v	v	n/a
291.4845	0.104	582969	keystroke_e	e	n/a
292.02	0.049	584040	keystroke_a	a	n/a
292.156	0.096	584312	keystroke_l	l	n/a
292.412	0.088	584824	keystroke_Key.enter	Key.enter	n/a
292.513	8.7465	585026	prompt	n/a	romania raises bookstore shops\n
293.508	0.1445	587016	keystroke_r	r	n/a
293.6525	0.08	587305	keystroke_o	o	n/a
293.9005	0.096	587801	keystroke_m	m	n/a
294.1485	0.08	588297	keystroke_a	a	n/a
294.2285	0.104	588457	keystroke_n	n	n/a
294.4205	0.08	588841	keystroke_i	i	n/a
294.8685	0.12	589737	keystroke_a	a	n/a
295.0445	0.104	590089	keystroke_Key.space	Key.space	n/a
295.6285	0.08	591257	keystroke_r	r	n/a
295.829	0.127	591658	keystroke_a	a	n/a
295.965	0.096	591930	keystroke_i	i	n/a
296.133	0.119	592266	keystroke_s	s	n/a
296.388	0.128	592776	keystroke_e	e	n/a
296.677	0.136	593354	keystroke_s	s	n/a
296.877	0.088	593754	keystroke_Key.space	Key.space	n/a
297.436	0.089	594872	keystroke_b	b	n/a
297.844	0.056	595688	keystroke_o	o	n/a
298.0045	0.088	596009	keystroke_o	o	n/a
298.3245	0.088	596649	keystroke_k	k	n/a
298.5245	0.144	597049	keystroke_s	s	n/a
298.7405	0.088	597481	keystroke_t	t	n/a
298.9645	0.128	597929	keystroke_o	o	n/a
299.2845	0.096	598569	keystroke_r	r	n/a
299.4445	0.136	598889	keystroke_e	e	n/a
299.7085	0.112	599417	keystroke_Key.space	Key.space	n/a
300.148	0.152	600296	keystroke_s	s	n/a
300.284	0.0965	600568	keystroke_h	h	n/a
300.4685	0.088	600937	keystroke_o	o	n/a
300.676	0.096	601352	keystroke_p	p	n/a
300.924	0.104	601848	keystroke_s	s	n/a
301.156	0.096	602312	keystroke_Key.enter	Key.enter	n/a
301.264	15.34	602528	prompt	n/a	participants employees thanksgiving streaming\n
303.1805	0.072	606361	keystroke_p	p	n/a
303.4365	0.096	606873	keystroke_a	a	n/a
303.5565	0.072	607113	keystroke_r	r	n/a
303.7165	0.096	607433	keystroke_t	t	n/a
303.9245	0.088	607849	keystroke_i	i	n/a
304.2205	0.1355	608441	keystroke_c	c	n/a
304.388	0.072	608776	keystroke_i	i	n/a
304.628	0.128	609256	keystroke_p	p	n/a
304.852	0.1045	609704	keystroke_a	a	n/a
304.9885	0.12	609977	keystroke_n	n	n/a
305.3645	0.104	610729	keystroke_t	t	n/a
305.5085	0.159	611017	keystroke_s	s	n/a
305.7805	0.1115	611561	keystroke_Key.space	Key.space	n/a
306.58	0.128	613160	keystroke_e	e	n/a
306.788	0.128	613576	keystroke_m	m	n/a
307.028	0.105	614056	keystroke_p	p	n/a
307.252	0.088	614504	keystroke_l	l	n/a
307.444	0.088	614888	keystroke_o	o	n/a
307.74	0.088	615480	keystroke_y	y	n/a
307.932	0.1285	615864	keystroke_e	e	n/a
308.1725	0.136	616345	keystroke_e	e	n/a
308.4765	0.128	616953	keystroke_s	s	n/a
308.6115	0.096	617223	keystroke_Key.space	Key.space	n/a
308.9805	0.08	617961	keystroke_t	t	n/a
309.1965	0.072	618393	keystroke_h	h	n/a
309.4205	0.096	618841	keystroke_a	a	n/a
309.5245	0.1285	619049	keystroke_n	n	n/a
309.9565	0.072	619913	keystroke_k	k	n/a
310.2045	0.144	620409	keystroke_s	s	n/a
310.5085	0.096	621017	keystroke_g	g	n/a
310.7085	0.12	621417	keystroke_i	i	n/a
310.9965	0.096	621993	keystroke_v	v	n/a
311.2205	0.128	622441	keystroke_i	i	n/a
311.6685	0.072	623337	keystroke_m	m	n/a
311.9805	0.136	623961	keystroke_g	g	n/a
312.2355	0.096	624471	keystroke_Key.space	Key.space	n/a
312.7635	0.056	625527	keystroke_Key.backspace	Key.backspace	n/a
312.9235	0.081	625847	keystroke_Key.backspace	Key.backspace	n/a
313.0925	0.088	626185	keystroke_Key.backspace	Key.backspace	n/a
313.9245	0.088	627849	keystroke_n	n	n/a
314.1395	0.088	628279	keystroke_g	g	n/a
314.3715	0.128	628743	keystroke_Key.space	Key.space	n/a
314.5725	0.143	629145	keystroke_s	s	n/a
314.6845	0.088	629369	keystroke_t	t	n/a
314.8515	0.072	629703	keystroke_r	r	n/a
314.9805	0.103	629961	keystroke_e	e	n/a
315.3555	0.105	630711	keystroke_a	a	n/a
315.6515	0.105	631303	keystroke_m	m	n/a
315.8365	0.104	631673	keystroke_i	i	n/a
316.0445	0.104	632089	keystroke_n	n	n/a
316.3325	0.12	632665	keystroke_g	g	n/a
316.5155	0.08	633031	keystroke_Key.enter	Key.enter	n/a
316.608	10.123	633216	prompt	n/a	jail streaming honda emission\n
317.5885	0.08	635177	keystroke_j	j	n/a
317.78	0.128	635560	keystroke_a	a	n/a
318.1075	0.104	636215	keystroke_i	i	n/a
318.3635	0.08	636727	keystroke_l	l	n/a
318.6355	0.104	637271	keystroke_Key.space	Key.space	n/a
318.9645	0.135	637929	keystroke_s	s	n/a
319.0605	0.103	638121	keystroke_t	t	n/a
319.2195	0.088	638439	keystroke_r	r	n/a
319.3885	0.111	638777	keystroke_e	e	n/a
319.7555	0.113	639511	keystroke_a	a	n/a
319.9325	0.104	639865	keystroke_m	m	n/a
320.1165	0.104	640233	keystroke_i	i	n/a
320.3325	0.104	640665	keystroke_n	n	n/a
320.5725	0.08	641145	keystroke_g	g	n/a
320.7875	0.121	641575	keystroke_Key.space	Key.space	n/a
321.532	0.088	643064	keystroke_h	h	n/a
321.724	0.128	643448	keystroke_o	o	n/a
321.9565	0.096	643913	keystroke_n	n	n/a
322.1085	0.096	644217	keystroke_d	d	n/a
322.4525	0.096	644905	keystroke_a	a	n/a
322.5965	0.104	645193	keystroke_Key.space	Key.space	n/a
322.8605	0.1595	645721	keystroke_e	e	n/a
323.204	0.128	646408	keystroke_m	m	n/a
324.6525	0.08	649305	keystroke_i	i	n/a
324.8685	0.128	649737	keystroke_s	s	n/a
325.0925	0.1515	650185	keystroke_s	s	n/a
325.268	0.104	650536	keystroke_i	i	n/a
326.0765	0.12	652153	keystroke_o	o	n/a
326.3725	0.104	652745	keystroke_n	n	n/a
326.6355	0.088	653271	keystroke_Key.enter	Key.enter	n/a
326.7355	11.3875	653471	prompt	n/a	obligation phrase circuit remedies\n
328.2995	0.096	656599	keystroke_o	o	n/a
328.6515	0.072	657303	keystroke_b	b	n/a
328.8835	0.104	657767	keystroke_l	l	n/a
329.0835	0.088	658167	keystroke_i	i	n/a
329.3635	0.104	658727	keystroke_g	g	n/a
329.5395	0.104	659079	keystroke_a	a	n/a
329.6435	0.072	659287	keystroke_t	t	n/a
329.9	0.1115	659800	keystroke_i	i	n/a
330.1075	0.12	660215	keystroke_o	o	n/a
330.3715	0.112	660743	keystroke_n	n	n/a
330.6115	0.128	661223	keystroke_Key.space	Key.space	n/a
331.1075	0.08	662215	keystroke_p	p	n/a
331.5475	0.096	663095	keystroke_h	h	n/a
331.8115	0.112	663623	keystroke_r	r	n/a
331.9875	0.104	663975	keystroke_a	a	n/a
332.2115	0.152	664423	keystroke_s	s	n/a
332.3875	0.104	664775	keystroke_e	e	n/a
333.468	0.096	666936	keystroke_Key.space	Key.space	n/a
333.972	0.1355	667944	keystroke_c	c	n/a
334.1315	0.088	668263	keystroke_i	i	n/a
334.4675	0.072	668935	keystroke_r	r	n/a
334.6515	0.12	669303	keystroke_c	c	n/a
334.9875	0.096	669975	keystroke_u	u	n/a
335.22	0.1275	670440	keystroke_i	i	n/a
335.5235	0.096	671047	keystroke_t	t	n/a
335.8995	0.1285	671799	keystroke_Key.space	Key.space	n/a
336.396	0.12	672792	keystroke_r	r	n/a
336.66	0.16	673320	keystroke_e	e	n/a
336.868	0.096	673736	keystroke_m	m	n/a
336.996	0.16	673992	keystroke_e	e	n/a
337.292	0.168	674584	keystroke_d	d	n/a
337.484	0.08	674968	keystroke_i	i	n/a
337.604	0.136	675208	keystroke_e	e	n/a
337.876	0.1355	675752	keystroke_s	s	n/a
338.0035	0.112	676007	keystroke_Key.enter	Key.enter	n/a
338.128	8.9565	676256	prompt	n/a	hospitality babe deemed posted\n
339.1475	0.104	678295	keystroke_h	h	n/a
339.4915	0.072	678983	keystroke_o	o	n/a
339.6435	0.144	679287	keystroke_s	s	n/a
339.7955	0.112	679591	keystroke_p	p	n/a
340.0515	0.096	680103	keystroke_i	i	n/a
340.3475	0.088	680695	keystroke_t	t	n/a
340.5555	0.128	681111	keystroke_a	a	n/a
341.0435	0.096	682087	keystroke_l	l	n/a
341.2675	0.096	682535	keystroke_i	i	n/a
341.5955	0.112	683191	keystroke_t	t	n/a
341.8115	0.088	683623	keystroke_y	y	n/a
342.1795	0.1125	684359	keystroke_Key.space	Key.space	n/a
342.636	0.104	685272	keystroke_b	b	n/a
342.828	0.088	685656	keystroke_a	a	n/a
342.987	0.081	685974	keystroke_b	b	n/a
343.156	0.136	686312	keystroke_e	e	n/a
343.411	0.096	686822	keystroke_Key.space	Key.space	n/a
343.915	0.145	687830	keystroke_d	d	n/a
344.204	0.136	688408	keystroke_e	e	n/a
344.4355	0.152	688871	keystroke_e	e	n/a
344.6115	0.096	689223	keystroke_m	m	n/a
344.7475	0.184	689495	keystroke_e	e	n/a
344.9795	0.112	689959	keystroke_d	d	n/a
345.2675	0.136	690535	keystroke_Key.space	Key.space	n/a
345.6275	0.1045	691255	keystroke_p	p	n/a
345.8515	0.064	691703	keystroke_o	o	n/a
346.2035	0.12	692407	keystroke_s	s	n/a
346.3555	0.088	692711	keystroke_t	t	n/a
346.4915	0.12	692983	keystroke_e	e	n/a
346.6275	0.096	693255	keystroke_d	d	n/a
346.9635	0.112	693927	keystroke_Key.enter	Key.enter	n/a
347.0895	8.4495	694179	prompt	n/a	germany tight samoa indie\n
348.3235	0.064	696647	keystroke_g	g	n/a
348.4195	0.144	696839	keystroke_e	e	n/a
348.6915	0.096	697383	keystroke_r	r	n/a
348.8435	0.088	697687	keystroke_m	m	n/a
349.019	0.12	698038	keystroke_a	a	n/a
349.131	0.1125	698262	keystroke_n	n	n/a
349.579	0.0885	699158	keystroke_y	y	n/a
349.923	0.104	699846	keystroke_Key.space	Key.space	n/a
350.659	0.056	701318	keystroke_t	t	n/a
350.795	0.096	701590	keystroke_i	i	n/a
351.059	0.096	702118	keystroke_g	g	n/a
351.243	0.12	702486	keystroke_h	h	n/a
351.459	0.096	702918	keystroke_t	t	n/a
351.755	0.096	703510	keystroke_Key.space	Key.space	n/a
352.3475	0.1435	704695	keystroke_s	s	n/a
352.7475	0.12	705495	keystroke_a	a	n/a
353.076	0.111	706152	keystroke_m	m	n/a
353.283	0.104	706566	keystroke_o	o	n/a
353.707	0.128	707414	keystroke_a	a	n/a
353.915	0.1445	707830	keystroke_Key.space	Key.space	n/a
354.3235	0.104	708647	keystroke_i	i	n/a
354.5555	0.104	709111	keystroke_n	n	n/a
354.7875	0.152	709575	keystroke_d	d	n/a
355.0195	0.072	710039	keystroke_i	i	n/a
355.1315	0.16	710263	keystroke_e	e	n/a
355.4275	0.104	710855	keystroke_Key.enter	Key.enter	n/a
355.545	11.569	711090	prompt	n/a	organized frame plumbing chief\n
357.363	0.088	714726	keystroke_o	o	n/a
357.539	0.12	715078	keystroke_r	r	n/a
357.8355	0.056	715671	keystroke_g	g	n/a
358.0595	0.056	716119	keystroke_a	a	n/a
358.1235	0.112	716247	keystroke_n	n	n/a
358.2995	0.064	716599	keystroke_i	i	n/a
358.5795	0.136	717159	keystroke_z	z	n/a
358.8035	0.096	717607	keystroke_e	e	n/a
358.9955	0.088	717991	keystroke_d	d	n/a
359.2345	0.137	718469	keystroke_Key.space	Key.space	n/a
359.7235	0.104	719447	keystroke_f	f	n/a
359.9315	0.072	719863	keystroke_r	r	n/a
360.2755	0.104	720551	keystroke_a	a	n/a
360.4995	0.096	720999	keystroke_m	m	n/a
360.6355	0.152	721271	keystroke_e	e	n/a
360.8675	0.088	721735	keystroke_Key.space	Key.space	n/a
361.5315	0.08	723063	keystroke_p	p	n/a
361.7395	0.088	723479	keystroke_l	l	n/a
362.0275	0.0795	724055	keystroke_u	u	n/a
362.331	0.104	724662	keystroke_m	m	n/a
362.611	0.072	725222	keystroke_b	b	n/a
363.0595	0.112	726119	keystroke_i	i	n/a
363.2915	0.112	726583	keystroke_n	n	n/a
363.5875	0.08	727175	keystroke_g	g	n/a
364.5715	0.08	729143	keystroke_Key.space	Key.space	n/a
365.7315	0.12	731463	keystroke_c	c	n/a
365.8915	0.104	731783	keystroke_h	h	n/a
366.283	0.072	732566	keystroke_i	i	n/a
366.492	0.119	732984	keystroke_e	e	n/a
366.683	0.096	733366	keystroke_f	f	n/a
367.011	0.096	734022	keystroke_Key.enter	Key.enter	n/a
367.118	16.292	734236	prompt	n/a	newport hampshire spouse purpose\n
368.7555	0.056	737511	keystroke_n	n	n/a
368.8755	0.112	737751	keystroke_e	e	n/a
369.1555	0.143	738311	keystroke_w	w	n/a
369.5145	0.088	739029	keystroke_p	p	n/a
369.7155	0.072	739431	keystroke_o	o	n/a
369.9075	0.12	739815	keystroke_r	r	n/a
370.9545	0.08	741909	keystroke_t	t	n/a
371.1945	0.112	742389	keystroke_Key.space	Key.space	n/a
371.6105	0.064	743221	keystroke_h	h	n/a
371.8675	0.088	743735	keystroke_a	a	n/a
372.0435	0.079	744087	keystroke_m	m	n/a
372.4185	0.1525	744837	keystroke_s	s	n/a
372.595	0.104	745190	keystroke_h	h	n/a
372.907	0.104	745814	keystroke_i	i	n/a
373.595	0.072	747190	keystroke_r	r	n/a
373.731	0.16	747462	keystroke_e	e	n/a
374.7875	0.104	749575	keystroke_Key.backspace	Key.backspace	n/a
375.0035	0.064	750007	keystroke_Key.backspace	Key.backspace	n/a
375.1555	0.072	750311	keystroke_Key.backspace	Key.backspace	n/a
375.3315	0.088	750663	keystroke_Key.backspace	Key.backspace	n/a
375.6915	0.0955	751383	keystroke_Key.backspace	Key.backspace	n/a
377.259	0.096	754518	keystroke_p	p	n/a
377.923	0.1435	755846	keystroke_s	s	n/a
378.0905	0.1125	756181	keystroke_h	h	n/a
378.251	0.12	756502	keystroke_i	i	n/a
378.563	0.08	757126	keystroke_r	r	n/a
378.7305	0.096	757461	keystroke_e	e	n/a
378.9625	0.096	757925	keystroke_Key.space	Key.space	n/a
379.5065	0.136	759013	keystroke_s	s	n/a
379.6185	0.128	759237	keystroke_p	p	n/a
379.7945	0.113	759589	keystroke_o	o	n/a
380.099	0.12	760198	keystroke_u	u	n/a
380.443	0.12	760886	keystroke_s	s	n/a
380.547	0.08	761094	keystroke_e	e	n/a
380.859	0.096	761718	keystroke_Key.space	Key.space	n/a
381.483	0.104	762966	keystroke_p	p	n/a
382.067	0.0715	764134	keystroke_u	u	n/a
382.251	0.136	764502	keystroke_r	r	n/a
382.467	0.072	764934	keystroke_p	p	n/a
382.731	0.064	765462	keystroke_o	o	n/a
382.883	0.1035	765766	keystroke_s	s	n/a
383.1145	0.145	766229	keystroke_e	e	n/a
383.2985	0.104	766597	keystroke_Key.enter	Key.enter	n/a
383.414	12.356	766828	prompt	n/a	repairs necklace pediatric unfortunately\n
384.4585	0.072	768917	keystroke_r	r	n/a
384.6025	0.096	769205	keystroke_e	e	n/a
384.8265	0.12	769653	keystroke_p	p	n/a
385.0825	0.072	770165	keystroke_a	a	n/a
385.1385	0.088	770277	keystroke_i	i	n/a
385.4745	0.08	770949	keystroke_r	r	n/a
385.6105	0.2	771221	keystroke_s	s	n/a
385.9305	0.104	771861	keystroke_Key.space	Key.space	n/a
387.2665	0.072	774533	keystroke_n	n	n/a
387.4985	0.096	774997	keystroke_e	e	n/a
387.6905	0.088	775381	keystroke_c	c	n/a
388.4665	0.072	776933	keystroke_k	k	n/a
388.6905	0.064	777381	keystroke_l	l	n/a
388.8915	0.111	777783	keystroke_a	a	n/a
389.1065	0.088	778213	keystroke_c	c	n/a
389.2585	0.128	778517	keystroke_e	e	n/a
389.5465	0.088	779093	keystroke_Key.space	Key.space	n/a
390.1225	0.072	780245	keystroke_p	p	n/a
390.2505	0.144	780501	keystroke_e	e	n/a
390.4905	0.08	780981	keystroke_d	d	n/a
390.8425	0.104	781685	keystroke_i	i	n/a
391.0265	0.112	782053	keystroke_a	a	n/a
391.2265	0.08	782453	keystroke_t	t	n/a
391.4105	0.088	782821	keystroke_r	r	n/a
391.9865	0.112	783973	keystroke_i	i	n/a
392.1385	0.128	784277	keystroke_c	c	n/a
392.3705	0.104	784741	keystroke_Key.space	Key.space	n/a
392.963	0.079	785926	keystroke_u	u	n/a
393.154	0.113	786308	keystroke_n	n	n/a
393.394	0.1365	786788	keystroke_f	f	n/a
393.6265	0.072	787253	keystroke_o	o	n/a
393.7145	0.136	787429	keystroke_r	r	n/a
393.9705	0.08	787941	keystroke_t	t	n/a
394.171	0.072	788342	keystroke_u	u	n/a
394.395	0.104	788790	keystroke_n	n	n/a
394.626	0.104	789252	keystroke_a	a	n/a
394.762	0.073	789524	keystroke_t	t	n/a
394.938	0.168	789876	keystroke_e	e	n/a
395.107	0.119	790214	keystroke_l	l	n/a
395.354	0.088	790708	keystroke_y	y	n/a
395.642	0.12	791284	keystroke_Key.enter	Key.enter	n/a
395.774	14.804	791548	prompt	n/a	seniors statutes who'd workstation\n
396.6665	0.128	793333	keystroke_s	s	n/a
396.946	0.1605	793892	keystroke_e	e	n/a
397.1305	0.112	794261	keystroke_n	n	n/a
397.3225	0.08	794645	keystroke_i	i	n/a
397.5385	0.08	795077	keystroke_o	o	n/a
397.8745	0.1115	795749	keystroke_r	r	n/a
398.0665	0.144	796133	keystroke_s	s	n/a
398.3145	0.104	796629	keystroke_Key.space	Key.space	n/a
398.6665	0.136	797333	keystroke_s	s	n/a
398.8585	0.08	797717	keystroke_t	t	n/a
399.1545	0.12	798309	keystroke_a	a	n/a
399.2905	0.112	798581	keystroke_t	t	n/a
400.411	0.08	800822	keystroke_u	u	n/a
400.675	0.104	801350	keystroke_e	e	n/a
400.955	0.103	801910	keystroke_s	s	n/a
401.146	0.112	802292	keystroke_Key.space	Key.space	n/a
401.986	0.112	803972	keystroke_w	w	n/a
402.122	0.08	804244	keystroke_o	o	n/a
402.659	0.136	805318	keystroke_d	d	n/a
402.867	0.0955	805734	keystroke_'	'	n/a
404.13	0.1365	808260	keystroke_Key.backspace	Key.backspace	n/a
404.4265	0.08	808853	keystroke_Key.backspace	Key.backspace	n/a
405.0425	0.112	810085	keystroke_Key.backspace	Key.backspace	n/a
405.7065	0.088	811413	keystroke_h	h	n/a
405.899	0.072	811798	keystroke_o	o	n/a
406.475	0.08	812950	keystroke_'	'	n/a
406.675	0.144	813350	keystroke_d	d	n/a
406.938	0.08	813876	keystroke_Key.space	Key.space	n/a
407.675	0.127	815350	keystroke_w	w	n/a
408.138	0.064	816276	keystroke_o	o	n/a
408.2585	0.128	816517	keystroke_r	r	n/a
408.5785	0.08	817157	keystroke_k	k	n/a
408.7945	0.104	817589	keystroke_s	s	n/a
409.0585	0.072	818117	keystroke_t	t	n/a
409.2345	0.112	818469	keystroke_a	a	n/a
409.4025	0.104	818805	keystroke_t	t	n/a
409.826	0.056	819652	keystroke_i	i	n/a
409.986	0.104	819972	keystroke_o	o	n/a
410.186	0.12	820372	keystroke_n	n	n/a
410.4665	0.1035	820933	keystroke_Key.enter	Key.enter	n/a
410.582	9.8275	821164	prompt	n/a	deputy cannon presently releases\n
411.778	0.112	823556	keystroke_d	d	n/a
412.034	0.136	824068	keystroke_e	e	n/a
412.146	0.1125	824292	keystroke_p	p	n/a
412.4345	0.088	824869	keystroke_u	u	n/a
412.7465	0.088	825493	keystroke_t	t	n/a
412.938	0.08	825876	keystroke_y	y	n/a
413.242	0.104	826484	keystroke_Key.space	Key.space	n/a
413.602	0.128	827204	keystroke_c	c	n/a
413.97	0.12	827940	keystroke_a	a	n/a
414.162	0.064	828324	keystroke_n	n	n/a
414.3145	0.104	828629	keystroke_n	n	n/a
414.5145	0.144	829029	keystroke_o	o	n/a
414.7625	0.112	829525	keystroke_n	n	n/a
415.0025	0.104	830005	keystroke_Key.space	Key.space	n/a
415.6425	0.08	831285	keystroke_p	p	n/a
415.9945	0.08	831989	keystroke_r	r	n/a
416.1465	0.088	832293	keystroke_e	e	n/a
416.378	0.128	832756	keystroke_s	s	n/a
416.642	0.128	833284	keystroke_e	e	n/a
416.722	0.096	833444	keystroke_n	n	n/a
416.946	0.088	833892	keystroke_t	t	n/a
417.25	0.136	834500	keystroke_l	l	n/a
417.506	0.096	835012	keystroke_y	y	n/a
417.9615	0.128	835923	keystroke_Key.space	Key.space	n/a
418.418	0.08	836836	keystroke_r	r	n/a
418.61	0.104	837220	keystroke_e	e	n/a
418.786	0.104	837572	keystroke_l	l	n/a
419.146	0.088	838292	keystroke_e	e	n/a
419.306	0.136	838612	keystroke_a	a	n/a
419.418	0.16	838836	keystroke_s	s	n/a
419.554	0.144	839108	keystroke_e	e	n/a
419.818	0.104	839636	keystroke_s	s	n/a
420.29	0.112	840580	keystroke_Key.enter	Key.enter	n/a
420.4135	10.1315	840827	prompt	n/a	kenneth nigeria surf episode\n
421.762	0.08	843524	keystroke_k	k	n/a
421.89	0.168	843780	keystroke_e	e	n/a
422.258	0.0725	844516	keystroke_n	n	n/a
422.4265	0.096	844853	keystroke_n	n	n/a
422.6025	0.152	845205	keystroke_e	e	n/a
422.7865	0.096	845573	keystroke_t	t	n/a
423.0185	0.096	846037	keystroke_h	h	n/a
423.2665	0.103	846533	keystroke_Key.space	Key.space	n/a
423.7865	0.104	847573	keystroke_n	n	n/a
423.9705	0.096	847941	keystroke_i	i	n/a
424.306	0.104	848612	keystroke_g	g	n/a
424.538	0.16	849076	keystroke_e	e	n/a
424.778	0.096	849556	keystroke_r	r	n/a
426.266	0.096	852532	keystroke_i	i	n/a
426.474	0.112	852948	keystroke_a	a	n/a
426.834	0.104	853668	keystroke_Key.space	Key.space	n/a
427.562	0.144	855124	keystroke_s	s	n/a
427.698	0.096	855396	keystroke_u	u	n/a
427.9625	0.088	855925	keystroke_r	r	n/a
428.2025	0.104	856405	keystroke_f	f	n/a
428.4655	0.152	856931	keystroke_Key.space	Key.space	n/a
428.7455	0.152	857491	keystroke_e	e	n/a
428.8655	0.112	857731	keystroke_p	p	n/a
429.1695	0.089	858339	keystroke_i	i	n/a
429.6985	0.1835	859397	keystroke_s	s	n/a
429.898	0.064	859796	keystroke_o	o	n/a
430.018	0.136	860036	keystroke_d	d	n/a
430.274	0.1685	860548	keystroke_e	e	n/a
430.4345	0.103	860869	keystroke_Key.enter	Key.enter	n/a
430.549	23.0045	861098	prompt	n/a	contests troy philippines nasdaq\n
431.666	0.104	863332	keystroke_c	c	n/a
431.81	0.088	863620	keystroke_o	o	n/a
432.018	0.112	864036	keystroke_n	n	n/a
432.386	0.096	864772	keystroke_t	t	n/a
432.554	0.136	865108	keystroke_e	e	n/a
432.85	0.1675	865700	keystroke_s	s	n/a
433.0335	0.064	866067	keystroke_t	t	n/a
433.8495	0.1205	867699	keystroke_s	s	n/a
434.058	0.12	868116	keystroke_Key.space	Key.space	n/a
434.5055	0.096	869011	keystroke_t	t	n/a
434.6505	0.143	869301	keystroke_r	r	n/a
435.1135	0.072	870227	keystroke_o	o	n/a
435.5625	0.096	871125	keystroke_y	y	n/a
435.8575	0.096	871715	keystroke_Key.space	Key.space	n/a
445.9375	0.08	891875	keystroke_p	p	n/a
446.2735	0.104	892547	keystroke_h	h	n/a
446.4575	0.16	892915	keystroke_i	i	n/a
447.5215	0.08	895043	keystroke_l	l	n/a
447.7215	0.12	895443	keystroke_l	l	n/a
448.113	0.112	896226	keystroke_i	i	n/a
448.5215	0.104	897043	keystroke_p	p	n/a
448.8015	0.128	897603	keystroke_p	p	n/a
449.8095	0.088	899619	keystroke_i	i	n/a
450.0655	0.08	900131	keystroke_n	n	n/a
450.2335	0.088	900467	keystroke_e	e	n/a
450.4735	0.144	900947	keystroke_s	s	n/a
450.6975	0.088	901395	keystroke_Key.space	Key.space	n/a
451.425	0.056	902850	keystroke_n	n	n/a
451.601	0.112	903202	keystroke_a	a	n/a
452.233	0.144	904466	keystroke_s	s	n/a
452.5215	0.096	905043	keystroke_d	d	n/a
453.041	0.056	906082	keystroke_a	a	n/a
453.241	0.136	906482	keystroke_q	q	n/a
453.441	0.104	906882	keystroke_Key.enter	Key.enter	n/a
453.5575	8.691	907115	prompt	n/a	educators dealt civic four\n
454.449	0.072	908898	keystroke_e	e	n/a
454.713	0.12	909426	keystroke_d	d	n/a
454.913	0.072	909826	keystroke_u	u	n/a
455.025	0.128	910050	keystroke_c	c	n/a
455.713	0.112	911426	keystroke_a	a	n/a
455.873	0.088	911746	keystroke_t	t	n/a
456.201	0.12	912402	keystroke_o	o	n/a
456.6095	0.088	913219	keystroke_r	r	n/a
456.7935	0.144	913587	keystroke_s	s	n/a
457.0255	0.088	914051	keystroke_Key.space	Key.space	n/a
457.5855	0.128	915171	keystroke_d	d	n/a
457.8335	0.088	915667	keystroke_e	e	n/a
458.145	0.104	916290	keystroke_a	a	n/a
458.241	0.096	916482	keystroke_l	l	n/a
458.5445	0.113	917089	keystroke_t	t	n/a
458.993	0.08	917986	keystroke_Key.space	Key.space	n/a
459.561	0.1365	919122	keystroke_c	c	n/a
459.7615	0.088	919523	keystroke_i	i	n/a
460.0495	0.096	920099	keystroke_v	v	n/a
460.2895	0.096	920579	keystroke_i	i	n/a
460.8495	0.072	921699	keystroke_c	c	n/a
461.0335	0.136	922067	keystroke_Key.space	Key.space	n/a
461.3055	0.112	922611	keystroke_f	f	n/a
461.4255	0.112	922851	keystroke_o	o	n/a
461.6415	0.12	923283	keystroke_u	u	n/a
461.9295	0.136	923859	keystroke_r	r	n/a
462.129	0.112	924258	keystroke_Key.enter	Key.enter	n/a
462.2525	9.1555	924505	prompt	n/a	promising company oracle entries\n
463.321	0.088	926642	keystroke_p	p	n/a
463.481	0.136	926962	keystroke_r	r	n/a
463.649	0.08	927298	keystroke_o	o	n/a
463.937	0.112	927874	keystroke_m	m	n/a
464.137	0.064	928274	keystroke_i	i	n/a
464.329	0.1365	928658	keystroke_s	s	n/a
464.969	0.088	929938	keystroke_i	i	n/a
465.1845	0.136	930369	keystroke_n	n	n/a
465.4405	0.08	930881	keystroke_g	g	n/a
465.6485	0.105	931297	keystroke_Key.space	Key.space	n/a
466.313	0.112	932626	keystroke_c	c	n/a
466.417	0.088	932834	keystroke_o	o	n/a
466.601	0.104	933202	keystroke_m	m	n/a
466.801	0.08	933602	keystroke_p	p	n/a
467.009	0.096	934018	keystroke_a	a	n/a
467.1535	0.104	934307	keystroke_n	n	n/a
467.4015	0.104	934803	keystroke_y	y	n/a
467.737	0.096	935474	keystroke_Key.space	Key.space	n/a
468.3695	0.088	936739	keystroke_o	o	n/a
468.7135	0.087	937427	keystroke_r	r	n/a
469.0965	0.088	938193	keystroke_a	a	n/a
469.1775	0.072	938355	keystroke_c	c	n/a
469.4655	0.096	938931	keystroke_l	l	n/a
469.6015	0.095	939203	keystroke_e	e	n/a
469.7205	0.1125	939441	keystroke_Key.space	Key.space	n/a
469.8885	0.144	939777	keystroke_e	e	n/a
470.0165	0.104	940033	keystroke_n	n	n/a
470.2725	0.104	940545	keystroke_t	t	n/a
470.513	0.128	941026	keystroke_r	r	n/a
470.697	0.072	941394	keystroke_i	i	n/a
470.889	0.104	941778	keystroke_e	e	n/a
471.121	0.176	942242	keystroke_s	s	n/a
471.305	0.096	942610	keystroke_Key.enter	Key.enter	n/a
471.412	9.1085	942824	prompt	n/a	dennis lakes newsletter accidents\n
473.0095	0.12	946019	keystroke_d	d	n/a
473.2735	0.143	946547	keystroke_e	e	n/a
473.5205	0.057	947041	keystroke_n	n	n/a
473.6655	0.12	947331	keystroke_n	n	n/a
473.8575	0.096	947715	keystroke_i	i	n/a
474.0165	0.137	948033	keystroke_s	s	n/a
474.2165	0.08	948433	keystroke_Key.space	Key.space	n/a
474.873	0.072	949746	keystroke_l	l	n/a
475.057	0.096	950114	keystroke_a	a	n/a
475.225	0.08	950450	keystroke_k	k	n/a
475.393	0.112	950786	keystroke_e	e	n/a
475.641	0.152	951282	keystroke_s	s	n/a
475.865	0.088	951730	keystroke_Key.space	Key.space	n/a
476.409	0.072	952818	keystroke_n	n	n/a
476.5445	0.136	953089	keystroke_e	e	n/a
476.8005	0.113	953601	keystroke_w	w	n/a
477.0325	0.168	954065	keystroke_s	s	n/a
477.2165	0.088	954433	keystroke_l	l	n/a
477.3685	0.177	954737	keystroke_e	e	n/a
477.6325	0.073	955265	keystroke_t	t	n/a
477.8015	0.104	955603	keystroke_t	t	n/a
477.9205	0.1365	955841	keystroke_e	e	n/a
478.049	0.096	956098	keystroke_r	r	n/a
478.377	0.112	956754	keystroke_Key.space	Key.space	n/a
478.6565	0.144	957313	keystroke_a	a	n/a
478.8965	0.072	957793	keystroke_c	c	n/a
479.0405	0.096	958081	keystroke_c	c	n/a
479.2805	0.104	958561	keystroke_i	i	n/a
479.4405	0.1605	958881	keystroke_d	d	n/a
479.7205	0.136	959441	keystroke_e	e	n/a
479.8325	0.096	959665	keystroke_n	n	n/a
480.0565	0.104	960113	keystroke_t	t	n/a
480.1925	0.144	960385	keystroke_s	s	n/a
480.4325	0.08	960865	keystroke_Key.enter	Key.enter	n/a
480.5255	8.6665	961051	prompt	n/a	digital seeds whereas we've\n
481.6165	0.176	963233	keystroke_d	d	n/a
481.8085	0.08	963617	keystroke_i	i	n/a
482.0325	0.096	964065	keystroke_g	g	n/a
482.2325	0.128	964465	keystroke_i	i	n/a
482.4885	0.096	964977	keystroke_t	t	n/a
482.6655	0.119	965331	keystroke_a	a	n/a
483.017	0.12	966034	keystroke_l	l	n/a
483.297	0.104	966594	keystroke_Key.space	Key.space	n/a
483.513	0.144	967026	keystroke_s	s	n/a
483.793	0.112	967586	keystroke_e	e	n/a
484.009	0.112	968018	keystroke_e	e	n/a
484.177	0.08	968354	keystroke_d	d	n/a
484.377	0.136	968754	keystroke_s	s	n/a
484.537	0.1195	969074	keystroke_Key.space	Key.space	n/a
484.9205	0.168	969841	keystroke_w	w	n/a
485.1205	0.088	970241	keystroke_h	h	n/a
485.2405	0.168	970481	keystroke_e	e	n/a
485.7845	0.112	971569	keystroke_r	r	n/a
486.0325	0.088	972065	keystroke_e	e	n/a
486.3845	0.088	972769	keystroke_a	a	n/a
486.6565	0.136	973313	keystroke_s	s	n/a
487.0165	0.096	974033	keystroke_Key.space	Key.space	n/a
487.4725	0.12	974945	keystroke_w	w	n/a
487.7125	0.12	975425	keystroke_e	e	n/a
488.313	0.08	976626	keystroke_'	'	n/a
488.7045	0.08	977409	keystroke_v	v	n/a
488.8245	0.152	977649	keystroke_e	e	n/a
489.0725	0.112	978145	keystroke_Key.enter	Key.enter	n/a
489.1965	11.7715	978393	prompt	n/a	cuts prison switch representations\n
490.3685	0.112	980737	keystroke_c	c	n/a
490.4965	0.081	980993	keystroke_u	u	n/a
490.7615	0.072	981523	keystroke_t	t	n/a
490.9365	0.136	981873	keystroke_s	s	n/a
491.0485	0.104	982097	keystroke_Key.space	Key.space	n/a
491.2805	0.136	982561	keystroke_p	p	n/a
491.5285	0.113	983057	keystroke_r	r	n/a
491.8085	0.072	983617	keystroke_i	i	n/a
492.0565	0.128	984113	keystroke_s	s	n/a
492.1765	0.144	984353	keystroke_o	o	n/a
492.4885	0.1045	984977	keystroke_n	n	n/a
492.769	0.104	985538	keystroke_Key.space	Key.space	n/a
493.2885	0.128	986577	keystroke_s	s	n/a
493.5845	0.16	987169	keystroke_w	w	n/a
493.7205	0.104	987441	keystroke_i	i	n/a
493.9605	0.064	987921	keystroke_t	t	n/a
494.2885	0.128	988577	keystroke_c	c	n/a
494.4255	0.071	988851	keystroke_h	h	n/a
494.657	0.104	989314	keystroke_Key.space	Key.space	n/a
495.433	0.072	990866	keystroke_r	r	n/a
495.633	0.096	991266	keystroke_e	e	n/a
495.881	0.104	991762	keystroke_p	p	n/a
496.249	0.08	992498	keystroke_r	r	n/a
496.361	0.152	992722	keystroke_e	e	n/a
496.737	0.152	993474	keystroke_s	s	n/a
497.033	0.128	994066	keystroke_e	e	n/a
499.3125	0.088	998625	keystroke_n	n	n/a
499.6005	0.08	999201	keystroke_t	t	n/a
499.7605	0.0805	999521	keystroke_a	a	n/a
499.841	0.096	999682	keystroke_t	t	n/a
500.161	0.08	1000322	keystroke_i	i	n/a
500.353	0.088	1000706	keystroke_o	o	n/a
500.529	0.111	1001058	keystroke_n	n	n/a
500.648	0.145	1001296	keystroke_s	s	n/a
500.841	0.12	1001682	keystroke_Key.enter	Key.enter	n/a
500.9725	8.7395	1001945	prompt	n/a	travis doctor africa anyway\n
501.969	0.08	1003938	keystroke_t	t	n/a
502.161	0.079	1004322	keystroke_r	r	n/a
502.353	0.104	1004706	keystroke_a	a	n/a
502.561	0.096	1005122	keystroke_v	v	n/a
502.913	0.1195	1005826	keystroke_i	i	n/a
503.1205	0.152	1006241	keystroke_s	s	n/a
503.3365	0.104	1006673	keystroke_Key.space	Key.space	n/a
504.0005	0.12	1008001	keystroke_d	d	n/a
504.2005	0.08	1008401	keystroke_o	o	n/a
504.3445	0.12	1008689	keystroke_c	c	n/a
504.5445	0.088	1009089	keystroke_t	t	n/a
504.7925	0.096	1009585	keystroke_o	o	n/a
505.1365	0.096	1010273	keystroke_r	r	n/a
505.3685	0.08	1010737	keystroke_Key.space	Key.space	n/a
505.8165	0.136	1011633	keystroke_a	a	n/a
506.2005	0.104	1012401	keystroke_f	f	n/a
506.4565	0.104	1012913	keystroke_r	r	n/a
506.7765	0.112	1013553	keystroke_i	i	n/a
507.1685	0.08	1014337	keystroke_c	c	n/a
507.3765	0.128	1014753	keystroke_a	a	n/a
507.5605	0.096	1015121	keystroke_Key.space	Key.space	n/a
508.313	0.144	1016626	keystroke_a	a	n/a
508.465	0.088	1016930	keystroke_n	n	n/a
508.713	0.08	1017426	keystroke_y	y	n/a
508.865	0.128	1017730	keystroke_w	w	n/a
509.153	0.104	1018306	keystroke_a	a	n/a
509.249	0.072	1018498	keystroke_y	y	n/a
509.577	0.128	1019154	keystroke_Key.enter	Key.enter	n/a
509.716	8.7315	1019432	prompt	n/a	direct slope margaret derby\n
510.905	0.128	1021810	keystroke_d	d	n/a
511.017	0.088	1022034	keystroke_i	i	n/a
511.289	0.096	1022578	keystroke_r	r	n/a
511.449	0.0875	1022898	keystroke_e	e	n/a
511.5285	0.12	1023057	keystroke_c	c	n/a
511.6805	0.112	1023361	keystroke_t	t	n/a
511.9685	0.12	1023937	keystroke_Key.space	Key.space	n/a
512.4645	0.128	1024929	keystroke_s	s	n/a
512.5605	0.08	1025121	keystroke_l	l	n/a
512.7445	0.096	1025489	keystroke_o	o	n/a
512.969	0.071	1025938	keystroke_p	p	n/a
513.145	0.1355	1026290	keystroke_e	e	n/a
513.3685	0.08	1026737	keystroke_Key.space	Key.space	n/a
513.8085	0.096	1027617	keystroke_m	m	n/a
514.0565	0.136	1028113	keystroke_a	a	n/a
514.2645	0.096	1028529	keystroke_r	r	n/a
514.824	0.16	1029648	keystroke_g	g	n/a
515.736	0.096	1031472	keystroke_a	a	n/a
515.992	0.072	1031984	keystroke_r	r	n/a
516.12	0.12	1032240	keystroke_e	e	n/a
516.248	0.081	1032496	keystroke_t	t	n/a
516.552	0.112	1033104	keystroke_Key.space	Key.space	n/a
517.0485	0.112	1034097	keystroke_d	d	n/a
517.2805	0.136	1034561	keystroke_e	e	n/a
517.3925	0.088	1034785	keystroke_r	r	n/a
517.8405	0.1125	1035681	keystroke_b	b	n/a
518.032	0.089	1036064	keystroke_y	y	n/a
518.336	0.104	1036672	keystroke_Key.enter	Key.enter	n/a
518.4515	10.7	1036903	prompt	n/a	wondering nokia likelihood research\n
519.617	0.1035	1039234	keystroke_w	w	n/a
519.7285	0.072	1039457	keystroke_o	o	n/a
519.9045	0.112	1039809	keystroke_n	n	n/a
520.0725	0.104	1040145	keystroke_d	d	n/a
520.297	0.119	1040594	keystroke_e	e	n/a
520.4	0.08	1040800	keystroke_r	r	n/a
520.64	0.128	1041280	keystroke_i	i	n/a
520.904	0.104	1041808	keystroke_n	n	n/a
521.2725	0.0875	1042545	keystroke_g	g	n/a
521.544	0.128	1043088	keystroke_Key.space	Key.space	n/a
522.416	0.096	1044832	keystroke_n	n	n/a
522.64	0.08	1045280	keystroke_o	o	n/a
522.896	0.129	1045792	keystroke_k	k	n/a
523.216	0.089	1046432	keystroke_i	i	n/a
523.496	0.1205	1046992	keystroke_a	a	n/a
523.824	0.088	1047648	keystroke_Key.space	Key.space	n/a
524.32	0.088	1048640	keystroke_l	l	n/a
524.552	0.072	1049104	keystroke_i	i	n/a
524.872	0.08	1049744	keystroke_k	k	n/a
525.032	0.1125	1050064	keystroke_e	e	n/a
525.2085	0.104	1050417	keystroke_l	l	n/a
525.44	0.08	1050880	keystroke_i	i	n/a
525.808	0.088	1051616	keystroke_h	h	n/a
526.128	0.056	1052256	keystroke_o	o	n/a
526.296	0.088	1052592	keystroke_o	o	n/a
526.448	0.16	1052896	keystroke_d	d	n/a
526.7125	0.096	1053425	keystroke_Key.space	Key.space	n/a
527.2165	0.072	1054433	keystroke_r	r	n/a
527.3365	0.088	1054673	keystroke_e	e	n/a
527.6645	0.136	1055329	keystroke_s	s	n/a
527.9205	0.0955	1055841	keystroke_e	e	n/a
528.216	0.105	1056432	keystroke_a	a	n/a
528.272	0.072	1056544	keystroke_r	r	n/a
528.456	0.097	1056912	keystroke_c	c	n/a
528.68	0.0885	1057360	keystroke_h	h	n/a
529.0565	0.088	1058113	keystroke_Key.enter	Key.enter	n/a
529.155	7.836	1058310	prompt	n/a	pound cloud reaction auto\n
530.1205	0.1035	1060241	keystroke_p	p	n/a
530.336	0.088	1060672	keystroke_o	o	n/a
530.552	0.08	1061104	keystroke_u	u	n/a
530.888	0.088	1061776	keystroke_n	n	n/a
531.104	0.152	1062208	keystroke_d	d	n/a
531.328	0.088	1062656	keystroke_Key.space	Key.space	n/a
531.736	0.152	1063472	keystroke_c	c	n/a
531.896	0.112	1063792	keystroke_l	l	n/a
532.104	0.096	1064208	keystroke_o	o	n/a
532.352	0.112	1064704	keystroke_u	u	n/a
532.68	0.152	1065360	keystroke_d	d	n/a
533.0005	0.088	1066001	keystroke_Key.space	Key.space	n/a
533.6165	0.072	1067233	keystroke_r	r	n/a
533.7365	0.112	1067473	keystroke_e	e	n/a
534.0725	0.096	1068145	keystroke_a	a	n/a
534.1365	0.128	1068273	keystroke_c	c	n/a
534.3125	0.08	1068625	keystroke_t	t	n/a
534.5845	0.112	1069169	keystroke_i	i	n/a
534.8	0.104	1069600	keystroke_o	o	n/a
535.024	0.12	1070048	keystroke_n	n	n/a
535.288	0.128	1070576	keystroke_Key.space	Key.space	n/a
535.912	0.096	1071824	keystroke_a	a	n/a
536.048	0.08	1072096	keystroke_u	u	n/a
536.272	0.12	1072544	keystroke_t	t	n/a
536.632	0.088	1073264	keystroke_o	o	n/a
536.8965	0.088	1073793	keystroke_Key.enter	Key.enter	n/a
536.995	10.005	1073990	prompt	n/a	clothing related greeting medline\n
537.944	0.12	1075888	keystroke_c	c	n/a
538.056	0.088	1076112	keystroke_l	l	n/a
538.248	0.08	1076496	keystroke_o	o	n/a
538.5285	0.072	1077057	keystroke_t	t	n/a
538.6965	0.1035	1077393	keystroke_h	h	n/a
538.84	0.144	1077680	keystroke_i	i	n/a
539.08	0.12	1078160	keystroke_n	n	n/a
539.336	0.056	1078672	keystroke_g	g	n/a
539.584	0.104	1079168	keystroke_Key.space	Key.space	n/a
540.08	0.072	1080160	keystroke_r	r	n/a
540.256	0.08	1080512	keystroke_e	e	n/a
540.416	0.088	1080832	keystroke_l	l	n/a
540.632	0.072	1081264	keystroke_a	a	n/a
540.76	0.096	1081520	keystroke_t	t	n/a
540.912	0.104	1081824	keystroke_e	e	n/a
541.056	0.112	1082112	keystroke_d	d	n/a
541.352	0.128	1082704	keystroke_Key.space	Key.space	n/a
541.872	0.104	1083744	keystroke_g	g	n/a
542.088	0.104	1084176	keystroke_r	r	n/a
542.248	0.136	1084496	keystroke_e	e	n/a
542.504	0.144	1085008	keystroke_e	e	n/a
542.656	0.064	1085312	keystroke_t	t	n/a
542.856	0.1205	1085712	keystroke_i	i	n/a
543.0725	0.136	1086145	keystroke_n	n	n/a
543.3365	0.072	1086673	keystroke_g	g	n/a
543.5685	0.112	1087137	keystroke_Key.space	Key.space	n/a
544.1285	0.096	1088257	keystroke_m	m	n/a
544.3765	0.128	1088753	keystroke_e	e	n/a
545.5925	0.144	1091185	keystroke_d	d	n/a
546.1445	0.08	1092289	keystroke_l	l	n/a
546.3525	0.104	1092705	keystroke_i	i	n/a
546.56	0.12	1093120	keystroke_n	n	n/a
546.688	0.152	1093376	keystroke_e	e	n/a
546.904	0.088	1093808	keystroke_Key.enter	Key.enter	n/a
547.0045	10.059	1094009	prompt	n/a	organ appreciated acrylic dimensions\n
547.9685	0.072	1095937	keystroke_o	o	n/a
548.3125	0.08	1096625	keystroke_r	r	n/a
548.4565	0.056	1096913	keystroke_g	g	n/a
548.6965	0.111	1097393	keystroke_a	a	n/a
548.9195	0.096	1097839	keystroke_n	n	n/a
549.1835	0.088	1098367	keystroke_Key.space	Key.space	n/a
549.8	0.096	1099600	keystroke_a	a	n/a
549.992	0.056	1099984	keystroke_p	p	n/a
550.144	0.089	1100288	keystroke_p	p	n/a
550.44	0.08	1100880	keystroke_r	r	n/a
550.544	0.128	1101088	keystroke_e	e	n/a
550.656	0.096	1101312	keystroke_c	c	n/a
550.9045	0.0715	1101809	keystroke_i	i	n/a
551.104	0.08	1102208	keystroke_a	a	n/a
551.28	0.088	1102560	keystroke_t	t	n/a
551.384	0.136	1102768	keystroke_e	e	n/a
551.552	0.112	1103104	keystroke_d	d	n/a
551.848	0.088	1103696	keystroke_Key.space	Key.space	n/a
552.24	0.136	1104480	keystroke_a	a	n/a
552.664	0.12	1105328	keystroke_c	c	n/a
552.856	0.096	1105712	keystroke_r	r	n/a
553.352	0.072	1106704	keystroke_y	y	n/a
553.608	0.1205	1107216	keystroke_l	l	n/a
553.8645	0.064	1107729	keystroke_i	i	n/a
554.2725	0.128	1108545	keystroke_c	c	n/a
554.4565	0.104	1108913	keystroke_Key.space	Key.space	n/a
554.8635	0.152	1109727	keystroke_d	d	n/a
555.1435	0.072	1110287	keystroke_i	i	n/a
555.3995	0.08	1110799	keystroke_m	m	n/a
555.5355	0.144	1111071	keystroke_e	e	n/a
555.6875	0.0885	1111375	keystroke_n	n	n/a
555.9765	0.144	1111953	keystroke_s	s	n/a
556.2165	0.088	1112433	keystroke_i	i	n/a
556.3925	0.128	1112785	keystroke_o	o	n/a
556.6165	0.1195	1113233	keystroke_n	n	n/a
556.752	0.1675	1113504	keystroke_s	s	n/a
556.9595	0.096	1113919	keystroke_Key.enter	Key.enter	n/a
557.0675	11.8435	1114135	prompt	n/a	responsibility detailed tremendous canvas\n
558.128	0.072	1116256	keystroke_r	r	n/a
558.256	0.088	1116512	keystroke_e	e	n/a
558.488	0.16	1116976	keystroke_s	s	n/a
558.584	0.088	1117168	keystroke_p	p	n/a
558.784	0.088	1117568	keystroke_o	o	n/a
559.008	0.088	1118016	keystroke_n	n	n/a
559.288	0.136	1118576	keystroke_s	s	n/a
559.424	0.088	1118848	keystroke_i	i	n/a
559.8075	0.096	1119615	keystroke_b	b	n/a
559.9915	0.088	1119983	keystroke_i	i	n/a
560.2155	0.104	1120431	keystroke_l	l	n/a
560.4955	0.136	1120991	keystroke_i	i	n/a
560.72	0.0875	1121440	keystroke_t	t	n/a
560.8555	0.072	1121711	keystroke_y	y	n/a
561.1675	0.104	1122335	keystroke_Key.space	Key.space	n/a
561.6395	0.128	1123279	keystroke_d	d	n/a
561.8795	0.128	1123759	keystroke_e	e	n/a
562.0315	0.088	1124063	keystroke_t	t	n/a
562.2955	0.104	1124591	keystroke_a	a	n/a
562.4155	0.08	1124831	keystroke_i	i	n/a
562.6155	0.08	1125231	keystroke_l	l	n/a
562.7595	0.1045	1125519	keystroke_e	e	n/a
563.0075	0.145	1126015	keystroke_d	d	n/a
563.2075	0.112	1126415	keystroke_Key.space	Key.space	n/a
563.6715	0.112	1127343	keystroke_t	t	n/a
563.9035	0.08	1127807	keystroke_r	r	n/a
564.1435	0.136	1128287	keystroke_e	e	n/a
564.4405	0.08	1128881	keystroke_m	m	n/a
564.5445	0.151	1129089	keystroke_e	e	n/a
564.6875	0.104	1129375	keystroke_n	n	n/a
565.072	0.072	1130144	keystroke_f	f	n/a
565.728	0.112	1131456	keystroke_Key.backspace	Key.backspace	n/a
565.904	0.128	1131808	keystroke_d	d	n/a
566.016	0.096	1132032	keystroke_o	o	n/a
566.28	0.096	1132560	keystroke_u	u	n/a
566.528	0.176	1133056	keystroke_s	s	n/a
566.736	0.088	1133472	keystroke_Key.space	Key.space	n/a
567.408	0.056	1134816	keystroke_c	c	n/a
567.688	0.096	1135376	keystroke_a	a	n/a
567.848	0.0955	1135696	keystroke_n	n	n/a
568.1915	0.08	1136383	keystroke_v	v	n/a
568.3275	0.104	1136655	keystroke_a	a	n/a
568.5435	0.168	1137087	keystroke_s	s	n/a
568.8075	0.0965	1137615	keystroke_Key.enter	Key.enter	n/a
568.915	10.068	1137830	prompt	n/a	chosen sunglasses naval directories\n
569.968	0.096	1139936	keystroke_c	c	n/a
570.096	0.096	1140192	keystroke_h	h	n/a
570.288	0.088	1140576	keystroke_o	o	n/a
570.448	0.12	1140896	keystroke_s	s	n/a
570.72	0.167	1141440	keystroke_e	e	n/a
570.96	0.079	1141920	keystroke_n	n	n/a
571.175	0.0885	1142350	keystroke_Key.space	Key.space	n/a
572.0715	0.112	1144143	keystroke_s	s	n/a
572.1515	0.08	1144303	keystroke_u	u	n/a
572.3195	0.12	1144639	keystroke_n	n	n/a
572.6155	0.088	1145231	keystroke_g	g	n/a
572.8875	0.0725	1145775	keystroke_l	l	n/a
573.04	0.112	1146080	keystroke_a	a	n/a
573.311	0.145	1146622	keystroke_s	s	n/a
573.535	0.184	1147070	keystroke_s	s	n/a
573.768	0.1035	1147536	keystroke_e	e	n/a
573.9195	0.152	1147839	keystroke_s	s	n/a
574.2955	0.12	1148591	keystroke_Key.space	Key.space	n/a
574.5915	0.072	1149183	keystroke_n	n	n/a
574.8475	0.1365	1149695	keystroke_a	a	n/a
575.12	0.08	1150240	keystroke_v	v	n/a
575.256	0.136	1150512	keystroke_a	a	n/a
575.608	0.1275	1151216	keystroke_l	l	n/a
575.8795	0.088	1151759	keystroke_Key.space	Key.space	n/a
576.6235	0.112	1153247	keystroke_d	d	n/a
576.7835	0.08	1153567	keystroke_i	i	n/a
577.095	0.072	1154190	keystroke_r	r	n/a
577.239	0.104	1154478	keystroke_e	e	n/a
577.327	0.112	1154654	keystroke_c	c	n/a
577.495	0.088	1154990	keystroke_t	t	n/a
577.847	0.089	1155694	keystroke_o	o	n/a
578.1675	0.096	1156335	keystroke_r	r	n/a
578.3275	0.072	1156655	keystroke_i	i	n/a
578.4875	0.112	1156975	keystroke_e	e	n/a
578.7435	0.1445	1157487	keystroke_s	s	n/a
578.8715	0.104	1157743	keystroke_Key.enter	Key.enter	n/a
578.989	14.587	1157978	prompt	n/a	algorithm joan springer communication\n
579.991	0.104	1159982	keystroke_a	a	n/a
580.119	0.08	1160238	keystroke_l	l	n/a
580.839	0.144	1161678	keystroke_g	g	n/a
581.103	0.104	1162206	keystroke_o	o	n/a
582.5355	0.136	1165071	keystroke_r	r	n/a
582.7195	0.088	1165439	keystroke_i	i	n/a
585.12	0.064	1170240	keystroke_t	t	n/a
585.336	0.072	1170672	keystroke_h	h	n/a
585.8395	0.1205	1171679	keystroke_m	m	n/a
586.136	0.072	1172272	keystroke_Key.space	Key.space	n/a
586.999	0.096	1173998	keystroke_j	j	n/a
587.191	0.08	1174382	keystroke_o	o	n/a
587.407	0.105	1174814	keystroke_a	a	n/a
587.703	0.0805	1175406	keystroke_n	n	n/a
587.9195	0.104	1175839	keystroke_Key.space	Key.space	n/a
588.6155	0.128	1177231	keystroke_s	s	n/a
588.7835	0.064	1177567	keystroke_p	p	n/a
589.048	0.104	1178096	keystroke_r	r	n/a
589.183	0.096	1178366	keystroke_i	i	n/a
589.391	0.12	1178782	keystroke_n	n	n/a
589.631	0.096	1179262	keystroke_g	g	n/a
589.8155	0.112	1179631	keystroke_e	e	n/a
589.9515	0.088	1179903	keystroke_r	r	n/a
590.2715	0.056	1180543	keystroke_Key.space	Key.space	n/a
590.7435	0.168	1181487	keystroke_c	c	n/a
590.9435	0.088	1181887	keystroke_o	o	n/a
591.1595	0.08	1182319	keystroke_m	m	n/a
591.3195	0.104	1182639	keystroke_m	m	n/a
591.5435	0.088	1183087	keystroke_u	u	n/a
591.7275	0.112	1183455	keystroke_n	n	n/a
591.8795	0.088	1183759	keystroke_i	i	n/a
592.1515	0.112	1184303	keystroke_c	c	n/a
592.3195	0.088	1184639	keystroke_a	a	n/a
592.4395	0.104	1184879	keystroke_t	t	n/a
592.7915	0.08	1185583	keystroke_i	i	n/a
592.9755	0.112	1185951	keystroke_o	o	n/a
593.1595	0.12	1186319	keystroke_n	n	n/a
593.4715	0.096	1186943	keystroke_Key.enter	Key.enter	n/a
593.58	7.626	1187160	prompt	n/a	enable presents dates was\n
594.6635	0.104	1189327	keystroke_e	e	n/a
594.8235	0.072	1189647	keystroke_n	n	n/a
595.063	0.096	1190126	keystroke_a	a	n/a
595.183	0.08	1190366	keystroke_b	b	n/a
595.479	0.096	1190958	keystroke_l	l	n/a
595.599	0.128	1191198	keystroke_e	e	n/a
595.871	0.096	1191742	keystroke_Key.space	Key.space	n/a
596.495	0.08	1192990	keystroke_p	p	n/a
596.856	0.071	1193712	keystroke_r	r	n/a
596.999	0.105	1193998	keystroke_e	e	n/a
597.24	0.135	1194480	keystroke_s	s	n/a
597.511	0.128	1195022	keystroke_e	e	n/a
597.599	0.104	1195198	keystroke_n	n	n/a
597.847	0.088	1195694	keystroke_t	t	n/a
598.015	0.152	1196030	keystroke_s	s	n/a
598.215	0.12	1196430	keystroke_Key.space	Key.space	n/a
598.8795	0.119	1197759	keystroke_d	d	n/a
599.2225	0.08	1198445	keystroke_a	a	n/a
599.3425	0.056	1198685	keystroke_t	t	n/a
599.4785	0.153	1198957	keystroke_e	e	n/a
599.7595	0.159	1199519	keystroke_s	s	n/a
599.9905	0.088	1199981	keystroke_Key.space	Key.space	n/a
600.3595	0.12	1200719	keystroke_w	w	n/a
600.6065	0.112	1201213	keystroke_a	a	n/a
600.8145	0.168	1201629	keystroke_s	s	n/a
601.0865	0.112	1202173	keystroke_Key.enter	Key.enter	n/a
601.2105	9.132	1202421	prompt	n/a	hook coastal yards hitachi\n
602.167	0.096	1204334	keystroke_h	h	n/a
602.495	0.048	1204990	keystroke_o	o	n/a
602.663	0.08	1205326	keystroke_o	o	n/a
602.879	0.104	1205758	keystroke_k	k	n/a
603.087	0.128	1206174	keystroke_Key.space	Key.space	n/a
603.279	0.104	1206558	keystroke_c	c	n/a
603.431	0.072	1206862	keystroke_o	o	n/a
603.751	0.104	1207502	keystroke_a	a	n/a
603.975	0.136	1207950	keystroke_s	s	n/a
604.135	0.08	1208270	keystroke_t	t	n/a
604.647	0.136	1209294	keystroke_a	a	n/a
604.863	0.104	1209726	keystroke_l	l	n/a
605.151	0.088	1210302	keystroke_Key.space	Key.space	n/a
606.047	0.096	1212094	keystroke_y	y	n/a
606.255	0.104	1212510	keystroke_a	a	n/a
606.367	0.08	1212734	keystroke_r	r	n/a
606.575	0.08	1213150	keystroke_d	d	n/a
606.727	0.128	1213454	keystroke_s	s	n/a
606.935	0.104	1213870	keystroke_Key.space	Key.space	n/a
607.615	0.112	1215230	keystroke_h	h	n/a
607.767	0.104	1215534	keystroke_i	i	n/a
608.1275	0.096	1216255	keystroke_t	t	n/a
609.103	0.112	1218206	keystroke_a	a	n/a
609.279	0.072	1218558	keystroke_c	c	n/a
609.7115	0.127	1219423	keystroke_h	h	n/a
609.9035	0.111	1219807	keystroke_i	i	n/a
610.2385	0.096	1220477	keystroke_Key.enter	Key.enter	n/a
610.346	7.6205	1220692	prompt	n/a	wearing diesel leader oven\n
611.2465	0.08	1222493	keystroke_w	w	n/a
611.4385	0.096	1222877	keystroke_e	e	n/a
611.7425	0.088	1223485	keystroke_r	r	n/a
611.7505	0.072	1223501	keystroke_a	a	n/a
612.0145	0.072	1224029	keystroke_i	i	n/a
612.1985	0.136	1224397	keystroke_n	n	n/a
612.4705	0.088	1224941	keystroke_g	g	n/a
612.6945	0.12	1225389	keystroke_Key.space	Key.space	n/a
613.439	0.112	1226878	keystroke_d	d	n/a
613.591	0.064	1227182	keystroke_i	i	n/a
613.7025	0.152	1227405	keystroke_e	e	n/a
613.9985	0.144	1227997	keystroke_s	s	n/a
614.3985	0.12	1228797	keystroke_e	e	n/a
614.6065	0.104	1229213	keystroke_l	l	n/a
614.9585	0.08	1229917	keystroke_Key.space	Key.space	n/a
615.5825	0.064	1231165	keystroke_l	l	n/a
615.719	0.112	1231438	keystroke_e	e	n/a
616.031	0.088	1232062	keystroke_a	a	n/a
616.135	0.096	1232270	keystroke_d	d	n/a
616.311	0.12	1232622	keystroke_e	e	n/a
616.439	0.096	1232878	keystroke_r	r	n/a
616.671	0.112	1233342	keystroke_Key.space	Key.space	n/a
616.903	0.088	1233806	keystroke_o	o	n/a
617.175	0.08	1234350	keystroke_v	v	n/a
617.343	0.12	1234686	keystroke_e	e	n/a
617.591	0.088	1235182	keystroke_n	n	n/a
617.863	0.0955	1235726	keystroke_Key.enter	Key.enter	n/a
617.9705	9.428	1235941	prompt	n/a	postage syndication chicken stamps\n
618.9345	0.088	1237869	keystroke_p	p	n/a
619.135	0.08	1238270	keystroke_o	o	n/a
619.327	0.112	1238654	keystroke_s	s	n/a
619.503	0.064	1239006	keystroke_t	t	n/a
619.727	0.0715	1239454	keystroke_a	a	n/a
619.9025	0.088	1239805	keystroke_g	g	n/a
620.0475	0.1355	1240095	keystroke_e	e	n/a
620.31	0.088	1240620	keystroke_Key.space	Key.space	n/a
621.0705	0.128	1242141	keystroke_s	s	n/a
621.2145	0.072	1242429	keystroke_y	y	n/a
621.4305	0.1045	1242861	keystroke_n	n	n/a
621.6865	0.096	1243373	keystroke_d	d	n/a
621.8225	0.088	1243645	keystroke_i	i	n/a
622.0705	0.104	1244141	keystroke_c	c	n/a
622.2385	0.096	1244477	keystroke_a	a	n/a
622.367	0.1035	1244734	keystroke_t	t	n/a
622.7585	0.088	1245517	keystroke_i	i	n/a
622.959	0.096	1245918	keystroke_o	o	n/a
623.182	0.104	1246364	keystroke_n	n	n/a
623.422	0.104	1246844	keystroke_Key.space	Key.space	n/a
623.815	0.111	1247630	keystroke_c	c	n/a
623.974	0.0965	1247948	keystroke_h	h	n/a
624.1585	0.0885	1248317	keystroke_i	i	n/a
624.3985	0.136	1248797	keystroke_c	c	n/a
624.6145	0.0805	1249229	keystroke_k	k	n/a
624.8555	0.1025	1249711	keystroke_e	e	n/a
625.0945	0.0955	1250189	keystroke_n	n	n/a
625.3505	0.096	1250701	keystroke_Key.space	Key.space	n/a
625.9435	0.127	1251887	keystroke_s	s	n/a
626.1105	0.064	1252221	keystroke_t	t	n/a
626.4225	0.12	1252845	keystroke_a	a	n/a
626.6065	0.112	1253213	keystroke_m	m	n/a
626.8705	0.096	1253741	keystroke_p	p	n/a
627.0545	0.16	1254109	keystroke_s	s	n/a
627.3025	0.088	1254605	keystroke_Key.enter	Key.enter	n/a
627.4025	9.787	1254805	prompt	n/a	depends reply powell geography\n
628.2705	0.136	1256541	keystroke_d	d	n/a
628.5515	0.135	1257103	keystroke_e	e	n/a
628.7105	0.064	1257421	keystroke_p	p	n/a
628.8465	0.136	1257693	keystroke_e	e	n/a
629.0705	0.088	1258141	keystroke_n	n	n/a
629.4065	0.0875	1258813	keystroke_d	d	n/a
629.655	0.144	1259310	keystroke_s	s	n/a
629.846	0.096	1259692	keystroke_Key.space	Key.space	n/a
630.398	0.08	1260796	keystroke_r	r	n/a
630.559	0.127	1261118	keystroke_e	e	n/a
630.71	0.128	1261420	keystroke_p	p	n/a
630.927	0.119	1261854	keystroke_l	l	n/a
631.2305	0.104	1262461	keystroke_y	y	n/a
631.599	0.1195	1263198	keystroke_Key.space	Key.space	n/a
632.0225	0.104	1264045	keystroke_p	p	n/a
632.2545	0.072	1264509	keystroke_o	o	n/a
632.4385	0.136	1264877	keystroke_w	w	n/a
632.6945	0.144	1265389	keystroke_e	e	n/a
632.959	0.071	1265918	keystroke_l	l	n/a
633.135	0.0955	1266270	keystroke_l	l	n/a
633.4385	0.096	1266877	keystroke_Key.space	Key.space	n/a
634.1105	0.056	1268221	keystroke_g	g	n/a
634.3025	0.12	1268605	keystroke_e	e	n/a
634.4945	0.096	1268989	keystroke_o	o	n/a
634.8785	0.104	1269757	keystroke_g	g	n/a
635.1425	0.072	1270285	keystroke_r	r	n/a
635.358	0.12	1270716	keystroke_a	a	n/a
635.526	0.12	1271052	keystroke_p	p	n/a
635.894	0.112	1271788	keystroke_h	h	n/a
636.094	0.1045	1272188	keystroke_y	y	n/a
637.07	0.1125	1274140	keystroke_Key.enter	Key.enter	n/a
637.1935	14.036	1274387	prompt	n/a	hartford europe workforce departmental\n
638.3905	0.096	1276781	keystroke_h	h	n/a
638.5585	0.088	1277117	keystroke_a	a	n/a
638.6785	0.072	1277357	keystroke_r	r	n/a
638.8865	0.072	1277773	keystroke_t	t	n/a
639.0865	0.096	1278173	keystroke_f	f	n/a
639.4945	0.104	1278989	keystroke_o	o	n/a
640.1985	0.144	1280397	keystroke_r	r	n/a
640.4945	0.16	1280989	keystroke_d	d	n/a
640.7825	0.128	1281565	keystroke_Key.space	Key.space	n/a
641.382	0.144	1282764	keystroke_e	e	n/a
642.174	0.08	1284348	keystroke_u	u	n/a
642.438	0.104	1284876	keystroke_r	r	n/a
642.766	0.08	1285532	keystroke_o	o	n/a
642.967	0.088	1285934	keystroke_p	p	n/a
643.231	0.112	1286462	keystroke_e	e	n/a
643.463	0.088	1286926	keystroke_Key.space	Key.space	n/a
643.9825	0.112	1287965	keystroke_w	w	n/a
644.1585	0.056	1288317	keystroke_o	o	n/a
644.3185	0.12	1288637	keystroke_r	r	n/a
644.6065	0.08	1289213	keystroke_k	k	n/a
645.0385	0.12	1290077	keystroke_f	f	n/a
645.207	0.0875	1290414	keystroke_o	o	n/a
645.5185	0.088	1291037	keystroke_r	r	n/a
645.719	0.1035	1291438	keystroke_c	c	n/a
645.8705	0.128	1291741	keystroke_e	e	n/a
646.1665	0.088	1292333	keystroke_Key.space	Key.space	n/a
646.6385	0.144	1293277	keystroke_d	d	n/a
646.9345	0.136	1293869	keystroke_e	e	n/a
647.1745	0.088	1294349	keystroke_p	p	n/a
647.431	0.064	1294862	keystroke_a	a	n/a
647.6465	0.088	1295293	keystroke_r	r	n/a
647.831	0.072	1295662	keystroke_t	t	n/a
648.1345	0.096	1296269	keystroke_m	m	n/a
648.2545	0.128	1296509	keystroke_e	e	n/a
648.3585	0.096	1296717	keystroke_n	n	n/a
648.5905	0.096	1297181	keystroke_t	t	n/a
648.9505	0.072	1297901	keystroke_l	l	n/a
648.9825	0.152	1297965	keystroke_a	a	n/a
649.7825	0.12	1299565	keystroke_Key.backspace	Key.backspace	n/a
649.9825	0.072	1299965	keystroke_Key.backspace	Key.backspace	n/a
650.6785	0.152	1301357	keystroke_a	a	n/a
650.8945	0.088	1301789	keystroke_l	l	n/a
651.1345	0.088	1302269	keystroke_Key.enter	Key.enter	n/a
651.233	10.469	1302466	prompt	n/a	caribbean devil sons surrounding\n
652.5345	0.08	1305069	keystroke_c	c	n/a
652.6705	0.12	1305341	keystroke_a	a	n/a
652.7905	0.0725	1305581	keystroke_r	r	n/a
653.0385	0.104	1306077	keystroke_i	i	n/a
653.822	0.168	1307644	keystroke_b	b	n/a
654.502	0.088	1309004	keystroke_b	b	n/a
654.758	0.112	1309516	keystroke_e	e	n/a
655.2065	0.104	1310413	keystroke_a	a	n/a
655.3345	0.064	1310669	keystroke_n	n	n/a
655.5025	0.112	1311005	keystroke_Key.space	Key.space	n/a
655.7025	0.128	1311405	keystroke_d	d	n/a
655.9585	0.128	1311917	keystroke_e	e	n/a
656.1025	0.104	1312205	keystroke_v	v	n/a
656.3265	0.12	1312653	keystroke_i	i	n/a
656.6065	0.111	1313213	keystroke_l	l	n/a
656.975	0.095	1313950	keystroke_Key.space	Key.space	n/a
657.7025	0.136	1315405	keystroke_s	s	n/a
657.8945	0.0715	1315789	keystroke_o	o	n/a
658.246	0.08	1316492	keystroke_n	n	n/a
658.534	0.128	1317068	keystroke_s	s	n/a
658.71	0.104	1317420	keystroke_Key.space	Key.space	n/a
659.03	0.112	1318060	keystroke_s	s	n/a
659.2145	0.0955	1318429	keystroke_u	u	n/a
659.478	0.08	1318956	keystroke_r	r	n/a
659.63	0.088	1319260	keystroke_r	r	n/a
659.862	0.128	1319724	keystroke_o	o	n/a
660.086	0.088	1320172	keystroke_u	u	n/a
660.302	0.096	1320604	keystroke_n	n	n/a
660.454	0.144	1320908	keystroke_d	d	n/a
660.622	0.12	1321244	keystroke_i	i	n/a
660.822	0.128	1321644	keystroke_n	n	n/a
661.054	0.104	1322108	keystroke_g	g	n/a
661.558	0.1365	1323116	keystroke_Key.enter	Key.enter	n/a
661.706	10.348	1323412	prompt	n/a	lancaster chairman where's announces\n
662.7105	0.072	1325421	keystroke_l	l	n/a
662.9345	0.088	1325869	keystroke_a	a	n/a
663.0545	0.088	1326109	keystroke_n	n	n/a
663.3895	0.088	1326779	keystroke_c	c	n/a
663.5655	0.104	1327131	keystroke_a	a	n/a
663.8055	0.161	1327611	keystroke_s	s	n/a
664.0295	0.08	1328059	keystroke_t	t	n/a
664.1495	0.144	1328299	keystroke_e	e	n/a
664.3175	0.112	1328635	keystroke_r	r	n/a
664.7015	0.097	1329403	keystroke_Key.space	Key.space	n/a
665.1505	0.1355	1330301	keystroke_c	c	n/a
665.342	0.072	1330684	keystroke_h	h	n/a
665.534	0.12	1331068	keystroke_a	a	n/a
665.646	0.112	1331292	keystroke_i	i	n/a
665.918	0.072	1331836	keystroke_r	r	n/a
666.27	0.096	1332540	keystroke_m	m	n/a
666.4625	0.12	1332925	keystroke_a	a	n/a
666.6225	0.088	1333245	keystroke_n	n	n/a
666.8625	0.104	1333725	keystroke_Key.space	Key.space	n/a
667.3985	0.144	1334797	keystroke_w	w	n/a
667.5505	0.08	1335101	keystroke_h	h	n/a
667.6865	0.168	1335373	keystroke_e	e	n/a
667.9505	0.087	1335901	keystroke_r	r	n/a
668.4775	0.081	1336955	keystroke_e	e	n/a
668.7175	0.08	1337435	keystroke_'	'	n/a
668.9095	0.136	1337819	keystroke_s	s	n/a
669.1015	0.096	1338203	keystroke_Key.space	Key.space	n/a
669.6215	0.1365	1339243	keystroke_a	a	n/a
670.302	0.056	1340604	keystroke_n	n	n/a
670.454	0.096	1340908	keystroke_n	n	n/a
670.654	0.104	1341308	keystroke_o	o	n/a
670.87	0.088	1341740	keystroke_u	u	n/a
671.102	0.096	1342204	keystroke_n	n	n/a
671.414	0.072	1342828	keystroke_c	c	n/a
671.518	0.112	1343036	keystroke_e	e	n/a
671.7585	0.175	1343517	keystroke_s	s	n/a
671.9255	0.12	1343851	keystroke_Key.enter	Key.enter	n/a
672.058	10.1075	1344116	prompt	n/a	districts regulated actors designed\n
673.27	0.072	1346540	keystroke_d	d	n/a
673.406	0.072	1346812	keystroke_i	i	n/a
673.55	0.104	1347100	keystroke_s	s	n/a
673.71	0.104	1347420	keystroke_t	t	n/a
673.902	0.096	1347804	keystroke_r	r	n/a
674.214	0.096	1348428	keystroke_i	i	n/a
674.414	0.104	1348828	keystroke_c	c	n/a
674.694	0.104	1349388	keystroke_t	t	n/a
674.966	0.1275	1349932	keystroke_s	s	n/a
675.2135	0.096	1350427	keystroke_Key.space	Key.space	n/a
675.7815	0.065	1351563	keystroke_r	r	n/a
675.9975	0.1605	1351995	keystroke_e	e	n/a
676.294	0.112	1352588	keystroke_g	g	n/a
676.454	0.088	1352908	keystroke_u	u	n/a
676.694	0.096	1353388	keystroke_l	l	n/a
676.886	0.096	1353772	keystroke_a	a	n/a
677.086	0.096	1354172	keystroke_t	t	n/a
677.214	0.1275	1354428	keystroke_e	e	n/a
677.3975	0.12	1354795	keystroke_d	d	n/a
677.7335	0.096	1355467	keystroke_Key.space	Key.space	n/a
678.118	0.12	1356236	keystroke_a	a	n/a
678.23	0.112	1356460	keystroke_c	c	n/a
678.422	0.088	1356844	keystroke_t	t	n/a
678.726	0.088	1357452	keystroke_o	o	n/a
679.07	0.08	1358140	keystroke_r	r	n/a
679.23	0.1435	1358460	keystroke_s	s	n/a
679.4455	0.096	1358891	keystroke_Key.space	Key.space	n/a
680.1015	0.152	1360203	keystroke_d	d	n/a
680.3895	0.112	1360779	keystroke_e	e	n/a
680.6625	0.151	1361325	keystroke_s	s	n/a
680.7895	0.08	1361579	keystroke_i	i	n/a
681.1665	0.071	1362333	keystroke_g	g	n/a
681.478	0.08	1362956	keystroke_n	n	n/a
681.646	0.104	1363292	keystroke_e	e	n/a
681.87	0.176	1363740	keystroke_d	d	n/a
682.046	0.112	1364092	keystroke_Key.enter	Key.enter	n/a
682.171	10.09	1364342	prompt	n/a	release impression within still\n
683.3175	0.064	1366635	keystroke_r	r	n/a
683.4775	0.104	1366955	keystroke_e	e	n/a
683.6615	0.104	1367323	keystroke_l	l	n/a
683.9975	0.088	1367995	keystroke_e	e	n/a
684.1575	0.144	1368315	keystroke_a	a	n/a
684.2375	0.16	1368475	keystroke_s	s	n/a
684.3735	0.12	1368747	keystroke_e	e	n/a
684.6935	0.152	1369387	keystroke_Key.space	Key.space	n/a
685.1495	0.096	1370299	keystroke_i	i	n/a
685.39	0.112	1370780	keystroke_m	m	n/a
685.629	0.1045	1371258	keystroke_p	p	n/a
686.0055	0.072	1372011	keystroke_r	r	n/a
686.1415	0.112	1372283	keystroke_e	e	n/a
686.4135	0.12	1372827	keystroke_s	s	n/a
686.6375	0.192	1373275	keystroke_s	s	n/a
686.8135	0.08	1373627	keystroke_i	i	n/a
686.9975	0.104	1373995	keystroke_o	o	n/a
687.2055	0.096	1374411	keystroke_n	n	n/a
687.4455	0.096	1374891	keystroke_Key.space	Key.space	n/a
688.022	0.1515	1376044	keystroke_w	w	n/a
688.1895	0.104	1376379	keystroke_i	i	n/a
688.4455	0.096	1376891	keystroke_t	t	n/a
688.6625	0.1345	1377325	keystroke_h	h	n/a
689.646	0.055	1379292	keystroke_u	u	n/a
690.349	0.12	1380698	keystroke_Key.backspace	Key.backspace	n/a
690.605	0.096	1381210	keystroke_i	i	n/a
690.805	0.088	1381610	keystroke_n	n	n/a
690.989	0.096	1381978	keystroke_Key.space	Key.space	n/a
691.126	0.151	1382252	keystroke_s	s	n/a
691.269	0.072	1382538	keystroke_t	t	n/a
691.4935	0.08	1382987	keystroke_i	i	n/a
691.7495	0.08	1383499	keystroke_l	l	n/a
691.9175	0.104	1383835	keystroke_l	l	n/a
692.1655	0.088	1384331	keystroke_Key.enter	Key.enter	n/a
692.265	8.6285	1384530	prompt	n/a	allocated holds fitness newest\n
693.19	0.136	1386380	keystroke_a	a	n/a
693.4615	0.08	1386923	keystroke_l	l	n/a
693.6375	0.064	1387275	keystroke_l	l	n/a
693.8055	0.056	1387611	keystroke_o	o	n/a
694.1415	0.096	1388283	keystroke_c	c	n/a
694.3335	0.112	1388667	keystroke_a	a	n/a
694.5255	0.112	1389051	keystroke_t	t	n/a
694.7175	0.096	1389435	keystroke_e	e	n/a
694.9415	0.088	1389883	keystroke_d	d	n/a
695.2215	0.096	1390443	keystroke_Key.space	Key.space	n/a
695.8375	0.072	1391675	keystroke_h	h	n/a
696.0295	0.088	1392059	keystroke_o	o	n/a
696.2615	0.088	1392523	keystroke_l	l	n/a
696.4135	0.088	1392827	keystroke_d	d	n/a
696.6695	0.12	1393339	keystroke_s	s	n/a
696.8855	0.096	1393771	keystroke_Key.space	Key.space	n/a
697.5735	0.072	1395147	keystroke_f	f	n/a
697.6775	0.096	1395355	keystroke_i	i	n/a
697.9175	0.072	1395835	keystroke_t	t	n/a
698.1895	0.088	1396379	keystroke_n	n	n/a
698.3415	0.104	1396683	keystroke_e	e	n/a
698.5815	0.176	1397163	keystroke_s	s	n/a
698.8535	0.152	1397707	keystroke_s	s	n/a
699.0455	0.112	1398091	keystroke_Key.space	Key.space	n/a
699.406	0.063	1398812	keystroke_n	n	n/a
699.534	0.1435	1399068	keystroke_e	e	n/a
699.8135	0.144	1399627	keystroke_w	w	n/a
700.0855	0.112	1400171	keystroke_e	e	n/a
700.3255	0.176	1400651	keystroke_s	s	n/a
700.4935	0.072	1400987	keystroke_t	t	n/a
700.7975	0.088	1401595	keystroke_Key.enter	Key.enter	n/a
700.8975	9.7395	1401795	prompt	n/a	impression fare stranger consideration\n
701.9575	0.072	1403915	keystroke_i	i	n/a
702.1495	0.112	1404299	keystroke_m	m	n/a
702.3655	0.08	1404731	keystroke_p	p	n/a
702.7175	0.064	1405435	keystroke_r	r	n/a
702.8135	0.128	1405627	keystroke_e	e	n/a
703.1175	0.112	1406235	keystroke_s	s	n/a
703.3335	0.176	1406667	keystroke_s	s	n/a
703.4935	0.088	1406987	keystroke_i	i	n/a
703.6695	0.112	1407339	keystroke_o	o	n/a
703.9095	0.088	1407819	keystroke_n	n	n/a
704.1175	0.12	1408235	keystroke_Key.space	Key.space	n/a
704.5655	0.072	1409131	keystroke_f	f	n/a
704.6695	0.128	1409339	keystroke_a	a	n/a
704.8055	0.088	1409611	keystroke_r	r	n/a
704.9815	0.136	1409963	keystroke_e	e	n/a
705.1415	0.112	1410283	keystroke_Key.space	Key.space	n/a
705.2935	0.16	1410587	keystroke_s	s	n/a
705.4215	0.088	1410843	keystroke_t	t	n/a
705.5735	0.088	1411147	keystroke_r	r	n/a
705.926	0.104	1411852	keystroke_a	a	n/a
706.046	0.088	1412092	keystroke_n	n	n/a
706.278	0.088	1412556	keystroke_g	g	n/a
706.398	0.144	1412796	keystroke_e	e	n/a
706.582	0.096	1413164	keystroke_r	r	n/a
706.941	0.096	1413882	keystroke_Key.space	Key.space	n/a
707.573	0.136	1415146	keystroke_c	c	n/a
707.7495	0.08	1415499	keystroke_o	o	n/a
707.941	0.104	1415882	keystroke_n	n	n/a
708.485	0.16	1416970	keystroke_s	s	n/a
708.653	0.064	1417306	keystroke_i	i	n/a
708.893	0.096	1417786	keystroke_d	d	n/a
709.021	0.088	1418042	keystroke_e	e	n/a
709.157	0.096	1418314	keystroke_r	r	n/a
709.4215	0.112	1418843	keystroke_a	a	n/a
709.5975	0.08	1419195	keystroke_t	t	n/a
709.925	0.088	1419850	keystroke_i	i	n/a
710.109	0.104	1420218	keystroke_o	o	n/a
710.286	0.111	1420572	keystroke_n	n	n/a
710.5495	0.08	1421099	keystroke_Key.enter	Key.enter	n/a
710.641	10.54	1421282	prompt	n/a	relationship across experiencing winter\n
711.5175	0.112	1423035	keystroke_r	r	n/a
711.7655	0.112	1423531	keystroke_e	e	n/a
711.9175	0.088	1423835	keystroke_l	l	n/a
712.1735	0.112	1424347	keystroke_a	a	n/a
712.3655	0.072	1424731	keystroke_t	t	n/a
712.5975	0.096	1425195	keystroke_i	i	n/a
712.8135	0.088	1425627	keystroke_o	o	n/a
713.045	0.08	1426090	keystroke_n	n	n/a
713.357	0.168	1426714	keystroke_s	s	n/a
713.533	0.136	1427066	keystroke_h	h	n/a
713.781	0.112	1427562	keystroke_i	i	n/a
714.4535	0.1035	1428907	keystroke_p	p	n/a
714.765	0.104	1429530	keystroke_Key.space	Key.space	n/a
715.077	0.104	1430154	keystroke_a	a	n/a
715.165	0.112	1430330	keystroke_c	c	n/a
715.333	0.0885	1430666	keystroke_r	r	n/a
715.5975	0.128	1431195	keystroke_o	o	n/a
715.7735	0.144	1431547	keystroke_s	s	n/a
716.0135	0.16	1432027	keystroke_s	s	n/a
716.2215	0.096	1432443	keystroke_Key.space	Key.space	n/a
716.5655	0.104	1433131	keystroke_e	e	n/a
716.9255	0.112	1433851	keystroke_x	x	n/a
717.1095	0.08	1434219	keystroke_p	p	n/a
717.2615	0.136	1434523	keystroke_e	e	n/a
717.453	0.08	1434906	keystroke_r	r	n/a
717.701	0.104	1435402	keystroke_i	i	n/a
717.854	0.1515	1435708	keystroke_e	e	n/a
718.0375	0.104	1436075	keystroke_n	n	n/a
718.4055	0.08	1436811	keystroke_c	c	n/a
718.6295	0.112	1437259	keystroke_i	i	n/a
718.8455	0.112	1437691	keystroke_n	n	n/a
719.0615	0.08	1438123	keystroke_g	g	n/a
719.3095	0.104	1438619	keystroke_Key.space	Key.space	n/a
719.9415	0.12	1439883	keystroke_w	w	n/a
720.0615	0.072	1440123	keystroke_i	i	n/a
720.2215	0.12	1440443	keystroke_n	n	n/a
720.5325	0.089	1441065	keystroke_t	t	n/a
720.6375	0.151	1441275	keystroke_e	e	n/a
720.7655	0.088	1441531	keystroke_r	r	n/a
721.0855	0.087	1442171	keystroke_Key.enter	Key.enter	n/a
721.185	8.6355	1442370	prompt	n/a	silent acre risks performer\n
722.205	0.153	1444410	keystroke_s	s	n/a
722.477	0.072	1444954	keystroke_i	i	n/a
722.701	0.064	1445402	keystroke_l	l	n/a
722.853	0.128	1445706	keystroke_e	e	n/a
722.997	0.104	1445994	keystroke_n	n	n/a
723.277	0.08	1446554	keystroke_t	t	n/a
723.5895	0.096	1447179	keystroke_Key.space	Key.space	n/a
724.3015	0.144	1448603	keystroke_a	a	n/a
724.4135	0.112	1448827	keystroke_c	c	n/a
724.5735	0.128	1449147	keystroke_r	r	n/a
724.7975	0.104	1449595	keystroke_e	e	n/a
725.2295	0.103	1450459	keystroke_Key.space	Key.space	n/a
725.973	0.072	1451946	keystroke_r	r	n/a
726.213	0.064	1452426	keystroke_i	i	n/a
726.405	0.112	1452810	keystroke_s	s	n/a
726.589	0.088	1453178	keystroke_k	k	n/a
726.765	0.128	1453530	keystroke_s	s	n/a
727.029	0.088	1454058	keystroke_Key.space	Key.space	n/a
727.693	0.064	1455386	keystroke_p	p	n/a
727.821	0.1525	1455642	keystroke_e	e	n/a
728.0615	0.088	1456123	keystroke_r	r	n/a
728.2375	0.08	1456475	keystroke_f	f	n/a
728.477	0.104	1456954	keystroke_o	o	n/a
728.621	0.144	1457242	keystroke_r	r	n/a
728.861	0.088	1457722	keystroke_m	m	n/a
729.069	0.128	1458138	keystroke_e	e	n/a
729.229	0.096	1458458	keystroke_r	r	n/a
729.677	0.1365	1459354	keystroke_Key.enter	Key.enter	n/a
729.825	9.611	1459650	prompt	n/a	latex regulation couples send\n
730.7655	0.063	1461531	keystroke_l	l	n/a
730.9245	0.104	1461849	keystroke_a	a	n/a
731.1165	0.08	1462233	keystroke_t	t	n/a
731.2925	0.104	1462585	keystroke_e	e	n/a
732.1895	0.12	1464379	keystroke_x	x	n/a
732.3495	0.096	1464699	keystroke_Key.space	Key.space	n/a
733.061	0.056	1466122	keystroke_r	r	n/a
733.213	0.128	1466426	keystroke_e	e	n/a
733.445	0.0805	1466890	keystroke_g	g	n/a
733.5975	0.064	1467195	keystroke_u	u	n/a
734.581	0.08	1469162	keystroke_l	l	n/a
734.765	0.12	1469530	keystroke_a	a	n/a
734.925	0.088	1469850	keystroke_t	t	n/a
735.133	0.088	1470266	keystroke_i	i	n/a
735.333	0.104	1470666	keystroke_o	o	n/a
735.685	0.1125	1471370	keystroke_n	n	n/a
736.0615	0.088	1472123	keystroke_Key.space	Key.space	n/a
736.6535	0.104	1473307	keystroke_c	c	n/a
736.7735	0.096	1473547	keystroke_o	o	n/a
736.9815	0.072	1473963	keystroke_u	u	n/a
737.4685	0.0885	1474937	keystroke_p	p	n/a
737.685	0.0645	1475370	keystroke_l	l	n/a
737.8045	0.112	1475609	keystroke_e	e	n/a
738.0845	0.081	1476169	keystroke_s	s	n/a
738.1725	0.089	1476345	keystroke_Key.space	Key.space	n/a
738.3575	0.119	1476715	keystroke_s	s	n/a
738.6615	0.151	1477323	keystroke_e	e	n/a
738.9885	0.08	1477977	keystroke_n	n	n/a
739.1325	0.136	1478265	keystroke_d	d	n/a
739.3325	0.096	1478665	keystroke_Key.enter	Key.enter	n/a
739.44	12.246	1478880	prompt	n/a	exercises investigators naples courtesy\n
740.4455	0.159	1480891	keystroke_e	e	n/a
740.8445	0.088	1481689	keystroke_x	x	n/a
741.0765	0.128	1482153	keystroke_e	e	n/a
741.7005	0.08	1483401	keystroke_r	r	n/a
741.8925	0.112	1483785	keystroke_c	c	n/a
742.2685	0.088	1484537	keystroke_i	i	n/a
742.4845	0.104	1484969	keystroke_s	s	n/a
742.7325	0.12	1485465	keystroke_e	e	n/a
742.989	0.16	1485978	keystroke_s	s	n/a
743.205	0.119	1486410	keystroke_Key.space	Key.space	n/a
743.6525	0.096	1487305	keystroke_i	i	n/a
743.8525	0.112	1487705	keystroke_n	n	n/a
744.2365	0.064	1488473	keystroke_v	v	n/a
744.3805	0.112	1488761	keystroke_e	e	n/a
744.6365	0.168	1489273	keystroke_s	s	n/a
744.7965	0.08	1489593	keystroke_t	t	n/a
745.0135	0.111	1490027	keystroke_i	i	n/a
745.2685	0.088	1490537	keystroke_g	g	n/a
745.4525	0.096	1490905	keystroke_a	a	n/a
746.0685	0.072	1492137	keystroke_t	t	n/a
746.3965	0.12	1492793	keystroke_o	o	n/a
746.7885	0.08	1493577	keystroke_r	r	n/a
746.9405	0.152	1493881	keystroke_s	s	n/a
747.2205	0.096	1494441	keystroke_Key.space	Key.space	n/a
747.7565	0.072	1495513	keystroke_n	n	n/a
748.069	0.088	1496138	keystroke_a	a	n/a
748.269	0.096	1496538	keystroke_p	p	n/a
748.5085	0.072	1497017	keystroke_l	l	n/a
748.6605	0.112	1497321	keystroke_e	e	n/a
748.9085	0.144	1497817	keystroke_s	s	n/a
749.1325	0.0885	1498265	keystroke_Key.space	Key.space	n/a
749.7485	0.1445	1499497	keystroke_c	c	n/a
749.909	0.112	1499818	keystroke_o	o	n/a
750.141	0.104	1500282	keystroke_u	u	n/a
750.4845	0.08	1500969	keystroke_r	r	n/a
750.6765	0.08	1501353	keystroke_t	t	n/a
750.8525	0.136	1501705	keystroke_e	e	n/a
751.1325	0.16	1502265	keystroke_s	s	n/a
751.2765	0.096	1502553	keystroke_y	y	n/a
751.5805	0.096	1503161	keystroke_Key.enter	Key.enter	n/a
751.691	9.7455	1503382	prompt	n/a	route diverse synopsis biology\n
752.869	0.1355	1505738	keystroke_r	r	n/a
752.9805	0.088	1505961	keystroke_o	o	n/a
753.1885	0.088	1506377	keystroke_u	u	n/a
753.6125	0.064	1507225	keystroke_t	t	n/a
753.7565	0.144	1507513	keystroke_e	e	n/a
754.0205	0.096	1508041	keystroke_Key.space	Key.space	n/a
754.828	0.152	1509656	keystroke_d	d	n/a
755.021	0.079	1510042	keystroke_i	i	n/a
755.3	0.088	1510600	keystroke_v	v	n/a
755.428	0.088	1510856	keystroke_e	e	n/a
755.6045	0.072	1511209	keystroke_r	r	n/a
755.7885	0.12	1511577	keystroke_s	s	n/a
756.0445	0.128	1512089	keystroke_e	e	n/a
756.2685	0.088	1512537	keystroke_Key.space	Key.space	n/a
756.7485	0.144	1513497	keystroke_s	s	n/a
757.085	0.064	1514170	keystroke_y	y	n/a
757.549	0.096	1515098	keystroke_n	n	n/a
757.9965	0.072	1515993	keystroke_o	o	n/a
758.1885	0.08	1516377	keystroke_p	p	n/a
758.6365	0.1605	1517273	keystroke_s	s	n/a
758.845	0.072	1517690	keystroke_i	i	n/a
758.965	0.16	1517930	keystroke_s	s	n/a
759.212	0.097	1518424	keystroke_Key.space	Key.space	n/a
759.685	0.096	1519370	keystroke_b	b	n/a
759.901	0.088	1519802	keystroke_i	i	n/a
760.133	0.064	1520266	keystroke_o	o	n/a
760.341	0.096	1520682	keystroke_l	l	n/a
760.525	0.096	1521050	keystroke_o	o	n/a
760.885	0.12	1521770	keystroke_g	g	n/a
761.045	0.096	1522090	keystroke_y	y	n/a
761.349	0.08	1522698	keystroke_Key.enter	Key.enter	n/a
761.4415	11.6665	1522883	prompt	n/a	changelog finnish holly priest\n
762.6525	0.128	1525305	keystroke_c	c	n/a
762.8925	0.0795	1525785	keystroke_h	h	n/a
763.268	0.112	1526536	keystroke_a	a	n/a
763.388	0.104	1526776	keystroke_n	n	n/a
764.1325	0.064	1528265	keystroke_g	g	n/a
764.2445	0.152	1528489	keystroke_e	e	n/a
764.5325	0.088	1529065	keystroke_l	l	n/a
764.7565	0.08	1529513	keystroke_o	o	n/a
765.2045	0.112	1530409	keystroke_g	g	n/a
765.4125	0.096	1530825	keystroke_Key.space	Key.space	n/a
766.5	0.161	1533000	keystroke_f	f	n/a
766.717	0.119	1533434	keystroke_i	i	n/a
767.684	0.056	1535368	keystroke_n	n	n/a
767.828	0.104	1535656	keystroke_n	n	n/a
768.012	0.112	1536024	keystroke_i	i	n/a
768.228	0.112	1536456	keystroke_s	s	n/a
768.452	0.088	1536904	keystroke_h	h	n/a
768.74	0.096	1537480	keystroke_Key.space	Key.space	n/a
769.373	0.08	1538746	keystroke_h	h	n/a
769.613	0.071	1539226	keystroke_o	o	n/a
769.9325	0.056	1539865	keystroke_l	l	n/a
770.0845	0.096	1540169	keystroke_l	l	n/a
770.4285	0.096	1540857	keystroke_y	y	n/a
770.7485	0.0955	1541497	keystroke_Key.space	Key.space	n/a
771.364	0.072	1542728	keystroke_p	p	n/a
771.6445	0.088	1543289	keystroke_r	r	n/a
771.8685	0.0885	1543737	keystroke_i	i	n/a
772.1	0.097	1544200	keystroke_e	e	n/a
772.3645	0.168	1544729	keystroke_s	s	n/a
772.5245	0.08	1545049	keystroke_t	t	n/a
772.964	0.136	1545928	keystroke_Key.enter	Key.enter	n/a
773.112	11.764	1546224	prompt	n/a	mills mayor withdrawal telecommunications\n
