onset	duration	sample	value	key	prompt_text
5.181	15.1065	10362	prompt	n/a	the quick brown fox jumps over a lazy dog\n
9.153	0.075	18306	keystroke_f	f	n/a
9.198	0.061	18396	keystroke_d	d	n/a
9.213	0.03	18426	keystroke_s	s	n/a
9.378	0.105	18756	keystroke_d	d	n/a
9.393	0.075	18786	keystroke_s	s	n/a
9.394	0.06	18788	keystroke_j	j	n/a
9.408	0.03	18816	keystroke_f	f	n/a
9.409	0.045	18818	keystroke_k	k	n/a
9.423	0.016	18846	keystroke_l	l	n/a
10.8635	0.045	21727	keystroke_Key.backspace	Key.backspace	n/a
11.0135	0.03	22027	keystroke_Key.backspace	Key.backspace	n/a
11.1635	0.03	22327	keystroke_Key.backspace	Key.backspace	n/a
11.2985	0.045	22597	keystroke_Key.backspace	Key.backspace	n/a
12.364	0.09	24728	keystroke_t	t	n/a
12.664	0.09	25328	keystroke_h	h	n/a
12.8285	0.075	25657	keystroke_e	e	n/a
12.9335	0.075	25867	keystroke_Key.space	Key.space	n/a
13.0685	0.135	26137	keystroke_q	q	n/a
13.1885	0.165	26377	keystroke_u	u	n/a
13.2785	0.12	26557	keystroke_i	i	n/a
13.4285	0.09	26857	keystroke_c	c	n/a
13.5485	0.135	27097	keystroke_k	k	n/a
13.6535	0.12	27307	keystroke_Key.space	Key.space	n/a
13.8485	0.06	27697	keystroke_r	r	n/a
13.8785	0.075	27757	keystroke_b	b	n/a
14.8085	0.045	29617	keystroke_Key.backspace	Key.backspace	n/a
14.8835	0.06	29767	keystroke_Key.backspace	Key.backspace	n/a
15.1535	0.075	30307	keystroke_b	b	n/a
15.2885	0.06	30577	keystroke_r	r	n/a
15.3785	0.09	30757	keystroke_o	o	n/a
15.4835	0.135	30967	keystroke_w	w	n/a
15.6335	0.06	31267	keystroke_n	n	n/a
15.7235	0.105	31447	keystroke_Key.space	Key.space	n/a
15.9035	0.0905	31807	keystroke_f	f	n/a
16.009	0.09	32018	keystroke_o	o	n/a
16.3385	0.09	32677	keystroke_x	x	n/a
16.4735	0.12	32947	keystroke_Key.space	Key.space	n/a
16.6385	0.105	33277	keystroke_h	h	n/a
17.269	0.075	34538	keystroke_Key.backspace	Key.backspace	n/a
17.509	0.075	35018	keystroke_j	j	n/a
17.689	0.045	35378	keystroke_u	u	n/a
17.914	0.03	35828	keystroke_m	m	n/a
17.989	0.09	35978	keystroke_p	p	n/a
18.184	0.12	36368	keystroke_s	s	n/a
18.319	0.09	36638	keystroke_Key.space	Key.space	n/a
18.439	0.135	36878	keystroke_o	o	n/a
18.559	0.15	37118	keystroke_v	v	n/a
18.694	0.12	37388	keystroke_e	e	n/a
18.754	0.09	37508	keystroke_r	r	n/a
18.859	0.06	37718	keystroke_Key.space	Key.space	n/a
18.979	0.105	37958	keystroke_a	a	n/a
19.054	0.12	38108	keystroke_Key.space	Key.space	n/a
19.144	0.105	38288	keystroke_l	l	n/a
19.219	0.075	38438	keystroke_a	a	n/a
19.414	0.09	38828	keystroke_z	z	n/a
19.519	0.075	39038	keystroke_y	y	n/a
19.609	0.105	39218	keystroke_Key.space	Key.space	n/a
19.699	0.135	39398	keystroke_d	d	n/a
19.819	0.09	39638	keystroke_o	o	n/a
19.954	0.09	39908	keystroke_g	g	n/a
20.1935	0.09	40387	keystroke_Key.enter	Key.enter	n/a
20.2925	5.858	40585	prompt	n/a	similar compound dead revised\n
20.8835	0.135	41767	keystroke_s	s	n/a
20.9585	0.075	41917	keystroke_i	i	n/a
21.1385	0.09	42277	keystroke_m	m	n/a
21.2585	0.06	42517	keystroke_i	i	n/a
21.4085	0.105	42817	keystroke_l	l	n/a
21.4685	0.105	42937	keystroke_a	a	n/a
21.6635	0.075	43327	keystroke_r	r	n/a
21.7835	0.075	43567	keystroke_Key.space	Key.space	n/a
21.9035	0.12	43807	keystroke_c	c	n/a
22.0245	0.134	44049	keystroke_o	o	n/a
22.1435	0.075	44287	keystroke_m	m	n/a
22.3385	0.105	44677	keystroke_p	p	n/a
22.4585	0.09	44917	keystroke_o	o	n/a
22.6685	0.09	45337	keystroke_i	i	n/a
23.179	0.03	46358	keystroke_Key.backspace	Key.backspace	n/a
23.374	0.075	46748	keystroke_u	u	n/a
23.599	0.06	47198	keystroke_n	n	n/a
23.674	0.09	47348	keystroke_d	d	n/a
23.764	0.075	47528	keystroke_Key.space	Key.space	n/a
23.884	0.06	47768	keystroke_d	d	n/a
24.049	0.06	48098	keystroke_e	e	n/a
24.2285	0.06	48457	keystroke_a	a	n/a
24.4235	0.0605	48847	keystroke_d	d	n/a
24.499	0.089	48998	keystroke_Key.space	Key.space	n/a
24.709	0.06	49418	keystroke_r	r	n/a
24.8735	0.0605	49747	keystroke_e	e	n/a
25.1285	0.09	50257	keystroke_v	v	n/a
25.2645	0.074	50529	keystroke_i	i	n/a
25.5185	0.091	51037	keystroke_s	s	n/a
25.6535	0.076	51307	keystroke_e	e	n/a
25.8495	0.074	51699	keystroke_d	d	n/a
26.0435	0.1055	52087	keystroke_Key.enter	Key.enter	n/a
26.154	9.0115	52308	prompt	n/a	find rogers participant infections\n
26.779	0.0895	53558	keystroke_f	f	n/a
26.9135	0.105	53827	keystroke_i	i	n/a
27.1085	0.06	54217	keystroke_n	n	n/a
27.2295	0.0895	54459	keystroke_d	d	n/a
27.3785	0.09	54757	keystroke_Key.space	Key.space	n/a
27.724	0.105	55448	keystroke_r	r	n/a
27.904	0.045	55808	keystroke_o	o	n/a
27.994	0.03	55988	keystroke_o	o	n/a
28.2635	0.135	56527	keystroke_g	g	n/a
28.9535	0.06	57907	keystroke_Key.backspace	Key.backspace	n/a
29.104	0.075	58208	keystroke_Key.backspace	Key.backspace	n/a
29.299	0.105	58598	keystroke_g	g	n/a
29.524	0.18	59048	keystroke_e	e	n/a
29.674	0.09	59348	keystroke_r	r	n/a
29.914	0.12	59828	keystroke_s	s	n/a
30.049	0.09	60098	keystroke_Key.space	Key.space	n/a
30.214	0.12	60428	keystroke_p	p	n/a
30.304	0.09	60608	keystroke_a	a	n/a
30.484	0.09	60968	keystroke_r	r	n/a
30.784	0.075	61568	keystroke_t	t	n/a
31.039	0.075	62078	keystroke_i	i	n/a
31.474	0.105	62948	keystroke_c	c	n/a
31.564	0.045	63128	keystroke_i	i	n/a
32.059	0.075	64118	keystroke_p	p	n/a
32.164	0.105	64328	keystroke_a	a	n/a
32.299	0.09	64598	keystroke_n	n	n/a
32.824	0.09	65648	keystroke_t	t	n/a
32.974	0.105	65948	keystroke_Key.space	Key.space	n/a
33.154	0.135	66308	keystroke_i	i	n/a
33.244	0.105	66488	keystroke_n	n	n/a
33.424	0.06	66848	keystroke_f	f	n/a
33.889	0.075	67778	keystroke_e	e	n/a
34.069	0.09	68138	keystroke_c	c	n/a
34.309	0.075	68618	keystroke_t	t	n/a
34.444	0.1945	68888	keystroke_i	i	n/a
34.5935	0.135	69187	keystroke_o	o	n/a
34.6685	0.12	69337	keystroke_n	n	n/a
34.8335	0.12	69667	keystroke_s	s	n/a
35.0885	0.075	70177	keystroke_Key.enter	Key.enter	n/a
35.169	6.6445	70338	prompt	n/a	focused facial sullivan likes\n
35.6735	0.105	71347	keystroke_f	f	n/a
35.8085	0.1055	71617	keystroke_o	o	n/a
35.989	0.105	71978	keystroke_c	c	n/a
36.094	0.0755	72188	keystroke_u	u	n/a
36.1995	0.104	72399	keystroke_s	s	n/a
36.8145	0.09	73629	keystroke_e	e	n/a
37.0845	0.09	74169	keystroke_Key.space	Key.space	n/a
37.4435	0.105	74887	keystroke_Key.backspace	Key.backspace	n/a
37.5335	0.076	75067	keystroke_d	d	n/a
37.6385	0.09	75277	keystroke_Key.space	Key.space	n/a
37.7435	0.09	75487	keystroke_c	c	n/a
37.9395	0.075	75879	keystroke_a	a	n/a
38.3285	0.06	76657	keystroke_Key.backspace	Key.backspace	n/a
38.479	0.09	76958	keystroke_Key.backspace	Key.backspace	n/a
38.539	0.09	77078	keystroke_f	f	n/a
38.704	0.105	77408	keystroke_a	a	n/a
38.944	0.09	77888	keystroke_c	c	n/a
39.049	0.045	78098	keystroke_i	i	n/a
39.169	0.105	78338	keystroke_a	a	n/a
39.304	0.075	78608	keystroke_l	l	n/a
39.454	0.09	78908	keystroke_Key.space	Key.space	n/a
39.6785	0.1045	79357	keystroke_s	s	n/a
39.828	0.0745	79656	keystroke_u	u	n/a
40.0235	0.015	80047	keystroke_l	l	n/a
40.0825	0.0895	80165	keystroke_l	l	n/a
40.468	0.015	80936	keystroke_i	i	n/a
40.5685	0.0425	81137	keystroke_v	v	n/a
40.741	0.0065	81482	keystroke_a	a	n/a
40.748	0.0715	81496	keystroke_n	n	n/a
40.82	0.0765	81640	keystroke_Key.space	Key.space	n/a
41.0465	0.105	82093	keystroke_l	l	n/a
41.1215	0.075	82243	keystroke_i	i	n/a
41.302	0.09	82604	keystroke_k	k	n/a
41.347	0.075	82694	keystroke_e	e	n/a
41.572	0.09	83144	keystroke_s	s	n/a
41.752	0.06	83504	keystroke_Key.enter	Key.enter	n/a
41.819	6.145	83638	prompt	n/a	confident fear parliament port\n
42.307	0.12	84614	keystroke_c	c	n/a
42.428	0.074	84856	keystroke_o	o	n/a
42.577	0.09	85154	keystroke_n	n	n/a
42.8475	0.104	85695	keystroke_f	f	n/a
42.9675	0.09	85935	keystroke_i	i	n/a
43.1315	0.075	86263	keystroke_s	s	n/a
43.612	0.06	87224	keystroke_Key.backspace	Key.backspace	n/a
43.702	0.075	87404	keystroke_d	d	n/a
43.882	0.0595	87764	keystroke_e	e	n/a
43.9715	0.075	87943	keystroke_n	n	n/a
44.1065	0.06	88213	keystroke_t	t	n/a
44.2265	0.105	88453	keystroke_Key.space	Key.space	n/a
44.4065	0.06	88813	keystroke_f	f	n/a
44.8115	0.0605	89623	keystroke_e	e	n/a
45.0215	0.09	90043	keystroke_a	a	n/a
45.202	0.075	90404	keystroke_r	r	n/a
45.292	0.09	90584	keystroke_Key.space	Key.space	n/a
45.4415	0.0755	90883	keystroke_p	p	n/a
45.517	0.09	91034	keystroke_a	a	n/a
45.712	0.075	91424	keystroke_r	r	n/a
45.877	0.06	91754	keystroke_l	l	n/a
45.997	0.09	91994	keystroke_i	i	n/a
46.162	0.1045	92324	keystroke_a	a	n/a
46.4025	0.075	92805	keystroke_m	m	n/a
46.687	0.09	93374	keystroke_e	e	n/a
46.852	0.0455	93704	keystroke_n	n	n/a
46.9425	0.0745	93885	keystroke_t	t	n/a
47.032	0.12	94064	keystroke_Key.space	Key.space	n/a
47.182	0.12	94364	keystroke_p	p	n/a
47.2725	0.0895	94545	keystroke_o	o	n/a
47.407	0.075	94814	keystroke_r	r	n/a
47.602	0.075	95204	keystroke_t	t	n/a
47.932	0.03	95864	keystroke_Key.enter	Key.enter	n/a
47.9675	8.817	95935	prompt	n/a	lindsay attacks killed spectacular\n
48.5475	0.09	97095	keystroke_f	f	n/a
48.9225	0.06	97845	keystroke_Key.backspace	Key.backspace	n/a
49.1625	0.12	98325	keystroke_l	l	n/a
49.3575	0.0595	98715	keystroke_i	i	n/a
49.552	0.075	99104	keystroke_n	n	n/a
49.672	0.12	99344	keystroke_s	s	n/a
50.062	0.06	100124	keystroke_Key.backspace	Key.backspace	n/a
50.137	0.06	100274	keystroke_d	d	n/a
50.452	0.12	100904	keystroke_s	s	n/a
50.7815	0.121	101563	keystroke_a	a	n/a
50.9025	0.12	101805	keystroke_y	y	n/a
51.0075	0.12	102015	keystroke_Key.space	Key.space	n/a
51.0825	0.12	102165	keystroke_a	a	n/a
51.3375	0.044	102675	keystroke_t	t	n/a
51.4575	0.075	102915	keystroke_t	t	n/a
51.6675	0.075	103335	keystroke_a	a	n/a
51.8925	0.075	103785	keystroke_c	c	n/a
52.0125	0.089	104025	keystroke_h	h	n/a
52.237	0.06	104474	keystroke_s	s	n/a
52.567	0.06	105134	keystroke_Key.backspace	Key.backspace	n/a
52.717	0.0605	105434	keystroke_Key.backspace	Key.backspace	n/a
52.9125	0.06	105825	keystroke_k	k	n/a
52.9875	0.075	105975	keystroke_s	s	n/a
53.0625	0.105	106125	keystroke_Key.space	Key.space	n/a
53.4075	0.12	106815	keystroke_k	k	n/a
53.6025	0.0595	107205	keystroke_i	i	n/a
53.7825	0.045	107565	keystroke_l	l	n/a
53.9025	0.105	107805	keystroke_l	l	n/a
53.9925	0.045	107985	keystroke_e	e	n/a
54.1725	0.09	108345	keystroke_d	d	n/a
54.2465	0.091	108493	keystroke_Key.space	Key.space	n/a
54.4125	0.105	108825	keystroke_s	s	n/a
54.5175	0.09	109035	keystroke_p	p	n/a
54.6225	0.06	109245	keystroke_e	e	n/a
54.8175	0.075	109635	keystroke_c	c	n/a
55.1025	0.045	110205	keystroke_t	t	n/a
55.297	0.105	110594	keystroke_a	a	n/a
55.642	0.045	111284	keystroke_c	c	n/a
55.957	0.06	111914	keystroke_u	u	n/a
56.152	0.105	112304	keystroke_l	l	n/a
56.227	0.09	112454	keystroke_a	a	n/a
56.452	0.09	112904	keystroke_r	r	n/a
56.707	0.075	113414	keystroke_Key.enter	Key.enter	n/a
56.789	6.1155	113578	prompt	n/a	explaining solar defense epic\n
57.8025	0.06	115605	keystroke_e	e	n/a
57.997	0.091	115994	keystroke_x	x	n/a
58.177	0.121	116354	keystroke_p	p	n/a
58.268	0.075	116536	keystroke_l	l	n/a
58.567	0.09	117134	keystroke_a	a	n/a
58.717	0.15	117434	keystroke_i	i	n/a
58.852	0.045	117704	keystroke_n	n	n/a
58.972	0.12	117944	keystroke_i	i	n/a
59.032	0.105	118064	keystroke_n	n	n/a
59.228	0.059	118456	keystroke_g	g	n/a
59.302	0.075	118604	keystroke_Key.space	Key.space	n/a
59.497	0.075	118994	keystroke_s	s	n/a
59.573	0.044	119146	keystroke_o	o	n/a
59.767	0.09	119534	keystroke_l	l	n/a
59.872	0.075	119744	keystroke_a	a	n/a
60.082	0.06	120164	keystroke_r	r	n/a
60.1725	0.075	120345	keystroke_Key.space	Key.space	n/a
60.4725	0.06	120945	keystroke_d	d	n/a
60.6375	0.06	121275	keystroke_e	e	n/a
60.8175	0.06	121635	keystroke_f	f	n/a
60.9525	0.09	121905	keystroke_e	e	n/a
61.0875	0.09	122175	keystroke_n	n	n/a
61.4175	0.09	122835	keystroke_s	s	n/a
61.5225	0.12	123045	keystroke_e	e	n/a
61.6875	0.09	123375	keystroke_Key.space	Key.space	n/a
61.928	0.089	123856	keystroke_e	e	n/a
62.077	0.09	124154	keystroke_p	p	n/a
62.302	0.075	124604	keystroke_i	i	n/a
62.437	0.105	124874	keystroke_c	c	n/a
62.827	0.075	125654	keystroke_Key.enter	Key.enter	n/a
62.9095	6.8645	125819	prompt	n/a	hopkins injury committees circular\n
63.532	0.075	127064	keystroke_h	h	n/a
63.652	0.105	127304	keystroke_o	o	n/a
64.0275	0.075	128055	keystroke_p	p	n/a
64.357	0.06	128714	keystroke_k	k	n/a
64.6125	0.045	129225	keystroke_i	i	n/a
64.7775	0.075	129555	keystroke_n	n	n/a
64.8975	0.105	129795	keystroke_s	s	n/a
65.0325	0.09	130065	keystroke_Key.space	Key.space	n/a
65.3175	0.105	130635	keystroke_i	i	n/a
65.4975	0.06	130995	keystroke_n	n	n/a
65.6775	0.075	131355	keystroke_j	j	n/a
65.872	0.075	131744	keystroke_u	u	n/a
66.127	0.12	132254	keystroke_r	r	n/a
66.352	0.135	132704	keystroke_y	y	n/a
66.562	0.09	133124	keystroke_Key.space	Key.space	n/a
66.742	0.09	133484	keystroke_c	c	n/a
66.817	0.09	133634	keystroke_o	o	n/a
67.027	0.045	134054	keystroke_m	m	n/a
67.147	0.075	134294	keystroke_m	m	n/a
67.372	0.09	134744	keystroke_i	i	n/a
67.507	0.075	135014	keystroke_t	t	n/a
67.657	0.075	135314	keystroke_t	t	n/a
67.837	0.06	135674	keystroke_e	e	n/a
67.957	0.105	135914	keystroke_e	e	n/a
68.197	0.09	136394	keystroke_s	s	n/a
68.302	0.0755	136604	keystroke_Key.space	Key.space	n/a
68.4375	0.09	136875	keystroke_c	c	n/a
68.5425	0.075	137085	keystroke_i	i	n/a
68.6925	0.06	137385	keystroke_r	r	n/a
68.9175	0.09	137835	keystroke_c	c	n/a
68.9925	0.06	137985	keystroke_u	u	n/a
69.202	0.075	138404	keystroke_l	l	n/a
69.292	0.09	138584	keystroke_a	a	n/a
69.472	0.09	138944	keystroke_r	r	n/a
69.6975	0.075	139395	keystroke_Key.enter	Key.enter	n/a
69.777	7.827	139554	prompt	n/a	wedding comparing shepherd bolivia\n
70.522	0.06	141044	keystroke_e	e	n/a
70.972	0.06	141944	keystroke_Key.backspace	Key.backspace	n/a
71.017	0.075	142034	keystroke_w	w	n/a
71.197	0.06	142394	keystroke_e	e	n/a
71.377	0.06	142754	keystroke_d	d	n/a
71.512	0.075	143024	keystroke_d	d	n/a
71.572	0.135	143144	keystroke_i	i	n/a
71.677	0.09	143354	keystroke_n	n	n/a
71.8875	0.03	143775	keystroke_Key.space	Key.space	n/a
71.9925	0.0745	143985	keystroke_g	g	n/a
72.217	0.045	144434	keystroke_Key.backspace	Key.backspace	n/a
72.322	0.09	144644	keystroke_Key.backspace	Key.backspace	n/a
72.397	0.075	144794	keystroke_g	g	n/a
72.473	0.104	144946	keystroke_Key.space	Key.space	n/a
72.682	0.09	145364	keystroke_c	c	n/a
72.757	0.12	145514	keystroke_o	o	n/a
72.892	0.0455	145784	keystroke_m	m	n/a
73.0425	0.09	146085	keystroke_p	p	n/a
73.1475	0.075	146295	keystroke_a	a	n/a
73.448	0.12	146896	keystroke_r	r	n/a
73.553	0.15	147106	keystroke_i	i	n/a
73.643	0.105	147286	keystroke_n	n	n/a
73.748	0.12	147496	keystroke_g	g	n/a
73.853	0.09	147706	keystroke_Key.space	Key.space	n/a
74.018	0.12	148036	keystroke_s	s	n/a
74.123	0.06	148246	keystroke_h	h	n/a
74.3175	0.105	148635	keystroke_e	e	n/a
74.4375	0.075	148875	keystroke_p	p	n/a
74.5575	0.105	149115	keystroke_e	e	n/a
74.6025	0.12	149205	keystroke_r	r	n/a
74.9625	0.09	149925	keystroke_d	d	n/a
75.1425	0.0905	150285	keystroke_Key.space	Key.space	n/a
75.413	0.06	150826	keystroke_v	v	n/a
75.953	0.075	151906	keystroke_Key.backspace	Key.backspace	n/a
76.043	0.105	152086	keystroke_b	b	n/a
76.358	0.075	152716	keystroke_o	o	n/a
76.568	0.06	153136	keystroke_l	l	n/a
76.7325	0.075	153465	keystroke_i	i	n/a
76.8525	0.135	153705	keystroke_v	v	n/a
77.0025	0.06	154005	keystroke_i	i	n/a
77.2725	0.09	154545	keystroke_a	a	n/a
77.5275	0.0755	155055	keystroke_Key.enter	Key.enter	n/a
77.6075	6.8365	155215	prompt	n/a	silk successfully jose virtual\n
78.1425	0.09	156285	keystroke_s	s	n/a
78.3675	0.09	156735	keystroke_i	i	n/a
78.5475	0.105	157095	keystroke_l	l	n/a
78.7425	0.12	157485	keystroke_k	k	n/a
78.8775	0.105	157755	keystroke_Key.space	Key.space	n/a
79.4025	0.1345	158805	keystroke_c	c	n/a
79.8825	0.06	159765	keystroke_Key.backspace	Key.backspace	n/a
80.0025	0.09	160005	keystroke_s	s	n/a
80.2575	0.045	160515	keystroke_u	u	n/a
80.4225	0.09	160845	keystroke_c	c	n/a
80.617	0.075	161234	keystroke_c	c	n/a
80.828	0.0895	161656	keystroke_e	e	n/a
81.0225	0.06	162045	keystroke_s	s	n/a
81.1275	0.09	162255	keystroke_s	s	n/a
81.3225	0.1045	162645	keystroke_f	f	n/a
81.442	0.0755	162884	keystroke_u	u	n/a
81.6525	0.03	163305	keystroke_l	l	n/a
81.757	0.09	163514	keystroke_l	l	n/a
81.9825	0.12	163965	keystroke_y	y	n/a
82.118	0.0745	164236	keystroke_Key.space	Key.space	n/a
82.3425	0.045	164685	keystroke_j	j	n/a
82.5675	0.045	165135	keystroke_o	o	n/a
82.6425	0.165	165285	keystroke_s	s	n/a
82.7475	0.105	165495	keystroke_e	e	n/a
82.8675	0.06	165735	keystroke_Key.space	Key.space	n/a
83.1075	0.12	166215	keystroke_v	v	n/a
83.3925	0.09	166785	keystroke_i	i	n/a
83.4975	0.105	166995	keystroke_r	r	n/a
83.7075	0.09	167415	keystroke_t	t	n/a
83.8125	0.045	167625	keystroke_u	u	n/a
84.008	0.075	168016	keystroke_a	a	n/a
84.083	0.06	168166	keystroke_l	l	n/a
84.3825	0.06	168765	keystroke_Key.enter	Key.enter	n/a
84.4475	6.6415	168895	prompt	n/a	wasn't moon invest challenged\n
85.238	0.06	170476	keystroke_w	w	n/a
85.763	0.06	171526	keystroke_a	a	n/a
85.913	0.12	171826	keystroke_s	s	n/a
86.048	0.045	172096	keystroke_n	n	n/a
86.243	0.09	172486	keystroke_'	'	n/a
86.363	0.135	172726	keystroke_t	t	n/a
86.483	0.09	172966	keystroke_Key.space	Key.space	n/a
86.708	0.075	173416	keystroke_m	m	n/a
86.858	0.06	173716	keystroke_o	o	n/a
87.008	0.06	174016	keystroke_o	o	n/a
87.278	0.06	174556	keystroke_n	n	n/a
87.428	0.09	174856	keystroke_Key.space	Key.space	n/a
87.773	0.12	175546	keystroke_i	i	n/a
87.848	0.09	175696	keystroke_n	n	n/a
88.073	0.135	176146	keystroke_v	v	n/a
88.253	0.105	176506	keystroke_e	e	n/a
88.478	0.09	176956	keystroke_s	s	n/a
88.643	0.105	177286	keystroke_t	t	n/a
88.7775	0.105	177555	keystroke_Key.space	Key.space	n/a
89.1975	0.1355	178395	keystroke_c	c	n/a
89.348	0.015	178696	keystroke_h	h	n/a
89.393	0.105	178786	keystroke_a	a	n/a
89.528	0.045	179056	keystroke_l	l	n/a
89.678	0.0755	179356	keystroke_l	l	n/a
89.798	0.045	179596	keystroke_e	e	n/a
89.9475	0.075	179895	keystroke_n	n	n/a
90.3375	0.09	180675	keystroke_g	g	n/a
90.5925	0.105	181185	keystroke_e	e	n/a
90.8475	0.105	181695	keystroke_d	d	n/a
90.9825	0.105	181965	keystroke_Key.enter	Key.enter	n/a
91.092	8.877	182184	prompt	n/a	pulling ahead refugees stockholm\n
91.927	0.106	183854	keystroke_p	p	n/a
92.108	0.105	184216	keystroke_u	u	n/a
92.318	0.059	184636	keystroke_l	l	n/a
92.408	0.105	184816	keystroke_l	l	n/a
92.768	0.105	185536	keystroke_i	i	n/a
92.948	0.105	185896	keystroke_n	n	n/a
93.068	0.104	186136	keystroke_g	g	n/a
93.1575	0.0895	186315	keystroke_Key.space	Key.space	n/a
93.593	0.12	187186	keystroke_a	a	n/a
93.727	0.06	187454	keystroke_h	h	n/a
93.892	0.09	187784	keystroke_e	e	n/a
94.042	0.105	188084	keystroke_a	a	n/a
94.253	0.104	188506	keystroke_d	d	n/a
94.402	0.09	188804	keystroke_Key.space	Key.space	n/a
94.597	0.076	189194	keystroke_r	r	n/a
94.792	0.03	189584	keystroke_e	e	n/a
95.017	0.061	190034	keystroke_g	g	n/a
95.122	0.09	190244	keystroke_u	u	n/a
95.632	0.015	191264	keystroke_Key.backspace	Key.backspace	n/a
95.722	0.061	191444	keystroke_Key.backspace	Key.backspace	n/a
95.9025	0.12	191805	keystroke_f	f	n/a
96.0375	0.045	192075	keystroke_u	u	n/a
96.5325	0.105	193065	keystroke_g	g	n/a
96.803	0.075	193606	keystroke_e	e	n/a
96.968	0.0745	193936	keystroke_e	e	n/a
97.208	0.0595	194416	keystroke_s	s	n/a
97.4175	0.1055	194835	keystroke_Key.space	Key.space	n/a
97.808	0.0745	195616	keystroke_s	s	n/a
98.0025	0.0755	196005	keystroke_t	t	n/a
98.168	0.075	196336	keystroke_o	o	n/a
98.288	0.075	196576	keystroke_c	c	n/a
98.7075	0.075	197415	keystroke_k	k	n/a
98.9475	0.075	197895	keystroke_h	h	n/a
99.0825	0.075	198165	keystroke_o	o	n/a
99.2775	0.075	198555	keystroke_l	l	n/a
99.6375	0.0755	199275	keystroke_m	m	n/a
99.893	0.075	199786	keystroke_Key.enter	Key.enter	n/a
99.972	5.8025	199944	prompt	n/a	modes realtor amounts adaptor\n
100.688	0.075	201376	keystroke_m	m	n/a
100.838	0.0745	201676	keystroke_o	o	n/a
100.9875	0.075	201975	keystroke_d	d	n/a
101.1675	0.06	202335	keystroke_e	e	n/a
101.3775	0.105	202755	keystroke_s	s	n/a
101.603	0.074	203206	keystroke_Key.space	Key.space	n/a
101.708	0.075	203416	keystroke_r	r	n/a
101.873	0.0595	203746	keystroke_e	e	n/a
102.0525	0.105	204105	keystroke_a	a	n/a
102.1425	0.075	204285	keystroke_l	l	n/a
102.3975	0.105	204795	keystroke_t	t	n/a
102.5175	0.075	205035	keystroke_o	o	n/a
102.6375	0.06	205275	keystroke_r	r	n/a
102.7125	0.09	205425	keystroke_Key.space	Key.space	n/a
102.8475	0.12	205695	keystroke_a	a	n/a
103.1625	0.105	206325	keystroke_m	m	n/a
103.3875	0.135	206775	keystroke_o	o	n/a
103.5075	0.075	207015	keystroke_u	u	n/a
103.7325	0.075	207465	keystroke_n	n	n/a
103.8225	0.09	207645	keystroke_t	t	n/a
104.0775	0.09	208155	keystroke_s	s	n/a
104.1825	0.09	208365	keystroke_Key.space	Key.space	n/a
104.3625	0.045	208725	keystroke_a	a	n/a
104.5575	0.045	209115	keystroke_d	d	n/a
104.723	0.0595	209446	keystroke_a	a	n/a
104.7975	0.075	209595	keystroke_p	p	n/a
105.0675	0.075	210135	keystroke_t	t	n/a
105.2025	0.0905	210405	keystroke_o	o	n/a
105.323	0.09	210646	keystroke_r	r	n/a
105.653	0.12	211306	keystroke_Key.enter	Key.enter	n/a
105.7775	6.777	211555	prompt	n/a	dies freedom ethiopia deputy\n
106.3875	0.09	212775	keystroke_d	d	n/a
106.4925	0.1055	212985	keystroke_i	i	n/a
106.599	0.074	213198	keystroke_e	e	n/a
106.808	0.09	213616	keystroke_s	s	n/a
106.988	0.075	213976	keystroke_Key.space	Key.space	n/a
107.138	0.075	214276	keystroke_f	f	n/a
107.333	0.0595	214666	keystroke_r	r	n/a
107.5125	0.06	215025	keystroke_e	e	n/a
107.6325	0.09	215265	keystroke_e	e	n/a
107.903	0.09	215806	keystroke_d	d	n/a
108.158	0.135	216316	keystroke_o	o	n/a
108.278	0.12	216556	keystroke_m	m	n/a
108.413	0.12	216826	keystroke_Key.space	Key.space	n/a
108.653	0.06	217306	keystroke_e	e	n/a
108.938	0.09	217876	keystroke_t	t	n/a
109.043	0.09	218086	keystroke_h	h	n/a
109.148	0.105	218296	keystroke_i	i	n/a
109.583	0.105	219166	keystroke_o	o	n/a
110.273	0.09	220546	keystroke_p	p	n/a
110.648	0.09	221296	keystroke_i	i	n/a
110.903	0.105	221806	keystroke_a	a	n/a
111.068	0.075	222136	keystroke_Key.space	Key.space	n/a
111.158	0.06	222316	keystroke_d	d	n/a
111.338	0.075	222676	keystroke_e	e	n/a
111.428	0.09	222856	keystroke_p	p	n/a
111.638	0.06	223276	keystroke_u	u	n/a
111.728	0.09	223456	keystroke_t	t	n/a
112.1625	0.06	224325	keystroke_y	y	n/a
112.4625	0.09	224925	keystroke_Key.enter	Key.enter	n/a
112.5585	6.641	225117	prompt	n/a	connectivity ordering payments enemy\n
113.1225	0.12	226245	keystroke_c	c	n/a
113.2875	0.09	226575	keystroke_o	o	n/a
113.4825	0.0455	226965	keystroke_n	n	n/a
113.6325	0.0605	227265	keystroke_n	n	n/a
113.843	0.0455	227686	keystroke_e	e	n/a
114.0535	0.074	228107	keystroke_c	c	n/a
114.2475	0.075	228495	keystroke_t	t	n/a
114.3525	0.1055	228705	keystroke_i	i	n/a
114.608	0.105	229216	keystroke_v	v	n/a
114.728	0.075	229456	keystroke_i	i	n/a
114.878	0.12	229756	keystroke_t	t	n/a
115.043	0.12	230086	keystroke_y	y	n/a
115.268	0.045	230536	keystroke_Key.space	Key.space	n/a
115.568	0.09	231136	keystroke_o	o	n/a
115.658	0.075	231316	keystroke_r	r	n/a
115.913	0.09	231826	keystroke_d	d	n/a
116.1075	0.106	232215	keystroke_e	e	n/a
116.1675	0.105	232335	keystroke_r	r	n/a
116.3025	0.135	232605	keystroke_i	i	n/a
116.4075	0.09	232815	keystroke_n	n	n/a
116.4825	0.105	232965	keystroke_g	g	n/a
116.7075	0.06	233415	keystroke_Key.space	Key.space	n/a
116.8275	0.091	233655	keystroke_p	p	n/a
116.9325	0.105	233865	keystroke_a	a	n/a
117.113	0.075	234226	keystroke_y	y	n/a
117.3675	0.075	234735	keystroke_m	m	n/a
117.4575	0.1205	234915	keystroke_e	e	n/a
117.593	0.075	235186	keystroke_n	n	n/a
117.653	0.09	235306	keystroke_t	t	n/a
117.863	0.105	235726	keystroke_s	s	n/a
117.953	0.09	235906	keystroke_Key.space	Key.space	n/a
118.103	0.06	236206	keystroke_e	e	n/a
118.193	0.045	236386	keystroke_n	n	n/a
118.268	0.105	236536	keystroke_e	e	n/a
118.388	0.06	236776	keystroke_m	m	n/a
118.808	0.075	237616	keystroke_y	y	n/a
119.123	0.075	238246	keystroke_Key.enter	Key.enter	n/a
119.2025	5.937	238405	prompt	n/a	sustainable banner faculty zero\n
119.843	0.12	239686	keystroke_s	s	n/a
120.098	0.0745	240196	keystroke_u	u	n/a
120.1875	0.12	240375	keystroke_s	s	n/a
120.4425	0.075	240885	keystroke_t	t	n/a
120.6525	0.12	241305	keystroke_a	a	n/a
120.7425	0.165	241485	keystroke_i	i	n/a
120.8775	0.09	241755	keystroke_n	n	n/a
121.0125	0.09	242025	keystroke_a	a	n/a
121.1175	0.0605	242235	keystroke_b	b	n/a
121.283	0.0905	242566	keystroke_l	l	n/a
121.358	0.09	242716	keystroke_e	e	n/a
121.478	0.09	242956	keystroke_Key.space	Key.space	n/a
121.703	0.06	243406	keystroke_b	b	n/a
121.793	0.105	243586	keystroke_a	a	n/a
121.913	0.045	243826	keystroke_n	n	n/a
122.048	0.045	244096	keystroke_n	n	n/a
122.228	0.105	244456	keystroke_e	e	n/a
122.318	0.09	244636	keystroke_r	r	n/a
122.453	0.105	244906	keystroke_Key.space	Key.space	n/a
122.753	0.06	245506	keystroke_f	f	n/a
122.9775	0.075	245955	keystroke_a	a	n/a
123.2325	0.09	246465	keystroke_c	c	n/a
123.3235	0.059	246647	keystroke_u	u	n/a
123.5025	0.06	247005	keystroke_l	l	n/a
123.6225	0.12	247245	keystroke_t	t	n/a
123.7875	0.075	247575	keystroke_y	y	n/a
123.8635	0.074	247727	keystroke_Key.space	Key.space	n/a
124.1925	0.105	248385	keystroke_z	z	n/a
124.4475	0.12	248895	keystroke_e	e	n/a
124.6725	0.105	249345	keystroke_r	r	n/a
124.8075	0.09	249615	keystroke_o	o	n/a
125.0925	0.045	250185	keystroke_Key.enter	Key.enter	n/a
125.142	5.0825	250284	prompt	n/a	applicable flavor shot ain't\n
125.708	0.12	251416	keystroke_a	a	n/a
125.813	0.06	251626	keystroke_p	p	n/a
125.9475	0.075	251895	keystroke_p	p	n/a
126.1125	0.075	252225	keystroke_l	l	n/a
126.3225	0.075	252645	keystroke_i	i	n/a
126.4125	0.075	252825	keystroke_c	c	n/a
126.5925	0.075	253185	keystroke_a	a	n/a
126.6825	0.075	253365	keystroke_b	b	n/a
126.8625	0.0905	253725	keystroke_l	l	n/a
126.967	0.075	253934	keystroke_e	e	n/a
127.222	0.105	254444	keystroke_Key.space	Key.space	n/a
127.433	0.09	254866	keystroke_f	f	n/a
127.583	0.0895	255166	keystroke_l	l	n/a
127.7025	0.09	255405	keystroke_a	a	n/a
127.9275	0.105	255855	keystroke_v	v	n/a
128.0625	0.09	256125	keystroke_o	o	n/a
128.1675	0.09	256335	keystroke_r	r	n/a
128.3025	0.0755	256605	keystroke_Key.space	Key.space	n/a
128.558	0.09	257116	keystroke_s	s	n/a
128.648	0.105	257296	keystroke_h	h	n/a
128.768	0.09	257536	keystroke_o	o	n/a
128.933	0.105	257866	keystroke_t	t	n/a
129.083	0.06	258166	keystroke_Key.space	Key.space	n/a
129.248	0.105	258496	keystroke_a	a	n/a
129.383	0.135	258766	keystroke_i	i	n/a
129.473	0.105	258946	keystroke_n	n	n/a
129.8175	0.1055	259635	keystroke_'	'	n/a
129.8925	0.0905	259785	keystroke_t	t	n/a
130.148	0.075	260296	keystroke_Key.enter	Key.enter	n/a
130.229	6.805	260458	prompt	n/a	streams hearing neil objectives\n
131.0325	0.03	262065	keystroke_t	t	n/a
131.3925	0.06	262785	keystroke_Key.backspace	Key.backspace	n/a
131.4675	0.09	262935	keystroke_s	s	n/a
131.6775	0.09	263355	keystroke_t	t	n/a
131.9025	0.03	263805	keystroke_r	r	n/a
132.128	0.075	264256	keystroke_e	e	n/a
132.3375	0.1055	264675	keystroke_a	a	n/a
132.458	0.075	264916	keystroke_m	m	n/a
132.638	0.12	265276	keystroke_s	s	n/a
132.773	0.06	265546	keystroke_Key.space	Key.space	n/a
132.953	0.09	265906	keystroke_h	h	n/a
133.073	0.075	266146	keystroke_e	e	n/a
133.238	0.12	266476	keystroke_a	a	n/a
133.493	0.09	266986	keystroke_r	r	n/a
133.568	0.135	267136	keystroke_i	i	n/a
133.658	0.09	267316	keystroke_n	n	n/a
133.763	0.12	267526	keystroke_g	g	n/a
133.868	0.105	267736	keystroke_Key.space	Key.space	n/a
133.988	0.09	267976	keystroke_n	n	n/a
134.078	0.09	268156	keystroke_e	e	n/a
134.213	0.06	268426	keystroke_i	i	n/a
134.423	0.075	268846	keystroke_l	l	n/a
134.483	0.075	268966	keystroke_Key.space	Key.space	n/a
134.603	0.09	269206	keystroke_o	o	n/a
134.903	0.135	269806	keystroke_b	b	n/a
135.4875	0.06	270975	keystroke_j	j	n/a
135.6975	0.09	271395	keystroke_e	e	n/a
135.908	0.075	271816	keystroke_c	c	n/a
136.133	0.06	272266	keystroke_t	t	n/a
136.268	0.06	272536	keystroke_i	i	n/a
136.388	0.075	272776	keystroke_v	v	n/a
136.5675	0.075	273135	keystroke_e	e	n/a
136.7475	0.09	273495	keystroke_s	s	n/a
136.9575	0.075	273915	keystroke_Key.enter	Key.enter	n/a
137.0385	8.336	274077	prompt	n/a	deer columbus civilization firewire\n
137.6625	0.105	275325	keystroke_d	d	n/a
137.8875	0.06	275775	keystroke_e	e	n/a
137.9625	0.105	275925	keystroke_e	e	n/a
138.3225	0.09	276645	keystroke_r	r	n/a
138.4575	0.06	276915	keystroke_Key.space	Key.space	n/a
138.6525	0.135	277305	keystroke_c	c	n/a
138.8175	0.045	277635	keystroke_o	o	n/a
139.1175	0.09	278235	keystroke_l	l	n/a
139.4175	0.06	278835	keystroke_u	u	n/a
139.6575	0.06	279315	keystroke_m	m	n/a
140.1825	0.105	280365	keystroke_b	b	n/a
140.3625	0.075	280725	keystroke_u	u	n/a
140.4675	0.09	280935	keystroke_s	s	n/a
140.6025	0.06	281205	keystroke_Key.space	Key.space	n/a
141.023	0.075	282046	keystroke_c	c	n/a
141.143	0.09	282286	keystroke_i	i	n/a
141.773	0.105	283546	keystroke_v	v	n/a
141.923	0.0895	283846	keystroke_i	i	n/a
142.1625	0.075	284325	keystroke_l	l	n/a
142.3275	0.06	284655	keystroke_i	i	n/a
142.6275	0.135	285255	keystroke_z	z	n/a
142.9125	0.075	285825	keystroke_a	a	n/a
143.1675	0.09	286335	keystroke_t	t	n/a
143.303	0.15	286606	keystroke_i	i	n/a
143.378	0.135	286756	keystroke_o	o	n/a
143.438	0.135	286876	keystroke_n	n	n/a
143.618	0.105	287236	keystroke_Key.space	Key.space	n/a
143.768	0.09	287536	keystroke_f	f	n/a
143.873	0.09	287746	keystroke_i	i	n/a
143.993	0.045	287986	keystroke_r	r	n/a
144.143	0.075	288286	keystroke_e	e	n/a
144.4425	0.075	288885	keystroke_w	w	n/a
144.5775	0.075	289155	keystroke_i	i	n/a
144.6825	0.075	289365	keystroke_r	r	n/a
144.8775	0.06	289755	keystroke_e	e	n/a
145.2675	0.105	290535	keystroke_Key.enter	Key.enter	n/a
145.377	8.037	290754	prompt	n/a	tony nicole cincinnati quarterly\n
146.0775	0.1205	292155	keystroke_t	t	n/a
146.182	0.061	292364	keystroke_o	o	n/a
146.378	0.075	292756	keystroke_n	n	n/a
146.633	0.089	293266	keystroke_y	y	n/a
146.752	0.076	293504	keystroke_Key.space	Key.space	n/a
146.888	0.089	293776	keystroke_n	n	n/a
147.052	0.075	294104	keystroke_i	i	n/a
147.158	0.104	294316	keystroke_c	c	n/a
147.308	0.0745	294616	keystroke_o	o	n/a
147.622	0.075	295244	keystroke_e	e	n/a
148.117	0.045	296234	keystroke_Key.backspace	Key.backspace	n/a
148.3125	0.0745	296625	keystroke_l	l	n/a
148.492	0.075	296984	keystroke_Key.space	Key.space	n/a
149.2125	0.045	298425	keystroke_Key.backspace	Key.backspace	n/a
149.303	0.06	298606	keystroke_e	e	n/a
149.5275	0.03	299055	keystroke_Key.space	Key.space	n/a
149.6925	0.12	299385	keystroke_c	c	n/a
149.8135	0.104	299627	keystroke_i	i	n/a
149.8875	0.06	299775	keystroke_n	n	n/a
150.0075	0.09	300015	keystroke_c	c	n/a
150.0825	0.09	300165	keystroke_i	i	n/a
150.3675	0.075	300735	keystroke_n	n	n/a
150.4875	0.105	300975	keystroke_a	a	n/a
150.7575	0.045	301515	keystroke_t	t	n/a
150.8775	0.105	301755	keystroke_t	t	n/a
151.2225	0.075	302445	keystroke_i	i	n/a
151.4325	0.06	302865	keystroke_Key.space	Key.space	n/a
151.6875	0.09	303375	keystroke_q	q	n/a
151.8075	0.075	303615	keystroke_u	u	n/a
151.9125	0.09	303825	keystroke_a	a	n/a
152.1075	0.075	304215	keystroke_r	r	n/a
152.3475	0.075	304695	keystroke_t	t	n/a
152.5425	0.06	305085	keystroke_e	e	n/a
152.5575	0.105	305115	keystroke_r	r	n/a
152.7525	0.1055	305505	keystroke_l	l	n/a
152.993	0.06	305986	keystroke_y	y	n/a
153.323	0.09	306646	keystroke_Key.enter	Key.enter	n/a
153.421	6.923	306842	prompt	n/a	governments monte wordpress strikes\n
154.2075	0.09	308415	keystroke_g	g	n/a
154.3425	0.09	308685	keystroke_o	o	n/a
154.4625	0.135	308925	keystroke_v	v	n/a
154.5825	0.12	309165	keystroke_e	e	n/a
154.6575	0.09	309315	keystroke_r	r	n/a
154.7775	0.075	309555	keystroke_n	n	n/a
155.0025	0.075	310005	keystroke_m	m	n/a
155.1075	0.105	310215	keystroke_e	e	n/a
155.1975	0.075	310395	keystroke_n	n	n/a
155.3175	0.075	310635	keystroke_t	t	n/a
155.5275	0.09	311055	keystroke_s	s	n/a
155.6775	0.12	311355	keystroke_Key.space	Key.space	n/a
155.9025	0.105	311805	keystroke_m	m	n/a
156.0225	0.135	312045	keystroke_o	o	n/a
156.1125	0.075	312225	keystroke_n	n	n/a
156.4875	0.075	312975	keystroke_t	t	n/a
156.6525	0.105	313305	keystroke_e	e	n/a
156.9525	0.09	313905	keystroke_Key.space	Key.space	n/a
157.1025	0.12	314205	keystroke_w	w	n/a
157.2075	0.075	314415	keystroke_o	o	n/a
157.3125	0.075	314625	keystroke_r	r	n/a
157.5225	0.09	315045	keystroke_d	d	n/a
157.7625	0.09	315525	keystroke_p	p	n/a
157.9725	0.075	315945	keystroke_r	r	n/a
158.1525	0.0605	316305	keystroke_e	e	n/a
158.348	0.195	316696	keystroke_s	s	n/a
158.888	0.03	317776	keystroke_s	s	n/a
159.113	0.075	318226	keystroke_Key.space	Key.space	n/a
159.233	0.105	318466	keystroke_s	s	n/a
159.473	0.075	318946	keystroke_t	t	n/a
159.623	0.09	319246	keystroke_r	r	n/a
159.698	0.075	319396	keystroke_i	i	n/a
159.893	0.09	319786	keystroke_k	k	n/a
159.938	0.075	319876	keystroke_e	e	n/a
160.133	0.1045	320266	keystroke_s	s	n/a
160.268	0.0745	320536	keystroke_Key.enter	Key.enter	n/a
160.35	7.3145	320700	prompt	n/a	contemporary determined compatible unix\n
160.9125	0.1205	321825	keystroke_c	c	n/a
160.9425	0.1655	321885	keystroke_o	o	n/a
161.078	0.1195	322156	keystroke_n	n	n/a
161.2275	0.075	322455	keystroke_t	t	n/a
161.3775	0.105	322755	keystroke_e	e	n/a
161.4975	0.06	322995	keystroke_m	m	n/a
161.6325	0.075	323265	keystroke_p	p	n/a
161.7825	0.09	323565	keystroke_o	o	n/a
161.8575	0.0605	323715	keystroke_r	r	n/a
162.023	0.105	324046	keystroke_a	a	n/a
162.263	0.09	324526	keystroke_r	r	n/a
162.413	0.06	324826	keystroke_y	y	n/a
162.668	0.09	325336	keystroke_Key.space	Key.space	n/a
163.178	0.105	326356	keystroke_d	d	n/a
163.373	0.12	326746	keystroke_e	e	n/a
163.5975	0.075	327195	keystroke_t	t	n/a
163.7925	0.06	327585	keystroke_e	e	n/a
163.8075	0.1055	327615	keystroke_r	r	n/a
163.928	0.09	327856	keystroke_m	m	n/a
164.183	0.12	328366	keystroke_i	i	n/a
164.273	0.075	328546	keystroke_n	n	n/a
164.333	0.075	328666	keystroke_e	e	n/a
164.528	0.045	329056	keystroke_d	d	n/a
164.603	0.06	329206	keystroke_Key.space	Key.space	n/a
164.723	0.09	329446	keystroke_c	c	n/a
164.798	0.12	329596	keystroke_o	o	n/a
165.2325	0.045	330465	keystroke_m	m	n/a
165.5025	0.09	331005	keystroke_p	p	n/a
165.6375	0.09	331275	keystroke_a	a	n/a
165.8925	0.09	331785	keystroke_t	t	n/a
165.9675	0.045	331935	keystroke_i	i	n/a
166.1325	0.075	332265	keystroke_b	b	n/a
166.3125	0.12	332625	keystroke_l	l	n/a
166.4025	0.075	332805	keystroke_e	e	n/a
166.5225	0.09	333045	keystroke_Key.space	Key.space	n/a
166.913	0.09	333826	keystroke_u	u	n/a
167.048	0.09	334096	keystroke_n	n	n/a
167.228	0.075	334456	keystroke_i	i	n/a
167.423	0.105	334846	keystroke_x	x	n/a
167.573	0.09	335146	keystroke_Key.enter	Key.enter	n/a
167.6685	7.091	335337	prompt	n/a	davidson outside google equipped\n
168.368	0.12	336736	keystroke_d	d	n/a
168.593	0.09	337186	keystroke_a	a	n/a
168.848	0.105	337696	keystroke_v	v	n/a
169.013	0.09	338026	keystroke_i	i	n/a
169.3125	0.075	338625	keystroke_d	d	n/a
169.5075	0.075	339015	keystroke_s	s	n/a
169.5975	0.105	339195	keystroke_o	o	n/a
169.7175	0.09	339435	keystroke_n	n	n/a
169.8525	0.09	339705	keystroke_Key.space	Key.space	n/a
170.0325	0.1205	340065	keystroke_o	o	n/a
170.123	0.045	340246	keystroke_u	u	n/a
170.243	0.09	340486	keystroke_t	t	n/a
170.513	0.09	341026	keystroke_s	s	n/a
170.648	0.075	341296	keystroke_i	i	n/a
170.813	0.075	341626	keystroke_d	d	n/a
171.023	0.075	342046	keystroke_e	e	n/a
171.158	0.09	342316	keystroke_Key.space	Key.space	n/a
171.398	0.075	342796	keystroke_g	g	n/a
171.533	0.03	343066	keystroke_o	o	n/a
171.668	0.09	343336	keystroke_o	o	n/a
171.743	0.075	343486	keystroke_g	g	n/a
171.908	0.105	343816	keystroke_l	l	n/a
171.983	0.105	343966	keystroke_e	e	n/a
172.148	0.075	344296	keystroke_Key.space	Key.space	n/a
172.4925	0.06	344985	keystroke_w	w	n/a
172.8975	0.045	345795	keystroke_Key.backspace	Key.backspace	n/a
173.1375	0.09	346275	keystroke_e	e	n/a
173.348	0.09	346696	keystroke_q	q	n/a
173.483	0.12	346966	keystroke_u	u	n/a
173.543	0.105	347086	keystroke_i	i	n/a
174.008	0.045	348016	keystroke_p	p	n/a
174.143	0.105	348286	keystroke_p	p	n/a
174.203	0.09	348406	keystroke_e	e	n/a
174.383	0.12	348766	keystroke_d	d	n/a
174.668	0.09	349336	keystroke_Key.enter	Key.enter	n/a
174.7625	9.1915	349525	prompt	n/a	header covered prefers bizrate\n
175.4925	0.0755	350985	keystroke_h	h	n/a
175.598	0.045	351196	keystroke_e	e	n/a
175.733	0.09	351466	keystroke_a	a	n/a
175.9275	0.09	351855	keystroke_d	d	n/a
176.4825	0.1205	352965	keystroke_e	e	n/a
176.558	0.105	353116	keystroke_r	r	n/a
176.708	0.09	353416	keystroke_Key.space	Key.space	n/a
176.933	0.09	353866	keystroke_c	c	n/a
177.008	0.09	354016	keystroke_o	o	n/a
177.143	0.12	354286	keystroke_v	v	n/a
177.293	0.09	354586	keystroke_e	e	n/a
177.353	0.165	354706	keystroke_r	r	n/a
177.503	0.12	355006	keystroke_e	e	n/a
177.803	0.1045	355606	keystroke_d	d	n/a
177.9375	0.075	355875	keystroke_Key.space	Key.space	n/a
178.1175	0.105	356235	keystroke_p	p	n/a
178.3725	0.105	356745	keystroke_r	r	n/a
178.5975	0.06	357195	keystroke_e	e	n/a
179.288	0.09	358576	keystroke_f	f	n/a
179.513	0.134	359026	keystroke_e	e	n/a
179.603	0.075	359206	keystroke_r	r	n/a
179.9485	0.105	359897	keystroke_s	s	n/a
180.0975	0.0905	360195	keystroke_Key.space	Key.space	n/a
180.308	0.075	360616	keystroke_b	b	n/a
180.458	0.0895	360916	keystroke_i	i	n/a
181.0135	0.105	362027	keystroke_z	z	n/a
181.4025	0.075	362805	keystroke_t	t	n/a
181.4925	0.12	362985	keystroke_a	a	n/a
181.9875	0.075	363975	keystroke_t	t	n/a
182.3475	0.06	364695	keystroke_Key.backspace	Key.backspace	n/a
182.4825	0.09	364965	keystroke_Key.backspace	Key.backspace	n/a
182.6325	0.075	365265	keystroke_Key.backspace	Key.backspace	n/a
182.7825	0.075	365565	keystroke_r	r	n/a
182.963	0.09	365926	keystroke_a	a	n/a
183.188	0.075	366376	keystroke_t	t	n/a
183.353	0.105	366706	keystroke_e	e	n/a
183.893	0.06	367786	keystroke_Key.enter	Key.enter	n/a
183.9595	8.5295	367919	prompt	n/a	placed thickness italic issue\n
186.2045	0.058	372409	keystroke_p	p	n/a
186.2055	0.087	372411	keystroke_l	l	n/a
186.3375	0.075	372675	keystroke_a	a	n/a
186.5775	0.12	373155	keystroke_c	c	n/a
186.8025	0.075	373605	keystroke_e	e	n/a
187.0275	0.075	374055	keystroke_d	d	n/a
187.1775	0.09	374355	keystroke_Key.space	Key.space	n/a
187.4625	0.09	374925	keystroke_t	t	n/a
187.5675	0.06	375135	keystroke_h	h	n/a
187.6425	0.105	375285	keystroke_i	i	n/a
188.1525	0.075	376305	keystroke_c	c	n/a
188.2425	0.045	376485	keystroke_k	k	n/a
188.4225	0.075	376845	keystroke_n	n	n/a
188.5275	0.075	377055	keystroke_e	e	n/a
188.7225	0.045	377445	keystroke_s	s	n/a
188.8575	0.075	377715	keystroke_s	s	n/a
189.0375	0.06	378075	keystroke_Key.space	Key.space	n/a
189.2775	0.135	378555	keystroke_i	i	n/a
189.3675	0.075	378735	keystroke_n	n	n/a
189.4275	0.06	378855	keystroke_t	t	n/a
189.8175	0.03	379635	keystroke_Key.backspace	Key.backspace	n/a
189.9225	0.045	379845	keystroke_Key.backspace	Key.backspace	n/a
190.0425	0.075	380085	keystroke_t	t	n/a
190.3875	0.0155	380775	keystroke_b	b	n/a
190.688	0.06	381376	keystroke_Key.backspace	Key.backspace	n/a
190.778	0.105	381556	keystroke_a	a	n/a
190.988	0.0745	381976	keystroke_l	l	n/a
191.2425	0.06	382485	keystroke_i	i	n/a
191.3475	0.09	382695	keystroke_c	c	n/a
191.4675	0.06	382935	keystroke_Key.space	Key.space	n/a
191.7225	0.06	383445	keystroke_i	i	n/a
191.7975	0.06	383595	keystroke_s	s	n/a
191.9325	0.09	383865	keystroke_s	s	n/a
192.0375	0.06	384075	keystroke_u	u	n/a
192.1125	0.075	384225	keystroke_e	e	n/a
192.3975	0.09	384795	keystroke_Key.enter	Key.enter	n/a
192.4945	6.4595	384989	prompt	n/a	storm inexpensive facility toolbar\n
193.0425	0.105	386085	keystroke_s	s	n/a
193.2675	0.09	386535	keystroke_t	t	n/a
193.3585	0.074	386717	keystroke_o	o	n/a
193.462	0.091	386924	keystroke_r	r	n/a
193.718	0.075	387436	keystroke_m	m	n/a
193.853	0.0895	387706	keystroke_Key.space	Key.space	n/a
194.0625	0.12	388125	keystroke_i	i	n/a
194.1675	0.09	388335	keystroke_n	n	n/a
194.3175	0.045	388635	keystroke_e	e	n/a
194.5125	0.045	389025	keystroke_x	x	n/a
194.6475	0.075	389295	keystroke_p	p	n/a
194.8575	0.075	389715	keystroke_e	e	n/a
195.0675	0.06	390135	keystroke_n	n	n/a
195.2325	0.06	390465	keystroke_s	s	n/a
195.3225	0.075	390645	keystroke_i	i	n/a
195.5175	0.06	391035	keystroke_v	v	n/a
195.6675	0.075	391335	keystroke_e	e	n/a
195.8025	0.06	391605	keystroke_Key.space	Key.space	n/a
196.1475	0.06	392295	keystroke_f	f	n/a
196.3125	0.075	392625	keystroke_a	a	n/a
196.5525	0.09	393105	keystroke_c	c	n/a
196.8525	0.045	393705	keystroke_i	i	n/a
197.0175	0.075	394035	keystroke_l	l	n/a
197.1975	0.075	394395	keystroke_i	i	n/a
197.3025	0.075	394605	keystroke_t	t	n/a
197.4825	0.12	394965	keystroke_y	y	n/a
197.6175	0.09	395235	keystroke_Key.space	Key.space	n/a
197.7375	0.09	395475	keystroke_t	t	n/a
197.8425	0.045	395685	keystroke_o	o	n/a
197.9775	0.06	395955	keystroke_o	o	n/a
198.1275	0.075	396255	keystroke_l	l	n/a
198.3225	0.09	396645	keystroke_b	b	n/a
198.3975	0.075	396795	keystroke_a	a	n/a
198.6825	0.09	397365	keystroke_r	r	n/a
198.8775	0.075	397755	keystroke_Key.enter	Key.enter	n/a
198.9575	4.6165	397915	prompt	n/a	tiny reid turning idle\n
199.6875	0.03	399375	keystroke_i	i	n/a
200.0325	0.06	400065	keystroke_Key.backspace	Key.backspace	n/a
200.1075	0.09	400215	keystroke_t	t	n/a
200.3175	0.105	400635	keystroke_i	i	n/a
200.3775	0.105	400755	keystroke_n	n	n/a
200.767	0.09	401534	keystroke_y	y	n/a
200.888	0.074	401776	keystroke_Key.space	Key.space	n/a
201.007	0.09	402014	keystroke_r	r	n/a
201.202	0.046	402404	keystroke_e	e	n/a
201.307	0.09	402614	keystroke_i	i	n/a
201.533	0.06	403066	keystroke_d	d	n/a
201.652	0.06	403304	keystroke_Key.space	Key.space	n/a
201.892	0.09	403784	keystroke_t	t	n/a
202.1775	0.075	404355	keystroke_u	u	n/a
202.2675	0.1045	404535	keystroke_r	r	n/a
202.387	0.06	404774	keystroke_n	n	n/a
202.5675	0.135	405135	keystroke_i	i	n/a
202.6575	0.09	405315	keystroke_n	n	n/a
202.7625	0.075	405525	keystroke_g	g	n/a
202.8525	0.075	405705	keystroke_Key.space	Key.space	n/a
202.9725	0.075	405945	keystroke_i	i	n/a
203.0925	0.105	406185	keystroke_d	d	n/a
203.2275	0.075	406455	keystroke_l	l	n/a
203.318	0.0595	406636	keystroke_e	e	n/a
203.4825	0.09	406965	keystroke_Key.enter	Key.enter	n/a
203.5765	5.7875	407153	prompt	n/a	settle newark utilization serious\n
204.128	0.09	408256	keystroke_s	s	n/a
204.338	0.075	408676	keystroke_e	e	n/a
204.548	0.06	409096	keystroke_t	t	n/a
204.668	0.105	409336	keystroke_t	t	n/a
204.788	0.075	409576	keystroke_l	l	n/a
204.908	0.06	409816	keystroke_e	e	n/a
204.983	0.075	409966	keystroke_Key.space	Key.space	n/a
205.133	0.075	410266	keystroke_n	n	n/a
205.193	0.075	410386	keystroke_e	e	n/a
205.403	0.09	410806	keystroke_w	w	n/a
205.613	0.09	411226	keystroke_a	a	n/a
205.793	0.075	411586	keystroke_r	r	n/a
205.9125	0.12	411825	keystroke_k	k	n/a
206.0475	0.09	412095	keystroke_Key.space	Key.space	n/a
206.243	0.09	412486	keystroke_u	u	n/a
206.543	0.1045	413086	keystroke_t	t	n/a
206.6925	0.075	413385	keystroke_i	i	n/a
206.9775	0.09	413955	keystroke_l	l	n/a
207.0825	0.105	414165	keystroke_i	i	n/a
207.2325	0.09	414465	keystroke_z	z	n/a
207.4725	0.075	414945	keystroke_a	a	n/a
207.7125	0.09	415425	keystroke_t	t	n/a
207.7875	0.1505	415575	keystroke_i	i	n/a
207.953	0.105	415906	keystroke_o	o	n/a
207.998	0.09	415996	keystroke_n	n	n/a
208.163	0.06	416326	keystroke_Key.space	Key.space	n/a
208.283	0.105	416566	keystroke_s	s	n/a
208.448	0.075	416896	keystroke_e	e	n/a
208.613	0.09	417226	keystroke_r	r	n/a
208.673	0.105	417346	keystroke_i	i	n/a
208.808	0.12	417616	keystroke_o	o	n/a
208.883	0.075	417766	keystroke_u	u	n/a
208.988	0.075	417976	keystroke_s	s	n/a
209.288	0.075	418576	keystroke_Key.enter	Key.enter	n/a
209.3685	8.1705	418737	prompt	n/a	pichunter report payable donations\n
210.4285	0.104	420857	keystroke_p	p	n/a
210.683	0.075	421366	keystroke_i	i	n/a
210.953	0.09	421906	keystroke_c	c	n/a
211.238	0.09	422476	keystroke_h	h	n/a
211.448	0.0595	422896	keystroke_u	u	n/a
211.6425	0.06	423285	keystroke_n	n	n/a
211.8375	0.06	423675	keystroke_t	t	n/a
212.0325	0.075	424065	keystroke_e	e	n/a
212.0625	0.12	424125	keystroke_r	r	n/a
212.1675	0.09	424335	keystroke_Key.space	Key.space	n/a
212.453	0.09	424906	keystroke_r	r	n/a
212.648	0.09	425296	keystroke_e	e	n/a
212.708	0.12	425416	keystroke_p	p	n/a
212.783	0.09	425566	keystroke_o	o	n/a
212.873	0.105	425746	keystroke_r	r	n/a
213.068	0.0895	426136	keystroke_t	t	n/a
213.1725	0.075	426345	keystroke_Key.space	Key.space	n/a
213.3375	0.09	426675	keystroke_p	p	n/a
213.4575	0.105	426915	keystroke_a	a	n/a
213.6225	0.075	427245	keystroke_y	y	n/a
213.7275	0.105	427455	keystroke_a	a	n/a
214.043	0.0745	428086	keystroke_b	b	n/a
214.388	0.03	428776	keystroke_e	e	n/a
214.733	0.06	429466	keystroke_Key.backspace	Key.backspace	n/a
214.958	0.075	429916	keystroke_l	l	n/a
215.078	0.075	430156	keystroke_e	e	n/a
215.198	0.09	430396	keystroke_Key.space	Key.space	n/a
215.588	0.09	431176	keystroke_d	d	n/a
215.9175	0.06	431835	keystroke_o	o	n/a
216.1725	0.075	432345	keystroke_n	n	n/a
216.2925	0.09	432585	keystroke_a	a	n/a
216.5625	0.09	433125	keystroke_t	t	n/a
216.7125	0.135	433425	keystroke_i	i	n/a
216.8325	0.12	433665	keystroke_o	o	n/a
216.9075	0.09	433815	keystroke_n	n	n/a
217.0275	0.105	434055	keystroke_s	s	n/a
217.448	0.0895	434896	keystroke_Key.enter	Key.enter	n/a
217.5425	8.727	435085	prompt	n/a	classroom twenty harvey laundry\n
219.7295	0.043	439459	keystroke_c	c	n/a
219.7875	0.045	439575	keystroke_l	l	n/a
219.878	0.0595	439756	keystroke_a	a	n/a
220.0725	0.061	440145	keystroke_s	s	n/a
220.1775	0.075	440355	keystroke_s	s	n/a
220.3725	0.075	440745	keystroke_r	r	n/a
220.5075	0.046	441015	keystroke_o	o	n/a
220.6425	0.105	441285	keystroke_o	o	n/a
220.7775	0.075	441555	keystroke_m	m	n/a
220.8675	0.09	441735	keystroke_Key.space	Key.space	n/a
221.0775	0.06	442155	keystroke_t	t	n/a
221.2735	0.12	442547	keystroke_w	w	n/a
221.693	0.09	443386	keystroke_e	e	n/a
221.858	0.0745	443716	keystroke_n	n	n/a
221.9625	0.12	443925	keystroke_t	t	n/a
222.2025	0.105	444405	keystroke_y	y	n/a
222.3375	0.09	444675	keystroke_Key.space	Key.space	n/a
222.6825	0.09	445365	keystroke_h	h	n/a
222.8175	0.105	445635	keystroke_a	a	n/a
223.0875	0.015	446175	keystroke_r	r	n/a
223.1325	0.09	446265	keystroke_v	v	n/a
223.358	0.09	446716	keystroke_e	e	n/a
223.763	0.105	447526	keystroke_y	y	n/a
224.1075	0.075	448215	keystroke_Key.space	Key.space	n/a
224.3025	0.075	448605	keystroke_l	l	n/a
224.3935	0.104	448787	keystroke_a	a	n/a
224.5425	0.09	449085	keystroke_u	u	n/a
224.8275	0.045	449655	keystroke_d	d	n/a
224.8875	0.075	449775	keystroke_n	n	n/a
225.2025	0.045	450405	keystroke_Key.backspace	Key.backspace	n/a
225.3225	0.06	450645	keystroke_Key.backspace	Key.backspace	n/a
225.5635	0.0595	451127	keystroke_n	n	n/a
225.6375	0.075	451275	keystroke_d	d	n/a
225.8325	0.0605	451665	keystroke_r	r	n/a
225.908	0.06	451816	keystroke_y	y	n/a
226.193	0.075	452386	keystroke_Key.enter	Key.enter	n/a
226.272	5.0375	452544	prompt	n/a	pins walls dover verify\n
227.0025	0.09	454005	keystroke_p	p	n/a
227.1975	0.06	454395	keystroke_i	i	n/a
227.3475	0.09	454695	keystroke_n	n	n/a
227.4525	0.12	454905	keystroke_s	s	n/a
227.5575	0.075	455115	keystroke_Key.space	Key.space	n/a
227.6775	0.075	455355	keystroke_w	w	n/a
227.8575	0.09	455715	keystroke_a	a	n/a
227.9185	0.059	455837	keystroke_l	l	n/a
228.0675	0.09	456135	keystroke_l	l	n/a
228.1275	0.09	456255	keystroke_s	s	n/a
228.2025	0.105	456405	keystroke_Key.space	Key.space	n/a
228.4275	0.075	456855	keystroke_d	d	n/a
228.5325	0.075	457065	keystroke_o	o	n/a
228.6225	0.15	457245	keystroke_v	v	n/a
228.8025	0.09	457605	keystroke_e	e	n/a
228.8475	0.12	457695	keystroke_r	r	n/a
228.9525	0.075	457905	keystroke_Key.space	Key.space	n/a
229.3125	0.12	458625	keystroke_v	v	n/a
229.5225	0.105	459045	keystroke_e	e	n/a
229.5675	0.105	459135	keystroke_r	r	n/a
230.1525	0.06	460305	keystroke_y	y	n/a
230.5575	0.075	461115	keystroke_Key.backspace	Key.backspace	n/a
230.783	0.06	461566	keystroke_i	i	n/a
230.858	0.105	461716	keystroke_f	f	n/a
230.993	0.075	461986	keystroke_y	y	n/a
231.233	0.075	462466	keystroke_Key.enter	Key.enter	n/a
231.314	4.9305	462628	prompt	n/a	tablets solving singles slim\n
231.938	0.09	463876	keystroke_t	t	n/a
232.148	0.09	464296	keystroke_a	a	n/a
232.268	0.06	464536	keystroke_b	b	n/a
232.388	0.105	464776	keystroke_l	l	n/a
232.478	0.06	464956	keystroke_e	e	n/a
232.808	0.06	465616	keystroke_t	t	n/a
233.003	0.075	466006	keystroke_s	s	n/a
233.063	0.09	466126	keystroke_Key.space	Key.space	n/a
233.198	0.09	466396	keystroke_s	s	n/a
233.303	0.045	466606	keystroke_o	o	n/a
233.453	0.075	466906	keystroke_l	l	n/a
233.543	0.12	467086	keystroke_v	v	n/a
233.693	0.06	467386	keystroke_i	i	n/a
233.888	0.09	467776	keystroke_n	n	n/a
233.993	0.105	467986	keystroke_g	g	n/a
234.083	0.075	468166	keystroke_Key.space	Key.space	n/a
234.263	0.105	468526	keystroke_s	s	n/a
234.308	0.09	468616	keystroke_i	i	n/a
234.413	0.09	468826	keystroke_n	n	n/a
234.518	0.09	469036	keystroke_g	g	n/a
234.6525	0.075	469305	keystroke_l	l	n/a
234.7425	0.075	469485	keystroke_e	e	n/a
234.9525	0.105	469905	keystroke_s	s	n/a
235.2825	0.105	470565	keystroke_Key.space	Key.space	n/a
235.4625	0.09	470925	keystroke_s	s	n/a
235.5675	0.075	471135	keystroke_l	l	n/a
235.7325	0.075	471465	keystroke_i	i	n/a
235.9575	0.06	471915	keystroke_m	m	n/a
236.1975	0.045	472395	keystroke_Key.enter	Key.enter	n/a
236.2475	5.7265	472495	prompt	n/a	beach collected proposals financing\n
236.8875	0.075	473775	keystroke_b	b	n/a
236.9635	0.074	473927	keystroke_e	e	n/a
237.1125	0.075	474225	keystroke_a	a	n/a
237.3525	0.0755	474705	keystroke_c	c	n/a
237.413	0.105	474826	keystroke_h	h	n/a
237.503	0.075	475006	keystroke_Key.space	Key.space	n/a
237.593	0.105	475186	keystroke_c	c	n/a
237.668	0.075	475336	keystroke_o	o	n/a
237.863	0.045	475726	keystroke_l	l	n/a
237.998	0.105	475996	keystroke_l	l	n/a
238.028	0.09	476056	keystroke_e	e	n/a
238.208	0.09	476416	keystroke_c	c	n/a
238.448	0.03	476896	keystroke_t	t	n/a
238.583	0.06	477166	keystroke_e	e	n/a
238.733	0.105	477466	keystroke_d	d	n/a
238.823	0.09	477646	keystroke_Key.space	Key.space	n/a
238.928	0.09	477856	keystroke_p	p	n/a
239.003	0.09	478006	keystroke_r	r	n/a
239.123	0.105	478246	keystroke_o	o	n/a
239.4075	0.105	478815	keystroke_p	p	n/a
239.5575	0.0755	479115	keystroke_o	o	n/a
239.8275	0.06	479655	keystroke_s	s	n/a
239.9775	0.0755	479955	keystroke_a	a	n/a
240.068	0.09	480136	keystroke_l	l	n/a
240.218	0.0895	480436	keystroke_s	s	n/a
240.3375	0.09	480675	keystroke_Key.space	Key.space	n/a
240.548	0.09	481096	keystroke_f	f	n/a
240.623	0.0745	481246	keystroke_i	i	n/a
240.7725	0.06	481545	keystroke_n	n	n/a
240.8775	0.09	481755	keystroke_a	a	n/a
240.9525	0.0605	481905	keystroke_n	n	n/a
241.2075	0.0745	482415	keystroke_c	c	n/a
241.313	0.059	482626	keystroke_i	i	n/a
241.553	0.06	483106	keystroke_n	n	n/a
241.673	0.075	483346	keystroke_g	g	n/a
241.913	0.06	483826	keystroke_Key.enter	Key.enter	n/a
241.9805	5.454	483961	prompt	n/a	gaming michael proposals cordless\n
242.573	0.09	485146	keystroke_g	g	n/a
242.783	0.09	485566	keystroke_a	a	n/a
242.873	0.09	485746	keystroke_m	m	n/a
243.083	0.09	486166	keystroke_i	i	n/a
243.143	0.075	486286	keystroke_n	n	n/a
243.233	0.09	486466	keystroke_g	g	n/a
243.338	0.09	486676	keystroke_Key.space	Key.space	n/a
243.473	0.09	486946	keystroke_m	m	n/a
243.623	0.0895	487246	keystroke_i	i	n/a
243.7575	0.09	487515	keystroke_c	c	n/a
243.8625	0.0605	487725	keystroke_h	h	n/a
243.953	0.105	487906	keystroke_a	a	n/a
244.118	0.09	488236	keystroke_e	e	n/a
244.223	0.075	488446	keystroke_l	l	n/a
244.298	0.09	488596	keystroke_Key.space	Key.space	n/a
244.508	0.09	489016	keystroke_p	p	n/a
244.628	0.09	489256	keystroke_r	r	n/a
244.733	0.06	489466	keystroke_o	o	n/a
244.973	0.075	489946	keystroke_p	p	n/a
245.1975	0.06	490395	keystroke_o	o	n/a
245.4375	0.06	490875	keystroke_s	s	n/a
245.602	0.061	491204	keystroke_a	a	n/a
245.678	0.074	491356	keystroke_l	l	n/a
245.797	0.091	491594	keystroke_s	s	n/a
245.903	0.1045	491806	keystroke_Key.space	Key.space	n/a
246.173	0.09	492346	keystroke_c	c	n/a
246.338	0.06	492676	keystroke_o	o	n/a
246.413	0.075	492826	keystroke_r	r	n/a
246.623	0.09	493246	keystroke_d	d	n/a
246.773	0.075	493546	keystroke_l	l	n/a
246.863	0.075	493726	keystroke_e	e	n/a
247.058	0.075	494116	keystroke_s	s	n/a
247.193	0.09	494386	keystroke_s	s	n/a
247.328	0.105	494656	keystroke_Key.enter	Key.enter	n/a
247.44	6.8045	494880	prompt	n/a	physically flights comparing slideshow\n
248.018	0.075	496036	keystroke_p	p	n/a
248.228	0.06	496456	keystroke_h	h	n/a
248.438	0.075	496876	keystroke_y	y	n/a
248.648	0.09	497296	keystroke_s	s	n/a
248.768	0.075	497536	keystroke_i	i	n/a
248.888	0.09	497776	keystroke_c	c	n/a
249.083	0.075	498166	keystroke_a	a	n/a
249.293	0.075	498586	keystroke_l	l	n/a
249.443	0.09	498886	keystroke_l	l	n/a
249.6525	0.105	499305	keystroke_y	y	n/a
249.7425	0.075	499485	keystroke_Key.space	Key.space	n/a
249.8775	0.105	499755	keystroke_f	f	n/a
249.9975	0.135	499995	keystroke_l	l	n/a
250.1025	0.09	500205	keystroke_i	i	n/a
250.2525	0.09	500505	keystroke_g	g	n/a
250.5075	0.06	501015	keystroke_h	h	n/a
250.6125	0.105	501225	keystroke_t	t	n/a
250.8825	0.105	501765	keystroke_s	s	n/a
251.2125	0.0905	502425	keystroke_Key.space	Key.space	n/a
251.348	0.12	502696	keystroke_c	c	n/a
251.438	0.135	502876	keystroke_o	o	n/a
251.528	0.06	503056	keystroke_m	m	n/a
251.708	0.09	503416	keystroke_p	p	n/a
251.813	0.09	503626	keystroke_a	a	n/a
252.053	0.12	504106	keystroke_r	r	n/a
252.158	0.15	504316	keystroke_i	i	n/a
252.248	0.09	504496	keystroke_n	n	n/a
252.368	0.075	504736	keystroke_g	g	n/a
252.458	0.045	504916	keystroke_Key.space	Key.space	n/a
252.7575	0.105	505515	keystroke_s	s	n/a
252.9075	0.09	505815	keystroke_l	l	n/a
253.0575	0.075	506115	keystroke_i	i	n/a
253.2825	0.06	506565	keystroke_d	d	n/a
253.4475	0.045	506895	keystroke_e	e	n/a
253.6275	0.1055	507255	keystroke_s	s	n/a
253.718	0.075	507436	keystroke_h	h	n/a
253.823	0.1045	507646	keystroke_o	o	n/a
253.9425	0.075	507885	keystroke_w	w	n/a
254.1675	0.075	508335	keystroke_Key.enter	Key.enter	n/a
254.247	7.797	508494	prompt	n/a	contracting participant violence hosts\n
254.7225	0.105	509445	keystroke_c	c	n/a
254.8125	0.15	509625	keystroke_o	o	n/a
254.9325	0.105	509865	keystroke_n	n	n/a
255.0525	0.0755	510105	keystroke_t	t	n/a
255.218	0.045	510436	keystroke_r	r	n/a
255.368	0.075	510736	keystroke_a	a	n/a
255.563	0.06	511126	keystroke_c	c	n/a
255.773	0.06	511546	keystroke_t	t	n/a
255.8775	0.135	511755	keystroke_i	i	n/a
255.9675	0.06	511935	keystroke_n	n	n/a
256.0725	0.075	512145	keystroke_g	g	n/a
256.1925	0.105	512385	keystroke_Key.space	Key.space	n/a
256.3125	0.06	512625	keystroke_p	p	n/a
256.3575	0.09	512715	keystroke_a	a	n/a
256.5225	0.075	513045	keystroke_r	r	n/a
256.6875	0.075	513375	keystroke_t	t	n/a
256.7925	0.09	513585	keystroke_i	i	n/a
257.0325	0.09	514065	keystroke_c	c	n/a
257.1525	0.045	514305	keystroke_i	i	n/a
257.4375	0.09	514875	keystroke_a	a	n/a
257.7825	0.06	515565	keystroke_Key.backspace	Key.backspace	n/a
258.0225	0.045	516045	keystroke_p	p	n/a
258.1125	0.09	516225	keystroke_a	a	n/a
258.2325	0.075	516465	keystroke_n	n	n/a
258.3825	0.075	516765	keystroke_t	t	n/a
258.6675	0.09	517335	keystroke_Key.space	Key.space	n/a
258.9075	0.09	517815	keystroke_c	c	n/a
259.3425	0.0595	518685	keystroke_Key.backspace	Key.backspace	n/a
259.417	0.12	518834	keystroke_v	v	n/a
259.567	0.09	519134	keystroke_i	i	n/a
259.898	0.075	519796	keystroke_o	o	n/a
260.077	0.091	520154	keystroke_l	l	n/a
260.453	0.0745	520906	keystroke_e	e	n/a
260.5725	0.03	521145	keystroke_n	n	n/a
260.6925	0.105	521385	keystroke_c	c	n/a
260.8725	0.075	521745	keystroke_e	e	n/a
261.0675	0.105	522135	keystroke_Key.space	Key.space	n/a
261.1875	0.105	522375	keystroke_h	h	n/a
261.3075	0.09	522615	keystroke_o	o	n/a
261.4425	0.105	522885	keystroke_s	s	n/a
261.6675	0.0605	523335	keystroke_t	t	n/a
261.863	0.1045	523726	keystroke_s	s	n/a
261.9825	0.06	523965	keystroke_Key.enter	Key.enter	n/a
262.0615	7.3775	524123	prompt	n/a	catalog election sold copyright\n
262.5825	0.12	525165	keystroke_c	c	n/a
262.7775	0.12	525555	keystroke_a	a	n/a
263.0325	0.075	526065	keystroke_t	t	n/a
263.2275	0.09	526455	keystroke_a	a	n/a
263.3025	0.06	526605	keystroke_l	l	n/a
263.5575	0.075	527115	keystroke_o	o	n/a
263.6775	0.0905	527355	keystroke_g	g	n/a
263.798	0.0895	527596	keystroke_Key.space	Key.space	n/a
264.038	0.09	528076	keystroke_e	e	n/a
264.143	0.075	528286	keystroke_l	l	n/a
264.218	0.06	528436	keystroke_e	e	n/a
264.383	0.09	528766	keystroke_c	c	n/a
264.593	0.0895	529186	keystroke_t	t	n/a
264.6825	0.165	529365	keystroke_i	i	n/a
264.7875	0.105	529575	keystroke_o	o	n/a
264.8175	0.135	529635	keystroke_n	n	n/a
264.9375	0.09	529875	keystroke_Key.space	Key.space	n/a
265.0725	0.105	530145	keystroke_s	s	n/a
265.1325	0.075	530265	keystroke_o	o	n/a
265.3125	0.09	530625	keystroke_l	l	n/a
265.7775	0.06	531555	keystroke_d	d	n/a
266.017	0.12	532034	keystroke_Key.space	Key.space	n/a
266.287	0.031	532574	keystroke_o	o	n/a
266.632	0.045	533264	keystroke_Key.backspace	Key.backspace	n/a
266.827	0.091	533654	keystroke_c	c	n/a
266.978	0.09	533956	keystroke_o	o	n/a
267.5475	0.075	535095	keystroke_p	p	n/a
268.0425	0.105	536085	keystroke_y	y	n/a
268.6275	0.09	537255	keystroke_r	r	n/a
268.7025	0.075	537405	keystroke_i	i	n/a
268.8075	0.105	537615	keystroke_g	g	n/a
268.8675	0.09	537735	keystroke_h	h	n/a
268.9725	0.12	537945	keystroke_t	t	n/a
269.3475	0.09	538695	keystroke_Key.enter	Key.enter	n/a
269.442	4.902	538884	prompt	n/a	typically he threads force\n
270.1425	0.075	540285	keystroke_t	t	n/a
270.2625	0.06	540525	keystroke_y	y	n/a
270.4575	0.09	540915	keystroke_p	p	n/a
270.5775	0.105	541155	keystroke_i	i	n/a
270.6975	0.09	541395	keystroke_c	c	n/a
270.8325	0.105	541665	keystroke_a	a	n/a
270.9075	0.045	541815	keystroke_l	l	n/a
271.0425	0.09	542085	keystroke_l	l	n/a
271.2825	0.09	542565	keystroke_y	y	n/a
271.3575	0.09	542715	keystroke_Key.space	Key.space	n/a
271.5525	0.075	543105	keystroke_h	h	n/a
271.6425	0.105	543285	keystroke_e	e	n/a
271.7625	0.09	543525	keystroke_Key.space	Key.space	n/a
271.883	0.1045	543766	keystroke_t	t	n/a
272.0025	0.09	544005	keystroke_h	h	n/a
272.1075	0.06	544215	keystroke_r	r	n/a
272.273	0.06	544546	keystroke_e	e	n/a
272.408	0.075	544816	keystroke_a	a	n/a
272.588	0.075	545176	keystroke_d	d	n/a
273.083	0.09	546166	keystroke_s	s	n/a
273.248	0.075	546496	keystroke_Key.space	Key.space	n/a
273.383	0.12	546766	keystroke_f	f	n/a
273.518	0.09	547036	keystroke_o	o	n/a
273.623	0.06	547246	keystroke_r	r	n/a
273.893	0.165	547786	keystroke_c	c	n/a
274.043	0.075	548086	keystroke_e	e	n/a
274.2675	0.075	548535	keystroke_Key.enter	Key.enter	n/a
274.3485	7.6005	548697	prompt	n/a	texts custom instruction damaged\n
275.0025	0.09	550005	keystroke_t	t	n/a
275.1675	0.09	550335	keystroke_e	e	n/a
275.4075	0.12	550815	keystroke_x	x	n/a
275.6925	0.03	551385	keystroke_t	t	n/a
275.9025	0.105	551805	keystroke_s	s	n/a
276.2025	0.06	552405	keystroke_Key.space	Key.space	n/a
276.458	0.105	552916	keystroke_c	c	n/a
276.6375	0.105	553275	keystroke_u	u	n/a
276.7275	0.105	553455	keystroke_s	s	n/a
276.968	0.075	553936	keystroke_t	t	n/a
277.058	0.09	554116	keystroke_o	o	n/a
277.268	0.075	554536	keystroke_m	m	n/a
277.403	0.09	554806	keystroke_Key.space	Key.space	n/a
277.658	0.15	555316	keystroke_i	i	n/a
277.763	0.1045	555526	keystroke_n	n	n/a
277.838	0.09	555676	keystroke_s	s	n/a
278.033	0.06	556066	keystroke_t	t	n/a
278.197	0.1055	556394	keystroke_r	r	n/a
278.3625	0.075	556725	keystroke_u	u	n/a
278.5125	0.09	557025	keystroke_c	c	n/a
278.7675	0.045	557535	keystroke_t	t	n/a
278.8875	0.195	557775	keystroke_i	i	n/a
279.0075	0.135	558015	keystroke_o	o	n/a
279.1275	0.09	558255	keystroke_n	n	n/a
279.2925	0.09	558585	keystroke_d	d	n/a
279.7425	0.075	559485	keystroke_Key.backspace	Key.backspace	n/a
279.8475	0.0905	559695	keystroke_Key.space	Key.space	n/a
280.043	0.135	560086	keystroke_d	d	n/a
280.283	0.045	560566	keystroke_a	a	n/a
280.343	0.075	560686	keystroke_m	m	n/a
280.448	0.165	560896	keystroke_a	a	n/a
280.598	0.045	561196	keystroke_n	n	n/a
280.9875	0.06	561975	keystroke_Key.backspace	Key.backspace	n/a
281.0925	0.135	562185	keystroke_g	g	n/a
281.2125	0.1355	562425	keystroke_e	e	n/a
281.528	0.09	563056	keystroke_d	d	n/a
281.842	0.1055	563684	keystroke_Key.enter	Key.enter	n/a
281.959	8.6305	563918	prompt	n/a	assess additions recovered hostels\n
282.4725	0.075	564945	keystroke_s	s	n/a
282.8625	0.06	565725	keystroke_Key.backspace	Key.backspace	n/a
282.9075	0.09	565815	keystroke_a	a	n/a
283.2375	0.09	566475	keystroke_s	s	n/a
283.4025	0.09	566805	keystroke_e	e	n/a
284.032	0.046	568064	keystroke_Key.backspace	Key.backspace	n/a
284.107	0.105	568214	keystroke_s	s	n/a
284.318	0.059	568636	keystroke_e	e	n/a
284.482	0.075	568964	keystroke_s	s	n/a
284.647	0.091	569294	keystroke_s	s	n/a
284.782	0.105	569564	keystroke_Key.space	Key.space	n/a
284.932	0.06	569864	keystroke_a	a	n/a
285.0975	0.045	570195	keystroke_d	d	n/a
285.2175	0.075	570435	keystroke_d	d	n/a
285.3075	0.09	570615	keystroke_i	i	n/a
285.6675	0.075	571335	keystroke_t	t	n/a
285.7435	0.149	571487	keystroke_i	i	n/a
285.8325	0.1655	571665	keystroke_o	o	n/a
285.9225	0.1055	571845	keystroke_n	n	n/a
286.0425	0.09	572085	keystroke_s	s	n/a
286.1475	0.09	572295	keystroke_Key.space	Key.space	n/a
286.268	0.09	572536	keystroke_r	r	n/a
286.4475	0.105	572895	keystroke_e	e	n/a
286.6275	0.09	573255	keystroke_v	v	n/a
286.8825	0.105	573765	keystroke_o	o	n/a
287.0625	0.075	574125	keystroke_v	v	n/a
287.3775	0.06	574755	keystroke_Key.backspace	Key.backspace	n/a
287.5425	0.045	575085	keystroke_Key.backspace	Key.backspace	n/a
287.6625	0.105	575325	keystroke_Key.backspace	Key.backspace	n/a
287.7685	0.089	575537	keystroke_c	c	n/a
287.9025	0.06	575805	keystroke_o	o	n/a
288.0075	0.12	576015	keystroke_v	v	n/a
288.1425	0.1055	576285	keystroke_e	e	n/a
288.203	0.105	576406	keystroke_r	r	n/a
288.353	0.09	576706	keystroke_e	e	n/a
288.638	0.09	577276	keystroke_d	d	n/a
288.773	0.0895	577546	keystroke_Key.space	Key.space	n/a
289.433	0.09	578866	keystroke_h	h	n/a
289.538	0.12	579076	keystroke_o	o	n/a
289.628	0.105	579256	keystroke_s	s	n/a
289.883	0.06	579766	keystroke_t	t	n/a
290.063	0.09	580126	keystroke_e	e	n/a
290.168	0.09	580336	keystroke_l	l	n/a
290.303	0.105	580606	keystroke_s	s	n/a
290.498	0.0895	580996	keystroke_Key.enter	Key.enter	n/a
290.601	6.4685	581202	prompt	n/a	drums prisoners listings specialties\n
291.128	0.105	582256	keystroke_d	d	n/a
291.353	0.075	582706	keystroke_r	r	n/a
291.473	0.075	582946	keystroke_u	u	n/a
291.713	0.045	583426	keystroke_m	m	n/a
291.788	0.105	583576	keystroke_s	s	n/a
291.937	0.061	583874	keystroke_Key.space	Key.space	n/a
292.148	0.075	584296	keystroke_p	p	n/a
292.238	0.105	584476	keystroke_r	r	n/a
292.372	0.076	584744	keystroke_i	i	n/a
292.583	0.089	585166	keystroke_s	s	n/a
292.688	0.059	585376	keystroke_o	o	n/a
292.853	0.09	585706	keystroke_n	n	n/a
292.988	0.075	585976	keystroke_e	e	n/a
293.018	0.09	586036	keystroke_r	r	n/a
293.2425	0.1045	586485	keystroke_s	s	n/a
293.332	0.105	586664	keystroke_Key.space	Key.space	n/a
293.423	0.12	586846	keystroke_l	l	n/a
293.573	0.075	587146	keystroke_i	i	n/a
293.722	0.09	587444	keystroke_s	s	n/a
293.9475	0.045	587895	keystroke_t	t	n/a
294.0525	0.15	588105	keystroke_i	i	n/a
294.1575	0.09	588315	keystroke_n	n	n/a
294.2325	0.075	588465	keystroke_g	g	n/a
294.4725	0.09	588945	keystroke_s	s	n/a
294.5475	0.09	589095	keystroke_Key.space	Key.space	n/a
294.8925	0.105	589785	keystroke_s	s	n/a
295.0275	0.09	590055	keystroke_p	p	n/a
295.1325	0.105	590265	keystroke_e	e	n/a
295.4025	0.09	590805	keystroke_c	c	n/a
295.9125	0.075	591825	keystroke_i	i	n/a
296.0175	0.0745	592035	keystroke_a	a	n/a
296.138	0.074	592276	keystroke_l	l	n/a
296.452	0.045	592904	keystroke_t	t	n/a
296.528	0.09	593056	keystroke_i	i	n/a
296.632	0.045	593264	keystroke_e	e	n/a
296.797	0.091	593594	keystroke_s	s	n/a
296.962	0.106	593924	keystroke_Key.enter	Key.enter	n/a
297.072	6.372	594144	prompt	n/a	represented cleveland frontier arrived\n
297.6675	0.075	595335	keystroke_r	r	n/a
297.8475	0.0755	595695	keystroke_e	e	n/a
297.983	0.06	595966	keystroke_p	p	n/a
298.073	0.0895	596146	keystroke_r	r	n/a
298.2525	0.06	596505	keystroke_e	e	n/a
298.4475	0.06	596895	keystroke_s	s	n/a
298.6275	0.06	597255	keystroke_e	e	n/a
298.7025	0.09	597405	keystroke_n	n	n/a
298.8375	0.075	597675	keystroke_t	t	n/a
298.9725	0.09	597945	keystroke_e	e	n/a
299.1675	0.06	598335	keystroke_d	d	n/a
299.2575	0.09	598515	keystroke_Key.space	Key.space	n/a
299.4675	0.015	598935	keystroke_c	c	n/a
299.5275	0.09	599055	keystroke_l	l	n/a
299.6325	0.075	599265	keystroke_e	e	n/a
299.8425	0.09	599685	keystroke_v	v	n/a
300.0075	0.1055	600015	keystroke_e	e	n/a
300.143	0.06	600286	keystroke_l	l	n/a
300.278	0.06	600556	keystroke_a	a	n/a
300.368	0.09	600736	keystroke_n	n	n/a
300.488	0.075	600976	keystroke_d	d	n/a
300.623	0.12	601246	keystroke_Key.space	Key.space	n/a
300.998	0.075	601996	keystroke_f	f	n/a
301.163	0.075	602326	keystroke_r	r	n/a
301.283	0.075	602566	keystroke_o	o	n/a
301.478	0.06	602956	keystroke_n	n	n/a
301.523	0.075	603046	keystroke_t	t	n/a
301.688	0.06	603376	keystroke_i	i	n/a
301.793	0.1195	603586	keystroke_e	e	n/a
301.853	0.0895	603706	keystroke_r	r	n/a
302.0775	0.075	604155	keystroke_Key.space	Key.space	n/a
302.2875	0.06	604575	keystroke_a	a	n/a
302.4825	0.03	604965	keystroke_r	r	n/a
302.5875	0.075	605175	keystroke_r	r	n/a
302.7225	0.075	605445	keystroke_i	i	n/a
302.8125	0.135	605625	keystroke_v	v	n/a
302.9925	0.06	605985	keystroke_e	e	n/a
303.1875	0.0905	606375	keystroke_d	d	n/a
303.368	0.075	606736	keystroke_Key.enter	Key.enter	n/a
303.455	6.289	606910	prompt	n/a	hospitals celebrate drives experts\n
304.118	0.075	608236	keystroke_h	h	n/a
304.208	0.09	608416	keystroke_o	o	n/a
304.313	0.09	608626	keystroke_s	s	n/a
304.463	0.075	608926	keystroke_p	p	n/a
304.673	0.09	609346	keystroke_i	i	n/a
304.928	0.06	609856	keystroke_t	t	n/a
305.1375	0.09	610275	keystroke_a	a	n/a
305.2285	0.104	610457	keystroke_l	l	n/a
305.3925	0.075	610785	keystroke_s	s	n/a
305.528	0.09	611056	keystroke_Key.space	Key.space	n/a
305.798	0.06	611596	keystroke_c	c	n/a
305.978	0.09	611956	keystroke_e	e	n/a
306.083	0.06	612166	keystroke_l	l	n/a
306.188	0.06	612376	keystroke_e	e	n/a
306.293	0.075	612586	keystroke_b	b	n/a
306.383	0.0595	612766	keystroke_r	r	n/a
306.5775	0.045	613155	keystroke_a	a	n/a
306.8175	0.06	613635	keystroke_t	t	n/a
306.968	0.075	613936	keystroke_e	e	n/a
307.058	0.075	614116	keystroke_Key.space	Key.space	n/a
307.238	0.06	614476	keystroke_d	d	n/a
307.388	0.075	614776	keystroke_r	r	n/a
307.523	0.09	615046	keystroke_i	i	n/a
307.598	0.18	615196	keystroke_v	v	n/a
307.748	0.12	615496	keystroke_e	e	n/a
308.213	0.075	616426	keystroke_s	s	n/a
308.363	0.075	616726	keystroke_Key.space	Key.space	n/a
308.528	0.06	617056	keystroke_e	e	n/a
308.723	0.09	617446	keystroke_x	x	n/a
308.828	0.06	617656	keystroke_p	p	n/a
309.023	0.075	618046	keystroke_e	e	n/a
309.068	0.075	618136	keystroke_r	r	n/a
309.338	0.09	618676	keystroke_s	s	n/a
309.653	0.09	619306	keystroke_Key.enter	Key.enter	n/a
309.7645	8.3645	619529	prompt	n/a	makeup subsequently hockey artist\n
310.358	0.09	620716	keystroke_m	m	n/a
310.463	0.09	620926	keystroke_a	a	n/a
310.778	0.105	621556	keystroke_k	k	n/a
310.883	0.075	621766	keystroke_e	e	n/a
311.243	0.09	622486	keystroke_u	u	n/a
311.378	0.105	622756	keystroke_p	p	n/a
311.498	0.09	622996	keystroke_Key.space	Key.space	n/a
311.693	0.105	623386	keystroke_s	s	n/a
312.0075	0.075	624015	keystroke_u	u	n/a
312.1875	0.06	624375	keystroke_b	b	n/a
312.3075	0.0905	624615	keystroke_s	s	n/a
312.503	0.075	625006	keystroke_e	e	n/a
313.343	0.12	626686	keystroke_q	q	n/a
313.493	0.09	626986	keystroke_u	u	n/a
313.898	0.09	627796	keystroke_e	e	n/a
314.138	0.09	628276	keystroke_n	n	n/a
314.288	0.09	628576	keystroke_t	t	n/a
314.783	0.105	629566	keystroke_l	l	n/a
315.083	0.12	630166	keystroke_y	y	n/a
315.188	0.09	630376	keystroke_Key.space	Key.space	n/a
315.443	0.075	630886	keystroke_h	h	n/a
315.608	0.09	631216	keystroke_o	o	n/a
315.728	0.135	631456	keystroke_c	c	n/a
315.818	0.135	631636	keystroke_k	k	n/a
316.028	0.09	632056	keystroke_e	e	n/a
316.358	0.1045	632716	keystroke_y	y	n/a
316.4775	0.09	632955	keystroke_Key.space	Key.space	n/a
316.8225	0.105	633645	keystroke_a	a	n/a
317.0025	0.09	634005	keystroke_r	r	n/a
317.1825	0.075	634365	keystroke_t	t	n/a
317.2875	0.06	634575	keystroke_i	i	n/a
317.5425	0.015	635085	keystroke_s	s	n/a
317.6625	0.06	635325	keystroke_t	t	n/a
318.038	0.09	636076	keystroke_Key.enter	Key.enter	n/a
318.133	5.411	636266	prompt	n/a	promising good who'll objective\n
318.758	0.09	637516	keystroke_p	p	n/a
318.833	0.12	637666	keystroke_r	r	n/a
318.968	0.075	637936	keystroke_o	o	n/a
319.268	0.09	638536	keystroke_m	m	n/a
319.493	0.045	638986	keystroke_i	i	n/a
319.673	0.09	639346	keystroke_s	s	n/a
319.778	0.1345	639556	keystroke_i	i	n/a
319.8825	0.09	639765	keystroke_n	n	n/a
319.9875	0.075	639975	keystroke_g	g	n/a
320.0775	0.09	640155	keystroke_Key.space	Key.space	n/a
320.2575	0.09	640515	keystroke_g	g	n/a
320.3625	0.045	640725	keystroke_o	o	n/a
320.513	0.0745	641026	keystroke_o	o	n/a
320.6325	0.06	641265	keystroke_d	d	n/a
320.7375	0.105	641475	keystroke_Key.space	Key.space	n/a
320.9475	0.09	641895	keystroke_w	w	n/a
321.0225	0.09	642045	keystroke_h	h	n/a
321.0675	0.135	642135	keystroke_o	o	n/a
321.3375	0.06	642675	keystroke_'	'	n/a
321.548	0.045	643096	keystroke_l	l	n/a
321.668	0.09	643336	keystroke_l	l	n/a
321.758	0.075	643516	keystroke_Key.space	Key.space	n/a
321.878	0.075	643756	keystroke_o	o	n/a
322.0725	0.06	644145	keystroke_b	b	n/a
322.3275	0.045	644655	keystroke_j	j	n/a
322.4475	0.075	644895	keystroke_e	e	n/a
322.6275	0.105	645255	keystroke_c	c	n/a
322.8525	0.09	645705	keystroke_t	t	n/a
322.8975	0.12	645795	keystroke_i	i	n/a
323.1075	0.12	646215	keystroke_v	v	n/a
323.273	0.09	646546	keystroke_e	e	n/a
323.468	0.075	646936	keystroke_Key.enter	Key.enter	n/a
323.557	8.462	647114	prompt	n/a	classroom equilibrium pensions without\n
324.1275	0.12	648255	keystroke_c	c	n/a
324.2775	0.06	648555	keystroke_l	l	n/a
324.3675	0.075	648735	keystroke_a	a	n/a
324.5475	0.0605	649095	keystroke_s	s	n/a
324.623	0.135	649246	keystroke_s	s	n/a
325.073	0.09	650146	keystroke_r	r	n/a
325.208	0.09	650416	keystroke_o	o	n/a
325.403	0.075	650806	keystroke_o	o	n/a
325.613	0.03	651226	keystroke_m	m	n/a
325.673	0.09	651346	keystroke_Key.space	Key.space	n/a
325.883	0.075	651766	keystroke_e	e	n/a
326.183	0.09	652366	keystroke_q	q	n/a
326.303	0.12	652606	keystroke_u	u	n/a
326.378	0.09	652756	keystroke_i	i	n/a
326.633	0.045	653266	keystroke_l	l	n/a
326.753	0.075	653506	keystroke_i	i	n/a
326.918	0.075	653836	keystroke_v	v	n/a
327.413	0.06	654826	keystroke_Key.backspace	Key.backspace	n/a
327.578	0.075	655156	keystroke_b	b	n/a
327.863	0.09	655726	keystroke_i	i	n/a
328.433	0.045	656866	keystroke_Key.backspace	Key.backspace	n/a
328.523	0.06	657046	keystroke_r	r	n/a
328.6875	0.06	657375	keystroke_i	i	n/a
328.9575	0.06	657915	keystroke_u	u	n/a
329.3325	0.045	658665	keystroke_m	m	n/a
329.5725	0.075	659145	keystroke_Key.space	Key.space	n/a
329.8725	0.0755	659745	keystroke_p	p	n/a
330.008	0.0745	660016	keystroke_e	e	n/a
330.1275	0.075	660255	keystroke_n	n	n/a
330.4125	0.09	660825	keystroke_s	s	n/a
330.4725	0.165	660945	keystroke_i	i	n/a
330.5925	0.105	661185	keystroke_o	o	n/a
330.6225	0.105	661245	keystroke_n	n	n/a
330.7725	0.075	661545	keystroke_s	s	n/a
330.9375	0.06	661875	keystroke_Key.space	Key.space	n/a
331.0725	0.09	662145	keystroke_w	w	n/a
331.1775	0.075	662355	keystroke_i	i	n/a
331.3125	0.09	662625	keystroke_t	t	n/a
331.3875	0.045	662775	keystroke_h	h	n/a
331.493	0.105	662986	keystroke_o	o	n/a
331.553	0.075	663106	keystroke_u	u	n/a
331.718	0.045	663436	keystroke_t	t	n/a
331.973	0.045	663946	keystroke_Key.enter	Key.enter	n/a
332.022	5.967	664044	prompt	n/a	concept crimes money swiss\n
332.588	0.105	665176	keystroke_c	c	n/a
332.678	0.1195	665356	keystroke_o	o	n/a
332.768	0.0895	665536	keystroke_n	n	n/a
333.0375	0.09	666075	keystroke_c	c	n/a
333.1875	0.105	666375	keystroke_e	e	n/a
333.3075	0.06	666615	keystroke_p	p	n/a
333.4425	0.09	666885	keystroke_t	t	n/a
333.6225	0.075	667245	keystroke_Key.space	Key.space	n/a
334.073	0.09	668146	keystroke_c	c	n/a
334.2975	0.06	668595	keystroke_r	r	n/a
334.3875	0.06	668775	keystroke_i	i	n/a
334.6125	0.06	669225	keystroke_m	m	n/a
334.9575	0.06	669915	keystroke_e	e	n/a
335.1375	0.09	670275	keystroke_s	s	n/a
335.2425	0.09	670485	keystroke_Key.space	Key.space	n/a
335.3925	0.1055	670785	keystroke_m	m	n/a
335.5575	0.12	671115	keystroke_o	o	n/a
335.6325	0.105	671265	keystroke_n	n	n/a
335.7385	0.089	671477	keystroke_e	e	n/a
336.0075	0.09	672015	keystroke_Key.space	Key.space	n/a
336.3675	0.06	672735	keystroke_Key.backspace	Key.backspace	n/a
336.5925	0.06	673185	keystroke_y	y	n/a
336.6225	0.09	673245	keystroke_Key.space	Key.space	n/a
336.6975	0.105	673395	keystroke_s	s	n/a
336.908	0.075	673816	keystroke_w	w	n/a
337.058	0.09	674116	keystroke_i	i	n/a
337.568	0.075	675136	keystroke_s	s	n/a
337.703	0.105	675406	keystroke_s	s	n/a
337.913	0.075	675826	keystroke_Key.enter	Key.enter	n/a
337.9925	5.7115	675985	prompt	n/a	round outcome gate treaty\n
338.6325	0.105	677265	keystroke_r	r	n/a
338.8275	0.105	677655	keystroke_o	o	n/a
338.9025	0.06	677805	keystroke_u	u	n/a
339.1125	0.075	678225	keystroke_n	n	n/a
339.2175	0.105	678435	keystroke_d	d	n/a
339.3675	0.06	678735	keystroke_Key.space	Key.space	n/a
339.5325	0.09	679065	keystroke_o	o	n/a
339.5775	0.075	679155	keystroke_u	u	n/a
339.6675	0.075	679335	keystroke_t	t	n/a
339.9825	0.135	679965	keystroke_c	c	n/a
340.0425	0.06	680085	keystroke_o	o	n/a
340.2525	0.06	680505	keystroke_m	m	n/a
340.3875	0.06	680775	keystroke_e	e	n/a
340.5975	0.075	681195	keystroke_Key.space	Key.space	n/a
340.8975	0.09	681795	keystroke_g	g	n/a
341.0625	0.105	682125	keystroke_a	a	n/a
341.1975	0.0905	682395	keystroke_t	t	n/a
341.288	0.09	682576	keystroke_e	e	n/a
341.393	0.1195	682786	keystroke_Key.space	Key.space	n/a
341.6475	0.105	683295	keystroke_t	t	n/a
342.2025	0.075	684405	keystroke_r	r	n/a
342.368	0.074	684736	keystroke_e	e	n/a
342.532	0.09	685064	keystroke_a	a	n/a
342.788	0.09	685576	keystroke_t	t	n/a
343.657	0.0455	687314	keystroke_Key.enter	Key.enter	n/a
343.7075	11.907	687415	prompt	n/a	athletic salad mathematical somebody's\n
349.6895	0.043	699379	keystroke_a	a	n/a
349.8825	0.105	699765	keystroke_t	t	n/a
350.0025	0.06	700005	keystroke_h	h	n/a
350.1525	0.09	700305	keystroke_l	l	n/a
350.2435	0.074	700487	keystroke_e	e	n/a
350.4375	0.075	700875	keystroke_t	t	n/a
350.5425	0.0905	701085	keystroke_i	i	n/a
350.798	0.0595	701596	keystroke_c	c	n/a
350.9625	0.09	701925	keystroke_Key.space	Key.space	n/a
351.1125	0.075	702225	keystroke_s	s	n/a
351.2925	0.075	702585	keystroke_a	a	n/a
351.3525	0.075	702705	keystroke_l	l	n/a
351.4575	0.075	702915	keystroke_a	a	n/a
351.6225	0.09	703245	keystroke_d	d	n/a
351.7575	0.09	703515	keystroke_Key.space	Key.space	n/a
352.0425	0.09	704085	keystroke_m	m	n/a
352.1475	0.075	704295	keystroke_a	a	n/a
352.3725	0.075	704745	keystroke_t	t	n/a
352.4775	0.06	704955	keystroke_h	h	n/a
352.6575	0.075	705315	keystroke_e	e	n/a
352.7625	0.0755	705525	keystroke_m	m	n/a
352.868	0.075	705736	keystroke_a	a	n/a
353.078	0.09	706156	keystroke_t	t	n/a
353.183	0.09	706366	keystroke_i	i	n/a
353.348	0.09	706696	keystroke_c	c	n/a
353.543	0.105	707086	keystroke_a	a	n/a
353.633	0.105	707266	keystroke_l	l	n/a
353.753	0.075	707506	keystroke_Key.space	Key.space	n/a
353.9025	0.135	707805	keystroke_s	s	n/a
354.0525	0.075	708105	keystroke_o	o	n/a
354.0825	0.105	708165	keystroke_m	m	n/a
354.1885	0.089	708377	keystroke_e	e	n/a
354.578	0.06	709156	keystroke_b	b	n/a
354.758	0.09	709516	keystroke_o	o	n/a
354.863	0.075	709726	keystroke_d	d	n/a
354.968	0.06	709936	keystroke_y	y	n/a
355.178	0.12	710356	keystroke_'	'	n/a
355.313	0.09	710626	keystroke_s	s	n/a
355.598	0.015	711196	keystroke_Key.enter	Key.enter	n/a
355.617	7.5575	711234	prompt	n/a	copyrights earnings marsh dome\n
356.318	0.015	712636	keystroke_c	c	n/a
356.363	0.09	712726	keystroke_o	o	n/a
356.6925	0.06	713385	keystroke_p	p	n/a
356.9475	0.0755	713895	keystroke_y	y	n/a
357.998	0.09	715996	keystroke_r	r	n/a
358.118	0.075	716236	keystroke_i	i	n/a
358.238	0.075	716476	keystroke_g	g	n/a
358.328	0.075	716656	keystroke_h	h	n/a
358.463	0.045	716926	keystroke_t	t	n/a
358.958	0.105	717916	keystroke_s	s	n/a
359.123	0.06	718246	keystroke_Key.space	Key.space	n/a
359.303	0.06	718606	keystroke_e	e	n/a
359.453	0.105	718906	keystroke_a	a	n/a
359.678	0.09	719356	keystroke_r	r	n/a
359.783	0.06	719566	keystroke_n	n	n/a
359.903	0.1345	719806	keystroke_i	i	n/a
359.993	0.0895	719986	keystroke_n	n	n/a
360.0975	0.09	720195	keystroke_g	g	n/a
360.3075	0.12	720615	keystroke_s	s	n/a
360.4135	0.074	720827	keystroke_Key.space	Key.space	n/a
360.6075	0.12	721215	keystroke_m	m	n/a
360.6975	0.09	721395	keystroke_a	a	n/a
360.8775	0.075	721755	keystroke_r	r	n/a
361.2675	0.075	722535	keystroke_s	s	n/a
361.3875	0.1055	722775	keystroke_h	h	n/a
361.523	0.105	723046	keystroke_Key.space	Key.space	n/a
361.673	0.09	723346	keystroke_d	d	n/a
361.9725	0.09	723945	keystroke_m	m	n/a
362.3025	0.075	724605	keystroke_Key.backspace	Key.backspace	n/a
362.5575	0.135	725115	keystroke_o	o	n/a
362.7075	0.09	725415	keystroke_m	m	n/a
362.8125	0.12	725625	keystroke_e	e	n/a
363.0675	0.105	726135	keystroke_Key.enter	Key.enter	n/a
363.177	5.5625	726354	prompt	n/a	nigeria chapter debt britney\n
363.8475	0.0745	727695	keystroke_n	n	n/a
363.998	0.105	727996	keystroke_i	i	n/a
364.162	0.105	728324	keystroke_g	g	n/a
364.327	0.106	728654	keystroke_e	e	n/a
364.388	0.119	728776	keystroke_r	r	n/a
364.522	0.075	729044	keystroke_i	i	n/a
364.717	0.1055	729434	keystroke_a	a	n/a
364.882	0.06	729764	keystroke_Key.space	Key.space	n/a
365.062	0.075	730124	keystroke_c	c	n/a
365.153	0.059	730306	keystroke_h	h	n/a
365.242	0.1205	730484	keystroke_a	a	n/a
365.333	0.059	730666	keystroke_p	p	n/a
365.588	0.0595	731176	keystroke_t	t	n/a
365.7825	0.075	731565	keystroke_e	e	n/a
365.8125	0.105	731625	keystroke_r	r	n/a
365.9325	0.075	731865	keystroke_Key.space	Key.space	n/a
366.1585	0.074	732317	keystroke_d	d	n/a
366.3225	0.09	732645	keystroke_e	e	n/a
366.4275	0.09	732855	keystroke_b	b	n/a
366.5625	0.106	733125	keystroke_t	t	n/a
366.6825	0.09	733365	keystroke_Key.space	Key.space	n/a
366.9235	0.044	733847	keystroke_b	b	n/a
367.0725	0.1055	734145	keystroke_r	r	n/a
367.193	0.09	734386	keystroke_i	i	n/a
367.313	0.075	734626	keystroke_t	t	n/a
367.448	0.06	734896	keystroke_h	h	n/a
367.868	0.0445	735736	keystroke_Key.backspace	Key.backspace	n/a
368.0775	0.06	736155	keystroke_n	n	n/a
368.1525	0.075	736305	keystroke_e	e	n/a
368.2875	0.045	736575	keystroke_y	y	n/a
368.7225	0.015	737445	keystroke_Key.enter	Key.enter	n/a
368.7425	6.0265	737485	prompt	n/a	visits shot undo practical\n
370.388	0.105	740776	keystroke_v	v	n/a
370.538	0.075	741076	keystroke_i	i	n/a
370.628	0.105	741256	keystroke_s	s	n/a
370.838	0.06	741676	keystroke_i	i	n/a
370.928	0.0595	741856	keystroke_t	t	n/a
371.1375	0.09	742275	keystroke_s	s	n/a
371.3925	0.075	742785	keystroke_Key.space	Key.space	n/a
371.8575	0.12	743715	keystroke_s	s	n/a
371.9175	0.09	743835	keystroke_h	h	n/a
372.0225	0.091	744045	keystroke_o	o	n/a
372.1725	0.075	744345	keystroke_t	t	n/a
372.2625	0.09	744525	keystroke_Key.space	Key.space	n/a
372.5025	0.151	745005	keystroke_u	u	n/a
372.6975	0.105	745395	keystroke_n	n	n/a
372.8325	0.0755	745665	keystroke_d	d	n/a
372.922	0.1055	745844	keystroke_o	o	n/a
373.012	0.1055	746024	keystroke_Key.space	Key.space	n/a
373.178	0.089	746356	keystroke_p	p	n/a
373.222	0.0755	746444	keystroke_r	r	n/a
373.4175	0.0745	746835	keystroke_a	a	n/a
373.597	0.106	747194	keystroke_c	c	n/a
373.823	0.0745	747646	keystroke_t	t	n/a
374.0025	0.1205	748005	keystroke_i	i	n/a
374.182	0.091	748364	keystroke_c	c	n/a
374.363	0.089	748726	keystroke_a	a	n/a
374.453	0.045	748906	keystroke_l	l	n/a
374.708	0.059	749416	keystroke_Key.enter	Key.enter	n/a
374.7715	5.9685	749543	prompt	n/a	ability terrace determination shelter\n
375.383	0.12	750766	keystroke_a	a	n/a
375.757	0.046	751514	keystroke_b	b	n/a
375.908	0.06	751816	keystroke_i	i	n/a
376.073	0.06	752146	keystroke_l	l	n/a
376.223	0.09	752446	keystroke_i	i	n/a
376.387	0.076	752774	keystroke_t	t	n/a
376.478	0.105	752956	keystroke_y	y	n/a
376.5975	0.105	753195	keystroke_Key.space	Key.space	n/a
376.7625	0.075	753525	keystroke_t	t	n/a
376.988	0.09	753976	keystroke_e	e	n/a
377.0175	0.105	754035	keystroke_r	r	n/a
377.1825	0.0905	754365	keystroke_r	r	n/a
377.408	0.03	754816	keystroke_a	a	n/a
377.558	0.075	755116	keystroke_c	c	n/a
377.708	0.0745	755416	keystroke_e	e	n/a
377.8125	0.0755	755625	keystroke_Key.space	Key.space	n/a
377.933	0.075	755866	keystroke_d	d	n/a
378.113	0.06	756226	keystroke_e	e	n/a
378.3225	0.045	756645	keystroke_t	t	n/a
378.4725	0.06	756945	keystroke_e	e	n/a
378.4875	0.105	756975	keystroke_r	r	n/a
378.6225	0.075	757245	keystroke_m	m	n/a
378.8325	0.1055	757665	keystroke_i	i	n/a
378.923	0.09	757846	keystroke_n	n	n/a
379.088	0.045	758176	keystroke_a	a	n/a
379.283	0.06	758566	keystroke_t	t	n/a
379.388	0.165	758776	keystroke_i	i	n/a
379.508	0.12	759016	keystroke_o	o	n/a
379.553	0.12	759106	keystroke_n	n	n/a
379.658	0.075	759316	keystroke_Key.space	Key.space	n/a
379.763	0.135	759526	keystroke_s	s	n/a
379.883	0.03	759766	keystroke_h	h	n/a
379.973	0.075	759946	keystroke_e	e	n/a
380.063	0.06	760126	keystroke_l	l	n/a
380.303	0.045	760606	keystroke_t	t	n/a
380.468	0.06	760936	keystroke_e	e	n/a
380.498	0.09	760996	keystroke_r	r	n/a
380.663	0.075	761326	keystroke_Key.enter	Key.enter	n/a
380.7425	7.1815	761485	prompt	n/a	detection resolved restricted breath\n
381.248	0.06	762496	keystroke_d	d	n/a
381.398	0.075	762796	keystroke_e	e	n/a
381.593	0.06	763186	keystroke_t	t	n/a
381.743	0.06	763486	keystroke_e	e	n/a
381.953	0.045	763906	keystroke_c	c	n/a
382.148	0.03	764296	keystroke_t	t	n/a
382.568	0.165	765136	keystroke_i	i	n/a
382.687	0.09	765374	keystroke_o	o	n/a
382.718	0.09	765436	keystroke_n	n	n/a
382.927	0.06	765854	keystroke_Key.space	Key.space	n/a
383.123	0.075	766246	keystroke_r	r	n/a
383.2875	0.06	766575	keystroke_e	e	n/a
383.4975	0.09	766995	keystroke_s	s	n/a
383.5725	0.045	767145	keystroke_o	o	n/a
383.7375	0.075	767475	keystroke_l	l	n/a
383.7975	0.0755	767595	keystroke_v	v	n/a
383.918	0.075	767836	keystroke_e	e	n/a
384.083	0.075	768166	keystroke_d	d	n/a
384.143	0.075	768286	keystroke_Key.space	Key.space	n/a
384.503	0.075	769006	keystroke_r	r	n/a
384.683	0.06	769366	keystroke_e	e	n/a
384.893	0.135	769786	keystroke_s	s	n/a
385.208	0.075	770416	keystroke_t	t	n/a
385.373	0.075	770746	keystroke_r	r	n/a
385.493	0.075	770986	keystroke_i	i	n/a
385.688	0.075	771376	keystroke_c	c	n/a
385.898	0.0595	771796	keystroke_t	t	n/a
386.0625	0.06	772125	keystroke_e	e	n/a
386.2125	0.0755	772425	keystroke_d	d	n/a
386.3175	0.0755	772635	keystroke_Key.space	Key.space	n/a
386.498	0.09	772996	keystroke_b	b	n/a
386.5425	0.075	773085	keystroke_r	r	n/a
386.693	0.0745	773386	keystroke_e	e	n/a
386.888	0.09	773776	keystroke_a	a	n/a
386.993	0.06	773986	keystroke_t	t	n/a
387.5775	0.0605	775155	keystroke_h	h	n/a
387.848	0.075	775696	keystroke_Key.enter	Key.enter	n/a
387.927	4.902	775854	prompt	n/a	tracking lets index shelf\n
388.523	0.075	777046	keystroke_r	r	n/a
388.973	0.075	777946	keystroke_Key.backspace	Key.backspace	n/a
389.033	0.075	778066	keystroke_t	t	n/a
389.198	0.09	778396	keystroke_r	r	n/a
389.4075	0.045	778815	keystroke_a	a	n/a
389.6025	0.075	779205	keystroke_c	c	n/a
389.6925	0.09	779385	keystroke_k	k	n/a
389.8725	0.0905	779745	keystroke_i	i	n/a
389.918	0.12	779836	keystroke_n	n	n/a
390.023	0.12	780046	keystroke_g	g	n/a
390.128	0.09	780256	keystroke_Key.space	Key.space	n/a
390.203	0.09	780406	keystroke_l	l	n/a
390.248	0.09	780496	keystroke_e	e	n/a
390.398	0.09	780796	keystroke_t	t	n/a
390.638	0.075	781276	keystroke_s	s	n/a
390.698	0.075	781396	keystroke_Key.space	Key.space	n/a
390.938	0.105	781876	keystroke_i	i	n/a
391.013	0.105	782026	keystroke_n	n	n/a
391.118	0.06	782236	keystroke_d	d	n/a
391.268	0.075	782536	keystroke_e	e	n/a
391.7475	0.06	783495	keystroke_x	x	n/a
391.868	0.075	783736	keystroke_Key.space	Key.space	n/a
392.048	0.09	784096	keystroke_s	s	n/a
392.123	0.089	784246	keystroke_h	h	n/a
392.257	0.075	784514	keystroke_e	e	n/a
392.347	0.09	784694	keystroke_l	l	n/a
392.542	0.09	785084	keystroke_f	f	n/a
392.752	0.075	785504	keystroke_Key.enter	Key.enter	n/a
392.8315	6.3125	785663	prompt	n/a	mood expires literally penetration\n
393.4725	0.075	786945	keystroke_m	m	n/a
393.6375	0.045	787275	keystroke_o	o	n/a
393.7725	0.09	787545	keystroke_o	o	n/a
393.8775	0.09	787755	keystroke_d	d	n/a
394.0125	0.09	788025	keystroke_Key.space	Key.space	n/a
394.1025	0.0605	788205	keystroke_e	e	n/a
394.328	0.09	788656	keystroke_x	x	n/a
394.403	0.135	788806	keystroke_p	p	n/a
394.508	0.09	789016	keystroke_i	i	n/a
394.643	0.075	789286	keystroke_r	r	n/a
394.838	0.075	789676	keystroke_e	e	n/a
395.048	0.105	790096	keystroke_s	s	n/a
395.168	0.0895	790336	keystroke_Key.space	Key.space	n/a
395.317	0.09	790634	keystroke_l	l	n/a
395.392	0.105	790784	keystroke_i	i	n/a
395.587	0.06	791174	keystroke_t	t	n/a
395.752	0.09	791504	keystroke_e	e	n/a
395.798	0.104	791596	keystroke_r	r	n/a
396.127	0.09	792254	keystroke_a	a	n/a
396.3975	0.075	792795	keystroke_l	l	n/a
396.5775	0.06	793155	keystroke_l	l	n/a
396.7875	0.1505	793575	keystroke_y	y	n/a
396.923	0.075	793846	keystroke_Key.space	Key.space	n/a
397.133	0.0745	794266	keystroke_p	p	n/a
397.2525	0.09	794505	keystroke_e	e	n/a
397.3575	0.09	794715	keystroke_n	n	n/a
397.4625	0.075	794925	keystroke_e	e	n/a
397.6725	0.075	795345	keystroke_t	t	n/a
397.8225	0.075	795645	keystroke_r	r	n/a
398.0025	0.075	796005	keystroke_a	a	n/a
398.2275	0.06	796455	keystroke_t	t	n/a
398.3175	0.18	796635	keystroke_i	i	n/a
398.5125	0.12	797025	keystroke_o	o	n/a
398.6475	0.045	797295	keystroke_n	n	n/a
399.0975	0.045	798195	keystroke_Key.enter	Key.enter	n/a
399.147	5.787	798294	prompt	n/a	patients thank norman between\n
400.133	0.06	800266	keystroke_p	p	n/a
400.267	0.105	800534	keystroke_a	a	n/a
400.552	0.075	801104	keystroke_t	t	n/a
400.657	0.075	801314	keystroke_i	i	n/a
400.793	0.089	801586	keystroke_e	e	n/a
400.883	0.089	801766	keystroke_n	n	n/a
401.002	0.09	802004	keystroke_t	t	n/a
401.228	0.104	802456	keystroke_s	s	n/a
401.302	0.09	802604	keystroke_Key.space	Key.space	n/a
401.4675	0.09	802935	keystroke_t	t	n/a
401.5425	0.06	803085	keystroke_h	h	n/a
401.7375	0.105	803475	keystroke_a	a	n/a
401.8275	0.105	803655	keystroke_n	n	n/a
401.9025	0.09	803805	keystroke_k	k	n/a
402.0225	0.09	804045	keystroke_Key.space	Key.space	n/a
402.307	0.045	804614	keystroke_n	n	n/a
402.457	0.06	804914	keystroke_o	o	n/a
402.547	0.105	805094	keystroke_r	r	n/a
402.667	0.075	805334	keystroke_m	m	n/a
402.952	0.075	805904	keystroke_a	a	n/a
403.297	0.075	806594	keystroke_n	n	n/a
403.492	0.075	806984	keystroke_Key.space	Key.space	n/a
403.627	0.076	807254	keystroke_b	b	n/a
403.7775	0.1055	807555	keystroke_e	e	n/a
404.108	0.06	808216	keystroke_t	t	n/a
404.303	0.09	808606	keystroke_w	w	n/a
404.333	0.105	808666	keystroke_e	e	n/a
404.498	0.105	808996	keystroke_e	e	n/a
404.618	0.06	809236	keystroke_n	n	n/a
404.873	0.06	809746	keystroke_Key.enter	Key.enter	n/a
404.937	9.6575	809874	prompt	n/a	reasons optimize evaluating weighted\n
405.518	0.09	811036	keystroke_r	r	n/a
405.713	0.06	811426	keystroke_e	e	n/a
405.878	0.0595	811756	keystroke_a	a	n/a
406.0425	0.075	812085	keystroke_s	s	n/a
406.1025	0.12	812205	keystroke_o	o	n/a
406.1775	0.09	812355	keystroke_n	n	n/a
406.2975	0.105	812595	keystroke_s	s	n/a
406.3875	0.075	812775	keystroke_Key.space	Key.space	n/a
406.8525	0.075	813705	keystroke_o	o	n/a
407.0775	0.045	814155	keystroke_p	p	n/a
407.2725	0.09	814545	keystroke_t	t	n/a
407.3775	0.075	814755	keystroke_i	i	n/a
407.6025	0.06	815205	keystroke_m	m	n/a
407.7075	0.105	815415	keystroke_i	i	n/a
408.158	0.105	816316	keystroke_z	z	n/a
408.652	0.106	817304	keystroke_e	e	n/a
408.908	0.075	817816	keystroke_Key.space	Key.space	n/a
409.028	0.09	818056	keystroke_e	e	n/a
409.403	0.105	818806	keystroke_v	v	n/a
409.643	0.09	819286	keystroke_a	a	n/a
409.763	0.06	819526	keystroke_l	l	n/a
409.988	0.06	819976	keystroke_u	u	n/a
410.093	0.09	820186	keystroke_a	a	n/a
410.303	0.09	820606	keystroke_t	t	n/a
410.378	0.15	820756	keystroke_i	i	n/a
410.468	0.135	820936	keystroke_n	n	n/a
410.993	0.09	821986	keystroke_g	g	n/a
411.218	0.075	822436	keystroke_Key.space	Key.space	n/a
411.368	0.105	822736	keystroke_w	w	n/a
411.548	0.09	823096	keystroke_r	r	n/a
411.713	0.075	823426	keystroke_i	i	n/a
411.863	0.06	823726	keystroke_g	g	n/a
411.938	0.075	823876	keystroke_h	h	n/a
412.028	0.075	824056	keystroke_t	t	n/a
412.4775	0.045	824955	keystroke_Key.backspace	Key.backspace	n/a
412.597	0.076	825194	keystroke_Key.backspace	Key.backspace	n/a
412.732	0.075	825464	keystroke_Key.backspace	Key.backspace	n/a
412.973	0.045	825946	keystroke_Key.backspace	Key.backspace	n/a
413.3025	0.045	826605	keystroke_Key.backspace	Key.backspace	n/a
413.4075	0.105	826815	keystroke_e	e	n/a
413.6775	0.075	827355	keystroke_i	i	n/a
413.8125	0.0595	827625	keystroke_g	g	n/a
413.888	0.104	827776	keystroke_h	h	n/a
413.977	0.061	827954	keystroke_t	t	n/a
414.158	0.075	828316	keystroke_e	e	n/a
414.338	0.12	828676	keystroke_d	d	n/a
414.472	0.121	828944	keystroke_Key.enter	Key.enter	n/a
414.598	5.486	829196	prompt	n/a	supply again fine small\n
415.148	0.135	830296	keystroke_s	s	n/a
415.343	0.09	830686	keystroke_u	u	n/a
415.7325	0.045	831465	keystroke_p	p	n/a
415.8675	0.06	831735	keystroke_p	p	n/a
416.0775	0.075	832155	keystroke_l	l	n/a
416.2425	0.06	832485	keystroke_y	y	n/a
416.3475	0.09	832695	keystroke_Key.space	Key.space	n/a
416.5425	0.12	833085	keystroke_a	a	n/a
416.7225	0.075	833445	keystroke_g	g	n/a
416.8425	0.105	833685	keystroke_a	a	n/a
416.9485	0.149	833897	keystroke_i	i	n/a
417.0525	0.075	834105	keystroke_n	n	n/a
417.1125	0.075	834225	keystroke_Key.space	Key.space	n/a
417.2325	0.09	834465	keystroke_f	f	n/a
417.4575	0.06	834915	keystroke_i	i	n/a
417.6525	0.075	835305	keystroke_n	n	n/a
417.997	0.075	835994	keystroke_a	a	n/a
418.3275	0.045	836655	keystroke_Key.backspace	Key.backspace	n/a
418.4025	0.075	836805	keystroke_e	e	n/a
418.5225	0.075	837045	keystroke_Key.space	Key.space	n/a
418.6575	0.06	837315	keystroke_a	a	n/a
418.9575	0.03	837915	keystroke_Key.backspace	Key.backspace	n/a
419.0325	0.06	838065	keystroke_s	s	n/a
419.1375	0.06	838275	keystroke_m	m	n/a
419.2425	0.0905	838485	keystroke_a	a	n/a
419.377	0.03	838754	keystroke_l	l	n/a
419.527	0.045	839054	keystroke_l	l	n/a
420.0225	0.06	840045	keystroke_Key.enter	Key.enter	n/a
420.0875	4.9765	840175	prompt	n/a	breaking disco peripheral nato\n
420.7425	0.09	841485	keystroke_b	b	n/a
420.8625	0.09	841725	keystroke_r	r	n/a
421.0575	0.075	842115	keystroke_e	e	n/a
421.2525	0.105	842505	keystroke_a	a	n/a
421.4025	0.09	842805	keystroke_k	k	n/a
421.6125	0.09	843225	keystroke_i	i	n/a
421.6575	0.09	843315	keystroke_n	n	n/a
421.7485	0.074	843497	keystroke_g	g	n/a
421.8225	0.075	843645	keystroke_Key.space	Key.space	n/a
422.0025	0.075	844005	keystroke_d	d	n/a
422.0925	0.06	844185	keystroke_i	i	n/a
422.1675	0.0755	844335	keystroke_s	s	n/a
422.3475	0.075	844695	keystroke_c	c	n/a
422.4525	0.105	844905	keystroke_o	o	n/a
422.5725	0.06	845145	keystroke_Key.space	Key.space	n/a
422.6925	0.075	845385	keystroke_p	p	n/a
422.798	0.1195	845596	keystroke_e	e	n/a
422.9025	0.105	845805	keystroke_r	r	n/a
423.0375	0.075	846075	keystroke_i	i	n/a
423.3525	0.075	846705	keystroke_p	p	n/a
423.5175	0.09	847035	keystroke_h	h	n/a
423.5925	0.1195	847185	keystroke_e	e	n/a
423.682	0.09	847364	keystroke_r	r	n/a
423.938	0.09	847876	keystroke_a	a	n/a
424.013	0.1045	848026	keystroke_l	l	n/a
424.1325	0.09	848265	keystroke_Key.space	Key.space	n/a
424.3875	0.075	848775	keystroke_n	n	n/a
424.4475	0.09	848895	keystroke_a	a	n/a
424.6875	0.06	849375	keystroke_t	t	n/a
424.7625	0.075	849525	keystroke_o	o	n/a
425.0325	0.03	850065	keystroke_Key.enter	Key.enter	n/a
425.0665	5.9975	850133	prompt	n/a	tuner fewer infectious ring\n
425.8575	0.09	851715	keystroke_t	t	n/a
425.9625	0.075	851925	keystroke_u	u	n/a
426.1725	0.075	852345	keystroke_n	n	n/a
426.2625	0.105	852525	keystroke_e	e	n/a
426.3375	0.09	852675	keystroke_r	r	n/a
426.4425	0.09	852885	keystroke_Key.space	Key.space	n/a
426.6675	0.09	853335	keystroke_f	f	n/a
426.8925	0.045	853785	keystroke_e	e	n/a
427.222	0.12	854444	keystroke_w	w	n/a
427.793	0.0745	855586	keystroke_e	e	n/a
428.017	0.075	856034	keystroke_r	r	n/a
428.167	0.105	856334	keystroke_Key.space	Key.space	n/a
428.362	0.135	856724	keystroke_i	i	n/a
428.437	0.12	856874	keystroke_n	n	n/a
428.902	0.075	857804	keystroke_f	f	n/a
429.082	0.06	858164	keystroke_e	e	n/a
429.292	0.12	858584	keystroke_c	c	n/a
429.592	0.09	859184	keystroke_t	t	n/a
429.712	0.105	859424	keystroke_i	i	n/a
429.877	0.15	859754	keystroke_o	o	n/a
429.967	0.075	859934	keystroke_u	u	n/a
430.072	0.105	860144	keystroke_s	s	n/a
430.297	0.045	860594	keystroke_Key.space	Key.space	n/a
430.403	0.104	860806	keystroke_r	r	n/a
430.492	0.15	860984	keystroke_i	i	n/a
430.567	0.135	861134	keystroke_n	n	n/a
430.672	0.09	861344	keystroke_g	g	n/a
430.987	0.075	861974	keystroke_Key.enter	Key.enter	n/a
431.0665	9.598	862133	prompt	n/a	slots assisted texas modification\n
431.632	0.135	863264	keystroke_s	s	n/a
431.783	0.059	863566	keystroke_l	l	n/a
431.9475	0.09	863895	keystroke_o	o	n/a
432.1125	0.09	864225	keystroke_t	t	n/a
432.3675	0.12	864735	keystroke_s	s	n/a
432.503	0.06	865006	keystroke_Key.space	Key.space	n/a
432.8475	0.075	865695	keystroke_a	a	n/a
433.0575	0.06	866115	keystroke_s	s	n/a
433.2075	0.075	866415	keystroke_s	s	n/a
433.2675	0.075	866535	keystroke_i	i	n/a
433.3725	0.09	866745	keystroke_s	s	n/a
433.5675	0.075	867135	keystroke_t	t	n/a
433.7025	0.075	867405	keystroke_e	e	n/a
433.883	0.075	867766	keystroke_d	d	n/a
433.988	0.09	867976	keystroke_Key.space	Key.space	n/a
434.138	0.075	868276	keystroke_t	t	n/a
434.288	0.06	868576	keystroke_e	e	n/a
434.498	0.075	868996	keystroke_x	x	n/a
434.708	0.06	869416	keystroke_t	t	n/a
434.948	0.0745	869896	keystroke_a	a	n/a
435.0675	0.12	870135	keystroke_Key.space	Key.space	n/a
435.2475	0.045	870495	keystroke_m	m	n/a
435.5325	0.075	871065	keystroke_o	o	n/a
435.7125	0.075	871425	keystroke_d	d	n/a
435.8175	0.075	871635	keystroke_i	i	n/a
436.4475	0.06	872895	keystroke_Key.backspace	Key.backspace	n/a
436.5975	0.06	873195	keystroke_Key.backspace	Key.backspace	n/a
436.8075	0.045	873615	keystroke_Key.backspace	Key.backspace	n/a
436.9575	0.06	873915	keystroke_Key.backspace	Key.backspace	n/a
437.1225	0.06	874245	keystroke_Key.backspace	Key.backspace	n/a
437.3025	0.06	874605	keystroke_Key.backspace	Key.backspace	n/a
437.4225	0.105	874845	keystroke_s	s	n/a
437.6775	0.075	875355	keystroke_Key.space	Key.space	n/a
437.887	0.061	875774	keystroke_m	m	n/a
437.993	0.075	875986	keystroke_o	o	n/a
438.098	0.075	876196	keystroke_d	d	n/a
438.218	0.0745	876436	keystroke_i	i	n/a
438.4875	0.075	876975	keystroke_f	f	n/a
438.652	0.076	877304	keystroke_i	i	n/a
438.772	0.09	877544	keystroke_c	c	n/a
438.907	0.091	877814	keystroke_a	a	n/a
439.132	0.076	878264	keystroke_t	t	n/a
439.222	0.165	878444	keystroke_i	i	n/a
439.327	0.12	878654	keystroke_o	o	n/a
439.373	0.119	878746	keystroke_n	n	n/a
439.493	0.119	878986	keystroke_s	s	n/a
440.438	0.015	880876	keystroke_Key.backspace	Key.backspace	n/a
440.6325	0.03	881265	keystroke_Key.enter	Key.enter	n/a
440.6745	9.9045	881349	prompt	n/a	quilt enormous enters reuters\n
441.5475	0.075	883095	keystroke_g	g	n/a
441.7725	0.165	883545	keystroke_u	u	n/a
441.8775	0.09	883755	keystroke_i	i	n/a
442.4475	0.03	884895	keystroke_Key.backspace	Key.backspace	n/a
442.5675	0.06	885135	keystroke_Key.backspace	Key.backspace	n/a
442.7325	0.06	885465	keystroke_Key.backspace	Key.backspace	n/a
443.707	0.075	887414	keystroke_q	q	n/a
443.8875	0.135	887775	keystroke_u	u	n/a
443.9475	0.105	887895	keystroke_i	i	n/a
444.187	0.06	888374	keystroke_l	l	n/a
444.292	0.06	888584	keystroke_t	t	n/a
444.502	0.0605	889004	keystroke_Key.space	Key.space	n/a
444.6375	0.09	889275	keystroke_e	e	n/a
444.7425	0.075	889485	keystroke_n	n	n/a
444.9525	0.105	889905	keystroke_o	o	n/a
445.0275	0.045	890055	keystroke_u	u	n/a
445.4925	0.045	890985	keystroke_Key.backspace	Key.backspace	n/a
445.6275	0.09	891255	keystroke_r	r	n/a
446.1225	0.09	892245	keystroke_m	m	n/a
446.3925	0.1495	892785	keystroke_o	o	n/a
446.497	0.0905	892994	keystroke_u	u	n/a
446.948	0.119	893896	keystroke_s	s	n/a
447.082	0.12	894164	keystroke_Key.space	Key.space	n/a
447.322	0.0905	894644	keystroke_e	e	n/a
447.4575	0.09	894915	keystroke_n	n	n/a
447.8625	0.0905	895725	keystroke_t	t	n/a
448.073	0.12	896146	keystroke_e	e	n/a
448.133	0.09	896266	keystroke_r	r	n/a
448.433	0.075	896866	keystroke_s	s	n/a
448.568	0.09	897136	keystroke_Key.space	Key.space	n/a
449.048	0.075	898096	keystroke_r	r	n/a
449.2275	0.075	898455	keystroke_e	e	n/a
449.3925	0.09	898785	keystroke_u	u	n/a
449.6925	0.015	899385	keystroke_t	t	n/a
449.8575	0.0895	899715	keystroke_e	e	n/a
449.9175	0.0745	899835	keystroke_r	r	n/a
450.232	0.075	900464	keystroke_s	s	n/a
450.4875	0.0895	900975	keystroke_Key.enter	Key.enter	n/a
450.5815	7.4675	901163	prompt	n/a	script brings microphone specializing\n
451.2375	0.105	902475	keystroke_s	s	n/a
451.5975	0.105	903195	keystroke_c	c	n/a
451.8375	0.0905	903675	keystroke_r	r	n/a
452.003	0.075	904006	keystroke_i	i	n/a
452.213	0.09	904426	keystroke_p	p	n/a
452.378	0.075	904756	keystroke_t	t	n/a
452.618	0.09	905236	keystroke_Key.space	Key.space	n/a
452.8575	0.075	905715	keystroke_b	b	n/a
452.9475	0.09	905895	keystroke_r	r	n/a
453.1125	0.1505	906225	keystroke_i	i	n/a
453.2175	0.0755	906435	keystroke_n	n	n/a
453.338	0.105	906676	keystroke_g	g	n/a
453.563	0.09	907126	keystroke_s	s	n/a
453.698	0.09	907396	keystroke_Key.space	Key.space	n/a
453.953	0.105	907906	keystroke_m	m	n/a
454.118	0.105	908236	keystroke_i	i	n/a
454.238	0.075	908476	keystroke_c	c	n/a
454.673	0.09	909346	keystroke_r	r	n/a
454.823	0.06	909646	keystroke_o	o	n/a
455.033	0.045	910066	keystroke_p	p	n/a
455.213	0.075	910426	keystroke_h	h	n/a
455.363	0.1795	910726	keystroke_o	o	n/a
455.5125	0.075	911025	keystroke_n	n	n/a
455.6475	0.075	911295	keystroke_e	e	n/a
455.7525	0.075	911505	keystroke_Key.space	Key.space	n/a
455.9475	0.135	911895	keystroke_s	s	n/a
456.1875	0.09	912375	keystroke_p	p	n/a
456.2925	0.06	912585	keystroke_e	e	n/a
456.533	0.045	913066	keystroke_c	c	n/a
456.608	0.075	913216	keystroke_i	i	n/a
456.833	0.06	913666	keystroke_a	a	n/a
457.043	0.06	914086	keystroke_l	l	n/a
457.238	0.06	914476	keystroke_i	i	n/a
457.343	0.09	914686	keystroke_z	z	n/a
457.478	0.12	914956	keystroke_i	i	n/a
457.568	0.105	915136	keystroke_n	n	n/a
457.718	0.135	915436	keystroke_g	g	n/a
457.9725	0.075	915945	keystroke_Key.enter	Key.enter	n/a
458.052	5.967	916104	prompt	n/a	gold picks surprise identifying\n
458.6775	0.105	917355	keystroke_g	g	n/a
458.7675	0.06	917535	keystroke_o	o	n/a
458.9625	0.075	917925	keystroke_l	l	n/a
459.0225	0.09	918045	keystroke_d	d	n/a
459.1725	0.09	918345	keystroke_Key.space	Key.space	n/a
459.3075	0.075	918615	keystroke_p	p	n/a
459.5325	0.0755	919065	keystroke_i	i	n/a
459.638	0.12	919276	keystroke_c	c	n/a
459.788	0.0895	919576	keystroke_k	k	n/a
459.8925	0.12	919785	keystroke_s	s	n/a
459.9975	0.09	919995	keystroke_Key.space	Key.space	n/a
460.1175	0.09	920235	keystroke_s	s	n/a
460.3275	0.03	920655	keystroke_r	r	n/a
460.6425	0.06	921285	keystroke_Key.backspace	Key.backspace	n/a
460.8825	0.0455	921765	keystroke_u	u	n/a
460.943	0.105	921886	keystroke_r	r	n/a
461.063	0.105	922126	keystroke_p	p	n/a
461.183	0.105	922366	keystroke_r	r	n/a
461.423	0.075	922846	keystroke_i	i	n/a
461.513	0.165	923026	keystroke_s	s	n/a
461.633	0.075	923266	keystroke_e	e	n/a
461.768	0.09	923536	keystroke_Key.space	Key.space	n/a
461.948	0.075	923896	keystroke_i	i	n/a
462.068	0.105	924136	keystroke_d	d	n/a
462.293	0.06	924586	keystroke_e	e	n/a
462.383	0.105	924766	keystroke_n	n	n/a
462.548	0.12	925096	keystroke_t	t	n/a
462.683	0.105	925366	keystroke_i	i	n/a
462.847	0.091	925694	keystroke_f	f	n/a
463.043	0.09	926086	keystroke_y	y	n/a
463.403	0.135	926806	keystroke_i	i	n/a
463.493	0.09	926986	keystroke_n	n	n/a
463.553	0.1045	927106	keystroke_g	g	n/a
463.9425	0.075	927885	keystroke_Key.enter	Key.enter	n/a
464.022	8.772	928044	prompt	n/a	grey bacon reconstruction progressive\n
464.8125	0.105	929625	keystroke_g	g	n/a
465.023	0.09	930046	keystroke_r	r	n/a
465.233	0.105	930466	keystroke_e	e	n/a
465.488	0.1045	930976	keystroke_y	y	n/a
465.6075	0.09	931215	keystroke_Key.space	Key.space	n/a
465.8175	0.0895	931635	keystroke_b	b	n/a
465.892	0.075	931784	keystroke_a	a	n/a
466.103	0.119	932206	keystroke_c	c	n/a
466.237	0.1355	932474	keystroke_o	o	n/a
466.3875	0.12	932775	keystroke_n	n	n/a
466.5225	0.09	933045	keystroke_Key.space	Key.space	n/a
466.9875	0.09	933975	keystroke_r	r	n/a
467.1825	0.06	934365	keystroke_e	e	n/a
467.4825	0.135	934965	keystroke_c	c	n/a
467.6475	0.1345	935295	keystroke_o	o	n/a
467.737	0.105	935474	keystroke_n	n	n/a
468.0825	0.09	936165	keystroke_s	s	n/a
468.3075	0.06	936615	keystroke_t	t	n/a
468.4725	0.075	936945	keystroke_r	r	n/a
