onset	duration	sample	value	key	prompt_text
10.172	8.649	20344	prompt	n/a	the quick brown fox jumps over a lazy dog\n
12.1	0	24200	keystroke_t	t	n/a
12.172	0.061	24344	keystroke_h	h	n/a
12.233	0.104	24466	keystroke_e	e	n/a
12.442	0.12	24884	keystroke_Key.space	Key.space	n/a
12.517	0.135	25034	keystroke_q	q	n/a
12.637	0.15	25274	keystroke_u	u	n/a
12.727	0.09	25454	keystroke_i	i	n/a
12.877	0.09	25754	keystroke_c	c	n/a
12.953	0.15	25906	keystroke_k	k	n/a
13.042	0.165	26084	keystroke_Key.space	Key.space	n/a
13.192	0.0615	26384	keystroke_b	b	n/a
13.4035	0.089	26807	keystroke_o	o	n/a
13.4035	0.105	26807	keystroke_r	r	n/a
13.9135	0.09	27827	keystroke_w	w	n/a
14.0175	0.166	28035	keystroke_n	n	n/a
14.1525	0.135	28305	keystroke_Key.space	Key.space	n/a
14.3925	0.105	28785	keystroke_f	f	n/a
14.5585	0.075	29117	keystroke_o	o	n/a
14.6925	0.091	29385	keystroke_x	x	n/a
14.8425	0.165	29685	keystroke_Key.space	Key.space	n/a
15.0225	0.09	30045	keystroke_j	j	n/a
15.2335	0.059	30467	keystroke_u	u	n/a
15.4585	0.239	30917	keystroke_m	m	n/a
15.6535	0.15	31307	keystroke_p	p	n/a
15.7875	0.091	31575	keystroke_s	s	n/a
15.8925	0.135	31785	keystroke_Key.space	Key.space	n/a
16.0435	0.104	32087	keystroke_o	o	n/a
16.1625	0.091	32325	keystroke_v	v	n/a
16.3285	0.18	32657	keystroke_e	e	n/a
16.4335	0.105	32867	keystroke_r	r	n/a
16.4925	0.12	32985	keystroke_Key.space	Key.space	n/a
16.7035	0.089	33407	keystroke_a	a	n/a
16.7785	0.15	33557	keystroke_Key.space	Key.space	n/a
16.9435	0.119	33887	keystroke_l	l	n/a
17.1675	0.076	34335	keystroke_a	a	n/a
17.4675	0.106	34935	keystroke_z	z	n/a
17.6925	0.166	35385	keystroke_y	y	n/a
17.8125	0.121	35625	keystroke_Key.space	Key.space	n/a
17.9175	0.105	35835	keystroke_d	d	n/a
18.0385	0.09	36077	keystroke_o	o	n/a
18.2185	0.075	36437	keystroke_g	g	n/a
18.6975	0.12	37395	keystroke_Key.enter	Key.enter	n/a
18.826	5.4395	37652	prompt	n/a	gives produced rise differ\n
19.6735	0.06	39347	keystroke_g	g	n/a
19.7935	0.09	39587	keystroke_i	i	n/a
19.8835	0.195	39767	keystroke_v	v	n/a
20.0335	0.15	40067	keystroke_e	e	n/a
20.1535	0.105	40307	keystroke_s	s	n/a
20.1975	0.15	40395	keystroke_Key.space	Key.space	n/a
20.3935	0.105	40787	keystroke_p	p	n/a
20.5135	0.06	41027	keystroke_r	r	n/a
20.6335	0.09	41267	keystroke_o	o	n/a
20.7535	0.075	41507	keystroke_d	d	n/a
20.8735	0.15	41747	keystroke_u	u	n/a
21.0085	0.09	42017	keystroke_c	c	n/a
21.2335	0.045	42467	keystroke_e	e	n/a
21.4285	0.06	42857	keystroke_d	d	n/a
21.5335	0.104	43067	keystroke_Key.space	Key.space	n/a
22.0135	0.075	44027	keystroke_r	r	n/a
22.0735	0.09	44147	keystroke_i	i	n/a
22.2085	0.075	44417	keystroke_s	s	n/a
22.3285	0.105	44657	keystroke_e	e	n/a
22.4625	0.121	44925	keystroke_Key.space	Key.space	n/a
22.5685	0.075	45137	keystroke_d	d	n/a
22.7185	0.06	45437	keystroke_i	i	n/a
22.8235	0.075	45647	keystroke_f	f	n/a
22.9885	0.09	45977	keystroke_f	f	n/a
23.2735	0.03	46547	keystroke_e	e	n/a
23.2885	0.09	46577	keystroke_r	r	n/a
24.1135	0.149	48227	keystroke_Key.enter	Key.enter	n/a
24.27	5.47	48540	prompt	n/a	emacs reducing sons cage\n
25.0285	0.09	50057	keystroke_e	e	n/a
25.1785	0.15	50357	keystroke_m	m	n/a
25.3435	0.105	50687	keystroke_a	a	n/a
25.5385	0.09	51077	keystroke_c	c	n/a
25.7785	0.075	51557	keystroke_s	s	n/a
25.8985	0.135	51797	keystroke_Key.space	Key.space	n/a
26.4385	0.135	52877	keystroke_r	r	n/a
26.5885	0.075	53177	keystroke_e	e	n/a
26.8285	0.105	53657	keystroke_d	d	n/a
26.9935	0.135	53987	keystroke_u	u	n/a
27.0835	0.09	54167	keystroke_c	c	n/a
27.2185	0.195	54437	keystroke_i	i	n/a
27.3235	0.24	54647	keystroke_n	n	n/a
27.4585	0.09	54917	keystroke_g	g	n/a
27.5635	0.135	55127	keystroke_Key.space	Key.space	n/a
27.8485	0.075	55697	keystroke_s	s	n/a
27.9835	0.165	55967	keystroke_o	o	n/a
28.1035	0.15	56207	keystroke_n	n	n/a
28.2385	0.09	56477	keystroke_s	s	n/a
28.4185	0.105	56837	keystroke_Key.space	Key.space	n/a
28.5835	0.09	57167	keystroke_c	c	n/a
28.7785	0.15	57557	keystroke_a	a	n/a
28.8835	0.165	57767	keystroke_g	g	n/a
29.0035	0.12	58007	keystroke_e	e	n/a
29.5735	0.165	59147	keystroke_Key.enter	Key.enter	n/a
29.744	10.046	59488	prompt	n/a	kazakhstan group suitable portrait\n
30.8185	0.135	61637	keystroke_k	k	n/a
31.0885	0.075	62177	keystroke_a	a	n/a
31.3435	0.09	62687	keystroke_z	z	n/a
31.8535	0.15	63707	keystroke_a	a	n/a
33.0535	0.12	66107	keystroke_k	k	n/a
33.4735	0.09	66947	keystroke_h	h	n/a
33.7435	0.135	67487	keystroke_s	s	n/a
33.9535	0.15	67907	keystroke_t	t	n/a
34.0885	0.12	68177	keystroke_a	a	n/a
34.3135	0.12	68627	keystroke_n	n	n/a
34.5685	0.12	69137	keystroke_Key.space	Key.space	n/a
35.1235	0.06	70247	keystroke_g	g	n/a
35.3035	0.105	70607	keystroke_r	r	n/a
35.4085	0.135	70817	keystroke_o	o	n/a
35.5285	0.165	71057	keystroke_u	u	n/a
35.6335	0.15	71267	keystroke_p	p	n/a
35.7985	0.165	71597	keystroke_Key.space	Key.space	n/a
35.9335	0.135	71867	keystroke_s	s	n/a
36.1585	0.165	72317	keystroke_u	u	n/a
36.2785	0.12	72557	keystroke_i	i	n/a
36.4435	0.09	72887	keystroke_t	t	n/a
36.6235	0.06	73247	keystroke_a	a	n/a
36.8035	0.09	73607	keystroke_b	b	n/a
36.9085	0.105	73817	keystroke_l	l	n/a
37.0585	0.09	74117	keystroke_e	e	n/a
37.1635	0.15	74327	keystroke_Key.space	Key.space	n/a
37.3885	0.12	74777	keystroke_p	p	n/a
37.7935	0.105	75587	keystroke_o	o	n/a
38.0335	0.075	76067	keystroke_r	r	n/a
38.3335	0.075	76667	keystroke_t	t	n/a
38.5735	0.165	77147	keystroke_r	r	n/a
38.7535	0.09	77507	keystroke_a	a	n/a
38.8585	0.105	77717	keystroke_i	i	n/a
39.0235	0.075	78047	keystroke_t	t	n/a
39.6385	0.15	79277	keystroke_Key.enter	Key.enter	n/a
39.795	5.3355	79590	prompt	n/a	presence nights ours metals\n
40.7035	0.15	81407	keystroke_p	p	n/a
40.8085	0.135	81617	keystroke_r	r	n/a
40.8985	0.09	81797	keystroke_e	e	n/a
41.0785	0.09	82157	keystroke_s	s	n/a
41.1685	0.12	82337	keystroke_e	e	n/a
41.3635	0.165	82727	keystroke_n	n	n/a
41.4535	0.105	82907	keystroke_c	c	n/a
41.7235	0.075	83447	keystroke_e	e	n/a
42.0085	0.12	84017	keystroke_Key.space	Key.space	n/a
42.2935	0.165	84587	keystroke_n	n	n/a
42.4135	0.09	84827	keystroke_i	i	n/a
42.4885	0.075	84977	keystroke_g	g	n/a
42.5785	0.12	85157	keystroke_h	h	n/a
42.7135	0.12	85427	keystroke_t	t	n/a
42.7885	0.105	85577	keystroke_s	s	n/a
42.9085	0.09	85817	keystroke_Key.space	Key.space	n/a
43.0285	0.15	86057	keystroke_o	o	n/a
43.1185	0.15	86237	keystroke_u	u	n/a
43.2235	0.135	86447	keystroke_r	r	n/a
43.3735	0.09	86747	keystroke_s	s	n/a
43.5085	0.135	87017	keystroke_Key.space	Key.space	n/a
43.8985	0.15	87797	keystroke_m	m	n/a
44.0035	0.12	88007	keystroke_e	e	n/a
44.1685	0.15	88337	keystroke_t	t	n/a
44.2885	0.12	88577	keystroke_a	a	n/a
44.3785	0.105	88757	keystroke_l	l	n/a
44.5435	0.09	89087	keystroke_s	s	n/a
44.9635	0.165	89927	keystroke_Key.enter	Key.enter	n/a
45.1355	8.02	90271	prompt	n/a	attachments origin separate provinces\n
46.0285	0.06	92057	keystroke_a	a	n/a
46.2235	0.06	92447	keystroke_t	t	n/a
46.3885	0.12	92777	keystroke_t	t	n/a
46.5385	0.09	93077	keystroke_a	a	n/a
46.7335	0.12	93467	keystroke_c	c	n/a
46.8985	0.105	93797	keystroke_h	h	n/a
47.1685	0.105	94337	keystroke_m	m	n/a
47.2585	0.15	94517	keystroke_e	e	n/a
47.3935	0.15	94787	keystroke_n	n	n/a
47.4835	0.135	94967	keystroke_t	t	n/a
47.6035	0.09	95207	keystroke_s	s	n/a
47.7235	0.12	95447	keystroke_Key.space	Key.space	n/a
48.1735	0.09	96347	keystroke_o	o	n/a
48.2785	0.09	96557	keystroke_r	r	n/a
48.3985	0.09	96797	keystroke_i	i	n/a
48.5185	0.075	97037	keystroke_g	g	n/a
48.6085	0.135	97217	keystroke_i	i	n/a
48.6835	0.15	97367	keystroke_n	n	n/a
49.0285	0.135	98057	keystroke_Key.space	Key.space	n/a
49.1935	0.075	98387	keystroke_s	s	n/a
49.3885	0.075	98777	keystroke_e	e	n/a
49.5835	0.15	99167	keystroke_p	p	n/a
49.7335	0.12	99467	keystroke_a	a	n/a
49.8685	0.135	99737	keystroke_r	r	n/a
49.9885	0.135	99977	keystroke_a	a	n/a
50.1085	0.135	100217	keystroke_t	t	n/a
50.2135	0.09	100427	keystroke_e	e	n/a
50.6785	0.15	101357	keystroke_Key.space	Key.space	n/a
50.8585	0.09	101717	keystroke_p	p	n/a
50.9635	0.09	101927	keystroke_r	r	n/a
51.0985	0.09	102197	keystroke_o	o	n/a
51.5635	0.105	103127	keystroke_v	v	n/a
51.7435	0.15	103487	keystroke_i	i	n/a
51.8335	0.195	103667	keystroke_n	n	n/a
51.9685	0.075	103937	keystroke_c	c	n/a
52.1935	0.165	104387	keystroke_e	e	n/a
52.2835	0.135	104567	keystroke_s	s	n/a
53.0335	0.12	106067	keystroke_Key.enter	Key.enter	n/a
53.1605	6.356	106321	prompt	n/a	breeds mpegs door born\n
54.2485	0.09	108497	keystroke_b	b	n/a
54.5035	0.075	109007	keystroke_r	r	n/a
54.6835	0.075	109367	keystroke_e	e	n/a
54.8335	0.06	109667	keystroke_e	e	n/a
55.0435	0.15	110087	keystroke_d	d	n/a
55.1635	0.09	110327	keystroke_s	s	n/a
55.2985	0.09	110597	keystroke_Key.space	Key.space	n/a
55.4485	0.165	110897	keystroke_m	m	n/a
55.7935	0.12	111587	keystroke_p	p	n/a
56.0935	0.06	112187	keystroke_e	e	n/a
56.3185	0.075	112637	keystroke_g	g	n/a
56.5285	0.075	113057	keystroke_s	s	n/a
56.6635	0.165	113327	keystroke_Key.space	Key.space	n/a
56.9485	0.075	113897	keystroke_d	d	n/a
57.0985	0.06	114197	keystroke_o	o	n/a
57.2635	0.09	114527	keystroke_o	o	n/a
57.3985	0.09	114797	keystroke_r	r	n/a
57.5035	0.135	115007	keystroke_Key.space	Key.space	n/a
57.6685	0.12	115337	keystroke_b	b	n/a
57.7585	0.09	115517	keystroke_o	o	n/a
57.9685	0.09	115937	keystroke_r	r	n/a
58.0595	0.104	116119	keystroke_n	n	n/a
59.3935	0.12	118787	keystroke_Key.enter	Key.enter	n/a
59.5245	13.295	119049	prompt	n/a	peninsula alex infinite conventions\n
60.3535	0.09	120707	keystroke_p	p	n/a
60.5035	0.09	121007	keystroke_e	e	n/a
60.6985	0.15	121397	keystroke_n	n	n/a
60.9835	0.09	121967	keystroke_i	i	n/a
61.0885	0.195	122177	keystroke_n	n	n/a
61.3285	0.105	122657	keystroke_s	s	n/a
61.5085	0.18	123017	keystroke_u	u	n/a
61.6585	0.135	123317	keystroke_l	l	n/a
61.8235	0.09	123647	keystroke_a	a	n/a
62.2135	0.165	124427	keystroke_Key.space	Key.space	n/a
62.5285	0.105	125057	keystroke_a	a	n/a
62.6785	0.12	125357	keystroke_l	l	n/a
62.8135	0.075	125627	keystroke_e	e	n/a
63.0835	0.105	126167	keystroke_x	x	n/a
63.2335	0.135	126467	keystroke_Key.space	Key.space	n/a
63.5935	0.12	127187	keystroke_i	i	n/a
63.7285	0.12	127457	keystroke_n	n	n/a
63.8935	0.06	127787	keystroke_f	f	n/a
64.0285	0.15	128057	keystroke_i	i	n/a
64.1185	0.165	128237	keystroke_n	n	n/a
64.5535	0.075	129107	keystroke_t	t	n/a
64.7185	0.09	129437	keystroke_e	e	n/a
64.9135	0.135	129827	keystroke_Key.space	Key.space	n/a
66.1585	0.06	132317	keystroke_Key.backspace	Key.backspace	n/a
66.3235	0.075	132647	keystroke_Key.backspace	Key.backspace	n/a
66.8185	0.105	133637	keystroke_Key.backspace	Key.backspace	n/a
67.7785	0.09	135557	keystroke_i	i	n/a
68.0335	0.15	136067	keystroke_t	t	n/a
68.1385	0.105	136277	keystroke_e	e	n/a
69.6685	0.135	139337	keystroke_Key.space	Key.space	n/a
69.9985	0.12	139997	keystroke_c	c	n/a
70.1195	0.104	140239	keystroke_o	o	n/a
70.7335	0.135	141467	keystroke_n	n	n/a
70.9885	0.105	141977	keystroke_v	v	n/a
71.1985	0.104	142397	keystroke_e	e	n/a
71.3175	0.135	142635	keystroke_n	n	n/a
71.4825	0.09	142965	keystroke_t	t	n/a
71.6025	0.135	143205	keystroke_i	i	n/a
71.7075	0.18	143415	keystroke_o	o	n/a
71.8275	0.135	143655	keystroke_n	n	n/a
71.9475	0.09	143895	keystroke_s	s	n/a
72.6825	0.135	145365	keystroke_Key.enter	Key.enter	n/a
72.824	6.3255	145648	prompt	n/a	beads equipped rice elderly\n
73.8075	0.105	147615	keystroke_b	b	n/a
74.0175	0.12	148035	keystroke_e	e	n/a
74.1225	0.105	148245	keystroke_a	a	n/a
74.2575	0.15	148515	keystroke_d	d	n/a
74.3625	0.135	148725	keystroke_s	s	n/a
74.4825	0.165	148965	keystroke_Key.space	Key.space	n/a
74.7975	0.105	149595	keystroke_e	e	n/a
74.9625	0.12	149925	keystroke_q	q	n/a
75.0525	0.21	150105	keystroke_u	u	n/a
75.2025	0.18	150405	keystroke_i	i	n/a
75.5175	0.12	151035	keystroke_p	p	n/a
75.6975	0.135	151395	keystroke_p	p	n/a
75.8625	0.075	151725	keystroke_e	e	n/a
76.0725	0.105	152145	keystroke_d	d	n/a
76.2375	0.135	152475	keystroke_Key.space	Key.space	n/a
76.8375	0.12	153675	keystroke_r	r	n/a
76.9875	0.135	153975	keystroke_i	i	n/a
77.1375	0.09	154275	keystroke_c	c	n/a
77.3625	0.09	154725	keystroke_e	e	n/a
77.4675	0.12	154935	keystroke_Key.space	Key.space	n/a
77.6025	0.075	155205	keystroke_e	e	n/a
77.7525	0.135	155505	keystroke_l	l	n/a
77.9025	0.045	155805	keystroke_d	d	n/a
78.0825	0.15	156165	keystroke_e	e	n/a
78.2175	0.105	156435	keystroke_r	r	n/a
78.3825	0.255	156765	keystroke_l	l	n/a
78.5625	0.09	157125	keystroke_y	y	n/a
78.9975	0.15	157995	keystroke_Key.enter	Key.enter	n/a
79.155	6.8945	158310	prompt	n/a	work situated amazon theatre\n
79.9575	0.105	159915	keystroke_w	w	n/a
80.0475	0.09	160095	keystroke_o	o	n/a
80.1675	0.09	160335	keystroke_r	r	n/a
80.2735	0.149	160547	keystroke_k	k	n/a
80.3925	0.12	160785	keystroke_Key.space	Key.space	n/a
80.4675	0.105	160935	keystroke_s	s	n/a
80.7225	0.09	161445	keystroke_i	i	n/a
81.1575	0.046	162315	keystroke_t	t	n/a
81.2925	0.135	162585	keystroke_u	u	n/a
81.4425	0.165	162885	keystroke_a	a	n/a
81.5485	0.104	163097	keystroke_t	t	n/a
81.7125	0.105	163425	keystroke_e	e	n/a
81.9525	0.09	163905	keystroke_d	d	n/a
82.0725	0.105	164145	keystroke_Key.space	Key.space	n/a
82.3425	0.105	164685	keystroke_a	a	n/a
82.4625	0.135	164925	keystroke_m	m	n/a
82.5825	0.045	165165	keystroke_a	a	n/a
82.7625	0.135	165525	keystroke_z	z	n/a
82.8985	0.164	165797	keystroke_o	o	n/a
83.0025	0.21	166005	keystroke_n	n	n/a
83.1525	0.135	166305	keystroke_Key.space	Key.space	n/a
83.4825	0.075	166965	keystroke_t	t	n/a
83.6775	0.105	167355	keystroke_h	h	n/a
83.7975	0.105	167595	keystroke_e	e	n/a
83.9775	0.105	167955	keystroke_a	a	n/a
84.1135	0.089	168227	keystroke_t	t	n/a
84.4875	0.09	168975	keystroke_r	r	n/a
84.8775	0.06	169755	keystroke_e	e	n/a
85.8975	0.15	171795	keystroke_Key.enter	Key.enter	n/a
86.054	13.1055	172108	prompt	n/a	launches overview extremely popular\n
90.1165	0.071	180233	keystroke_l	l	n/a
90.3675	0.106	180735	keystroke_a	a	n/a
90.5325	0.135	181065	keystroke_u	u	n/a
90.7875	0.135	181575	keystroke_n	n	n/a
90.9075	0.105	181815	keystroke_c	c	n/a
91.0575	0.12	182115	keystroke_h	h	n/a
91.1925	0.15	182385	keystroke_e	e	n/a
91.3575	0.075	182715	keystroke_s	s	n/a
91.5375	0.15	183075	keystroke_Key.space	Key.space	n/a
91.9575	0.105	183915	keystroke_o	o	n/a
92.1075	0.105	184215	keystroke_v	v	n/a
92.3175	0.12	184635	keystroke_e	e	n/a
92.3925	0.076	184785	keystroke_r	r	n/a
92.6785	0.12	185357	keystroke_v	v	n/a
92.7535	0.104	185507	keystroke_i	i	n/a
92.9175	0.15	185835	keystroke_e	e	n/a
93.0375	0.06	186075	keystroke_w	w	n/a
93.7425	0.135	187485	keystroke_Key.space	Key.space	n/a
93.9985	0.104	187997	keystroke_e	e	n/a
94.2975	0.09	188595	keystroke_x	x	n/a
94.5685	0.044	189137	keystroke_t	t	n/a
94.7625	0.061	189525	keystroke_r	r	n/a
95.0625	0.151	190125	keystroke_m	m	n/a
95.5425	0.075	191085	keystroke_Key.backspace	Key.backspace	n/a
96.0685	0.074	192137	keystroke_e	e	n/a
96.1875	0.136	192375	keystroke_m	m	n/a
96.3235	0.075	192647	keystroke_e	e	n/a
96.5485	0.255	193097	keystroke_l	l	n/a
96.6985	0.165	193397	keystroke_y	y	n/a
96.8175	0.121	193635	keystroke_Key.space	Key.space	n/a
96.9835	0.105	193967	keystroke_p	p	n/a
97.3285	0.09	194657	keystroke_o	o	n/a
97.5535	0.12	195107	keystroke_p	p	n/a
97.7335	0.135	195467	keystroke_u	u	n/a
97.8535	0.12	195707	keystroke_l	l	n/a
98.0035	0.195	196007	keystroke_a	a	n/a
98.1835	0.09	196367	keystroke_r	r	n/a
99.0385	0.119	198077	keystroke_Key.enter	Key.enter	n/a
99.164	11.096	198328	prompt	n/a	individuals flickr processing handles\n
99.9535	0.135	199907	keystroke_i	i	n/a
100.0735	0.135	200147	keystroke_n	n	n/a
100.4935	0.075	200987	keystroke_d	d	n/a
100.5985	0.09	201197	keystroke_i	i	n/a
100.8835	0.09	201767	keystroke_v	v	n/a
100.9885	0.09	201977	keystroke_i	i	n/a
101.1235	0.105	202247	keystroke_d	d	n/a
101.2585	0.12	202517	keystroke_u	u	n/a
101.4985	0.105	202997	keystroke_a	a	n/a
101.6185	0.135	203237	keystroke_l	l	n/a
101.7385	0.105	203477	keystroke_s	s	n/a
101.8575	0.15	203715	keystroke_Key.space	Key.space	n/a
102.1285	0.105	204257	keystroke_f	f	n/a
102.2485	0.165	204497	keystroke_l	l	n/a
102.3985	0.06	204797	keystroke_i	i	n/a
102.5785	0.09	205157	keystroke_c	c	n/a
102.6685	0.12	205337	keystroke_k	k	n/a
103.3585	0.075	206717	keystroke_r	r	n/a
103.9425	0.136	207885	keystroke_Key.space	Key.space	n/a
104.3035	0.12	208607	keystroke_p	p	n/a
104.4535	0.06	208907	keystroke_r	r	n/a
104.5585	0.09	209117	keystroke_o	o	n/a
104.6935	0.105	209387	keystroke_c	c	n/a
104.9335	0.075	209867	keystroke_e	e	n/a
105.1285	0.06	210257	keystroke_s	s	n/a
105.2935	0.075	210587	keystroke_s	s	n/a
105.3535	0.15	210707	keystroke_i	i	n/a
105.4585	0.21	210917	keystroke_n	n	n/a
105.5485	0.09	211097	keystroke_g	g	n/a
105.6535	0.089	211307	keystroke_Key.space	Key.space	n/a
105.8035	0.105	211607	keystroke_h	h	n/a
106.0735	0.105	212147	keystroke_n	n	n/a
106.5085	0.045	213017	keystroke_=	=	n/a
107.4385	0.074	214877	keystroke_Key.backspace	Key.backspace	n/a
107.5885	0.09	215177	keystroke_Key.backspace	Key.backspace	n/a
108.7885	0.075	217577	keystroke_a	a	n/a
108.8785	0.135	217757	keystroke_n	n	n/a
109.0285	0.09	218057	keystroke_d	d	n/a
109.1485	0.105	218297	keystroke_l	l	n/a
109.2835	0.135	218567	keystroke_e	e	n/a
109.4335	0.105	218867	keystroke_s	s	n/a
110.1085	0.15	220217	keystroke_Key.enter	Key.enter	n/a
110.265	9.6395	220530	prompt	n/a	alias uniprotkb hunger fields\n
111.1735	0.12	222347	keystroke_a	a	n/a
111.2935	0.12	222587	keystroke_l	l	n/a
111.5335	0.105	223067	keystroke_i	i	n/a
111.8035	0.18	223607	keystroke_a	a	n/a
111.9235	0.12	223847	keystroke_s	s	n/a
112.0135	0.165	224027	keystroke_Key.space	Key.space	n/a
112.9885	0.075	225977	keystroke_u	u	n/a
113.3335	0.165	226667	keystroke_n	n	n/a
113.5435	0.105	227087	keystroke_i	i	n/a
114.3535	0.135	228707	keystroke_p	p	n/a
114.6085	0.09	229217	keystroke_r	r	n/a
114.7285	0.12	229457	keystroke_o	o	n/a
116.0335	0.09	232067	keystroke_t	t	n/a
116.7535	0.12	233507	keystroke_k	k	n/a
116.9785	0.105	233957	keystroke_b	b	n/a
117.4735	0.12	234947	keystroke_Key.space	Key.space	n/a
117.7135	0.09	235427	keystroke_h	h	n/a
117.9235	0.075	235847	keystroke_u	u	n/a
118.1335	0.105	236267	keystroke_n	n	n/a
118.2835	0.105	236567	keystroke_g	g	n/a
118.5085	0.15	237017	keystroke_e	e	n/a
118.6135	0.105	237227	keystroke_r	r	n/a
118.7335	0.12	237467	keystroke_Key.space	Key.space	n/a
118.9285	0.09	237857	keystroke_f	f	n/a
119.0335	0.09	238067	keystroke_i	i	n/a
119.1385	0.06	238277	keystroke_e	e	n/a
119.2735	0.1195	238547	keystroke_l	l	n/a
119.3635	0.12	238727	keystroke_d	d	n/a
119.4235	0.135	238847	keystroke_s	s	n/a
119.7685	0.1345	239537	keystroke_Key.enter	Key.enter	n/a
119.9095	9.4	239819	prompt	n/a	qualifications jewish straight poetry\n
120.908	0.12	241816	keystroke_q	q	n/a
121.1335	0.15	242267	keystroke_u	u	n/a
121.508	0.075	243016	keystroke_a	a	n/a
121.673	0.225	243346	keystroke_l	l	n/a
121.853	0.135	243706	keystroke_i	i	n/a
122.8135	0.075	245627	keystroke_f	f	n/a
122.9935	0.075	245987	keystroke_i	i	n/a
123.428	0.0905	246856	keystroke_c	c	n/a
123.623	0.12	247246	keystroke_a	a	n/a
123.713	0.12	247426	keystroke_t	t	n/a
123.803	0.135	247606	keystroke_i	i	n/a
123.893	0.195	247786	keystroke_o	o	n/a
124.043	0.165	248086	keystroke_n	n	n/a
124.118	0.105	248236	keystroke_s	s	n/a
124.268	0.12	248536	keystroke_Key.space	Key.space	n/a
124.673	0.12	249346	keystroke_j	j	n/a
124.793	0.18	249586	keystroke_e	e	n/a
124.958	0.105	249916	keystroke_w	w	n/a
125.078	0.105	250156	keystroke_i	i	n/a
125.243	0.105	250486	keystroke_s	s	n/a
125.4085	0.1795	250817	keystroke_h	h	n/a
125.543	0.135	251086	keystroke_Key.space	Key.space	n/a
125.993	0.09	251986	keystroke_s	s	n/a
126.203	0.045	252406	keystroke_t	t	n/a
126.383	0.135	252766	keystroke_r	r	n/a
126.533	0.105	253066	keystroke_a	a	n/a
126.668	0.135	253336	keystroke_i	i	n/a
126.818	0.09	253636	keystroke_g	g	n/a
126.983	0.15	253966	keystroke_h	h	n/a
127.073	0.075	254146	keystroke_t	t	n/a
127.193	0.135	254386	keystroke_Key.space	Key.space	n/a
127.568	0.135	255136	keystroke_p	p	n/a
127.838	0.09	255676	keystroke_o	o	n/a
127.988	0.105	255976	keystroke_e	e	n/a
128.213	0.075	256426	keystroke_t	t	n/a
128.438	0.075	256876	keystroke_r	r	n/a
128.543	0.105	257086	keystroke_y	y	n/a
129.173	0.135	258346	keystroke_Key.enter	Key.enter	n/a
129.315	8.814	258630	prompt	n/a	supply forms reviewed rankings\n
129.983	0.12	259966	keystroke_s	s	n/a
130.163	0.12	260326	keystroke_u	u	n/a
130.403	0.075	260806	keystroke_p	p	n/a
130.568	0.15	261136	keystroke_p	p	n/a
130.733	0.12	261466	keystroke_l	l	n/a
130.988	0.165	261976	keystroke_y	y	n/a
131.108	0.1345	262216	keystroke_Key.space	Key.space	n/a
131.2425	0.03	262485	keystroke_f	f	n/a
131.3025	0.12	262605	keystroke_o	o	n/a
131.4075	0.105	262815	keystroke_r	r	n/a
131.5575	0.105	263115	keystroke_m	m	n/a
131.7225	0.105	263445	keystroke_s	s	n/a
132.0075	0.135	264015	keystroke_Key.space	Key.space	n/a
132.4875	0.075	264975	keystroke_f	f	n/a
133.6725	0.075	267345	keystroke_Key.backspace	Key.backspace	n/a
133.9275	0.09	267855	keystroke_r	r	n/a
134.1225	0.075	268245	keystroke_e	e	n/a
134.3625	0.09	268725	keystroke_v	v	n/a
134.4975	0.105	268995	keystroke_i	i	n/a
134.6175	0.105	269235	keystroke_e	e	n/a
134.8125	0.12	269625	keystroke_w	w	n/a
134.9925	0.09	269985	keystroke_e	e	n/a
135.2475	0.075	270495	keystroke_d	d	n/a
135.3825	0.135	270765	keystroke_Key.space	Key.space	n/a
136.2825	0.18	272565	keystroke_r	r	n/a
136.4175	0.15	272835	keystroke_a	a	n/a
136.5525	0.165	273105	keystroke_n	n	n/a
136.7325	0.09	273465	keystroke_k	k	n/a
136.9575	0.165	273915	keystroke_i	i	n/a
137.0775	0.18	274155	keystroke_n	n	n/a
137.4225	0.12	274845	keystroke_g	g	n/a
137.5275	0.09	275055	keystroke_s	s	n/a
137.9625	0.165	275925	keystroke_Key.enter	Key.enter	n/a
138.134	8.365	276268	prompt	n/a	advertisements disks hungry zoloft\n
139.1325	0.105	278265	keystroke_a	a	n/a
139.2975	0.105	278595	keystroke_d	d	n/a
139.5525	0.09	279105	keystroke_v	v	n/a
139.7925	0.105	279585	keystroke_e	e	n/a
139.8375	0.105	279675	keystroke_r	r	n/a
140.0475	0.09	280095	keystroke_t	t	n/a
140.1225	0.15	280245	keystroke_i	i	n/a
140.3925	0.12	280785	keystroke_s	s	n/a
140.6775	0.06	281355	keystroke_e	e	n/a
140.7675	0.15	281535	keystroke_m	m	n/a
140.8575	0.09	281715	keystroke_e	e	n/a
141.0225	0.165	282045	keystroke_n	n	n/a
141.1725	0.075	282345	keystroke_t	t	n/a
141.3375	0.105	282675	keystroke_s	s	n/a
141.4875	0.165	282975	keystroke_Key.space	Key.space	n/a
142.1175	0.075	284235	keystroke_d	d	n/a
142.1775	0.12	284355	keystroke_i	i	n/a
142.3275	0.09	284655	keystroke_s	s	n/a
142.4625	0.15	284925	keystroke_k	k	n/a
142.5825	0.105	285165	keystroke_s	s	n/a
142.7175	0.15	285435	keystroke_Key.space	Key.space	n/a
143.1375	0.09	286275	keystroke_h	h	n/a
143.3625	0.075	286725	keystroke_u	u	n/a
143.5875	0.165	287175	keystroke_n	n	n/a
143.6925	0.105	287385	keystroke_g	g	n/a
143.9475	0.12	287895	keystroke_r	r	n/a
144.0685	0.149	288137	keystroke_y	y	n/a
144.1725	0.135	288345	keystroke_Key.space	Key.space	n/a
144.6675	0.12	289335	keystroke_z	z	n/a
144.8025	0.09	289605	keystroke_o	o	n/a
145.0425	0.09	290085	keystroke_l	l	n/a
145.2675	0.09	290535	keystroke_o	o	n/a
145.3725	0.09	290745	keystroke_f	f	n/a
145.6575	0.09	291315	keystroke_t	t	n/a
146.3325	0.165	292665	keystroke_Key.enter	Key.enter	n/a
146.5035	5.216	293007	prompt	n/a	doom minister spare static\n
147.4125	0.075	294825	keystroke_d	d	n/a
147.5325	0.075	295065	keystroke_o	o	n/a
147.7125	0.195	295425	keystroke_o	o	n/a
147.8475	0.18	295695	keystroke_m	m	n/a
147.9825	0.15	295965	keystroke_Key.space	Key.space	n/a
148.2075	0.135	296415	keystroke_m	m	n/a
148.4325	0.09	296865	keystroke_i	i	n/a
148.5075	0.27	297015	keystroke_n	n	n/a
148.6575	0.15	297315	keystroke_i	i	n/a
148.8075	0.135	297615	keystroke_s	s	n/a
148.9725	0.105	297945	keystroke_t	t	n/a
149.1525	0.135	298305	keystroke_e	e	n/a
149.2575	0.135	298515	keystroke_r	r	n/a
149.4075	0.12	298815	keystroke_Key.space	Key.space	n/a
149.6625	0.09	299325	keystroke_s	s	n/a
149.7375	0.135	299475	keystroke_p	p	n/a
149.8875	0.135	299775	keystroke_a	a	n/a
149.9475	0.15	299895	keystroke_r	r	n/a
150.0375	0.135	300075	keystroke_e	e	n/a
150.1575	0.165	300315	keystroke_Key.space	Key.space	n/a
150.4875	0.105	300975	keystroke_s	s	n/a
150.6375	0.105	301275	keystroke_t	t	n/a
150.7725	0.15	301545	keystroke_a	a	n/a
150.8775	0.09	301755	keystroke_t	t	n/a
150.9825	0.12	301965	keystroke_i	i	n/a
151.1925	0.105	302385	keystroke_c	c	n/a
151.5675	0.15	303135	keystroke_Key.enter	Key.enter	n/a
151.7245	6.0095	303449	prompt	n/a	specs mrna lean work\n
152.5575	0.09	305115	keystroke_s	s	n/a
152.6625	0.15	305325	keystroke_p	p	n/a
152.7525	0.075	305505	keystroke_e	e	n/a
153.0075	0.06	306015	keystroke_c	c	n/a
153.1875	0.075	306375	keystroke_s	s	n/a
153.3075	0.135	306615	keystroke_Key.space	Key.space	n/a
154.0275	0.105	308055	keystroke_m	m	n/a
154.3575	0.09	308715	keystroke_r	r	n/a
154.5975	0.15	309195	keystroke_n	n	n/a
154.8375	0.105	309675	keystroke_a	a	n/a
155.1225	0.12	310245	keystroke_Key.space	Key.space	n/a
155.3625	0.105	310725	keystroke_l	l	n/a
155.6925	0.12	311385	keystroke_e	e	n/a
156.2175	0.06	312435	keystroke_a	a	n/a
156.3225	0.21	312645	keystroke_n	n	n/a
156.4875	0.15	312975	keystroke_Key.space	Key.space	n/a
156.8325	0.12	313665	keystroke_w	w	n/a
156.9675	0.09	313935	keystroke_o	o	n/a
157.0875	0.06	314175	keystroke_r	r	n/a
157.1925	0.105	314385	keystroke_k	k	n/a
157.5525	0.18	315105	keystroke_Key.enter	Key.enter	n/a
157.7415	11.2875	315483	prompt	n/a	northeast qatar arrival web\n
158.6475	0.121	317295	keystroke_n	n	n/a
159.0675	0.09	318135	keystroke_o	o	n/a
159.1725	0.075	318345	keystroke_r	r	n/a
159.3675	0.075	318735	keystroke_t	t	n/a
159.4435	0.089	318887	keystroke_h	h	n/a
159.6225	0.105	319245	keystroke_e	e	n/a
159.9075	0.195	319815	keystroke_a	a	n/a
160.0125	0.135	320025	keystroke_s	s	n/a
160.4625	0.045	320925	keystroke_t	t	n/a
160.6425	0.135	321285	keystroke_Key.space	Key.space	n/a
161.4525	0.135	322905	keystroke_a	a	n/a
162.7425	0.075	325485	keystroke_Key.backspace	Key.backspace	n/a
163.252	0.075	326504	keystroke_q	q	n/a
163.522	0.105	327044	keystroke_a	a	n/a
163.777	0.075	327554	keystroke_t	t	n/a
163.957	0.105	327914	keystroke_a	a	n/a
164.227	0.075	328454	keystroke_r	r	n/a
164.392	0.15	328784	keystroke_Key.space	Key.space	n/a
165.292	0.105	330584	keystroke_a	a	n/a
165.472	0.27	330944	keystroke_r	r	n/a
166.057	0.105	332114	keystroke_r	r	n/a
166.237	0.135	332474	keystroke_i	i	n/a
166.432	0.15	332864	keystroke_v	v	n/a
166.762	0.12	333524	keystroke_a	a	n/a
167.017	0.165	334034	keystroke_l	l	n/a
167.167	0.135	334334	keystroke_Key.space	Key.space	n/a
167.602	0.135	335204	keystroke_w	w	n/a
167.887	0.06	335774	keystroke_e	e	n/a
168.142	0.105	336284	keystroke_b	b	n/a
168.847	0.18	337694	keystroke_Key.enter	Key.enter	n/a
169.0335	7.7355	338067	prompt	n/a	idaho gives aurora diary\n
170.618	0.089	341236	keystroke_i	i	n/a
171.037	0.06	342074	keystroke_d	d	n/a
171.262	0.106	342524	keystroke_a	a	n/a
171.517	0.135	343034	keystroke_h	h	n/a
171.712	0.09	343424	keystroke_o	o	n/a
171.997	0.12	343994	keystroke_Key.space	Key.space	n/a
172.207	0.075	344414	keystroke_g	g	n/a
172.297	0.091	344594	keystroke_i	i	n/a
172.418	0.149	344836	keystroke_v	v	n/a
172.537	0.18	345074	keystroke_e	e	n/a
172.657	0.091	345314	keystroke_s	s	n/a
172.748	0.119	345496	keystroke_Key.space	Key.space	n/a
173.212	0.106	346424	keystroke_a	a	n/a
173.348	0.134	346696	keystroke_u	u	n/a
173.527	0.076	347054	keystroke_r	r	n/a
173.693	0.104	347386	keystroke_o	o	n/a
173.873	0.075	347746	keystroke_r	r	n/a
174.368	0.12	348736	keystroke_a	a	n/a
174.547	0.135	349094	keystroke_Key.space	Key.space	n/a
175.238	0.089	350476	keystroke_d	d	n/a
175.477	0.106	350954	keystroke_i	i	n/a
175.672	0.196	351344	keystroke_a	a	n/a
175.883	0.105	351766	keystroke_r	r	n/a
176.002	0.106	352004	keystroke_y	y	n/a
176.632	0.135	353264	keystroke_Key.enter	Key.enter	n/a
176.7735	10.3005	353547	prompt	n/a	finder regression corporation burton\n
177.578	0.09	355156	keystroke_f	f	n/a
177.713	0.15	355426	keystroke_i	i	n/a
177.833	0.149	355666	keystroke_n	n	n/a
177.998	0.045	355996	keystroke_d	d	n/a
178.178	0.12	356356	keystroke_e	e	n/a
178.253	0.135	356506	keystroke_r	r	n/a
178.372	0.12	356744	keystroke_Key.space	Key.space	n/a
178.583	0.105	357166	keystroke_r	r	n/a
178.703	0.09	357406	keystroke_e	e	n/a
178.973	0.09	357946	keystroke_g	g	n/a
179.243	0.18	358486	keystroke_r	r	n/a
179.408	0.09	358816	keystroke_e	e	n/a
179.648	0.06	359296	keystroke_s	s	n/a
179.828	0.105	359656	keystroke_s	s	n/a
179.948	0.165	359896	keystroke_i	i	n/a
180.068	0.21	360136	keystroke_o	o	n/a
180.218	0.21	360436	keystroke_n	n	n/a
180.367	0.135	360734	keystroke_Key.space	Key.space	n/a
180.548	0.075	361096	keystroke_d	d	n/a
181.507	0.076	363014	keystroke_Key.backspace	Key.backspace	n/a
181.853	0.105	363706	keystroke_c	c	n/a
181.988	0.12	363976	keystroke_o	o	n/a
182.303	0.105	364606	keystroke_p	p	n/a
182.723	0.074	365446	keystroke_Key.backspace	Key.backspace	n/a
183.323	0.075	366646	keystroke_r	r	n/a
183.698	0.09	367396	keystroke_p	p	n/a
183.908	0.075	367816	keystroke_o	o	n/a
183.998	0.09	367996	keystroke_r	r	n/a
184.178	0.15	368356	keystroke_a	a	n/a
184.268	0.105	368536	keystroke_t	t	n/a
184.358	0.135	368716	keystroke_i	i	n/a
184.463	0.18	368926	keystroke_o	o	n/a
184.568	0.21	369136	keystroke_n	n	n/a
184.703	0.15	369406	keystroke_Key.space	Key.space	n/a
185.708	0.09	371416	keystroke_b	b	n/a
185.843	0.12	371686	keystroke_u	u	n/a
185.978	0.09	371956	keystroke_r	r	n/a
186.188	0.075	372376	keystroke_t	t	n/a
186.278	0.165	372556	keystroke_o	o	n/a
186.398	0.105	372796	keystroke_n	n	n/a
186.9225	0.15	373845	keystroke_Key.enter	Key.enter	n/a
187.079	5.9045	374158	prompt	n/a	forces chrome fitted edited\n
188.1975	0.075	376395	keystroke_f	f	n/a
188.3025	0.105	376605	keystroke_o	o	n/a
188.4225	0.075	376845	keystroke_r	r	n/a
188.6625	0.075	377325	keystroke_c	c	n/a
188.8575	0.135	377715	keystroke_e	e	n/a
188.9625	0.075	377925	keystroke_s	s	n/a
189.0675	0.12	378135	keystroke_Key.space	Key.space	n/a
189.2025	0.105	378405	keystroke_c	c	n/a
189.3375	0.105	378675	keystroke_h	h	n/a
189.4275	0.09	378855	keystroke_r	r	n/a
189.5625	0.135	379125	keystroke_o	o	n/a
189.6525	0.18	379305	keystroke_m	m	n/a
189.7725	0.075	379545	keystroke_e	e	n/a
189.9375	0.12	379875	keystroke_Key.space	Key.space	n/a
190.2825	0.09	380565	keystroke_f	f	n/a
190.4325	0.09	380865	keystroke_i	i	n/a
190.5675	0.075	381135	keystroke_t	t	n/a
190.7475	0.075	381495	keystroke_t	t	n/a
190.9275	0.075	381855	keystroke_e	e	n/a
191.1225	0.075	382245	keystroke_d	d	n/a
191.2425	0.105	382485	keystroke_Key.space	Key.space	n/a
191.4075	0.075	382815	keystroke_e	e	n/a
191.6025	0.105	383205	keystroke_d	d	n/a
191.7225	0.075	383445	keystroke_i	i	n/a
191.8575	0.12	383715	keystroke_t	t	n/a
191.9925	0.06	383985	keystroke_e	e	n/a
192.3225	0.105	384645	keystroke_d	d	n/a
192.8325	0.15	385665	keystroke_Key.enter	Key.enter	n/a
192.988	8.696	385976	prompt	n/a	cosmetics fujitsu point nascar\n
194.0325	0.135	388065	keystroke_c	c	n/a
194.2275	0.12	388455	keystroke_o	o	n/a
194.6475	0.105	389295	keystroke_s	s	n/a
194.8125	0.15	389625	keystroke_m	m	n/a
194.9925	0.09	389985	keystroke_e	e	n/a
195.2175	0.06	390435	keystroke_t	t	n/a
195.3525	0.09	390705	keystroke_i	i	n/a
195.4575	0.09	390915	keystroke_c	c	n/a
195.6825	0.075	391365	keystroke_s	s	n/a
196.5525	0.15	393105	keystroke_Key.space	Key.space	n/a
196.8375	0.06	393675	keystroke_f	f	n/a
197.4525	0.12	394905	keystroke_u	u	n/a
198.1575	0.135	396315	keystroke_j	j	n/a
198.4425	0.105	396885	keystroke_i	i	n/a
198.7275	0.105	397455	keystroke_t	t	n/a
198.9825	0.09	397965	keystroke_s	s	n/a
199.1325	0.075	398265	keystroke_u	u	n/a
199.3875	0.135	398775	keystroke_Key.space	Key.space	n/a
199.5525	0.135	399105	keystroke_p	p	n/a
199.8375	0.24	399675	keystroke_o	o	n/a
199.9575	0.165	399915	keystroke_i	i	n/a
200.0325	0.21	400065	keystroke_n	n	n/a
200.1375	0.12	400275	keystroke_t	t	n/a
200.2275	0.12	400455	keystroke_Key.space	Key.space	n/a
200.3775	0.15	400755	keystroke_n	n	n/a
200.5425	0.15	401085	keystroke_a	a	n/a
200.5875	0.135	401175	keystroke_s	s	n/a
200.8875	0.075	401775	keystroke_c	c	n/a
201.0825	0.165	402165	keystroke_a	a	n/a
201.1875	0.075	402375	keystroke_r	r	n/a
201.5175	0.165	403035	keystroke_Key.enter	Key.enter	n/a
201.6885	10.3155	403377	prompt	n/a	efficiency devel springer latitude\n
202.5225	0.105	405045	keystroke_e	e	n/a
202.8075	0.075	405615	keystroke_f	f	n/a
202.9725	0.09	405945	keystroke_f	f	n/a
203.1375	0.12	406275	keystroke_i	i	n/a
203.3925	0.075	406785	keystroke_c	c	n/a
203.5125	0.09	407025	keystroke_i	i	n/a
203.7675	0.12	407535	keystroke_n	n	n/a
204.1725	0.09	408345	keystroke_Key.backspace	Key.backspace	n/a
204.5175	0.075	409035	keystroke_e	e	n/a
204.9675	0.12	409935	keystroke_n	n	n/a
205.2375	0.09	410475	keystroke_c	c	n/a
205.3725	0.09	410745	keystroke_y	y	n/a
205.6725	0.105	411345	keystroke_Key.space	Key.space	n/a
206.5425	0.105	413085	keystroke_d	d	n/a
206.8575	0.06	413715	keystroke_e	e	n/a
207.0525	0.165	414105	keystroke_v	v	n/a
207.2025	0.09	414405	keystroke_e	e	n/a
207.4875	0.15	414975	keystroke_l	l	n/a
207.6675	0.12	415335	keystroke_Key.space	Key.space	n/a
208.0425	0.12	416085	keystroke_s	s	n/a
208.2225	0.12	416445	keystroke_p	p	n/a
208.3725	0.09	416745	keystroke_r	r	n/a
208.5375	0.15	417075	keystroke_i	i	n/a
208.6425	0.18	417285	keystroke_n	n	n/a
208.7775	0.105	417555	keystroke_g	g	n/a
209.0175	0.135	418035	keystroke_e	e	n/a
209.1225	0.09	418245	keystroke_r	r	n/a
210.0375	0.12	420075	keystroke_Key.space	Key.space	n/a
210.2625	0.12	420525	keystroke_l	l	n/a
210.3675	0.135	420735	keystroke_a	a	n/a
210.5625	0.105	421125	keystroke_t	t	n/a
210.7275	0.1195	421455	keystroke_i	i	n/a
210.9975	0.09	421995	keystroke_t	t	n/a
211.1475	0.12	422295	keystroke_u	u	n/a
211.327	0.075	422654	keystroke_d	d	n/a
211.5075	0.075	423015	keystroke_e	e	n/a
211.8525	0.15	423705	keystroke_Key.enter	Key.enter	n/a
212.0085	7.826	424017	prompt	n/a	vbulletin mild folding resulting\n
213.3825	0.15	426765	keystroke_v	v	n/a
213.742	0.1205	427484	keystroke_b	b	n/a
213.9825	0.1045	427965	keystroke_u	u	n/a
214.2075	0.06	428415	keystroke_l	l	n/a
214.342	0.15	428684	keystroke_l	l	n/a
214.477	0.06	428954	keystroke_e	e	n/a
214.687	0.0755	429374	keystroke_t	t	n/a
214.777	0.15	429554	keystroke_i	i	n/a
215.062	0.135	430124	keystroke_n	n	n/a
215.392	0.135	430784	keystroke_Key.space	Key.space	n/a
216.307	0.27	432614	keystroke_m	m	n/a
216.487	0.165	432974	keystroke_i	i	n/a
216.592	0.165	433184	keystroke_l	l	n/a
216.697	0.105	433394	keystroke_d	d	n/a
216.832	0.135	433664	keystroke_Key.space	Key.space	n/a
217.222	0.09	434444	keystroke_f	f	n/a
217.327	0.075	434654	keystroke_o	o	n/a
217.507	0.12	435014	keystroke_l	l	n/a
217.672	0.075	435344	keystroke_d	d	n/a
217.762	0.12	435524	keystroke_i	i	n/a
217.837	0.24	435674	keystroke_n	n	n/a
217.942	0.105	435884	keystroke_g	g	n/a
218.062	0.12	436124	keystroke_Key.space	Key.space	n/a
218.332	0.135	436664	keystroke_r	r	n/a
218.437	0.09	436874	keystroke_e	e	n/a
218.587	0.12	437174	keystroke_s	s	n/a
218.722	0.15	437444	keystroke_u	u	n/a
218.812	0.165	437624	keystroke_l	l	n/a
219.022	0.075	438044	keystroke_t	t	n/a
219.098	0.179	438196	keystroke_i	i	n/a
219.202	0.165	438404	keystroke_n	n	n/a
219.352	0.06	438704	keystroke_g	g	n/a
219.712	0.12	439424	keystroke_Key.enter	Key.enter	n/a
219.839	8.755	439678	prompt	n/a	samoa incorporate moment jazz\n
220.612	0.105	441224	keystroke_s	s	n/a
220.837	0.12	441674	keystroke_a	a	n/a
220.987	0.165	441974	keystroke_m	m	n/a
221.137	0.12	442274	keystroke_o	o	n/a
221.347	0.105	442694	keystroke_a	a	n/a
221.587	0.18	443174	keystroke_Key.space	Key.space	n/a
222.157	0.15	444314	keystroke_i	i	n/a
222.247	0.15	444494	keystroke_n	n	n/a
222.412	0.105	444824	keystroke_c	c	n/a
222.847	0.135	445694	keystroke_o	o	n/a
223.282	0.105	446564	keystroke_p	p	n/a
224.302	0.06	448604	keystroke_Key.backspace	Key.backspace	n/a
224.602	0.105	449204	keystroke_r	r	n/a
224.947	0.075	449894	keystroke_p	p	n/a
225.172	0.105	450344	keystroke_o	o	n/a
225.307	0.09	450614	keystroke_r	r	n/a
225.547	0.12	451094	keystroke_a	a	n/a
225.727	0.135	451454	keystroke_t	t	n/a
225.832	0.12	451664	keystroke_e	e	n/a
225.982	0.15	451964	keystroke_Key.space	Key.space	n/a
226.507	0.105	453014	keystroke_m	m	n/a
226.657	0.12	453314	keystroke_o	o	n/a
226.747	0.135	453494	keystroke_m	m	n/a
226.852	0.09	453704	keystroke_e	e	n/a
226.987	0.165	453974	keystroke_n	n	n/a
227.092	0.09	454184	keystroke_t	t	n/a
227.242	0.105	454484	keystroke_Key.space	Key.space	n/a
227.437	0.15	454874	keystroke_j	j	n/a
227.557	0.105	455114	keystroke_a	a	n/a
227.842	0.075	455684	keystroke_z	z	n/a
227.977	0.12	455954	keystroke_z	z	n/a
228.427	0.165	456854	keystroke_Key.enter	Key.enter	n/a
228.5985	7.1055	457197	prompt	n/a	depot really pottery evaluated\n
229.417	0.075	458834	keystroke_d	d	n/a
229.657	0.06	459314	keystroke_e	e	n/a
229.852	0.06	459704	keystroke_p	p	n/a
230.092	0.075	460184	keystroke_o	o	n/a
230.212	0.075	460424	keystroke_t	t	n/a
230.332	0.135	460664	keystroke_Key.space	Key.space	n/a
231.127	0.18	462254	keystroke_r	r	n/a
231.247	0.15	462494	keystroke_e	e	n/a
231.352	0.09	462704	keystroke_a	a	n/a
231.457	0.06	462914	keystroke_l	l	n/a
231.607	0.15	463214	keystroke_l	l	n/a
231.832	0.15	463664	keystroke_y	y	n/a
231.937	0.12	463874	keystroke_Key.space	Key.space	n/a
232.612	0.09	465224	keystroke_p	p	n/a
232.822	0.09	465644	keystroke_o	o	n/a
232.942	0.075	465884	keystroke_t	t	n/a
233.122	0.09	466244	keystroke_t	t	n/a
233.317	0.12	466634	keystroke_e	e	n/a
233.392	0.105	466784	keystroke_r	r	n/a
233.512	0.165	467024	keystroke_y	y	n/a
233.647	0.105	467294	keystroke_Key.space	Key.space	n/a
233.902	0.09	467804	keystroke_e	e	n/a
234.112	0.105	468224	keystroke_v	v	n/a
234.277	0.09	468554	keystroke_a	a	n/a
234.502	0.135	469004	keystroke_l	l	n/a
234.757	0.12	469514	keystroke_u	u	n/a
234.832	0.15	469664	keystroke_a	a	n/a
234.952	0.135	469904	keystroke_t	t	n/a
235.042	0.105	470084	keystroke_e	e	n/a
235.267	0.09	470534	keystroke_d	d	n/a
235.537	0.165	471074	keystroke_Key.enter	Key.enter	n/a
235.7085	6.94	471417	prompt	n/a	vinyl dolls attitude louis\n
236.527	0.075	473054	keystroke_v	v	n/a
236.692	0.135	473384	keystroke_i	i	n/a
236.767	0.15	473534	keystroke_n	n	n/a
237.817	0.105	475634	keystroke_y	y	n/a
238.117	0.12	476234	keystroke_l	l	n/a
238.642	0.15	477284	keystroke_Key.space	Key.space	n/a
238.807	0.075	477614	keystroke_d	d	n/a
238.927	0.075	477854	keystroke_o	o	n/a
239.137	0.06	478274	keystroke_l	l	n/a
239.287	0.135	478574	keystroke_l	l	n/a
239.407	0.105	478814	keystroke_s	s	n/a
239.572	0.075	479144	keystroke_Key.space	Key.space	n/a
239.812	0.105	479624	keystroke_a	a	n/a
240.052	0.06	480104	keystroke_t	t	n/a
240.217	0.09	480434	keystroke_t	t	n/a
240.322	0.12	480644	keystroke_i	i	n/a
240.472	0.075	480944	keystroke_t	t	n/a
240.607	0.135	481214	keystroke_u	u	n/a
240.712	0.06	481424	keystroke_d	d	n/a
240.892	0.075	481784	keystroke_e	e	n/a
241.057	0.15	482114	keystroke_Key.space	Key.space	n/a
241.297	0.075	482594	keystroke_l	l	n/a
241.537	0.135	483074	keystroke_o	o	n/a
241.642	0.18	483284	keystroke_u	u	n/a
241.762	0.135	483524	keystroke_i	i	n/a
241.882	0.105	483764	keystroke_s	s	n/a
242.497	0.15	484994	keystroke_Key.enter	Key.enter	n/a
242.658	7.371	485316	prompt	n/a	celebs teaches complicated yield\n
243.382	0.076	486764	keystroke_c	c	n/a
243.592	0.075	487184	keystroke_e	e	n/a
243.712	0.12	487424	keystroke_l	l	n/a
243.817	0.061	487634	keystroke_e	e	n/a
244.087	0.105	488174	keystroke_b	b	n/a
244.342	0.075	488684	keystroke_s	s	n/a
244.477	0.135	488954	keystroke_Key.space	Key.space	n/a
244.718	0.119	489436	keystroke_t	t	n/a
244.792	0.21	489584	keystroke_e	e	n/a
245.092	0.135	490184	keystroke_a	a	n/a
245.302	0.12	490604	keystroke_c	c	n/a
245.467	0.12	490934	keystroke_h	h	n/a
245.557	0.15	491114	keystroke_e	e	n/a
246.067	0.105	492134	keystroke_s	s	n/a
246.202	0.135	492404	keystroke_Key.space	Key.space	n/a
246.757	0.09	493514	keystroke_c	c	n/a
246.952	0.195	493904	keystroke_o	o	n/a
247.117	0.24	494234	keystroke_m	m	n/a
247.252	0.165	494504	keystroke_p	p	n/a
247.342	0.21	494684	keystroke_l	l	n/a
247.508	0.134	495016	keystroke_i	i	n/a
247.612	0.105	495224	keystroke_c	c	n/a
247.777	0.165	495554	keystroke_a	a	n/a
247.927	0.135	495854	keystroke_t	t	n/a
248.017	0.091	496034	keystroke_e	e	n/a
248.213	0.074	496426	keystroke_d	d	n/a
248.302	0.165	496604	keystroke_Key.space	Key.space	n/a
248.737	0.09	497474	keystroke_y	y	n/a
248.933	0.119	497866	keystroke_i	i	n/a
249.082	0.045	498164	keystroke_e	e	n/a
249.262	0.135	498524	keystroke_l	l	n/a
249.308	0.104	498616	keystroke_d	d	n/a
249.877	0.15	499754	keystroke_Key.enter	Key.enter	n/a
250.036	7.0275	500072	prompt	n/a	victims meetup lexington hero\n
250.957	0.09	501914	keystroke_v	v	n/a
251.123	0.09	502246	keystroke_i	i	n/a
251.182	0.105	502364	keystroke_c	c	n/a
251.437	0.09	502874	keystroke_t	t	n/a
251.558	0.209	503116	keystroke_i	i	n/a
251.602	0.21	503204	keystroke_m	m	n/a
251.768	0.09	503536	keystroke_s	s	n/a
251.842	0.12	503684	keystroke_Key.space	Key.space	n/a
252.008	0.134	504016	keystroke_m	m	n/a
252.202	0.075	504404	keystroke_e	e	n/a
252.367	0.09	504734	keystroke_e	e	n/a
252.592	0.09	505184	keystroke_t	t	n/a
252.697	0.225	505394	keystroke_u	u	n/a
252.863	0.12	505726	keystroke_p	p	n/a
253.117	0.12	506234	keystroke_Key.space	Key.space	n/a
253.6865	0.135	507373	keystroke_l	l	n/a
253.8225	0.075	507645	keystroke_e	e	n/a
254.0615	0.106	508123	keystroke_x	x	n/a
254.2715	0.106	508543	keystroke_i	i	n/a
254.5565	0.121	509113	keystroke_n	n	n/a
254.8415	0.105	509683	keystroke_g	g	n/a
255.1265	0.091	510253	keystroke_t	t	n/a
255.2465	0.151	510493	keystroke_o	o	n/a
255.3515	0.196	510703	keystroke_n	n	n/a
255.5315	0.09	511063	keystroke_Key.space	Key.space	n/a
255.7715	0.105	511543	keystroke_h	h	n/a
255.8615	0.136	511723	keystroke_e	e	n/a
255.9525	0.119	511905	keystroke_r	r	n/a
256.1625	0.089	512325	keystroke_o	o	n/a
256.9115	0.15	513823	keystroke_Key.enter	Key.enter	n/a
257.068	9.7305	514136	prompt	n/a	survival smoke societies potato\n
257.9475	0.09	515895	keystroke_s	s	n/a
258.1125	0.12	516225	keystroke_u	u	n/a
258.2175	0.075	516435	keystroke_r	r	n/a
258.4725	0.06	516945	keystroke_v	v	n/a
258.5775	0.12	517155	keystroke_i	i	n/a
258.6825	0.075	517365	keystroke_v	v	n/a
258.8325	0.09	517665	keystroke_a	a	n/a
258.9675	0.135	517935	keystroke_l	l	n/a
259.1315	0.135	518263	keystroke_Key.space	Key.space	n/a
259.6275	0.09	519255	keystroke_s	s	n/a
259.7325	0.165	519465	keystroke_m	m	n/a
260.0625	0.09	520125	keystroke_o	o	n/a
260.3175	0.09	520635	keystroke_k	k	n/a
260.4075	0.09	520815	keystroke_e	e	n/a
260.5575	0.104	521115	keystroke_Key.space	Key.space	n/a
261.2475	0.105	522495	keystroke_s	s	n/a
261.3675	0.075	522735	keystroke_o	o	n/a
261.6375	0.105	523275	keystroke_c	c	n/a
262.0125	0.075	524025	keystroke_e	e	n/a
262.6865	0.09	525373	keystroke_Key.backspace	Key.backspace	n/a
263.2725	0.09	526545	keystroke_i	i	n/a
263.3775	0.135	526755	keystroke_e	e	n/a
264.0675	0.06	528135	keystroke_t	t	n/a
264.1725	0.105	528345	keystroke_i	i	n/a
264.2625	0.135	528525	keystroke_e	e	n/a
264.4125	0.09	528825	keystroke_s	s	n/a
264.5465	0.15	529093	keystroke_Key.space	Key.space	n/a
264.9525	0.09	529905	keystroke_p	p	n/a
265.1325	0.09	530265	keystroke_o	o	n/a
265.2075	0.105	530415	keystroke_t	t	n/a
265.3725	0.135	530745	keystroke_a	a	n/a
265.4625	0.105	530925	keystroke_t	t	n/a
265.6275	0.09	531255	keystroke_o	o	n/a
266.6475	0.15	533295	keystroke_Key.enter	Key.enter	n/a
266.8035	8.9355	533607	prompt	n/a	bishop lined argued absorption\n
267.8925	0.105	535785	keystroke_b	b	n/a
268.0125	0.12	536025	keystroke_i	i	n/a
268.2075	0.09	536415	keystroke_s	s	n/a
268.3425	0.135	536685	keystroke_h	h	n/a
268.5225	0.12	537045	keystroke_o	o	n/a
269.0625	0.12	538125	keystroke_p	p	n/a
269.2125	0.135	538425	keystroke_Key.space	Key.space	n/a
269.6775	0.075	539355	keystroke_l	l	n/a
269.8575	0.135	539715	keystroke_i	i	n/a
269.9475	0.15	539895	keystroke_n	n	n/a
270.0525	0.075	540105	keystroke_e	e	n/a
270.2475	0.105	540495	keystroke_d	d	n/a
270.3525	0.15	540705	keystroke_Key.space	Key.space	n/a
270.5175	0.15	541035	keystroke_a	a	n/a
270.6675	0.075	541335	keystroke_r	r	n/a
270.8775	0.09	541755	keystroke_g	g	n/a
270.9975	0.135	541995	keystroke_u	u	n/a
271.1025	0.075	542205	keystroke_e	e	n/a
271.2975	0.09	542595	keystroke_d	d	n/a
271.4025	0.12	542805	keystroke_Key.space	Key.space	n/a
272.1075	0.06	544215	keystroke_a	a	n/a
272.3475	0.09	544695	keystroke_b	b	n/a
272.6025	0.045	545205	keystroke_s	s	n/a
272.7375	0.1045	545475	keystroke_o	o	n/a
273.337	0.0905	546674	keystroke_r	r	n/a
273.712	0.135	547424	keystroke_p	p	n/a
273.9675	0.0895	547935	keystroke_t	t	n/a
274.057	0.135	548114	keystroke_i	i	n/a
274.162	0.18	548324	keystroke_o	o	n/a
274.297	0.15	548594	keystroke_n	n	n/a
275.572	0.165	551144	keystroke_Key.enter	Key.enter	n/a
275.7435	8.2	551487	prompt	n/a	position arthritis lounge fifty\n
276.682	0.09	553364	keystroke_p	p	n/a
276.892	0.09	553784	keystroke_o	o	n/a
277.087	0.105	554174	keystroke_s	s	n/a
277.282	0.06	554564	keystroke_i	i	n/a
277.402	0.075	554804	keystroke_t	t	n/a
277.507	0.12	555014	keystroke_i	i	n/a
277.597	0.18	555194	keystroke_o	o	n/a
277.717	0.195	555434	keystroke_n	n	n/a
277.852	0.15	555704	keystroke_Key.space	Key.space	n/a
278.377	0.15	556754	keystroke_a	a	n/a
278.692	0.105	557384	keystroke_r	r	n/a
279.037	0.09	558074	keystroke_t	t	n/a
279.112	0.12	558224	keystroke_h	h	n/a
279.832	0.09	559664	keystroke_r	r	n/a
279.967	0.105	559934	keystroke_i	i	n/a
280.117	0.09	560234	keystroke_t	t	n/a
280.237	0.09	560474	keystroke_i	i	n/a
280.387	0.09	560774	keystroke_s	s	n/a
280.522	0.15	561044	keystroke_Key.space	Key.space	n/a
280.957	0.06	561914	keystroke_l	l	n/a
281.167	0.135	562334	keystroke_o	o	n/a
281.272	0.105	562544	keystroke_u	u	n/a
281.512	0.12	563024	keystroke_n	n	n/a
281.617	0.075	563234	keystroke_g	g	n/a
281.842	0.06	563684	keystroke_e	e	n/a
281.977	0.135	563954	keystroke_Key.space	Key.space	n/a
282.232	0.09	564464	keystroke_f	f	n/a
282.547	0.12	565094	keystroke_i	i	n/a
282.757	0.075	565514	keystroke_f	f	n/a
283.042	0.09	566084	keystroke_t	t	n/a
283.207	0.105	566414	keystroke_y	y	n/a
283.807	0.135	567614	keystroke_Key.enter	Key.enter	n/a
283.9475	6.776	567895	prompt	n/a	alert subtle hope collapse\n
284.602	0.09	569204	keystroke_a	a	n/a
284.662	0.12	569324	keystroke_l	l	n/a
284.812	0.15	569624	keystroke_e	e	n/a
284.932	0.105	569864	keystroke_r	r	n/a
285.217	0.105	570434	keystroke_t	t	n/a
285.352	0.15	570704	keystroke_Key.space	Key.space	n/a
285.652	0.075	571304	keystroke_s	s	n/a
285.787	0.15	571574	keystroke_u	u	n/a
285.982	0.105	571964	keystroke_b	b	n/a
286.342	0.06	572684	keystroke_t	t	n/a
286.477	0.105	572954	keystroke_l	l	n/a
286.597	0.105	573194	keystroke_e	e	n/a
286.807	0.105	573614	keystroke_Key.space	Key.space	n/a
287.377	0.12	574754	keystroke_h	h	n/a
287.542	0.09	575084	keystroke_o	o	n/a
287.722	0.105	575444	keystroke_p	p	n/a
287.857	0.09	575714	keystroke_e	e	n/a
288.022	0.12	576044	keystroke_Key.space	Key.space	n/a
288.292	0.105	576584	keystroke_c	c	n/a
288.412	0.075	576824	keystroke_o	o	n/a
288.622	0.075	577244	keystroke_l	l	n/a
288.787	0.12	577574	keystroke_l	l	n/a
288.937	0.09	577874	keystroke_a	a	n/a
289.087	0.09	578174	keystroke_p	p	n/a
289.237	0.105	578474	keystroke_s	s	n/a
289.432	0.075	578864	keystroke_e	e	n/a
290.572	0.15	581144	keystroke_Key.enter	Key.enter	n/a
290.728	8.9955	581456	prompt	n/a	staffing physiology varied females\n
291.967	0.135	583934	keystroke_s	s	n/a
292.132	0.105	584264	keystroke_t	t	n/a
292.327	0.12	584654	keystroke_a	a	n/a
292.522	0.075	585044	keystroke_f	f	n/a
292.687	0.09	585374	keystroke_f	f	n/a
292.852	0.18	585704	keystroke_i	i	n/a
292.972	0.255	585944	keystroke_n	n	n/a
293.107	0.09	586214	keystroke_g	g	n/a
293.182	0.165	586364	keystroke_Key.space	Key.space	n/a
293.692	0.12	587384	keystroke_p	p	n/a
294.127	0.09	588254	keystroke_h	h	n/a
294.787	0.15	589574	keystroke_y	y	n/a
295.072	0.09	590144	keystroke_s	s	n/a
295.357	0.09	590714	keystroke_i	i	n/a
295.717	0.09	591434	keystroke_o	o	n/a
295.942	0.075	591884	keystroke_l	l	n/a
296.152	0.09	592304	keystroke_o	o	n/a
296.272	0.075	592544	keystroke_g	g	n/a
296.452	0.135	592904	keystroke_y	y	n/a
296.557	0.135	593114	keystroke_Key.space	Key.space	n/a
297.202	0.09	594404	keystroke_v	v	n/a
297.412	0.135	594824	keystroke_a	a	n/a
297.472	0.12	594944	keystroke_r	r	n/a
297.637	0.12	595274	keystroke_i	i	n/a
297.742	0.075	595484	keystroke_e	e	n/a
297.967	0.075	595934	keystroke_d	d	n/a
298.072	0.135	596144	keystroke_Key.space	Key.space	n/a
298.372	0.09	596744	keystroke_f	f	n/a
298.567	0.105	597134	keystroke_e	e	n/a
298.687	0.105	597374	keystroke_m	m	n/a
298.807	0.105	597614	keystroke_a	a	n/a
298.927	0.09	597854	keystroke_l	l	n/a
299.002	0.15	598004	keystroke_e	e	n/a
299.122	0.105	598244	keystroke_s	s	n/a
299.542	0.18	599084	keystroke_Key.enter	Key.enter	n/a
299.728	6.6715	599456	prompt	n/a	plate brought silicon need\n
300.772	0.12	601544	keystroke_p	p	n/a
300.877	0.135	601754	keystroke_l	l	n/a
301.027	0.105	602054	keystroke_a	a	n/a
301.237	0.165	602474	keystroke_t	t	n/a
301.342	0.105	602684	keystroke_e	e	n/a
301.477	0.15	602954	keystroke_Key.space	Key.space	n/a
302.332	0.105	604664	keystroke_b	b	n/a
302.617	0.12	605234	keystroke_r	r	n/a
302.752	0.12	605504	keystroke_o	o	n/a
302.842	0.135	605684	keystroke_u	u	n/a
302.932	0.075	605864	keystroke_g	g	n/a
303.142	0.135	606284	keystroke_h	h	n/a
303.262	0.075	606524	keystroke_t	t	n/a
303.382	0.18	606764	keystroke_Key.space	Key.space	n/a
304.027	0.105	608054	keystroke_s	s	n/a
304.207	0.105	608414	keystroke_i	i	n/a
304.462	0.09	608924	keystroke_l	l	n/a
304.642	0.12	609284	keystroke_i	i	n/a
304.777	0.075	609554	keystroke_c	c	n/a
304.942	0.18	609884	keystroke_o	o	n/a
305.047	0.195	610094	keystroke_n	n	n/a
305.182	0.135	610364	keystroke_Key.space	Key.space	n/a
305.422	0.15	610844	keystroke_n	n	n/a
305.542	0.09	611084	keystroke_e	e	n/a
305.707	0.075	611414	keystroke_e	e	n/a
305.917	0.09	611834	keystroke_d	d	n/a
306.247	0.15	612494	keystroke_Key.enter	Key.enter	n/a
306.4045	7.8835	612809	prompt	n/a	four freeware palmer postcard\n
307.102	0.09	614204	keystroke_f	f	n/a
307.267	0.1495	614534	keystroke_o	o	n/a
307.372	0.1945	614744	keystroke_u	u	n/a
307.5065	0.075	615013	keystroke_r	r	n/a
307.5965	0.135	615193	keystroke_Key.space	Key.space	n/a
307.8515	0.06	615703	keystroke_f	f	n/a
308.0615	0.075	616123	keystroke_r	r	n/a
308.2415	0.105	616483	keystroke_e	e	n/a
308.4065	0.105	616813	keystroke_e	e	n/a
308.6765	0.12	617353	keystroke_w	w	n/a
308.9015	0.15	617803	keystroke_a	a	n/a
308.9915	0.12	617983	keystroke_r	r	n/a
309.0525	0.119	618105	keystroke_e	e	n/a
309.2765	0.165	618553	keystroke_Key.space	Key.space	n/a
310.0715	0.135	620143	keystroke_p	p	n/a
310.4915	0.09	620983	keystroke_a	a	n/a
310.5965	0.105	621193	keystroke_l	l	n/a
310.8515	0.12	621703	keystroke_m	m	n/a
311.0165	0.18	622033	keystroke_e	e	n/a
311.2415	0.105	622483	keystroke_r	r	n/a
311.3915	0.135	622783	keystroke_Key.space	Key.space	n/a
312.0065	0.18	624013	keystroke_p	p	n/a
312.2915	0.105	624583	keystroke_o	o	n/a
312.4715	0.105	624943	keystroke_s	s	n/a
312.8015	0.075	625603	keystroke_t	t	n/a
313.0865	0.105	626173	keystroke_c	c	n/a
313.3415	0.195	626683	keystroke_a	a	n/a
313.5065	0.135	627013	keystroke_r	r	n/a
313.8065	0.09	627613	keystroke_d	d	n/a
314.1365	0.15	628273	keystroke_Key.enter	Key.enter	n/a
314.305	11.879	628610	prompt	n/a	texts appraisal questionnaire design\n
315.1865	0.135	630373	keystroke_t	t	n/a
315.3065	0.12	630613	keystroke_e	e	n/a
315.6065	0.105	631213	keystroke_x	x	n/a
315.8615	0.12	631723	keystroke_t	t	n/a
316.0265	0.105	632053	keystroke_s	s	n/a
316.1615	0.15	632323	keystroke_Key.space	Key.space	n/a
316.3865	0.105	632773	keystroke_a	a	n/a
316.5965	0.09	633193	keystroke_p	p	n/a
316.7615	0.165	633523	keystroke_p	p	n/a
316.9865	0.075	633973	keystroke_r	r	n/a
317.4365	0.075	634873	keystroke_a	a	n/a
317.5565	0.09	635113	keystroke_i	i	n/a
317.8715	0.075	635743	keystroke_s	s	n/a
318.1715	0.09	636343	keystroke_a	a	n/a
318.2165	0.18	636433	keystroke_l	l	n/a
318.3665	0.165	636733	keystroke_Key.space	Key.space	n/a
319.3565	0.12	638713	keystroke_q	q	n/a
319.5365	0.12	639073	keystroke_u	u	n/a
320.2565	0.105	640513	keystroke_e	e	n/a
320.6015	0.09	641203	keystroke_s	s	n/a
320.8415	0.09	641683	keystroke_t	t	n/a
320.9325	0.164	641865	keystroke_i	i	n/a
321.0515	0.225	642103	keystroke_o	o	n/a
321.2615	0.135	642523	keystroke_n	n	n/a
322.7315	0.165	645463	keystroke_n	n	n/a
322.9265	0.135	645853	keystroke_a	a	n/a
323.3315	0.09	646663	keystroke_i	i	n/a
323.5865	0.151	647173	keystroke_r	r	n/a
323.7215	0.061	647443	keystroke_e	e	n/a
324.3065	0.12	648613	keystroke_Key.space	Key.space	n/a
324.7715	0.06	649543	keystroke_d	d	n/a
324.9815	0.105	649963	keystroke_e	e	n/a
325.0725	0.134	650145	keystroke_s	s	n/a
325.2215	0.105	650443	keystroke_i	i	n/a
325.3565	0.09	650713	keystroke_g	g	n/a
325.4475	0.119	650895	keystroke_n	n	n/a
326.061	0.12	652122	keystroke_Key.enter	Key.enter	n/a
326.1895	5.994	652379	prompt	n/a	check currencies bank locking\n
326.9175	0.0595	653835	keystroke_c	c	n/a
326.991	0.135	653982	keystroke_h	h	n/a
327.141	0.045	654282	keystroke_e	e	n/a
327.351	0.09	654702	keystroke_c	c	n/a
327.397	0.134	654794	keystroke_k	k	n/a
327.501	0.105	655002	keystroke_Key.space	Key.space	n/a
327.5765	0.1195	655153	keystroke_c	c	n/a
327.741	0.12	655482	keystroke_u	u	n/a
327.862	0.074	655724	keystroke_r	r	n/a
328.012	0.09	656024	keystroke_r	r	n/a
328.2225	0.0745	656445	keystroke_e	e	n/a
328.371	0.121	656742	keystroke_n	n	n/a
328.477	0.105	656954	keystroke_c	c	n/a
328.671	0.12	657342	keystroke_i	i	n/a
328.806	0.135	657612	keystroke_e	e	n/a
328.911	0.121	657822	keystroke_s	s	n/a
329.016	0.12	658032	keystroke_Key.space	Key.space	n/a
329.571	0.09	659142	keystroke_b	b	n/a
329.736	0.105	659472	keystroke_a	a	n/a
329.796	0.18	659592	keystroke_n	n	n/a
329.931	0.12	659862	keystroke_k	k	n/a
330.412	0.164	660824	keystroke_Key.space	Key.space	n/a
330.562	0.104	661124	keystroke_l	l	n/a
330.786	0.09	661572	keystroke_o	o	n/a
330.921	0.12	661842	keystroke_c	c	n/a
331.011	0.091	662022	keystroke_k	k	n/a
331.191	0.165	662382	keystroke_i	i	n/a
331.296	0.165	662592	keystroke_n	n	n/a
331.431	0.075	662862	keystroke_g	g	n/a
332.016	0.165	664032	keystroke_Key.enter	Key.enter	n/a
332.188	8.336	664376	prompt	n/a	strategies treated concluded britney\n
332.962	0.089	665924	keystroke_s	s	n/a
333.157	0.059	666314	keystroke_t	t	n/a
333.351	0.09	666702	keystroke_r	r	n/a
333.786	0.12	667572	keystroke_a	a	n/a
334.027	0.089	668054	keystroke_t	t	n/a
334.222	0.075	668444	keystroke_e	e	n/a
334.416	0.091	668832	keystroke_g	g	n/a
334.566	0.105	669132	keystroke_i	i	n/a
334.687	0.12	669374	keystroke_e	e	n/a
334.776	0.12	669552	keystroke_s	s	n/a
334.926	0.12	669852	keystroke_Key.space	Key.space	n/a
335.346	0.061	670692	keystroke_t	t	n/a
335.556	0.106	671112	keystroke_r	r	n/a
335.602	0.18	671204	keystroke_e	e	n/a
335.797	0.105	671594	keystroke_a	a	n/a
335.827	0.134	671654	keystroke_t	t	n/a
335.916	0.091	671832	keystroke_e	e	n/a
336.127	0.09	672254	keystroke_d	d	n/a
336.276	0.105	672552	keystroke_Key.space	Key.space	n/a
336.652	0.105	673304	keystroke_c	c	n/a
336.742	0.135	673484	keystroke_o	o	n/a
336.847	0.135	673694	keystroke_n	n	n/a
336.952	0.089	673904	keystroke_c	c	n/a
337.072	0.165	674144	keystroke_l	l	n/a
337.177	0.15	674354	keystroke_u	u	n/a
337.282	0.06	674564	keystroke_d	d	n/a
337.446	0.076	674892	keystroke_e	e	n/a
337.641	0.09	675282	keystroke_d	d	n/a
337.761	0.135	675522	keystroke_Key.space	Key.space	n/a
338.137	0.12	676274	keystroke_b	b	n/a
338.422	0.105	676844	keystroke_r	r	n/a
338.557	0.09	677114	keystroke_i	i	n/a
338.707	0.075	677414	keystroke_t	t	n/a
338.947	0.149	677894	keystroke_n	n	n/a
339.202	0.075	678404	keystroke_e	e	n/a
339.307	0.105	678614	keystroke_y	y	n/a
340.372	0.149	680744	keystroke_Key.enter	Key.enter	n/a
340.532	13.1315	681064	prompt	n/a	ranges advanced hydrocodone roommate\n
341.902	0.105	683804	keystroke_r	r	n/a
342.052	0.105	684104	keystroke_a	a	n/a
342.142	0.135	684284	keystroke_n	n	n/a
342.262	0.195	684524	keystroke_g	g	n/a
342.397	0.15	684794	keystroke_e	e	n/a
342.487	0.12	684974	keystroke_s	s	n/a
342.621	0.12	685242	keystroke_Key.space	Key.space	n/a
343.147	0.105	686294	keystroke_a	a	n/a
343.372	0.09	686744	keystroke_d	d	n/a
343.627	0.12	687254	keystroke_v	v	n/a
343.807	0.105	687614	keystroke_a	a	n/a
343.942	0.165	687884	keystroke_n	n	n/a
344.047	0.09	688094	keystroke_c	c	n/a
344.272	0.03	688544	keystroke_e	e	n/a
344.437	0.09	688874	keystroke_d	d	n/a
344.512	0.164	689024	keystroke_Key.space	Key.space	n/a
344.977	0.12	689954	keystroke_h	h	n/a
345.262	0.09	690524	keystroke_y	y	n/a
345.667	0.105	691334	keystroke_d	d	n/a
345.892	0.105	691784	keystroke_r	r	n/a
346.012	0.09	692024	keystroke_o	o	n/a
347.002	0.105	694004	keystroke_c	c	n/a
347.257	0.09	694514	keystroke_o	o	n/a
348.412	0.09	696824	keystroke_d	d	n/a
348.562	0.15	697124	keystroke_o	o	n/a
348.667	0.165	697334	keystroke_n	n	n/a
348.772	0.09	697544	keystroke_e	e	n/a
351.13	0.102	702260	keystroke_Key.space	Key.space	n/a
351.382	0.075	702764	keystroke_r	r	n/a
351.487	0.075	702974	keystroke_o	o	n/a
352.117	0.075	704234	keystroke_o	o	n/a
352.357	0.075	704714	keystroke_m	m	n/a
352.537	0.105	705074	keystroke_m	m	n/a
352.747	0.195	705494	keystroke_a	a	n/a
352.927	0.165	705854	keystroke_t	t	n/a
353.032	0.135	706064	keystroke_e	e	n/a
353.512	0.15	707024	keystroke_Key.enter	Key.enter	n/a
353.6695	6.039	707339	prompt	n/a	decent funky eminem gore\n
354.817	0.09	709634	keystroke_d	d	n/a
355.387	0.105	710774	keystroke_e	e	n/a
355.657	0.105	711314	keystroke_c	c	n/a
355.882	0.09	711764	keystroke_e	e	n/a
355.987	0.225	711974	keystroke_n	n	n/a
356.092	0.09	712184	keystroke_t	t	n/a
356.197	0.135	712394	keystroke_Key.space	Key.space	n/a
356.317	0.105	712634	keystroke_f	f	n/a
356.437	0.075	712874	keystroke_u	u	n/a
356.647	0.135	713294	keystroke_n	n	n/a
356.722	0.135	713444	keystroke_k	k	n/a
356.992	0.135	713984	keystroke_y	y	n/a
357.082	0.12	714164	keystroke_Key.space	Key.space	n/a
357.352	0.06	714704	keystroke_e	e	n/a
357.607	0.135	715214	keystroke_m	m	n/a
357.802	0.09	715604	keystroke_i	i	n/a
357.982	0.12	715964	keystroke_n	n	n/a
358.267	0.075	716534	keystroke_e	e	n/a
358.417	0.18	716834	keystroke_m	m	n/a
358.567	0.15	717134	keystroke_Key.space	Key.space	n/a
358.867	0.06	717734	keystroke_g	g	n/a
358.942	0.105	717884	keystroke_o	o	n/a
359.077	0.15	718154	keystroke_r	r	n/a
359.197	0.12	718394	keystroke_e	e	n/a
359.557	0.15	719114	keystroke_Key.enter	Key.enter	n/a
359.7135	6.055	719427	prompt	n/a	in yukon forty catalyst\n
360.547	0.15	721094	keystroke_i	i	n/a
360.667	0.21	721334	keystroke_n	n	n/a
360.817	0.135	721634	keystroke_Key.space	Key.space	n/a
361.102	0.09	722204	keystroke_y	y	n/a
361.327	0.12	722654	keystroke_u	u	n/a
361.897	0.105	723794	keystroke_k	k	n/a
362.182	0.075	724364	keystroke_o	o	n/a
362.362	0.18	724724	keystroke_n	n	n/a
362.497	0.135	724994	keystroke_Key.space	Key.space	n/a
362.587	0.09	725174	keystroke_f	f	n/a
362.707	0.12	725414	keystroke_o	o	n/a
362.812	0.075	725624	keystroke_r	r	n/a
363.007	0.075	726014	keystroke_t	t	n/a
363.097	0.135	726194	keystroke_y	y	n/a
363.202	0.105	726404	keystroke_Key.space	Key.space	n/a
363.472	0.105	726944	keystroke_c	c	n/a
363.667	0.135	727334	keystroke_a	a	n/a
363.847	0.165	727694	keystroke_t	t	n/a
364.027	0.09	728054	keystroke_a	a	n/a
364.132	0.12	728264	keystroke_l	l	n/a
364.417	0.09	728834	keystroke_y	y	n/a
364.522	0.09	729044	keystroke_s	s	n/a
364.792	0.075	729584	keystroke_t	t	n/a
365.602	0.165	731204	keystroke_Key.enter	Key.enter	n/a
365.773	9.37	731546	prompt	n/a	association acrylic write adelaide\n
366.682	0.075	733364	keystroke_a	a	n/a
366.862	0.075	733724	keystroke_s	s	n/a
367.042	0.09	734084	keystroke_s	s	n/a
367.147	0.09	734294	keystroke_o	o	n/a
367.282	0.105	734564	keystroke_c	c	n/a
367.447	0.06	734894	keystroke_i	i	n/a
367.567	0.12	735134	keystroke_a	a	n/a
367.627	0.12	735254	keystroke_t	t	n/a
367.732	0.135	735464	keystroke_i	i	n/a
367.837	0.165	735674	keystroke_o	o	n/a
367.957	0.195	735914	keystroke_n	n	n/a
368.092	0.165	736184	keystroke_Key.space	Key.space	n/a
368.617	0.105	737234	keystroke_a	a	n/a
368.812	0.12	737624	keystroke_c	c	n/a
369.067	0.075	738134	keystroke_r	r	n/a
369.217	0.09	738434	keystroke_y	y	n/a
369.487	0.21	738974	keystroke_l	l	n/a
369.592	0.135	739184	keystroke_i	i	n/a
370.717	0.12	741434	keystroke_c	c	n/a
370.9865	0.165	741973	keystroke_Key.space	Key.space	n/a
372.292	0.0745	744584	keystroke_w	w	n/a
372.4715	0.06	744943	keystroke_r	r	n/a
372.6215	0.12	745243	keystroke_i	i	n/a
372.7115	0.105	745423	keystroke_t	t	n/a
372.7715	0.12	745543	keystroke_e	e	n/a
372.9065	0.15	745813	keystroke_Key.space	Key.space	n/a
373.2215	0.015	746443	keystroke_a	a	n/a
373.3115	0.075	746623	keystroke_d	d	n/a
373.5065	0.075	747013	keystroke_e	e	n/a
373.6715	0.135	747343	keystroke_l	l	n/a
373.8215	0.075	747643	keystroke_a	a	n/a
373.9715	0.12	747943	keystroke_i	i	n/a
374.0915	0.09	748183	keystroke_d	d	n/a
374.3165	0.06	748633	keystroke_e	e	n/a
374.9465	0.195	749893	keystroke_Key.enter	Key.enter	n/a
375.1485	6.655	750297	prompt	n/a	camcorders iceland lists glad\n
376.0565	0.09	752113	keystroke_c	c	n/a
376.2965	0.105	752593	keystroke_a	a	n/a
376.4165	0.12	752833	keystroke_m	m	n/a
376.5515	0.105	753103	keystroke_c	c	n/a
376.6865	0.105	753373	keystroke_o	o	n/a
376.8215	0.105	753643	keystroke_r	r	n/a
376.9415	0.075	753883	keystroke_d	d	n/a
377.1515	0.165	754303	keystroke_e	e	n/a
377.2265	0.18	754453	keystroke_r	r	n/a
377.3315	0.12	754663	keystroke_s	s	n/a
377.4665	0.135	754933	keystroke_Key.space	Key.space	n/a
378.0815	0.12	756163	keystroke_i	i	n/a
378.3815	0.09	756763	keystroke_c	c	n/a
378.6365	0.09	757273	keystroke_e	e	n/a
378.8015	0.135	757603	keystroke_l	l	n/a
378.9515	0.06	757903	keystroke_a	a	n/a
379.0865	0.105	758173	keystroke_n	n	n/a
379.2065	0.06	758413	keystroke_d	d	n/a
379.3265	0.135	758653	keystroke_Key.space	Key.space	n/a
379.6715	0.105	759343	keystroke_l	l	n/a
379.8815	0.09	759763	keystroke_i	i	n/a
379.9865	0.165	759973	keystroke_s	s	n/a
380.1365	0.195	760273	keystroke_t	t	n/a
380.2865	0.105	760573	keystroke_s	s	n/a
380.4215	0.12	760843	keystroke_Key.space	Key.space	n/a
380.8115	0.12	761623	keystroke_g	g	n/a
380.9015	0.105	761803	keystroke_l	l	n/a
381.0215	0.09	762043	keystroke_a	a	n/a
381.2165	0.06	762433	keystroke_d	d	n/a
381.6065	0.195	763213	keystroke_Key.enter	Key.enter	n/a
381.8095	7.9885	763619	prompt	n/a	mining psychology sega grenada\n
382.5665	0.135	765133	keystroke_m	m	n/a
382.7465	0.135	765493	keystroke_i	i	n/a
382.8515	0.15	765703	keystroke_n	n	n/a
382.9865	0.18	765973	keystroke_i	i	n/a
383.0915	0.27	766183	keystroke_n	n	n/a
383.2415	0.06	766483	keystroke_g	g	n/a
383.3165	0.18	766633	keystroke_Key.space	Key.space	n/a
383.5265	0.135	767053	keystroke_p	p	n/a
383.7515	0.105	767503	keystroke_s	s	n/a
383.9465	0.105	767893	keystroke_y	y	n/a
384.2615	0.09	768523	keystroke_c	c	n/a
384.3365	0.18	768673	keystroke_h	h	n/a
384.5015	0.09	769003	keystroke_o	o	n/a
384.6965	0.06	769393	keystroke_l	l	n/a
384.8915	0.09	769783	keystroke_o	o	n/a
385.0115	0.075	770023	keystroke_g	g	n/a
385.1465	0.105	770293	keystroke_y	y	n/a
385.5965	0.12	771193	keystroke_Key.space	Key.space	n/a
385.9565	0.075	771913	keystroke_s	s	n/a
386.1515	0.06	772303	keystroke_e	e	n/a
386.3465	0.09	772693	keystroke_g	g	n/a
386.5265	0.09	773053	keystroke_a	a	n/a
386.6465	0.135	773293	keystroke_Key.space	Key.space	n/a
386.9015	0.06	773803	keystroke_g	g	n/a
387.6665	0.06	775333	keystroke_r	r	n/a
387.8615	0.075	775723	keystroke_e	e	n/a
388.3565	0.1345	776713	keystroke_n	n	n/a
388.536	0.09	777072	keystroke_a	a	n/a
388.746	0.0905	777492	keystroke_d	d	n/a
388.956	0.09	777912	keystroke_a	a	n/a
389.616	0.18	779232	keystroke_Key.enter	Key.enter	n/a
389.803	6.055	779606	prompt	n/a	change designing afraid bold\n
390.606	0.105	781212	keystroke_c	c	n/a
390.756	0.075	781512	keystroke_h	h	n/a
390.846	0.09	781692	keystroke_a	a	n/a
390.966	0.135	781932	keystroke_n	n	n/a
391.026	0.12	782052	keystroke_g	g	n/a
391.131	0.075	782262	keystroke_e	e	n/a
391.236	0.135	782472	keystroke_Key.space	Key.space	n/a
391.491	0.09	782982	keystroke_d	d	n/a
391.731	0.09	783462	keystroke_e	e	n/a
392.061	0.09	784122	keystroke_s	s	n/a
392.436	0.09	784872	keystroke_i	i	n/a
392.676	0.075	785352	keystroke_g	g	n/a
392.781	0.15	785562	keystroke_n	n	n/a
392.916	0.195	785832	keystroke_i	i	n/a
393.051	0.24	786102	keystroke_n	n	n/a
393.156	0.06	786312	keystroke_g	g	n/a
393.261	0.135	786522	keystroke_Key.space	Key.space	n/a
393.951	0.105	787902	keystroke_a	a	n/a
394.101	0.075	788202	keystroke_f	f	n/a
394.296	0.12	788592	keystroke_r	r	n/a
394.431	0.09	788862	keystroke_a	a	n/a
394.536	0.09	789072	keystroke_i	i	n/a
394.656	0.09	789312	keystroke_d	d	n/a
394.791	0.15	789582	keystroke_Key.space	Key.space	n/a
394.926	0.12	789852	keystroke_b	b	n/a
395.031	0.09	790062	keystroke_o	o	n/a
395.226	0.12	790452	keystroke_l	l	n/a
395.301	0.09	790602	keystroke_d	d	n/a
395.676	0.18	791352	keystroke_Key.enter	Key.enter	n/a
395.864	8.3345	791728	prompt	n/a	density translated modeling consequence\n
396.786	0.075	793572	keystroke_d	d	n/a
396.981	0.09	793962	keystroke_e	e	n/a
397.116	0.135	794232	keystroke_n	n	n/a
397.206	0.105	794412	keystroke_s	s	n/a
397.356	0.09	794712	keystroke_i	i	n/a
397.506	0.075	795012	keystroke_t	t	n/a
397.641	0.15	795282	keystroke_y	y	n/a
397.746	0.135	795492	keystroke_Key.space	Key.space	n/a
398.031	0.06	796062	keystroke_t	t	n/a
398.226	0.15	796452	keystroke_r	r	n/a
398.331	0.12	796662	keystroke_a	a	n/a
398.391	0.12	796782	keystroke_n	n	n/a
398.586	0.09	797172	keystroke_s	s	n/a
398.721	0.12	797442	keystroke_l	l	n/a
398.871	0.165	797742	keystroke_a	a	n/a
399.006	0.15	798012	keystroke_t	t	n/a
399.111	0.075	798222	keystroke_e	e	n/a
399.306	0.09	798612	keystroke_d	d	n/a
399.366	0.15	798732	keystroke_Key.space	Key.space	n/a
400.056	0.165	800112	keystroke_m	m	n/a
400.206	0.105	800412	keystroke_o	o	n/a
400.281	0.06	800562	keystroke_d	d	n/a
400.461	0.075	800922	keystroke_e	e	n/a
400.537	0.254	801074	keystroke_l	l	n/a
400.656	0.165	801312	keystroke_i	i	n/a
400.731	0.24	801462	keystroke_n	n	n/a
400.806	0.09	801612	keystroke_g	g	n/a
400.926	0.15	801852	keystroke_Key.space	Key.space	n/a
401.616	0.09	803232	keystroke_c	c	n/a
401.691	0.136	803382	keystroke_o	o	n/a
401.781	0.15	803562	keystroke_n	n	n/a
402.081	0.09	804162	keystroke_s	s	n/a
402.351	0.091	804702	keystroke_e	e	n/a
402.561	0.105	805122	keystroke_q	q	n/a
402.711	0.105	805422	keystroke_u	u	n/a
402.846	0.075	805692	keystroke_e	e	n/a
402.996	0.135	805992	keystroke_n	n	n/a
403.102	0.119	806204	keystroke_c	c	n/a
403.371	0.09	806742	keystroke_e	e	n/a
404.031	0.165	808062	keystroke_Key.enter	Key.enter	n/a
404.2045	6.6695	808409	prompt	n/a	percentage marsh arrow delivery\n
405.066	0.165	810132	keystroke_p	p	n/a
405.171	0.135	810342	keystroke_e	e	n/a
405.246	0.105	810492	keystroke_r	r	n/a
405.471	0.09	810942	keystroke_c	c	n/a
405.711	0.075	811422	keystroke_e	e	n/a
405.787	0.179	811574	keystroke_n	n	n/a
405.951	0.075	811902	keystroke_t	t	n/a
406.146	0.121	812292	keystroke_a	a	n/a
406.221	0.135	812442	keystroke_g	g	n/a
406.311	0.136	812622	keystroke_e	e	n/a
406.461	0.135	812922	keystroke_Key.space	Key.space	n/a
406.731	0.15	813462	keystroke_m	m	n/a
406.806	0.18	813612	keystroke_a	a	n/a
406.941	0.135	813882	keystroke_r	r	n/a
407.136	0.12	814272	keystroke_s	s	n/a
407.242	0.164	814484	keystroke_h	h	n/a
407.331	0.15	814662	keystroke_Key.space	Key.space	n/a
407.931	0.075	815862	keystroke_a	a	n/a
408.066	0.09	816132	keystroke_r	r	n/a
408.246	0.075	816492	keystroke_r	r	n/a
408.336	0.09	816672	keystroke_o	o	n/a
408.516	0.105	817032	keystroke_w	w	n/a
408.681	0.15	817362	keystroke_Key.space	Key.space	n/a
408.996	0.06	817992	keystroke_d	d	n/a
409.176	0.076	818352	keystroke_e	e	n/a
409.356	0.211	818712	keystroke_l	l	n/a
409.506	0.15	819012	keystroke_i	i	n/a
409.671	0.06	819342	keystroke_v	v	n/a
409.836	0.136	819672	keystroke_e	e	n/a
409.926	0.12	819852	keystroke_r	r	n/a
410.031	0.135	820062	keystroke_y	y	n/a
410.736	0.135	821472	keystroke_Key.enter	Key.enter	n/a
410.88	9.758	821760	prompt	n/a	compliant voyeurweb threaded parker\n
411.637	0.104	823274	keystroke_c	c	n/a
411.861	0.166	823722	keystroke_o	o	n/a
412.057	0.165	824114	keystroke_m	m	n/a
412.161	0.166	824322	keystroke_p	p	n/a
412.401	0.135	824802	keystroke_l	l	n/a
412.597	0.134	825194	keystroke_i	i	n/a
412.777	0.104	825554	keystroke_a	a	n/a
412.911	0.12	825822	keystroke_n	n	n/a
413.046	0.076	826092	keystroke_t	t	n/a
413.181	0.15	826362	keystroke_Key.space	Key.space	n/a
414.247	0.075	828494	keystroke_v	v	n/a
414.336	0.091	828672	keystroke_o	o	n/a
415.042	0.105	830084	keystroke_y	y	n/a
415.656	0.076	831312	keystroke_e	e	n/a
415.867	0.104	831734	keystroke_u	u	n/a
416.092	0.075	832184	keystroke_r	r	n/a
416.436	0.091	832872	keystroke_w	w	n/a
416.647	0.089	833294	keystroke_e	e	n/a
416.947	0.105	833894	keystroke_b	b	n/a
417.171	0.165	834342	keystroke_Key.space	Key.space	n/a
417.981	0.075	835962	keystroke_t	t	n/a
418.087	0.12	836174	keystroke_h	h	n/a
418.222	0.105	836444	keystroke_r	r	n/a
418.282	0.165	836564	keystroke_e	e	n/a
418.431	0.076	836862	keystroke_a	a	n/a
418.567	0.075	837134	keystroke_d	d	n/a
418.747	0.075	837494	keystroke_e	e	n/a
418.942	0.089	837884	keystroke_d	d	n/a
419.046	0.135	838092	keystroke_Key.space	Key.space	n/a
419.422	0.12	838844	keystroke_p	p	n/a
419.527	0.165	839054	keystroke_a	a	n/a
419.631	0.136	839262	keystroke_r	r	n/a
419.797	0.15	839594	keystroke_k	k	n/a
419.842	0.18	839684	keystroke_e	e	n/a
419.977	0.12	839954	keystroke_r	r	n/a
420.471	0.165	840942	keystroke_Key.enter	Key.enter	n/a
420.642	5.6805	841284	prompt	n/a	camp belkin threaded whole\n
421.507	0.075	843014	keystroke_c	c	n/a
421.687	0.119	843374	keystroke_a	a	n/a
421.762	0.18	843524	keystroke_m	m	n/a
421.882	0.135	843764	keystroke_p	p	n/a
422.271	0.15	844542	keystroke_Key.space	Key.space	n/a
422.512	0.089	845024	keystroke_b	b	n/a
422.737	0.075	845474	keystroke_e	e	n/a
422.827	0.179	845654	keystroke_l	l	n/a
422.931	0.105	845862	keystroke_k	k	n/a
423.142	0.165	846284	keystroke_i	i	n/a
423.231	0.211	846462	keystroke_n	n	n/a
423.381	0.15	846762	keystroke_Key.space	Key.space	n/a
424.042	0.075	848084	keystroke_t	t	n/a
424.147	0.135	848294	keystroke_h	h	n/a
424.252	0.18	848504	keystroke_r	r	n/a
424.357	0.105	848714	keystroke_e	e	n/a
424.432	0.104	848864	keystroke_a	a	n/a
424.597	0.09	849194	keystroke_d	d	n/a
424.792	0.06	849584	keystroke_e	e	n/a
424.957	0.0745	849914	keystroke_d	d	n/a
425.0915	0.119	850183	keystroke_Key.space	Key.space	n/a
425.2565	0.09	850513	keystroke_w	w	n/a
425.3615	0.18	850723	keystroke_h	h	n/a
425.4965	0.06	850993	keystroke_o	o	n/a
425.6765	0.135	851353	keystroke_l	l	n/a
425.7665	0.06	851533	keystroke_e	e	n/a
426.1715	0.149	852343	keystroke_Key.enter	Key.enter	n/a
426.327	7.1205	852654	prompt	n/a	channel clinics erotica sleep\n
427.1165	0.105	854233	keystroke_c	c	n/a
427.2815	0.09	854563	keystroke_h	h	n/a
427.3865	0.06	854773	keystroke_a	a	n/a
427.5215	0.06	855043	keystroke_n	n	n/a
427.6865	0.12	855373	keystroke_n	n	n/a
427.8815	0.06	855763	keystroke_e	e	n/a
428.0165	0.15	856033	keystroke_l	l	n/a
428.1965	0.089	856393	keystroke_Key.space	Key.space	n/a
428.3765	0.06	856753	keystroke_c	c	n/a
428.6165	0.105	857233	keystroke_l	l	n/a
428.8865	0.09	857773	keystroke_i	i	n/a
429.0965	0.165	858193	keystroke_n	n	n/a
429.2465	0.135	858493	keystroke_i	i	n/a
429.4415	0.03	858883	keystroke_c	c	n/a
429.5915	0.075	859183	keystroke_s	s	n/a
429.7855	0.136	859571	keystroke_Key.space	Key.space	n/a
430.4615	0.09	860923	keystroke_e	e	n/a
430.6715	0.105	861343	keystroke_r	r	n/a
430.8365	0.12	861673	keystroke_o	o	n/a
430.9715	0.075	861943	keystroke_t	t	n/a
431.1215	0.105	862243	keystroke_i	i	n/a
431.1815	0.09	862363	keystroke_c	c	n/a
431.3915	0.105	862783	keystroke_a	a	n/a
431.5105	0.121	863021	keystroke_Key.space	Key.space	n/a
431.8715	0.075	863743	keystroke_s	s	n/a
431.9615	0.165	863923	keystroke_l	l	n/a
432.0815	0.06	864163	keystroke_e	e	n/a
432.2615	0.075	864523	keystroke_e	e	n/a
432.3965	0.12	864793	keystroke_p	p	n/a
433.2965	0.15	866593	keystroke_Key.enter	Key.enter	n/a
433.4545	8.739	866909	prompt	n/a	father refresh morrison carlos\n
434.4665	0.105	868933	keystroke_f	f	n/a
434.6315	0.15	869263	keystroke_a	a	n/a
434.7515	0.09	869503	keystroke_t	t	n/a
434.8565	0.105	869713	keystroke_h	h	n/a
434.9615	0.09	869923	keystroke_e	e	n/a
435.0065	0.105	870013	keystroke_r	r	n/a
435.1265	0.165	870253	keystroke_Key.space	Key.space	n/a
435.3065	0.105	870613	keystroke_r	r	n/a
435.4715	0.06	870943	keystroke_e	e	n/a
435.6065	0.09	871213	keystroke_f	f	n/a
435.9665	0.12	871933	keystroke_r	r	n/a
436.2815	0.09	872563	keystroke_e	e	n/a
436.6265	0.09	873253	keystroke_s	s	n/a
436.8515	0.135	873703	keystroke_h	h	n/a
437.6615	0.15	875323	keystroke_Key.space	Key.space	n/a
437.9465	0.165	875893	keystroke_m	m	n/a
438.2015	0.105	876403	keystroke_o	o	n/a
438.3815	0.075	876763	keystroke_r	r	n/a
438.5615	0.075	877123	keystroke_r	r	n/a
438.6815	0.135	877363	keystroke_i	i	n/a
438.8465	0.105	877693	keystroke_s	s	n/a
438.9665	0.15	877933	keystroke_o	o	n/a
439.0715	0.195	878143	keystroke_n	n	n/a
439.2365	0.12	878473	keystroke_Key.space	Key.space	n/a
439.6565	0.075	879313	keystroke_c	c	n/a
439.8515	0.15	879703	keystroke_a	a	n/a
440.0765	0.09	880153	keystroke_l	l	n/a
440.5415	0.09	881083	keystroke_Key.backspace	Key.backspace	n/a
440.6465	0.12	881293	keystroke_r	r	n/a
440.9015	0.105	881803	keystroke_l	l	n/a
441.1415	0.09	882283	keystroke_o	o	n/a
441.2015	0.09	882403	keystroke_s	s	n/a
442.0415	0.15	884083	keystroke_Key.enter	Key.enter	n/a
442.199	6.174	884398	prompt	n/a	keep walk functional rope\n
443.001	0.15	886002	keystroke_k	k	n/a
443.136	0.075	886272	keystroke_e	e	n/a
443.346	0.075	886692	keystroke_e	e	n/a
443.391	0.165	886782	keystroke_p	p	n/a
443.541	0.135	887082	keystroke_Key.space	Key.space	n/a
443.646	0.12	887292	keystroke_w	w	n/a
443.781	0.135	887562	keystroke_a	a	n/a
443.856	0.18	887712	keystroke_l	l	n/a
443.946	0.135	887892	keystroke_k	k	n/a
444.741	0.15	889482	keystroke_Key.space	Key.space	n/a
444.996	0.165	889992	keystroke_f	f	n/a
445.116	0.09	890232	keystroke_u	u	n/a
445.3715	0.12	890743	keystroke_n	n	n/a
445.5365	0.0595	891073	keystroke_c	c	n/a
445.701	0.105	891402	keystroke_t	t	n/a
445.806	0.12	891612	keystroke_i	i	n/a
445.8965	0.1795	891793	keystroke_o	o	n/a
446.001	0.1505	892002	keystroke_n	n	n/a
446.106	0.105	892212	keystroke_a	a	n/a
446.256	0.15	892512	keystroke_l	l	n/a
446.361	0.15	892722	keystroke_Key.space	Key.space	n/a
446.691	0.0905	893382	keystroke_r	r	n/a
446.8265	0.09	893653	keystroke_o	o	n/a
447.0665	0.105	894133	keystroke_p	p	n/a
447.2615	0.06	894523	keystroke_e	e	n/a
448.2365	0.135	896473	keystroke_Key.enter	Key.enter	n/a
448.3785	7.179	896757	prompt	n/a	turbo tracker miami indians\n
450.2165	0.09	900433	keystroke_t	t	n/a
450.4115	0.135	900823	keystroke_u	u	n/a
450.5915	0.09	901183	keystroke_r	r	n/a
450.981	0.105	901962	keystroke_b	b	n/a
451.1015	0.0895	902203	keystroke_o	o	n/a
451.371	0.135	902742	keystroke_Key.space	Key.space	n/a
451.536	0.09	903072	keystroke_t	t	n/a
451.746	0.135	903492	keystroke_r	r	n/a
451.851	0.105	903702	keystroke_a	a	n/a
452.016	0.09	904032	keystroke_c	c	n/a
452.136	0.105	904272	keystroke_k	k	n/a
452.256	0.15	904512	keystroke_e	e	n/a
452.361	0.135	904722	keystroke_r	r	n/a
452.511	0.075	905022	keystroke_Key.space	Key.space	n/a
452.706	0.12	905412	keystroke_m	m	n/a
452.8865	0.0895	905773	keystroke_i	i	n/a
453.036	0.09	906072	keystroke_a	a	n/a
453.111	0.195	906222	keystroke_m	m	n/a
453.231	0.15	906462	keystroke_i	i	n/a
453.426	0.135	906852	keystroke_Key.space	Key.space	n/a
453.936	0.09	907872	keystroke_i	i	n/a
454.086	0.12	908172	keystroke_n	n	n/a
454.221	0.09	908442	keystroke_d	d	n/a
454.326	0.09	908652	keystroke_i	i	n/a
454.461	0.075	908922	keystroke_a	a	n/a
454.551	0.12	909102	keystroke_n	n	n/a
454.656	0.09	909312	keystroke_s	s	n/a
455.391	0.165	910782	keystroke_Key.enter	Key.enter	n/a
455.562	9.6105	911124	prompt	n/a	week supplements opponent guardian\n
456.306	0.09	912612	keystroke_w	w	n/a
456.501	0.045	913002	keystroke_e	e	n/a
456.681	0.06	913362	keystroke_e	e	n/a
456.756	0.165	913512	keystroke_k	k	n/a
456.891	0.135	913782	keystroke_Key.space	Key.space	n/a
457.011	0.075	914022	keystroke_s	s	n/a
457.191	0.075	914382	keystroke_u	u	n/a
457.431	0.09	914862	keystroke_p	p	n/a
457.611	0.135	915222	keystroke_p	p	n/a
457.866	0.12	915732	keystroke_l	l	n/a
458.121	0.09	916242	keystroke_e	e	n/a
458.271	0.135	916542	keystroke_m	m	n/a
458.376	0.12	916752	keystroke_e	e	n/a
458.526	0.135	917052	keystroke_n	n	n/a
458.646	0.165	917292	keystroke_t	t	n/a
458.751	0.135	917502	keystroke_s	s	n/a
458.916	0.15	917832	keystroke_Key.space	Key.space	n/a
459.906	0.06	919812	keystroke_o	o	n/a
460.131	0.105	920262	keystroke_p	p	n/a
460.311	0.12	920622	keystroke_p	p	n/a
460.506	0.15	921012	keystroke_o	o	n/a
460.671	0.12	921342	keystroke_n	n	n/a
460.821	0.105	921642	keystroke_e	e	n/a
460.911	0.15	921822	keystroke_n	n	n/a
461.106	0.075	922212	keystroke_t	t	n/a
461.421	0.135	922842	keystroke_Key.space	Key.space	n/a
461.871	0.09	923742	keystroke_g	g	n/a
462.006	0.15	924012	keystroke_u	u	n/a
462.216	0.135	924432	keystroke_a	a	n/a
462.291	0.12	924582	keystroke_r	r	n/a
462.606	0.09	925212	keystroke_i	i	n/a
463.701	0.075	927402	keystroke_Key.backspace	Key.backspace	n/a
464.121	0.075	928242	keystroke_d	d	n/a
464.226	0.075	928452	keystroke_i	i	n/a
464.376	0.105	928752	keystroke_a	a	n/a
464.496	0.12	928992	keystroke_n	n	n/a
465.066	0.105	930132	keystroke_Key.enter	Key.enter	n/a
465.177	8.6805	930354	prompt	n/a	example warranties lexmark subjective\n
465.921	0.045	931842	keystroke_e	e	n/a
466.521	0.105	933042	keystroke_x	x	n/a
466.776	0.09	933552	keystroke_a	a	n/a
466.881	0.255	933762	keystroke_m	m	n/a
467.031	0.135	934062	keystroke_p	p	n/a
467.091	0.15	934182	keystroke_l	l	n/a
467.226	0.09	934452	keystroke_e	e	n/a
467.691	0.15	935382	keystroke_Key.space	Key.space	n/a
467.871	0.105	935742	keystroke_w	w	n/a
468.081	0.15	936162	keystroke_a	a	n/a
468.201	0.045	936402	keystroke_r	r	n/a
468.336	0.12	936672	keystroke_r	r	n/a
468.501	0.105	937002	keystroke_a	a	n/a
468.621	0.12	937242	keystroke_n	n	n/a
468.756	0.075	937512	keystroke_t	t	n/a
468.861	0.09	937722	keystroke_i	i	n/a
468.936	0.12	937872	keystroke_e	e	n/a
469.056	0.12	938112	keystroke_s	s	n/a
469.221	0.135	938442	keystroke_Key.space	Key.space	n/a
469.821	0.12	939642	keystroke_l	l	n/a
469.986	0.075	939972	keystroke_e	e	n/a
470.241	0.075	940482	keystroke_x	x	n/a
470.376	0.12	940752	keystroke_m	m	n/a
470.571	0.15	941142	keystroke_a	a	n/a
470.661	0.12	941322	keystroke_r	r	n/a
470.751	0.18	941502	keystroke_k	k	n/a
470.871	0.18	941742	keystroke_Key.space	Key.space	n/a
471.741	0.105	943482	keystroke_s	s	n/a
471.981	0.12	943962	keystroke_u	u	n/a
472.206	0.105	944412	keystroke_b	b	n/a
472.341	0.18	944682	keystroke_j	j	n/a
472.506	0.075	945012	keystroke_e	e	n/a
472.746	0.075	945492	keystroke_c	c	n/a
472.941	0.06	945882	keystroke_t	t	n/a
473.061	0.105	946122	keystroke_i	i	n/a
473.181	0.135	946362	keystroke_v	v	n/a
473.271	0.105	946542	keystroke_e	e	n/a
473.721	0.135	947442	keystroke_Key.enter	Key.enter	n/a
473.862	8.1865	947724	prompt	n/a	salaries processor flowers engaging\n
474.801	0.075	949602	keystroke_s	s	n/a
475.011	0.09	950022	keystroke_a	a	n/a
475.116	0.15	950232	keystroke_l	l	n/a
475.221	0.09	950442	keystroke_a	a	n/a
475.386	0.09	950772	keystroke_r	r	n/a
475.491	0.105	950982	keystroke_i	i	n/a
475.581	0.15	951162	keystroke_e	e	n/a
475.686	0.12	951372	keystroke_s	s	n/a
475.821	0.12	951642	keystroke_Key.space	Key.space	n/a
476.166	0.105	952332	keystroke_p	p	n/a
476.271	0.09	952542	keystroke_r	r	n/a
476.391	0.105	952782	keystroke_o	o	n/a
476.526	0.09	953052	keystroke_c	c	n/a
476.826	0.075	953652	keystroke_e	e	n/a
477.096	0.045	954192	keystroke_s	s	n/a
477.261	0.09	954522	keystroke_s	s	n/a
477.456	0.09	954912	keystroke_o	o	n/a
477.576	0.075	955152	keystroke_r	r	n/a
477.741	0.135	955482	keystroke_Key.space	Key.space	n/a
478.656	0.075	957312	keystroke_f	f	n/a
478.746	0.075	957492	keystroke_l	l	n/a
478.941	0.105	957882	keystroke_o	o	n/a
479.061	0.165	958122	keystroke_w	w	n/a
479.091	0.21	958182	keystroke_e	e	n/a
479.211	0.165	958422	keystroke_r	r	n/a
479.406	0.105	958812	keystroke_s	s	n/a
479.526	0.135	959052	keystroke_Key.space	Key.space	n/a
479.871	0.06	959742	keystroke_e	e	n/a
480.006	0.105	960012	keystroke_n	n	n/a
480.126	0.105	960252	keystroke_g	g	n/a
480.336	0.12	960672	keystroke_a	a	n/a
480.442	0.104	960884	keystroke_g	g	n/a
480.576	0.18	961152	keystroke_i	i	n/a
480.681	0.18	961362	keystroke_n	n	n/a
480.816	0.075	961632	keystroke_g	g	n/a
481.911	0.135	963822	keystroke_Key.enter	Key.enter	n/a
482.053	12.4145	964106	prompt	n/a	century mines intervention apart\n
482.961	0.075	965922	keystroke_c	c	n/a
483.171	0.105	966342	keystroke_e	e	n/a
483.321	0.105	966642	keystroke_n	n	n/a
483.411	0.06	966822	keystroke_t	t	n/a
483.591	0.105	967182	keystroke_u	u	n/a
483.756	0.06	967512	keystroke_r	r	n/a
483.861	0.135	967722	keystroke_y	y	n/a
483.981	0.075	967962	keystroke_Key.space	Key.space	n/a
484.251	0.135	968502	keystroke_m	m	n/a
484.551	0.165	969102	keystroke_i	i	n/a
484.686	0.15	969372	keystroke_n	n	n/a
484.806	0.21	969612	keystroke_e	e	n/a
484.971	0.12	969942	keystroke_s	s	n/a
485.136	0.135	970272	keystroke_Key.space	Key.space	n/a
485.871	0.15	971742	keystroke_i	i	n/a
485.961	0.165	971922	keystroke_n	n	n/a
486.081	0.105	972162	keystroke_t	t	n/a
486.202	0.149	972404	keystroke_e	e	n/a
486.231	0.06	972462	keystroke_n	n	n/a
486.306	0.091	972612	keystroke_r	r	n/a
486.546	0.075	973092	keystroke_v	v	n/a
486.681	0.105	973362	keystroke_e	e	n/a
486.801	0.09	973602	keystroke_n	n	n/a
487.2355	0.075	974471	keystroke_Key.backspace	Key.backspace	n/a
487.431	0.0745	974862	keystroke_Key.backspace	Key.backspace	n/a
487.626	0.0595	975252	keystroke_Key.backspace	Key.backspace	n/a
487.7905	0.075	975581	keystroke_Key.backspace	Key.backspace	n/a
488.1505	0.105	976301	keystroke_Key.backspace	Key.backspace	n/a
489.8615	0.074	979723	keystroke_r	r	n/a
490.4605	0.09	980921	keystroke_v	v	n/a
490.6705	0.075	981341	keystroke_e	e	n/a
490.8205	0.0905	981641	keystroke_n	n	n/a
490.9255	0.09	981851	keystroke_t	t	n/a
491.0605	0.165	982121	keystroke_i	i	n/a
491.1805	0.18	982361	keystroke_o	o	n/a
491.3005	0.195	982601	keystroke_n	n	n/a
491.4355	0.135	982871	keystroke_Key.space	Key.space	n/a
491.7355	0.1355	983471	keystroke_p	p	n/a
492.2155	0.105	984431	keystroke_Key.backspace	Key.backspace	n/a
492.5605	0.12	985121	keystroke_a	a	n/a
492.7705	0.15	985541	keystroke_p	p	n/a
492.9355	0.105	985871	keystroke_a	a	n/a
493.1455	0.105	986291	keystroke_r	r	n/a
493.3855	0.075	986771	keystroke_t	t	n/a
494.3155	0.15	988631	keystroke_Key.enter	Key.enter	n/a
494.472	13.7505	988944	prompt	n/a	qualifications spyware celebrity mounted\n
495.5765	0.104	991153	keystroke_q	q	n/a
495.6965	0.12	991393	keystroke_u	u	n/a
495.8905	0.12	991781	keystroke_a	a	n/a
496.1005	0.15	992201	keystroke_l	l	n/a
496.7155	0.09	993431	keystroke_i	i	n/a
496.9855	0.106	993971	keystroke_f	f	n/a
497.1655	0.091	994331	keystroke_i	i	n/a
497.3605	0.09	994721	keystroke_c	c	n/a
497.5555	0.15	995111	keystroke_a	a	n/a
497.6755	0.12	995351	keystroke_t	t	n/a
497.7505	0.18	995501	keystroke_i	i	n/a
497.8865	0.194	995773	keystroke_o	o	n/a
498.0055	0.24	996011	keystroke_n	n	n/a
498.1255	0.121	996251	keystroke_s	s	n/a
498.2605	0.135	996521	keystroke_Key.space	Key.space	n/a
498.6655	0.105	997331	keystroke_s	s	n/a
498.8005	0.135	997601	keystroke_p	p	n/a
499.0855	0.106	998171	keystroke_y	y	n/a
499.3405	0.075	998681	keystroke_w	w	n/a
499.4905	0.15	998981	keystroke_a	a	n/a
499.5965	0.119	999193	keystroke_r	r	n/a
499.6555	0.15	999311	keystroke_e	e	n/a
499.7755	0.15	999551	keystroke_Key.space	Key.space	n/a
500.2405	0.09	1000481	keystroke_c	c	n/a
500.4815	0.105	1000963	keystroke_e	e	n/a
500.5555	0.105	1001111	keystroke_l	l	n/a
500.8405	0.105	1001681	keystroke_b	b	n/a
501.0805	0.12	1002161	keystroke_r	r	n/a
501.2165	0.074	1002433	keystroke_i	i	n/a
501.3505	0.09	1002701	keystroke_t	t	n/a
501.4705	0.136	1002941	keystroke_y	y	n/a
501.5605	0.105	1003121	keystroke_Key.space	Key.space	n/a
502.6405	0.06	1005281	keystroke_Key.backspace	Key.backspace	n/a
502.8055	0.06	1005611	keystroke_Key.backspace	Key.backspace	n/a
503.0005	0.045	1006001	keystroke_Key.backspace	Key.backspace	n/a
503.1805	0.045	1006361	keystroke_Key.backspace	Key.backspace	n/a
503.6155	0.105	1007231	keystroke_Key.backspace	Key.backspace	n/a
503.9755	0.105	1007951	keystroke_Key.backspace	Key.backspace	n/a
504.3815	0.105	1008763	keystroke_e	e	n/a
504.7555	0.091	1009511	keystroke_b	b	n/a
504.9965	0.09	1009993	keystroke_r	r	n/a
505.1015	0.09	1010203	keystroke_i	i	n/a
505.2215	0.06	1010443	keystroke_t	t	n/a
505.3415	0.134	1010683	keystroke_y	y	n/a
505.4155	0.135	1010831	keystroke_Key.space	Key.space	n/a
506.4215	0.135	1012843	keystroke_m	m	n/a
506.6165	0.15	1013233	keystroke_o	o	n/a
506.7215	0.119	1013443	keystroke_u	u	n/a
506.9765	0.135	1013953	keystroke_n	n	n/a
507.0965	0.135	1014193	keystroke_t	t	n/a
507.2165	0.09	1014433	keystroke_e	e	n/a
507.4415	0.09	1014883	keystroke_d	d	n/a
508.0705	0.15	1016141	keystroke_Key.enter	Key.enter	n/a
508.227	9.9705	1016454	prompt	n/a	cadillac arising seating march\n
509.0315	0.105	1018063	keystroke_c	c	n/a
509.5265	0.09	1019053	keystroke_a	a	n/a
509.6765	0.09	1019353	keystroke_d	d	n/a
509.8265	0.12	1019653	keystroke_i	i	n/a
509.9165	0.105	1019833	keystroke_c	c	n/a
510.0515	0.12	1020103	keystroke_a	a	n/a
510.1415	0.045	1020283	keystroke_l	l	n/a
510.2915	0.12	1020583	keystroke_l	l	n/a
510.4265	0.105	1020853	keystroke_a	a	n/a
510.7415	0.09	1021483	keystroke_c	c	n/a
511.355	0.0605	1022710	keystroke_Key.backspace	Key.backspace	n/a
511.551	0.044	1023102	keystroke_Key.backspace	Key.backspace	n/a
511.7155	0.076	1023431	keystroke_Key.backspace	Key.backspace	n/a
512.1665	0.059	1024333	keystroke_Key.backspace	Key.backspace	n/a
512.3465	0.074	1024693	keystroke_Key.backspace	Key.backspace	n/a
512.555	0.1205	1025110	keystroke_Key.backspace	Key.backspace	n/a
513.2765	0.075	1026553	keystroke_l	l	n/a
513.4265	0.12	1026853	keystroke_l	l	n/a
513.531	0.1055	1027062	keystroke_a	a	n/a
513.7415	0.1045	1027483	keystroke_c	c	n/a
513.831	0.1505	1027662	keystroke_Key.space	Key.space	n/a
514.7165	0.135	1029433	keystroke_a	a	n/a
514.8665	0.09	1029733	keystroke_r	r	n/a
515.0165	0.075	1030033	keystroke_i	i	n/a
515.0765	0.105	1030153	keystroke_s	s	n/a
515.2115	0.195	1030423	keystroke_i	i	n/a
515.3165	0.225	1030633	keystroke_n	n	n/a
515.3915	0.09	1030783	keystroke_g	g	n/a
515.4665	0.15	1030933	keystroke_Key.space	Key.space	n/a
516.2165	0.105	1032433	keystroke_s	s	n/a
516.4265	0.225	1032853	keystroke_e	e	n/a
516.5315	0.165	1033063	keystroke_a	a	n/a
516.6365	0.105	1033273	keystroke_t	t	n/a
516.7565	0.135	1033513	keystroke_i	i	n/a
516.8315	0.21	1033663	keystroke_n	n	n/a
516.9365	0.09	1033873	keystroke_g	g	n/a
516.9965	0.1645	1033993	keystroke_Key.space	Key.space	n/a
517.131	0.195	1034262	keystroke_m	m	n/a
517.236	0.165	1034472	keystroke_a	a	n/a
517.311	0.105	1034622	keystroke_r	r	n/a
517.551	0.12	1035102	keystroke_c	c	n/a
517.611	0.135	1035222	keystroke_h	h	n/a
518.061	0.135	1036122	keystroke_Key.enter	Key.enter	n/a
518.202	10.781	1036404	prompt	n/a	colleagues prepaid kilometers baseball\n
519.036	0.135	1038072	keystroke_c	c	n/a
519.186	0.075	1038372	keystroke_o	o	n/a
519.381	0.075	1038762	keystroke_l	l	n/a
519.546	0.09	1039092	keystroke_l	l	n/a
519.666	0.09	1039332	keystroke_e	e	n/a
519.831	0.15	1039662	keystroke_a	a	n/a
519.996	0.105	1039992	keystroke_g	g	n/a
520.146	0.135	1040292	keystroke_u	u	n/a
520.266	0.135	1040532	keystroke_e	e	n/a
520.341	0.12	1040682	keystroke_s	s	n/a
520.476	0.15	1040952	keystroke_Key.space	Key.space	n/a
521.346	0.09	1042692	keystroke_p	p	n/a
521.466	0.09	1042932	keystroke_r	r	n/a
521.691	0.09	1043382	keystroke_e	e	n/a
521.916	0.105	1043832	keystroke_p	p	n/a
522.066	0.06	1044132	keystroke_a	a	n/a
522.171	0.09	1044342	keystroke_i	i	n/a
522.276	0.09	1044552	keystroke_d	d	n/a
522.426	0.15	1044852	keystroke_Key.space	Key.space	n/a
523.206	0.075	1046412	keystroke_k	k	n/a
523.401	0.075	1046802	keystroke_i	i	n/a
523.596	0.075	1047192	keystroke_l	l	n/a
523.806	0.075	1047612	keystroke_o	o	n/a
524.226	0.12	1048452	keystroke_m	m	n/a
524.391	0.09	1048782	keystroke_e	e	n/a
524.646	0.09	1049292	keystroke_t	t	n/a
524.931	0.165	1049862	keystroke_e	e	n/a
525.036	0.135	1050072	keystroke_r	r	n/a
525.276	0.09	1050552	keystroke_s	s	n/a
526.011	0.135	1052022	keystroke_Key.space	Key.space	n/a
526.431	0.075	1052862	keystroke_a	a	n/a
526.866	0.135	1053732	keystroke_Key.backspace	Key.backspace	n/a
527.016	0.12	1054032	keystroke_b	b	n/a
527.271	0.21	1054542	keystroke_a	a	n/a
527.406	0.12	1054812	keystroke_s	s	n/a
527.631	0.105	1055262	keystroke_e	e	n/a
527.886	0.12	1055772	keystroke_b	b	n/a
528.081	0.12	1056162	keystroke_a	a	n/a
528.186	0.075	1056372	keystroke_l	l	n/a
528.351	0.135	1056702	keystroke_l	l	n/a
528.816	0.165	1057632	keystroke_Key.enter	Key.enter	n/a
528.9885	6.324	1057977	prompt	n/a	rental code notion exams\n
529.911	0.12	1059822	keystroke_r	r	n/a
530.001	0.105	1060002	keystroke_e	e	n/a
530.106	0.135	1060212	keystroke_n	n	n/a
530.211	0.15	1060422	keystroke_t	t	n/a
530.331	0.135	1060662	keystroke_a	a	n/a
530.406	0.18	1060812	keystroke_l	l	n/a
530.541	0.12	1061082	keystroke_Key.space	Key.space	n/a
530.616	0.12	1061232	keystroke_c	c	n/a
530.751	0.105	1061502	keystroke_o	o	n/a
530.886	0.075	1061772	keystroke_d	d	n/a
531.081	0.075	1062162	keystroke_e	e	n/a
531.321	0.135	1062642	keystroke_Key.space	Key.space	n/a
532.146	0.135	1064292	keystroke_n	n	n/a
532.296	0.105	1064592	keystroke_o	o	n/a
532.461	0.075	1064922	keystroke_t	t	n/a
532.521	0.15	1065042	keystroke_i	i	n/a
532.656	0.18	1065312	keystroke_o	o	n/a
532.761	0.225	1065522	keystroke_n	n	n/a
532.911	0.165	1065822	keystroke_Key.space	Key.space	n/a
533.601	0.09	1067202	keystroke_e	e	n/a
533.856	0.06	1067712	keystroke_x	x	n/a
534.081	0.075	1068162	keystroke_a	a	n/a
534.396	0.18	1068792	keystroke_m	m	n/a
534.606	0.09	1069212	keystroke_s	s	n/a
535.146	0.165	1070292	keystroke_Key.enter	Key.enter	n/a
535.3195	8.948	1070639	prompt	n/a	officer attributes avatar incidence\n
536.241	0.105	1072482	keystroke_o	o	n/a
536.331	0.06	1072662	keystroke_f	f	n/a
536.481	0.09	1072962	keystroke_f	f	n/a
536.586	0.105	1073172	keystroke_i	i	n/a
536.721	0.075	1073442	keystroke_c	c	n/a
536.916	0.165	1073832	keystroke_e	e	n/a
537.036	0.12	1074072	keystroke_r	r	n/a
537.141	0.135	1074282	keystroke_Key.space	Key.space	n/a
537.351	0.15	1074702	keystroke_a	a	n/a
537.576	0.15	1075152	keystroke_t	t	n/a
537.861	0.09	1075722	keystroke_t	t	n/a
538.221	0.105	1076442	keystroke_r	r	n/a
538.341	0.105	1076682	keystroke_i	i	n/a
538.656	0.105	1077312	keystroke_b	b	n/a
538.776	0.105	1077552	keystroke_u	u	n/a
538.956	0.165	1077912	keystroke_t	t	n/a
539.061	0.195	1078122	keystroke_e	e	n/a
539.196	0.135	1078392	keystroke_s	s	n/a
539.406	0.15	1078812	keystroke_Key.space	Key.space	n/a
539.736	0.12	1079472	keystroke_a	a	n/a
539.946	0.12	1079892	keystroke_v	v	n/a
540.111	0.15	1080222	keystroke_a	a	n/a
540.381	0.09	1080762	keystroke_t	t	n/a
540.606	0.165	1081212	keystroke_a	a	n/a
540.726	0.09	1081452	keystroke_r	r	n/a
541.641	0.135	1083282	keystroke_Key.space	Key.space	n/a
541.881	0.15	1083762	keystroke_i	i	n/a
541.986	0.12	1083972	keystroke_n	n	n/a
542.166	0.105	1084332	keystroke_c	c	n/a
542.361	0.09	1084722	keystroke_i	i	n/a
542.496	0.075	1084992	keystroke_d	d	n/a
542.721	0.06	1085442	keystroke_e	e	n/a
542.811	0.15	1085622	keystroke_n	n	n/a
542.946	0.09	1085892	keystroke_c	c	n/a
543.186	0.09	1086372	keystroke_e	e	n/a
544.131	0.135	1088262	keystroke_Key.enter	Key.enter	n/a
544.2735	10.539	1088547	prompt	n/a	uniform suppliers projector suffered\n
545.376	0.075	1090752	keystroke_u	u	n/a
545.616	0.15	1091232	keystroke_n	n	n/a
545.721	0.12	1091442	keystroke_i	i	n/a
545.826	0.075	1091652	keystroke_f	f	n/a
545.961	0.06	1091922	keystroke_o	o	n/a
546.036	0.075	1092072	keystroke_r	r	n/a
546.186	0.165	1092372	keystroke_m	m	n/a
546.366	0.12	1092732	keystroke_Key.space	Key.space	n/a
546.816	0.075	1093632	keystroke_s	s	n/a
546.951	0.135	1093902	keystroke_u	u	n/a
547.401	0.135	1094802	keystroke_p	p	n/a
547.626	0.15	1095252	keystroke_p	p	n/a
547.956	0.135	1095912	keystroke_l	l	n/a
548.226	0.12	1096452	keystroke_i	i	n/a
548.391	0.195	1096782	keystroke_e	e	n/a
548.541	0.18	1097082	keystroke_r	r	n/a
548.706	0.12	1097412	keystroke_s	s	n/a
549.651	0.135	1099302	keystroke_Key.space	Key.space	n/a
549.891	0.06	1099782	keystroke_p	p	n/a
549.996	0.075	1099992	keystroke_r	r	n/a
550.251	0.15	1100502	keystroke_o	o	n/a
550.386	0.135	1100772	keystroke_j	j	n/a
550.506	0.06	1101012	keystroke_e	e	n/a
550.716	0.105	1101432	keystroke_c	c	n/a
550.941	0.075	1101882	keystroke_t	t	n/a
551.046	0.09	1102092	keystroke_o	o	n/a
551.166	0.09	1102332	keystroke_r	r	n/a
551.331	0.1495	1102662	keystroke_Key.space	Key.space	n/a
551.661	0.075	1103322	keystroke_s	s	n/a
551.811	0.075	1103622	keystroke_u	u	n/a
551.901	0.06	1103802	keystroke_f	f	n/a
552.0655	0.09	1104131	keystroke_f	f	n/a
552.2155	0.105	1104431	keystroke_e	e	n/a
552.3355	0.15	1104671	keystroke_r	r	n/a
552.8305	0.075	1105661	keystroke_e	e	n/a
553.0405	0.12	1106081	keystroke_d	d	n/a
554.6605	0.15	1109321	keystroke_Key.enter	Key.enter	n/a
554.817	6.6855	1109634	prompt	n/a	kenny biol cemetery initially\n
555.6655	0.12	1111331	keystroke_k	k	n/a
555.8005	0.06	1111601	keystroke_e	e	n/a
555.9205	0.09	1111841	keystroke_n	n	n/a
556.0855	0.12	1112171	keystroke_n	n	n/a
556.3555	0.12	1112711	keystroke_y	y	n/a
556.4455	0.105	1112891	keystroke_Key.space	Key.space	n/a
556.5655	0.105	1113131	keystroke_b	b	n/a
556.6855	0.15	1113371	keystroke_i	i	n/a
556.7905	0.135	1113581	keystroke_o	o	n/a
557.0605	0.135	1114121	keystroke_l	l	n/a
557.1505	0.135	1114301	keystroke_Key.space	Key.space	n/a
557.9305	0.09	1115861	keystroke_c	c	n/a
558.1705	0.075	1116341	keystroke_e	e	n/a
558.3055	0.165	1116611	keystroke_m	m	n/a
558.3805	0.105	1116761	keystroke_e	e	n/a
558.5755	0.075	1117151	keystroke_t	t	n/a
558.7255	0.15	1117451	keystroke_e	e	n/a
558.8605	0.09	1117721	keystroke_r	r	n/a
558.9355	0.165	1117871	keystroke_y	y	n/a
559.0555	0.135	1118111	keystroke_Key.space	Key.space	n/a
559.3705	0.105	1118741	keystroke_i	i	n/a
559.6555	0.105	1119311	keystroke_n	n	n/a
559.8505	0.09	1119701	keystroke_i	i	n/a
559.9555	0.09	1119911	keystroke_t	t	n/a
560.0605	0.09	1120121	keystroke_i	i	n/a
560.2105	0.09	1120421	keystroke_a	a	n/a
560.2855	0.06	1120571	keystroke_l	l	n/a
560.4655	0.21	1120931	keystroke_l	l	n/a
560.6155	0.105	1121231	keystroke_y	y	n/a
561.3505	0.15	1122701	keystroke_Key.enter	Key.enter	n/a
561.5075	8.3345	1123015	prompt	n/a	surface bend barbara scout\n
562.3855	0.09	1124771	keystroke_s	s	n/a
562.5205	0.15	1125041	keystroke_u	u	n/a
562.6405	0.075	1125281	keystroke_r	r	n/a
563.9155	0.015	1127831	keystroke_f	f	n/a
563.9755	0.075	1127951	keystroke_a	a	n/a
564.1405	0.09	1128281	keystroke_c	c	n/a
564.3805	0.06	1128761	keystroke_e	e	n/a
564.5755	0.18	1129151	keystroke_Key.space	Key.space	n/a
564.9505	0.105	1129901	keystroke_b	b	n/a
565.3105	0.075	1130621	keystroke_e	e	n/a
565.4605	0.12	1130921	keystroke_n	n	n/a
565.5355	0.09	1131071	keystroke_d	d	n/a
566.0305	0.15	1132061	keystroke_Key.space	Key.space	n/a
566.3905	0.105	1132781	keystroke_b	b	n/a
566.6005	0.1795	1133201	keystroke_a	a	n/a
566.7355	0.1195	1133471	keystroke_r	r	n/a
567.245	0.105	1134490	keystroke_b	b	n/a
567.47	0.165	1134940	keystroke_a	a	n/a
567.575	0.1205	1135150	keystroke_r	r	n/a
567.89	0.105	1135780	keystroke_a	a	n/a
568.01	0.15	1136020	keystroke_Key.space	Key.space	n/a
568.64	0.09	1137280	keystroke_s	s	n/a
568.865	0.105	1137730	keystroke_c	c	n/a
568.985	0.18	1137970	keystroke_o	o	n/a
569.09	0.165	1138180	keystroke_u	u	n/a
569.24	0.075	1138480	keystroke_t	t	n/a
569.705	0.135	1139410	keystroke_Key.enter	Key.enter	n/a
569.847	9.625	1139694	prompt	n/a	inns territories publishing automation\n
570.86	0.12	1141720	keystroke_i	i	n/a
571.13	0.06	1142260	keystroke_n	n	n/a
571.295	0.12	1142590	keystroke_n	n	n/a
571.43	0.09	1142860	keystroke_s	s	n/a
571.55	0.15	1143100	keystroke_Key.space	Key.space	n/a
571.85	0.075	1143700	keystroke_t	t	n/a
572	0.135	1144000	keystroke_e	e	n/a
572.09	0.09	1144180	keystroke_r	r	n/a
572.285	0.12	1144570	keystroke_r	r	n/a
572.51	0.135	1145020	keystroke_i	i	n/a
572.69	0.09	1145380	keystroke_t	t	n/a
572.825	0.09	1145650	keystroke_o	o	n/a
572.945	0.09	1145890	keystroke_r	r	n/a
573.095	0.105	1146190	keystroke_i	i	n/a
573.185	0.165	1146370	keystroke_e	e	n/a
573.276	0.134	1146552	keystroke_s	s	n/a
573.395	0.15	1146790	keystroke_Key.space	Key.space	n/a
574.205	0.18	1148410	keystroke_p	p	n/a
574.4	0.09	1148800	keystroke_u	u	n/a
574.46	0.105	1148920	keystroke_b	b	n/a
574.625	0.165	1149250	keystroke_l	l	n/a
574.7	0.12	1149400	keystroke_i	i	n/a
574.85	0.09	1149700	keystroke_s	s	n/a
574.955	0.135	1149910	keystroke_h	h	n/a
575.075	0.195	1150150	keystroke_i	i	n/a
575.195	0.225	1150390	keystroke_n	n	n/a
575.285	0.06	1150570	keystroke_g	g	n/a
575.405	0.135	1150810	keystroke_Key.space	Key.space	n/a
576.02	0.105	1152040	keystroke_a	a	n/a
576.17	0.12	1152340	keystroke_u	u	n/a
576.305	0.091	1152610	keystroke_t	t	n/a
576.425	0.09	1152850	keystroke_o	o	n/a
576.605	0.12	1153210	keystroke_m	m	n/a
576.74	0.15	1153480	keystroke_a	a	n/a
576.83	0.135	1153660	keystroke_t	t	n/a
576.906	0.119	1153812	keystroke_i	i	n/a
577.01	0.195	1154020	keystroke_o	o	n/a
577.115	0.24	1154230	keystroke_n	n	n/a
577.31	0.15	1154620	keystroke_Key.space	Key.space	n/a
578.57	0.09	1157140	keystroke_Key.backspace	Key.backspace	n/a
579.365	0.105	1158730	keystroke_Key.enter	Key.enter	n/a
579.4765	7.826	1158953	prompt	n/a	hello postcards insertion that'd\n
580.491	0.104	1160982	keystroke_h	h	n/a
580.565	0.09	1161130	keystroke_e	e	n/a
580.701	0.104	1161402	keystroke_l	l	n/a
580.835	0.121	1161670	keystroke_l	l	n/a
581.361	0.104	1162722	keystroke_o	o	n/a
581.51	0.15	1163020	keystroke_Key.space	Key.space	n/a
581.796	0.105	1163592	keystroke_p	p	n/a
582.006	0.12	1164012	keystroke_o	o	n/a
582.155	0.105	1164310	keystroke_s	s	n/a
582.395	0.09	1164790	keystroke_t	t	n/a
582.635	0.12	1165270	keystroke_c	c	n/a
582.83	0.165	1165660	keystroke_a	a	n/a
582.935	0.3	1165870	keystroke_r	r	n/a
583.085	0.195	1166170	keystroke_d	d	n/a
583.19	0.135	1166380	keystroke_s	s	n/a
583.385	0.165	1166770	keystroke_Key.space	Key.space	n/a
584.135	0.15	1168270	keystroke_i	i	n/a
584.315	0.166	1168630	keystroke_n	n	n/a
584.435	0.09	1168870	keystroke_s	s	n/a
584.661	0.194	1169322	keystroke_e	e	n/a
584.781	0.089	1169562	keystroke_r	r	n/a
585.005	0.105	1170010	keystroke_t	t	n/a
585.08	0.135	1170160	keystroke_i	i	n/a
585.17	0.195	1170340	keystroke_o	o	n/a
585.26	0.21	1170520	keystroke_n	n	n/a
585.41	0.135	1170820	keystroke_Key.space	Key.space	n/a
585.995	0.075	1171990	keystroke_t	t	n/a
586.085	0.121	1172170	keystroke_h	h	n/a
586.146	0.135	1172292	keystroke_a	a	n/a
586.22	0.061	1172440	keystroke_t	t	n/a
586.535	0.15	1173070	keystroke_'	'	n/a
586.58	0.09	1173160	keystroke_d	d	n/a
587.18	0.121	1174360	keystroke_Key.enter	Key.enter	n/a
587.3075	11.92	1174615	prompt	n/a	accommodation wallpaper gathered phoenix\n
588.276	0.075	1176552	keystroke_a	a	n/a
588.471	0.075	1176942	keystroke_c	c	n/a
588.65	0.076	1177300	keystroke_c	c	n/a
588.876	0.105	1177752	keystroke_o	o	n/a
589.386	0.059	1178772	keystroke_m	m	n/a
589.551	0.15	1179102	keystroke_m	m	n/a
589.701	0.09	1179402	keystroke_o	o	n/a
589.791	0.12	1179582	keystroke_d	d	n/a
590.031	0.134	1180062	keystroke_a	a	n/a
590.091	0.135	1180182	keystroke_t	t	n/a
590.181	0.134	1180362	keystroke_i	i	n/a
590.286	0.195	1180572	keystroke_o	o	n/a
590.391	0.195	1180782	keystroke_n	n	n/a
590.51	0.165	1181020	keystroke_Key.space	Key.space	n/a
591.036	0.075	1182072	keystroke_w	w	n/a
591.216	0.105	1182432	keystroke_a	a	n/a
591.291	0.06	1182582	keystroke_l	l	n/a
591.456	0.12	1182912	keystroke_l	l	n/a
591.726	0.075	1183452	keystroke_p	p	n/a
591.845	0.091	1183690	keystroke_a	a	n/a
591.936	0.105	1183872	keystroke_p	p	n/a
592.101	0.165	1184202	keystroke_e	e	n/a
592.206	0.12	1184412	keystroke_r	r	n/a
592.355	0.151	1184710	keystroke_Key.space	Key.space	n/a
593.406	0.09	1186812	keystroke_g	g	n/a
593.661	0.105	1187322	keystroke_a	a	n/a
594.021	0.105	1188042	keystroke_t	t	n/a
594.156	0.15	1188312	keystroke_h	h	n/a
594.216	0.12	1188432	keystroke_e	e	n/a
594.321	0.15	1188642	keystroke_r	r	n/a
594.426	0.09	1188852	keystroke_e	e	n/a
594.621	0.09	1189242	keystroke_d	d	n/a
594.74	0.12	1189480	keystroke_Key.space	Key.space	n/a
595.026	0.09	1190052	keystroke_p	p	n/a
595.251	0.105	1190502	keystroke_h	h	n/a
595.431	0.075	1190862	keystroke_e	e	n/a
596.061	0.075	1192122	keystroke_n	n	n/a
596.495	0.106	1192990	keystroke_Key.backspace	Key.backspace	n/a
596.69	0.075	1193380	keystroke_Key.backspace	Key.backspace	n/a
597.156	0.075	1194312	keystroke_o	o	n/a
597.501	0.09	1195002	keystroke_e	e	n/a
