onset	duration	sample	value	key	prompt_text
0.975	15.1325	1950	prompt	n/a	the quick brown fox jumps over a lazy dog\n
8.053	0.0425	16106	keystroke	t	n/a
8.11	0.075	16220	keystroke	h	n/a
8.2605	0.12	16521	keystroke	e	n/a
8.4695	0.1045	16939	keystroke	Key.space	n/a
8.9045	0.0905	17809	keystroke	q	n/a
8.965	0.0605	17930	keystroke	u	n/a
9.145	0.0305	18290	keystroke	i	n/a
9.2495	0.135	18499	keystroke	c	n/a
9.355	0.09	18710	keystroke	k	n/a
9.535	0.105	19070	keystroke	Key.space	n/a
10.18	0.015	20360	keystroke	b	n/a
10.21	0.06	20420	keystroke	r	n/a
10.345	0.1055	20690	keystroke	o	n/a
10.585	0.105	21170	keystroke	w	n/a
10.735	0.06	21470	keystroke	n	n/a
10.945	0.09	21890	keystroke	Key.space	n/a
11.2905	0.1195	22581	keystroke	f	n/a
11.395	0.0895	22790	keystroke	o	n/a
11.5005	0.1495	23001	keystroke	x	n/a
11.59	0.09	23180	keystroke	Key.space	n/a
11.725	0.105	23450	keystroke	j	n/a
11.95	0.06	23900	keystroke	u	n/a
12.1605	0.1195	24321	keystroke	m	n/a
12.235	0.12	24470	keystroke	p	n/a
12.415	0.135	24830	keystroke	s	n/a
12.535	0.104	25070	keystroke	Key.space	n/a
12.685	0.105	25370	keystroke	o	n/a
12.805	0.09	25610	keystroke	v	n/a
13.015	0.0595	26030	keystroke	e	n/a
13.1805	0.1195	26361	keystroke	r	n/a
13.3005	0.0745	26601	keystroke	Key.space	n/a
13.435	0.12	26870	keystroke	a	n/a
13.6	0.09	27200	keystroke	Key.space	n/a
14.185	0.12	28370	keystroke	l	n/a
14.35	0.0605	28700	keystroke	a	n/a
14.545	0.0755	29090	keystroke	z	n/a
14.845	0.09	29690	keystroke	t	n/a
15.295	0.059	30590	keystroke	Key.backspace	n/a
15.3695	0.0605	30739	keystroke	y	n/a
15.5045	0.1205	31009	keystroke	Key.space	n/a
15.64	0.12	31280	keystroke	d	n/a
15.7445	0.0755	31489	keystroke	o	n/a
15.895	0.0295	31790	keystroke	g	n/a
16	0.105	32000	keystroke	Key.enter	n/a
16.113	7.1045	32226	prompt	n/a	uniform barriers intro families\n
16.795	0.1055	33590	keystroke	u	n/a
17.0045	0.106	34009	keystroke	n	n/a
17.23	0.0895	34460	keystroke	i	n/a
17.6495	0.09	35299	keystroke	f	n/a
17.77	0.09	35540	keystroke	o	n/a
17.875	0.06	35750	keystroke	r	n/a
17.9955	0.09	35991	keystroke	m	n/a
18.234	0.1055	36468	keystroke	Key.space	n/a
18.8195	0.0905	37639	keystroke	b	n/a
18.97	0.12	37940	keystroke	a	n/a
19.1355	0.1045	38271	keystroke	r	n/a
19.359	0.0615	38718	keystroke	r	n/a
19.645	0.075	39290	keystroke	i	n/a
19.735	0.075	39470	keystroke	e	n/a
19.8845	0.075	39769	keystroke	r	n/a
20.065	0.09	40130	keystroke	s	n/a
20.32	0.1195	40640	keystroke	Key.space	n/a
20.62	0.0905	41240	keystroke	i	n/a
20.8595	0.106	41719	keystroke	n	n/a
21.07	0.06	42140	keystroke	t	n/a
21.235	0.09	42470	keystroke	r	n/a
21.355	0.105	42710	keystroke	o	n/a
21.55	0.12	43100	keystroke	Key.space	n/a
21.775	0.06	43550	keystroke	f	n/a
21.925	0.1045	43850	keystroke	a	n/a
22.1205	0.1045	44241	keystroke	m	n/a
22.33	0.1045	44660	keystroke	i	n/a
22.54	0.09	45080	keystroke	l	n/a
22.6895	0.121	45379	keystroke	i	n/a
22.78	0.0745	45560	keystroke	e	n/a
22.93	0.105	45860	keystroke	s	n/a
23.0645	0.15	46129	keystroke	Key.enter	n/a
23.222	6.2045	46444	prompt	n/a	violin thai donated exceptions\n
24.2495	0.0605	48499	keystroke	v	n/a
24.355	0.0905	48710	keystroke	i	n/a
24.55	0.0905	49100	keystroke	o	n/a
24.7605	0.105	49521	keystroke	l	n/a
24.9405	0.0895	49881	keystroke	i	n/a
25.135	0.1055	50270	keystroke	n	n/a
25.33	0.12	50660	keystroke	Key.space	n/a
25.451	0.1185	50902	keystroke	t	n/a
25.585	0.09	51170	keystroke	h	n/a
25.69	0.105	51380	keystroke	a	n/a
25.78	0.1045	51560	keystroke	i	n/a
25.9595	0.0895	51919	keystroke	Key.space	n/a
26.2455	0.09	52491	keystroke	d	n/a
26.3645	0.106	52729	keystroke	o	n/a
26.5905	0.0895	53181	keystroke	n	n/a
26.695	0.0895	53390	keystroke	a	n/a
27.13	0.09	54260	keystroke	t	n/a
27.355	0.075	54710	keystroke	e	n/a
27.5505	0.0895	55101	keystroke	d	n/a
27.625	0.105	55250	keystroke	Key.space	n/a
27.8055	0.074	55611	keystroke	e	n/a
28.0605	0.0895	56121	keystroke	x	n/a
28.255	0.0755	56510	keystroke	c	n/a
28.45	0.09	56900	keystroke	e	n/a
28.5845	0.105	57169	keystroke	p	n/a
28.705	0.075	57410	keystroke	t	n/a
28.765	0.06	57530	keystroke	i	n/a
28.915	0.0905	57830	keystroke	o	n/a
29.095	0.105	58190	keystroke	n	n/a
29.17	0.075	58340	keystroke	s	n/a
29.335	0.09	58670	keystroke	Key.enter	n/a
29.432	11.3055	58864	prompt	n/a	test lawrence plumbing spectacular\n
30.2495	0.0755	60499	keystroke	t	n/a
30.415	0.12	60830	keystroke	e	n/a
30.52	0.135	61040	keystroke	s	n/a
30.67	0.105	61340	keystroke	t	n/a
30.76	0.105	61520	keystroke	Key.space	n/a
31.075	0.1195	62150	keystroke	l	n/a
31.1805	0.1045	62361	keystroke	a	n/a
31.2695	0.12	62539	keystroke	w	n/a
31.6445	0.0755	63289	keystroke	r	n/a
31.81	0.0755	63620	keystroke	e	n/a
31.8695	0.0905	63739	keystroke	n	n/a
32.0045	0.12	64009	keystroke	c	n/a
32.2295	0.15	64459	keystroke	e	n/a
32.335	0.1495	64670	keystroke	Key.space	n/a
32.6045	0.1055	65209	keystroke	p	n/a
36.5215	0.029	73043	keystroke	l	n/a
36.7145	0.12	73429	keystroke	u	n/a
36.985	0.075	73970	keystroke	m	n/a
37.3895	0.091	74779	keystroke	b	n/a
37.885	0.075	75770	keystroke	i	n/a
38.0495	0.121	76099	keystroke	n	n/a
38.1705	0.089	76341	keystroke	g	n/a
38.41	0.1195	76820	keystroke	Key.space	n/a
38.6795	0.1205	77359	keystroke	s	n/a
38.9055	0.105	77811	keystroke	p	n/a
39.0395	0.09	78079	keystroke	e	n/a
39.2645	0.091	78529	keystroke	c	n/a
39.505	0.0905	79010	keystroke	t	n/a
39.7005	0.1195	79401	keystroke	a	n/a
39.955	0.0905	79910	keystroke	c	n/a
40.06	0.075	80120	keystroke	u	n/a
40.255	0.12	80510	keystroke	l	n/a
40.33	0.105	80660	keystroke	a	n/a
40.45	0.09	80900	keystroke	r	n/a
40.585	0.1495	81170	keystroke	Key.enter	n/a
40.7415	7.1655	81483	prompt	n/a	rent square solving classification\n
41.44	0.045	82880	keystroke	r	n/a
41.575	0.075	83150	keystroke	e	n/a
41.665	0.09	83330	keystroke	n	n/a
41.77	0.1055	83540	keystroke	t	n/a
41.9195	0.1055	83839	keystroke	Key.space	n/a
42.19	0.0905	84380	keystroke	s	n/a
42.34	0.105	84680	keystroke	q	n/a
42.5055	0.1045	85011	keystroke	u	n/a
42.6255	0.1195	85251	keystroke	a	n/a
42.715	0.06	85430	keystroke	r	n/a
42.925	0.045	85850	keystroke	e	n/a
42.955	0.12	85910	keystroke	Key.space	n/a
43.24	0.06	86480	keystroke	s	n/a
43.285	0.09	86570	keystroke	o	n/a
43.48	0.105	86960	keystroke	l	n/a
43.6005	0.0895	87201	keystroke	v	n/a
43.7055	0.09	87411	keystroke	i	n/a
43.855	0.075	87710	keystroke	n	n/a
43.99	0.105	87980	keystroke	g	n/a
44.275	0.09	88550	keystroke	Key.space	n/a
44.68	0.105	89360	keystroke	c	n/a
44.8745	0.1205	89749	keystroke	l	n/a
45.04	0.105	90080	keystroke	a	n/a
45.2505	0.0895	90501	keystroke	s	n/a
45.4145	0.0905	90829	keystroke	s	n/a
46.21	0.075	92420	keystroke	i	n/a
46.5255	0.074	93051	keystroke	f	n/a
46.6295	0.09	93259	keystroke	i	n/a
46.7795	0.09	93559	keystroke	c	n/a
46.9145	0.0905	93829	keystroke	a	n/a
47.035	0.1205	94070	keystroke	t	n/a
47.11	0.0595	94220	keystroke	i	n/a
47.2745	0.061	94549	keystroke	o	n/a
47.425	0.075	94850	keystroke	n	n/a
47.785	0.1195	95570	keystroke	Key.enter	n/a
47.911	9.2215	95822	prompt	n/a	containing uniprotkb acquired sales\n
48.685	0.12	97370	keystroke	c	n/a
48.7895	0.0605	97579	keystroke	o	n/a
48.9545	0.1205	97909	keystroke	n	n/a
49.0145	0.075	98029	keystroke	t	n/a
49.1195	0.12	98239	keystroke	a	n/a
49.21	0.1345	98420	keystroke	i	n/a
49.3455	0.12	98691	keystroke	n	n/a
49.51	0.12	99020	keystroke	i	n/a
49.5695	0.12	99139	keystroke	n	n/a
49.7045	0.06	99409	keystroke	g	n/a
49.8695	0.12	99739	keystroke	Key.space	n/a
50.8	0.0755	101600	keystroke	u	n/a
51.01	0.1045	102020	keystroke	n	n/a
52.075	0.1205	104150	keystroke	i	n/a
52.435	0.105	104870	keystroke	p	n/a
52.5255	0.1195	105051	keystroke	r	n/a
52.63	0.09	105260	keystroke	o	n/a
52.9755	0.105	105951	keystroke	t	n/a
53.29	0.135	106580	keystroke	k	n/a
53.6055	0.0895	107211	keystroke	b	n/a
53.845	0.1195	107690	keystroke	Key.space	n/a
54.1445	0.12	108289	keystroke	a	n/a
54.3545	0.121	108709	keystroke	c	n/a
55.06	0.1345	110120	keystroke	q	n/a
55.1495	0.0605	110299	keystroke	u	n/a
55.3145	0.12	110629	keystroke	i	n/a
55.4045	0.06	110809	keystroke	r	n/a
55.6445	0.0155	111289	keystroke	e	n/a
55.735	0.09	111470	keystroke	d	n/a
55.795	0.135	111590	keystroke	Key.space	n/a
56.41	0.09	112820	keystroke	s	n/a
56.5155	0.1195	113031	keystroke	a	n/a
56.5905	0.1195	113181	keystroke	l	n/a
56.6955	0.075	113391	keystroke	e	n/a
56.8295	0.1055	113659	keystroke	s	n/a
57.0245	0.105	114049	keystroke	Key.enter	n/a
57.1385	11.3035	114277	prompt	n/a	gmbh palm causes unavailable\n
58.39	0.12	116780	keystroke	g	n/a
58.585	0.135	117170	keystroke	m	n/a
59.185	0.0905	118370	keystroke	b	n/a
59.6645	0.0605	119329	keystroke	h	n/a
60.28	0.15	120560	keystroke	Key.space	n/a
60.535	0.09	121070	keystroke	p	n/a
61.165	0.1195	122330	keystroke	a	n/a
61.585	0.12	123170	keystroke	l	n/a
61.8995	0.12	123799	keystroke	m	n/a
62.1395	0.135	124279	keystroke	Key.space	n/a
62.664	0.106	125328	keystroke	c	n/a
62.829	0.121	125658	keystroke	a	n/a
63.5205	0.105	127041	keystroke	u	n/a
63.639	0.1515	127278	keystroke	s	n/a
63.7755	0.12	127551	keystroke	e	n/a
63.94	0.135	127880	keystroke	s	n/a
64.194	0.136	128388	keystroke	Key.space	n/a
64.7955	0.1195	129591	keystroke	u	n/a
65.095	0.12	130190	keystroke	n	n/a
65.455	0.12	130910	keystroke	a	n/a
65.755	0.09	131510	keystroke	v	n/a
66.205	0.135	132410	keystroke	a	n/a
67.0005	0.135	134001	keystroke	i	n/a
67.3745	0.106	134749	keystroke	l	n/a
67.6755	0.105	135351	keystroke	a	n/a
67.7505	0.0745	135501	keystroke	b	n/a
67.9145	0.1205	135829	keystroke	l	n/a
67.9905	0.075	135981	keystroke	e	n/a
68.305	0.135	136610	keystroke	Key.enter	n/a
68.4495	14.6625	136899	prompt	n/a	names walter pendant anonymous\n
69.1605	0.0895	138321	keystroke	n	n/a
69.2355	0.149	138471	keystroke	a	n/a
69.3545	0.12	138709	keystroke	m	n/a
69.43	0.1045	138860	keystroke	e	n/a
69.5945	0.12	139189	keystroke	s	n/a
69.6845	0.1205	139369	keystroke	Key.space	n/a
69.8805	0.0745	139761	keystroke	w	n/a
70.0295	0.1355	140059	keystroke	a	n/a
70.1045	0.135	140209	keystroke	l	n/a
70.3745	0.09	140749	keystroke	t	n/a
70.5695	0.075	141139	keystroke	e	n/a
70.735	0.105	141470	keystroke	r	n/a
70.81	0.135	141620	keystroke	Key.space	n/a
72.265	0.15	144530	keystroke	p	n/a
72.385	0.135	144770	keystroke	e	n/a
73.4805	0.1345	146961	keystroke	n	n/a
73.72	0.105	147440	keystroke	d	n/a
73.825	0.135	147650	keystroke	a	n/a
73.915	0.12	147830	keystroke	n	n/a
74.095	0.09	148190	keystroke	t	n/a
74.35	0.1195	148700	keystroke	Key.space	n/a
74.605	0.105	149210	keystroke	a	n/a
74.86	0.12	149720	keystroke	n	n/a
75.085	0.09	150170	keystroke	o	n/a
75.985	0.1355	151970	keystroke	n	n/a
78.5665	0.074	157133	keystroke	y	n/a
79.12	0.075	158240	keystroke	m	n/a
79.42	0.0905	158840	keystroke	o	n/a
79.675	0.1655	159350	keystroke	u	n/a
79.8255	0.12	159651	keystroke	s	n/a
83.066	0.044	166132	keystroke	Key.enter	n/a
83.117	7.5405	166234	prompt	n/a	headphones matches be senator\n
84.7005	0.135	169401	keystroke	h	n/a
84.7895	0.121	169579	keystroke	e	n/a
84.9705	0.12	169941	keystroke	a	n/a
85.1055	0.12	170211	keystroke	d	n/a
85.45	0.12	170900	keystroke	p	n/a
85.645	0.09	171290	keystroke	h	n/a
85.765	0.075	171530	keystroke	o	n/a
85.915	0.12	171830	keystroke	n	n/a
86.02	0.06	172040	keystroke	e	n/a
86.155	0.1205	172310	keystroke	s	n/a
86.2905	0.12	172581	keystroke	Key.space	n/a
86.7555	0.12	173511	keystroke	m	n/a
86.8155	0.105	173631	keystroke	a	n/a
86.9955	0.0745	173991	keystroke	t	n/a
87.2055	0.0895	174411	keystroke	c	n/a
87.296	0.0895	174592	keystroke	h	n/a
87.4455	0.105	174891	keystroke	e	n/a
87.5655	0.135	175131	keystroke	s	n/a
87.6855	0.119	175371	keystroke	Key.space	n/a
88.4055	0.09	176811	keystroke	b	n/a
88.5405	0.12	177081	keystroke	e	n/a
88.6445	0.12	177289	keystroke	Key.space	n/a
88.9755	0.105	177951	keystroke	s	n/a
89.3955	0.105	178791	keystroke	e	n/a
89.695	0.09	179390	keystroke	n	n/a
89.8005	0.0895	179601	keystroke	a	n/a
90.07	0.105	180140	keystroke	t	n/a
90.22	0.12	180440	keystroke	o	n/a
90.3255	0.0745	180651	keystroke	r	n/a
90.535	0.12	181070	keystroke	Key.enter	n/a
90.661	13.2725	181322	prompt	n/a	husband casual lyrics repository\n
91.9605	0.075	183921	keystroke	h	n/a
92.155	0.0895	184310	keystroke	u	n/a
92.305	0.1045	184610	keystroke	s	n/a
92.7845	0.075	185569	keystroke	b	n/a
92.8905	0.1345	185781	keystroke	a	n/a
93.0255	0.074	186051	keystroke	n	n/a
93.205	0.12	186410	keystroke	d	n/a
93.4445	0.12	186889	keystroke	Key.space	n/a
93.7445	0.106	187489	keystroke	c	n/a
93.9395	0.12	187879	keystroke	a	n/a
94.33	0.075	188660	keystroke	s	n/a
94.7205	0.074	189441	keystroke	u	n/a
95.0805	0.104	190161	keystroke	a	n/a
95.3345	0.1055	190669	keystroke	l	n/a
95.485	0.09	190970	keystroke	Key.space	n/a
95.8905	0.105	191781	keystroke	l	n/a
96.16	0.09	192320	keystroke	y	n/a
96.4155	0.0895	192831	keystroke	r	n/a
96.6255	0.09	193251	keystroke	i	n/a
96.9105	0.015	193821	keystroke	c	n/a
97.0455	0.075	194091	keystroke	s	n/a
97.2855	0.089	194571	keystroke	Key.space	n/a
97.8545	0.075	195709	keystroke	r	n/a
98.0805	0.06	196161	keystroke	e	n/a
99.3855	0.1195	198771	keystroke	p	n/a
100.195	0.135	200390	keystroke	o	n/a
100.915	0.09	201830	keystroke	s	n/a
101.38	0.1355	202760	keystroke	i	n/a
102.5505	0.09	205101	keystroke	t	n/a
102.6705	0.12	205341	keystroke	o	n/a
102.7755	0.06	205551	keystroke	r	n/a
103.135	0.075	206270	keystroke	y	n/a
103.81	0.1205	207620	keystroke	Key.enter	n/a
103.9415	9.8455	207883	prompt	n/a	shipping ourselves turns moderate\n
104.8905	0.1195	209781	keystroke	s	n/a
105.176	0.0745	210352	keystroke	h	n/a
105.5355	0.075	211071	keystroke	i	n/a
105.8955	0.09	211791	keystroke	p	n/a
106.0905	0.105	212181	keystroke	p	n/a
106.3305	0.075	212661	keystroke	i	n/a
106.5705	0.09	213141	keystroke	n	n/a
106.7805	0.045	213561	keystroke	g	n/a
107.2155	0.1045	214431	keystroke	Key.space	n/a
107.545	0.0755	215090	keystroke	o	n/a
107.891	0.0745	215782	keystroke	u	n/a
107.9945	0.075	215989	keystroke	r	n/a
108.3255	0.089	216651	keystroke	s	n/a
108.8055	0.045	217611	keystroke	e	n/a
109.3755	0.15	218751	keystroke	l	n/a
110.245	0.09	220490	keystroke	v	n/a
110.7255	0.09	221451	keystroke	e	n/a
110.965	0.1055	221930	keystroke	s	n/a
111.28	0.105	222560	keystroke	Key.space	n/a
111.505	0.12	223010	keystroke	t	n/a
111.64	0.12	223280	keystroke	u	n/a
111.76	0.075	223520	keystroke	r	n/a
111.865	0.1055	223730	keystroke	n	n/a
112.0005	0.1195	224001	keystroke	s	n/a
112.255	0.12	224510	keystroke	Key.space	n/a
112.615	0.09	225230	keystroke	m	n/a
112.795	0.12	225590	keystroke	o	n/a
112.885	0.06	225770	keystroke	d	n/a
113.0495	0.0455	226099	keystroke	e	n/a
113.1855	0.089	226371	keystroke	r	n/a
113.2895	0.12	226579	keystroke	a	n/a
113.395	0.06	226790	keystroke	t	n/a
113.545	0.0745	227090	keystroke	e	n/a
113.6645	0.12	227329	keystroke	Key.enter	n/a
113.791	5.291	227582	prompt	n/a	polish contents suits kenny\n
114.4755	0.045	228951	keystroke	p	n/a
114.5955	0.089	229191	keystroke	o	n/a
114.7905	0.135	229581	keystroke	l	n/a
114.9105	0.105	229821	keystroke	i	n/a
114.9855	0.12	229971	keystroke	s	n/a
115.1205	0.09	230241	keystroke	h	n/a
115.3445	0.106	230689	keystroke	Key.space	n/a
115.6005	0.0895	231201	keystroke	c	n/a
115.66	0.105	231320	keystroke	o	n/a
115.87	0.09	231740	keystroke	n	n/a
116.17	0.075	232340	keystroke	t	n/a
116.365	0.09	232730	keystroke	e	n/a
116.456	0.104	232912	keystroke	n	n/a
116.575	0.0595	233150	keystroke	t	n/a
116.7545	0.105	233509	keystroke	s	n/a
116.9945	0.09	233989	keystroke	Key.space	n/a
117.1905	0.104	234381	keystroke	s	n/a
117.3105	0.06	234621	keystroke	u	n/a
117.4745	0.121	234949	keystroke	i	n/a
117.5505	0.09	235101	keystroke	t	n/a
117.7155	0.12	235431	keystroke	s	n/a
117.8205	0.135	235641	keystroke	Key.space	n/a
118.0005	0.06	236001	keystroke	k	n/a
118.1955	0.105	236391	keystroke	e	n/a
118.4055	0.06	236811	keystroke	n	n/a
118.5855	0.12	237171	keystroke	n	n/a
118.7505	0.074	237501	keystroke	y	n/a
118.9595	0.12	237919	keystroke	Key.enter	n/a
119.0865	7.7805	238173	prompt	n/a	shirts remarks seasons officers\n
119.83	0.1345	239660	keystroke	s	n/a
119.9505	0.105	239901	keystroke	h	n/a
120.0095	0.135	240019	keystroke	i	n/a
120.1	0.0895	240200	keystroke	r	n/a
120.2655	0.075	240531	keystroke	t	n/a
120.415	0.1055	240830	keystroke	s	n/a
120.775	0.0895	241550	keystroke	Key.space	n/a
120.9845	0.0605	241969	keystroke	r	n/a
121.1645	0.09	242329	keystroke	e	n/a
121.3305	0.134	242661	keystroke	m	n/a
121.5845	0.106	243169	keystroke	a	n/a
121.7045	0.106	243409	keystroke	r	n/a
121.8105	0.104	243621	keystroke	k	n/a
121.93	0.1205	243860	keystroke	s	n/a
122.2005	0.0745	244401	keystroke	Key.space	n/a
122.5445	0.15	245089	keystroke	s	n/a
122.6795	0.1355	245359	keystroke	e	n/a
122.8295	0.1205	245659	keystroke	a	n/a
122.9195	0.121	245839	keystroke	s	n/a
123.0545	0.075	246109	keystroke	o	n/a
123.235	0.12	246470	keystroke	n	n/a
123.58	0.1205	247160	keystroke	s	n/a
123.7305	0.135	247461	keystroke	Key.space	n/a
124.1945	0.091	248389	keystroke	o	n/a
124.3445	0.091	248689	keystroke	f	n/a
124.5105	0.075	249021	keystroke	f	n/a
124.9445	0.105	249889	keystroke	i	n/a
125.0945	0.106	250189	keystroke	c	n/a
125.2305	0.09	250461	keystroke	i	n/a
126.1445	0.105	252289	keystroke	Key.backspace	n/a
126.2645	0.09	252529	keystroke	e	n/a
126.4445	0.09	252889	keystroke	r	n/a
126.5655	0.12	253131	keystroke	s	n/a
126.745	0.1205	253490	keystroke	Key.enter	n/a
126.8735	6.443	253747	prompt	n/a	nodes elegant flight stephen\n
127.4805	0.105	254961	keystroke	n	n/a
127.6455	0.119	255291	keystroke	o	n/a
127.7355	0.105	255471	keystroke	d	n/a
127.9145	0.091	255829	keystroke	e	n/a
128.0355	0.165	256071	keystroke	s	n/a
128.1695	0.121	256339	keystroke	Key.space	n/a
128.62	0.09	257240	keystroke	e	n/a
128.845	0.135	257690	keystroke	l	n/a
129.01	0.09	258020	keystroke	e	n/a
129.265	0.09	258530	keystroke	g	n/a
129.4295	0.1205	258859	keystroke	a	n/a
129.5345	0.105	259069	keystroke	n	n/a
129.6855	0.074	259371	keystroke	t	n/a
129.9095	0.105	259819	keystroke	Key.space	n/a
130.3445	0.09	260689	keystroke	f	n/a
130.4795	0.105	260959	keystroke	l	n/a
130.6445	0.12	261289	keystroke	i	n/a
130.7495	0.0905	261499	keystroke	g	n/a
130.8545	0.105	261709	keystroke	h	n/a
130.99	0.105	261980	keystroke	t	n/a
131.2145	0.0905	262429	keystroke	Key.space	n/a
131.545	0.09	263090	keystroke	t	n/a
131.74	0.075	263480	keystroke	e	n/a
132.445	0.135	264890	keystroke	p	n/a
132.715	0.075	265430	keystroke	h	n/a
132.82	0.09	265640	keystroke	e	n/a
132.9255	0.09	265851	keystroke	n	n/a
133.18	0.135	266360	keystroke	Key.enter	n/a
133.3205	5.951	266641	prompt	n/a	wire cheap avoiding senator\n
134.26	0.12	268520	keystroke	w	n/a
134.365	0.1055	268730	keystroke	i	n/a
134.44	0.09	268880	keystroke	r	n/a
134.635	0.12	269270	keystroke	e	n/a
134.725	0.12	269450	keystroke	Key.space	n/a
134.9205	0.1195	269841	keystroke	c	n/a
135.025	0.105	270050	keystroke	h	n/a
135.28	0.09	270560	keystroke	e	n/a
135.355	0.12	270710	keystroke	a	n/a
135.49	0.105	270980	keystroke	p	n/a
135.685	0.135	271370	keystroke	Key.space	n/a
135.94	0.09	271880	keystroke	a	n/a
136.195	0.075	272390	keystroke	v	n/a
136.3	0.09	272600	keystroke	o	n/a
136.975	0.135	273950	keystroke	i	n/a
137.095	0.12	274190	keystroke	d	n/a
137.245	0.09	274490	keystroke	i	n/a
137.425	0.105	274850	keystroke	n	n/a
137.515	0.1055	275030	keystroke	g	n/a
137.7845	0.075	275569	keystroke	Key.space	n/a
138.2045	0.136	276409	keystroke	s	n/a
138.3545	0.106	276709	keystroke	e	n/a
138.535	0.1195	277070	keystroke	n	n/a
138.6405	0.104	277281	keystroke	a	n/a
138.7895	0.09	277579	keystroke	t	n/a
138.925	0.0905	277850	keystroke	o	n/a
139.0295	0.09	278059	keystroke	r	n/a
139.1645	0.105	278329	keystroke	Key.enter	n/a
139.2765	6.565	278553	prompt	n/a	dialogue grammar glasses limits\n
140.0795	0.1355	280159	keystroke	d	n/a
140.23	0.0905	280460	keystroke	i	n/a
140.35	0.12	280700	keystroke	a	n/a
140.605	0.1055	281210	keystroke	l	n/a
140.7855	0.0895	281571	keystroke	o	n/a
140.8905	0.1345	281781	keystroke	g	n/a
141.04	0.09	282080	keystroke	u	n/a
141.1605	0.075	282321	keystroke	e	n/a
141.625	0.12	283250	keystroke	Key.space	n/a
141.94	0.045	283880	keystroke	g	n/a
142.105	0.06	284210	keystroke	r	n/a
142.225	0.105	284450	keystroke	a	n/a
142.435	0.045	284870	keystroke	m	n/a
142.5705	0.1045	285141	keystroke	m	n/a
142.795	0.12	285590	keystroke	a	n/a
143.0045	0.075	286009	keystroke	r	n/a
143.1245	0.1205	286249	keystroke	Key.space	n/a
143.5	0.0445	287000	keystroke	g	n/a
143.6795	0.15	287359	keystroke	l	n/a
143.7855	0.1345	287571	keystroke	a	n/a
144.1895	0.075	288379	keystroke	s	n/a
144.3545	0.0755	288709	keystroke	s	n/a
144.4605	0.1195	288921	keystroke	e	n/a
144.6105	0.105	289221	keystroke	s	n/a
144.7445	0.1045	289489	keystroke	Key.space	n/a
144.91	0.045	289820	keystroke	l	n/a
145.045	0.105	290090	keystroke	i	n/a
145.27	0.09	290540	keystroke	m	n/a
145.405	0.12	290810	keystroke	i	n/a
145.495	0.075	290990	keystroke	t	n/a
145.615	0.12	291230	keystroke	s	n/a
145.72	0.12	291440	keystroke	Key.enter	n/a
145.846	7.856	291692	prompt	n/a	floyd wall merchants annually\n
146.56	0.09	293120	keystroke	f	n/a
146.695	0.135	293390	keystroke	l	n/a
146.905	0.105	293810	keystroke	o	n/a
147.355	0.105	294710	keystroke	y	n/a
147.655	0.059	295310	keystroke	e	n/a
148.09	0.075	296180	keystroke	Key.backspace	n/a
148.1805	0.1045	296361	keystroke	d	n/a
148.345	0.135	296690	keystroke	Key.space	n/a
149.29	0.075	298580	keystroke	w	n/a
149.41	0.105	298820	keystroke	a	n/a
149.545	0.075	299090	keystroke	l	n/a
149.71	0.12	299420	keystroke	l	n/a
149.8445	0.1355	299689	keystroke	Key.space	n/a
150.655	0.12	301310	keystroke	m	n/a
150.7	0.09	301400	keystroke	e	n/a
150.865	0.09	301730	keystroke	r	n/a
151.1205	0.1195	302241	keystroke	c	n/a
151.255	0.105	302510	keystroke	h	n/a
151.435	0.12	302870	keystroke	a	n/a
151.57	0.12	303140	keystroke	n	n/a
151.705	0.09	303410	keystroke	t	n/a
151.975	0.135	303950	keystroke	s	n/a
152.095	0.135	304190	keystroke	Key.space	n/a
152.41	0.12	304820	keystroke	a	n/a
152.515	0.09	305030	keystroke	n	n/a
152.695	0.0755	305390	keystroke	n	n/a
152.875	0.105	305750	keystroke	u	n/a
153.07	0.12	306140	keystroke	a	n/a
153.175	0.075	306350	keystroke	l	n/a
153.31	0.105	306620	keystroke	l	n/a
153.4445	0.09	306889	keystroke	y	n/a
153.565	0.135	307130	keystroke	Key.enter	n/a
153.707	9.3995	307414	prompt	n/a	independent besides promotions invitation\n
154.5855	0.089	309171	keystroke	i	n/a
154.7795	0.151	309559	keystroke	n	n/a
154.9145	0.0755	309829	keystroke	d	n/a
155.1105	0.0585	310221	keystroke	e	n/a
155.635	0.119	311270	keystroke	p	n/a
155.785	0.0755	311570	keystroke	e	n/a
155.89	0.105	311780	keystroke	n	n/a
156.1	0.089	312200	keystroke	d	n/a
156.264	0.0915	312528	keystroke	e	n/a
156.37	0.0905	312740	keystroke	n	n/a
156.475	0.0755	312950	keystroke	t	n/a
156.774	0.12	313548	keystroke	Key.space	n/a
157.1945	0.0905	314389	keystroke	b	n/a
157.3455	0.0585	314691	keystroke	e	n/a
157.4955	0.1345	314991	keystroke	s	n/a
157.675	0.105	315350	keystroke	i	n/a
157.959	0.1055	315918	keystroke	d	n/a
158.139	0.1065	316278	keystroke	e	n/a
158.275	0.12	316550	keystroke	s	n/a
158.439	0.121	316878	keystroke	Key.space	n/a
159.0245	0.12	318049	keystroke	p	n/a
159.13	0.0905	318260	keystroke	r	n/a
159.235	0.075	318470	keystroke	o	n/a
159.43	0.09	318860	keystroke	m	n/a
159.6105	0.074	319221	keystroke	o	n/a
159.6995	0.075	319399	keystroke	t	n/a
159.7895	0.06	319579	keystroke	i	n/a
159.9245	0.06	319849	keystroke	o	n/a
160.075	0.0745	320150	keystroke	n	n/a
160.1795	0.12	320359	keystroke	s	n/a
160.4795	0.15	320959	keystroke	Key.space	n/a
160.8545	0.075	321709	keystroke	i	n/a
161.0345	0.105	322069	keystroke	n	n/a
161.2295	0.106	322459	keystroke	v	n/a
161.3495	0.09	322699	keystroke	i	n/a
161.9795	0.12	323959	keystroke	t	n/a
162.4295	0.106	324859	keystroke	a	n/a
162.565	0.135	325130	keystroke	t	n/a
162.64	0.0605	325280	keystroke	i	n/a
162.8045	0.105	325609	keystroke	o	n/a
162.8645	0.09	325729	keystroke	n	n/a
162.9995	0.105	325999	keystroke	Key.enter	n/a
163.112	12.5795	326224	prompt	n/a	certainly physics surgical purposes\n
163.9605	0.089	327921	keystroke	c	n/a
164.1545	0.045	328309	keystroke	e	n/a
164.2905	0.105	328581	keystroke	r	n/a
164.4845	0.09	328969	keystroke	t	n/a
165.0245	0.09	330049	keystroke	a	n/a
165.07	0.1045	330140	keystroke	i	n/a
165.265	0.075	330530	keystroke	n	n/a
165.7155	0.105	331431	keystroke	l	n/a
165.805	0.075	331610	keystroke	y	n/a
166.075	0.089	332150	keystroke	Key.space	n/a
166.2995	0.105	332599	keystroke	p	n/a
166.5245	0.06	333049	keystroke	h	n/a
166.6445	0.09	333289	keystroke	y	n/a
166.9745	0.105	333949	keystroke	s	n/a
167.0795	0.091	334159	keystroke	i	n/a
167.6045	0.091	335209	keystroke	c	n/a
167.7545	0.1355	335509	keystroke	s	n/a
167.9045	0.12	335809	keystroke	Key.space	n/a
168.2205	0.134	336441	keystroke	u	n/a
168.34	0.06	336680	keystroke	r	n/a
168.5345	0.0605	337069	keystroke	g	n/a
168.7145	0.105	337429	keystroke	i	n/a
168.834	0.105	337668	keystroke	c	n/a
168.985	0.105	337970	keystroke	a	n/a
169.09	0.1045	338180	keystroke	l	n/a
169.239	0.075	338478	keystroke	Key.space	n/a
169.39	0.09	338780	keystroke	p	n/a
169.6	0.104	339200	keystroke	u	n/a
169.7205	0.075	339441	keystroke	r	n/a
171.01	0.03	342020	keystroke	Key.backspace	n/a
171.175	0.06	342350	keystroke	Key.backspace	n/a
171.295	0.06	342590	keystroke	Key.backspace	n/a
171.415	0.06	342830	keystroke	Key.backspace	n/a
171.534	0.0605	343068	keystroke	Key.backspace	n/a
171.639	0.076	343278	keystroke	Key.backspace	n/a
171.759	0.0755	343518	keystroke	Key.backspace	n/a
171.865	0.075	343730	keystroke	Key.backspace	n/a
171.985	0.075	343970	keystroke	Key.backspace	n/a
172.105	0.12	344210	keystroke	Key.backspace	n/a
172.525	0.089	345050	keystroke	Key.backspace	n/a
172.66	0.12	345320	keystroke	s	n/a
172.794	0.106	345588	keystroke	u	n/a
172.93	0.105	345860	keystroke	r	n/a
173.23	0.1045	346460	keystroke	g	n/a
173.3195	0.1205	346639	keystroke	i	n/a
173.455	0.12	346910	keystroke	c	n/a
173.62	0.135	347240	keystroke	a	n/a
173.74	0.09	347480	keystroke	l	n/a
173.98	0.12	347960	keystroke	Key.space	n/a
174.205	0.105	348410	keystroke	p	n/a
174.43	0.12	348860	keystroke	u	n/a
174.565	0.105	349130	keystroke	r	n/a
174.775	0.135	349550	keystroke	p	n/a
174.85	0.1205	349700	keystroke	o	n/a
174.971	0.164	349942	keystroke	s	n/a
175.12	0.135	350240	keystroke	e	n/a
175.33	0.1355	350660	keystroke	s	n/a
175.57	0.1195	351140	keystroke	Key.enter	n/a
175.697	7.2695	351394	prompt	n/a	camping advocacy rope ontario\n
176.245	0.09	352490	keystroke	c	n/a
176.365	0.1355	352730	keystroke	a	n/a
176.4845	0.121	352969	keystroke	m	n/a
176.665	0.0905	353330	keystroke	p	n/a
176.905	0.1055	353810	keystroke	i	n/a
176.995	0.075	353990	keystroke	n	n/a
177.1005	0.0885	354201	keystroke	g	n/a
177.234	0.136	354468	keystroke	Key.space	n/a
177.715	0.135	355430	keystroke	a	n/a
177.97	0.074	355940	keystroke	d	n/a
178.42	0.075	356840	keystroke	v	n/a
178.6	0.09	357200	keystroke	o	n/a
179.02	0.105	358040	keystroke	c	n/a
179.2	0.1055	358400	keystroke	a	n/a
179.83	0.0455	359660	keystroke	c	n/a
179.9795	0.075	359959	keystroke	y	n/a
180.2045	0.09	360409	keystroke	Key.space	n/a
180.3845	0.075	360769	keystroke	r	n/a
180.49	0.075	360980	keystroke	o	n/a
180.6555	0.089	361311	keystroke	p	n/a
180.7295	0.121	361459	keystroke	e	n/a
180.91	0.1345	361820	keystroke	Key.space	n/a
181.45	0.075	362900	keystroke	o	n/a
181.63	0.105	363260	keystroke	n	n/a
181.75	0.09	363500	keystroke	t	n/a
181.93	0.12	363860	keystroke	a	n/a
182.44	0.075	364880	keystroke	r	n/a
182.515	0.075	365030	keystroke	i	n/a
182.695	0.075	365390	keystroke	o	n/a
182.845	0.12	365690	keystroke	Key.enter	n/a
182.97	5.7865	365940	prompt	n/a	throwing friends rogers extent\n
183.8645	0.09	367729	keystroke	t	n/a
183.97	0.1045	367940	keystroke	h	n/a
184.06	0.0895	368120	keystroke	r	n/a
184.165	0.105	368330	keystroke	o	n/a
184.2545	0.075	368509	keystroke	w	n/a
184.3745	0.12	368749	keystroke	i	n/a
184.4495	0.1205	368899	keystroke	n	n/a
184.5395	0.1055	369079	keystroke	g	n/a
184.6145	0.15	369229	keystroke	Key.space	n/a
184.8545	0.075	369709	keystroke	f	n/a
185.0045	0.1055	370009	keystroke	r	n/a
185.4705	0.119	370941	keystroke	i	n/a
185.5745	0.105	371149	keystroke	e	n/a
185.6945	0.105	371389	keystroke	n	n/a
185.7845	0.1055	371569	keystroke	d	n/a
185.9495	0.105	371899	keystroke	s	n/a
186.0995	0.12	372199	keystroke	Key.space	n/a
186.49	0.0895	372980	keystroke	r	n/a
186.595	0.105	373190	keystroke	o	n/a
186.76	0.075	373520	keystroke	g	n/a
186.954	0.046	373908	keystroke	e	n/a
187.075	0.105	374150	keystroke	r	n/a
187.1645	0.1355	374329	keystroke	s	n/a
187.27	0.119	374540	keystroke	Key.space	n/a
187.434	0.075	374868	keystroke	e	n/a
187.614	0.091	375228	keystroke	x	n/a
187.8095	0.0745	375619	keystroke	t	n/a
188.1855	0.1045	376371	keystroke	e	n/a
188.275	0.09	376550	keystroke	n	n/a
188.395	0.075	376790	keystroke	t	n/a
188.635	0.1195	377270	keystroke	Key.enter	n/a
188.7605	11.921	377521	prompt	n/a	dominant tend bull expansys\n
195.747	0.0435	391494	keystroke	d	n/a
195.8355	0.0895	391671	keystroke	o	n/a
196.0905	0.1045	392181	keystroke	m	n/a
196.42	0.105	392840	keystroke	i	n/a
196.66	0.1055	393320	keystroke	n	n/a
196.78	0.12	393560	keystroke	a	n/a
196.885	0.105	393770	keystroke	n	n/a
197.02	0.075	394040	keystroke	t	n/a
197.26	0.12	394520	keystroke	Key.space	n/a
197.7255	0.059	395451	keystroke	t	n/a
197.8905	0.09	395781	keystroke	e	n/a
197.9655	0.12	395931	keystroke	n	n/a
198.0705	0.1055	396141	keystroke	d	n/a
198.1455	0.12	396291	keystroke	Key.space	n/a
198.4145	0.075	396829	keystroke	b	n/a
198.61	0.1205	397220	keystroke	u	n/a
198.88	0.06	397760	keystroke	l	n/a
199.0305	0.09	398061	keystroke	l	n/a
199.15	0.105	398300	keystroke	Key.space	n/a
199.33	0.075	398660	keystroke	e	n/a
199.51	0.1205	399020	keystroke	x	n/a
199.615	0.105	399230	keystroke	p	n/a
199.7355	0.1345	399471	keystroke	a	n/a
199.855	0.0755	399710	keystroke	n	n/a
199.99	0.105	399980	keystroke	s	n/a
200.245	0.06	400490	keystroke	y	n/a
200.425	0.0905	400850	keystroke	s	n/a
200.56	0.12	401120	keystroke	Key.enter	n/a
200.686	5.321	401372	prompt	n/a	eternal doll enemy agent\n
201.4755	0.104	402951	keystroke	e	n/a
202.0455	0.105	404091	keystroke	t	n/a
202.3595	0.09	404719	keystroke	e	n/a
202.5095	0.1055	405019	keystroke	r	n/a
202.6755	0.1045	405351	keystroke	n	n/a
202.7655	0.119	405531	keystroke	a	n/a
202.8705	0.134	405741	keystroke	l	n/a
203.0495	0.075	406099	keystroke	Key.space	n/a
203.11	0.165	406220	keystroke	d	n/a
203.32	0.105	406640	keystroke	o	n/a
203.59	0.06	407180	keystroke	l	n/a
203.74	0.1205	407480	keystroke	l	n/a
203.8605	0.1195	407721	keystroke	Key.space	n/a
204.085	0.075	408170	keystroke	e	n/a
204.19	0.09	408380	keystroke	n	n/a
204.31	0.09	408620	keystroke	e	n/a
204.55	0.135	409100	keystroke	m	n/a
204.7	0.0605	409400	keystroke	y	n/a
204.835	0.12	409670	keystroke	Key.space	n/a
205.24	0.105	410480	keystroke	a	n/a
205.4195	0.06	410839	keystroke	g	n/a
205.585	0.075	411170	keystroke	e	n/a
205.6745	0.091	411349	keystroke	n	n/a
205.7795	0.076	411559	keystroke	t	n/a
205.87	0.1345	411740	keystroke	Key.enter	n/a
206.0115	14.3955	412023	prompt	n/a	focus disclaimers fundamentals atmosphere\n
206.8155	0.059	413631	keystroke	f	n/a
206.935	0.1055	413870	keystroke	o	n/a
207.1755	0.075	414351	keystroke	c	n/a
207.3105	0.0895	414621	keystroke	u	n/a
207.475	0.105	414950	keystroke	s	n/a
207.565	0.105	415130	keystroke	Key.space	n/a
207.88	0.0755	415760	keystroke	d	n/a
207.9855	0.105	415971	keystroke	i	n/a
208.0905	0.1045	416181	keystroke	s	n/a
208.435	0.1055	416870	keystroke	c	n/a
208.675	0.15	417350	keystroke	l	n/a
208.8105	0.1195	417621	keystroke	a	n/a
209.56	0.1205	419120	keystroke	m	n/a
209.785	0.105	419570	keystroke	i	n/a
209.92	0.09	419840	keystroke	e	n/a
210.1	0.105	420200	keystroke	r	n/a
210.505	0.105	421010	keystroke	s	n/a
210.58	0.135	421160	keystroke	Key.space	n/a
211.84	0.075	423680	keystroke	Key.backspace	n/a
211.99	0.075	423980	keystroke	Key.backspace	n/a
212.14	0.06	424280	keystroke	Key.backspace	n/a
212.275	0.105	424550	keystroke	Key.backspace	n/a
213.655	0.03	427310	keystroke	Key.backspace	n/a
213.775	0.0445	427550	keystroke	Key.backspace	n/a
213.8945	0.0755	427789	keystroke	Key.backspace	n/a
214.4945	0.1505	428989	keystroke	a	n/a
214.57	0.0895	429140	keystroke	i	n/a
215.0045	0.09	430009	keystroke	m	n/a
215.0345	0.09	430069	keystroke	e	n/a
215.2	0.12	430400	keystroke	r	n/a
215.3055	0.1195	430611	keystroke	s	n/a
215.395	0.1205	430790	keystroke	Key.space	n/a
215.59	0.105	431180	keystroke	f	n/a
215.68	0.09	431360	keystroke	u	n/a
215.86	0.12	431720	keystroke	n	n/a
215.995	0.15	431990	keystroke	d	n/a
216.265	0.12	432530	keystroke	a	n/a
216.415	0.12	432830	keystroke	m	n/a
216.5505	0.104	433101	keystroke	e	n/a
216.7005	0.12	433401	keystroke	n	n/a
216.8505	0.09	433701	keystroke	t	n/a
216.9855	0.12	433971	keystroke	a	n/a
217.0895	0.121	434179	keystroke	l	n/a
217.1955	0.135	434391	keystroke	s	n/a
217.3455	0.134	434691	keystroke	Key.space	n/a
217.5855	0.12	435171	keystroke	a	n/a
217.7205	0.09	435441	keystroke	t	n/a
217.9305	0.119	435861	keystroke	m	n/a
218.0655	0.149	436131	keystroke	o	n/a
218.3655	0.105	436731	keystroke	s	n/a
218.7105	0.105	437421	keystroke	p	n/a
218.9955	0.075	437991	keystroke	h	n/a
219.7295	0.106	439459	keystroke	e	n/a
219.9405	0.06	439881	keystroke	r	n/a
220.0895	0.0755	440179	keystroke	e	n/a
220.2845	0.12	440569	keystroke	Key.enter	n/a
220.4115	5.695	440823	prompt	n/a	vehicle align shaped somalia\n
221.0355	0.075	442071	keystroke	v	n/a
221.23	0.09	442460	keystroke	e	n/a
221.6655	0.075	443331	keystroke	h	n/a
221.8155	0.12	443631	keystroke	i	n/a
221.9505	0.104	443901	keystroke	c	n/a
222.1905	0.105	444381	keystroke	l	n/a
222.2795	0.121	444559	keystroke	e	n/a
222.3705	0.1345	444741	keystroke	Key.space	n/a
222.6095	0.121	445219	keystroke	a	n/a
222.8045	0.106	445609	keystroke	l	n/a
222.9855	0.119	445971	keystroke	i	n/a
223.1205	0.09	446241	keystroke	g	n/a
223.2255	0.12	446451	keystroke	n	n/a
223.405	0.1205	446810	keystroke	Key.space	n/a
223.7505	0.15	447501	keystroke	s	n/a
223.8695	0.106	447739	keystroke	h	n/a
223.9605	0.105	447921	keystroke	a	n/a
224.0795	0.121	448159	keystroke	p	n/a
224.2595	0.061	448519	keystroke	e	n/a
224.4255	0.105	448851	keystroke	d	n/a
224.4845	0.135	448969	keystroke	Key.space	n/a
224.92	0.12	449840	keystroke	s	n/a
225.085	0.1205	450170	keystroke	o	n/a
225.31	0.1055	450620	keystroke	m	n/a
225.4755	0.1045	450951	keystroke	a	n/a
225.6105	0.0745	451221	keystroke	l	n/a
225.775	0.09	451550	keystroke	i	n/a
225.88	0.1355	451760	keystroke	a	n/a
226	0.105	452000	keystroke	Key.enter	n/a
226.1105	5.8015	452221	prompt	n/a	fighter outer employees speaker\n
226.8405	0.12	453681	keystroke	f	n/a
226.9755	0.1195	453951	keystroke	i	n/a
227.0655	0.1045	454131	keystroke	g	n/a
227.185	0.1205	454370	keystroke	h	n/a
227.5905	0.0745	455181	keystroke	t	n/a
227.77	0.06	455540	keystroke	e	n/a
227.92	0.105	455840	keystroke	r	n/a
227.98	0.135	455960	keystroke	Key.space	n/a
228.22	0.075	456440	keystroke	o	n/a
228.415	0.106	456830	keystroke	u	n/a
228.5055	0.0595	457011	keystroke	t	n/a
228.7	0.06	457400	keystroke	e	n/a
228.8655	0.12	457731	keystroke	r	n/a
228.955	0.12	457910	keystroke	Key.space	n/a
229.15	0.12	458300	keystroke	e	n/a
229.24	0.105	458480	keystroke	m	n/a
229.39	0.0755	458780	keystroke	p	n/a
229.645	0.15	459290	keystroke	l	n/a
229.81	0.12	459620	keystroke	o	n/a
229.96	0.075	459920	keystroke	y	n/a
230.4545	0.0605	460909	keystroke	e	n/a
230.5905	0.089	461181	keystroke	e	n/a
230.7255	0.15	461451	keystroke	s	n/a
230.8295	0.1055	461659	keystroke	Key.space	n/a
230.9945	0.0905	461989	keystroke	s	n/a
231.0995	0.12	462199	keystroke	p	n/a
231.16	0.12	462320	keystroke	e	n/a
231.265	0.1345	462530	keystroke	a	n/a
231.3845	0.1055	462769	keystroke	k	n/a
231.535	0.075	463070	keystroke	e	n/a
231.6695	0.121	463339	keystroke	r	n/a
231.7745	0.135	463549	keystroke	Key.enter	n/a
231.9165	10.4955	463833	prompt	n/a	reservation alliance monaco reflection\n
232.5845	0.061	465169	keystroke	r	n/a
232.7355	0.09	465471	keystroke	e	n/a
232.8845	0.165	465769	keystroke	s	n/a
232.9755	0.105	465951	keystroke	e	n/a
233.1705	0.06	466341	keystroke	r	n/a
233.5155	0.075	467031	keystroke	v	n/a
233.6655	0.1045	467331	keystroke	a	n/a
233.785	0.135	467570	keystroke	t	n/a
233.89	0.06	467780	keystroke	i	n/a
234.04	0.0755	468080	keystroke	o	n/a
234.175	0.12	468350	keystroke	n	n/a
234.28	0.105	468560	keystroke	Key.space	n/a
234.505	0.12	469010	keystroke	a	n/a
234.6105	0.0595	469221	keystroke	l	n/a
234.745	0.075	469490	keystroke	l	n/a
234.865	0.12	469730	keystroke	i	n/a
234.955	0.15	469910	keystroke	a	n/a
235.075	0.12	470150	keystroke	n	n/a
235.18	0.075	470360	keystroke	c	n/a
235.345	0.1205	470690	keystroke	e	n/a
235.45	0.12	470900	keystroke	Key.space	n/a
235.78	0.105	471560	keystroke	m	n/a
235.915	0.0755	471830	keystroke	o	n/a
236.065	0.12	472130	keystroke	n	n/a
236.2	0.09	472400	keystroke	a	n/a
236.5155	0.09	473031	keystroke	c	n/a
236.6055	0.075	473211	keystroke	o	n/a
236.995	0.12	473990	keystroke	Key.space	n/a
239.262	0.013	478524	keystroke	f	n/a
239.425	0.12	478850	keystroke	e	n/a
239.98	0.09	479960	keystroke	Key.backspace	n/a
240.28	0.09	480560	keystroke	Key.backspace	n/a
240.385	0.12	480770	keystroke	r	n/a
240.67	0.09	481340	keystroke	e	n/a
240.925	0.12	481850	keystroke	l	n/a
241.06	0.045	482120	keystroke	f	n/a
241.18	0.0755	482360	keystroke	e	n/a
241.375	0.06	482750	keystroke	c	n/a
241.57	0.1355	483140	keystroke	t	n/a
241.645	0.075	483290	keystroke	i	n/a
241.84	0.105	483680	keystroke	o	n/a
242.035	0.075	484070	keystroke	n	n/a
242.29	0.12	484580	keystroke	Key.enter	n/a
242.4165	9.6855	484833	prompt	n/a	rebel precisely delivering words\n
243.1005	0.06	486201	keystroke	r	n/a
243.2345	0.1055	486469	keystroke	e	n/a
243.3695	0.091	486739	keystroke	b	n/a
243.5045	0.1355	487009	keystroke	e	n/a
243.6255	0.135	487251	keystroke	l	n/a
243.7745	0.075	487549	keystroke	Key.space	n/a
243.9245	0.136	487849	keystroke	p	n/a
244.015	0.0605	488030	keystroke	r	n/a
244.165	0.075	488330	keystroke	e	n/a
245.3195	0.15	490639	keystroke	c	n/a
245.4545	0.0605	490909	keystroke	i	n/a
245.5445	0.106	491089	keystroke	s	n/a
247.1795	0.091	494359	keystroke	e	n/a
248.8	0.09	497600	keystroke	l	n/a
248.845	0.0755	497690	keystroke	y	n/a
249.3545	0.09	498709	keystroke	Key.space	n/a
249.7595	0.045	499519	keystroke	d	n/a
249.8655	0.105	499731	keystroke	e	n/a
250.0145	0.165	500029	keystroke	l	n/a
250.1495	0.121	500299	keystroke	i	n/a
250.2545	0.075	500509	keystroke	v	n/a
250.4345	0.09	500869	keystroke	e	n/a
250.5995	0.0905	501199	keystroke	r	n/a
250.691	0.104	501382	keystroke	i	n/a
250.765	0.105	501530	keystroke	n	n/a
250.855	0.09	501710	keystroke	g	n/a
251.095	0.12	502190	keystroke	Key.space	n/a
251.305	0.09	502610	keystroke	w	n/a
251.41	0.105	502820	keystroke	o	n/a
251.5	0.075	503000	keystroke	r	n/a
251.695	0.105	503390	keystroke	d	n/a
251.83	0.12	503660	keystroke	s	n/a
251.965	0.1355	503930	keystroke	Key.enter	n/a
252.107	8.1395	504214	prompt	n/a	korea fake promotions call\n
252.9405	0.045	505881	keystroke	k	n/a
253.0755	0.1045	506151	keystroke	o	n/a
253.1505	0.0595	506301	keystroke	r	n/a
253.33	0.1045	506660	keystroke	e	n/a
253.4195	0.091	506839	keystroke	a	n/a
253.9145	0.105	507829	keystroke	Key.space	n/a
256.1515	0.043	512303	keystroke	f	n/a
256.48	0.1045	512960	keystroke	a	n/a
256.5695	0.09	513139	keystroke	k	n/a
256.6745	0.0905	513349	keystroke	e	n/a
256.8995	0.12	513799	keystroke	Key.space	n/a
257.4855	0.1045	514971	keystroke	p	n/a
257.5605	0.0745	515121	keystroke	r	n/a
257.68	0.0895	515360	keystroke	o	n/a
257.9195	0.106	515839	keystroke	m	n/a
258.055	0.1195	516110	keystroke	o	n/a
258.205	0.0895	516410	keystroke	t	n/a
258.31	0.045	516620	keystroke	i	n/a
258.43	0.075	516860	keystroke	o	n/a
258.565	0.1205	517130	keystroke	n	n/a
258.6405	0.1645	517281	keystroke	s	n/a
258.97	0.12	517940	keystroke	Key.space	n/a
259.5105	0.0745	519021	keystroke	c	n/a
259.615	0.12	519230	keystroke	a	n/a
259.7055	0.0745	519411	keystroke	l	n/a
259.855	0.09	519710	keystroke	l	n/a
260.11	0.1345	520220	keystroke	Key.enter	n/a
260.2535	8.0635	520507	prompt	n/a	dealing permit societies welfare\n
261.0105	0.075	522021	keystroke	d	n/a
261.1755	0.105	522351	keystroke	e	n/a
261.3255	0.105	522651	keystroke	a	n/a
261.4455	0.089	522891	keystroke	l	n/a
261.655	0.06	523310	keystroke	i	n/a
261.8055	0.119	523611	keystroke	n	n/a
261.865	0.1195	523730	keystroke	g	n/a
261.955	0.1195	523910	keystroke	Key.space	n/a
262.0895	0.12	524179	keystroke	p	n/a
262.18	0.075	524360	keystroke	e	n/a
262.3295	0.09	524659	keystroke	r	n/a
262.4205	0.135	524841	keystroke	m	n/a
262.6145	0.135	525229	keystroke	i	n/a
262.7345	0.0755	525469	keystroke	t	n/a
262.9745	0.105	525949	keystroke	Key.space	n/a
263.29	0.105	526580	keystroke	s	n/a
263.44	0.09	526880	keystroke	o	n/a
263.59	0.1205	527180	keystroke	c	n/a
263.785	0.09	527570	keystroke	i	n/a
265.2855	0.0295	530571	keystroke	e	n/a
265.48	0.09	530960	keystroke	t	n/a
265.5855	0.1045	531171	keystroke	i	n/a
265.705	0.105	531410	keystroke	e	n/a
265.84	0.1355	531680	keystroke	s	n/a
265.99	0.1205	531980	keystroke	Key.space	n/a
266.44	0.105	532880	keystroke	w	n/a
266.56	0.12	533120	keystroke	e	n/a
266.7105	0.1345	533421	keystroke	l	n/a
266.845	0.105	533690	keystroke	f	n/a
267.025	0.12	534050	keystroke	a	n/a
267.16	0.075	534320	keystroke	r	n/a
267.9405	0.104	535881	keystroke	e	n/a
268.1645	0.1505	536329	keystroke	Key.enter	n/a
268.321	7.8715	536642	prompt	n/a	recently keyboard pleasant wilderness\n
268.9605	0.0595	537921	keystroke	r	n/a
269.1255	0.06	538251	keystroke	e	n/a
269.3505	0.105	538701	keystroke	c	n/a
269.635	0.105	539270	keystroke	e	n/a
269.8305	0.1045	539661	keystroke	n	n/a
269.995	0.0905	539990	keystroke	t	n/a
270.115	0.12	540230	keystroke	l	n/a
270.265	0.075	540530	keystroke	y	n/a
270.505	0.12	541010	keystroke	Key.space	n/a
271.0005	0.1195	542001	keystroke	k	n/a
271.0755	0.0895	542151	keystroke	e	n/a
271.39	0.105	542780	keystroke	y	n/a
271.6605	0.0595	543321	keystroke	b	n/a
271.825	0.105	543650	keystroke	o	n/a
271.9305	0.1495	543861	keystroke	a	n/a
272.0505	0.0745	544101	keystroke	r	n/a
272.23	0.105	544460	keystroke	d	n/a
272.32	0.09	544640	keystroke	Key.space	n/a
272.515	0.105	545030	keystroke	p	n/a
272.77	0.0905	545540	keystroke	l	n/a
273.01	0.1045	546020	keystroke	e	n/a
273.6555	0.105	547311	keystroke	a	n/a
273.7605	0.105	547521	keystroke	s	n/a
273.8955	0.09	547791	keystroke	a	n/a
274.0295	0.091	548059	keystroke	n	n/a
274.1355	0.105	548271	keystroke	t	n/a
274.2545	0.106	548509	keystroke	Key.space	n/a
274.5995	0.046	549199	keystroke	w	n/a
274.6455	0.105	549291	keystroke	i	n/a
274.871	0.0895	549742	keystroke	l	n/a
275.0045	0.076	550009	keystroke	d	n/a
275.1705	0.075	550341	keystroke	e	n/a
275.3495	0.106	550699	keystroke	r	n/a
275.4995	0.106	550999	keystroke	n	n/a
275.6205	0.104	551241	keystroke	e	n/a
275.771	0.0585	551542	keystroke	s	n/a
275.9205	0.0895	551841	keystroke	s	n/a
276.085	0.1055	552170	keystroke	Key.enter	n/a
276.197	6.6245	552394	prompt	n/a	rare chosen requirement christmas\n
276.9245	0.106	553849	keystroke	r	n/a
277.0745	0.121	554149	keystroke	a	n/a
277.1795	0.0915	554359	keystroke	r	n/a
277.3905	0.1045	554781	keystroke	e	n/a
277.48	0.1505	554960	keystroke	Key.space	n/a
277.7955	0.12	555591	keystroke	c	n/a
277.9155	0.09	555831	keystroke	h	n/a
278.125	0.09	556250	keystroke	o	n/a
278.2605	0.1345	556521	keystroke	s	n/a
278.35	0.12	556700	keystroke	e	n/a
278.62	0.1055	557240	keystroke	n	n/a
278.815	0.0905	557630	keystroke	Key.space	n/a
279.1	0.045	558200	keystroke	r	n/a
279.295	0.06	558590	keystroke	e	n/a
279.445	0.0905	558890	keystroke	q	n/a
279.536	0.0745	559072	keystroke	u	n/a
279.7	0.12	559400	keystroke	i	n/a
279.805	0.0305	559610	keystroke	r	n/a
279.955	0.0755	559910	keystroke	e	n/a
280.06	0.0755	560120	keystroke	m	n/a
280.24	0.105	560480	keystroke	e	n/a
280.315	0.1205	560630	keystroke	n	n/a
280.4655	0.09	560931	keystroke	t	n/a
280.585	0.135	561170	keystroke	Key.space	n/a
280.915	0.105	561830	keystroke	c	n/a
281.05	0.075	562100	keystroke	h	n/a
281.545	0.12	563090	keystroke	r	n/a
281.6805	0.1045	563361	keystroke	i	n/a
281.89	0.1205	563780	keystroke	s	n/a
282.055	0.0905	564110	keystroke	t	n/a
282.265	0.105	564530	keystroke	m	n/a
282.355	0.135	564710	keystroke	a	n/a
282.475	0.1355	564950	keystroke	s	n/a
282.67	0.15	565340	keystroke	Key.enter	n/a
282.8255	5.906	565651	prompt	n/a	spyware sponsor fine alert\n
283.66	0.09	567320	keystroke	s	n/a
283.795	0.12	567590	keystroke	p	n/a
283.945	0.045	567890	keystroke	y	n/a
284.44	0.0155	568880	keystroke	w	n/a
284.485	0.105	568970	keystroke	a	n/a
284.575	0.075	569150	keystroke	r	n/a
284.8	0.075	569600	keystroke	e	n/a
284.9055	0.1195	569811	keystroke	Key.space	n/a
285.1305	0.0895	570261	keystroke	s	n/a
285.251	0.089	570502	keystroke	p	n/a
285.4155	0.06	570831	keystroke	o	n/a
285.5805	0.089	571161	keystroke	n	n/a
285.6995	0.151	571399	keystroke	s	n/a
285.8055	0.089	571611	keystroke	o	n/a
286.0745	0.121	572149	keystroke	r	n/a
286.2395	0.12	572479	keystroke	Key.space	n/a
286.5405	0.105	573081	keystroke	f	n/a
286.6305	0.09	573261	keystroke	i	n/a
286.8105	0.105	573621	keystroke	n	n/a
286.93	0.12	573860	keystroke	e	n/a
287.0195	0.1205	574039	keystroke	Key.space	n/a
287.2145	0.106	574429	keystroke	l	n/a
287.8745	0.06	575749	keystroke	Key.backspace	n/a
287.905	0.1505	575810	keystroke	a	n/a
288.0855	0.12	576171	keystroke	l	n/a
288.1895	0.076	576379	keystroke	e	n/a
288.355	0.0755	576710	keystroke	r	n/a
288.5205	0.0895	577041	keystroke	t	n/a
288.6245	0.105	577249	keystroke	Key.enter	n/a
288.736	6.281	577472	prompt	n/a	buy howto structure shadows\n
289.5705	0.014	579141	keystroke	b	n/a
289.6605	0.104	579321	keystroke	u	n/a
289.7655	0.09	579531	keystroke	y	n/a
289.9145	0.0905	579829	keystroke	Key.space	n/a
290.2745	0.0755	580549	keystroke	h	n/a
290.3645	0.1205	580729	keystroke	o	n/a
290.4395	0.076	580879	keystroke	w	n/a
290.575	0.105	581150	keystroke	t	n/a
290.6495	0.121	581299	keystroke	o	n/a
290.8145	0.075	581629	keystroke	Key.space	n/a
290.905	0.1205	581810	keystroke	s	n/a
291.0395	0.0455	582079	keystroke	t	n/a
291.1745	0.105	582349	keystroke	r	n/a
291.2805	0.089	582561	keystroke	u	n/a
291.385	0.0895	582770	keystroke	c	n/a
291.61	0.09	583220	keystroke	t	n/a
291.73	0.1055	583460	keystroke	u	n/a
291.85	0.09	583700	keystroke	r	n/a
292.03	0.075	584060	keystroke	e	n/a
292.6745	0.135	585349	keystroke	Key.space	n/a
292.9445	0.105	585889	keystroke	s	n/a
293.035	0.0905	586070	keystroke	h	n/a
293.2445	0.1205	586489	keystroke	a	n/a
293.7105	0.1045	587421	keystroke	o	n/a
293.8005	0.0895	587601	keystroke	w	n/a
294.175	0.09	588350	keystroke	Key.backspace	n/a
294.325	0.075	588650	keystroke	Key.backspace	n/a
294.415	0.09	588830	keystroke	d	n/a
294.55	0.075	589100	keystroke	o	n/a
294.64	0.06	589280	keystroke	w	n/a
294.835	0.0755	589670	keystroke	s	n/a
294.895	0.12	589790	keystroke	Key.enter	n/a
295.021	4.6165	590042	prompt	n/a	enable vocal heat toner\n
295.96	0.0895	591920	keystroke	e	n/a
296.035	0.12	592070	keystroke	n	n/a
296.305	0.075	592610	keystroke	a	n/a
296.3645	0.09	592729	keystroke	b	n/a
296.4255	0.1345	592851	keystroke	l	n/a
296.575	0.0905	593150	keystroke	e	n/a
296.65	0.135	593300	keystroke	Key.space	n/a
297.16	0.0895	594320	keystroke	v	n/a
297.31	0.1055	594620	keystroke	o	n/a
297.43	0.1205	594860	keystroke	c	n/a
297.61	0.105	595220	keystroke	a	n/a
297.7155	0.104	595431	keystroke	l	n/a
297.985	0.0895	595970	keystroke	Key.space	n/a
298.2705	0.0895	596541	keystroke	h	n/a
298.3455	0.134	596691	keystroke	e	n/a
298.4345	0.151	596869	keystroke	a	n/a
298.6145	0.136	597229	keystroke	t	n/a
298.7795	0.106	597559	keystroke	Key.space	n/a
298.9745	0.075	597949	keystroke	t	n/a
299.035	0.0755	598070	keystroke	o	n/a
299.2155	0.0895	598431	keystroke	n	n/a
299.26	0.09	598520	keystroke	e	n/a
299.44	0.135	598880	keystroke	r	n/a
299.53	0.105	599060	keystroke	Key.enter	n/a
299.6415	11.321	599283	prompt	n/a	switzerland november paste saturn\n
300.3705	0.15	600741	keystroke	s	n/a
301.4045	0.121	602809	keystroke	w	n/a
301.5105	0.105	603021	keystroke	i	n/a
301.7205	0.09	603441	keystroke	t	n/a
302.29	0.12	604580	keystroke	z	n/a
302.395	0.09	604790	keystroke	e	n/a
302.56	0.105	605120	keystroke	r	n/a
302.695	0.12	605390	keystroke	l	n/a
302.785	0.135	605570	keystroke	a	n/a
302.9055	0.0745	605811	keystroke	n	n/a
302.995	0.12	605990	keystroke	d	n/a
303.34	0.075	606680	keystroke	Key.space	n/a
303.5055	0.0595	607011	keystroke	n	n/a
303.67	0.075	607340	keystroke	o	n/a
303.8655	0.074	607731	keystroke	v	n/a
304.1205	0.1045	608241	keystroke	e	n/a
304.2695	0.12	608539	keystroke	m	n/a
304.7645	0.0905	609529	keystroke	b	n/a
304.8845	0.0905	609769	keystroke	e	n/a
305.065	0.165	610130	keystroke	r	n/a
305.3955	0.119	610791	keystroke	Key.space	n/a
305.6205	0.12	611241	keystroke	p	n/a
305.7245	0.105	611449	keystroke	a	n/a
305.8	0.1205	611600	keystroke	s	n/a
305.9505	0.104	611901	keystroke	t	n/a
306.1605	0.075	612321	keystroke	e	n/a
309.852	0.043	619704	keystroke	Key.space	n/a
310.06	0.1195	620120	keystroke	s	n/a
310.1645	0.106	620329	keystroke	a	n/a
310.3295	0.09	620659	keystroke	t	n/a
310.435	0.1045	620870	keystroke	u	n/a
310.525	0.12	621050	keystroke	r	n/a
310.63	0.09	621260	keystroke	n	n/a
310.84	0.12	621680	keystroke	Key.enter	n/a
310.9665	6.4305	621933	prompt	n/a	buyer boss hypothesis reflect\n
311.5595	0.075	623119	keystroke	b	n/a
311.725	0.1045	623450	keystroke	u	n/a
311.8445	0.075	623689	keystroke	y	n/a
312.0395	0.06	624079	keystroke	e	n/a
312.1895	0.1205	624379	keystroke	r	n/a
312.2795	0.135	624559	keystroke	Key.space	n/a
312.5195	0.076	625039	keystroke	b	n/a
312.7295	0.1055	625459	keystroke	o	n/a
312.85	0.075	625700	keystroke	s	n/a
312.9845	0.1505	625969	keystroke	s	n/a
313.1195	0.09	626239	keystroke	Key.space	n/a
314.0055	0.105	628011	keystroke	h	n/a
314.1545	0.106	628309	keystroke	y	n/a
314.4405	0.0895	628881	keystroke	p	n/a
314.5755	0.135	629151	keystroke	o	n/a
314.7245	0.105	629449	keystroke	t	n/a
314.8455	0.105	629691	keystroke	h	n/a
314.9655	0.105	629931	keystroke	e	n/a
315.205	0.12	630410	keystroke	s	n/a
315.31	0.12	630620	keystroke	i	n/a
315.4455	0.1645	630891	keystroke	s	n/a
315.58	0.105	631160	keystroke	Key.space	n/a
315.73	0.075	631460	keystroke	r	n/a
315.8955	0.0445	631791	keystroke	e	n/a
316.0895	0.105	632179	keystroke	f	n/a
316.2245	0.12	632449	keystroke	l	n/a
316.72	0.0895	633440	keystroke	e	n/a
316.9455	0.059	633891	keystroke	c	n/a
317.1545	0.075	634309	keystroke	t	n/a
317.275	0.1195	634550	keystroke	Key.enter	n/a
317.402	6.9695	634804	prompt	n/a	carmen licensed junk antenna\n
318.0105	0.12	636021	keystroke	c	n/a
318.1755	0.1345	636351	keystroke	a	n/a
318.8055	0.105	637611	keystroke	r	n/a
319.0605	0.135	638121	keystroke	m	n/a
319.2105	0.075	638421	keystroke	e	n/a
319.3605	0.119	638721	keystroke	n	n/a
319.9445	0.075	639889	keystroke	Key.space	n/a
320.245	0.0905	640490	keystroke	l	n/a
320.4105	0.1195	640821	keystroke	i	n/a
320.5	0.105	641000	keystroke	c	n/a
321.085	0.09	642170	keystroke	e	n/a
321.205	0.12	642410	keystroke	n	n/a
321.5205	0.1345	643041	keystroke	s	n/a
321.61	0.09	643220	keystroke	e	n/a
321.8195	0.1055	643639	keystroke	d	n/a
321.8795	0.12	643759	keystroke	Key.space	n/a
322.075	0.0895	644150	keystroke	j	n/a
322.2395	0.105	644479	keystroke	u	n/a
322.4345	0.106	644869	keystroke	n	n/a
322.4945	0.136	644989	keystroke	k	n/a
322.6895	0.12	645379	keystroke	Key.space	n/a
322.9595	0.105	645919	keystroke	a	n/a
323.0505	0.1045	646101	keystroke	n	n/a
323.17	0.09	646340	keystroke	t	n/a
323.44	0.09	646880	keystroke	e	n/a
323.875	0.06	647750	keystroke	n	n/a
324.025	0.075	648050	keystroke	n	n/a
324.1155	0.0895	648231	keystroke	a	n/a
324.235	0.135	648470	keystroke	Key.enter	n/a
324.376	8.3965	648752	prompt	n/a	alternatively civilian what've thirty\n
325.091	0.119	650182	keystroke	a	n/a
325.3605	0.119	650721	keystroke	l	n/a
325.8545	0.091	651709	keystroke	t	n/a
326.0495	0.075	652099	keystroke	e	n/a
326.1995	0.091	652399	keystroke	r	n/a
326.4105	0.089	652821	keystroke	n	n/a
326.5155	0.09	653031	keystroke	a	n/a
326.6505	0.105	653301	keystroke	t	n/a
326.7855	0.105	653571	keystroke	i	n/a
326.9195	0.12	653839	keystroke	v	n/a
327.1445	0.1355	654289	keystroke	e	n/a
327.31	0.12	654620	keystroke	l	n/a
327.46	0.12	654920	keystroke	y	n/a
327.67	0.09	655340	keystroke	Key.space	n/a
327.865	0.12	655730	keystroke	c	n/a
328.24	0.1045	656480	keystroke	i	n/a
328.4805	0.089	656961	keystroke	v	n/a
328.7055	0.104	657411	keystroke	i	n/a
329.2595	0.076	658519	keystroke	l	n/a
329.4245	0.105	658849	keystroke	i	n/a
329.5	0.1055	659000	keystroke	a	n/a
329.6355	0.089	659271	keystroke	n	n/a
329.7855	0.0895	659571	keystroke	Key.space	n/a
329.98	0.0745	659960	keystroke	w	n/a
330.07	0.105	660140	keystroke	h	n/a
330.1455	0.09	660291	keystroke	a	n/a
330.2495	0.1205	660499	keystroke	t	n/a
330.3995	0.0905	660799	keystroke	'	n/a
330.565	0.075	661130	keystroke	v	n/a
330.76	0.1205	661520	keystroke	e	n/a
330.865	0.089	661730	keystroke	Key.space	n/a
331.1055	0.074	662211	keystroke	t	n/a
331.21	0.09	662420	keystroke	h	n/a
331.36	0.105	662720	keystroke	i	n/a
331.465	0.09	662930	keystroke	r	n/a
332.02	0.0755	664040	keystroke	t	n/a
332.275	0.09	664550	keystroke	y	n/a
332.635	0.136	665270	keystroke	Key.enter	n/a
332.7765	8.5905	665553	prompt	n/a	swim reproduction bedford modeling\n
333.49	0.045	666980	keystroke	s	n/a
333.64	0.105	667280	keystroke	w	n/a
333.73	0.09	667460	keystroke	i	n/a
333.94	0.12	667880	keystroke	m	n/a
334.075	0.09	668150	keystroke	Key.space	n/a
334.345	0.045	668690	keystroke	r	n/a
334.4955	0.0895	668991	keystroke	e	n/a
334.585	0.1205	669170	keystroke	p	n/a
335.065	0.1045	670130	keystroke	r	n/a
335.379	0.0755	670758	keystroke	o	n/a
335.6805	0.1045	671361	keystroke	d	n/a
335.7995	0.061	671599	keystroke	u	n/a
335.905	0.09	671810	keystroke	c	n/a
336.22	0.09	672440	keystroke	t	n/a
336.2945	0.075	672589	keystroke	i	n/a
336.4905	0.059	672981	keystroke	o	n/a
336.775	0.105	673550	keystroke	n	n/a
337.015	0.135	674030	keystroke	Key.space	n/a
337.765	0.09	675530	keystroke	b	n/a
337.87	0.075	675740	keystroke	e	n/a
338.05	0.075	676100	keystroke	d	n/a
338.3195	0.106	676639	keystroke	f	n/a
338.4095	0.0905	676819	keystroke	o	n/a
338.5305	0.0745	677061	keystroke	r	n/a
338.7095	0.136	677419	keystroke	d	n/a
338.875	0.1195	677750	keystroke	Key.space	n/a
339.925	0.075	679850	keystroke	m	n/a
340.075	0.15	680150	keystroke	o	n/a
340.24	0.0755	680480	keystroke	d	n/a
340.39	0.12	680780	keystroke	e	n/a
340.495	0.105	680990	keystroke	l	n/a
340.66	0.135	681320	keystroke	i	n/a
340.735	0.135	681470	keystroke	n	n/a
340.855	0.09	681710	keystroke	g	n/a
341.245	0.12	682490	keystroke	Key.enter	n/a
341.375	7.1625	682750	prompt	n/a	mike services knitting drainage\n
342.04	0.09	684080	keystroke	m	n/a
342.205	0.0755	684410	keystroke	i	n/a
342.385	0.12	684770	keystroke	k	n/a
342.475	0.135	684950	keystroke	e	n/a
342.64	0.105	685280	keystroke	Key.space	n/a
342.775	0.15	685550	keystroke	s	n/a
342.85	0.105	685700	keystroke	e	n/a
343.045	0.09	686090	keystroke	r	n/a
343.3445	0.105	686689	keystroke	v	n/a
343.5555	0.09	687111	keystroke	i	n/a
343.6745	0.091	687349	keystroke	c	n/a
343.8845	0.09	687769	keystroke	e	n/a
344.0195	0.121	688039	keystroke	s	n/a
344.1545	0.135	688309	keystroke	Key.space	n/a
344.4995	0.12	688999	keystroke	k	n/a
344.725	0.12	689450	keystroke	n	n/a
345.295	0.1045	690590	keystroke	i	n/a
345.4445	0.09	690889	keystroke	t	n/a
345.6105	0.12	691221	keystroke	t	n/a
345.7445	0.12	691489	keystroke	i	n/a
345.82	0.0905	691640	keystroke	n	n/a
345.9555	0.105	691911	keystroke	g	n/a
346.0605	0.15	692121	keystroke	Key.space	n/a
346.5855	0.09	693171	keystroke	d	n/a
346.7495	0.106	693499	keystroke	r	n/a
346.8855	0.135	693771	keystroke	a	n/a
346.9905	0.12	693981	keystroke	i	n/a
347.0955	0.105	694191	keystroke	n	n/a
347.545	0.075	695090	keystroke	g	n/a
348.04	0.09	696080	keystroke	Key.backspace	n/a
348.0705	0.0745	696141	keystroke	a	n/a
348.19	0.06	696380	keystroke	g	n/a
348.355	0.09	696710	keystroke	e	n/a
348.415	0.12	696830	keystroke	Key.enter	n/a
348.542	14.1405	697084	prompt	n/a	childrens logic phrases maritime\n
349.3905	0.104	698781	keystroke	c	n/a
349.4495	0.106	698899	keystroke	h	n/a
349.5105	0.09	699021	keystroke	i	n/a
349.7055	0.12	699411	keystroke	l	n/a
349.8105	0.09	699621	keystroke	d	n/a
349.991	0.0595	699982	keystroke	r	n/a
350.1245	0.106	700249	keystroke	e	n/a
350.2755	0.09	700551	keystroke	n	n/a
350.3955	0.12	700791	keystroke	s	n/a
350.6945	0.121	701389	keystroke	Key.space	n/a
350.8605	0.089	701721	keystroke	l	n/a
351.0105	0.12	702021	keystroke	o	n/a
351.1155	0.105	702231	keystroke	g	n/a
351.4455	0.105	702891	keystroke	i	n/a
351.79	0.105	703580	keystroke	c	n/a
352.03	0.12	704060	keystroke	Key.space	n/a
357.492	0.028	714984	keystroke	p	n/a
357.5955	0.1045	715191	keystroke	h	n/a
357.73	0.12	715460	keystroke	r	n/a
357.8955	0.1345	715791	keystroke	a	n/a
358.24	0.12	716480	keystroke	s	n/a
358.42	0.12	716840	keystroke	e	n/a
358.63	0.105	717260	keystroke	s	n/a
358.855	0.12	717710	keystroke	Key.space	n/a
359.11	0.1205	718220	keystroke	m	n/a
359.231	0.134	718462	keystroke	a	n/a
359.3955	0.075	718791	keystroke	r	n/a
359.5755	0.0895	719151	keystroke	t	n/a
359.68	0.12	719360	keystroke	i	n/a
360.76	0.03	721520	keystroke	Key.backspace	n/a
360.8355	0.0595	721671	keystroke	Key.backspace	n/a
361.03	0.075	722060	keystroke	i	n/a
361.09	0.12	722180	keystroke	t	n/a
362.2	0.075	724400	keystroke	i	n/a
362.365	0.105	724730	keystroke	m	n/a
362.425	0.0905	724850	keystroke	e	n/a
362.5605	0.12	725121	keystroke	Key.enter	n/a
362.6875	9.85	725375	prompt	n/a	decades belarus argument agricultural\n
363.4005	0.075	726801	keystroke	d	n/a
363.5505	0.105	727101	keystroke	e	n/a
363.805	0.09	727610	keystroke	c	n/a
363.94	0.12	727880	keystroke	a	n/a
364.1205	0.0895	728241	keystroke	d	n/a
364.285	0.09	728570	keystroke	e	n/a
364.4205	0.1345	728841	keystroke	s	n/a
364.5705	0.1195	729141	keystroke	Key.space	n/a
366.1755	0.0905	732351	keystroke	b	n/a
366.28	0.105	732560	keystroke	e	n/a
366.4	0.105	732800	keystroke	l	n/a
366.805	0.12	733610	keystroke	a	n/a
366.941	0.104	733882	keystroke	r	n/a
367.03	0.105	734060	keystroke	u	n/a
367.165	0.12	734330	keystroke	s	n/a
367.285	0.12	734570	keystroke	Key.space	n/a
367.585	0.12	735170	keystroke	a	n/a
367.735	0.12	735470	keystroke	r	n/a
368.005	0.0905	736010	keystroke	g	n/a
368.11	0.075	736220	keystroke	u	n/a
368.32	0.09	736640	keystroke	m	n/a
368.3805	0.1045	736761	keystroke	e	n/a
368.5	0.1205	737000	keystroke	n	n/a
368.621	0.074	737242	keystroke	t	n/a
368.845	0.105	737690	keystroke	Key.space	n/a
369.6245	0.1055	739249	keystroke	a	n/a
370.1795	0.075	740359	keystroke	g	n/a
370.3905	0.1045	740781	keystroke	r	n/a
370.541	0.119	741082	keystroke	i	n/a
370.69	0.1055	741380	keystroke	c	n/a
370.975	0.105	741950	keystroke	u	n/a
371.4555	0.12	742911	keystroke	l	n/a
371.6655	0.105	743331	keystroke	t	n/a
371.7855	0.12	743571	keystroke	u	n/a
371.8905	0.075	743781	keystroke	r	n/a
371.9955	0.135	743991	keystroke	a	n/a
372.0855	0.12	744171	keystroke	l	n/a
372.4155	0.1195	744831	keystroke	Key.enter	n/a
372.543	7.9445	745086	prompt	n/a	surfing corn earn costumes\n
373.2405	0.135	746481	keystroke	s	n/a
373.3605	0.105	746721	keystroke	u	n/a
373.4505	0.06	746901	keystroke	r	n/a
374.2005	0.075	748401	keystroke	f	n/a
374.3355	0.12	748671	keystroke	i	n/a
374.4105	0.105	748821	keystroke	n	n/a
374.6955	0.06	749391	keystroke	g	n/a
374.9205	0.12	749841	keystroke	Key.space	n/a
375.1155	0.12	750231	keystroke	c	n/a
375.2205	0.09	750441	keystroke	o	n/a
375.3405	0.105	750681	keystroke	r	n/a
375.43	0.1055	750860	keystroke	n	n/a
375.5655	0.0895	751131	keystroke	Key.space	n/a
375.7005	0.1345	751401	keystroke	e	n/a
375.82	0.1205	751640	keystroke	a	n/a
376.301	0.0885	752602	keystroke	r	n/a
376.406	0.075	752812	keystroke	n	n/a
376.6	0.12	753200	keystroke	Key.space	n/a
376.795	0.12	753590	keystroke	c	n/a
376.916	0.09	753832	keystroke	o	n/a
377.2455	0.09	754491	keystroke	s	n/a
378.3855	0.09	756771	keystroke	t	n/a
378.9405	0.105	757881	keystroke	u	n/a
379.1655	0.12	758331	keystroke	m	n/a
379.915	0.1355	759830	keystroke	e	n/a
380.2305	0.135	760461	keystroke	s	n/a
380.3505	0.135	760701	keystroke	Key.enter	n/a
380.4915	8.3205	760983	prompt	n/a	doesn't turbo manga xanax\n
381.0255	0.1045	762051	keystroke	d	n/a
381.16	0.1205	762320	keystroke	o	n/a
381.2655	0.1045	762531	keystroke	e	n/a
381.385	0.105	762770	keystroke	s	n/a
381.505	0.105	763010	keystroke	n	n/a
381.6705	0.075	763341	keystroke	t	n/a
382.15	0.06	764300	keystroke	Key.backspace	n/a
382.331	0.089	764662	keystroke	'	n/a
382.3755	0.1055	764751	keystroke	t	n/a
382.585	0.105	765170	keystroke	Key.space	n/a
382.78	0.09	765560	keystroke	t	n/a
382.855	0.09	765710	keystroke	u	n/a
382.96	0.12	765920	keystroke	r	n/a
383.0955	0.0895	766191	keystroke	b	n/a
383.305	0.061	766610	keystroke	o	n/a
383.47	0.105	766940	keystroke	Key.space	n/a
383.755	0.09	767510	keystroke	m	n/a
383.89	0.12	767780	keystroke	a	n/a
384.0405	0.105	768081	keystroke	n	n/a
384.1605	0.1045	768321	keystroke	g	n/a
384.58	0.12	769160	keystroke	a	n/a
385	0.09	770000	keystroke	Key.space	n/a
385.195	0.1195	770390	keystroke	x	n/a
385.3745	0.076	770749	keystroke	a	n/a
385.4805	0.105	770961	keystroke	n	n/a
385.8705	0.135	771741	keystroke	a	n/a
385.9905	0.09	771981	keystroke	s	n/a
386.425	0.105	772850	keystroke	Key.backspace	n/a
386.486	0.09	772972	keystroke	x	n/a
388.752	0.058	777504	keystroke	Key.enter	n/a
388.816	6.8215	777632	prompt	n/a	batch nails threatened deposits\n
389.605	0.1055	779210	keystroke	b	n/a
389.6945	0.106	779389	keystroke	a	n/a
389.8155	0.09	779631	keystroke	t	n/a
390.0255	0.135	780051	keystroke	c	n/a
390.1155	0.075	780231	keystroke	h	n/a
390.3095	0.091	780619	keystroke	Key.space	n/a
390.4605	0.119	780921	keystroke	n	n/a
390.6705	0.105	781341	keystroke	a	n/a
390.7605	0.06	781521	keystroke	i	n/a
390.8955	0.105	781791	keystroke	l	n/a
391.045	0.091	782090	keystroke	s	n/a
391.3895	0.105	782779	keystroke	Key.space	n/a
391.6305	0.105	783261	keystroke	t	n/a
391.7805	0.075	783561	keystroke	h	n/a
391.9755	0.06	783951	keystroke	r	n/a
392.1555	0.12	784311	keystroke	e	n/a
392.3655	0.0895	784731	keystroke	a	n/a
392.5445	0.075	785089	keystroke	t	n/a
393.0995	0.091	786199	keystroke	e	n/a
393.22	0.1055	786440	keystroke	n	n/a
393.595	0.0595	787190	keystroke	e	n/a
393.7755	0.09	787551	keystroke	d	n/a
394.0155	0.09	788031	keystroke	Key.space	n/a
394.2705	0.0745	788541	keystroke	d	n/a
394.4355	0.09	788871	keystroke	e	n/a
394.6005	0.12	789201	keystroke	p	n/a
394.705	0.1205	789410	keystroke	o	n/a
394.8105	0.135	789621	keystroke	s	n/a
394.9605	0.12	789921	keystroke	i	n/a
395.14	0.0895	790280	keystroke	t	n/a
395.336	0.089	790672	keystroke	s	n/a
395.5005	0.1345	791001	keystroke	Key.enter	n/a
395.642	9.175	791284	prompt	n/a	contribute relationships athletic lunch\n
396.295	0.105	792590	keystroke	c	n/a
396.52	0.09	793040	keystroke	o	n/a
396.715	0.105	793430	keystroke	n	n/a
397.135	0.075	794270	keystroke	t	n/a
397.33	0.09	794660	keystroke	r	n/a
397.435	0.076	794870	keystroke	i	n/a
397.8555	0.105	795711	keystroke	b	n/a
398.0655	0.12	796131	keystroke	u	n/a
398.1405	0.06	796281	keystroke	t	n/a
398.3055	0.12	796611	keystroke	e	n/a
398.6205	0.09	797241	keystroke	Key.space	n/a
398.8305	0.075	797661	keystroke	r	n/a
398.9955	0.09	797991	keystroke	e	n/a
399.43	0.1205	798860	keystroke	l	n/a
399.595	0.075	799190	keystroke	a	n/a
399.7005	0.0895	799401	keystroke	t	n/a
399.7755	0.0745	799551	keystroke	i	n/a
399.925	0.075	799850	keystroke	o	n/a
400.105	0.075	800210	keystroke	n	n/a
400.195	0.12	800390	keystroke	s	n/a
400.33	0.1055	800660	keystroke	h	n/a
400.42	0.12	800840	keystroke	i	n/a
400.645	0.1055	801290	keystroke	p	n/a
400.8405	0.1045	801681	keystroke	s	n/a
401.095	0.1205	802190	keystroke	Key.space	n/a
401.4255	0.135	802851	keystroke	a	n/a
401.6955	0.09	803391	keystroke	t	n/a
401.8155	0.09	803631	keystroke	h	n/a
402.985	0.135	805970	keystroke	l	n/a
403.105	0.105	806210	keystroke	e	n/a
403.435	0.0905	806870	keystroke	t	n/a
403.54	0.09	807080	keystroke	i	n/a
403.6755	0.12	807351	keystroke	c	n/a
403.81	0.105	807620	keystroke	Key.space	n/a
403.96	0.105	807920	keystroke	l	n/a
404.155	0.075	808310	keystroke	u	n/a
404.32	0.09	808640	keystroke	n	n/a
404.395	0.1055	808790	keystroke	c	n/a
404.5155	0.075	809031	keystroke	h	n/a
404.6795	0.1355	809359	keystroke	Key.enter	n/a
404.827	8	809654	prompt	n/a	wound retrieve moore combo\n
405.415	0.075	810830	keystroke	w	n/a
405.505	0.075	811010	keystroke	o	n/a
405.775	0.075	811550	keystroke	u	n/a
405.925	0.12	811850	keystroke	n	n/a
406.06	0.105	812120	keystroke	d	n/a
406.27	0.09	812540	keystroke	Key.space	n/a
406.495	0.06	812990	keystroke	r	n/a
406.645	0.09	813290	keystroke	e	n/a
406.855	0.06	813710	keystroke	t	n/a
407.005	0.105	814010	keystroke	r	n/a
407.095	0.09	814190	keystroke	i	n/a
407.41	0.09	814820	keystroke	e	n/a
407.755	0.0605	815510	keystroke	v	n/a
407.9945	0.091	815989	keystroke	e	n/a
408.2945	0.0755	816589	keystroke	Key.space	n/a
408.4605	0.105	816921	keystroke	m	n/a
408.8355	0.044	817671	keystroke	o	n/a
409.2555	0.09	818511	keystroke	o	n/a
409.3305	0.075	818661	keystroke	r	n/a
409.5105	0.105	819021	keystroke	e	n/a
409.75	0.0905	819500	keystroke	Key.space	n/a
409.9745	0.106	819949	keystroke	c	n/a
410.1105	0.09	820221	keystroke	o	n/a
410.3205	0.105	820641	keystroke	m	n/a
410.5755	0.06	821151	keystroke	b	n/a
411.1005	0.075	822201	keystroke	o	n/a
412.735	0.09	825470	keystroke	Key.enter	n/a
412.8315	12.1465	825663	prompt	n/a	mozilla louisiana lesbian fourth\n
413.5155	0.0595	827031	keystroke	m	n/a
413.6655	0.1045	827331	keystroke	o	n/a
413.8155	0.1345	827631	keystroke	z	n/a
413.9505	0.0895	827901	keystroke	i	n/a
414.19	0.09	828380	keystroke	l	n/a
414.37	0.105	828740	keystroke	l	n/a
414.535	0.135	829070	keystroke	a	n/a
414.7	0.12	829400	keystroke	Key.space	n/a
414.9255	0.089	829851	keystroke	l	n/a
415.0895	0.061	830179	keystroke	o	n/a
415.3005	0.089	830601	keystroke	u	n/a
415.7945	0.106	831589	keystroke	i	n/a
415.9155	0.12	831831	keystroke	s	n/a
416.2605	0.135	832521	keystroke	i	n/a
416.5455	0.105	833091	keystroke	a	n/a
416.6805	0.075	833361	keystroke	n	n/a
417.3105	0.12	834621	keystroke	a	n/a
417.7755	0.119	835551	keystroke	Key.space	n/a
418.0755	0.119	836151	keystroke	l	n/a
418.1505	0.105	836301	keystroke	e	n/a
418.33	0.1355	836660	keystroke	s	n/a
423.0275	0	846055	keystroke	b	n/a
423.0555	0.12	846111	keystroke	i	n/a
423.1455	0.15	846291	keystroke	a	n/a
423.2655	0.09	846531	keystroke	n	n/a
423.4305	0.12	846861	keystroke	Key.space	n/a
423.8205	0.135	847641	keystroke	f	n/a
424.0305	0.12	848061	keystroke	o	n/a
424.2555	0.0905	848511	keystroke	u	n/a
424.3155	0.075	848631	keystroke	r	n/a
424.4955	0.075	848991	keystroke	t	n/a
424.5405	0.12	849081	keystroke	h	n/a
424.8405	0.135	849681	keystroke	Key.enter	n/a
424.982	10.166	849964	prompt	n/a	accepting cassette geographic period\n
425.606	0.134	851212	keystroke	a	n/a
425.756	0.075	851512	keystroke	c	n/a
425.935	0.0595	851870	keystroke	c	n/a
426.1005	0.089	852201	keystroke	e	n/a
426.2055	0.12	852411	keystroke	p	n/a
426.3395	0.105	852679	keystroke	t	n/a
426.4145	0.076	852829	keystroke	i	n/a
426.5955	0.12	853191	keystroke	n	n/a
426.7005	0.09	853401	keystroke	g	n/a
426.9555	0.12	853911	keystroke	Key.space	n/a
427.2105	0.12	854421	keystroke	c	n/a
427.39	0.15	854780	keystroke	a	n/a
427.5705	0.09	855141	keystroke	s	n/a
427.765	0.1505	855530	keystroke	s	n/a
427.931	0.12	855862	keystroke	e	n/a
428.8155	0.0745	857631	keystroke	t	n/a
428.951	0.0745	857902	keystroke	t	n/a
430.165	0.1355	860330	keystroke	e	n/a
430.2845	0.105	860569	keystroke	Key.space	n/a
430.631	0.074	861262	keystroke	g	n/a
430.915	0.09	861830	keystroke	e	n/a
431.0355	0.09	862071	keystroke	o	n/a
431.35	0.03	862700	keystroke	r	n/a
432.0405	0.12	864081	keystroke	Key.backspace	n/a
432.1155	0.075	864231	keystroke	g	n/a
432.2955	0.075	864591	keystroke	r	n/a
432.6855	0.105	865371	keystroke	a	n/a
432.9105	0.09	865821	keystroke	p	n/a
433.0755	0.09	866151	keystroke	h	n/a
433.1505	0.12	866301	keystroke	i	n/a
433.255	0.1055	866510	keystroke	c	n/a
433.54	0.1055	867080	keystroke	Key.space	n/a
433.75	0.12	867500	keystroke	p	n/a
433.84	0.09	867680	keystroke	e	n/a
434.005	0.075	868010	keystroke	r	n/a
434.05	0.075	868100	keystroke	i	n/a
434.515	0.105	869030	keystroke	o	n/a
434.7705	0.0905	869541	keystroke	d	n/a
435.025	0.12	870050	keystroke	Key.enter	n/a
435.153	10.434	870306	prompt	n/a	predict electoral publishing periodic\n
436.135	0.105	872270	keystroke	p	n/a
436.21	0.06	872420	keystroke	r	n/a
436.375	0.0605	872750	keystroke	e	n/a
436.555	0.09	873110	keystroke	d	n/a
436.66	0.091	873320	keystroke	i	n/a
436.7655	0.12	873531	keystroke	c	n/a
437.02	0.12	874040	keystroke	Key.space	n/a
438.13	0.075	876260	keystroke	Key.backspace	n/a
438.175	0.12	876350	keystroke	t	n/a
438.31	0.105	876620	keystroke	Key.space	n/a
438.5505	0.0595	877101	keystroke	e	n/a
438.6245	0.12	877249	keystroke	l	n/a
438.7595	0.0755	877519	keystroke	e	n/a
438.9855	0.074	877971	keystroke	c	n/a
439.1955	0.105	878391	keystroke	t	n/a
439.5255	0.09	879051	keystroke	o	n/a
439.631	0.0745	879262	keystroke	r	n/a
439.7805	0.12	879561	keystroke	a	n/a
439.8845	0.105	879769	keystroke	l	n/a
440.0345	0.1055	880069	keystroke	Key.space	n/a
440.2005	0.104	880401	keystroke	p	n/a
440.455	0.105	880910	keystroke	u	n/a
441.2345	0.1055	882469	keystroke	b	n/a
441.4455	0.1195	882891	keystroke	l	n/a
442.165	0.1345	884330	keystroke	i	n/a
442.2555	0.1345	884511	keystroke	s	n/a
442.3745	0.076	884749	keystroke	h	n/a
442.5105	0.149	885021	keystroke	i	n/a
442.6445	0.106	885289	keystroke	n	n/a
442.7805	0.135	885561	keystroke	g	n/a
442.9155	0.135	885831	keystroke	Key.space	n/a
443.1555	0.12	886311	keystroke	p	n/a
443.2455	0.075	886491	keystroke	e	n/a
443.4105	0.075	886821	keystroke	r	n/a
443.4555	0.12	886911	keystroke	i	n/a
443.7105	0.06	887421	keystroke	d	n/a
443.8145	0.0755	887629	keystroke	o	n/a
444.1895	0.06	888379	keystroke	Key.backspace	n/a
444.3255	0.045	888651	keystroke	Key.backspace	n/a
444.5055	0.045	889011	keystroke	o	n/a
445.1205	0.09	890241	keystroke	d	n/a
445.2105	0.105	890421	keystroke	i	n/a
445.3155	0.12	890631	keystroke	c	n/a
445.4655	0.12	890931	keystroke	Key.enter	n/a
445.5955	4.4775	891191	prompt	n/a	define luck marion lease\n
446.14	0.06	892280	keystroke	d	n/a
446.275	0.075	892550	keystroke	e	n/a
446.47	0.12	892940	keystroke	f	n/a
446.5455	0.1345	893091	keystroke	i	n/a
446.635	0.12	893270	keystroke	n	n/a
446.74	0.121	893480	keystroke	e	n/a
446.83	0.12	893660	keystroke	Key.space	n/a
446.951	0.0895	893902	keystroke	l	n/a
447.1155	0.0895	894231	keystroke	u	n/a
447.22	0.12	894440	keystroke	c	n/a
447.325	0.105	894650	keystroke	k	n/a
447.415	0.1205	894830	keystroke	Key.space	n/a
447.5955	0.15	895191	keystroke	m	n/a
447.67	0.12	895340	keystroke	a	n/a
447.775	0.105	895550	keystroke	r	n/a
447.85	0.075	895700	keystroke	i	n/a
448.015	0.06	896030	keystroke	o	n/a
448.165	0.105	896330	keystroke	n	n/a
448.255	0.12	896510	keystroke	Key.space	n/a
448.5855	0.135	897171	keystroke	l	n/a
448.7055	0.09	897411	keystroke	e	n/a
448.8405	0.12	897681	keystroke	a	n/a
448.9005	0.135	897801	keystroke	s	n/a
448.9755	0.12	897951	keystroke	e	n/a
449.935	0.135	899870	keystroke	Key.enter	n/a
450.078	5.3495	900156	prompt	n/a	liable legal broader design\n
450.76	0.09	901520	keystroke	l	n/a
450.91	0.06	901820	keystroke	i	n/a
451.1505	0.105	902301	keystroke	a	n/a
451.2105	0.09	902421	keystroke	b	n/a
451.3455	0.135	902691	keystroke	l	n/a
451.4955	0.15	902991	keystroke	e	n/a
451.7355	0.105	903471	keystroke	Key.space	n/a
451.9755	0.12	903951	keystroke	l	n/a
452.3355	0.09	904671	keystroke	e	n/a
452.5605	0.06	905121	keystroke	g	n/a
452.6805	0.105	905361	keystroke	a	n/a
452.7855	0.12	905571	keystroke	l	n/a
452.9355	0.105	905871	keystroke	Key.space	n/a
453.2805	0.075	906561	keystroke	b	n/a
453.3855	0.12	906771	keystroke	r	n/a
453.4905	0.105	906981	keystroke	o	n/a
453.6255	0.135	907251	keystroke	a	n/a
453.8655	0.0745	907731	keystroke	d	n/a
454.03	0.076	908060	keystroke	e	n/a
454.195	0.121	908390	keystroke	r	n/a
454.285	0.105	908570	keystroke	Key.space	n/a
454.48	0.045	908960	keystroke	d	n/a
454.6	0.06	909200	keystroke	e	n/a
454.6905	0.1345	909381	keystroke	s	n/a
454.7955	0.1195	909591	keystroke	i	n/a
455.005	0.1055	910010	keystroke	g	n/a
455.0955	0.075	910191	keystroke	n	n/a
455.3055	0.12	910611	keystroke	Key.enter	n/a
455.432	8.005	910864	prompt	n/a	religious nebraska software flights\n
456.1755	0.06	912351	keystroke	r	n/a
456.5505	0.12	913101	keystroke	e	n/a
456.7305	0.105	913461	keystroke	l	n/a
456.8955	0.135	913791	keystroke	i	n/a
457.3005	0.1055	914601	keystroke	g	n/a
457.4205	0.075	914841	keystroke	i	n/a
457.6005	0.044	915201	keystroke	o	n/a
457.7505	0.074	915501	keystroke	u	n/a
457.8555	0.135	915711	keystroke	s	n/a
458.0505	0.105	916101	keystroke	Key.space	n/a
458.4105	0.105	916821	keystroke	n	n/a
458.5305	0.1045	917061	keystroke	e	n/a
458.7855	0.105	917571	keystroke	b	n/a
458.8755	0.075	917751	keystroke	r	n/a
459.1305	0.12	918261	keystroke	a	n/a
459.7455	0.105	919491	keystroke	s	n/a
459.8655	0.0905	919731	keystroke	k	n/a
460.0145	0.121	920029	keystroke	a	n/a
460.2555	0.09	920511	keystroke	Key.space	n/a
460.4505	0.0895	920901	keystroke	s	n/a
460.556	0.104	921112	keystroke	o	n/a
460.675	0.09	921350	keystroke	f	n/a
461.545	0.1045	923090	keystroke	t	n/a
461.71	0.09	923420	keystroke	w	n/a
461.845	0.12	923690	keystroke	a	n/a
462.0855	0.09	924171	keystroke	r	n/a
462.2655	0.105	924531	keystroke	e	n/a
462.3855	0.09	924771	keystroke	Key.space	n/a
462.5955	0.105	925191	keystroke	f	n/a
462.6855	0.105	925371	keystroke	l	n/a
462.8205	0.105	925641	keystroke	i	n/a
462.8805	0.12	925761	keystroke	g	n/a
463.0155	0.105	926031	keystroke	h	n/a
463.0905	0.075	926181	keystroke	t	n/a
463.2105	0.1205	926421	keystroke	s	n/a
463.3	0.1355	926600	keystroke	Key.enter	n/a
463.441	8.066	926882	prompt	n/a	kept distinguished budapest tiger\n
464.26	0.12	928520	keystroke	k	n/a
464.3355	0.1045	928671	keystroke	e	n/a
464.455	0.135	928910	keystroke	p	n/a
464.56	0.105	929120	keystroke	t	n/a
464.68	0.12	929360	keystroke	Key.space	n/a
465.055	0.12	930110	keystroke	d	n/a
465.145	0.1205	930290	keystroke	i	n/a
465.2655	0.105	930531	keystroke	s	n/a
465.5645	0.105	931129	keystroke	t	n/a
465.6555	0.09	931311	keystroke	i	n/a
465.8495	0.121	931699	keystroke	n	n/a
465.9555	0.075	931911	keystroke	g	n/a
466.2855	0.06	932571	keystroke	u	n/a
466.4505	0.105	932901	keystroke	i	n/a
466.5105	0.135	933021	keystroke	s	n/a
466.6455	0.105	933291	keystroke	h	n/a
466.7355	0.075	933471	keystroke	e	n/a
466.9455	0.12	933891	keystroke	d	n/a
467.0355	0.135	934071	keystroke	Key.space	n/a
467.3355	0.0895	934671	keystroke	b	n/a
467.53	0.135	935060	keystroke	u	n/a
468.58	0.106	937160	keystroke	d	n/a
468.76	0.12	937520	keystroke	a	n/a
469.24	0.12	938480	keystroke	p	n/a
469.315	0.1205	938630	keystroke	e	n/a
469.495	0.135	938990	keystroke	s	n/a
469.6	0.12	939200	keystroke	t	n/a
469.75	0.105	939500	keystroke	Key.space	n/a
469.96	0.09	939920	keystroke	t	n/a
470.02	0.12	940040	keystroke	i	n/a
470.155	0.09	940310	keystroke	g	n/a
470.365	0.105	940730	keystroke	e	n/a
470.56	0.09	941120	keystroke	r	n/a
471.37	0.135	942740	keystroke	Key.enter	n/a
471.511	6.8815	943022	prompt	n/a	cancellation advertise that're smoke\n
472.3155	0.09	944631	keystroke	c	n/a
472.4355	0.045	944871	keystroke	a	n/a
472.8855	0.089	945771	keystroke	n	n/a
473.0955	0.09	946191	keystroke	c	n/a
473.335	0.0895	946670	keystroke	e	n/a
473.5005	0.045	947001	keystroke	l	n/a
473.6205	0.1195	947241	keystroke	l	n/a
473.77	0.106	947540	keystroke	a	n/a
473.8905	0.1045	947781	keystroke	t	n/a
473.98	0.045	947960	keystroke	i	n/a
474.13	0.105	948260	keystroke	o	n/a
474.1755	0.12	948351	keystroke	n	n/a
474.3095	0.1355	948619	keystroke	Key.space	n/a
474.6255	0.12	949251	keystroke	a	n/a
474.7605	0.12	949521	keystroke	d	n/a
475.0455	0.0745	950091	keystroke	v	n/a
475.2405	0.075	950481	keystroke	e	n/a
475.4055	0.06	950811	keystroke	r	n/a
475.5705	0.105	951141	keystroke	t	n/a
475.6605	0.09	951321	keystroke	i	n/a
475.7655	0.135	951531	keystroke	s	n/a
475.8555	0.18	951711	keystroke	e	n/a
476.0205	0.135	952041	keystroke	Key.space	n/a
476.1705	0.089	952341	keystroke	t	n/a
476.2755	0.0745	952551	keystroke	h	n/a
476.335	0.1055	952670	keystroke	a	n/a
476.41	0.135	952820	keystroke	t	n/a
476.861	0.104	953722	keystroke	'	n/a
477.1	0.075	954200	keystroke	r	n/a
477.295	0.105	954590	keystroke	e	n/a
477.5355	0.09	955071	keystroke	Key.space	n/a
477.7	0.105	955400	keystroke	s	n/a
477.82	0.09	955640	keystroke	m	n/a
477.865	0.075	955730	keystroke	o	n/a
478.06	0.0905	956120	keystroke	k	n/a
478.135	0.091	956270	keystroke	e	n/a
478.27	0.1205	956540	keystroke	Key.enter	n/a
478.397	8.7555	956794	prompt	n/a	complimentary consumption preparing actor\n
479.185	0.135	958370	keystroke	c	n/a
479.305	0.09	958610	keystroke	o	n/a
479.501	0.089	959002	keystroke	m	n/a
479.89	0.06	959780	keystroke	p	n/a
480.07	0.09	960140	keystroke	l	n/a
480.1905	0.1045	960381	keystroke	i	n/a
480.55	0.1355	961100	keystroke	m	n/a
480.64	0.12	961280	keystroke	e	n/a
480.79	0.105	961580	keystroke	n	n/a
480.91	0.12	961820	keystroke	t	n/a
481.0905	0.1345	962181	keystroke	a	n/a
481.181	0.0745	962362	keystroke	r	n/a
481.405	0.0605	962810	keystroke	y	n/a
481.525	0.12	963050	keystroke	Key.space	n/a
481.81	0.091	963620	keystroke	c	n/a
481.8555	0.0745	963711	keystroke	o	n/a
482.05	0.075	964100	keystroke	n	n/a
482.14	0.12	964280	keystroke	s	n/a
482.245	0.091	964490	keystroke	u	n/a
482.47	0.06	964940	keystroke	m	n/a
482.635	0.1205	965270	keystroke	p	n/a
482.77	0.105	965540	keystroke	t	n/a
482.861	0.044	965722	keystroke	i	n/a
482.995	0.075	965990	keystroke	o	n/a
483.145	0.1055	966290	keystroke	n	n/a
483.445	0.1195	966890	keystroke	Key.space	n/a
483.7755	0.12	967551	keystroke	p	n/a
484.3305	0.06	968661	keystroke	r	n/a
484.4655	0.105	968931	keystroke	e	n/a
484.6455	0.105	969291	keystroke	p	n/a
484.7345	0.121	969469	keystroke	a	n/a
484.8565	0.134	969713	keystroke	r	n/a
484.9755	0.12	969951	keystroke	i	n/a
485.0505	0.12	970101	keystroke	n	n/a
485.1555	0.12	970311	keystroke	g	n/a
485.23	0.1345	970460	keystroke	Key.space	n/a
485.3805	0.12	970761	keystroke	a	n/a
485.5295	0.091	971059	keystroke	c	n/a
485.89	0.075	971780	keystroke	t	n/a
485.95	0.075	971900	keystroke	o	n/a
486.625	0.105	973250	keystroke	r	n/a
487.045	0.105	974090	keystroke	Key.enter	n/a
487.157	5.23	974314	prompt	n/a	crops brain master scale\n
487.8105	0.09	975621	keystroke	c	n/a
488.0055	0.105	976011	keystroke	r	n/a
488.0805	0.075	976161	keystroke	o	n/a
488.1855	0.105	976371	keystroke	p	n/a
488.3355	0.12	976671	keystroke	s	n/a
488.5155	0.1195	977031	keystroke	Key.space	n/a
488.695	0.105	977390	keystroke	b	n/a
488.785	0.075	977570	keystroke	r	n/a
488.935	0.12	977870	keystroke	a	n/a
489.0105	0.1345	978021	keystroke	i	n/a
489.1	0.1055	978200	keystroke	n	n/a
489.265	0.105	978530	keystroke	Key.space	n/a
489.4305	0.0895	978861	keystroke	m	n/a
489.535	0.105	979070	keystroke	a	n/a
489.61	0.135	979220	keystroke	s	n/a
489.79	0.09	979580	keystroke	t	n/a
490	0.06	980000	keystroke	e	n/a
490.18	0.09	980360	keystroke	r	n/a
490.24	0.12	980480	keystroke	Key.space	n/a
490.93	0.075	981860	keystroke	c	n/a
491.275	0.1055	982550	keystroke	Key.backspace	n/a
491.336	0.0895	982672	keystroke	s	n/a
491.4705	0.0895	982941	keystroke	c	n/a
491.6055	0.09	983211	keystroke	a	n/a
491.681	0.1045	983362	keystroke	l	n/a
492.0395	0.106	984079	keystroke	e	n/a
492.2495	0.136	984499	keystroke	Key.enter	n/a
492.392	5.4395	984784	prompt	n/a	mpeg loved realized oclc\n
493.0755	0.12	986151	keystroke	m	n/a
493.2705	0.135	986541	keystroke	p	n/a
493.3605	0.09	986721	keystroke	e	n/a
493.5855	0.09	987171	keystroke	g	n/a
493.7205	0.135	987441	keystroke	Key.space	n/a
493.8405	0.09	987681	keystroke	l	n/a
493.9755	0.18	987951	keystroke	o	n/a
494.0805	0.06	988161	keystroke	v	n/a
494.2905	0.03	988581	keystroke	e	n/a
494.456	0.1045	988912	keystroke	d	n/a
494.5155	0.135	989031	keystroke	Key.space	n/a
495.0105	0.0455	990021	keystroke	r	n/a
495.1455	0.105	990291	keystroke	e	n/a
495.5955	0.12	991191	keystroke	a	n/a
495.7305	0.135	991461	keystroke	l	n/a
495.8355	0.15	991671	keystroke	i	n/a
495.9405	0.12	991881	keystroke	z	n/a
496.0605	0.075	992121	keystroke	e	n/a
496.2555	0.105	992511	keystroke	d	n/a
496.7205	0.1195	993441	keystroke	Key.space	n/a
497.005	0.105	994010	keystroke	o	n/a
497.125	0.135	994250	keystroke	c	n/a
497.425	0.1055	994850	keystroke	l	n/a
497.5455	0.12	995091	keystroke	c	n/a
497.6955	0.135	995391	keystroke	Key.enter	n/a
497.8355	6.3415	995671	prompt	n/a	twice perfume macromedia concert\n
498.5655	0.075	997131	keystroke	t	n/a
498.7455	0.09	997491	keystroke	w	n/a
498.8505	0.105	997701	keystroke	i	n/a
499.0005	0.105	998001	keystroke	c	n/a
499.2255	0.06	998451	keystroke	e	n/a
499.375	0.09	998750	keystroke	Key.space	n/a
499.57	0.105	999140	keystroke	p	n/a
499.6455	0.0745	999291	keystroke	e	n/a
499.81	0.0755	999620	keystroke	r	n/a
499.99	0.0605	999980	keystroke	f	n/a
500.0355	0.105	1000071	keystroke	u	n/a
500.2755	0.09	1000551	keystroke	m	n/a
500.3805	0.12	1000761	keystroke	e	n/a
500.4845	0.121	1000969	keystroke	Key.space	n/a
500.8905	0.12	1001781	keystroke	m	n/a
500.9955	0.105	1001991	keystroke	a	n/a
501.2955	0.12	1002591	keystroke	c	n/a
501.5805	0.12	1003161	keystroke	r	n/a
501.7015	0.104	1003403	keystroke	o	n/a
501.9855	0.105	1003971	keystroke	m	n/a
502.0755	0.09	1004151	keystroke	e	n/a
502.2705	0.12	1004541	keystroke	d	n/a
502.3605	0.105	1004721	keystroke	i	n/a
502.495	0.15	1004990	keystroke	a	n/a
502.66	0.1195	1005320	keystroke	Key.space	n/a
502.9755	0.0295	1005951	keystroke	c	n/a
502.9905	0.06	1005981	keystroke	o	n/a
503.1705	0.089	1006341	keystroke	n	n/a
503.3795	0.061	1006759	keystroke	c	n/a
503.56	0.0755	1007120	keystroke	e	n/a
503.725	0.0755	1007450	keystroke	r	n/a
503.9045	0.105	1007809	keystroke	t	n/a
504.0405	0.135	1008081	keystroke	Key.enter	n/a
504.182	6.055	1008364	prompt	n/a	archive amino launch pick\n
504.94	0.0305	1009880	keystroke	a	n/a
504.9555	0.06	1009911	keystroke	r	n/a
505.1345	0.121	1010269	keystroke	c	n/a
505.226	0.0895	1010452	keystroke	h	n/a
505.4055	0.104	1010811	keystroke	i	n/a
506.0655	0.075	1012131	keystroke	v	n/a
506.2755	0.105	1012551	keystroke	e	n/a
506.4555	0.135	1012911	keystroke	Key.space	n/a
506.8605	0.0745	1013721	keystroke	a	n/a
507.265	0.105	1014530	keystroke	m	n/a
507.445	0.105	1014890	keystroke	i	n/a
507.67	0.0755	1015340	keystroke	n	n/a
507.8055	0.105	1015611	keystroke	o	n/a
508.255	0.09	1016510	keystroke	Key.space	n/a
508.405	0.105	1016810	keystroke	l	n/a
508.54	0.15	1017080	keystroke	a	n/a
508.63	0.09	1017260	keystroke	u	n/a
508.8255	0.0895	1017651	keystroke	n	n/a
508.9	0.12	1017800	keystroke	c	n/a
509.035	0.09	1018070	keystroke	h	n/a
509.23	0.1205	1018460	keystroke	Key.space	n/a
509.485	0.0755	1018970	keystroke	p	n/a
509.7555	0.0895	1019511	keystroke	i	n/a
509.86	0.165	1019720	keystroke	c	n/a
509.9655	0.075	1019931	keystroke	k	n/a
510.145	0.09	1020290	keystroke	Key.enter	n/a
510.2425	8.2445	1020485	prompt	n/a	framework missions proposition must\n
511.315	0.075	1022630	keystroke	f	n/a
511.4805	0.0595	1022961	keystroke	r	n/a
511.57	0.135	1023140	keystroke	a	n/a
511.6905	0.1045	1023381	keystroke	m	n/a
511.84	0.105	1023680	keystroke	e	n/a
512.2	0.075	1024400	keystroke	w	n/a
512.2905	0.0745	1024581	keystroke	o	n/a
512.3805	0.12	1024761	keystroke	r	n/a
512.485	0.09	1024970	keystroke	k	n/a
512.6655	0.1045	1025331	keystroke	Key.space	n/a
512.86	0.0905	1025720	keystroke	m	n/a
513.0255	0.1345	1026051	keystroke	i	n/a
513.145	0.075	1026290	keystroke	s	n/a
513.295	0.12	1026590	keystroke	s	n/a
513.385	0.075	1026770	keystroke	i	n/a
513.5505	0.135	1027101	keystroke	o	n/a
513.6705	0.1495	1027341	keystroke	n	n/a
513.835	0.135	1027670	keystroke	s	n/a
513.9405	0.105	1027881	keystroke	Key.space	n/a
514.226	0.0895	1028452	keystroke	p	n/a
514.3005	0.105	1028601	keystroke	r	n/a
514.4205	0.105	1028841	keystroke	o	n/a
515.4555	0.075	1030911	keystroke	p	n/a
515.5755	0.105	1031151	keystroke	o	n/a
515.6955	0.119	1031391	keystroke	s	n/a
515.83	0.0905	1031660	keystroke	i	n/a
516.2955	0.105	1032591	keystroke	t	n/a
516.3705	0.105	1032741	keystroke	i	n/a
516.595	0.075	1033190	keystroke	o	n/a
516.745	0.12	1033490	keystroke	n	n/a
516.985	0.075	1033970	keystroke	Key.space	n/a
517.81	0.0905	1035620	keystroke	m	n/a
518.0055	0.1345	1036011	keystroke	u	n/a
518.0805	0.15	1036161	keystroke	s	n/a
518.2155	0.1495	1036431	keystroke	t	n/a
518.335	0.15	1036670	keystroke	Key.enter	n/a
518.4915	8.681	1036983	prompt	n/a	maternity cancel pool trainer\n
519.1455	0.12	1038291	keystroke	m	n/a
519.235	0.12	1038470	keystroke	a	n/a
519.4	0.075	1038800	keystroke	t	n/a
519.58	0.0755	1039160	keystroke	e	n/a
519.745	0.105	1039490	keystroke	r	n/a
520.106	0.089	1040212	keystroke	n	n/a
520.21	0.0455	1040420	keystroke	n	n/a
520.24	0.12	1040480	keystroke	i	n/a
520.3305	0.06	1040661	keystroke	t	n/a
520.8255	0.09	1041651	keystroke	y	n/a
520.9895	0.136	1041979	keystroke	Key.space	n/a
521.785	0.03	1043570	keystroke	Key.backspace	n/a
521.92	0.0605	1043840	keystroke	Key.backspace	n/a
522.01	0.075	1044020	keystroke	Key.backspace	n/a
522.1455	0.1045	1044291	keystroke	Key.backspace	n/a
522.325	0.075	1044650	keystroke	Key.backspace	n/a
522.475	0.0595	1044950	keystroke	Key.backspace	n/a
523.09	0.0755	1046180	keystroke	n	n/a
523.2105	0.1655	1046421	keystroke	i	n/a
523.3	0.076	1046600	keystroke	t	n/a
523.495	0.0905	1046990	keystroke	y	n/a
523.615	0.12	1047230	keystroke	Key.space	n/a
524.2	0.06	1048400	keystroke	c	n/a
524.2905	0.1345	1048581	keystroke	a	n/a
524.395	0.105	1048790	keystroke	n	n/a
524.5155	0.0745	1049031	keystroke	c	n/a
524.7105	0.12	1049421	keystroke	e	n/a
524.8755	0.105	1049751	keystroke	l	n/a
525.0405	0.09	1050081	keystroke	Key.space	n/a
525.2955	0.105	1050591	keystroke	p	n/a
525.4905	0.045	1050981	keystroke	o	n/a
525.6105	0.075	1051221	keystroke	o	n/a
525.8205	0.09	1051641	keystroke	l	n/a
526	0.105	1052000	keystroke	Key.space	n/a
526.15	0.06	1052300	keystroke	t	n/a
526.315	0.075	1052630	keystroke	r	n/a
526.42	0.075	1052840	keystroke	a	n/a
526.51	0.075	1053020	keystroke	i	n/a
526.69	0.0905	1053380	keystroke	n	n/a
526.765	0.075	1053530	keystroke	e	n/a
526.915	0.15	1053830	keystroke	r	n/a
527.05	0.12	1054100	keystroke	Key.enter	n/a
527.18	6.7715	1054360	prompt	n/a	mouse incl origins numerical\n
527.7995	0.105	1055599	keystroke	m	n/a
527.9505	0.074	1055901	keystroke	o	n/a
528.13	0.1045	1056260	keystroke	u	n/a
528.6705	0.1645	1057341	keystroke	s	n/a
528.715	0.1795	1057430	keystroke	e	n/a
528.85	0.1045	1057700	keystroke	Key.space	n/a
529.405	0.075	1058810	keystroke	i	n/a
529.555	0.136	1059110	keystroke	n	n/a
529.661	0.135	1059322	keystroke	c	n/a
529.81	0.106	1059620	keystroke	l	n/a
530.05	0.105	1060100	keystroke	Key.space	n/a
530.245	0.075	1060490	keystroke	o	n/a
530.335	0.12	1060670	keystroke	r	n/a
530.485	0.105	1060970	keystroke	i	n/a
530.635	0.1205	1061270	keystroke	g	n/a
530.74	0.12	1061480	keystroke	i	n/a
530.861	0.104	1061722	keystroke	n	n/a
530.995	0.135	1061990	keystroke	s	n/a
531.6555	0.0895	1063311	keystroke	Key.space	n/a
532.135	0.105	1064270	keystroke	n	n/a
532.585	0.105	1065170	keystroke	u	n/a
532.885	0.12	1065770	keystroke	m	n/a
533.02	0.0605	1066040	keystroke	e	n/a
533.17	0.09	1066340	keystroke	r	n/a
533.3055	0.1345	1066611	keystroke	i	n/a
533.4105	0.09	1066821	keystroke	c	n/a
533.5455	0.1195	1067091	keystroke	a	n/a
533.6055	0.1345	1067211	keystroke	l	n/a
533.845	0.105	1067690	keystroke	Key.enter	n/a
533.9565	10.195	1067913	prompt	n/a	latvia slave department accomplished\n
534.85	0.105	1069700	keystroke	l	n/a
534.925	0.121	1069850	keystroke	a	n/a
535.1055	0.0895	1070211	keystroke	t	n/a
535.225	0.121	1070450	keystroke	i	n/a
535.33	0.091	1070660	keystroke	v	n/a
535.9155	0.135	1071831	keystroke	a	n/a
536.0655	0.104	1072131	keystroke	Key.space	n/a
536.5755	0.044	1073151	keystroke	Key.backspace	n/a
536.6955	0.045	1073391	keystroke	Key.backspace	n/a
536.8295	0.061	1073659	keystroke	Key.backspace	n/a
536.98	0.1045	1073960	keystroke	Key.backspace	n/a
538.105	0.09	1076210	keystroke	v	n/a
538.1805	0.09	1076361	keystroke	i	n/a
538.2855	0.135	1076571	keystroke	a	n/a
538.45	0.135	1076900	keystroke	Key.space	n/a
539.0205	0.135	1078041	keystroke	s	n/a
539.1405	0.119	1078281	keystroke	l	n/a
539.2295	0.105	1078459	keystroke	a	n/a
539.5605	0.075	1079121	keystroke	v	n/a
539.755	0.105	1079510	keystroke	e	n/a
539.845	0.12	1079690	keystroke	Key.space	n/a
540.58	0.09	1081160	keystroke	d	n/a
540.745	0.12	1081490	keystroke	e	n/a
540.895	0.105	1081790	keystroke	p	n/a
541.06	0.135	1082120	keystroke	a	n/a
541.18	0.0605	1082360	keystroke	r	n/a
541.3445	0.075	1082689	keystroke	t	n/a
541.4495	0.12	1082899	keystroke	m	n/a
541.5545	0.075	1083109	keystroke	e	n/a
541.6595	0.106	1083319	keystroke	n	n/a
541.7805	0.045	1083561	keystroke	t	n/a
541.99	0.1195	1083980	keystroke	Key.space	n/a
542.215	0.0905	1084430	keystroke	a	n/a
542.3955	0.075	1084791	keystroke	c	n/a
542.5455	0.06	1085091	keystroke	c	n/a
542.6205	0.075	1085241	keystroke	o	n/a
542.8155	0.12	1085631	keystroke	m	n/a
543.0105	0.0895	1086021	keystroke	p	n/a
543.22	0.1655	1086440	keystroke	l	n/a
543.34	0.1055	1086680	keystroke	i	n/a
543.4455	0.135	1086891	keystroke	s	n/a
543.5655	0.105	1087131	keystroke	h	n/a
543.685	0.075	1087370	keystroke	e	n/a
543.8655	0.0745	1087731	keystroke	d	n/a
544.0145	0.135	1088029	keystroke	Key.enter	n/a
544.1555	9.9265	1088311	prompt	n/a	standards ellis significantly node\n
544.795	0.15	1089590	keystroke	s	n/a
544.93	0.09	1089860	keystroke	t	n/a
545.065	0.12	1090130	keystroke	a	n/a
546.0705	0.105	1092141	keystroke	n	n/a
546.1605	0.12	1092321	keystroke	d	n/a
546.3405	0.15	1092681	keystroke	a	n/a
546.4755	0.09	1092951	keystroke	r	n/a
546.6555	0.09	1093311	keystroke	d	n/a
546.8055	0.1345	1093611	keystroke	s	n/a
546.9105	0.1045	1093821	keystroke	Key.space	n/a
547.1655	0.105	1094331	keystroke	e	n/a
547.3455	0.075	1094691	keystroke	l	n/a
547.4955	0.105	1094991	keystroke	l	n/a
547.7045	0.106	1095409	keystroke	i	n/a
547.7655	0.12	1095531	keystroke	s	n/a
549.1605	0.1195	1098321	keystroke	Key.space	n/a
549.895	0.135	1099790	keystroke	s	n/a
550.0905	0.12	1100181	keystroke	i	n/a
550.2545	0.075	1100509	keystroke	g	n/a
550.4045	0.121	1100809	keystroke	n	n/a
550.6745	0.105	1101349	keystroke	i	n/a
550.9745	0.091	1101949	keystroke	f	n/a
551.0955	0.104	1102191	keystroke	i	n/a
551.7705	0.059	1103541	keystroke	c	n/a
551.8755	0.104	1103751	keystroke	a	n/a
552.0095	0.1205	1104019	keystroke	n	n/a
552.146	0.1495	1104292	keystroke	t	n/a
552.3245	0.121	1104649	keystroke	l	n/a
552.4595	0.091	1104919	keystroke	y	n/a
552.6845	0.105	1105369	keystroke	Key.space	n/a
553.0745	0.105	1106149	keystroke	n	n/a
553.2545	0.1355	1106509	keystroke	o	n/a
553.345	0.06	1106690	keystroke	d	n/a
553.84	0.076	1107680	keystroke	e	n/a
553.975	0.105	1107950	keystroke	Key.enter	n/a
554.086	8.291	1108172	prompt	n/a	olympic arena shoppers investment\n
554.725	0.105	1109450	keystroke	o	n/a
555.19	0.1205	1110380	keystroke	l	n/a
555.3695	0.1055	1110739	keystroke	y	n/a
556.015	0.12	1112030	keystroke	m	n/a
556.21	0.0755	1112420	keystroke	p	n/a
556.3605	0.1045	1112721	keystroke	i	n/a
556.4505	0.135	1112901	keystroke	c	n/a
556.63	0.105	1113260	keystroke	Key.space	n/a
556.945	0.135	1113890	keystroke	a	n/a
557.065	0.06	1114130	keystroke	r	n/a
557.44	0.045	1114880	keystroke	e	n/a
557.545	0.09	1115090	keystroke	n	n/a
557.68	0.12	1115360	keystroke	a	n/a
557.905	0.12	1115810	keystroke	Key.space	n/a
558.145	0.105	1116290	keystroke	s	n/a
558.265	0.075	1116530	keystroke	h	n/a
558.43	0.075	1116860	keystroke	o	n/a
558.61	0.075	1117220	keystroke	p	n/a
558.76	0.105	1117520	keystroke	p	n/a
558.85	0.12	1117700	keystroke	e	n/a
559.09	0.09	1118180	keystroke	r	n/a
559.63	0.12	1119260	keystroke	s	n/a
559.855	0.09	1119710	keystroke	Key.space	n/a
560.245	0.075	1120490	keystroke	i	n/a
560.4855	0.0595	1120971	keystroke	n	n/a
560.62	0.105	1121240	keystroke	v	n/a
560.905	0.09	1121810	keystroke	e	n/a
561.4745	0.106	1122949	keystroke	s	n/a
561.6105	0.105	1123221	keystroke	t	n/a
561.8205	0.09	1123641	keystroke	m	n/a
561.8955	0.075	1123791	keystroke	e	n/a
562.0155	0.0895	1124031	keystroke	n	n/a
562.1055	0.104	1124211	keystroke	t	n/a
562.2705	0.104	1124541	keystroke	Key.enter	n/a
562.381	8.201	1124762	prompt	n/a	motor instrument receptor objectives\n
563.1095	0.075	1126219	keystroke	m	n/a
563.2605	0.09	1126521	keystroke	o	n/a
563.3055	0.119	1126611	keystroke	t	n/a
563.455	0.1045	1126910	keystroke	o	n/a
563.5745	0.136	1127149	keystroke	r	n/a
563.9205	0.105	1127841	keystroke	Key.space	n/a
564.1455	0.0745	1128291	keystroke	i	n/a
564.3255	0.1045	1128651	keystroke	n	n/a
564.4005	0.1045	1128801	keystroke	s	n/a
564.5955	0.0745	1129191	keystroke	t	n/a
564.76	0.105	1129520	keystroke	r	n/a
564.865	0.105	1129730	keystroke	u	n/a
565.465	0.09	1130930	keystroke	m	n/a
565.525	0.09	1131050	keystroke	e	n/a
565.6455	0.1345	1131291	keystroke	n	n/a
565.7645	0.106	1131529	keystroke	t	n/a
565.8845	0.12	1131769	keystroke	Key.space	n/a
566.1845	0.061	1132369	keystroke	r	n/a
566.4095	0.015	1132819	keystroke	e	n/a
566.53	0.1055	1133060	keystroke	c	n/a
566.7405	0.0895	1133481	keystroke	e	n/a
566.8755	0.0895	1133751	keystroke	p	n/a
567.025	0.105	1134050	keystroke	t	n/a
567.3845	0.1205	1134769	keystroke	o	n/a
567.5795	0.12	1135159	keystroke	r	n/a
567.7295	0.1355	1135459	keystroke	Key.space	n/a
568.2855	0.0745	1136571	keystroke	o	n/a
568.495	0.075	1136990	keystroke	b	n/a
568.705	0.09	1137410	keystroke	j	n/a
568.825	0.09	1137650	keystroke	e	n/a
569.095	0.075	1138190	keystroke	c	n/a
569.32	0.12	1138640	keystroke	t	n/a
569.665	0.09	1139330	keystroke	i	n/a
569.9205	0.075	1139841	keystroke	v	n/a
570.1145	0.076	1140229	keystroke	e	n/a
570.2655	0.12	1140531	keystroke	s	n/a
570.4455	0.1345	1140891	keystroke	Key.enter	n/a
570.586	10.6765	1141172	prompt	n/a	characteristic executed guam blocked\n
571.39	0.1195	1142780	keystroke	c	n/a
571.5395	0.106	1143079	keystroke	h	n/a
571.6755	0.105	1143351	keystroke	a	n/a
572.4555	0.105	1144911	keystroke	r	n/a
572.5755	0.12	1145151	keystroke	a	n/a
572.8155	0.075	1145631	keystroke	c	n/a
573.0555	0.075	1146111	keystroke	t	n/a
573.2505	0.0745	1146501	keystroke	e	n/a
573.4	0.0905	1146800	keystroke	r	n/a
573.5805	0.12	1147161	keystroke	i	n/a
573.6705	0.12	1147341	keystroke	s	n/a
574.0155	0.09	1148031	keystroke	t	n/a
574.1055	0.105	1148211	keystroke	i	n/a
574.2545	0.136	1148509	keystroke	c	n/a
574.3745	0.12	1148749	keystroke	Key.space	n/a
574.615	0.09	1149230	keystroke	e	n/a
574.81	0.09	1149620	keystroke	x	n/a
574.975	0.075	1149950	keystroke	c	n/a
575.7555	0.0745	1151511	keystroke	e	n/a
575.8	0.09	1151600	keystroke	Key.backspace	n/a
576.085	0.105	1152170	keystroke	c	n/a
576.22	0.105	1152440	keystroke	u	n/a
576.34	0.075	1152680	keystroke	t	n/a
576.535	0.09	1153070	keystroke	e	n/a
576.7305	0.12	1153461	keystroke	d	n/a
576.7895	0.12	1153579	keystroke	Key.space	n/a
577.1655	0.0895	1154331	keystroke	g	n/a
577.42	0.1355	1154840	keystroke	u	n/a
577.885	0.105	1155770	keystroke	a	n/a
577.975	0.12	1155950	keystroke	n	n/a
578.5	0.03	1157000	keystroke	Key.backspace	n/a
578.71	0.12	1157420	keystroke	Key.backspace	n/a
578.98	0.105	1157960	keystroke	m	n/a
579.086	0.089	1158172	keystroke	Key.space	n/a
579.4	0.0895	1158800	keystroke	b	n/a
579.58	0.0895	1159160	keystroke	l	n/a
579.76	0.1045	1159520	keystroke	o	n/a
579.88	0.1045	1159760	keystroke	c	n/a
579.9995	0.1205	1159999	keystroke	k	n/a
580.075	0.0745	1160150	keystroke	e	n/a
580.2695	0.12	1160539	keystroke	d	n/a
581.0955	0.1645	1162191	keystroke	Key.enter	n/a
581.2665	9.43	1162533	prompt	n/a	richardson mins chase contamination\n
582.055	0.12	1164110	keystroke	r	n/a
582.19	0.1355	1164380	keystroke	i	n/a
582.355	0.135	1164710	keystroke	c	n/a
582.475	0.09	1164950	keystroke	h	n/a
582.715	0.135	1165430	keystroke	a	n/a
582.82	0.09	1165640	keystroke	r	n/a
583.045	0.0905	1166090	keystroke	d	n/a
583.2705	0.0895	1166541	keystroke	s	n/a
583.3905	0.0745	1166781	keystroke	o	n/a
583.5705	0.1045	1167141	keystroke	n	n/a
583.69	0.09	1167380	keystroke	Key.space	n/a
583.84	0.0605	1167680	keystroke	m	n/a
583.945	0.105	1167890	keystroke	i	n/a
584.08	0.12	1168160	keystroke	n	n/a
584.7395	0.1355	1169479	keystroke	s	n/a
584.8445	0.12	1169689	keystroke	Key.space	n/a
585.1605	0.104	1170321	keystroke	c	n/a
585.2655	0.105	1170531	keystroke	h	n/a
585.43	0.1345	1170860	keystroke	a	n/a
585.7155	0.15	1171431	keystroke	s	n/a
585.7905	0.105	1171581	keystroke	e	n/a
586.105	0.12	1172210	keystroke	Key.space	n/a
588.3005	0.054	1176601	keystroke	c	n/a
588.3405	0.059	1176681	keystroke	o	n/a
588.505	0.1055	1177010	keystroke	n	n/a
588.6255	0.104	1177251	keystroke	t	n/a
589	0.135	1178000	keystroke	a	n/a
589.225	0.1205	1178450	keystroke	m	n/a
589.405	0.09	1178810	keystroke	i	n/a
589.6005	0.105	1179201	keystroke	n	n/a
589.9005	0.0895	1179801	keystroke	a	n/a
590.035	0.105	1180070	keystroke	t	n/a
590.08	0.105	1180160	keystroke	i	n/a
590.26	0.12	1180520	keystroke	o	n/a
590.305	0.135	1180610	keystroke	n	n/a
590.545	0.15	1181090	keystroke	Key.enter	n/a
590.701	8.921	1181402	prompt	n/a	machines opportunities dicke pounds\n
591.34	0.09	1182680	keystroke	a	n/a
591.6845	0.0905	1183369	keystroke	Key.backspace	n/a
591.9105	0.105	1183821	keystroke	m	n/a
591.9845	0.12	1183969	keystroke	a	n/a
592.255	0.1055	1184510	keystroke	c	n/a
592.3455	0.075	1184691	keystroke	h	n/a
592.3905	0.089	1184781	keystroke	i	n/a
592.5395	0.106	1185079	keystroke	n	n/a
592.5855	0.119	1185171	keystroke	e	n/a
592.7505	0.149	1185501	keystroke	s	n/a
592.8845	0.12	1185769	keystroke	Key.space	n/a
593.3495	0.091	1186699	keystroke	o	n/a
593.5755	0.045	1187151	keystroke	p	n/a
593.7855	0.0145	1187571	keystroke	p	n/a
593.8295	0.091	1187659	keystroke	o	n/a
593.9355	0.105	1187871	keystroke	r	n/a
594.1455	0.12	1188291	keystroke	t	n/a
594.4455	0.09	1188891	keystroke	u	n/a
594.6545	0.091	1189309	keystroke	n	n/a
594.8045	0.136	1189609	keystroke	i	n/a
594.9545	0.091	1189909	keystroke	t	n/a
595.0755	0.09	1190151	keystroke	i	n/a
595.1955	0.059	1190391	keystroke	e	n/a
595.3005	0.149	1190601	keystroke	s	n/a
595.6605	0.119	1191321	keystroke	Key.space	n/a
596.0055	0.105	1192011	keystroke	d	n/a
596.1255	0.09	1192251	keystroke	i	n/a
596.2605	0.105	1192521	keystroke	c	n/a
596.3955	0.12	1192791	keystroke	k	n/a
596.6645	0.1355	1193329	keystroke	e	n/a
596.8445	0.135	1193689	keystroke	Key.space	n/a
597.04	0.09	1194080	keystroke	p	n/a
597.175	0.075	1194350	keystroke	o	n/a
597.37	0.06	1194740	keystroke	u	n/a
597.52	0.135	1195040	keystroke	n	n/a
597.595	0.105	1195190	keystroke	d	n/a
597.835	0.09	1195670	keystroke	s	n/a
599.5145	0.105	1199029	keystroke	Key.enter	n/a
599.6265	6.1755	1199253	prompt	n/a	similar detected how'd launch\n
600.2655	0.15	1200531	keystroke	s	n/a
600.385	0.1055	1200770	keystroke	i	n/a
600.6095	0.06	1201219	keystroke	m	n/a
600.76	0.1045	1201520	keystroke	i	n/a
600.9705	0.105	1201941	keystroke	l	n/a
601.0455	0.134	1202091	keystroke	a	n/a
601.2105	0.12	1202421	keystroke	r	n/a
601.3745	0.136	1202749	keystroke	Key.space	n/a
601.6305	0.089	1203261	keystroke	d	n/a
601.8105	0.075	1203621	keystroke	e	n/a
602.0195	0.091	1204039	keystroke	t	n/a
602.41	0.09	1204820	keystroke	e	n/a
602.665	0.105	1205330	keystroke	c	n/a
602.905	0.0755	1205810	keystroke	t	n/a
603.1	0.045	1206200	keystroke	e	n/a
603.265	0.12	1206530	keystroke	d	n/a
603.34	0.12	1206680	keystroke	Key.space	n/a
603.5805	0.0745	1207161	keystroke	h	n/a
603.73	0.1505	1207460	keystroke	o	n/a
603.8805	0.119	1207761	keystroke	w	n/a
604.18	0.1055	1208360	keystroke	'	n/a
604.3445	0.12	1208689	keystroke	d	n/a
604.6295	0.1055	1209259	keystroke	Key.space	n/a
604.825	0.1055	1209650	keystroke	l	n/a
604.9445	0.091	1209889	keystroke	a	n/a
605.0655	0.045	1210131	keystroke	u	n/a
605.2155	0.1045	1210431	keystroke	n	n/a
605.335	0.135	1210670	keystroke	c	n/a
605.455	0.09	1210910	keystroke	h	n/a
605.665	0.135	1211330	keystroke	Key.enter	n/a
605.8075	7.284	1211615	prompt	n/a	automated left therapeutic match\n
606.565	0.105	1213130	keystroke	a	n/a
606.685	0.1055	1213370	keystroke	u	n/a
606.805	0.105	1213610	keystroke	t	n/a
606.94	0.1055	1213880	keystroke	o	n/a
607.195	0.1205	1214390	keystroke	m	n/a
607.2995	0.1205	1214599	keystroke	a	n/a
607.42	0.09	1214840	keystroke	t	n/a
607.615	0.075	1215230	keystroke	e	n/a
607.81	0.1205	1215620	keystroke	d	n/a
607.9145	0.12	1215829	keystroke	Key.space	n/a
608.1545	0.136	1216309	keystroke	l	n/a
608.2595	0.076	1216519	keystroke	e	n/a
608.4555	0.075	1216911	keystroke	f	n/a
608.6645	0.105	1217329	keystroke	t	n/a
608.935	0.12	1217870	keystroke	Key.space	n/a
609.3405	0.09	1218681	keystroke	t	n/a
609.4745	0.091	1218949	keystroke	h	n/a
609.6245	0.091	1219249	keystroke	e	n/a
610.3755	0.089	1220751	keystroke	r	n/a
610.5245	0.1355	1221049	keystroke	a	n/a
610.705	0.0895	1221410	keystroke	p	n/a
611.275	0.09	1222550	keystroke	e	n/a
611.41	0.1055	1222820	keystroke	u	n/a
611.6045	0.12	1223209	keystroke	t	n/a
611.6805	0.105	1223361	keystroke	i	n/a
611.8605	0.119	1223721	keystroke	c	n/a
612.1595	0.0905	1224319	keystroke	Key.space	n/a
612.3705	0.12	1224741	keystroke	m	n/a
612.4305	0.105	1224861	keystroke	a	n/a
612.5195	0.091	1225039	keystroke	t	n/a
612.7295	0.091	1225459	keystroke	c	n/a
612.7745	0.091	1225549	keystroke	h	n/a
