onset	duration	sample	value	key	prompt_text
4.4525	10.3125	8905	prompt	n/a	the quick brown fox jumps over a lazy dog\n
6.2745	0.043	12549	keystroke_t	t	n/a
6.3025	0.105	12605	keystroke_h	h	n/a
6.4375	0.12	12875	keystroke_e	e	n/a
6.6325	0.135	13265	keystroke_Key.space	Key.space	n/a
7.1425	0.135	14285	keystroke_q	q	n/a
7.3675	0.135	14735	keystroke_u	u	n/a
7.4575	0.12	14915	keystroke_i	i	n/a
7.7425	0.105	15485	keystroke_c	c	n/a
7.9075	0.165	15815	keystroke_k	k	n/a
8.0275	0.12	16055	keystroke_Key.space	Key.space	n/a
8.3875	0.105	16775	keystroke_b	b	n/a
8.7035	0.09	17407	keystroke_r	r	n/a
8.8685	0.105	17737	keystroke_o	o	n/a
9.0035	0.105	18007	keystroke_w	w	n/a
9.183	0.105	18366	keystroke_n	n	n/a
9.378	0.12	18756	keystroke_Key.space	Key.space	n/a
10.1585	0.03	20317	keystroke_f	f	n/a
10.2035	0.105	20407	keystroke_o	o	n/a
10.3235	0.135	20647	keystroke_x	x	n/a
10.5035	0.1495	21007	keystroke_Key.space	Key.space	n/a
10.668	0.091	21336	keystroke_j	j	n/a
10.8935	0.09	21787	keystroke_u	u	n/a
11.118	0.12	22236	keystroke_m	m	n/a
11.253	0.105	22506	keystroke_p	p	n/a
11.418	0.09	22836	keystroke_s	s	n/a
11.538	0.12	23076	keystroke_Key.space	Key.space	n/a
11.808	0.105	23616	keystroke_o	o	n/a
11.958	0.0905	23916	keystroke_v	v	n/a
12.0785	0.12	24157	keystroke_e	e	n/a
12.1685	0.105	24337	keystroke_r	r	n/a
12.2885	0.1045	24577	keystroke_Key.space	Key.space	n/a
12.408	0.1055	24816	keystroke_a	a	n/a
12.5435	0.135	25087	keystroke_Key.space	Key.space	n/a
12.6785	0.105	25357	keystroke_l	l	n/a
12.8285	0.1045	25657	keystroke_a	a	n/a
13.098	0.135	26196	keystroke_z	z	n/a
13.248	0.165	26496	keystroke_y	y	n/a
13.368	0.165	26736	keystroke_Key.space	Key.space	n/a
14.208	0.09	28416	keystroke_d	d	n/a
14.328	0.12	28656	keystroke_o	o	n/a
14.463	0.0895	28926	keystroke_g	g	n/a
14.6725	0.09	29345	keystroke_Key.enter	Key.enter	n/a
14.769	7.4665	29538	prompt	n/a	bigger newfoundland operator lawn\n
15.4375	0.0755	30875	keystroke_b	b	n/a
15.528	0.09	31056	keystroke_i	i	n/a
15.723	0.075	31446	keystroke_g	g	n/a
15.888	0.105	31776	keystroke_g	g	n/a
16.0535	0.1195	32107	keystroke_e	e	n/a
16.1285	0.1195	32257	keystroke_r	r	n/a
16.263	0.135	32526	keystroke_Key.space	Key.space	n/a
16.6685	0.12	33337	keystroke_n	n	n/a
16.8785	0.135	33757	keystroke_e	e	n/a
17.0585	0.12	34117	keystroke_w	w	n/a
17.6435	0.06	35287	keystroke_f	f	n/a
17.7635	0.135	35527	keystroke_o	o	n/a
17.8685	0.09	35737	keystroke_u	u	n/a
18.0785	0.09	36157	keystroke_n	n	n/a
18.2285	0.105	36457	keystroke_d	d	n/a
18.7385	0.09	37477	keystroke_l	l	n/a
18.8735	0.1195	37747	keystroke_a	a	n/a
18.978	0.105	37956	keystroke_n	n	n/a
19.113	0.09	38226	keystroke_d	d	n/a
19.263	0.15	38526	keystroke_Key.space	Key.space	n/a
19.608	0.09	39216	keystroke_o	o	n/a
19.728	0.165	39456	keystroke_p	p	n/a
19.923	0.12	39846	keystroke_e	e	n/a
20.013	0.1055	40026	keystroke_r	r	n/a
20.1485	0.12	40297	keystroke_a	a	n/a
20.2535	0.0895	40507	keystroke_t	t	n/a
20.463	0.105	40926	keystroke_o	o	n/a
20.658	0.09	41316	keystroke_r	r	n/a
20.823	0.105	41646	keystroke_Key.space	Key.space	n/a
21.273	0.105	42546	keystroke_l	l	n/a
21.408	0.105	42816	keystroke_a	a	n/a
21.663	0.09	43326	keystroke_w	w	n/a
21.888	0.105	43776	keystroke_n	n	n/a
22.143	0.09	44286	keystroke_Key.enter	Key.enter	n/a
22.2385	9.9715	44477	prompt	n/a	prison primarily orlando wrestling\n
22.9385	0.1345	45877	keystroke_p	p	n/a
23.104	0.104	46208	keystroke_r	r	n/a
23.253	0.121	46506	keystroke_i	i	n/a
23.688	0.075	47376	keystroke_s	s	n/a
24.453	0.15	48906	keystroke_o	o	n/a
24.633	0.15	49266	keystroke_n	n	n/a
24.813	0.15	49626	keystroke_Key.space	Key.space	n/a
25.083	0.135	50166	keystroke_p	p	n/a
25.233	0.12	50466	keystroke_r	r	n/a
25.413	0.135	50826	keystroke_i	i	n/a
25.863	0.12	51726	keystroke_m	m	n/a
26.088	0.15	52176	keystroke_a	a	n/a
26.239	0.089	52478	keystroke_r	r	n/a
27.063	0.105	54126	keystroke_i	i	n/a
27.228	0.1505	54456	keystroke_l	l	n/a
27.4535	0.15	54907	keystroke_y	y	n/a
27.5885	0.164	55177	keystroke_Key.space	Key.space	n/a
27.7835	0.12	55567	keystroke_o	o	n/a
27.9485	0.12	55897	keystroke_r	r	n/a
28.1275	0.106	56255	keystroke_l	l	n/a
28.2935	0.1345	56587	keystroke_a	a	n/a
28.413	0.09	56826	keystroke_n	n	n/a
28.608	0.105	57216	keystroke_d	d	n/a
28.788	0.12	57576	keystroke_o	o	n/a
28.968	0.165	57936	keystroke_Key.space	Key.space	n/a
29.3435	0.06	58687	keystroke_w	w	n/a
29.7185	0.1195	59437	keystroke_r	r	n/a
29.883	0.105	59766	keystroke_e	e	n/a
30.393	0.12	60786	keystroke_s	s	n/a
30.648	0.09	61296	keystroke_t	t	n/a
30.813	0.165	61626	keystroke_l	l	n/a
31.5485	0.15	63097	keystroke_i	i	n/a
31.6535	0.135	63307	keystroke_n	n	n/a
31.8035	0.105	63607	keystroke_g	g	n/a
32.1185	0.09	64237	keystroke_Key.enter	Key.enter	n/a
32.2135	9.3565	64427	prompt	n/a	hospitality year greetings similar\n
33.0785	0.105	66157	keystroke_h	h	n/a
33.5135	0.105	67027	keystroke_o	o	n/a
33.798	0.075	67596	keystroke_s	s	n/a
34.338	0.12	68676	keystroke_p	p	n/a
34.938	0.1055	69876	keystroke_i	i	n/a
35.1935	0.12	70387	keystroke_t	t	n/a
35.4335	0.09	70867	keystroke_a	a	n/a
35.6285	0.105	71257	keystroke_l	l	n/a
35.8535	0.09	71707	keystroke_i	i	n/a
36.0335	0.105	72067	keystroke_t	t	n/a
36.1685	0.165	72337	keystroke_y	y	n/a
36.3185	0.165	72637	keystroke_Key.space	Key.space	n/a
36.558	0.12	73116	keystroke_y	y	n/a
36.6935	0.1045	73387	keystroke_e	e	n/a
36.828	0.15	73656	keystroke_a	a	n/a
36.948	0.12	73896	keystroke_r	r	n/a
37.083	0.1505	74166	keystroke_Key.space	Key.space	n/a
37.3685	0.075	74737	keystroke_g	g	n/a
37.6085	0.12	75217	keystroke_e	e	n/a
38.163	0.09	76326	keystroke_Key.backspace	Key.backspace	n/a
38.298	0.075	76596	keystroke_r	r	n/a
38.613	0.075	77226	keystroke_e	e	n/a
38.793	0.076	77586	keystroke_e	e	n/a
39.063	0.075	78126	keystroke_t	t	n/a
39.153	0.1505	78306	keystroke_i	i	n/a
39.228	0.1505	78456	keystroke_n	n	n/a
39.3635	0.06	78727	keystroke_g	g	n/a
39.5285	0.09	79057	keystroke_s	s	n/a
39.6785	0.135	79357	keystroke_Key.space	Key.space	n/a
39.9635	0.0745	79927	keystroke_s	s	n/a
40.083	0.1655	80166	keystroke_i	i	n/a
40.2035	0.165	80407	keystroke_m	m	n/a
40.8035	0.105	81607	keystroke_i	i	n/a
40.9985	0.105	81997	keystroke_l	l	n/a
41.1185	0.15	82237	keystroke_a	a	n/a
41.2385	0.12	82477	keystroke_r	r	n/a
41.4635	0.105	82927	keystroke_Key.enter	Key.enter	n/a
41.5735	8.6365	83147	prompt	n/a	newspapers tour preferred yemen\n
42.3335	0.12	84667	keystroke_n	n	n/a
42.5285	0.1195	85057	keystroke_e	e	n/a
42.618	0.09	85236	keystroke_w	w	n/a
42.948	0.09	85896	keystroke_s	s	n/a
43.6385	0.105	87277	keystroke_a	a	n/a
44.0885	0.12	88177	keystroke_Key.backspace	Key.backspace	n/a
44.3885	0.12	88777	keystroke_p	p	n/a
44.5235	0.135	89047	keystroke_a	a	n/a
44.6585	0.09	89317	keystroke_p	p	n/a
44.8085	0.12	89617	keystroke_e	e	n/a
44.9135	0.1045	89827	keystroke_r	r	n/a
45.123	0.12	90246	keystroke_s	s	n/a
45.423	0.15	90846	keystroke_Key.space	Key.space	n/a
45.9935	0.1195	91987	keystroke_t	t	n/a
46.114	0.104	92228	keystroke_o	o	n/a
46.188	0.12	92376	keystroke_u	u	n/a
46.338	0.09	92676	keystroke_r	r	n/a
46.488	0.165	92976	keystroke_Key.space	Key.space	n/a
46.788	0.135	93576	keystroke_p	p	n/a
46.938	0.09	93876	keystroke_r	r	n/a
47.073	0.105	94146	keystroke_e	e	n/a
47.298	0.15	94596	keystroke_f	f	n/a
47.973	0.12	95946	keystroke_e	e	n/a
48.273	0.12	96546	keystroke_r	r	n/a
48.513	0.09	97026	keystroke_r	r	n/a
48.708	0.06	97416	keystroke_e	e	n/a
48.9035	0.0895	97807	keystroke_d	d	n/a
49.068	0.12	98136	keystroke_Key.space	Key.space	n/a
49.293	0.12	98586	keystroke_y	y	n/a
49.428	0.075	98856	keystroke_e	e	n/a
49.609	0.119	99218	keystroke_m	m	n/a
49.788	0.045	99576	keystroke_e	e	n/a
49.878	0.105	99756	keystroke_n	n	n/a
50.118	0.09	100236	keystroke_Key.enter	Key.enter	n/a
50.213	6.238	100426	prompt	n/a	bobby january cleaner trivia\n
50.8535	0.105	101707	keystroke_b	b	n/a
50.9735	0.105	101947	keystroke_o	o	n/a
51.1985	0.075	102397	keystroke_b	b	n/a
51.3335	0.09	102667	keystroke_b	b	n/a
51.4685	0.15	102937	keystroke_y	y	n/a
51.5885	0.18	103177	keystroke_Key.space	Key.space	n/a
51.7835	0.12	103567	keystroke_j	j	n/a
52.0235	0.12	104047	keystroke_a	a	n/a
52.1285	0.075	104257	keystroke_n	n	n/a
52.353	0.105	104706	keystroke_u	u	n/a
52.503	0.135	105006	keystroke_a	a	n/a
52.653	0.105	105306	keystroke_r	r	n/a
52.788	0.135	105576	keystroke_y	y	n/a
52.968	0.15	105936	keystroke_Key.space	Key.space	n/a
53.268	0.105	106536	keystroke_c	c	n/a
53.433	0.135	106866	keystroke_l	l	n/a
53.643	0.15	107286	keystroke_e	e	n/a
53.943	0.105	107886	keystroke_a	a	n/a
54.153	0.1205	108306	keystroke_n	n	n/a
54.3785	0.105	108757	keystroke_e	e	n/a
54.4385	0.165	108877	keystroke_r	r	n/a
54.6785	0.15	109357	keystroke_Key.space	Key.space	n/a
55.188	0.12	110376	keystroke_t	t	n/a
55.443	0.105	110886	keystroke_r	r	n/a
55.623	0.1205	111246	keystroke_i	i	n/a
55.8185	0.09	111637	keystroke_v	v	n/a
55.9535	0.12	111907	keystroke_i	i	n/a
56.1185	0.105	112237	keystroke_a	a	n/a
56.3585	0.09	112717	keystroke_Key.enter	Key.enter	n/a
56.4545	8.125	112909	prompt	n/a	countries burton surprised waves\n
57.2735	0.075	114547	keystroke_c	c	n/a
57.3335	0.105	114667	keystroke_o	o	n/a
57.768	0.105	115536	keystroke_u	u	n/a
57.978	0.09	115956	keystroke_n	n	n/a
58.158	0.105	116316	keystroke_t	t	n/a
58.383	0.105	116766	keystroke_r	r	n/a
58.503	0.12	117006	keystroke_i	i	n/a
58.713	0.075	117426	keystroke_e	e	n/a
58.893	0.09	117786	keystroke_s	s	n/a
59.403	0.165	118806	keystroke_Key.space	Key.space	n/a
59.688	0.135	119376	keystroke_b	b	n/a
59.853	0.12	119706	keystroke_u	u	n/a
60.018	0.075	120036	keystroke_r	r	n/a
60.228	0.06	120456	keystroke_t	t	n/a
60.378	0.15	120756	keystroke_o	o	n/a
60.513	0.165	121026	keystroke_n	n	n/a
60.663	0.135	121326	keystroke_Key.space	Key.space	n/a
61.023	0.09	122046	keystroke_s	s	n/a
61.218	0.15	122436	keystroke_u	u	n/a
61.428	0.135	122856	keystroke_r	r	n/a
61.713	0.15	123426	keystroke_p	p	n/a
62.058	0.12	124116	keystroke_r	r	n/a
62.253	0.12	124506	keystroke_i	i	n/a
62.4335	0.135	124867	keystroke_s	s	n/a
62.5385	0.1045	125077	keystroke_e	e	n/a
62.808	0.105	125616	keystroke_d	d	n/a
62.9885	0.15	125977	keystroke_Key.space	Key.space	n/a
63.3335	0.12	126667	keystroke_w	w	n/a
63.5435	0.165	127087	keystroke_a	a	n/a
63.8285	0.105	127657	keystroke_v	v	n/a
64.0235	0.105	128047	keystroke_e	e	n/a
64.2185	0.105	128437	keystroke_s	s	n/a
64.4735	0.105	128947	keystroke_Key.enter	Key.enter	n/a
64.5845	6.955	129169	prompt	n/a	origins heating happens round\n
65.283	0.09	130566	keystroke_o	o	n/a
65.403	0.075	130806	keystroke_r	r	n/a
65.643	0.09	131286	keystroke_i	i	n/a
66.138	0.075	132276	keystroke_g	g	n/a
66.348	0.1805	132696	keystroke_i	i	n/a
66.483	0.1505	132966	keystroke_n	n	n/a
66.8735	0.09	133747	keystroke_s	s	n/a
67.0835	0.164	134167	keystroke_Key.space	Key.space	n/a
67.4285	0.135	134857	keystroke_h	h	n/a
67.5785	0.15	135157	keystroke_e	e	n/a
67.8335	0.1045	135667	keystroke_a	a	n/a
68.073	0.09	136146	keystroke_t	t	n/a
68.223	0.195	136446	keystroke_i	i	n/a
68.343	0.15	136686	keystroke_n	n	n/a
68.538	0.075	137076	keystroke_g	g	n/a
68.673	0.18	137346	keystroke_Key.space	Key.space	n/a
68.943	0.105	137886	keystroke_h	h	n/a
68.973	0.09	137946	keystroke_a	a	n/a
69.573	0.075	139146	keystroke_p	p	n/a
69.753	0.105	139506	keystroke_p	p	n/a
69.888	0.09	139776	keystroke_e	e	n/a
70.038	0.105	140076	keystroke_n	n	n/a
70.233	0.09	140466	keystroke_s	s	n/a
70.413	0.135	140826	keystroke_Key.space	Key.space	n/a
70.698	0.09	141396	keystroke_r	r	n/a
70.803	0.135	141606	keystroke_o	o	n/a
70.878	0.12	141756	keystroke_u	u	n/a
71.103	0.105	142206	keystroke_n	n	n/a
71.253	0.09	142506	keystroke_d	d	n/a
71.418	0.12	142836	keystroke_Key.enter	Key.enter	n/a
71.5425	7.887	143085	prompt	n/a	float am objects drove\n
72.1975	0.09	144395	keystroke_f	f	n/a
72.3035	0.089	144607	keystroke_l	l	n/a
72.4825	0.091	144965	keystroke_o	o	n/a
72.6325	0.135	145265	keystroke_a	a	n/a
72.7825	0.12	145565	keystroke_t	t	n/a
72.9775	0.1505	145955	keystroke_Key.space	Key.space	n/a
73.323	0.06	146646	keystroke_e	e	n/a
73.728	0.105	147456	keystroke_Key.backspace	Key.backspace	n/a
73.863	0.12	147726	keystroke_a	a	n/a
74.028	0.075	148056	keystroke_n	n	n/a
74.148	0.12	148296	keystroke_Key.space	Key.space	n/a
74.343	0.12	148686	keystroke_o	o	n/a
75.093	0.09	150186	keystroke_Key.backspace	Key.backspace	n/a
75.258	0.09	150516	keystroke_Key.backspace	Key.backspace	n/a
75.423	0.09	150846	keystroke_Key.backspace	Key.backspace	n/a
75.708	0.09	151416	keystroke_m	m	n/a
75.993	0.12	151986	keystroke_Key.space	Key.space	n/a
76.368	0.09	152736	keystroke_o	o	n/a
76.548	0.105	153096	keystroke_b	b	n/a
76.728	0.105	153456	keystroke_j	j	n/a
76.968	0.105	153936	keystroke_u	u	n/a
77.478	0.09	154956	keystroke_Key.backspace	Key.backspace	n/a
77.583	0.0755	155166	keystroke_e	e	n/a
77.7935	0.1045	155587	keystroke_c	c	n/a
77.973	0.09	155946	keystroke_t	t	n/a
78.183	0.09	156366	keystroke_s	s	n/a
78.363	0.15	156726	keystroke_Key.space	Key.space	n/a
78.603	0.09	157206	keystroke_d	d	n/a
78.768	0.105	157536	keystroke_r	r	n/a
78.918	0.12	157836	keystroke_o	o	n/a
79.0525	0.09	158105	keystroke_v	v	n/a
79.1125	0.105	158225	keystroke_e	e	n/a
79.3225	0.105	158645	keystroke_Key.enter	Key.enter	n/a
79.433	12.0715	158866	prompt	n/a	auctions shouldn't've northeast island\n
80.3875	0.12	160775	keystroke_a	a	n/a
80.6125	0.105	161225	keystroke_u	u	n/a
80.8525	0.09	161705	keystroke_c	c	n/a
81.063	0.06	162126	keystroke_t	t	n/a
81.153	0.135	162306	keystroke_i	i	n/a
81.273	0.15	162546	keystroke_o	o	n/a
81.378	0.12	162756	keystroke_n	n	n/a
81.528	0.105	163056	keystroke_s	s	n/a
81.708	0.12	163416	keystroke_Key.space	Key.space	n/a
81.918	0.105	163836	keystroke_s	s	n/a
82.008	0.09	164016	keystroke_h	h	n/a
82.1135	0.1945	164227	keystroke_o	o	n/a
82.233	0.135	164466	keystroke_u	u	n/a
82.428	0.18	164856	keystroke_l	l	n/a
82.6675	0.075	165335	keystroke_d	d	n/a
83.448	0.15	166896	keystroke_'	'	n/a
84.1535	0.105	168307	keystroke_Key.backspace	Key.backspace	n/a
84.4085	0.135	168817	keystroke_n	n	n/a
84.4985	0.15	168997	keystroke_'	'	n/a
84.6785	0.104	169357	keystroke_t	t	n/a
86.3125	0.12	172625	keystroke_'	'	n/a
86.898	0.0895	173796	keystroke_v	v	n/a
87.0625	0.075	174125	keystroke_e	e	n/a
88.248	0.135	176496	keystroke_Key.space	Key.space	n/a
88.488	0.12	176976	keystroke_n	n	n/a
88.548	0.135	177096	keystroke_o	o	n/a
88.9075	0.106	177815	keystroke_r	r	n/a
89.2075	0.091	178415	keystroke_t	t	n/a
89.3275	0.105	178655	keystroke_h	h	n/a
89.5525	0.135	179105	keystroke_e	e	n/a
89.7325	0.15	179465	keystroke_a	a	n/a
89.8525	0.195	179705	keystroke_s	s	n/a
90.0025	0.12	180005	keystroke_t	t	n/a
90.1375	0.165	180275	keystroke_Key.space	Key.space	n/a
90.4085	0.134	180817	keystroke_i	i	n/a
90.6325	0.091	181265	keystroke_s	s	n/a
90.783	0.105	181566	keystroke_l	l	n/a
90.933	0.12	181866	keystroke_a	a	n/a
91.0675	0.105	182135	keystroke_n	n	n/a
91.2325	0.075	182465	keystroke_d	d	n/a
91.3825	0.12	182765	keystroke_Key.enter	Key.enter	n/a
91.508	6.6715	183016	prompt	n/a	minimal danger beer disclose\n
92.2975	0.1355	184595	keystroke_m	m	n/a
92.478	0.15	184956	keystroke_i	i	n/a
92.583	0.1345	185166	keystroke_n	n	n/a
92.808	0.075	185616	keystroke_i	i	n/a
93.1525	0.135	186305	keystroke_m	m	n/a
93.3175	0.12	186635	keystroke_a	a	n/a
93.4825	0.135	186965	keystroke_l	l	n/a
93.6475	0.1355	187295	keystroke_Key.space	Key.space	n/a
93.948	0.09	187896	keystroke_a	a	n/a
94.3685	0.09	188737	keystroke_Key.backspace	Key.backspace	n/a
94.4735	0.105	188947	keystroke_d	d	n/a
94.5935	0.12	189187	keystroke_a	a	n/a
94.7285	0.09	189457	keystroke_n	n	n/a
94.9235	0.09	189847	keystroke_g	g	n/a
95.0885	0.1195	190177	keystroke_e	e	n/a
95.193	0.105	190386	keystroke_r	r	n/a
95.328	0.15	190656	keystroke_Key.space	Key.space	n/a
95.568	0.075	191136	keystroke_b	b	n/a
95.748	0.075	191496	keystroke_e	e	n/a
95.9285	0.0745	191857	keystroke_e	e	n/a
96.123	0.09	192246	keystroke_r	r	n/a
96.363	0.135	192726	keystroke_Key.space	Key.space	n/a
96.858	0.09	193716	keystroke_d	d	n/a
96.9785	0.12	193957	keystroke_i	i	n/a
97.1435	0.06	194287	keystroke_s	s	n/a
97.4285	0.09	194857	keystroke_c	c	n/a
97.5335	0.075	195067	keystroke_l	l	n/a
97.7135	0.09	195427	keystroke_o	o	n/a
97.8335	0.09	195667	keystroke_s	s	n/a
97.8785	0.105	195757	keystroke_e	e	n/a
98.0725	0.105	196145	keystroke_Key.enter	Key.enter	n/a
98.1825	6.6725	196365	prompt	n/a	signal games distance countries\n
98.8085	0.075	197617	keystroke_s	s	n/a
98.8985	0.12	197797	keystroke_i	i	n/a
99.0775	0.091	198155	keystroke_g	g	n/a
99.2135	0.104	198427	keystroke_n	n	n/a
99.3925	0.09	198785	keystroke_a	a	n/a
99.5125	0.12	199025	keystroke_l	l	n/a
99.6475	0.15	199295	keystroke_Key.space	Key.space	n/a
100.0525	0.075	200105	keystroke_g	g	n/a
100.2635	0.105	200527	keystroke_a	a	n/a
100.4135	0.165	200827	keystroke_m	m	n/a
100.5625	0.06	201125	keystroke_e	e	n/a
100.6835	0.104	201367	keystroke_s	s	n/a
100.8775	0.12	201755	keystroke_Key.space	Key.space	n/a
101.0725	0.075	202145	keystroke_d	d	n/a
101.1925	0.12	202385	keystroke_i	i	n/a
101.3425	0.105	202685	keystroke_s	s	n/a
101.5675	0.075	203135	keystroke_t	t	n/a
101.7325	0.12	203465	keystroke_a	a	n/a
101.8675	0.105	203735	keystroke_n	n	n/a
102.0325	0.045	204065	keystroke_c	c	n/a
102.2275	0.06	204455	keystroke_e	e	n/a
102.4375	0.18	204875	keystroke_Key.space	Key.space	n/a
103.2175	0.105	206435	keystroke_c	c	n/a
103.338	0.15	206676	keystroke_o	o	n/a
103.443	0.105	206886	keystroke_u	u	n/a
103.653	0.105	207306	keystroke_n	n	n/a
103.818	0.12	207636	keystroke_t	t	n/a
104.028	0.1195	208056	keystroke_r	r	n/a
104.1925	0.135	208385	keystroke_i	i	n/a
104.3425	0.075	208685	keystroke_e	e	n/a
104.5375	0.075	209075	keystroke_s	s	n/a
104.748	0.105	209496	keystroke_Key.enter	Key.enter	n/a
104.86	7.6895	209720	prompt	n/a	mpeg spyware reasonably allows\n
105.5425	0.12	211085	keystroke_m	m	n/a
105.7375	0.1355	211475	keystroke_p	p	n/a
106.4275	0.09	212855	keystroke_e	e	n/a
106.5925	0.09	213185	keystroke_g	g	n/a
106.8025	0.135	213605	keystroke_Key.space	Key.space	n/a
107.3575	0.12	214715	keystroke_s	s	n/a
107.5375	0.135	215075	keystroke_p	p	n/a
107.7775	0.09	215555	keystroke_y	y	n/a
108.0475	0.06	216095	keystroke_w	w	n/a
108.2275	0.12	216455	keystroke_a	a	n/a
108.3775	0.12	216755	keystroke_r	r	n/a
108.4825	0.105	216965	keystroke_e	e	n/a
108.6475	0.165	217295	keystroke_Key.space	Key.space	n/a
109.098	0.1505	218196	keystroke_r	r	n/a
109.2035	0.075	218407	keystroke_e	e	n/a
109.3535	0.12	218707	keystroke_a	a	n/a
109.5335	0.09	219067	keystroke_s	s	n/a
109.7135	0.165	219427	keystroke_o	o	n/a
109.8335	0.15	219667	keystroke_n	n	n/a
110.298	0.09	220596	keystroke_a	a	n/a
110.568	0.09	221136	keystroke_b	b	n/a
110.778	0.12	221556	keystroke_l	l	n/a
110.943	0.15	221886	keystroke_y	y	n/a
111.108	0.165	222216	keystroke_Key.space	Key.space	n/a
111.393	0.12	222786	keystroke_a	a	n/a
111.528	0.09	223056	keystroke_l	l	n/a
111.693	0.09	223386	keystroke_l	l	n/a
111.873	0.0895	223746	keystroke_o	o	n/a
111.9935	0.105	223987	keystroke_w	w	n/a
112.2175	0.121	224435	keystroke_s	s	n/a
112.4435	0.105	224887	keystroke_Key.enter	Key.enter	n/a
112.553	6.087	225106	prompt	n/a	pregnant short holder admin\n
113.268	0.105	226536	keystroke_p	p	n/a
113.508	0.105	227016	keystroke_r	r	n/a
113.673	0.09	227346	keystroke_e	e	n/a
113.883	0.075	227766	keystroke_g	g	n/a
114.333	0.12	228666	keystroke_n	n	n/a
114.498	0.09	228996	keystroke_a	a	n/a
114.693	0.12	229386	keystroke_n	n	n/a
115.113	0.105	230226	keystroke_t	t	n/a
115.308	0.15	230616	keystroke_Key.space	Key.space	n/a
115.593	0.09	231186	keystroke_s	s	n/a
115.698	0.105	231396	keystroke_h	h	n/a
115.788	0.12	231576	keystroke_o	o	n/a
115.953	0.09	231906	keystroke_r	r	n/a
116.163	0.075	232326	keystroke_t	t	n/a
116.298	0.15	232596	keystroke_Key.space	Key.space	n/a
116.643	0.1045	233286	keystroke_h	h	n/a
116.7625	0.09	233525	keystroke_o	o	n/a
116.9575	0.105	233915	keystroke_l	l	n/a
117.0925	0.075	234185	keystroke_d	d	n/a
117.2875	0.09	234575	keystroke_e	e	n/a
117.3625	0.12	234725	keystroke_r	r	n/a
117.5125	0.105	235025	keystroke_Key.space	Key.space	n/a
117.738	0.12	235476	keystroke_a	a	n/a
117.933	0.06	235866	keystroke_d	d	n/a
118.053	0.12	236106	keystroke_m	m	n/a
118.203	0.135	236406	keystroke_i	i	n/a
118.308	0.09	236616	keystroke_n	n	n/a
118.533	0.105	237066	keystroke_Key.enter	Key.enter	n/a
118.6435	7.631	237287	prompt	n/a	dosage gifts encourage deposits\n
119.3275	0.09	238655	keystroke_d	d	n/a
119.4625	0.12	238925	keystroke_o	o	n/a
119.958	0.09	239916	keystroke_s	s	n/a
120.168	0.1195	240336	keystroke_a	a	n/a
120.3175	0.105	240635	keystroke_g	g	n/a
120.4375	0.075	240875	keystroke_e	e	n/a
120.6025	0.135	241205	keystroke_Key.space	Key.space	n/a
121.0375	0.075	242075	keystroke_g	g	n/a
121.1425	0.12	242285	keystroke_i	i	n/a
121.3975	0.09	242795	keystroke_f	f	n/a
121.6825	0.09	243365	keystroke_t	t	n/a
121.8925	0.09	243785	keystroke_s	s	n/a
122.1025	0.135	244205	keystroke_Key.space	Key.space	n/a
122.478	0.075	244956	keystroke_e	e	n/a
122.643	0.12	245286	keystroke_n	n	n/a
122.868	0.09	245736	keystroke_c	c	n/a
123.0925	0.15	246185	keystroke_o	o	n/a
123.3475	0.105	246695	keystroke_u	u	n/a
123.4825	0.135	246965	keystroke_r	r	n/a
123.6775	0.1955	247355	keystroke_a	a	n/a
123.843	0.12	247686	keystroke_g	g	n/a
123.978	0.075	247956	keystroke_e	e	n/a
124.143	0.15	248286	keystroke_Key.space	Key.space	n/a
124.398	0.09	248796	keystroke_d	d	n/a
124.608	0.075	249216	keystroke_e	e	n/a
124.803	0.12	249606	keystroke_p	p	n/a
124.998	0.105	249996	keystroke_o	o	n/a
125.268	0.075	250536	keystroke_s	s	n/a
125.403	0.09	250806	keystroke_i	i	n/a
125.673	0.105	251346	keystroke_t	t	n/a
125.943	0.09	251886	keystroke_s	s	n/a
126.198	0.075	252396	keystroke_Key.enter	Key.enter	n/a
126.278	7.8865	252556	prompt	n/a	accident meter affordable four\n
127.083	0.09	254166	keystroke_a	a	n/a
127.248	0.09	254496	keystroke_c	c	n/a
127.398	0.09	254796	keystroke_c	c	n/a
127.548	0.135	255096	keystroke_i	i	n/a
127.698	0.075	255396	keystroke_d	d	n/a
127.863	0.0745	255726	keystroke_e	e	n/a
127.9675	0.12	255935	keystroke_n	n	n/a
128.1325	0.09	256265	keystroke_t	t	n/a
128.3125	0.135	256625	keystroke_Key.space	Key.space	n/a
128.7335	0.12	257467	keystroke_m	m	n/a
128.8535	0.089	257707	keystroke_e	e	n/a
129.1535	0.075	258307	keystroke_t	t	n/a
129.528	0.21	259056	keystroke_e	e	n/a
129.678	0.12	259356	keystroke_r	r	n/a
129.917	0.12	259834	keystroke_Key.space	Key.space	n/a
130.293	0.165	260586	keystroke_a	a	n/a
130.443	0.09	260886	keystroke_f	f	n/a
130.6535	0.0745	261307	keystroke_f	f	n/a
130.818	0.06	261636	keystroke_f	f	n/a
130.968	0.105	261936	keystroke_o	o	n/a
131.388	0.09	262776	keystroke_Key.backspace	Key.backspace	n/a
131.553	0.09	263106	keystroke_Key.backspace	Key.backspace	n/a
131.973	0.09	263946	keystroke_o	o	n/a
132.138	0.105	264276	keystroke_r	r	n/a
132.348	0.075	264696	keystroke_d	d	n/a
132.573	0.135	265146	keystroke_a	a	n/a
132.798	0.075	265596	keystroke_b	b	n/a
132.933	0.105	265866	keystroke_l	l	n/a
133.068	0.075	266136	keystroke_e	e	n/a
133.188	0.1495	266376	keystroke_Key.space	Key.space	n/a
133.4585	0.089	266917	keystroke_f	f	n/a
133.5625	0.166	267125	keystroke_o	o	n/a
133.6535	0.135	267307	keystroke_u	u	n/a
133.8785	0.089	267757	keystroke_t	t	n/a
134.1475	0.015	268295	keystroke_Key.enter	Key.enter	n/a
134.1675	10.632	268335	prompt	n/a	displays patricia paperbacks promises\n
135.468	0.12	270936	keystroke_f	f	n/a
136.098	0.06	272196	keystroke_Key.backspace	Key.backspace	n/a
136.188	0.09	272376	keystroke_d	d	n/a
136.323	0.105	272646	keystroke_i	i	n/a
136.473	0.105	272946	keystroke_s	s	n/a
136.623	0.09	273246	keystroke_p	p	n/a
136.788	0.105	273576	keystroke_l	l	n/a
136.953	0.1345	273906	keystroke_a	a	n/a
137.1175	0.09	274235	keystroke_y	y	n/a
137.463	0.06	274926	keystroke_s	s	n/a
137.583	0.135	275166	keystroke_Key.space	Key.space	n/a
137.8525	0.105	275705	keystroke_a	a	n/a
137.9275	0.12	275855	keystroke_p	p	n/a
138.4375	0.09	276875	keystroke_Key.backspace	Key.backspace	n/a
138.6025	0.075	277205	keystroke_Key.backspace	Key.backspace	n/a
138.843	0.12	277686	keystroke_p	p	n/a
138.9775	0.105	277955	keystroke_a	a	n/a
139.1425	0.12	278285	keystroke_t	t	n/a
139.3675	0.09	278735	keystroke_r	r	n/a
139.4875	0.135	278975	keystroke_i	i	n/a
139.6825	0.09	279365	keystroke_c	c	n/a
139.8175	0.09	279635	keystroke_i	i	n/a
139.9825	0.09	279965	keystroke_a	a	n/a
140.148	0.15	280296	keystroke_Key.space	Key.space	n/a
140.823	0.1495	281646	keystroke_p	p	n/a
140.9575	0.135	281915	keystroke_a	a	n/a
141.1075	0.12	282215	keystroke_p	p	n/a
141.3025	0.15	282605	keystroke_e	e	n/a
141.4075	0.12	282815	keystroke_r	r	n/a
141.6775	0.075	283355	keystroke_b	b	n/a
141.8425	0.09	283685	keystroke_a	a	n/a
141.9775	0.105	283955	keystroke_c	c	n/a
142.1275	0.105	284255	keystroke_k	k	n/a
142.2775	0.105	284555	keystroke_s	s	n/a
142.4275	0.135	284855	keystroke_Key.space	Key.space	n/a
142.8025	0.135	285605	keystroke_p	p	n/a
142.9975	0.12	285995	keystroke_r	r	n/a
143.1325	0.135	286265	keystroke_o	o	n/a
143.2975	0.1655	286595	keystroke_m	m	n/a
143.433	0.12	286866	keystroke_i	i	n/a
143.568	0.135	287136	keystroke_s	s	n/a
143.673	0.105	287346	keystroke_e	e	n/a
144.198	0.06	288396	keystroke_s	s	n/a
144.678	0.12	289356	keystroke_Key.enter	Key.enter	n/a
144.81	6.7545	289620	prompt	n/a	enrolled carrying perfume true\n
145.653	0.09	291306	keystroke_e	e	n/a
145.758	0.105	291516	keystroke_n	n	n/a
145.938	0.105	291876	keystroke_r	r	n/a
146.058	0.09	292116	keystroke_o	o	n/a
146.268	0.045	292536	keystroke_l	l	n/a
146.418	0.09	292836	keystroke_l	l	n/a
146.538	0.075	293076	keystroke_e	e	n/a
146.7325	0.09	293465	keystroke_d	d	n/a
146.8825	0.165	293765	keystroke_Key.space	Key.space	n/a
147.1075	0.09	294215	keystroke_c	c	n/a
147.6025	0.045	295205	keystroke_a	a	n/a
147.7075	0.12	295415	keystroke_r	r	n/a
147.9475	0.09	295895	keystroke_r	r	n/a
148.2185	0.059	296437	keystroke_y	y	n/a
148.3975	0.166	296795	keystroke_i	i	n/a
148.5175	0.135	297035	keystroke_n	n	n/a
148.7585	0.089	297517	keystroke_g	g	n/a
148.8775	0.1505	297755	keystroke_Key.space	Key.space	n/a
149.088	0.135	298176	keystroke_p	p	n/a
149.268	0.1495	298536	keystroke_e	e	n/a
149.3875	0.12	298775	keystroke_r	r	n/a
149.688	0.075	299376	keystroke_f	f	n/a
149.913	0.105	299826	keystroke_u	u	n/a
150.138	0.105	300276	keystroke_m	m	n/a
150.318	0.09	300636	keystroke_e	e	n/a
150.453	0.15	300906	keystroke_Key.space	Key.space	n/a
150.768	0.09	301536	keystroke_t	t	n/a
150.963	0.09	301926	keystroke_r	r	n/a
151.128	0.135	302256	keystroke_u	u	n/a
151.278	0.075	302556	keystroke_e	e	n/a
151.473	0.09	302946	keystroke_Key.enter	Key.enter	n/a
151.5705	6.3235	303141	prompt	n/a	argued distance modem only\n
152.193	0.12	304386	keystroke_a	a	n/a
152.358	0.0895	304716	keystroke_r	r	n/a
152.5825	0.075	305165	keystroke_g	g	n/a
152.763	0.105	305526	keystroke_u	u	n/a
152.898	0.075	305796	keystroke_e	e	n/a
153.108	0.075	306216	keystroke_d	d	n/a
153.198	0.165	306396	keystroke_Key.space	Key.space	n/a
153.438	0.09	306876	keystroke_d	d	n/a
153.573	0.09	307146	keystroke_i	i	n/a
153.708	0.09	307416	keystroke_s	s	n/a
154.503	0.075	309006	keystroke_t	t	n/a
154.683	0.105	309366	keystroke_a	a	n/a
154.803	0.105	309606	keystroke_n	n	n/a
154.998	0.075	309996	keystroke_c	c	n/a
155.223	0.06	310446	keystroke_e	e	n/a
155.328	0.15	310656	keystroke_Key.space	Key.space	n/a
155.628	0.135	311256	keystroke_m	m	n/a
155.733	0.15	311466	keystroke_o	o	n/a
155.943	0.0745	311886	keystroke_d	d	n/a
156.1375	0.06	312275	keystroke_e	e	n/a
156.3175	0.135	312635	keystroke_m	m	n/a
156.6775	0.12	313355	keystroke_Key.space	Key.space	n/a
157.098	0.09	314196	keystroke_o	o	n/a
157.203	0.105	314406	keystroke_n	n	n/a
157.413	0.15	314826	keystroke_l	l	n/a
157.533	0.105	315066	keystroke_y	y	n/a
157.803	0.09	315606	keystroke_Key.enter	Key.enter	n/a
157.897	5.667	315794	prompt	n/a	clouds voting rent hearing\n
158.613	0.105	317226	keystroke_c	c	n/a
158.733	0.105	317466	keystroke_l	l	n/a
158.958	0.0445	317916	keystroke_o	o	n/a
159.0625	0.135	318125	keystroke_u	u	n/a
159.4825	0.12	318965	keystroke_d	d	n/a
159.6925	0.09	319385	keystroke_s	s	n/a
159.8875	0.165	319775	keystroke_Key.space	Key.space	n/a
160.2175	0.09	320435	keystroke_v	v	n/a
160.3375	0.12	320675	keystroke_o	o	n/a
160.5175	0.1055	321035	keystroke_t	t	n/a
160.638	0.165	321276	keystroke_i	i	n/a
160.728	0.15	321456	keystroke_n	n	n/a
160.878	0.075	321756	keystroke_g	g	n/a
160.9825	0.15	321965	keystroke_Key.space	Key.space	n/a
161.2225	0.15	322445	keystroke_r	r	n/a
161.4025	0.105	322805	keystroke_e	e	n/a
161.5675	0.12	323135	keystroke_n	n	n/a
161.7325	0.105	323465	keystroke_t	t	n/a
161.8675	0.165	323735	keystroke_Key.space	Key.space	n/a
162.3175	0.12	324635	keystroke_h	h	n/a
162.4525	0.135	324905	keystroke_e	e	n/a
162.6475	0.18	325295	keystroke_a	a	n/a
162.7825	0.12	325565	keystroke_r	r	n/a
162.9175	0.1505	325835	keystroke_i	i	n/a
162.993	0.15	325986	keystroke_n	n	n/a
163.173	0.059	326346	keystroke_g	g	n/a
163.4725	0.09	326945	keystroke_Key.enter	Key.enter	n/a
163.567	9.1475	327134	prompt	n/a	influences racial gang connected\n
164.2675	0.1495	328535	keystroke_i	i	n/a
164.372	0.121	328744	keystroke_n	n	n/a
164.612	0.1055	329224	keystroke_f	f	n/a
164.8075	0.165	329615	keystroke_l	l	n/a
164.9425	0.135	329885	keystroke_u	u	n/a
165.482	0.091	330964	keystroke_e	e	n/a
165.6325	0.1055	331265	keystroke_n	n	n/a
165.873	0.09	331746	keystroke_c	c	n/a
166.0825	0.075	332165	keystroke_e	e	n/a
166.2625	0.09	332525	keystroke_s	s	n/a
166.4125	0.18	332825	keystroke_Key.space	Key.space	n/a
166.8925	0.091	333785	keystroke_r	r	n/a
167.0425	0.09	334085	keystroke_a	a	n/a
167.2375	0.09	334475	keystroke_c	c	n/a
167.3725	0.12	334745	keystroke_i	i	n/a
167.5525	0.105	335105	keystroke_a	a	n/a
167.7025	0.135	335405	keystroke_l	l	n/a
167.8385	0.149	335677	keystroke_Key.space	Key.space	n/a
168.1375	0.135	336275	keystroke_j	j	n/a
168.7225	0.105	337445	keystroke_Key.backspace	Key.backspace	n/a
169.023	0.09	338046	keystroke_g	g	n/a
169.158	0.135	338316	keystroke_a	a	n/a
169.338	0.105	338676	keystroke_n	n	n/a
169.593	0.09	339186	keystroke_g	g	n/a
169.773	0.135	339546	keystroke_Key.space	Key.space	n/a
170.4625	0.0605	340925	keystroke_c	c	n/a
170.5075	0.1055	341015	keystroke_o	o	n/a
170.658	0.09	341316	keystroke_n	n	n/a
170.853	0.105	341706	keystroke_n	n	n/a
171.0625	0.09	342125	keystroke_e	e	n/a
171.3025	0.075	342605	keystroke_c	c	n/a
171.4675	0.1055	342935	keystroke_t	t	n/a
172.098	0.09	344196	keystroke_e	e	n/a
172.338	0.075	344676	keystroke_d	d	n/a
172.623	0.09	345246	keystroke_Key.enter	Key.enter	n/a
172.717	7.1675	345434	prompt	n/a	dispute funk examine problems\n
173.4475	0.09	346895	keystroke_d	d	n/a
173.6875	0.1195	347375	keystroke_i	i	n/a
173.898	0.075	347796	keystroke_s	s	n/a
174.137	0.136	348274	keystroke_p	p	n/a
174.407	0.106	348814	keystroke_u	u	n/a
174.588	0.1045	349176	keystroke_t	t	n/a
174.7535	0.09	349507	keystroke_e	e	n/a
174.9325	0.1355	349865	keystroke_Key.space	Key.space	n/a
175.323	0.075	350646	keystroke_f	f	n/a
175.473	0.09	350946	keystroke_u	u	n/a
175.923	0.09	351846	keystroke_n	n	n/a
176.208	0.105	352416	keystroke_k	k	n/a
176.433	0.12	352866	keystroke_Key.space	Key.space	n/a
176.748	0.075	353496	keystroke_e	e	n/a
176.943	0.1345	353886	keystroke_x	x	n/a
177.2125	0.105	354425	keystroke_a	a	n/a
177.3775	0.15	354755	keystroke_m	m	n/a
177.5875	0.165	355175	keystroke_i	i	n/a
177.7225	0.1355	355445	keystroke_n	n	n/a
177.978	0.09	355956	keystroke_e	e	n/a
178.128	0.135	356256	keystroke_Key.space	Key.space	n/a
178.398	0.15	356796	keystroke_p	p	n/a
178.578	0.09	357156	keystroke_r	r	n/a
178.713	0.105	357426	keystroke_o	o	n/a
178.893	0.0745	357786	keystroke_b	b	n/a
179.0275	0.105	358055	keystroke_l	l	n/a
179.2075	0.105	358415	keystroke_e	e	n/a
179.3725	0.12	358745	keystroke_m	m	n/a
179.5675	0.075	359135	keystroke_s	s	n/a
179.792	0.091	359584	keystroke_Key.enter	Key.enter	n/a
179.8875	8.697	359775	prompt	n/a	remainder blond shake andale\n
180.6925	0.151	361385	keystroke_r	r	n/a
180.8285	0.1035	361657	keystroke_e	e	n/a
180.977	0.106	361954	keystroke_a	a	n/a
181.083	0.134	362166	keystroke_m	m	n/a
181.323	0.18	362646	keystroke_i	i	n/a
181.428	0.165	362856	keystroke_n	n	n/a
182.043	0.09	364086	keystroke_Key.backspace	Key.backspace	n/a
182.238	0.075	364476	keystroke_Key.backspace	Key.backspace	n/a
182.418	0.075	364836	keystroke_Key.backspace	Key.backspace	n/a
182.568	0.12	365136	keystroke_Key.backspace	Key.backspace	n/a
182.8525	0.105	365705	keystroke_m	m	n/a
183.003	0.12	366006	keystroke_a	a	n/a
183.153	0.12	366306	keystroke_i	i	n/a
183.243	0.12	366486	keystroke_n	n	n/a
183.483	0.075	366966	keystroke_d	d	n/a
183.678	0.135	367356	keystroke_e	e	n/a
183.768	0.135	367536	keystroke_r	r	n/a
183.948	0.15	367896	keystroke_Key.space	Key.space	n/a
184.398	0.09	368796	keystroke_b	b	n/a
184.503	0.09	369006	keystroke_l	l	n/a
184.698	0.09	369396	keystroke_o	o	n/a
184.968	0.105	369936	keystroke_n	n	n/a
185.208	0.075	370416	keystroke_d	d	n/a
185.373	0.135	370746	keystroke_Key.space	Key.space	n/a
185.793	0.09	371586	keystroke_s	s	n/a
185.928	0.12	371856	keystroke_h	h	n/a
186.078	0.135	372156	keystroke_a	a	n/a
186.378	0.09	372756	keystroke_k	k	n/a
186.558	0.09	373116	keystroke_e	e	n/a
186.768	0.12	373536	keystroke_Key.space	Key.space	n/a
187.2475	0.105	374495	keystroke_a	a	n/a
187.3975	0.12	374795	keystroke_n	n	n/a
187.6675	0.06	375335	keystroke_d	d	n/a
187.878	0.105	375756	keystroke_a	a	n/a
188.088	0.12	376176	keystroke_l	l	n/a
188.253	0.09	376506	keystroke_e	e	n/a
188.493	0.09	376986	keystroke_Key.enter	Key.enter	n/a
188.5885	7.856	377177	prompt	n/a	lopez logistics treasury discover\n
189.2275	0.09	378455	keystroke_l	l	n/a
189.4675	0.09	378935	keystroke_o	o	n/a
189.6925	0.12	379385	keystroke_p	p	n/a
189.9325	0.09	379865	keystroke_e	e	n/a
190.1875	0.12	380375	keystroke_z	z	n/a
190.4125	0.165	380825	keystroke_Key.space	Key.space	n/a
190.7425	0.06	381485	keystroke_l	l	n/a
190.9225	0.09	381845	keystroke_o	o	n/a
191.1325	0.09	382265	keystroke_g	g	n/a
191.2975	0.12	382595	keystroke_i	i	n/a
191.4775	0.15	382955	keystroke_s	s	n/a
191.5825	0.15	383165	keystroke_t	t	n/a
191.8375	0.09	383675	keystroke_i	i	n/a
192.0475	0.075	384095	keystroke_c	c	n/a
192.3025	0.09	384605	keystroke_s	s	n/a
192.5275	0.15	385055	keystroke_Key.space	Key.space	n/a
193.0375	0.105	386075	keystroke_t	t	n/a
193.2175	0.15	386435	keystroke_r	r	n/a
193.3675	0.12	386735	keystroke_e	e	n/a
193.5925	0.105	387185	keystroke_a	a	n/a
193.8175	0.105	387635	keystroke_s	s	n/a
194.0275	0.135	388055	keystroke_u	u	n/a
194.1775	0.09	388355	keystroke_r	r	n/a
194.3425	0.12	388685	keystroke_y	y	n/a
194.5525	0.135	389105	keystroke_Key.space	Key.space	n/a
194.8225	0.09	389645	keystroke_d	d	n/a
194.9425	0.1495	389885	keystroke_i	i	n/a
195.227	0.105	390454	keystroke_s	s	n/a
195.527	0.09	391054	keystroke_c	c	n/a
195.677	0.12	391354	keystroke_o	o	n/a
195.917	0.075	391834	keystroke_v	v	n/a
196.053	0.134	392106	keystroke_e	e	n/a
196.157	0.09	392314	keystroke_r	r	n/a
196.338	0.104	392676	keystroke_Key.enter	Key.enter	n/a
196.447	8.052	392894	prompt	n/a	protect browser tennessee bicycle\n
197.132	0.135	394264	keystroke_p	p	n/a
197.312	0.105	394624	keystroke_r	r	n/a
197.402	0.09	394804	keystroke_o	o	n/a
197.597	0.12	395194	keystroke_t	t	n/a
197.762	0.0755	395524	keystroke_e	e	n/a
197.9875	0.09	395975	keystroke_c	c	n/a
198.1375	0.12	396275	keystroke_t	t	n/a
198.3175	0.165	396635	keystroke_Key.space	Key.space	n/a
198.8125	0.075	397625	keystroke_b	b	n/a
199.0525	0.09	398105	keystroke_r	r	n/a
199.2175	0.105	398435	keystroke_o	o	n/a
199.5175	0.015	399035	keystroke_w	w	n/a
200.027	0.1205	400054	keystroke_s	s	n/a
200.3425	0.15	400685	keystroke_e	e	n/a
200.4625	0.15	400925	keystroke_r	r	n/a
200.7025	0.135	401405	keystroke_Key.space	Key.space	n/a
200.9125	0.135	401825	keystroke_t	t	n/a
201.1525	0.105	402305	keystroke_e	e	n/a
201.3175	0.1055	402635	keystroke_n	n	n/a
201.4825	0.12	402965	keystroke_n	n	n/a
201.6625	0.105	403325	keystroke_e	e	n/a
201.9175	0.075	403835	keystroke_s	s	n/a
202.0835	0.119	404167	keystroke_s	s	n/a
202.4575	0.075	404915	keystroke_e	e	n/a
202.6225	0.0905	405245	keystroke_e	e	n/a
202.818	0.15	405636	keystroke_Key.space	Key.space	n/a
203.073	0.105	406146	keystroke_b	b	n/a
203.238	0.105	406476	keystroke_i	i	n/a
203.493	0.09	406986	keystroke_c	c	n/a
203.718	0.105	407436	keystroke_y	y	n/a
203.868	0.09	407736	keystroke_c	c	n/a
204.0475	0.09	408095	keystroke_l	l	n/a
204.1975	0.075	408395	keystroke_e	e	n/a
204.3925	0.105	408785	keystroke_Key.enter	Key.enter	n/a
204.502	11.7725	409004	prompt	n/a	antarctica farms exhibition trinidad\n
205.292	0.1205	410584	keystroke_a	a	n/a
205.502	0.106	411004	keystroke_n	n	n/a
205.728	0.0895	411456	keystroke_t	t	n/a
205.9375	0.1355	411875	keystroke_a	a	n/a
206.088	0.09	412176	keystroke_r	r	n/a
206.388	0.12	412776	keystroke_c	c	n/a
206.7925	0.105	413585	keystroke_t	t	n/a
206.9875	0.135	413975	keystroke_i	i	n/a
207.2275	0.1205	414455	keystroke_c	c	n/a
207.393	0.135	414786	keystroke_a	a	n/a
207.558	0.165	415116	keystroke_Key.space	Key.space	n/a
208.367	0.076	416734	keystroke_g	g	n/a
208.938	0.105	417876	keystroke_Key.backspace	Key.backspace	n/a
209.058	0.12	418116	keystroke_f	f	n/a
209.358	0.165	418716	keystroke_a	a	n/a
209.553	0.105	419106	keystroke_r	r	n/a
209.733	0.12	419466	keystroke_m	m	n/a
209.958	0.1045	419916	keystroke_s	s	n/a
210.1525	0.135	420305	keystroke_Key.space	Key.space	n/a
210.5725	0.075	421145	keystroke_e	e	n/a
210.7975	0.12	421595	keystroke_x	x	n/a
211.0075	0.1345	422015	keystroke_h	h	n/a
211.622	0.105	423244	keystroke_i	i	n/a
211.817	0.12	423634	keystroke_b	b	n/a
211.997	0.12	423994	keystroke_i	i	n/a
212.222	0.09	424444	keystroke_t	t	n/a
212.327	0.135	424654	keystroke_i	i	n/a
212.477	0.1355	424954	keystroke_o	o	n/a
212.5825	0.18	425165	keystroke_n	n	n/a
212.7625	0.1195	425525	keystroke_Key.space	Key.space	n/a
213.6625	0.105	427325	keystroke_t	t	n/a
213.8725	0.105	427745	keystroke_r	r	n/a
214.0225	0.18	428045	keystroke_i	i	n/a
214.1725	0.165	428345	keystroke_n	n	n/a
215.0275	0.12	430055	keystroke_i	i	n/a
215.4475	0.1055	430895	keystroke_d	d	n/a
215.6125	0.09	431225	keystroke_a	a	n/a
215.898	0.059	431796	keystroke_d	d	n/a
216.182	0.09	432364	keystroke_Key.enter	Key.enter	n/a
216.2775	8.9815	432555	prompt	n/a	departmental tray guild screensaver\n
216.993	0.074	433986	keystroke_d	d	n/a
217.187	0.075	434374	keystroke_e	e	n/a
217.337	0.121	434674	keystroke_p	p	n/a
217.502	0.165	435004	keystroke_a	a	n/a
217.638	0.089	435276	keystroke_r	r	n/a
217.907	0.09	435814	keystroke_t	t	n/a
218.237	0.09	436474	keystroke_m	m	n/a
218.6725	0.12	437345	keystroke_e	e	n/a
218.9125	0.12	437825	keystroke_n	n	n/a
219.0925	0.105	438185	keystroke_t	t	n/a
219.3625	0.105	438725	keystroke_a	a	n/a
219.5125	0.135	439025	keystroke_l	l	n/a
219.6925	0.15	439385	keystroke_Key.space	Key.space	n/a
220.1275	0.105	440255	keystroke_t	t	n/a
220.3675	0.105	440735	keystroke_r	r	n/a
220.5325	0.105	441065	keystroke_a	a	n/a
220.7275	0.165	441455	keystroke_y	y	n/a
220.8625	0.15	441725	keystroke_Key.space	Key.space	n/a
221.1925	0.12	442385	keystroke_g	g	n/a
221.4325	0.09	442865	keystroke_u	u	n/a
221.6425	0.09	443285	keystroke_i	i	n/a
221.8375	0.105	443675	keystroke_l	l	n/a
222.0325	0.105	444065	keystroke_d	d	n/a
222.2275	0.18	444455	keystroke_Key.space	Key.space	n/a
222.6325	0.105	445265	keystroke_s	s	n/a
222.8725	0.15	445745	keystroke_c	c	n/a
223.1125	0.12	446225	keystroke_r	r	n/a
223.353	0.075	446706	keystroke_e	e	n/a
223.532	0.09	447064	keystroke_e	e	n/a
223.788	0.105	447576	keystroke_n	n	n/a
223.952	0.136	447904	keystroke_s	s	n/a
224.252	0.195	448504	keystroke_a	a	n/a
224.552	0.136	449104	keystroke_v	v	n/a
224.763	0.135	449526	keystroke_e	e	n/a
224.868	0.119	449736	keystroke_r	r	n/a
225.1675	0.09	450335	keystroke_Key.enter	Key.enter	n/a
225.2625	8.277	450525	prompt	n/a	kids entertainment continuity said\n
225.9475	0.0905	451895	keystroke_k	k	n/a
226.158	0.119	452316	keystroke_i	i	n/a
226.322	0.09	452644	keystroke_d	d	n/a
226.487	0.09	452974	keystroke_s	s	n/a
226.622	0.135	453244	keystroke_Key.space	Key.space	n/a
226.908	0.09	453816	keystroke_e	e	n/a
227.027	0.121	454054	keystroke_n	n	n/a
227.222	0.135	454444	keystroke_t	t	n/a
227.402	0.166	454804	keystroke_e	e	n/a
227.507	0.105	455014	keystroke_r	r	n/a
227.9275	0.105	455855	keystroke_t	t	n/a
228.1825	0.09	456365	keystroke_a	a	n/a
228.4075	0.195	456815	keystroke_i	i	n/a
228.5575	0.135	457115	keystroke_n	n	n/a
228.842	0.1205	457684	keystroke_m	m	n/a
229.0225	0.12	458045	keystroke_e	e	n/a
229.1575	0.12	458315	keystroke_n	n	n/a
229.3225	0.105	458645	keystroke_t	t	n/a
229.4425	0.15	458885	keystroke_Key.space	Key.space	n/a
229.7575	0.09	459515	keystroke_c	c	n/a
229.8325	0.195	459665	keystroke_o	o	n/a
229.9825	0.12	459965	keystroke_u	u	n/a
230.6425	0.09	461285	keystroke_Key.backspace	Key.backspace	n/a
230.9425	0.09	461885	keystroke_n	n	n/a
231.1975	0.12	462395	keystroke_t	t	n/a
231.3025	0.18	462605	keystroke_i	i	n/a
231.4375	0.135	462875	keystroke_n	n	n/a
231.7375	0.12	463475	keystroke_u	u	n/a
231.9175	0.1195	463835	keystroke_i	i	n/a
232.097	0.12	464194	keystroke_t	t	n/a
232.232	0.105	464464	keystroke_y	y	n/a
232.397	0.15	464794	keystroke_Key.space	Key.space	n/a
232.728	0.105	465456	keystroke_s	s	n/a
232.938	0.105	465876	keystroke_a	a	n/a
233.103	0.134	466206	keystroke_i	i	n/a
233.268	0.09	466536	keystroke_d	d	n/a
233.433	0.104	466866	keystroke_Key.enter	Key.enter	n/a
233.5435	9.2205	467087	prompt	n/a	cheaper overseas carry mississippi\n
234.212	0.12	468424	keystroke_c	c	n/a
234.348	0.119	468696	keystroke_h	h	n/a
234.482	0.105	468964	keystroke_e	e	n/a
234.603	0.1045	469206	keystroke_a	a	n/a
234.7375	0.12	469475	keystroke_p	p	n/a
234.8875	0.105	469775	keystroke_e	e	n/a
234.963	0.1195	469926	keystroke_r	r	n/a
235.1125	0.135	470225	keystroke_Key.space	Key.space	n/a
235.3525	0.105	470705	keystroke_o	o	n/a
235.5025	0.12	471005	keystroke_v	v	n/a
235.6525	0.12	471305	keystroke_e	e	n/a
235.7575	0.105	471515	keystroke_r	r	n/a
235.9825	0.135	471965	keystroke_s	s	n/a
236.1025	0.135	472205	keystroke_e	e	n/a
236.2825	0.135	472565	keystroke_a	a	n/a
236.4775	0.105	472955	keystroke_s	s	n/a
236.6425	0.15	473285	keystroke_Key.space	Key.space	n/a
236.8675	0.09	473735	keystroke_c	c	n/a
237.4375	0.09	474875	keystroke_a	a	n/a
237.6475	0.06	475295	keystroke_r	r	n/a
237.8125	0.09	475625	keystroke_r	r	n/a
237.963	0.18	475926	keystroke_y	y	n/a
238.128	0.1495	476256	keystroke_Key.space	Key.space	n/a
238.757	0.18	477514	keystroke_m	m	n/a
238.907	0.12	477814	keystroke_i	i	n/a
239.072	0.09	478144	keystroke_s	s	n/a
239.237	0.09	478474	keystroke_s	s	n/a
239.447	0.15	478894	keystroke_i	i	n/a
240.888	0.075	481776	keystroke_s	s	n/a
241.068	0.09	482136	keystroke_s	s	n/a
241.248	0.165	482496	keystroke_i	i	n/a
241.488	0.12	482976	keystroke_p	p	n/a
242.163	0.105	484326	keystroke_p	p	n/a
242.433	0.105	484866	keystroke_i	i	n/a
242.673	0.0895	485346	keystroke_Key.enter	Key.enter	n/a
242.7675	6.6265	485535	prompt	n/a	carpet duke persons reactions\n
243.7075	0.1195	487415	keystroke_c	c	n/a
243.887	0.151	487774	keystroke_a	a	n/a
244.023	0.104	488046	keystroke_r	r	n/a
244.187	0.121	488374	keystroke_p	p	n/a
244.308	0.119	488616	keystroke_e	e	n/a
244.442	0.105	488884	keystroke_t	t	n/a
244.592	0.135	489184	keystroke_Key.space	Key.space	n/a
244.922	0.09	489844	keystroke_d	d	n/a
245.042	0.1055	490084	keystroke_u	u	n/a
245.2525	0.105	490505	keystroke_k	k	n/a
245.4175	0.105	490835	keystroke_e	e	n/a
245.5675	0.15	491135	keystroke_Key.space	Key.space	n/a
245.8975	0.135	491795	keystroke_p	p	n/a
246.0925	0.165	492185	keystroke_e	e	n/a
246.2425	0.12	492485	keystroke_r	r	n/a
246.4675	0.09	492935	keystroke_s	s	n/a
246.6475	0.195	493295	keystroke_o	o	n/a
246.7825	0.135	493565	keystroke_n	n	n/a
247.0525	0.09	494105	keystroke_s	s	n/a
247.2775	0.1345	494555	keystroke_Key.space	Key.space	n/a
247.8475	0.06	495695	keystroke_r	r	n/a
247.8775	0.1045	495755	keystroke_e	e	n/a
248.057	0.165	496114	keystroke_a	a	n/a
248.267	0.09	496534	keystroke_c	c	n/a
248.477	0.09	496954	keystroke_t	t	n/a
248.597	0.165	497194	keystroke_i	i	n/a
248.747	0.165	497494	keystroke_o	o	n/a
248.882	0.135	497764	keystroke_n	n	n/a
249.077	0.1055	498154	keystroke_s	s	n/a
249.2875	0.105	498575	keystroke_Key.enter	Key.enter	n/a
249.397	6.4025	498794	prompt	n/a	her apart promotes notebooks\n
250.2325	0.12	500465	keystroke_h	h	n/a
250.3675	0.15	500735	keystroke_e	e	n/a
250.4875	0.1195	500975	keystroke_r	r	n/a
250.592	0.135	501184	keystroke_Key.space	Key.space	n/a
250.787	0.12	501574	keystroke_a	a	n/a
250.952	0.105	501904	keystroke_p	p	n/a
251.177	0.225	502354	keystroke_a	a	n/a
251.372	0.105	502744	keystroke_r	r	n/a
251.612	0.105	503224	keystroke_t	t	n/a
251.792	0.1655	503584	keystroke_Key.space	Key.space	n/a
252.138	0.15	504276	keystroke_p	p	n/a
252.348	0.12	504696	keystroke_r	r	n/a
252.468	0.12	504936	keystroke_o	o	n/a
252.618	0.165	505236	keystroke_m	m	n/a
252.753	0.12	505506	keystroke_o	o	n/a
252.948	0.105	505896	keystroke_t	t	n/a
253.098	0.075	506196	keystroke_e	e	n/a
253.533	0.075	507066	keystroke_s	s	n/a
253.758	0.15	507516	keystroke_Key.space	Key.space	n/a
254.133	0.12	508266	keystroke_n	n	n/a
254.223	0.12	508446	keystroke_o	o	n/a
254.373	0.12	508746	keystroke_t	t	n/a
254.583	0.06	509166	keystroke_e	e	n/a
254.778	0.09	509556	keystroke_b	b	n/a
254.928	0.0895	509856	keystroke_o	o	n/a
255.0925	0.12	510185	keystroke_o	o	n/a
255.2275	0.075	510455	keystroke_o	o	n/a
255.3175	0.09	510635	keystroke_k	k	n/a
255.4675	0.105	510935	keystroke_s	s	n/a
255.6925	0.105	511385	keystroke_Key.enter	Key.enter	n/a
255.803	8.921	511606	prompt	n/a	sailing management canberra dressed\n
256.8925	0.06	513785	keystroke_s	s	n/a
257.0875	0.09	514175	keystroke_a	a	n/a
257.628	0.09	515256	keystroke_i	i	n/a
257.853	0.09	515706	keystroke_l	l	n/a
258.048	0.1795	516096	keystroke_i	i	n/a
258.168	0.1345	516336	keystroke_n	n	n/a
258.3325	0.09	516665	keystroke_g	g	n/a
258.4825	0.105	516965	keystroke_Key.space	Key.space	n/a
258.6475	0.12	517295	keystroke_m	m	n/a
258.7825	0.12	517565	keystroke_a	a	n/a
258.9175	0.1045	517835	keystroke_n	n	n/a
259.037	0.106	518074	keystroke_a	a	n/a
259.202	0.105	518404	keystroke_g	g	n/a
259.5325	0.075	519065	keystroke_e	e	n/a
259.8625	0.105	519725	keystroke_m	m	n/a
260.0275	0.0905	520055	keystroke_e	e	n/a
260.162	0.091	520324	keystroke_n	n	n/a
260.2825	0.105	520565	keystroke_t	t	n/a
260.4775	0.15	520955	keystroke_Key.space	Key.space	n/a
261.257	0.12	522514	keystroke_c	c	n/a
261.4975	0.09	522995	keystroke_a	a	n/a
261.6775	0.135	523355	keystroke_n	n	n/a
261.9175	0.12	523835	keystroke_b	b	n/a
262.1725	0.09	524345	keystroke_e	e	n/a
262.3675	0.0595	524735	keystroke_r	r	n/a
262.517	0.091	525034	keystroke_r	r	n/a
262.667	0.1205	525334	keystroke_a	a	n/a
262.8625	0.15	525725	keystroke_Key.space	Key.space	n/a
263.1475	0.075	526295	keystroke_d	d	n/a
263.4025	0.105	526805	keystroke_r	r	n/a
263.5525	0.1045	527105	keystroke_e	e	n/a
263.792	0.075	527584	keystroke_s	s	n/a
263.972	0.075	527944	keystroke_s	s	n/a
264.152	0.06	528304	keystroke_e	e	n/a
264.347	0.09	528694	keystroke_d	d	n/a
264.632	0.09	529264	keystroke_Key.enter	Key.enter	n/a
264.7275	9.1165	529455	prompt	n/a	gerald cleanup circuits egypt\n
265.5625	0.12	531125	keystroke_g	g	n/a
265.8025	0.135	531605	keystroke_e	e	n/a
265.9825	0.105	531965	keystroke_r	r	n/a
266.1475	0.12	532295	keystroke_a	a	n/a
266.2975	0.105	532595	keystroke_l	l	n/a
266.4925	0.045	532985	keystroke_k	k	n/a
267.1525	0.105	534305	keystroke_Key.backspace	Key.backspace	n/a
267.3325	0.09	534665	keystroke_d	d	n/a
267.5125	0.12	535025	keystroke_Key.space	Key.space	n/a
267.8725	0.075	535745	keystroke_d	d	n/a
268.2475	0.0895	536495	keystroke_Key.backspace	Key.backspace	n/a
268.428	0.104	536856	keystroke_c	c	n/a
268.562	0.12	537124	keystroke_l	l	n/a
268.727	0.105	537454	keystroke_e	e	n/a
268.952	0.12	537904	keystroke_a	a	n/a
269.2075	0.105	538415	keystroke_n	n	n/a
269.4925	0.12	538985	keystroke_u	u	n/a
269.5825	0.1505	539165	keystroke_p	p	n/a
269.777	0.165	539554	keystroke_Key.space	Key.space	n/a
270.5575	0.135	541115	keystroke_c	c	n/a
270.7075	0.1195	541415	keystroke_i	i	n/a
270.918	0.12	541836	keystroke_r	r	n/a
271.187	0.105	542374	keystroke_c	c	n/a
271.353	0.135	542706	keystroke_u	u	n/a
271.442	0.135	542884	keystroke_i	i	n/a
271.623	0.104	543246	keystroke_t	t	n/a
271.817	0.105	543634	keystroke_s	s	n/a
271.967	0.15	543934	keystroke_Key.space	Key.space	n/a
272.3575	0.09	544715	keystroke_e	e	n/a
272.7775	0.0745	545555	keystroke_g	g	n/a
273.0775	0.09	546155	keystroke_y	y	n/a
273.3025	0.12	546605	keystroke_p	p	n/a
273.5275	0.105	547055	keystroke_t	t	n/a
273.752	0.09	547504	keystroke_Key.enter	Key.enter	n/a
273.847	6.7615	547694	prompt	n/a	daisy birth detective insertion\n
274.532	0.105	549064	keystroke_d	d	n/a
274.832	0.12	549664	keystroke_a	a	n/a
275.072	0.135	550144	keystroke_i	i	n/a
275.297	0.105	550594	keystroke_s	s	n/a
275.537	0.135	551074	keystroke_y	y	n/a
275.657	0.195	551314	keystroke_Key.space	Key.space	n/a
276.272	0.135	552544	keystroke_b	b	n/a
276.452	0.135	552904	keystroke_i	i	n/a
276.632	0.06	553264	keystroke_r	r	n/a
276.842	0.09	553684	keystroke_t	t	n/a
276.962	0.15	553924	keystroke_h	h	n/a
277.142	0.15	554284	keystroke_Key.space	Key.space	n/a
277.487	0.075	554974	keystroke_d	d	n/a
277.682	0.075	555364	keystroke_e	e	n/a
277.877	0.0905	555754	keystroke_t	t	n/a
278.0275	0.0895	556055	keystroke_e	e	n/a
278.253	0.105	556506	keystroke_c	c	n/a
278.403	0.105	556806	keystroke_t	t	n/a
278.553	0.1345	557106	keystroke_i	i	n/a
278.6885	0.164	557377	keystroke_v	v	n/a
278.8375	0.105	557675	keystroke_e	e	n/a
278.9575	0.1655	557915	keystroke_Key.space	Key.space	n/a
279.288	0.135	558576	keystroke_i	i	n/a
279.378	0.135	558756	keystroke_n	n	n/a
279.528	0.15	559056	keystroke_s	s	n/a
279.648	0.165	559296	keystroke_e	e	n/a
279.753	0.12	559506	keystroke_r	r	n/a
279.963	0.105	559926	keystroke_t	t	n/a
280.053	0.15	560106	keystroke_i	i	n/a
280.173	0.134	560346	keystroke_o	o	n/a
280.278	0.105	560556	keystroke_n	n	n/a
280.502	0.105	561004	keystroke_Key.enter	Key.enter	n/a
280.6115	6.0575	561223	prompt	n/a	civic jade rica investigations\n
281.312	0.0905	562624	keystroke_c	c	n/a
281.4175	0.105	562835	keystroke_i	i	n/a
281.5525	0.105	563105	keystroke_v	v	n/a
281.6875	0.105	563375	keystroke_i	i	n/a
281.898	0.104	563796	keystroke_c	c	n/a
282.047	0.165	564094	keystroke_Key.space	Key.space	n/a
282.227	0.136	564454	keystroke_j	j	n/a
282.392	0.12	564784	keystroke_a	a	n/a
282.587	0.09	565174	keystroke_d	d	n/a
282.858	0.075	565716	keystroke_e	e	n/a
283.067	0.15	566134	keystroke_Key.space	Key.space	n/a
283.443	0.089	566886	keystroke_r	r	n/a
283.517	0.12	567034	keystroke_i	i	n/a
283.772	0.105	567544	keystroke_c	c	n/a
283.862	0.12	567724	keystroke_a	a	n/a
284.027	0.165	568054	keystroke_Key.space	Key.space	n/a
284.312	0.15	568624	keystroke_i	i	n/a
284.417	0.15	568834	keystroke_n	n	n/a
284.6275	0.15	569255	keystroke_v	v	n/a
284.7475	0.105	569495	keystroke_e	e	n/a
284.9275	0.15	569855	keystroke_s	s	n/a
285.0925	0.105	570185	keystroke_t	t	n/a
285.2275	0.12	570455	keystroke_i	i	n/a
285.4075	0.075	570815	keystroke_g	g	n/a
285.5425	0.12	571085	keystroke_a	a	n/a
285.6625	0.105	571325	keystroke_t	t	n/a
285.7525	0.12	571505	keystroke_i	i	n/a
285.8425	0.1645	571685	keystroke_o	o	n/a
285.9775	0.1195	571955	keystroke_n	n	n/a
286.352	0.09	572704	keystroke_s	s	n/a
286.577	0.09	573154	keystroke_Key.enter	Key.enter	n/a
286.672	11.967	573344	prompt	n/a	norway acid minneapolis business\n
287.372	0.12	574744	keystroke_n	n	n/a
287.597	0.12	575194	keystroke_o	o	n/a
287.777	0.105	575554	keystroke_r	r	n/a
288.122	0.09	576244	keystroke_w	w	n/a
288.4375	0.015	576875	keystroke_a	a	n/a
288.4675	0.135	576935	keystroke_y	y	n/a
288.6625	0.15	577325	keystroke_Key.space	Key.space	n/a
289.0375	0.12	578075	keystroke_a	a	n/a
289.2325	0.12	578465	keystroke_c	c	n/a
289.3825	0.135	578765	keystroke_i	i	n/a
289.5325	0.09	579065	keystroke_d	d	n/a
289.7275	0.165	579455	keystroke_Key.space	Key.space	n/a
290.1925	0.135	580385	keystroke_m	m	n/a
290.9425	0.105	581885	keystroke_i	i	n/a
291.1675	0.075	582335	keystroke_n	n	n/a
291.3325	0.1045	582665	keystroke_n	n	n/a
291.542	0.09	583084	keystroke_e	e	n/a
291.752	0.135	583504	keystroke_a	a	n/a
292.037	0.135	584074	keystroke_p	p	n/a
292.892	0.016	585784	keystroke_o	o	n/a
293.057	0.09	586114	keystroke_l	l	n/a
293.222	0.09	586444	keystroke_i	i	n/a
293.357	0.12	586714	keystroke_s	s	n/a
293.522	0.1505	587044	keystroke_Key.space	Key.space	n/a
293.8675	0.09	587735	keystroke_b	b	n/a
294.0475	0.1495	588095	keystroke_u	u	n/a
294.212	0.06	588424	keystroke_i	i	n/a
294.947	0.105	589894	keystroke_Key.backspace	Key.backspace	n/a
295.082	0.105	590164	keystroke_s	s	n/a
295.232	0.165	590464	keystroke_i	i	n/a
295.352	0.135	590704	keystroke_n	n	n/a
297.89	0.027	595780	keystroke_e	e	n/a
298.053	0.075	596106	keystroke_s	s	n/a
298.218	0.074	596436	keystroke_s	s	n/a
298.532	0.105	597064	keystroke_Key.enter	Key.enter	n/a
298.642	10.317	597284	prompt	n/a	lexington innocent jewel columns\n
299.4625	0.105	598925	keystroke_l	l	n/a
299.5975	0.105	599195	keystroke_e	e	n/a
299.8825	0.12	599765	keystroke_x	x	n/a
300.1525	0.1345	600305	keystroke_i	i	n/a
300.378	0.12	600756	keystroke_n	n	n/a
300.528	0.089	601056	keystroke_g	g	n/a
300.767	0.075	601534	keystroke_t	t	n/a
300.872	0.1505	601744	keystroke_o	o	n/a
301.0075	0.105	602015	keystroke_n	n	n/a
301.2625	0.135	602525	keystroke_Key.space	Key.space	n/a
301.742	0.1205	603484	keystroke_i	i	n/a
301.8475	0.105	603695	keystroke_n	n	n/a
302.0875	0.135	604175	keystroke_n	n	n/a
304.6545	0.073	609309	keystroke_o	o	n/a
304.8475	0.12	609695	keystroke_c	c	n/a
305.178	0.09	610356	keystroke_e	e	n/a
305.358	0.12	610716	keystroke_n	n	n/a
305.553	0.105	611106	keystroke_t	t	n/a
305.672	0.1805	611344	keystroke_Key.space	Key.space	n/a
305.8675	0.135	611735	keystroke_j	j	n/a
306.0325	0.15	612065	keystroke_e	e	n/a
306.1675	0.09	612335	keystroke_w	w	n/a
306.573	0.09	613146	keystroke_e	e	n/a
306.8125	0.1355	613625	keystroke_l	l	n/a
306.962	0.165	613924	keystroke_Key.space	Key.space	n/a
307.398	0.12	614796	keystroke_c	c	n/a
307.488	0.105	614976	keystroke_o	o	n/a
307.7125	0.1195	615425	keystroke_l	l	n/a
307.952	0.105	615904	keystroke_u	u	n/a
308.1925	0.1045	616385	keystroke_m	m	n/a
308.433	0.09	616866	keystroke_n	n	n/a
308.597	0.121	617194	keystroke_s	s	n/a
308.852	0.105	617704	keystroke_Key.enter	Key.enter	n/a
308.962	9.507	617924	prompt	n/a	filters kilometers professionals judges\n
309.7525	0.15	619505	keystroke_f	f	n/a
309.9325	0.105	619865	keystroke_i	i	n/a
310.0975	0.135	620195	keystroke_l	l	n/a
310.3225	0.12	620645	keystroke_t	t	n/a
310.4875	0.1045	620975	keystroke_e	e	n/a
310.578	0.089	621156	keystroke_r	r	n/a
310.742	0.106	621484	keystroke_s	s	n/a
310.892	0.165	621784	keystroke_Key.space	Key.space	n/a
311.207	0.09	622414	keystroke_k	k	n/a
311.447	0.12	622894	keystroke_i	i	n/a
312.032	0.105	624064	keystroke_l	l	n/a
312.257	0.09	624514	keystroke_o	o	n/a
312.842	0.045	625684	keystroke_m	m	n/a
312.902	0.105	625804	keystroke_e	e	n/a
313.3225	0.135	626645	keystroke_t	t	n/a
313.5625	0.15	627125	keystroke_e	e	n/a
313.6825	0.135	627365	keystroke_r	r	n/a
314.0125	0.09	628025	keystroke_s	s	n/a
314.1925	0.135	628385	keystroke_Key.space	Key.space	n/a
314.7475	0.15	629495	keystroke_p	p	n/a
314.9575	0.12	629915	keystroke_r	r	n/a
315.0925	0.105	630185	keystroke_o	o	n/a
315.2275	0.09	630455	keystroke_f	f	n/a
315.4225	0.09	630845	keystroke_e	e	n/a
315.6325	0.06	631265	keystroke_s	s	n/a
315.7975	0.09	631595	keystroke_s	s	n/a
315.9925	0.12	631985	keystroke_i	i	n/a
316.1425	0.165	632285	keystroke_o	o	n/a
316.2625	0.165	632525	keystroke_n	n	n/a
316.4575	0.105	632915	keystroke_a	a	n/a
316.6075	0.12	633215	keystroke_l	l	n/a
316.8775	0.12	633755	keystroke_s	s	n/a
317.0875	0.12	634175	keystroke_Key.space	Key.space	n/a
317.2975	0.075	634595	keystroke_j	j	n/a
317.4925	0.105	634985	keystroke_u	u	n/a
317.6275	0.09	635255	keystroke_d	d	n/a
317.8375	0.09	635675	keystroke_g	g	n/a
317.9875	0.075	635975	keystroke_e	e	n/a
318.1525	0.09	636305	keystroke_s	s	n/a
318.3625	0.1045	636725	keystroke_Key.enter	Key.enter	n/a
318.472	7.377	636944	prompt	n/a	yourself elephant maiden found\n
319.577	0.12	639154	keystroke_y	y	n/a
319.712	0.165	639424	keystroke_o	o	n/a
319.817	0.135	639634	keystroke_u	u	n/a
320.027	0.1055	640054	keystroke_r	r	n/a
320.2525	0.105	640505	keystroke_s	s	n/a
320.3425	0.105	640685	keystroke_e	e	n/a
320.5525	0.105	641105	keystroke_l	l	n/a
320.6725	0.105	641345	keystroke_f	f	n/a
320.8975	0.1195	641795	keystroke_Key.space	Key.space	n/a
321.302	0.075	642604	keystroke_e	e	n/a
321.437	0.12	642874	keystroke_l	l	n/a
321.572	0.075	643144	keystroke_e	e	n/a
322.277	0.105	644554	keystroke_p	p	n/a
322.457	0.105	644914	keystroke_h	h	n/a
322.652	0.1505	645304	keystroke_a	a	n/a
322.787	0.1205	645574	keystroke_n	n	n/a
323.1025	0.105	646205	keystroke_t	t	n/a
323.2675	0.15	646535	keystroke_Key.space	Key.space	n/a
323.6875	0.135	647375	keystroke_m	m	n/a
323.8525	0.12	647705	keystroke_a	a	n/a
324.062	0.075	648124	keystroke_i	i	n/a
324.242	0.0755	648484	keystroke_d	d	n/a
324.4225	0.09	648845	keystroke_e	e	n/a
324.5575	0.15	649115	keystroke_n	n	n/a
324.6925	0.134	649385	keystroke_Key.space	Key.space	n/a
325.0075	0.09	650015	keystroke_f	f	n/a
325.1125	0.12	650225	keystroke_o	o	n/a
325.202	0.09	650404	keystroke_u	u	n/a
325.412	0.09	650824	keystroke_n	n	n/a
325.563	0.09	651126	keystroke_d	d	n/a
325.7425	0.1055	651485	keystroke_Key.enter	Key.enter	n/a
325.8535	7.1955	651707	prompt	n/a	stevens chances features claims\n
326.5225	0.075	653045	keystroke_s	s	n/a
326.792	0.105	653584	keystroke_t	t	n/a
326.912	0.09	653824	keystroke_e	e	n/a
327.107	0.165	654214	keystroke_v	v	n/a
327.242	0.0905	654484	keystroke_e	e	n/a
327.3475	0.135	654695	keystroke_n	n	n/a
327.5875	0.09	655175	keystroke_s	s	n/a
327.7525	0.15	655505	keystroke_Key.space	Key.space	n/a
328.3075	0.105	656615	keystroke_c	c	n/a
328.4275	0.105	656855	keystroke_h	h	n/a
328.5775	0.105	657155	keystroke_a	a	n/a
328.6675	0.12	657335	keystroke_n	n	n/a
328.8325	0.09	657665	keystroke_c	c	n/a
329.0575	0.075	658115	keystroke_e	e	n/a
329.2375	0.075	658475	keystroke_s	s	n/a
329.3575	0.135	658715	keystroke_Key.space	Key.space	n/a
329.5525	0.135	659105	keystroke_f	f	n/a
329.7775	0.075	659555	keystroke_a	a	n/a
330.2575	0.12	660515	keystroke_Key.backspace	Key.backspace	n/a
330.3625	0.09	660725	keystroke_e	e	n/a
330.4675	0.12	660935	keystroke_a	a	n/a
330.6025	0.12	661205	keystroke_t	t	n/a
330.767	0.135	661534	keystroke_u	u	n/a
330.917	0.0755	661834	keystroke_r	r	n/a
331.0075	0.075	662015	keystroke_e	e	n/a
331.1575	0.105	662315	keystroke_s	s	n/a
331.3525	0.15	662705	keystroke_Key.space	Key.space	n/a
331.7125	0.075	663425	keystroke_c	c	n/a
331.8325	0.12	663665	keystroke_l	l	n/a
331.9825	0.12	663965	keystroke_a	a	n/a
332.4475	0.135	664895	keystroke_i	i	n/a
332.5525	0.195	665105	keystroke_m	m	n/a
332.7625	0.1045	665525	keystroke_s	s	n/a
332.9575	0.0895	665915	keystroke_Key.enter	Key.enter	n/a
333.052	9.042	666104	prompt	n/a	asin safety discharge consists\n
333.692	0.1205	667384	keystroke_a	a	n/a
333.9625	0.09	667925	keystroke_s	s	n/a
334.0975	0.18	668195	keystroke_i	i	n/a
334.2475	0.18	668495	keystroke_n	n	n/a
334.4425	0.12	668885	keystroke_Key.space	Key.space	n/a
334.6375	0.135	669275	keystroke_s	s	n/a
334.9075	0.15	669815	keystroke_a	a	n/a
335.1625	0.135	670325	keystroke_f	f	n/a
335.6275	0.06	671255	keystroke_e	e	n/a
335.8225	0.09	671645	keystroke_t	t	n/a
335.9875	0.135	671975	keystroke_l	l	n/a
336.1975	0.15	672395	keystroke_y	y	n/a
336.437	0.15	672874	keystroke_Key.space	Key.space	n/a
337.2775	0.105	674555	keystroke_Key.backspace	Key.backspace	n/a
337.4575	0.09	674915	keystroke_Key.backspace	Key.backspace	n/a
337.6225	0.089	675245	keystroke_Key.backspace	Key.backspace	n/a
337.907	0.09	675814	keystroke_y	y	n/a
338.102	0.12	676204	keystroke_Key.space	Key.space	n/a
338.462	0.09	676924	keystroke_d	d	n/a
338.582	0.12	677164	keystroke_i	i	n/a
338.7175	0.09	677435	keystroke_s	s	n/a
338.973	0.105	677946	keystroke_c	c	n/a
339.138	0.1345	678276	keystroke_h	h	n/a
339.3025	0.165	678605	keystroke_a	a	n/a
339.4375	0.105	678875	keystroke_r	r	n/a
339.7075	0.09	679415	keystroke_g	g	n/a
339.8575	0.09	679715	keystroke_e	e	n/a
340.0225	0.165	680045	keystroke_Key.space	Key.space	n/a
340.712	0.106	681424	keystroke_c	c	n/a
340.803	0.12	681606	keystroke_o	o	n/a
340.892	0.121	681784	keystroke_n	n	n/a
341.042	0.09	682084	keystroke_s	s	n/a
341.178	0.09	682356	keystroke_i	i	n/a
341.328	0.15	682656	keystroke_s	s	n/a
341.538	0.105	683076	keystroke_t	t	n/a
341.793	0.0745	683586	keystroke_s	s	n/a
341.987	0.106	683974	keystroke_Key.enter	Key.enter	n/a
342.097	8.862	684194	prompt	n/a	andorra sublimedirectory decided chains\n
342.887	0.1355	685774	keystroke_a	a	n/a
343.1425	0.12	686285	keystroke_n	n	n/a
343.3075	0.12	686615	keystroke_d	d	n/a
343.4725	0.09	686945	keystroke_o	o	n/a
343.6675	0.0595	687335	keystroke_r	r	n/a
343.833	0.074	687666	keystroke_r	r	n/a
343.982	0.12	687964	keystroke_a	a	n/a
344.147	0.15	688294	keystroke_Key.space	Key.space	n/a
344.432	0.106	688864	keystroke_s	s	n/a
344.613	0.119	689226	keystroke_u	u	n/a
344.882	0.105	689764	keystroke_b	b	n/a
345.257	0.12	690514	keystroke_l	l	n/a
345.482	0.105	690964	keystroke_i	i	n/a
345.722	0.12	691444	keystroke_m	m	n/a
345.9625	0.1045	691925	keystroke_e	e	n/a
346.307	0.09	692614	keystroke_d	d	n/a
346.547	0.105	693094	keystroke_i	i	n/a
346.982	0.12	693964	keystroke_r	r	n/a
347.162	0.075	694324	keystroke_e	e	n/a
347.3875	0.075	694775	keystroke_c	c	n/a
347.5675	0.09	695135	keystroke_t	t	n/a
347.7025	0.105	695405	keystroke_o	o	n/a
347.8975	0.075	695795	keystroke_r	r	n/a
348.0175	0.12	696035	keystroke_y	y	n/a
348.1675	0.15	696335	keystroke_Key.space	Key.space	n/a
348.3775	0.09	696755	keystroke_d	d	n/a
348.5575	0.075	697115	keystroke_e	e	n/a
348.7975	0.18	697595	keystroke_c	c	n/a
348.9325	0.135	697865	keystroke_i	i	n/a
349.1425	0.075	698285	keystroke_d	d	n/a
349.3375	0.075	698675	keystroke_e	e	n/a
349.5175	0.09	699035	keystroke_d	d	n/a
349.6975	0.135	699395	keystroke_Key.space	Key.space	n/a
349.9525	0.12	699905	keystroke_c	c	n/a
350.0875	0.105	700175	keystroke_h	h	n/a
350.2525	0.105	700505	keystroke_a	a	n/a
350.3725	0.15	700745	keystroke_i	i	n/a
350.4625	0.15	700925	keystroke_n	n	n/a
350.6275	0.09	701255	keystroke_s	s	n/a
350.8525	0.105	701705	keystroke_Key.enter	Key.enter	n/a
350.9615	8.1125	701923	prompt	n/a	particle surgeon cabin smile\n
351.6925	0.105	703385	keystroke_a	a	n/a
351.7675	0.15	703535	keystroke_p	p	n/a
352.3975	0.075	704795	keystroke_Key.backspace	Key.backspace	n/a
352.5475	0.075	705095	keystroke_Key.backspace	Key.backspace	n/a
352.7575	0.12	705515	keystroke_p	p	n/a
352.8325	0.12	705665	keystroke_a	a	n/a
352.9225	0.0745	705845	keystroke_r	r	n/a
353.102	0.09	706204	keystroke_t	t	n/a
353.207	0.075	706414	keystroke_i	i	n/a
353.372	0.09	706744	keystroke_c	c	n/a
353.567	0.09	707134	keystroke_l	l	n/a
353.747	0.075	707494	keystroke_e	e	n/a
353.912	0.12	707824	keystroke_Key.space	Key.space	n/a
354.377	0.105	708754	keystroke_s	s	n/a
354.527	0.12	709054	keystroke_u	u	n/a
355.1425	0.09	710285	keystroke_r	r	n/a
355.3825	0.075	710765	keystroke_g	g	n/a
355.6375	0.0895	711275	keystroke_e	e	n/a
355.862	0.12	711724	keystroke_o	o	n/a
356.027	0.105	712054	keystroke_n	n	n/a
356.237	0.105	712474	keystroke_Key.space	Key.space	n/a
356.597	0.105	713194	keystroke_c	c	n/a
357.017	0.105	714034	keystroke_a	a	n/a
357.227	0.106	714454	keystroke_b	b	n/a
357.438	0.164	714876	keystroke_i	i	n/a
357.542	0.195	715084	keystroke_n	n	n/a
357.782	0.09	715564	keystroke_Key.space	Key.space	n/a
358.097	0.091	716194	keystroke_s	s	n/a
358.248	0.149	716496	keystroke_m	m	n/a
358.413	0.12	716826	keystroke_i	i	n/a
358.577	0.135	717154	keystroke_l	l	n/a
358.757	0.09	717514	keystroke_e	e	n/a
358.9825	0.09	717965	keystroke_Key.enter	Key.enter	n/a
359.077	7.332	718154	prompt	n/a	banners area converted gathering\n
360.062	0.09	720124	keystroke_b	b	n/a
360.153	0.134	720306	keystroke_a	a	n/a
360.347	0.09	720694	keystroke_n	n	n/a
360.512	0.12	721024	keystroke_n	n	n/a
360.737	0.12	721474	keystroke_e	e	n/a
360.827	0.135	721654	keystroke_r	r	n/a
361.052	0.075	722104	keystroke_s	s	n/a
361.172	0.12	722344	keystroke_Key.space	Key.space	n/a
361.322	0.165	722644	keystroke_a	a	n/a
361.502	0.135	723004	keystroke_r	r	n/a
361.622	0.09	723244	keystroke_e	e	n/a
361.742	0.12	723484	keystroke_a	a	n/a
361.922	0.135	723844	keystroke_Key.space	Key.space	n/a
362.672	0.105	725344	keystroke_c	c	n/a
362.732	0.165	725464	keystroke_o	o	n/a
362.882	0.12	725764	keystroke_n	n	n/a
363.032	0.12	726064	keystroke_v	v	n/a
363.212	0.12	726424	keystroke_e	e	n/a
363.302	0.09	726604	keystroke_r	r	n/a
363.512	0.075	727024	keystroke_t	t	n/a
363.617	0.075	727234	keystroke_e	e	n/a
363.767	0.09	727534	keystroke_d	d	n/a
363.932	0.165	727864	keystroke_Key.space	Key.space	n/a
364.292	0.09	728584	keystroke_g	g	n/a
364.532	0.135	729064	keystroke_a	a	n/a
364.742	0.1205	729484	keystroke_t	t	n/a
364.9525	0.12	729905	keystroke_h	h	n/a
365.5375	0.135	731075	keystroke_e	e	n/a
365.6875	0.105	731375	keystroke_r	r	n/a
365.8375	0.18	731675	keystroke_i	i	n/a
365.9425	0.135	731885	keystroke_n	n	n/a
366.1225	0.06	732245	keystroke_g	g	n/a
366.3175	0.09	732635	keystroke_Key.enter	Key.enter	n/a
366.412	5.7265	732824	prompt	n/a	item formatting license page\n
367.277	0.1355	734554	keystroke_i	i	n/a
367.4725	0.09	734945	keystroke_t	t	n/a
367.6375	0.105	735275	keystroke_e	e	n/a
367.7575	0.1495	735515	keystroke_m	m	n/a
367.877	0.135	735754	keystroke_Key.space	Key.space	n/a
368.087	0.105	736174	keystroke_f	f	n/a
368.237	0.09	736474	keystroke_o	o	n/a
368.387	0.09	736774	keystroke_r	r	n/a
368.522	0.12	737044	keystroke_m	m	n/a
368.717	0.1205	737434	keystroke_a	a	n/a
368.8215	0.106	737643	keystroke_t	t	n/a
369.0325	0.09	738065	keystroke_t	t	n/a
369.2125	0.164	738425	keystroke_i	i	n/a
369.3175	0.149	738635	keystroke_n	n	n/a
369.4975	0.075	738995	keystroke_g	g	n/a
369.6165	0.12	739233	keystroke_Key.space	Key.space	n/a
370.0075	0.089	740015	keystroke_l	l	n/a
370.1425	0.12	740285	keystroke_i	i	n/a
370.3675	0.12	740735	keystroke_c	c	n/a
370.622	0.075	741244	keystroke_e	e	n/a
370.802	0.105	741604	keystroke_n	n	n/a
370.952	0.12	741904	keystroke_s	s	n/a
371.027	0.12	742054	keystroke_e	e	n/a
371.207	0.15	742414	keystroke_Key.space	Key.space	n/a
371.552	0.12	743104	keystroke_p	p	n/a
371.642	0.12	743284	keystroke_a	a	n/a
371.747	0.12	743494	keystroke_g	g	n/a
371.852	0.105	743704	keystroke_e	e	n/a
372.062	0.075	744124	keystroke_Key.enter	Key.enter	n/a
372.1415	8.127	744283	prompt	n/a	complaint murder planner involve\n
372.857	0.105	745714	keystroke_c	c	n/a
373.007	0.12	746014	keystroke_o	o	n/a
373.232	0.075	746464	keystroke_p	p	n/a
373.337	0.12	746674	keystroke_m	m	n/a
373.9515	0.06	747903	keystroke_Key.backspace	Key.backspace	n/a
374.0865	0.105	748173	keystroke_Key.backspace	Key.backspace	n/a
374.3125	0.134	748625	keystroke_m	m	n/a
374.4315	0.135	748863	keystroke_p	p	n/a
374.6575	0.089	749315	keystroke_l	l	n/a
374.8365	0.121	749673	keystroke_a	a	n/a
375.228	0.164	750456	keystroke_i	i	n/a
375.3765	0.12	750753	keystroke_n	n	n/a
375.6015	0.135	751203	keystroke_t	t	n/a
375.7965	0.12	751593	keystroke_Key.space	Key.space	n/a
376.3215	0.09	752643	keystroke_m	m	n/a
376.5465	0.105	753093	keystroke_u	u	n/a
376.6665	0.075	753333	keystroke_r	r	n/a
376.8615	0.075	753723	keystroke_d	d	n/a
377.072	0.135	754144	keystroke_e	e	n/a
377.162	0.12	754324	keystroke_r	r	n/a
377.3265	0.15	754653	keystroke_Key.space	Key.space	n/a
377.6415	0.105	755283	keystroke_p	p	n/a
377.8365	0.12	755673	keystroke_l	l	n/a
377.9715	0.105	755943	keystroke_a	a	n/a
378.1965	0.09	756393	keystroke_n	n	n/a
378.3775	0.104	756755	keystroke_n	n	n/a
378.512	0.15	757024	keystroke_e	e	n/a
378.617	0.135	757234	keystroke_r	r	n/a
378.782	0.15	757564	keystroke_Key.space	Key.space	n/a
379.067	0.135	758134	keystroke_i	i	n/a
379.187	0.12	758374	keystroke_n	n	n/a
379.367	0.105	758734	keystroke_v	v	n/a
379.487	0.09	758974	keystroke_o	o	n/a
379.682	0.09	759364	keystroke_l	l	n/a
379.832	0.09	759664	keystroke_v	v	n/a
379.937	0.1045	759874	keystroke_e	e	n/a
380.1765	0.09	760353	keystroke_Key.enter	Key.enter	n/a
380.2715	4.9325	760543	prompt	n/a	sole ebay jeremy again\n
380.9265	0.09	761853	keystroke_s	s	n/a
381.0175	0.089	762035	keystroke_o	o	n/a
381.2115	0.09	762423	keystroke_l	l	n/a
381.3615	0.09	762723	keystroke_e	e	n/a
381.4665	0.135	762933	keystroke_Key.space	Key.space	n/a
381.7665	0.06	763533	keystroke_e	e	n/a
381.9765	0.09	763953	keystroke_b	b	n/a
382.1715	0.106	764343	keystroke_a	a	n/a
382.2915	0.18	764583	keystroke_y	y	n/a
382.4115	0.165	764823	keystroke_Key.space	Key.space	n/a
382.8325	0.119	765665	keystroke_j	j	n/a
382.997	0.18	765994	keystroke_e	e	n/a
383.132	0.12	766264	keystroke_r	r	n/a
383.357	0.09	766714	keystroke_e	e	n/a
383.597	0.12	767194	keystroke_m	m	n/a
383.8815	0.135	767763	keystroke_y	y	n/a
383.9565	0.18	767913	keystroke_Key.space	Key.space	n/a
384.3915	0.105	768783	keystroke_a	a	n/a
384.5265	0.09	769053	keystroke_g	g	n/a
384.6465	0.1205	769293	keystroke_a	a	n/a
384.737	0.165	769474	keystroke_i	i	n/a
384.842	0.135	769684	keystroke_n	n	n/a
385.097	0.105	770194	keystroke_Key.enter	Key.enter	n/a
385.2095	6.174	770419	prompt	n/a	export rays almost messenger\n
386.042	0.075	772084	keystroke_e	e	n/a
386.222	0.105	772444	keystroke_x	x	n/a
386.342	0.105	772684	keystroke_p	p	n/a
386.537	0.105	773074	keystroke_o	o	n/a
386.702	0.0905	773404	keystroke_r	r	n/a
386.9115	0.091	773823	keystroke_t	t	n/a
387.0465	0.165	774093	keystroke_Key.space	Key.space	n/a
387.4665	0.105	774933	keystroke_r	r	n/a
387.6315	0.136	775263	keystroke_a	a	n/a
387.7975	0.105	775595	keystroke_y	y	n/a
387.9475	0.15	775895	keystroke_s	s	n/a
388.1115	0.12	776223	keystroke_Key.space	Key.space	n/a
388.4715	0.105	776943	keystroke_a	a	n/a
388.6065	0.09	777213	keystroke_l	l	n/a
388.802	0.15	777604	keystroke_m	m	n/a
388.922	0.1205	777844	keystroke_o	o	n/a
389.0575	0.135	778115	keystroke_s	s	n/a
389.1475	0.12	778295	keystroke_t	t	n/a
389.2815	0.105	778563	keystroke_Key.space	Key.space	n/a
389.6125	0.104	779225	keystroke_m	m	n/a
389.7615	0.106	779523	keystroke_e	e	n/a
390.0175	0.075	780035	keystroke_s	s	n/a
390.1815	0.091	780363	keystroke_s	s	n/a
390.3625	0.09	780725	keystroke_e	e	n/a
390.6175	0.1195	781235	keystroke_n	n	n/a
390.887	0.075	781774	keystroke_g	g	n/a
391.007	0.12	782014	keystroke_e	e	n/a
391.097	0.105	782194	keystroke_r	r	n/a
391.292	0.09	782584	keystroke_Key.enter	Key.enter	n/a
391.3865	11.277	782773	prompt	n/a	offered experiencing users talking\n
392.147	0.105	784294	keystroke_o	o	n/a
392.282	0.0895	784564	keystroke_f	f	n/a
392.4475	0.119	784895	keystroke_f	f	n/a
392.6415	0.1205	785283	keystroke_e	e	n/a
392.7465	0.1205	785493	keystroke_r	r	n/a
392.897	0.09	785794	keystroke_e	e	n/a
393.092	0.06	786184	keystroke_e	e	n/a
393.302	0.075	786604	keystroke_d	d	n/a
393.497	0.135	786994	keystroke_Key.space	Key.space	n/a
393.8715	0.0905	787743	keystroke_Key.backspace	Key.backspace	n/a
394.0515	0.075	788103	keystroke_Key.backspace	Key.backspace	n/a
394.2015	0.09	788403	keystroke_Key.backspace	Key.backspace	n/a
394.3365	0.075	788673	keystroke_d	d	n/a
394.4715	0.105	788943	keystroke_Key.space	Key.space	n/a
396.0915	0.075	792183	keystroke_e	e	n/a
396.3015	0.12	792603	keystroke_x	x	n/a
396.4365	0.15	792873	keystroke_p	p	n/a
396.9315	0.1355	793863	keystroke_e	e	n/a
397.022	0.135	794044	keystroke_r	r	n/a
397.217	0.105	794434	keystroke_i	i	n/a
397.892	0.105	795784	keystroke_e	e	n/a
398.132	0.12	796264	keystroke_n	n	n/a
398.417	0.09	796834	keystroke_c	c	n/a
399.6175	0.18	799235	keystroke_i	i	n/a
399.7375	0.135	799475	keystroke_n	n	n/a
399.9475	0.105	799895	keystroke_g	g	n/a
400.1275	0.15	800255	keystroke_Key.space	Key.space	n/a
400.5325	0.1195	801065	keystroke_u	u	n/a
400.637	0.135	801274	keystroke_s	s	n/a
400.727	0.12	801454	keystroke_e	e	n/a
400.817	0.12	801634	keystroke_r	r	n/a
401.027	0.09	802054	keystroke_s	s	n/a
401.147	0.135	802294	keystroke_Key.space	Key.space	n/a
401.597	0.09	803194	keystroke_t	t	n/a
401.717	0.1345	803434	keystroke_a	a	n/a
401.837	0.0905	803674	keystroke_l	l	n/a
401.9575	0.104	803915	keystroke_k	k	n/a
402.1825	0.105	804365	keystroke_i	i	n/a
402.2565	0.136	804513	keystroke_n	n	n/a
402.3775	0.074	804755	keystroke_g	g	n/a
402.5875	0.074	805175	keystroke_Key.enter	Key.enter	n/a
402.6665	7.812	805333	prompt	n/a	minnesota statewide mining envelope\n
403.3225	0.12	806645	keystroke_m	m	n/a
403.4575	0.105	806915	keystroke_i	i	n/a
403.6665	0.106	807333	keystroke_n	n	n/a
403.8765	0.106	807753	keystroke_n	n	n/a
404.0115	0.12	808023	keystroke_e	e	n/a
404.2375	0.105	808475	keystroke_s	s	n/a
404.5375	0.12	809075	keystroke_o	o	n/a
404.7475	0.105	809495	keystroke_t	t	n/a
404.9415	0.105	809883	keystroke_a	a	n/a
405.1065	0.15	810213	keystroke_Key.space	Key.space	n/a
405.4665	0.121	810933	keystroke_s	s	n/a
405.6015	0.12	811203	keystroke_t	t	n/a
405.7675	0.105	811535	keystroke_a	a	n/a
405.8875	0.104	811775	keystroke_t	t	n/a
406.0215	0.105	812043	keystroke_e	e	n/a
406.3515	0.105	812703	keystroke_w	w	n/a
406.5165	0.135	813033	keystroke_i	i	n/a
406.7415	0.075	813483	keystroke_d	d	n/a
406.9215	0.075	813843	keystroke_e	e	n/a
407.0865	0.135	814173	keystroke_Key.space	Key.space	n/a
407.4165	0.15	814833	keystroke_m	m	n/a
407.8515	0.12	815703	keystroke_i	i	n/a
408.0015	0.091	816003	keystroke_n	n	n/a
408.2115	0.135	816423	keystroke_i	i	n/a
408.3165	0.12	816633	keystroke_n	n	n/a
408.4965	0.09	816993	keystroke_g	g	n/a
408.6315	0.1205	817263	keystroke_Key.space	Key.space	n/a
409.0825	0.059	818165	keystroke_e	e	n/a
409.1865	0.1205	818373	keystroke_n	n	n/a
409.352	0.135	818704	keystroke_v	v	n/a
409.457	0.105	818914	keystroke_e	e	n/a
409.577	0.09	819154	keystroke_l	l	n/a
409.772	0.135	819544	keystroke_o	o	n/a
409.907	0.12	819814	keystroke_p	p	n/a
410.0715	0.075	820143	keystroke_e	e	n/a
410.387	0.09	820774	keystroke_Key.enter	Key.enter	n/a
410.4835	5.38	820967	prompt	n/a	coach expand trek gage\n
411.3015	0.1505	822603	keystroke_c	c	n/a
411.407	0.12	822814	keystroke_o	o	n/a
411.572	0.12	823144	keystroke_a	a	n/a
411.857	0.09	823714	keystroke_c	c	n/a
411.992	0.18	823984	keystroke_h	h	n/a
412.187	0.135	824374	keystroke_Key.space	Key.space	n/a
412.442	0.075	824884	keystroke_e	e	n/a
412.637	0.1045	825274	keystroke_x	x	n/a
412.757	0.12	825514	keystroke_p	p	n/a
412.907	0.12	825814	keystroke_a	a	n/a
413.072	0.075	826144	keystroke_n	n	n/a
413.177	0.075	826354	keystroke_d	d	n/a
413.327	0.12	826654	keystroke_Key.space	Key.space	n/a
413.627	0.105	827254	keystroke_t	t	n/a
413.822	0.105	827644	keystroke_r	r	n/a
414.0465	0.06	828093	keystroke_e	e	n/a
414.257	0.165	828514	keystroke_k	k	n/a
414.377	0.135	828754	keystroke_Key.space	Key.space	n/a
414.9925	0.09	829985	keystroke_g	g	n/a
415.1125	0.105	830225	keystroke_a	a	n/a
415.3525	0.09	830705	keystroke_g	g	n/a
415.577	0.075	831154	keystroke_e	e	n/a
415.772	0.09	831544	keystroke_Key.enter	Key.enter	n/a
415.866	9.7925	831732	prompt	n/a	anymore villa connection navigation\n
416.672	0.1195	833344	keystroke_a	a	n/a
416.8065	0.0755	833613	keystroke_n	n	n/a
416.9875	0.09	833975	keystroke_y	y	n/a
417.2125	0.09	834425	keystroke_n	n	n/a
417.3175	0.105	834635	keystroke_o	o	n/a
417.4375	0.105	834875	keystroke_r	r	n/a
417.5125	0.0895	835025	keystroke_e	e	n/a
418.2925	0.075	836585	keystroke_Key.backspace	Key.backspace	n/a
418.4725	0.075	836945	keystroke_Key.backspace	Key.backspace	n/a
418.6375	0.1345	837275	keystroke_Key.backspace	Key.backspace	n/a
418.802	0.045	837604	keystroke_Key.backspace	Key.backspace	n/a
419.0115	0.075	838023	keystroke_Key.backspace	Key.backspace	n/a
419.6415	0.105	839283	keystroke_y	y	n/a
419.9265	0.105	839853	keystroke_m	m	n/a
420.0615	0.105	840123	keystroke_o	o	n/a
420.5265	0.09	841053	keystroke_r	r	n/a
420.767	0.075	841534	keystroke_e	e	n/a
420.992	0.135	841984	keystroke_Key.space	Key.space	n/a
421.2475	0.105	842495	keystroke_v	v	n/a
421.3675	0.09	842735	keystroke_i	i	n/a
421.577	0.075	843154	keystroke_l	l	n/a
421.742	0.09	843484	keystroke_l	l	n/a
421.877	0.105	843754	keystroke_a	a	n/a
422.027	0.12	844054	keystroke_Key.space	Key.space	n/a
422.3875	0.135	844775	keystroke_c	c	n/a
422.4925	0.09	844985	keystroke_o	o	n/a
422.6575	0.0895	845315	keystroke_n	n	n/a
422.837	0.135	845674	keystroke_n	n	n/a
422.957	0.075	845914	keystroke_e	e	n/a
423.197	0.075	846394	keystroke_c	c	n/a
423.332	0.09	846664	keystroke_t	t	n/a
423.467	0.12	846934	keystroke_i	i	n/a
423.557	0.1345	847114	keystroke_o	o	n/a
423.6765	0.18	847353	keystroke_n	n	n/a
423.8415	0.105	847683	keystroke_Key.space	Key.space	n/a
424.1715	0.09	848343	keystroke_n	n	n/a
424.277	0.135	848554	keystroke_a	a	n/a
424.397	0.12	848794	keystroke_v	v	n/a
424.577	0.105	849154	keystroke_i	i	n/a
424.712	0.09	849424	keystroke_g	g	n/a
424.847	0.12	849694	keystroke_a	a	n/a
424.997	0.0895	849994	keystroke_t	t	n/a
425.1165	0.12	850233	keystroke_i	i	n/a
425.2065	0.15	850413	keystroke_o	o	n/a
425.3115	0.12	850623	keystroke_n	n	n/a
425.567	0.09	851134	keystroke_Key.enter	Key.enter	n/a
425.6615	12.687	851323	prompt	n/a	favorites invasion aboriginal asthma\n
426.6165	0.09	853233	keystroke_f	f	n/a
426.7215	0.15	853443	keystroke_a	a	n/a
426.9315	0.135	853863	keystroke_v	v	n/a
427.1265	0.105	854253	keystroke_o	o	n/a
427.6065	0.12	855213	keystroke_r	r	n/a
427.757	0.09	855514	keystroke_i	i	n/a
427.937	0.09	855874	keystroke_t	t	n/a
428.042	0.105	856084	keystroke_e	e	n/a
428.267	0.0745	856534	keystroke_s	s	n/a
428.4465	0.135	856893	keystroke_Key.space	Key.space	n/a
428.7015	0.15	857403	keystroke_i	i	n/a
428.8065	0.135	857613	keystroke_n	n	n/a
428.972	0.105	857944	keystroke_v	v	n/a
429.092	0.0745	858184	keystroke_a	a	n/a
429.5715	0.15	859143	keystroke_s	s	n/a
429.6765	0.09	859353	keystroke_t	t	n/a
429.7965	0.225	859593	keystroke_i	i	n/a
430.0065	0.15	860013	keystroke_o	o	n/a
430.3965	0.075	860793	keystroke_Key.backspace	Key.backspace	n/a
430.5615	0.09	861123	keystroke_Key.backspace	Key.backspace	n/a
430.7115	0.09	861423	keystroke_Key.backspace	Key.backspace	n/a
430.9965	0.0755	861993	keystroke_i	i	n/a
431.057	0.135	862114	keystroke_o	o	n/a
431.177	0.135	862354	keystroke_n	n	n/a
431.297	0.135	862594	keystroke_Key.space	Key.space	n/a
431.717	0.135	863434	keystroke_a	a	n/a
431.867	0.105	863734	keystroke_b	b	n/a
431.987	0.105	863974	keystroke_o	o	n/a
432.302	0.09	864604	keystroke_r	r	n/a
432.692	0.09	865384	keystroke_g	g	n/a
433.082	0.1195	866164	keystroke_i	i	n/a
434.222	0.075	868444	keystroke_Key.backspace	Key.backspace	n/a
434.342	0.09	868684	keystroke_Key.backspace	Key.backspace	n/a
434.5815	0.075	869163	keystroke_i	i	n/a
434.7615	0.075	869523	keystroke_g	g	n/a
434.8815	0.1805	869763	keystroke_i	i	n/a
435.017	0.12	870034	keystroke_n	n	n/a
435.182	0.12	870364	keystroke_a	a	n/a
435.317	0.135	870634	keystroke_l	l	n/a
435.437	0.1505	870874	keystroke_Key.space	Key.space	n/a
435.9625	0.135	871925	keystroke_a	a	n/a
436.1275	0.105	872255	keystroke_s	s	n/a
436.3375	0.105	872675	keystroke_h	h	n/a
436.8175	0.09	873635	keystroke_Key.backspace	Key.backspace	n/a
436.9375	0.1195	873875	keystroke_t	t	n/a
437.072	0.09	874144	keystroke_h	h	n/a
437.192	0.105	874384	keystroke_a	a	n/a
437.3875	0.09	874775	keystroke_m	m	n/a
437.6575	0.09	875315	keystroke_Key.backspace	Key.backspace	n/a
437.8225	0.06	875645	keystroke_Key.backspace	Key.backspace	n/a
438.0175	0.075	876035	keystroke_m	m	n/a
438.0775	0.105	876155	keystroke_a	a	n/a
438.2425	0.104	876485	keystroke_Key.enter	Key.enter	n/a
438.3525	10.661	876705	prompt	n/a	projector interaction research sized\n
439.352	0.1205	878704	keystroke_p	p	n/a
439.4875	0.09	878975	keystroke_r	r	n/a
439.6225	0.12	879245	keystroke_o	o	n/a
439.8925	0.09	879785	keystroke_j	j	n/a
440.0575	0.075	880115	keystroke_e	e	n/a
440.3875	0.105	880775	keystroke_t	t	n/a
440.5375	0.075	881075	keystroke_o	o	n/a
440.8825	0.06	881765	keystroke_Key.backspace	Key.backspace	n/a
441.032	0.09	882064	keystroke_Key.backspace	Key.backspace	n/a
441.152	0.105	882304	keystroke_c	c	n/a
441.377	0.1055	882754	keystroke_t	t	n/a
441.5575	0.09	883115	keystroke_o	o	n/a
441.7825	0.075	883565	keystroke_r	r	n/a
442.0075	0.12	884015	keystroke_Key.space	Key.space	n/a
442.3675	0.15	884735	keystroke_i	i	n/a
442.4875	0.12	884975	keystroke_n	n	n/a
442.6975	0.105	885395	keystroke_t	t	n/a
442.8325	0.105	885665	keystroke_e	e	n/a
442.9225	0.12	885845	keystroke_r	r	n/a
443.7025	0.12	887405	keystroke_a	a	n/a
443.9115	0.091	887823	keystroke_c	c	n/a
444.1375	0.09	888275	keystroke_t	t	n/a
444.3025	0.135	888605	keystroke_i	i	n/a
444.4075	0.1495	888815	keystroke_o	o	n/a
444.542	0.15	889084	keystroke_n	n	n/a
444.693	0.1035	889386	keystroke_Key.space	Key.space	n/a
445.0215	0.135	890043	keystroke_r	r	n/a
445.1415	0.12	890283	keystroke_e	e	n/a
445.2765	0.12	890553	keystroke_a	a	n/a
445.6665	0.15	891333	keystroke_s	s	n/a
445.7565	0.21	891513	keystroke_e	e	n/a
445.9065	0.12	891813	keystroke_r	r	n/a
446.1915	0.075	892383	keystroke_Key.backspace	Key.backspace	n/a
446.3715	0.075	892743	keystroke_Key.backspace	Key.backspace	n/a
446.5215	0.09	893043	keystroke_Key.backspace	Key.backspace	n/a
446.6715	0.091	893343	keystroke_Key.backspace	Key.backspace	n/a
446.7775	0.105	893555	keystroke_s	s	n/a
446.8675	0.21	893735	keystroke_e	e	n/a
447.0475	0.135	894095	keystroke_r	r	n/a
447.1675	0.15	894335	keystroke_a	a	n/a
447.4225	0.09	894845	keystroke_c	c	n/a
447.5875	0.12	895175	keystroke_h	h	n/a
447.7675	0.135	895535	keystroke_Key.space	Key.space	n/a
448.1575	0.09	896315	keystroke_s	s	n/a
448.2775	0.09	896555	keystroke_i	i	n/a
448.3975	0.12	896795	keystroke_z	z	n/a
448.5475	0.075	897095	keystroke_e	e	n/a
448.7575	0.06	897515	keystroke_d	d	n/a
448.9225	0.089	897845	keystroke_Key.enter	Key.enter	n/a
449.0175	7.271	898035	prompt	n/a	exhibit midlands pair frontpage\n
450.2125	0.09	900425	keystroke_e	e	n/a
450.4075	0.075	900815	keystroke_x	x	n/a
450.6325	0.1495	901265	keystroke_h	h	n/a
450.7375	0.1345	901475	keystroke_i	i	n/a
450.932	0.09	901864	keystroke_b	b	n/a
451.187	0.105	902374	keystroke_i	i	n/a
451.397	0.09	902794	keystroke_t	t	n/a
451.562	0.15	903124	keystroke_Key.space	Key.space	n/a
451.892	0.135	903784	keystroke_m	m	n/a
452.012	0.15	904024	keystroke_i	i	n/a
452.222	0.0905	904444	keystroke_d	d	n/a
452.3725	0.105	904745	keystroke_l	l	n/a
452.5525	0.135	905105	keystroke_a	a	n/a
452.6725	0.09	905345	keystroke_n	n	n/a
452.837	0.075	905674	keystroke_d	d	n/a
452.972	0.12	905944	keystroke_s	s	n/a
453.152	0.135	906304	keystroke_Key.space	Key.space	n/a
453.512	0.12	907024	keystroke_p	p	n/a
453.617	0.1495	907234	keystroke_a	a	n/a
453.8265	0.09	907653	keystroke_i	i	n/a
454.037	0.0895	908074	keystroke_r	r	n/a
454.1865	0.135	908373	keystroke_Key.space	Key.space	n/a
454.697	0.09	909394	keystroke_f	f	n/a
454.9065	0.075	909813	keystroke_r	r	n/a
455.0115	0.1505	910023	keystroke_o	o	n/a
455.1465	0.1205	910293	keystroke_n	n	n/a
455.312	0.075	910624	keystroke_t	t	n/a
455.597	0.12	911194	keystroke_p	p	n/a
455.747	0.12	911494	keystroke_a	a	n/a
455.852	0.09	911704	keystroke_g	g	n/a
455.972	0.09	911944	keystroke_e	e	n/a
456.197	0.09	912394	keystroke_Key.enter	Key.enter	n/a
456.292	9.4465	912584	prompt	n/a	tops italian approach childhood\n
456.9475	0.1045	913895	keystroke_t	t	n/a
457.097	0.12	914194	keystroke_o	o	n/a
457.232	0.135	914464	keystroke_p	p	n/a
457.427	0.09	914854	keystroke_s	s	n/a
457.562	0.12	915124	keystroke_Key.space	Key.space	n/a
457.907	0.075	915814	keystroke_i	i	n/a
458.102	0.105	916204	keystroke_l	l	n/a
458.567	0.15	917134	keystroke_a	a	n/a
458.882	0.09	917764	keystroke_l	l	n/a
459.062	0.105	918124	keystroke_i	i	n/a
459.452	0.0905	918904	keystroke_Key.backspace	Key.backspace	n/a
459.6475	0.075	919295	keystroke_Key.backspace	Key.backspace	n/a
459.8125	0.075	919625	keystroke_Key.backspace	Key.backspace	n/a
459.9475	0.105	919895	keystroke_Key.backspace	Key.backspace	n/a
460.1425	0.09	920285	keystroke_t	t	n/a
460.3225	0.12	920645	keystroke_a	a	n/a
460.487	0.1055	920974	keystroke_l	l	n/a
460.7125	0.075	921425	keystroke_i	i	n/a
460.9675	0.12	921935	keystroke_a	a	n/a
461.1765	0.105	922353	keystroke_n	n	n/a
461.4315	0.12	922863	keystroke_Key.space	Key.space	n/a
461.8065	0.1355	923613	keystroke_a	a	n/a
461.927	0.09	923854	keystroke_p	p	n/a
462.092	0.12	924184	keystroke_p	p	n/a
462.227	0.12	924454	keystroke_r	r	n/a
462.392	0.12	924784	keystroke_o	o	n/a
462.632	0.105	925264	keystroke_a	a	n/a
462.932	0.0745	925864	keystroke_c	c	n/a
463.127	0.0745	926254	keystroke_h	h	n/a
463.3665	0.15	926733	keystroke_Key.space	Key.space	n/a
463.7715	0.12	927543	keystroke_c	c	n/a
463.9065	0.135	927813	keystroke_h	h	n/a
464.0265	0.15	928053	keystroke_i	i	n/a
464.2965	0.105	928593	keystroke_l	l	n/a
464.5365	0.09	929073	keystroke_d	d	n/a
464.8365	0.09	929673	keystroke_h	h	n/a
465.0315	0.1055	930063	keystroke_o	o	n/a
465.212	0.09	930424	keystroke_o	o	n/a
465.437	0.09	930874	keystroke_d	d	n/a
465.647	0.09	931294	keystroke_Key.enter	Key.enter	n/a
465.7415	9.597	931483	prompt	n/a	business scenes coordinated asian\n
466.487	0.09	932974	keystroke_b	b	n/a
466.622	0.12	933244	keystroke_u	u	n/a
466.787	0.135	933574	keystroke_s	s	n/a
466.907	0.1055	933814	keystroke_i	i	n/a
467.0275	0.12	934055	keystroke_n	n	n/a
467.1625	0.105	934325	keystroke_e	e	n/a
467.3875	0.075	934775	keystroke_s	s	n/a
467.5525	0.09	935105	keystroke_s	s	n/a
468.3315	0.136	936663	keystroke_Key.space	Key.space	n/a
468.6625	0.119	937325	keystroke_s	s	n/a
468.962	0.105	937924	keystroke_c	c	n/a
469.2175	0.075	938435	keystroke_e	e	n/a
469.3825	0.1345	938765	keystroke_n	n	n/a
469.637	0.12	939274	keystroke_e	e	n/a
469.877	0.105	939754	keystroke_s	s	n/a
470.117	0.1495	940234	keystroke_Key.space	Key.space	n/a
470.462	0.09	940924	keystroke_s	s	n/a
470.852	0.105	941704	keystroke_Key.backspace	Key.backspace	n/a
471.0315	0.12	942063	keystroke_c	c	n/a
471.1965	0.09	942393	keystroke_o	o	n/a
471.3615	0.105	942723	keystroke_o	o	n/a
471.6165	0.03	943233	keystroke_r	r	n/a
472.4425	0.104	944885	keystroke_d	d	n/a
472.6215	0.21	945243	keystroke_i	i	n/a
472.8165	0.12	945633	keystroke_n	n	n/a
472.997	0.21	945994	keystroke_a	a	n/a
473.177	0.15	946354	keystroke_t	t	n/a
473.312	0.105	946624	keystroke_e	e	n/a
473.582	0.09	947164	keystroke_d	d	n/a
473.762	0.165	947524	keystroke_Key.space	Key.space	n/a
474.317	0.12	948634	keystroke_a	a	n/a
474.557	0.09	949114	keystroke_s	s	n/a
474.692	0.1345	949384	keystroke_i	i	n/a
474.8715	0.1355	949743	keystroke_a	a	n/a
474.992	0.1045	949984	keystroke_n	n	n/a
475.2475	0.09	950495	keystroke_Key.enter	Key.enter	n/a
475.341	8.9525	950682	prompt	n/a	segment performer albania drinking\n
476.012	0.0755	952024	keystroke_s	s	n/a
476.1925	0.09	952385	keystroke_e	e	n/a
476.3875	0.074	952775	keystroke_g	g	n/a
476.5975	0.1345	953195	keystroke_m	m	n/a
476.792	0.0745	953584	keystroke_e	e	n/a
476.9125	0.0895	953825	keystroke_n	n	n/a
477.032	0.105	954064	keystroke_t	t	n/a
477.152	0.15	954304	keystroke_Key.space	Key.space	n/a
477.407	0.135	954814	keystroke_p	p	n/a
477.527	0.15	955054	keystroke_e	e	n/a
477.617	0.105	955234	keystroke_r	r	n/a
477.842	0.105	955684	keystroke_f	f	n/a
478.4715	0.015	956943	keystroke_o	o	n/a
478.5315	0.106	957063	keystroke_r	r	n/a
478.6825	0.1195	957365	keystroke_m	m	n/a
479.1915	0.12	958383	keystroke_e	e	n/a
479.3865	0.09	958773	keystroke_r	r	n/a
479.6115	0.1655	959223	keystroke_Key.space	Key.space	n/a
480.077	0.135	960154	keystroke_a	a	n/a
480.512	0.09	961024	keystroke_l	l	n/a
480.752	0.105	961504	keystroke_b	b	n/a
480.962	0.105	961924	keystroke_a	a	n/a
481.082	0.105	962164	keystroke_n	n	n/a
481.247	0.135	962494	keystroke_i	i	n/a
481.442	0.135	962884	keystroke_a	a	n/a
481.562	0.135	963124	keystroke_Key.space	Key.space	n/a
481.862	0.09	963724	keystroke_d	d	n/a
482.072	0.09	964144	keystroke_r	r	n/a
482.597	0.105	965194	keystroke_i	i	n/a
483.4365	0.075	966873	keystroke_n	n	n/a
483.5265	0.075	967053	keystroke_k	k	n/a
483.7365	0.165	967473	keystroke_i	i	n/a
483.8265	0.15	967653	keystroke_n	n	n/a
483.9915	0.09	967983	keystroke_g	g	n/a
484.1865	0.105	968373	keystroke_Key.enter	Key.enter	n/a
484.2965	7.887	968593	prompt	n/a	textile bulk machine informal\n
485.027	0.105	970054	keystroke_t	t	n/a
485.117	0.105	970234	keystroke_e	e	n/a
485.387	0.15	970774	keystroke_x	x	n/a
485.672	0.12	971344	keystroke_t	t	n/a
485.957	0.105	971914	keystroke_i	i	n/a
486.152	0.105	972304	keystroke_l	l	n/a
486.332	0.1055	972664	keystroke_e	e	n/a
486.4825	0.15	972965	keystroke_Key.space	Key.space	n/a
486.7525	0.105	973505	keystroke_b	b	n/a
486.8725	0.12	973745	keystroke_u	u	n/a
487.0815	0.091	974163	keystroke_l	l	n/a
487.3365	0.121	974673	keystroke_k	k	n/a
487.4725	0.119	974945	keystroke_Key.space	Key.space	n/a
487.862	0.135	975724	keystroke_m	m	n/a
488.027	0.09	976054	keystroke_a	a	n/a
488.192	0.1655	976384	keystroke_c	c	n/a
488.3425	0.104	976685	keystroke_h	h	n/a
488.4315	0.165	976863	keystroke_i	i	n/a
488.5515	0.121	977103	keystroke_n	n	n/a
488.7165	0.091	977433	keystroke_e	e	n/a
488.8965	0.135	977793	keystroke_Key.space	Key.space	n/a
489.452	0.075	978904	keystroke_f	f	n/a
489.857	0.09	979714	keystroke_Key.backspace	Key.backspace	n/a
490.097	0.105	980194	keystroke_i	i	n/a
490.172	0.12	980344	keystroke_n	n	n/a
490.307	0.075	980614	keystroke_f	f	n/a
490.487	0.15	980974	keystroke_o	o	n/a
491.387	0.105	982774	keystroke_r	r	n/a
491.567	0.105	983134	keystroke_m	m	n/a
491.717	0.1195	983434	keystroke_a	a	n/a
491.8515	0.09	983703	keystroke_l	l	n/a
492.0915	0.09	984183	keystroke_Key.enter	Key.enter	n/a
492.1865	7.047	984373	prompt	n/a	branches letters brazil washer\n
493.0365	0.075	986073	keystroke_b	b	n/a
493.2315	0.105	986463	keystroke_r	r	n/a
493.3515	0.12	986703	keystroke_a	a	n/a
493.4265	0.105	986853	keystroke_n	n	n/a
493.6965	0.12	987393	keystroke_c	c	n/a
493.8615	0.12	987723	keystroke_h	h	n/a
493.9965	0.09	987993	keystroke_e	e	n/a
494.1765	0.09	988353	keystroke_s	s	n/a
494.2965	0.18	988593	keystroke_Key.space	Key.space	n/a
494.7165	0.075	989433	keystroke_l	l	n/a
494.8515	0.12	989703	keystroke_e	e	n/a
495.0465	0.09	990093	keystroke_t	t	n/a
495.212	0.12	990424	keystroke_t	t	n/a
495.377	0.15	990754	keystroke_e	e	n/a
495.512	0.075	991024	keystroke_r	r	n/a
495.722	0.105	991444	keystroke_s	s	n/a
495.887	0.15	991774	keystroke_Key.space	Key.space	n/a
496.157	0.12	992314	keystroke_b	b	n/a
496.427	0.15	992854	keystroke_r	r	n/a
496.622	0.12	993244	keystroke_a	a	n/a
497.072	0.2245	994144	keystroke_z	z	n/a
497.4165	0.09	994833	keystroke_i	i	n/a
497.6115	0.18	995223	keystroke_l	l	n/a
497.7765	0.165	995553	keystroke_Key.space	Key.space	n/a
498.3165	0.06	996633	keystroke_w	w	n/a
498.4815	0.12	996963	keystroke_a	a	n/a
498.5865	0.1055	997173	keystroke_s	s	n/a
498.722	0.135	997444	keystroke_h	h	n/a
498.872	0.135	997744	keystroke_e	e	n/a
498.947	0.15	997894	keystroke_r	r	n/a
499.127	0.105	998254	keystroke_Key.enter	Key.enter	n/a
499.238	8.2905	998476	prompt	n/a	greene termination blood items\n
499.907	0.105	999814	keystroke_g	g	n/a
500.0865	0.1355	1000173	keystroke_e	e	n/a
500.912	0.12	1001824	keystroke_Key.backspace	Key.backspace	n/a
501.062	0.075	1002124	keystroke_r	r	n/a
501.242	0.03	1002484	keystroke_e	e	n/a
501.347	0.0895	1002694	keystroke_e	e	n/a
501.5265	0.105	1003053	keystroke_n	n	n/a
501.6765	0.075	1003353	keystroke_e	e	n/a
501.8265	0.135	1003653	keystroke_Key.space	Key.space	n/a
502.2615	0.09	1004523	keystroke_t	t	n/a
502.4115	0.135	1004823	keystroke_e	e	n/a
502.5015	0.135	1005003	keystroke_r	r	n/a
502.5915	0.105	1005183	keystroke_m	m	n/a
504.017	0.09	1008034	keystroke_i	i	n/a
504.242	0.09	1008484	keystroke_n	n	n/a
504.362	0.135	1008724	keystroke_a	a	n/a
504.467	0.135	1008934	keystroke_t	t	n/a
504.587	0.135	1009174	keystroke_i	i	n/a
504.707	0.135	1009414	keystroke_o	o	n/a
504.827	0.135	1009654	keystroke_n	n	n/a
505.007	0.165	1010014	keystroke_Key.space	Key.space	n/a
505.262	0.09	1010524	keystroke_b	b	n/a
505.382	0.1045	1010764	keystroke_l	l	n/a
505.5915	0.105	1011183	keystroke_o	o	n/a
505.7715	0.09	1011543	keystroke_o	o	n/a
505.9665	0.09	1011933	keystroke_d	d	n/a
506.1165	0.12	1012233	keystroke_Key.space	Key.space	n/a
506.4465	0.09	1012893	keystroke_i	i	n/a
506.5815	0.105	1013163	keystroke_t	t	n/a
506.807	0.105	1013614	keystroke_e	e	n/a
507.032	0.135	1014064	keystroke_m	m	n/a
507.197	0.105	1014394	keystroke_s	s	n/a
507.437	0.09	1014874	keystroke_Key.enter	Key.enter	n/a
507.5315	7.7665	1015063	prompt	n/a	created acts that'd dishes\n
508.3065	0.105	1016613	keystroke_c	c	n/a
508.5165	0.12	1017033	keystroke_r	r	n/a
508.6665	0.0905	1017333	keystroke_e	e	n/a
508.817	0.105	1017634	keystroke_a	a	n/a
508.967	0.135	1017934	keystroke_t	t	n/a
509.102	0.09	1018204	keystroke_e	e	n/a
509.327	0.105	1018654	keystroke_d	d	n/a
509.5515	0.135	1019103	keystroke_Key.space	Key.space	n/a
510.0765	0.105	1020153	keystroke_a	a	n/a
510.2865	0.09	1020573	keystroke_c	c	n/a
510.4365	0.105	1020873	keystroke_t	t	n/a
510.6615	0.105	1021323	keystroke_s	s	n/a
510.9015	0.135	1021803	keystroke_Key.space	Key.space	n/a
511.3365	0.12	1022673	keystroke_t	t	n/a
511.4565	0.12	1022913	keystroke_h	h	n/a
511.5775	0.134	1023155	keystroke_a	a	n/a
511.6965	0.105	1023393	keystroke_t	t	n/a
512.2815	0.15	1024563	keystroke_'	'	n/a
512.5515	0.03	1025103	keystroke_s	s	n/a
513.0015	0.105	1026003	keystroke_Key.backspace	Key.backspace	n/a
513.1665	0.105	1026333	keystroke_d	d	n/a
513.3465	0.12	1026693	keystroke_Key.space	Key.space	n/a
513.812	0.105	1027624	keystroke_d	d	n/a
513.932	0.09	1027864	keystroke_i	i	n/a
514.097	0.165	1028194	keystroke_s	s	n/a
514.577	0.105	1029154	keystroke_h	h	n/a
514.712	0.105	1029424	keystroke_e	e	n/a
514.967	0.09	1029934	keystroke_s	s	n/a
515.1915	0.1055	1030383	keystroke_Key.enter	Key.enter	n/a
515.3015	12.477	1030603	prompt	n/a	engineering agricultural committed turn\n
516.122	0.105	1032244	keystroke_e	e	n/a
516.257	0.12	1032514	keystroke_n	n	n/a
516.527	0.09	1033054	keystroke_g	g	n/a
516.7215	0.09	1033443	keystroke_i	i	n/a
516.8865	0.0905	1033773	keystroke_n	n	n/a
517.037	0.12	1034074	keystroke_e	e	n/a
517.232	0.12	1034464	keystroke_e	e	n/a
517.472	0.105	1034944	keystroke_r	r	n/a
517.652	0.18	1035304	keystroke_i	i	n/a
517.757	0.15	1035514	keystroke_n	n	n/a
517.937	0.0895	1035874	keystroke_g	g	n/a
518.0865	0.12	1036173	keystroke_Key.space	Key.space	n/a
518.3115	0.135	1036623	keystroke_a	a	n/a
519.122	0.074	1038244	keystroke_g	g	n/a
519.437	0.089	1038874	keystroke_r	r	n/a
519.632	0.104	1039264	keystroke_i	i	n/a
519.9315	0.1355	1039863	keystroke_c	c	n/a
520.112	0.1195	1040224	keystroke_u	u	n/a
520.337	0.09	1040674	keystroke_l	l	n/a
521.117	0.12	1042234	keystroke_t	t	n/a
521.492	0.135	1042984	keystroke_r	r	n/a
521.672	0.12	1043344	keystroke_u	u	n/a
521.927	0.1345	1043854	keystroke_a	a	n/a
522.0915	0.165	1044183	keystroke_l	l	n/a
522.2115	0.15	1044423	keystroke_Key.space	Key.space	n/a
523.0065	0.105	1046013	keystroke_Key.backspace	Key.backspace	n/a
523.202	0.075	1046404	keystroke_Key.backspace	Key.backspace	n/a
523.397	0.075	1046794	keystroke_Key.backspace	Key.backspace	n/a
523.577	0.09	1047154	keystroke_Key.backspace	Key.backspace	n/a
523.772	0.075	1047544	keystroke_Key.backspace	Key.backspace	n/a
524.087	0.09	1048174	keystroke_u	u	n/a
524.192	0.09	1048384	keystroke_r	r	n/a
524.312	0.135	1048624	keystroke_a	a	n/a
524.432	0.105	1048864	keystroke_l	l	n/a
524.582	0.135	1049164	keystroke_Key.space	Key.space	n/a
525.002	0.12	1050004	keystroke_c	c	n/a
525.152	0.09	1050304	keystroke_o	o	n/a
525.362	0.09	1050724	keystroke_m	m	n/a
525.527	0.12	1051054	keystroke_m	m	n/a
525.7825	0.0895	1051565	keystroke_i	i	n/a
525.962	0.075	1051924	keystroke_t	t	n/a
526.127	0.105	1052254	keystroke_t	t	n/a
526.292	0.075	1052584	keystroke_e	e	n/a
526.487	0.09	1052974	keystroke_d	d	n/a
526.667	0.15	1053334	keystroke_Key.space	Key.space	n/a
526.982	0.105	1053964	keystroke_t	t	n/a
527.117	0.105	1054234	keystroke_u	u	n/a
527.312	0.09	1054624	keystroke_r	r	n/a
527.447	0.09	1054894	keystroke_n	n	n/a
527.672	0.105	1055344	keystroke_Key.enter	Key.enter	n/a
527.7815	7.902	1055563	prompt	n/a	desktop lets featured temporarily\n
528.512	0.075	1057024	keystroke_d	d	n/a
528.692	0.09	1057384	keystroke_e	e	n/a
528.842	0.09	1057684	keystroke_s	s	n/a
528.947	0.105	1057894	keystroke_k	k	n/a
529.172	0.06	1058344	keystroke_t	t	n/a
529.262	0.165	1058524	keystroke_o	o	n/a
529.397	0.15	1058794	keystroke_p	p	n/a
529.562	0.15	1059124	keystroke_Key.space	Key.space	n/a
529.952	0.09	1059904	keystroke_l	l	n/a
530.072	0.12	1060144	keystroke_e	e	n/a
530.177	0.09	1060354	keystroke_t	t	n/a
530.342	0.105	1060684	keystroke_s	s	n/a
530.462	0.135	1060924	keystroke_Key.space	Key.space	n/a
530.852	0.09	1061704	keystroke_f	f	n/a
531.167	0.105	1062334	keystroke_e	e	n/a
531.3915	0.12	1062783	keystroke_a	a	n/a
531.5415	0.12	1063083	keystroke_t	t	n/a
531.7065	0.135	1063413	keystroke_u	u	n/a
531.8565	0.12	1063713	keystroke_r	r	n/a
531.9615	0.09	1063923	keystroke_e	e	n/a
532.2915	0.09	1064583	keystroke_d	d	n/a
532.4865	0.165	1064973	keystroke_Key.space	Key.space	n/a
532.832	0.105	1065664	keystroke_t	t	n/a
532.967	0.105	1065934	keystroke_e	e	n/a
533.132	0.15	1066264	keystroke_m	m	n/a
533.252	0.135	1066504	keystroke_p	p	n/a
533.717	0.09	1067434	keystroke_o	o	n/a
534.2715	0.105	1068543	keystroke_r	r	n/a
534.4515	0.12	1068903	keystroke_a	a	n/a
534.7515	0.09	1069503	keystroke_r	r	n/a
534.9015	0.09	1069803	keystroke_i	i	n/a
535.0665	0.12	1070133	keystroke_l	l	n/a
535.307	0.104	1070614	keystroke_y	y	n/a
535.5765	0.1045	1071153	keystroke_Key.enter	Key.enter	n/a
535.6875	6.5805	1071375	prompt	n/a	enabling percentage score murphy\n
536.357	0.074	1072714	keystroke_e	e	n/a
536.446	0.106	1072892	keystroke_n	n	n/a
536.6115	0.1355	1073223	keystroke_a	a	n/a
536.761	0.1055	1073522	keystroke_b	b	n/a
536.9115	0.0905	1073823	keystroke_l	l	n/a
537.077	0.15	1074154	keystroke_i	i	n/a
537.182	0.12	1074364	keystroke_n	n	n/a
537.317	0.09	1074634	keystroke_g	g	n/a
537.437	0.15	1074874	keystroke_Key.space	Key.space	n/a
537.707	0.105	1075414	keystroke_p	p	n/a
537.842	0.09	1075684	keystroke_e	e	n/a
537.902	0.105	1075804	keystroke_r	r	n/a
538.187	0.09	1076374	keystroke_c	c	n/a
538.397	0.09	1076794	keystroke_e	e	n/a
538.592	0.105	1077184	keystroke_n	n	n/a
538.757	0.09	1077514	keystroke_t	t	n/a
539.042	0.135	1078084	keystroke_a	a	n/a
539.192	0.09	1078384	keystroke_g	g	n/a
539.327	0.105	1078654	keystroke_e	e	n/a
539.522	0.105	1079044	keystroke_Key.space	Key.space	n/a
539.912	0.105	1079824	keystroke_s	s	n/a
540.137	0.075	1080274	keystroke_c	c	n/a
540.3175	0.104	1080635	keystroke_o	o	n/a
540.4365	0.12	1080873	keystroke_r	r	n/a
540.5575	0.089	1081115	keystroke_e	e	n/a
540.6915	0.15	1081383	keystroke_Key.space	Key.space	n/a
541.112	0.09	1082224	keystroke_m	m	n/a
541.307	0.12	1082614	keystroke_u	u	n/a
541.442	0.09	1082884	keystroke_r	r	n/a
541.622	0.105	1083244	keystroke_p	p	n/a
541.772	0.09	1083544	keystroke_h	h	n/a
542.042	0.015	1084084	keystroke_y	y	n/a
542.192	0.0745	1084384	keystroke_Key.enter	Key.enter	n/a
542.271	9.5975	1084542	prompt	n/a	flooring watson seafood lucky\n
542.9415	0.075	1085883	keystroke_f	f	n/a
543.0615	0.075	1086123	keystroke_l	l	n/a
543.2715	0.075	1086543	keystroke_o	o	n/a
543.4365	0.09	1086873	keystroke_o	o	n/a
543.9015	0.09	1087803	keystroke_r	r	n/a
544.037	0.1805	1088074	keystroke_i	i	n/a
544.1565	0.12	1088313	keystroke_n	n	n/a
544.2915	0.105	1088583	keystroke_g	g	n/a
544.3665	0.165	1088733	keystroke_Key.space	Key.space	n/a
544.5615	0.12	1089123	keystroke_w	w	n/a
544.7865	0.12	1089573	keystroke_a	a	n/a
544.9215	0.1355	1089843	keystroke_s	s	n/a
545.3115	0.09	1090623	keystroke_t	t	n/a
545.6265	0.09	1091253	keystroke_Key.backspace	Key.backspace	n/a
545.7915	0.075	1091583	keystroke_Key.backspace	Key.backspace	n/a
545.8815	0.075	1091763	keystroke_t	t	n/a
546.1215	0.09	1092243	keystroke_s	s	n/a
546.2565	0.1355	1092513	keystroke_o	o	n/a
546.377	0.15	1092754	keystroke_n	n	n/a
546.527	0.135	1093054	keystroke_Key.space	Key.space	n/a
547.4265	0.135	1094853	keystroke_s	s	n/a
547.6065	0.1205	1095213	keystroke_e	e	n/a
547.787	0.135	1095574	keystroke_a	a	n/a
548.267	0.09	1096534	keystroke_d	d	n/a
548.4765	0.105	1096953	keystroke_o	o	n/a
548.6425	0.059	1097285	keystroke_o	o	n/a
549.362	0.075	1098724	keystroke_Key.backspace	Key.backspace	n/a
549.527	0.075	1099054	keystroke_Key.backspace	Key.backspace	n/a
549.692	0.075	1099384	keystroke_Key.backspace	Key.backspace	n/a
549.827	0.09	1099654	keystroke_f	f	n/a
549.947	0.105	1099894	keystroke_o	o	n/a
550.127	0.09	1100254	keystroke_o	o	n/a
550.247	0.09	1100494	keystroke_d	d	n/a
550.367	0.12	1100734	keystroke_Key.space	Key.space	n/a
550.667	0.09	1101334	keystroke_l	l	n/a
550.817	0.12	1101634	keystroke_u	u	n/a
551.0565	0.105	1102113	keystroke_c	c	n/a
551.2965	0.12	1102593	keystroke_k	k	n/a
551.5215	0.105	1103043	keystroke_y	y	n/a
551.7765	0.09	1103553	keystroke_Key.enter	Key.enter	n/a
551.8715	7.047	1103743	prompt	n/a	david decline weird rocky\n
552.6765	0.135	1105353	keystroke_d	d	n/a
552.8865	0.15	1105773	keystroke_a	a	n/a
553.0065	0.135	1106013	keystroke_v	v	n/a
553.1715	0.105	1106343	keystroke_i	i	n/a
553.3215	0.0905	1106643	keystroke_d	d	n/a
553.457	0.135	1106914	keystroke_Key.space	Key.space	n/a
553.877	0.09	1107754	keystroke_d	d	n/a
