onset	duration	sample	value	key	prompt_text
4.4525	10.3125	8905	prompt	n/a	the quick brown fox jumps over a lazy dog\n
6.2745	0.043	12549	keystroke	t	n/a
6.3025	0.105	12605	keystroke	h	n/a
6.4375	0.12	12875	keystroke	e	n/a
6.6325	0.135	13265	keystroke	Key.space	n/a
7.1425	0.135	14285	keystroke	q	n/a
7.3675	0.135	14735	keystroke	u	n/a
7.4575	0.12	14915	keystroke	i	n/a
7.7425	0.105	15485	keystroke	c	n/a
7.9075	0.165	15815	keystroke	k	n/a
8.0275	0.12	16055	keystroke	Key.space	n/a
8.3875	0.105	16775	keystroke	b	n/a
8.7035	0.09	17407	keystroke	r	n/a
8.8685	0.105	17737	keystroke	o	n/a
9.0035	0.105	18007	keystroke	w	n/a
9.183	0.105	18366	keystroke	n	n/a
9.378	0.12	18756	keystroke	Key.space	n/a
10.1585	0.03	20317	keystroke	f	n/a
10.2035	0.105	20407	keystroke	o	n/a
10.3235	0.135	20647	keystroke	x	n/a
10.5035	0.1495	21007	keystroke	Key.space	n/a
10.668	0.091	21336	keystroke	j	n/a
10.8935	0.09	21787	keystroke	u	n/a
11.118	0.12	22236	keystroke	m	n/a
11.253	0.105	22506	keystroke	p	n/a
11.418	0.09	22836	keystroke	s	n/a
11.538	0.12	23076	keystroke	Key.space	n/a
11.808	0.105	23616	keystroke	o	n/a
11.958	0.0905	23916	keystroke	v	n/a
12.0785	0.12	24157	keystroke	e	n/a
12.1685	0.105	24337	keystroke	r	n/a
12.2885	0.1045	24577	keystroke	Key.space	n/a
12.408	0.1055	24816	keystroke	a	n/a
12.5435	0.135	25087	keystroke	Key.space	n/a
12.6785	0.105	25357	keystroke	l	n/a
12.8285	0.1045	25657	keystroke	a	n/a
13.098	0.135	26196	keystroke	z	n/a
13.248	0.165	26496	keystroke	y	n/a
13.368	0.165	26736	keystroke	Key.space	n/a
14.208	0.09	28416	keystroke	d	n/a
14.328	0.12	28656	keystroke	o	n/a
14.463	0.0895	28926	keystroke	g	n/a
14.6725	0.09	29345	keystroke	Key.enter	n/a
14.769	7.4665	29538	prompt	n/a	bigger newfoundland operator lawn\n
15.4375	0.0755	30875	keystroke	b	n/a
15.528	0.09	31056	keystroke	i	n/a
15.723	0.075	31446	keystroke	g	n/a
15.888	0.105	31776	keystroke	g	n/a
16.0535	0.1195	32107	keystroke	e	n/a
16.1285	0.1195	32257	keystroke	r	n/a
16.263	0.135	32526	keystroke	Key.space	n/a
16.6685	0.12	33337	keystroke	n	n/a
16.8785	0.135	33757	keystroke	e	n/a
17.0585	0.12	34117	keystroke	w	n/a
17.6435	0.06	35287	keystroke	f	n/a
17.7635	0.135	35527	keystroke	o	n/a
17.8685	0.09	35737	keystroke	u	n/a
18.0785	0.09	36157	keystroke	n	n/a
18.2285	0.105	36457	keystroke	d	n/a
18.7385	0.09	37477	keystroke	l	n/a
18.8735	0.1195	37747	keystroke	a	n/a
18.978	0.105	37956	keystroke	n	n/a
19.113	0.09	38226	keystroke	d	n/a
19.263	0.15	38526	keystroke	Key.space	n/a
19.608	0.09	39216	keystroke	o	n/a
19.728	0.165	39456	keystroke	p	n/a
19.923	0.12	39846	keystroke	e	n/a
20.013	0.1055	40026	keystroke	r	n/a
20.1485	0.12	40297	keystroke	a	n/a
20.2535	0.0895	40507	keystroke	t	n/a
20.463	0.105	40926	keystroke	o	n/a
20.658	0.09	41316	keystroke	r	n/a
20.823	0.105	41646	keystroke	Key.space	n/a
21.273	0.105	42546	keystroke	l	n/a
21.408	0.105	42816	keystroke	a	n/a
21.663	0.09	43326	keystroke	w	n/a
21.888	0.105	43776	keystroke	n	n/a
22.143	0.09	44286	keystroke	Key.enter	n/a
22.2385	9.9715	44477	prompt	n/a	prison primarily orlando wrestling\n
22.9385	0.1345	45877	keystroke	p	n/a
23.104	0.104	46208	keystroke	r	n/a
23.253	0.121	46506	keystroke	i	n/a
23.688	0.075	47376	keystroke	s	n/a
24.453	0.15	48906	keystroke	o	n/a
24.633	0.15	49266	keystroke	n	n/a
24.813	0.15	49626	keystroke	Key.space	n/a
25.083	0.135	50166	keystroke	p	n/a
25.233	0.12	50466	keystroke	r	n/a
25.413	0.135	50826	keystroke	i	n/a
25.863	0.12	51726	keystroke	m	n/a
26.088	0.15	52176	keystroke	a	n/a
26.239	0.089	52478	keystroke	r	n/a
27.063	0.105	54126	keystroke	i	n/a
27.228	0.1505	54456	keystroke	l	n/a
27.4535	0.15	54907	keystroke	y	n/a
27.5885	0.164	55177	keystroke	Key.space	n/a
27.7835	0.12	55567	keystroke	o	n/a
27.9485	0.12	55897	keystroke	r	n/a
28.1275	0.106	56255	keystroke	l	n/a
28.2935	0.1345	56587	keystroke	a	n/a
28.413	0.09	56826	keystroke	n	n/a
28.608	0.105	57216	keystroke	d	n/a
28.788	0.12	57576	keystroke	o	n/a
28.968	0.165	57936	keystroke	Key.space	n/a
29.3435	0.06	58687	keystroke	w	n/a
29.7185	0.1195	59437	keystroke	r	n/a
29.883	0.105	59766	keystroke	e	n/a
30.393	0.12	60786	keystroke	s	n/a
30.648	0.09	61296	keystroke	t	n/a
30.813	0.165	61626	keystroke	l	n/a
31.5485	0.15	63097	keystroke	i	n/a
31.6535	0.135	63307	keystroke	n	n/a
31.8035	0.105	63607	keystroke	g	n/a
32.1185	0.09	64237	keystroke	Key.enter	n/a
32.2135	9.3565	64427	prompt	n/a	hospitality year greetings similar\n
33.0785	0.105	66157	keystroke	h	n/a
33.5135	0.105	67027	keystroke	o	n/a
33.798	0.075	67596	keystroke	s	n/a
34.338	0.12	68676	keystroke	p	n/a
34.938	0.1055	69876	keystroke	i	n/a
35.1935	0.12	70387	keystroke	t	n/a
35.4335	0.09	70867	keystroke	a	n/a
35.6285	0.105	71257	keystroke	l	n/a
35.8535	0.09	71707	keystroke	i	n/a
36.0335	0.105	72067	keystroke	t	n/a
36.1685	0.165	72337	keystroke	y	n/a
36.3185	0.165	72637	keystroke	Key.space	n/a
36.558	0.12	73116	keystroke	y	n/a
36.6935	0.1045	73387	keystroke	e	n/a
36.828	0.15	73656	keystroke	a	n/a
36.948	0.12	73896	keystroke	r	n/a
37.083	0.1505	74166	keystroke	Key.space	n/a
37.3685	0.075	74737	keystroke	g	n/a
37.6085	0.12	75217	keystroke	e	n/a
38.163	0.09	76326	keystroke	Key.backspace	n/a
38.298	0.075	76596	keystroke	r	n/a
38.613	0.075	77226	keystroke	e	n/a
38.793	0.076	77586	keystroke	e	n/a
39.063	0.075	78126	keystroke	t	n/a
39.153	0.1505	78306	keystroke	i	n/a
39.228	0.1505	78456	keystroke	n	n/a
39.3635	0.06	78727	keystroke	g	n/a
39.5285	0.09	79057	keystroke	s	n/a
39.6785	0.135	79357	keystroke	Key.space	n/a
39.9635	0.0745	79927	keystroke	s	n/a
40.083	0.1655	80166	keystroke	i	n/a
40.2035	0.165	80407	keystroke	m	n/a
40.8035	0.105	81607	keystroke	i	n/a
40.9985	0.105	81997	keystroke	l	n/a
41.1185	0.15	82237	keystroke	a	n/a
41.2385	0.12	82477	keystroke	r	n/a
41.4635	0.105	82927	keystroke	Key.enter	n/a
41.5735	8.6365	83147	prompt	n/a	newspapers tour preferred yemen\n
42.3335	0.12	84667	keystroke	n	n/a
42.5285	0.1195	85057	keystroke	e	n/a
42.618	0.09	85236	keystroke	w	n/a
42.948	0.09	85896	keystroke	s	n/a
43.6385	0.105	87277	keystroke	a	n/a
44.0885	0.12	88177	keystroke	Key.backspace	n/a
44.3885	0.12	88777	keystroke	p	n/a
44.5235	0.135	89047	keystroke	a	n/a
44.6585	0.09	89317	keystroke	p	n/a
44.8085	0.12	89617	keystroke	e	n/a
44.9135	0.1045	89827	keystroke	r	n/a
45.123	0.12	90246	keystroke	s	n/a
45.423	0.15	90846	keystroke	Key.space	n/a
45.9935	0.1195	91987	keystroke	t	n/a
46.114	0.104	92228	keystroke	o	n/a
46.188	0.12	92376	keystroke	u	n/a
46.338	0.09	92676	keystroke	r	n/a
46.488	0.165	92976	keystroke	Key.space	n/a
46.788	0.135	93576	keystroke	p	n/a
46.938	0.09	93876	keystroke	r	n/a
47.073	0.105	94146	keystroke	e	n/a
47.298	0.15	94596	keystroke	f	n/a
47.973	0.12	95946	keystroke	e	n/a
48.273	0.12	96546	keystroke	r	n/a
48.513	0.09	97026	keystroke	r	n/a
48.708	0.06	97416	keystroke	e	n/a
48.9035	0.0895	97807	keystroke	d	n/a
49.068	0.12	98136	keystroke	Key.space	n/a
49.293	0.12	98586	keystroke	y	n/a
49.428	0.075	98856	keystroke	e	n/a
49.609	0.119	99218	keystroke	m	n/a
49.788	0.045	99576	keystroke	e	n/a
49.878	0.105	99756	keystroke	n	n/a
50.118	0.09	100236	keystroke	Key.enter	n/a
50.213	6.238	100426	prompt	n/a	bobby january cleaner trivia\n
50.8535	0.105	101707	keystroke	b	n/a
50.9735	0.105	101947	keystroke	o	n/a
51.1985	0.075	102397	keystroke	b	n/a
51.3335	0.09	102667	keystroke	b	n/a
51.4685	0.15	102937	keystroke	y	n/a
51.5885	0.18	103177	keystroke	Key.space	n/a
51.7835	0.12	103567	keystroke	j	n/a
52.0235	0.12	104047	keystroke	a	n/a
52.1285	0.075	104257	keystroke	n	n/a
52.353	0.105	104706	keystroke	u	n/a
52.503	0.135	105006	keystroke	a	n/a
52.653	0.105	105306	keystroke	r	n/a
52.788	0.135	105576	keystroke	y	n/a
52.968	0.15	105936	keystroke	Key.space	n/a
53.268	0.105	106536	keystroke	c	n/a
53.433	0.135	106866	keystroke	l	n/a
53.643	0.15	107286	keystroke	e	n/a
53.943	0.105	107886	keystroke	a	n/a
54.153	0.1205	108306	keystroke	n	n/a
54.3785	0.105	108757	keystroke	e	n/a
54.4385	0.165	108877	keystroke	r	n/a
54.6785	0.15	109357	keystroke	Key.space	n/a
55.188	0.12	110376	keystroke	t	n/a
55.443	0.105	110886	keystroke	r	n/a
55.623	0.1205	111246	keystroke	i	n/a
55.8185	0.09	111637	keystroke	v	n/a
55.9535	0.12	111907	keystroke	i	n/a
56.1185	0.105	112237	keystroke	a	n/a
56.3585	0.09	112717	keystroke	Key.enter	n/a
56.4545	8.125	112909	prompt	n/a	countries burton surprised waves\n
57.2735	0.075	114547	keystroke	c	n/a
57.3335	0.105	114667	keystroke	o	n/a
57.768	0.105	115536	keystroke	u	n/a
57.978	0.09	115956	keystroke	n	n/a
58.158	0.105	116316	keystroke	t	n/a
58.383	0.105	116766	keystroke	r	n/a
58.503	0.12	117006	keystroke	i	n/a
58.713	0.075	117426	keystroke	e	n/a
58.893	0.09	117786	keystroke	s	n/a
59.403	0.165	118806	keystroke	Key.space	n/a
59.688	0.135	119376	keystroke	b	n/a
59.853	0.12	119706	keystroke	u	n/a
60.018	0.075	120036	keystroke	r	n/a
60.228	0.06	120456	keystroke	t	n/a
60.378	0.15	120756	keystroke	o	n/a
60.513	0.165	121026	keystroke	n	n/a
60.663	0.135	121326	keystroke	Key.space	n/a
61.023	0.09	122046	keystroke	s	n/a
61.218	0.15	122436	keystroke	u	n/a
61.428	0.135	122856	keystroke	r	n/a
61.713	0.15	123426	keystroke	p	n/a
62.058	0.12	124116	keystroke	r	n/a
62.253	0.12	124506	keystroke	i	n/a
62.4335	0.135	124867	keystroke	s	n/a
62.5385	0.1045	125077	keystroke	e	n/a
62.808	0.105	125616	keystroke	d	n/a
62.9885	0.15	125977	keystroke	Key.space	n/a
63.3335	0.12	126667	keystroke	w	n/a
63.5435	0.165	127087	keystroke	a	n/a
63.8285	0.105	127657	keystroke	v	n/a
64.0235	0.105	128047	keystroke	e	n/a
64.2185	0.105	128437	keystroke	s	n/a
64.4735	0.105	128947	keystroke	Key.enter	n/a
64.5845	6.955	129169	prompt	n/a	origins heating happens round\n
65.283	0.09	130566	keystroke	o	n/a
65.403	0.075	130806	keystroke	r	n/a
65.643	0.09	131286	keystroke	i	n/a
66.138	0.075	132276	keystroke	g	n/a
66.348	0.1805	132696	keystroke	i	n/a
66.483	0.1505	132966	keystroke	n	n/a
66.8735	0.09	133747	keystroke	s	n/a
67.0835	0.164	134167	keystroke	Key.space	n/a
67.4285	0.135	134857	keystroke	h	n/a
67.5785	0.15	135157	keystroke	e	n/a
67.8335	0.1045	135667	keystroke	a	n/a
68.073	0.09	136146	keystroke	t	n/a
68.223	0.195	136446	keystroke	i	n/a
68.343	0.15	136686	keystroke	n	n/a
68.538	0.075	137076	keystroke	g	n/a
68.673	0.18	137346	keystroke	Key.space	n/a
68.943	0.105	137886	keystroke	h	n/a
68.973	0.09	137946	keystroke	a	n/a
69.573	0.075	139146	keystroke	p	n/a
69.753	0.105	139506	keystroke	p	n/a
69.888	0.09	139776	keystroke	e	n/a
70.038	0.105	140076	keystroke	n	n/a
70.233	0.09	140466	keystroke	s	n/a
70.413	0.135	140826	keystroke	Key.space	n/a
70.698	0.09	141396	keystroke	r	n/a
70.803	0.135	141606	keystroke	o	n/a
70.878	0.12	141756	keystroke	u	n/a
71.103	0.105	142206	keystroke	n	n/a
71.253	0.09	142506	keystroke	d	n/a
71.418	0.12	142836	keystroke	Key.enter	n/a
71.5425	7.887	143085	prompt	n/a	float am objects drove\n
72.1975	0.09	144395	keystroke	f	n/a
72.3035	0.089	144607	keystroke	l	n/a
72.4825	0.091	144965	keystroke	o	n/a
72.6325	0.135	145265	keystroke	a	n/a
72.7825	0.12	145565	keystroke	t	n/a
72.9775	0.1505	145955	keystroke	Key.space	n/a
73.323	0.06	146646	keystroke	e	n/a
73.728	0.105	147456	keystroke	Key.backspace	n/a
73.863	0.12	147726	keystroke	a	n/a
74.028	0.075	148056	keystroke	n	n/a
74.148	0.12	148296	keystroke	Key.space	n/a
74.343	0.12	148686	keystroke	o	n/a
75.093	0.09	150186	keystroke	Key.backspace	n/a
75.258	0.09	150516	keystroke	Key.backspace	n/a
75.423	0.09	150846	keystroke	Key.backspace	n/a
75.708	0.09	151416	keystroke	m	n/a
75.993	0.12	151986	keystroke	Key.space	n/a
76.368	0.09	152736	keystroke	o	n/a
76.548	0.105	153096	keystroke	b	n/a
76.728	0.105	153456	keystroke	j	n/a
76.968	0.105	153936	keystroke	u	n/a
77.478	0.09	154956	keystroke	Key.backspace	n/a
77.583	0.0755	155166	keystroke	e	n/a
77.7935	0.1045	155587	keystroke	c	n/a
77.973	0.09	155946	keystroke	t	n/a
78.183	0.09	156366	keystroke	s	n/a
78.363	0.15	156726	keystroke	Key.space	n/a
78.603	0.09	157206	keystroke	d	n/a
78.768	0.105	157536	keystroke	r	n/a
78.918	0.12	157836	keystroke	o	n/a
79.0525	0.09	158105	keystroke	v	n/a
79.1125	0.105	158225	keystroke	e	n/a
79.3225	0.105	158645	keystroke	Key.enter	n/a
79.433	12.0715	158866	prompt	n/a	auctions shouldn't've northeast island\n
80.3875	0.12	160775	keystroke	a	n/a
80.6125	0.105	161225	keystroke	u	n/a
80.8525	0.09	161705	keystroke	c	n/a
81.063	0.06	162126	keystroke	t	n/a
81.153	0.135	162306	keystroke	i	n/a
81.273	0.15	162546	keystroke	o	n/a
81.378	0.12	162756	keystroke	n	n/a
81.528	0.105	163056	keystroke	s	n/a
81.708	0.12	163416	keystroke	Key.space	n/a
81.918	0.105	163836	keystroke	s	n/a
82.008	0.09	164016	keystroke	h	n/a
82.1135	0.1945	164227	keystroke	o	n/a
82.233	0.135	164466	keystroke	u	n/a
82.428	0.18	164856	keystroke	l	n/a
82.6675	0.075	165335	keystroke	d	n/a
83.448	0.15	166896	keystroke	'	n/a
84.1535	0.105	168307	keystroke	Key.backspace	n/a
84.4085	0.135	168817	keystroke	n	n/a
84.4985	0.15	168997	keystroke	'	n/a
84.6785	0.104	169357	keystroke	t	n/a
86.3125	0.12	172625	keystroke	'	n/a
86.898	0.0895	173796	keystroke	v	n/a
87.0625	0.075	174125	keystroke	e	n/a
88.248	0.135	176496	keystroke	Key.space	n/a
88.488	0.12	176976	keystroke	n	n/a
88.548	0.135	177096	keystroke	o	n/a
88.9075	0.106	177815	keystroke	r	n/a
89.2075	0.091	178415	keystroke	t	n/a
89.3275	0.105	178655	keystroke	h	n/a
89.5525	0.135	179105	keystroke	e	n/a
89.7325	0.15	179465	keystroke	a	n/a
89.8525	0.195	179705	keystroke	s	n/a
90.0025	0.12	180005	keystroke	t	n/a
90.1375	0.165	180275	keystroke	Key.space	n/a
90.4085	0.134	180817	keystroke	i	n/a
90.6325	0.091	181265	keystroke	s	n/a
90.783	0.105	181566	keystroke	l	n/a
90.933	0.12	181866	keystroke	a	n/a
91.0675	0.105	182135	keystroke	n	n/a
91.2325	0.075	182465	keystroke	d	n/a
91.3825	0.12	182765	keystroke	Key.enter	n/a
91.508	6.6715	183016	prompt	n/a	minimal danger beer disclose\n
92.2975	0.1355	184595	keystroke	m	n/a
92.478	0.15	184956	keystroke	i	n/a
92.583	0.1345	185166	keystroke	n	n/a
92.808	0.075	185616	keystroke	i	n/a
93.1525	0.135	186305	keystroke	m	n/a
93.3175	0.12	186635	keystroke	a	n/a
93.4825	0.135	186965	keystroke	l	n/a
93.6475	0.1355	187295	keystroke	Key.space	n/a
93.948	0.09	187896	keystroke	a	n/a
94.3685	0.09	188737	keystroke	Key.backspace	n/a
94.4735	0.105	188947	keystroke	d	n/a
94.5935	0.12	189187	keystroke	a	n/a
94.7285	0.09	189457	keystroke	n	n/a
94.9235	0.09	189847	keystroke	g	n/a
95.0885	0.1195	190177	keystroke	e	n/a
95.193	0.105	190386	keystroke	r	n/a
95.328	0.15	190656	keystroke	Key.space	n/a
95.568	0.075	191136	keystroke	b	n/a
95.748	0.075	191496	keystroke	e	n/a
95.9285	0.0745	191857	keystroke	e	n/a
96.123	0.09	192246	keystroke	r	n/a
96.363	0.135	192726	keystroke	Key.space	n/a
96.858	0.09	193716	keystroke	d	n/a
96.9785	0.12	193957	keystroke	i	n/a
97.1435	0.06	194287	keystroke	s	n/a
97.4285	0.09	194857	keystroke	c	n/a
97.5335	0.075	195067	keystroke	l	n/a
97.7135	0.09	195427	keystroke	o	n/a
97.8335	0.09	195667	keystroke	s	n/a
97.8785	0.105	195757	keystroke	e	n/a
98.0725	0.105	196145	keystroke	Key.enter	n/a
98.1825	6.6725	196365	prompt	n/a	signal games distance countries\n
98.8085	0.075	197617	keystroke	s	n/a
98.8985	0.12	197797	keystroke	i	n/a
99.0775	0.091	198155	keystroke	g	n/a
99.2135	0.104	198427	keystroke	n	n/a
99.3925	0.09	198785	keystroke	a	n/a
99.5125	0.12	199025	keystroke	l	n/a
99.6475	0.15	199295	keystroke	Key.space	n/a
100.0525	0.075	200105	keystroke	g	n/a
100.2635	0.105	200527	keystroke	a	n/a
100.4135	0.165	200827	keystroke	m	n/a
100.5625	0.06	201125	keystroke	e	n/a
100.6835	0.104	201367	keystroke	s	n/a
100.8775	0.12	201755	keystroke	Key.space	n/a
101.0725	0.075	202145	keystroke	d	n/a
101.1925	0.12	202385	keystroke	i	n/a
101.3425	0.105	202685	keystroke	s	n/a
101.5675	0.075	203135	keystroke	t	n/a
101.7325	0.12	203465	keystroke	a	n/a
101.8675	0.105	203735	keystroke	n	n/a
102.0325	0.045	204065	keystroke	c	n/a
102.2275	0.06	204455	keystroke	e	n/a
102.4375	0.18	204875	keystroke	Key.space	n/a
103.2175	0.105	206435	keystroke	c	n/a
103.338	0.15	206676	keystroke	o	n/a
103.443	0.105	206886	keystroke	u	n/a
103.653	0.105	207306	keystroke	n	n/a
103.818	0.12	207636	keystroke	t	n/a
104.028	0.1195	208056	keystroke	r	n/a
104.1925	0.135	208385	keystroke	i	n/a
104.3425	0.075	208685	keystroke	e	n/a
104.5375	0.075	209075	keystroke	s	n/a
104.748	0.105	209496	keystroke	Key.enter	n/a
104.86	7.6895	209720	prompt	n/a	mpeg spyware reasonably allows\n
105.5425	0.12	211085	keystroke	m	n/a
105.7375	0.1355	211475	keystroke	p	n/a
106.4275	0.09	212855	keystroke	e	n/a
106.5925	0.09	213185	keystroke	g	n/a
106.8025	0.135	213605	keystroke	Key.space	n/a
107.3575	0.12	214715	keystroke	s	n/a
107.5375	0.135	215075	keystroke	p	n/a
107.7775	0.09	215555	keystroke	y	n/a
108.0475	0.06	216095	keystroke	w	n/a
108.2275	0.12	216455	keystroke	a	n/a
108.3775	0.12	216755	keystroke	r	n/a
108.4825	0.105	216965	keystroke	e	n/a
108.6475	0.165	217295	keystroke	Key.space	n/a
109.098	0.1505	218196	keystroke	r	n/a
109.2035	0.075	218407	keystroke	e	n/a
109.3535	0.12	218707	keystroke	a	n/a
109.5335	0.09	219067	keystroke	s	n/a
109.7135	0.165	219427	keystroke	o	n/a
109.8335	0.15	219667	keystroke	n	n/a
110.298	0.09	220596	keystroke	a	n/a
110.568	0.09	221136	keystroke	b	n/a
110.778	0.12	221556	keystroke	l	n/a
110.943	0.15	221886	keystroke	y	n/a
111.108	0.165	222216	keystroke	Key.space	n/a
111.393	0.12	222786	keystroke	a	n/a
111.528	0.09	223056	keystroke	l	n/a
111.693	0.09	223386	keystroke	l	n/a
111.873	0.0895	223746	keystroke	o	n/a
111.9935	0.105	223987	keystroke	w	n/a
112.2175	0.121	224435	keystroke	s	n/a
112.4435	0.105	224887	keystroke	Key.enter	n/a
112.553	6.087	225106	prompt	n/a	pregnant short holder admin\n
113.268	0.105	226536	keystroke	p	n/a
113.508	0.105	227016	keystroke	r	n/a
113.673	0.09	227346	keystroke	e	n/a
113.883	0.075	227766	keystroke	g	n/a
114.333	0.12	228666	keystroke	n	n/a
114.498	0.09	228996	keystroke	a	n/a
114.693	0.12	229386	keystroke	n	n/a
115.113	0.105	230226	keystroke	t	n/a
115.308	0.15	230616	keystroke	Key.space	n/a
115.593	0.09	231186	keystroke	s	n/a
115.698	0.105	231396	keystroke	h	n/a
115.788	0.12	231576	keystroke	o	n/a
115.953	0.09	231906	keystroke	r	n/a
116.163	0.075	232326	keystroke	t	n/a
116.298	0.15	232596	keystroke	Key.space	n/a
116.643	0.1045	233286	keystroke	h	n/a
116.7625	0.09	233525	keystroke	o	n/a
116.9575	0.105	233915	keystroke	l	n/a
117.0925	0.075	234185	keystroke	d	n/a
117.2875	0.09	234575	keystroke	e	n/a
117.3625	0.12	234725	keystroke	r	n/a
117.5125	0.105	235025	keystroke	Key.space	n/a
117.738	0.12	235476	keystroke	a	n/a
117.933	0.06	235866	keystroke	d	n/a
118.053	0.12	236106	keystroke	m	n/a
118.203	0.135	236406	keystroke	i	n/a
118.308	0.09	236616	keystroke	n	n/a
118.533	0.105	237066	keystroke	Key.enter	n/a
118.6435	7.631	237287	prompt	n/a	dosage gifts encourage deposits\n
119.3275	0.09	238655	keystroke	d	n/a
119.4625	0.12	238925	keystroke	o	n/a
119.958	0.09	239916	keystroke	s	n/a
120.168	0.1195	240336	keystroke	a	n/a
120.3175	0.105	240635	keystroke	g	n/a
120.4375	0.075	240875	keystroke	e	n/a
120.6025	0.135	241205	keystroke	Key.space	n/a
121.0375	0.075	242075	keystroke	g	n/a
121.1425	0.12	242285	keystroke	i	n/a
121.3975	0.09	242795	keystroke	f	n/a
121.6825	0.09	243365	keystroke	t	n/a
121.8925	0.09	243785	keystroke	s	n/a
122.1025	0.135	244205	keystroke	Key.space	n/a
122.478	0.075	244956	keystroke	e	n/a
122.643	0.12	245286	keystroke	n	n/a
122.868	0.09	245736	keystroke	c	n/a
123.0925	0.15	246185	keystroke	o	n/a
123.3475	0.105	246695	keystroke	u	n/a
123.4825	0.135	246965	keystroke	r	n/a
123.6775	0.1955	247355	keystroke	a	n/a
123.843	0.12	247686	keystroke	g	n/a
123.978	0.075	247956	keystroke	e	n/a
124.143	0.15	248286	keystroke	Key.space	n/a
124.398	0.09	248796	keystroke	d	n/a
124.608	0.075	249216	keystroke	e	n/a
124.803	0.12	249606	keystroke	p	n/a
124.998	0.105	249996	keystroke	o	n/a
125.268	0.075	250536	keystroke	s	n/a
125.403	0.09	250806	keystroke	i	n/a
125.673	0.105	251346	keystroke	t	n/a
125.943	0.09	251886	keystroke	s	n/a
126.198	0.075	252396	keystroke	Key.enter	n/a
126.278	7.8865	252556	prompt	n/a	accident meter affordable four\n
127.083	0.09	254166	keystroke	a	n/a
127.248	0.09	254496	keystroke	c	n/a
127.398	0.09	254796	keystroke	c	n/a
127.548	0.135	255096	keystroke	i	n/a
127.698	0.075	255396	keystroke	d	n/a
127.863	0.0745	255726	keystroke	e	n/a
127.9675	0.12	255935	keystroke	n	n/a
128.1325	0.09	256265	keystroke	t	n/a
128.3125	0.135	256625	keystroke	Key.space	n/a
128.7335	0.12	257467	keystroke	m	n/a
128.8535	0.089	257707	keystroke	e	n/a
129.1535	0.075	258307	keystroke	t	n/a
129.528	0.21	259056	keystroke	e	n/a
129.678	0.12	259356	keystroke	r	n/a
129.917	0.12	259834	keystroke	Key.space	n/a
130.293	0.165	260586	keystroke	a	n/a
130.443	0.09	260886	keystroke	f	n/a
130.6535	0.0745	261307	keystroke	f	n/a
130.818	0.06	261636	keystroke	f	n/a
130.968	0.105	261936	keystroke	o	n/a
131.388	0.09	262776	keystroke	Key.backspace	n/a
131.553	0.09	263106	keystroke	Key.backspace	n/a
131.973	0.09	263946	keystroke	o	n/a
132.138	0.105	264276	keystroke	r	n/a
132.348	0.075	264696	keystroke	d	n/a
132.573	0.135	265146	keystroke	a	n/a
132.798	0.075	265596	keystroke	b	n/a
132.933	0.105	265866	keystroke	l	n/a
133.068	0.075	266136	keystroke	e	n/a
133.188	0.1495	266376	keystroke	Key.space	n/a
133.4585	0.089	266917	keystroke	f	n/a
133.5625	0.166	267125	keystroke	o	n/a
133.6535	0.135	267307	keystroke	u	n/a
133.8785	0.089	267757	keystroke	t	n/a
134.1475	0.015	268295	keystroke	Key.enter	n/a
134.1675	10.632	268335	prompt	n/a	displays patricia paperbacks promises\n
135.468	0.12	270936	keystroke	f	n/a
136.098	0.06	272196	keystroke	Key.backspace	n/a
136.188	0.09	272376	keystroke	d	n/a
136.323	0.105	272646	keystroke	i	n/a
136.473	0.105	272946	keystroke	s	n/a
136.623	0.09	273246	keystroke	p	n/a
136.788	0.105	273576	keystroke	l	n/a
136.953	0.1345	273906	keystroke	a	n/a
137.1175	0.09	274235	keystroke	y	n/a
137.463	0.06	274926	keystroke	s	n/a
137.583	0.135	275166	keystroke	Key.space	n/a
137.8525	0.105	275705	keystroke	a	n/a
137.9275	0.12	275855	keystroke	p	n/a
138.4375	0.09	276875	keystroke	Key.backspace	n/a
138.6025	0.075	277205	keystroke	Key.backspace	n/a
138.843	0.12	277686	keystroke	p	n/a
138.9775	0.105	277955	keystroke	a	n/a
139.1425	0.12	278285	keystroke	t	n/a
139.3675	0.09	278735	keystroke	r	n/a
139.4875	0.135	278975	keystroke	i	n/a
139.6825	0.09	279365	keystroke	c	n/a
139.8175	0.09	279635	keystroke	i	n/a
139.9825	0.09	279965	keystroke	a	n/a
140.148	0.15	280296	keystroke	Key.space	n/a
140.823	0.1495	281646	keystroke	p	n/a
140.9575	0.135	281915	keystroke	a	n/a
141.1075	0.12	282215	keystroke	p	n/a
141.3025	0.15	282605	keystroke	e	n/a
141.4075	0.12	282815	keystroke	r	n/a
141.6775	0.075	283355	keystroke	b	n/a
141.8425	0.09	283685	keystroke	a	n/a
141.9775	0.105	283955	keystroke	c	n/a
142.1275	0.105	284255	keystroke	k	n/a
142.2775	0.105	284555	keystroke	s	n/a
142.4275	0.135	284855	keystroke	Key.space	n/a
142.8025	0.135	285605	keystroke	p	n/a
142.9975	0.12	285995	keystroke	r	n/a
143.1325	0.135	286265	keystroke	o	n/a
143.2975	0.1655	286595	keystroke	m	n/a
143.433	0.12	286866	keystroke	i	n/a
143.568	0.135	287136	keystroke	s	n/a
143.673	0.105	287346	keystroke	e	n/a
144.198	0.06	288396	keystroke	s	n/a
144.678	0.12	289356	keystroke	Key.enter	n/a
144.81	6.7545	289620	prompt	n/a	enrolled carrying perfume true\n
145.653	0.09	291306	keystroke	e	n/a
145.758	0.105	291516	keystroke	n	n/a
145.938	0.105	291876	keystroke	r	n/a
146.058	0.09	292116	keystroke	o	n/a
146.268	0.045	292536	keystroke	l	n/a
146.418	0.09	292836	keystroke	l	n/a
146.538	0.075	293076	keystroke	e	n/a
146.7325	0.09	293465	keystroke	d	n/a
146.8825	0.165	293765	keystroke	Key.space	n/a
147.1075	0.09	294215	keystroke	c	n/a
147.6025	0.045	295205	keystroke	a	n/a
147.7075	0.12	295415	keystroke	r	n/a
147.9475	0.09	295895	keystroke	r	n/a
148.2185	0.059	296437	keystroke	y	n/a
148.3975	0.166	296795	keystroke	i	n/a
148.5175	0.135	297035	keystroke	n	n/a
148.7585	0.089	297517	keystroke	g	n/a
148.8775	0.1505	297755	keystroke	Key.space	n/a
149.088	0.135	298176	keystroke	p	n/a
149.268	0.1495	298536	keystroke	e	n/a
149.3875	0.12	298775	keystroke	r	n/a
149.688	0.075	299376	keystroke	f	n/a
149.913	0.105	299826	keystroke	u	n/a
150.138	0.105	300276	keystroke	m	n/a
150.318	0.09	300636	keystroke	e	n/a
150.453	0.15	300906	keystroke	Key.space	n/a
150.768	0.09	301536	keystroke	t	n/a
150.963	0.09	301926	keystroke	r	n/a
151.128	0.135	302256	keystroke	u	n/a
151.278	0.075	302556	keystroke	e	n/a
151.473	0.09	302946	keystroke	Key.enter	n/a
151.5705	6.3235	303141	prompt	n/a	argued distance modem only\n
152.193	0.12	304386	keystroke	a	n/a
152.358	0.0895	304716	keystroke	r	n/a
152.5825	0.075	305165	keystroke	g	n/a
152.763	0.105	305526	keystroke	u	n/a
152.898	0.075	305796	keystroke	e	n/a
153.108	0.075	306216	keystroke	d	n/a
153.198	0.165	306396	keystroke	Key.space	n/a
153.438	0.09	306876	keystroke	d	n/a
153.573	0.09	307146	keystroke	i	n/a
153.708	0.09	307416	keystroke	s	n/a
154.503	0.075	309006	keystroke	t	n/a
154.683	0.105	309366	keystroke	a	n/a
154.803	0.105	309606	keystroke	n	n/a
154.998	0.075	309996	keystroke	c	n/a
155.223	0.06	310446	keystroke	e	n/a
155.328	0.15	310656	keystroke	Key.space	n/a
155.628	0.135	311256	keystroke	m	n/a
155.733	0.15	311466	keystroke	o	n/a
155.943	0.0745	311886	keystroke	d	n/a
156.1375	0.06	312275	keystroke	e	n/a
156.3175	0.135	312635	keystroke	m	n/a
156.6775	0.12	313355	keystroke	Key.space	n/a
157.098	0.09	314196	keystroke	o	n/a
157.203	0.105	314406	keystroke	n	n/a
157.413	0.15	314826	keystroke	l	n/a
157.533	0.105	315066	keystroke	y	n/a
157.803	0.09	315606	keystroke	Key.enter	n/a
157.897	5.667	315794	prompt	n/a	clouds voting rent hearing\n
158.613	0.105	317226	keystroke	c	n/a
158.733	0.105	317466	keystroke	l	n/a
158.958	0.0445	317916	keystroke	o	n/a
159.0625	0.135	318125	keystroke	u	n/a
159.4825	0.12	318965	keystroke	d	n/a
159.6925	0.09	319385	keystroke	s	n/a
159.8875	0.165	319775	keystroke	Key.space	n/a
160.2175	0.09	320435	keystroke	v	n/a
160.3375	0.12	320675	keystroke	o	n/a
160.5175	0.1055	321035	keystroke	t	n/a
160.638	0.165	321276	keystroke	i	n/a
160.728	0.15	321456	keystroke	n	n/a
160.878	0.075	321756	keystroke	g	n/a
160.9825	0.15	321965	keystroke	Key.space	n/a
161.2225	0.15	322445	keystroke	r	n/a
161.4025	0.105	322805	keystroke	e	n/a
161.5675	0.12	323135	keystroke	n	n/a
161.7325	0.105	323465	keystroke	t	n/a
161.8675	0.165	323735	keystroke	Key.space	n/a
162.3175	0.12	324635	keystroke	h	n/a
162.4525	0.135	324905	keystroke	e	n/a
162.6475	0.18	325295	keystroke	a	n/a
162.7825	0.12	325565	keystroke	r	n/a
162.9175	0.1505	325835	keystroke	i	n/a
162.993	0.15	325986	keystroke	n	n/a
163.173	0.059	326346	keystroke	g	n/a
163.4725	0.09	326945	keystroke	Key.enter	n/a
163.567	9.1475	327134	prompt	n/a	influences racial gang connected\n
164.2675	0.1495	328535	keystroke	i	n/a
164.372	0.121	328744	keystroke	n	n/a
164.612	0.1055	329224	keystroke	f	n/a
164.8075	0.165	329615	keystroke	l	n/a
164.9425	0.135	329885	keystroke	u	n/a
165.482	0.091	330964	keystroke	e	n/a
165.6325	0.1055	331265	keystroke	n	n/a
165.873	0.09	331746	keystroke	c	n/a
166.0825	0.075	332165	keystroke	e	n/a
166.2625	0.09	332525	keystroke	s	n/a
166.4125	0.18	332825	keystroke	Key.space	n/a
166.8925	0.091	333785	keystroke	r	n/a
167.0425	0.09	334085	keystroke	a	n/a
167.2375	0.09	334475	keystroke	c	n/a
167.3725	0.12	334745	keystroke	i	n/a
167.5525	0.105	335105	keystroke	a	n/a
167.7025	0.135	335405	keystroke	l	n/a
167.8385	0.149	335677	keystroke	Key.space	n/a
168.1375	0.135	336275	keystroke	j	n/a
168.7225	0.105	337445	keystroke	Key.backspace	n/a
169.023	0.09	338046	keystroke	g	n/a
169.158	0.135	338316	keystroke	a	n/a
169.338	0.105	338676	keystroke	n	n/a
169.593	0.09	339186	keystroke	g	n/a
169.773	0.135	339546	keystroke	Key.space	n/a
170.4625	0.0605	340925	keystroke	c	n/a
170.5075	0.1055	341015	keystroke	o	n/a
170.658	0.09	341316	keystroke	n	n/a
170.853	0.105	341706	keystroke	n	n/a
171.0625	0.09	342125	keystroke	e	n/a
171.3025	0.075	342605	keystroke	c	n/a
171.4675	0.1055	342935	keystroke	t	n/a
172.098	0.09	344196	keystroke	e	n/a
172.338	0.075	344676	keystroke	d	n/a
172.623	0.09	345246	keystroke	Key.enter	n/a
172.717	7.1675	345434	prompt	n/a	dispute funk examine problems\n
173.4475	0.09	346895	keystroke	d	n/a
173.6875	0.1195	347375	keystroke	i	n/a
173.898	0.075	347796	keystroke	s	n/a
174.137	0.136	348274	keystroke	p	n/a
174.407	0.106	348814	keystroke	u	n/a
174.588	0.1045	349176	keystroke	t	n/a
174.7535	0.09	349507	keystroke	e	n/a
174.9325	0.1355	349865	keystroke	Key.space	n/a
175.323	0.075	350646	keystroke	f	n/a
175.473	0.09	350946	keystroke	u	n/a
175.923	0.09	351846	keystroke	n	n/a
176.208	0.105	352416	keystroke	k	n/a
176.433	0.12	352866	keystroke	Key.space	n/a
176.748	0.075	353496	keystroke	e	n/a
176.943	0.1345	353886	keystroke	x	n/a
177.2125	0.105	354425	keystroke	a	n/a
177.3775	0.15	354755	keystroke	m	n/a
177.5875	0.165	355175	keystroke	i	n/a
177.7225	0.1355	355445	keystroke	n	n/a
177.978	0.09	355956	keystroke	e	n/a
178.128	0.135	356256	keystroke	Key.space	n/a
178.398	0.15	356796	keystroke	p	n/a
178.578	0.09	357156	keystroke	r	n/a
178.713	0.105	357426	keystroke	o	n/a
178.893	0.0745	357786	keystroke	b	n/a
179.0275	0.105	358055	keystroke	l	n/a
179.2075	0.105	358415	keystroke	e	n/a
179.3725	0.12	358745	keystroke	m	n/a
179.5675	0.075	359135	keystroke	s	n/a
179.792	0.091	359584	keystroke	Key.enter	n/a
179.8875	8.697	359775	prompt	n/a	remainder blond shake andale\n
180.6925	0.151	361385	keystroke	r	n/a
180.8285	0.1035	361657	keystroke	e	n/a
180.977	0.106	361954	keystroke	a	n/a
181.083	0.134	362166	keystroke	m	n/a
181.323	0.18	362646	keystroke	i	n/a
181.428	0.165	362856	keystroke	n	n/a
182.043	0.09	364086	keystroke	Key.backspace	n/a
182.238	0.075	364476	keystroke	Key.backspace	n/a
182.418	0.075	364836	keystroke	Key.backspace	n/a
182.568	0.12	365136	keystroke	Key.backspace	n/a
182.8525	0.105	365705	keystroke	m	n/a
183.003	0.12	366006	keystroke	a	n/a
183.153	0.12	366306	keystroke	i	n/a
183.243	0.12	366486	keystroke	n	n/a
183.483	0.075	366966	keystroke	d	n/a
183.678	0.135	367356	keystroke	e	n/a
183.768	0.135	367536	keystroke	r	n/a
183.948	0.15	367896	keystroke	Key.space	n/a
184.398	0.09	368796	keystroke	b	n/a
184.503	0.09	369006	keystroke	l	n/a
184.698	0.09	369396	keystroke	o	n/a
184.968	0.105	369936	keystroke	n	n/a
185.208	0.075	370416	keystroke	d	n/a
185.373	0.135	370746	keystroke	Key.space	n/a
185.793	0.09	371586	keystroke	s	n/a
185.928	0.12	371856	keystroke	h	n/a
186.078	0.135	372156	keystroke	a	n/a
186.378	0.09	372756	keystroke	k	n/a
186.558	0.09	373116	keystroke	e	n/a
186.768	0.12	373536	keystroke	Key.space	n/a
187.2475	0.105	374495	keystroke	a	n/a
187.3975	0.12	374795	keystroke	n	n/a
187.6675	0.06	375335	keystroke	d	n/a
187.878	0.105	375756	keystroke	a	n/a
188.088	0.12	376176	keystroke	l	n/a
188.253	0.09	376506	keystroke	e	n/a
188.493	0.09	376986	keystroke	Key.enter	n/a
188.5885	7.856	377177	prompt	n/a	lopez logistics treasury discover\n
189.2275	0.09	378455	keystroke	l	n/a
189.4675	0.09	378935	keystroke	o	n/a
189.6925	0.12	379385	keystroke	p	n/a
189.9325	0.09	379865	keystroke	e	n/a
190.1875	0.12	380375	keystroke	z	n/a
190.4125	0.165	380825	keystroke	Key.space	n/a
190.7425	0.06	381485	keystroke	l	n/a
190.9225	0.09	381845	keystroke	o	n/a
191.1325	0.09	382265	keystroke	g	n/a
191.2975	0.12	382595	keystroke	i	n/a
191.4775	0.15	382955	keystroke	s	n/a
191.5825	0.15	383165	keystroke	t	n/a
191.8375	0.09	383675	keystroke	i	n/a
192.0475	0.075	384095	keystroke	c	n/a
192.3025	0.09	384605	keystroke	s	n/a
192.5275	0.15	385055	keystroke	Key.space	n/a
193.0375	0.105	386075	keystroke	t	n/a
193.2175	0.15	386435	keystroke	r	n/a
193.3675	0.12	386735	keystroke	e	n/a
193.5925	0.105	387185	keystroke	a	n/a
193.8175	0.105	387635	keystroke	s	n/a
194.0275	0.135	388055	keystroke	u	n/a
194.1775	0.09	388355	keystroke	r	n/a
194.3425	0.12	388685	keystroke	y	n/a
194.5525	0.135	389105	keystroke	Key.space	n/a
194.8225	0.09	389645	keystroke	d	n/a
194.9425	0.1495	389885	keystroke	i	n/a
195.227	0.105	390454	keystroke	s	n/a
195.527	0.09	391054	keystroke	c	n/a
195.677	0.12	391354	keystroke	o	n/a
195.917	0.075	391834	keystroke	v	n/a
196.053	0.134	392106	keystroke	e	n/a
196.157	0.09	392314	keystroke	r	n/a
196.338	0.104	392676	keystroke	Key.enter	n/a
196.447	8.052	392894	prompt	n/a	protect browser tennessee bicycle\n
197.132	0.135	394264	keystroke	p	n/a
197.312	0.105	394624	keystroke	r	n/a
197.402	0.09	394804	keystroke	o	n/a
197.597	0.12	395194	keystroke	t	n/a
197.762	0.0755	395524	keystroke	e	n/a
197.9875	0.09	395975	keystroke	c	n/a
198.1375	0.12	396275	keystroke	t	n/a
198.3175	0.165	396635	keystroke	Key.space	n/a
198.8125	0.075	397625	keystroke	b	n/a
199.0525	0.09	398105	keystroke	r	n/a
199.2175	0.105	398435	keystroke	o	n/a
199.5175	0.015	399035	keystroke	w	n/a
200.027	0.1205	400054	keystroke	s	n/a
200.3425	0.15	400685	keystroke	e	n/a
200.4625	0.15	400925	keystroke	r	n/a
200.7025	0.135	401405	keystroke	Key.space	n/a
200.9125	0.135	401825	keystroke	t	n/a
201.1525	0.105	402305	keystroke	e	n/a
201.3175	0.1055	402635	keystroke	n	n/a
201.4825	0.12	402965	keystroke	n	n/a
201.6625	0.105	403325	keystroke	e	n/a
201.9175	0.075	403835	keystroke	s	n/a
202.0835	0.119	404167	keystroke	s	n/a
202.4575	0.075	404915	keystroke	e	n/a
202.6225	0.0905	405245	keystroke	e	n/a
202.818	0.15	405636	keystroke	Key.space	n/a
203.073	0.105	406146	keystroke	b	n/a
203.238	0.105	406476	keystroke	i	n/a
203.493	0.09	406986	keystroke	c	n/a
203.718	0.105	407436	keystroke	y	n/a
203.868	0.09	407736	keystroke	c	n/a
204.0475	0.09	408095	keystroke	l	n/a
204.1975	0.075	408395	keystroke	e	n/a
204.3925	0.105	408785	keystroke	Key.enter	n/a
204.502	11.7725	409004	prompt	n/a	antarctica farms exhibition trinidad\n
205.292	0.1205	410584	keystroke	a	n/a
205.502	0.106	411004	keystroke	n	n/a
205.728	0.0895	411456	keystroke	t	n/a
205.9375	0.1355	411875	keystroke	a	n/a
206.088	0.09	412176	keystroke	r	n/a
206.388	0.12	412776	keystroke	c	n/a
206.7925	0.105	413585	keystroke	t	n/a
206.9875	0.135	413975	keystroke	i	n/a
207.2275	0.1205	414455	keystroke	c	n/a
207.393	0.135	414786	keystroke	a	n/a
207.558	0.165	415116	keystroke	Key.space	n/a
208.367	0.076	416734	keystroke	g	n/a
208.938	0.105	417876	keystroke	Key.backspace	n/a
209.058	0.12	418116	keystroke	f	n/a
209.358	0.165	418716	keystroke	a	n/a
209.553	0.105	419106	keystroke	r	n/a
209.733	0.12	419466	keystroke	m	n/a
209.958	0.1045	419916	keystroke	s	n/a
210.1525	0.135	420305	keystroke	Key.space	n/a
210.5725	0.075	421145	keystroke	e	n/a
210.7975	0.12	421595	keystroke	x	n/a
211.0075	0.1345	422015	keystroke	h	n/a
211.622	0.105	423244	keystroke	i	n/a
211.817	0.12	423634	keystroke	b	n/a
211.997	0.12	423994	keystroke	i	n/a
212.222	0.09	424444	keystroke	t	n/a
212.327	0.135	424654	keystroke	i	n/a
212.477	0.1355	424954	keystroke	o	n/a
212.5825	0.18	425165	keystroke	n	n/a
212.7625	0.1195	425525	keystroke	Key.space	n/a
213.6625	0.105	427325	keystroke	t	n/a
213.8725	0.105	427745	keystroke	r	n/a
214.0225	0.18	428045	keystroke	i	n/a
214.1725	0.165	428345	keystroke	n	n/a
215.0275	0.12	430055	keystroke	i	n/a
215.4475	0.1055	430895	keystroke	d	n/a
215.6125	0.09	431225	keystroke	a	n/a
215.898	0.059	431796	keystroke	d	n/a
216.182	0.09	432364	keystroke	Key.enter	n/a
216.2775	8.9815	432555	prompt	n/a	departmental tray guild screensaver\n
216.993	0.074	433986	keystroke	d	n/a
217.187	0.075	434374	keystroke	e	n/a
217.337	0.121	434674	keystroke	p	n/a
217.502	0.165	435004	keystroke	a	n/a
217.638	0.089	435276	keystroke	r	n/a
217.907	0.09	435814	keystroke	t	n/a
218.237	0.09	436474	keystroke	m	n/a
218.6725	0.12	437345	keystroke	e	n/a
218.9125	0.12	437825	keystroke	n	n/a
219.0925	0.105	438185	keystroke	t	n/a
219.3625	0.105	438725	keystroke	a	n/a
219.5125	0.135	439025	keystroke	l	n/a
219.6925	0.15	439385	keystroke	Key.space	n/a
220.1275	0.105	440255	keystroke	t	n/a
220.3675	0.105	440735	keystroke	r	n/a
220.5325	0.105	441065	keystroke	a	n/a
220.7275	0.165	441455	keystroke	y	n/a
220.8625	0.15	441725	keystroke	Key.space	n/a
221.1925	0.12	442385	keystroke	g	n/a
221.4325	0.09	442865	keystroke	u	n/a
221.6425	0.09	443285	keystroke	i	n/a
221.8375	0.105	443675	keystroke	l	n/a
222.0325	0.105	444065	keystroke	d	n/a
222.2275	0.18	444455	keystroke	Key.space	n/a
222.6325	0.105	445265	keystroke	s	n/a
222.8725	0.15	445745	keystroke	c	n/a
223.1125	0.12	446225	keystroke	r	n/a
223.353	0.075	446706	keystroke	e	n/a
223.532	0.09	447064	keystroke	e	n/a
223.788	0.105	447576	keystroke	n	n/a
223.952	0.136	447904	keystroke	s	n/a
224.252	0.195	448504	keystroke	a	n/a
224.552	0.136	449104	keystroke	v	n/a
224.763	0.135	449526	keystroke	e	n/a
224.868	0.119	449736	keystroke	r	n/a
225.1675	0.09	450335	keystroke	Key.enter	n/a
225.2625	8.277	450525	prompt	n/a	kids entertainment continuity said\n
225.9475	0.0905	451895	keystroke	k	n/a
226.158	0.119	452316	keystroke	i	n/a
226.322	0.09	452644	keystroke	d	n/a
226.487	0.09	452974	keystroke	s	n/a
226.622	0.135	453244	keystroke	Key.space	n/a
226.908	0.09	453816	keystroke	e	n/a
227.027	0.121	454054	keystroke	n	n/a
227.222	0.135	454444	keystroke	t	n/a
227.402	0.166	454804	keystroke	e	n/a
227.507	0.105	455014	keystroke	r	n/a
227.9275	0.105	455855	keystroke	t	n/a
228.1825	0.09	456365	keystroke	a	n/a
228.4075	0.195	456815	keystroke	i	n/a
228.5575	0.135	457115	keystroke	n	n/a
228.842	0.1205	457684	keystroke	m	n/a
229.0225	0.12	458045	keystroke	e	n/a
229.1575	0.12	458315	keystroke	n	n/a
229.3225	0.105	458645	keystroke	t	n/a
229.4425	0.15	458885	keystroke	Key.space	n/a
229.7575	0.09	459515	keystroke	c	n/a
229.8325	0.195	459665	keystroke	o	n/a
229.9825	0.12	459965	keystroke	u	n/a
230.6425	0.09	461285	keystroke	Key.backspace	n/a
230.9425	0.09	461885	keystroke	n	n/a
231.1975	0.12	462395	keystroke	t	n/a
231.3025	0.18	462605	keystroke	i	n/a
231.4375	0.135	462875	keystroke	n	n/a
231.7375	0.12	463475	keystroke	u	n/a
231.9175	0.1195	463835	keystroke	i	n/a
232.097	0.12	464194	keystroke	t	n/a
232.232	0.105	464464	keystroke	y	n/a
232.397	0.15	464794	keystroke	Key.space	n/a
232.728	0.105	465456	keystroke	s	n/a
232.938	0.105	465876	keystroke	a	n/a
233.103	0.134	466206	keystroke	i	n/a
233.268	0.09	466536	keystroke	d	n/a
233.433	0.104	466866	keystroke	Key.enter	n/a
233.5435	9.2205	467087	prompt	n/a	cheaper overseas carry mississippi\n
234.212	0.12	468424	keystroke	c	n/a
234.348	0.119	468696	keystroke	h	n/a
234.482	0.105	468964	keystroke	e	n/a
234.603	0.1045	469206	keystroke	a	n/a
234.7375	0.12	469475	keystroke	p	n/a
234.8875	0.105	469775	keystroke	e	n/a
234.963	0.1195	469926	keystroke	r	n/a
235.1125	0.135	470225	keystroke	Key.space	n/a
235.3525	0.105	470705	keystroke	o	n/a
235.5025	0.12	471005	keystroke	v	n/a
235.6525	0.12	471305	keystroke	e	n/a
235.7575	0.105	471515	keystroke	r	n/a
235.9825	0.135	471965	keystroke	s	n/a
236.1025	0.135	472205	keystroke	e	n/a
236.2825	0.135	472565	keystroke	a	n/a
236.4775	0.105	472955	keystroke	s	n/a
236.6425	0.15	473285	keystroke	Key.space	n/a
236.8675	0.09	473735	keystroke	c	n/a
237.4375	0.09	474875	keystroke	a	n/a
237.6475	0.06	475295	keystroke	r	n/a
237.8125	0.09	475625	keystroke	r	n/a
237.963	0.18	475926	keystroke	y	n/a
238.128	0.1495	476256	keystroke	Key.space	n/a
238.757	0.18	477514	keystroke	m	n/a
238.907	0.12	477814	keystroke	i	n/a
239.072	0.09	478144	keystroke	s	n/a
239.237	0.09	478474	keystroke	s	n/a
239.447	0.15	478894	keystroke	i	n/a
240.888	0.075	481776	keystroke	s	n/a
241.068	0.09	482136	keystroke	s	n/a
241.248	0.165	482496	keystroke	i	n/a
241.488	0.12	482976	keystroke	p	n/a
242.163	0.105	484326	keystroke	p	n/a
242.433	0.105	484866	keystroke	i	n/a
242.673	0.0895	485346	keystroke	Key.enter	n/a
242.7675	6.6265	485535	prompt	n/a	carpet duke persons reactions\n
243.7075	0.1195	487415	keystroke	c	n/a
243.887	0.151	487774	keystroke	a	n/a
244.023	0.104	488046	keystroke	r	n/a
244.187	0.121	488374	keystroke	p	n/a
244.308	0.119	488616	keystroke	e	n/a
244.442	0.105	488884	keystroke	t	n/a
244.592	0.135	489184	keystroke	Key.space	n/a
244.922	0.09	489844	keystroke	d	n/a
245.042	0.1055	490084	keystroke	u	n/a
245.2525	0.105	490505	keystroke	k	n/a
245.4175	0.105	490835	keystroke	e	n/a
245.5675	0.15	491135	keystroke	Key.space	n/a
245.8975	0.135	491795	keystroke	p	n/a
246.0925	0.165	492185	keystroke	e	n/a
246.2425	0.12	492485	keystroke	r	n/a
246.4675	0.09	492935	keystroke	s	n/a
246.6475	0.195	493295	keystroke	o	n/a
246.7825	0.135	493565	keystroke	n	n/a
247.0525	0.09	494105	keystroke	s	n/a
247.2775	0.1345	494555	keystroke	Key.space	n/a
247.8475	0.06	495695	keystroke	r	n/a
247.8775	0.1045	495755	keystroke	e	n/a
248.057	0.165	496114	keystroke	a	n/a
248.267	0.09	496534	keystroke	c	n/a
248.477	0.09	496954	keystroke	t	n/a
248.597	0.165	497194	keystroke	i	n/a
248.747	0.165	497494	keystroke	o	n/a
248.882	0.135	497764	keystroke	n	n/a
249.077	0.1055	498154	keystroke	s	n/a
249.2875	0.105	498575	keystroke	Key.enter	n/a
249.397	6.4025	498794	prompt	n/a	her apart promotes notebooks\n
250.2325	0.12	500465	keystroke	h	n/a
250.3675	0.15	500735	keystroke	e	n/a
250.4875	0.1195	500975	keystroke	r	n/a
250.592	0.135	501184	keystroke	Key.space	n/a
250.787	0.12	501574	keystroke	a	n/a
250.952	0.105	501904	keystroke	p	n/a
251.177	0.225	502354	keystroke	a	n/a
251.372	0.105	502744	keystroke	r	n/a
251.612	0.105	503224	keystroke	t	n/a
251.792	0.1655	503584	keystroke	Key.space	n/a
252.138	0.15	504276	keystroke	p	n/a
252.348	0.12	504696	keystroke	r	n/a
252.468	0.12	504936	keystroke	o	n/a
252.618	0.165	505236	keystroke	m	n/a
252.753	0.12	505506	keystroke	o	n/a
252.948	0.105	505896	keystroke	t	n/a
253.098	0.075	506196	keystroke	e	n/a
253.533	0.075	507066	keystroke	s	n/a
253.758	0.15	507516	keystroke	Key.space	n/a
254.133	0.12	508266	keystroke	n	n/a
254.223	0.12	508446	keystroke	o	n/a
254.373	0.12	508746	keystroke	t	n/a
254.583	0.06	509166	keystroke	e	n/a
254.778	0.09	509556	keystroke	b	n/a
254.928	0.0895	509856	keystroke	o	n/a
255.0925	0.12	510185	keystroke	o	n/a
255.2275	0.075	510455	keystroke	o	n/a
255.3175	0.09	510635	keystroke	k	n/a
255.4675	0.105	510935	keystroke	s	n/a
255.6925	0.105	511385	keystroke	Key.enter	n/a
255.803	8.921	511606	prompt	n/a	sailing management canberra dressed\n
256.8925	0.06	513785	keystroke	s	n/a
257.0875	0.09	514175	keystroke	a	n/a
257.628	0.09	515256	keystroke	i	n/a
257.853	0.09	515706	keystroke	l	n/a
258.048	0.1795	516096	keystroke	i	n/a
258.168	0.1345	516336	keystroke	n	n/a
258.3325	0.09	516665	keystroke	g	n/a
258.4825	0.105	516965	keystroke	Key.space	n/a
258.6475	0.12	517295	keystroke	m	n/a
258.7825	0.12	517565	keystroke	a	n/a
258.9175	0.1045	517835	keystroke	n	n/a
259.037	0.106	518074	keystroke	a	n/a
259.202	0.105	518404	keystroke	g	n/a
259.5325	0.075	519065	keystroke	e	n/a
259.8625	0.105	519725	keystroke	m	n/a
260.0275	0.0905	520055	keystroke	e	n/a
260.162	0.091	520324	keystroke	n	n/a
260.2825	0.105	520565	keystroke	t	n/a
260.4775	0.15	520955	keystroke	Key.space	n/a
261.257	0.12	522514	keystroke	c	n/a
261.4975	0.09	522995	keystroke	a	n/a
261.6775	0.135	523355	keystroke	n	n/a
261.9175	0.12	523835	keystroke	b	n/a
262.1725	0.09	524345	keystroke	e	n/a
262.3675	0.0595	524735	keystroke	r	n/a
262.517	0.091	525034	keystroke	r	n/a
262.667	0.1205	525334	keystroke	a	n/a
262.8625	0.15	525725	keystroke	Key.space	n/a
263.1475	0.075	526295	keystroke	d	n/a
263.4025	0.105	526805	keystroke	r	n/a
263.5525	0.1045	527105	keystroke	e	n/a
263.792	0.075	527584	keystroke	s	n/a
263.972	0.075	527944	keystroke	s	n/a
264.152	0.06	528304	keystroke	e	n/a
264.347	0.09	528694	keystroke	d	n/a
264.632	0.09	529264	keystroke	Key.enter	n/a
264.7275	9.1165	529455	prompt	n/a	gerald cleanup circuits egypt\n
265.5625	0.12	531125	keystroke	g	n/a
265.8025	0.135	531605	keystroke	e	n/a
265.9825	0.105	531965	keystroke	r	n/a
266.1475	0.12	532295	keystroke	a	n/a
266.2975	0.105	532595	keystroke	l	n/a
266.4925	0.045	532985	keystroke	k	n/a
267.1525	0.105	534305	keystroke	Key.backspace	n/a
267.3325	0.09	534665	keystroke	d	n/a
267.5125	0.12	535025	keystroke	Key.space	n/a
267.8725	0.075	535745	keystroke	d	n/a
268.2475	0.0895	536495	keystroke	Key.backspace	n/a
268.428	0.104	536856	keystroke	c	n/a
268.562	0.12	537124	keystroke	l	n/a
268.727	0.105	537454	keystroke	e	n/a
268.952	0.12	537904	keystroke	a	n/a
269.2075	0.105	538415	keystroke	n	n/a
269.4925	0.12	538985	keystroke	u	n/a
269.5825	0.1505	539165	keystroke	p	n/a
269.777	0.165	539554	keystroke	Key.space	n/a
270.5575	0.135	541115	keystroke	c	n/a
270.7075	0.1195	541415	keystroke	i	n/a
270.918	0.12	541836	keystroke	r	n/a
271.187	0.105	542374	keystroke	c	n/a
271.353	0.135	542706	keystroke	u	n/a
271.442	0.135	542884	keystroke	i	n/a
271.623	0.104	543246	keystroke	t	n/a
271.817	0.105	543634	keystroke	s	n/a
271.967	0.15	543934	keystroke	Key.space	n/a
272.3575	0.09	544715	keystroke	e	n/a
272.7775	0.0745	545555	keystroke	g	n/a
273.0775	0.09	546155	keystroke	y	n/a
273.3025	0.12	546605	keystroke	p	n/a
273.5275	0.105	547055	keystroke	t	n/a
273.752	0.09	547504	keystroke	Key.enter	n/a
273.847	6.7615	547694	prompt	n/a	daisy birth detective insertion\n
274.532	0.105	549064	keystroke	d	n/a
274.832	0.12	549664	keystroke	a	n/a
275.072	0.135	550144	keystroke	i	n/a
275.297	0.105	550594	keystroke	s	n/a
275.537	0.135	551074	keystroke	y	n/a
275.657	0.195	551314	keystroke	Key.space	n/a
276.272	0.135	552544	keystroke	b	n/a
276.452	0.135	552904	keystroke	i	n/a
276.632	0.06	553264	keystroke	r	n/a
276.842	0.09	553684	keystroke	t	n/a
276.962	0.15	553924	keystroke	h	n/a
277.142	0.15	554284	keystroke	Key.space	n/a
277.487	0.075	554974	keystroke	d	n/a
277.682	0.075	555364	keystroke	e	n/a
277.877	0.0905	555754	keystroke	t	n/a
278.0275	0.0895	556055	keystroke	e	n/a
278.253	0.105	556506	keystroke	c	n/a
278.403	0.105	556806	keystroke	t	n/a
278.553	0.1345	557106	keystroke	i	n/a
278.6885	0.164	557377	keystroke	v	n/a
278.8375	0.105	557675	keystroke	e	n/a
278.9575	0.1655	557915	keystroke	Key.space	n/a
279.288	0.135	558576	keystroke	i	n/a
279.378	0.135	558756	keystroke	n	n/a
279.528	0.15	559056	keystroke	s	n/a
279.648	0.165	559296	keystroke	e	n/a
279.753	0.12	559506	keystroke	r	n/a
279.963	0.105	559926	keystroke	t	n/a
280.053	0.15	560106	keystroke	i	n/a
280.173	0.134	560346	keystroke	o	n/a
280.278	0.105	560556	keystroke	n	n/a
280.502	0.105	561004	keystroke	Key.enter	n/a
280.6115	6.0575	561223	prompt	n/a	civic jade rica investigations\n
281.312	0.0905	562624	keystroke	c	n/a
281.4175	0.105	562835	keystroke	i	n/a
281.5525	0.105	563105	keystroke	v	n/a
281.6875	0.105	563375	keystroke	i	n/a
281.898	0.104	563796	keystroke	c	n/a
282.047	0.165	564094	keystroke	Key.space	n/a
282.227	0.136	564454	keystroke	j	n/a
282.392	0.12	564784	keystroke	a	n/a
282.587	0.09	565174	keystroke	d	n/a
282.858	0.075	565716	keystroke	e	n/a
283.067	0.15	566134	keystroke	Key.space	n/a
283.443	0.089	566886	keystroke	r	n/a
283.517	0.12	567034	keystroke	i	n/a
283.772	0.105	567544	keystroke	c	n/a
283.862	0.12	567724	keystroke	a	n/a
284.027	0.165	568054	keystroke	Key.space	n/a
284.312	0.15	568624	keystroke	i	n/a
284.417	0.15	568834	keystroke	n	n/a
284.6275	0.15	569255	keystroke	v	n/a
284.7475	0.105	569495	keystroke	e	n/a
284.9275	0.15	569855	keystroke	s	n/a
285.0925	0.105	570185	keystroke	t	n/a
285.2275	0.12	570455	keystroke	i	n/a
285.4075	0.075	570815	keystroke	g	n/a
285.5425	0.12	571085	keystroke	a	n/a
285.6625	0.105	571325	keystroke	t	n/a
285.7525	0.12	571505	keystroke	i	n/a
285.8425	0.1645	571685	keystroke	o	n/a
285.9775	0.1195	571955	keystroke	n	n/a
286.352	0.09	572704	keystroke	s	n/a
286.577	0.09	573154	keystroke	Key.enter	n/a
286.672	11.967	573344	prompt	n/a	norway acid minneapolis business\n
287.372	0.12	574744	keystroke	n	n/a
287.597	0.12	575194	keystroke	o	n/a
287.777	0.105	575554	keystroke	r	n/a
288.122	0.09	576244	keystroke	w	n/a
288.4375	0.015	576875	keystroke	a	n/a
288.4675	0.135	576935	keystroke	y	n/a
288.6625	0.15	577325	keystroke	Key.space	n/a
289.0375	0.12	578075	keystroke	a	n/a
289.2325	0.12	578465	keystroke	c	n/a
289.3825	0.135	578765	keystroke	i	n/a
289.5325	0.09	579065	keystroke	d	n/a
289.7275	0.165	579455	keystroke	Key.space	n/a
290.1925	0.135	580385	keystroke	m	n/a
290.9425	0.105	581885	keystroke	i	n/a
291.1675	0.075	582335	keystroke	n	n/a
291.3325	0.1045	582665	keystroke	n	n/a
291.542	0.09	583084	keystroke	e	n/a
291.752	0.135	583504	keystroke	a	n/a
292.037	0.135	584074	keystroke	p	n/a
292.892	0.016	585784	keystroke	o	n/a
293.057	0.09	586114	keystroke	l	n/a
293.222	0.09	586444	keystroke	i	n/a
293.357	0.12	586714	keystroke	s	n/a
293.522	0.1505	587044	keystroke	Key.space	n/a
293.8675	0.09	587735	keystroke	b	n/a
294.0475	0.1495	588095	keystroke	u	n/a
294.212	0.06	588424	keystroke	i	n/a
294.947	0.105	589894	keystroke	Key.backspace	n/a
295.082	0.105	590164	keystroke	s	n/a
295.232	0.165	590464	keystroke	i	n/a
295.352	0.135	590704	keystroke	n	n/a
297.89	0.027	595780	keystroke	e	n/a
298.053	0.075	596106	keystroke	s	n/a
298.218	0.074	596436	keystroke	s	n/a
298.532	0.105	597064	keystroke	Key.enter	n/a
298.642	10.317	597284	prompt	n/a	lexington innocent jewel columns\n
299.4625	0.105	598925	keystroke	l	n/a
299.5975	0.105	599195	keystroke	e	n/a
299.8825	0.12	599765	keystroke	x	n/a
300.1525	0.1345	600305	keystroke	i	n/a
300.378	0.12	600756	keystroke	n	n/a
300.528	0.089	601056	keystroke	g	n/a
300.767	0.075	601534	keystroke	t	n/a
300.872	0.1505	601744	keystroke	o	n/a
301.0075	0.105	602015	keystroke	n	n/a
301.2625	0.135	602525	keystroke	Key.space	n/a
301.742	0.1205	603484	keystroke	i	n/a
301.8475	0.105	603695	keystroke	n	n/a
302.0875	0.135	604175	keystroke	n	n/a
304.6545	0.073	609309	keystroke	o	n/a
304.8475	0.12	609695	keystroke	c	n/a
305.178	0.09	610356	keystroke	e	n/a
305.358	0.12	610716	keystroke	n	n/a
305.553	0.105	611106	keystroke	t	n/a
305.672	0.1805	611344	keystroke	Key.space	n/a
305.8675	0.135	611735	keystroke	j	n/a
306.0325	0.15	612065	keystroke	e	n/a
306.1675	0.09	612335	keystroke	w	n/a
306.573	0.09	613146	keystroke	e	n/a
306.8125	0.1355	613625	keystroke	l	n/a
306.962	0.165	613924	keystroke	Key.space	n/a
307.398	0.12	614796	keystroke	c	n/a
307.488	0.105	614976	keystroke	o	n/a
307.7125	0.1195	615425	keystroke	l	n/a
307.952	0.105	615904	keystroke	u	n/a
308.1925	0.1045	616385	keystroke	m	n/a
308.433	0.09	616866	keystroke	n	n/a
308.597	0.121	617194	keystroke	s	n/a
308.852	0.105	617704	keystroke	Key.enter	n/a
308.962	9.507	617924	prompt	n/a	filters kilometers professionals judges\n
309.7525	0.15	619505	keystroke	f	n/a
309.9325	0.105	619865	keystroke	i	n/a
310.0975	0.135	620195	keystroke	l	n/a
310.3225	0.12	620645	keystroke	t	n/a
310.4875	0.1045	620975	keystroke	e	n/a
310.578	0.089	621156	keystroke	r	n/a
310.742	0.106	621484	keystroke	s	n/a
310.892	0.165	621784	keystroke	Key.space	n/a
311.207	0.09	622414	keystroke	k	n/a
311.447	0.12	622894	keystroke	i	n/a
312.032	0.105	624064	keystroke	l	n/a
312.257	0.09	624514	keystroke	o	n/a
312.842	0.045	625684	keystroke	m	n/a
312.902	0.105	625804	keystroke	e	n/a
313.3225	0.135	626645	keystroke	t	n/a
313.5625	0.15	627125	keystroke	e	n/a
313.6825	0.135	627365	keystroke	r	n/a
314.0125	0.09	628025	keystroke	s	n/a
314.1925	0.135	628385	keystroke	Key.space	n/a
314.7475	0.15	629495	keystroke	p	n/a
314.9575	0.12	629915	keystroke	r	n/a
315.0925	0.105	630185	keystroke	o	n/a
315.2275	0.09	630455	keystroke	f	n/a
315.4225	0.09	630845	keystroke	e	n/a
315.6325	0.06	631265	keystroke	s	n/a
315.7975	0.09	631595	keystroke	s	n/a
315.9925	0.12	631985	keystroke	i	n/a
316.1425	0.165	632285	keystroke	o	n/a
316.2625	0.165	632525	keystroke	n	n/a
316.4575	0.105	632915	keystroke	a	n/a
316.6075	0.12	633215	keystroke	l	n/a
316.8775	0.12	633755	keystroke	s	n/a
317.0875	0.12	634175	keystroke	Key.space	n/a
317.2975	0.075	634595	keystroke	j	n/a
317.4925	0.105	634985	keystroke	u	n/a
317.6275	0.09	635255	keystroke	d	n/a
317.8375	0.09	635675	keystroke	g	n/a
317.9875	0.075	635975	keystroke	e	n/a
318.1525	0.09	636305	keystroke	s	n/a
318.3625	0.1045	636725	keystroke	Key.enter	n/a
318.472	7.377	636944	prompt	n/a	yourself elephant maiden found\n
319.577	0.12	639154	keystroke	y	n/a
319.712	0.165	639424	keystroke	o	n/a
319.817	0.135	639634	keystroke	u	n/a
320.027	0.1055	640054	keystroke	r	n/a
320.2525	0.105	640505	keystroke	s	n/a
320.3425	0.105	640685	keystroke	e	n/a
320.5525	0.105	641105	keystroke	l	n/a
320.6725	0.105	641345	keystroke	f	n/a
320.8975	0.1195	641795	keystroke	Key.space	n/a
321.302	0.075	642604	keystroke	e	n/a
321.437	0.12	642874	keystroke	l	n/a
321.572	0.075	643144	keystroke	e	n/a
322.277	0.105	644554	keystroke	p	n/a
322.457	0.105	644914	keystroke	h	n/a
322.652	0.1505	645304	keystroke	a	n/a
322.787	0.1205	645574	keystroke	n	n/a
323.1025	0.105	646205	keystroke	t	n/a
323.2675	0.15	646535	keystroke	Key.space	n/a
323.6875	0.135	647375	keystroke	m	n/a
323.8525	0.12	647705	keystroke	a	n/a
324.062	0.075	648124	keystroke	i	n/a
324.242	0.0755	648484	keystroke	d	n/a
324.4225	0.09	648845	keystroke	e	n/a
324.5575	0.15	649115	keystroke	n	n/a
324.6925	0.134	649385	keystroke	Key.space	n/a
325.0075	0.09	650015	keystroke	f	n/a
325.1125	0.12	650225	keystroke	o	n/a
325.202	0.09	650404	keystroke	u	n/a
325.412	0.09	650824	keystroke	n	n/a
325.563	0.09	651126	keystroke	d	n/a
325.7425	0.1055	651485	keystroke	Key.enter	n/a
325.8535	7.1955	651707	prompt	n/a	stevens chances features claims\n
326.5225	0.075	653045	keystroke	s	n/a
326.792	0.105	653584	keystroke	t	n/a
326.912	0.09	653824	keystroke	e	n/a
327.107	0.165	654214	keystroke	v	n/a
327.242	0.0905	654484	keystroke	e	n/a
327.3475	0.135	654695	keystroke	n	n/a
327.5875	0.09	655175	keystroke	s	n/a
327.7525	0.15	655505	keystroke	Key.space	n/a
328.3075	0.105	656615	keystroke	c	n/a
328.4275	0.105	656855	keystroke	h	n/a
328.5775	0.105	657155	keystroke	a	n/a
328.6675	0.12	657335	keystroke	n	n/a
328.8325	0.09	657665	keystroke	c	n/a
329.0575	0.075	658115	keystroke	e	n/a
329.2375	0.075	658475	keystroke	s	n/a
329.3575	0.135	658715	keystroke	Key.space	n/a
329.5525	0.135	659105	keystroke	f	n/a
329.7775	0.075	659555	keystroke	a	n/a
330.2575	0.12	660515	keystroke	Key.backspace	n/a
330.3625	0.09	660725	keystroke	e	n/a
330.4675	0.12	660935	keystroke	a	n/a
330.6025	0.12	661205	keystroke	t	n/a
330.767	0.135	661534	keystroke	u	n/a
330.917	0.0755	661834	keystroke	r	n/a
331.0075	0.075	662015	keystroke	e	n/a
331.1575	0.105	662315	keystroke	s	n/a
331.3525	0.15	662705	keystroke	Key.space	n/a
331.7125	0.075	663425	keystroke	c	n/a
331.8325	0.12	663665	keystroke	l	n/a
331.9825	0.12	663965	keystroke	a	n/a
332.4475	0.135	664895	keystroke	i	n/a
332.5525	0.195	665105	keystroke	m	n/a
332.7625	0.1045	665525	keystroke	s	n/a
332.9575	0.0895	665915	keystroke	Key.enter	n/a
333.052	9.042	666104	prompt	n/a	asin safety discharge consists\n
333.692	0.1205	667384	keystroke	a	n/a
333.9625	0.09	667925	keystroke	s	n/a
334.0975	0.18	668195	keystroke	i	n/a
334.2475	0.18	668495	keystroke	n	n/a
334.4425	0.12	668885	keystroke	Key.space	n/a
334.6375	0.135	669275	keystroke	s	n/a
334.9075	0.15	669815	keystroke	a	n/a
335.1625	0.135	670325	keystroke	f	n/a
335.6275	0.06	671255	keystroke	e	n/a
335.8225	0.09	671645	keystroke	t	n/a
335.9875	0.135	671975	keystroke	l	n/a
336.1975	0.15	672395	keystroke	y	n/a
336.437	0.15	672874	keystroke	Key.space	n/a
337.2775	0.105	674555	keystroke	Key.backspace	n/a
337.4575	0.09	674915	keystroke	Key.backspace	n/a
337.6225	0.089	675245	keystroke	Key.backspace	n/a
337.907	0.09	675814	keystroke	y	n/a
338.102	0.12	676204	keystroke	Key.space	n/a
338.462	0.09	676924	keystroke	d	n/a
338.582	0.12	677164	keystroke	i	n/a
338.7175	0.09	677435	keystroke	s	n/a
338.973	0.105	677946	keystroke	c	n/a
339.138	0.1345	678276	keystroke	h	n/a
339.3025	0.165	678605	keystroke	a	n/a
339.4375	0.105	678875	keystroke	r	n/a
339.7075	0.09	679415	keystroke	g	n/a
339.8575	0.09	679715	keystroke	e	n/a
340.0225	0.165	680045	keystroke	Key.space	n/a
340.712	0.106	681424	keystroke	c	n/a
340.803	0.12	681606	keystroke	o	n/a
340.892	0.121	681784	keystroke	n	n/a
341.042	0.09	682084	keystroke	s	n/a
341.178	0.09	682356	keystroke	i	n/a
341.328	0.15	682656	keystroke	s	n/a
341.538	0.105	683076	keystroke	t	n/a
341.793	0.0745	683586	keystroke	s	n/a
341.987	0.106	683974	keystroke	Key.enter	n/a
342.097	8.862	684194	prompt	n/a	andorra sublimedirectory decided chains\n
342.887	0.1355	685774	keystroke	a	n/a
343.1425	0.12	686285	keystroke	n	n/a
343.3075	0.12	686615	keystroke	d	n/a
343.4725	0.09	686945	keystroke	o	n/a
343.6675	0.0595	687335	keystroke	r	n/a
343.833	0.074	687666	keystroke	r	n/a
343.982	0.12	687964	keystroke	a	n/a
344.147	0.15	688294	keystroke	Key.space	n/a
344.432	0.106	688864	keystroke	s	n/a
344.613	0.119	689226	keystroke	u	n/a
344.882	0.105	689764	keystroke	b	n/a
345.257	0.12	690514	keystroke	l	n/a
345.482	0.105	690964	keystroke	i	n/a
345.722	0.12	691444	keystroke	m	n/a
345.9625	0.1045	691925	keystroke	e	n/a
346.307	0.09	692614	keystroke	d	n/a
346.547	0.105	693094	keystroke	i	n/a
346.982	0.12	693964	keystroke	r	n/a
347.162	0.075	694324	keystroke	e	n/a
347.3875	0.075	694775	keystroke	c	n/a
347.5675	0.09	695135	keystroke	t	n/a
347.7025	0.105	695405	keystroke	o	n/a
347.8975	0.075	695795	keystroke	r	n/a
348.0175	0.12	696035	keystroke	y	n/a
348.1675	0.15	696335	keystroke	Key.space	n/a
348.3775	0.09	696755	keystroke	d	n/a
348.5575	0.075	697115	keystroke	e	n/a
348.7975	0.18	697595	keystroke	c	n/a
348.9325	0.135	697865	keystroke	i	n/a
349.1425	0.075	698285	keystroke	d	n/a
349.3375	0.075	698675	keystroke	e	n/a
349.5175	0.09	699035	keystroke	d	n/a
349.6975	0.135	699395	keystroke	Key.space	n/a
349.9525	0.12	699905	keystroke	c	n/a
350.0875	0.105	700175	keystroke	h	n/a
350.2525	0.105	700505	keystroke	a	n/a
350.3725	0.15	700745	keystroke	i	n/a
350.4625	0.15	700925	keystroke	n	n/a
350.6275	0.09	701255	keystroke	s	n/a
350.8525	0.105	701705	keystroke	Key.enter	n/a
350.9615	8.1125	701923	prompt	n/a	particle surgeon cabin smile\n
351.6925	0.105	703385	keystroke	a	n/a
351.7675	0.15	703535	keystroke	p	n/a
352.3975	0.075	704795	keystroke	Key.backspace	n/a
352.5475	0.075	705095	keystroke	Key.backspace	n/a
352.7575	0.12	705515	keystroke	p	n/a
352.8325	0.12	705665	keystroke	a	n/a
352.9225	0.0745	705845	keystroke	r	n/a
353.102	0.09	706204	keystroke	t	n/a
353.207	0.075	706414	keystroke	i	n/a
353.372	0.09	706744	keystroke	c	n/a
353.567	0.09	707134	keystroke	l	n/a
353.747	0.075	707494	keystroke	e	n/a
353.912	0.12	707824	keystroke	Key.space	n/a
354.377	0.105	708754	keystroke	s	n/a
354.527	0.12	709054	keystroke	u	n/a
355.1425	0.09	710285	keystroke	r	n/a
355.3825	0.075	710765	keystroke	g	n/a
355.6375	0.0895	711275	keystroke	e	n/a
355.862	0.12	711724	keystroke	o	n/a
356.027	0.105	712054	keystroke	n	n/a
356.237	0.105	712474	keystroke	Key.space	n/a
356.597	0.105	713194	keystroke	c	n/a
357.017	0.105	714034	keystroke	a	n/a
357.227	0.106	714454	keystroke	b	n/a
357.438	0.164	714876	keystroke	i	n/a
357.542	0.195	715084	keystroke	n	n/a
357.782	0.09	715564	keystroke	Key.space	n/a
358.097	0.091	716194	keystroke	s	n/a
358.248	0.149	716496	keystroke	m	n/a
358.413	0.12	716826	keystroke	i	n/a
358.577	0.135	717154	keystroke	l	n/a
358.757	0.09	717514	keystroke	e	n/a
358.9825	0.09	717965	keystroke	Key.enter	n/a
359.077	7.332	718154	prompt	n/a	banners area converted gathering\n
360.062	0.09	720124	keystroke	b	n/a
360.153	0.134	720306	keystroke	a	n/a
360.347	0.09	720694	keystroke	n	n/a
360.512	0.12	721024	keystroke	n	n/a
360.737	0.12	721474	keystroke	e	n/a
360.827	0.135	721654	keystroke	r	n/a
361.052	0.075	722104	keystroke	s	n/a
361.172	0.12	722344	keystroke	Key.space	n/a
361.322	0.165	722644	keystroke	a	n/a
361.502	0.135	723004	keystroke	r	n/a
361.622	0.09	723244	keystroke	e	n/a
361.742	0.12	723484	keystroke	a	n/a
361.922	0.135	723844	keystroke	Key.space	n/a
362.672	0.105	725344	keystroke	c	n/a
362.732	0.165	725464	keystroke	o	n/a
362.882	0.12	725764	keystroke	n	n/a
363.032	0.12	726064	keystroke	v	n/a
363.212	0.12	726424	keystroke	e	n/a
363.302	0.09	726604	keystroke	r	n/a
363.512	0.075	727024	keystroke	t	n/a
363.617	0.075	727234	keystroke	e	n/a
363.767	0.09	727534	keystroke	d	n/a
363.932	0.165	727864	keystroke	Key.space	n/a
364.292	0.09	728584	keystroke	g	n/a
364.532	0.135	729064	keystroke	a	n/a
364.742	0.1205	729484	keystroke	t	n/a
364.9525	0.12	729905	keystroke	h	n/a
365.5375	0.135	731075	keystroke	e	n/a
365.6875	0.105	731375	keystroke	r	n/a
365.8375	0.18	731675	keystroke	i	n/a
365.9425	0.135	731885	keystroke	n	n/a
366.1225	0.06	732245	keystroke	g	n/a
366.3175	0.09	732635	keystroke	Key.enter	n/a
366.412	5.7265	732824	prompt	n/a	item formatting license page\n
367.277	0.1355	734554	keystroke	i	n/a
367.4725	0.09	734945	keystroke	t	n/a
367.6375	0.105	735275	keystroke	e	n/a
367.7575	0.1495	735515	keystroke	m	n/a
367.877	0.135	735754	keystroke	Key.space	n/a
368.087	0.105	736174	keystroke	f	n/a
368.237	0.09	736474	keystroke	o	n/a
368.387	0.09	736774	keystroke	r	n/a
368.522	0.12	737044	keystroke	m	n/a
368.717	0.1205	737434	keystroke	a	n/a
368.8215	0.106	737643	keystroke	t	n/a
369.0325	0.09	738065	keystroke	t	n/a
369.2125	0.164	738425	keystroke	i	n/a
369.3175	0.149	738635	keystroke	n	n/a
369.4975	0.075	738995	keystroke	g	n/a
369.6165	0.12	739233	keystroke	Key.space	n/a
370.0075	0.089	740015	keystroke	l	n/a
370.1425	0.12	740285	keystroke	i	n/a
370.3675	0.12	740735	keystroke	c	n/a
370.622	0.075	741244	keystroke	e	n/a
370.802	0.105	741604	keystroke	n	n/a
370.952	0.12	741904	keystroke	s	n/a
371.027	0.12	742054	keystroke	e	n/a
371.207	0.15	742414	keystroke	Key.space	n/a
371.552	0.12	743104	keystroke	p	n/a
371.642	0.12	743284	keystroke	a	n/a
371.747	0.12	743494	keystroke	g	n/a
371.852	0.105	743704	keystroke	e	n/a
372.062	0.075	744124	keystroke	Key.enter	n/a
372.1415	8.127	744283	prompt	n/a	complaint murder planner involve\n
372.857	0.105	745714	keystroke	c	n/a
373.007	0.12	746014	keystroke	o	n/a
373.232	0.075	746464	keystroke	p	n/a
373.337	0.12	746674	keystroke	m	n/a
373.9515	0.06	747903	keystroke	Key.backspace	n/a
374.0865	0.105	748173	keystroke	Key.backspace	n/a
374.3125	0.134	748625	keystroke	m	n/a
374.4315	0.135	748863	keystroke	p	n/a
374.6575	0.089	749315	keystroke	l	n/a
374.8365	0.121	749673	keystroke	a	n/a
375.228	0.164	750456	keystroke	i	n/a
375.3765	0.12	750753	keystroke	n	n/a
375.6015	0.135	751203	keystroke	t	n/a
375.7965	0.12	751593	keystroke	Key.space	n/a
376.3215	0.09	752643	keystroke	m	n/a
376.5465	0.105	753093	keystroke	u	n/a
376.6665	0.075	753333	keystroke	r	n/a
376.8615	0.075	753723	keystroke	d	n/a
377.072	0.135	754144	keystroke	e	n/a
377.162	0.12	754324	keystroke	r	n/a
377.3265	0.15	754653	keystroke	Key.space	n/a
377.6415	0.105	755283	keystroke	p	n/a
377.8365	0.12	755673	keystroke	l	n/a
377.9715	0.105	755943	keystroke	a	n/a
378.1965	0.09	756393	keystroke	n	n/a
378.3775	0.104	756755	keystroke	n	n/a
378.512	0.15	757024	keystroke	e	n/a
378.617	0.135	757234	keystroke	r	n/a
378.782	0.15	757564	keystroke	Key.space	n/a
379.067	0.135	758134	keystroke	i	n/a
379.187	0.12	758374	keystroke	n	n/a
379.367	0.105	758734	keystroke	v	n/a
379.487	0.09	758974	keystroke	o	n/a
379.682	0.09	759364	keystroke	l	n/a
379.832	0.09	759664	keystroke	v	n/a
379.937	0.1045	759874	keystroke	e	n/a
380.1765	0.09	760353	keystroke	Key.enter	n/a
380.2715	4.9325	760543	prompt	n/a	sole ebay jeremy again\n
380.9265	0.09	761853	keystroke	s	n/a
381.0175	0.089	762035	keystroke	o	n/a
381.2115	0.09	762423	keystroke	l	n/a
381.3615	0.09	762723	keystroke	e	n/a
381.4665	0.135	762933	keystroke	Key.space	n/a
381.7665	0.06	763533	keystroke	e	n/a
381.9765	0.09	763953	keystroke	b	n/a
382.1715	0.106	764343	keystroke	a	n/a
382.2915	0.18	764583	keystroke	y	n/a
382.4115	0.165	764823	keystroke	Key.space	n/a
382.8325	0.119	765665	keystroke	j	n/a
382.997	0.18	765994	keystroke	e	n/a
383.132	0.12	766264	keystroke	r	n/a
383.357	0.09	766714	keystroke	e	n/a
383.597	0.12	767194	keystroke	m	n/a
383.8815	0.135	767763	keystroke	y	n/a
383.9565	0.18	767913	keystroke	Key.space	n/a
384.3915	0.105	768783	keystroke	a	n/a
384.5265	0.09	769053	keystroke	g	n/a
384.6465	0.1205	769293	keystroke	a	n/a
384.737	0.165	769474	keystroke	i	n/a
384.842	0.135	769684	keystroke	n	n/a
385.097	0.105	770194	keystroke	Key.enter	n/a
385.2095	6.174	770419	prompt	n/a	export rays almost messenger\n
386.042	0.075	772084	keystroke	e	n/a
386.222	0.105	772444	keystroke	x	n/a
386.342	0.105	772684	keystroke	p	n/a
386.537	0.105	773074	keystroke	o	n/a
386.702	0.0905	773404	keystroke	r	n/a
386.9115	0.091	773823	keystroke	t	n/a
387.0465	0.165	774093	keystroke	Key.space	n/a
387.4665	0.105	774933	keystroke	r	n/a
387.6315	0.136	775263	keystroke	a	n/a
387.7975	0.105	775595	keystroke	y	n/a
387.9475	0.15	775895	keystroke	s	n/a
388.1115	0.12	776223	keystroke	Key.space	n/a
388.4715	0.105	776943	keystroke	a	n/a
388.6065	0.09	777213	keystroke	l	n/a
388.802	0.15	777604	keystroke	m	n/a
388.922	0.1205	777844	keystroke	o	n/a
389.0575	0.135	778115	keystroke	s	n/a
389.1475	0.12	778295	keystroke	t	n/a
389.2815	0.105	778563	keystroke	Key.space	n/a
389.6125	0.104	779225	keystroke	m	n/a
389.7615	0.106	779523	keystroke	e	n/a
390.0175	0.075	780035	keystroke	s	n/a
390.1815	0.091	780363	keystroke	s	n/a
390.3625	0.09	780725	keystroke	e	n/a
390.6175	0.1195	781235	keystroke	n	n/a
390.887	0.075	781774	keystroke	g	n/a
391.007	0.12	782014	keystroke	e	n/a
391.097	0.105	782194	keystroke	r	n/a
391.292	0.09	782584	keystroke	Key.enter	n/a
391.3865	11.277	782773	prompt	n/a	offered experiencing users talking\n
392.147	0.105	784294	keystroke	o	n/a
392.282	0.0895	784564	keystroke	f	n/a
392.4475	0.119	784895	keystroke	f	n/a
392.6415	0.1205	785283	keystroke	e	n/a
392.7465	0.1205	785493	keystroke	r	n/a
392.897	0.09	785794	keystroke	e	n/a
393.092	0.06	786184	keystroke	e	n/a
393.302	0.075	786604	keystroke	d	n/a
393.497	0.135	786994	keystroke	Key.space	n/a
393.8715	0.0905	787743	keystroke	Key.backspace	n/a
394.0515	0.075	788103	keystroke	Key.backspace	n/a
394.2015	0.09	788403	keystroke	Key.backspace	n/a
394.3365	0.075	788673	keystroke	d	n/a
394.4715	0.105	788943	keystroke	Key.space	n/a
396.0915	0.075	792183	keystroke	e	n/a
396.3015	0.12	792603	keystroke	x	n/a
396.4365	0.15	792873	keystroke	p	n/a
396.9315	0.1355	793863	keystroke	e	n/a
397.022	0.135	794044	keystroke	r	n/a
397.217	0.105	794434	keystroke	i	n/a
397.892	0.105	795784	keystroke	e	n/a
398.132	0.12	796264	keystroke	n	n/a
398.417	0.09	796834	keystroke	c	n/a
399.6175	0.18	799235	keystroke	i	n/a
399.7375	0.135	799475	keystroke	n	n/a
399.9475	0.105	799895	keystroke	g	n/a
400.1275	0.15	800255	keystroke	Key.space	n/a
400.5325	0.1195	801065	keystroke	u	n/a
400.637	0.135	801274	keystroke	s	n/a
400.727	0.12	801454	keystroke	e	n/a
400.817	0.12	801634	keystroke	r	n/a
401.027	0.09	802054	keystroke	s	n/a
401.147	0.135	802294	keystroke	Key.space	n/a
401.597	0.09	803194	keystroke	t	n/a
401.717	0.1345	803434	keystroke	a	n/a
401.837	0.0905	803674	keystroke	l	n/a
401.9575	0.104	803915	keystroke	k	n/a
402.1825	0.105	804365	keystroke	i	n/a
402.2565	0.136	804513	keystroke	n	n/a
402.3775	0.074	804755	keystroke	g	n/a
402.5875	0.074	805175	keystroke	Key.enter	n/a
402.6665	7.812	805333	prompt	n/a	minnesota statewide mining envelope\n
403.3225	0.12	806645	keystroke	m	n/a
403.4575	0.105	806915	keystroke	i	n/a
403.6665	0.106	807333	keystroke	n	n/a
403.8765	0.106	807753	keystroke	n	n/a
404.0115	0.12	808023	keystroke	e	n/a
404.2375	0.105	808475	keystroke	s	n/a
404.5375	0.12	809075	keystroke	o	n/a
404.7475	0.105	809495	keystroke	t	n/a
404.9415	0.105	809883	keystroke	a	n/a
405.1065	0.15	810213	keystroke	Key.space	n/a
405.4665	0.121	810933	keystroke	s	n/a
405.6015	0.12	811203	keystroke	t	n/a
405.7675	0.105	811535	keystroke	a	n/a
405.8875	0.104	811775	keystroke	t	n/a
406.0215	0.105	812043	keystroke	e	n/a
406.3515	0.105	812703	keystroke	w	n/a
406.5165	0.135	813033	keystroke	i	n/a
406.7415	0.075	813483	keystroke	d	n/a
406.9215	0.075	813843	keystroke	e	n/a
407.0865	0.135	814173	keystroke	Key.space	n/a
407.4165	0.15	814833	keystroke	m	n/a
407.8515	0.12	815703	keystroke	i	n/a
408.0015	0.091	816003	keystroke	n	n/a
408.2115	0.135	816423	keystroke	i	n/a
408.3165	0.12	816633	keystroke	n	n/a
408.4965	0.09	816993	keystroke	g	n/a
408.6315	0.1205	817263	keystroke	Key.space	n/a
409.0825	0.059	818165	keystroke	e	n/a
409.1865	0.1205	818373	keystroke	n	n/a
409.352	0.135	818704	keystroke	v	n/a
409.457	0.105	818914	keystroke	e	n/a
409.577	0.09	819154	keystroke	l	n/a
409.772	0.135	819544	keystroke	o	n/a
409.907	0.12	819814	keystroke	p	n/a
410.0715	0.075	820143	keystroke	e	n/a
410.387	0.09	820774	keystroke	Key.enter	n/a
410.4835	5.38	820967	prompt	n/a	coach expand trek gage\n
411.3015	0.1505	822603	keystroke	c	n/a
411.407	0.12	822814	keystroke	o	n/a
411.572	0.12	823144	keystroke	a	n/a
411.857	0.09	823714	keystroke	c	n/a
411.992	0.18	823984	keystroke	h	n/a
412.187	0.135	824374	keystroke	Key.space	n/a
412.442	0.075	824884	keystroke	e	n/a
412.637	0.1045	825274	keystroke	x	n/a
412.757	0.12	825514	keystroke	p	n/a
412.907	0.12	825814	keystroke	a	n/a
413.072	0.075	826144	keystroke	n	n/a
413.177	0.075	826354	keystroke	d	n/a
413.327	0.12	826654	keystroke	Key.space	n/a
413.627	0.105	827254	keystroke	t	n/a
413.822	0.105	827644	keystroke	r	n/a
414.0465	0.06	828093	keystroke	e	n/a
414.257	0.165	828514	keystroke	k	n/a
414.377	0.135	828754	keystroke	Key.space	n/a
414.9925	0.09	829985	keystroke	g	n/a
415.1125	0.105	830225	keystroke	a	n/a
415.3525	0.09	830705	keystroke	g	n/a
415.577	0.075	831154	keystroke	e	n/a
415.772	0.09	831544	keystroke	Key.enter	n/a
415.866	9.7925	831732	prompt	n/a	anymore villa connection navigation\n
416.672	0.1195	833344	keystroke	a	n/a
416.8065	0.0755	833613	keystroke	n	n/a
416.9875	0.09	833975	keystroke	y	n/a
417.2125	0.09	834425	keystroke	n	n/a
417.3175	0.105	834635	keystroke	o	n/a
417.4375	0.105	834875	keystroke	r	n/a
417.5125	0.0895	835025	keystroke	e	n/a
418.2925	0.075	836585	keystroke	Key.backspace	n/a
418.4725	0.075	836945	keystroke	Key.backspace	n/a
418.6375	0.1345	837275	keystroke	Key.backspace	n/a
418.802	0.045	837604	keystroke	Key.backspace	n/a
419.0115	0.075	838023	keystroke	Key.backspace	n/a
419.6415	0.105	839283	keystroke	y	n/a
419.9265	0.105	839853	keystroke	m	n/a
420.0615	0.105	840123	keystroke	o	n/a
420.5265	0.09	841053	keystroke	r	n/a
420.767	0.075	841534	keystroke	e	n/a
420.992	0.135	841984	keystroke	Key.space	n/a
421.2475	0.105	842495	keystroke	v	n/a
421.3675	0.09	842735	keystroke	i	n/a
421.577	0.075	843154	keystroke	l	n/a
421.742	0.09	843484	keystroke	l	n/a
421.877	0.105	843754	keystroke	a	n/a
422.027	0.12	844054	keystroke	Key.space	n/a
422.3875	0.135	844775	keystroke	c	n/a
422.4925	0.09	844985	keystroke	o	n/a
422.6575	0.0895	845315	keystroke	n	n/a
422.837	0.135	845674	keystroke	n	n/a
422.957	0.075	845914	keystroke	e	n/a
423.197	0.075	846394	keystroke	c	n/a
423.332	0.09	846664	keystroke	t	n/a
423.467	0.12	846934	keystroke	i	n/a
423.557	0.1345	847114	keystroke	o	n/a
423.6765	0.18	847353	keystroke	n	n/a
423.8415	0.105	847683	keystroke	Key.space	n/a
424.1715	0.09	848343	keystroke	n	n/a
424.277	0.135	848554	keystroke	a	n/a
424.397	0.12	848794	keystroke	v	n/a
424.577	0.105	849154	keystroke	i	n/a
424.712	0.09	849424	keystroke	g	n/a
424.847	0.12	849694	keystroke	a	n/a
424.997	0.0895	849994	keystroke	t	n/a
425.1165	0.12	850233	keystroke	i	n/a
425.2065	0.15	850413	keystroke	o	n/a
425.3115	0.12	850623	keystroke	n	n/a
425.567	0.09	851134	keystroke	Key.enter	n/a
425.6615	12.687	851323	prompt	n/a	favorites invasion aboriginal asthma\n
426.6165	0.09	853233	keystroke	f	n/a
426.7215	0.15	853443	keystroke	a	n/a
426.9315	0.135	853863	keystroke	v	n/a
427.1265	0.105	854253	keystroke	o	n/a
427.6065	0.12	855213	keystroke	r	n/a
427.757	0.09	855514	keystroke	i	n/a
427.937	0.09	855874	keystroke	t	n/a
428.042	0.105	856084	keystroke	e	n/a
428.267	0.0745	856534	keystroke	s	n/a
428.4465	0.135	856893	keystroke	Key.space	n/a
428.7015	0.15	857403	keystroke	i	n/a
428.8065	0.135	857613	keystroke	n	n/a
428.972	0.105	857944	keystroke	v	n/a
429.092	0.0745	858184	keystroke	a	n/a
429.5715	0.15	859143	keystroke	s	n/a
429.6765	0.09	859353	keystroke	t	n/a
429.7965	0.225	859593	keystroke	i	n/a
430.0065	0.15	860013	keystroke	o	n/a
430.3965	0.075	860793	keystroke	Key.backspace	n/a
430.5615	0.09	861123	keystroke	Key.backspace	n/a
430.7115	0.09	861423	keystroke	Key.backspace	n/a
430.9965	0.0755	861993	keystroke	i	n/a
431.057	0.135	862114	keystroke	o	n/a
431.177	0.135	862354	keystroke	n	n/a
431.297	0.135	862594	keystroke	Key.space	n/a
431.717	0.135	863434	keystroke	a	n/a
431.867	0.105	863734	keystroke	b	n/a
431.987	0.105	863974	keystroke	o	n/a
432.302	0.09	864604	keystroke	r	n/a
432.692	0.09	865384	keystroke	g	n/a
433.082	0.1195	866164	keystroke	i	n/a
434.222	0.075	868444	keystroke	Key.backspace	n/a
434.342	0.09	868684	keystroke	Key.backspace	n/a
434.5815	0.075	869163	keystroke	i	n/a
434.7615	0.075	869523	keystroke	g	n/a
434.8815	0.1805	869763	keystroke	i	n/a
435.017	0.12	870034	keystroke	n	n/a
435.182	0.12	870364	keystroke	a	n/a
435.317	0.135	870634	keystroke	l	n/a
435.437	0.1505	870874	keystroke	Key.space	n/a
435.9625	0.135	871925	keystroke	a	n/a
436.1275	0.105	872255	keystroke	s	n/a
436.3375	0.105	872675	keystroke	h	n/a
436.8175	0.09	873635	keystroke	Key.backspace	n/a
436.9375	0.1195	873875	keystroke	t	n/a
437.072	0.09	874144	keystroke	h	n/a
437.192	0.105	874384	keystroke	a	n/a
437.3875	0.09	874775	keystroke	m	n/a
437.6575	0.09	875315	keystroke	Key.backspace	n/a
437.8225	0.06	875645	keystroke	Key.backspace	n/a
438.0175	0.075	876035	keystroke	m	n/a
438.0775	0.105	876155	keystroke	a	n/a
438.2425	0.104	876485	keystroke	Key.enter	n/a
438.3525	10.661	876705	prompt	n/a	projector interaction research sized\n
439.352	0.1205	878704	keystroke	p	n/a
439.4875	0.09	878975	keystroke	r	n/a
439.6225	0.12	879245	keystroke	o	n/a
439.8925	0.09	879785	keystroke	j	n/a
440.0575	0.075	880115	keystroke	e	n/a
440.3875	0.105	880775	keystroke	t	n/a
440.5375	0.075	881075	keystroke	o	n/a
440.8825	0.06	881765	keystroke	Key.backspace	n/a
441.032	0.09	882064	keystroke	Key.backspace	n/a
441.152	0.105	882304	keystroke	c	n/a
441.377	0.1055	882754	keystroke	t	n/a
441.5575	0.09	883115	keystroke	o	n/a
441.7825	0.075	883565	keystroke	r	n/a
442.0075	0.12	884015	keystroke	Key.space	n/a
442.3675	0.15	884735	keystroke	i	n/a
442.4875	0.12	884975	keystroke	n	n/a
442.6975	0.105	885395	keystroke	t	n/a
442.8325	0.105	885665	keystroke	e	n/a
442.9225	0.12	885845	keystroke	r	n/a
443.7025	0.12	887405	keystroke	a	n/a
443.9115	0.091	887823	keystroke	c	n/a
444.1375	0.09	888275	keystroke	t	n/a
444.3025	0.135	888605	keystroke	i	n/a
444.4075	0.1495	888815	keystroke	o	n/a
444.542	0.15	889084	keystroke	n	n/a
444.693	0.1035	889386	keystroke	Key.space	n/a
445.0215	0.135	890043	keystroke	r	n/a
445.1415	0.12	890283	keystroke	e	n/a
445.2765	0.12	890553	keystroke	a	n/a
445.6665	0.15	891333	keystroke	s	n/a
445.7565	0.21	891513	keystroke	e	n/a
445.9065	0.12	891813	keystroke	r	n/a
446.1915	0.075	892383	keystroke	Key.backspace	n/a
446.3715	0.075	892743	keystroke	Key.backspace	n/a
446.5215	0.09	893043	keystroke	Key.backspace	n/a
446.6715	0.091	893343	keystroke	Key.backspace	n/a
446.7775	0.105	893555	keystroke	s	n/a
446.8675	0.21	893735	keystroke	e	n/a
447.0475	0.135	894095	keystroke	r	n/a
447.1675	0.15	894335	keystroke	a	n/a
447.4225	0.09	894845	keystroke	c	n/a
447.5875	0.12	895175	keystroke	h	n/a
447.7675	0.135	895535	keystroke	Key.space	n/a
448.1575	0.09	896315	keystroke	s	n/a
448.2775	0.09	896555	keystroke	i	n/a
448.3975	0.12	896795	keystroke	z	n/a
448.5475	0.075	897095	keystroke	e	n/a
448.7575	0.06	897515	keystroke	d	n/a
448.9225	0.089	897845	keystroke	Key.enter	n/a
449.0175	7.271	898035	prompt	n/a	exhibit midlands pair frontpage\n
450.2125	0.09	900425	keystroke	e	n/a
450.4075	0.075	900815	keystroke	x	n/a
450.6325	0.1495	901265	keystroke	h	n/a
450.7375	0.1345	901475	keystroke	i	n/a
450.932	0.09	901864	keystroke	b	n/a
451.187	0.105	902374	keystroke	i	n/a
451.397	0.09	902794	keystroke	t	n/a
451.562	0.15	903124	keystroke	Key.space	n/a
451.892	0.135	903784	keystroke	m	n/a
452.012	0.15	904024	keystroke	i	n/a
452.222	0.0905	904444	keystroke	d	n/a
452.3725	0.105	904745	keystroke	l	n/a
452.5525	0.135	905105	keystroke	a	n/a
452.6725	0.09	905345	keystroke	n	n/a
452.837	0.075	905674	keystroke	d	n/a
452.972	0.12	905944	keystroke	s	n/a
453.152	0.135	906304	keystroke	Key.space	n/a
453.512	0.12	907024	keystroke	p	n/a
453.617	0.1495	907234	keystroke	a	n/a
453.8265	0.09	907653	keystroke	i	n/a
454.037	0.0895	908074	keystroke	r	n/a
454.1865	0.135	908373	keystroke	Key.space	n/a
454.697	0.09	909394	keystroke	f	n/a
454.9065	0.075	909813	keystroke	r	n/a
455.0115	0.1505	910023	keystroke	o	n/a
455.1465	0.1205	910293	keystroke	n	n/a
455.312	0.075	910624	keystroke	t	n/a
455.597	0.12	911194	keystroke	p	n/a
455.747	0.12	911494	keystroke	a	n/a
455.852	0.09	911704	keystroke	g	n/a
455.972	0.09	911944	keystroke	e	n/a
456.197	0.09	912394	keystroke	Key.enter	n/a
456.292	9.4465	912584	prompt	n/a	tops italian approach childhood\n
456.9475	0.1045	913895	keystroke	t	n/a
457.097	0.12	914194	keystroke	o	n/a
457.232	0.135	914464	keystroke	p	n/a
457.427	0.09	914854	keystroke	s	n/a
457.562	0.12	915124	keystroke	Key.space	n/a
457.907	0.075	915814	keystroke	i	n/a
458.102	0.105	916204	keystroke	l	n/a
458.567	0.15	917134	keystroke	a	n/a
458.882	0.09	917764	keystroke	l	n/a
459.062	0.105	918124	keystroke	i	n/a
459.452	0.0905	918904	keystroke	Key.backspace	n/a
459.6475	0.075	919295	keystroke	Key.backspace	n/a
459.8125	0.075	919625	keystroke	Key.backspace	n/a
459.9475	0.105	919895	keystroke	Key.backspace	n/a
460.1425	0.09	920285	keystroke	t	n/a
460.3225	0.12	920645	keystroke	a	n/a
460.487	0.1055	920974	keystroke	l	n/a
460.7125	0.075	921425	keystroke	i	n/a
460.9675	0.12	921935	keystroke	a	n/a
461.1765	0.105	922353	keystroke	n	n/a
461.4315	0.12	922863	keystroke	Key.space	n/a
461.8065	0.1355	923613	keystroke	a	n/a
461.927	0.09	923854	keystroke	p	n/a
462.092	0.12	924184	keystroke	p	n/a
462.227	0.12	924454	keystroke	r	n/a
462.392	0.12	924784	keystroke	o	n/a
462.632	0.105	925264	keystroke	a	n/a
462.932	0.0745	925864	keystroke	c	n/a
463.127	0.0745	926254	keystroke	h	n/a
463.3665	0.15	926733	keystroke	Key.space	n/a
463.7715	0.12	927543	keystroke	c	n/a
463.9065	0.135	927813	keystroke	h	n/a
464.0265	0.15	928053	keystroke	i	n/a
464.2965	0.105	928593	keystroke	l	n/a
464.5365	0.09	929073	keystroke	d	n/a
464.8365	0.09	929673	keystroke	h	n/a
465.0315	0.1055	930063	keystroke	o	n/a
465.212	0.09	930424	keystroke	o	n/a
465.437	0.09	930874	keystroke	d	n/a
465.647	0.09	931294	keystroke	Key.enter	n/a
465.7415	9.597	931483	prompt	n/a	business scenes coordinated asian\n
466.487	0.09	932974	keystroke	b	n/a
466.622	0.12	933244	keystroke	u	n/a
466.787	0.135	933574	keystroke	s	n/a
466.907	0.1055	933814	keystroke	i	n/a
467.0275	0.12	934055	keystroke	n	n/a
467.1625	0.105	934325	keystroke	e	n/a
467.3875	0.075	934775	keystroke	s	n/a
467.5525	0.09	935105	keystroke	s	n/a
468.3315	0.136	936663	keystroke	Key.space	n/a
468.6625	0.119	937325	keystroke	s	n/a
468.962	0.105	937924	keystroke	c	n/a
469.2175	0.075	938435	keystroke	e	n/a
469.3825	0.1345	938765	keystroke	n	n/a
469.637	0.12	939274	keystroke	e	n/a
469.877	0.105	939754	keystroke	s	n/a
470.117	0.1495	940234	keystroke	Key.space	n/a
470.462	0.09	940924	keystroke	s	n/a
470.852	0.105	941704	keystroke	Key.backspace	n/a
471.0315	0.12	942063	keystroke	c	n/a
471.1965	0.09	942393	keystroke	o	n/a
471.3615	0.105	942723	keystroke	o	n/a
471.6165	0.03	943233	keystroke	r	n/a
472.4425	0.104	944885	keystroke	d	n/a
472.6215	0.21	945243	keystroke	i	n/a
472.8165	0.12	945633	keystroke	n	n/a
472.997	0.21	945994	keystroke	a	n/a
473.177	0.15	946354	keystroke	t	n/a
473.312	0.105	946624	keystroke	e	n/a
473.582	0.09	947164	keystroke	d	n/a
473.762	0.165	947524	keystroke	Key.space	n/a
474.317	0.12	948634	keystroke	a	n/a
474.557	0.09	949114	keystroke	s	n/a
474.692	0.1345	949384	keystroke	i	n/a
474.8715	0.1355	949743	keystroke	a	n/a
474.992	0.1045	949984	keystroke	n	n/a
475.2475	0.09	950495	keystroke	Key.enter	n/a
475.341	8.9525	950682	prompt	n/a	segment performer albania drinking\n
476.012	0.0755	952024	keystroke	s	n/a
476.1925	0.09	952385	keystroke	e	n/a
476.3875	0.074	952775	keystroke	g	n/a
476.5975	0.1345	953195	keystroke	m	n/a
476.792	0.0745	953584	keystroke	e	n/a
476.9125	0.0895	953825	keystroke	n	n/a
477.032	0.105	954064	keystroke	t	n/a
477.152	0.15	954304	keystroke	Key.space	n/a
477.407	0.135	954814	keystroke	p	n/a
477.527	0.15	955054	keystroke	e	n/a
477.617	0.105	955234	keystroke	r	n/a
477.842	0.105	955684	keystroke	f	n/a
478.4715	0.015	956943	keystroke	o	n/a
478.5315	0.106	957063	keystroke	r	n/a
478.6825	0.1195	957365	keystroke	m	n/a
479.1915	0.12	958383	keystroke	e	n/a
479.3865	0.09	958773	keystroke	r	n/a
479.6115	0.1655	959223	keystroke	Key.space	n/a
480.077	0.135	960154	keystroke	a	n/a
480.512	0.09	961024	keystroke	l	n/a
480.752	0.105	961504	keystroke	b	n/a
480.962	0.105	961924	keystroke	a	n/a
481.082	0.105	962164	keystroke	n	n/a
481.247	0.135	962494	keystroke	i	n/a
481.442	0.135	962884	keystroke	a	n/a
481.562	0.135	963124	keystroke	Key.space	n/a
481.862	0.09	963724	keystroke	d	n/a
482.072	0.09	964144	keystroke	r	n/a
482.597	0.105	965194	keystroke	i	n/a
483.4365	0.075	966873	keystroke	n	n/a
483.5265	0.075	967053	keystroke	k	n/a
483.7365	0.165	967473	keystroke	i	n/a
483.8265	0.15	967653	keystroke	n	n/a
483.9915	0.09	967983	keystroke	g	n/a
484.1865	0.105	968373	keystroke	Key.enter	n/a
484.2965	7.887	968593	prompt	n/a	textile bulk machine informal\n
485.027	0.105	970054	keystroke	t	n/a
485.117	0.105	970234	keystroke	e	n/a
485.387	0.15	970774	keystroke	x	n/a
485.672	0.12	971344	keystroke	t	n/a
485.957	0.105	971914	keystroke	i	n/a
486.152	0.105	972304	keystroke	l	n/a
486.332	0.1055	972664	keystroke	e	n/a
486.4825	0.15	972965	keystroke	Key.space	n/a
486.7525	0.105	973505	keystroke	b	n/a
486.8725	0.12	973745	keystroke	u	n/a
487.0815	0.091	974163	keystroke	l	n/a
487.3365	0.121	974673	keystroke	k	n/a
487.4725	0.119	974945	keystroke	Key.space	n/a
487.862	0.135	975724	keystroke	m	n/a
488.027	0.09	976054	keystroke	a	n/a
488.192	0.1655	976384	keystroke	c	n/a
488.3425	0.104	976685	keystroke	h	n/a
488.4315	0.165	976863	keystroke	i	n/a
488.5515	0.121	977103	keystroke	n	n/a
488.7165	0.091	977433	keystroke	e	n/a
488.8965	0.135	977793	keystroke	Key.space	n/a
489.452	0.075	978904	keystroke	f	n/a
489.857	0.09	979714	keystroke	Key.backspace	n/a
490.097	0.105	980194	keystroke	i	n/a
490.172	0.12	980344	keystroke	n	n/a
490.307	0.075	980614	keystroke	f	n/a
490.487	0.15	980974	keystroke	o	n/a
491.387	0.105	982774	keystroke	r	n/a
491.567	0.105	983134	keystroke	m	n/a
491.717	0.1195	983434	keystroke	a	n/a
491.8515	0.09	983703	keystroke	l	n/a
492.0915	0.09	984183	keystroke	Key.enter	n/a
492.1865	7.047	984373	prompt	n/a	branches letters brazil washer\n
493.0365	0.075	986073	keystroke	b	n/a
493.2315	0.105	986463	keystroke	r	n/a
493.3515	0.12	986703	keystroke	a	n/a
493.4265	0.105	986853	keystroke	n	n/a
493.6965	0.12	987393	keystroke	c	n/a
493.8615	0.12	987723	keystroke	h	n/a
493.9965	0.09	987993	keystroke	e	n/a
494.1765	0.09	988353	keystroke	s	n/a
494.2965	0.18	988593	keystroke	Key.space	n/a
494.7165	0.075	989433	keystroke	l	n/a
494.8515	0.12	989703	keystroke	e	n/a
495.0465	0.09	990093	keystroke	t	n/a
495.212	0.12	990424	keystroke	t	n/a
495.377	0.15	990754	keystroke	e	n/a
495.512	0.075	991024	keystroke	r	n/a
495.722	0.105	991444	keystroke	s	n/a
495.887	0.15	991774	keystroke	Key.space	n/a
496.157	0.12	992314	keystroke	b	n/a
496.427	0.15	992854	keystroke	r	n/a
496.622	0.12	993244	keystroke	a	n/a
497.072	0.2245	994144	keystroke	z	n/a
497.4165	0.09	994833	keystroke	i	n/a
497.6115	0.18	995223	keystroke	l	n/a
497.7765	0.165	995553	keystroke	Key.space	n/a
498.3165	0.06	996633	keystroke	w	n/a
498.4815	0.12	996963	keystroke	a	n/a
498.5865	0.1055	997173	keystroke	s	n/a
498.722	0.135	997444	keystroke	h	n/a
498.872	0.135	997744	keystroke	e	n/a
498.947	0.15	997894	keystroke	r	n/a
499.127	0.105	998254	keystroke	Key.enter	n/a
499.238	8.2905	998476	prompt	n/a	greene termination blood items\n
499.907	0.105	999814	keystroke	g	n/a
500.0865	0.1355	1000173	keystroke	e	n/a
500.912	0.12	1001824	keystroke	Key.backspace	n/a
501.062	0.075	1002124	keystroke	r	n/a
501.242	0.03	1002484	keystroke	e	n/a
501.347	0.0895	1002694	keystroke	e	n/a
501.5265	0.105	1003053	keystroke	n	n/a
501.6765	0.075	1003353	keystroke	e	n/a
501.8265	0.135	1003653	keystroke	Key.space	n/a
502.2615	0.09	1004523	keystroke	t	n/a
502.4115	0.135	1004823	keystroke	e	n/a
502.5015	0.135	1005003	keystroke	r	n/a
502.5915	0.105	1005183	keystroke	m	n/a
504.017	0.09	1008034	keystroke	i	n/a
504.242	0.09	1008484	keystroke	n	n/a
504.362	0.135	1008724	keystroke	a	n/a
504.467	0.135	1008934	keystroke	t	n/a
504.587	0.135	1009174	keystroke	i	n/a
504.707	0.135	1009414	keystroke	o	n/a
504.827	0.135	1009654	keystroke	n	n/a
505.007	0.165	1010014	keystroke	Key.space	n/a
505.262	0.09	1010524	keystroke	b	n/a
505.382	0.1045	1010764	keystroke	l	n/a
505.5915	0.105	1011183	keystroke	o	n/a
505.7715	0.09	1011543	keystroke	o	n/a
505.9665	0.09	1011933	keystroke	d	n/a
506.1165	0.12	1012233	keystroke	Key.space	n/a
506.4465	0.09	1012893	keystroke	i	n/a
506.5815	0.105	1013163	keystroke	t	n/a
506.807	0.105	1013614	keystroke	e	n/a
507.032	0.135	1014064	keystroke	m	n/a
507.197	0.105	1014394	keystroke	s	n/a
507.437	0.09	1014874	keystroke	Key.enter	n/a
507.5315	7.7665	1015063	prompt	n/a	created acts that'd dishes\n
508.3065	0.105	1016613	keystroke	c	n/a
508.5165	0.12	1017033	keystroke	r	n/a
508.6665	0.0905	1017333	keystroke	e	n/a
508.817	0.105	1017634	keystroke	a	n/a
508.967	0.135	1017934	keystroke	t	n/a
509.102	0.09	1018204	keystroke	e	n/a
509.327	0.105	1018654	keystroke	d	n/a
509.5515	0.135	1019103	keystroke	Key.space	n/a
510.0765	0.105	1020153	keystroke	a	n/a
510.2865	0.09	1020573	keystroke	c	n/a
510.4365	0.105	1020873	keystroke	t	n/a
510.6615	0.105	1021323	keystroke	s	n/a
510.9015	0.135	1021803	keystroke	Key.space	n/a
511.3365	0.12	1022673	keystroke	t	n/a
511.4565	0.12	1022913	keystroke	h	n/a
511.5775	0.134	1023155	keystroke	a	n/a
511.6965	0.105	1023393	keystroke	t	n/a
512.2815	0.15	1024563	keystroke	'	n/a
512.5515	0.03	1025103	keystroke	s	n/a
513.0015	0.105	1026003	keystroke	Key.backspace	n/a
513.1665	0.105	1026333	keystroke	d	n/a
513.3465	0.12	1026693	keystroke	Key.space	n/a
513.812	0.105	1027624	keystroke	d	n/a
513.932	0.09	1027864	keystroke	i	n/a
514.097	0.165	1028194	keystroke	s	n/a
514.577	0.105	1029154	keystroke	h	n/a
514.712	0.105	1029424	keystroke	e	n/a
514.967	0.09	1029934	keystroke	s	n/a
515.1915	0.1055	1030383	keystroke	Key.enter	n/a
515.3015	12.477	1030603	prompt	n/a	engineering agricultural committed turn\n
516.122	0.105	1032244	keystroke	e	n/a
516.257	0.12	1032514	keystroke	n	n/a
516.527	0.09	1033054	keystroke	g	n/a
516.7215	0.09	1033443	keystroke	i	n/a
516.8865	0.0905	1033773	keystroke	n	n/a
517.037	0.12	1034074	keystroke	e	n/a
517.232	0.12	1034464	keystroke	e	n/a
517.472	0.105	1034944	keystroke	r	n/a
517.652	0.18	1035304	keystroke	i	n/a
517.757	0.15	1035514	keystroke	n	n/a
517.937	0.0895	1035874	keystroke	g	n/a
518.0865	0.12	1036173	keystroke	Key.space	n/a
518.3115	0.135	1036623	keystroke	a	n/a
519.122	0.074	1038244	keystroke	g	n/a
519.437	0.089	1038874	keystroke	r	n/a
519.632	0.104	1039264	keystroke	i	n/a
519.9315	0.1355	1039863	keystroke	c	n/a
520.112	0.1195	1040224	keystroke	u	n/a
520.337	0.09	1040674	keystroke	l	n/a
521.117	0.12	1042234	keystroke	t	n/a
521.492	0.135	1042984	keystroke	r	n/a
521.672	0.12	1043344	keystroke	u	n/a
521.927	0.1345	1043854	keystroke	a	n/a
522.0915	0.165	1044183	keystroke	l	n/a
522.2115	0.15	1044423	keystroke	Key.space	n/a
523.0065	0.105	1046013	keystroke	Key.backspace	n/a
523.202	0.075	1046404	keystroke	Key.backspace	n/a
523.397	0.075	1046794	keystroke	Key.backspace	n/a
523.577	0.09	1047154	keystroke	Key.backspace	n/a
523.772	0.075	1047544	keystroke	Key.backspace	n/a
524.087	0.09	1048174	keystroke	u	n/a
524.192	0.09	1048384	keystroke	r	n/a
524.312	0.135	1048624	keystroke	a	n/a
524.432	0.105	1048864	keystroke	l	n/a
524.582	0.135	1049164	keystroke	Key.space	n/a
525.002	0.12	1050004	keystroke	c	n/a
525.152	0.09	1050304	keystroke	o	n/a
525.362	0.09	1050724	keystroke	m	n/a
525.527	0.12	1051054	keystroke	m	n/a
525.7825	0.0895	1051565	keystroke	i	n/a
525.962	0.075	1051924	keystroke	t	n/a
526.127	0.105	1052254	keystroke	t	n/a
526.292	0.075	1052584	keystroke	e	n/a
526.487	0.09	1052974	keystroke	d	n/a
526.667	0.15	1053334	keystroke	Key.space	n/a
526.982	0.105	1053964	keystroke	t	n/a
527.117	0.105	1054234	keystroke	u	n/a
527.312	0.09	1054624	keystroke	r	n/a
527.447	0.09	1054894	keystroke	n	n/a
527.672	0.105	1055344	keystroke	Key.enter	n/a
527.7815	7.902	1055563	prompt	n/a	desktop lets featured temporarily\n
528.512	0.075	1057024	keystroke	d	n/a
528.692	0.09	1057384	keystroke	e	n/a
528.842	0.09	1057684	keystroke	s	n/a
528.947	0.105	1057894	keystroke	k	n/a
529.172	0.06	1058344	keystroke	t	n/a
529.262	0.165	1058524	keystroke	o	n/a
529.397	0.15	1058794	keystroke	p	n/a
529.562	0.15	1059124	keystroke	Key.space	n/a
529.952	0.09	1059904	keystroke	l	n/a
530.072	0.12	1060144	keystroke	e	n/a
530.177	0.09	1060354	keystroke	t	n/a
530.342	0.105	1060684	keystroke	s	n/a
530.462	0.135	1060924	keystroke	Key.space	n/a
530.852	0.09	1061704	keystroke	f	n/a
531.167	0.105	1062334	keystroke	e	n/a
531.3915	0.12	1062783	keystroke	a	n/a
531.5415	0.12	1063083	keystroke	t	n/a
531.7065	0.135	1063413	keystroke	u	n/a
531.8565	0.12	1063713	keystroke	r	n/a
531.9615	0.09	1063923	keystroke	e	n/a
532.2915	0.09	1064583	keystroke	d	n/a
532.4865	0.165	1064973	keystroke	Key.space	n/a
532.832	0.105	1065664	keystroke	t	n/a
532.967	0.105	1065934	keystroke	e	n/a
533.132	0.15	1066264	keystroke	m	n/a
533.252	0.135	1066504	keystroke	p	n/a
533.717	0.09	1067434	keystroke	o	n/a
534.2715	0.105	1068543	keystroke	r	n/a
534.4515	0.12	1068903	keystroke	a	n/a
534.7515	0.09	1069503	keystroke	r	n/a
534.9015	0.09	1069803	keystroke	i	n/a
535.0665	0.12	1070133	keystroke	l	n/a
535.307	0.104	1070614	keystroke	y	n/a
535.5765	0.1045	1071153	keystroke	Key.enter	n/a
535.6875	6.5805	1071375	prompt	n/a	enabling percentage score murphy\n
536.357	0.074	1072714	keystroke	e	n/a
536.446	0.106	1072892	keystroke	n	n/a
536.6115	0.1355	1073223	keystroke	a	n/a
536.761	0.1055	1073522	keystroke	b	n/a
536.9115	0.0905	1073823	keystroke	l	n/a
537.077	0.15	1074154	keystroke	i	n/a
537.182	0.12	1074364	keystroke	n	n/a
537.317	0.09	1074634	keystroke	g	n/a
537.437	0.15	1074874	keystroke	Key.space	n/a
537.707	0.105	1075414	keystroke	p	n/a
537.842	0.09	1075684	keystroke	e	n/a
537.902	0.105	1075804	keystroke	r	n/a
538.187	0.09	1076374	keystroke	c	n/a
538.397	0.09	1076794	keystroke	e	n/a
538.592	0.105	1077184	keystroke	n	n/a
538.757	0.09	1077514	keystroke	t	n/a
539.042	0.135	1078084	keystroke	a	n/a
539.192	0.09	1078384	keystroke	g	n/a
539.327	0.105	1078654	keystroke	e	n/a
539.522	0.105	1079044	keystroke	Key.space	n/a
539.912	0.105	1079824	keystroke	s	n/a
540.137	0.075	1080274	keystroke	c	n/a
540.3175	0.104	1080635	keystroke	o	n/a
540.4365	0.12	1080873	keystroke	r	n/a
540.5575	0.089	1081115	keystroke	e	n/a
540.6915	0.15	1081383	keystroke	Key.space	n/a
541.112	0.09	1082224	keystroke	m	n/a
541.307	0.12	1082614	keystroke	u	n/a
541.442	0.09	1082884	keystroke	r	n/a
541.622	0.105	1083244	keystroke	p	n/a
541.772	0.09	1083544	keystroke	h	n/a
542.042	0.015	1084084	keystroke	y	n/a
542.192	0.0745	1084384	keystroke	Key.enter	n/a
542.271	9.5975	1084542	prompt	n/a	flooring watson seafood lucky\n
542.9415	0.075	1085883	keystroke	f	n/a
543.0615	0.075	1086123	keystroke	l	n/a
543.2715	0.075	1086543	keystroke	o	n/a
543.4365	0.09	1086873	keystroke	o	n/a
543.9015	0.09	1087803	keystroke	r	n/a
544.037	0.1805	1088074	keystroke	i	n/a
544.1565	0.12	1088313	keystroke	n	n/a
544.2915	0.105	1088583	keystroke	g	n/a
544.3665	0.165	1088733	keystroke	Key.space	n/a
544.5615	0.12	1089123	keystroke	w	n/a
544.7865	0.12	1089573	keystroke	a	n/a
544.9215	0.1355	1089843	keystroke	s	n/a
545.3115	0.09	1090623	keystroke	t	n/a
545.6265	0.09	1091253	keystroke	Key.backspace	n/a
545.7915	0.075	1091583	keystroke	Key.backspace	n/a
545.8815	0.075	1091763	keystroke	t	n/a
546.1215	0.09	1092243	keystroke	s	n/a
546.2565	0.1355	1092513	keystroke	o	n/a
546.377	0.15	1092754	keystroke	n	n/a
546.527	0.135	1093054	keystroke	Key.space	n/a
547.4265	0.135	1094853	keystroke	s	n/a
547.6065	0.1205	1095213	keystroke	e	n/a
547.787	0.135	1095574	keystroke	a	n/a
548.267	0.09	1096534	keystroke	d	n/a
548.4765	0.105	1096953	keystroke	o	n/a
548.6425	0.059	1097285	keystroke	o	n/a
549.362	0.075	1098724	keystroke	Key.backspace	n/a
549.527	0.075	1099054	keystroke	Key.backspace	n/a
549.692	0.075	1099384	keystroke	Key.backspace	n/a
549.827	0.09	1099654	keystroke	f	n/a
549.947	0.105	1099894	keystroke	o	n/a
550.127	0.09	1100254	keystroke	o	n/a
550.247	0.09	1100494	keystroke	d	n/a
550.367	0.12	1100734	keystroke	Key.space	n/a
550.667	0.09	1101334	keystroke	l	n/a
550.817	0.12	1101634	keystroke	u	n/a
551.0565	0.105	1102113	keystroke	c	n/a
551.2965	0.12	1102593	keystroke	k	n/a
551.5215	0.105	1103043	keystroke	y	n/a
551.7765	0.09	1103553	keystroke	Key.enter	n/a
551.8715	7.047	1103743	prompt	n/a	david decline weird rocky\n
552.6765	0.135	1105353	keystroke	d	n/a
552.8865	0.15	1105773	keystroke	a	n/a
553.0065	0.135	1106013	keystroke	v	n/a
553.1715	0.105	1106343	keystroke	i	n/a
553.3215	0.0905	1106643	keystroke	d	n/a
553.457	0.135	1106914	keystroke	Key.space	n/a
553.877	0.09	1107754	keystroke	d	n/a
554.117	0.06	1108234	keystroke	e	n/a
554.3565	0.105	1108713	keystroke	c	n/a
554.522	0.105	1109044	keystroke	l	n/a
554.702	0.105	1109404	keystroke	i	n/a
555.017	0.03	1110034	keystroke	e	n/a
555.4215	0.075	1110843	keystroke	Key.backspace	n/a
555.6465	0.09	1111293	keystroke	n	n/a
555.7965	0.06	1111593	keystroke	e	n/a
555.916	0.12	1111832	keystroke	Key.space	n/a
556.217	0.0895	1112434	keystroke	w	n/a
556.4265	0.09	1112853	keystroke	e	n/a
556.7565	0.09	1113513	keystroke	i	n/a
556.8915	0.1055	1113783	keystroke	r	n/a
557.087	0.105	1114174	keystroke	d	n/a
557.281	0.105	1114562	keystroke	Key.space	n/a
557.807	0.105	1115614	keystroke	r	n/a
557.972	0.105	1115944	keystroke	o	n/a
558.122	0.1045	1116244	keystroke	c	n/a
558.3015	0.105	1116603	keystroke	k	n/a
558.5565	0.1055	1117113	keystroke	y	n/a
558.8115	0.105	1117623	keystroke	Key.enter	n/a
558.924	9.009	1117848	prompt	n/a	wondering jewellery notices afterwards\n
559.7425	0.074	1119485	keystroke	w	n/a
559.8315	0.105	1119663	keystroke	o	n/a
559.982	0.105	1119964	keystroke	n	n/a
560.117	0.075	1120234	keystroke	d	n/a
560.267	0.105	1120534	keystroke	e	n/a
560.357	0.12	1120714	keystroke	r	n/a
560.432	0.135	1120864	keystroke	i	n/a
560.507	0.135	1121014	keystroke	n	n/a
560.657	0.09	1121314	keystroke	g	n/a
560.762	0.135	1121524	keystroke	Key.space	n/a
560.882	0.105	1121764	keystroke	j	n/a
561.077	0.165	1122154	keystroke	e	n/a
561.287	0.045	1122574	keystroke	w	n/a
561.332	0.1195	1122664	keystroke	e	n/a
561.7515	0.045	1123503	keystroke	l	n/a
561.9015	0.12	1123803	keystroke	l	n/a
562.2015	0.195	1124403	keystroke	e	n/a
562.3665	0.12	1124733	keystroke	r	n/a
562.6365	0.135	1125273	keystroke	y	n/a
562.7865	0.165	1125573	keystroke	Key.space	n/a
563.2665	0.06	1126533	keystroke	n	n/a
563.3115	0.12	1126623	keystroke	o	n/a
563.4765	0.105	1126953	keystroke	t	n/a
564.272	0.1195	1128544	keystroke	i	n/a
564.4215	0.105	1128843	keystroke	c	n/a
564.6765	0.06	1129353	keystroke	e	n/a
564.8415	0.09	1129683	keystroke	s	n/a
565.0215	0.136	1130043	keystroke	Key.space	n/a
565.2615	0.121	1130523	keystroke	a	n/a
565.3825	0.1045	1130765	keystroke	f	n/a
565.607	0.12	1131214	keystroke	t	n/a
565.772	0.075	1131544	keystroke	e	n/a
566.552	0.12	1133104	keystroke	r	n/a
566.837	0.105	1133674	keystroke	w	n/a
567.0765	0.15	1134153	keystroke	a	n/a
567.2415	0.105	1134483	keystroke	r	n/a
567.4365	0.075	1134873	keystroke	d	n/a
567.6015	0.09	1135203	keystroke	s	n/a
567.8565	0.075	1135713	keystroke	Key.enter	n/a
567.9365	6.297	1135873	prompt	n/a	east prospective missions modern\n
568.697	0.045	1137394	keystroke	e	n/a
568.8315	0.1655	1137663	keystroke	a	n/a
568.982	0.135	1137964	keystroke	s	n/a
569.102	0.135	1138204	keystroke	t	n/a
569.222	0.135	1138444	keystroke	Key.space	n/a
569.432	0.1495	1138864	keystroke	p	n/a
569.5965	0.12	1139193	keystroke	r	n/a
569.7315	0.105	1139463	keystroke	o	n/a
570.0015	0.09	1140003	keystroke	s	n/a
570.1965	0.12	1140393	keystroke	p	n/a
570.4815	0.12	1140963	keystroke	e	n/a
570.7665	0.105	1141533	keystroke	c	n/a
570.9615	0.1055	1141923	keystroke	t	n/a
571.127	0.12	1142254	keystroke	i	n/a
571.307	0.12	1142614	keystroke	v	n/a
571.397	0.135	1142794	keystroke	e	n/a
571.547	0.15	1143094	keystroke	Key.space	n/a
571.682	0.12	1143364	keystroke	m	n/a
571.877	0.105	1143754	keystroke	i	n/a
572.027	0.09	1144054	keystroke	s	n/a
572.192	0.0895	1144384	keystroke	s	n/a
572.2965	0.135	1144593	keystroke	i	n/a
572.3865	0.135	1144773	keystroke	o	n/a
572.4765	0.15	1144953	keystroke	n	n/a
572.6415	0.09	1145283	keystroke	s	n/a
572.7615	0.135	1145523	keystroke	Key.space	n/a
572.9265	0.1355	1145853	keystroke	m	n/a
573.047	0.15	1146094	keystroke	o	n/a
573.242	0.075	1146484	keystroke	d	n/a
573.452	0.075	1146904	keystroke	e	n/a
573.8715	0.12	1147743	keystroke	m	n/a
574.1415	0.09	1148283	keystroke	Key.enter	n/a
574.2365	10.3465	1148473	prompt	n/a	special involves beside desert\n
575.057	0.09	1150114	keystroke	s	n/a
575.207	0.12	1150414	keystroke	p	n/a
575.357	0.075	1150714	keystroke	e	n/a
575.567	0.105	1151134	keystroke	c	n/a
575.657	0.105	1151314	keystroke	i	n/a
575.882	0.105	1151764	keystroke	l	n/a
576.212	0.135	1152424	keystroke	Key.space	n/a
576.587	0.06	1153174	keystroke	Key.backspace	n/a
576.737	0.105	1153474	keystroke	Key.backspace	n/a
576.887	0.105	1153774	keystroke	a	n/a
577.037	0.12	1154074	keystroke	l	n/a
577.142	0.105	1154284	keystroke	Key.space	n/a
577.727	0.09	1155454	keystroke	h	n/a
578.057	0.089	1156114	keystroke	Key.backspace	n/a
578.267	0.12	1156534	keystroke	i	n/a
578.372	0.105	1156744	keystroke	n	n/a
578.537	0.09	1157074	keystroke	v	n/a
578.657	0.0895	1157314	keystroke	o	n/a
578.8665	0.075	1157733	keystroke	l	n/a
579.4365	0.0905	1158873	keystroke	v	n/a
579.692	0.015	1159384	keystroke	e	n/a
579.812	0.045	1159624	keystroke	d	n/a
580.4115	0.09	1160823	keystroke	Key.backspace	n/a
580.5765	0.09	1161153	keystroke	s	n/a
580.7265	0.12	1161453	keystroke	Key.space	n/a
581.1315	0.09	1162263	keystroke	b	n/a
581.3715	0.09	1162743	keystroke	e	n/a
581.5815	0.105	1163163	keystroke	s	n/a
581.837	0.135	1163674	keystroke	i	n/a
582.062	0.075	1164124	keystroke	d	n/a
582.242	0.06	1164484	keystroke	e	n/a
582.407	0.12	1164814	keystroke	Key.space	n/a
582.977	0.075	1165954	keystroke	d	n/a
583.187	0.09	1166374	keystroke	e	n/a
583.412	0.09	1166824	keystroke	s	n/a
583.487	0.06	1166974	keystroke	e	n/a
584.1025	0.089	1168205	keystroke	r	n/a
584.2965	0.09	1168593	keystroke	t	n/a
584.4915	0.09	1168983	keystroke	Key.enter	n/a
584.5865	5.547	1169173	prompt	n/a	does keith adopted asin\n
585.182	0.09	1170364	keystroke	d	n/a
585.287	0.105	1170574	keystroke	o	n/a
585.437	0.09	1170874	keystroke	e	n/a
585.572	0.105	1171144	keystroke	s	n/a
585.692	0.18	1171384	keystroke	Key.space	n/a
585.842	0.09	1171684	keystroke	k	n/a
586.007	0.105	1172014	keystroke	e	n/a
586.307	0.135	1172614	keystroke	i	n/a
586.577	0.105	1173154	keystroke	t	n/a
586.697	0.135	1173394	keystroke	h	n/a
586.892	0.135	1173784	keystroke	Key.space	n/a
587.2515	0.03	1174503	keystroke	d	n/a
587.6715	0.09	1175343	keystroke	Key.backspace	n/a
587.8215	0.12	1175643	keystroke	a	n/a
587.9725	0.104	1175945	keystroke	d	n/a
588.1515	0.105	1176303	keystroke	p	n/a
588.3315	0.12	1176663	keystroke	o	n/a
588.6465	0.015	1177293	keystroke	t	n/a
588.7665	0.06	1177533	keystroke	e	n/a
588.947	0.09	1177894	keystroke	d	n/a
589.082	0.165	1178164	keystroke	Key.space	n/a
589.277	0.105	1178554	keystroke	a	n/a
589.532	0.105	1179064	keystroke	s	n/a
589.682	0.165	1179364	keystroke	i	n/a
589.802	0.12	1179604	keystroke	n	n/a
590.027	0.105	1180054	keystroke	Key.enter	n/a
590.136	7.1675	1180272	prompt	n/a	bedding raised tube customers\n
591.182	0.075	1182364	keystroke	b	n/a
591.3465	0.06	1182693	keystroke	e	n/a
591.5715	0.06	1183143	keystroke	d	n/a
591.7365	0.09	1183473	keystroke	d	n/a
591.8565	0.165	1183713	keystroke	i	n/a
591.9765	0.135	1183953	keystroke	n	n/a
592.0965	0.09	1184193	keystroke	g	n/a
592.2165	0.135	1184433	keystroke	Key.space	n/a
592.4115	0.09	1184823	keystroke	r	n/a
592.5765	0.09	1185153	keystroke	a	n/a
592.6815	0.12	1185363	keystroke	i	n/a
593.1915	0.09	1186383	keystroke	s	n/a
593.4015	0.06	1186803	keystroke	e	n/a
593.5965	0.105	1187193	keystroke	d	n/a
593.7465	0.135	1187493	keystroke	Key.space	n/a
593.9415	0.12	1187883	keystroke	t	n/a
594.3615	0.105	1188723	keystroke	u	n/a
594.4515	0.105	1188903	keystroke	b	n/a
594.6765	0.075	1189353	keystroke	e	n/a
594.7965	0.15	1189593	keystroke	Key.space	n/a
595.142	0.074	1190284	keystroke	s	n/a
595.5165	0.09	1191033	keystroke	Key.backspace	n/a
595.7115	0.045	1191423	keystroke	c	n/a
595.7865	0.105	1191573	keystroke	u	n/a
595.951	0.166	1191902	keystroke	s	n/a
596.086	0.12	1192172	keystroke	t	n/a
596.222	0.119	1192444	keystroke	o	n/a
