onset	duration	sample	value	key	prompt_text
6.9145	17.883	13829	prompt	n/a	the quick brown fox jumps over a lazy dog\n
11.5505	0.029	23101	keystroke_t	t	n/a
11.5935	0.105	23187	keystroke_h	h	n/a
11.6835	0.105	23367	keystroke_e	e	n/a
11.8185	0.12	23637	keystroke_Key.space	Key.space	n/a
12.179	0.0755	24358	keystroke_q	q	n/a
12.434	0.121	24868	keystroke_u	u	n/a
12.5995	0.0895	25199	keystroke_i	i	n/a
12.749	0.075	25498	keystroke_c	c	n/a
12.854	0.18	25708	keystroke_k	k	n/a
13.004	0.09	26008	keystroke_Key.space	Key.space	n/a
13.1995	0.09	26399	keystroke_b	b	n/a
13.3045	0.0755	26609	keystroke_r	r	n/a
13.4545	0.075	26909	keystroke_o	o	n/a
13.5745	0.1195	27149	keystroke_w	w	n/a
13.739	0.18	27478	keystroke_n	n	n/a
13.9045	0.1345	27809	keystroke_Key.space	Key.space	n/a
14.7595	0.0745	29519	keystroke_f	f	n/a
15.044	0.076	30088	keystroke_o	o	n/a
15.254	0.076	30508	keystroke_z	z	n/a
15.899	0.075	31798	keystroke_Key.backspace	Key.backspace	n/a
16.05	0.059	32100	keystroke_x	x	n/a
16.214	0.105	32428	keystroke_Key.space	Key.space	n/a
16.844	0.075	33688	keystroke_j	j	n/a
17.0545	0.09	34109	keystroke_u	u	n/a
18.374	0.12	36748	keystroke_m	m	n/a
18.509	0.091	37018	keystroke_p	p	n/a
18.689	0.105	37378	keystroke_s	s	n/a
18.87	0.119	37740	keystroke_Key.space	Key.space	n/a
19.094	0.06	38188	keystroke_o	o	n/a
19.139	0.075	38278	keystroke_v	v	n/a
19.32	0.134	38640	keystroke_e	e	n/a
19.394	0.136	38788	keystroke_r	r	n/a
19.544	0.075	39088	keystroke_Key.space	Key.space	n/a
19.979	0.061	39958	keystroke_a	a	n/a
20.099	0.0755	40198	keystroke_Key.space	Key.space	n/a
20.28	0.075	40560	keystroke_l	l	n/a
20.369	0.135	40738	keystroke_a	a	n/a
20.6545	0.06	41309	keystroke_s	s	n/a
22.0495	0.089	44099	keystroke_Key.backspace	Key.backspace	n/a
22.305	0.0145	44610	keystroke_z	z	n/a
22.5595	0.18	45119	keystroke_y	y	n/a
22.6945	0.12	45389	keystroke_Key.space	Key.space	n/a
24.2995	0.09	48599	keystroke_d	d	n/a
24.479	0.09	48958	keystroke_o	o	n/a
24.5545	0.105	49109	keystroke_g	g	n/a
24.704	0.0905	49408	keystroke_Key.enter	Key.enter	n/a
24.8035	9.608	49607	prompt	n/a	feof chapters present rehabilitation\n
26.7895	0.09	53579	keystroke_f	f	n/a
26.9095	0.1045	53819	keystroke_e	e	n/a
27.255	0.0745	54510	keystroke_o	o	n/a
27.389	0.061	54778	keystroke_f	f	n/a
28.155	0.1345	56310	keystroke_Key.space	Key.space	n/a
28.5895	0.075	57179	keystroke_c	c	n/a
28.6645	0.105	57329	keystroke_h	h	n/a
28.7845	0.0905	57569	keystroke_a	a	n/a
28.905	0.0895	57810	keystroke_p	p	n/a
29.0845	0.075	58169	keystroke_t	t	n/a
29.2645	0.135	58529	keystroke_e	e	n/a
29.3695	0.105	58739	keystroke_r	r	n/a
29.5045	0.105	59009	keystroke_s	s	n/a
29.655	0.104	59310	keystroke_Key.space	Key.space	n/a
30.269	0.075	60538	keystroke_p	p	n/a
30.375	0.105	60750	keystroke_r	r	n/a
30.434	0.105	60868	keystroke_e	e	n/a
30.599	0.135	61198	keystroke_s	s	n/a
31.2745	0.1055	62549	keystroke_e	e	n/a
31.424	0.1055	62848	keystroke_n	n	n/a
31.544	0.09	63088	keystroke_t	t	n/a
31.664	0.12	63328	keystroke_Key.space	Key.space	n/a
31.9795	0.1045	63959	keystroke_r	r	n/a
32.114	0.106	64228	keystroke_e	e	n/a
32.564	0.0905	65128	keystroke_h	h	n/a
32.684	0.105	65368	keystroke_a	a	n/a
32.865	0.119	65730	keystroke_b	b	n/a
32.999	0.09	65998	keystroke_i	i	n/a
33.239	0.136	66478	keystroke_l	l	n/a
33.359	0.075	66718	keystroke_i	i	n/a
33.48	0.089	66960	keystroke_t	t	n/a
33.614	0.075	67228	keystroke_a	a	n/a
33.705	0.09	67410	keystroke_t	t	n/a
33.81	0.135	67620	keystroke_i	i	n/a
33.9145	0.1505	67829	keystroke_o	o	n/a
34.019	0.15	68038	keystroke_n	n	n/a
34.349	0.06	68698	keystroke_Key.enter	Key.enter	n/a
34.416	18.506	68832	prompt	n/a	maternity coalition florence antibodies\n
35.31	0.105	70620	keystroke_m	m	n/a
35.534	0.075	71068	keystroke_t	t	n/a
36.014	0.06	72028	keystroke_Key.backspace	Key.backspace	n/a
36.119	0.12	72238	keystroke_a	a	n/a
36.224	0.075	72448	keystroke_t	t	n/a
36.404	0.12	72808	keystroke_e	e	n/a
36.539	0.091	73078	keystroke_r	r	n/a
36.7795	0.1205	73559	keystroke_n	n	n/a
36.914	0.09	73828	keystroke_i	i	n/a
37.6795	0.09	75359	keystroke_t	t	n/a
37.7995	0.1055	75599	keystroke_u	u	n/a
37.994	0.076	75988	keystroke_Key.space	Key.space	n/a
39.0745	0.015	78149	keystroke_Key.backspace	Key.backspace	n/a
39.194	0.015	78388	keystroke_Key.backspace	Key.backspace	n/a
39.9905	0.164	79981	keystroke_y	y	n/a
40.1095	0.105	80219	keystroke_Key.space	Key.space	n/a
40.83	0.1045	81660	keystroke_c	c	n/a
42.345	0.09	84690	keystroke_o	o	n/a
42.495	0.075	84990	keystroke_a	a	n/a
43.439	0.121	86878	keystroke_l	l	n/a
43.665	0.0895	87330	keystroke_i	i	n/a
43.89	0.0745	87780	keystroke_t	t	n/a
43.98	0.1195	87960	keystroke_i	i	n/a
44.0395	0.15	88079	keystroke_o	o	n/a
44.1595	0.165	88319	keystroke_n	n	n/a
44.3395	0.0905	88679	keystroke_Key.space	Key.space	n/a
44.8645	0.15	89729	keystroke_f	f	n/a
45.1495	0.0905	90299	keystroke_l	l	n/a
45.345	0.075	90690	keystroke_o	o	n/a
45.435	0.18	90870	keystroke_r	r	n/a
45.69	0.09	91380	keystroke_n	n	n/a
46.155	0.074	92310	keystroke_Key.backspace	Key.backspace	n/a
46.275	0.075	92550	keystroke_e	e	n/a
46.3945	0.105	92789	keystroke_n	n	n/a
46.4845	0.15	92969	keystroke_c	c	n/a
46.6045	0.105	93209	keystroke_e	e	n/a
46.7995	0.06	93599	keystroke_Key.space	Key.space	n/a
47.504	0.0755	95008	keystroke_Key.backspace	Key.backspace	n/a
47.684	0.03	95368	keystroke_Key.backspace	Key.backspace	n/a
47.894	0.045	95788	keystroke_n	n	n/a
48.525	0.105	97050	keystroke_Key.backspace	Key.backspace	n/a
48.6445	0.09	97289	keystroke_e	e	n/a
48.9745	0.0745	97949	keystroke_Key.space	Key.space	n/a
50.7145	0.06	101429	keystroke_a	a	n/a
51.09	0.0895	102180	keystroke_n	n	n/a
51.3145	0.06	102629	keystroke_t	t	n/a
51.4195	0.09	102839	keystroke_i	i	n/a
51.6595	0.075	103319	keystroke_b	b	n/a
51.945	0.0895	103890	keystroke_o	o	n/a
52.1395	0.0755	104279	keystroke_d	d	n/a
52.275	0.0895	104550	keystroke_i	i	n/a
52.3795	0.12	104759	keystroke_e	e	n/a
52.4845	0.0905	104969	keystroke_s	s	n/a
52.8445	0.0755	105689	keystroke_Key.enter	Key.enter	n/a
52.927	9.28	105854	prompt	n/a	attended coupled researcher capability\n
53.85	0.0145	107700	keystroke_a	a	n/a
53.955	0.0595	107910	keystroke_t	t	n/a
54.0895	0.0605	108179	keystroke_t	t	n/a
54.2095	0.105	108419	keystroke_e	e	n/a
54.3745	0.09	108749	keystroke_n	n	n/a
54.6145	0.075	109229	keystroke_d	d	n/a
54.7795	0.075	109559	keystroke_e	e	n/a
54.975	0.105	109950	keystroke_d	d	n/a
55.095	0.105	110190	keystroke_Key.space	Key.space	n/a
55.3345	0.075	110669	keystroke_c	c	n/a
55.4395	0.12	110879	keystroke_o	o	n/a
55.545	0.105	111090	keystroke_u	u	n/a
55.7095	0.075	111419	keystroke_p	p	n/a
55.9195	0.0755	111839	keystroke_l	l	n/a
56.16	0.09	112320	keystroke_e	e	n/a
56.37	0.06	112740	keystroke_d	d	n/a
56.5345	0.09	113069	keystroke_Key.space	Key.space	n/a
57.0595	0.1945	114119	keystroke_r	r	n/a
57.239	0.0905	114478	keystroke_e	e	n/a
57.42	0.119	114840	keystroke_s	s	n/a
57.525	0.15	115050	keystroke_e	e	n/a
57.659	0.1205	115318	keystroke_a	a	n/a
57.749	0.106	115498	keystroke_r	r	n/a
57.989	0.076	115978	keystroke_c	c	n/a
58.079	0.091	116158	keystroke_h	h	n/a
58.184	0.15	116368	keystroke_e	e	n/a
58.32	0.089	116640	keystroke_r	r	n/a
58.439	0.091	116878	keystroke_Key.space	Key.space	n/a
59.699	0.121	119398	keystroke_c	c	n/a
59.865	0.0895	119730	keystroke_a	a	n/a
60.0745	0.06	120149	keystroke_p	p	n/a
60.2395	0.045	120479	keystroke_a	a	n/a
60.4045	0.0755	120809	keystroke_b	b	n/a
60.5545	0.075	121109	keystroke_i	i	n/a
61.02	0.0895	122040	keystroke_l	l	n/a
61.1095	0.105	122219	keystroke_i	i	n/a
61.2595	0.09	122519	keystroke_t	t	n/a
61.4545	0.09	122909	keystroke_y	y	n/a
62.1	0.1045	124200	keystroke_Key.enter	Key.enter	n/a
62.211	10.196	124422	prompt	n/a	melbourne misc execute piano\n
63.54	0.1045	127080	keystroke_m	m	n/a
63.6895	0.106	127379	keystroke_e	e	n/a
65.0695	0.075	130139	keystroke_l	l	n/a
65.4895	0.0755	130979	keystroke_b	b	n/a
65.639	0.165	131278	keystroke_o	o	n/a
65.789	0.0905	131578	keystroke_u	u	n/a
65.9545	0.1045	131909	keystroke_r	r	n/a
66.09	0.105	132180	keystroke_n	n	n/a
66.239	0.075	132478	keystroke_e	e	n/a
66.4045	0.1045	132809	keystroke_Key.space	Key.space	n/a
66.794	0.076	133588	keystroke_m	m	n/a
66.989	0.061	133978	keystroke_i	i	n/a
67.08	0.0895	134160	keystroke_s	s	n/a
67.2745	0.12	134549	keystroke_c	c	n/a
67.8145	0.135	135629	keystroke_Key.space	Key.space	n/a
68.22	0.0745	136440	keystroke_e	e	n/a
69	0.075	138000	keystroke_x	x	n/a
69.3595	0.09	138719	keystroke_e	e	n/a
69.764	0.076	139528	keystroke_c	c	n/a
69.945	0.075	139890	keystroke_u	u	n/a
70.0045	0.1345	140009	keystroke_t	t	n/a
70.184	0.105	140368	keystroke_e	e	n/a
70.349	0.121	140698	keystroke_Key.space	Key.space	n/a
70.634	0.09	141268	keystroke_p	p	n/a
70.8295	0.1045	141659	keystroke_i	i	n/a
70.949	0.09	141898	keystroke_a	a	n/a
71.1	0.09	142200	keystroke_n	n	n/a
71.234	0.09	142468	keystroke_o	o	n/a
72.2845	0.12	144569	keystroke_Key.enter	Key.enter	n/a
72.4115	7.1655	144823	prompt	n/a	feat relay census basin\n
73.35	0.0895	146700	keystroke_f	f	n/a
73.4845	0.165	146969	keystroke_e	e	n/a
73.6345	0.105	147269	keystroke_a	a	n/a
73.7545	0.09	147509	keystroke_t	t	n/a
74.2795	0.1205	148559	keystroke_Key.space	Key.space	n/a
74.445	0.135	148890	keystroke_r	r	n/a
74.55	0.1195	149100	keystroke_e	e	n/a
75.5095	0.0605	151019	keystroke_l	l	n/a
75.645	0.044	151290	keystroke_a	a	n/a
75.765	0.135	151530	keystroke_y	y	n/a
75.959	0.091	151918	keystroke_Key.space	Key.space	n/a
76.904	0.106	153808	keystroke_c	c	n/a
77.565	0.09	155130	keystroke_e	e	n/a
77.8495	0.09	155699	keystroke_n	n	n/a
78.09	0.0745	156180	keystroke_s	s	n/a
78.2395	0.0905	156479	keystroke_u	u	n/a
78.3745	0.09	156749	keystroke_s	s	n/a
78.5395	0.075	157079	keystroke_Key.space	Key.space	n/a
78.7645	0.06	157529	keystroke_b	b	n/a
78.8845	0.06	157769	keystroke_a	a	n/a
79.065	0.0595	158130	keystroke_s	s	n/a
79.1545	0.1355	158309	keystroke_i	i	n/a
79.274	0.0905	158548	keystroke_n	n	n/a
79.4995	0.075	158999	keystroke_Key.enter	Key.enter	n/a
79.581	8.515	159162	prompt	n/a	alan quick the onion\n
80.2355	0.059	160471	keystroke_a	a	n/a
80.4145	0.09	160829	keystroke_l	l	n/a
80.52	0.0595	161040	keystroke_a	a	n/a
80.6845	0.06	161369	keystroke_n	n	n/a
81.2245	0.105	162449	keystroke_Key.space	Key.space	n/a
81.9595	0.075	163919	keystroke_q	q	n/a
82.2	0.12	164400	keystroke_u	u	n/a
82.4095	0.135	164819	keystroke_i	i	n/a
82.5745	0.06	165149	keystroke_c	c	n/a
82.7095	0.12	165419	keystroke_k	k	n/a
83.1145	0.1055	166229	keystroke_Key.space	Key.space	n/a
83.4445	0.06	166889	keystroke_t	t	n/a
83.5345	0.105	167069	keystroke_h	h	n/a
83.625	0.1195	167250	keystroke_e	e	n/a
83.7295	0.12	167459	keystroke_Key.space	Key.space	n/a
84.1045	0.09	168209	keystroke_i	i	n/a
84.2705	0.074	168541	keystroke_o	o	n/a
84.4795	0.09	168959	keystroke_n	n	n/a
84.5845	0.1055	169169	keystroke_i	i	n/a
85.35	0.059	170700	keystroke_Key.backspace	Key.backspace	n/a
85.514	0.045	171028	keystroke_Key.backspace	Key.backspace	n/a
85.664	0.045	171328	keystroke_Key.backspace	Key.backspace	n/a
85.815	0.0295	171630	keystroke_Key.backspace	Key.backspace	n/a
86.0845	0.12	172169	keystroke_o	o	n/a
86.325	0.1045	172650	keystroke_n	n	n/a
86.7745	0.18	173549	keystroke_o	o	n/a
87.285	0.045	174570	keystroke_Key.backspace	Key.backspace	n/a
87.495	0.135	174990	keystroke_i	i	n/a
87.645	0.12	175290	keystroke_o	o	n/a
87.735	0.105	175470	keystroke_n	n	n/a
88.05	0.044	176100	keystroke_Key.enter	Key.enter	n/a
88.1015	7.3595	176203	prompt	n/a	favor ellen encourage triple\n
89.6255	0.0745	179251	keystroke_f	f	n/a
89.7595	0.0905	179519	keystroke_a	a	n/a
89.969	0.09	179938	keystroke_v	v	n/a
90.1045	0.1055	180209	keystroke_o	o	n/a
90.27	0.105	180540	keystroke_r	r	n/a
90.36	0.12	180720	keystroke_Key.space	Key.space	n/a
90.54	0.075	181080	keystroke_e	e	n/a
90.675	0.06	181350	keystroke_l	l	n/a
90.855	0.015	181710	keystroke_l	l	n/a
91.44	0.0745	182880	keystroke_e	e	n/a
91.5595	0.075	183119	keystroke_n	n	n/a
91.7995	0.105	183599	keystroke_Key.space	Key.space	n/a
92.2645	0.09	184529	keystroke_e	e	n/a
92.7295	0.105	185459	keystroke_n	n	n/a
92.9545	0.12	185909	keystroke_c	c	n/a
93.1045	0.15	186209	keystroke_o	o	n/a
93.2095	0.12	186419	keystroke_u	u	n/a
93.375	0.1045	186750	keystroke_r	r	n/a
93.5545	0.105	187109	keystroke_a	a	n/a
93.6745	0.09	187349	keystroke_g	g	n/a
93.8245	0.075	187649	keystroke_e	e	n/a
94.0045	0.105	188009	keystroke_Key.space	Key.space	n/a
94.454	0.0605	188908	keystroke_t	t	n/a
94.6345	0.0745	189269	keystroke_r	r	n/a
94.694	0.106	189388	keystroke_i	i	n/a
94.8745	0.09	189749	keystroke_p	p	n/a
95.0995	0.076	190199	keystroke_l	l	n/a
95.2195	0.045	190439	keystroke_e	e	n/a
95.3845	0.075	190769	keystroke_Key.enter	Key.enter	n/a
95.465	7.662	190930	prompt	n/a	dates viking pitch totals\n
96.4795	0.105	192959	keystroke_d	d	n/a
96.615	0.1345	193230	keystroke_a	a	n/a
96.7345	0.12	193469	keystroke_t	t	n/a
96.87	0.12	193740	keystroke_e	e	n/a
97.005	0.12	194010	keystroke_s	s	n/a
97.185	0.1195	194370	keystroke_Key.space	Key.space	n/a
97.4845	0.0905	194969	keystroke_v	v	n/a
97.6045	0.0905	195209	keystroke_i	i	n/a
97.8145	0.0605	195629	keystroke_k	k	n/a
97.9945	0.15	195989	keystroke_i	i	n/a
98.1295	0.105	196259	keystroke_n	n	n/a
98.2795	0.075	196559	keystroke_g	g	n/a
98.4445	0.135	196889	keystroke_Key.space	Key.space	n/a
99.9	0.089	199800	keystroke_p	p	n/a
100.14	0.105	200280	keystroke_i	i	n/a
100.41	0.089	200820	keystroke_t	t	n/a
100.695	0.12	201390	keystroke_c	c	n/a
100.875	0.12	201750	keystroke_h	h	n/a
101.309	0.135	202618	keystroke_Key.space	Key.space	n/a
101.474	0.091	202948	keystroke_t	t	n/a
101.595	0.075	203190	keystroke_o	o	n/a
101.7	0.135	203400	keystroke_t	t	n/a
101.865	0.105	203730	keystroke_a	a	n/a
102.6	0.18	205200	keystroke_l	l	n/a
102.8545	0.1055	205709	keystroke_s	s	n/a
103.064	0.06	206128	keystroke_Key.enter	Key.enter	n/a
103.1315	9.6845	206263	prompt	n/a	catalogue activity partnership console\n
104.265	0.105	208530	keystroke_c	c	n/a
104.445	0.1045	208890	keystroke_a	a	n/a
104.759	0.106	209518	keystroke_t	t	n/a
104.924	0.076	209848	keystroke_a	a	n/a
105.5695	0.06	211139	keystroke_l	l	n/a
105.7645	0.1055	211529	keystroke_o	o	n/a
106.02	0.09	212040	keystroke_g	g	n/a
106.125	0.0595	212250	keystroke_u	u	n/a
106.2745	0.1205	212549	keystroke_e	e	n/a
106.9045	0.135	213809	keystroke_Key.space	Key.space	n/a
107.0845	0.105	214169	keystroke_a	a	n/a
107.2795	0.1055	214559	keystroke_c	c	n/a
107.5045	0.06	215009	keystroke_t	t	n/a
107.6245	0.075	215249	keystroke_i	i	n/a
107.7595	0.12	215519	keystroke_v	v	n/a
107.895	0.1195	215790	keystroke_i	i	n/a
108.045	0.089	216090	keystroke_t	t	n/a
108.209	0.106	216418	keystroke_y	y	n/a
108.4195	0.105	216839	keystroke_Key.space	Key.space	n/a
108.7495	0.1505	217499	keystroke_p	p	n/a
108.945	0.225	217890	keystroke_a	a	n/a
109.14	0.105	218280	keystroke_r	r	n/a
109.409	0.1205	218818	keystroke_t	t	n/a
110.04	0.104	220080	keystroke_n	n	n/a
110.19	0.135	220380	keystroke_e	e	n/a
110.295	0.075	220590	keystroke_r	r	n/a
110.49	0.074	220980	keystroke_s	s	n/a
110.55	0.165	221100	keystroke_h	h	n/a
110.7	0.0895	221400	keystroke_i	i	n/a
110.925	0.0895	221850	keystroke_p	p	n/a
111.075	0.1345	222150	keystroke_Key.space	Key.space	n/a
111.615	0.105	223230	keystroke_c	c	n/a
111.75	0.164	223500	keystroke_o	o	n/a
111.9	0.089	223800	keystroke_n	n	n/a
112.125	0.0895	224250	keystroke_s	s	n/a
112.229	0.0755	224458	keystroke_o	o	n/a
112.44	0.075	224880	keystroke_l	l	n/a
112.559	0.075	225118	keystroke_e	e	n/a
112.709	0.105	225418	keystroke_Key.enter	Key.enter	n/a
112.82	8.051	225640	prompt	n/a	bones last studies sponsor\n
113.609	0.121	227218	keystroke_b	b	n/a
113.789	0.121	227578	keystroke_o	o	n/a
114.8695	0.075	229739	keystroke_n	n	n/a
114.9895	0.1655	229979	keystroke_e	e	n/a
115.14	0.105	230280	keystroke_s	s	n/a
115.304	0.1205	230608	keystroke_Key.space	Key.space	n/a
115.709	0.076	231418	keystroke_l	l	n/a
115.875	0.1495	231750	keystroke_a	a	n/a
115.9045	0.15	231809	keystroke_s	s	n/a
116.6395	0.09	233279	keystroke_t	t	n/a
116.7595	0.135	233519	keystroke_Key.space	Key.space	n/a
117.075	0.0895	234150	keystroke_s	s	n/a
117.254	0.09	234508	keystroke_t	t	n/a
117.4645	0.0895	234929	keystroke_u	u	n/a
117.644	0.0755	235288	keystroke_d	d	n/a
117.794	0.135	235588	keystroke_i	i	n/a
117.959	0.0905	235918	keystroke_e	e	n/a
118.604	0.09	237208	keystroke_s	s	n/a
118.814	0.135	237628	keystroke_Key.space	Key.space	n/a
119.5195	0.0895	239039	keystroke_s	s	n/a
119.6695	0.0755	239339	keystroke_p	p	n/a
119.894	0.0755	239788	keystroke_o	o	n/a
120.075	0.104	240150	keystroke_n	n	n/a
120.284	0.075	240568	keystroke_s	s	n/a
120.42	0.089	240840	keystroke_o	o	n/a
120.554	0.09	241108	keystroke_r	r	n/a
120.794	0.0755	241588	keystroke_Key.enter	Key.enter	n/a
120.875	8.8615	241750	prompt	n/a	enormous strategic root bids\n
121.5445	0.075	243089	keystroke_e	e	n/a
121.6945	0.105	243389	keystroke_n	n	n/a
121.8595	0.135	243719	keystroke_o	o	n/a
122.085	0.0745	244170	keystroke_r	r	n/a
122.2945	0.09	244589	keystroke_m	m	n/a
122.4145	0.165	244829	keystroke_o	o	n/a
122.5645	0.075	245129	keystroke_u	u	n/a
122.6845	0.1055	245369	keystroke_s	s	n/a
122.85	0.104	245700	keystroke_Key.space	Key.space	n/a
123	0.09	246000	keystroke_s	s	n/a
123.2545	0.03	246509	keystroke_t	t	n/a
123.3445	0.0305	246689	keystroke_a	a	n/a
124.0045	0.09	248009	keystroke_Key.backspace	Key.backspace	n/a
125.054	0.1205	250108	keystroke_r	r	n/a
125.219	0.076	250438	keystroke_a	a	n/a
125.444	0.09	250888	keystroke_t	t	n/a
125.64	0.075	251280	keystroke_e	e	n/a
126.12	0.09	252240	keystroke_g	g	n/a
126.269	0.076	252538	keystroke_i	i	n/a
126.39	0.12	252780	keystroke_c	c	n/a
126.554	0.12	253108	keystroke_Key.space	Key.space	n/a
128.3095	0.09	256619	keystroke_r	r	n/a
128.5045	0.0455	257009	keystroke_o	o	n/a
128.6695	0.105	257339	keystroke_o	o	n/a
128.7895	0.045	257579	keystroke_t	t	n/a
128.8495	0.09	257699	keystroke_Key.space	Key.space	n/a
129.0295	0.09	258059	keystroke_b	b	n/a
129.1795	0.105	258359	keystroke_i	i	n/a
129.2845	0.15	258569	keystroke_d	d	n/a
129.4195	0.09	258839	keystroke_s	s	n/a
129.6445	0.09	259289	keystroke_Key.enter	Key.enter	n/a
129.7415	13.585	259483	prompt	n/a	peripherals accommodation ghana vary\n
131.489	0.09	262978	keystroke_p	p	n/a
132.5695	0.21	265139	keystroke_e	e	n/a
132.7945	0.06	265589	keystroke_r	r	n/a
134.3245	0.075	268649	keystroke_i	i	n/a
134.594	0.0445	269188	keystroke_p	p	n/a
135.254	0.1355	270508	keystroke_h	h	n/a
135.569	0.165	271138	keystroke_e	e	n/a
135.719	0.091	271438	keystroke_r	r	n/a
136.1395	0.15	272279	keystroke_a	a	n/a
136.545	0.075	273090	keystroke_l	l	n/a
136.68	0.105	273360	keystroke_s	s	n/a
136.829	0.106	273658	keystroke_Key.space	Key.space	n/a
137.3835	0.121	274767	keystroke_a	a	n/a
137.579	0.0605	275158	keystroke_c	c	n/a
138.3295	0.104	276659	keystroke_c	c	n/a
138.539	0.1195	277078	keystroke_o	o	n/a
138.824	0.076	277648	keystroke_m	m	n/a
139.0795	0.089	278159	keystroke_m	m	n/a
139.2895	0.09	278579	keystroke_o	o	n/a
139.6195	0.09	279239	keystroke_d	d	n/a
139.7545	0.135	279509	keystroke_a	a	n/a
139.8745	0.075	279749	keystroke_t	t	n/a
139.9645	0.105	279929	keystroke_i	i	n/a
140.0395	0.165	280079	keystroke_o	o	n/a
140.1445	0.18	280289	keystroke_n	n	n/a
140.3395	0.1045	280679	keystroke_Key.space	Key.space	n/a
141.179	0.045	282358	keystroke_g	g	n/a
141.3145	0.075	282629	keystroke_h	h	n/a
141.4495	0.09	282899	keystroke_a	a	n/a
141.629	0.075	283258	keystroke_n	n	n/a
141.75	0.104	283500	keystroke_a	a	n/a
141.9	0.134	283800	keystroke_Key.space	Key.space	n/a
142.154	0.075	284308	keystroke_v	v	n/a
142.409	0.15	284818	keystroke_a	a	n/a
142.5895	0.0895	285179	keystroke_r	r	n/a
142.8145	0.105	285629	keystroke_y	y	n/a
143.2345	0.09	286469	keystroke_Key.enter	Key.enter	n/a
143.3305	12.3255	286661	prompt	n/a	coordination involved light series\n
144.1495	0.06	288299	keystroke_c	c	n/a
144.2545	0.075	288509	keystroke_o	o	n/a
144.4345	0.0595	288869	keystroke_o	o	n/a
144.5545	0.104	289109	keystroke_r	r	n/a
145.3195	0.09	290639	keystroke_d	d	n/a
145.5145	0.09	291029	keystroke_i	i	n/a
145.6795	0.12	291359	keystroke_n	n	n/a
145.785	0.1345	291570	keystroke_a	a	n/a
145.9045	0.0895	291809	keystroke_t	t	n/a
146.024	0.09	292048	keystroke_i	i	n/a
146.0995	0.12	292199	keystroke_o	o	n/a
146.204	0.1805	292408	keystroke_n	n	n/a
146.369	0.135	292738	keystroke_Key.space	Key.space	n/a
146.5345	0.09	293069	keystroke_i	i	n/a
146.729	0.1055	293458	keystroke_n	n	n/a
146.954	0.105	293908	keystroke_o	o	n/a
147.419	0.075	294838	keystroke_Key.backspace	Key.backspace	n/a
147.554	0.0905	295108	keystroke_v	v	n/a
147.674	0.105	295348	keystroke_o	o	n/a
147.899	0.09	295798	keystroke_l	l	n/a
148.004	0.0905	296008	keystroke_e	e	n/a
148.184	0.045	296368	keystroke_v	v	n/a
148.9195	0.09	297839	keystroke_Key.backspace	Key.backspace	n/a
149.0245	0.105	298049	keystroke_v	v	n/a
149.3695	0.0595	298739	keystroke_Key.backspace	Key.backspace	n/a
149.534	0.045	299068	keystroke_Key.backspace	Key.backspace	n/a
150.269	0.1055	300538	keystroke_v	v	n/a
150.4945	0.09	300989	keystroke_e	e	n/a
151.154	0.075	302308	keystroke_d	d	n/a
151.2595	0.09	302519	keystroke_Key.space	Key.space	n/a
153.1345	0.06	306269	keystroke_l	l	n/a
153.704	0.1055	307408	keystroke_i	i	n/a
153.8245	0.0595	307649	keystroke_g	g	n/a
153.929	0.0905	307858	keystroke_h	h	n/a
154.0495	0.09	308099	keystroke_t	t	n/a
154.1545	0.12	308309	keystroke_Key.space	Key.space	n/a
154.3345	0.135	308669	keystroke_s	s	n/a
154.4395	0.135	308879	keystroke_e	e	n/a
154.6495	0.105	309299	keystroke_r	r	n/a
154.7845	0.105	309569	keystroke_i	i	n/a
154.9645	0.06	309929	keystroke_e	e	n/a
155.1595	0.0895	310319	keystroke_s	s	n/a
155.579	0.075	311158	keystroke_Key.enter	Key.enter	n/a
155.66	11.456	311320	prompt	n/a	arrangements papua awesome translations\n
156.5095	0.09	313019	keystroke_a	a	n/a
156.719	0.0745	313438	keystroke_r	r	n/a
156.869	0.1055	313738	keystroke_r	r	n/a
157.0045	0.105	314009	keystroke_a	a	n/a
157.1535	0.106	314307	keystroke_n	n	n/a
157.4085	0.121	314817	keystroke_g	g	n/a
157.7995	0.075	315599	keystroke_e	e	n/a
157.9345	0.06	315869	keystroke_m	m	n/a
158.0395	0.089	316079	keystroke_e	e	n/a
158.1585	0.091	316317	keystroke_n	n	n/a
158.2495	0.09	316499	keystroke_t	t	n/a
158.4285	0.09	316857	keystroke_s	s	n/a
159.3595	0.12	318719	keystroke_Key.space	Key.space	n/a
159.7195	0.105	319439	keystroke_p	p	n/a
159.885	0.0745	319770	keystroke_a	a	n/a
160.154	0.0605	320308	keystroke_p	p	n/a
160.4395	0.105	320879	keystroke_u	u	n/a
160.6195	0.09	321239	keystroke_a	a	n/a
160.8145	0.1195	321629	keystroke_Key.space	Key.space	n/a
161.084	0.0905	322168	keystroke_a	a	n/a
161.2945	0.12	322589	keystroke_w	w	n/a
161.4595	0.105	322919	keystroke_e	e	n/a
162.2385	0.106	324477	keystroke_s	s	n/a
162.3895	0.194	324779	keystroke_o	o	n/a
162.5095	0.149	325019	keystroke_m	m	n/a
162.6755	0.104	325351	keystroke_e	e	n/a
162.8235	0.121	325647	keystroke_Key.space	Key.space	n/a
163.184	0.0905	326368	keystroke_t	t	n/a
163.41	0.104	326820	keystroke_r	r	n/a
163.4995	0.105	326999	keystroke_a	a	n/a
164.909	0.0905	329818	keystroke_b	b	n/a
165.3745	0.06	330749	keystroke_Key.backspace	Key.backspace	n/a
165.5995	0.0905	331199	keystroke_n	n	n/a
165.8095	0.075	331619	keystroke_s	s	n/a
165.8995	0.104	331799	keystroke_l	l	n/a
166.0195	0.119	332039	keystroke_a	a	n/a
166.1235	0.106	332247	keystroke_t	t	n/a
166.2445	0.105	332489	keystroke_i	i	n/a
166.3335	0.1365	332667	keystroke_o	o	n/a
166.439	0.105	332878	keystroke_n	n	n/a
166.8445	0.075	333689	keystroke_s	s	n/a
167.009	0.105	334018	keystroke_Key.enter	Key.enter	n/a
167.1205	8.7405	334241	prompt	n/a	change maximize advances tulsa\n
168.0445	0.1195	336089	keystroke_c	c	n/a
168.149	0.0905	336298	keystroke_h	h	n/a
168.254	0.09	336508	keystroke_a	a	n/a
168.374	0.0905	336748	keystroke_n	n	n/a
168.465	0.089	336930	keystroke_g	g	n/a
168.6145	0.0895	337229	keystroke_e	e	n/a
168.749	0.1045	337498	keystroke_Key.space	Key.space	n/a
168.8845	0.105	337769	keystroke_m	m	n/a
169.0345	0.105	338069	keystroke_a	a	n/a
170.0245	0.059	340049	keystroke_x	x	n/a
170.49	0.1045	340980	keystroke_i	i	n/a
170.6695	0.15	341339	keystroke_m	m	n/a
170.8045	0.09	341609	keystroke_i	i	n/a
171.6295	0.075	343259	keystroke_z	z	n/a
171.8545	0.075	343709	keystroke_e	e	n/a
171.974	0.1205	343948	keystroke_Key.space	Key.space	n/a
172.1095	0.075	344219	keystroke_a	a	n/a
172.32	0.0895	344640	keystroke_d	d	n/a
173.0995	0.09	346199	keystroke_v	v	n/a
173.6695	0.075	347339	keystroke_a	a	n/a
173.8495	0.0745	347699	keystroke_n	n	n/a
173.9695	0.1045	347939	keystroke_c	c	n/a
174.089	0.09	348178	keystroke_e	e	n/a
174.254	0.12	348508	keystroke_s	s	n/a
174.389	0.12	348778	keystroke_Key.space	Key.space	n/a
174.674	0.09	349348	keystroke_t	t	n/a
174.824	0.075	349648	keystroke_u	u	n/a
175.0195	0.0745	350039	keystroke_l	l	n/a
175.379	0.135	350758	keystroke_s	s	n/a
175.529	0.12	351058	keystroke_a	a	n/a
175.814	0.045	351628	keystroke_Key.enter	Key.enter	n/a
175.865	13.2105	351730	prompt	n/a	downloading subsequently challenge upcoming\n
177.1945	0.09	354389	keystroke_d	d	n/a
177.3745	0.105	354749	keystroke_o	o	n/a
177.5395	0.12	355079	keystroke_w	w	n/a
177.7195	0.089	355439	keystroke_n	n	n/a
178.0045	0.06	356009	keystroke_l	l	n/a
178.1695	0.075	356339	keystroke_o	o	n/a
178.2745	0.045	356549	keystroke_a	a	n/a
178.5295	0.1045	357059	keystroke_d	d	n/a
178.6195	0.1195	357239	keystroke_i	i	n/a
178.709	0.105	357418	keystroke_n	n	n/a
178.8595	0.1195	357719	keystroke_g	g	n/a
179.0095	0.149	358019	keystroke_Key.space	Key.space	n/a
179.7285	0.09	359457	keystroke_s	s	n/a
180.6445	0.06	361289	keystroke_u	u	n/a
180.8845	0.074	361769	keystroke_b	b	n/a
181.0785	0.075	362157	keystroke_s	s	n/a
181.1995	0.0895	362399	keystroke_e	e	n/a
181.769	0.105	363538	keystroke_q	q	n/a
181.9645	0.0745	363929	keystroke_u	u	n/a
182.354	0.09	364708	keystroke_e	e	n/a
182.5345	0.104	365069	keystroke_b	b	n/a
183.494	0.075	366988	keystroke_Key.backspace	Key.backspace	n/a
183.779	0.045	367558	keystroke_n	n	n/a
184.049	0.135	368098	keystroke_t	t	n/a
184.5885	0.105	369177	keystroke_l	l	n/a
184.7695	0.1045	369539	keystroke_y	y	n/a
185.5645	0.135	371129	keystroke_Key.space	Key.space	n/a
185.8045	0.12	371609	keystroke_c	c	n/a
185.9395	0.105	371879	keystroke_h	h	n/a
186.1495	0.09	372299	keystroke_a	a	n/a
186.3295	0.045	372659	keystroke_l	l	n/a
186.4945	0.09	372989	keystroke_l	l	n/a
186.6445	0.105	373289	keystroke_e	e	n/a
186.7645	0.09	373529	keystroke_n	n	n/a
186.8695	0.06	373739	keystroke_g	g	n/a
187.0495	0.09	374099	keystroke_e	e	n/a
187.154	0.135	374308	keystroke_Key.space	Key.space	n/a
187.424	0.105	374848	keystroke_u	u	n/a
187.5895	0.0895	375179	keystroke_p	p	n/a
187.724	0.105	375448	keystroke_c	c	n/a
187.844	0.1655	375688	keystroke_o	o	n/a
187.994	0.105	375988	keystroke_m	m	n/a
188.144	0.12	376288	keystroke_i	i	n/a
188.234	0.135	376468	keystroke_n	n	n/a
188.6095	0.0895	377219	keystroke_g	g	n/a
188.9845	0.0895	377969	keystroke_Key.enter	Key.enter	n/a
189.079	7.6015	378158	prompt	n/a	review julia titans realized\n
190.424	0.15	380848	keystroke_r	r	n/a
190.559	0.09	381118	keystroke_e	e	n/a
190.799	0.0905	381598	keystroke_v	v	n/a
190.919	0.105	381838	keystroke_i	i	n/a
191.009	0.1505	382018	keystroke_e	e	n/a
191.144	0.105	382288	keystroke_w	w	n/a
191.459	0.12	382918	keystroke_Key.space	Key.space	n/a
192.1045	0.089	384209	keystroke_j	j	n/a
192.3145	0.075	384629	keystroke_u	u	n/a
192.5535	0.136	385107	keystroke_l	l	n/a
192.7035	0.061	385407	keystroke_i	i	n/a
192.8095	0.0895	385619	keystroke_a	a	n/a
193.0335	0.12	386067	keystroke_Key.space	Key.space	n/a
193.6195	0.045	387239	keystroke_t	t	n/a
193.7695	0.075	387539	keystroke_i	i	n/a
193.8885	0.09	387777	keystroke_t	t	n/a
194.0235	0.0755	388047	keystroke_a	a	n/a
194.2035	0.076	388407	keystroke_n	n	n/a
194.3395	0.09	388679	keystroke_s	s	n/a
194.4735	0.135	388947	keystroke_Key.space	Key.space	n/a
194.7595	0.105	389519	keystroke_r	r	n/a
194.8495	0.12	389699	keystroke_e	e	n/a
194.97	0.0895	389940	keystroke_a	a	n/a
195.1345	0.135	390269	keystroke_l	l	n/a
195.254	0.075	390508	keystroke_i	i	n/a
195.434	0.12	390868	keystroke_z	z	n/a
195.599	0.075	391198	keystroke_e	e	n/a
195.824	0.075	391648	keystroke_d	d	n/a
196.5885	0.09	393177	keystroke_Key.enter	Key.enter	n/a
196.6845	8.9965	393369	prompt	n/a	journal marriott modification underlying\n
198.194	0.0755	396388	keystroke_j	j	n/a
198.3445	0.15	396689	keystroke_o	o	n/a
198.4795	0.09	396959	keystroke_u	u	n/a
198.6445	0.09	397289	keystroke_r	r	n/a
198.7945	0.075	397589	keystroke_n	n	n/a
198.8845	0.06	397769	keystroke_a	a	n/a
199.0485	0.151	398097	keystroke_l	l	n/a
199.1695	0.135	398339	keystroke_Key.space	Key.space	n/a
199.6635	0.106	399327	keystroke_m	m	n/a
199.7845	0.105	399569	keystroke_a	a	n/a
199.9495	0.075	399899	keystroke_r	r	n/a
200.0995	0.06	400199	keystroke_r	r	n/a
200.2045	0.09	400409	keystroke_i	i	n/a
200.3095	0.105	400619	keystroke_o	o	n/a
200.5495	0.03	401099	keystroke_t	t	n/a
200.6545	0.075	401309	keystroke_t	t	n/a
200.7895	0.105	401579	keystroke_Key.space	Key.space	n/a
200.984	0.1055	401968	keystroke_m	m	n/a
201.1345	0.105	402269	keystroke_o	o	n/a
201.2835	0.076	402567	keystroke_d	d	n/a
201.3745	0.12	402749	keystroke_i	i	n/a
202.0035	0.075	404007	keystroke_f	f	n/a
202.1095	0.074	404219	keystroke_i	i	n/a
202.2285	0.105	404457	keystroke_c	c	n/a
202.3485	0.136	404697	keystroke_a	a	n/a
202.4695	0.09	404939	keystroke_t	t	n/a
202.5445	0.105	405089	keystroke_i	i	n/a
202.6345	0.149	405269	keystroke_o	o	n/a
202.7535	0.105	405507	keystroke_n	n	n/a
203.3835	0.015	406767	keystroke_Key.space	Key.space	n/a
203.4595	0.119	406919	keystroke_u	u	n/a
203.6995	0.104	407399	keystroke_n	n	n/a
203.8185	0.076	407637	keystroke_d	d	n/a
203.9695	0.1645	407939	keystroke_e	e	n/a
204.089	0.09	408178	keystroke_r	r	n/a
204.7195	0.0445	409439	keystroke_l	l	n/a
204.9445	0.0745	409889	keystroke_y	y	n/a
205.1245	0.15	410249	keystroke_i	i	n/a
205.2445	0.135	410489	keystroke_n	n	n/a
205.3945	0.075	410789	keystroke_g	g	n/a
205.5895	0.09	411179	keystroke_Key.enter	Key.enter	n/a
205.687	9.1435	411374	prompt	n/a	save examination skiing valley\n
206.4445	0.135	412889	keystroke_s	s	n/a
206.7745	0.105	413549	keystroke_v	v	n/a
207.224	0.1045	414448	keystroke_Key.backspace	Key.backspace	n/a
207.269	0.1205	414538	keystroke_a	a	n/a
207.3735	0.135	414747	keystroke_v	v	n/a
207.4935	0.09	414987	keystroke_e	e	n/a
207.6285	0.15	415257	keystroke_Key.space	Key.space	n/a
207.9145	0.104	415829	keystroke_e	e	n/a
208.6945	0.06	417389	keystroke_x	x	n/a
208.8885	0.075	417777	keystroke_a	a	n/a
209.0245	0.075	418049	keystroke_m	m	n/a
209.1745	0.135	418349	keystroke_i	i	n/a
209.2945	0.09	418589	keystroke_n	n	n/a
209.4145	0.105	418829	keystroke_a	a	n/a
209.5045	0.105	419009	keystroke_t	t	n/a
209.6245	0.105	419249	keystroke_i	i	n/a
209.7145	0.165	419429	keystroke_o	o	n/a
209.8945	0.134	419789	keystroke_n	n	n/a
210.0895	0.119	420179	keystroke_Key.space	Key.space	n/a
210.4635	0.076	420927	keystroke_s	s	n/a
210.6445	0.06	421289	keystroke_k	k	n/a
210.8395	0.044	421679	keystroke_i	i	n/a
210.9745	0.135	421949	keystroke_i	i	n/a
211.0795	0.104	422159	keystroke_n	n	n/a
211.1985	0.091	422397	keystroke_g	g	n/a
211.3195	0.12	422639	keystroke_Key.space	Key.space	n/a
211.5295	0.09	423059	keystroke_v	v	n/a
211.7095	0.075	423419	keystroke_e	e	n/a
211.8745	0.06	423749	keystroke_l	l	n/a
212.4285	0.045	424857	keystroke_Key.backspace	Key.backspace	n/a
212.5645	0.059	425129	keystroke_Key.backspace	Key.backspace	n/a
212.6545	0.09	425309	keystroke_a	a	n/a
212.8485	0.06	425697	keystroke_l	l	n/a
213.0885	0.0755	426177	keystroke_e	e	n/a
213.5385	0.076	427077	keystroke_Key.backspace	Key.backspace	n/a
213.8085	0.091	427617	keystroke_l	l	n/a
213.9295	0.075	427859	keystroke_e	e	n/a
214.0795	0.075	428159	keystroke_y	y	n/a
214.7535	0.075	429507	keystroke_Key.enter	Key.enter	n/a
214.8345	12.0255	429669	prompt	n/a	enable roommates jonathan partition\n
216.0445	0.075	432089	keystroke_e	e	n/a
216.2095	0.0745	432419	keystroke_n	n	n/a
216.329	0.09	432658	keystroke_a	a	n/a
216.479	0.06	432958	keystroke_b	b	n/a
216.6595	0.075	433319	keystroke_l	l	n/a
216.7785	0.1055	433557	keystroke_e	e	n/a
216.899	0.12	433798	keystroke_Key.space	Key.space	n/a
217.5145	0.105	435029	keystroke_r	r	n/a
217.724	0.075	435448	keystroke_o	o	n/a
217.9345	0.0895	435869	keystroke_o	o	n/a
218.174	0.12	436348	keystroke_m	m	n/a
218.489	0.075	436978	keystroke_m	m	n/a
218.609	0.1055	437218	keystroke_a	a	n/a
218.9085	0.09	437817	keystroke_e	e	n/a
219.0885	0.1205	438177	keystroke_s	s	n/a
219.2235	0.121	438447	keystroke_Key.space	Key.space	n/a
219.4485	0.136	438897	keystroke_j	j	n/a
219.5985	0.1355	439197	keystroke_o	o	n/a
220.2135	0.06	440427	keystroke_Key.backspace	Key.backspace	n/a
220.364	0.075	440728	keystroke_Key.backspace	Key.backspace	n/a
220.5135	0.046	441027	keystroke_Key.backspace	Key.backspace	n/a
220.6645	0.059	441329	keystroke_Key.backspace	Key.backspace	n/a
221.0395	0.089	442079	keystroke_Key.backspace	Key.backspace	n/a
221.1445	0.135	442289	keystroke_t	t	n/a
221.2795	0.06	442559	keystroke_e	e	n/a
221.4895	0.075	442979	keystroke_s	s	n/a
221.6535	0.12	443307	keystroke_Key.space	Key.space	n/a
221.9385	0.09	443877	keystroke_j	j	n/a
223.5895	0.1045	447179	keystroke_o	o	n/a
224.159	0.09	448318	keystroke_n	n	n/a
224.5795	0.09	449159	keystroke_a	a	n/a
224.7895	0.0895	449579	keystroke_t	t	n/a
224.894	0.0905	449788	keystroke_h	h	n/a
225.044	0.0605	450088	keystroke_a	a	n/a
225.149	0.1495	450298	keystroke_n	n	n/a
225.284	0.1495	450568	keystroke_Key.space	Key.space	n/a
225.4495	0.104	450899	keystroke_p	p	n/a
225.6595	0.089	451319	keystroke_a	a	n/a
225.8235	0.075	451647	keystroke_r	r	n/a
226.0035	0.075	452007	keystroke_t	t	n/a
226.0935	0.0755	452187	keystroke_i	i	n/a
226.2145	0.089	452429	keystroke_t	t	n/a
226.3185	0.136	452637	keystroke_i	i	n/a
226.4395	0.12	452879	keystroke_o	o	n/a
226.5295	0.105	453059	keystroke_n	n	n/a
226.8145	0.045	453629	keystroke_Key.enter	Key.enter	n/a
226.864	8.7265	453728	prompt	n/a	structure locking tracking regression\n
227.8485	0.091	455697	keystroke_s	s	n/a
228.044	0.0595	456088	keystroke_t	t	n/a
228.224	0.0905	456448	keystroke_r	r	n/a
228.3895	0.1045	456779	keystroke_u	u	n/a
228.5095	0.1045	457019	keystroke_c	c	n/a
228.734	0.1055	457468	keystroke_t	t	n/a
228.914	0.075	457828	keystroke_u	u	n/a
229.0195	0.15	458039	keystroke_r	r	n/a
229.184	0.075	458368	keystroke_e	e	n/a
229.649	0.12	459298	keystroke_Key.space	Key.space	n/a
229.754	0.09	459508	keystroke_l	l	n/a
229.964	0.06	459928	keystroke_o	o	n/a
230.114	0.12	460228	keystroke_o	o	n/a
230.219	0.075	460438	keystroke_k	k	n/a
230.399	0.1345	460798	keystroke_i	i	n/a
230.4895	0.134	460979	keystroke_n	n	n/a
230.594	0.1045	461188	keystroke_g	g	n/a
230.7135	0.1205	461427	keystroke_Key.space	Key.space	n/a
230.8195	0.1645	461639	keystroke_r	r	n/a
230.999	0.075	461998	keystroke_a	a	n/a
231.1945	0.104	462389	keystroke_c	c	n/a
231.4045	0.059	462809	keystroke_k	k	n/a
231.8085	0.0605	463617	keystroke_Key.backspace	Key.backspace	n/a
231.959	0.06	463918	keystroke_Key.backspace	Key.backspace	n/a
232.1085	0.045	464217	keystroke_Key.backspace	Key.backspace	n/a
232.2585	0.0605	464517	keystroke_Key.backspace	Key.backspace	n/a
232.2735	0.075	464547	keystroke_t	t	n/a
232.4535	0.12	464907	keystroke_r	r	n/a
232.559	0.1045	465118	keystroke_a	a	n/a
232.7395	0.089	465479	keystroke_c	c	n/a
232.8585	0.06	465717	keystroke_k	k	n/a
233.0685	0.1655	466137	keystroke_i	i	n/a
233.189	0.0895	466378	keystroke_n	n	n/a
233.309	0.0895	466618	keystroke_g	g	n/a
233.459	0.15	466918	keystroke_Key.space	Key.space	n/a
233.894	0.15	467788	keystroke_r	r	n/a
234.029	0.075	468058	keystroke_e	e	n/a
234.209	0.06	468418	keystroke_g	g	n/a
234.4195	0.119	468839	keystroke_r	r	n/a
234.5535	0.166	469107	keystroke_e	e	n/a
234.809	0.0755	469618	keystroke_s	s	n/a
234.9745	0.074	469949	keystroke_s	s	n/a
235.0645	0.135	470129	keystroke_i	i	n/a
235.184	0.1195	470368	keystroke_o	o	n/a
235.2735	0.091	470547	keystroke_n	n	n/a
235.514	0.074	471028	keystroke_Key.enter	Key.enter	n/a
235.594	11.127	471188	prompt	n/a	considerable employer discounted visual\n
236.444	0.075	472888	keystroke_c	c	n/a
236.5485	0.1355	473097	keystroke_o	o	n/a
236.6395	0.105	473279	keystroke_n	n	n/a
236.7735	0.075	473547	keystroke_s	s	n/a
236.8635	0.0905	473727	keystroke_i	i	n/a
236.999	0.0605	473998	keystroke_d	d	n/a
237.164	0.1345	474328	keystroke_e	e	n/a
237.254	0.0895	474508	keystroke_r	r	n/a
237.404	0.1045	474808	keystroke_a	a	n/a
237.5095	0.075	475019	keystroke_b	b	n/a
237.6735	0.091	475347	keystroke_l	l	n/a
237.794	0.0905	475588	keystroke_e	e	n/a
237.8845	0.149	475769	keystroke_Key.space	Key.space	n/a
238.919	0.0755	477838	keystroke_e	e	n/a
239.1285	0.09	478257	keystroke_m	m	n/a
239.3385	0.06	478677	keystroke_p	p	n/a
239.519	0.0895	479038	keystroke_l	l	n/a
239.729	0.06	479458	keystroke_o	o	n/a
240.014	0.0745	480028	keystroke_y	y	n/a
240.239	0.1945	480478	keystroke_e	e	n/a
240.419	0.1045	480838	keystroke_r	r	n/a
240.614	0.105	481228	keystroke_Key.space	Key.space	n/a
241.2135	0.076	482427	keystroke_d	d	n/a
241.379	0.06	482758	keystroke_i	i	n/a
241.874	0.0605	483748	keystroke_s	s	n/a
242.069	0.06	484138	keystroke_c	c	n/a
242.144	0.135	484288	keystroke_o	o	n/a
242.264	0.09	484528	keystroke_u	u	n/a
242.489	0.0905	484978	keystroke_n	n	n/a
242.909	0.03	485818	keystroke_d	d	n/a
243.8235	0.075	487647	keystroke_Key.backspace	Key.backspace	n/a
243.9585	0.09	487917	keystroke_t	t	n/a
244.1235	0.075	488247	keystroke_e	e	n/a
244.3035	0.091	488607	keystroke_d	d	n/a
244.4535	0.105	488907	keystroke_Key.space	Key.space	n/a
245.729	0.09	491458	keystroke_v	v	n/a
245.924	0.075	491848	keystroke_i	i	n/a
246.074	0.09	492148	keystroke_s	s	n/a
246.194	0.0905	492388	keystroke_u	u	n/a
246.314	0.09	492628	keystroke_a	a	n/a
246.449	0.06	492898	keystroke_l	l	n/a
246.674	0.045	493348	keystroke_Key.enter	Key.enter	n/a
246.726	8.2145	493452	prompt	n/a	joining powerseller mambo helpful\n
247.859	0.0895	495718	keystroke_j	j	n/a
248.0095	0.104	496019	keystroke_o	o	n/a
248.159	0.0895	496318	keystroke_i	i	n/a
248.3545	0.074	496709	keystroke_n	n	n/a
248.489	0.1655	496978	keystroke_i	i	n/a
248.609	0.135	497218	keystroke_n	n	n/a
248.7735	0.091	497547	keystroke_g	g	n/a
248.894	0.15	497788	keystroke_Key.space	Key.space	n/a
249.389	0.075	498778	keystroke_p	p	n/a
249.8985	0.0605	499797	keystroke_o	o	n/a
250.0045	0.134	500009	keystroke_w	w	n/a
250.0635	0.165	500127	keystroke_e	e	n/a
250.1835	0.09	500367	keystroke_r	r	n/a
250.4235	0.15	500847	keystroke_s	s	n/a
250.514	0.1345	501028	keystroke_e	e	n/a
250.694	0.0445	501388	keystroke_l	l	n/a
250.844	0.075	501688	keystroke_l	l	n/a
250.934	0.135	501868	keystroke_e	e	n/a
251.0535	0.1055	502107	keystroke_r	r	n/a
251.474	0.135	502948	keystroke_Key.space	Key.space	n/a
252.1635	0.135	504327	keystroke_m	m	n/a
252.3285	0.0905	504657	keystroke_a	a	n/a
252.629	0.0595	505258	keystroke_m	m	n/a
252.8385	0.075	505677	keystroke_b	b	n/a
253.0035	0.105	506007	keystroke_o	o	n/a
253.229	0.0895	506458	keystroke_Key.space	Key.space	n/a
253.379	0.09	506758	keystroke_h	h	n/a
253.4985	0.0605	506997	keystroke_e	e	n/a
253.6185	0.075	507237	keystroke_l	l	n/a
253.7985	0.09	507597	keystroke_p	p	n/a
254.1285	0.075	508257	keystroke_f	f	n/a
254.279	0.1195	508558	keystroke_u	u	n/a
254.4735	0.1205	508947	keystroke_l	l	n/a
254.864	0.0745	509728	keystroke_Key.enter	Key.enter	n/a
254.945	8.7405	509890	prompt	n/a	loop downloaded walter corners\n
256.544	0.075	513088	keystroke_l	l	n/a
256.769	0.045	513538	keystroke_o	o	n/a
256.919	0.045	513838	keystroke_o	o	n/a
257.084	0.1495	514168	keystroke_p	p	n/a
257.2485	0.105	514497	keystroke_Key.space	Key.space	n/a
258.1185	0.0755	516237	keystroke_d	d	n/a
258.5085	0.09	517017	keystroke_o	o	n/a
258.8235	0.075	517647	keystroke_w	w	n/a
259.0335	0.076	518067	keystroke_n	n	n/a
259.244	0.0745	518488	keystroke_l	l	n/a
259.4085	0.076	518817	keystroke_o	o	n/a
259.4985	0.075	518997	keystroke_a	a	n/a
259.6785	0.0905	519357	keystroke_d	d	n/a
259.8595	0.09	519719	keystroke_e	e	n/a
260.069	0.075	520138	keystroke_d	d	n/a
260.1585	0.1055	520317	keystroke_Key.space	Key.space	n/a
260.2935	0.12	520587	keystroke_w	w	n/a
260.4285	0.12	520857	keystroke_a	a	n/a
260.5635	0.075	521127	keystroke_l	l	n/a
260.7735	0.075	521547	keystroke_t	t	n/a
260.969	0.135	521938	keystroke_e	e	n/a
261.0895	0.059	522179	keystroke_r	r	n/a
261.179	0.105	522358	keystroke_Key.space	Key.space	n/a
261.3295	0.0895	522659	keystroke_c	c	n/a
261.4335	0.1205	522867	keystroke_o	o	n/a
261.644	0.0895	523288	keystroke_r	r	n/a
262.5285	0.0755	525057	keystroke_n	n	n/a
262.6485	0.1655	525297	keystroke_e	e	n/a
262.7535	0.12	525507	keystroke_r	r	n/a
262.9635	0.1055	525927	keystroke_s	s	n/a
263.609	0.075	527218	keystroke_Key.enter	Key.enter	n/a
263.69	4.8105	527380	prompt	n/a	size seller garcia bolt\n
264.4785	0.105	528957	keystroke_s	s	n/a
264.6885	0.06	529377	keystroke_i	i	n/a
264.989	0.0745	529978	keystroke_z	z	n/a
265.1395	0.089	530279	keystroke_e	e	n/a
265.259	0.1345	530518	keystroke_Key.space	Key.space	n/a
265.409	0.1195	530818	keystroke_s	s	n/a
265.5295	0.089	531059	keystroke_e	e	n/a
265.6485	0.076	531297	keystroke_l	l	n/a
265.7985	0.1055	531597	keystroke_l	l	n/a
265.934	0.135	531868	keystroke_e	e	n/a
266.069	0.075	532138	keystroke_r	r	n/a
266.204	0.105	532408	keystroke_Key.space	Key.space	n/a
266.474	0.075	532948	keystroke_g	g	n/a
266.6545	0.1795	533309	keystroke_a	a	n/a
266.789	0.105	533578	keystroke_r	r	n/a
267.059	0.075	534118	keystroke_c	c	n/a
267.179	0.075	534358	keystroke_i	i	n/a
267.329	0.105	534658	keystroke_a	a	n/a
267.464	0.075	534928	keystroke_Key.space	Key.space	n/a
267.6145	0.0745	535229	keystroke_b	b	n/a
267.809	0.075	535618	keystroke_o	o	n/a
268.019	0.075	536038	keystroke_l	l	n/a
268.154	0.09	536308	keystroke_t	t	n/a
268.394	0.105	536788	keystroke_Key.enter	Key.enter	n/a
268.5045	7.046	537009	prompt	n/a	revolution mint recovery venue\n
269.3085	0.1955	538617	keystroke_r	r	n/a
269.4895	0.0895	538979	keystroke_e	e	n/a
269.669	0.1045	539338	keystroke_v	v	n/a
269.8045	0.089	539609	keystroke_o	o	n/a
270.0285	0.076	540057	keystroke_l	l	n/a
270.179	0.09	540358	keystroke_u	u	n/a
270.2845	0.089	540569	keystroke_t	t	n/a
270.4035	0.15	540807	keystroke_i	i	n/a
270.5685	0.105	541137	keystroke_o	o	n/a
270.6285	0.15	541257	keystroke_n	n	n/a
270.764	0.1495	541528	keystroke_Key.space	Key.space	n/a
270.9285	0.09	541857	keystroke_m	m	n/a
271.064	0.1795	542128	keystroke_i	i	n/a
271.214	0.105	542428	keystroke_n	n	n/a
271.3485	0.105	542697	keystroke_t	t	n/a
271.6185	0.136	543237	keystroke_Key.space	Key.space	n/a
272.3685	0.135	544737	keystroke_r	r	n/a
272.4735	0.0905	544947	keystroke_e	e	n/a
272.684	0.09	545368	keystroke_c	c	n/a
272.789	0.09	545578	keystroke_o	o	n/a
272.894	0.0745	545788	keystroke_v	v	n/a
273.0885	0.1205	546177	keystroke_e	e	n/a
273.194	0.09	546388	keystroke_r	r	n/a
273.314	0.15	546628	keystroke_y	y	n/a
273.449	0.09	546898	keystroke_Key.space	Key.space	n/a
274.214	0.06	548428	keystroke_v	v	n/a
274.364	0.06	548728	keystroke_e	e	n/a
274.484	0.09	548968	keystroke_n	n	n/a
275.024	0.12	550048	keystroke_u	u	n/a
275.189	0.0905	550378	keystroke_e	e	n/a
275.4735	0.075	550947	keystroke_Key.enter	Key.enter	n/a
275.5545	10.136	551109	prompt	n/a	tomatoes valued shorts median\n
276.494	0.0745	552988	keystroke_t	t	n/a
276.704	0.0895	553408	keystroke_o	o	n/a
276.8835	0.09	553767	keystroke_m	m	n/a
277.0185	0.15	554037	keystroke_a	a	n/a
277.1685	0.06	554337	keystroke_t	t	n/a
277.2735	0.12	554547	keystroke_o	o	n/a
277.3785	0.105	554757	keystroke_e	e	n/a
277.4985	0.12	554997	keystroke_s	s	n/a
277.6485	0.105	555297	keystroke_Key.space	Key.space	n/a
277.9035	0.0905	555807	keystroke_c	c	n/a
278.0395	0.075	556079	keystroke_a	a	n/a
278.1445	0.1045	556289	keystroke_l	l	n/a
278.294	0.0745	556588	keystroke_u	u	n/a
278.399	0.105	556798	keystroke_e	e	n/a
278.624	0.075	557248	keystroke_d	d	n/a
279.058	0.06	558116	keystroke_Key.backspace	Key.backspace	n/a
279.223	0.03	558446	keystroke_Key.backspace	Key.backspace	n/a
279.358	0.06	558716	keystroke_Key.backspace	Key.backspace	n/a
279.523	0.03	559046	keystroke_Key.backspace	Key.backspace	n/a
279.673	0.046	559346	keystroke_Key.backspace	Key.backspace	n/a
279.973	0.06	559946	keystroke_Key.backspace	Key.backspace	n/a
280.6795	0.0745	561359	keystroke_v	v	n/a
280.859	0.045	561718	keystroke_a	a	n/a
281.0535	0.106	562107	keystroke_l	l	n/a
281.2345	0.089	562469	keystroke_u	u	n/a
281.3695	0.09	562739	keystroke_e	e	n/a
281.5635	0.075	563127	keystroke_d	d	n/a
281.984	0.1195	563968	keystroke_Key.space	Key.space	n/a
282.434	0.075	564868	keystroke_s	s	n/a
282.569	0.105	565138	keystroke_h	h	n/a
282.689	0.105	565378	keystroke_o	o	n/a
282.8095	0.0745	565619	keystroke_r	r	n/a
283.559	0.105	567118	keystroke_t	t	n/a
283.694	0.1045	567388	keystroke_s	s	n/a
283.934	0.1195	567868	keystroke_Key.space	Key.space	n/a
284.264	0.09	568528	keystroke_m	m	n/a
284.415	0.089	568830	keystroke_e	e	n/a
284.744	0.06	569488	keystroke_d	d	n/a
284.8485	0.0755	569697	keystroke_i	i	n/a
284.984	0.0755	569968	keystroke_a	a	n/a
285.3585	0.0755	570717	keystroke_n	n	n/a
285.5985	0.09	571197	keystroke_Key.enter	Key.enter	n/a
285.694	6.956	571388	prompt	n/a	minimize burn atomic innovative\n
286.4235	0.075	572847	keystroke_m	m	n/a
286.5885	0.076	573177	keystroke_i	i	n/a
286.7535	0.076	573507	keystroke_n	n	n/a
286.8585	0.12	573717	keystroke_i	i	n/a
287.1285	0.075	574257	keystroke_m	m	n/a
287.2485	0.091	574497	keystroke_i	i	n/a
288.0895	0.0895	576179	keystroke_z	z	n/a
288.359	0.0595	576718	keystroke_e	e	n/a
288.479	0.1355	576958	keystroke_Key.space	Key.space	n/a
288.8685	0.0605	577737	keystroke_b	b	n/a
289.1385	0.06	578277	keystroke_u	u	n/a
289.6185	0.075	579237	keystroke_r	r	n/a
289.7535	0.12	579507	keystroke_n	n	n/a
289.859	0.1195	579718	keystroke_Key.space	Key.space	n/a
290.0235	0.09	580047	keystroke_a	a	n/a
290.234	0.0595	580468	keystroke_t	t	n/a
290.3395	0.1345	580679	keystroke_o	o	n/a
290.489	0.15	580978	keystroke_m	m	n/a
290.654	0.075	581308	keystroke_i	i	n/a
290.819	0.0745	581638	keystroke_c	c	n/a
290.939	0.09	581878	keystroke_Key.space	Key.space	n/a
291.1185	0.0905	582237	keystroke_i	i	n/a
291.283	0.076	582566	keystroke_n	n	n/a
291.449	0.074	582898	keystroke_n	n	n/a
291.554	0.09	583108	keystroke_o	o	n/a
291.673	0.06	583346	keystroke_v	v	n/a
291.794	0.12	583588	keystroke_a	a	n/a
292.0185	0.075	584037	keystroke_t	t	n/a
292.109	0.1055	584218	keystroke_i	i	n/a
292.2885	0.12	584577	keystroke_v	v	n/a
292.4395	0.075	584879	keystroke_e	e	n/a
292.5735	0.075	585147	keystroke_Key.enter	Key.enter	n/a
292.6535	10.5415	585307	prompt	n/a	courage install explains disclaimer\n
293.579	0.09	587158	keystroke_c	c	n/a
293.9535	0.1805	587907	keystroke_o	o	n/a
294.1485	0.091	588297	keystroke_u	u	n/a
294.2685	0.136	588537	keystroke_r	r	n/a
294.4335	0.06	588867	keystroke_a	a	n/a
294.659	0.03	589318	keystroke_g	g	n/a
295.6785	0.0755	591357	keystroke_e	e	n/a
295.8435	0.09	591687	keystroke_Key.space	Key.space	n/a
297.089	0.09	594178	keystroke_i	i	n/a
297.239	0.105	594478	keystroke_n	n	n/a
297.359	0.135	594718	keystroke_s	s	n/a
297.5095	0.0595	595019	keystroke_t	t	n/a
297.599	0.075	595198	keystroke_a	a	n/a
297.719	0.0455	595438	keystroke_l	l	n/a
297.869	0.1205	595738	keystroke_l	l	n/a
297.974	0.12	595948	keystroke_Key.space	Key.space	n/a
298.559	0.0745	597118	keystroke_e	e	n/a
298.8735	0.06	597747	keystroke_x	x	n/a
299.098	0.06	598196	keystroke_p	p	n/a
299.323	0.061	598646	keystroke_l	l	n/a
299.473	0.075	598946	keystroke_a	a	n/a
299.6085	0.181	599217	keystroke_i	i	n/a
299.7585	0.106	599517	keystroke_n	n	n/a
300.073	0.075	600146	keystroke_s	s	n/a
300.223	0.15	600446	keystroke_Key.space	Key.space	n/a
300.5835	0.0755	601167	keystroke_d	d	n/a
300.719	0.0745	601438	keystroke_i	i	n/a
300.808	0.075	601616	keystroke_s	s	n/a
301.048	0.091	602096	keystroke_c	c	n/a
301.8895	0.074	603779	keystroke_l	l	n/a
302.039	0.0595	604078	keystroke_a	a	n/a
302.5935	0.091	605187	keystroke_i	i	n/a
302.7735	0.0905	605547	keystroke_m	m	n/a
302.909	0.1345	605818	keystroke_e	e	n/a
302.9985	0.0905	605997	keystroke_r	r	n/a
303.149	0.0445	606298	keystroke_Key.enter	Key.enter	n/a
303.2	10.9	606400	prompt	n/a	absent holly implemented occasions\n
304.1245	0.0595	608249	keystroke_a	a	n/a
304.9635	0.06	609927	keystroke_b	b	n/a
305.2485	0.06	610497	keystroke_s	s	n/a
305.3685	0.1055	610737	keystroke_e	e	n/a
305.549	0.0905	611098	keystroke_n	n	n/a
305.744	0.09	611488	keystroke_t	t	n/a
305.954	0.15	611908	keystroke_Key.space	Key.space	n/a
306.4935	0.075	612987	keystroke_h	h	n/a
306.614	0.1045	613228	keystroke_o	o	n/a
306.899	0.044	613798	keystroke_l	l	n/a
307.0485	0.075	614097	keystroke_l	l	n/a
307.1395	0.074	614279	keystroke_t	t	n/a
307.739	0.0745	615478	keystroke_Key.backspace	Key.backspace	n/a
307.8285	0.12	615657	keystroke_y	y	n/a
308.3985	0.12	616797	keystroke_Key.space	Key.space	n/a
308.8035	0.075	617607	keystroke_i	i	n/a
309.014	0.1195	618028	keystroke_m	m	n/a
309.179	0.09	618358	keystroke_p	p	n/a
309.944	0.12	619888	keystroke_l	l	n/a
310.124	0.075	620248	keystroke_e	e	n/a
310.634	0.0755	621268	keystroke_m	m	n/a
310.8285	0.09	621657	keystroke_e	e	n/a
310.9335	0.12	621867	keystroke_n	n	n/a
311.114	0.0595	622228	keystroke_t	t	n/a
311.2935	0.0455	622587	keystroke_e	e	n/a
311.4735	0.09	622947	keystroke_d	d	n/a
311.639	0.1045	623278	keystroke_Key.space	Key.space	n/a
312.419	0.09	624838	keystroke_o	o	n/a
312.553	0.106	625106	keystroke_c	c	n/a
312.809	0.12	625618	keystroke_c	c	n/a
312.989	0.0895	625978	keystroke_a	a	n/a
313.244	0.0905	626488	keystroke_s	s	n/a
313.4245	0.1495	626849	keystroke_i	i	n/a
313.559	0.165	627118	keystroke_o	o	n/a
313.679	0.12	627358	keystroke_n	n	n/a
313.859	0.075	627718	keystroke_s	s	n/a
314.054	0.045	628108	keystroke_Key.enter	Key.enter	n/a
314.1035	9.237	628207	prompt	n/a	counseling november framing resolve\n
315.779	0.0895	631558	keystroke_c	c	n/a
315.9435	0.1655	631887	keystroke_o	o	n/a
316.079	0.135	632158	keystroke_u	u	n/a
316.649	0.0745	633298	keystroke_n	n	n/a
316.7835	0.105	633567	keystroke_s	s	n/a
316.9035	0.075	633807	keystroke_e	e	n/a
317.0685	0.1355	634137	keystroke_l	l	n/a
317.1895	0.15	634379	keystroke_i	i	n/a
317.3095	0.1045	634619	keystroke_n	n	n/a
317.4285	0.09	634857	keystroke_g	g	n/a
317.5335	0.1205	635067	keystroke_Key.space	Key.space	n/a
317.9235	0.0905	635847	keystroke_n	n	n/a
318.029	0.1045	636058	keystroke_o	o	n/a
318.1485	0.1055	636297	keystroke_v	v	n/a
318.3735	0.106	636747	keystroke_e	e	n/a
318.5835	0.06	637167	keystroke_m	m	n/a
318.7785	0.0755	637557	keystroke_b	b	n/a
318.8985	0.1505	637797	keystroke_e	e	n/a
319.094	0.015	638188	keystroke_r	r	n/a
319.184	0.1345	638368	keystroke_Key.space	Key.space	n/a
319.469	0.06	638938	keystroke_f	f	n/a
319.679	0.12	639358	keystroke_r	r	n/a
319.814	0.09	639628	keystroke_a	a	n/a
320.114	0.09	640228	keystroke_m	m	n/a
320.249	0.15	640498	keystroke_i	i	n/a
320.369	0.0905	640738	keystroke_n	n	n/a
320.534	0.12	641068	keystroke_g	g	n/a
320.789	0.15	641578	keystroke_Key.space	Key.space	n/a
321.194	0.15	642388	keystroke_r	r	n/a
321.314	0.105	642628	keystroke_e	e	n/a
322.199	0.09	644398	keystroke_s	s	n/a
322.3485	0.1055	644697	keystroke_o	o	n/a
322.589	0.0905	645178	keystroke_l	l	n/a
322.9485	0.076	645897	keystroke_v	v	n/a
323.0395	0.104	646079	keystroke_e	e	n/a
323.2485	0.09	646497	keystroke_Key.enter	Key.enter	n/a
323.345	8.6805	646690	prompt	n/a	taylor blocked reporter fifth\n
324.1335	0.09	648267	keystroke_t	t	n/a
324.2535	0.0755	648507	keystroke_a	a	n/a
324.4935	0.075	648987	keystroke_y	y	n/a
324.8845	0.0745	649769	keystroke_o	o	n/a
325.364	0.0745	650728	keystroke_Key.backspace	Key.backspace	n/a
325.649	0.0745	651298	keystroke_l	l	n/a
325.8435	0.0605	651687	keystroke_o	o	n/a
325.9485	0.075	651897	keystroke_r	r	n/a
326.114	0.075	652228	keystroke_Key.space	Key.space	n/a
326.3835	0.06	652767	keystroke_b	b	n/a
326.5785	0.0755	653157	keystroke_l	l	n/a
326.7435	0.09	653487	keystroke_o	o	n/a
326.864	0.075	653728	keystroke_c	c	n/a
326.9535	0.0755	653907	keystroke_k	k	n/a
327.0435	0.075	654087	keystroke_e	e	n/a
327.2385	0.06	654477	keystroke_d	d	n/a
327.3585	0.1055	654717	keystroke_Key.space	Key.space	n/a
328.8735	0.09	657747	keystroke_r	r	n/a
329.0085	0.075	658017	keystroke_e	e	n/a
329.1585	0.075	658317	keystroke_p	p	n/a
329.3685	0.06	658737	keystroke_o	o	n/a
329.4435	0.09	658887	keystroke_r	r	n/a
329.6235	0.075	659247	keystroke_t	t	n/a
329.8035	0.1505	659607	keystroke_e	e	n/a
329.9385	0.075	659877	keystroke_r	r	n/a
330.0435	0.105	660087	keystroke_Key.space	Key.space	n/a
330.1785	0.09	660357	keystroke_r	r	n/a
330.6285	0.045	661257	keystroke_Key.backspace	Key.backspace	n/a
330.7935	0.09	661587	keystroke_f	f	n/a
330.9585	0.046	661917	keystroke_i	i	n/a
331.184	0.0895	662368	keystroke_f	f	n/a
331.439	0.075	662878	keystroke_t	t	n/a
331.5285	0.105	663057	keystroke_h	h	n/a
331.9335	0.0905	663867	keystroke_Key.enter	Key.enter	n/a
332.0305	15.3855	664061	prompt	n/a	festival structures pressure accomplished\n
333.509	0.075	667018	keystroke_f	f	n/a
333.644	0.075	667288	keystroke_e	e	n/a
333.854	0.1055	667708	keystroke_s	s	n/a
334.094	0.075	668188	keystroke_t	t	n/a
334.214	0.105	668428	keystroke_i	i	n/a
334.349	0.075	668698	keystroke_v	v	n/a
334.514	0.0895	669028	keystroke_a	a	n/a
334.6345	0.164	669269	keystroke_l	l	n/a
334.7535	0.1505	669507	keystroke_Key.space	Key.space	n/a
334.9185	0.075	669837	keystroke_s	s	n/a
335.084	0.0745	670168	keystroke_t	t	n/a
335.294	0.06	670588	keystroke_r	r	n/a
335.459	0.075	670918	keystroke_u	u	n/a
335.519	0.09	671038	keystroke_c	c	n/a
335.744	0.09	671488	keystroke_t	t	n/a
335.984	0.06	671968	keystroke_u	u	n/a
336.074	0.09	672148	keystroke_r	r	n/a
336.179	0.105	672358	keystroke_e	e	n/a
336.389	0.09	672778	keystroke_s	s	n/a
336.539	0.135	673078	keystroke_Key.space	Key.space	n/a
336.704	0.105	673408	keystroke_p	p	n/a
336.824	0.15	673648	keystroke_r	r	n/a
336.944	0.105	673888	keystroke_e	e	n/a
337.124	0.09	674248	keystroke_s	s	n/a
337.304	0.075	674608	keystroke_s	s	n/a
337.439	0.06	674878	keystroke_u	u	n/a
337.559	0.12	675118	keystroke_e	e	n/a
337.709	0.089	675418	keystroke_Key.space	Key.space	n/a
337.859	0.075	675718	keystroke_a	a	n/a
338.0535	0.0605	676107	keystroke_c	c	n/a
338.189	0.075	676378	keystroke_c	c	n/a
338.2935	0.15	676587	keystroke_o	o	n/a
338.4285	0.1505	676857	keystroke_m	m	n/a
338.654	0.075	677308	keystroke_p	p	n/a
339.1035	0.045	678207	keystroke_Key.backspace	Key.backspace	n/a
339.239	0.0445	678478	keystroke_Key.backspace	Key.backspace	n/a
339.404	0.045	678808	keystroke_Key.backspace	Key.backspace	n/a
339.5535	0.045	679107	keystroke_Key.backspace	Key.backspace	n/a
339.7035	0.045	679407	keystroke_Key.backspace	Key.backspace	n/a
339.8685	0.03	679737	keystroke_Key.backspace	Key.backspace	n/a
340.0185	0.0605	680037	keystroke_Key.backspace	Key.backspace	n/a
340.184	0.0595	680368	keystroke_Key.backspace	Key.backspace	n/a
340.454	0.0145	680908	keystroke_r	r	n/a
340.4695	0.029	680939	keystroke_e	e	n/a
340.7085	0.1055	681417	keystroke_Key.space	Key.space	n/a
341.069	0.075	682138	keystroke_c	c	n/a
341.489	0.09	682978	keystroke_Key.backspace	Key.backspace	n/a
341.579	0.12	683158	keystroke_a	a	n/a
341.714	0.075	683428	keystroke_c	c	n/a
341.864	0.075	683728	keystroke_c	c	n/a
342.044	0.105	684088	keystroke_o	o	n/a
342.209	0.12	684418	keystroke_m	m	n/a
342.373	0.075	684746	keystroke_p	p	n/a
342.584	0.1195	685168	keystroke_l	l	n/a
342.734	0.105	685468	keystroke_i	i	n/a
342.8995	0.0895	685799	keystroke_s	s	n/a
344.069	0.165	688138	keystroke_h	h	n/a
344.294	0.105	688588	keystroke_m	m	n/a
344.459	0.0905	688918	keystroke_e	e	n/a
345.209	0.075	690418	keystroke_Key.backspace	Key.backspace	n/a
345.344	0.06	690688	keystroke_e	e	n/a
346.199	0.06	692398	keystroke_Key.backspace	Key.backspace	n/a
346.349	0.0745	692698	keystroke_Key.backspace	Key.backspace	n/a
346.4685	0.075	692937	keystroke_e	e	n/a
346.649	0.06	693298	keystroke_d	d	n/a
347.3235	0.0905	694647	keystroke_Key.enter	Key.enter	n/a
347.42	9.0405	694840	prompt	n/a	exams prize heart assumptions\n
348.0735	0.0755	696147	keystroke_e	e	n/a
348.914	0.0595	697828	keystroke_x	x	n/a
349.124	0.09	698248	keystroke_a	a	n/a
349.2735	0.0905	698547	keystroke_m	m	n/a
349.7695	0.074	699539	keystroke_s	s	n/a
349.8735	0.135	699747	keystroke_Key.space	Key.space	n/a
350.2485	0.09	700497	keystroke_p	p	n/a
350.3985	0.091	700797	keystroke_r	r	n/a
350.5185	0.09	701037	keystroke_i	i	n/a
351.4785	0.075	702957	keystroke_z	z	n/a
351.6585	0.076	703317	keystroke_e	e	n/a
351.7785	0.105	703557	keystroke_Key.space	Key.space	n/a
351.929	0.105	703858	keystroke_h	h	n/a
352.018	0.1505	704036	keystroke_e	e	n/a
352.1535	0.18	704307	keystroke_a	a	n/a
352.3035	0.0755	704607	keystroke_r	r	n/a
352.514	0.09	705028	keystroke_t	t	n/a
352.648	0.105	705296	keystroke_Key.space	Key.space	n/a
352.8135	0.0755	705627	keystroke_a	a	n/a
353.0835	0.075	706167	keystroke_s	s	n/a
353.248	0.075	706496	keystroke_s	s	n/a
353.414	0.0455	706828	keystroke_u	u	n/a
354.554	0.09	709108	keystroke_m	m	n/a
354.749	0.09	709498	keystroke_p	p	n/a
354.899	0.075	709798	keystroke_t	t	n/a
355.034	0.1655	710068	keystroke_i	i	n/a
355.1995	0.2095	710399	keystroke_o	o	n/a
355.469	0.18	710938	keystroke_n	n	n/a
356.144	0.09	712288	keystroke_s	s	n/a
356.384	0.075	712768	keystroke_Key.enter	Key.enter	n/a
356.465	6.3105	712930	prompt	n/a	peru such adults offered\n
357.2685	0.1055	714537	keystroke_p	p	n/a
357.3885	0.15	714777	keystroke_e	e	n/a
357.509	0.0895	715018	keystroke_r	r	n/a
357.7035	0.09	715407	keystroke_u	u	n/a
357.9135	0.09	715827	keystroke_Key.space	Key.space	n/a
358.0635	0.061	716127	keystroke_s	s	n/a
358.1535	0.09	716307	keystroke_u	u	n/a
358.3035	0.09	716607	keystroke_c	c	n/a
358.5445	0.134	717089	keystroke_j	j	n/a
359.339	0.0745	718678	keystroke_Key.backspace	Key.backspace	n/a
359.489	0.105	718978	keystroke_h	h	n/a
359.7135	0.0455	719427	keystroke_Key.space	Key.space	n/a
359.819	0.09	719638	keystroke_a	a	n/a
360.1635	0.0905	720327	keystroke_d	d	n/a
360.4185	0.075	720837	keystroke_u	u	n/a
360.7335	0.09	721467	keystroke_l	l	n/a
360.8535	0.09	721707	keystroke_t	t	n/a
361.049	0.075	722098	keystroke_s	s	n/a
361.2285	0.135	722457	keystroke_Key.space	Key.space	n/a
361.7685	0.09	723537	keystroke_o	o	n/a
361.8735	0.045	723747	keystroke_f	f	n/a
362.009	0.0595	724018	keystroke_f	f	n/a
362.1285	0.09	724257	keystroke_e	e	n/a
362.2035	0.165	724407	keystroke_r	r	n/a
362.3535	0.075	724707	keystroke_e	e	n/a
362.549	0.0745	725098	keystroke_d	d	n/a
362.6835	0.0905	725367	keystroke_Key.enter	Key.enter	n/a
362.7795	7.751	725559	prompt	n/a	corruption vinyl officers paintball\n
363.854	0.045	727708	keystroke_c	c	n/a
363.8995	0.105	727799	keystroke_o	o	n/a
364.064	0.075	728128	keystroke_r	r	n/a
364.199	0.075	728398	keystroke_r	r	n/a
364.289	0.09	728578	keystroke_u	u	n/a
364.439	0.09	728878	keystroke_p	p	n/a
364.649	0.06	729298	keystroke_t	t	n/a
364.724	0.135	729448	keystroke_i	i	n/a
364.8435	0.15	729687	keystroke_o	o	n/a
364.9785	0.1955	729957	keystroke_n	n	n/a
365.159	0.1045	730318	keystroke_Key.space	Key.space	n/a
365.4435	0.105	730887	keystroke_v	v	n/a
365.5785	0.181	731157	keystroke_i	i	n/a
366.074	0.0895	732148	keystroke_n	n	n/a
366.4485	0.045	732897	keystroke_y	y	n/a
366.6885	0.075	733377	keystroke_l	l	n/a
366.809	0.1345	733618	keystroke_Key.space	Key.space	n/a
367.604	0.0895	735208	keystroke_o	o	n/a
367.7235	0.03	735447	keystroke_f	f	n/a
367.829	0.0895	735658	keystroke_f	f	n/a
367.979	0.0895	735958	keystroke_i	i	n/a
368.084	0.0595	736168	keystroke_c	c	n/a
368.2635	0.135	736527	keystroke_e	e	n/a
368.3685	0.0605	736737	keystroke_r	r	n/a
368.5035	0.09	737007	keystroke_s	s	n/a
368.6385	0.12	737277	keystroke_Key.space	Key.space	n/a
368.8935	0.075	737787	keystroke_p	p	n/a
369.0135	0.0605	738027	keystroke_a	a	n/a
369.1185	0.1655	738237	keystroke_i	i	n/a
369.2385	0.0905	738477	keystroke_n	n	n/a
369.299	0.09	738598	keystroke_t	t	n/a
369.598	0.046	739196	keystroke_b	b	n/a
369.988	0.0755	739976	keystroke_a	a	n/a
370.123	0.0615	740246	keystroke_l	l	n/a
370.3335	0.0145	740667	keystroke_l	l	n/a
370.454	0.075	740908	keystroke_Key.enter	Key.enter	n/a
370.5345	8.921	741069	prompt	n/a	drum cricket griffin prince\n
371.8185	0.105	743637	keystroke_d	d	n/a
371.999	0.0895	743998	keystroke_r	r	n/a
372.254	0.09	744508	keystroke_u	u	n/a
373.334	0.18	746668	keystroke_m	m	n/a
373.469	0.12	746938	keystroke_Key.space	Key.space	n/a
373.784	0.075	747568	keystroke_c	c	n/a
374.069	0.09	748138	keystroke_r	r	n/a
374.414	0.09	748828	keystroke_i	i	n/a
374.549	0.09	749098	keystroke_c	c	n/a
374.669	0.09	749338	keystroke_k	k	n/a
374.8035	0.09	749607	keystroke_e	e	n/a
374.9685	0.0905	749937	keystroke_t	t	n/a
375.134	0.135	750268	keystroke_Key.space	Key.space	n/a
375.584	0.03	751168	keystroke_f	f	n/a
376.618	0.091	753236	keystroke_Key.backspace	Key.backspace	n/a
376.7385	0.075	753477	keystroke_g	g	n/a
376.993	0.075	753986	keystroke_r	r	n/a
377.143	0.075	754286	keystroke_i	i	n/a
377.759	0.0895	755518	keystroke_f	f	n/a
377.8635	0.0905	755727	keystroke_f	f	n/a
378.074	0.0895	756148	keystroke_i	i	n/a
378.2385	0.15	756477	keystroke_n	n	n/a
378.433	0.0905	756866	keystroke_Key.space	Key.space	n/a
378.674	0.075	757348	keystroke_p	p	n/a
378.809	0.089	757618	keystroke_r	r	n/a
378.9135	0.15	757827	keystroke_i	i	n/a
379.0335	0.12	758067	keystroke_n	n	n/a
379.1385	0.1355	758277	keystroke_c	c	n/a
379.2585	0.045	758517	keystroke_e	e	n/a
379.3635	0.09	758727	keystroke_Key.enter	Key.enter	n/a
379.4595	11.5155	758919	prompt	n/a	gods bryant exclusively pattern\n
381.1785	0.09	762357	keystroke_g	g	n/a
381.343	0.0905	762686	keystroke_o	o	n/a
381.463	0.2855	762926	keystroke_d	d	n/a
382.1085	0.0905	764217	keystroke_s	s	n/a
382.5435	0.135	765087	keystroke_Key.space	Key.space	n/a
383.4585	0.0755	766917	keystroke_b	b	n/a
383.654	0.0595	767308	keystroke_r	r	n/a
383.9835	0.105	767967	keystroke_y	y	n/a
384.149	0.0895	768298	keystroke_a	a	n/a
384.3135	0.09	768627	keystroke_n	n	n/a
384.4485	0.105	768897	keystroke_t	t	n/a
384.6435	0.09	769287	keystroke_Key.space	Key.space	n/a
385.633	0.09	771266	keystroke_e	e	n/a
386.668	0.091	773336	keystroke_x	x	n/a
387.103	0.09	774206	keystroke_c	c	n/a
387.314	0.075	774628	keystroke_l	l	n/a
387.884	0.119	775768	keystroke_u	u	n/a
388.1235	0.0755	776247	keystroke_s	s	n/a
388.274	0.044	776548	keystroke_i	i	n/a
388.8735	0.1055	777747	keystroke_v	v	n/a
388.9935	0.0155	777987	keystroke_e	e	n/a
389.038	0.075	778076	keystroke_l	l	n/a
389.323	0.076	778646	keystroke_y	y	n/a
389.638	0.09	779276	keystroke_Key.space	Key.space	n/a
389.923	0.105	779846	keystroke_p	p	n/a
390.043	0.075	780086	keystroke_a	a	n/a
390.164	0.06	780328	keystroke_t	t	n/a
390.3285	0.0455	780657	keystroke_t	t	n/a
390.478	0.12	780956	keystroke_e	e	n/a
390.568	0.09	781136	keystroke_r	r	n/a
390.718	0.06	781436	keystroke_n	n	n/a
390.928	0.045	781856	keystroke_Key.enter	Key.enter	n/a
390.978	6.492	781956	prompt	n/a	martin cubic dimension inbox\n
391.7085	0.09	783417	keystroke_m	m	n/a
391.8285	0.09	783657	keystroke_a	a	n/a
391.9635	0.1205	783927	keystroke_r	r	n/a
392.2185	0.06	784437	keystroke_t	t	n/a
392.2935	0.135	784587	keystroke_i	i	n/a
392.4135	0.18	784827	keystroke_n	n	n/a
392.5635	0.1205	785127	keystroke_Key.space	Key.space	n/a
392.8185	0.18	785637	keystroke_c	c	n/a
392.9835	0.06	785967	keystroke_u	u	n/a
393.2085	0.09	786417	keystroke_b	b	n/a
393.3285	0.105	786657	keystroke_i	i	n/a
393.5235	0.105	787047	keystroke_c	c	n/a
394.0185	0.105	788037	keystroke_Key.space	Key.space	n/a
394.3785	0.075	788757	keystroke_d	d	n/a
394.5285	0.1055	789057	keystroke_i	i	n/a
394.6485	0.1055	789297	keystroke_m	m	n/a
394.784	0.1045	789568	keystroke_e	e	n/a
394.934	0.0895	789868	keystroke_n	n	n/a
395.084	0.075	790168	keystroke_s	s	n/a
395.204	0.105	790408	keystroke_i	i	n/a
395.279	0.12	790558	keystroke_o	o	n/a
395.368	0.166	790736	keystroke_n	n	n/a
395.549	0.105	791098	keystroke_Key.space	Key.space	n/a
395.669	0.12	791338	keystroke_i	i	n/a
395.759	0.09	791518	keystroke_n	n	n/a
396.223	0.091	792446	keystroke_b	b	n/a
396.3885	0.075	792777	keystroke_o	o	n/a
397.2285	0.0595	794457	keystroke_x	x	n/a
397.363	0.1055	794726	keystroke_Key.enter	Key.enter	n/a
397.4775	5.3625	794955	prompt	n/a	killer managed thompson infinite\n
398.113	0.0905	796226	keystroke_k	k	n/a
398.309	0.0595	796618	keystroke_i	i	n/a
398.4885	0.075	796977	keystroke_l	l	n/a
398.6235	0.09	797247	keystroke_l	l	n/a
398.7885	0.105	797577	keystroke_e	e	n/a
398.8335	0.12	797667	keystroke_r	r	n/a
398.9385	0.1205	797877	keystroke_Key.space	Key.space	n/a
399.0285	0.075	798057	keystroke_m	m	n/a
399.1185	0.09	798237	keystroke_a	a	n/a
399.2685	0.075	798537	keystroke_n	n	n/a
399.3885	0.075	798777	keystroke_a	a	n/a
399.5235	0.0605	799047	keystroke_g	g	n/a
399.6585	0.075	799317	keystroke_e	e	n/a
399.8535	0.0905	799707	keystroke_d	d	n/a
399.958	0.105	799916	keystroke_Key.space	Key.space	n/a
400.154	0.075	800308	keystroke_t	t	n/a
400.244	0.1045	800488	keystroke_h	h	n/a
400.3635	0.1205	800727	keystroke_o	o	n/a
400.604	0.0745	801208	keystroke_m	m	n/a
400.7535	0.0905	801507	keystroke_p	p	n/a
400.9185	0.0755	801837	keystroke_s	s	n/a
401.054	0.15	802108	keystroke_o	o	n/a
401.1885	0.15	802377	keystroke_n	n	n/a
401.3385	0.12	802677	keystroke_Key.space	Key.space	n/a
401.4735	0.12	802947	keystroke_i	i	n/a
401.5635	0.1205	803127	keystroke_n	n	n/a
401.8635	0.075	803727	keystroke_f	f	n/a
401.9985	0.09	803997	keystroke_i	i	n/a
402.209	0.09	804418	keystroke_n	n	n/a
402.328	0.09	804656	keystroke_i	i	n/a
402.463	0.075	804926	keystroke_t	t	n/a
402.613	0.06	805226	keystroke_e	e	n/a
402.793	0.045	805586	keystroke_Key.enter	Key.enter	n/a
402.8435	11.517	805687	prompt	n/a	objects presidential shore orlando\n
403.768	0.0605	807536	keystroke_o	o	n/a
403.948	0.09	807896	keystroke_n	n	n/a
404.188	0.091	808376	keystroke_j	j	n/a
404.339	0.074	808678	keystroke_e	e	n/a
404.518	0.1055	809036	keystroke_c	c	n/a
404.834	0.059	809668	keystroke_Key.backspace	Key.backspace	n/a
404.9985	0.015	809997	keystroke_Key.backspace	Key.backspace	n/a
405.1185	0.0595	810237	keystroke_Key.backspace	Key.backspace	n/a
405.553	0.06	811106	keystroke_Key.backspace	Key.backspace	n/a
406.364	0.06	812728	keystroke_b	b	n/a
406.634	0.059	813268	keystroke_j	j	n/a
406.723	0.09	813446	keystroke_e	e	n/a
406.888	0.0905	813776	keystroke_c	c	n/a
407.1585	0.1045	814317	keystroke_t	t	n/a
407.309	0.105	814618	keystroke_s	s	n/a
407.4735	0.1495	814947	keystroke_Key.space	Key.space	n/a
407.968	0.091	815936	keystroke_p	p	n/a
408.0735	0.1345	816147	keystroke_r	r	n/a
408.163	0.075	816326	keystroke_e	e	n/a
408.344	0.09	816688	keystroke_s	s	n/a
408.8985	0.0295	817797	keystroke_i	i	n/a
409.0035	0.0595	818007	keystroke_d	d	n/a
409.153	0.0605	818306	keystroke_e	e	n/a
409.2285	0.09	818457	keystroke_n	n	n/a
409.3635	0.06	818727	keystroke_t	t	n/a
410.0685	0.075	820137	keystroke_i	i	n/a
410.1885	0.0605	820377	keystroke_a	a	n/a
410.3235	0.135	820647	keystroke_l	l	n/a
410.4735	0.06	820947	keystroke_Key.space	Key.space	n/a
411.3435	0.1355	822687	keystroke_s	s	n/a
411.4935	0.06	822987	keystroke_h	h	n/a
411.5385	0.105	823077	keystroke_o	o	n/a
411.6585	0.1195	823317	keystroke_r	r	n/a
411.7335	0.0895	823467	keystroke_e	e	n/a
411.853	0.075	823706	keystroke_Key.space	Key.space	n/a
411.928	0.1205	823856	keystroke_o	o	n/a
412.094	0.119	824188	keystroke_r	r	n/a
412.243	0.09	824486	keystroke_a	a	n/a
413.1735	0.0895	826347	keystroke_Key.backspace	Key.backspace	n/a
413.459	0.104	826918	keystroke_l	l	n/a
413.593	0.0755	827186	keystroke_a	a	n/a
413.6835	0.09	827367	keystroke_n	n	n/a
413.818	0.075	827636	keystroke_d	d	n/a
413.938	0.075	827876	keystroke_o	o	n/a
414.2835	0.075	828567	keystroke_Key.enter	Key.enter	n/a
414.3645	10.1505	828729	prompt	n/a	revealed estimated rome helicopter\n
415.1835	0.15	830367	keystroke_r	r	n/a
415.9185	0.074	831837	keystroke_e	e	n/a
416.1425	0.076	832285	keystroke_v	v	n/a
416.294	0.1495	832588	keystroke_e	e	n/a
416.4285	0.105	832857	keystroke_a	a	n/a
416.6085	0.075	833217	keystroke_l	l	n/a
416.7585	0.09	833517	keystroke_e	e	n/a
417.043	0.12	834086	keystroke_Key.space	Key.space	n/a
417.5085	0.075	835017	keystroke_Key.backspace	Key.backspace	n/a
417.6285	0.105	835257	keystroke_d	d	n/a
417.7785	0.09	835557	keystroke_Key.space	Key.space	n/a
417.9285	0.09	835857	keystroke_e	e	n/a
418.1385	0.09	836277	keystroke_s	s	n/a
418.799	0.0595	837598	keystroke_t	t	n/a
418.9035	0.12	837807	keystroke_i	i	n/a
418.9935	0.135	837987	keystroke_m	m	n/a
419.1435	0.075	838287	keystroke_a	a	n/a
419.2335	0.06	838467	keystroke_t	t	n/a
419.3985	0.045	838797	keystroke_e	e	n/a
419.5485	0.09	839097	keystroke_d	d	n/a
419.6535	0.06	839307	keystroke_Key.space	Key.space	n/a
420.7485	0.09	841497	keystroke_r	r	n/a
420.8535	0.18	841707	keystroke_o	o	n/a
421.0185	0.12	842037	keystroke_m	m	n/a
421.1085	0.075	842217	keystroke_e	e	n/a
421.2135	0.105	842427	keystroke_Key.space	Key.space	n/a
421.3785	0.09	842757	keystroke_h	h	n/a
421.4835	0.075	842967	keystroke_e	e	n/a
421.6185	0.075	843237	keystroke_l	l	n/a
421.8585	0.045	843717	keystroke_o	o	n/a
422.3835	0.06	844767	keystroke_Key.backspace	Key.backspace	n/a
422.624	0.06	845248	keystroke_i	i	n/a
422.7435	0.1355	845487	keystroke_c	c	n/a
423.029	0.075	846058	keystroke_o	o	n/a
423.2835	0.0595	846567	keystroke_p	p	n/a
424.034	0.0745	848068	keystroke_t	t	n/a
424.1835	0.1195	848367	keystroke_e	e	n/a
424.288	0.075	848576	keystroke_r	r	n/a
424.438	0.075	848876	keystroke_Key.enter	Key.enter	n/a
424.5195	8.8955	849039	prompt	n/a	lived toilet fired keyboard\n
425.4585	0.105	850917	keystroke_l	l	n/a
425.5935	0.06	851187	keystroke_i	i	n/a
425.6685	0.0755	851337	keystroke_v	v	n/a
425.8035	0.09	851607	keystroke_e	e	n/a
426.2385	0.075	852477	keystroke_d	d	n/a
426.3735	0.09	852747	keystroke_Key.space	Key.space	n/a
427.5585	0.045	855117	keystroke_t	t	n/a
427.663	0.135	855326	keystroke_o	o	n/a
427.768	0.105	855536	keystroke_i	i	n/a
428.068	0.075	856136	keystroke_l	l	n/a
428.2035	0.12	856407	keystroke_e	e	n/a
428.3085	0.0595	856617	keystroke_t	t	n/a
428.518	0.105	857036	keystroke_Key.space	Key.space	n/a
430.213	0.016	860426	keystroke_f	f	n/a
430.2585	0.075	860517	keystroke_i	i	n/a
430.318	0.1655	860636	keystroke_r	r	n/a
430.4685	0.1195	860937	keystroke_e	e	n/a
430.708	0.0755	861416	keystroke_d	d	n/a
430.8135	0.105	861627	keystroke_Key.space	Key.space	n/a
431.0235	0.09	862047	keystroke_k	k	n/a
431.1735	0.06	862347	keystroke_e	e	n/a
431.3235	0.075	862647	keystroke_y	y	n/a
431.6235	0.075	863247	keystroke_b	b	n/a
431.7885	0.105	863577	keystroke_o	o	n/a
432.0435	0.075	864087	keystroke_r	r	n/a
432.7035	0.075	865407	keystroke_Key.backspace	Key.backspace	n/a
432.8085	0.135	865617	keystroke_a	a	n/a
432.9285	0.09	865857	keystroke_r	r	n/a
433.1385	0.0605	866277	keystroke_d	d	n/a
433.319	0.09	866638	keystroke_Key.enter	Key.enter	n/a
433.4255	10.006	866851	prompt	n/a	communicate drives gotten initial\n
434.2635	0.0605	868527	keystroke_c	c	n/a
434.3375	0.091	868675	keystroke_o	o	n/a
434.5175	0.076	869035	keystroke_m	m	n/a
434.6675	0.075	869335	keystroke_m	m	n/a
434.9085	0.06	869817	keystroke_u	u	n/a
435.2085	0.15	870417	keystroke_n	n	n/a
435.3435	0.105	870687	keystroke_i	i	n/a
435.479	0.0895	870958	keystroke_c	c	n/a
435.5985	0.135	871197	keystroke_a	a	n/a
435.7185	0.075	871437	keystroke_t	t	n/a
435.869	0.0895	871738	keystroke_e	e	n/a
436.0485	0.09	872097	keystroke_Key.space	Key.space	n/a
436.3625	0.076	872725	keystroke_d	d	n/a
436.978	0.06	873956	keystroke_r	r	n/a
437.069	0.1495	874138	keystroke_i	i	n/a
437.1885	0.09	874377	keystroke_v	v	n/a
437.3535	0.105	874707	keystroke_e	e	n/a
437.6085	0.075	875217	keystroke_s	s	n/a
437.713	0.1355	875426	keystroke_Key.space	Key.space	n/a
438.0735	0.0895	876147	keystroke_o	o	n/a
438.538	0.09	877076	keystroke_Key.backspace	Key.backspace	n/a
438.719	0.0895	877438	keystroke_f	f	n/a
438.838	0.0905	877676	keystroke_o	o	n/a
438.9885	0.03	877977	keystroke_t	t	n/a
439.1085	0.06	878217	keystroke_t	t	n/a
439.4685	0.06	878937	keystroke_Key.backspace	Key.backspace	n/a
439.6185	0.06	879237	keystroke_Key.backspace	Key.backspace	n/a
439.768	0.0605	879536	keystroke_Key.backspace	Key.backspace	n/a
440.038	0.075	880076	keystroke_Key.backspace	Key.backspace	n/a
440.7585	0.06	881517	keystroke_g	g	n/a
440.8625	0.091	881725	keystroke_o	o	n/a
441.029	0.0145	882058	keystroke_t	t	n/a
441.1335	0.075	882267	keystroke_t	t	n/a
441.3135	0.074	882627	keystroke_e	e	n/a
441.4625	0.166	882925	keystroke_n	n	n/a
441.5985	0.105	883197	keystroke_Key.space	Key.space	n/a
441.8235	0.1055	883647	keystroke_i	i	n/a
442.0485	0.0895	884097	keystroke_n	n	n/a
442.273	0.09	884546	keystroke_i	i	n/a
442.5735	0.075	885147	keystroke_t	t	n/a
442.693	0.1055	885386	keystroke_i	i	n/a
442.813	0.091	885626	keystroke_a	a	n/a
442.9785	0.075	885957	keystroke_l	l	n/a
443.353	0.075	886706	keystroke_Key.enter	Key.enter	n/a
443.4355	9.009	886871	prompt	n/a	grave at pension continuity\n
444.538	0.075	889076	keystroke_g	g	n/a
444.704	0.134	889408	keystroke_r	r	n/a
444.823	0.09	889646	keystroke_a	a	n/a
445.049	0.0745	890098	keystroke_v	v	n/a
445.183	0.1055	890366	keystroke_e	e	n/a
445.4375	0.105	890875	keystroke_Key.space	Key.space	n/a
445.7975	0.12	891595	keystroke_a	a	n/a
445.9025	0.121	891805	keystroke_t	t	n/a
446.0675	0.105	892135	keystroke_Key.space	Key.space	n/a
447.299	0.0745	894598	keystroke_p	p	n/a
447.4185	0.0745	894837	keystroke_e	e	n/a
447.5985	0.1045	895197	keystroke_n	n	n/a
447.718	0.075	895436	keystroke_s	s	n/a
447.838	0.135	895676	keystroke_i	i	n/a
447.988	0.1355	895976	keystroke_o	o	n/a
448.108	0.211	896216	keystroke_n	n	n/a
448.3485	0.15	896697	keystroke_Key.space	Key.space	n/a
448.5135	0.09	897027	keystroke_c	c	n/a
448.7835	0.09	897567	keystroke_o	o	n/a
449.0235	0.105	898047	keystroke_n	n	n/a
449.2035	0.075	898407	keystroke_t	t	n/a
449.4285	0.09	898857	keystroke_i	i	n/a
449.8785	0.075	899757	keystroke_n	n	n/a
450.253	0.1205	900506	keystroke_i	i	n/a
450.7185	0.0895	901437	keystroke_Key.backspace	Key.backspace	n/a
451.5285	0.0745	903057	keystroke_u	u	n/a
451.6635	0.135	903327	keystroke_i	i	n/a
451.8435	0.0605	903687	keystroke_t	t	n/a
452.0235	0.09	904047	keystroke_y	y	n/a
452.3685	0.074	904737	keystroke_Key.enter	Key.enter	n/a
452.4485	10.782	904897	prompt	n/a	golden specialists juan suffering\n
453.613	0.075	907226	keystroke_g	g	n/a
453.7785	0.075	907557	keystroke_o	o	n/a
454.1085	0.09	908217	keystroke_l	l	n/a
454.243	0.0755	908486	keystroke_d	d	n/a
454.408	0.06	908816	keystroke_e	e	n/a
454.528	0.165	909056	keystroke_n	n	n/a
454.6485	0.12	909297	keystroke_Key.space	Key.space	n/a
454.8435	0.0895	909687	keystroke_s	s	n/a
454.9485	0.0895	909897	keystroke_p	p	n/a
455.053	0.09	910106	keystroke_e	e	n/a
455.354	0.1045	910708	keystroke_c	c	n/a
455.4885	0.09	910977	keystroke_i	i	n/a
455.5935	0.105	911187	keystroke_d	d	n/a
455.7735	0.09	911547	keystroke_a	a	n/a
455.9985	0.135	911997	keystroke_l	l	n/a
456.1035	0.075	912207	keystroke_i	i	n/a
456.2085	0.09	912417	keystroke_s	s	n/a
456.3435	0.105	912687	keystroke_t	t	n/a
456.4935	0.09	912987	keystroke_s	s	n/a
456.6585	0.12	913317	keystroke_Key.space	Key.space	n/a
457.3335	0.075	914667	keystroke_Key.backspace	Key.backspace	n/a
457.4835	0.06	914967	keystroke_Key.backspace	Key.backspace	n/a
457.6475	0.046	915295	keystroke_Key.backspace	Key.backspace	n/a
457.8135	0.045	915627	keystroke_Key.backspace	Key.backspace	n/a
457.9635	0.06	915927	keystroke_Key.backspace	Key.backspace	n/a
458.1135	0.06	916227	keystroke_Key.backspace	Key.backspace	n/a
458.2785	0.045	916557	keystroke_Key.backspace	Key.backspace	n/a
458.5635	0.06	917127	keystroke_Key.backspace	Key.backspace	n/a
458.7885	0.06	917577	keystroke_a	a	n/a
459.6735	0.075	919347	keystroke_l	l	n/a
459.8985	0.09	919797	keystroke_i	i	n/a
460.1385	0.09	920277	keystroke_s	s	n/a
460.3485	0.075	920697	keystroke_t	t	n/a
460.4985	0.075	920997	keystroke_s	s	n/a
460.708	0.105	921416	keystroke_Key.space	Key.space	n/a
460.933	0.105	921866	keystroke_s	s	n/a
461.053	0.09	922106	keystroke_u	u	n/a
461.2185	0.03	922437	keystroke_f	f	n/a
461.3535	0.075	922707	keystroke_f	f	n/a
462.2975	0.151	924595	keystroke_e	e	n/a
462.403	0.1205	924806	keystroke_r	r	n/a
462.6285	0.1645	925257	keystroke_i	i	n/a
462.764	0.1345	925528	keystroke_n	n	n/a
462.883	0.0605	925766	keystroke_g	g	n/a
463.1535	0.075	926307	keystroke_Key.enter	Key.enter	n/a
463.235	14.035	926470	prompt	n/a	disease hazardous coordinate raises\n
464.008	0.075	928016	keystroke_d	d	n/a
464.143	0.09	928286	keystroke_i	i	n/a
464.3985	0.1045	928797	keystroke_s	s	n/a
464.5485	0.1495	929097	keystroke_e	e	n/a
464.683	0.12	929366	keystroke_a	a	n/a
464.938	0.1655	929876	keystroke_s	s	n/a
465.0885	0.135	930177	keystroke_e	e	n/a
465.388	0.09	930776	keystroke_Key.space	Key.space	n/a
466.408	0.06	932816	keystroke_h	h	n/a
466.5275	0.1055	933055	keystroke_a	a	n/a
468.9305	0.013	937861	keystroke_z	z	n/a
469.079	0.0745	938158	keystroke_a	a	n/a
469.6935	0.105	939387	keystroke_r	r	n/a
470.1285	0.0895	940257	keystroke_d	d	n/a
470.4435	0.135	940887	keystroke_o	o	n/a
470.5485	0.12	941097	keystroke_u	u	n/a
471.1325	0.0905	942265	keystroke_s	s	n/a
471.268	0.105	942536	keystroke_Key.space	Key.space	n/a
471.553	0.09	943106	keystroke_c	c	n/a
471.703	0.0755	943406	keystroke_o	o	n/a
471.883	0.0905	943766	keystroke_o	o	n/a
472.108	0.09	944216	keystroke_r	r	n/a
473.053	0.09	946106	keystroke_d	d	n/a
473.263	0.0605	946526	keystroke_i	i	n/a
473.4285	0.0895	946857	keystroke_n	n	n/a
473.533	0.105	947066	keystroke_a	a	n/a
473.653	0.135	947306	keystroke_t	t	n/a
473.8035	0.09	947607	keystroke_e	e	n/a
474.0435	0.0895	948087	keystroke_Key.space	Key.space	n/a
475.274	0.105	950548	keystroke_r	r	n/a
475.5125	0.1205	951025	keystroke_a	a	n/a
476.068	0.105	952136	keystroke_i	i	n/a
476.398	0.075	952796	keystroke_s	s	n/a
476.578	0.0905	953156	keystroke_e	e	n/a
476.788	0.091	953576	keystroke_s	s	n/a
477.193	0.0755	954386	keystroke_Key.enter	Key.enter	n/a
477.273	10.227	954546	prompt	n/a	sucking sheet preston walker\n
478.153	0.09	956306	keystroke_s	s	n/a
478.288	0.075	956576	keystroke_u	u	n/a
478.408	0.075	956816	keystroke_c	c	n/a
478.4985	0.0895	956997	keystroke_k	k	n/a
478.6785	0.12	957357	keystroke_i	i	n/a
478.7535	0.1505	957507	keystroke_n	n	n/a
478.8885	0.09	957777	keystroke_g	g	n/a
478.9935	0.135	957987	keystroke_Key.space	Key.space	n/a
479.308	0.075	958616	keystroke_s	s	n/a
479.398	0.09	958796	keystroke_h	h	n/a
479.534	0.074	959068	keystroke_e	e	n/a
479.713	0.06	959426	keystroke_e	e	n/a
479.848	0.0755	959696	keystroke_t	t	n/a
479.9385	0.135	959877	keystroke_Key.space	Key.space	n/a
480.1035	0.075	960207	keystroke_r	r	n/a
480.2685	0.105	960537	keystroke_e	e	n/a
480.629	0.0745	961258	keystroke_s	s	n/a
480.8085	0.075	961617	keystroke_t	t	n/a
480.9435	0.135	961887	keystroke_o	o	n/a
481.0935	0.135	962187	keystroke_n	n	n/a
481.1985	0.1345	962397	keystroke_Key.space	Key.space	n/a
481.363	0.09	962726	keystroke_w	w	n/a
481.468	0.09	962936	keystroke_a	a	n/a
481.619	0.1195	963238	keystroke_l	l	n/a
481.9935	0.0745	963987	keystroke_Key.backspace	Key.backspace	n/a
482.128	0.06	964256	keystroke_Key.backspace	Key.backspace	n/a
482.2925	0.061	964585	keystroke_Key.backspace	Key.backspace	n/a
482.458	0.06	964916	keystroke_Key.backspace	Key.backspace	n/a
482.623	0.06	965246	keystroke_Key.backspace	Key.backspace	n/a
482.773	0.045	965546	keystroke_Key.backspace	Key.backspace	n/a
482.938	0.045	965876	keystroke_Key.backspace	Key.backspace	n/a
483.088	0.045	966176	keystroke_Key.backspace	Key.backspace	n/a
483.2535	0.045	966507	keystroke_Key.backspace	Key.backspace	n/a
483.433	0.03	966866	keystroke_Key.backspace	Key.backspace	n/a
484.2285	0.075	968457	keystroke_p	p	n/a
484.3785	0.15	968757	keystroke_r	r	n/a
484.4985	0.105	968997	keystroke_e	e	n/a
484.6635	0.105	969327	keystroke_s	s	n/a
484.8585	0.09	969717	keystroke_t	t	n/a
484.9635	0.195	969927	keystroke_o	o	n/a
485.1135	0.15	970227	keystroke_n	n	n/a
485.2335	0.12	970467	keystroke_Key.space	Key.space	n/a
485.4735	0.105	970947	keystroke_w	w	n/a
486.3875	0.15	972775	keystroke_a	a	n/a
486.883	0.075	973766	keystroke_l	l	n/a
487.0035	0.075	974007	keystroke_k	k	n/a
487.1385	0.12	974277	keystroke_e	e	n/a
487.2285	0.09	974457	keystroke_r	r	n/a
487.4385	0.06	974877	keystroke_Key.enter	Key.enter	n/a
487.504	7.8405	975008	prompt	n/a	matters affected comparison fifth\n
488.2335	0.09	976467	keystroke_m	m	n/a
488.3835	0.075	976767	keystroke_a	a	n/a
488.5635	0.029	977127	keystroke_t	t	n/a
488.698	0.075	977396	keystroke_t	t	n/a
488.8625	0.151	977725	keystroke_e	e	n/a
488.9825	0.091	977965	keystroke_r	r	n/a
489.133	0.1045	978266	keystroke_s	s	n/a
489.2535	0.1345	978507	keystroke_Key.space	Key.space	n/a
489.7185	0.075	979437	keystroke_a	a	n/a
489.8535	0.044	979707	keystroke_f	f	n/a
489.9885	0.0595	979977	keystroke_f	f	n/a
490.0785	0.1195	980157	keystroke_e	e	n/a
490.2885	0.075	980577	keystroke_c	c	n/a
490.483	0.105	980966	keystroke_t	t	n/a
491.563	0.075	983126	keystroke_e	e	n/a
491.758	0.0605	983516	keystroke_d	d	n/a
491.8785	0.12	983757	keystroke_Key.space	Key.space	n/a
492.1635	0.09	984327	keystroke_c	c	n/a
492.3125	0.1355	984625	keystroke_o	o	n/a
492.5075	0.105	985015	keystroke_m	m	n/a
492.6575	0.121	985315	keystroke_p	p	n/a
492.7925	0.1055	985585	keystroke_a	a	n/a
492.9575	0.1065	985915	keystroke_r	r	n/a
493.0935	0.1045	986187	keystroke_i	i	n/a
493.213	0.09	986426	keystroke_s	s	n/a
493.333	0.1345	986666	keystroke_o	o	n/a
493.4535	0.134	986907	keystroke_n	n	n/a
493.573	0.0895	987146	keystroke_Key.space	Key.space	n/a
493.6925	0.091	987385	keystroke_f	f	n/a
493.7985	0.089	987597	keystroke_i	i	n/a
493.9485	0.09	987897	keystroke_f	f	n/a
494.0535	0.045	988107	keystroke_i	i	n/a
494.803	0.075	989606	keystroke_Key.backspace	Key.backspace	n/a
494.9535	0.059	989907	keystroke_t	t	n/a
495.0725	0.06	990145	keystroke_h	h	n/a
495.2535	0.09	990507	keystroke_Key.enter	Key.enter	n/a
495.348	8.2915	990696	prompt	n/a	others straight departments conventional\n
496.2735	0.045	992547	keystroke_o	o	n/a
496.3335	0.09	992667	keystroke_t	t	n/a
496.4385	0.105	992877	keystroke_h	h	n/a
496.5585	0.135	993117	keystroke_e	e	n/a
496.6635	0.09	993327	keystroke_r	r	n/a
496.933	0.0605	993866	keystroke_s	s	n/a
497.053	0.105	994106	keystroke_Key.space	Key.space	n/a
497.3235	0.075	994647	keystroke_s	s	n/a
497.473	0.0755	994946	keystroke_t	t	n/a
497.6685	0.105	995337	keystroke_r	r	n/a
497.7735	0.075	995547	keystroke_a	a	n/a
497.8785	0.12	995757	keystroke_i	i	n/a
497.9835	0.06	995967	keystroke_g	g	n/a
498.0885	0.105	996177	keystroke_h	h	n/a
498.2235	0.075	996447	keystroke_t	t	n/a
498.3135	0.12	996627	keystroke_Key.space	Key.space	n/a
498.5685	0.06	997137	keystroke_d	d	n/a
498.7185	0.075	997437	keystroke_e	e	n/a
498.8535	0.075	997707	keystroke_p	p	n/a
499.0485	0.195	998097	keystroke_a	a	n/a
499.258	0.0745	998516	keystroke_r	r	n/a
499.4675	0.0605	998935	keystroke_t	t	n/a
499.5875	0.075	999175	keystroke_m	m	n/a
499.6935	0.089	999387	keystroke_e	e	n/a
499.828	0.0755	999656	keystroke_n	n	n/a
499.888	0.0745	999776	keystroke_t	t	n/a
500.038	0.0905	1000076	keystroke_s	s	n/a
500.1575	0.091	1000315	keystroke_Key.space	Key.space	n/a
500.3375	0.106	1000675	keystroke_c	c	n/a
500.4735	0.15	1000947	keystroke_o	o	n/a
500.6085	0.105	1001217	keystroke_n	n	n/a
501.0125	0.061	1002025	keystroke_v	v	n/a
501.1625	0.091	1002325	keystroke_e	e	n/a
501.3575	0.075	1002715	keystroke_n	n	n/a
501.448	0.0895	1002896	keystroke_t	t	n/a
501.5685	0.21	1003137	keystroke_i	i	n/a
501.7175	0.12	1003435	keystroke_o	o	n/a
502.9485	0.075	1005897	keystroke_n	n	n/a
503.0685	0.06	1006137	keystroke_a	a	n/a
503.2335	0.03	1006467	keystroke_l	l	n/a
503.6235	0.014	1007247	keystroke_Key.enter	Key.enter	n/a
503.643	8.3065	1007286	prompt	n/a	narrow graduate glossary computed\n
504.4785	0.09	1008957	keystroke_n	n	n/a
504.5985	0.075	1009197	keystroke_a	a	n/a
504.7185	0.075	1009437	keystroke_r	r	n/a
504.8685	0.075	1009737	keystroke_r	r	n/a
504.9885	0.09	1009977	keystroke_o	o	n/a
505.423	0.0755	1010846	keystroke_w	w	n/a
505.588	0.0905	1011176	keystroke_Key.space	Key.space	n/a
506.1725	0.046	1012345	keystroke_g	g	n/a
506.3375	0.0905	1012675	keystroke_r	r	n/a
506.443	0.075	1012886	keystroke_a	a	n/a
506.6535	0.075	1013307	keystroke_d	d	n/a
506.7435	0.075	1013487	keystroke_u	u	n/a
506.8485	0.105	1013697	keystroke_a	a	n/a
506.923	0.09	1013846	keystroke_t	t	n/a
507.1035	0.089	1014207	keystroke_e	e	n/a
507.2985	0.074	1014597	keystroke_d	d	n/a
507.4035	0.104	1014807	keystroke_Key.space	Key.space	n/a
507.6285	0.09	1015257	keystroke_g	g	n/a
507.7625	0.0605	1015525	keystroke_l	l	n/a
507.9435	0.06	1015887	keystroke_o	o	n/a
508.4975	0.06	1016995	keystroke_s	s	n/a
508.6475	0.091	1017295	keystroke_s	s	n/a
508.7975	0.121	1017595	keystroke_a	a	n/a
508.9325	0.091	1017865	keystroke_r	r	n/a
509.0535	0.075	1018107	keystroke_y	y	n/a
509.2935	0.104	1018587	keystroke_Key.space	Key.space	n/a
510.3735	0.0745	1020747	keystroke_c	c	n/a
510.5375	0.075	1021075	keystroke_o	o	n/a
510.7325	0.091	1021465	keystroke_m	m	n/a
510.8825	0.0905	1021765	keystroke_p	p	n/a
511.0785	0.105	1022157	keystroke_u	u	n/a
511.1685	0.075	1022337	keystroke_t	t	n/a
511.3185	0.09	1022637	keystroke_e	e	n/a
511.5735	0.09	1023147	keystroke_d	d	n/a
511.8585	0.09	1023717	keystroke_Key.enter	Key.enter	n/a
511.9555	11.0645	1023911	prompt	n/a	billy stewart bridge deadly\n
512.953	0.09	1025906	keystroke_b	b	n/a
513.103	0.0755	1026206	keystroke_i	i	n/a
513.313	0.06	1026626	keystroke_l	l	n/a
513.4635	0.0595	1026927	keystroke_l	l	n/a
513.778	0.09	1027556	keystroke_y	y	n/a
514.048	0.09	1028096	keystroke_Key.space	Key.space	n/a
514.5135	0.0745	1029027	keystroke_s	s	n/a
515.4735	0.105	1030947	keystroke_t	t	n/a
515.728	0.1045	1031456	keystroke_e	e	n/a
515.8925	0.09	1031785	keystroke_w	w	n/a
516.1485	0.15	1032297	keystroke_a	a	n/a
516.403	0.0745	1032806	keystroke_r	r	n/a
517.0775	0.1205	1034155	keystroke_t	t	n/a
517.2125	0.06	1034425	keystroke_Key.space	Key.space	n/a
517.3925	0.09	1034785	keystroke_b	b	n/a
517.6325	0.075	1035265	keystroke_r	r	n/a
517.7235	0.104	1035447	keystroke_i	i	n/a
517.8575	0.075	1035715	keystroke_g	g	n/a
517.9625	0.09	1035925	keystroke_h	h	n/a
518.0825	0.1355	1036165	keystroke_t	t	n/a
518.5935	0.044	1037187	keystroke_Key.backspace	Key.backspace	n/a
518.743	0.0445	1037486	keystroke_Key.backspace	Key.backspace	n/a
518.7885	0.0895	1037577	keystroke_g	g	n/a
519.028	0.1195	1038056	keystroke_e	e	n/a
519.4035	0.0445	1038807	keystroke_Key.backspace	Key.backspace	n/a
519.5235	0.089	1039047	keystroke_Key.backspace	Key.backspace	n/a
520.378	0.0455	1040756	keystroke_Key.backspace	Key.backspace	n/a
520.6635	0.075	1041327	keystroke_d	d	n/a
520.7985	0.089	1041597	keystroke_g	g	n/a
520.9335	0.06	1041867	keystroke_e	e	n/a
521.1435	0.12	1042287	keystroke_Key.space	Key.space	n/a
521.9825	0.075	1043965	keystroke_d	d	n/a
522.1485	0.0745	1044297	keystroke_e	e	n/a
522.208	0.105	1044416	keystroke_a	a	n/a
522.448	0.12	1044896	keystroke_d	d	n/a
522.613	0.09	1045226	keystroke_l	l	n/a
522.703	0.0755	1045406	keystroke_e	e	n/a
522.9435	0.0745	1045887	keystroke_Key.enter	Key.enter	n/a
523.025	9.6745	1046050	prompt	n/a	bulletin photo dylan republic\n
524.428	0.06	1048856	keystroke_b	b	n/a
524.8485	0.075	1049697	keystroke_u	u	n/a
525.6735	0.074	1051347	keystroke_l	l	n/a
525.7625	0.016	1051525	keystroke_l	l	n/a
525.7925	0.045	1051585	keystroke_e	e	n/a
525.9285	0.075	1051857	keystroke_t	t	n/a
526.0325	0.151	1052065	keystroke_i	i	n/a
526.1685	0.18	1052337	keystroke_n	n	n/a
526.3175	0.12	1052635	keystroke_Key.space	Key.space	n/a
526.4385	0.09	1052877	keystroke_p	p	n/a
526.6475	0.121	1053295	keystroke_h	h	n/a
526.7835	0.0895	1053567	keystroke_o	o	n/a
526.9035	0.0745	1053807	keystroke_t	t	n/a
527.0075	0.09	1054015	keystroke_o	o	n/a
527.173	0.1205	1054346	keystroke_Key.space	Key.space	n/a
527.8325	0.061	1055665	keystroke_d	d	n/a
528.1035	0.09	1056207	keystroke_y	y	n/a
528.328	0.09	1056656	keystroke_l	l	n/a
528.463	0.0905	1056926	keystroke_a	a	n/a
528.583	0.1955	1057166	keystroke_n	n	n/a
528.7635	0.09	1057527	keystroke_Key.space	Key.space	n/a
529.1085	0.165	1058217	keystroke_r	r	n/a
529.2575	0.121	1058515	keystroke_e	e	n/a
530.698	0.09	1061396	keystroke_p	p	n/a
530.938	0.06	1061876	keystroke_u	u	n/a
531.163	0.09	1062326	keystroke_b	b	n/a
531.433	0.075	1062866	keystroke_l	l	n/a
531.5985	0.0895	1063197	keystroke_i	i	n/a
531.763	0.09	1063526	keystroke_c	c	n/a
532.618	0.075	1065236	keystroke_Key.enter	Key.enter	n/a
532.6995	11.89	1065399	prompt	n/a	visit collecting spelling directory\n
534.856	0.0005	1069712	keystroke_v	v	n/a
535.018	0.0895	1070036	keystroke_s	s	n/a
535.7235	0.075	1071447	keystroke_Key.backspace	Key.backspace	n/a
535.9625	0.091	1071925	keystroke_i	i	n/a
536.2325	0.091	1072465	keystroke_s	s	n/a
536.3825	0.09	1072765	keystroke_i	i	n/a
536.5185	0.104	1073037	keystroke_t	t	n/a
537.0885	0.1195	1074177	keystroke_Key.space	Key.space	n/a
537.3875	0.105	1074775	keystroke_c	c	n/a
537.5075	0.075	1075015	keystroke_o	o	n/a
537.718	0.06	1075436	keystroke_l	l	n/a
537.8985	0.0745	1075797	keystroke_l	l	n/a
537.9425	0.151	1075885	keystroke_e	e	n/a
538.3325	0.091	1076665	keystroke_t	t	n/a
538.4525	0.18	1076905	keystroke_i	i	n/a
538.5875	0.12	1077175	keystroke_n	n	n/a
538.7225	0.09	1077445	keystroke_g	g	n/a
538.8575	0.0905	1077715	keystroke_Key.space	Key.space	n/a
539.248	0.06	1078496	keystroke_Key.backspace	Key.backspace	n/a
539.413	0.045	1078826	keystroke_Key.backspace	Key.backspace	n/a
539.548	0.06	1079096	keystroke_Key.backspace	Key.backspace	n/a
539.713	0.045	1079426	keystroke_Key.backspace	Key.backspace	n/a
539.833	0.03	1079666	keystroke_Key.backspace	Key.backspace	n/a
539.953	0.075	1079906	keystroke_c	c	n/a
540.703	0.09	1081406	keystroke_t	t	n/a
540.838	0.195	1081676	keystroke_i	i	n/a
540.973	0.135	1081946	keystroke_n	n	n/a
541.093	0.12	1082186	keystroke_g	g	n/a
541.258	0.09	1082516	keystroke_Key.space	Key.space	n/a
541.483	0.105	1082966	keystroke_s	s	n/a
541.633	0.105	1083266	keystroke_p	p	n/a
541.783	0.075	1083566	keystroke_e	e	n/a
541.963	0.06	1083926	keystroke_l	l	n/a
542.128	0.075	1084256	keystroke_l	l	n/a
542.263	0.135	1084526	keystroke_i	i	n/a
542.353	0.12	1084706	keystroke_n	n	n/a
542.458	0.09	1084916	keystroke_g	g	n/a
542.578	0.1345	1085156	keystroke_Key.space	Key.space	n/a
542.9975	0.0905	1085995	keystroke_d	d	n/a
543.1775	0.076	1086355	keystroke_i	i	n/a
543.2825	0.165	1086565	keystroke_r	r	n/a
543.403	0.1045	1086806	keystroke_e	e	n/a
543.5985	0.089	1087197	keystroke_c	c	n/a
543.8075	0.076	1087615	keystroke_t	t	n/a
543.8975	0.091	1087795	keystroke_o	o	n/a
544.0185	0.075	1088037	keystroke_r	r	n/a
544.1685	0.075	1088337	keystroke_y	y	n/a
544.5125	0.075	1089025	keystroke_Key.enter	Key.enter	n/a
544.594	8.3955	1089188	prompt	n/a	scientist writer lewis tulsa\n
545.323	0.0605	1090646	keystroke_s	s	n/a
545.4575	0.12	1090915	keystroke_c	c	n/a
545.608	0.09	1091216	keystroke_i	i	n/a
545.788	0.045	1091576	keystroke_e	e	n/a
545.908	0.075	1091816	keystroke_n	n	n/a
546.1325	0.106	1092265	keystroke_t	t	n/a
546.2835	0.074	1092567	keystroke_i	i	n/a
546.3585	0.1195	1092717	keystroke_s	s	n/a
546.493	0.0895	1092986	keystroke_t	t	n/a
547.093	0.105	1094186	keystroke_Key.space	Key.space	n/a
548.473	0.0745	1096946	keystroke_w	w	n/a
548.6975	0.09	1097395	keystroke_r	r	n/a
548.8475	0.1055	1097695	keystroke_i	i	n/a
548.9225	0.06	1097845	keystroke_t	t	n/a
549.0575	0.1055	1098115	keystroke_e	e	n/a
549.298	0.0745	1098596	keystroke_r	r	n/a
549.4025	0.1205	1098805	keystroke_Key.space	Key.space	n/a
549.628	0.075	1099256	keystroke_l	l	n/a
549.703	0.09	1099406	keystroke_e	e	n/a
549.9735	0.0895	1099947	keystroke_w	w	n/a
550.138	0.075	1100276	keystroke_i	i	n/a
550.993	0.09	1101986	keystroke_s	s	n/a
551.128	0.09	1102256	keystroke_Key.space	Key.space	n/a
551.503	0.06	1103006	keystroke_t	t	n/a
551.923	0.0755	1103846	keystroke_u	u	n/a
552.118	0.075	1104236	keystroke_l	l	n/a
552.463	0.09	1104926	keystroke_s	s	n/a
552.5985	0.1045	1105197	keystroke_a	a	n/a
552.913	0.075	1105826	keystroke_Key.enter	Key.enter	n/a
552.9935	6.596	1105987	prompt	n/a	formal application publishers get\n
553.7685	0.074	1107537	keystroke_f	f	n/a
554.128	0.09	1108256	keystroke_o	o	n/a
554.2185	0.089	1108437	keystroke_r	r	n/a
554.3525	0.075	1108705	keystroke_m	m	n/a
554.4725	0.075	1108945	keystroke_a	a	n/a
554.5775	0.18	1109155	keystroke_l	l	n/a
554.7425	0.105	1109485	keystroke_Key.space	Key.space	n/a
554.8775	0.0755	1109755	keystroke_a	a	n/a
554.983	0.075	1109966	keystroke_p	p	n/a
555.178	0.075	1110356	keystroke_p	p	n/a
555.763	0.135	1111526	keystroke_l	l	n/a
555.883	0.105	1111766	keystroke_i	i	n/a
556.003	0.105	1112006	keystroke_c	c	n/a
556.138	0.1195	1112276	keystroke_a	a	n/a
556.2725	0.075	1112545	keystroke_t	t	n/a
556.3635	0.0895	1112727	keystroke_i	i	n/a
556.438	0.165	1112876	keystroke_o	o	n/a
556.588	0.15	1113176	keystroke_n	n	n/a
556.723	0.105	1113446	keystroke_Key.space	Key.space	n/a
556.978	0.0745	1113956	keystroke_p	p	n/a
557.218	0.0895	1114436	keystroke_u	u	n/a
557.5025	0.0605	1115005	keystroke_b	b	n/a
557.7435	0.119	1115487	keystroke_l	l	n/a
557.848	0.0895	1115696	keystroke_i	i	n/a
557.9975	0.076	1115995	keystroke_s	s	n/a
558.103	0.1045	1116206	keystroke_h	h	n/a
558.268	0.1345	1116536	keystroke_e	e	n/a
558.388	0.1195	1116776	keystroke_r	r	n/a
558.6125	0.09	1117225	keystroke_s	s	n/a
558.763	0.1195	1117526	keystroke_Key.space	Key.space	n/a
559.0325	0.0605	1118065	keystroke_g	g	n/a
559.2275	0.1055	1118455	keystroke_e	e	n/a
559.318	0.0895	1118636	keystroke_t	t	n/a
559.5125	0.0755	1119025	keystroke_Key.enter	Key.enter	n/a
559.5945	10.12	1119189	prompt	n/a	charger highlight qualification sensors\n
560.848	0.135	1121696	keystroke_c	c	n/a
560.968	0.0895	1121936	keystroke_h	h	n/a
561.0875	0.15	1122175	keystroke_a	a	n/a
561.1935	0.134	1122387	keystroke_r	r	n/a
561.4475	0.06	1122895	keystroke_g	g	n/a
561.6435	0.1045	1123287	keystroke_e	e	n/a
561.7485	0.089	1123497	keystroke_r	r	n/a
561.8675	0.105	1123735	keystroke_Key.space	Key.space	n/a
562.0775	0.075	1124155	keystroke_h	h	n/a
562.2135	0.074	1124427	keystroke_i	i	n/a
562.3175	0.06	1124635	keystroke_g	g	n/a
562.4225	0.0755	1124845	keystroke_h	h	n/a
563.0075	0.12	1126015	keystroke_l	l	n/a
563.098	0.12	1126196	keystroke_i	i	n/a
563.2635	0.0895	1126527	keystroke_g	g	n/a
563.368	0.1045	1126736	keystroke_h	h	n/a
563.5325	0.0605	1127065	keystroke_t	t	n/a
563.743	0.18	1127486	keystroke_Key.space	Key.space	n/a
564.6135	0.0735	1129227	keystroke_q	q	n/a
564.808	0.09	1129616	keystroke_u	u	n/a
565.333	0.06	1130666	keystroke_a	a	n/a
565.528	0.1355	1131056	keystroke_l	l	n/a
565.6485	0.075	1131297	keystroke_i	i	n/a
565.813	0.0755	1131626	keystroke_f	f	n/a
565.9025	0.1355	1131805	keystroke_i	i	n/a
566.0525	0.121	1132105	keystroke_c	c	n/a
566.1875	0.09	1132375	keystroke_a	a	n/a
566.3235	0.104	1132647	keystroke_t	t	n/a
566.488	0.0745	1132976	keystroke_i	i	n/a
566.5475	0.24	1133095	keystroke_o	o	n/a
566.9075	0.136	1133815	keystroke_n	n	n/a
567.3275	0.1355	1134655	keystroke_Key.space	Key.space	n/a
567.538	0.135	1135076	keystroke_s	s	n/a
567.658	0.12	1135316	keystroke_e	e	n/a
568.093	0.09	1136186	keystroke_n	n	n/a
568.393	0.06	1136786	keystroke_s	s	n/a
568.5275	0.09	1137055	keystroke_o	o	n/a
568.6485	0.104	1137297	keystroke_r	r	n/a
568.9625	0.1055	1137925	keystroke_s	s	n/a
569.623	0.0895	1139246	keystroke_Key.enter	Key.enter	n/a
569.718	7.2115	1139436	prompt	n/a	failure childrens axis lotus\n
570.4475	0.105	1140895	keystroke_f	f	n/a
570.5225	0.105	1141045	keystroke_a	a	n/a
570.6725	0.0755	1141345	keystroke_i	i	n/a
570.8525	0.0905	1141705	keystroke_l	l	n/a
571.0185	0.0895	1142037	keystroke_u	u	n/a
571.1685	0.1495	1142337	keystroke_r	r	n/a
571.2885	0.119	1142577	keystroke_e	e	n/a
571.4385	0.089	1142877	keystroke_Key.space	Key.space	n/a
571.5735	0.1195	1143147	keystroke_c	c	n/a
571.6775	0.105	1143355	keystroke_h	h	n/a
571.7675	0.1055	1143535	keystroke_i	i	n/a
571.9625	0.1055	1143925	keystroke_l	l	n/a
572.623	0.075	1145246	keystroke_d	d	n/a
572.8175	0.1355	1145635	keystroke_r	r	n/a
572.923	0.09	1145846	keystroke_e	e	n/a
573.073	0.075	1146146	keystroke_n	n	n/a
573.313	0.135	1146626	keystroke_Key.space	Key.space	n/a
574.093	0.0755	1148186	keystroke_a	a	n/a
575.098	0.09	1150196	keystroke_x	x	n/a
575.248	0.0895	1150496	keystroke_i	i	n/a
575.4125	0.075	1150825	keystroke_s	s	n/a
575.5025	0.09	1151005	keystroke_Key.space	Key.space	n/a
575.6525	0.0905	1151305	keystroke_l	l	n/a
575.8775	0.0605	1151755	keystroke_o	o	n/a
576.043	0.1045	1152086	keystroke_t	t	n/a
576.1625	0.09	1152325	keystroke_u	u	n/a
576.313	0.09	1152626	keystroke_s	s	n/a
576.823	0.105	1153646	keystroke_Key.enter	Key.enter	n/a
576.9335	9.191	1153867	prompt	n/a	expanded verify newton presently\n
578.098	0.1045	1156196	keystroke_e	e	n/a
578.3825	0.0905	1156765	keystroke_x	x	n/a
578.563	0.0745	1157126	keystroke_p	p	n/a
579.388	0.12	1158776	keystroke_a	a	n/a
579.7625	0.045	1159525	keystroke_n	n	n/a
580.018	0.0595	1160036	keystroke_d	d	n/a
580.183	0.0745	1160366	keystroke_e	e	n/a
580.4075	0.075	1160815	keystroke_d	d	n/a
580.5125	0.135	1161025	keystroke_Key.space	Key.space	n/a
580.873	0.1195	1161746	keystroke_v	v	n/a
581.1275	0.15	1162255	keystroke_e	e	n/a
581.263	0.0895	1162526	keystroke_r	r	n/a
581.4125	0.106	1162825	keystroke_i	i	n/a
581.5325	0.105	1163065	keystroke_f	f	n/a
581.6825	0.09	1163365	keystroke_y	y	n/a
581.923	0.1045	1163846	keystroke_Key.space	Key.space	n/a
583.348	0.1045	1166696	keystroke_n	n	n/a
583.467	0.165	1166934	keystroke_e	e	n/a
583.587	0.091	1167174	keystroke_w	w	n/a
583.782	0.091	1167564	keystroke_t	t	n/a
583.9325	0.135	1167865	keystroke_o	o	n/a
584.0825	0.18	1168165	keystroke_n	n	n/a
584.233	0.1345	1168466	keystroke_Key.space	Key.space	n/a
584.5325	0.0905	1169065	keystroke_p	p	n/a
584.653	0.12	1169306	keystroke_r	r	n/a
584.743	0.105	1169486	keystroke_e	e	n/a
584.938	0.119	1169876	keystroke_s	s	n/a
585.043	0.105	1170086	keystroke_e	e	n/a
585.177	0.121	1170354	keystroke_n	n	n/a
585.342	0.091	1170684	keystroke_t	t	n/a
585.4925	0.0605	1170985	keystroke_l	l	n/a
585.7025	0.0755	1171405	keystroke_y	y	n/a
586.048	0.075	1172096	keystroke_Key.enter	Key.enter	n/a
586.129	6.9105	1172258	prompt	n/a	noon oriental software medline\n
586.9025	0.0905	1173805	keystroke_n	n	n/a
587.0675	0.076	1174135	keystroke_o	o	n/a
587.232	0.1205	1174464	keystroke_o	o	n/a
587.368	0.1345	1174736	keystroke_n	n	n/a
587.473	0.1045	1174946	keystroke_Key.space	Key.space	n/a
587.668	0.09	1175336	keystroke_o	o	n/a
588.238	0.0895	1176476	keystroke_r	r	n/a
588.388	0.0895	1176776	keystroke_i	i	n/a
588.493	0.0895	1176986	keystroke_e	e	n/a
588.598	0.0895	1177196	keystroke_n	n	n/a
588.7185	0.1045	1177437	keystroke_t	t	n/a
588.8525	0.075	1177705	keystroke_a	a	n/a
588.988	0.1495	1177976	keystroke_l	l	n/a
589.123	0.1045	1178246	keystroke_Key.space	Key.space	n/a
589.2575	0.105	1178515	keystroke_s	s	n/a
589.3775	0.091	1178755	keystroke_o	o	n/a
589.6025	0.1655	1179205	keystroke_f	f	n/a
590.2325	0.0605	1180465	keystroke_t	t	n/a
590.518	0.105	1181036	keystroke_w	w	n/a
590.6825	0.1655	1181365	keystroke_a	a	n/a
590.803	0.12	1181606	keystroke_r	r	n/a
590.907	0.076	1181814	keystroke_e	e	n/a
591.2075	0.1355	1182415	keystroke_Key.space	Key.space	n/a
591.943	0.105	1183886	keystroke_m	m	n/a
592.0775	0.075	1184155	keystroke_e	e	n/a
592.273	0.075	1184546	keystroke_d	d	n/a
592.3925	0.12	1184785	keystroke_l	l	n/a
592.5135	0.1345	1185027	keystroke_i	i	n/a
592.618	0.1195	1185236	keystroke_n	n	n/a
592.7235	0.09	1185447	keystroke_e	e	n/a
592.9625	0.0755	1185925	keystroke_Key.enter	Key.enter	n/a
593.044	14.0055	1186088	prompt	n/a	coordinator programmes classical banner\n
594.2675	0.135	1188535	keystroke_c	c	n/a
594.432	0.075	1188864	keystroke_o	o	n/a
594.733	0.074	1189466	keystroke_r	r	n/a
594.9275	0.105	1189855	keystroke_r	r	n/a
595.363	0.06	1190726	keystroke_Key.backspace	Key.backspace	n/a
595.498	0.06	1190996	keystroke_Key.backspace	Key.backspace	n/a
595.693	0.0895	1191386	keystroke_o	o	n/a
595.8275	0.12	1191655	keystroke_r	r	n/a
597.1475	0.0755	1194295	keystroke_d	d	n/a
597.328	0.105	1194656	keystroke_i	i	n/a
597.478	0.1205	1194956	keystroke_n	n	n/a
597.583	0.135	1195166	keystroke_a	a	n/a
597.688	0.09	1195376	keystroke_t	t	n/a
597.808	0.09	1195616	keystroke_o	o	n/a
598.018	0.075	1196036	keystroke_r	r	n/a
598.108	0.12	1196216	keystroke_Key.space	Key.space	n/a
598.393	0.105	1196786	keystroke_p	p	n/a
598.573	0.1045	1197146	keystroke_r	r	n/a
599.713	0.105	1199426	keystroke_o	o	n/a
599.9975	0.0905	1199995	keystroke_g	g	n/a
600.208	0.09	1200416	keystroke_r	r	n/a
600.3125	0.1055	1200625	keystroke_a	a	n/a
600.8375	0.045	1201675	keystroke_m	m	n/a
601.5575	0.0905	1203115	keystroke_m	m	n/a
601.693	0.105	1203386	keystroke_e	e	n/a
601.8575	0.12	1203715	keystroke_s	s	n/a
602.037	0.1505	1204074	keystroke_Key.space	Key.space	n/a
605.084	0.044	1210168	keystroke_c	c	n/a
605.187	0.106	1210374	keystroke_l	l	n/a
605.2775	0.091	1210555	keystroke_a	a	n/a
605.473	0.0595	1210946	keystroke_s	s	n/a
605.6075	0.075	1211215	keystroke_s	s	n/a
605.698	0.09	1211396	keystroke_i	i	n/a
605.773	0.135	1211546	keystroke_c	c	n/a
605.893	0.09	1211786	keystroke_a	a	n/a
605.998	0.12	1211996	keystroke_l	l	n/a
606.1025	0.0905	1212205	keystroke_Key.space	Key.space	n/a
606.268	0.075	1212536	keystroke_b	b	n/a
606.388	0.0895	1212776	keystroke_a	a	n/a
