onset	duration	sample	value	key	prompt_text
4.014	7.363	8028	prompt	n/a	the quick brown fox jumps over a lazy dog\n
5.2565	0.043	10513	keystroke_t	t	n/a
5.2845	0.075	10569	keystroke_h	h	n/a
5.4645	0.015	10929	keystroke_e	e	n/a
5.4945	0.075	10989	keystroke_Key.space	Key.space	n/a
5.7495	0.12	11499	keystroke_q	q	n/a
5.8845	0.135	11769	keystroke_u	u	n/a
5.9595	0.12	11919	keystroke_i	i	n/a
6.1095	0.09	12219	keystroke_c	c	n/a
6.2295	0.105	12459	keystroke_k	k	n/a
6.3045	0.12	12609	keystroke_Key.space	Key.space	n/a
6.4395	0.105	12879	keystroke_b	b	n/a
6.5295	0.105	13059	keystroke_r	r	n/a
6.6645	0.09	13329	keystroke_o	o	n/a
6.8135	0.045	13627	keystroke_w	w	n/a
6.9635	0.09	13927	keystroke_n	n	n/a
7.0685	0.09	14137	keystroke_Key.space	Key.space	n/a
7.429	0.09	14858	keystroke_f	f	n/a
7.564	0.105	15128	keystroke_o	o	n/a
7.714	0.18	15428	keystroke_x	x	n/a
7.909	0.03	15818	keystroke_Key.space	Key.space	n/a
8.1345	0.075	16269	keystroke_j	j	n/a
8.2995	0.075	16599	keystroke_u	u	n/a
8.5245	0.06	17049	keystroke_m	m	n/a
8.6745	0.075	17349	keystroke_p	p	n/a
8.7945	0.1195	17589	keystroke_s	s	n/a
8.8845	0.1045	17769	keystroke_Key.space	Key.space	n/a
9.004	0.075	18008	keystroke_o	o	n/a
9.169	0.046	18338	keystroke_v	v	n/a
9.4245	0.12	18849	keystroke_e	e	n/a
9.4845	0.1045	18969	keystroke_r	r	n/a
9.604	0.075	19208	keystroke_Key.space	Key.space	n/a
9.709	0.105	19418	keystroke_a	a	n/a
9.799	0.105	19598	keystroke_Key.space	Key.space	n/a
9.874	0.09	19748	keystroke_l	l	n/a
9.949	0.105	19898	keystroke_a	a	n/a
10.309	0.09	20618	keystroke_z	z	n/a
10.474	0.075	20948	keystroke_y	y	n/a
10.564	0.09	21128	keystroke_Key.space	Key.space	n/a
10.789	0.03	21578	keystroke_d	d	n/a
10.834	0.06	21668	keystroke_o	o	n/a
10.9545	0.09	21909	keystroke_g	g	n/a
11.2845	0.09	22569	keystroke_Key.enter	Key.enter	n/a
11.382	6.894	22764	prompt	n/a	tulsa ethnic challenging grammar\n
12.1095	0.1195	24219	keystroke_t	t	n/a
12.2445	0.075	24489	keystroke_u	u	n/a
12.439	0.09	24878	keystroke_l	l	n/a
12.514	0.0755	25028	keystroke_s	s	n/a
12.6945	0.09	25389	keystroke_a	a	n/a
12.8895	0.09	25779	keystroke_Key.space	Key.space	n/a
13.1895	0.06	26379	keystroke_e	e	n/a
13.4445	0.12	26889	keystroke_t	t	n/a
13.5345	0.075	27069	keystroke_h	h	n/a
13.8195	0.105	27639	keystroke_n	n	n/a
13.9545	0.09	27909	keystroke_i	i	n/a
14.0895	0.12	28179	keystroke_c	c	n/a
14.4045	0.075	28809	keystroke_Key.space	Key.space	n/a
14.7945	0.075	29589	keystroke_c	c	n/a
14.8845	0.045	29769	keystroke_h	h	n/a
14.9745	0.09	29949	keystroke_a	a	n/a
15.0795	0.045	30159	keystroke_l	l	n/a
15.2145	0.0745	30429	keystroke_l	l	n/a
15.334	0.0605	30668	keystroke_e	e	n/a
15.409	0.09	30818	keystroke_n	n	n/a
15.544	0.105	31088	keystroke_g	g	n/a
15.664	0.09	31328	keystroke_i	i	n/a
15.724	0.09	31448	keystroke_n	n	n/a
15.949	0.06	31898	keystroke_g	g	n/a
16.039	0.075	32078	keystroke_Key.space	Key.space	n/a
16.324	0.03	32648	keystroke_c	c	n/a
16.639	0.06	33278	keystroke_Key.backspace	Key.backspace	n/a
16.91	0.149	33820	keystroke_g	g	n/a
17.209	0.09	34418	keystroke_r	r	n/a
17.4795	0.06	34959	keystroke_a	a	n/a
17.5545	0.045	35109	keystroke_m	m	n/a
17.7045	0.0595	35409	keystroke_m	m	n/a
17.794	0.09	35588	keystroke_a	a	n/a
17.989	0.075	35978	keystroke_r	r	n/a
18.184	0.09	36368	keystroke_Key.enter	Key.enter	n/a
18.28	5.636	36560	prompt	n/a	grill stanley uploaded stolen\n
18.919	0.09	37838	keystroke_g	g	n/a
19.084	0.1355	38168	keystroke_r	r	n/a
19.2045	0.045	38409	keystroke_i	i	n/a
19.3395	0.06	38679	keystroke_l	l	n/a
19.4745	0.12	38949	keystroke_l	l	n/a
19.5495	0.105	39099	keystroke_Key.space	Key.space	n/a
19.6695	0.09	39339	keystroke_s	s	n/a
19.9095	0.015	39819	keystroke_t	t	n/a
20.0445	0.03	40089	keystroke_a	a	n/a
20.1045	0.03	40209	keystroke_n	n	n/a
20.3295	0.09	40659	keystroke_l	l	n/a
20.4345	0.12	40869	keystroke_e	e	n/a
20.5995	0.09	41199	keystroke_y	y	n/a
20.7345	0.09	41469	keystroke_Key.space	Key.space	n/a
20.9745	0.075	41949	keystroke_u	u	n/a
21.0945	0.075	42189	keystroke_p	p	n/a
21.2895	0.075	42579	keystroke_l	l	n/a
21.439	0.075	42878	keystroke_o	o	n/a
21.515	0.089	43030	keystroke_a	a	n/a
21.694	0.045	43388	keystroke_d	d	n/a
21.8445	0.045	43689	keystroke_e	e	n/a
22.0245	0.09	44049	keystroke_d	d	n/a
22.1895	0.09	44379	keystroke_Key.space	Key.space	n/a
22.3095	0.09	44619	keystroke_s	s	n/a
22.4745	0.105	44949	keystroke_t	t	n/a
22.7295	0.06	45459	keystroke_o	o	n/a
22.9545	0.06	45909	keystroke_l	l	n/a
23.254	0.105	46508	keystroke_e	e	n/a
23.374	0.0755	46748	keystroke_n	n	n/a
23.8245	0.09	47649	keystroke_Key.enter	Key.enter	n/a
23.919	5.307	47838	prompt	n/a	evaluations saint drawn wait\n
24.844	0.06	49688	keystroke_e	e	n/a
25.039	0.09	50078	keystroke_v	v	n/a
25.174	0.135	50348	keystroke_a	a	n/a
25.279	0.06	50558	keystroke_l	l	n/a
25.459	0.075	50918	keystroke_u	u	n/a
25.564	0.09	51128	keystroke_a	a	n/a
25.759	0.12	51518	keystroke_t	t	n/a
25.864	0.15	51728	keystroke_i	i	n/a
25.969	0.12	51938	keystroke_o	o	n/a
25.999	0.105	51998	keystroke_n	n	n/a
26.134	0.105	52268	keystroke_s	s	n/a
26.269	0.09	52538	keystroke_Key.space	Key.space	n/a
26.539	0.075	53078	keystroke_s	s	n/a
26.704	0.105	53408	keystroke_a	a	n/a
26.794	0.075	53588	keystroke_i	i	n/a
26.944	0.09	53888	keystroke_n	n	n/a
27.1245	0.09	54249	keystroke_t	t	n/a
27.2295	0.075	54459	keystroke_Key.space	Key.space	n/a
27.5745	0.075	55149	keystroke_d	d	n/a
27.7695	0.06	55539	keystroke_r	r	n/a
27.9645	0.135	55929	keystroke_a	a	n/a
28.1145	0.06	56229	keystroke_w	w	n/a
28.2045	0.075	56409	keystroke_n	n	n/a
28.3095	0.09	56619	keystroke_Key.space	Key.space	n/a
28.5195	0.0605	57039	keystroke_w	w	n/a
28.6845	0.09	57369	keystroke_a	a	n/a
28.7895	0.075	57579	keystroke_i	i	n/a
28.9695	0.075	57939	keystroke_t	t	n/a
29.1495	0.075	58299	keystroke_Key.enter	Key.enter	n/a
29.2285	5.2475	58457	prompt	n/a	orbit starts stat webshots\n
29.8395	0.09	59679	keystroke_o	o	n/a
29.9445	0.12	59889	keystroke_r	r	n/a
30.0795	0.09	60159	keystroke_b	b	n/a
30.2445	0.075	60489	keystroke_i	i	n/a
30.3495	0.09	60699	keystroke_t	t	n/a
30.4245	0.09	60849	keystroke_Key.space	Key.space	n/a
30.5895	0.105	61179	keystroke_s	s	n/a
30.7695	0.075	61539	keystroke_t	t	n/a
30.9495	0.075	61899	keystroke_a	a	n/a
31.2345	0.09	62469	keystroke_r	r	n/a
31.46	0.09	62920	keystroke_t	t	n/a
31.6845	0.105	63369	keystroke_s	s	n/a
31.8345	0.075	63669	keystroke_Key.space	Key.space	n/a
32.0895	0.105	64179	keystroke_s	s	n/a
32.3295	0.06	64659	keystroke_t	t	n/a
32.4795	0.09	64959	keystroke_a	a	n/a
32.7345	0.045	65469	keystroke_t	t	n/a
32.9595	0.075	65919	keystroke_Key.space	Key.space	n/a
33.1545	0.135	66309	keystroke_w	w	n/a
33.2745	0.105	66549	keystroke_e	e	n/a
33.3945	0.09	66789	keystroke_b	b	n/a
33.5595	0.105	67119	keystroke_s	s	n/a
33.7845	0.0755	67569	keystroke_h	h	n/a
33.9045	0.105	67809	keystroke_o	o	n/a
34.0245	0.09	68049	keystroke_t	t	n/a
34.2645	0.075	68529	keystroke_s	s	n/a
34.3845	0.09	68769	keystroke_Key.enter	Key.enter	n/a
34.48	6.656	68960	prompt	n/a	member designed prospects instrumental\n
35.1645	0.045	70329	keystroke_m	m	n/a
35.1945	0.105	70389	keystroke_e	e	n/a
35.3145	0.075	70629	keystroke_m	m	n/a
35.5095	0.09	71019	keystroke_b	b	n/a
35.5845	0.06	71169	keystroke_e	e	n/a
35.7345	0.075	71469	keystroke_r	r	n/a
35.8695	0.075	71739	keystroke_Key.space	Key.space	n/a
35.9295	0.09	71859	keystroke_s	s	n/a
36.2595	0.045	72519	keystroke_Key.backspace	Key.backspace	n/a
36.3195	0.06	72639	keystroke_d	d	n/a
36.4845	0.06	72969	keystroke_e	e	n/a
36.6945	0.105	73389	keystroke_s	s	n/a
36.8145	0.075	73629	keystroke_i	i	n/a
36.9945	0.105	73989	keystroke_g	g	n/a
37.1295	0.06	74259	keystroke_n	n	n/a
37.2345	0.075	74469	keystroke_e	e	n/a
37.3845	0.12	74769	keystroke_d	d	n/a
37.4895	0.09	74979	keystroke_Key.space	Key.space	n/a
37.7145	0.075	75429	keystroke_p	p	n/a
37.9395	0.09	75879	keystroke_r	r	n/a
38.0295	0.075	76059	keystroke_o	o	n/a
38.194	0.121	76388	keystroke_s	s	n/a
38.389	0.06	76778	keystroke_p	p	n/a
38.494	0.09	76988	keystroke_e	e	n/a
38.704	0.06	77408	keystroke_c	c	n/a
38.8995	0.09	77799	keystroke_t	t	n/a
39.0945	0.045	78189	keystroke_s	s	n/a
39.1695	0.075	78339	keystroke_Key.space	Key.space	n/a
39.3195	0.12	78639	keystroke_i	i	n/a
39.4095	0.075	78819	keystroke_n	n	n/a
39.4995	0.09	78999	keystroke_s	s	n/a
39.6945	0.045	79389	keystroke_t	t	n/a
39.8445	0.1045	79689	keystroke_r	r	n/a
39.919	0.06	79838	keystroke_u	u	n/a
40.234	0.075	80468	keystroke_m	m	n/a
40.339	0.105	80678	keystroke_e	e	n/a
40.46	0.089	80920	keystroke_n	n	n/a
40.564	0.076	81128	keystroke_t	t	n/a
40.759	0.15	81518	keystroke_a	a	n/a
40.894	0.03	81788	keystroke_l	l	n/a
41.074	0.06	82148	keystroke_Key.enter	Key.enter	n/a
41.1395	3.6275	82279	prompt	n/a	bird guns pays helena\n
41.8095	0.06	83619	keystroke_b	b	n/a
41.9295	0.09	83859	keystroke_i	i	n/a
42.0495	0.045	84099	keystroke_r	r	n/a
42.4245	0.09	84849	keystroke_d	d	n/a
42.5445	0.09	85089	keystroke_Key.space	Key.space	n/a
42.784	0.075	85568	keystroke_g	g	n/a
42.844	0.135	85688	keystroke_u	u	n/a
42.934	0.09	85868	keystroke_n	n	n/a
43.054	0.12	86108	keystroke_s	s	n/a
43.189	0.09	86378	keystroke_Key.space	Key.space	n/a
43.294	0.1055	86588	keystroke_p	p	n/a
43.384	0.0605	86768	keystroke_a	a	n/a
43.5345	0.09	87069	keystroke_y	y	n/a
43.6395	0.06	87279	keystroke_s	s	n/a
43.7145	0.075	87429	keystroke_Key.space	Key.space	n/a
43.8495	0.105	87699	keystroke_h	h	n/a
43.9395	0.075	87879	keystroke_e	e	n/a
44.0295	0.075	88059	keystroke_l	l	n/a
44.2695	0.075	88539	keystroke_e	e	n/a
44.3595	0.075	88719	keystroke_n	n	n/a
44.4945	0.09	88989	keystroke_a	a	n/a
44.6745	0.09	89349	keystroke_Key.enter	Key.enter	n/a
44.771	5.92	89542	prompt	n/a	dollar ride twins artistic\n
45.544	0.105	91088	keystroke_d	d	n/a
45.664	0.09	91328	keystroke_o	o	n/a
45.994	0.06	91988	keystroke_l	l	n/a
46.129	0.09	92258	keystroke_l	l	n/a
46.22	0.074	92440	keystroke_a	a	n/a
46.3845	0.105	92769	keystroke_r	r	n/a
46.4745	0.075	92949	keystroke_Key.space	Key.space	n/a
46.5795	0.105	93159	keystroke_r	r	n/a
46.6845	0.075	93369	keystroke_i	i	n/a
46.8045	0.09	93609	keystroke_d	d	n/a
47.0295	0.075	94059	keystroke_e	e	n/a
47.2245	0.09	94449	keystroke_Key.space	Key.space	n/a
47.3445	0.0595	94689	keystroke_w	w	n/a
47.659	0.0905	95318	keystroke_Key.backspace	Key.backspace	n/a
47.9745	0.075	95949	keystroke_t	t	n/a
48.3195	0.1205	96639	keystroke_w	w	n/a
48.47	0.06	96940	keystroke_i	i	n/a
48.635	0.075	97270	keystroke_n	n	n/a
48.755	0.09	97510	keystroke_s	s	n/a
48.875	0.09	97750	keystroke_Key.space	Key.space	n/a
49.1895	0.105	98379	keystroke_a	a	n/a
49.3845	0.0755	98769	keystroke_r	r	n/a
49.565	0.074	99130	keystroke_t	t	n/a
49.805	0.09	99610	keystroke_i	i	n/a
49.895	0.0895	99790	keystroke_s	s	n/a
50.1045	0.03	100209	keystroke_t	t	n/a
50.1945	0.0905	100389	keystroke_i	i	n/a
50.39	0.075	100780	keystroke_c	c	n/a
50.6	0.09	101200	keystroke_Key.enter	Key.enter	n/a
50.6945	4.6165	101389	prompt	n/a	panic exact colonial park\n
51.259	0.075	102518	keystroke_p	p	n/a
51.35	0.0895	102700	keystroke_a	a	n/a
51.4845	0.075	102969	keystroke_n	n	n/a
51.6345	0.09	103269	keystroke_i	i	n/a
51.7395	0.09	103479	keystroke_c	c	n/a
51.8595	0.075	103719	keystroke_Key.space	Key.space	n/a
52.1595	0.075	104319	keystroke_e	e	n/a
52.3545	0.0745	104709	keystroke_x	x	n/a
52.489	0.046	104978	keystroke_a	a	n/a
52.684	0.075	105368	keystroke_c	c	n/a
52.924	0.06	105848	keystroke_t	t	n/a
53.074	0.09	106148	keystroke_Key.space	Key.space	n/a
53.314	0.1205	106628	keystroke_c	c	n/a
53.4195	0.045	106839	keystroke_o	o	n/a
53.5695	0.06	107139	keystroke_l	l	n/a
53.7345	0.06	107469	keystroke_o	o	n/a
53.9295	0.06	107859	keystroke_n	n	n/a
54.0195	0.06	108039	keystroke_i	i	n/a
54.1245	0.105	108249	keystroke_a	a	n/a
54.2595	0.12	108519	keystroke_l	l	n/a
54.3645	0.075	108729	keystroke_Key.space	Key.space	n/a
54.619	0.09	109238	keystroke_p	p	n/a
54.679	0.09	109358	keystroke_a	a	n/a
54.874	0.075	109748	keystroke_r	r	n/a
55.009	0.09	110018	keystroke_k	k	n/a
55.234	0.075	110468	keystroke_Key.enter	Key.enter	n/a
55.332	5.379	110664	prompt	n/a	chase catherine crawford drill\n
55.8795	0.12	111759	keystroke_c	c	n/a
55.9845	0.06	111969	keystroke_h	h	n/a
56.0895	0.045	112179	keystroke_a	a	n/a
56.2395	0.09	112479	keystroke_s	s	n/a
56.3145	0.09	112629	keystroke_e	e	n/a
56.4495	0.06	112899	keystroke_Key.space	Key.space	n/a
56.6145	0.06	113229	keystroke_c	c	n/a
56.8245	0.03	113649	keystroke_a	a	n/a
56.9895	0.06	113979	keystroke_t	t	n/a
57.0645	0.09	114129	keystroke_h	h	n/a
57.1395	0.105	114279	keystroke_e	e	n/a
57.1995	0.0895	114399	keystroke_r	r	n/a
57.409	0.12	114818	keystroke_i	i	n/a
57.484	0.105	114968	keystroke_n	n	n/a
57.59	0.09	115180	keystroke_e	e	n/a
57.68	0.089	115360	keystroke_Key.space	Key.space	n/a
58.099	0.09	116198	keystroke_c	c	n/a
58.324	0.06	116648	keystroke_r	r	n/a
58.519	0.1205	117038	keystroke_a	a	n/a
58.594	0.1055	117188	keystroke_w	w	n/a
59.0445	0.075	118089	keystroke_f	f	n/a
59.1795	0.075	118359	keystroke_o	o	n/a
59.2845	0.09	118569	keystroke_r	r	n/a
59.509	0.09	119018	keystroke_d	d	n/a
59.584	0.0905	119168	keystroke_Key.space	Key.space	n/a
59.7045	0.075	119409	keystroke_d	d	n/a
59.9	0.089	119800	keystroke_r	r	n/a
59.9745	0.06	119949	keystroke_i	i	n/a
60.1395	0.045	120279	keystroke_l	l	n/a
60.2895	0.06	120579	keystroke_l	l	n/a
60.6195	0.09	121239	keystroke_Key.enter	Key.enter	n/a
60.7135	6.1475	121427	prompt	n/a	herself argue supervisor diary\n
61.4595	0.06	122919	keystroke_h	h	n/a
61.5345	0.105	123069	keystroke_e	e	n/a
61.6995	0.1045	123399	keystroke_r	r	n/a
61.879	0.09	123758	keystroke_s	s	n/a
61.939	0.105	123878	keystroke_e	e	n/a
62.119	0.075	124238	keystroke_l	l	n/a
62.374	0.015	124748	keystroke_f	f	n/a
62.404	0.075	124808	keystroke_Key.space	Key.space	n/a
62.629	0.1205	125258	keystroke_a	a	n/a
63.1245	0.09	126249	keystroke_r	r	n/a
63.3495	0.1045	126699	keystroke_g	g	n/a
63.484	0.105	126968	keystroke_u	u	n/a
63.634	0.12	127268	keystroke_e	e	n/a
63.784	0.105	127568	keystroke_Key.space	Key.space	n/a
63.949	0.12	127898	keystroke_s	s	n/a
64.264	0.06	128528	keystroke_u	u	n/a
64.474	0.075	128948	keystroke_p	p	n/a
64.594	0.06	129188	keystroke_e	e	n/a
64.609	0.09	129218	keystroke_r	r	n/a
64.984	0.105	129968	keystroke_v	v	n/a
65.104	0.075	130208	keystroke_i	i	n/a
65.329	0.105	130658	keystroke_s	s	n/a
65.419	0.0905	130838	keystroke_o	o	n/a
65.5395	0.0895	131079	keystroke_r	r	n/a
65.659	0.09	131318	keystroke_Key.space	Key.space	n/a
65.899	0.06	131798	keystroke_d	d	n/a
65.989	0.12	131978	keystroke_i	i	n/a
66.139	0.09	132278	keystroke_a	a	n/a
66.349	0.105	132698	keystroke_r	r	n/a
66.529	0.075	133058	keystroke_y	y	n/a
66.799	0.06	133598	keystroke_Key.enter	Key.enter	n/a
66.8635	5.862	133727	prompt	n/a	quantities effect honor atlanta\n
67.489	0.09	134978	keystroke_q	q	n/a
67.624	0.09	135248	keystroke_u	u	n/a
67.774	0.105	135548	keystroke_a	a	n/a
67.894	0.075	135788	keystroke_n	n	n/a
68.0745	0.0895	136149	keystroke_t	t	n/a
68.179	0.045	136358	keystroke_i	i	n/a
68.269	0.105	136538	keystroke_t	t	n/a
68.359	0.1055	136718	keystroke_i	i	n/a
68.4945	0.09	136989	keystroke_e	e	n/a
68.689	0.076	137378	keystroke_s	s	n/a
68.794	0.076	137588	keystroke_Key.space	Key.space	n/a
68.9595	0.045	137919	keystroke_e	e	n/a
69.2145	0.075	138429	keystroke_f	f	n/a
69.3495	0.075	138699	keystroke_f	f	n/a
69.7695	0.03	139539	keystroke_e	e	n/a
69.9645	0.12	139929	keystroke_c	c	n/a
70.2195	0.09	140439	keystroke_t	t	n/a
70.3395	0.075	140679	keystroke_Key.space	Key.space	n/a
70.3695	0.12	140739	keystroke_h	h	n/a
70.5345	0.15	141069	keystroke_o	o	n/a
70.6995	0.015	141399	keystroke_n	n	n/a
70.7595	0.09	141519	keystroke_o	o	n/a
70.8345	0.1045	141669	keystroke_r	r	n/a
71.164	0.06	142328	keystroke_Key.space	Key.space	n/a
71.51	0.104	143020	keystroke_a	a	n/a
71.78	0.074	143560	keystroke_t	t	n/a
71.885	0.074	143770	keystroke_l	l	n/a
71.975	0.105	143950	keystroke_a	a	n/a
72.094	0.076	144188	keystroke_n	n	n/a
72.35	0.059	144700	keystroke_t	t	n/a
72.53	0.105	145060	keystroke_a	a	n/a
72.665	0.059	145330	keystroke_Key.enter	Key.enter	n/a
72.7295	5.4415	145459	prompt	n/a	milk wine hopefully insulin\n
73.37	0.0895	146740	keystroke_m	m	n/a
73.5495	0.06	147099	keystroke_i	i	n/a
73.745	0.119	147490	keystroke_l	l	n/a
73.819	0.1055	147638	keystroke_k	k	n/a
73.9395	0.09	147879	keystroke_Key.space	Key.space	n/a
74.1195	0.09	148239	keystroke_w	w	n/a
74.2695	0.135	148539	keystroke_i	i	n/a
74.3745	0.1045	148749	keystroke_n	n	n/a
74.494	0.075	148988	keystroke_e	e	n/a
74.584	0.075	149168	keystroke_Key.space	Key.space	n/a
74.749	0.075	149498	keystroke_h	h	n/a
75.0645	0.06	150129	keystroke_p	p	n/a
75.3945	0.075	150789	keystroke_Key.backspace	Key.backspace	n/a
75.6345	0.015	151269	keystroke_o	o	n/a
75.9645	0.075	151929	keystroke_p	p	n/a
76.1145	0.075	152229	keystroke_e	e	n/a
76.3395	0.1195	152679	keystroke_f	f	n/a
76.384	0.09	152768	keystroke_u	u	n/a
76.579	0.045	153158	keystroke_l	l	n/a
76.699	0.075	153398	keystroke_l	l	n/a
76.909	0.0905	153818	keystroke_y	y	n/a
76.984	0.0905	153968	keystroke_Key.space	Key.space	n/a
77.1795	0.12	154359	keystroke_i	i	n/a
77.2395	0.105	154479	keystroke_n	n	n/a
77.3745	0.075	154749	keystroke_s	s	n/a
77.4645	0.06	154929	keystroke_u	u	n/a
77.6445	0.1195	155289	keystroke_l	l	n/a
77.779	0.06	155558	keystroke_i	i	n/a
77.899	0.09	155798	keystroke_n	n	n/a
78.064	0.105	156128	keystroke_Key.enter	Key.enter	n/a
78.178	5.003	156356	prompt	n/a	abuse newton why're conclude\n
78.664	0.135	157328	keystroke_a	a	n/a
78.814	0.06	157628	keystroke_b	b	n/a
79.024	0.09	158048	keystroke_u	u	n/a
79.099	0.18	158198	keystroke_s	s	n/a
79.234	0.105	158468	keystroke_e	e	n/a
79.354	0.0755	158708	keystroke_Key.space	Key.space	n/a
79.5345	0.105	159069	keystroke_n	n	n/a
79.6245	0.0745	159249	keystroke_e	e	n/a
79.744	0.09	159488	keystroke_w	w	n/a
80.074	0.12	160148	keystroke_t	t	n/a
80.179	0.1205	160358	keystroke_o	o	n/a
80.2695	0.09	160539	keystroke_n	n	n/a
80.3595	0.075	160719	keystroke_Key.space	Key.space	n/a
80.6	0.105	161200	keystroke_w	w	n/a
80.72	0.06	161440	keystroke_h	h	n/a
80.8845	0.0745	161769	keystroke_y	y	n/a
81.064	0.105	162128	keystroke_'	'	n/a
81.154	0.075	162308	keystroke_r	r	n/a
81.334	0.09	162668	keystroke_e	e	n/a
81.454	0.075	162908	keystroke_Key.space	Key.space	n/a
81.679	0.12	163358	keystroke_c	c	n/a
81.754	0.105	163508	keystroke_o	o	n/a
81.829	0.075	163658	keystroke_n	n	n/a
81.949	0.09	163898	keystroke_c	c	n/a
82.069	0.09	164138	keystroke_l	l	n/a
82.564	0.09	165128	keystroke_u	u	n/a
82.699	0.06	165398	keystroke_d	d	n/a
82.864	0.09	165728	keystroke_e	e	n/a
83.089	0.0905	166178	keystroke_Key.enter	Key.enter	n/a
83.184	4.7965	166368	prompt	n/a	maui hobby seeds anything\n
83.9295	0.0745	167859	keystroke_m	m	n/a
84.034	0.0905	168068	keystroke_a	a	n/a
84.3495	0.09	168699	keystroke_u	u	n/a
84.5295	0.09	169059	keystroke_i	i	n/a
84.7995	0.075	169599	keystroke_Key.space	Key.space	n/a
85.0095	0.105	170019	keystroke_h	h	n/a
85.1295	0.105	170259	keystroke_o	o	n/a
85.2795	0.06	170559	keystroke_b	b	n/a
85.3695	0.135	170739	keystroke_b	b	n/a
85.6395	0.09	171279	keystroke_y	y	n/a
85.8195	0.0905	171639	keystroke_Key.space	Key.space	n/a
85.984	0.09	171968	keystroke_s	s	n/a
86.119	0.075	172238	keystroke_e	e	n/a
86.284	0.06	172568	keystroke_e	e	n/a
86.449	0.106	172898	keystroke_d	d	n/a
86.584	0.105	173168	keystroke_s	s	n/a
86.705	0.074	173410	keystroke_Key.space	Key.space	n/a
86.809	0.105	173618	keystroke_a	a	n/a
86.884	0.075	173768	keystroke_n	n	n/a
87.05	0.0895	174100	keystroke_y	y	n/a
87.1245	0.105	174249	keystroke_t	t	n/a
87.2445	0.06	174489	keystroke_h	h	n/a
87.3945	0.12	174789	keystroke_i	i	n/a
87.4395	0.1345	174879	keystroke_n	n	n/a
87.5295	0.0895	175059	keystroke_g	g	n/a
87.874	0.105	175748	keystroke_Key.enter	Key.enter	n/a
87.984	4.5865	175968	prompt	n/a	commands began shine lynn\n
88.7145	0.135	177429	keystroke_c	c	n/a
88.8045	0.075	177609	keystroke_o	o	n/a
88.8645	0.06	177729	keystroke_m	m	n/a
88.999	0.09	177998	keystroke_m	m	n/a
89.134	0.075	178268	keystroke_a	a	n/a
89.224	0.09	178448	keystroke_n	n	n/a
89.329	0.0905	178658	keystroke_d	d	n/a
89.4795	0.105	178959	keystroke_s	s	n/a
89.6145	0.06	179229	keystroke_Key.space	Key.space	n/a
89.7645	0.09	179529	keystroke_b	b	n/a
89.8395	0.06	179679	keystroke_e	e	n/a
90.049	0.075	180098	keystroke_g	g	n/a
90.229	0.09	180458	keystroke_a	a	n/a
90.32	0.089	180640	keystroke_n	n	n/a
90.439	0.135	180878	keystroke_Key.space	Key.space	n/a
90.7695	0.135	181539	keystroke_s	s	n/a
90.8445	0.09	181689	keystroke_h	h	n/a
90.9495	0.18	181899	keystroke_i	i	n/a
91.0695	0.12	182139	keystroke_n	n	n/a
91.1895	0.06	182379	keystroke_e	e	n/a
91.2495	0.105	182499	keystroke_Key.space	Key.space	n/a
91.5045	0.09	183009	keystroke_l	l	n/a
91.8495	0.075	183699	keystroke_y	y	n/a
92.1195	0.045	184239	keystroke_n	n	n/a
92.2245	0.09	184449	keystroke_n	n	n/a
92.4945	0.075	184989	keystroke_Key.enter	Key.enter	n/a
92.573	7.6475	185146	prompt	n/a	ambassador airfare complexity estimate\n
93.1245	0.105	186249	keystroke_a	a	n/a
93.2145	0.09	186429	keystroke_m	m	n/a
93.439	0.105	186878	keystroke_b	b	n/a
93.514	0.075	187028	keystroke_a	a	n/a
93.784	0.045	187568	keystroke_s	s	n/a
93.904	0.09	187808	keystroke_s	s	n/a
94.069	0.075	188138	keystroke_a	a	n/a
94.234	0.105	188468	keystroke_d	d	n/a
94.369	0.105	188738	keystroke_o	o	n/a
94.504	0.075	189008	keystroke_r	r	n/a
94.654	0.09	189308	keystroke_Key.space	Key.space	n/a
94.759	0.09	189518	keystroke_a	a	n/a
94.894	0.105	189788	keystroke_i	i	n/a
95.029	0.09	190058	keystroke_r	r	n/a
95.359	0.06	190718	keystroke_f	f	n/a
95.524	0.105	191048	keystroke_a	a	n/a
95.719	0.09	191438	keystroke_r	r	n/a
95.914	0.075	191828	keystroke_e	e	n/a
96.109	0.09	192218	keystroke_Key.space	Key.space	n/a
96.274	0.12	192548	keystroke_c	c	n/a
96.395	0.134	192790	keystroke_o	o	n/a
96.484	0.105	192968	keystroke_m	m	n/a
96.769	0.105	193538	keystroke_p	p	n/a
96.829	0.09	193658	keystroke_l	l	n/a
96.904	0.09	193808	keystroke_e	e	n/a
97.339	0.135	194678	keystroke_x	x	n/a
97.489	0.09	194978	keystroke_i	i	n/a
97.669	0.12	195338	keystroke_t	t	n/a
97.834	0.105	195668	keystroke_y	y	n/a
97.954	0.0905	195908	keystroke_Key.space	Key.space	n/a
98.464	0.12	196928	keystroke_s	s	n/a
98.899	0.06	197798	keystroke_Key.backspace	Key.backspace	n/a
98.944	0.075	197888	keystroke_e	e	n/a
99.094	0.09	198188	keystroke_s	s	n/a
99.289	0.1055	198578	keystroke_t	t	n/a
99.379	0.1205	198758	keystroke_i	i	n/a
99.4845	0.12	198969	keystroke_m	m	n/a
99.5895	0.075	199179	keystroke_a	a	n/a
99.8295	0.075	199659	keystroke_t	t	n/a
99.9345	0.105	199869	keystroke_e	e	n/a
100.129	0.09	200258	keystroke_Key.enter	Key.enter	n/a
100.2235	6.5225	200447	prompt	n/a	handheld papua challenge swingers\n
100.849	0.0895	201698	keystroke_h	h	n/a
100.9685	0.09	201937	keystroke_a	a	n/a
101.0885	0.09	202177	keystroke_n	n	n/a
101.2085	0.091	202417	keystroke_d	d	n/a
101.464	0.09	202928	keystroke_h	h	n/a
101.614	0.105	203228	keystroke_e	e	n/a
101.734	0.075	203468	keystroke_l	l	n/a
102.109	0.105	204218	keystroke_d	d	n/a
102.439	0.09	204878	keystroke_Key.space	Key.space	n/a
102.649	0.075	205298	keystroke_p	p	n/a
102.814	0.105	205628	keystroke_a	a	n/a
103.01	0.119	206020	keystroke_p	p	n/a
103.2335	0.105	206467	keystroke_u	u	n/a
103.3685	0.0905	206737	keystroke_a	a	n/a
103.639	0.075	207278	keystroke_Key.space	Key.space	n/a
103.849	0.105	207698	keystroke_c	c	n/a
103.969	0.0605	207938	keystroke_h	h	n/a
104.044	0.1205	208088	keystroke_a	a	n/a
104.1795	0.045	208359	keystroke_l	l	n/a
104.329	0.06	208658	keystroke_l	l	n/a
104.374	0.1055	208748	keystroke_e	e	n/a
104.5245	0.0895	209049	keystroke_n	n	n/a
104.734	0.0905	209468	keystroke_g	g	n/a
104.854	0.135	209708	keystroke_e	e	n/a
105.049	0.105	210098	keystroke_Key.space	Key.space	n/a
105.4245	0.075	210849	keystroke_s	s	n/a
105.6045	0.09	211209	keystroke_w	w	n/a
105.7095	0.105	211419	keystroke_i	i	n/a
105.7995	0.105	211599	keystroke_n	n	n/a
105.8745	0.12	211749	keystroke_g	g	n/a
106.0845	0.09	212169	keystroke_e	e	n/a
106.2795	0.09	212559	keystroke_r	r	n/a
106.4745	0.105	212949	keystroke_s	s	n/a
106.6695	0.075	213339	keystroke_Key.enter	Key.enter	n/a
106.753	4.7475	213506	prompt	n/a	assuming creates rear songs\n
107.314	0.06	214628	keystroke_a	a	n/a
107.494	0.045	214988	keystroke_s	s	n/a
107.614	0.09	215228	keystroke_s	s	n/a
107.7495	0.075	215499	keystroke_u	u	n/a
107.9595	0.075	215919	keystroke_m	m	n/a
108.1095	0.09	216219	keystroke_i	i	n/a
108.1545	0.12	216309	keystroke_n	n	n/a
108.2595	0.1045	216519	keystroke_g	g	n/a
108.379	0.075	216758	keystroke_Key.space	Key.space	n/a
108.544	0.075	217088	keystroke_c	c	n/a
108.7095	0.06	217419	keystroke_r	r	n/a
108.8745	0.06	217749	keystroke_e	e	n/a
109.0095	0.105	218019	keystroke_a	a	n/a
109.2345	0.09	218469	keystroke_t	t	n/a
109.3395	0.0745	218679	keystroke_e	e	n/a
109.5345	0.105	219069	keystroke_s	s	n/a
109.8645	0.12	219729	keystroke_Key.space	Key.space	n/a
109.9395	0.09	219879	keystroke_r	r	n/a
110.1345	0.09	220269	keystroke_e	e	n/a
110.2845	0.105	220569	keystroke_a	a	n/a
110.4945	0.06	220989	keystroke_r	r	n/a
110.5695	0.09	221139	keystroke_Key.space	Key.space	n/a
110.7045	0.105	221409	keystroke_s	s	n/a
110.7945	0.135	221589	keystroke_o	o	n/a
110.8845	0.09	221769	keystroke_n	n	n/a
111.0345	0.135	222069	keystroke_g	g	n/a
111.2145	0.12	222429	keystroke_s	s	n/a
111.3795	0.1195	222759	keystroke_Key.enter	Key.enter	n/a
111.503	4.7525	223006	prompt	n/a	insurance alot graphs pockets\n
112.1145	0.119	224229	keystroke_i	i	n/a
112.2045	0.089	224409	keystroke_n	n	n/a
112.2645	0.119	224529	keystroke_s	s	n/a
112.4285	0.075	224857	keystroke_u	u	n/a
112.4885	0.106	224977	keystroke_r	r	n/a
112.6845	0.119	225369	keystroke_a	a	n/a
112.8645	0.074	225729	keystroke_n	n	n/a
112.9545	0.164	225909	keystroke_c	c	n/a
113.1035	0.106	226207	keystroke_e	e	n/a
113.2235	0.09	226447	keystroke_Key.space	Key.space	n/a
113.419	0.12	226838	keystroke_a	a	n/a
113.524	0.06	227048	keystroke_l	l	n/a
113.674	0.075	227348	keystroke_o	o	n/a
113.794	0.09	227588	keystroke_t	t	n/a
113.884	0.09	227768	keystroke_Key.space	Key.space	n/a
114.0485	0.091	228097	keystroke_g	g	n/a
114.1985	0.09	228397	keystroke_r	r	n/a
114.3935	0.075	228787	keystroke_a	a	n/a
114.4835	0.0605	228967	keystroke_p	p	n/a
114.679	0.135	229358	keystroke_s	s	n/a
114.829	0.09	229658	keystroke_Key.space	Key.space	n/a
115.009	0.06	230018	keystroke_p	p	n/a
115.219	0.09	230438	keystroke_o	o	n/a
115.354	0.1655	230708	keystroke_c	c	n/a
115.4585	0.135	230917	keystroke_k	k	n/a
115.6385	0.105	231277	keystroke_e	e	n/a
115.8035	0.091	231607	keystroke_t	t	n/a
116.0145	0.09	232029	keystroke_s	s	n/a
116.1495	0.105	232299	keystroke_Key.enter	Key.enter	n/a
116.2585	5.022	232517	prompt	n/a	wire align joan horses\n
116.9145	0.105	233829	keystroke_w	w	n/a
117.0495	0.075	234099	keystroke_i	i	n/a
117.1395	0.105	234279	keystroke_r	r	n/a
117.3345	0.0895	234669	keystroke_e	e	n/a
117.469	0.105	234938	keystroke_Key.space	Key.space	n/a
117.589	0.075	235178	keystroke_a	a	n/a
117.694	0.12	235388	keystroke_l	l	n/a
117.784	0.105	235568	keystroke_i	i	n/a
117.994	0.135	235988	keystroke_g	g	n/a
118.264	0.075	236528	keystroke_n	n	n/a
118.384	0.06	236768	keystroke_Key.space	Key.space	n/a
119.0135	0.076	238027	keystroke_j	j	n/a
119.1635	0.105	238327	keystroke_o	o	n/a
119.2835	0.106	238567	keystroke_a	a	n/a
119.4045	0.105	238809	keystroke_n	n	n/a
119.5545	0.06	239109	keystroke_Key.space	Key.space	n/a
120.2595	0.075	240519	keystroke_h	h	n/a
120.3495	0.105	240699	keystroke_o	o	n/a
120.4695	0.06	240939	keystroke_r	r	n/a
120.7545	0.135	241509	keystroke_s	s	n/a
120.8595	0.105	241719	keystroke_e	e	n/a
121.0095	0.12	242019	keystroke_s	s	n/a
121.1745	0.105	242349	keystroke_Key.enter	Key.enter	n/a
121.284	9.2515	242568	prompt	n/a	chinese semester stud resistance\n
121.849	0.135	243698	keystroke_c	c	n/a
121.954	0.075	243908	keystroke_h	h	n/a
122.224	0.09	244448	keystroke_i	i	n/a
122.254	0.105	244508	keystroke_n	n	n/a
122.36	0.119	244720	keystroke_s	s	n/a
122.464	0.09	244928	keystroke_e	e	n/a
122.644	0.0905	245288	keystroke_s	s	n/a
123.0495	0.105	246099	keystroke_Key.space	Key.space	n/a
123.499	0.045	246998	keystroke_s	s	n/a
123.784	0.045	247568	keystroke_Key.backspace	Key.backspace	n/a
123.904	0.075	247808	keystroke_Key.backspace	Key.backspace	n/a
124.0695	0.015	248139	keystroke_Key.backspace	Key.backspace	n/a
124.6545	0.045	249309	keystroke_Key.backspace	Key.backspace	n/a
124.7745	0.09	249549	keystroke_Key.backspace	Key.backspace	n/a
124.9995	0.0745	249999	keystroke_e	e	n/a
125.164	0.12	250328	keystroke_s	s	n/a
125.239	0.105	250478	keystroke_e	e	n/a
125.359	0.06	250718	keystroke_Key.space	Key.space	n/a
125.6445	0.105	251289	keystroke_s	s	n/a
125.7045	0.015	251409	keystroke_e	e	n/a
126.184	0.075	252368	keystroke_m	m	n/a
126.349	0.09	252698	keystroke_e	e	n/a
126.544	0.09	253088	keystroke_s	s	n/a
126.754	0.0305	253508	keystroke_t	t	n/a
126.934	0.18	253868	keystroke_e	e	n/a
127.069	0.105	254138	keystroke_r	r	n/a
127.264	0.09	254528	keystroke_Key.space	Key.space	n/a
127.429	0.105	254858	keystroke_s	s	n/a
127.6845	0.105	255369	keystroke_t	t	n/a
127.8345	0.09	255669	keystroke_u	u	n/a
128.1345	0.0745	256269	keystroke_d	d	n/a
128.284	0.09	256568	keystroke_Key.space	Key.space	n/a
128.734	0.075	257468	keystroke_r	r	n/a
128.884	0.0755	257768	keystroke_e	e	n/a
129.094	0.06	258188	keystroke_s	s	n/a
129.169	0.06	258338	keystroke_i	i	n/a
129.244	0.105	258488	keystroke_s	s	n/a
129.469	0.1055	258938	keystroke_t	t	n/a
129.6935	0.091	259387	keystroke_a	a	n/a
129.814	0.0745	259628	keystroke_n	n	n/a
130.0095	0.09	260019	keystroke_c	c	n/a
130.2195	0.074	260439	keystroke_e	e	n/a
130.4595	0.074	260919	keystroke_Key.enter	Key.enter	n/a
130.538	8.293	261076	prompt	n/a	firmware collective prophet guaranteed\n
131.104	0.09	262208	keystroke_f	f	n/a
131.254	0.09	262508	keystroke_i	i	n/a
131.359	0.1055	262718	keystroke_r	r	n/a
132.1995	0.0745	264399	keystroke_m	m	n/a
132.424	0.09	264848	keystroke_w	w	n/a
132.619	0.075	265238	keystroke_a	a	n/a
132.799	0.09	265598	keystroke_r	r	n/a
132.979	0.075	265958	keystroke_e	e	n/a
133.069	0.06	266138	keystroke_Key.space	Key.space	n/a
133.294	0.12	266588	keystroke_c	c	n/a
133.3995	0.0595	266799	keystroke_o	o	n/a
133.594	0.0305	267188	keystroke_l	l	n/a
133.6995	0.09	267399	keystroke_l	l	n/a
133.7295	0.09	267459	keystroke_e	e	n/a
133.9245	0.075	267849	keystroke_c	c	n/a
134.1345	0.075	268269	keystroke_t	t	n/a
134.2995	0.06	268599	keystroke_i	i	n/a
134.3745	0.15	268749	keystroke_v	v	n/a
134.4945	0.105	268989	keystroke_e	e	n/a
134.6295	0.09	269259	keystroke_Key.space	Key.space	n/a
134.884	0.075	269768	keystroke_p	p	n/a
135.094	0.105	270188	keystroke_r	r	n/a
135.2	0.074	270400	keystroke_o	o	n/a
135.7095	0.075	271419	keystroke_p	p	n/a
135.8595	0.09	271719	keystroke_h	h	n/a
136.0245	0.105	272049	keystroke_e	e	n/a
136.3695	0.105	272739	keystroke_t	t	n/a
136.5195	0.09	273039	keystroke_Key.space	Key.space	n/a
136.8945	0.12	273789	keystroke_g	g	n/a
137.0445	0.06	274089	keystroke_u	u	n/a
137.1345	0.104	274269	keystroke_a	a	n/a
137.3295	0.06	274659	keystroke_r	r	n/a
137.479	0.0905	274958	keystroke_a	a	n/a
137.599	0.09	275198	keystroke_n	n	n/a
137.824	0.03	275648	keystroke_t	t	n/a
137.9295	0.0895	275859	keystroke_e	e	n/a
138.0945	0.0595	276189	keystroke_e	e	n/a
138.304	0.1055	276608	keystroke_d	d	n/a
138.739	0.09	277478	keystroke_Key.enter	Key.enter	n/a
138.8345	6.176	277669	prompt	n/a	machine poland spectacular cite\n
139.3985	0.09	278797	keystroke_m	m	n/a
139.504	0.0605	279008	keystroke_a	a	n/a
139.6385	0.1205	279277	keystroke_c	c	n/a
139.744	0.0605	279488	keystroke_h	h	n/a
139.879	0.1045	279758	keystroke_i	i	n/a
139.9235	0.09	279847	keystroke_n	n	n/a
140.0145	0.104	280029	keystroke_e	e	n/a
140.1635	0.09	280327	keystroke_Key.space	Key.space	n/a
140.5685	0.1355	281137	keystroke_p	p	n/a
140.689	0.075	281378	keystroke_o	o	n/a
140.929	0.105	281858	keystroke_l	l	n/a
141.064	0.12	282128	keystroke_a	a	n/a
141.229	0.075	282458	keystroke_n	n	n/a
141.334	0.1055	282668	keystroke_d	d	n/a
141.4995	0.105	282999	keystroke_Key.space	Key.space	n/a
141.7245	0.135	283449	keystroke_s	s	n/a
141.8295	0.09	283659	keystroke_p	p	n/a
141.9345	0.045	283869	keystroke_e	e	n/a
142.1145	0.09	284229	keystroke_c	c	n/a
142.4295	0.06	284859	keystroke_t	t	n/a
142.5945	0.075	285189	keystroke_a	a	n/a
143.0595	0.1045	286119	keystroke_c	c	n/a
143.179	0.045	286358	keystroke_u	u	n/a
143.344	0.1055	286688	keystroke_l	l	n/a
143.419	0.0905	286838	keystroke_a	a	n/a
143.8995	0.09	287799	keystroke_r	r	n/a
144.1095	0.09	288219	keystroke_Key.space	Key.space	n/a
144.2445	0.12	288489	keystroke_c	c	n/a
144.4095	0.09	288819	keystroke_i	i	n/a
144.5445	0.105	289089	keystroke_t	t	n/a
144.7395	0.075	289479	keystroke_e	e	n/a
144.9045	0.105	289809	keystroke_Key.enter	Key.enter	n/a
145.0145	8.051	290029	prompt	n/a	edinburgh lamps spanish cutting\n
145.6095	0.09	291219	keystroke_e	e	n/a
145.8195	0.1345	291639	keystroke_d	d	n/a
145.939	0.12	291878	keystroke_i	i	n/a
146.089	0.075	292178	keystroke_n	n	n/a
146.374	0.06	292748	keystroke_b	b	n/a
146.509	0.12	293018	keystroke_u	u	n/a
146.644	0.075	293288	keystroke_r	r	n/a
146.824	0.12	293648	keystroke_g	g	n/a
147.109	0.045	294218	keystroke_Key.space	Key.space	n/a
148.009	0.075	296018	keystroke_l	l	n/a
148.129	0.135	296258	keystroke_a	a	n/a
148.219	0.09	296438	keystroke_m	m	n/a
148.864	0.045	297728	keystroke_Key.backspace	Key.backspace	n/a
148.999	0.045	297998	keystroke_Key.backspace	Key.backspace	n/a
149.179	0.045	298358	keystroke_Key.backspace	Key.backspace	n/a
149.3295	0.0745	298659	keystroke_Key.backspace	Key.backspace	n/a
149.674	0.09	299348	keystroke_h	h	n/a
149.839	0.06	299678	keystroke_Key.space	Key.space	n/a
150.034	0.09	300068	keystroke_l	l	n/a
150.139	0.12	300278	keystroke_a	a	n/a
150.244	0.09	300488	keystroke_m	m	n/a
150.394	0.09	300788	keystroke_p	p	n/a
150.499	0.105	300998	keystroke_s	s	n/a
150.634	0.075	301268	keystroke_Key.space	Key.space	n/a
150.799	0.135	301598	keystroke_s	s	n/a
150.919	0.105	301838	keystroke_p	p	n/a
151.054	0.12	302108	keystroke_a	a	n/a
151.189	0.075	302378	keystroke_n	n	n/a
151.309	0.12	302618	keystroke_i	i	n/a
151.459	0.12	302918	keystroke_s	s	n/a
151.534	0.09	303068	keystroke_h	h	n/a
151.624	0.075	303248	keystroke_Key.space	Key.space	n/a
151.684	0.06	303368	keystroke_s	s	n/a
152.074	0.06	304148	keystroke_Key.backspace	Key.backspace	n/a
152.119	0.12	304238	keystroke_c	c	n/a
152.284	0.09	304568	keystroke_u	u	n/a
152.389	0.076	304778	keystroke_t	t	n/a
152.524	0.09	305048	keystroke_t	t	n/a
152.644	0.1205	305288	keystroke_i	i	n/a
152.7345	0.075	305469	keystroke_n	n	n/a
152.7795	0.09	305559	keystroke_g	g	n/a
152.9745	0.09	305949	keystroke_Key.enter	Key.enter	n/a
153.069	6.3865	306138	prompt	n/a	advantage crisis reverse admissions\n
153.6645	0.075	307329	keystroke_a	a	n/a
153.8445	0.06	307689	keystroke_d	d	n/a
153.9945	0.105	307989	keystroke_v	v	n/a
154.1445	0.12	308289	keystroke_a	a	n/a
154.2645	0.075	308529	keystroke_n	n	n/a
154.5645	0.09	309129	keystroke_t	t	n/a
154.7895	0.075	309579	keystroke_a	a	n/a
155.0445	0.135	310089	keystroke_g	g	n/a
155.2845	0.075	310569	keystroke_e	e	n/a
155.4045	0.09	310809	keystroke_Key.space	Key.space	n/a
155.5995	0.09	311199	keystroke_c	c	n/a
155.7645	0.09	311529	keystroke_r	r	n/a
155.8845	0.075	311769	keystroke_i	i	n/a
155.9895	0.0895	311979	keystroke_s	s	n/a
156.154	0.09	312308	keystroke_i	i	n/a
156.229	0.045	312458	keystroke_s	s	n/a
156.529	0.105	313058	keystroke_Key.space	Key.space	n/a
156.694	0.09	313388	keystroke_r	r	n/a
156.859	0.06	313718	keystroke_e	e	n/a
157.024	0.12	314048	keystroke_v	v	n/a
157.189	0.21	314378	keystroke_e	e	n/a
157.354	0.075	314708	keystroke_r	r	n/a
157.549	0.165	315098	keystroke_s	s	n/a
157.669	0.09	315338	keystroke_e	e	n/a
157.999	0.105	315998	keystroke_Key.space	Key.space	n/a
158.105	0.1045	316210	keystroke_a	a	n/a
158.2995	0.075	316599	keystroke_d	d	n/a
158.3895	0.06	316779	keystroke_m	m	n/a
158.5245	0.075	317049	keystroke_i	i	n/a
158.5845	0.075	317169	keystroke_s	s	n/a
158.7195	0.12	317439	keystroke_s	s	n/a
158.7945	0.135	317589	keystroke_i	i	n/a
158.8845	0.09	317769	keystroke_o	o	n/a
158.8995	0.135	317799	keystroke_n	n	n/a
159.0045	0.105	318009	keystroke_s	s	n/a
159.3645	0.09	318729	keystroke_Key.enter	Key.enter	n/a
159.4585	4.437	318917	prompt	n/a	of gift bike constraints\n
160.114	0.105	320228	keystroke_o	o	n/a
160.249	0.12	320498	keystroke_f	f	n/a
160.384	0.06	320768	keystroke_Key.space	Key.space	n/a
160.699	0.015	321398	keystroke_g	g	n/a
160.819	0.0605	321638	keystroke_i	i	n/a
161.0295	0.09	322059	keystroke_f	f	n/a
161.2845	0.12	322569	keystroke_t	t	n/a
161.4195	0.105	322839	keystroke_Key.space	Key.space	n/a
161.5545	0.09	323109	keystroke_b	b	n/a
161.7195	0.06	323439	keystroke_i	i	n/a
161.8995	0.075	323799	keystroke_k	k	n/a
161.9745	0.09	323949	keystroke_e	e	n/a
162.0945	0.09	324189	keystroke_Key.space	Key.space	n/a
162.2295	0.1195	324459	keystroke_c	c	n/a
162.319	0.09	324638	keystroke_o	o	n/a
162.394	0.075	324788	keystroke_n	n	n/a
162.499	0.15	324998	keystroke_s	s	n/a
162.829	0.015	325658	keystroke_t	t	n/a
162.904	0.075	325808	keystroke_r	r	n/a
163.084	0.075	326168	keystroke_a	a	n/a
163.129	0.12	326258	keystroke_i	i	n/a
163.294	0.09	326588	keystroke_n	n	n/a
163.4595	0.075	326919	keystroke_t	t	n/a
163.6545	0.09	327309	keystroke_s	s	n/a
163.819	0.075	327638	keystroke_Key.enter	Key.enter	n/a
163.9175	8.618	327835	prompt	n/a	industrial illustration dead wizard\n
164.569	0.075	329138	keystroke_i	i	n/a
164.704	0.12	329408	keystroke_n	n	n/a
164.854	0.12	329708	keystroke_s	s	n/a
165.184	0.06	330368	keystroke_u	u	n/a
165.469	0.06	330938	keystroke_Key.backspace	Key.backspace	n/a
165.589	0.09	331178	keystroke_Key.backspace	Key.backspace	n/a
165.68	0.0735	331360	keystroke_d	d	n/a
165.7835	0.105	331567	keystroke_u	u	n/a
166.1135	0.075	332227	keystroke_s	s	n/a
166.354	0.06	332708	keystroke_t	t	n/a
166.519	0.075	333038	keystroke_r	r	n/a
166.64	0.074	333280	keystroke_i	i	n/a
166.819	0.09	333638	keystroke_a	a	n/a
166.864	0.0745	333728	keystroke_l	l	n/a
167.0435	0.15	334087	keystroke_l	l	n/a
167.241	0.103	334482	keystroke_Key.space	Key.space	n/a
167.914	0.03	335828	keystroke_Key.backspace	Key.backspace	n/a
168.019	0.075	336038	keystroke_Key.backspace	Key.backspace	n/a
168.154	0.1045	336308	keystroke_Key.space	Key.space	n/a
168.319	0.075	336638	keystroke_i	i	n/a
168.499	0.075	336998	keystroke_l	l	n/a
168.634	0.09	337268	keystroke_l	l	n/a
168.814	0.105	337628	keystroke_u	u	n/a
168.934	0.09	337868	keystroke_s	s	n/a
169.28	0.059	338560	keystroke_t	t	n/a
169.4445	0.09	338889	keystroke_r	r	n/a
169.6545	0.0895	339309	keystroke_a	a	n/a
169.9095	0.1045	339819	keystroke_t	t	n/a
170.029	0.15	340058	keystroke_i	i	n/a
170.119	0.105	340238	keystroke_o	o	n/a
170.164	0.1205	340328	keystroke_n	n	n/a
170.3445	0.075	340689	keystroke_Key.space	Key.space	n/a
170.4945	0.09	340989	keystroke_d	d	n/a
170.6895	0.075	341379	keystroke_e	e	n/a
170.8245	0.09	341649	keystroke_a	a	n/a
171.0045	0.06	342009	keystroke_d	d	n/a
171.0795	0.09	342159	keystroke_Key.space	Key.space	n/a
171.1995	0.105	342399	keystroke_w	w	n/a
171.3495	0.0745	342699	keystroke_i	i	n/a
171.514	0.135	343028	keystroke_z	z	n/a
171.7695	0.075	343539	keystroke_a	a	n/a
171.9945	0.075	343989	keystroke_r	r	n/a
172.1745	0.09	344349	keystroke_d	d	n/a
172.4295	0.104	344859	keystroke_Key.enter	Key.enter	n/a
172.54	7.9605	345080	prompt	n/a	problems pierre integrity treasure\n
173.1945	0.09	346389	keystroke_p	p	n/a
173.3445	0.1045	346689	keystroke_r	r	n/a
173.464	0.045	346928	keystroke_o	o	n/a
173.734	0.06	347468	keystroke_b	b	n/a
173.854	0.105	347708	keystroke_l	l	n/a
173.944	0.09	347888	keystroke_e	e	n/a
174.244	0.09	348488	keystroke_m	m	n/a
174.379	0.06	348758	keystroke_s	s	n/a
174.484	0.06	348968	keystroke_Key.space	Key.space	n/a
174.664	0.1355	349328	keystroke_p	p	n/a
174.7845	0.105	349569	keystroke_i	i	n/a
174.9045	0.075	349809	keystroke_e	e	n/a
175.2495	0.12	350499	keystroke_r	r	n/a
175.429	0.075	350858	keystroke_r	r	n/a
175.744	0.105	351488	keystroke_e	e	n/a
175.9235	0.09	351847	keystroke_Key.space	Key.space	n/a
176.3135	0.135	352627	keystroke_i	i	n/a
176.4035	0.151	352807	keystroke_n	n	n/a
176.7795	0.0895	353559	keystroke_g	g	n/a
177.169	0.075	354338	keystroke_Key.backspace	Key.backspace	n/a
177.229	0.09	354458	keystroke_t	t	n/a
177.424	0.09	354848	keystroke_e	e	n/a
177.769	0.09	355538	keystroke_g	g	n/a
177.979	0.09	355958	keystroke_r	r	n/a
178.084	0.075	356168	keystroke_i	i	n/a
178.309	0.105	356618	keystroke_t	t	n/a
178.459	0.105	356918	keystroke_y	y	n/a
178.6395	0.06	357279	keystroke_Key.space	Key.space	n/a
178.8645	0.105	357729	keystroke_t	t	n/a
179.0895	0.06	358179	keystroke_r	r	n/a
179.2545	0.09	358509	keystroke_e	e	n/a
179.6295	0.09	359259	keystroke_a	a	n/a
179.8395	0.105	359679	keystroke_s	s	n/a
179.9295	0.09	359859	keystroke_u	u	n/a
180.0495	0.09	360099	keystroke_r	r	n/a
180.2445	0.075	360489	keystroke_e	e	n/a
180.4245	0.075	360849	keystroke_Key.enter	Key.enter	n/a
180.503	5.6675	361006	prompt	n/a	dock steal phoenix topics\n
181.0845	0.12	362169	keystroke_d	d	n/a
181.3395	0.045	362679	keystroke_i	i	n/a
181.774	0.075	363548	keystroke_Key.backspace	Key.backspace	n/a
181.984	0.09	363968	keystroke_o	o	n/a
182.104	0.105	364208	keystroke_c	c	n/a
182.224	0.105	364448	keystroke_k	k	n/a
182.33	0.089	364660	keystroke_Key.space	Key.space	n/a
182.494	0.09	364988	keystroke_s	s	n/a
182.689	0.075	365378	keystroke_t	t	n/a
182.914	0.075	365828	keystroke_e	e	n/a
183.094	0.09	366188	keystroke_a	a	n/a
183.185	0.1195	366370	keystroke_l	l	n/a
183.2745	0.09	366549	keystroke_Key.space	Key.space	n/a
183.6045	0.06	367209	keystroke_p	p	n/a
183.7695	0.09	367539	keystroke_h	h	n/a
183.9195	0.105	367839	keystroke_o	o	n/a
184.0095	0.1045	368019	keystroke_e	e	n/a
184.249	0.06	368498	keystroke_n	n	n/a
184.369	0.075	368738	keystroke_i	i	n/a
184.474	0.15	368948	keystroke_x	x	n/a
184.639	0.0605	369278	keystroke_Key.space	Key.space	n/a
184.9095	0.12	369819	keystroke_t	t	n/a
185.0445	0.135	370089	keystroke_o	o	n/a
185.1945	0.09	370389	keystroke_p	p	n/a
185.4495	0.075	370899	keystroke_i	i	n/a
185.6595	0.135	371319	keystroke_c	c	n/a
185.9145	0.075	371829	keystroke_s	s	n/a
186.0945	0.075	372189	keystroke_Key.enter	Key.enter	n/a
186.1755	5.56	372351	prompt	n/a	science minolta goes components\n
186.7395	0.0745	373479	keystroke_s	s	n/a
186.919	0.12	373838	keystroke_c	c	n/a
187.054	0.06	374108	keystroke_i	i	n/a
187.234	0.06	374468	keystroke_e	e	n/a
187.369	0.0755	374738	keystroke_n	n	n/a
187.4595	0.12	374919	keystroke_c	c	n/a
187.6095	0.105	375219	keystroke_e	e	n/a
187.7295	0.09	375459	keystroke_Key.space	Key.space	n/a
187.9395	0.09	375879	keystroke_m	m	n/a
188.149	0.06	376298	keystroke_i	i	n/a
188.359	0.075	376718	keystroke_n	n	n/a
188.554	0.075	377108	keystroke_o	o	n/a
188.734	0.105	377468	keystroke_l	l	n/a
188.854	0.12	377708	keystroke_t	t	n/a
189.109	0.105	378218	keystroke_a	a	n/a
189.229	0.06	378458	keystroke_Key.space	Key.space	n/a
189.394	0.0895	378788	keystroke_g	g	n/a
189.5145	0.075	379029	keystroke_o	o	n/a
189.6045	0.09	379209	keystroke_e	e	n/a
189.799	0.075	379598	keystroke_s	s	n/a
189.9035	0.0905	379807	keystroke_Key.space	Key.space	n/a
190.0985	0.1205	380197	keystroke_c	c	n/a
190.234	0.09	380468	keystroke_o	o	n/a
190.294	0.0745	380588	keystroke_m	m	n/a
190.474	0.075	380948	keystroke_p	p	n/a
190.6835	0.12	381367	keystroke_o	o	n/a
190.9085	0.075	381817	keystroke_n	n	n/a
191.0435	0.075	382087	keystroke_e	e	n/a
191.1195	0.074	382239	keystroke_n	n	n/a
191.2235	0.105	382447	keystroke_t	t	n/a
191.4635	0.09	382927	keystroke_s	s	n/a
191.6585	0.075	383317	keystroke_Key.enter	Key.enter	n/a
191.738	8.3525	383476	prompt	n/a	manufacturer exit tsunami groundwater\n
192.5745	0.0895	385149	keystroke_m	m	n/a
192.769	0.12	385538	keystroke_a	a	n/a
192.904	0.075	385808	keystroke_n	n	n/a
193.129	0.105	386258	keystroke_u	u	n/a
193.504	0.09	387008	keystroke_f	f	n/a
193.699	0.075	387398	keystroke_a	a	n/a
193.894	0.106	387788	keystroke_c	c	n/a
194.149	0.075	388298	keystroke_t	t	n/a
194.269	0.09	388538	keystroke_u	u	n/a
194.389	0.075	388778	keystroke_r	r	n/a
194.614	0.075	389228	keystroke_e	e	n/a
194.794	0.075	389588	keystroke_r	r	n/a
194.899	0.105	389798	keystroke_Key.space	Key.space	n/a
195.139	0.045	390278	keystroke_e	e	n/a
195.319	0.12	390638	keystroke_x	x	n/a
195.454	0.09	390908	keystroke_i	i	n/a
195.619	0.09	391238	keystroke_t	t	n/a
195.739	0.09	391478	keystroke_Key.space	Key.space	n/a
196.024	0.09	392048	keystroke_t	t	n/a
196.264	0.105	392528	keystroke_s	s	n/a
196.654	0.06	393308	keystroke_u	u	n/a
196.879	0.09	393758	keystroke_n	n	n/a
196.999	0.105	393998	keystroke_a	a	n/a
197.119	0.075	394238	keystroke_m	m	n/a
197.494	0.075	394988	keystroke_i	i	n/a
197.629	0.075	395258	keystroke_Key.space	Key.space	n/a
197.944	0.09	395888	keystroke_g	g	n/a
198.289	0.12	396578	keystroke_r	r	n/a
198.529	0.09	397058	keystroke_o	o	n/a
198.574	0.075	397148	keystroke_u	u	n/a
198.769	0.09	397538	keystroke_n	n	n/a
198.844	0.09	397688	keystroke_d	d	n/a
199.1885	0.06	398377	keystroke_w	w	n/a
199.3385	0.09	398677	keystroke_a	a	n/a
199.5635	0.075	399127	keystroke_t	t	n/a
199.7435	0.09	399487	keystroke_e	e	n/a
199.7885	0.09	399577	keystroke_r	r	n/a
199.9835	0.105	399967	keystroke_Key.enter	Key.enter	n/a
200.0935	8.427	400187	prompt	n/a	advertiser tokyo publicity instrumentation\n
200.719	0.0595	401438	keystroke_a	a	n/a
200.9285	0.075	401857	keystroke_d	d	n/a
201.1085	0.105	402217	keystroke_v	v	n/a
201.3035	0.0905	402607	keystroke_e	e	n/a
201.3485	0.0905	402697	keystroke_r	r	n/a
201.559	0.075	403118	keystroke_t	t	n/a
201.649	0.09	403298	keystroke_i	i	n/a
201.859	0.105	403718	keystroke_s	s	n/a
202.129	0.105	404258	keystroke_e	e	n/a
202.174	0.09	404348	keystroke_r	r	n/a
202.3685	0.09	404737	keystroke_Key.space	Key.space	n/a
202.6085	0.105	405217	keystroke_t	t	n/a
202.7285	0.061	405457	keystroke_o	o	n/a
203.1485	0.105	406297	keystroke_k	k	n/a
203.3735	0.0905	406747	keystroke_y	y	n/a
203.569	0.105	407138	keystroke_o	o	n/a
203.749	0.09	407498	keystroke_Key.space	Key.space	n/a
204.034	0.075	408068	keystroke_p	p	n/a
204.2435	0.03	408487	keystroke_u	u	n/a
204.4835	0.0755	408967	keystroke_b	b	n/a
204.7995	0.06	409599	keystroke_l	l	n/a
204.9645	0.09	409929	keystroke_i	i	n/a
205.3095	0.1045	410619	keystroke_c	c	n/a
205.399	0.09	410798	keystroke_i	i	n/a
205.579	0.06	411158	keystroke_t	t	n/a
205.699	0.12	411398	keystroke_y	y	n/a
205.864	0.075	411728	keystroke_Key.space	Key.space	n/a
206.224	0.105	412448	keystroke_i	i	n/a
206.269	0.09	412538	keystroke_n	n	n/a
206.359	0.105	412718	keystroke_s	s	n/a
206.569	0.06	413138	keystroke_t	t	n/a
206.764	0.09	413528	keystroke_r	r	n/a
206.914	0.105	413828	keystroke_u	u	n/a
207.184	0.09	414368	keystroke_m	m	n/a
207.289	0.075	414578	keystroke_e	e	n/a
207.4095	0.075	414819	keystroke_n	n	n/a
207.4995	0.075	414999	keystroke_t	t	n/a
207.6945	0.075	415389	keystroke_a	a	n/a
207.9045	0.045	415809	keystroke_t	t	n/a
207.9345	0.165	415869	keystroke_i	i	n/a
208.0395	0.12	416079	keystroke_o	o	n/a
208.0845	0.105	416169	keystroke_n	n	n/a
208.4445	0.075	416889	keystroke_Key.enter	Key.enter	n/a
208.531	6.4245	417062	prompt	n/a	speak scared charging features\n
208.9995	0.075	417999	keystroke_a	a	n/a
209.4195	0.06	418839	keystroke_Key.backspace	Key.backspace	n/a
209.4945	0.09	418989	keystroke_s	s	n/a
209.6595	0.06	419319	keystroke_p	p	n/a
209.7795	0.06	419559	keystroke_e	e	n/a
209.9445	0.075	419889	keystroke_a	a	n/a
210.0495	0.075	420099	keystroke_k	k	n/a
210.1095	0.12	420219	keystroke_Key.space	Key.space	n/a
210.319	0.105	420638	keystroke_s	s	n/a
210.484	0.09	420968	keystroke_c	c	n/a
210.649	0.09	421298	keystroke_a	a	n/a
210.859	0.075	421718	keystroke_r	r	n/a
211.039	0.06	422078	keystroke_e	e	n/a
211.264	0.075	422528	keystroke_d	d	n/a
211.4295	0.09	422859	keystroke_Key.space	Key.space	n/a
211.6845	0.09	423369	keystroke_c	c	n/a
211.8045	0.075	423609	keystroke_h	h	n/a
211.9095	0.075	423819	keystroke_a	a	n/a
212.0895	0.045	424179	keystroke_r	r	n/a
212.2545	0.09	424509	keystroke_g	g	n/a
212.3745	0.09	424749	keystroke_i	i	n/a
212.4495	0.09	424899	keystroke_n	n	n/a
212.5545	0.075	425109	keystroke_g	g	n/a
212.6445	0.0745	425289	keystroke_Key.space	Key.space	n/a
212.8385	0.09	425677	keystroke_f	f	n/a
213.3035	0.045	426607	keystroke_a	a	n/a
213.679	0.06	427358	keystroke_Key.backspace	Key.backspace	n/a
213.724	0.09	427448	keystroke_e	e	n/a
213.874	0.09	427748	keystroke_a	a	n/a
214.084	0.0905	428168	keystroke_t	t	n/a
214.204	0.09	428408	keystroke_u	u	n/a
214.294	0.09	428588	keystroke_r	r	n/a
214.459	0.09	428918	keystroke_e	e	n/a
214.654	0.1045	429308	keystroke_s	s	n/a
214.8485	0.105	429697	keystroke_Key.enter	Key.enter	n/a
214.9585	6.402	429917	prompt	n/a	upgrading evaluated perception manage\n
215.6595	0.1045	431319	keystroke_u	u	n/a
215.869	0.105	431738	keystroke_p	p	n/a
216.139	0.09	432278	keystroke_g	g	n/a
216.304	0.09	432608	keystroke_r	r	n/a
216.499	0.06	432998	keystroke_a	a	n/a
216.664	0.075	433328	keystroke_d	d	n/a
216.784	0.1045	433568	keystroke_i	i	n/a
216.8585	0.09	433717	keystroke_n	n	n/a
216.9185	0.12	433837	keystroke_g	g	n/a
217.0535	0.09	434107	keystroke_Key.space	Key.space	n/a
217.2635	0.075	434527	keystroke_e	e	n/a
217.4735	0.09	434947	keystroke_v	v	n/a
217.6385	0.135	435277	keystroke_a	a	n/a
217.7435	0.06	435487	keystroke_l	l	n/a
217.9385	0.075	435877	keystroke_u	u	n/a
217.9985	0.105	435997	keystroke_a	a	n/a
218.2535	0.06	436507	keystroke_t	t	n/a
218.3735	0.09	436747	keystroke_e	e	n/a
218.5535	0.09	437107	keystroke_d	d	n/a
218.629	0.0595	437258	keystroke_Key.space	Key.space	n/a
218.7335	0.105	437467	keystroke_p	p	n/a
218.8235	0.1055	437647	keystroke_e	e	n/a
218.884	0.105	437768	keystroke_r	r	n/a
219.1845	0.075	438369	keystroke_c	c	n/a
219.3645	0.075	438729	keystroke_e	e	n/a
219.5445	0.06	439089	keystroke_p	p	n/a
219.6345	0.105	439269	keystroke_t	t	n/a
219.769	0.195	439538	keystroke_i	i	n/a
219.919	0.195	439838	keystroke_o	o	n/a
220.069	0.09	440138	keystroke_n	n	n/a
220.174	0.105	440348	keystroke_Key.space	Key.space	n/a
220.3095	0.09	440619	keystroke_m	m	n/a
220.4295	0.105	440859	keystroke_a	a	n/a
220.5495	0.06	441099	keystroke_n	n	n/a
220.6105	0.089	441221	keystroke_a	a	n/a
220.909	0.03	441818	keystroke_g	g	n/a
221.044	0.12	442088	keystroke_e	e	n/a
221.2995	0.06	442599	keystroke_Key.enter	Key.enter	n/a
221.363	5.9975	442726	prompt	n/a	forest speaker equipped journalism\n
221.9745	0.134	443949	keystroke_f	f	n/a
222.0945	0.074	444189	keystroke_o	o	n/a
222.2135	0.075	444427	keystroke_r	r	n/a
222.3635	0.09	444727	keystroke_e	e	n/a
222.6185	0.09	445237	keystroke_s	s	n/a
222.8585	0.06	445717	keystroke_t	t	n/a
222.9485	0.09	445897	keystroke_Key.space	Key.space	n/a
223.0835	0.076	446167	keystroke_s	s	n/a
223.1735	0.06	446347	keystroke_p	p	n/a
223.2345	0.074	446469	keystroke_e	e	n/a
223.399	0.045	446798	keystroke_a	a	n/a
223.5035	0.075	447007	keystroke_k	k	n/a
223.6535	0.105	447307	keystroke_e	e	n/a
223.7135	0.09	447427	keystroke_r	r	n/a
223.8185	0.09	447637	keystroke_Key.space	Key.space	n/a
224.1485	0.075	448297	keystroke_e	e	n/a
224.314	0.09	448628	keystroke_q	q	n/a
224.419	0.15	448838	keystroke_u	u	n/a
224.539	0.09	449078	keystroke_i	i	n/a
224.764	0.045	449528	keystroke_p	p	n/a
224.899	0.075	449798	keystroke_p	p	n/a
224.944	0.09	449888	keystroke_e	e	n/a
225.154	0.075	450308	keystroke_d	d	n/a
225.259	0.075	450518	keystroke_Key.space	Key.space	n/a
225.604	0.09	451208	keystroke_j	j	n/a
225.769	0.075	451538	keystroke_o	o	n/a
225.829	0.045	451658	keystroke_u	u	n/a
225.979	0.12	451958	keystroke_r	r	n/a
226.204	0.075	452408	keystroke_n	n	n/a
226.294	0.09	452588	keystroke_a	a	n/a
226.399	0.06	452798	keystroke_l	l	n/a
226.594	0.06	453188	keystroke_i	i	n/a
226.699	0.09	453398	keystroke_s	s	n/a
226.8495	0.075	453699	keystroke_m	m	n/a
227.2545	0.105	454509	keystroke_Key.enter	Key.enter	n/a
227.363	10.3475	454726	prompt	n/a	bestsellers worcester immigrants anytime\n
228.0195	0.075	456039	keystroke_b	b	n/a
228.0795	0.09	456159	keystroke_e	e	n/a
228.2445	0.1045	456489	keystroke_s	s	n/a
228.454	0.06	456908	keystroke_t	t	n/a
228.634	0.105	457268	keystroke_s	s	n/a
229.0845	0.12	458169	keystroke_e	e	n/a
229.2345	0.045	458469	keystroke_l	l	n/a
229.3845	0.0745	458769	keystroke_l	l	n/a
229.444	0.075	458888	keystroke_e	e	n/a
229.609	0.06	459218	keystroke_r	r	n/a
229.789	0.075	459578	keystroke_s	s	n/a
229.894	0.09	459788	keystroke_Key.space	Key.space	n/a
230.059	0.105	460118	keystroke_w	w	n/a
230.149	0.105	460298	keystroke_o	o	n/a
230.359	0.09	460718	keystroke_r	r	n/a
230.749	0.105	461498	keystroke_c	c	n/a
230.944	0.135	461888	keystroke_e	e	n/a
231.184	0.09	462368	keystroke_s	s	n/a
231.364	0.06	462728	keystroke_t	t	n/a
231.514	0.09	463028	keystroke_e	e	n/a
231.559	0.105	463118	keystroke_r	r	n/a
231.769	0.075	463538	keystroke_Key.space	Key.space	n/a
231.919	0.09	463838	keystroke_i	i	n/a
232.054	0.075	464108	keystroke_m	m	n/a
232.204	0.075	464408	keystroke_m	m	n/a
232.609	0.09	465218	keystroke_i	i	n/a
233.089	0.105	466178	keystroke_g	g	n/a
233.344	0.015	466688	keystroke_r	r	n/a
233.7785	0.121	467557	keystroke_a	a	n/a
234.0485	0.06	468097	keystroke_n	n	n/a
234.2435	0.1055	468487	keystroke_c	c	n/a
235.039	0.045	470078	keystroke_Key.backspace	Key.backspace	n/a
235.129	0.09	470258	keystroke_t	t	n/a
235.339	0.09	470678	keystroke_s	s	n/a
235.759	0.1055	471518	keystroke_Key.space	Key.space	n/a
236.0295	0.06	472059	keystroke_s	s	n/a
236.1945	0.09	472389	keystroke_n	n	n/a
236.4495	0.045	472899	keystroke_Key.backspace	Key.backspace	n/a
236.5545	0.075	473109	keystroke_Key.backspace	Key.backspace	n/a
236.6295	0.105	473259	keystroke_a	a	n/a
236.7495	0.075	473499	keystroke_n	n	n/a
236.9295	0.0745	473859	keystroke_y	y	n/a
237.064	0.12	474128	keystroke_t	t	n/a
237.229	0.135	474458	keystroke_i	i	n/a
237.319	0.09	474638	keystroke_m	m	n/a
237.439	0.075	474878	keystroke_e	e	n/a
237.634	0.075	475268	keystroke_Key.enter	Key.enter	n/a
237.722	8.6285	475444	prompt	n/a	jersey bundle foundations southwest\n
238.264	0.075	476528	keystroke_j	j	n/a
238.354	0.135	476708	keystroke_e	e	n/a
238.534	0.045	477068	keystroke_e	e	n/a
238.549	0.12	477098	keystroke_r	r	n/a
238.789	0.135	477578	keystroke_s	s	n/a
238.879	0.135	477758	keystroke_e	e	n/a
239.3895	0.075	478779	keystroke_Key.backspace	Key.backspace	n/a
239.5545	0.06	479109	keystroke_Key.backspace	Key.backspace	n/a
239.7045	0.06	479409	keystroke_Key.backspace	Key.backspace	n/a
239.8545	0.06	479709	keystroke_Key.backspace	Key.backspace	n/a
240.094	0.09	480188	keystroke_r	r	n/a
240.319	0.12	480638	keystroke_s	s	n/a
240.394	0.105	480788	keystroke_e	e	n/a
240.574	0.105	481148	keystroke_y	y	n/a
240.709	0.09	481418	keystroke_Key.space	Key.space	n/a
241.069	0.09	482138	keystroke_b	b	n/a
241.219	0.09	482438	keystroke_u	u	n/a
241.369	0.1055	482738	keystroke_n	n	n/a
241.5045	0.12	483009	keystroke_d	d	n/a
241.6095	0.09	483219	keystroke_l	l	n/a
241.7745	0.105	483549	keystroke_e	e	n/a
241.8945	0.119	483789	keystroke_Key.space	Key.space	n/a
242.1345	0.09	484269	keystroke_f	f	n/a
242.2545	0.09	484509	keystroke_o	o	n/a
242.3145	0.06	484629	keystroke_u	u	n/a
242.5095	0.075	485019	keystroke_n	n	n/a
242.5695	0.0895	485139	keystroke_d	d	n/a
242.749	0.09	485498	keystroke_a	a	n/a
242.974	0.09	485948	keystroke_t	t	n/a
243.049	0.12	486098	keystroke_i	i	n/a
243.124	0.12	486248	keystroke_o	o	n/a
243.17	0.119	486340	keystroke_n	n	n/a
243.334	0.09	486668	keystroke_s	s	n/a
243.484	0.09	486968	keystroke_Key.space	Key.space	n/a
243.664	0.12	487328	keystroke_s	s	n/a
243.769	0.12	487538	keystroke_o	o	n/a
243.859	0.075	487718	keystroke_u	u	n/a
244.054	0.09	488108	keystroke_t	t	n/a
244.114	0.09	488228	keystroke_h	h	n/a
244.354	0.03	488708	keystroke_e	e	n/a
244.834	0.03	489668	keystroke_Key.backspace	Key.backspace	n/a
244.879	0.09	489758	keystroke_w	w	n/a
245.179	0.105	490358	keystroke_e	e	n/a
245.704	0.12	491408	keystroke_s	s	n/a
245.914	0.12	491828	keystroke_t	t	n/a
246.289	0.06	492578	keystroke_Key.enter	Key.enter	n/a
246.3625	6.033	492725	prompt	n/a	benz milan education comics\n
246.9485	0.075	493897	keystroke_b	b	n/a
247.0385	0.075	494077	keystroke_e	e	n/a
247.2485	0.06	494497	keystroke_n	n	n/a
247.3235	0.1355	494647	keystroke_z	z	n/a
247.534	0.1045	495068	keystroke_Key.space	Key.space	n/a
247.8185	0.105	495637	keystroke_m	m	n/a
247.9535	0.09	495907	keystroke_i	i	n/a
248.1345	0.075	496269	keystroke_l	l	n/a
248.2245	0.09	496449	keystroke_a	a	n/a
248.4645	0.075	496929	keystroke_n	n	n/a
248.5845	0.09	497169	keystroke_Key.space	Key.space	n/a
249.0045	0.075	498009	keystroke_e	e	n/a
249.3045	0.105	498609	keystroke_d	d	n/a
249.4845	0.06	498969	keystroke_u	u	n/a
249.6345	0.045	499269	keystroke_c	c	n/a
249.7695	0.09	499539	keystroke_a	a	n/a
250.0395	0.105	500079	keystroke_t	t	n/a
250.1595	0.1345	500319	keystroke_i	i	n/a
250.249	0.135	500498	keystroke_o	o	n/a
250.309	0.12	500618	keystroke_n	n	n/a
250.444	0.075	500888	keystroke_Key.space	Key.space	n/a
250.714	0.105	501428	keystroke_c	c	n/a
250.8785	0.09	501757	keystroke_o	o	n/a
250.9985	0.09	501997	keystroke_m	m	n/a
251.1635	0.075	502327	keystroke_i	i	n/a
251.314	0.0445	502628	keystroke_s	s	n/a
251.629	0.0745	503258	keystroke_Key.backspace	Key.backspace	n/a
251.6735	0.09	503347	keystroke_c	c	n/a
251.8235	0.12	503647	keystroke_s	s	n/a
252.304	0.0895	504608	keystroke_Key.enter	Key.enter	n/a
252.4015	4.824	504803	prompt	n/a	ever sites laos upgrades\n
252.964	0.09	505928	keystroke_e	e	n/a
253.174	0.12	506348	keystroke_v	v	n/a
253.309	0.1955	506618	keystroke_e	e	n/a
253.4445	0.09	506889	keystroke_r	r	n/a
253.5795	0.105	507159	keystroke_Key.space	Key.space	n/a
253.7145	0.135	507429	keystroke_s	s	n/a
253.8345	0.09	507669	keystroke_i	i	n/a
253.9545	0.09	507909	keystroke_t	t	n/a
254.0895	0.09	508179	keystroke_e	e	n/a
254.2995	0.09	508599	keystroke_s	s	n/a
254.3745	0.12	508749	keystroke_Key.space	Key.space	n/a
254.5095	0.12	509019	keystroke_l	l	n/a
254.7795	0.089	509559	keystroke_a	a	n/a
255.2445	0.074	510489	keystroke_o	o	n/a
255.3785	0.09	510757	keystroke_s	s	n/a
255.4985	0.075	510997	keystroke_Key.space	Key.space	n/a
255.6485	0.105	511297	keystroke_u	u	n/a
255.7385	0.135	511477	keystroke_p	p	n/a
255.9635	0.105	511927	keystroke_g	g	n/a
256.1285	0.09	512257	keystroke_r	r	n/a
256.2935	0.075	512587	keystroke_a	a	n/a
256.4735	0.06	512947	keystroke_d	d	n/a
256.639	0.06	513278	keystroke_e	e	n/a
256.804	0.09	513608	keystroke_s	s	n/a
257.134	0.09	514268	keystroke_Key.enter	Key.enter	n/a
257.2275	6.313	514455	prompt	n/a	rangers graphs borough debug\n
257.914	0.09	515828	keystroke_r	r	n/a
258.109	0.09	516218	keystroke_a	a	n/a
258.244	0.075	516488	keystroke_n	n	n/a
258.349	0.135	516698	keystroke_g	g	n/a
258.499	0.12	516998	keystroke_e	e	n/a
258.574	0.105	517148	keystroke_r	r	n/a
258.799	0.09	517598	keystroke_s	s	n/a
258.964	0.09	517928	keystroke_Key.space	Key.space	n/a
259.4735	0.09	518947	keystroke_g	g	n/a
259.6835	0.075	519367	keystroke_r	r	n/a
259.9085	0.0905	519817	keystroke_a	a	n/a
260.029	0.06	520058	keystroke_p	p	n/a
260.224	0.03	520448	keystroke_h	h	n/a
260.404	0.09	520808	keystroke_s	s	n/a
260.539	0.075	521078	keystroke_Key.space	Key.space	n/a
260.854	0.06	521708	keystroke_b	b	n/a
261.019	0.075	522038	keystroke_o	o	n/a
261.154	0.09	522308	keystroke_r	r	n/a
261.259	0.165	522518	keystroke_o	o	n/a
261.394	0.075	522788	keystroke_u	u	n/a
261.544	0.135	523088	keystroke_g	g	n/a
261.634	0.09	523268	keystroke_h	h	n/a
261.7835	0.075	523567	keystroke_Key.space	Key.space	n/a
262.2335	0.075	524467	keystroke_d	d	n/a
262.4135	0.09	524827	keystroke_e	e	n/a
262.5185	0.1055	525037	keystroke_b	b	n/a
262.669	0.09	525338	keystroke_u	u	n/a
262.924	0.075	525848	keystroke_g	g	n/a
263.4485	0.09	526897	keystroke_Key.enter	Key.enter	n/a
263.5435	5.952	527087	prompt	n/a	weed pdas how're mariah\n
264.2285	0.09	528457	keystroke_w	w	n/a
264.3785	0.075	528757	keystroke_e	e	n/a
264.529	0.09	529058	keystroke_e	e	n/a
264.709	0.105	529418	keystroke_d	d	n/a
265.114	0.105	530228	keystroke_Key.space	Key.space	n/a
265.324	0.0895	530648	keystroke_p	p	n/a
265.579	0.09	531158	keystroke_d	d	n/a
265.774	0.075	531548	keystroke_a	a	n/a
265.9995	0.09	531999	keystroke_s	s	n/a
266.1345	0.09	532269	keystroke_Key.space	Key.space	n/a
266.3895	0.09	532779	keystroke_h	h	n/a
266.5095	0.135	533019	keystroke_o	o	n/a
266.5845	0.075	533169	keystroke_u	u	n/a
267.1245	0.075	534249	keystroke_Key.backspace	Key.backspace	n/a
267.2295	0.12	534459	keystroke_w	w	n/a
267.4995	0.12	534999	keystroke_'	'	n/a
267.6345	0.06	535269	keystroke_r	r	n/a
267.8145	0.075	535629	keystroke_e	e	n/a
267.9185	0.061	535837	keystroke_Key.space	Key.space	n/a
268.4445	0.075	536889	keystroke_m	m	n/a
268.5495	0.1045	537099	keystroke_a	a	n/a
268.729	0.105	537458	keystroke_r	r	n/a
268.849	0.09	537698	keystroke_i	i	n/a
268.954	0.1055	537908	keystroke_a	a	n/a
269.1195	0.075	538239	keystroke_h	h	n/a
269.389	0.105	538778	keystroke_Key.enter	Key.enter	n/a
269.498	5.5625	538996	prompt	n/a	civilian again rotary contact\n
270.184	0.105	540368	keystroke_c	c	n/a
270.259	0.075	540518	keystroke_i	i	n/a
270.439	0.105	540878	keystroke_v	v	n/a
270.529	0.075	541058	keystroke_i	i	n/a
270.694	0.135	541388	keystroke_l	l	n/a
270.799	0.075	541598	keystroke_i	i	n/a
270.904	0.12	541808	keystroke_a	a	n/a
271.039	0.12	542078	keystroke_n	n	n/a
271.144	0.105	542288	keystroke_Key.space	Key.space	n/a
271.25	0.104	542500	keystroke_a	a	n/a
271.4285	0.12	542857	keystroke_g	g	n/a
271.6385	0.12	543277	keystroke_a	a	n/a
271.7435	0.12	543487	keystroke_i	i	n/a
271.8335	0.12	543667	keystroke_n	n	n/a
271.9835	0.09	543967	keystroke_Key.space	Key.space	n/a
272.3435	0.12	544687	keystroke_r	r	n/a
272.4785	0.105	544957	keystroke_o	o	n/a
272.5995	0.1045	545199	keystroke_t	t	n/a
272.824	0.105	545648	keystroke_a	a	n/a
273.064	0.06	546128	keystroke_r	r	n/a
273.274	0.1205	546548	keystroke_y	y	n/a
273.409	0.1055	546818	keystroke_Key.space	Key.space	n/a
273.784	0.135	547568	keystroke_c	c	n/a
273.904	0.1345	547808	keystroke_o	o	n/a
273.979	0.0895	547958	keystroke_n	n	n/a
274.0985	0.045	548197	keystroke_t	t	n/a
274.264	0.075	548528	keystroke_a	a	n/a
274.4885	0.12	548977	keystroke_c	c	n/a
274.8035	0.045	549607	keystroke_t	t	n/a
274.9835	0.075	549967	keystroke_Key.enter	Key.enter	n/a
275.0625	7.979	550125	prompt	n/a	televisions reconstruction algebra aaron\n
275.7495	0.09	551499	keystroke_t	t	n/a
275.9145	0.09	551829	keystroke_e	e	n/a
276.0195	0.09	552039	keystroke_l	l	n/a
276.0945	0.075	552189	keystroke_e	e	n/a
276.2445	0.12	552489	keystroke_v	v	n/a
276.4095	0.075	552819	keystroke_i	i	n/a
276.5895	0.09	553179	keystroke_s	s	n/a
276.6945	0.1345	553389	keystroke_i	i	n/a
276.769	0.12	553538	keystroke_o	o	n/a
276.83	0.104	553660	keystroke_n	n	n/a
276.964	0.09	553928	keystroke_s	s	n/a
277.084	0.105	554168	keystroke_Key.space	Key.space	n/a
277.369	0.075	554738	keystroke_r	r	n/a
277.534	0.06	555068	keystroke_e	e	n/a
277.714	0.09	555428	keystroke_c	c	n/a
277.819	0.12	555638	keystroke_o	o	n/a
277.894	0.12	555788	keystroke_n	n	n/a
278.029	0.09	556058	keystroke_s	s	n/a
278.239	0.06	556478	keystroke_t	t	n/a
278.419	0.06	556838	keystroke_r	r	n/a
279.094	0.075	558188	keystroke_u	u	n/a
279.214	0.075	558428	keystroke_c	c	n/a
279.529	0.09	559058	keystroke_t	t	n/a
279.634	0.1955	559268	keystroke_i	i	n/a
279.754	0.1355	559508	keystroke_o	o	n/a
279.8145	0.09	559629	keystroke_n	n	n/a
279.9945	0.06	559989	keystroke_Key.space	Key.space	n/a
280.084	0.105	560168	keystroke_a	a	n/a
280.204	0.105	560408	keystroke_l	l	n/a
280.819	0.045	561638	keystroke_g	g	n/a
281.014	0.09	562028	keystroke_e	e	n/a
281.254	0.045	562508	keystroke_b	b	n/a
281.359	0.06	562718	keystroke_r	r	n/a
281.539	0.105	563078	keystroke_a	a	n/a
281.794	0.09	563588	keystroke_Key.space	Key.space	n/a
281.944	0.075	563888	keystroke_a	a	n/a
282.199	0.015	564398	keystroke_a	a	n/a
282.319	0.09	564638	keystroke_r	r	n/a
282.439	0.15	564878	keystroke_o	o	n/a
282.574	0.105	565148	keystroke_n	n	n/a
282.934	0.105	565868	keystroke_Key.enter	Key.enter	n/a
283.0455	5.755	566091	prompt	n/a	bottom types produce pumps\n
283.654	0.09	567308	keystroke_b	b	n/a
283.804	0.105	567608	keystroke_o	o	n/a
284.029	0.06	568058	keystroke_t	t	n/a
284.149	0.105	568298	keystroke_t	t	n/a
284.239	0.12	568478	keystroke_o	o	n/a
284.329	0.105	568658	keystroke_m	m	n/a
284.449	0.09	568898	keystroke_Key.space	Key.space	n/a
284.779	0.105	569558	keystroke_t	t	n/a
284.899	0.045	569798	keystroke_y	y	n/a
285.349	0.1055	570698	keystroke_p	p	n/a
285.4845	0.09	570969	keystroke_e	e	n/a
285.7995	0.12	571599	keystroke_s	s	n/a
286.1595	0.09	572319	keystroke_Key.space	Key.space	n/a
286.5945	0.075	573189	keystroke_p	p	n/a
286.6835	0.09	573367	keystroke_r	r	n/a
286.8345	0.075	573669	keystroke_o	o	n/a
286.9685	0.09	573937	keystroke_d	d	n/a
287.1635	0.045	574327	keystroke_u	u	n/a
287.3295	0.0895	574659	keystroke_c	c	n/a
287.524	0.105	575048	keystroke_e	e	n/a
287.674	0.075	575348	keystroke_Key.space	Key.space	n/a
287.884	0.105	575768	keystroke_p	p	n/a
288.049	0.075	576098	keystroke_u	u	n/a
288.259	0.09	576518	keystroke_m	m	n/a
288.364	0.12	576728	keystroke_p	p	n/a
288.499	0.09	576998	keystroke_s	s	n/a
288.709	0.09	577418	keystroke_Key.enter	Key.enter	n/a
288.803	8.7125	577606	prompt	n/a	nominated placement biography recreational\n
289.5035	0.075	579007	keystroke_n	n	n/a
289.6235	0.105	579247	keystroke_o	o	n/a
289.759	0.09	579518	keystroke_m	m	n/a
289.909	0.12	579818	keystroke_i	i	n/a
289.984	0.15	579968	keystroke_n	n	n/a
290.359	0.09	580718	keystroke_a	a	n/a
290.599	0.075	581198	keystroke_t	t	n/a
290.749	0.09	581498	keystroke_e	e	n/a
290.944	0.075	581888	keystroke_d	d	n/a
291.034	0.075	582068	keystroke_Key.space	Key.space	n/a
291.484	0.0895	582968	keystroke_p	p	n/a
291.6335	0.09	583267	keystroke_l	l	n/a
291.7395	0.074	583479	keystroke_a	a	n/a
291.9635	0.09	583927	keystroke_c	c	n/a
292.1435	0.105	584287	keystroke_e	e	n/a
292.2645	0.089	584529	keystroke_m	m	n/a
292.3685	0.09	584737	keystroke_e	e	n/a
292.4885	0.075	584977	keystroke_n	n	n/a
292.5785	0.09	585157	keystroke_t	t	n/a
292.7285	0.12	585457	keystroke_Key.space	Key.space	n/a
292.8635	0.09	585727	keystroke_b	b	n/a
293.0285	0.105	586057	keystroke_i	i	n/a
293.2685	0.09	586537	keystroke_o	o	n/a
293.3885	0.135	586777	keystroke_c	c	n/a
293.7635	0.03	587527	keystroke_Key.backspace	Key.backspace	n/a
293.7785	0.0605	587557	keystroke_g	g	n/a
294.019	0.09	588038	keystroke_r	r	n/a
294.229	0.105	588458	keystroke_a	a	n/a
294.319	0.09	588638	keystroke_p	p	n/a
294.484	0.09	588968	keystroke_h	h	n/a
294.694	0.09	589388	keystroke_y	y	n/a
294.814	0.12	589628	keystroke_Key.space	Key.space	n/a
294.994	0.1045	589988	keystroke_c	c	n/a
295.3235	0.06	590647	keystroke_Key.backspace	Key.backspace	n/a
295.3535	0.09	590707	keystroke_r	r	n/a
295.549	0.075	591098	keystroke_e	e	n/a
295.804	0.1045	591608	keystroke_c	c	n/a
296.0285	0.075	592057	keystroke_r	r	n/a
296.1785	0.09	592357	keystroke_e	e	n/a
296.3435	0.09	592687	keystroke_a	a	n/a
296.5685	0.091	593137	keystroke_t	t	n/a
296.6435	0.18	593287	keystroke_i	i	n/a
296.7485	0.12	593497	keystroke_o	o	n/a
296.7785	0.12	593557	keystroke_n	n	n/a
296.9435	0.105	593887	keystroke_a	a	n/a
297.184	0.075	594368	keystroke_l	l	n/a
297.4535	0.06	594907	keystroke_Key.enter	Key.enter	n/a
297.5255	5.15	595051	prompt	n/a	explaining some budgets yamaha\n
298.1135	0.06	596227	keystroke_e	e	n/a
298.3085	0.12	596617	keystroke_x	x	n/a
298.4435	0.09	596887	keystroke_p	p	n/a
298.4885	0.09	596977	keystroke_l	l	n/a
298.6235	0.09	597247	keystroke_a	a	n/a
298.8185	0.105	597637	keystroke_i	i	n/a
298.9835	0.075	597967	keystroke_n	n	n/a
299.1785	0.03	598357	keystroke_i	i	n/a
299.1935	0.09	598387	keystroke_n	n	n/a
299.3735	0.091	598747	keystroke_g	g	n/a
299.479	0.09	598958	keystroke_Key.space	Key.space	n/a
299.6595	0.105	599319	keystroke_s	s	n/a
299.7495	0.135	599499	keystroke_o	o	n/a
299.8395	0.0895	599679	keystroke_m	m	n/a
299.944	0.075	599888	keystroke_e	e	n/a
300.004	0.105	600008	keystroke_Key.space	Key.space	n/a
300.259	0.0305	600518	keystroke_b	b	n/a
300.3495	0.105	600699	keystroke_u	u	n/a
300.484	0.09	600968	keystroke_d	d	n/a
300.694	0.09	601388	keystroke_g	g	n/a
300.814	0.075	601628	keystroke_e	e	n/a
301.144	0.06	602288	keystroke_t	t	n/a
301.3695	0.0895	602739	keystroke_s	s	n/a
301.474	0.075	602948	keystroke_Key.space	Key.space	n/a
301.729	0.075	603458	keystroke_y	y	n/a
301.849	0.105	603698	keystroke_a	a	n/a
302.014	0.105	604028	keystroke_m	m	n/a
302.134	0.075	604268	keystroke_a	a	n/a
302.314	0.09	604628	keystroke_h	h	n/a
302.419	0.105	604838	keystroke_a	a	n/a
302.584	0.09	605168	keystroke_Key.enter	Key.enter	n/a
302.678	12.1475	605356	prompt	n/a	airfare double lopez turtle\n
303.259	0.105	606518	keystroke_a	a	n/a
303.424	0.075	606848	keystroke_i	i	n/a
303.514	0.075	607028	keystroke_r	r	n/a
303.784	0.03	607568	keystroke_f	f	n/a
303.904	0.09	607808	keystroke_a	a	n/a
304.114	0.06	608228	keystroke_r	r	n/a
304.264	0.09	608528	keystroke_e	e	n/a
304.399	0.075	608798	keystroke_Key.space	Key.space	n/a
304.534	0.105	609068	keystroke_d	d	n/a
304.624	0.075	609248	keystroke_o	o	n/a
304.654	0.075	609308	keystroke_u	u	n/a
304.909	0.15	609818	keystroke_b	b	n/a
305.194	0.09	610388	keystroke_l	l	n/a
305.449	0.06	610898	keystroke_e	e	n/a
305.554	0.105	611108	keystroke_Key.space	Key.space	n/a
305.674	0.09	611348	keystroke_l	l	n/a
305.869	0.075	611738	keystroke_o	o	n/a
306.049	0.09	612098	keystroke_p	p	n/a
306.124	0.09	612248	keystroke_e	e	n/a
306.349	0.105	612698	keystroke_z	z	n/a
306.469	0.09	612938	keystroke_Key.space	Key.space	n/a
306.799	0.075	613598	keystroke_t	t	n/a
307.0235	0.06	614047	keystroke_r	r	n/a
307.1135	0.045	614227	keystroke_u	u	n/a
307.3235	0.06	614647	keystroke_Key.backspace	Key.backspace	n/a
307.4435	0.075	614887	keystroke_Key.backspace	Key.backspace	n/a
307.5935	0.075	615187	keystroke_i	i	n/a
307.6385	0.09	615277	keystroke_r	r	n/a
307.8785	0.09	615757	keystroke_t	t	n/a
308.2235	0.06	616447	keystroke_Key.backspace	Key.backspace	n/a
308.3585	0.045	616717	keystroke_Key.backspace	Key.backspace	n/a
308.4635	0.075	616927	keystroke_Key.backspace	Key.backspace	n/a
308.7035	0.075	617407	keystroke_u	u	n/a
308.7635	0.075	617527	keystroke_t	t	n/a
308.9435	0.105	617887	keystroke_r	r	n/a
309.0335	0.105	618067	keystroke_l	l	n/a
309.1535	0.075	618307	keystroke_e	e	n/a
309.6335	0.075	619267	keystroke_Key.backspace	Key.backspace	n/a
309.7835	0.06	619567	keystroke_Key.backspace	Key.backspace	n/a
309.9035	0.075	619807	keystroke_Key.backspace	Key.backspace	n/a
310.0685	0.09	620137	keystroke_r	r	n/a
310.4435	0.03	620887	keystroke_Key.backspace	Key.backspace	n/a
310.729	0.03	621458	keystroke_=	=	n/a
311.059	0.075	622118	keystroke_r	r	n/a
312.5285	0.03	625057	keystroke_Key.backspace	Key.backspace	n/a
312.6335	0.06	625267	keystroke_Key.backspace	Key.backspace	n/a
312.7535	0.06	625507	keystroke_Key.backspace	Key.backspace	n/a
313.0985	0.06	626197	keystroke_r	r	n/a
313.834	0.105	627668	keystroke_t	t	n/a
313.969	0.06	627938	keystroke_l	l	n/a
314.089	0.045	628178	keystroke_e	e	n/a
314.809	0.015	629618	keystroke_Key.enter	Key.enter	n/a
314.837	9.1535	629674	prompt	n/a	tutorial threat reception reflections\n
315.7385	0.045	631477	keystroke_r	r	n/a
316.0685	0.09	632137	keystroke_Key.backspace	Key.backspace	n/a
316.2035	0.09	632407	keystroke_t	t	n/a
316.3385	0.075	632677	keystroke_u	u	n/a
316.4285	0.09	632857	keystroke_t	t	n/a
316.8185	0.075	633637	keystroke_o	o	n/a
317.0585	0.135	634117	keystroke_r	r	n/a
317.2385	0.075	634477	keystroke_i	i	n/a
317.3735	0.12	634747	keystroke_a	a	n/a
317.4785	0.135	634957	keystroke_l	l	n/a
317.629	0.0895	635258	keystroke_Key.space	Key.space	n/a
318.0185	0.075	636037	keystroke_t	t	n/a
318.1085	0.075	636217	keystroke_h	h	n/a
318.2285	0.045	636457	keystroke_r	r	n/a
318.4085	0.075	636817	keystroke_e	e	n/a
318.5735	0.105	637147	keystroke_a	a	n/a
318.8135	0.09	637627	keystroke_r	r	n/a
318.9485	0.1055	637897	keystroke_Key.space	Key.space	n/a
319.6385	0.06	639277	keystroke_Key.backspace	Key.backspace	n/a
319.7585	0.09	639517	keystroke_Key.backspace	Key.backspace	n/a
319.8335	0.135	639667	keystroke_t	t	n/a
320.0135	0.09	640027	keystroke_Key.space	Key.space	n/a
320.1785	0.105	640357	keystroke_r	r	n/a
320.419	0.06	640838	keystroke_e	e	n/a
320.839	0.15	641678	keystroke_c	c	n/a
321.139	0.09	642278	keystroke_e	e	n/a
321.259	0.09	642518	keystroke_p	p	n/a
321.4535	0.09	642907	keystroke_t	t	n/a
321.5585	0.18	643117	keystroke_i	i	n/a
321.6785	0.135	643357	keystroke_o	o	n/a
321.7235	0.135	643447	keystroke_n	n	n/a
321.8885	0.09	643777	keystroke_Key.space	Key.space	n/a
322.1135	0.06	644227	keystroke_r	r	n/a
322.3385	0.09	644677	keystroke_e	e	n/a
322.5485	0.09	645097	keystroke_f	f	n/a
322.6685	0.09	645337	keystroke_l	l	n/a
322.7735	0.075	645547	keystroke_e	e	n/a
322.9835	0.105	645967	keystroke_c	c	n/a
323.2385	0.075	646477	keystroke_t	t	n/a
323.3735	0.1505	646747	keystroke_i	i	n/a
323.434	0.12	646868	keystroke_o	o	n/a
323.509	0.105	647018	keystroke_n	n	n/a
323.599	0.12	647198	keystroke_s	s	n/a
323.929	0.06	647858	keystroke_Key.enter	Key.enter	n/a
324.001	4.9845	648002	prompt	n/a	weird navigator corp week\n
324.5145	0.104	649029	keystroke_w	w	n/a
324.6345	0.105	649269	keystroke_e	e	n/a
324.7695	0.09	649539	keystroke_i	i	n/a
324.8745	0.105	649749	keystroke_r	r	n/a
325.0695	0.105	650139	keystroke_d	d	n/a
325.1585	0.091	650317	keystroke_Key.space	Key.space	n/a
325.3395	0.09	650679	keystroke_n	n	n/a
325.4145	0.06	650829	keystroke_a	a	n/a
325.6245	0.075	651249	keystroke_v	v	n/a
325.7295	0.075	651459	keystroke_i	i	n/a
326.134	0.105	652268	keystroke_g	g	n/a
326.344	0.075	652688	keystroke_a	a	n/a
326.584	0.09	653168	keystroke_t	t	n/a
326.719	0.105	653438	keystroke_o	o	n/a
326.824	0.06	653648	keystroke_r	r	n/a
326.974	0.045	653948	keystroke_Key.space	Key.space	n/a
327.094	0.09	654188	keystroke_c	c	n/a
327.229	0.075	654458	keystroke_o	o	n/a
327.349	0.0905	654698	keystroke_r	r	n/a
327.6945	0.075	655389	keystroke_p	p	n/a
327.9045	0.0745	655809	keystroke_Key.space	Key.space	n/a
328.084	0.12	656168	keystroke_w	w	n/a
328.234	0.06	656468	keystroke_e	e	n/a
328.324	0.105	656648	keystroke_e	e	n/a
328.669	0.06	657338	keystroke_k	k	n/a
328.909	0.075	657818	keystroke_Key.enter	Key.enter	n/a
329.002	5.2185	658004	prompt	n/a	speak data sponsor joyce\n
329.509	0.12	659018	keystroke_s	s	n/a
329.644	0.06	659288	keystroke_p	p	n/a
329.854	0.0605	659708	keystroke_a	a	n/a
330.1545	0.075	660309	keystroke_Key.backspace	Key.backspace	n/a
330.2145	0.075	660429	keystroke_e	e	n/a
330.3945	0.12	660789	keystroke_a	a	n/a
330.649	0.09	661298	keystroke_k	k	n/a
330.709	0.09	661418	keystroke_Key.space	Key.space	n/a
331.024	0.075	662048	keystroke_d	d	n/a
331.159	0.1055	662318	keystroke_a	a	n/a
331.384	0.0745	662768	keystroke_t	t	n/a
331.5645	0.105	663129	keystroke_a	a	n/a
331.6395	0.089	663279	keystroke_Key.space	Key.space	n/a
331.8795	0.105	663759	keystroke_s	s	n/a
332.0295	0.135	664059	keystroke_p	p	n/a
332.1495	0.06	664299	keystroke_o	o	n/a
332.3285	0.075	664657	keystroke_n	n	n/a
332.4345	0.119	664869	keystroke_s	s	n/a
332.5685	0.0905	665137	keystroke_o	o	n/a
332.719	0.105	665438	keystroke_r	r	n/a
332.809	0.105	665618	keystroke_Key.space	Key.space	n/a
332.959	0.09	665918	keystroke_j	j	n/a
333.05	0.164	666100	keystroke_o	o	n/a
333.229	0.075	666458	keystroke_y	y	n/a
333.6785	0.09	667357	keystroke_c	c	n/a
333.8585	0.106	667717	keystroke_e	e	n/a
334.129	0.09	668258	keystroke_Key.enter	Key.enter	n/a
334.225	7.1805	668450	prompt	n/a	thai difficulties phoenix leather\n
334.939	0.105	669878	keystroke_t	t	n/a
335.059	0.075	670118	keystroke_h	h	n/a
335.209	0.09	670418	keystroke_a	a	n/a
335.329	0.09	670658	keystroke_i	i	n/a
335.5535	0.09	671107	keystroke_Key.space	Key.space	n/a
335.9435	0.09	671887	keystroke_d	d	n/a
336.0185	0.09	672037	keystroke_i	i	n/a
336.2735	0.03	672547	keystroke_f	f	n/a
336.3785	0.105	672757	keystroke_f	f	n/a
336.5285	0.09	673057	keystroke_i	i	n/a
336.6785	0.15	673357	keystroke_c	c	n/a
336.9335	0.06	673867	keystroke_u	u	n/a
337.1585	0.06	674317	keystroke_l	l	n/a
337.609	0.12	675218	keystroke_t	t	n/a
337.7735	0.075	675547	keystroke_i	i	n/a
337.9835	0.09	675967	keystroke_e	e	n/a
338.1935	0.105	676387	keystroke_s	s	n/a
338.3135	0.075	676627	keystroke_Key.space	Key.space	n/a
338.4785	0.09	676957	keystroke_p	p	n/a
338.5985	0.105	677197	keystroke_h	h	n/a
338.7335	0.12	677467	keystroke_o	o	n/a
339.0035	0.09	678007	keystroke_e	e	n/a
339.2585	0.075	678517	keystroke_n	n	n/a
339.4085	0.0755	678817	keystroke_i	i	n/a
339.559	0.1645	679118	keystroke_x	x	n/a
339.7535	0.09	679507	keystroke_Key.space	Key.space	n/a
339.9785	0.06	679957	keystroke_l	l	n/a
340.3385	0.06	680677	keystroke_e	e	n/a
340.5035	0.0905	681007	keystroke_a	a	n/a
340.759	0.0745	681518	keystroke_t	t	n/a
340.8635	0.09	681727	keystroke_h	h	n/a
341.0285	0.09	682057	keystroke_e	e	n/a
341.0885	0.09	682177	keystroke_r	r	n/a
341.3285	0.0755	682657	keystroke_Key.enter	Key.enter	n/a
341.4085	7.602	682817	prompt	n/a	calgary fields floyd least\n
341.989	0.09	683978	keystroke_c	c	n/a
342.154	0.075	684308	keystroke_a	a	n/a
342.244	0.075	684488	keystroke_l	l	n/a
342.499	0.06	684998	keystroke_g	g	n/a
342.634	0.12	685268	keystroke_a	a	n/a
342.874	0.105	685748	keystroke_r	r	n/a
343.054	0.09	686108	keystroke_y	y	n/a
343.159	0.06	686318	keystroke_Key.space	Key.space	n/a
343.234	0.105	686468	keystroke_f	f	n/a
343.429	0.06	686858	keystroke_i	i	n/a
343.6085	0.075	687217	keystroke_e	e	n/a
343.7585	0.075	687517	keystroke_l	l	n/a
343.9085	0.075	687817	keystroke_d	d	n/a
344.1035	0.105	688207	keystroke_s	s	n/a
344.1935	0.12	688387	keystroke_Key.space	Key.space	n/a
344.5535	0.09	689107	keystroke_g	g	n/a
345.1085	0.045	690217	keystroke_Key.backspace	Key.backspace	n/a
345.1685	0.105	690337	keystroke_f	f	n/a
345.3185	0.0905	690637	keystroke_l	l	n/a
345.514	0.09	691028	keystroke_o	o	n/a
345.724	0.06	691448	keystroke_u	u	n/a
345.859	0.105	691718	keystroke_d	d	n/a
346.249	0.0595	692498	keystroke_Key.backspace	Key.backspace	n/a
346.3535	0.075	692707	keystroke_Key.backspace	Key.backspace	n/a
346.6385	0.105	693277	keystroke_y	y	n/a
346.7585	0.105	693517	keystroke_d	d	n/a
346.8635	0.06	693727	keystroke_Key.space	Key.space	n/a
347.1035	0.075	694207	keystroke_e	e	n/a
347.1945	0.044	694389	keystroke_l	l	n/a
347.4335	0.045	694867	keystroke_Key.backspace	Key.backspace	n/a
347.539	0.0745	695078	keystroke_Key.backspace	Key.backspace	n/a
347.7195	0.075	695439	keystroke_l	l	n/a
347.7485	0.105	695497	keystroke_e	e	n/a
347.9435	0.075	695887	keystroke_a	a	n/a
348.1395	0.119	696279	keystroke_s	s	n/a
348.3635	0.105	696727	keystroke_t	t	n/a
348.919	0.09	697838	keystroke_Key.enter	Key.enter	n/a
349.021	7.1445	698042	prompt	n/a	algorithm kruger at hierarchy\n
349.5335	0.12	699067	keystroke_a	a	n/a
349.6385	0.106	699277	keystroke_l	l	n/a
349.9535	0.12	699907	keystroke_g	g	n/a
350.0435	0.105	700087	keystroke_o	o	n/a
350.4335	0.09	700867	keystroke_r	r	n/a
350.569	0.0895	701138	keystroke_i	i	n/a
350.9285	0.105	701857	keystroke_t	t	n/a
351.0485	0.06	702097	keystroke_h	h	n/a
351.4235	0.12	702847	keystroke_m	m	n/a
351.8135	0.075	703627	keystroke_Key.space	Key.space	n/a
352.0085	0.12	704017	keystroke_k	k	n/a
352.1435	0.09	704287	keystroke_r	r	n/a
352.4135	0.09	704827	keystroke_u	u	n/a
352.7285	0.09	705457	keystroke_g	g	n/a
352.9685	0.12	705937	keystroke_e	e	n/a
353.0285	0.105	706057	keystroke_r	r	n/a
353.1785	0.075	706357	keystroke_Key.space	Key.space	n/a
353.3735	0.0605	706747	keystroke_a	a	n/a
353.569	0.09	707138	keystroke_t	t	n/a
353.644	0.09	707288	keystroke_Key.space	Key.space	n/a
353.794	0.09	707588	keystroke_h	h	n/a
354.2885	0.075	708577	keystroke_i	i	n/a
354.3935	0.09	708787	keystroke_e	e	n/a
354.5885	0.075	709177	keystroke_r	r	n/a
354.8885	0.09	709777	keystroke_a	a	n/a
355.0835	0.075	710167	keystroke_r	r	n/a
355.3835	0.1055	710767	keystroke_c	c	n/a
355.504	0.06	711008	keystroke_h	h	n/a
355.7135	0.075	711427	keystroke_y	y	n/a
356.1335	0.03	712267	keystroke_Key.enter	Key.enter	n/a
356.168	6.267	712336	prompt	n/a	trunk news sections tunisia\n
356.824	0.105	713648	keystroke_t	t	n/a
357.019	0.105	714038	keystroke_r	r	n/a
357.184	0.06	714368	keystroke_u	u	n/a
357.364	0.075	714728	keystroke_n	n	n/a
357.514	0.105	715028	keystroke_k	k	n/a
357.649	0.09	715298	keystroke_Key.space	Key.space	n/a
357.799	0.105	715598	keystroke_n	n	n/a
357.889	0.09	715778	keystroke_e	e	n/a
358.069	0.09	716138	keystroke_w	w	n/a
358.324	0.105	716648	keystroke_s	s	n/a
358.459	0.075	716918	keystroke_Key.space	Key.space	n/a
358.774	0.135	717548	keystroke_s	s	n/a
358.894	0.075	717788	keystroke_e	e	n/a
359.119	0.09	718238	keystroke_c	c	n/a
359.404	0.09	718808	keystroke_t	t	n/a
359.524	0.15	719048	keystroke_i	i	n/a
359.629	0.135	719258	keystroke_o	o	n/a
359.689	0.105	719378	keystroke_n	n	n/a
359.839	0.105	719678	keystroke_s	s	n/a
359.974	0.09	719948	keystroke_Key.space	Key.space	n/a
360.454	0.09	720908	keystroke_t	t	n/a
360.5895	0.075	721179	keystroke_u	u	n/a
360.6495	0.105	721299	keystroke_n	n	n/a
360.8745	0.06	721749	keystroke_i	i	n/a
361.1295	0.06	722259	keystroke_c	c	n/a
361.444	0.075	722888	keystroke_Key.backspace	Key.backspace	n/a
361.609	0.075	723218	keystroke_s	s	n/a
361.699	0.075	723398	keystroke_i	i	n/a
361.894	0.075	723788	keystroke_a	a	n/a
362.359	0.075	724718	keystroke_Key.enter	Key.enter	n/a
362.438	7.9625	724876	prompt	n/a	columbus beliefs cedar measurements\n
363.034	0.135	726068	keystroke_c	c	n/a
363.184	0.06	726368	keystroke_o	o	n/a
363.349	0.09	726698	keystroke_l	l	n/a
363.6195	0.074	727239	keystroke_u	u	n/a
363.8435	0.06	727687	keystroke_m	m	n/a
364.0695	0.059	728139	keystroke_b	b	n/a
364.2935	0.06	728587	keystroke_u	u	n/a
364.4435	0.09	728887	keystroke_s	s	n/a
364.5785	0.09	729157	keystroke_Key.space	Key.space	n/a
364.8495	0.074	729699	keystroke_b	b	n/a
364.9845	0.075	729969	keystroke_e	e	n/a
365.0745	0.105	730149	keystroke_l	l	n/a
365.1945	0.12	730389	keystroke_i	i	n/a
365.2995	0.074	730599	keystroke_e	e	n/a
365.4495	0.1495	730899	keystroke_v	v	n/a
365.839	0.06	731678	keystroke_Key.backspace	Key.backspace	n/a
365.884	0.12	731768	keystroke_f	f	n/a
366.079	0.135	732158	keystroke_s	s	n/a
366.274	0.09	732548	keystroke_Key.space	Key.space	n/a
367.0685	0.106	734137	keystroke_c	c	n/a
367.3085	0.0905	734617	keystroke_e	e	n/a
367.579	0.06	735158	keystroke_r	r	n/a
367.939	0.075	735878	keystroke_Key.backspace	Key.backspace	n/a
367.999	0.075	735998	keystroke_d	d	n/a
368.149	0.09	736298	keystroke_a	a	n/a
368.344	0.06	736688	keystroke_r	r	n/a
368.449	0.09	736898	keystroke_Key.space	Key.space	n/a
368.584	0.105	737168	keystroke_m	m	n/a
368.644	0.075	737288	keystroke_e	e	n/a
368.809	0.075	737618	keystroke_a	a	n/a
369.019	0.105	738038	keystroke_s	s	n/a
369.139	0.06	738278	keystroke_u	u	n/a
369.229	0.075	738458	keystroke_r	r	n/a
369.394	0.09	738788	keystroke_e	e	n/a
369.499	0.06	738998	keystroke_m	m	n/a
369.574	0.075	739148	keystroke_e	e	n/a
369.679	0.09	739358	keystroke_n	n	n/a
369.784	0.06	739568	keystroke_t	t	n/a
369.9785	0.12	739957	keystroke_s	s	n/a
370.3235	0.075	740647	keystroke_Key.enter	Key.enter	n/a
370.4045	8.9955	740809	prompt	n/a	orchestra retreat applicable israel\n
371.0585	0.09	742117	keystroke_o	o	n/a
371.1635	0.09	742327	keystroke_r	r	n/a
371.449	0.135	742898	keystroke_c	c	n/a
371.599	0.075	743198	keystroke_h	h	n/a
371.689	0.06	743378	keystroke_e	e	n/a
371.884	0.105	743768	keystroke_s	s	n/a
372.094	0.06	744188	keystroke_t	t	n/a
372.2435	0.075	744487	keystroke_r	r	n/a
372.4535	0.06	744907	keystroke_a	a	n/a
372.7385	0.09	745477	keystroke_Key.space	Key.space	n/a
373.159	0.075	746318	keystroke_r	r	n/a
373.384	0.075	746768	keystroke_e	e	n/a
373.6385	0.105	747277	keystroke_t	t	n/a
373.8635	0.075	747727	keystroke_r	r	n/a
374.2535	0.1055	748507	keystroke_e	e	n/a
374.479	0.105	748958	keystroke_a	a	n/a
374.719	0.09	749438	keystroke_t	t	n/a
374.899	0.104	749798	keystroke_Key.space	Key.space	n/a
375.153	0.136	750306	keystroke_a	a	n/a
375.304	0.075	750608	keystroke_b	b	n/a
375.439	0.09	750878	keystroke_b	b	n/a
375.769	0.045	751538	keystroke_Key.backspace	Key.backspace	n/a
375.874	0.06	751748	keystroke_Key.backspace	Key.backspace	n/a
376.069	0.045	752138	keystroke_p	p	n/a
376.174	0.1195	752348	keystroke_p	p	n/a
376.2485	0.09	752497	keystroke_l	l	n/a
376.4885	0.075	752977	keystroke_i	i	n/a
376.6395	0.089	753279	keystroke_c	c	n/a
376.8345	0.06	753669	keystroke_a	a	n/a
376.9545	0.059	753909	keystroke_b	b	n/a
377.1185	0.09	754237	keystroke_l	l	n/a
377.2235	0.09	754447	keystroke_e	e	n/a
377.3435	0.09	754687	keystroke_Key.space	Key.space	n/a
377.749	0.075	755498	keystroke_i	i	n/a
377.825	0.104	755650	keystroke_s	s	n/a
378.034	0.075	756068	keystroke_r	r	n/a
378.259	0.09	756518	keystroke_a	a	n/a
378.754	0.09	757508	keystroke_e	e	n/a
378.874	0.06	757748	keystroke_l	l	n/a
379.3535	0.0455	758707	keystroke_Key.enter	Key.enter	n/a
379.4095	6.606	758819	prompt	n/a	mega pharmacies offset indicators\n
380.134	0.105	760268	keystroke_m	m	n/a
380.254	0.06	760508	keystroke_e	e	n/a
380.434	0.09	760868	keystroke_g	g	n/a
380.6445	0.089	761289	keystroke_a	a	n/a
380.7485	0.09	761497	keystroke_Key.space	Key.space	n/a
380.8985	0.045	761797	keystroke_p	p	n/a
381.0635	0.09	762127	keystroke_h	h	n/a
381.1685	0.076	762337	keystroke_a	a	n/a
381.3495	0.074	762699	keystroke_r	r	n/a
381.5135	0.075	763027	keystroke_m	m	n/a
381.6035	0.0905	763207	keystroke_a	a	n/a
382.129	0.075	764258	keystroke_c	c	n/a
382.264	0.075	764528	keystroke_i	i	n/a
382.354	0.075	764708	keystroke_e	e	n/a
382.564	0.12	765128	keystroke_s	s	n/a
382.744	0.09	765488	keystroke_Key.space	Key.space	n/a
382.969	0.045	765938	keystroke_o	o	n/a
383.044	0.045	766088	keystroke_f	f	n/a
383.164	0.075	766328	keystroke_f	f	n/a
383.359	0.1345	766718	keystroke_s	s	n/a
383.449	0.1045	766898	keystroke_e	e	n/a
383.7635	0.075	767527	keystroke_t	t	n/a
383.9285	0.105	767857	keystroke_Key.space	Key.space	n/a
384.1385	0.12	768277	keystroke_i	i	n/a
384.2135	0.105	768427	keystroke_n	n	n/a
384.4385	0.105	768877	keystroke_d	d	n/a
384.5585	0.06	769117	keystroke_i	i	n/a
384.6935	0.075	769387	keystroke_c	c	n/a
384.8585	0.075	769717	keystroke_a	a	n/a
385.0835	0.09	770167	keystroke_t	t	n/a
385.1885	0.105	770377	keystroke_o	o	n/a
385.2785	0.09	770557	keystroke_r	r	n/a
385.5035	0.105	771007	keystroke_s	s	n/a
385.9085	0.105	771817	keystroke_Key.enter	Key.enter	n/a
386.019	5.681	772038	prompt	n/a	reseller associations socks herald\n
386.7185	0.06	773437	keystroke_r	r	n/a
386.899	0.03	773798	keystroke_e	e	n/a
387.049	0.09	774098	keystroke_s	s	n/a
387.229	0.075	774458	keystroke_e	e	n/a
387.394	0.03	774788	keystroke_l	l	n/a
387.529	0.075	775058	keystroke_l	l	n/a
387.574	0.09	775148	keystroke_e	e	n/a
387.769	0.075	775538	keystroke_r	r	n/a
387.889	0.09	775778	keystroke_Key.space	Key.space	n/a
388.114	0.075	776228	keystroke_a	a	n/a
388.324	0.045	776648	keystroke_s	s	n/a
388.444	0.09	776888	keystroke_s	s	n/a
388.549	0.09	777098	keystroke_o	o	n/a
388.669	0.09	777338	keystroke_c	c	n/a
388.789	0.06	777578	keystroke_i	i	n/a
388.879	0.09	777758	keystroke_a	a	n/a
389.134	0.105	778268	keystroke_t	t	n/a
389.299	0.135	778598	keystroke_i	i	n/a
389.3885	0.1055	778777	keystroke_o	o	n/a
389.419	0.105	778838	keystroke_n	n	n/a
389.554	0.09	779108	keystroke_s	s	n/a
389.704	0.105	779408	keystroke_Key.space	Key.space	n/a
389.824	0.1045	779648	keystroke_s	s	n/a
389.9435	0.06	779887	keystroke_o	o	n/a
390.0335	0.09	780067	keystroke_c	c	n/a
390.1385	0.09	780277	keystroke_k	k	n/a
390.2585	0.105	780517	keystroke_s	s	n/a
390.3935	0.09	780787	keystroke_Key.space	Key.space	n/a
390.6485	0.0755	781297	keystroke_h	h	n/a
390.754	0.105	781508	keystroke_e	e	n/a
390.814	0.09	781628	keystroke_r	r	n/a
391.024	0.12	782048	keystroke_a	a	n/a
391.159	0.045	782318	keystroke_l	l	n/a
391.4135	0.075	782827	keystroke_d	d	n/a
391.6385	0.06	783277	keystroke_Key.enter	Key.enter	n/a
391.704	6.041	783408	prompt	n/a	greensboro parish mailman twins\n
392.3735	0.12	784747	keystroke_g	g	n/a
392.5385	0.1055	785077	keystroke_r	r	n/a
392.764	0.075	785528	keystroke_e	e	n/a
392.914	0.075	785828	keystroke_e	e	n/a
393.049	0.06	786098	keystroke_n	n	n/a
393.184	0.09	786368	keystroke_s	s	n/a
393.334	0.075	786668	keystroke_b	b	n/a
393.484	0.09	786968	keystroke_o	o	n/a
393.604	0.135	787208	keystroke_r	r	n/a
393.724	0.09	787448	keystroke_o	o	n/a
393.979	0.09	787958	keystroke_Key.space	Key.space	n/a
394.114	0.105	788228	keystroke_p	p	n/a
394.204	0.075	788408	keystroke_a	a	n/a
394.384	0.12	788768	keystroke_r	r	n/a
394.609	0.105	789218	keystroke_i	i	n/a
394.729	0.09	789458	keystroke_s	s	n/a
394.834	0.105	789668	keystroke_h	h	n/a
394.924	0.09	789848	keystroke_Key.space	Key.space	n/a
395.179	0.075	790358	keystroke_m	m	n/a
395.269	0.105	790538	keystroke_a	a	n/a
395.374	0.0745	790748	keystroke_i	i	n/a
395.5235	0.09	791047	keystroke_l	l	n/a
395.764	0.075	791528	keystroke_m	m	n/a
395.899	0.1195	791798	keystroke_a	a	n/a
396.0335	0.075	792067	keystroke_n	n	n/a
396.3185	0.09	792637	keystroke_Key.space	Key.space	n/a
396.7085	0.105	793417	keystroke_t	t	n/a
396.9485	0.09	793897	keystroke_w	w	n/a
397.0085	0.075	794017	keystroke_i	i	n/a
397.1735	0.09	794347	keystroke_n	n	n/a
397.3085	0.1205	794617	keystroke_s	s	n/a
397.654	0.09	795308	keystroke_Key.enter	Key.enter	n/a
397.7495	7.5405	795499	prompt	n/a	generator voluntary example currently\n
398.344	0.105	796688	keystroke_g	g	n/a
398.524	0.09	797048	keystroke_e	e	n/a
398.584	0.105	797168	keystroke_n	n	n/a
398.704	0.15	797408	keystroke_e	e	n/a
398.809	0.12	797618	keystroke_r	r	n/a
399.019	0.105	798038	keystroke_a	a	n/a
399.259	0.09	798518	keystroke_t	t	n/a
399.469	0.09	798938	keystroke_o	o	n/a
399.649	0.105	799298	keystroke_r	r	n/a
399.784	0.0895	799568	keystroke_Key.space	Key.space	n/a
400.1735	0.15	800347	keystroke_v	v	n/a
400.3385	0.075	800677	keystroke_o	o	n/a
400.5185	0.135	801037	keystroke_l	l	n/a
400.684	0.075	801368	keystroke_u	u	n/a
400.864	0.09	801728	keystroke_n	n	n/a
400.969	0.09	801938	keystroke_t	t	n/a
401.179	0.105	802358	keystroke_a	a	n/a
401.449	0.105	802898	keystroke_r	r	n/a
401.614	0.075	803228	keystroke_y	y	n/a
401.704	0.075	803408	keystroke_Key.space	Key.space	n/a
401.914	0.06	803828	keystroke_e	e	n/a
402.109	0.0895	804218	keystroke_x	x	n/a
402.2585	0.105	804517	keystroke_a	a	n/a
402.3935	0.075	804787	keystroke_m	m	n/a
402.6035	0.12	805207	keystroke_p	p	n/a
402.6635	0.105	805327	keystroke_l	l	n/a
402.9785	0.03	805957	keystroke_e	e	n/a
403.2635	0.09	806527	keystroke_Key.space	Key.space	n/a
403.623	0.09	807246	keystroke_c	c	n/a
403.728	0.061	807456	keystroke_u	u	n/a
403.833	0.0605	807666	keystroke_r	r	n/a
403.9685	0.06	807937	keystroke_r	r	n/a
404.1035	0.105	808207	keystroke_e	e	n/a
404.2385	0.075	808477	keystroke_n	n	n/a
404.4335	0.105	808867	keystroke_t	t	n/a
404.5235	0.09	809047	keystroke_l	l	n/a
404.8985	0.075	809797	keystroke_y	y	n/a
405.2135	0.0755	810427	keystroke_Key.enter	Key.enter	n/a
405.3	5.0455	810600	prompt	n/a	charges roster controls admit\n
405.8735	0.12	811747	keystroke_c	c	n/a
405.9785	0.075	811957	keystroke_h	h	n/a
406.0835	0.06	812167	keystroke_a	a	n/a
406.249	0.105	812498	keystroke_r	r	n/a
406.414	0.135	812828	keystroke_g	g	n/a
406.594	0.12	813188	keystroke_e	e	n/a
406.789	0.12	813578	keystroke_s	s	n/a
406.924	0.075	813848	keystroke_Key.space	Key.space	n/a
407.149	0.09	814298	keystroke_r	r	n/a
407.254	0.09	814508	keystroke_o	o	n/a
407.359	0.12	814718	keystroke_s	s	n/a
407.6135	0.075	815227	keystroke_t	t	n/a
407.7635	0.12	815527	keystroke_e	e	n/a
407.8085	0.135	815617	keystroke_r	r	n/a
408.1835	0.12	816367	keystroke_Key.space	Key.space	n/a
408.3335	0.135	816667	keystroke_c	c	n/a
408.4535	0.12	816907	keystroke_o	o	n/a
408.5435	0.105	817087	keystroke_n	n	n/a
408.7235	0.09	817447	keystroke_t	t	n/a
408.8885	0.1195	817777	keystroke_r	r	n/a
408.964	0.074	817928	keystroke_o	o	n/a
409.159	0.075	818318	keystroke_l	l	n/a
409.249	0.105	818498	keystroke_s	s	n/a
409.368	0.1055	818736	keystroke_Key.space	Key.space	n/a
409.5035	0.105	819007	keystroke_a	a	n/a
409.6685	0.12	819337	keystroke_d	d	n/a
409.7585	0.075	819517	keystroke_m	m	n/a
409.8935	0.105	819787	keystroke_i	i	n/a
410.0735	0.09	820147	keystroke_t	t	n/a
410.2535	0.09	820507	keystroke_Key.enter	Key.enter	n/a
410.3475	6.2975	820695	prompt	n/a	slide valid sentence references\n
410.9585	0.105	821917	keystroke_s	s	n/a
411.0785	0.09	822157	keystroke_l	l	n/a
411.1535	0.12	822307	keystroke_i	i	n/a
411.3035	0.075	822607	keystroke_d	d	n/a
411.4985	0.075	822997	keystroke_e	e	n/a
411.6185	0.09	823237	keystroke_Key.space	Key.space	n/a
411.7235	0.1045	823447	keystroke_v	v	n/a
411.889	0.119	823778	keystroke_a	a	n/a
411.993	0.12	823986	keystroke_l	l	n/a
412.098	0.09	824196	keystroke_i	i	n/a
412.3245	0.074	824649	keystroke_d	d	n/a
412.413	0.12	824826	keystroke_Key.space	Key.space	n/a
412.564	0.134	825128	keystroke_s	s	n/a
412.713	0.075	825426	keystroke_e	e	n/a
412.833	0.075	825666	keystroke_n	n	n/a
413.043	0.045	826086	keystroke_t	t	n/a
413.208	0.09	826416	keystroke_e	e	n/a
413.314	0.09	826628	keystroke_n	n	n/a
413.568	0.12	827136	keystroke_c	c	n/a
413.853	0.09	827706	keystroke_Key.space	Key.space	n/a
414.243	0.075	828486	keystroke_Key.backspace	Key.backspace	n/a
414.304	0.089	828608	keystroke_e	e	n/a
414.4235	0.09	828847	keystroke_Key.space	Key.space	n/a
414.5735	0.075	829147	keystroke_r	r	n/a
414.7235	0.105	829447	keystroke_e	e	n/a
415.0835	0.12	830167	keystroke_f	f	n/a
415.2635	0.1505	830527	keystroke_e	e	n/a
415.399	0.105	830798	keystroke_r	r	n/a
415.654	0.089	831308	keystroke_e	e	n/a
415.819	0.06	831638	keystroke_n	n	n/a
415.924	0.12	831848	keystroke_c	c	n/a
416.074	0.105	832148	keystroke_e	e	n/a
416.3285	0.105	832657	keystroke_s	s	n/a
416.5685	0.075	833137	keystroke_Key.enter	Key.enter	n/a
416.648	6.027	833296	prompt	n/a	scales leone principles tanzania\n
417.1085	0.0895	834217	keystroke_s	s	n/a
417.334	0.09	834668	keystroke_c	c	n/a
417.469	0.1045	834938	keystroke_a	a	n/a
417.559	0.09	835118	keystroke_l	l	n/a
417.679	0.09	835358	keystroke_e	e	n/a
417.919	0.105	835838	keystroke_s	s	n/a
418.054	0.09	836108	keystroke_Key.space	Key.space	n/a
418.234	0.075	836468	keystroke_l	l	n/a
418.324	0.09	836648	keystroke_e	e	n/a
418.474	0.135	836948	keystroke_o	o	n/a
418.624	0.09	837248	keystroke_n	n	n/a
418.729	0.09	837458	keystroke_e	e	n/a
418.803	0.091	837606	keystroke_Key.space	Key.space	n/a
419.029	0.09	838058	keystroke_p	p	n/a
419.164	0.075	838328	keystroke_r	r	n/a
419.299	0.075	838598	keystroke_i	i	n/a
419.554	0.089	839108	keystroke_c	c	n/a
419.674	0.074	839348	keystroke_i	i	n/a
420.3635	0.12	840727	keystroke_p	p	n/a
420.4535	0.1055	840907	keystroke_l	l	n/a
420.574	0.09	841148	keystroke_e	e	n/a
420.799	0.12	841598	keystroke_s	s	n/a
420.934	0.09	841868	keystroke_Key.space	Key.space	n/a
421.084	0.09	842168	keystroke_t	t	n/a
421.339	0.075	842678	keystroke_a	a	n/a
421.444	0.06	842888	keystroke_n	n	n/a
421.699	0.075	843398	keystroke_z	z	n/a
421.894	0.09	843788	keystroke_a	a	n/a
422.014	0.075	844028	keystroke_n	n	n/a
422.209	0.09	844418	keystroke_i	i	n/a
422.344	0.075	844688	keystroke_a	a	n/a
422.599	0.075	845198	keystroke_Key.enter	Key.enter	n/a
422.678	4.122	845356	prompt	n/a	trails proud fifty tank\n
423.304	0.09	846608	keystroke_t	t	n/a
423.469	0.074	846938	keystroke_r	r	n/a
423.633	0.091	847266	keystroke_a	a	n/a
423.738	0.061	847476	keystroke_i	i	n/a
423.904	0.0605	847808	keystroke_l	l	n/a
423.9645	0.089	847929	keystroke_s	s	n/a
424.0385	0.09	848077	keystroke_Key.space	Key.space	n/a
424.4435	0.09	848887	keystroke_p	p	n/a
424.5485	0.09	849097	keystroke_r	r	n/a
424.7435	0.1355	849487	keystroke_o	o	n/a
424.864	0.09	849728	keystroke_u	u	n/a
424.999	0.135	849998	keystroke_d	d	n/a
425.119	0.09	850238	keystroke_Key.space	Key.space	n/a
425.314	0.0895	850628	keystroke_f	f	n/a
425.4045	0.074	850809	keystroke_i	i	n/a
425.5085	0.105	851017	keystroke_f	f	n/a
425.7635	0.075	851527	keystroke_t	t	n/a
425.8685	0.105	851737	keystroke_y	y	n/a
425.9585	0.105	851917	keystroke_Key.space	Key.space	n/a
426.1685	0.06	852337	keystroke_t	t	n/a
426.3635	0.105	852727	keystroke_a	a	n/a
426.4535	0.12	852907	keystroke_n	n	n/a
426.5285	0.075	853057	keystroke_k	k	n/a
426.6935	0.105	853387	keystroke_Key.enter	Key.enter	n/a
426.8025	4.7225	853605	prompt	n/a	flex translate thesis friday\n
427.3385	0.1205	854677	keystroke_f	f	n/a
427.489	0.075	854978	keystroke_l	l	n/a
427.579	0.075	855158	keystroke_e	e	n/a
427.789	0.12	855578	keystroke_x	x	n/a
427.894	0.075	855788	keystroke_Key.space	Key.space	n/a
428.089	0.045	856178	keystroke_t	t	n/a
428.239	0.09	856478	keystroke_r	r	n/a
428.449	0.09	856898	keystroke_a	a	n/a
428.539	0.075	857078	keystroke_n	n	n/a
428.689	0.09	857378	keystroke_s	s	n/a
428.794	0.075	857588	keystroke_l	l	n/a
428.884	0.075	857768	keystroke_a	a	n/a
429.199	0.06	858398	keystroke_t	t	n/a
429.409	0.09	858818	keystroke_e	e	n/a
429.559	0.09	859118	keystroke_Key.space	Key.space	n/a
429.769	0.06	859538	keystroke_t	t	n/a
429.829	0.075	859658	keystroke_h	h	n/a
429.919	0.09	859838	keystroke_e	e	n/a
430.114	0.09	860228	keystroke_s	s	n/a
430.234	0.075	860468	keystroke_i	i	n/a
430.339	0.09	860678	keystroke_s	s	n/a
430.444	0.09	860888	keystroke_Key.space	Key.space	n/a
430.579	0.12	861158	keystroke_f	f	n/a
430.759	0.06	861518	keystroke_r	r	n/a
430.864	0.105	861728	keystroke_i	i	n/a
430.984	0.03	861968	keystroke_d	d	n/a
431.104	0.105	862208	keystroke_a	a	n/a
431.224	0.06	862448	keystroke_y	y	n/a
431.434	0.09	862868	keystroke_Key.enter	Key.enter	n/a
431.5285	6.8065	863057	prompt	n/a	junior bouquet belgium seats\n
431.959	0.075	863918	keystroke_f	f	n/a
432.259	0.06	864518	keystroke_Key.backspace	Key.backspace	n/a
432.469	0.06	864938	keystroke_j	j	n/a
432.649	0.045	865298	keystroke_u	u	n/a
432.844	0.075	865688	keystroke_n	n	n/a
432.979	0.15	865958	keystroke_i	i	n/a
433.084	0.12	866168	keystroke_o	o	n/a
433.489	0.075	866978	keystroke_r	r	n/a
433.594	0.09	867188	keystroke_Key.space	Key.space	n/a
433.894	0.075	867788	keystroke_b	b	n/a
434.104	0.075	868208	keystroke_o	o	n/a
434.134	0.09	868268	keystroke_u	u	n/a
434.554	0.12	869108	keystroke_q	q	n/a
434.689	0.075	869378	keystroke_u	u	n/a
434.8685	0.09	869737	keystroke_e	e	n/a
435.2135	0.075	870427	keystroke_t	t	n/a
435.3635	0.0905	870727	keystroke_Key.space	Key.space	n/a
435.6185	0.06	871237	keystroke_b	b	n/a
435.694	0.0745	871388	keystroke_e	e	n/a
435.828	0.0755	871656	keystroke_l	l	n/a
436.113	0.09	872226	keystroke_g	g	n/a
436.218	0.0915	872436	keystroke_i	i	n/a
436.474	0.0595	872948	keystroke_u	u	n/a
436.699	0.15	873398	keystroke_m	m	n/a
436.864	0.045	873728	keystroke_Key.space	Key.space	n/a
437.209	0.12	874418	keystroke_s	s	n/a
437.344	0.105	874688	keystroke_e	e	n/a
437.539	0.045	875078	keystroke_a	a	n/a
437.884	0.045	875768	keystroke_t	t	n/a
438.079	0.075	876158	keystroke_s	s	n/a
438.274	0.06	876548	keystroke_Key.enter	Key.enter	n/a
438.3395	6.6255	876679	prompt	n/a	student immigration oldest opened\n
438.8285	0.09	877657	keystroke_s	s	n/a
439.024	0.09	878048	keystroke_t	t	n/a
439.144	0.075	878288	keystroke_u	u	n/a
439.279	0.06	878558	keystroke_d	d	n/a
439.444	0.06	878888	keystroke_e	e	n/a
439.549	0.06	879098	keystroke_n	n	n/a
439.639	0.105	879278	keystroke_t	t	n/a
439.759	0.075	879518	keystroke_Key.space	Key.space	n/a
439.8635	0.09	879727	keystroke_i	i	n/a
440.0435	0.045	880087	keystroke_m	m	n/a
440.1635	0.09	880327	keystroke_m	m	n/a
440.404	0.09	880808	keystroke_i	i	n/a
440.629	0.075	881258	keystroke_g	g	n/a
440.8085	0.06	881617	keystroke_r	r	n/a
440.9885	0.06	881977	keystroke_a	a	n/a
441.2285	0.06	882457	keystroke_t	t	n/a
441.3185	0.09	882637	keystroke_i	i	n/a
441.3635	0.12	882727	keystroke_o	o	n/a
441.4685	0.09	882937	keystroke_n	n	n/a
441.6635	0.09	883327	keystroke_Key.space	Key.space	n/a
441.8885	0.03	883777	keystroke_o	o	n/a
442.0535	0.06	884107	keystroke_l	l	n/a
442.2035	0.06	884407	keystroke_d	d	n/a
442.3535	0.075	884707	keystroke_e	e	n/a
442.789	0.044	885578	keystroke_Key.backspace	Key.backspace	n/a
443.104	0.074	886208	keystroke_e	e	n/a
443.314	0.1045	886628	keystroke_s	s	n/a
443.5385	0.06	887077	keystroke_t	t	n/a
443.6135	0.09	887227	keystroke_Key.space	Key.space	n/a
443.9735	0.09	887947	keystroke_o	o	n/a
444.1085	0.12	888217	keystroke_p	p	n/a
444.2435	0.075	888487	keystroke_e	e	n/a
444.3635	0.0905	888727	keystroke_n	n	n/a
444.484	0.045	888968	keystroke_e	e	n/a
444.649	0.105	889298	keystroke_d	d	n/a
444.889	0.075	889778	keystroke_Key.enter	Key.enter	n/a
444.97	5.995	889940	prompt	n/a	excellent sponsors soccer accounts\n
445.444	0.0145	890888	keystroke_s	s	n/a
445.8335	0.045	891667	keystroke_Key.backspace	Key.backspace	n/a
445.9085	0.09	891817	keystroke_e	e	n/a
446.1335	0.105	892267	keystroke_x	x	n/a
446.3285	0.09	892657	keystroke_c	c	n/a
446.4635	0.09	892927	keystroke_e	e	n/a
446.5685	0.06	893137	keystroke_l	l	n/a
446.7185	0.075	893437	keystroke_l	l	n/a
446.7785	0.06	893557	keystroke_e	e	n/a
446.9585	0.06	893917	keystroke_n	n	n/a
447.1085	0.075	894217	keystroke_t	t	n/a
447.2135	0.09	894427	keystroke_Key.space	Key.space	n/a
447.3485	0.09	894697	keystroke_s	s	n/a
447.4085	0.09	894817	keystroke_p	p	n/a
447.5135	0.075	895027	keystroke_o	o	n/a
447.7385	0.075	895477	keystroke_n	n	n/a
447.8435	0.12	895687	keystroke_s	s	n/a
447.9785	0.075	895957	keystroke_o	o	n/a
448.0835	0.09	896167	keystroke_r	r	n/a
448.3385	0.09	896677	keystroke_s	s	n/a
