onset	duration	sample	value	key	prompt_text
1.5345	5.0995	3069	prompt	n/a	the quick brown fox jumps over a lazy dog\n
2.6335	0.026	5267	keystroke_t	t	n/a
2.6455	0.1045	5291	keystroke_h	h	n/a
2.751	0.104	5502	keystroke_e	e	n/a
2.825	0.12	5650	keystroke_Key.space	Key.space	n/a
2.975	0.105	5950	keystroke_q	q	n/a
3.035	0.165	6070	keystroke_u	u	n/a
3.125	0.105	6250	keystroke_i	i	n/a
3.245	0.105	6490	keystroke_c	c	n/a
3.335	0.105	6670	keystroke_k	k	n/a
3.455	0.105	6910	keystroke_Key.space	Key.space	n/a
3.62	0.06	7240	keystroke_b	b	n/a
3.74	0.06	7480	keystroke_r	r	n/a
3.815	0.12	7630	keystroke_o	o	n/a
3.92	0.105	7840	keystroke_w	w	n/a
3.995	0.075	7990	keystroke_n	n	n/a
4.145	0.12	8290	keystroke_Key.space	Key.space	n/a
4.235	0.09	8470	keystroke_f	f	n/a
4.34	0.12	8680	keystroke_o	o	n/a
4.445	0.105	8890	keystroke_x	x	n/a
4.52	0.105	9040	keystroke_Key.space	Key.space	n/a
4.595	0.09	9190	keystroke_j	j	n/a
4.775	0.15	9550	keystroke_u	u	n/a
4.85	0.15	9700	keystroke_m	m	n/a
4.925	0.12	9850	keystroke_p	p	n/a
4.985	0.12	9970	keystroke_s	s	n/a
5.135	0.12	10270	keystroke_Key.space	Key.space	n/a
5.21	0.12	10420	keystroke_o	o	n/a
5.285	0.09	10570	keystroke_v	v	n/a
5.405	0.148	10810	keystroke_e	e	n/a
5.51	0.0995	11020	keystroke_r	r	n/a
5.58	0.0745	11160	keystroke_Key.space	Key.space	n/a
5.6845	0.09	11369	keystroke_a	a	n/a
5.7595	0.105	11519	keystroke_Key.space	Key.space	n/a
5.8495	0.105	11699	keystroke_l	l	n/a
5.8945	0.15	11789	keystroke_a	a	n/a
5.9995	0.1215	11999	keystroke_z	z	n/a
6.076	0.09	12152	keystroke_y	y	n/a
6.136	0.105	12272	keystroke_Key.space	Key.space	n/a
6.256	0.075	12512	keystroke_d	d	n/a
6.316	0.09	12632	keystroke_o	o	n/a
6.436	0.06	12872	keystroke_g	g	n/a
6.556	0.075	13112	keystroke_Key.enter	Key.enter	n/a
6.641	3.2765	13282	prompt	n/a	pockets meets tiles fill\n
7.201	0.165	14402	keystroke_p	p	n/a
7.351	0.12	14702	keystroke_o	o	n/a
7.546	0.09	15092	keystroke_c	c	n/a
7.591	0.105	15182	keystroke_k	k	n/a
7.711	0.12	15422	keystroke_e	e	n/a
7.801	0.075	15602	keystroke_t	t	n/a
7.966	0.09	15932	keystroke_s	s	n/a
7.996	0.075	15992	keystroke_Key.space	Key.space	n/a
8.191	0.105	16382	keystroke_m	m	n/a
8.251	0.06	16502	keystroke_e	e	n/a
8.371	0.15	16742	keystroke_e	e	n/a
8.476	0.0745	16952	keystroke_t	t	n/a
8.64	0.106	17280	keystroke_s	s	n/a
8.731	0.075	17462	keystroke_Key.space	Key.space	n/a
8.836	0.105	17672	keystroke_t	t	n/a
8.896	0.105	17792	keystroke_i	i	n/a
8.956	0.12	17912	keystroke_l	l	n/a
9.016	0.09	18032	keystroke_e	e	n/a
9.196	0.105	18392	keystroke_s	s	n/a
9.286	0.09	18572	keystroke_Key.space	Key.space	n/a
9.391	0.06	18782	keystroke_f	f	n/a
9.452	0.074	18904	keystroke_i	i	n/a
9.466	0.105	18932	keystroke_l	l	n/a
9.616	0.09	19232	keystroke_l	l	n/a
9.8405	0.075	19681	keystroke_Key.enter	Key.enter	n/a
9.922	4.526	19844	prompt	n/a	vacancies spine phentermine muze\n
10.6355	0.135	21271	keystroke_v	v	n/a
10.8005	0.135	21601	keystroke_a	a	n/a
10.9205	0.12	21841	keystroke_c	c	n/a
11.0255	0.1355	22051	keystroke_a	a	n/a
11.1155	0.0905	22231	keystroke_n	n	n/a
11.206	0.135	22412	keystroke_c	c	n/a
11.295	0.1055	22590	keystroke_i	i	n/a
11.3855	0.09	22771	keystroke_e	e	n/a
11.5655	0.105	23131	keystroke_s	s	n/a
11.7755	0.105	23551	keystroke_Key.space	Key.space	n/a
11.8955	0.105	23791	keystroke_s	s	n/a
11.9705	0.15	23941	keystroke_p	p	n/a
12.0305	0.1355	24061	keystroke_i	i	n/a
12.0905	0.1055	24181	keystroke_n	n	n/a
12.181	0.105	24362	keystroke_e	e	n/a
12.271	0.12	24542	keystroke_Key.space	Key.space	n/a
12.436	0.045	24872	keystroke_p	p	n/a
12.601	0.075	25202	keystroke_h	h	n/a
12.841	0.135	25682	keystroke_e	e	n/a
12.991	0.105	25982	keystroke_n	n	n/a
13.111	0.075	26222	keystroke_t	t	n/a
13.186	0.15	26372	keystroke_e	e	n/a
13.276	0.12	26552	keystroke_r	r	n/a
13.366	0.075	26732	keystroke_m	m	n/a
13.411	0.15	26822	keystroke_i	i	n/a
13.531	0.09	27062	keystroke_n	n	n/a
13.606	0.09	27212	keystroke_e	e	n/a
13.711	0.09	27422	keystroke_Key.space	Key.space	n/a
13.9205	0.091	27841	keystroke_m	m	n/a
13.9655	0.12	27931	keystroke_u	u	n/a
14.0255	0.105	28051	keystroke_z	z	n/a
14.251	0.0745	28502	keystroke_e	e	n/a
14.3405	0.1055	28681	keystroke_Key.enter	Key.enter	n/a
14.453	4.855	28906	prompt	n/a	music zambia engineering laws\n
15.121	0.045	30242	keystroke_m	m	n/a
15.136	0.075	30272	keystroke_u	u	n/a
15.781	0.135	31562	keystroke_s	s	n/a
15.901	0.135	31802	keystroke_i	i	n/a
15.991	0.105	31982	keystroke_c	c	n/a
16.111	0.09	32222	keystroke_Key.space	Key.space	n/a
16.261	0.165	32522	keystroke_z	z	n/a
16.396	0.105	32792	keystroke_a	a	n/a
16.471	0.09	32942	keystroke_m	m	n/a
16.666	0.06	33332	keystroke_b	b	n/a
16.861	0.06	33722	keystroke_i	i	n/a
16.906	0.105	33812	keystroke_a	a	n/a
17.056	0.075	34112	keystroke_Key.space	Key.space	n/a
17.191	0.12	34382	keystroke_e	e	n/a
17.281	0.09	34562	keystroke_n	n	n/a
17.3865	0.119	34773	keystroke_g	g	n/a
17.5205	0.03	35041	keystroke_i	i	n/a
17.9105	0.09	35821	keystroke_n	n	n/a
18.0155	0.091	36031	keystroke_e	e	n/a
18.1655	0.12	36331	keystroke_e	e	n/a
18.2555	0.12	36511	keystroke_r	r	n/a
18.3455	0.105	36691	keystroke_i	i	n/a
18.4055	0.09	36811	keystroke_n	n	n/a
18.4805	0.075	36961	keystroke_g	g	n/a
18.6005	0.105	37201	keystroke_Key.space	Key.space	n/a
18.6905	0.135	37381	keystroke_l	l	n/a
18.8105	0.105	37621	keystroke_a	a	n/a
18.8705	0.105	37741	keystroke_w	w	n/a
19.0965	0.074	38193	keystroke_s	s	n/a
19.1715	0.134	38343	keystroke_Key.enter	Key.enter	n/a
19.313	3.6405	38626	prompt	n/a	brief graduate drawn cyber\n
19.8315	0.0745	39663	keystroke_b	b	n/a
19.951	0.12	39902	keystroke_r	r	n/a
20.086	0.105	40172	keystroke_i	i	n/a
20.176	0.135	40352	keystroke_e	e	n/a
20.251	0.12	40502	keystroke_f	f	n/a
20.326	0.105	40652	keystroke_Key.space	Key.space	n/a
20.476	0.105	40952	keystroke_g	g	n/a
20.671	0.135	41342	keystroke_r	r	n/a
20.821	0.09	41642	keystroke_a	a	n/a
20.971	0.105	41942	keystroke_d	d	n/a
21.106	0.12	42212	keystroke_u	u	n/a
21.211	0.12	42422	keystroke_a	a	n/a
21.301	0.12	42602	keystroke_t	t	n/a
21.391	0.135	42782	keystroke_e	e	n/a
21.436	0.12	42872	keystroke_Key.space	Key.space	n/a
21.601	0.1045	43202	keystroke_d	d	n/a
21.7955	0.09	43591	keystroke_r	r	n/a
21.8705	0.12	43741	keystroke_a	a	n/a
21.946	0.1495	43892	keystroke_w	w	n/a
22.0355	0.09	44071	keystroke_n	n	n/a
22.2305	0.105	44461	keystroke_Key.space	Key.space	n/a
22.2915	0.119	44583	keystroke_c	c	n/a
22.4405	0.135	44881	keystroke_y	y	n/a
22.5455	0.12	45091	keystroke_b	b	n/a
22.6505	0.135	45301	keystroke_e	e	n/a
22.7555	0.0755	45511	keystroke_r	r	n/a
22.8755	0.075	45751	keystroke_Key.enter	Key.enter	n/a
22.9575	4.121	45915	prompt	n/a	genius mean tariff strategies\n
23.6115	0.09	47223	keystroke_g	g	n/a
23.6865	0.105	47373	keystroke_e	e	n/a
23.7615	0.225	47523	keystroke_n	n	n/a
23.8065	0.165	47613	keystroke_i	i	n/a
23.9565	0.15	47913	keystroke_u	u	n/a
24.1365	0.135	48273	keystroke_s	s	n/a
24.2565	0.075	48513	keystroke_Key.space	Key.space	n/a
24.4665	0.105	48933	keystroke_m	m	n/a
24.5565	0.21	49113	keystroke_e	e	n/a
24.6315	0.15	49263	keystroke_a	a	n/a
24.7215	0.09	49443	keystroke_n	n	n/a
24.8865	0.09	49773	keystroke_Key.space	Key.space	n/a
24.9465	0.105	49893	keystroke_t	t	n/a
25.0665	0.09	50133	keystroke_a	a	n/a
25.1415	0.12	50283	keystroke_r	r	n/a
25.2765	0.0745	50553	keystroke_i	i	n/a
25.3955	0.046	50791	keystroke_f	f	n/a
25.5165	0.104	51033	keystroke_f	f	n/a
25.6055	0.12	51211	keystroke_Key.space	Key.space	n/a
25.6955	0.12	51391	keystroke_s	s	n/a
25.8015	0.074	51603	keystroke_t	t	n/a
25.9505	0.121	51901	keystroke_r	r	n/a
26.1155	0.135	52231	keystroke_a	a	n/a
26.2515	0.1345	52503	keystroke_t	t	n/a
26.371	0.12	52742	keystroke_e	e	n/a
26.506	0.105	53012	keystroke_g	g	n/a
26.626	0.09	53252	keystroke_i	i	n/a
26.686	0.105	53372	keystroke_e	e	n/a
26.866	0.105	53732	keystroke_s	s	n/a
26.956	0.12	53912	keystroke_Key.enter	Key.enter	n/a
27.084	4.3745	54168	prompt	n/a	sizes beautifully words states\n
27.8255	0.165	55651	keystroke_s	s	n/a
28.0055	0.1055	56011	keystroke_i	i	n/a
28.1705	0.135	56341	keystroke_z	z	n/a
28.4565	0.089	56913	keystroke_e	e	n/a
28.6355	0.1205	57271	keystroke_s	s	n/a
28.7405	0.1505	57481	keystroke_Key.space	Key.space	n/a
28.8455	0.105	57691	keystroke_b	b	n/a
28.9355	0.195	57871	keystroke_e	e	n/a
28.9815	0.164	57963	keystroke_a	a	n/a
29.1155	0.091	58231	keystroke_u	u	n/a
29.2205	0.12	58441	keystroke_t	t	n/a
29.326	0.1195	58652	keystroke_i	i	n/a
29.4605	0.076	58921	keystroke_f	f	n/a
29.5505	0.075	59101	keystroke_u	u	n/a
29.5955	0.105	59191	keystroke_l	l	n/a
29.7905	0.165	59581	keystroke_l	l	n/a
29.9255	0.105	59851	keystroke_y	y	n/a
29.9855	0.15	59971	keystroke_Key.space	Key.space	n/a
30.0915	0.134	60183	keystroke_w	w	n/a
30.196	0.1195	60392	keystroke_o	o	n/a
30.2705	0.076	60541	keystroke_r	r	n/a
30.4815	0.0745	60963	keystroke_d	d	n/a
30.5255	0.09	61051	keystroke_s	s	n/a
30.5855	0.1205	61171	keystroke_Key.space	Key.space	n/a
30.707	0.1335	61414	keystroke_s	s	n/a
30.8555	0.0765	61711	keystroke_t	t	n/a
30.9005	0.135	61801	keystroke_a	a	n/a
31.0205	0.0905	62041	keystroke_t	t	n/a
31.0955	0.09	62191	keystroke_e	e	n/a
31.2755	0.091	62551	keystroke_s	s	n/a
31.4115	0.045	62823	keystroke_Key.enter	Key.enter	n/a
31.466	5.392	62932	prompt	n/a	bookmarks specializing emperor atmospheric\n
32.3415	0.06	64683	keystroke_b	b	n/a
32.5205	0.061	65041	keystroke_o	o	n/a
32.6865	0.119	65373	keystroke_o	o	n/a
32.7315	0.135	65463	keystroke_k	k	n/a
32.9705	0.105	65941	keystroke_m	m	n/a
33.0315	0.134	66063	keystroke_a	a	n/a
33.1365	0.105	66273	keystroke_r	r	n/a
33.1955	0.105	66391	keystroke_k	k	n/a
33.3155	0.121	66631	keystroke_s	s	n/a
33.4205	0.09	66841	keystroke_Key.space	Key.space	n/a
33.5255	0.075	67051	keystroke_s	s	n/a
33.6455	0.075	67291	keystroke_p	p	n/a
33.7065	0.119	67413	keystroke_e	e	n/a
33.9005	0.106	67801	keystroke_c	c	n/a
33.9765	0.119	67953	keystroke_i	i	n/a
34.0965	0.09	68193	keystroke_a	a	n/a
34.1565	0.15	68313	keystroke_l	l	n/a
34.2755	0.09	68551	keystroke_i	i	n/a
34.3505	0.106	68701	keystroke_z	z	n/a
34.4865	0.09	68973	keystroke_i	i	n/a
34.5455	0.105	69091	keystroke_n	n	n/a
34.6065	0.075	69213	keystroke_g	g	n/a
34.7555	0.09	69511	keystroke_Key.space	Key.space	n/a
34.8915	0.119	69783	keystroke_e	e	n/a
34.9955	0.106	69991	keystroke_m	m	n/a
35.0565	0.12	70113	keystroke_p	p	n/a
35.1155	0.135	70231	keystroke_e	e	n/a
35.2055	0.106	70411	keystroke_r	r	n/a
35.3265	0.074	70653	keystroke_o	o	n/a
35.3855	0.121	70771	keystroke_r	r	n/a
35.4905	0.09	70981	keystroke_Key.space	Key.space	n/a
35.6255	0.12	71251	keystroke_a	a	n/a
35.7615	0.075	71523	keystroke_t	t	n/a
35.8215	0.104	71643	keystroke_m	m	n/a
35.8955	0.091	71791	keystroke_o	o	n/a
36.0015	0.119	72003	keystroke_s	s	n/a
36.1065	0.044	72213	keystroke_p	p	n/a
36.2705	0.076	72541	keystroke_h	h	n/a
36.3165	0.12	72633	keystroke_e	e	n/a
36.3905	0.106	72781	keystroke_r	r	n/a
36.5115	0.059	73023	keystroke_i	i	n/a
36.6165	0.09	73233	keystroke_c	c	n/a
36.7805	0.075	73561	keystroke_Key.enter	Key.enter	n/a
36.8625	4.5255	73725	prompt	n/a	baker czech mold respondents\n
37.6065	0.075	75213	keystroke_b	b	n/a
37.7405	0.106	75481	keystroke_a	a	n/a
37.8315	0.105	75663	keystroke_k	k	n/a
37.9205	0.121	75841	keystroke_e	e	n/a
37.9815	0.09	75963	keystroke_r	r	n/a
38.0865	0.089	76173	keystroke_Key.space	Key.space	n/a
38.2065	0.105	76413	keystroke_c	c	n/a
38.4165	0.104	76833	keystroke_z	z	n/a
38.6415	0.134	77283	keystroke_e	e	n/a
38.7465	0.12	77493	keystroke_c	c	n/a
38.8815	0.09	77763	keystroke_h	h	n/a
39.4065	0.089	78813	keystroke_Key.space	Key.space	n/a
39.6165	0.12	79233	keystroke_m	m	n/a
39.6915	0.09	79383	keystroke_o	o	n/a
39.8865	0.089	79773	keystroke_l	l	n/a
39.9455	0.105	79891	keystroke_d	d	n/a
40.0355	0.106	80071	keystroke_Key.space	Key.space	n/a
40.1565	0.09	80313	keystroke_r	r	n/a
40.2005	0.106	80401	keystroke_e	e	n/a
40.3815	0.105	80763	keystroke_s	s	n/a
40.4265	0.135	80853	keystroke_p	p	n/a
40.5015	0.105	81003	keystroke_o	o	n/a
40.5465	0.104	81093	keystroke_n	n	n/a
40.6065	0.15	81213	keystroke_d	d	n/a
40.7265	0.149	81453	keystroke_e	e	n/a
40.8605	0.121	81721	keystroke_n	n	n/a
40.9655	0.076	81931	keystroke_t	t	n/a
41.1165	0.105	82233	keystroke_s	s	n/a
41.281	0.105	82562	keystroke_Key.enter	Key.enter	n/a
41.3925	6.1905	82785	prompt	n/a	edgar nominated can't helicopter\n
41.926	0.12	83852	keystroke_e	e	n/a
42.031	0.12	84062	keystroke_d	d	n/a
42.241	0.105	84482	keystroke_g	g	n/a
42.361	0.1355	84722	keystroke_a	a	n/a
42.466	0.105	84932	keystroke_r	r	n/a
42.586	0.105	85172	keystroke_Key.space	Key.space	n/a
42.811	0.105	85622	keystroke_n	n	n/a
42.901	0.165	85802	keystroke_o	o	n/a
43.036	0.135	86072	keystroke_m	m	n/a
43.156	0.105	86312	keystroke_i	i	n/a
43.231	0.12	86462	keystroke_n	n	n/a
43.262	0.119	86524	keystroke_a	a	n/a
43.397	0.089	86794	keystroke_t	t	n/a
43.441	0.18	86882	keystroke_e	e	n/a
43.591	0.12	87182	keystroke_d	d	n/a
43.681	0.105	87362	keystroke_Key.space	Key.space	n/a
43.831	0.12	87662	keystroke_c	c	n/a
43.921	0.135	87842	keystroke_a	a	n/a
44.026	0.075	88052	keystroke_n	n	n/a
44.686	0.06	89372	keystroke_'	'	n/a
44.776	0.09	89552	keystroke_t	t	n/a
44.896	0.135	89792	keystroke_Key.space	Key.space	n/a
45.046	0.075	90092	keystroke_h	h	n/a
45.151	0.12	90302	keystroke_e	e	n/a
45.316	0.165	90632	keystroke_l	l	n/a
45.706	0.075	91412	keystroke_i	i	n/a
46.171	0.06	92342	keystroke_c	c	n/a
46.741	0.105	93482	keystroke_o	o	n/a
47.011	0.105	94022	keystroke_p	p	n/a
47.101	0.12	94202	keystroke_t	t	n/a
47.236	0.12	94472	keystroke_e	e	n/a
47.311	0.105	94622	keystroke_r	r	n/a
47.476	0.105	94952	keystroke_Key.enter	Key.enter	n/a
47.588	5.23	95176	prompt	n/a	cooper furthermore litigation procurement\n
48.196	0.09	96392	keystroke_c	c	n/a
48.271	0.075	96542	keystroke_o	o	n/a
48.406	0.15	96812	keystroke_o	o	n/a
48.481	0.105	96962	keystroke_p	p	n/a
48.541	0.135	97082	keystroke_e	e	n/a
48.616	0.105	97232	keystroke_r	r	n/a
48.661	0.135	97322	keystroke_Key.space	Key.space	n/a
48.826	0.12	97652	keystroke_f	f	n/a
48.931	0.09	97862	keystroke_u	u	n/a
49.036	0.105	98072	keystroke_r	r	n/a
49.246	0.105	98492	keystroke_t	t	n/a
49.366	0.06	98732	keystroke_h	h	n/a
49.411	0.135	98822	keystroke_e	e	n/a
49.501	0.09	99002	keystroke_r	r	n/a
49.576	0.165	99152	keystroke_m	m	n/a
49.651	0.15	99302	keystroke_o	o	n/a
49.711	0.105	99422	keystroke_r	r	n/a
49.786	0.12	99572	keystroke_e	e	n/a
49.861	0.12	99722	keystroke_Key.space	Key.space	n/a
49.936	0.135	99872	keystroke_l	l	n/a
50.026	0.12	100052	keystroke_i	i	n/a
50.116	0.12	100232	keystroke_t	t	n/a
50.266	0.105	100532	keystroke_i	i	n/a
50.401	0.06	100802	keystroke_g	g	n/a
50.551	0.12	101102	keystroke_a	a	n/a
50.641	0.105	101282	keystroke_t	t	n/a
50.716	0.15	101432	keystroke_i	i	n/a
50.776	0.105	101552	keystroke_o	o	n/a
50.836	0.09	101672	keystroke_n	n	n/a
50.986	0.105	101972	keystroke_Key.space	Key.space	n/a
51.061	0.12	102122	keystroke_p	p	n/a
51.136	0.09	102272	keystroke_r	r	n/a
51.466	0.105	102932	keystroke_o	o	n/a
51.556	0.105	103112	keystroke_c	c	n/a
51.676	0.09	103352	keystroke_u	u	n/a
52.141	0.105	104282	keystroke_r	r	n/a
52.216	0.12	104432	keystroke_e	e	n/a
52.306	0.135	104612	keystroke_m	m	n/a
52.426	0.105	104852	keystroke_e	e	n/a
52.516	0.09	105032	keystroke_n	n	n/a
52.607	0.089	105214	keystroke_t	t	n/a
52.726	0.09	105452	keystroke_Key.enter	Key.enter	n/a
52.824	6.519	105648	prompt	n/a	administration pakistan possibly petroleum\n
54.241	0.09	108482	keystroke_a	a	n/a
54.421	0.06	108842	keystroke_d	d	n/a
54.601	0.12	109202	keystroke_m	m	n/a
54.706	0.135	109412	keystroke_i	i	n/a
54.826	0.106	109652	keystroke_n	n	n/a
54.901	0.15	109802	keystroke_i	i	n/a
54.961	0.15	109922	keystroke_s	s	n/a
55.081	0.09	110162	keystroke_t	t	n/a
55.261	0.09	110522	keystroke_r	r	n/a
55.352	0.119	110704	keystroke_a	a	n/a
55.456	0.091	110912	keystroke_t	t	n/a
55.501	0.18	111002	keystroke_i	i	n/a
55.576	0.135	111152	keystroke_o	o	n/a
55.636	0.105	111272	keystroke_n	n	n/a
55.816	0.105	111632	keystroke_Key.space	Key.space	n/a
55.876	0.105	111752	keystroke_p	p	n/a
55.936	0.135	111872	keystroke_a	a	n/a
56.086	0.06	112172	keystroke_k	k	n/a
56.221	0.12	112442	keystroke_i	i	n/a
56.296	0.135	112592	keystroke_s	s	n/a
56.476	0.105	112952	keystroke_t	t	n/a
56.566	0.135	113132	keystroke_a	a	n/a
56.656	0.06	113312	keystroke_n	n	n/a
56.821	0.09	113642	keystroke_Key.space	Key.space	n/a
56.896	0.12	113792	keystroke_p	p	n/a
57.001	0.12	114002	keystroke_o	o	n/a
57.106	0.03	114212	keystroke_s	s	n/a
57.211	0.12	114422	keystroke_s	s	n/a
57.316	0.135	114632	keystroke_i	i	n/a
57.436	0.15	114872	keystroke_b	b	n/a
57.571	0.18	115142	keystroke_l	l	n/a
57.736	0.06	115472	keystroke_y	y	n/a
57.781	0.075	115562	keystroke_Key.space	Key.space	n/a
57.901	0.135	115802	keystroke_p	p	n/a
57.991	0.12	115982	keystroke_e	e	n/a
58.096	0.075	116192	keystroke_t	t	n/a
58.246	0.105	116492	keystroke_r	r	n/a
58.321	0.09	116642	keystroke_o	o	n/a
58.636	0.09	117272	keystroke_l	l	n/a
58.831	0.09	117662	keystroke_e	e	n/a
58.936	0.105	117872	keystroke_u	u	n/a
59.011	0.105	118022	keystroke_m	m	n/a
59.251	0.09	118502	keystroke_Key.enter	Key.enter	n/a
59.35	4.343	118700	prompt	n/a	varied defendant parallel surge\n
59.971	0.075	119942	keystroke_v	v	n/a
60.091	0.121	120182	keystroke_a	a	n/a
60.196	0.12	120392	keystroke_r	r	n/a
60.301	0.075	120602	keystroke_i	i	n/a
60.346	0.15	120692	keystroke_e	e	n/a
60.436	0.135	120872	keystroke_d	d	n/a
60.541	0.12	121082	keystroke_Key.space	Key.space	n/a
60.841	0.135	121682	keystroke_d	d	n/a
60.961	0.165	121922	keystroke_e	e	n/a
61.081	0.135	122162	keystroke_f	f	n/a
61.306	0.15	122612	keystroke_e	e	n/a
61.411	0.105	122822	keystroke_n	n	n/a
61.561	0.105	123122	keystroke_d	d	n/a
61.712	0.149	123424	keystroke_a	a	n/a
61.876	0.09	123752	keystroke_n	n	n/a
61.937	0.119	123874	keystroke_t	t	n/a
62.086	0.105	124172	keystroke_Key.space	Key.space	n/a
62.266	0.12	124532	keystroke_p	p	n/a
62.341	0.105	124682	keystroke_a	a	n/a
62.431	0.106	124862	keystroke_r	r	n/a
62.521	0.075	125042	keystroke_a	a	n/a
62.582	0.044	125164	keystroke_l	l	n/a
62.716	0.075	125432	keystroke_l	l	n/a
62.776	0.12	125552	keystroke_e	e	n/a
62.881	0.09	125762	keystroke_l	l	n/a
62.986	0.105	125972	keystroke_Key.space	Key.space	n/a
63.092	0.089	126184	keystroke_s	s	n/a
63.196	0.091	126392	keystroke_u	u	n/a
63.256	0.045	126512	keystroke_r	r	n/a
63.436	0.045	126872	keystroke_g	g	n/a
63.466	0.12	126932	keystroke_e	e	n/a
63.571	0.12	127142	keystroke_Key.enter	Key.enter	n/a
63.6985	4.6145	127397	prompt	n/a	outsourcing resources historical linda\n
64.307	0.164	128614	keystroke_o	o	n/a
64.381	0.135	128762	keystroke_u	u	n/a
64.456	0.12	128912	keystroke_t	t	n/a
64.637	0.105	129274	keystroke_s	s	n/a
64.711	0.15	129422	keystroke_o	o	n/a
64.756	0.15	129512	keystroke_u	u	n/a
64.816	0.105	129632	keystroke_r	r	n/a
65.041	0.106	130082	keystroke_c	c	n/a
65.116	0.12	130232	keystroke_i	i	n/a
65.191	0.091	130382	keystroke_n	n	n/a
65.251	0.09	130502	keystroke_g	g	n/a
65.386	0.135	130772	keystroke_Key.space	Key.space	n/a
65.476	0.12	130952	keystroke_r	r	n/a
65.566	0.09	131132	keystroke_e	e	n/a
65.746	0.135	131492	keystroke_s	s	n/a
65.836	0.135	131672	keystroke_o	o	n/a
65.896	0.135	131792	keystroke_u	u	n/a
65.987	0.074	131974	keystroke_r	r	n/a
66.196	0.105	132392	keystroke_c	c	n/a
66.286	0.09	132572	keystroke_e	e	n/a
66.467	0.104	132934	keystroke_s	s	n/a
66.496	0.105	132992	keystroke_Key.space	Key.space	n/a
66.736	0.09	133472	keystroke_h	h	n/a
66.931	0.12	133862	keystroke_i	i	n/a
66.976	0.15	133952	keystroke_s	s	n/a
67.096	0.09	134192	keystroke_t	t	n/a
67.171	0.105	134342	keystroke_o	o	n/a
67.291	0.075	134582	keystroke_r	r	n/a
67.396	0.12	134792	keystroke_i	i	n/a
67.546	0.105	135092	keystroke_c	c	n/a
67.591	0.121	135182	keystroke_a	a	n/a
67.652	0.104	135304	keystroke_l	l	n/a
67.741	0.135	135482	keystroke_Key.space	Key.space	n/a
67.861	0.15	135722	keystroke_l	l	n/a
67.936	0.12	135872	keystroke_i	i	n/a
68.026	0.12	136052	keystroke_n	n	n/a
68.086	0.075	136172	keystroke_d	d	n/a
68.131	0.09	136262	keystroke_a	a	n/a
68.266	0.045	136532	keystroke_Key.enter	Key.enter	n/a
68.3175	3.611	136635	prompt	n/a	finding thing bradford deviant\n
68.926	0.15	137852	keystroke_f	f	n/a
69.031	0.12	138062	keystroke_i	i	n/a
69.106	0.105	138212	keystroke_n	n	n/a
69.166	0.105	138332	keystroke_d	d	n/a
69.286	0.09	138572	keystroke_i	i	n/a
69.316	0.105	138632	keystroke_n	n	n/a
69.391	0.075	138782	keystroke_g	g	n/a
69.526	0.105	139052	keystroke_Key.space	Key.space	n/a
69.586	0.12	139172	keystroke_t	t	n/a
69.676	0.105	139352	keystroke_h	h	n/a
69.737	0.104	139474	keystroke_i	i	n/a
69.796	0.06	139592	keystroke_n	n	n/a
69.826	0.075	139652	keystroke_g	g	n/a
69.961	0.105	139922	keystroke_Key.space	Key.space	n/a
70.036	0.135	140072	keystroke_b	b	n/a
70.111	0.12	140222	keystroke_r	r	n/a
70.201	0.15	140402	keystroke_a	a	n/a
70.306	0.12	140612	keystroke_d	d	n/a
70.486	0.105	140972	keystroke_f	f	n/a
70.576	0.12	141152	keystroke_o	o	n/a
70.681	0.075	141362	keystroke_r	r	n/a
70.861	0.09	141722	keystroke_d	d	n/a
70.921	0.105	141842	keystroke_Key.space	Key.space	n/a
71.056	0.09	142112	keystroke_d	d	n/a
71.131	0.15	142262	keystroke_e	e	n/a
71.282	0.105	142564	keystroke_v	v	n/a
71.371	0.121	142742	keystroke_i	i	n/a
71.476	0.105	142952	keystroke_a	a	n/a
71.566	0.105	143132	keystroke_n	n	n/a
71.657	0.089	143314	keystroke_t	t	n/a
71.821	0.105	143642	keystroke_Key.enter	Key.enter	n/a
71.9335	3.205	143867	prompt	n/a	bring supposed senior earn\n
72.452	0.09	144904	keystroke_b	b	n/a
72.557	0.104	145114	keystroke_r	r	n/a
72.676	0.12	145352	keystroke_i	i	n/a
72.706	0.12	145412	keystroke_n	n	n/a
72.781	0.105	145562	keystroke_g	g	n/a
72.901	0.12	145802	keystroke_Key.space	Key.space	n/a
73.052	0.119	146104	keystroke_s	s	n/a
73.111	0.09	146222	keystroke_u	u	n/a
73.186	0.105	146372	keystroke_p	p	n/a
73.351	0.15	146702	keystroke_p	p	n/a
73.426	0.135	146852	keystroke_o	o	n/a
73.486	0.09	146972	keystroke_s	s	n/a
73.681	0.15	147362	keystroke_e	e	n/a
73.756	0.165	147512	keystroke_d	d	n/a
73.876	0.09	147752	keystroke_Key.space	Key.space	n/a
74.041	0.105	148082	keystroke_s	s	n/a
74.221	0.12	148442	keystroke_e	e	n/a
74.282	0.12	148564	keystroke_n	n	n/a
74.326	0.15	148652	keystroke_i	i	n/a
74.386	0.121	148772	keystroke_o	o	n/a
74.446	0.105	148892	keystroke_r	r	n/a
74.5665	0.1195	149133	keystroke_Key.space	Key.space	n/a
74.716	0.21	149432	keystroke_e	e	n/a
74.776	0.136	149552	keystroke_a	a	n/a
74.866	0.091	149732	keystroke_r	r	n/a
74.896	0.091	149792	keystroke_n	n	n/a
75.046	0.09	150092	keystroke_Key.enter	Key.enter	n/a
75.144	3.2795	150288	prompt	n/a	lamb swiss thirty coat\n
75.662	0.134	151324	keystroke_l	l	n/a
75.766	0.091	151532	keystroke_a	a	n/a
75.871	0.075	151742	keystroke_m	m	n/a
76.022	0.089	152044	keystroke_b	b	n/a
76.156	0.105	152312	keystroke_Key.space	Key.space	n/a
76.262	0.104	152524	keystroke_s	s	n/a
76.456	0.105	152912	keystroke_w	w	n/a
76.531	0.09	153062	keystroke_i	i	n/a
76.666	0.075	153332	keystroke_s	s	n/a
76.816	0.105	153632	keystroke_s	s	n/a
76.891	0.105	153782	keystroke_Key.space	Key.space	n/a
77.026	0.106	154052	keystroke_t	t	n/a
77.086	0.09	154172	keystroke_h	h	n/a
77.266	0.12	154532	keystroke_i	i	n/a
77.357	0.074	154714	keystroke_r	r	n/a
77.507	0.089	155014	keystroke_t	t	n/a
77.581	0.09	155162	keystroke_y	y	n/a
77.851	0.105	155702	keystroke_Key.space	Key.space	n/a
77.941	0.09	155882	keystroke_c	c	n/a
78.077	0.089	156154	keystroke_o	o	n/a
78.121	0.12	156242	keystroke_a	a	n/a
78.211	0.09	156422	keystroke_t	t	n/a
78.316	0.105	156632	keystroke_Key.enter	Key.enter	n/a
78.4285	3.8795	156857	prompt	n/a	posted emacs comfortable unto\n
79.066	0.165	158132	keystroke_p	p	n/a
79.157	0.15	158314	keystroke_o	o	n/a
79.202	0.134	158404	keystroke_s	s	n/a
79.291	0.136	158582	keystroke_t	t	n/a
79.441	0.135	158882	keystroke_e	e	n/a
79.546	0.105	159092	keystroke_d	d	n/a
79.621	0.091	159242	keystroke_Key.space	Key.space	n/a
79.741	0.136	159482	keystroke_e	e	n/a
79.846	0.12	159692	keystroke_m	m	n/a
80.116	0.12	160232	keystroke_a	a	n/a
80.221	0.121	160442	keystroke_c	c	n/a
80.356	0.121	160712	keystroke_s	s	n/a
80.491	0.105	160982	keystroke_Key.space	Key.space	n/a
80.611	0.12	161222	keystroke_c	c	n/a
80.717	0.119	161434	keystroke_o	o	n/a
80.746	0.12	161492	keystroke_m	m	n/a
80.851	0.121	161702	keystroke_f	f	n/a
80.957	0.104	161914	keystroke_o	o	n/a
81.046	0.075	162092	keystroke_r	r	n/a
81.196	0.091	162392	keystroke_t	t	n/a
81.271	0.135	162542	keystroke_a	a	n/a
81.331	0.135	162662	keystroke_b	b	n/a
81.421	0.151	162842	keystroke_l	l	n/a
81.511	0.09	163022	keystroke_e	e	n/a
81.572	0.104	163144	keystroke_Key.space	Key.space	n/a
81.661	0.151	163322	keystroke_u	u	n/a
81.796	0.12	163592	keystroke_n	n	n/a
81.917	0.074	163834	keystroke_t	t	n/a
81.976	0.105	163952	keystroke_o	o	n/a
82.216	0.09	164432	keystroke_Key.enter	Key.enter	n/a
82.313	5.936	164626	prompt	n/a	traveling sublimedirectory skating instructor\n
83.041	0.06	166082	keystroke_t	t	n/a
83.206	0.106	166412	keystroke_r	r	n/a
83.296	0.105	166592	keystroke_a	a	n/a
83.461	0.135	166922	keystroke_v	v	n/a
83.551	0.12	167102	keystroke_e	e	n/a
83.611	0.165	167222	keystroke_l	l	n/a
83.672	0.134	167344	keystroke_i	i	n/a
83.746	0.09	167492	keystroke_n	n	n/a
83.791	0.091	167582	keystroke_g	g	n/a
83.911	0.135	167822	keystroke_Key.space	Key.space	n/a
84.061	0.105	168122	keystroke_s	s	n/a
84.121	0.15	168242	keystroke_u	u	n/a
84.211	0.106	168422	keystroke_b	b	n/a
84.452	0.18	168904	keystroke_l	l	n/a
84.557	0.149	169114	keystroke_i	i	n/a
84.662	0.134	169324	keystroke_m	m	n/a
84.766	0.075	169532	keystroke_e	e	n/a
85.171	0.121	170342	keystroke_d	d	n/a
85.276	0.106	170552	keystroke_i	i	n/a
85.366	0.09	170732	keystroke_r	r	n/a
85.427	0.21	170854	keystroke_e	e	n/a
85.607	0.104	171214	keystroke_c	c	n/a
85.816	0.105	171632	keystroke_t	t	n/a
85.891	0.075	171782	keystroke_o	o	n/a
85.981	0.105	171962	keystroke_r	r	n/a
86.012	0.135	172024	keystroke_y	y	n/a
86.131	0.105	172262	keystroke_Key.space	Key.space	n/a
86.282	0.119	172564	keystroke_s	s	n/a
86.371	0.105	172742	keystroke_k	k	n/a
86.491	0.121	172982	keystroke_a	a	n/a
86.582	0.12	173164	keystroke_t	t	n/a
86.627	0.09	173254	keystroke_i	i	n/a
86.671	0.106	173342	keystroke_n	n	n/a
86.807	0.089	173614	keystroke_g	g	n/a
86.911	0.09	173822	keystroke_Key.space	Key.space	n/a
87.016	0.135	174032	keystroke_i	i	n/a
87.092	0.104	174184	keystroke_n	n	n/a
87.137	0.119	174274	keystroke_s	s	n/a
87.212	0.104	174424	keystroke_t	t	n/a
87.391	0.121	174782	keystroke_r	r	n/a
87.496	0.105	174992	keystroke_u	u	n/a
87.616	0.106	175232	keystroke_c	c	n/a
87.826	0.091	175652	keystroke_t	t	n/a
87.901	0.121	175802	keystroke_o	o	n/a
88.006	0.09	176012	keystroke_r	r	n/a
88.171	0.075	176342	keystroke_Key.enter	Key.enter	n/a
88.257	4.851	176514	prompt	n/a	alias changes elsewhere vocals\n
88.712	0.104	177424	keystroke_a	a	n/a
88.862	0.195	177724	keystroke_l	l	n/a
88.966	0.135	177932	keystroke_i	i	n/a
89.071	0.15	178142	keystroke_a	a	n/a
89.177	0.119	178354	keystroke_s	s	n/a
89.311	0.091	178622	keystroke_Key.space	Key.space	n/a
89.462	0.09	178924	keystroke_c	c	n/a
89.521	0.075	179042	keystroke_h	h	n/a
89.611	0.106	179222	keystroke_a	a	n/a
89.702	0.135	179404	keystroke_n	n	n/a
89.791	0.105	179582	keystroke_g	g	n/a
89.912	0.104	179824	keystroke_e	e	n/a
90.121	0.075	180242	keystroke_s	s	n/a
90.227	0.134	180454	keystroke_Key.space	Key.space	n/a
90.377	0.105	180754	keystroke_e	e	n/a
90.496	0.12	180992	keystroke_l	l	n/a
90.617	0.089	181234	keystroke_s	s	n/a
90.902	0.015	181804	keystroke_e	e	n/a
90.976	0.076	181952	keystroke_w	w	n/a
91.036	0.151	182072	keystroke_h	h	n/a
91.141	0.091	182282	keystroke_e	e	n/a
91.217	0.104	182434	keystroke_r	r	n/a
91.306	0.106	182612	keystroke_e	e	n/a
91.742	0.119	183484	keystroke_Key.space	Key.space	n/a
91.846	0.106	183692	keystroke_c	c	n/a
92.296	0.045	184592	keystroke_Key.backspace	Key.backspace	n/a
92.401	0.091	184802	keystroke_v	v	n/a
92.506	0.106	185012	keystroke_o	o	n/a
92.596	0.106	185192	keystroke_c	c	n/a
92.671	0.136	185342	keystroke_a	a	n/a
92.747	0.105	185494	keystroke_l	l	n/a
92.867	0.09	185734	keystroke_s	s	n/a
93.001	0.105	186002	keystroke_Key.enter	Key.enter	n/a
93.113	3.715	186226	prompt	n/a	november output surf possess\n
93.827	0.134	187654	keystroke_n	n	n/a
93.902	0.135	187804	keystroke_o	o	n/a
93.977	0.089	187954	keystroke_v	v	n/a
94.112	0.12	188224	keystroke_e	e	n/a
94.187	0.104	188374	keystroke_m	m	n/a
94.322	0.105	188644	keystroke_b	b	n/a
94.352	0.179	188704	keystroke_e	e	n/a
94.471	0.121	188942	keystroke_r	r	n/a
94.546	0.12	189092	keystroke_Key.space	Key.space	n/a
94.636	0.15	189272	keystroke_o	o	n/a
94.711	0.121	189422	keystroke_u	u	n/a
94.816	0.061	189632	keystroke_t	t	n/a
94.936	0.106	189872	keystroke_p	p	n/a
95.012	0.134	190024	keystroke_u	u	n/a
95.132	0.119	190264	keystroke_t	t	n/a
95.266	0.09	190532	keystroke_Key.space	Key.space	n/a
95.371	0.121	190742	keystroke_s	s	n/a
95.477	0.105	190954	keystroke_u	u	n/a
95.536	0.091	191072	keystroke_r	r	n/a
95.731	0.076	191462	keystroke_f	f	n/a
95.791	0.121	191582	keystroke_Key.space	Key.space	n/a
95.852	0.15	191704	keystroke_p	p	n/a
95.927	0.105	191854	keystroke_o	o	n/a
95.986	0.061	191972	keystroke_s	s	n/a
96.121	0.091	192242	keystroke_s	s	n/a
96.377	0.015	192754	keystroke_e	e	n/a
96.467	0.06	192934	keystroke_s	s	n/a
96.587	0.06	193174	keystroke_s	s	n/a
96.721	0.105	193442	keystroke_Key.enter	Key.enter	n/a
96.833	6.1155	193666	prompt	n/a	lounge installed cart shower\n
97.441	0.076	194882	keystroke_l	l	n/a
97.682	0.135	195364	keystroke_o	o	n/a
97.757	0.12	195514	keystroke_u	u	n/a
97.802	0.105	195604	keystroke_n	n	n/a
97.862	0.12	195724	keystroke_g	g	n/a
97.967	0.105	195934	keystroke_e	e	n/a
98.026	0.12	196052	keystroke_Key.space	Key.space	n/a
98.161	0.136	196322	keystroke_i	i	n/a
98.252	0.165	196504	keystroke_s	s	n/a
98.281	0.091	196562	keystroke_n	n	n/a
98.387	0.105	196774	keystroke_t	t	n/a
98.477	0.135	196954	keystroke_a	a	n/a
98.566	0.061	197132	keystroke_l	l	n/a
98.716	0.076	197432	keystroke_l	l	n/a
98.761	0.121	197522	keystroke_e	e	n/a
98.821	0.106	197642	keystroke_d	d	n/a
98.942	0.09	197884	keystroke_Key.space	Key.space	n/a
99.302	0.06	198604	keystroke_Key.backspace	Key.backspace	n/a
99.452	0.044	198904	keystroke_Key.backspace	Key.backspace	n/a
99.602	0.045	199204	keystroke_Key.backspace	Key.backspace	n/a
99.752	0.045	199504	keystroke_Key.backspace	Key.backspace	n/a
99.871	0.061	199742	keystroke_Key.backspace	Key.backspace	n/a
100.007	0.074	200014	keystroke_Key.backspace	Key.backspace	n/a
100.156	0.06	200312	keystroke_Key.backspace	Key.backspace	n/a
100.412	0.104	200824	keystroke_Key.backspace	Key.backspace	n/a
100.636	0.105	201272	keystroke_Key.backspace	Key.backspace	n/a
100.832	0.12	201664	keystroke_n	n	n/a
100.937	0.15	201874	keystroke_s	s	n/a
101.072	0.12	202144	keystroke_t	t	n/a
101.177	0.105	202354	keystroke_a	a	n/a
101.237	0.059	202474	keystroke_l	l	n/a
101.372	0.105	202744	keystroke_l	l	n/a
101.432	0.12	202864	keystroke_e	e	n/a
101.507	0.105	203014	keystroke_d	d	n/a
101.596	0.12	203192	keystroke_Key.space	Key.space	n/a
101.702	0.09	203404	keystroke_c	c	n/a
101.807	0.18	203614	keystroke_a	a	n/a
101.942	0.09	203884	keystroke_r	r	n/a
102.092	0.09	204184	keystroke_t	t	n/a
102.152	0.119	204304	keystroke_Key.space	Key.space	n/a
102.317	0.105	204634	keystroke_s	s	n/a
102.377	0.09	204754	keystroke_h	h	n/a
102.437	0.135	204874	keystroke_o	o	n/a
102.527	0.09	205054	keystroke_w	w	n/a
102.692	0.12	205384	keystroke_e	e	n/a
102.767	0.09	205534	keystroke_r	r	n/a
102.842	0.104	205684	keystroke_Key.enter	Key.enter	n/a
102.9545	4.5235	205909	prompt	n/a	asset largely retrieve deadline\n
103.592	0.15	207184	keystroke_a	a	n/a
103.697	0.105	207394	keystroke_s	s	n/a
103.862	0.105	207724	keystroke_s	s	n/a
104.072	0.135	208144	keystroke_e	e	n/a
104.162	0.12	208324	keystroke_t	t	n/a
104.252	0.089	208504	keystroke_Key.space	Key.space	n/a
104.297	0.105	208594	keystroke_l	l	n/a
104.417	0.1945	208834	keystroke_a	a	n/a
104.5965	0.105	209193	keystroke_r	r	n/a
104.8365	0.09	209673	keystroke_g	g	n/a
104.8965	0.15	209793	keystroke_e	e	n/a
105.0315	0.135	210063	keystroke_l	l	n/a
105.1065	0.1055	210213	keystroke_y	y	n/a
105.1805	0.121	210361	keystroke_Key.space	Key.space	n/a
105.601	0.135	211202	keystroke_r	r	n/a
105.721	0.12	211442	keystroke_e	e	n/a
105.901	0.09	211802	keystroke_t	t	n/a
106.051	0.135	212102	keystroke_r	r	n/a
106.201	0.075	212402	keystroke_i	i	n/a
106.291	0.135	212582	keystroke_e	e	n/a
106.411	0.135	212822	keystroke_v	v	n/a
106.501	0.12	213002	keystroke_e	e	n/a
106.636	0.134	213272	keystroke_Key.space	Key.space	n/a
106.756	0.12	213512	keystroke_d	d	n/a
106.831	0.195	213662	keystroke_e	e	n/a
106.891	0.135	213782	keystroke_a	a	n/a
107.027	0.089	214054	keystroke_d	d	n/a
107.056	0.135	214112	keystroke_l	l	n/a
107.116	0.135	214232	keystroke_i	i	n/a
107.176	0.12	214352	keystroke_n	n	n/a
107.266	0.075	214532	keystroke_e	e	n/a
107.386	0.09	214772	keystroke_Key.enter	Key.enter	n/a
107.4825	4.78	214965	prompt	n/a	ultimate penguin syndrome line\n
108.076	0.105	216152	keystroke_u	u	n/a
108.166	0.15	216332	keystroke_l	l	n/a
108.241	0.09	216482	keystroke_t	t	n/a
108.316	0.105	216632	keystroke_i	i	n/a
108.391	0.105	216782	keystroke_m	m	n/a
108.436	0.15	216872	keystroke_a	a	n/a
108.511	0.104	217022	keystroke_t	t	n/a
108.571	0.12	217142	keystroke_e	e	n/a
108.645	0.091	217290	keystroke_Key.space	Key.space	n/a
108.766	0.12	217532	keystroke_p	p	n/a
108.856	0.105	217712	keystroke_e	e	n/a
108.916	0.12	217832	keystroke_n	n	n/a
109.051	0.105	218102	keystroke_g	g	n/a
109.126	0.135	218252	keystroke_u	u	n/a
109.186	0.15	218372	keystroke_i	i	n/a
109.216	0.135	218432	keystroke_n	n	n/a
109.381	0.135	218762	keystroke_Key.space	Key.space	n/a
109.486	0.105	218972	keystroke_s	s	n/a
109.635	0.091	219270	keystroke_u	u	n/a
110.356	0.059	220712	keystroke_Key.backspace	Key.backspace	n/a
110.596	0.12	221192	keystroke_y	y	n/a
110.686	0.135	221372	keystroke_n	n	n/a
110.851	0.075	221702	keystroke_r	r	n/a
111.166	0.06	222332	keystroke_Key.backspace	Key.backspace	n/a
111.256	0.075	222512	keystroke_d	d	n/a
111.406	0.105	222812	keystroke_r	r	n/a
111.481	0.09	222962	keystroke_o	o	n/a
111.541	0.105	223082	keystroke_m	m	n/a
111.631	0.105	223262	keystroke_e	e	n/a
111.721	0.09	223442	keystroke_Key.space	Key.space	n/a
111.766	0.165	223532	keystroke_l	l	n/a
111.841	0.135	223682	keystroke_i	i	n/a
111.916	0.12	223832	keystroke_n	n	n/a
112.006	0.075	224012	keystroke_e	e	n/a
112.156	0.105	224312	keystroke_Key.enter	Key.enter	n/a
112.2665	6.311	224533	prompt	n/a	austin successfully delivery validation\n
112.876	0.105	225752	keystroke_a	a	n/a
112.921	0.105	225842	keystroke_u	u	n/a
113.026	0.15	226052	keystroke_s	s	n/a
113.161	0.105	226322	keystroke_t	t	n/a
113.191	0.105	226382	keystroke_i	i	n/a
113.251	0.105	226502	keystroke_n	n	n/a
113.431	0.09	226862	keystroke_Key.space	Key.space	n/a
113.506	0.135	227012	keystroke_s	s	n/a
113.611	0.105	227222	keystroke_u	u	n/a
113.686	0.105	227372	keystroke_c	c	n/a
113.836	0.105	227672	keystroke_c	c	n/a
113.881	0.12	227762	keystroke_e	e	n/a
114.076	0.09	228152	keystroke_s	s	n/a
114.226	0.12	228452	keystroke_s	s	n/a
114.361	0.09	228722	keystroke_f	f	n/a
114.436	0.12	228872	keystroke_u	u	n/a
114.526	0.075	229052	keystroke_l	l	n/a
114.676	0.105	229352	keystroke_l	l	n/a
114.736	0.09	229472	keystroke_y	y	n/a
114.796	0.105	229592	keystroke_Key.space	Key.space	n/a
114.931	0.12	229862	keystroke_d	d	n/a
115.006	0.135	230012	keystroke_e	e	n/a
115.126	0.165	230252	keystroke_l	l	n/a
115.201	0.135	230402	keystroke_i	i	n/a
115.261	0.075	230522	keystroke_v	v	n/a
115.381	0.12	230762	keystroke_e	e	n/a
115.471	0.09	230942	keystroke_r	r	n/a
115.546	0.15	231092	keystroke_Key.space	Key.space	n/a
115.801	0.105	231602	keystroke_v	v	n/a
115.907	0.134	231814	keystroke_a	a	n/a
116.386	0.075	232772	keystroke_Key.backspace	Key.backspace	n/a
116.551	0.06	233102	keystroke_Key.backspace	Key.backspace	n/a
116.716	0.09	233432	keystroke_Key.backspace	Key.backspace	n/a
117.166	0.09	234332	keystroke_y	y	n/a
117.481	0.12	234962	keystroke_Key.space	Key.space	n/a
117.586	0.105	235172	keystroke_v	v	n/a
117.706	0.135	235412	keystroke_a	a	n/a
117.796	0.12	235592	keystroke_l	l	n/a
117.871	0.105	235742	keystroke_i	i	n/a
117.946	0.105	235892	keystroke_d	d	n/a
118.021	0.105	236042	keystroke_a	a	n/a
118.156	0.09	236312	keystroke_t	t	n/a
118.186	0.12	236372	keystroke_i	i	n/a
118.231	0.105	236462	keystroke_o	o	n/a
118.291	0.09	236582	keystroke_n	n	n/a
118.486	0.09	236972	keystroke_Key.enter	Key.enter	n/a
118.5815	4.3605	237163	prompt	n/a	indices ripe jury verizon\n
119.326	0.15	238652	keystroke_i	i	n/a
119.401	0.12	238802	keystroke_n	n	n/a
119.566	0.12	239132	keystroke_c	c	n/a
120.001	0.06	240002	keystroke_Key.backspace	Key.backspace	n/a
120.121	0.105	240242	keystroke_d	d	n/a
120.241	0.105	240482	keystroke_i	i	n/a
120.331	0.12	240662	keystroke_c	c	n/a
120.406	0.105	240812	keystroke_e	e	n/a
120.616	0.105	241232	keystroke_s	s	n/a
120.722	0.089	241444	keystroke_Key.space	Key.space	n/a
120.886	0.105	241772	keystroke_r	r	n/a
120.976	0.135	241952	keystroke_i	i	n/a
121.021	0.135	242042	keystroke_p	p	n/a
121.096	0.135	242192	keystroke_e	e	n/a
121.216	0.12	242432	keystroke_Key.space	Key.space	n/a
121.486	0.12	242972	keystroke_j	j	n/a
121.711	0.09	243422	keystroke_u	u	n/a
121.786	0.105	243572	keystroke_r	r	n/a
121.906	0.105	243812	keystroke_y	y	n/a
121.981	0.105	243962	keystroke_Key.space	Key.space	n/a
122.071	0.09	244142	keystroke_v	v	n/a
122.206	0.135	244412	keystroke_e	e	n/a
122.296	0.075	244592	keystroke_r	r	n/a
122.356	0.09	244712	keystroke_i	i	n/a
122.491	0.12	244982	keystroke_z	z	n/a
122.566	0.105	245132	keystroke_o	o	n/a
122.626	0.105	245252	keystroke_n	n	n/a
122.821	0.12	245642	keystroke_Key.enter	Key.enter	n/a
122.946	8.9365	245892	prompt	n/a	upper manufacturers friendly outdoors\n
123.511	0.12	247022	keystroke_u	u	n/a
123.616	0.105	247232	keystroke_p	p	n/a
123.766	0.15	247532	keystroke_p	p	n/a
123.826	0.15	247652	keystroke_e	e	n/a
123.886	0.135	247772	keystroke_r	r	n/a
123.961	0.075	247922	keystroke_Key.space	Key.space	n/a
124.141	0.09	248282	keystroke_m	m	n/a
124.171	0.12	248342	keystroke_a	a	n/a
124.321	0.12	248642	keystroke_n	n	n/a
124.366	0.135	248732	keystroke_u	u	n/a
124.486	0.12	248972	keystroke_f	f	n/a
124.636	0.18	249272	keystroke_a	a	n/a
124.756	0.12	249512	keystroke_c	c	n/a
124.981	0.105	249962	keystroke_t	t	n/a
125.101	0.105	250202	keystroke_u	u	n/a
125.161	0.105	250322	keystroke_r	r	n/a
125.221	0.135	250442	keystroke_e	e	n/a
125.326	0.12	250652	keystroke_r	r	n/a
125.401	0.12	250802	keystroke_e	e	n/a
125.611	0.105	251222	keystroke_s	s	n/a
125.686	0.105	251372	keystroke_Key.space	Key.space	n/a
125.836	0.09	251672	keystroke_f	f	n/a
126.001	0.105	252002	keystroke_r	r	n/a
126.076	0.135	252152	keystroke_i	i	n/a
126.196	0.09	252392	keystroke_e	e	n/a
126.256	0.09	252512	keystroke_n	n	n/a
126.361	0.105	252722	keystroke_d	d	n/a
126.451	0.15	252902	keystroke_l	l	n/a
126.541	0.12	253082	keystroke_y	y	n/a
126.646	0.165	253292	keystroke_Key.space	Key.space	n/a
127.351	0.06	254702	keystroke_Key.backspace	Key.backspace	n/a
127.516	0.06	255032	keystroke_Key.backspace	Key.backspace	n/a
127.681	0.045	255362	keystroke_Key.backspace	Key.backspace	n/a
127.831	0.045	255662	keystroke_Key.backspace	Key.backspace	n/a
128.011	0.03	256022	keystroke_Key.backspace	Key.backspace	n/a
128.146	0.06	256292	keystroke_Key.backspace	Key.backspace	n/a
128.311	0.06	256622	keystroke_Key.backspace	Key.backspace	n/a
128.476	0.06	256952	keystroke_Key.backspace	Key.backspace	n/a
128.626	0.075	257252	keystroke_Key.backspace	Key.backspace	n/a
128.776	0.09	257552	keystroke_Key.backspace	Key.backspace	n/a
128.986	0.09	257972	keystroke_Key.backspace	Key.backspace	n/a
129.361	0.09	258722	keystroke_Key.backspace	Key.backspace	n/a
129.496	0.105	258992	keystroke_s	s	n/a
129.766	0.105	259532	keystroke_Key.space	Key.space	n/a
130.021	0.075	260042	keystroke_f	f	n/a
130.186	0.105	260372	keystroke_r	r	n/a
130.261	0.12	260522	keystroke_i	i	n/a
130.366	0.105	260732	keystroke_e	e	n/a
130.456	0.09	260912	keystroke_n	n	n/a
130.561	0.09	261122	keystroke_d	d	n/a
130.606	0.135	261212	keystroke_l	l	n/a
130.711	0.075	261422	keystroke_y	y	n/a
130.756	0.12	261512	keystroke_Key.space	Key.space	n/a
130.891	0.15	261782	keystroke_o	o	n/a
130.981	0.12	261962	keystroke_u	u	n/a
131.041	0.09	262082	keystroke_t	t	n/a
131.281	0.105	262562	keystroke_d	d	n/a
131.371	0.06	262742	keystroke_o	o	n/a
131.506	0.105	263012	keystroke_o	o	n/a
131.551	0.09	263102	keystroke_r	r	n/a
131.701	0.105	263402	keystroke_s	s	n/a
131.791	0.09	263582	keystroke_Key.enter	Key.enter	n/a
131.8885	3.639	263777	prompt	n/a	nearly wagon sprint struct\n
132.541	0.105	265082	keystroke_n	n	n/a
132.631	0.18	265262	keystroke_e	e	n/a
132.676	0.12	265352	keystroke_a	a	n/a
132.751	0.105	265502	keystroke_r	r	n/a
132.841	0.12	265682	keystroke_l	l	n/a
132.901	0.105	265802	keystroke_y	y	n/a
132.946	0.12	265892	keystroke_Key.space	Key.space	n/a
133.051	0.165	266102	keystroke_w	w	n/a
133.171	0.075	266342	keystroke_a	a	n/a
133.276	0.105	266552	keystroke_g	g	n/a
133.336	0.105	266672	keystroke_o	o	n/a
133.396	0.105	266792	keystroke_n	n	n/a
133.576	0.105	267152	keystroke_Key.space	Key.space	n/a
133.666	0.12	267332	keystroke_s	s	n/a
133.741	0.12	267482	keystroke_p	p	n/a
133.846	0.105	267692	keystroke_r	r	n/a
133.906	0.105	267812	keystroke_i	i	n/a
133.936	0.105	267872	keystroke_n	n	n/a
134.026	0.06	268052	keystroke_t	t	n/a
134.131	0.105	268262	keystroke_Key.space	Key.space	n/a
134.191	0.12	268382	keystroke_s	s	n/a
134.341	0.075	268682	keystroke_t	t	n/a
134.551	0.09	269102	keystroke_r	r	n/a
134.671	0.09	269342	keystroke_u	u	n/a
134.791	0.075	269582	keystroke_c	c	n/a
135.001	0.03	270002	keystroke_t	t	n/a
135.406	0.12	270812	keystroke_Key.enter	Key.enter	n/a
135.531	4.977	271062	prompt	n/a	races ordinance success owns\n
137.191	0.105	274382	keystroke_r	r	n/a
137.281	0.135	274562	keystroke_a	a	n/a
137.446	0.135	274892	keystroke_c	c	n/a
137.551	0.105	275102	keystroke_e	e	n/a
137.746	0.105	275492	keystroke_s	s	n/a
137.836	0.12	275672	keystroke_Key.space	Key.space	n/a
137.911	0.135	275822	keystroke_o	o	n/a
138.031	0.09	276062	keystroke_r	r	n/a
138.226	0.105	276452	keystroke_d	d	n/a
138.301	0.105	276602	keystroke_i	i	n/a
138.361	0.12	276722	keystroke_n	n	n/a
138.466	0.135	276932	keystroke_a	a	n/a
138.541	0.12	277082	keystroke_n	n	n/a
138.631	0.105	277262	keystroke_c	c	n/a
138.706	0.12	277412	keystroke_e	e	n/a
138.781	0.12	277562	keystroke_Key.space	Key.space	n/a
139.051	0.12	278102	keystroke_s	s	n/a
139.126	0.09	278252	keystroke_u	u	n/a
139.231	0.075	278462	keystroke_c	c	n/a
139.366	0.105	278732	keystroke_c	c	n/a
139.426	0.135	278852	keystroke_e	e	n/a
139.636	0.09	279272	keystroke_s	s	n/a
139.786	0.075	279572	keystroke_s	s	n/a
139.816	0.135	279632	keystroke_Key.space	Key.space	n/a
139.936	0.12	279872	keystroke_o	o	n/a
140.071	0.105	280142	keystroke_w	w	n/a
140.161	0.105	280322	keystroke_n	n	n/a
140.281	0.075	280562	keystroke_s	s	n/a
140.371	0.135	280742	keystroke_Key.enter	Key.enter	n/a
140.512	3.1755	281024	prompt	n/a	nato instant traveling quoted\n
141.061	0.105	282122	keystroke_n	n	n/a
141.121	0.12	282242	keystroke_a	a	n/a
141.226	0.12	282452	keystroke_t	t	n/a
141.316	0.12	282632	keystroke_o	o	n/a
141.391	0.105	282782	keystroke_Key.space	Key.space	n/a
141.541	0.12	283082	keystroke_i	i	n/a
141.601	0.12	283202	keystroke_n	n	n/a
141.646	0.136	283292	keystroke_s	s	n/a
141.736	0.09	283472	keystroke_t	t	n/a
141.811	0.135	283622	keystroke_a	a	n/a
141.886	0.09	283772	keystroke_n	n	n/a
141.961	0.105	283922	keystroke_t	t	n/a
142.051	0.12	284102	keystroke_Key.space	Key.space	n/a
142.141	0.075	284282	keystroke_t	t	n/a
142.291	0.105	284582	keystroke_r	r	n/a
142.366	0.105	284732	keystroke_a	a	n/a
142.546	0.135	285092	keystroke_v	v	n/a
142.621	0.105	285242	keystroke_e	e	n/a
142.666	0.12	285332	keystroke_l	l	n/a
142.711	0.135	285422	keystroke_i	i	n/a
142.771	0.12	285542	keystroke_n	n	n/a
142.831	0.075	285662	keystroke_g	g	n/a
142.936	0.105	285872	keystroke_Key.space	Key.space	n/a
143.071	0.105	286142	keystroke_q	q	n/a
143.146	0.105	286292	keystroke_u	u	n/a
143.206	0.15	286412	keystroke_o	o	n/a
143.311	0.105	286622	keystroke_t	t	n/a
143.401	0.15	286802	keystroke_e	e	n/a
143.506	0.105	287012	keystroke_d	d	n/a
143.596	0.09	287192	keystroke_Key.enter	Key.enter	n/a
143.691	5.0515	287382	prompt	n/a	patents spare picks rally\n
144.241	0.09	288482	keystroke_p	p	n/a
144.286	0.135	288572	keystroke_a	a	n/a
144.406	0.135	288812	keystroke_t	t	n/a
144.511	0.12	289022	keystroke_e	e	n/a
144.616	0.105	289232	keystroke_n	n	n/a
144.691	0.09	289382	keystroke_t	t	n/a
144.826	0.12	289652	keystroke_s	s	n/a
144.916	0.105	289832	keystroke_Key.space	Key.space	n/a
145.051	0.135	290102	keystroke_s	s	n/a
145.171	0.165	290342	keystroke_a	a	n/a
145.172	0.119	290344	keystroke_p	p	n/a
145.306	0.09	290612	keystroke_r	r	n/a
145.351	0.15	290702	keystroke_e	e	n/a
145.411	0.12	290822	keystroke_Key.space	Key.space	n/a
145.486	0.135	290972	keystroke_p	p	n/a
145.996	0.06	291992	keystroke_Key.backspace	Key.backspace	n/a
146.146	0.06	292292	keystroke_Key.backspace	Key.backspace	n/a
146.311	0.045	292622	keystroke_Key.backspace	Key.backspace	n/a
146.461	0.06	292922	keystroke_Key.backspace	Key.backspace	n/a
146.611	0.06	293222	keystroke_Key.backspace	Key.backspace	n/a
146.776	0.06	293552	keystroke_Key.backspace	Key.backspace	n/a
147.001	0.12	294002	keystroke_p	p	n/a
147.076	0.105	294152	keystroke_a	a	n/a
147.136	0.105	294272	keystroke_r	r	n/a
147.196	0.135	294392	keystroke_e	e	n/a
147.271	0.135	294542	keystroke_Key.space	Key.space	n/a
147.451	0.105	294902	keystroke_p	p	n/a
147.631	0.091	295262	keystroke_i	i	n/a
147.706	0.105	295412	keystroke_c	c	n/a
147.826	0.09	295652	keystroke_k	k	n/a
147.872	0.119	295744	keystroke_s	s	n/a
147.991	0.1045	295982	keystroke_Key.space	Key.space	n/a
148.0965	0.075	296193	keystroke_r	r	n/a
148.1865	0.09	296373	keystroke_a	a	n/a
148.2305	0.061	296461	keystroke_l	l	n/a
148.3515	0.104	296703	keystroke_l	l	n/a
148.4115	0.104	296823	keystroke_y	y	n/a
148.6515	0.089	297303	keystroke_Key.enter	Key.enter	n/a
148.7485	3.339	297497	prompt	n/a	career shoulder women quiz\n
149.3565	0.059	298713	keystroke_c	c	n/a
149.4315	0.164	298863	keystroke_a	a	n/a
149.6115	0.135	299223	keystroke_r	r	n/a
149.7615	0.105	299523	keystroke_e	e	n/a
149.9265	0.135	299853	keystroke_e	e	n/a
150.0015	0.12	300003	keystroke_r	r	n/a
150.0765	0.104	300153	keystroke_Key.space	Key.space	n/a
150.2265	0.12	300453	keystroke_s	s	n/a
150.2865	0.164	300573	keystroke_h	h	n/a
150.3615	0.165	300723	keystroke_o	o	n/a
150.4215	0.12	300843	keystroke_u	u	n/a
150.6165	0.105	301233	keystroke_l	l	n/a
150.6615	0.135	301323	keystroke_d	d	n/a
150.7815	0.15	301563	keystroke_e	e	n/a
150.8715	0.105	301743	keystroke_r	r	n/a
150.9315	0.12	301863	keystroke_Key.space	Key.space	n/a
151.0815	0.12	302163	keystroke_w	w	n/a
151.1415	0.09	302283	keystroke_o	o	n/a
151.1865	0.105	302373	keystroke_m	m	n/a
151.2765	0.12	302553	keystroke_e	e	n/a
151.3815	0.06	302763	keystroke_n	n	n/a
151.5315	0.104	303063	keystroke_Key.space	Key.space	n/a
151.6505	0.046	303301	keystroke_q	q	n/a
151.6665	0.12	303333	keystroke_u	u	n/a
151.7415	0.105	303483	keystroke_i	i	n/a
151.8315	0.119	303663	keystroke_z	z	n/a
152.0265	0.059	304053	keystroke_Key.enter	Key.enter	n/a
152.0925	6.536	304185	prompt	n/a	iraqi final strike principle\n
152.8515	0.09	305703	keystroke_i	i	n/a
152.9115	0.09	305823	keystroke_r	r	n/a
153.0465	0.135	306093	keystroke_a	a	n/a
153.2715	0.09	306543	keystroke_w	w	n/a
153.7355	0.061	307471	keystroke_Key.backspace	Key.backspace	n/a
153.8265	0.12	307653	keystroke_q	q	n/a
153.9615	0.105	307923	keystroke_i	i	n/a
154.1865	0.135	308373	keystroke_Key.space	Key.space	n/a
154.3815	0.105	308763	keystroke_f	f	n/a
154.4715	0.12	308943	keystroke_i	i	n/a
154.5315	0.09	309063	keystroke_n	n	n/a
154.6065	0.105	309213	keystroke_a	a	n/a
154.6965	0.105	309393	keystroke_l	l	n/a
154.7555	0.121	309511	keystroke_Key.space	Key.space	n/a
154.8165	0.105	309633	keystroke_s	s	n/a
154.9065	0.105	309813	keystroke_t	t	n/a
155.0715	0.105	310143	keystroke_r	r	n/a
155.0865	0.075	310173	keystroke_t	t	n/a
155.1015	0.09	310203	keystroke_i	i	n/a
155.3265	0.105	310653	keystroke_k	k	n/a
155.4465	0.135	310893	keystroke_e	e	n/a
155.5655	0.121	311131	keystroke_Key.space	Key.space	n/a
155.9265	0.06	311853	keystroke_Key.backspace	Key.backspace	n/a
156.0765	0.045	312153	keystroke_Key.backspace	Key.backspace	n/a
156.2105	0.061	312421	keystroke_Key.backspace	Key.backspace	n/a
156.4805	0.106	312961	keystroke_Key.backspace	Key.backspace	n/a
156.7515	0.09	313503	keystroke_Key.backspace	Key.backspace	n/a
156.9915	0.09	313983	keystroke_i	i	n/a
157.2015	0.105	314403	keystroke_k	k	n/a
157.2615	0.105	314523	keystroke_e	e	n/a
157.3665	0.105	314733	keystroke_Key.space	Key.space	n/a
157.4565	0.105	314913	keystroke_p	p	n/a
157.5465	0.12	315093	keystroke_r	r	n/a
157.6815	0.18	315363	keystroke_i	i	n/a
157.7565	0.135	315513	keystroke_n	n	n/a
157.8465	0.12	315693	keystroke_c	c	n/a
157.9815	0.15	315963	keystroke_i	i	n/a
158.0865	0.225	316173	keystroke_p	p	n/a
158.2815	0.135	316563	keystroke_l	l	n/a
158.3865	0.105	316773	keystroke_e	e	n/a
158.5365	0.09	317073	keystroke_Key.enter	Key.enter	n/a
158.6325	4.7205	317265	prompt	n/a	sports encryption charge diary\n
159.2265	0.12	318453	keystroke_s	s	n/a
159.3015	0.15	318603	keystroke_p	p	n/a
159.3765	0.15	318753	keystroke_o	o	n/a
159.4065	0.105	318813	keystroke_r	r	n/a
159.5715	0.09	319143	keystroke_t	t	n/a
159.6915	0.12	319383	keystroke_s	s	n/a
159.7815	0.105	319563	keystroke_Key.space	Key.space	n/a
160.1115	0.135	320223	keystroke_e	e	n/a
160.1715	0.135	320343	keystroke_n	n	n/a
160.8465	0.105	321693	keystroke_c	c	n/a
161.0565	0.105	322113	keystroke_r	r	n/a
161.1165	0.06	322233	keystroke_y	y	n/a
161.4765	0.105	322953	keystroke_p	p	n/a
161.6265	0.09	323253	keystroke_t	t	n/a
161.7015	0.135	323403	keystroke_i	i	n/a
161.7615	0.12	323523	keystroke_o	o	n/a
161.8065	0.105	323613	keystroke_n	n	n/a
162.0015	0.09	324003	keystroke_Key.space	Key.space	n/a
162.0615	0.135	324123	keystroke_c	c	n/a
162.1815	0.09	324363	keystroke_h	h	n/a
162.2115	0.12	324423	keystroke_a	a	n/a
162.3015	0.09	324603	keystroke_r	r	n/a
162.5115	0.105	325023	keystroke_g	g	n/a
162.5565	0.135	325113	keystroke_e	e	n/a
162.6465	0.12	325293	keystroke_Key.space	Key.space	n/a
162.7815	0.15	325563	keystroke_d	d	n/a
162.8865	0.105	325773	keystroke_i	i	n/a
162.9465	0.105	325893	keystroke_a	a	n/a
163.0215	0.09	326043	keystroke_r	r	n/a
163.0665	0.06	326133	keystroke_y	y	n/a
163.2465	0.105	326493	keystroke_Key.enter	Key.enter	n/a
163.358	4.345	326716	prompt	n/a	mold informative mothers contacted\n
164.0565	0.12	328113	keystroke_m	m	n/a
164.1615	0.09	328323	keystroke_o	o	n/a
164.3565	0.09	328713	keystroke_l	l	n/a
164.4165	0.105	328833	keystroke_d	d	n/a
164.5065	0.12	329013	keystroke_Key.space	Key.space	n/a
164.5965	0.15	329193	keystroke_i	i	n/a
164.7015	0.12	329403	keystroke_n	n	n/a
164.7765	0.12	329553	keystroke_f	f	n/a
164.8815	0.105	329763	keystroke_o	o	n/a
164.9715	0.105	329943	keystroke_r	r	n/a
165.0465	0.105	330093	keystroke_m	m	n/a
165.1065	0.12	330213	keystroke_a	a	n/a
165.1815	0.12	330363	keystroke_t	t	n/a
165.2865	0.12	330573	keystroke_i	i	n/a
165.4215	0.12	330843	keystroke_v	v	n/a
165.4965	0.135	330993	keystroke_e	e	n/a
165.5715	0.075	331143	keystroke_Key.space	Key.space	n/a
165.7665	0.105	331533	keystroke_m	m	n/a
165.8265	0.105	331653	keystroke_o	o	n/a
165.8865	0.105	331773	keystroke_t	t	n/a
165.9615	0.105	331923	keystroke_h	h	n/a
166.0215	0.135	332043	keystroke_e	e	n/a
166.0965	0.09	332193	keystroke_r	r	n/a
166.2765	0.105	332553	keystroke_s	s	n/a
166.3515	0.12	332703	keystroke_Key.space	Key.space	n/a
166.5765	0.105	333153	keystroke_c	c	n/a
166.6515	0.105	333303	keystroke_o	o	n/a
166.6965	0.12	333393	keystroke_n	n	n/a
166.8015	0.105	333603	keystroke_t	t	n/a
166.9365	0.12	333873	keystroke_a	a	n/a
167.0715	0.105	334143	keystroke_c	c	n/a
167.2815	0.09	334563	keystroke_t	t	n/a
167.3865	0.12	334773	keystroke_e	e	n/a
167.4765	0.105	334953	keystroke_d	d	n/a
167.6265	0.075	335253	keystroke_Key.enter	Key.enter	n/a
167.7075	5.5155	335415	prompt	n/a	astrology talks corps metres\n
168.2415	0.03	336483	keystroke_s	s	n/a
168.2865	0.195	336573	keystroke_a	a	n/a
168.3015	0.045	336603	keystroke_s	s	n/a
168.8265	0.075	337653	keystroke_Key.backspace	Key.backspace	n/a
169.0065	0.06	338013	keystroke_Key.backspace	Key.backspace	n/a
169.1565	0.03	338313	keystroke_Key.backspace	Key.backspace	n/a
169.3515	0.195	338703	keystroke_a	a	n/a
169.4415	0.18	338883	keystroke_s	s	n/a
169.6065	0.09	339213	keystroke_t	t	n/a
169.7565	0.12	339513	keystroke_r	r	n/a
169.8465	0.09	339693	keystroke_o	o	n/a
170.0415	0.06	340083	keystroke_l	l	n/a
170.2065	0.09	340413	keystroke_o	o	n/a
170.4015	0.075	340803	keystroke_g	g	n/a
170.5215	0.105	341043	keystroke_y	y	n/a
170.6265	0.135	341253	keystroke_Key.space	Key.space	n/a
170.9715	0.09	341943	keystroke_t	t	n/a
171.0165	0.135	342033	keystroke_a	a	n/a
171.0765	0.12	342153	keystroke_l	l	n/a
171.1215	0.135	342243	keystroke_k	k	n/a
171.2415	0.105	342483	keystroke_s	s	n/a
171.3015	0.105	342603	keystroke_Key.space	Key.space	n/a
171.5565	0.015	343113	keystroke_c	c	n/a
171.5865	0.075	343173	keystroke_o	o	n/a
171.6915	0.09	343383	keystroke_r	r	n/a
171.7515	0.075	343503	keystroke_p	p	n/a
171.8715	0.09	343743	keystroke_s	s	n/a
171.9465	0.06	343893	keystroke_Key.space	Key.space	n/a
172.1265	0.12	344253	keystroke_m	m	n/a
172.1865	0.15	344373	keystroke_e	e	n/a
172.3215	0.09	344643	keystroke_t	t	n/a
172.7115	0.105	345423	keystroke_r	r	n/a
172.7865	0.135	345573	keystroke_e	e	n/a
172.9965	0.1045	345993	keystroke_s	s	n/a
173.101	0.12	346202	keystroke_Key.enter	Key.enter	n/a
173.2265	5.3515	346453	prompt	n/a	advertisements special continues deposit\n
173.701	0.12	347402	keystroke_a	a	n/a
173.836	0.105	347672	keystroke_d	d	n/a
174.061	0.105	348122	keystroke_v	v	n/a
174.211	0.12	348422	keystroke_e	e	n/a
174.286	0.0605	348572	keystroke_r	r	n/a
174.406	0.09	348812	keystroke_t	t	n/a
174.4975	0.1035	348995	keystroke_i	i	n/a
174.601	0.105	349202	keystroke_s	s	n/a
174.811	0.105	349622	keystroke_e	e	n/a
174.9315	0.0895	349863	keystroke_m	m	n/a
175.006	0.1355	350012	keystroke_e	e	n/a
175.111	0.09	350222	keystroke_n	n	n/a
175.171	0.09	350342	keystroke_t	t	n/a
175.366	0.105	350732	keystroke_s	s	n/a
175.426	0.105	350852	keystroke_Key.space	Key.space	n/a
175.591	0.075	351182	keystroke_s	s	n/a
175.681	0.09	351362	keystroke_p	p	n/a
175.756	0.135	351512	keystroke_e	e	n/a
175.846	0.12	351692	keystroke_c	c	n/a
175.921	0.105	351842	keystroke_i	i	n/a
176.027	0.119	352054	keystroke_a	a	n/a
176.116	0.105	352232	keystroke_l	l	n/a
176.176	0.12	352352	keystroke_Key.space	Key.space	n/a
176.2665	0.1045	352533	keystroke_c	c	n/a
176.386	0.12	352772	keystroke_o	o	n/a
176.461	0.12	352922	keystroke_n	n	n/a
176.536	0.135	353072	keystroke_t	t	n/a
176.641	0.12	353282	keystroke_i	i	n/a
176.701	0.15	353402	keystroke_n	n	n/a
176.791	0.135	353582	keystroke_u	u	n/a
176.881	0.105	353762	keystroke_e	e	n/a
177.061	0.135	354122	keystroke_s	s	n/a
177.166	0.135	354332	keystroke_Key.space	Key.space	n/a
177.316	0.135	354632	keystroke_d	d	n/a
177.376	0.12	354752	keystroke_e	e	n/a
177.541	0.15	355082	keystroke_p	p	n/a
177.676	0.12	355352	keystroke_o	o	n/a
177.736	0.09	355472	keystroke_s	s	n/a
178.051	0.075	356102	keystroke_i	i	n/a
178.156	0.075	356312	keystroke_t	t	n/a
178.441	0.135	356882	keystroke_Key.enter	Key.enter	n/a
178.583	4.54	357166	prompt	n/a	lounge washington maternity determine\n
179.236	0.09	358472	keystroke_l	l	n/a
179.446	0.15	358892	keystroke_o	o	n/a
179.506	0.135	359012	keystroke_u	u	n/a
179.566	0.12	359132	keystroke_n	n	n/a
179.641	0.09	359282	keystroke_g	g	n/a
179.716	0.09	359432	keystroke_e	e	n/a
179.791	0.12	359582	keystroke_Key.space	Key.space	n/a
179.941	0.105	359882	keystroke_w	w	n/a
180.016	0.15	360032	keystroke_a	a	n/a
180.136	0.12	360272	keystroke_s	s	n/a
180.181	0.09	360362	keystroke_h	h	n/a
180.466	0.135	360932	keystroke_i	i	n/a
180.541	0.12	361082	keystroke_n	n	n/a
180.721	0.09	361442	keystroke_g	g	n/a
180.916	0.075	361832	keystroke_t	t	n/a
180.946	0.09	361892	keystroke_o	o	n/a
180.976	0.105	361952	keystroke_n	n	n/a
181.156	0.075	362312	keystroke_Key.space	Key.space	n/a
181.366	0.09	362732	keystroke_m	m	n/a
181.381	0.12	362762	keystroke_a	a	n/a
181.471	0.105	362942	keystroke_t	t	n/a
181.577	0.119	363154	keystroke_e	e	n/a
181.666	0.105	363332	keystroke_r	r	n/a
181.711	0.12	363422	keystroke_n	n	n/a
181.786	0.12	363572	keystroke_i	i	n/a
181.891	0.105	363782	keystroke_t	t	n/a
181.966	0.105	363932	keystroke_y	y	n/a
182.026	0.135	364052	keystroke_Key.space	Key.space	n/a
182.176	0.105	364352	keystroke_d	d	n/a
182.251	0.18	364502	keystroke_e	e	n/a
182.386	0.135	364772	keystroke_t	t	n/a
182.506	0.15	365012	keystroke_e	e	n/a
182.596	0.15	365192	keystroke_r	r	n/a
182.671	0.105	365342	keystroke_m	m	n/a
182.731	0.15	365462	keystroke_i	i	n/a
182.851	0.12	365702	keystroke_n	n	n/a
182.971	0.075	365942	keystroke_e	e	n/a
183.076	0.045	366152	keystroke_Key.enter	Key.enter	n/a
183.1275	6.4905	366255	prompt	n/a	ronald herald anybody fairly\n
184.756	0.09	369512	keystroke_r	r	n/a
184.891	0.09	369782	keystroke_p	p	n/a
185.386	0.105	370772	keystroke_Key.backspace	Key.backspace	n/a
185.911	0.09	371822	keystroke_o	o	n/a
185.986	0.09	371972	keystroke_n	n	n/a
186.091	0.105	372182	keystroke_a	a	n/a
186.166	0.105	372332	keystroke_l	l	n/a
186.256	0.12	372512	keystroke_d	d	n/a
186.346	0.135	372692	keystroke_Key.space	Key.space	n/a
186.781	0.09	373562	keystroke_h	h	n/a
186.856	0.135	373712	keystroke_e	e	n/a
186.931	0.105	373862	keystroke_r	r	n/a
187.051	0.135	374102	keystroke_a	a	n/a
187.111	0.135	374222	keystroke_l	l	n/a
187.247	0.104	374494	keystroke_d	d	n/a
187.352	0.089	374704	keystroke_Key.space	Key.space	n/a
187.486	0.12	374972	keystroke_a	a	n/a
187.561	0.12	375122	keystroke_n	n	n/a
187.636	0.105	375272	keystroke_y	y	n/a
187.846	0.06	375692	keystroke_b	b	n/a
188.026	0.135	376052	keystroke_o	o	n/a
188.431	0.06	376862	keystroke_d	d	n/a
188.536	0.105	377072	keystroke_y	y	n/a
188.626	0.105	377252	keystroke_Key.space	Key.space	n/a
188.776	0.12	377552	keystroke_f	f	n/a
188.881	0.135	377762	keystroke_a	a	n/a
189.001	0.075	378002	keystroke_i	i	n/a
189.091	0.12	378182	keystroke_r	r	n/a
189.196	0.105	378392	keystroke_l	l	n/a
189.256	0.09	378512	keystroke_y	y	n/a
189.541	0.075	379082	keystroke_Key.enter	Key.enter	n/a
189.6225	4.091	379245	prompt	n/a	neon editorial nickel office\n
190.156	0.06	380312	keystroke_r	r	n/a
190.516	0.075	381032	keystroke_Key.backspace	Key.backspace	n/a
190.696	0.09	381392	keystroke_n	n	n/a
190.801	0.135	381602	keystroke_e	e	n/a
190.891	0.12	381782	keystroke_o	o	n/a
190.951	0.09	381902	keystroke_n	n	n/a
191.116	0.105	382232	keystroke_Key.space	Key.space	n/a
191.206	0.12	382412	keystroke_e	e	n/a
191.296	0.12	382592	keystroke_d	d	n/a
191.386	0.105	382772	keystroke_i	i	n/a
191.521	0.105	383042	keystroke_t	t	n/a
191.641	0.135	383282	keystroke_o	o	n/a
191.761	0.06	383522	keystroke_r	r	n/a
191.836	0.075	383672	keystroke_i	i	n/a
191.926	0.12	383852	keystroke_a	a	n/a
192.001	0.105	384002	keystroke_l	l	n/a
192.091	0.09	384182	keystroke_Key.space	Key.space	n/a
192.301	0.075	384602	keystroke_n	n	n/a
192.316	0.09	384632	keystroke_i	i	n/a
192.421	0.075	384842	keystroke_c	c	n/a
192.511	0.09	385022	keystroke_k	k	n/a
192.571	0.12	385142	keystroke_e	e	n/a
192.706	0.09	385412	keystroke_l	l	n/a
192.811	0.135	385622	keystroke_Key.space	Key.space	n/a
192.961	0.135	385922	keystroke_o	o	n/a
193.051	0.09	386102	keystroke_f	f	n/a
193.216	0.105	386432	keystroke_f	f	n/a
193.291	0.12	386582	keystroke_i	i	n/a
193.411	0.12	386822	keystroke_c	c	n/a
193.471	0.12	386942	keystroke_e	e	n/a
193.636	0.075	387272	keystroke_Key.enter	Key.enter	n/a
193.719	3.5495	387438	prompt	n/a	one summaries angel transform\n
194.326	0.135	388652	keystroke_o	o	n/a
194.386	0.12	388772	keystroke_n	n	n/a
194.476	0.12	388952	keystroke_e	e	n/a
194.581	0.105	389162	keystroke_Key.space	Key.space	n/a
194.686	0.12	389372	keystroke_s	s	n/a
194.776	0.06	389552	keystroke_u	u	n/a
194.821	0.075	389642	keystroke_m	m	n/a
194.956	0.12	389912	keystroke_m	m	n/a
195.016	0.15	390032	keystroke_a	a	n/a
195.121	0.105	390242	keystroke_r	r	n/a
195.211	0.12	390422	keystroke_i	i	n/a
195.286	0.105	390572	keystroke_e	e	n/a
195.466	0.12	390932	keystroke_s	s	n/a
195.556	0.09	391112	keystroke_Key.space	Key.space	n/a
195.661	0.12	391322	keystroke_a	a	n/a
195.736	0.105	391472	keystroke_n	n	n/a
195.842	0.089	391684	keystroke_g	g	n/a
195.916	0.12	391832	keystroke_e	e	n/a
195.991	0.091	391982	keystroke_l	l	n/a
196.066	0.12	392132	keystroke_Key.space	Key.space	n/a
196.171	0.075	392342	keystroke_t	t	n/a
196.336	0.105	392672	keystroke_r	r	n/a
196.396	0.135	392792	keystroke_a	a	n/a
196.471	0.105	392942	keystroke_n	n	n/a
196.591	0.105	393182	keystroke_s	s	n/a
196.726	0.105	393452	keystroke_f	f	n/a
196.816	0.09	393632	keystroke_o	o	n/a
196.921	0.105	393842	keystroke_r	r	n/a
196.966	0.12	393932	keystroke_m	m	n/a
197.161	0.105	394322	keystroke_Key.enter	Key.enter	n/a
197.2735	5.245	394547	prompt	n/a	intl shipment outlets dirt\n
197.941	0.12	395882	keystroke_i	i	n/a
197.986	0.105	395972	keystroke_n	n	n/a
198.092	0.089	396184	keystroke_t	t	n/a
198.451	0.135	396902	keystroke_l	l	n/a
198.616	0.135	397232	keystroke_Key.space	Key.space	n/a
198.766	0.105	397532	keystroke_s	s	n/a
198.841	0.075	397682	keystroke_h	h	n/a
199.066	0.165	398132	keystroke_p	p	n/a
199.081	0.135	398162	keystroke_i	i	n/a
199.201	0.12	398402	keystroke_m	m	n/a
199.981	0.075	399962	keystroke_Key.backspace	Key.backspace	n/a
200.161	0.045	400322	keystroke_Key.backspace	Key.backspace	n/a
200.266	0.075	400532	keystroke_Key.backspace	Key.backspace	n/a
200.581	0.105	401162	keystroke_i	i	n/a
200.656	0.12	401312	keystroke_p	p	n/a
200.776	0.12	401552	keystroke_m	m	n/a
200.911	0.135	401822	keystroke_e	e	n/a
201.001	0.105	402002	keystroke_n	n	n/a
201.091	0.105	402182	keystroke_t	t	n/a
201.181	0.12	402362	keystroke_Key.space	Key.space	n/a
201.271	0.12	402542	keystroke_o	o	n/a
201.346	0.135	402692	keystroke_u	u	n/a
201.436	0.075	402872	keystroke_t	t	n/a
201.496	0.135	402992	keystroke_l	l	n/a
201.586	0.135	403172	keystroke_e	e	n/a
201.661	0.09	403322	keystroke_t	t	n/a
201.811	0.105	403622	keystroke_s	s	n/a
201.901	0.105	403802	keystroke_Key.space	Key.space	n/a
201.991	0.105	403982	keystroke_d	d	n/a
202.081	0.105	404162	keystroke_i	i	n/a
202.156	0.09	404312	keystroke_r	r	n/a
202.321	0.09	404642	keystroke_t	t	n/a
202.426	0.09	404852	keystroke_Key.enter	Key.enter	n/a
202.5225	4.661	405045	prompt	n/a	cannon manufacturing searches takes\n
203.206	0.12	406412	keystroke_c	c	n/a
203.266	0.12	406532	keystroke_a	a	n/a
203.327	0.074	406654	keystroke_n	n	n/a
203.491	0.09	406982	keystroke_n	n	n/a
203.551	0.135	407102	keystroke_o	o	n/a
203.641	0.075	407282	keystroke_n	n	n/a
203.791	0.09	407582	keystroke_Key.space	Key.space	n/a
203.971	0.075	407942	keystroke_m	m	n/a
204.001	0.09	408002	keystroke_a	a	n/a
204.121	0.12	408242	keystroke_n	n	n/a
204.211	0.09	408422	keystroke_u	u	n/a
204.586	0.105	409172	keystroke_f	f	n/a
204.706	0.165	409412	keystroke_a	a	n/a
204.811	0.105	409622	keystroke_c	c	n/a
205.006	0.105	410012	keystroke_t	t	n/a
205.096	0.075	410192	keystroke_u	u	n/a
205.186	0.105	410372	keystroke_r	r	n/a
205.276	0.09	410552	keystroke_i	i	n/a
205.306	0.105	410612	keystroke_n	n	n/a
205.381	0.061	410762	keystroke_g	g	n/a
205.486	0.15	410972	keystroke_Key.space	Key.space	n/a
205.606	0.091	411212	keystroke_s	s	n/a
205.786	0.18	411572	keystroke_e	e	n/a
205.846	0.135	411692	keystroke_a	a	n/a
205.906	0.105	411812	keystroke_r	r	n/a
206.131	0.105	412262	keystroke_c	c	n/a
206.206	0.09	412412	keystroke_h	h	n/a
206.281	0.09	412562	keystroke_e	e	n/a
206.446	0.105	412892	keystroke_s	s	n/a
206.506	0.12	413012	keystroke_Key.space	Key.space	n/a
206.611	0.09	413222	keystroke_t	t	n/a
206.671	0.12	413342	keystroke_a	a	n/a
206.746	0.106	413492	keystroke_k	k	n/a
206.836	0.09	413672	keystroke_e	e	n/a
207.016	0.105	414032	keystroke_s	s	n/a
207.091	0.09	414182	keystroke_Key.enter	Key.enter	n/a
207.192	4.326	414384	prompt	n/a	vocal julian discussed brazilian\n
207.841	0.12	415682	keystroke_v	v	n/a
207.932	0.104	415864	keystroke_o	o	n/a
208.067	0.119	416134	keystroke_c	c	n/a
208.142	0.134	416284	keystroke_a	a	n/a
208.201	0.135	416402	keystroke_l	l	n/a
208.291	0.135	416582	keystroke_Key.space	Key.space	n/a
208.396	0.09	416792	keystroke_j	j	n/a
208.592	0.119	417184	keystroke_u	u	n/a
208.741	0.135	417482	keystroke_l	l	n/a
208.831	0.106	417662	keystroke_i	i	n/a
208.921	0.12	417842	keystroke_a	a	n/a
209.101	0.091	418202	keystroke_n	n	n/a
209.266	0.09	418532	keystroke_Key.space	Key.space	n/a
209.357	0.074	418714	keystroke_d	d	n/a
209.461	0.076	418922	keystroke_i	i	n/a
209.551	0.15	419102	keystroke_s	s	n/a
209.656	0.12	419312	keystroke_c	c	n/a
209.761	0.09	419522	keystroke_u	u	n/a
209.866	0.09	419732	keystroke_s	s	n/a
210.031	0.09	420062	keystroke_s	s	n/a
210.196	0.1055	420392	keystroke_e	e	n/a
210.256	0.1505	420512	keystroke_d	d	n/a
210.3315	0.105	420663	keystroke_Key.space	Key.space	n/a
210.4965	0.075	420993	keystroke_b	b	n/a
210.5725	0.104	421145	keystroke_r	r	n/a
210.6465	0.12	421293	keystroke_a	a	n/a
210.7965	0.135	421593	keystroke_z	z	n/a
210.9165	0.12	421833	keystroke_i	i	n/a
211.0065	0.165	422013	keystroke_l	l	n/a
211.1265	0.105	422253	keystroke_i	i	n/a
211.2165	0.105	422433	keystroke_a	a	n/a
211.2915	0.105	422583	keystroke_n	n	n/a
211.4115	0.105	422823	keystroke_Key.enter	Key.enter	n/a
211.522	3.911	423044	prompt	n/a	grateful athletes alliance reset\n
212.1015	0.09	424203	keystroke_g	g	n/a
212.3115	0.09	424623	keystroke_r	r	n/a
212.3865	0.105	424773	keystroke_a	a	n/a
212.4765	0.105	424953	keystroke_t	t	n/a
212.5515	0.12	425103	keystroke_e	e	n/a
212.7015	0.12	425403	keystroke_f	f	n/a
212.7615	0.15	425523	keystroke_u	u	n/a
212.8515	0.12	425703	keystroke_l	l	n/a
212.9265	0.15	425853	keystroke_Key.space	Key.space	n/a
213.0165	0.165	426033	keystroke_a	a	n/a
213.1515	0.12	426303	keystroke_t	t	n/a
213.2565	0.045	426513	keystroke_h	h	n/a
213.3615	0.15	426723	keystroke_l	l	n/a
213.4515	0.15	426903	keystroke_e	e	n/a
213.5415	0.12	427083	keystroke_t	t	n/a
213.6315	0.12	427263	keystroke_e	e	n/a
213.8115	0.165	427623	keystroke_s	s	n/a
213.9615	0.12	427923	keystroke_Key.space	Key.space	n/a
214.0665	0.105	428133	keystroke_a	a	n/a
214.1415	0.06	428283	keystroke_l	l	n/a
214.2615	0.135	428523	keystroke_l	l	n/a
214.3215	0.12	428643	keystroke_i	i	n/a
214.4265	0.12	428853	keystroke_a	a	n/a
214.5315	0.075	429063	keystroke_n	n	n/a
214.5615	0.135	429123	keystroke_c	c	n/a
214.6515	0.12	429303	keystroke_e	e	n/a
214.7265	0.135	429453	keystroke_Key.space	Key.space	n/a
214.8465	0.09	429693	keystroke_r	r	n/a
214.8915	0.105	429783	keystroke_e	e	n/a
215.0565	0.09	430113	keystroke_s	s	n/a
215.2515	0.075	430503	keystroke_e	e	n/a
215.3115	0.06	430623	keystroke_t	t	n/a
215.3565	0.075	430713	keystroke_Key.enter	Key.enter	n/a
215.438	4.735	430876	prompt	n/a	tune secretary decisions relationships\n
216.2115	0.09	432423	keystroke_t	t	n/a
216.2715	0.105	432543	keystroke_u	u	n/a
216.3165	0.09	432633	keystroke_n	n	n/a
216.3915	0.105	432783	keystroke_e	e	n/a
216.5115	0.12	433023	keystroke_Key.space	Key.space	n/a
216.6015	0.105	433203	keystroke_s	s	n/a
216.7965	0.135	433593	keystroke_e	e	n/a
216.9165	0.12	433833	keystroke_c	c	n/a
217.1115	0.105	434223	keystroke_r	r	n/a
217.1865	0.12	434373	keystroke_e	e	n/a
217.2765	0.135	434553	keystroke_t	t	n/a
217.5015	0.105	435003	keystroke_a	a	n/a
217.5615	0.12	435123	keystroke_r	r	n/a
217.6365	0.09	435273	keystroke_y	y	n/a
217.6965	0.12	435393	keystroke_Key.space	Key.space	n/a
218.0115	0.12	436023	keystroke_d	d	n/a
218.1165	0.195	436233	keystroke_e	e	n/a
218.2215	0.135	436443	keystroke_c	c	n/a
218.3265	0.075	436653	keystroke_i	i	n/a
218.4315	0.105	436863	keystroke_s	s	n/a
218.4765	0.135	436953	keystroke_i	i	n/a
218.5515	0.09	437103	keystroke_o	o	n/a
218.5665	0.12	437133	keystroke_n	n	n/a
218.6565	0.135	437313	keystroke_s	s	n/a
218.8065	0.105	437613	keystroke_Key.space	Key.space	n/a
218.8815	0.105	437763	keystroke_r	r	n/a
218.9415	0.12	437883	keystroke_e	e	n/a
219.0465	0.135	438093	keystroke_l	l	n/a
219.1665	0.09	438333	keystroke_a	a	n/a
219.2265	0.12	438453	keystroke_t	t	n/a
219.3165	0.135	438633	keystroke_i	i	n/a
219.3315	0.135	438663	keystroke_o	o	n/a
219.3915	0.12	438783	keystroke_n	n	n/a
219.4965	0.105	438993	keystroke_s	s	n/a
219.5715	0.045	439143	keystroke_h	h	n/a
219.7815	0.06	439563	keystroke_i	i	n/a
219.7965	0.12	439593	keystroke_p	p	n/a
219.9615	0.09	439923	keystroke_s	s	n/a
220.0815	0.09	440163	keystroke_Key.enter	Key.enter	n/a
220.178	4.975	440356	prompt	n/a	copyright weren't attempt blowing\n
220.8015	0.09	441603	keystroke_c	c	n/a
220.8765	0.135	441753	keystroke_o	o	n/a
220.9515	0.09	441903	keystroke_p	p	n/a
221.1015	0.09	442203	keystroke_y	y	n/a
221.2065	0.09	442413	keystroke_r	r	n/a
221.2815	0.09	442563	keystroke_i	i	n/a
221.4465	0.105	442893	keystroke_g	g	n/a
221.4915	0.12	442983	keystroke_h	h	n/a
221.5665	0.105	443133	keystroke_t	t	n/a
221.6725	0.104	443345	keystroke_Key.space	Key.space	n/a
221.7615	0.105	443523	keystroke_w	w	n/a
221.9415	0.18	443883	keystroke_e	e	n/a
222.1065	0.135	444213	keystroke_r	r	n/a
222.2115	0.135	444423	keystroke_e	e	n/a
222.2715	0.09	444543	keystroke_n	n	n/a
222.7665	0.09	445533	keystroke_'	'	n/a
222.9465	0.09	445893	keystroke_t	t	n/a
223.1115	0.12	446223	keystroke_Key.space	Key.space	n/a
223.441	0.1355	446882	keystroke_a	a	n/a
223.6365	0.045	447273	keystroke_t	t	n/a
223.7565	0.12	447513	keystroke_t	t	n/a
223.8315	0.135	447663	keystroke_e	e	n/a
223.8775	0.119	447755	keystroke_m	m	n/a
223.9365	0.105	447873	keystroke_p	p	n/a
224.0265	0.105	448053	keystroke_t	t	n/a
224.1765	0.15	448353	keystroke_Key.space	Key.space	n/a
224.3415	0.06	448683	keystroke_b	b	n/a
224.4915	0.075	448983	keystroke_l	l	n/a
224.6715	0.09	449343	keystroke_o	o	n/a
224.6865	0.105	449373	keystroke_w	w	n/a
224.8215	0.105	449643	keystroke_i	i	n/a
224.8665	0.135	449733	keystroke_n	n	n/a
224.9115	0.075	449823	keystroke_g	g	n/a
225.0765	0.075	450153	keystroke_Key.enter	Key.enter	n/a
225.1575	4.7655	450315	prompt	n/a	spotlight capability suspected motel\n
225.7515	0.105	451503	keystroke_s	s	n/a
225.8715	0.15	451743	keystroke_p	p	n/a
226.0065	0.0895	452013	keystroke_o	o	n/a
226.1115	0.105	452223	keystroke_t	t	n/a
226.2315	0.135	452463	keystroke_l	l	n/a
226.2915	0.1045	452583	keystroke_i	i	n/a
226.501	0.135	453002	keystroke_g	g	n/a
226.561	0.135	453122	keystroke_h	h	n/a
226.651	0.0905	453302	keystroke_t	t	n/a
226.742	0.1195	453484	keystroke_Key.space	Key.space	n/a
226.9665	0.1345	453933	keystroke_c	c	n/a
227.131	0.15	454262	keystroke_a	a	n/a
227.251	0.09	454502	keystroke_p	p	n/a
227.356	0.105	454712	keystroke_a	a	n/a
227.446	0.15	454892	keystroke_b	b	n/a
227.566	0.135	455132	keystroke_i	i	n/a
227.671	0.18	455342	keystroke_l	l	n/a
227.791	0.12	455582	keystroke_i	i	n/a
227.8815	0.1195	455763	keystroke_t	t	n/a
227.986	0.075	455972	keystroke_y	y	n/a
228.031	0.1205	456062	keystroke_Key.space	Key.space	n/a
228.136	0.135	456272	keystroke_s	s	n/a
228.241	0.075	456482	keystroke_u	u	n/a
228.361	0.105	456722	keystroke_s	s	n/a
228.451	0.105	456902	keystroke_p	p	n/a
228.526	0.15	457052	keystroke_e	e	n/a
228.646	0.12	457292	keystroke_c	c	n/a
228.871	0.105	457742	keystroke_t	t	n/a
228.9915	0.1345	457983	keystroke_e	e	n/a
229.081	0.12	458162	keystroke_d	d	n/a
229.141	0.075	458282	keystroke_Key.space	Key.space	n/a
229.336	0.12	458672	keystroke_m	m	n/a
229.366	0.12	458732	keystroke_o	o	n/a
229.441	0.09	458882	keystroke_t	t	n/a
229.501	0.12	459002	keystroke_e	e	n/a
229.591	0.06	459182	keystroke_l	l	n/a
229.831	0.09	459662	keystroke_Key.enter	Key.enter	n/a
229.927	4.1205	459854	prompt	n/a	liability computer emacs projects\n
230.446	0.195	460892	keystroke_l	l	n/a
230.551	0.15	461102	keystroke_i	i	n/a
230.671	0.105	461342	keystroke_a	a	n/a
230.791	0.15	461582	keystroke_b	b	n/a
230.911	0.12	461822	keystroke_i	i	n/a
231.016	0.135	462032	keystroke_l	l	n/a
231.121	0.105	462242	keystroke_i	i	n/a
231.241	0.075	462482	keystroke_t	t	n/a
231.331	0.105	462662	keystroke_y	y	n/a
231.406	0.12	462812	keystroke_Key.space	Key.space	n/a
231.646	0.105	463292	keystroke_c	c	n/a
231.691	0.12	463382	keystroke_o	o	n/a
231.781	0.105	463562	keystroke_m	m	n/a
231.901	0.12	463802	keystroke_p	p	n/a
231.991	0.135	463982	keystroke_u	u	n/a
232.051	0.105	464102	keystroke_t	t	n/a
232.141	0.15	464282	keystroke_e	e	n/a
232.231	0.12	464462	keystroke_r	r	n/a
232.276	0.09	464552	keystroke_Key.space	Key.space	n/a
232.426	0.135	464852	keystroke_e	e	n/a
232.531	0.105	465062	keystroke_m	m	n/a
232.606	0.165	465212	keystroke_a	a	n/a
232.726	0.15	465452	keystroke_c	c	n/a
232.861	0.135	465722	keystroke_s	s	n/a
232.951	0.09	465902	keystroke_Key.space	Key.space	n/a
233.026	0.12	466052	keystroke_p	p	n/a
233.147	0.104	466294	keystroke_r	r	n/a
233.207	0.089	466414	keystroke_o	o	n/a
233.386	0.105	466772	keystroke_j	j	n/a
233.446	0.135	466892	keystroke_e	e	n/a
233.506	0.09	467012	keystroke_c	c	n/a
233.686	0.09	467372	keystroke_t	t	n/a
233.836	0.105	467672	keystroke_s	s	n/a
233.926	0.12	467852	keystroke_Key.enter	Key.enter	n/a
234.052	4.437	468104	prompt	n/a	vaccine provides cultural series\n
234.676	0.12	469352	keystroke_v	v	n/a
234.781	0.165	469562	keystroke_a	a	n/a
234.931	0.09	469862	keystroke_c	c	n/a
235.081	0.12	470162	keystroke_c	c	n/a
235.171	0.12	470342	keystroke_i	i	n/a
235.246	0.105	470492	keystroke_n	n	n/a
235.321	0.135	470642	keystroke_e	e	n/a
235.471	0.105	470942	keystroke_Key.space	Key.space	n/a
235.711	0.12	471422	keystroke_p	p	n/a
235.846	0.105	471692	keystroke_r	r	n/a
235.921	0.135	471842	keystroke_o	o	n/a
236.116	0.12	472232	keystroke_v	v	n/a
236.206	0.105	472412	keystroke_i	i	n/a
236.326	0.135	472652	keystroke_d	d	n/a
236.386	0.135	472772	keystroke_e	e	n/a
236.596	0.15	473192	keystroke_s	s	n/a
236.686	0.135	473372	keystroke_Key.space	Key.space	n/a
236.866	0.09	473732	keystroke_c	c	n/a
236.911	0.165	473822	keystroke_u	u	n/a
237.001	0.165	474002	keystroke_l	l	n/a
237.121	0.12	474242	keystroke_t	t	n/a
237.271	0.135	474542	keystroke_u	u	n/a
237.376	0.09	474752	keystroke_r	r	n/a
237.451	0.12	474902	keystroke_a	a	n/a
237.481	0.15	474962	keystroke_l	l	n/a
237.586	0.135	475172	keystroke_Key.space	Key.space	n/a
237.646	0.105	475292	keystroke_s	s	n/a
237.841	0.135	475682	keystroke_e	e	n/a
237.916	0.12	475832	keystroke_r	r	n/a
238.006	0.12	476012	keystroke_i	i	n/a
238.096	0.09	476192	keystroke_e	e	n/a
238.276	0.12	476552	keystroke_s	s	n/a
238.381	0.105	476762	keystroke_Key.enter	Key.enter	n/a
238.4945	4.5385	476989	prompt	n/a	booking see lounge who'd've\n
239.086	0.075	478172	keystroke_b	b	n/a
239.326	0.015	478652	keystroke_o	o	n/a
239.416	0.135	478832	keystroke_o	o	n/a
239.491	0.105	478982	keystroke_k	k	n/a
239.686	0.12	479372	keystroke_i	i	n/a
239.731	0.12	479462	keystroke_n	n	n/a
239.852	0.06	479704	keystroke_g	g	n/a
239.956	0.135	479912	keystroke_Key.space	Key.space	n/a
240.046	0.12	480092	keystroke_s	s	n/a
240.271	0.075	480542	keystroke_e	e	n/a
240.421	0.105	480842	keystroke_e	e	n/a
240.511	0.12	481022	keystroke_Key.space	Key.space	n/a
240.856	0.09	481712	keystroke_l	l	n/a
241.081	0.105	482162	keystroke_o	o	n/a
241.126	0.135	482252	keystroke_u	u	n/a
241.201	0.09	482402	keystroke_n	n	n/a
241.231	0.105	482462	keystroke_g	g	n/a
241.306	0.105	482612	keystroke_e	e	n/a
241.396	0.135	482792	keystroke_Key.space	Key.space	n/a
241.532	0.119	483064	keystroke_w	w	n/a
241.576	0.09	483152	keystroke_h	h	n/a
241.636	0.12	483272	keystroke_o	o	n/a
242.281	0.09	484562	keystroke_'	'	n/a
242.341	0.105	484682	keystroke_d	d	n/a
242.521	0.075	485042	keystroke_'	'	n/a
242.641	0.12	485282	keystroke_v	v	n/a
242.716	0.12	485432	keystroke_e	e	n/a
242.956	0.075	485912	keystroke_Key.enter	Key.enter	n/a
243.039	3.639	486078	prompt	n/a	heavily fitting tiles plants\n
243.781	0.075	487562	keystroke_h	h	n/a
243.826	0.18	487652	keystroke_e	e	n/a
243.886	0.135	487772	keystroke_a	a	n/a
243.991	0.105	487982	keystroke_v	v	n/a
244.036	0.21	488072	keystroke_i	i	n/a
244.111	0.165	488222	keystroke_l	l	n/a
244.201	0.105	488402	keystroke_y	y	n/a
244.261	0.12	488522	keystroke_Key.space	Key.space	n/a
244.471	0.12	488942	keystroke_f	f	n/a
244.576	0.105	489152	keystroke_i	i	n/a
244.696	0.06	489392	keystroke_t	t	n/a
244.816	0.135	489632	keystroke_t	t	n/a
244.891	0.12	489782	keystroke_i	i	n/a
244.936	0.09	489872	keystroke_n	n	n/a
245.027	0.104	490054	keystroke_g	g	n/a
245.116	0.105	490232	keystroke_Key.space	Key.space	n/a
245.476	0.12	490952	keystroke_t	t	n/a
245.551	0.12	491102	keystroke_i	i	n/a
245.581	0.15	491162	keystroke_l	l	n/a
245.641	0.12	491282	keystroke_e	e	n/a
245.821	0.135	491642	keystroke_s	s	n/a
245.896	0.135	491792	keystroke_Key.space	Key.space	n/a
245.986	0.091	491972	keystroke_p	p	n/a
246.181	0.075	492362	keystroke_l	l	n/a
246.241	0.15	492482	keystroke_a	a	n/a
246.361	0.075	492722	keystroke_n	n	n/a
246.376	0.075	492752	keystroke_t	t	n/a
246.496	0.105	492992	keystroke_s	s	n/a
246.586	0.09	493172	keystroke_Key.enter	Key.enter	n/a
246.684	4.929	493368	prompt	n/a	albums institutes salon definitions\n
247.246	0.12	494492	keystroke_a	a	n/a
247.321	0.09	494642	keystroke_l	l	n/a
247.576	0.015	495152	keystroke_b	b	n/a
247.711	0.105	495422	keystroke_u	u	n/a
247.771	0.09	495542	keystroke_m	m	n/a
247.846	0.105	495692	keystroke_s	s	n/a
247.966	0.105	495932	keystroke_Key.space	Key.space	n/a
248.131	0.1345	496262	keystroke_i	i	n/a
248.191	0.1055	496382	keystroke_n	n	n/a
248.2515	0.165	496503	keystroke_s	s	n/a
248.4015	0.105	496803	keystroke_t	t	n/a
248.5215	0.09	497043	keystroke_i	i	n/a
248.5965	0.075	497193	keystroke_t	t	n/a
248.7015	0.075	497403	keystroke_u	u	n/a
248.7615	0.119	497523	keystroke_t	t	n/a
248.8365	0.135	497673	keystroke_e	e	n/a
249.0005	0.105	498001	keystroke_Key.space	Key.space	n/a
249.0765	0.09	498153	keystroke_s	s	n/a
249.4955	0.076	498991	keystroke_Key.backspace	Key.backspace	n/a
249.6305	0.091	499261	keystroke_Key.backspace	Key.backspace	n/a
249.7065	0.12	499413	keystroke_s	s	n/a
249.8415	0.134	499683	keystroke_Key.space	Key.space	n/a
249.9615	0.15	499923	keystroke_s	s	n/a
250.0515	0.15	500103	keystroke_a	a	n/a
250.1265	0.09	500253	keystroke_l	l	n/a
250.2915	0.12	500583	keystroke_o	o	n/a
250.3515	0.105	500703	keystroke_n	n	n/a
250.5465	0.12	501093	keystroke_Key.space	Key.space	n/a
250.6215	0.12	501243	keystroke_d	d	n/a
250.7115	0.15	501423	keystroke_e	e	n/a
250.8315	0.105	501663	keystroke_f	f	n/a
250.9065	0.105	501813	keystroke_i	i	n/a
250.9815	0.12	501963	keystroke_n	n	n/a
251.0865	0.105	502173	keystroke_i	i	n/a
251.1615	0.09	502323	keystroke_t	t	n/a
251.2515	0.12	502503	keystroke_i	i	n/a
251.2965	0.12	502593	keystroke_o	o	n/a
251.3415	0.12	502683	keystroke_n	n	n/a
251.4015	0.105	502803	keystroke_s	s	n/a
251.5365	0.075	503073	keystroke_Key.enter	Key.enter	n/a
251.6165	3.6715	503233	prompt	n/a	papers made crest proceeding\n
252.1665	0.09	504333	keystroke_p	p	n/a
252.2115	0.09	504423	keystroke_a	a	n/a
252.3315	0.12	504663	keystroke_p	p	n/a
252.3915	0.15	504783	keystroke_e	e	n/a
252.4815	0.105	504963	keystroke_r	r	n/a
252.6315	0.135	505263	keystroke_s	s	n/a
252.7215	0.12	505443	keystroke_Key.space	Key.space	n/a
253.0215	0.105	506043	keystroke_m	m	n/a
253.0965	0.105	506193	keystroke_a	a	n/a
253.1565	0.135	506313	keystroke_d	d	n/a
253.2315	0.18	506463	keystroke_e	e	n/a
253.3365	0.12	506673	keystroke_Key.space	Key.space	n/a
253.4265	0.105	506853	keystroke_c	c	n/a
253.6365	0.12	507273	keystroke_r	r	n/a
253.6815	0.09	507363	keystroke_e	e	n/a
253.8465	0.15	507693	keystroke_s	s	n/a
253.9365	0.135	507873	keystroke_t	t	n/a
253.9815	0.135	507963	keystroke_Key.space	Key.space	n/a
254.0865	0.135	508173	keystroke_p	p	n/a
254.1915	0.12	508383	keystroke_r	r	n/a
254.2965	0.135	508593	keystroke_o	o	n/a
254.4165	0.135	508833	keystroke_c	c	n/a
254.5665	0.09	509133	keystroke_e	e	n/a
254.7315	0.135	509463	keystroke_e	e	n/a
254.8065	0.135	509613	keystroke_d	d	n/a
254.8815	0.135	509763	keystroke_i	i	n/a
254.9565	0.105	509913	keystroke_n	n	n/a
255.0465	0.09	510093	keystroke_g	g	n/a
255.1515	0.135	510303	keystroke_Key.enter	Key.enter	n/a
255.292	4.631	510584	prompt	n/a	considerable patch advance monetary\n
255.9465	0.12	511893	keystroke_c	c	n/a
256.0815	0.12	512163	keystroke_o	o	n/a
256.1265	0.12	512253	keystroke_n	n	n/a
256.1865	0.12	512373	keystroke_s	s	n/a
256.3215	0.105	512643	keystroke_i	i	n/a
256.3815	0.105	512763	keystroke_d	d	n/a
256.4715	0.15	512943	keystroke_e	e	n/a
256.5615	0.12	513123	keystroke_r	r	n/a
256.6225	0.104	513245	keystroke_i	i	n/a
256.6665	0.105	513333	keystroke_n	n	n/a
256.7565	0.12	513513	keystroke_g	g	n/a
256.8315	0.12	513663	keystroke_Key.space	Key.space	n/a
256.9065	0.12	513813	keystroke_p	p	n/a
256.9665	0.135	513933	keystroke_a	a	n/a
257.0415	0.09	514083	keystroke_t	t	n/a
257.2815	0.135	514563	keystroke_c	c	n/a
257.3715	0.12	514743	keystroke_h	h	n/a
257.4465	0.135	514893	keystroke_Key.space	Key.space	n/a
257.5965	0.12	515193	keystroke_a	a	n/a
257.6865	0.12	515373	keystroke_d	d	n/a
257.8965	0.12	515793	keystroke_v	v	n/a
257.9865	0.195	515973	keystroke_a	a	n/a
258.1515	0.105	516303	keystroke_n	n	n/a
258.2865	0.135	516573	keystroke_c	c	n/a
258.3765	0.105	516753	keystroke_e	e	n/a
258.4365	0.135	516873	keystroke_Key.space	Key.space	n/a
259.0365	0.09	518073	keystroke_m	m	n/a
259.1115	0.12	518223	keystroke_o	o	n/a
259.1865	0.105	518373	keystroke_n	n	n/a
259.2615	0.15	518523	keystroke_e	e	n/a
259.3815	0.09	518763	keystroke_t	t	n/a
259.5015	0.135	519003	keystroke_a	a	n/a
259.5765	0.105	519153	keystroke_r	r	n/a
259.6215	0.06	519243	keystroke_y	y	n/a
259.8315	0.09	519663	keystroke_Key.enter	Key.enter	n/a
259.9295	4.584	519859	prompt	n/a	constant stations ensuring arranged\n
260.5365	0.09	521073	keystroke_c	c	n/a
260.5965	0.135	521193	keystroke_o	o	n/a
260.6565	0.105	521313	keystroke_n	n	n/a
260.7165	0.15	521433	keystroke_s	s	n/a
260.8515	0.105	521703	keystroke_t	t	n/a
260.9265	0.135	521853	keystroke_a	a	n/a
261.0165	0.075	522033	keystroke_n	n	n/a
261.0765	0.105	522153	keystroke_t	t	n/a
261.1965	0.105	522393	keystroke_Key.space	Key.space	n/a
261.2865	0.15	522573	keystroke_s	s	n/a
261.4215	0.075	522843	keystroke_t	t	n/a
261.4965	0.15	522993	keystroke_a	a	n/a
261.5865	0.12	523173	keystroke_t	t	n/a
261.6615	0.12	523323	keystroke_i	i	n/a
261.6915	0.12	523383	keystroke_o	o	n/a
261.7365	0.105	523473	keystroke_n	n	n/a
261.7965	0.12	523593	keystroke_s	s	n/a
261.9315	0.105	523863	keystroke_Key.space	Key.space	n/a
262.1565	0.105	524313	keystroke_e	e	n/a
262.2465	0.105	524493	keystroke_n	n	n/a
262.3665	0.12	524733	keystroke_s	s	n/a
262.4715	0.0895	524943	keystroke_u	u	n/a
262.5765	0.09	525153	keystroke_r	r	n/a
262.6515	0.09	525303	keystroke_i	i	n/a
262.6815	0.105	525363	keystroke_n	n	n/a
262.8915	0.105	525783	keystroke_Key.space	Key.space	n/a
263.356	0.075	526712	keystroke_Key.backspace	Key.backspace	n/a
263.476	0.1055	526952	keystroke_g	g	n/a
263.626	0.12	527252	keystroke_Key.space	Key.space	n/a
263.701	0.135	527402	keystroke_a	a	n/a
263.806	0.09	527612	keystroke_r	r	n/a
263.956	0.09	527912	keystroke_r	r	n/a
264.001	0.12	528002	keystroke_a	a	n/a
264.0915	0.1195	528183	keystroke_n	n	n/a
264.181	0.09	528362	keystroke_g	g	n/a
264.286	0.135	528572	keystroke_e	e	n/a
264.376	0.09	528752	keystroke_d	d	n/a
264.421	0.09	528842	keystroke_Key.enter	Key.enter	n/a
264.5245	4.3235	529049	prompt	n/a	publishing camping cancel folding\n
265.051	0.105	530102	keystroke_p	p	n/a
265.186	0.166	530372	keystroke_u	u	n/a
265.291	0.1345	530582	keystroke_b	b	n/a
265.366	0.21	530732	keystroke_l	l	n/a
265.4865	0.1495	530973	keystroke_i	i	n/a
265.606	0.135	531212	keystroke_s	s	n/a
265.711	0.12	531422	keystroke_h	h	n/a
265.756	0.135	531512	keystroke_i	i	n/a
265.816	0.12	531632	keystroke_n	n	n/a
265.906	0.105	531812	keystroke_g	g	n/a
266.191	0.09	532382	keystroke_Key.space	Key.space	n/a
266.326	0.135	532652	keystroke_c	c	n/a
266.446	0.135	532892	keystroke_a	a	n/a
266.596	0.135	533192	keystroke_m	m	n/a
266.717	0.149	533434	keystroke_p	p	n/a
266.881	0.12	533762	keystroke_i	i	n/a
266.956	0.12	533912	keystroke_n	n	n/a
267.196	0.105	534392	keystroke_g	g	n/a
267.346	0.105	534692	keystroke_Key.space	Key.space	n/a
267.467	0.119	534934	keystroke_c	c	n/a
267.556	0.12	535112	keystroke_a	a	n/a
267.631	0.105	535262	keystroke_n	n	n/a
267.706	0.1345	535412	keystroke_c	c	n/a
267.8105	0.1205	535621	keystroke_e	e	n/a
267.8705	0.105	535741	keystroke_l	l	n/a
267.9605	0.1205	535921	keystroke_Key.space	Key.space	n/a
268.066	0.105	536132	keystroke_f	f	n/a
268.1265	0.089	536253	keystroke_o	o	n/a
268.306	0.0895	536612	keystroke_l	l	n/a
268.3655	0.106	536731	keystroke_d	d	n/a
268.4555	0.1055	536911	keystroke_i	i	n/a
268.501	0.1195	537002	keystroke_n	n	n/a
268.6055	0.061	537211	keystroke_g	g	n/a
268.7405	0.105	537481	keystroke_Key.enter	Key.enter	n/a
268.852	3.5665	537704	prompt	n/a	attached foundations wind phil\n
269.4015	0.104	538803	keystroke_a	a	n/a
269.5205	0.0905	539041	keystroke_t	t	n/a
269.686	0.1045	539372	keystroke_t	t	n/a
269.7755	0.121	539551	keystroke_a	a	n/a
269.9255	0.105	539851	keystroke_c	c	n/a
270.0465	0.059	540093	keystroke_h	h	n/a
270.0905	0.166	540181	keystroke_e	e	n/a
270.1665	0.149	540333	keystroke_d	d	n/a
270.2405	0.12	540481	keystroke_Key.space	Key.space	n/a
270.436	0.1345	540872	keystroke_f	f	n/a
270.5405	0.105	541081	keystroke_o	o	n/a
270.5715	0.119	541143	keystroke_u	u	n/a
270.6465	0.104	541293	keystroke_n	n	n/a
270.6755	0.106	541351	keystroke_d	d	n/a
270.7965	0.12	541593	keystroke_a	a	n/a
270.9005	0.09	541801	keystroke_t	t	n/a
270.9755	0.12	541951	keystroke_i	i	n/a
271.0205	0.105	542041	keystroke_o	o	n/a
271.0505	0.105	542101	keystroke_n	n	n/a
271.1115	0.105	542223	keystroke_s	s	n/a
271.2455	0.12	542491	keystroke_Key.space	Key.space	n/a
271.3365	0.119	542673	keystroke_w	w	n/a
271.426	0.1045	542852	keystroke_i	i	n/a
271.5005	0.09	543001	keystroke_n	n	n/a
271.5455	0.105	543091	keystroke_d	d	n/a
271.6515	0.104	543303	keystroke_Key.space	Key.space	n/a
271.6955	0.121	543391	keystroke_p	p	n/a
271.8755	0.135	543751	keystroke_h	h	n/a
271.9805	0.12	543961	keystroke_i	i	n/a
272.0405	0.121	544081	keystroke_l	l	n/a
272.3115	0.104	544623	keystroke_Key.enter	Key.enter	n/a
272.4225	3.9115	544845	prompt	n/a	talented relying zimbabwe bacon\n
273.0305	0.076	546061	keystroke_t	t	n/a
273.1505	0.15	546301	keystroke_a	a	n/a
273.2565	0.059	546513	keystroke_l	l	n/a
273.3305	0.12	546661	keystroke_e	e	n/a
273.4205	0.105	546841	keystroke_n	n	n/a
273.4955	0.121	546991	keystroke_t	t	n/a
273.5865	0.165	547173	keystroke_e	e	n/a
273.7365	0.1195	547473	keystroke_d	d	n/a
273.7805	0.12	547561	keystroke_Key.space	Key.space	n/a
273.9455	0.121	547891	keystroke_r	r	n/a
274.0365	0.104	548073	keystroke_e	e	n/a
274.0805	0.12	548161	keystroke_l	l	n/a
274.1705	0.135	548341	keystroke_y	y	n/a
274.2615	0.15	548523	keystroke_i	i	n/a
274.3505	0.105	548701	keystroke_n	n	n/a
274.3965	0.104	548793	keystroke_g	g	n/a
274.5455	0.12	549091	keystroke_Key.space	Key.space	n/a
274.6955	0.12	549391	keystroke_z	z	n/a
274.8615	0.104	549723	keystroke_i	i	n/a
274.9355	0.076	549871	keystroke_m	m	n/a
275.0865	0.089	550173	keystroke_b	b	n/a
275.1915	0.089	550383	keystroke_a	a	n/a
275.2955	0.091	550591	keystroke_b	b	n/a
275.4165	0.12	550833	keystroke_w	w	n/a
275.6115	0.104	551223	keystroke_e	e	n/a
275.6855	0.135	551371	keystroke_Key.space	Key.space	n/a
275.7755	0.12	551551	keystroke_b	b	n/a
275.8505	0.135	551701	keystroke_a	a	n/a
275.9415	0.12	551883	keystroke_c	c	n/a
276.0005	0.091	552001	keystroke_o	o	n/a
276.0315	0.134	552063	keystroke_n	n	n/a
276.2555	0.075	552511	keystroke_Key.enter	Key.enter	n/a
276.3385	3.3845	552677	prompt	n/a	supports spoke earning even\n
276.9465	0.12	553893	keystroke_s	s	n/a
277.0365	0.059	554073	keystroke_u	u	n/a
277.0805	0.046	554161	keystroke_p	p	n/a
277.2015	0.149	554403	keystroke_p	p	n/a
277.2615	0.165	554523	keystroke_o	o	n/a
277.3355	0.076	554671	keystroke_r	r	n/a
277.4705	0.091	554941	keystroke_t	t	n/a
277.5615	0.12	555123	keystroke_s	s	n/a
277.6955	0.105	555391	keystroke_Key.space	Key.space	n/a
277.7865	0.104	555573	keystroke_s	s	n/a
277.8465	0.149	555693	keystroke_p	p	n/a
277.9065	0.104	555813	keystroke_o	o	n/a
278.1155	0.09	556231	keystroke_k	k	n/a
278.1765	0.119	556353	keystroke_e	e	n/a
278.2205	0.135	556441	keystroke_Key.space	Key.space	n/a
278.3415	0.134	556683	keystroke_e	e	n/a
278.5365	0.135	557073	keystroke_a	a	n/a
278.6565	0.119	557313	keystroke_r	r	n/a
278.7305	0.091	557461	keystroke_n	n	n/a
278.7915	0.12	557583	keystroke_i	i	n/a
278.8965	0.12	557793	keystroke_n	n	n/a
278.9705	0.105	557941	keystroke_g	g	n/a
279.1205	0.121	558241	keystroke_Key.space	Key.space	n/a
279.2115	0.15	558423	keystroke_e	e	n/a
279.3155	0.151	558631	keystroke_v	v	n/a
279.4215	0.09	558843	keystroke_e	e	n/a
279.4665	0.089	558933	keystroke_n	n	n/a
279.6005	0.12	559201	keystroke_Key.enter	Key.enter	n/a
279.7275	3.146	559455	prompt	n/a	lack based earth skype\n
280.2155	0.135	560431	keystroke_l	l	n/a
280.2905	0.121	560581	keystroke_a	a	n/a
280.3805	0.12	560761	keystroke_c	c	n/a
280.4415	0.104	560883	keystroke_k	k	n/a
280.5305	0.121	561061	keystroke_Key.space	Key.space	n/a
280.6365	0.12	561273	keystroke_b	b	n/a
280.8455	0.121	561691	keystroke_a	a	n/a
280.9205	0.106	561841	keystroke_s	s	n/a
281.1155	0.121	562231	keystroke_e	e	n/a
281.1765	0.135	562353	keystroke_d	d	n/a
281.2365	0.089	562473	keystroke_Key.space	Key.space	n/a
281.3705	0.196	562741	keystroke_e	e	n/a
281.4305	0.15	562861	keystroke_a	a	n/a
281.4905	0.106	562981	keystroke_r	r	n/a
281.6715	0.09	563343	keystroke_t	t	n/a
281.7305	0.09	563461	keystroke_h	h	n/a
281.7905	0.135	563581	keystroke_Key.space	Key.space	n/a
281.8805	0.12	563761	keystroke_s	s	n/a
282.1205	0.106	564241	keystroke_k	k	n/a
282.3165	0.0605	564633	keystroke_y	y	n/a
282.4505	0.136	564901	keystroke_p	p	n/a
282.5415	0.075	565083	keystroke_e	e	n/a
282.7505	0.12	565501	keystroke_Key.enter	Key.enter	n/a
282.8775	3.6105	565755	prompt	n/a	refers solution pale divorce\n
283.4715	0.09	566943	keystroke_r	r	n/a
283.5315	0.149	567063	keystroke_e	e	n/a
283.7115	0.12	567423	keystroke_f	f	n/a
283.8015	0.1495	567603	keystroke_e	e	n/a
283.906	0.105	567812	keystroke_r	r	n/a
284.041	0.12	568082	keystroke_s	s	n/a
284.116	0.12	568232	keystroke_Key.space	Key.space	n/a
284.221	0.105	568442	keystroke_s	s	n/a
284.296	0.12	568592	keystroke_o	o	n/a
284.461	0.18	568922	keystroke_l	l	n/a
284.581	0.135	569162	keystroke_u	u	n/a
284.701	0.075	569402	keystroke_t	t	n/a
284.821	0.165	569642	keystroke_i	i	n/a
284.881	0.135	569762	keystroke_o	o	n/a
284.926	0.12	569852	keystroke_n	n	n/a
285.106	0.135	570212	keystroke_Key.space	Key.space	n/a
285.196	0.1055	570392	keystroke_p	p	n/a
285.2865	0.09	570573	keystroke_a	a	n/a
285.3905	0.106	570781	keystroke_l	l	n/a
285.4505	0.12	570901	keystroke_e	e	n/a
285.541	0.1345	571082	keystroke_Key.space	Key.space	n/a
285.6165	0.119	571233	keystroke_d	d	n/a
285.7505	0.105	571501	keystroke_i	i	n/a
285.8565	0.089	571713	keystroke_v	v	n/a
285.9305	0.12	571861	keystroke_o	o	n/a
286.0965	0.059	572193	keystroke_r	r	n/a
286.2755	0.091	572551	keystroke_c	c	n/a
286.3515	0.09	572703	keystroke_e	e	n/a
286.3805	0.105	572761	keystroke_Key.enter	Key.enter	n/a
286.4915	4.017	572983	prompt	n/a	advertise light this movement\n
287.0255	0.105	574051	keystroke_a	a	n/a
287.1155	0.121	574231	keystroke_d	d	n/a
287.3565	0.105	574713	keystroke_v	v	n/a
287.5055	0.121	575011	keystroke_e	e	n/a
287.5815	0.074	575163	keystroke_r	r	n/a
287.7315	0.09	575463	keystroke_t	t	n/a
287.8665	0.075	575733	keystroke_i	i	n/a
287.9255	0.091	575851	keystroke_s	s	n/a
288.0915	0.09	576183	keystroke_e	e	n/a
288.1665	0.15	576333	keystroke_Key.space	Key.space	n/a
288.2265	0.165	576453	keystroke_l	l	n/a
288.3165	0.105	576633	keystroke_i	i	n/a
288.5255	0.105	577051	keystroke_g	g	n/a
288.5865	0.119	577173	keystroke_h	h	n/a
288.6465	0.119	577293	keystroke_t	t	n/a
288.7505	0.12	577501	keystroke_Key.space	Key.space	n/a
288.8405	0.106	577681	keystroke_t	t	n/a
288.8865	0.134	577773	keystroke_h	h	n/a
288.9615	0.15	577923	keystroke_i	i	n/a
289.0365	0.105	578073	keystroke_s	s	n/a
289.0955	0.09	578191	keystroke_Key.space	Key.space	n/a
289.3055	0.15	578611	keystroke_m	m	n/a
289.3515	0.12	578703	keystroke_o	o	n/a
289.5165	0.15	579033	keystroke_v	v	n/a
289.6065	0.119	579213	keystroke_e	e	n/a
289.7415	0.104	579483	keystroke_m	m	n/a
289.8155	0.105	579631	keystroke_e	e	n/a
289.9355	0.106	579871	keystroke_n	n	n/a
290.0265	0.135	580053	keystroke_t	t	n/a
290.3855	0.12	580771	keystroke_Key.enter	Key.enter	n/a
290.5125	4.826	581025	prompt	n/a	desired suggests optimum pantyhose\n
291.1055	0.166	582211	keystroke_d	d	n/a
291.1815	0.12	582363	keystroke_e	e	n/a
291.3915	0.12	582783	keystroke_s	s	n/a
291.496	0.1355	582992	keystroke_i	i	n/a
291.5865	0.104	583173	keystroke_r	r	n/a
291.6605	0.166	583321	keystroke_e	e	n/a
291.7815	0.119	583563	keystroke_d	d	n/a
291.8555	0.12	583711	keystroke_Key.space	Key.space	n/a
292.0205	0.091	584041	keystroke_s	s	n/a
292.0965	0.075	584193	keystroke_u	u	n/a
292.1865	0.09	584373	keystroke_g	g	n/a
292.3365	0.105	584673	keystroke_g	g	n/a
292.4855	0.136	584971	keystroke_e	e	n/a
292.6955	0.151	585391	keystroke_s	s	n/a
292.8005	0.075	585601	keystroke_t	t	n/a
292.9065	0.149	585813	keystroke_s	s	n/a
293.0405	0.105	586081	keystroke_Key.space	Key.space	n/a
293.3705	0.166	586741	keystroke_o	o	n/a
293.4455	0.121	586891	keystroke_p	p	n/a
293.5215	0.105	587043	keystroke_t	t	n/a
293.7305	0.136	587461	keystroke_i	i	n/a
293.8365	0.119	587673	keystroke_m	m	n/a
293.9415	0.135	587883	keystroke_u	u	n/a
294.0305	0.106	588061	keystroke_m	m	n/a
294.2255	0.135	588451	keystroke_Key.space	Key.space	n/a
294.3315	0.15	588663	keystroke_p	p	n/a
294.4205	0.121	588841	keystroke_a	a	n/a
294.5115	0.075	589023	keystroke_n	n	n/a
294.6005	0.106	589201	keystroke_t	t	n/a
294.6755	0.106	589351	keystroke_y	y	n/a
294.8855	0.091	589771	keystroke_h	h	n/a
294.9315	0.135	589863	keystroke_o	o	n/a
294.9905	0.091	589981	keystroke_s	s	n/a
295.1555	0.106	590311	keystroke_e	e	n/a
295.2465	0.09	590493	keystroke_Key.enter	Key.enter	n/a
295.344	5.529	590688	prompt	n/a	jenny peer bouquet unlike\n
296.0565	0.119	592113	keystroke_j	j	n/a
296.1615	0.105	592323	keystroke_e	e	n/a
296.2365	0.075	592473	keystroke_n	n	n/a
296.4015	0.0905	592803	keystroke_n	n	n/a
296.477	0.105	592954	keystroke_y	y	n/a
296.596	0.121	593192	keystroke_Key.space	Key.space	n/a
296.702	0.119	593404	keystroke_p	p	n/a
296.747	0.104	593494	keystroke_w	w	n/a
297.137	0.104	594274	keystroke_Key.backspace	Key.backspace	n/a
297.287	0.089	594574	keystroke_e	e	n/a
297.452	0.135	594904	keystroke_e	e	n/a
297.541	0.121	595082	keystroke_r	r	n/a
297.676	0.09	595352	keystroke_Key.space	Key.space	n/a
297.842	0.06	595684	keystroke_b	b	n/a
298.022	0.15	596044	keystroke_o	o	n/a
298.096	0.106	596192	keystroke_u	u	n/a
298.187	0.12	596374	keystroke_q	q	n/a
298.472	0.09	596944	keystroke_u	u	n/a
298.907	0.134	597814	keystroke_e	e	n/a
299.027	0.09	598054	keystroke_t	t	n/a
299.147	0.119	598294	keystroke_Key.space	Key.space	n/a
299.297	0.105	598594	keystroke_u	u	n/a
299.417	0.134	598834	keystroke_n	n	n/a
299.522	0.15	599044	keystroke_l	l	n/a
299.597	0.09	599194	keystroke_i	i	n/a
299.747	0.105	599494	keystroke_k	k	n/a
299.807	0.075	599614	keystroke_e	e	n/a
300.767	0.104	601534	keystroke_Key.enter	Key.enter	n/a
300.8775	5.0815	601755	prompt	n/a	destinations fiction mins format\n
301.757	0.135	603514	keystroke_d	d	n/a
302.462	0.09	604924	keystroke_e	e	n/a
302.642	0.15	605284	keystroke_s	s	n/a
303.002	0.1045	606004	keystroke_t	t	n/a
303.152	0.165	606304	keystroke_i	i	n/a
303.2565	0.1355	606513	keystroke_n	n	n/a
303.362	0.135	606724	keystroke_a	a	n/a
303.467	0.0885	606934	keystroke_t	t	n/a
303.542	0.1495	607084	keystroke_i	i	n/a
303.572	0.1345	607144	keystroke_o	o	n/a
303.6315	0.135	607263	keystroke_n	n	n/a
303.737	0.105	607474	keystroke_s	s	n/a
303.857	0.12	607714	keystroke_Key.space	Key.space	n/a
303.992	0.105	607984	keystroke_f	f	n/a
304.112	0.105	608224	keystroke_i	i	n/a
304.187	0.105	608374	keystroke_c	c	n/a
304.412	0.105	608824	keystroke_t	t	n/a
304.457	0.15	608914	keystroke_i	i	n/a
304.502	0.135	609004	keystroke_o	o	n/a
304.577	0.09	609154	keystroke_n	n	n/a
304.727	0.105	609454	keystroke_Key.space	Key.space	n/a
304.937	0.09	609874	keystroke_m	m	n/a
305.012	0.135	610024	keystroke_i	i	n/a
305.102	0.105	610204	keystroke_n	n	n/a
305.162	0.12	610324	keystroke_s	s	n/a
305.282	0.12	610564	keystroke_Key.space	Key.space	n/a
305.3715	0.0905	610743	keystroke_f	f	n/a
305.447	0.105	610894	keystroke_o	o	n/a
305.537	0.1045	611074	keystroke_r	r	n/a
305.6565	0.09	611313	keystroke_m	m	n/a
305.7165	0.105	611433	keystroke_a	a	n/a
305.7915	0.075	611583	keystroke_t	t	n/a
305.8665	0.0905	611733	keystroke_Key.enter	Key.enter	n/a
305.9635	4.721	611927	prompt	n/a	disorders labels contracts shuttle\n
306.5265	0.12	613053	keystroke_d	d	n/a
306.6315	0.1205	613263	keystroke_i	i	n/a
306.7665	0.105	613533	keystroke_s	s	n/a
306.8265	0.135	613653	keystroke_o	o	n/a
306.9315	0.09	613863	keystroke_r	r	n/a
307.1265	0.105	614253	keystroke_d	d	n/a
307.1865	0.195	614373	keystroke_e	e	n/a
307.3515	0.105	614703	keystroke_r	r	n/a
307.5015	0.12	615003	keystroke_s	s	n/a
307.5765	0.135	615153	keystroke_Key.space	Key.space	n/a
307.6665	0.105	615333	keystroke_l	l	n/a
307.8015	0.135	615603	keystroke_a	a	n/a
307.8915	0.105	615783	keystroke_b	b	n/a
308.0115	0.105	616023	keystroke_e	e	n/a
308.1015	0.105	616203	keystroke_l	l	n/a
308.1915	0.12	616383	keystroke_s	s	n/a
308.2815	0.135	616563	keystroke_Key.space	Key.space	n/a
308.4465	0.09	616893	keystroke_c	c	n/a
308.492	0.1345	616984	keystroke_o	o	n/a
308.6115	0.135	617223	keystroke_n	n	n/a
308.7015	0.075	617403	keystroke_t	t	n/a
308.8665	0.105	617733	keystroke_r	r	n/a
308.9415	0.135	617883	keystroke_a	a	n/a
309.1665	0.15	618333	keystroke_c	c	n/a
309.4665	0.09	618933	keystroke_t	t	n/a
309.6465	0.105	619293	keystroke_s	s	n/a
309.7215	0.12	619443	keystroke_Key.space	Key.space	n/a
309.8565	0.105	619713	keystroke_s	s	n/a
309.9315	0.09	619863	keystroke_h	h	n/a
309.9625	0.134	619925	keystroke_u	u	n/a
310.0665	0.045	620133	keystroke_f	f	n/a
310.1865	0.105	620373	keystroke_f	f	n/a
310.2765	0.09	620553	keystroke_l	l	n/a
310.3515	0.09	620703	keystroke_e	e	n/a
310.5765	0.105	621153	keystroke_Key.enter	Key.enter	n/a
310.6945	4.1585	621389	prompt	n/a	shoulder acer lighter treasures\n
311.3265	0.105	622653	keystroke_s	s	n/a
311.3865	0.18	622773	keystroke_h	h	n/a
311.4615	0.165	622923	keystroke_o	o	n/a
311.5365	0.075	623073	keystroke_u	u	n/a
311.7315	0.105	623463	keystroke_l	l	n/a
311.7765	0.12	623553	keystroke_d	d	n/a
311.8965	0.165	623793	keystroke_e	e	n/a
311.9865	0.12	623973	keystroke_r	r	n/a
312.0465	0.135	624093	keystroke_Key.space	Key.space	n/a
312.1815	0.15	624363	keystroke_a	a	n/a
312.3015	0.12	624603	keystroke_c	c	n/a
312.4665	0.135	624933	keystroke_e	e	n/a
312.5715	0.075	625143	keystroke_r	r	n/a
312.6315	0.195	625263	keystroke_Key.space	Key.space	n/a
312.8115	0.195	625623	keystroke_l	l	n/a
312.9315	0.12	625863	keystroke_i	i	n/a
313.1565	0.105	626313	keystroke_g	g	n/a
313.2015	0.12	626403	keystroke_h	h	n/a
313.2615	0.105	626523	keystroke_t	t	n/a
313.3965	0.165	626793	keystroke_e	e	n/a
313.5015	0.12	627003	keystroke_r	r	n/a
313.5765	0.105	627153	keystroke_Key.space	Key.space	n/a
313.7415	0.09	627483	keystroke_t	t	n/a
313.9065	0.15	627813	keystroke_r	r	n/a
313.9665	0.18	627933	keystroke_e	e	n/a
314.0415	0.18	628083	keystroke_a	a	n/a
314.2065	0.15	628413	keystroke_s	s	n/a
314.3415	0.09	628683	keystroke_u	u	n/a
314.4015	0.105	628803	keystroke_r	r	n/a
314.4615	0.105	628923	keystroke_e	e	n/a
314.6415	0.105	629283	keystroke_s	s	n/a
314.7315	0.12	629463	keystroke_Key.enter	Key.enter	n/a
314.858	4.575	629716	prompt	n/a	purchasing despite canvas glasses\n
315.4065	0.09	630813	keystroke_p	p	n/a
315.5415	0.12	631083	keystroke_u	u	n/a
315.6315	0.12	631263	keystroke_r	r	n/a
315.9165	0.09	631833	keystroke_c	c	n/a
316.0065	0.09	632013	keystroke_h	h	n/a
316.1115	0.075	632223	keystroke_a	a	n/a
316.1715	0.135	632343	keystroke_s	s	n/a
316.2615	0.12	632523	keystroke_i	i	n/a
316.3215	0.105	632643	keystroke_n	n	n/a
316.4415	0.105	632883	keystroke_g	g	n/a
316.5315	0.105	633063	keystroke_Key.space	Key.space	n/a
316.8465	0.15	633693	keystroke_d	d	n/a
316.9365	0.105	633873	keystroke_e	e	n/a
317.1165	0.12	634233	keystroke_s	s	n/a
317.2065	0.135	634413	keystroke_p	p	n/a
317.2665	0.12	634533	keystroke_i	i	n/a
317.3565	0.09	634713	keystroke_t	t	n/a
317.4315	0.12	634863	keystroke_e	e	n/a
317.5065	0.12	635013	keystroke_Key.space	Key.space	n/a
317.6715	0.12	635343	keystroke_c	c	n/a
317.7765	0.12	635553	keystroke_a	a	n/a
317.8665	0.12	635733	keystroke_n	n	n/a
318.0015	0.105	636003	keystroke_v	v	n/a
318.1215	0.15	636243	keystroke_a	a	n/a
318.2115	0.12	636423	keystroke_s	s	n/a
318.2865	0.135	636573	keystroke_Key.space	Key.space	n/a
318.4965	0.09	636993	keystroke_g	g	n/a
318.6015	0.105	637203	keystroke_l	l	n/a
318.6615	0.105	637323	keystroke_a	a	n/a
318.7215	0.09	637443	keystroke_s	s	n/a
