onset	duration	sample	value	key	prompt_text
8.667	0.0585	17334	keystroke_m	m	n/a
8.8	0.1205	17600	keystroke_i	i	n/a
8.965	0.105	17930	keystroke_n	n	n/a
9.0855	0.0895	18171	keystroke_a	a	n/a
9.235	0.1505	18470	keystroke_f	f	n/a
9.295	0.12	18590	keystroke_a	a	n/a
9.43	0.075	18860	keystroke_h	h	n/a
9.67	0.135	19340	keystroke_m	m	n/a
9.76	0.075	19520	keystroke_i	i	n/a
14.247	0.043	28494	keystroke_o	o	n/a
14.32	0.09	28640	keystroke_n	n	n/a
14.6205	0.3445	29241	keystroke_Key.shift_r	Key.shift_r	n/a
14.8455	0.09	29691	keystroke__	_	n/a
15.145	0.1055	30290	keystroke_k	k	n/a
15.2655	0.12	30531	keystroke_e	e	n/a
15.4005	0.075	30801	keystroke_y	y	n/a
15.535	0.12	31070	keystroke_b	b	n/a
15.67	0.0905	31340	keystroke_o	o	n/a
15.7905	0.09	31581	keystroke_a	a	n/a
15.896	0.1045	31792	keystroke_r	r	n/a
16.1055	0.12	32211	keystroke_d	d	n/a
16.466	0.104	32932	keystroke_Key.space	Key.space	n/a
16.69	0.12	33380	keystroke_p	p	n/a
16.825	0.1205	33650	keystroke_r	r	n/a
16.9605	0.0895	33921	keystroke_o	o	n/a
17.095	0.06	34190	keystroke_t	t	n/a
17.2455	0.0605	34491	keystroke_o	o	n/a
17.336	0.12	34672	keystroke_c	c	n/a
17.425	0.0755	34850	keystroke_o	o	n/a
17.605	0.045	35210	keystroke_l	l	n/a
17.905	0.1205	35810	keystroke_Key.space	Key.space	n/a
18.5955	0.075	37191	keystroke_6	6	n/a
18.7755	0.135	37551	keystroke_.	.	n/a
19.2705	0.075	38541	keystroke_3	3	n/a
19.3905	0.105	38781	keystroke_Key.space	Key.space	n/a
20.3345	0.061	40669	keystroke_Key.backspace	Key.backspace	n/a
23.4885	8.2205	46977	prompt	n/a	the quick brown fox jumps over a lazy dog\n
25.2425	0.0435	50485	keystroke_t	t	n/a
25.301	0.06	50602	keystroke_h	h	n/a
25.376	0.09	50752	keystroke_e	e	n/a
25.511	0.06	51022	keystroke_Key.space	Key.space	n/a
25.586	0.09	51172	keystroke_q	q	n/a
25.706	0.12	51412	keystroke_u	u	n/a
25.886	0.09	51772	keystroke_i	i	n/a
26.006	0.15	52012	keystroke_c	c	n/a
26.126	0.105	52252	keystroke_k	k	n/a
26.276	0.09	52552	keystroke_Key.space	Key.space	n/a
26.441	0.075	52882	keystroke_b	b	n/a
26.621	0.105	53242	keystroke_r	r	n/a
26.711	0.09	53422	keystroke_o	o	n/a
26.846	0.06	53692	keystroke_w	w	n/a
26.951	0.09	53902	keystroke_n	n	n/a
27.146	0.074	54292	keystroke_Key.space	Key.space	n/a
27.251	0.15	54502	keystroke_f	f	n/a
27.4605	0.1205	54921	keystroke_o	o	n/a
27.656	0.149	55312	keystroke_x	x	n/a
27.79	0.09	55580	keystroke_Key.space	Key.space	n/a
27.956	0.105	55912	keystroke_j	j	n/a
28.1805	0.0455	56361	keystroke_u	u	n/a
28.3765	0.104	56753	keystroke_m	m	n/a
28.5705	0.0905	57141	keystroke_p	p	n/a
28.751	0.105	57502	keystroke_s	s	n/a
28.871	0.105	57742	keystroke_Key.space	Key.space	n/a
29.0805	0.0905	58161	keystroke_o	o	n/a
29.246	0.075	58492	keystroke_v	v	n/a
29.4405	0.09	58881	keystroke_e	e	n/a
29.591	0.105	59182	keystroke_r	r	n/a
29.711	0.074	59422	keystroke_Key.space	Key.space	n/a
30.0115	0.135	60023	keystroke_a	a	n/a
30.1905	0.075	60381	keystroke_Key.space	Key.space	n/a
30.4155	0.09	60831	keystroke_l	l	n/a
30.5505	0.105	61101	keystroke_a	a	n/a
30.7755	0.136	61551	keystroke_z	z	n/a
30.8805	0.105	61761	keystroke_y	y	n/a
31.0305	0.075	62061	keystroke_Key.space	Key.space	n/a
31.1655	0.12	62331	keystroke_d	d	n/a
31.3005	0.09	62601	keystroke_o	o	n/a
31.4515	0.09	62903	keystroke_g	g	n/a
31.6305	0.075	63261	keystroke_Key.enter	Key.enter	n/a
31.7155	8.3015	63431	prompt	n/a	intensive lessons background makeup\n
32.291	0.075	64582	keystroke_i	i	n/a
32.471	0.1355	64942	keystroke_n	n	n/a
32.546	0.09	65092	keystroke_t	t	n/a
32.726	0.105	65452	keystroke_e	e	n/a
32.891	0.1045	65782	keystroke_n	n	n/a
33.041	0.0745	66082	keystroke_s	s	n/a
33.2205	0.0605	66441	keystroke_t	t	n/a
33.3405	0.1205	66681	keystroke_i	i	n/a
33.506	0.09	67012	keystroke_v	v	n/a
33.701	0.0595	67402	keystroke_e	e	n/a
34.046	0.075	68092	keystroke_Key.backspace	Key.backspace	n/a
34.181	0.0895	68362	keystroke_Key.backspace	Key.backspace	n/a
34.375	0.0755	68750	keystroke_Key.backspace	Key.backspace	n/a
34.6605	0.075	69321	keystroke_Key.backspace	Key.backspace	n/a
34.9155	0.105	69831	keystroke_i	i	n/a
35.0805	0.075	70161	keystroke_v	v	n/a
35.2605	0.075	70521	keystroke_e	e	n/a
35.4255	0.075	70851	keystroke_Key.space	Key.space	n/a
35.831	0.09	71662	keystroke_l	l	n/a
35.876	0.06	71752	keystroke_e	e	n/a
36.071	0.09	72142	keystroke_s	s	n/a
36.296	0.105	72592	keystroke_s	s	n/a
36.461	0.12	72922	keystroke_o	o	n/a
36.6255	0.075	73251	keystroke_n	n	n/a
36.7605	0.09	73521	keystroke_s	s	n/a
36.8505	0.09	73701	keystroke_Key.space	Key.space	n/a
37.0455	0.076	74091	keystroke_b	b	n/a
37.2265	0.075	74453	keystroke_a	a	n/a
37.4205	0.1355	74841	keystroke_c	c	n/a
37.571	0.09	75142	keystroke_k	k	n/a
37.751	0.0745	75502	keystroke_g	g	n/a
37.9465	0.045	75893	keystroke_r	r	n/a
38.1255	0.0905	76251	keystroke_o	o	n/a
38.3205	0.075	76641	keystroke_u	u	n/a
38.5155	0.075	77031	keystroke_n	n	n/a
38.6505	0.136	77301	keystroke_d	d	n/a
38.7705	0.075	77541	keystroke_Key.space	Key.space	n/a
38.9655	0.09	77931	keystroke_m	m	n/a
39.0855	0.1505	78171	keystroke_a	a	n/a
39.251	0.105	78502	keystroke_k	k	n/a
39.371	0.09	78742	keystroke_e	e	n/a
39.521	0.09	79042	keystroke_u	u	n/a
39.701	0.09	79402	keystroke_p	p	n/a
39.956	0.06	79912	keystroke_Key.enter	Key.enter	n/a
40.024	8.754	80048	prompt	n/a	individual cherry unavailable sequences\n
40.661	0.09	81322	keystroke_i	i	n/a
40.8565	0.1045	81713	keystroke_n	n	n/a
41.006	0.1195	82012	keystroke_d	d	n/a
41.1405	0.09	82281	keystroke_i	i	n/a
41.2615	0.089	82523	keystroke_v	v	n/a
41.3815	0.1045	82763	keystroke_i	i	n/a
41.501	0.105	83002	keystroke_d	d	n/a
41.606	0.105	83212	keystroke_u	u	n/a
41.726	0.105	83452	keystroke_a	a	n/a
41.846	0.075	83692	keystroke_l	l	n/a
41.951	0.09	83902	keystroke_s	s	n/a
42.071	0.0895	84142	keystroke_Key.space	Key.space	n/a
42.3855	0.1355	84771	keystroke_c	c	n/a
42.536	0.12	85072	keystroke_h	h	n/a
42.9405	0.075	85881	keystroke_Key.backspace	Key.backspace	n/a
43.1355	0.075	86271	keystroke_Key.backspace	Key.backspace	n/a
43.3305	0.09	86661	keystroke_Key.backspace	Key.backspace	n/a
43.5255	0.075	87051	keystroke_Key.backspace	Key.backspace	n/a
43.7055	0.09	87411	keystroke_Key.space	Key.space	n/a
43.9155	0.12	87831	keystroke_c	c	n/a
44.0505	0.1055	88101	keystroke_h	h	n/a
44.171	0.105	88342	keystroke_e	e	n/a
44.3805	0.06	88761	keystroke_r	r	n/a
44.516	0.1045	89032	keystroke_r	r	n/a
44.6805	0.075	89361	keystroke_y	y	n/a
44.8605	0.06	89721	keystroke_Key.space	Key.space	n/a
45.056	0.105	90112	keystroke_u	u	n/a
45.2805	0.106	90561	keystroke_n	n	n/a
45.446	0.0745	90892	keystroke_a	a	n/a
45.7005	0.12	91401	keystroke_v	v	n/a
45.9105	0.06	91821	keystroke_a	a	n/a
46.0155	0.105	92031	keystroke_i	i	n/a
46.2255	0.075	92451	keystroke_l	l	n/a
46.391	0.0755	92782	keystroke_a	a	n/a
46.5855	0.076	93171	keystroke_b	b	n/a
46.6755	0.09	93351	keystroke_l	l	n/a
46.8255	0.061	93651	keystroke_e	e	n/a
46.9305	0.076	93861	keystroke_Key.space	Key.space	n/a
47.0655	0.1505	94131	keystroke_s	s	n/a
47.3355	0.06	94671	keystroke_e	e	n/a
47.501	0.075	95002	keystroke_q	q	n/a
47.651	0.075	95302	keystroke_u	u	n/a
47.771	0.105	95542	keystroke_e	e	n/a
47.9055	0.1355	95811	keystroke_n	n	n/a
48.071	0.12	96142	keystroke_c	c	n/a
48.281	0.06	96562	keystroke_e	e	n/a
48.446	0.06	96892	keystroke_s	s	n/a
48.7155	0.061	97431	keystroke_Key.enter	Key.enter	n/a
48.7815	6.836	97563	prompt	n/a	amounts climbing diploma library\n
49.3755	0.1205	98751	keystroke_a	a	n/a
49.526	0.09	99052	keystroke_m	m	n/a
49.766	0.0895	99532	keystroke_o	o	n/a
49.9605	0.075	99921	keystroke_u	u	n/a
50.1555	0.135	100311	keystroke_n	n	n/a
50.276	0.0595	100552	keystroke_t	t	n/a
50.4405	0.075	100881	keystroke_s	s	n/a
50.606	0.0595	101212	keystroke_Key.space	Key.space	n/a
50.9955	0.12	101991	keystroke_c	c	n/a
51.1005	0.12	102201	keystroke_l	l	n/a
51.3255	0.075	102651	keystroke_i	i	n/a
51.5355	0.0905	103071	keystroke_m	m	n/a
51.746	0.09	103492	keystroke_b	b	n/a
51.941	0.105	103882	keystroke_i	i	n/a
52.151	0.12	104302	keystroke_n	n	n/a
52.286	0.0905	104572	keystroke_g	g	n/a
52.4065	0.119	104813	keystroke_Key.space	Key.space	n/a
52.6155	0.1355	105231	keystroke_d	d	n/a
52.811	0.135	105622	keystroke_i	i	n/a
53.036	0.1045	106072	keystroke_p	p	n/a
53.2455	0.091	106491	keystroke_l	l	n/a
53.4405	0.0755	106881	keystroke_o	o	n/a
53.6205	0.136	107241	keystroke_m	m	n/a
53.8005	0.076	107601	keystroke_a	a	n/a
53.9205	0.105	107841	keystroke_Key.space	Key.space	n/a
54.1305	0.105	108261	keystroke_l	l	n/a
54.3405	0.105	108681	keystroke_i	i	n/a
54.5205	0.105	109041	keystroke_b	b	n/a
54.7915	0.075	109583	keystroke_r	r	n/a
54.941	0.105	109882	keystroke_a	a	n/a
55.136	0.09	110272	keystroke_r	r	n/a
55.301	0.105	110602	keystroke_y	y	n/a
55.556	0.06	111112	keystroke_Key.enter	Key.enter	n/a
55.623	6.8045	111246	prompt	n/a	outline junction around ward\n
56.3365	0.09	112673	keystroke_o	o	n/a
56.5315	0.089	113063	keystroke_u	u	n/a
56.6655	0.09	113331	keystroke_t	t	n/a
56.9215	0.075	113843	keystroke_l	l	n/a
57.1155	0.09	114231	keystroke_i	i	n/a
57.3105	0.09	114621	keystroke_n	n	n/a
57.4605	0.075	114921	keystroke_e	e	n/a
57.5655	0.09	115131	keystroke_Key.space	Key.space	n/a
57.7905	0.09	115581	keystroke_j	j	n/a
58.0005	0.06	116001	keystroke_u	u	n/a
58.1805	0.0905	116361	keystroke_n	n	n/a
58.361	0.12	116722	keystroke_c	c	n/a
58.646	0.06	117292	keystroke_t	t	n/a
58.811	0.075	117622	keystroke_i	i	n/a
59.006	0.06	118012	keystroke_o	o	n/a
59.1855	0.075	118371	keystroke_n	n	n/a
59.3655	0.0905	118731	keystroke_Key.space	Key.space	n/a
60.386	0.09	120772	keystroke_a	a	n/a
60.596	0.06	121192	keystroke_r	r	n/a
60.791	0.0895	121582	keystroke_o	o	n/a
60.9855	0.105	121971	keystroke_u	u	n/a
61.196	0.105	122392	keystroke_n	n	n/a
61.316	0.12	122632	keystroke_d	d	n/a
61.466	0.075	122932	keystroke_Key.space	Key.space	n/a
61.586	0.075	123172	keystroke_w	w	n/a
61.781	0.12	123562	keystroke_a	a	n/a
61.991	0.075	123982	keystroke_r	r	n/a
62.186	0.06	124372	keystroke_d	d	n/a
62.366	0.06	124732	keystroke_Key.enter	Key.enter	n/a
62.432	5.546	124864	prompt	n/a	chan with boxed requirement\n
63.161	0.135	126322	keystroke_c	c	n/a
63.281	0.09	126562	keystroke_h	h	n/a
63.416	0.135	126832	keystroke_a	a	n/a
63.536	0.075	127072	keystroke_n	n	n/a
63.73	0.0755	127460	keystroke_Key.space	Key.space	n/a
63.8655	0.105	127731	keystroke_w	w	n/a
64.0015	0.104	128003	keystroke_i	i	n/a
64.1965	0.0745	128393	keystroke_t	t	n/a
64.451	0.1045	128902	keystroke_h	h	n/a
64.6755	0.075	129351	keystroke_Key.space	Key.space	n/a
64.8855	0.1055	129771	keystroke_b	b	n/a
65.0355	0.12	130071	keystroke_o	o	n/a
65.2455	0.12	130491	keystroke_x	x	n/a
65.4855	0.06	130971	keystroke_e	e	n/a
65.6365	0.134	131273	keystroke_d	d	n/a
65.7705	0.106	131541	keystroke_Key.space	Key.space	n/a
65.9505	0.135	131901	keystroke_r	r	n/a
66.191	0.0745	132382	keystroke_e	e	n/a
66.3555	0.0905	132711	keystroke_q	q	n/a
66.551	0.0905	133102	keystroke_u	u	n/a
66.7615	0.0895	133523	keystroke_i	i	n/a
66.911	0.105	133822	keystroke_r	r	n/a
67.0905	0.075	134181	keystroke_e	e	n/a
67.2555	0.12	134511	keystroke_m	m	n/a
67.4205	0.1055	134841	keystroke_e	e	n/a
67.541	0.075	135082	keystroke_n	n	n/a
67.7065	0.0895	135413	keystroke_t	t	n/a
67.916	0.0605	135832	keystroke_Key.enter	Key.enter	n/a
67.986	5.842	135972	prompt	n/a	expressions cross cool jesus\n
68.606	0.06	137212	keystroke_e	e	n/a
68.801	0.135	137602	keystroke_x	x	n/a
68.951	0.09	137902	keystroke_p	p	n/a
69.116	0.09	138232	keystroke_r	r	n/a
69.326	0.0605	138652	keystroke_e	e	n/a
69.506	0.06	139012	keystroke_s	s	n/a
69.6865	0.0895	139373	keystroke_s	s	n/a
69.941	0.075	139882	keystroke_i	i	n/a
70.121	0.075	140242	keystroke_o	o	n/a
70.301	0.105	140602	keystroke_n	n	n/a
70.451	0.09	140902	keystroke_s	s	n/a
70.586	0.0895	141172	keystroke_Key.space	Key.space	n/a
70.7365	0.1195	141473	keystroke_c	c	n/a
70.991	0.06	141982	keystroke_r	r	n/a
71.096	0.0905	142192	keystroke_o	o	n/a
71.2765	0.09	142553	keystroke_s	s	n/a
71.5015	0.09	143003	keystroke_s	s	n/a
71.6655	0.12	143331	keystroke_Key.space	Key.space	n/a
71.846	0.1345	143692	keystroke_c	c	n/a
72.0415	0.075	144083	keystroke_o	o	n/a
72.236	0.075	144472	keystroke_o	o	n/a
72.431	0.09	144862	keystroke_l	l	n/a
72.596	0.09	145192	keystroke_Key.space	Key.space	n/a
72.7905	0.105	145581	keystroke_j	j	n/a
73.0305	0.045	146061	keystroke_e	e	n/a
73.211	0.075	146422	keystroke_s	s	n/a
73.3905	0.0905	146781	keystroke_u	u	n/a
73.556	0.09	147112	keystroke_s	s	n/a
73.781	0.045	147562	keystroke_Key.enter	Key.enter	n/a
73.833	6.0845	147666	prompt	n/a	engage approve rendered delay\n
74.3515	0.06	148703	keystroke_e	e	n/a
74.6365	0.105	149273	keystroke_n	n	n/a
74.846	0.075	149692	keystroke_g	g	n/a
75.056	0.105	150112	keystroke_a	a	n/a
75.281	0.09	150562	keystroke_g	g	n/a
75.476	0.06	150952	keystroke_e	e	n/a
75.626	0.075	151252	keystroke_Key.space	Key.space	n/a
75.866	0.0895	151732	keystroke_a	a	n/a
76.0615	0.074	152123	keystroke_p	p	n/a
76.256	0.0905	152512	keystroke_p	p	n/a
76.4505	0.0605	152901	keystroke_r	r	n/a
76.556	0.06	153112	keystroke_o	o	n/a
76.7355	0.0755	153471	keystroke_v	v	n/a
76.9615	0.0595	153923	keystroke_e	e	n/a
77.096	0.09	154192	keystroke_Key.space	Key.space	n/a
77.321	0.12	154642	keystroke_r	r	n/a
77.501	0.075	155002	keystroke_e	e	n/a
77.681	0.075	155362	keystroke_n	n	n/a
77.831	0.12	155662	keystroke_d	d	n/a
78.101	0.0895	156202	keystroke_e	e	n/a
78.2955	0.0755	156591	keystroke_r	r	n/a
78.476	0.075	156952	keystroke_e	e	n/a
78.686	0.1045	157372	keystroke_d	d	n/a
78.8655	0.0755	157731	keystroke_Key.space	Key.space	n/a
79.031	0.075	158062	keystroke_d	d	n/a
79.2405	0.03	158481	keystroke_e	e	n/a
79.3465	0.075	158693	keystroke_l	l	n/a
79.4815	0.0745	158963	keystroke_a	a	n/a
79.631	0.12	159262	keystroke_y	y	n/a
79.871	0.045	159742	keystroke_Key.enter	Key.enter	n/a
79.9225	5.575	159845	prompt	n/a	sheet endless mail activists\n
80.4855	0.09	160971	keystroke_s	s	n/a
80.726	0.0745	161452	keystroke_h	h	n/a
80.8305	0.06	161661	keystroke_e	e	n/a
81.011	0.0755	162022	keystroke_e	e	n/a
81.266	0.06	162532	keystroke_t	t	n/a
81.356	0.09	162712	keystroke_Key.space	Key.space	n/a
81.566	0.075	163132	keystroke_e	e	n/a
81.701	0.09	163402	keystroke_n	n	n/a
81.881	0.075	163762	keystroke_d	d	n/a
82.016	0.09	164032	keystroke_l	l	n/a
82.211	0.06	164422	keystroke_e	e	n/a
82.421	0.045	164842	keystroke_s	s	n/a
82.586	0.09	165172	keystroke_s	s	n/a
82.721	0.09	165442	keystroke_Key.space	Key.space	n/a
82.9455	0.075	165891	keystroke_m	m	n/a
83.0805	0.06	166161	keystroke_a	a	n/a
83.2305	0.0755	166461	keystroke_i	i	n/a
83.4255	0.075	166851	keystroke_l	l	n/a
83.6805	0.015	167361	keystroke_Key.space	Key.space	n/a
83.7115	0.075	167423	keystroke_a	a	n/a
83.8915	0.104	167783	keystroke_c	c	n/a
84.1305	0.06	168261	keystroke_t	t	n/a
84.2805	0.076	168561	keystroke_i	i	n/a
84.3565	0.12	168713	keystroke_v	v	n/a
84.5955	0.1055	169191	keystroke_i	i	n/a
84.8805	0.091	169761	keystroke_s	s	n/a
85.046	0.0905	170092	keystroke_t	t	n/a
85.2405	0.0605	170481	keystroke_s	s	n/a
85.421	0.075	170842	keystroke_Key.enter	Key.enter	n/a
85.502	5.951	171004	prompt	n/a	diary pixels dentists compare\n
86.0665	0.12	172133	keystroke_d	d	n/a
86.2015	0.104	172403	keystroke_i	i	n/a
86.3655	0.0905	172731	keystroke_a	a	n/a
86.561	0.105	173122	keystroke_r	r	n/a
86.696	0.075	173392	keystroke_y	y	n/a
86.8765	0.06	173753	keystroke_Key.space	Key.space	n/a
87.0865	0.09	174173	keystroke_p	p	n/a
87.2955	0.0905	174591	keystroke_i	i	n/a
87.506	0.12	175012	keystroke_x	x	n/a
87.746	0.0605	175492	keystroke_e	e	n/a
87.866	0.09	175732	keystroke_l	l	n/a
88.0015	0.089	176003	keystroke_s	s	n/a
88.1355	0.0605	176271	keystroke_Key.space	Key.space	n/a
88.391	0.075	176782	keystroke_d	d	n/a
88.5865	0.105	177173	keystroke_e	e	n/a
88.7365	0.089	177473	keystroke_n	n	n/a
88.9005	0.106	177801	keystroke_t	t	n/a
89.1115	0.12	178223	keystroke_i	i	n/a
89.2465	0.0895	178493	keystroke_s	s	n/a
89.426	0.075	178852	keystroke_t	t	n/a
89.6215	0.059	179243	keystroke_s	s	n/a
89.8605	0.0755	179721	keystroke_Key.space	Key.space	n/a
90.071	0.1195	180142	keystroke_c	c	n/a
90.1765	0.075	180353	keystroke_o	o	n/a
90.3855	0.0905	180771	keystroke_m	m	n/a
90.566	0.105	181132	keystroke_p	p	n/a
90.731	0.09	181462	keystroke_a	a	n/a
90.926	0.105	181852	keystroke_r	r	n/a
91.136	0.0745	182272	keystroke_e	e	n/a
91.3905	0.06	182781	keystroke_Key.enter	Key.enter	n/a
91.457	8.3205	182914	prompt	n/a	commonwealth photographers dark phases\n
92.1115	0.135	184223	keystroke_c	c	n/a
92.3215	0.06	184643	keystroke_o	o	n/a
92.576	0.045	185152	keystroke_m	m	n/a
92.726	0.0755	185452	keystroke_m	m	n/a
92.9505	0.076	185901	keystroke_o	o	n/a
93.1155	0.0905	186231	keystroke_n	n	n/a
93.3865	0.1045	186773	keystroke_w	w	n/a
93.5965	0.074	187193	keystroke_e	e	n/a
93.7605	0.0905	187521	keystroke_a	a	n/a
93.881	0.135	187762	keystroke_l	l	n/a
94.076	0.06	188152	keystroke_t	t	n/a
94.181	0.0755	188362	keystroke_h	h	n/a
94.3765	0.0745	188753	keystroke_Key.space	Key.space	n/a
94.586	0.1055	189172	keystroke_p	p	n/a
94.901	0.09	189802	keystroke_h	h	n/a
95.3065	0.0895	190613	keystroke_o	o	n/a
95.591	0.1055	191182	keystroke_t	t	n/a
95.7555	0.12	191511	keystroke_o	o	n/a
95.936	0.075	191872	keystroke_g	g	n/a
96.1015	0.1195	192203	keystroke_r	r	n/a
96.326	0.09	192652	keystroke_a	a	n/a
96.431	0.105	192862	keystroke_p	p	n/a
96.6555	0.105	193311	keystroke_h	h	n/a
96.7915	0.104	193583	keystroke_e	e	n/a
97.046	0.075	194092	keystroke_r	r	n/a
97.241	0.0595	194482	keystroke_s	s	n/a
97.4505	0.0755	194901	keystroke_Key.space	Key.space	n/a
97.586	0.12	195172	keystroke_d	d	n/a
97.811	0.12	195622	keystroke_a	a	n/a
98.021	0.105	196042	keystroke_r	r	n/a
98.111	0.105	196222	keystroke_k	k	n/a
98.321	0.075	196642	keystroke_Key.space	Key.space	n/a
98.5015	0.0895	197003	keystroke_p	p	n/a
98.726	0.0905	197452	keystroke_h	h	n/a
98.8755	0.09	197751	keystroke_a	a	n/a
99.0855	0.075	198171	keystroke_s	s	n/a
99.2955	0.0605	198591	keystroke_e	e	n/a
99.491	0.06	198982	keystroke_s	s	n/a
99.716	0.06	199432	keystroke_Key.enter	Key.enter	n/a
99.782	6.2355	199564	prompt	n/a	saturn gardens lender anchor\n
100.3765	0.075	200753	keystroke_s	s	n/a
100.571	0.105	201142	keystroke_a	a	n/a
100.826	0.09	201652	keystroke_t	t	n/a
101.006	0.09	202012	keystroke_u	u	n/a
101.156	0.09	202312	keystroke_r	r	n/a
101.261	0.12	202522	keystroke_n	n	n/a
101.486	0.075	202972	keystroke_Key.space	Key.space	n/a
101.741	0.09	203482	keystroke_g	g	n/a
101.9505	0.1205	203901	keystroke_a	a	n/a
102.1315	0.09	204263	keystroke_r	r	n/a
102.3565	0.075	204713	keystroke_d	d	n/a
102.536	0.105	205072	keystroke_e	e	n/a
102.7905	0.0905	205581	keystroke_n	n	n/a
103.0315	0.119	206063	keystroke_s	s	n/a
103.181	0.0895	206362	keystroke_Key.space	Key.space	n/a
103.4205	0.0905	206841	keystroke_l	l	n/a
103.571	0.0755	207142	keystroke_e	e	n/a
103.781	0.105	207562	keystroke_n	n	n/a
103.991	0.0755	207982	keystroke_d	d	n/a
104.2315	0.1195	208463	keystroke_e	e	n/a
104.4865	0.0895	208973	keystroke_r	r	n/a
104.621	0.105	209242	keystroke_Key.space	Key.space	n/a
104.816	0.1055	209632	keystroke_a	a	n/a
105.011	0.1055	210022	keystroke_n	n	n/a
105.221	0.135	210442	keystroke_c	c	n/a
105.341	0.0755	210682	keystroke_h	h	n/a
105.5215	0.1195	211043	keystroke_o	o	n/a
105.686	0.09	211372	keystroke_r	r	n/a
105.941	0.075	211882	keystroke_Key.enter	Key.enter	n/a
106.023	8.185	212046	prompt	n/a	array citizen haven't china\n
106.556	0.105	213112	keystroke_s	s	n/a
106.9005	0.076	213801	keystroke_Key.backspace	Key.backspace	n/a
107.1255	0.076	214251	keystroke_a	a	n/a
107.3505	0.06	214701	keystroke_r	r	n/a
107.5005	0.105	215001	keystroke_r	r	n/a
107.831	0.12	215662	keystroke_a	a	n/a
108.011	0.1055	216022	keystroke_y	y	n/a
108.2505	0.075	216501	keystroke_Key.space	Key.space	n/a
108.5215	0.15	217043	keystroke_c	c	n/a
108.6865	0.1195	217373	keystroke_i	i	n/a
108.8515	0.089	217703	keystroke_t	t	n/a
109.0455	0.106	218091	keystroke_i	i	n/a
109.1965	0.06	218393	keystroke_z	z	n/a
109.4515	0.09	218903	keystroke_e	e	n/a
109.661	0.09	219322	keystroke_n	n	n/a
109.871	0.075	219742	keystroke_Key.space	Key.space	n/a
110.111	0.105	220222	keystroke_h	h	n/a
110.217	0.089	220434	keystroke_a	a	n/a
110.426	0.09	220852	keystroke_v	v	n/a
110.621	0.075	221242	keystroke_e	e	n/a
110.756	0.06	221512	keystroke_n	n	n/a
110.951	0.105	221902	keystroke_;	;	n/a
111.461	0.06	222922	keystroke_t	t	n/a
111.836	0.075	223672	keystroke_Key.backspace	Key.backspace	n/a
112.0465	0.0445	224093	keystroke_Key.backspace	Key.backspace	n/a
112.346	0.09	224692	keystroke_'	'	n/a
112.7055	0.0755	225411	keystroke_t	t	n/a
112.901	0.06	225802	keystroke_Key.space	Key.space	n/a
113.156	0.135	226312	keystroke_c	c	n/a
113.3055	0.1205	226611	keystroke_h	h	n/a
113.546	0.09	227092	keystroke_i	i	n/a
113.741	0.12	227482	keystroke_n	n	n/a
113.891	0.09	227782	keystroke_a	a	n/a
114.1465	0.06	228293	keystroke_Key.enter	Key.enter	n/a
114.212	6.6715	228424	prompt	n/a	ridge back starting prototype\n
114.9565	0.089	229913	keystroke_r	r	n/a
115.166	0.12	230332	keystroke_i	i	n/a
115.301	0.135	230602	keystroke_d	d	n/a
115.526	0.09	231052	keystroke_g	g	n/a
115.7215	0.0595	231443	keystroke_e	e	n/a
115.8715	0.075	231743	keystroke_Key.space	Key.space	n/a
116.051	0.075	232102	keystroke_b	b	n/a
116.2615	0.089	232523	keystroke_a	a	n/a
116.4415	0.135	232883	keystroke_c	c	n/a
116.636	0.105	233272	keystroke_k	k	n/a
116.861	0.075	233722	keystroke_Key.space	Key.space	n/a
117.0105	0.136	234021	keystroke_s	s	n/a
117.281	0.075	234562	keystroke_t	t	n/a
117.5065	0.105	235013	keystroke_a	a	n/a
117.7015	0.0895	235403	keystroke_r	r	n/a
117.911	0.09	235822	keystroke_t	t	n/a
118.061	0.105	236122	keystroke_i	i	n/a
118.2705	0.09	236541	keystroke_n	n	n/a
118.421	0.105	236842	keystroke_g	g	n/a
118.601	0.0605	237202	keystroke_Key.space	Key.space	n/a
118.8255	0.0905	237651	keystroke_p	p	n/a
119.036	0.1205	238072	keystroke_r	r	n/a
119.2315	0.1045	238463	keystroke_o	o	n/a
119.531	0.09	239062	keystroke_t	t	n/a
119.7415	0.1345	239483	keystroke_o	o	n/a
120.041	0.075	240082	keystroke_t	t	n/a
120.2215	0.09	240443	keystroke_y	y	n/a
120.461	0.105	240922	keystroke_p	p	n/a
120.6265	0.074	241253	keystroke_e	e	n/a
120.821	0.0595	241642	keystroke_Key.enter	Key.enter	n/a
120.894	7.489	241788	prompt	n/a	against highway wages terminology\n
121.7515	0.1195	243503	keystroke_a	a	n/a
121.976	0.1195	243952	keystroke_g	g	n/a
122.1715	0.089	244343	keystroke_a	a	n/a
122.4255	0.091	244851	keystroke_i	i	n/a
122.6205	0.121	245241	keystroke_n	n	n/a
122.7415	0.119	245483	keystroke_s	s	n/a
122.9965	0.074	245993	keystroke_t	t	n/a
123.1305	0.09	246261	keystroke_Key.space	Key.space	n/a
123.3715	0.0745	246743	keystroke_h	h	n/a
123.5955	0.0605	247191	keystroke_i	i	n/a
123.776	0.09	247552	keystroke_g	g	n/a
123.896	0.09	247792	keystroke_h	h	n/a
124.121	0.06	248242	keystroke_w	w	n/a
124.301	0.09	248602	keystroke_a	a	n/a
124.4955	0.076	248991	keystroke_y	y	n/a
124.6605	0.06	249321	keystroke_Key.space	Key.space	n/a
124.7955	0.075	249591	keystroke_w	w	n/a
124.9905	0.12	249981	keystroke_a	a	n/a
125.261	0.0755	250522	keystroke_g	g	n/a
125.441	0.075	250882	keystroke_e	e	n/a
125.636	0.09	251272	keystroke_s	s	n/a
125.786	0.06	251572	keystroke_Key.space	Key.space	n/a
125.9655	0.106	251931	keystroke_t	t	n/a
126.1755	0.09	252351	keystroke_e	e	n/a
126.3705	0.091	252741	keystroke_r	r	n/a
126.551	0.12	253102	keystroke_m	m	n/a
126.791	0.0895	253582	keystroke_i	i	n/a
126.986	0.105	253972	keystroke_n	n	n/a
127.2255	0.075	254451	keystroke_o	o	n/a
127.4355	0.0905	254871	keystroke_l	l	n/a
127.646	0.075	255292	keystroke_o	o	n/a
127.871	0.075	255742	keystroke_g	g	n/a
128.006	0.105	256012	keystroke_y	y	n/a
128.336	0.045	256672	keystroke_Key.enter	Key.enter	n/a
128.3895	8.153	256779	prompt	n/a	announcements agent jesse questionnaire\n
129.041	0.12	258082	keystroke_a	a	n/a
129.236	0.09	258472	keystroke_n	n	n/a
129.4465	0.089	258893	keystroke_n	n	n/a
129.6855	0.0905	259371	keystroke_o	o	n/a
129.9255	0.09	259851	keystroke_u	u	n/a
130.151	0.1195	260302	keystroke_n	n	n/a
130.3015	0.089	260603	keystroke_c	c	n/a
130.526	0.0455	261052	keystroke_e	e	n/a
130.7055	0.09	261411	keystroke_m	m	n/a
130.9155	0.105	261831	keystroke_e	e	n/a
131.0655	0.135	262131	keystroke_n	n	n/a
131.1855	0.06	262371	keystroke_t	t	n/a
131.3955	0.075	262791	keystroke_s	s	n/a
131.6055	0.075	263211	keystroke_Key.space	Key.space	n/a
131.7405	0.09	263481	keystroke_a	a	n/a
131.996	0.075	263992	keystroke_g	g	n/a
132.2055	0.105	264411	keystroke_e	e	n/a
132.3555	0.09	264711	keystroke_n	n	n/a
132.5055	0.075	265011	keystroke_t	t	n/a
132.6405	0.09	265281	keystroke_Key.space	Key.space	n/a
132.881	0.105	265762	keystroke_j	j	n/a
133.001	0.0905	266002	keystroke_e	e	n/a
133.211	0.075	266422	keystroke_s	s	n/a
133.4355	0.091	266871	keystroke_s	s	n/a
133.691	0.0895	267382	keystroke_e	e	n/a
133.8255	0.09	267651	keystroke_Key.space	Key.space	n/a
134.111	0.1195	268222	keystroke_q	q	n/a
134.3505	0.105	268701	keystroke_u	u	n/a
134.4705	0.09	268941	keystroke_e	e	n/a
134.665	0.106	269330	keystroke_s	s	n/a
134.876	0.075	269752	keystroke_t	t	n/a
135.026	0.1195	270052	keystroke_i	i	n/a
135.2355	0.076	270471	keystroke_o	o	n/a
135.4315	0.104	270863	keystroke_n	n	n/a
135.6555	0.1055	271311	keystroke_n	n	n/a
135.7765	0.1045	271553	keystroke_a	a	n/a
135.9715	0.12	271943	keystroke_i	i	n/a
136.0915	0.075	272183	keystroke_r	r	n/a
136.271	0.0895	272542	keystroke_e	e	n/a
136.466	0.0745	272932	keystroke_Key.enter	Key.enter	n/a
136.547	7.7805	273094	prompt	n/a	combination couldn't penn magazines\n
137.277	0.119	274554	keystroke_c	c	n/a
137.426	0.075	274852	keystroke_o	o	n/a
137.636	0.12	275272	keystroke_m	m	n/a
137.816	0.105	275632	keystroke_b	b	n/a
137.981	0.09	275962	keystroke_i	i	n/a
138.146	0.12	276292	keystroke_n	n	n/a
138.2955	0.09	276591	keystroke_a	a	n/a
138.5355	0.075	277071	keystroke_t	t	n/a
138.7305	0.09	277461	keystroke_i	i	n/a
138.926	0.09	277852	keystroke_o	o	n/a
139.121	0.105	278242	keystroke_n	n	n/a
139.346	0.0895	278692	keystroke_Key.space	Key.space	n/a
139.6165	0.12	279233	keystroke_c	c	n/a
139.796	0.1045	279592	keystroke_o	o	n/a
139.9905	0.0905	279981	keystroke_u	u	n/a
140.201	0.09	280402	keystroke_l	l	n/a
140.456	0.105	280912	keystroke_d	d	n/a
140.576	0.09	281152	keystroke_n	n	n/a
140.816	0.075	281632	keystroke_'	'	n/a
140.9655	0.106	281931	keystroke_t	t	n/a
141.1455	0.075	282291	keystroke_Key.space	Key.space	n/a
141.3555	0.105	282711	keystroke_p	p	n/a
141.5955	0.06	283191	keystroke_e	e	n/a
141.7155	0.106	283431	keystroke_n	n	n/a
141.9705	0.09	283941	keystroke_n	n	n/a
142.1955	0.09	284391	keystroke_Key.space	Key.space	n/a
142.4505	0.1355	284901	keystroke_m	m	n/a
142.646	0.105	285292	keystroke_a	a	n/a
142.856	0.12	285712	keystroke_g	g	n/a
143.066	0.09	286132	keystroke_a	a	n/a
143.2905	0.1205	286581	keystroke_z	z	n/a
143.502	0.0885	287004	keystroke_i	i	n/a
143.696	0.12	287392	keystroke_n	n	n/a
143.831	0.09	287662	keystroke_e	e	n/a
144.056	0.0745	288112	keystroke_s	s	n/a
144.2655	0.06	288531	keystroke_Key.enter	Key.enter	n/a
144.3325	5.605	288665	prompt	n/a	ships discs launch louis\n
145.0155	0.0905	290031	keystroke_s	s	n/a
145.1655	0.1055	290331	keystroke_h	h	n/a
145.3915	0.105	290783	keystroke_i	i	n/a
145.6155	0.076	291231	keystroke_p	p	n/a
145.7515	0.105	291503	keystroke_s	s	n/a
145.9155	0.076	291831	keystroke_Key.space	Key.space	n/a
146.1415	0.09	292283	keystroke_d	d	n/a
146.3065	0.12	292613	keystroke_i	i	n/a
146.4265	0.119	292853	keystroke_s	s	n/a
146.681	0.09	293362	keystroke_c	c	n/a
146.891	0.075	293782	keystroke_s	s	n/a
147.056	0.119	294112	keystroke_Key.space	Key.space	n/a
147.326	0.1045	294652	keystroke_l	l	n/a
147.5355	0.076	295071	keystroke_a	a	n/a
147.7155	0.0905	295431	keystroke_u	u	n/a
147.956	0.09	295912	keystroke_n	n	n/a
148.121	0.1045	296242	keystroke_c	c	n/a
148.2405	0.09	296481	keystroke_h	h	n/a
148.5105	0.015	297021	keystroke_Key.space	Key.space	n/a
148.661	0.0895	297322	keystroke_l	l	n/a
148.9005	0.06	297801	keystroke_o	o	n/a
149.126	0.09	298252	keystroke_u	u	n/a
149.3505	0.105	298701	keystroke_i	i	n/a
149.5455	0.09	299091	keystroke_s	s	n/a
149.8605	0.075	299721	keystroke_Key.enter	Key.enter	n/a
149.9445	7.313	299889	prompt	n/a	cisco mitchell that'd tactics\n
150.611	0.104	301222	keystroke_c	c	n/a
150.8065	0.0885	301613	keystroke_i	i	n/a
150.9265	0.1045	301853	keystroke_s	s	n/a
151.1655	0.12	302331	keystroke_c	c	n/a
151.3455	0.105	302691	keystroke_o	o	n/a
151.4955	0.075	302991	keystroke_Key.space	Key.space	n/a
151.7655	0.1055	303531	keystroke_m	m	n/a
152.006	0.1345	304012	keystroke_i	i	n/a
152.2155	0.075	304431	keystroke_t	t	n/a
152.4555	0.09	304911	keystroke_c	c	n/a
152.6055	0.12	305211	keystroke_h	h	n/a
152.7705	0.06	305541	keystroke_e	e	n/a
152.9805	0.06	305961	keystroke_l	l	n/a
153.1605	0.1055	306321	keystroke_l	l	n/a
153.4005	0.06	306801	keystroke_Key.space	Key.space	n/a
153.596	0.09	307192	keystroke_t	t	n/a
153.806	0.06	307612	keystroke_h	h	n/a
153.986	0.134	307972	keystroke_a	a	n/a
154.21	0.09	308420	keystroke_t	t	n/a
154.42	0.15	308840	keystroke_'	'	n/a
154.9165	0.119	309833	keystroke_d	d	n/a
155.215	0.06	310430	keystroke_Key.space	Key.space	n/a
155.6505	0.06	311301	keystroke_t	t	n/a
155.8455	0.09	311691	keystroke_a	a	n/a
156.0555	0.1205	312111	keystroke_c	c	n/a
156.356	0.075	312712	keystroke_t	t	n/a
156.536	0.12	313072	keystroke_i	i	n/a
156.746	0.09	313492	keystroke_c	c	n/a
156.956	0.06	313912	keystroke_s	s	n/a
157.211	0.045	314422	keystroke_Key.enter	Key.enter	n/a
157.2645	8.918	314529	prompt	n/a	instructors season mounts uzbekistan\n
157.946	0.075	315892	keystroke_i	i	n/a
158.156	0.09	316312	keystroke_n	n	n/a
158.336	0.105	316672	keystroke_s	s	n/a
158.606	0.075	317212	keystroke_t	t	n/a
158.815	0.106	317630	keystroke_r	r	n/a
159.056	0.09	318112	keystroke_u	u	n/a
159.176	0.105	318352	keystroke_c	c	n/a
159.446	0.075	318892	keystroke_t	t	n/a
159.566	0.12	319132	keystroke_o	o	n/a
159.731	0.09	319462	keystroke_r	r	n/a
159.9405	0.06	319881	keystroke_s	s	n/a
160.12	0.0605	320240	keystroke_Key.space	Key.space	n/a
160.2705	0.09	320541	keystroke_s	s	n/a
160.526	0.075	321052	keystroke_e	e	n/a
160.736	0.09	321472	keystroke_a	a	n/a
160.961	0.075	321922	keystroke_s	s	n/a
161.2455	0.09	322491	keystroke_o	o	n/a
161.6505	0.09	323301	keystroke_n	n	n/a
161.9055	0.0755	323811	keystroke_Key.space	Key.space	n/a
162.2055	0.1055	324411	keystroke_m	m	n/a
162.431	0.1045	324862	keystroke_o	o	n/a
162.6855	0.075	325371	keystroke_u	u	n/a
162.8955	0.1355	325791	keystroke_n	n	n/a
163.121	0.075	326242	keystroke_t	t	n/a
163.331	0.075	326662	keystroke_s	s	n/a
163.5105	0.075	327021	keystroke_Key.space	Key.space	n/a
163.781	0.0905	327562	keystroke_u	u	n/a
163.931	0.105	327862	keystroke_z	z	n/a
164.246	0.09	328492	keystroke_b	b	n/a
164.456	0.075	328912	keystroke_e	e	n/a
164.681	0.0895	329362	keystroke_k	k	n/a
164.9055	0.1055	329811	keystroke_i	i	n/a
165.1455	0.135	330291	keystroke_s	s	n/a
165.4915	0.089	330983	keystroke_t	t	n/a
165.656	0.075	331312	keystroke_a	a	n/a
165.866	0.075	331732	keystroke_n	n	n/a
166.1055	0.075	332211	keystroke_Key.enter	Key.enter	n/a
166.1875	7.57	332375	prompt	n/a	directories signals garlic hole\n
166.8255	0.105	333651	keystroke_d	d	n/a
166.976	0.1045	333952	keystroke_i	i	n/a
167.201	0.06	334402	keystroke_r	r	n/a
167.3655	0.076	334731	keystroke_e	e	n/a
167.5455	0.105	335091	keystroke_c	c	n/a
167.8155	0.0905	335631	keystroke_t	t	n/a
168.041	0.1045	336082	keystroke_o	o	n/a
168.2505	0.09	336501	keystroke_r	r	n/a
168.4005	0.1355	336801	keystroke_i	i	n/a
168.551	0.09	337102	keystroke_e	e	n/a
168.791	0.075	337582	keystroke_s	s	n/a
168.9565	0.089	337913	keystroke_Key.space	Key.space	n/a
169.271	0.105	338542	keystroke_s	s	n/a
169.481	0.1195	338962	keystroke_i	i	n/a
169.6755	0.0905	339351	keystroke_g	g	n/a
169.811	0.12	339622	keystroke_n	n	n/a
170.126	0.09	340252	keystroke_a	a	n/a
170.2915	0.089	340583	keystroke_l	l	n/a
170.4405	0.09	340881	keystroke_s	s	n/a
170.5905	0.075	341181	keystroke_Key.space	Key.space	n/a
170.8905	0.105	341781	keystroke_g	g	n/a
171.1605	0.075	342321	keystroke_a	a	n/a
171.3555	0.075	342711	keystroke_r	r	n/a
171.7155	0.12	343431	keystroke_l	l	n/a
171.9555	0.12	343911	keystroke_i	i	n/a
172.196	0.1195	344392	keystroke_c	c	n/a
172.3755	0.075	344751	keystroke_Key.space	Key.space	n/a
172.631	0.105	345262	keystroke_h	h	n/a
172.811	0.09	345622	keystroke_o	o	n/a
173.006	0.1345	346012	keystroke_l	l	n/a
173.2465	0.089	346493	keystroke_e	e	n/a
173.6955	0.06	347391	keystroke_Key.enter	Key.enter	n/a
173.7625	7.481	347525	prompt	n/a	prepare jonathan blackjack laura\n
174.4755	0.1355	348951	keystroke_p	p	n/a
174.686	0.105	349372	keystroke_r	r	n/a
174.896	0.075	349792	keystroke_e	e	n/a
175.0155	0.12	350031	keystroke_p	p	n/a
175.2715	0.074	350543	keystroke_a	a	n/a
175.5405	0.091	351081	keystroke_r	r	n/a
175.7655	0.075	351531	keystroke_e	e	n/a
175.9455	0.075	351891	keystroke_Key.space	Key.space	n/a
176.1855	0.105	352371	keystroke_j	j	n/a
176.3655	0.105	352731	keystroke_o	o	n/a
176.5755	0.105	353151	keystroke_n	n	n/a
176.726	0.1195	353452	keystroke_a	a	n/a
176.9955	0.075	353991	keystroke_t	t	n/a
177.2055	0.105	354411	keystroke_h	h	n/a
177.3555	0.105	354711	keystroke_a	a	n/a
177.5355	0.09	355071	keystroke_n	n	n/a
177.746	0.075	355492	keystroke_Key.space	Key.space	n/a
178.0905	0.105	356181	keystroke_b	b	n/a
178.316	0.135	356632	keystroke_l	l	n/a
178.466	0.105	356932	keystroke_a	a	n/a
178.6915	0.1195	357383	keystroke_c	c	n/a
178.841	0.1195	357682	keystroke_k	k	n/a
179.2315	0.089	358463	keystroke_j	j	n/a
179.4405	0.105	358881	keystroke_a	a	n/a
179.6505	0.1205	359301	keystroke_c	c	n/a
179.741	0.105	359482	keystroke_k	k	n/a
179.966	0.105	359932	keystroke_Key.space	Key.space	n/a
180.1755	0.105	360351	keystroke_l	l	n/a
180.4155	0.105	360831	keystroke_a	a	n/a
180.5805	0.12	361161	keystroke_u	u	n/a
180.7305	0.0905	361461	keystroke_r	r	n/a
180.911	0.105	361822	keystroke_a	a	n/a
181.136	0.105	362272	keystroke_Key.enter	Key.enter	n/a
181.248	6.8195	362496	prompt	n/a	cameroon grant asia intention\n
181.9755	0.15	363951	keystroke_c	c	n/a
182.1555	0.09	364311	keystroke_a	a	n/a
182.2755	0.12	364551	keystroke_m	m	n/a
182.5165	0.089	365033	keystroke_e	e	n/a
182.8455	0.105	365691	keystroke_r	r	n/a
183.0265	0.0745	366053	keystroke_o	o	n/a
183.236	0.075	366472	keystroke_o	o	n/a
183.446	0.076	366892	keystroke_n	n	n/a
183.626	0.075	367252	keystroke_Key.space	Key.space	n/a
183.8055	0.105	367611	keystroke_g	g	n/a
184.0155	0.09	368031	keystroke_r	r	n/a
184.1955	0.0905	368391	keystroke_a	a	n/a
184.376	0.105	368752	keystroke_n	n	n/a
184.526	0.0745	369052	keystroke_t	t	n/a
184.7355	0.0755	369471	keystroke_Key.space	Key.space	n/a
184.991	0.0895	369982	keystroke_a	a	n/a
185.2155	0.0905	370431	keystroke_s	s	n/a
185.426	0.135	370852	keystroke_i	i	n/a
185.6055	0.1055	371211	keystroke_a	a	n/a
185.815	0.0605	371630	keystroke_Key.space	Key.space	n/a
186.0865	0.0895	372173	keystroke_i	i	n/a
186.2955	0.105	372591	keystroke_n	n	n/a
186.4755	0.0905	372951	keystroke_t	t	n/a
186.671	0.105	373342	keystroke_e	e	n/a
186.9705	0.1055	373941	keystroke_n	n	n/a
187.151	0.075	374302	keystroke_t	t	n/a
187.331	0.09	374662	keystroke_i	i	n/a
187.5415	0.0895	375083	keystroke_o	o	n/a
187.721	0.105	375442	keystroke_n	n	n/a
187.991	0.074	375982	keystroke_Key.enter	Key.enter	n/a
188.072	5.5455	376144	prompt	n/a	input seed hotel refers\n
188.651	0.09	377302	keystroke_i	i	n/a
188.861	0.09	377722	keystroke_n	n	n/a
189.071	0.0895	378142	keystroke_p	p	n/a
189.3255	0.105	378651	keystroke_u	u	n/a
189.5205	0.09	379041	keystroke_t	t	n/a
189.626	0.1045	379252	keystroke_Key.space	Key.space	n/a
189.8505	0.1055	379701	keystroke_s	s	n/a
190.1215	0.044	380243	keystroke_e	e	n/a
190.316	0.09	380632	keystroke_e	e	n/a
190.691	0.105	381382	keystroke_d	d	n/a
190.796	0.075	381592	keystroke_Key.space	Key.space	n/a
191.051	0.09	382102	keystroke_h	h	n/a
191.2605	0.0905	382521	keystroke_o	o	n/a
191.411	0.105	382822	keystroke_t	t	n/a
191.621	0.09	383242	keystroke_e	e	n/a
191.7555	0.1205	383511	keystroke_l	l	n/a
191.965	0.0905	383930	keystroke_Key.space	Key.space	n/a
192.206	0.1045	384412	keystroke_r	r	n/a
192.4305	0.09	384861	keystroke_e	e	n/a
192.6405	0.1055	385281	keystroke_f	f	n/a
192.836	0.1045	385672	keystroke_e	e	n/a
193.0455	0.0905	386091	keystroke_r	r	n/a
193.286	0.0595	386572	keystroke_s	s	n/a
193.5255	0.09	387051	keystroke_Key.enter	Key.enter	n/a
193.622	10.001	387244	prompt	n/a	respectively claimed contractor experimental\n
194.321	0.1045	388642	keystroke_r	r	n/a
194.5305	0.06	389061	keystroke_e	e	n/a
194.7105	0.075	389421	keystroke_s	s	n/a
194.9055	0.1355	389811	keystroke_p	p	n/a
195.056	0.075	390112	keystroke_e	e	n/a
195.2505	0.1205	390501	keystroke_c	c	n/a
195.5505	0.09	391101	keystroke_t	t	n/a
195.7455	0.105	391491	keystroke_i	i	n/a
195.9105	0.09	391821	keystroke_v	v	n/a
196.1205	0.06	392241	keystroke_e	e	n/a
196.2855	0.1055	392571	keystroke_l	l	n/a
196.5555	0.0755	393111	keystroke_y	y	n/a
196.7655	0.0445	393531	keystroke_Key.space	Key.space	n/a
196.946	0.1195	393892	keystroke_c	c	n/a
197.081	0.1195	394162	keystroke_l	l	n/a
197.3505	0.0755	394701	keystroke_a	a	n/a
197.546	0.075	395092	keystroke_i	i	n/a
197.7705	0.135	395541	keystroke_m	m	n/a
198.0105	0.0605	396021	keystroke_e	e	n/a
198.22	0.121	396440	keystroke_d	d	n/a
198.4305	0.09	396861	keystroke_Key.space	Key.space	n/a
198.6705	0.1355	397341	keystroke_c	c	n/a
198.8955	0.1055	397791	keystroke_o	o	n/a
199.106	0.089	398212	keystroke_n	n	n/a
199.3615	0.0745	398723	keystroke_t	t	n/a
199.541	0.12	399082	keystroke_r	r	n/a
199.7955	0.075	399591	keystroke_a	a	n/a
199.9755	0.135	399951	keystroke_c	c	n/a
200.3355	0.06	400671	keystroke_t	t	n/a
200.5605	0.09	401121	keystroke_o	o	n/a
200.7705	0.12	401541	keystroke_r	r	n/a
200.935	0.09	401870	keystroke_Key.space	Key.space	n/a
201.1005	0.09	402201	keystroke_e	e	n/a
201.341	0.134	402682	keystroke_x	x	n/a
201.5805	0.075	403161	keystroke_p	p	n/a
201.8205	0.09	403641	keystroke_e	e	n/a
202.0155	0.075	404031	keystroke_r	r	n/a
202.226	0.0895	404452	keystroke_i	i	n/a
202.4515	0.1045	404903	keystroke_m	m	n/a
202.601	0.135	405202	keystroke_e	e	n/a
202.751	0.12	405502	keystroke_n	n	n/a
202.901	0.105	405802	keystroke_t	t	n/a
203.096	0.09	406192	keystroke_a	a	n/a
203.276	0.09	406552	keystroke_l	l	n/a
203.561	0.0605	407122	keystroke_Key.enter	Key.enter	n/a
203.6275	7.03	407255	prompt	n/a	remedy wouldn't whereas known\n
204.3405	0.0755	408681	keystroke_r	r	n/a
204.5205	0.0905	409041	keystroke_e	e	n/a
204.7165	0.104	409433	keystroke_m	m	n/a
204.9555	0.075	409911	keystroke_e	e	n/a
205.165	0.1205	410330	keystroke_d	d	n/a
205.451	0.075	410902	keystroke_y	y	n/a
205.661	0.045	411322	keystroke_Key.space	Key.space	n/a
205.976	0.075	411952	keystroke_w	w	n/a
206.2155	0.09	412431	keystroke_o	o	n/a
206.4255	0.09	412851	keystroke_u	u	n/a
206.636	0.075	413272	keystroke_l	l	n/a
206.8755	0.1055	413751	keystroke_d	d	n/a
206.9955	0.075	413991	keystroke_n	n	n/a
207.2205	0.06	414441	keystroke_'	'	n/a
207.386	0.0895	414772	keystroke_t	t	n/a
207.5655	0.075	415131	keystroke_Key.space	Key.space	n/a
207.791	0.075	415582	keystroke_w	w	n/a
207.9715	0.119	415943	keystroke_h	h	n/a
208.1505	0.12	416301	keystroke_e	e	n/a
208.3905	0.105	416781	keystroke_r	r	n/a
208.601	0.0595	417202	keystroke_e	e	n/a
208.901	0.1045	417802	keystroke_a	a	n/a
209.141	0.0445	418282	keystroke_s	s	n/a
209.3055	0.075	418611	keystroke_Key.space	Key.space	n/a
209.5155	0.09	419031	keystroke_k	k	n/a
209.7405	0.1045	419481	keystroke_n	n	n/a
209.9955	0.0905	419991	keystroke_o	o	n/a
210.116	0.0895	420232	keystroke_w	w	n/a
210.3105	0.075	420621	keystroke_n	n	n/a
210.5655	0.0895	421131	keystroke_Key.enter	Key.enter	n/a
210.6635	5.319	421327	prompt	n/a	move flow notify autos\n
211.4055	0.0905	422811	keystroke_m	m	n/a
211.646	0.0895	423292	keystroke_o	o	n/a
211.9	0.09	423800	keystroke_v	v	n/a
212.1255	0.09	424251	keystroke_e	e	n/a
212.3205	0.1045	424641	keystroke_Key.space	Key.space	n/a
212.576	0.09	425152	keystroke_f	f	n/a
212.711	0.06	425422	keystroke_l	l	n/a
212.921	0.09	425842	keystroke_o	o	n/a
213.071	0.1045	426142	keystroke_w	w	n/a
213.2205	0.075	426441	keystroke_Key.space	Key.space	n/a
213.461	0.075	426922	keystroke_n	n	n/a
213.686	0.1195	427372	keystroke_o	o	n/a
213.9555	0.0595	427911	keystroke_t	t	n/a
214.135	0.1215	428270	keystroke_i	i	n/a
214.301	0.0895	428602	keystroke_f	f	n/a
214.5105	0.075	429021	keystroke_y	y	n/a
214.7055	0.0605	429411	keystroke_Key.space	Key.space	n/a
214.9755	0.1055	429951	keystroke_a	a	n/a
215.186	0.0895	430372	keystroke_u	u	n/a
215.366	0.105	430732	keystroke_t	t	n/a
215.5605	0.105	431121	keystroke_o	o	n/a
215.6955	0.0905	431391	keystroke_s	s	n/a
215.906	0.075	431812	keystroke_Key.enter	Key.enter	n/a
215.987	6.4905	431974	prompt	n/a	dies destination shaved not\n
216.5955	0.135	433191	keystroke_d	d	n/a
216.7455	0.1055	433491	keystroke_i	i	n/a
217.076	0.12	434152	keystroke_e	e	n/a
217.3155	0.0905	434631	keystroke_s	s	n/a
217.526	0.0595	435052	keystroke_Key.space	Key.space	n/a
217.706	0.09	435412	keystroke_d	d	n/a
217.916	0.06	435832	keystroke_e	e	n/a
218.111	0.075	436222	keystroke_s	s	n/a
218.366	0.0605	436732	keystroke_t	t	n/a
218.501	0.105	437002	keystroke_i	i	n/a
218.711	0.12	437422	keystroke_n	n	n/a
218.921	0.105	437842	keystroke_a	a	n/a
219.161	0.045	438322	keystroke_t	t	n/a
219.341	0.1045	438682	keystroke_i	i	n/a
219.5505	0.0905	439101	keystroke_o	o	n/a
219.7455	0.105	439491	keystroke_n	n	n/a
219.9705	0.06	439941	keystroke_Key.space	Key.space	n/a
220.1515	0.0895	440303	keystroke_s	s	n/a
220.421	0.09	440842	keystroke_h	h	n/a
220.586	0.09	441172	keystroke_a	a	n/a
220.8105	0.075	441621	keystroke_v	v	n/a
221.021	0.06	442042	keystroke_e	e	n/a
221.291	0.105	442582	keystroke_d	d	n/a
221.5455	0.06	443091	keystroke_Key.space	Key.space	n/a
221.741	0.1045	443482	keystroke_n	n	n/a
221.9955	0.1355	443991	keystroke_o	o	n/a
222.191	0.09	444382	keystroke_t	t	n/a
222.416	0.06	444832	keystroke_Key.enter	Key.enter	n/a
222.4825	8.305	444965	prompt	n/a	yang commodities perception professor\n
223.346	0.09	446692	keystroke_y	y	n/a
223.541	0.074	447082	keystroke_a	a	n/a
223.706	0.1045	447412	keystroke_n	n	n/a
223.9305	0.075	447861	keystroke_g	g	n/a
224.0355	0.0895	448071	keystroke_Key.space	Key.space	n/a
224.291	0.09	448582	keystroke_c	c	n/a
224.396	0.075	448792	keystroke_o	o	n/a
224.666	0.06	449332	keystroke_m	m	n/a
224.861	0.12	449722	keystroke_m	m	n/a
225.146	0.12	450292	keystroke_o	o	n/a
225.3555	0.12	450711	keystroke_d	d	n/a
225.5205	0.136	451041	keystroke_i	i	n/a
225.7455	0.0755	451491	keystroke_t	t	n/a
225.896	0.135	451792	keystroke_i	i	n/a
226.046	0.09	452092	keystroke_e	e	n/a
226.271	0.0745	452542	keystroke_s	s	n/a
226.4055	0.075	452811	keystroke_Key.space	Key.space	n/a
226.6155	0.1205	453231	keystroke_p	p	n/a
226.841	0.0895	453682	keystroke_e	e	n/a
227.0355	0.075	454071	keystroke_r	r	n/a
227.411	0.12	454822	keystroke_c	c	n/a
227.606	0.1045	455212	keystroke_e	e	n/a
227.7555	0.105	455511	keystroke_p	p	n/a
227.9505	0.075	455901	keystroke_t	t	n/a
228.176	0.1045	456352	keystroke_i	i	n/a
228.386	0.105	456772	keystroke_o	o	n/a
228.596	0.09	457192	keystroke_n	n	n/a
228.776	0.0745	457552	keystroke_Key.space	Key.space	n/a
228.956	0.1195	457912	keystroke_p	p	n/a
229.181	0.0745	458362	keystroke_r	r	n/a
229.331	0.1195	458662	keystroke_o	o	n/a
229.5255	0.1055	459051	keystroke_f	f	n/a
229.7505	0.06	459501	keystroke_e	e	n/a
229.9755	0.0755	459951	keystroke_s	s	n/a
230.201	0.105	460402	keystroke_s	s	n/a
230.3665	0.134	460733	keystroke_o	o	n/a
230.5305	0.09	461061	keystroke_r	r	n/a
230.7405	0.045	461481	keystroke_Key.enter	Key.enter	n/a
230.7915	6.2815	461583	prompt	n/a	inspection home salem worst\n
231.431	0.105	462862	keystroke_i	i	n/a
231.626	0.105	463252	keystroke_n	n	n/a
231.776	0.135	463552	keystroke_s	s	n/a
231.9855	0.1055	463971	keystroke_p	p	n/a
232.1055	0.1055	464211	keystroke_e	e	n/a
232.3605	0.135	464721	keystroke_c	c	n/a
232.6605	0.06	465321	keystroke_t	t	n/a
232.8405	0.105	465681	keystroke_i	i	n/a
233.0665	0.089	466133	keystroke_o	o	n/a
233.2905	0.0905	466581	keystroke_n	n	n/a
233.531	0.0895	467062	keystroke_Key.space	Key.space	n/a
233.815	0.1055	467630	keystroke_h	h	n/a
234.0255	0.106	468051	keystroke_o	o	n/a
234.2505	0.121	468501	keystroke_m	m	n/a
234.4155	0.105	468831	keystroke_e	e	n/a
234.5505	0.075	469101	keystroke_Key.space	Key.space	n/a
234.7755	0.09	469551	keystroke_s	s	n/a
234.971	0.1195	469942	keystroke_a	a	n/a
235.1355	0.105	470271	keystroke_l	l	n/a
235.3605	0.075	470721	keystroke_e	e	n/a
235.4955	0.09	470991	keystroke_m	m	n/a
235.7205	0.105	471441	keystroke_Key.space	Key.space	n/a
235.9305	0.12	471861	keystroke_w	w	n/a
236.1255	0.12	472251	keystroke_o	o	n/a
236.3055	0.09	472611	keystroke_r	r	n/a
236.5455	0.0905	473091	keystroke_s	s	n/a
236.771	0.075	473542	keystroke_t	t	n/a
237.011	0.06	474022	keystroke_Key.enter	Key.enter	n/a
237.08	9.1575	474160	prompt	n/a	rated appendix detective compilation\n
237.941	0.06	475882	keystroke_r	r	n/a
238.166	0.09	476332	keystroke_a	a	n/a
238.421	0.0745	476842	keystroke_t	t	n/a
238.6455	0.0605	477291	keystroke_e	e	n/a
238.856	0.105	477712	keystroke_d	d	n/a
239.05	0.09	478100	keystroke_Key.space	Key.space	n/a
239.261	0.1195	478522	keystroke_a	a	n/a
239.4705	0.1055	478941	keystroke_p	p	n/a
239.696	0.1045	479392	keystroke_p	p	n/a
239.9655	0.075	479931	keystroke_e	e	n/a
240.0705	0.12	480141	keystroke_n	n	n/a
240.3255	0.075	480651	keystroke_d	d	n/a
240.5055	0.12	481011	keystroke_i	i	n/a
240.6555	0.105	481311	keystroke_x	x	n/a
240.821	0.09	481642	keystroke_Key.space	Key.space	n/a
241.0905	0.105	482181	keystroke_d	d	n/a
241.3455	0.12	482691	keystroke_e	e	n/a
241.616	0.0745	483232	keystroke_t	t	n/a
241.7955	0.105	483591	keystroke_e	e	n/a
242.0355	0.1505	484071	keystroke_c	c	n/a
242.351	0.06	484702	keystroke_t	t	n/a
242.501	0.1495	485002	keystroke_i	i	n/a
242.681	0.075	485362	keystroke_v	v	n/a
242.906	0.09	485812	keystroke_e	e	n/a
243.131	0.075	486262	keystroke_Key.space	Key.space	n/a
243.296	0.06	486592	keystroke_c	c	n/a
243.521	0.135	487042	keystroke_o	o	n/a
243.8065	0.119	487613	keystroke_m	m	n/a
244.031	0.09	488062	keystroke_p	p	n/a
244.2855	0.105	488571	keystroke_i	i	n/a
244.736	0.12	489472	keystroke_l	l	n/a
244.976	0.0905	489952	keystroke_a	a	n/a
245.2155	0.076	490431	keystroke_t	t	n/a
245.456	0.105	490912	keystroke_i	i	n/a
245.696	0.0895	491392	keystroke_o	o	n/a
245.9055	0.106	491811	keystroke_n	n	n/a
246.2055	0.03	492411	keystroke_Key.enter	Key.enter	n/a
246.246	7.7615	492492	prompt	n/a	dressing shaft calculations fires\n
246.8805	0.105	493761	keystroke_d	d	n/a
247.1205	0.12	494241	keystroke_e	e	n/a
247.5105	0.0755	495021	keystroke_Key.backspace	Key.backspace	n/a
247.766	0.09	495532	keystroke_r	r	n/a
247.9605	0.061	495921	keystroke_e	e	n/a
248.1715	0.045	496343	keystroke_s	s	n/a
248.4115	0.09	496823	keystroke_s	s	n/a
248.6205	0.075	497241	keystroke_i	i	n/a
248.831	0.105	497662	keystroke_n	n	n/a
249.026	0.09	498052	keystroke_g	g	n/a
249.236	0.09	498472	keystroke_Key.space	Key.space	n/a
249.401	0.12	498802	keystroke_s	s	n/a
249.566	0.105	499132	keystroke_h	h	n/a
249.791	0.09	499582	keystroke_a	a	n/a
250.001	0.0905	500002	keystroke_f	f	n/a
250.271	0.075	500542	keystroke_t	t	n/a
250.391	0.1205	500782	keystroke_Key.space	Key.space	n/a
250.6455	0.09	501291	keystroke_c	c	n/a
250.8555	0.1055	501711	keystroke_a	a	n/a
251.036	0.1195	502072	keystroke_l	l	n/a
251.1715	0.1195	502343	keystroke_c	c	n/a
251.351	0.1195	502702	keystroke_u	u	n/a
251.5615	0.135	503123	keystroke_l	l	n/a
251.7115	0.105	503423	keystroke_a	a	n/a
251.9505	0.061	503901	keystroke_t	t	n/a
252.0865	0.12	504173	keystroke_i	i	n/a
252.3105	0.0905	504621	keystroke_o	o	n/a
252.491	0.105	504982	keystroke_n	n	n/a
252.641	0.1355	505282	keystroke_s	s	n/a
252.7905	0.075	505581	keystroke_Key.space	Key.space	n/a
253.0305	0.09	506061	keystroke_f	f	n/a
253.1355	0.1355	506271	keystroke_i	i	n/a
253.2855	0.1055	506571	keystroke_r	r	n/a
253.5255	0.0755	507051	keystroke_e	e	n/a
253.721	0.075	507442	keystroke_s	s	n/a
253.931	0.075	507862	keystroke_Key.enter	Key.enter	n/a
254.0175	10.04	508035	prompt	n/a	present citation interactive entertaining\n
254.621	0.12	509242	keystroke_p	p	n/a
254.816	0.105	509632	keystroke_r	r	n/a
255.041	0.045	510082	keystroke_e	e	n/a
255.2205	0.09	510441	keystroke_s	s	n/a
255.4305	0.12	510861	keystroke_e	e	n/a
255.5955	0.1055	511191	keystroke_n	n	n/a
255.776	0.06	511552	keystroke_t	t	n/a
255.9405	0.0755	511881	keystroke_Key.space	Key.space	n/a
256.1205	0.1505	512241	keystroke_c	c	n/a
256.3155	0.12	512631	keystroke_i	i	n/a
256.5855	0.06	513171	keystroke_t	t	n/a
256.7955	0.105	513591	keystroke_a	a	n/a
257.0355	0.045	514071	keystroke_t	t	n/a
257.2455	0.075	514491	keystroke_i	i	n/a
257.486	0.09	514972	keystroke_o	o	n/a
257.7105	0.075	515421	keystroke_n	n	n/a
257.906	0.105	515812	keystroke_Key.space	Key.space	n/a
258.131	0.1205	516262	keystroke_i	i	n/a
258.3715	0.1045	516743	keystroke_n	n	n/a
258.656	0.09	517312	keystroke_t	t	n/a
258.8815	0.09	517763	keystroke_e	e	n/a
259.0765	0.09	518153	keystroke_r	r	n/a
259.2415	0.104	518483	keystroke_a	a	n/a
259.4355	0.1205	518871	keystroke_c	c	n/a
259.721	0.06	519442	keystroke_t	t	n/a
259.901	0.105	519802	keystroke_i	i	n/a
260.126	0.165	520252	keystroke_c	c	n/a
260.501	0.075	521002	keystroke_Key.backspace	Key.backspace	n/a
260.741	0.1045	521482	keystroke_v	v	n/a
261.0105	0.09	522021	keystroke_e	e	n/a
261.2055	0.0905	522411	keystroke_Key.space	Key.space	n/a
261.491	0.12	522982	keystroke_e	e	n/a
261.626	0.105	523252	keystroke_n	n	n/a
261.776	0.09	523552	keystroke_t	t	n/a
262.0155	0.09	524031	keystroke_e	e	n/a
262.241	0.0755	524482	keystroke_r	r	n/a
262.4655	0.09	524931	keystroke_t	t	n/a
262.6915	0.09	525383	keystroke_a	a	n/a
262.9315	0.105	525863	keystroke_i	i	n/a
263.1415	0.1045	526283	keystroke_n	n	n/a
263.396	0.09	526792	keystroke_i	i	n/a
263.6055	0.1205	527211	keystroke_n	n	n/a
263.7865	0.0895	527573	keystroke_g	g	n/a
263.996	0.06	527992	keystroke_Key.enter	Key.enter	n/a
264.0625	5.455	528125	prompt	n/a	chan clearing orange know\n
264.791	0.1345	529582	keystroke_c	c	n/a
264.986	0.075	529972	keystroke_h	h	n/a
265.151	0.1055	530302	keystroke_a	a	n/a
265.2865	0.105	530573	keystroke_n	n	n/a
265.496	0.09	530992	keystroke_Key.space	Key.space	n/a
265.661	0.12	531322	keystroke_c	c	n/a
265.8405	0.105	531681	keystroke_l	l	n/a
265.9905	0.12	531981	keystroke_e	e	n/a
266.216	0.105	532432	keystroke_a	a	n/a
266.396	0.1055	532792	keystroke_r	r	n/a
266.576	0.09	533152	keystroke_i	i	n/a
266.786	0.105	533572	keystroke_n	n	n/a
266.936	0.09	533872	keystroke_g	g	n/a
267.071	0.09	534142	keystroke_Key.space	Key.space	n/a
267.2965	0.075	534593	keystroke_o	o	n/a
267.431	0.12	534862	keystroke_r	r	n/a
267.656	0.09	535312	keystroke_a	a	n/a
267.881	0.12	535762	keystroke_n	n	n/a
268.0615	0.0895	536123	keystroke_g	g	n/a
268.2565	0.089	536513	keystroke_e	e	n/a
268.406	0.1045	536812	keystroke_Key.space	Key.space	n/a
268.6455	0.0905	537291	keystroke_k	k	n/a
268.886	0.105	537772	keystroke_n	n	n/a
269.096	0.12	538192	keystroke_o	o	n/a
269.246	0.075	538492	keystroke_w	w	n/a
269.441	0.075	538882	keystroke_Key.enter	Key.enter	n/a
269.5225	7.0745	539045	prompt	n/a	elderly sports manual invention\n
270.176	0.075	540352	keystroke_e	e	n/a
270.3865	0.104	540773	keystroke_l	l	n/a
270.4755	0.075	540951	keystroke_d	d	n/a
270.716	0.0905	541432	keystroke_e	e	n/a
270.941	0.0905	541882	keystroke_r	r	n/a
271.121	0.09	542242	keystroke_l	l	n/a
271.3465	0.105	542693	keystroke_y	y	n/a
271.541	0.0905	543082	keystroke_Key.space	Key.space	n/a
271.736	0.0895	543472	keystroke_s	s	n/a
271.8405	0.105	543681	keystroke_p	p	n/a
272.066	0.105	544132	keystroke_o	o	n/a
272.336	0.09	544672	keystroke_r	r	n/a
272.5765	0.0745	545153	keystroke_t	t	n/a
272.786	0.06	545572	keystroke_s	s	n/a
272.891	0.075	545782	keystroke_Key.space	Key.space	n/a
273.1615	0.12	546323	keystroke_m	m	n/a
273.4165	0.045	546833	keystroke_a	a	n/a
273.5205	0.105	547041	keystroke_n	n	n/a
273.7915	0.0895	547583	keystroke_u	u	n/a
274.031	0.09	548062	keystroke_a	a	n/a
274.196	0.09	548392	keystroke_l	l	n/a
274.451	0.075	548902	keystroke_Key.space	Key.space	n/a
274.707	0.104	549414	keystroke_i	i	n/a
274.901	0.105	549802	keystroke_n	n	n/a
275.081	0.075	550162	keystroke_v	v	n/a
275.261	0.105	550522	keystroke_e	e	n/a
275.4415	0.0895	550883	keystroke_n	n	n/a
275.606	0.075	551212	keystroke_t	t	n/a
275.8155	0.1055	551631	keystroke_i	i	n/a
276.071	0.075	552142	keystroke_o	o	n/a
276.266	0.045	552532	keystroke_n	n	n/a
276.521	0.075	553042	keystroke_Key.enter	Key.enter	n/a
276.6015	7.526	553203	prompt	n/a	magnitude blackjack improving reid\n
277.256	0.12	554512	keystroke_m	m	n/a
277.496	0.105	554992	keystroke_a	a	n/a
277.781	0.105	555562	keystroke_g	g	n/a
278.006	0.105	556012	keystroke_n	n	n/a
278.231	0.105	556462	keystroke_i	i	n/a
278.456	0.0895	556912	keystroke_t	t	n/a
278.6055	0.135	557211	keystroke_u	u	n/a
278.7255	0.1055	557451	keystroke_d	d	n/a
278.9505	0.105	557901	keystroke_e	e	n/a
279.101	0.09	558202	keystroke_Key.space	Key.space	n/a
279.266	0.09	558532	keystroke_b	b	n/a
279.476	0.12	558952	keystroke_l	l	n/a
279.611	0.09	559222	keystroke_a	a	n/a
279.806	0.12	559612	keystroke_c	c	n/a
279.941	0.12	559882	keystroke_k	k	n/a
280.1955	0.105	560391	keystroke_j	j	n/a
280.3605	0.09	560721	keystroke_a	a	n/a
280.5855	0.12	561171	keystroke_c	c	n/a
280.7205	0.105	561441	keystroke_k	k	n/a
280.9455	0.09	561891	keystroke_Key.space	Key.space	n/a
281.2005	0.075	562401	keystroke_i	i	n/a
281.411	0.12	562822	keystroke_m	m	n/a
281.65	0.106	563300	keystroke_p	p	n/a
281.801	0.075	563602	keystroke_r	r	n/a
282.011	0.105	564022	keystroke_o	o	n/a
282.2055	0.0905	564411	keystroke_v	v	n/a
282.326	0.105	564652	keystroke_i	i	n/a
282.551	0.09	565102	keystroke_n	n	n/a
282.8355	0.075	565671	keystroke_g	g	n/a
283.1055	0.09	566211	keystroke_Key.space	Key.space	n/a
283.3455	0.09	566691	keystroke_r	r	n/a
283.5405	0.06	567081	keystroke_e	e	n/a
283.706	0.105	567412	keystroke_i	i	n/a
283.856	0.0745	567712	keystroke_d	d	n/a
284.0655	0.06	568131	keystroke_Key.enter	Key.enter	n/a
284.1315	8.096	568263	prompt	n/a	bandwidth marvel postcards incidents\n
284.8465	0.075	569693	keystroke_b	b	n/a
284.9965	0.105	569993	keystroke_a	a	n/a
285.2055	0.09	570411	keystroke_n	n	n/a
285.3555	0.105	570711	keystroke_d	d	n/a
285.6855	0.0605	571371	keystroke_w	w	n/a
285.851	0.12	571702	keystroke_i	i	n/a
285.956	0.105	571912	keystroke_d	d	n/a
286.196	0.089	572392	keystroke_t	t	n/a
286.3455	0.06	572691	keystroke_h	h	n/a
286.5255	0.075	573051	keystroke_Key.space	Key.space	n/a
286.7955	0.075	573591	keystroke_m	m	n/a
287.021	0.09	574042	keystroke_a	a	n/a
287.2005	0.09	574401	keystroke_r	r	n/a
287.4855	0.0755	574971	keystroke_v	v	n/a
287.6965	0.0745	575393	keystroke_e	e	n/a
287.846	0.09	575692	keystroke_l	l	n/a
288.041	0.105	576082	keystroke_Key.space	Key.space	n/a
288.416	0.075	576832	keystroke_p	p	n/a
288.626	0.0755	577252	keystroke_o	o	n/a
288.7605	0.076	577521	keystroke_s	s	n/a
288.986	0.09	577972	keystroke_t	t	n/a
289.2865	0.1045	578573	keystroke_c	c	n/a
289.496	0.1195	578992	keystroke_a	a	n/a
289.7055	0.09	579411	keystroke_r	r	n/a
289.9455	0.1205	579891	keystroke_d	d	n/a
290.1705	0.076	580341	keystroke_s	s	n/a
290.3355	0.121	580671	keystroke_Key.space	Key.space	n/a
290.5905	0.09	581181	keystroke_i	i	n/a
290.786	0.1045	581572	keystroke_n	n	n/a
290.921	0.105	581842	keystroke_c	c	n/a
291.1005	0.09	582201	keystroke_i	i	n/a
291.236	0.09	582472	keystroke_d	d	n/a
291.431	0.12	582862	keystroke_e	e	n/a
291.611	0.0905	583222	keystroke_n	n	n/a
291.761	0.09	583522	keystroke_t	t	n/a
291.941	0.06	583882	keystroke_s	s	n/a
292.151	0.075	584302	keystroke_Key.enter	Key.enter	n/a
292.2325	7.4805	584465	prompt	n/a	peas features cartoon commentary\n
292.901	0.1045	585802	keystroke_p	p	n/a
293.1255	0.046	586251	keystroke_e	e	n/a
293.3055	0.091	586611	keystroke_a	a	n/a
293.5305	0.075	587061	keystroke_s	s	n/a
293.7405	0.0905	587481	keystroke_Key.space	Key.space	n/a
293.906	0.105	587812	keystroke_f	f	n/a
294.1315	0.075	588263	keystroke_e	e	n/a
294.3265	0.104	588653	keystroke_a	a	n/a
294.5665	0.0745	589133	keystroke_t	t	n/a
294.731	0.12	589462	keystroke_u	u	n/a
294.941	0.09	589882	keystroke_r	r	n/a
295.166	0.0605	590332	keystroke_e	e	n/a
295.346	0.075	590692	keystroke_s	s	n/a
295.5105	0.06	591021	keystroke_Key.space	Key.space	n/a
295.706	0.105	591412	keystroke_c	c	n/a
295.931	0.0755	591862	keystroke_a	a	n/a
296.1405	0.09	592281	keystroke_r	r	n/a
296.4715	0.0745	592943	keystroke_t	t	n/a
296.651	0.06	593302	keystroke_o	o	n/a
296.8605	0.0755	593721	keystroke_o	o	n/a
297.0555	0.091	594111	keystroke_n	n	n/a
297.2365	0.074	594473	keystroke_Key.space	Key.space	n/a
297.401	0.12	594802	keystroke_c	c	n/a
297.611	0.0605	595222	keystroke_o	o	n/a
297.8065	0.089	595613	keystroke_m	m	n/a
298.016	0.12	596032	keystroke_m	m	n/a
298.301	0.06	596602	keystroke_e	e	n/a
298.391	0.0895	596782	keystroke_n	n	n/a
298.7955	0.0755	597591	keystroke_t	t	n/a
299.006	0.1045	598012	keystroke_a	a	n/a
299.2155	0.106	598431	keystroke_r	r	n/a
299.381	0.105	598762	keystroke_y	y	n/a
299.6505	0.0605	599301	keystroke_Key.enter	Key.enter	n/a
299.7185	8.8445	599437	prompt	n/a	directly portions compromise efficiency\n
300.3705	0.105	600741	keystroke_d	d	n/a
300.536	0.09	601072	keystroke_i	i	n/a
300.701	0.105	601402	keystroke_r	r	n/a
300.911	0.075	601822	keystroke_e	e	n/a
301.106	0.105	602212	keystroke_c	c	n/a
301.3455	0.06	602691	keystroke_t	t	n/a
301.5105	0.091	603021	keystroke_l	l	n/a
301.7955	0.075	603591	keystroke_y	y	n/a
301.9305	0.075	603861	keystroke_Key.space	Key.space	n/a
302.126	0.1055	604252	keystroke_p	p	n/a
302.3805	0.09	604761	keystroke_o	o	n/a
302.5155	0.075	605031	keystroke_r	r	n/a
302.7105	0.09	605421	keystroke_t	t	n/a
302.9055	0.075	605811	keystroke_i	i	n/a
303.116	0.09	606232	keystroke_o	o	n/a
303.356	0.1045	606712	keystroke_n	n	n/a
303.581	0.09	607162	keystroke_s	s	n/a
303.776	0.06	607552	keystroke_Key.space	Key.space	n/a
303.9405	0.105	607881	keystroke_c	c	n/a
304.226	0.0895	608452	keystroke_o	o	n/a
304.4805	0.1055	608961	keystroke_m	m	n/a
304.706	0.1195	609412	keystroke_p	p	n/a
304.8855	0.075	609771	keystroke_r	r	n/a
305.0505	0.0755	610101	keystroke_o	o	n/a
305.2615	0.104	610523	keystroke_m	m	n/a
305.5005	0.105	611001	keystroke_i	i	n/a
305.681	0.105	611362	keystroke_s	s	n/a
305.9205	0.105	611841	keystroke_e	e	n/a
306.1455	0.075	612291	keystroke_Key.space	Key.space	n/a
306.6105	0.105	613221	keystroke_e	e	n/a
306.866	0.09	613732	keystroke_f	f	n/a
307.076	0.09	614152	keystroke_f	f	n/a
307.301	0.1195	614602	keystroke_i	i	n/a
307.4355	0.091	614871	keystroke_c	c	n/a
307.601	0.0905	615202	keystroke_i	i	n/a
307.706	0.12	615412	keystroke_e	e	n/a
307.9455	0.106	615891	keystroke_n	n	n/a
308.0805	0.121	616161	keystroke_c	c	n/a
308.2615	0.075	616523	keystroke_y	y	n/a
308.486	0.075	616972	keystroke_Key.enter	Key.enter	n/a
308.567	6.206	617134	prompt	n/a	portraits rail ease romantic\n
309.2215	0.0895	618443	keystroke_p	p	n/a
309.416	0.12	618832	keystroke_o	o	n/a
309.537	0.089	619074	keystroke_r	r	n/a
309.7605	0.0755	619521	keystroke_t	t	n/a
309.941	0.105	619882	keystroke_r	r	n/a
310.1655	0.09	620331	keystroke_a	a	n/a
310.3755	0.1205	620751	keystroke_i	i	n/a
310.481	0.09	620962	keystroke_t	t	n/a
310.6755	0.076	621351	keystroke_s	s	n/a
310.8705	0.06	621741	keystroke_Key.space	Key.space	n/a
311.066	0.1045	622132	keystroke_r	r	n/a
311.261	0.1055	622522	keystroke_a	a	n/a
311.411	0.12	622822	keystroke_i	i	n/a
311.636	0.1045	623272	keystroke_l	l	n/a
311.831	0.09	623662	keystroke_Key.space	Key.space	n/a
312.041	0.09	624082	keystroke_e	e	n/a
312.2655	0.091	624531	keystroke_a	a	n/a
312.476	0.09	624952	keystroke_s	s	n/a
312.686	0.12	625372	keystroke_e	e	n/a
312.836	0.105	625672	keystroke_Key.space	Key.space	n/a
313.076	0.09	626152	keystroke_r	r	n/a
313.241	0.09	626482	keystroke_o	o	n/a
313.4665	0.1345	626933	keystroke_m	m	n/a
313.646	0.1205	627292	keystroke_a	a	n/a
313.991	0.105	627982	keystroke_n	n	n/a
314.0655	0.0905	628131	keystroke_t	t	n/a
314.261	0.12	628522	keystroke_i	i	n/a
314.441	0.1205	628882	keystroke_c	c	n/a
314.6955	0.0755	629391	keystroke_Key.enter	Key.enter	n/a
314.778	6.52	629556	prompt	n/a	field lived beats stationery\n
315.416	0.135	630832	keystroke_f	f	n/a
315.641	0.1205	631282	keystroke_i	i	n/a
315.8655	0.061	631731	keystroke_e	e	n/a
315.9855	0.1205	631971	keystroke_l	l	n/a
316.226	0.1045	632452	keystroke_d	d	n/a
316.3905	0.0755	632781	keystroke_Key.space	Key.space	n/a
316.631	0.09	633262	keystroke_l	l	n/a
316.871	0.12	633742	keystroke_i	i	n/a
317.096	0.075	634192	keystroke_v	v	n/a
317.3055	0.075	634611	keystroke_e	e	n/a
317.546	0.12	635092	keystroke_d	d	n/a
317.726	0.075	635452	keystroke_Key.space	Key.space	n/a
317.906	0.0745	635812	keystroke_b	b	n/a
318.1315	0.0745	636263	keystroke_e	e	n/a
318.3565	0.1195	636713	keystroke_a	a	n/a
318.626	0.075	637252	keystroke_t	t	n/a
318.8655	0.075	637731	keystroke_s	s	n/a
319.061	0.075	638122	keystroke_Key.space	Key.space	n/a
319.2855	0.12	638571	keystroke_s	s	n/a
319.556	0.045	639112	keystroke_t	t	n/a
319.7355	0.12	639471	keystroke_a	a	n/a
319.9005	0.09	639801	keystroke_t	t	n/a
320.0955	0.0755	640191	keystroke_i	i	n/a
320.291	0.0755	640582	keystroke_o	o	n/a
320.471	0.1045	640942	keystroke_n	n	n/a
320.6815	0.075	641363	keystroke_e	e	n/a
320.861	0.105	641722	keystroke_r	r	n/a
320.996	0.0745	641992	keystroke_y	y	n/a
321.236	0.06	642472	keystroke_Key.enter	Key.enter	n/a
321.3015	6.8515	642603	prompt	n/a	dust cement flooring breakfast\n
322.0155	0.1055	644031	keystroke_d	d	n/a
322.166	0.0745	644332	keystroke_u	u	n/a
322.3605	0.0905	644721	keystroke_s	s	n/a
322.571	0.0755	645142	keystroke_t	t	n/a
322.781	0.015	645562	keystroke_Key.space	Key.space	n/a
322.9165	0.105	645833	keystroke_c	c	n/a
323.1555	0.075	646311	keystroke_e	e	n/a
323.2905	0.12	646581	keystroke_m	m	n/a
323.486	0.12	646972	keystroke_e	e	n/a
323.726	0.0755	647452	keystroke_n	n	n/a
323.876	0.09	647752	keystroke_t	t	n/a
324.0405	0.06	648081	keystroke_Key.space	Key.space	n/a
324.2055	0.1055	648411	keystroke_f	f	n/a
324.3555	0.0905	648711	keystroke_l	l	n/a
324.6405	0.0755	649281	keystroke_o	o	n/a
324.866	0.1045	649732	keystroke_o	o	n/a
325.046	0.105	650092	keystroke_r	r	n/a
325.226	0.105	650452	keystroke_i	i	n/a
325.436	0.105	650872	keystroke_n	n	n/a
325.586	0.06	651172	keystroke_g	g	n/a
325.811	0.105	651622	keystroke_Key.space	Key.space	n/a
326.066	0.06	652132	keystroke_b	b	n/a
326.3805	0.09	652761	keystroke_r	r	n/a
326.5905	0.09	653181	keystroke_e	e	n/a
326.786	0.12	653572	keystroke_a	a	n/a
327.041	0.12	654082	keystroke_k	k	n/a
327.2515	0.0895	654503	keystroke_f	f	n/a
327.4465	0.12	654893	keystroke_a	a	n/a
327.671	0.09	655342	keystroke_s	s	n/a
327.881	0.0745	655762	keystroke_t	t	n/a
328.0765	0.075	656153	keystroke_Key.enter	Key.enter	n/a
328.1585	7.404	656317	prompt	n/a	terrain brussels faster fireplace\n
328.811	0.09	657622	keystroke_t	t	n/a
329.021	0.09	658042	keystroke_e	e	n/a
329.216	0.0755	658432	keystroke_r	r	n/a
329.426	0.105	658852	keystroke_r	r	n/a
329.652	0.089	659304	keystroke_a	a	n/a
329.816	0.105	659632	keystroke_i	i	n/a
330.026	0.09	660052	keystroke_n	n	n/a
330.236	0.075	660472	keystroke_Key.space	Key.space	n/a
330.4605	0.106	660921	keystroke_b	b	n/a
330.7015	0.09	661403	keystroke_r	r	n/a
330.8955	0.106	661791	keystroke_u	u	n/a
331.0765	0.09	662153	keystroke_s	s	n/a
331.2705	0.106	662541	keystroke_s	s	n/a
331.526	0.0455	663052	keystroke_e	e	n/a
331.6605	0.105	663321	keystroke_l	l	n/a
331.7805	0.105	663561	keystroke_s	s	n/a
331.9605	0.075	663921	keystroke_Key.space	Key.space	n/a
332.1855	0.09	664371	keystroke_f	f	n/a
332.4105	0.09	664821	keystroke_a	a	n/a
332.636	0.0755	665272	keystroke_s	s	n/a
332.861	0.06	665722	keystroke_t	t	n/a
333.056	0.09	666112	keystroke_e	e	n/a
333.251	0.0895	666502	keystroke_r	r	n/a
333.4915	0.059	666983	keystroke_Key.space	Key.space	n/a
333.761	0.1055	667522	keystroke_f	f	n/a
333.911	0.1355	667822	keystroke_i	i	n/a
334.0315	0.1045	668063	keystroke_r	r	n/a
334.241	0.12	668482	keystroke_e	e	n/a
334.541	0.105	669082	keystroke_p	p	n/a
334.736	0.15	669472	keystroke_l	l	n/a
334.856	0.12	669712	keystroke_a	a	n/a
335.081	0.09	670162	keystroke_c	c	n/a
335.306	0.075	670612	keystroke_e	e	n/a
335.4855	0.075	670971	keystroke_Key.enter	Key.enter	n/a
335.566	6.7175	671132	prompt	n/a	introduce eating decided deep\n
336.206	0.105	672412	keystroke_i	i	n/a
336.431	0.1355	672862	keystroke_n	n	n/a
336.671	0.06	673342	keystroke_t	t	n/a
336.836	0.09	673672	keystroke_r	r	n/a
337.046	0.09	674092	keystroke_o	o	n/a
337.301	0.12	674602	keystroke_d	d	n/a
337.391	0.12	674782	keystroke_u	u	n/a
337.721	0.1345	675442	keystroke_c	c	n/a
337.9615	0.089	675923	keystroke_e	e	n/a
338.1255	0.105	676251	keystroke_Key.space	Key.space	n/a
338.3665	0.09	676733	keystroke_e	e	n/a
338.5305	0.1355	677061	keystroke_a	a	n/a
338.771	0.0895	677542	keystroke_t	t	n/a
338.9805	0.105	677961	keystroke_i	i	n/a
339.1755	0.09	678351	keystroke_n	n	n/a
339.3405	0.06	678681	keystroke_g	g	n/a
339.4755	0.09	678951	keystroke_Key.space	Key.space	n/a
339.6405	0.09	679281	keystroke_d	d	n/a
339.8365	0.089	679673	keystroke_e	e	n/a
340.076	0.1205	680152	keystroke_c	c	n/a
340.2565	0.12	680513	keystroke_i	i	n/a
340.3915	0.075	680783	keystroke_d	d	n/a
340.6315	0.0745	681263	keystroke_e	e	n/a
340.9305	0.0905	681861	keystroke_d	d	n/a
341.0505	0.0755	682101	keystroke_Key.space	Key.space	n/a
341.276	0.0745	682552	keystroke_d	d	n/a
341.516	0.045	683032	keystroke_e	e	n/a
341.756	0.09	683512	keystroke_e	e	n/a
341.891	0.105	683782	keystroke_p	p	n/a
342.206	0.075	684412	keystroke_Key.enter	Key.enter	n/a
342.29	9.3975	684580	prompt	n/a	screensavers intranet overcome unsubscribe\n
342.956	0.075	685912	keystroke_s	s	n/a
343.271	0.105	686542	keystroke_c	c	n/a
343.5265	0.0895	687053	keystroke_r	r	n/a
343.721	0.075	687442	keystroke_e	e	n/a
343.9755	0.09	687951	keystroke_e	e	n/a
344.1415	0.09	688283	keystroke_n	n	n/a
344.351	0.0895	688702	keystroke_s	s	n/a
344.5465	0.089	689093	keystroke_a	a	n/a
344.7405	0.0905	689481	keystroke_v	v	n/a
344.966	0.105	689932	keystroke_e	e	n/a
345.176	0.09	690352	keystroke_r	r	n/a
345.356	0.0905	690712	keystroke_s	s	n/a
345.5205	0.075	691041	keystroke_Key.space	Key.space	n/a
345.761	0.075	691522	keystroke_i	i	n/a
345.941	0.135	691882	keystroke_n	n	n/a
346.1365	0.075	692273	keystroke_t	t	n/a
346.3155	0.1055	692631	keystroke_r	r	n/a
346.481	0.105	692962	keystroke_a	a	n/a
346.706	0.1195	693412	keystroke_n	n	n/a
346.8405	0.105	693681	keystroke_e	e	n/a
347.051	0.0755	694102	keystroke_t	t	n/a
347.2315	0.075	694463	keystroke_Key.space	Key.space	n/a
347.4715	0.089	694943	keystroke_o	o	n/a
347.6505	0.06	695301	keystroke_v	v	n/a
347.8615	0.089	695723	keystroke_e	e	n/a
348.0715	0.059	696143	keystroke_r	r	n/a
348.2805	0.1055	696561	keystroke_c	c	n/a
348.4005	0.0905	696801	keystroke_o	o	n/a
348.611	0.135	697222	keystroke_m	m	n/a
348.806	0.09	697612	keystroke_e	e	n/a
348.971	0.075	697942	keystroke_Key.space	Key.space	n/a
349.241	0.0905	698482	keystroke_u	u	n/a
349.466	0.1055	698932	keystroke_n	n	n/a
349.676	0.09	699352	keystroke_s	s	n/a
349.946	0.09	699892	keystroke_u	u	n/a
350.081	0.0605	700162	keystroke_b	b	n/a
350.456	0.105	700912	keystroke_s	s	n/a
350.651	0.105	701302	keystroke_c	c	n/a
350.8765	0.075	701753	keystroke_r	r	n/a
351.0115	0.12	702023	keystroke_i	i	n/a
351.1615	0.09	702323	keystroke_b	b	n/a
351.3865	0.06	702773	keystroke_e	e	n/a
351.5965	0.09	703193	keystroke_Key.enter	Key.enter	n/a
351.6915	6.1615	703383	prompt	n/a	playback likes rage rubber\n
352.391	0.0605	704782	keystroke_p	p	n/a
352.6015	0.1195	705203	keystroke_l	l	n/a
352.796	0.0605	705592	keystroke_a	a	n/a
353.0065	0.0595	706013	keystroke_y	y	n/a
353.1715	0.075	706343	keystroke_b	b	n/a
353.3955	0.061	706791	keystroke_a	a	n/a
353.606	0.105	707212	keystroke_c	c	n/a
353.771	0.075	707542	keystroke_k	k	n/a
353.966	0.075	707932	keystroke_Key.space	Key.space	n/a
354.221	0.1055	708442	keystroke_l	l	n/a
354.446	0.075	708892	keystroke_i	i	n/a
354.6865	0.134	709373	keystroke_k	k	n/a
354.8355	0.076	709671	keystroke_e	e	n/a
355.046	0.1055	710092	keystroke_s	s	n/a
355.2265	0.0745	710453	keystroke_Key.space	Key.space	n/a
355.481	0.0905	710962	keystroke_r	r	n/a
355.6765	0.1345	711353	keystroke_a	a	n/a
355.901	0.09	711802	keystroke_g	g	n/a
356.126	0.105	712252	keystroke_e	e	n/a
356.276	0.0595	712552	keystroke_Key.space	Key.space	n/a
356.4415	0.06	712883	keystroke_r	r	n/a
356.7265	0.09	713453	keystroke_u	u	n/a
356.9665	0.045	713933	keystroke_b	b	n/a
357.1615	0.104	714323	keystroke_b	b	n/a
357.4315	0.06	714863	keystroke_e	e	n/a
357.596	0.075	715192	keystroke_r	r	n/a
357.791	0.0595	715582	keystroke_Key.enter	Key.enter	n/a
357.8575	7.12	715715	prompt	n/a	participate slide testament vocals\n
358.481	0.1055	716962	keystroke_p	p	n/a
358.751	0.0905	717502	keystroke_a	a	n/a
358.961	0.0745	717922	keystroke_r	r	n/a
359.1415	0.059	718283	keystroke_t	t	n/a
359.3515	0.1345	718703	keystroke_i	i	n/a
359.531	0.1205	719062	keystroke_c	c	n/a
359.6515	0.1495	719303	keystroke_i	i	n/a
359.771	0.105	719542	keystroke_p	p	n/a
360.026	0.075	720052	keystroke_a	a	n/a
360.266	0.09	720532	keystroke_t	t	n/a
360.461	0.06	720922	keystroke_e	e	n/a
360.6405	0.075	721281	keystroke_Key.space	Key.space	n/a
360.8965	0.075	721793	keystroke_s	s	n/a
361.0615	0.104	722123	keystroke_l	l	n/a
361.2865	0.12	722573	keystroke_i	i	n/a
361.421	0.075	722842	keystroke_d	d	n/a
361.631	0.1195	723262	keystroke_e	e	n/a
361.811	0.075	723622	keystroke_Key.space	Key.space	n/a
361.991	0.105	723982	keystroke_t	t	n/a
362.186	0.06	724372	keystroke_e	e	n/a
362.366	0.1045	724732	keystroke_s	s	n/a
362.5755	0.075	725151	keystroke_t	t	n/a
362.7255	0.09	725451	keystroke_a	a	n/a
362.936	0.1195	725872	keystroke_m	m	n/a
363.1005	0.06	726201	keystroke_e	e	n/a
363.281	0.105	726562	keystroke_n	n	n/a
363.431	0.06	726862	keystroke_t	t	n/a
363.566	0.06	727132	keystroke_Key.space	Key.space	n/a
363.881	0.09	727762	keystroke_v	v	n/a
364.076	0.075	728152	keystroke_o	o	n/a
364.2415	0.12	728483	keystroke_c	c	n/a
364.4205	0.091	728841	keystroke_a	a	n/a
364.601	0.09	729202	keystroke_l	l	n/a
364.736	0.06	729472	keystroke_s	s	n/a
364.916	0.06	729832	keystroke_Key.enter	Key.enter	n/a
364.9845	6.6385	729969	prompt	n/a	montreal meet endangered locks\n
365.6065	0.104	731213	keystroke_m	m	n/a
365.861	0.1045	731722	keystroke_o	o	n/a
366.086	0.1045	732172	keystroke_n	n	n/a
366.2505	0.06	732501	keystroke_t	t	n/a
366.4455	0.091	732891	keystroke_r	r	n/a
366.6555	0.0605	733311	keystroke_e	e	n/a
366.806	0.09	733612	keystroke_a	a	n/a
366.941	0.09	733882	keystroke_l	l	n/a
367.106	0.09	734212	keystroke_Key.space	Key.space	n/a
367.346	0.12	734692	keystroke_m	m	n/a
367.496	0.075	734992	keystroke_e	e	n/a
367.7215	0.1045	735443	keystroke_e	e	n/a
367.931	0.09	735862	keystroke_t	t	n/a
368.096	0.0745	736192	keystroke_Key.space	Key.space	n/a
368.3205	0.075	736641	keystroke_e	e	n/a
368.456	0.09	736912	keystroke_n	n	n/a
368.591	0.105	737182	keystroke_d	d	n/a
368.7855	0.105	737571	keystroke_a	a	n/a
369.0265	0.089	738053	keystroke_n	n	n/a
369.176	0.0755	738352	keystroke_g	g	n/a
369.386	0.0895	738772	keystroke_e	e	n/a
369.7455	0.0755	739491	keystroke_r	r	n/a
369.941	0.075	739882	keystroke_e	e	n/a
370.166	0.12	740332	keystroke_d	d	n/a
370.331	0.06	740662	keystroke_Key.space	Key.space	n/a
370.5105	0.075	741021	keystroke_l	l	n/a
370.736	0.09	741472	keystroke_o	o	n/a
370.901	0.105	741802	keystroke_c	c	n/a
371.081	0.0905	742162	keystroke_k	k	n/a
371.2165	0.0595	742433	keystroke_s	s	n/a
371.5465	0.0745	743093	keystroke_Key.enter	Key.enter	n/a
371.6275	6.355	743255	prompt	n/a	ours triangle supports pierre\n
372.296	0.075	744592	keystroke_o	o	n/a
372.5665	0.075	745133	keystroke_u	u	n/a
372.731	0.09	745462	keystroke_r	r	n/a
372.926	0.06	745852	keystroke_s	s	n/a
373.016	0.075	746032	keystroke_Key.space	Key.space	n/a
373.286	0.075	746572	keystroke_t	t	n/a
373.481	0.09	746962	keystroke_r	r	n/a
373.7055	0.091	747411	keystroke_i	i	n/a
373.8705	0.06	747741	keystroke_a	a	n/a
373.9905	0.1205	747981	keystroke_n	n	n/a
374.141	0.105	748282	keystroke_g	g	n/a
374.291	0.12	748582	keystroke_l	l	n/a
374.441	0.075	748882	keystroke_e	e	n/a
374.591	0.0455	749182	keystroke_Key.space	Key.space	n/a
374.756	0.075	749512	keystroke_s	s	n/a
374.9065	0.09	749813	keystroke_u	u	n/a
375.1155	0.0905	750231	keystroke_p	p	n/a
375.401	0.09	750802	keystroke_p	p	n/a
375.611	0.12	751222	keystroke_o	o	n/a
375.776	0.09	751552	keystroke_r	r	n/a
376.031	0.06	752062	keystroke_t	t	n/a
376.196	0.075	752392	keystroke_s	s	n/a
376.346	0.045	752692	keystroke_Key.space	Key.space	n/a
376.571	0.09	753142	keystroke_p	p	n/a
376.7805	0.1205	753561	keystroke_i	i	n/a
377.0365	0.089	754073	keystroke_e	e	n/a
377.2305	0.06	754461	keystroke_r	r	n/a
377.4705	0.075	754941	keystroke_r	r	n/a
377.6805	0.09	755361	keystroke_e	e	n/a
377.9205	0.0605	755841	keystroke_Key.enter	Key.enter	n/a
377.9865	6.7465	755973	prompt	n/a	editor firefox exit spanish\n
378.596	0.0595	757192	keystroke_e	e	n/a
378.7905	0.135	757581	keystroke_d	d	n/a
378.9705	0.105	757941	keystroke_i	i	n/a
379.1655	0.075	758331	keystroke_t	t	n/a
379.3005	0.12	758601	keystroke_o	o	n/a
379.4505	0.0905	758901	keystroke_r	r	n/a
379.646	0.075	759292	keystroke_Key.space	Key.space	n/a
379.781	0.1045	759562	keystroke_f	f	n/a
379.9455	0.135	759891	keystroke_i	i	n/a
380.156	0.0895	760312	keystroke_r	r	n/a
380.366	0.1645	760732	keystroke_e	e	n/a
380.9515	0.105	761903	keystroke_f	f	n/a
381.1015	0.135	762203	keystroke_o	o	n/a
381.311	0.1345	762622	keystroke_x	x	n/a
381.491	0.075	762982	keystroke_Key.space	Key.space	n/a
381.656	0.06	763312	keystroke_e	e	n/a
381.851	0.135	763702	keystroke_x	x	n/a
382.001	0.135	764002	keystroke_i	i	n/a
382.181	0.075	764362	keystroke_s	s	n/a
382.661	0.0745	765322	keystroke_Key.backspace	Key.backspace	n/a
382.946	0.09	765892	keystroke_t	t	n/a
383.2015	0.0745	766403	keystroke_Key.space	Key.space	n/a
383.396	0.09	766792	keystroke_s	s	n/a
383.456	0.1195	766912	keystroke_p	p	n/a
383.6805	0.105	767361	keystroke_a	a	n/a
383.8455	0.151	767691	keystroke_n	n	n/a
384.0405	0.105	768081	keystroke_i	i	n/a
384.2655	0.061	768531	keystroke_s	s	n/a
384.371	0.09	768742	keystroke_h	h	n/a
384.626	0.105	769252	keystroke_Key.enter	Key.enter	n/a
384.7375	6.9405	769475	prompt	n/a	hebrew contrary highways cruise\n
385.376	0.09	770752	keystroke_h	h	n/a
385.556	0.0745	771112	keystroke_e	e	n/a
385.766	0.075	771532	keystroke_b	b	n/a
385.991	0.09	771982	keystroke_r	r	n/a
386.216	0.0745	772432	keystroke_e	e	n/a
386.4115	0.06	772823	keystroke_w	w	n/a
386.6055	0.06	773211	keystroke_Key.space	Key.space	n/a
386.7855	0.1205	773571	keystroke_c	c	n/a
386.951	0.105	773902	keystroke_o	o	n/a
387.161	0.12	774322	keystroke_n	n	n/a
387.2965	0.089	774593	keystroke_t	t	n/a
387.521	0.105	775042	keystroke_r	r	n/a
387.821	0.106	775642	keystroke_a	a	n/a
388.0015	0.104	776003	keystroke_r	r	n/a
388.1965	0.0895	776393	keystroke_y	y	n/a
388.3615	0.104	776723	keystroke_Key.space	Key.space	n/a
388.6755	0.1055	777351	keystroke_h	h	n/a
388.946	0.12	777892	keystroke_i	i	n/a
389.216	0.075	778432	keystroke_g	g	n/a
389.3815	0.12	778763	keystroke_h	h	n/a
389.5755	0.06	779151	keystroke_w	w	n/a
389.7555	0.076	779511	keystroke_a	a	n/a
389.966	0.09	779932	keystroke_y	y	n/a
390.161	0.0905	780322	keystroke_s	s	n/a
390.3105	0.075	780621	keystroke_Key.space	Key.space	n/a
390.491	0.0755	780982	keystroke_c	c	n/a
390.701	0.075	781402	keystroke_r	r	n/a
390.821	0.105	781642	keystroke_u	u	n/a
391.016	0.105	782032	keystroke_i	i	n/a
391.181	0.09	782362	keystroke_s	s	n/a
391.4065	0.0595	782813	keystroke_e	e	n/a
391.586	0.09	783172	keystroke_Key.enter	Key.enter	n/a
391.682	8.621	783364	prompt	n/a	defend reading opponents calcium\n
392.2765	0.1195	784553	keystroke_d	d	n/a
392.501	0.0905	785002	keystroke_e	e	n/a
392.7565	0.1045	785513	keystroke_f	f	n/a
392.981	0.06	785962	keystroke_e	e	n/a
393.1605	0.09	786321	keystroke_n	n	n/a
393.3265	0.105	786653	keystroke_d	d	n/a
393.5215	0.059	787043	keystroke_Key.space	Key.space	n/a
393.701	0.09	787402	keystroke_r	r	n/a
393.881	0.105	787762	keystroke_e	e	n/a
394.1065	0.089	788213	keystroke_a	a	n/a
394.316	0.12	788632	keystroke_d	d	n/a
394.496	0.105	788992	keystroke_i	i	n/a
394.677	0.104	789354	keystroke_n	n	n/a
394.976	0.06	789952	keystroke_g	g	n/a
395.1555	0.076	790311	keystroke_Key.space	Key.space	n/a
395.3815	0.089	790763	keystroke_r	r	n/a
395.561	0.09	791122	keystroke_e	e	n/a
395.786	0.1205	791572	keystroke_a	a	n/a
396.0115	0.12	792023	keystroke_d	d	n/a
396.1755	0.105	792351	keystroke_i	i	n/a
396.4015	0.074	792803	keystroke_n	n	n/a
396.5665	0.075	793133	keystroke_g	g	n/a
396.6855	0.0755	793371	keystroke_Key.space	Key.space	n/a
396.9255	0.0905	793851	keystroke_o	o	n/a
397.1215	0.1045	794243	keystroke_p	p	n/a
397.346	0.0755	794692	keystroke_p	p	n/a
397.601	0.09	795202	keystroke_o	o	n/a
397.8115	0.105	795623	keystroke_n	n	n/a
397.9465	0.0895	795893	keystroke_e	e	n/a
398.081	0.1195	796162	keystroke_n	n	n/a
398.1705	0.106	796341	keystroke_t	t	n/a
398.3805	0.076	796761	keystroke_s	s	n/a
398.5165	0.0895	797033	keystroke_Key.space	Key.space	n/a
398.681	0.135	797362	keystroke_c	c	n/a
398.846	0.09	797692	keystroke_a	a	n/a
399.026	0.1495	798052	keystroke_l	l	n/a
399.1905	0.045	798381	keystroke_c	c	n/a
399.491	0.0895	798982	keystroke_i	i	n/a
399.7615	0.0895	799523	keystroke_u	u	n/a
399.9855	0.09	799971	keystroke_m	m	n/a
400.226	0.075	800452	keystroke_Key.enter	Key.enter	n/a
400.3065	6.896	800613	prompt	n/a	ratios reading valid shouldn't\n
400.9615	0.0745	801923	keystroke_r	r	n/a
401.141	0.12	802282	keystroke_a	a	n/a
401.366	0.09	802732	keystroke_t	t	n/a
401.5465	0.0895	803093	keystroke_i	i	n/a
401.756	0.105	803512	keystroke_o	o	n/a
401.891	0.1055	803782	keystroke_s	s	n/a
402.026	0.09	804052	keystroke_Key.space	Key.space	n/a
402.3405	0.0905	804681	keystroke_r	r	n/a
402.521	0.09	805042	keystroke_e	e	n/a
402.8365	0.0145	805673	keystroke_a	a	n/a
402.896	0.135	805792	keystroke_d	d	n/a
403.061	0.09	806122	keystroke_i	i	n/a
403.256	0.0905	806512	keystroke_n	n	n/a
403.406	0.09	806812	keystroke_g	g	n/a
403.497	0.074	806994	keystroke_Key.space	Key.space	n/a
403.781	0.105	807562	keystroke_v	v	n/a
403.976	0.0905	807952	keystroke_a	a	n/a
404.126	0.1045	808252	keystroke_l	l	n/a
404.3505	0.1055	808701	keystroke_i	i	n/a
404.576	0.105	809152	keystroke_d	d	n/a
404.756	0.09	809512	keystroke_Key.space	Key.space	n/a
405.101	0.105	810202	keystroke_s	s	n/a
405.266	0.105	810532	keystroke_h	h	n/a
405.476	0.12	810952	keystroke_o	o	n/a
405.716	0.075	811432	keystroke_u	u	n/a
405.926	0.105	811852	keystroke_l	l	n/a
406.121	0.135	812242	keystroke_d	d	n/a
406.226	0.075	812452	keystroke_n	n	n/a
406.451	0.075	812902	keystroke_'	'	n/a
406.781	0.075	813562	keystroke_t	t	n/a
407.126	0.075	814252	keystroke_Key.enter	Key.enter	n/a
407.2065	5.651	814413	prompt	n/a	power flux envelope clouds\n
407.861	0.075	815722	keystroke_p	p	n/a
408.056	0.1195	816112	keystroke_o	o	n/a
408.2055	0.09	816411	keystroke_w	w	n/a
408.416	0.1355	816832	keystroke_e	e	n/a
408.671	0.105	817342	keystroke_r	r	n/a
408.896	0.075	817792	keystroke_Key.space	Key.space	n/a
409.076	0.06	818152	keystroke_f	f	n/a
409.226	0.075	818452	keystroke_l	l	n/a
409.436	0.09	818872	keystroke_u	u	n/a
409.751	0.015	819502	keystroke_x	x	n/a
409.781	0.045	819562	keystroke_Key.space	Key.space	n/a
409.991	0.105	819982	keystroke_e	e	n/a
410.126	0.105	820252	keystroke_n	n	n/a
410.306	0.075	820612	keystroke_v	v	n/a
410.531	0.075	821062	keystroke_e	e	n/a
410.711	0.09	821422	keystroke_l	l	n/a
410.936	0.075	821872	keystroke_o	o	n/a
411.146	0.09	822292	keystroke_p	p	n/a
411.386	0.075	822772	keystroke_e	e	n/a
411.521	0.1055	823042	keystroke_Key.space	Key.space	n/a
411.7315	0.06	823463	keystroke_c	c	n/a
411.8205	0.09	823641	keystroke_l	l	n/a
412.046	0.075	824092	keystroke_o	o	n/a
412.256	0.09	824512	keystroke_u	u	n/a
412.451	0.075	824902	keystroke_d	d	n/a
412.631	0.06	825262	keystroke_s	s	n/a
412.7815	0.0745	825563	keystroke_Key.enter	Key.enter	n/a
412.862	6.9715	825724	prompt	n/a	kevin he've alternatives manner\n
413.5315	0.105	827063	keystroke_k	k	n/a
413.6815	0.0745	827363	keystroke_e	e	n/a
413.8915	0.1045	827783	keystroke_v	v	n/a
414.221	0.075	828442	keystroke_i	i	n/a
414.4155	0.1055	828831	keystroke_n	n	n/a
414.701	0.06	829402	keystroke_Key.space	Key.space	n/a
414.896	0.09	829792	keystroke_h	h	n/a
415.046	0.09	830092	keystroke_e	e	n/a
415.166	0.105	830332	keystroke_'	'	n/a
415.556	0.0895	831112	keystroke_v	v	n/a
415.781	0.09	831562	keystroke_e	e	n/a
415.976	0.09	831952	keystroke_Key.space	Key.space	n/a
416.186	0.1045	832372	keystroke_a	a	n/a
416.3805	0.0905	832761	keystroke_l	l	n/a
416.516	0.0895	833032	keystroke_t	t	n/a
416.7405	0.09	833481	keystroke_e	e	n/a
416.9355	0.105	833871	keystroke_r	r	n/a
417.0855	0.12	834171	keystroke_n	n	n/a
417.2205	0.105	834441	keystroke_a	a	n/a
417.446	0.075	834892	keystroke_t	t	n/a
417.6555	0.0905	835311	keystroke_i	i	n/a
417.776	0.09	835552	keystroke_v	v	n/a
418.016	0.0745	836032	keystroke_e	e	n/a
418.226	0.075	836452	keystroke_s	s	n/a
418.4205	0.06	836841	keystroke_Key.space	Key.space	n/a
418.616	0.105	837232	keystroke_m	m	n/a
418.7815	0.075	837563	keystroke_a	a	n/a
418.9315	0.1045	837863	keystroke_n	n	n/a
419.1255	0.1205	838251	keystroke_n	n	n/a
419.396	0.06	838792	keystroke_e	e	n/a
419.576	0.06	839152	keystroke_r	r	n/a
419.756	0.0755	839512	keystroke_Key.enter	Key.enter	n/a
419.8385	6.969	839677	prompt	n/a	slideshow sized perhaps quality\n
420.401	0.09	840802	keystroke_s	s	n/a
420.7005	0.12	841401	keystroke_l	l	n/a
420.9265	0.134	841853	keystroke_i	i	n/a
421.1065	0.135	842213	keystroke_d	d	n/a
421.3605	0.1055	842721	keystroke_e	e	n/a
421.706	0.0895	843412	keystroke_s	s	n/a
421.976	0.075	843952	keystroke_h	h	n/a
422.201	0.075	844402	keystroke_o	o	n/a
422.396	0.075	844792	keystroke_w	w	n/a
422.546	0.0745	845092	keystroke_Key.space	Key.space	n/a
422.7705	0.091	845541	keystroke_s	s	n/a
422.9215	0.12	845843	keystroke_i	i	n/a
423.0855	0.105	846171	keystroke_z	z	n/a
423.341	0.0455	846682	keystroke_e	e	n/a
423.5365	0.1045	847073	keystroke_d	d	n/a
423.701	0.075	847402	keystroke_Key.space	Key.space	n/a
423.911	0.1355	847822	keystroke_p	p	n/a
424.1215	0.135	848243	keystroke_e	e	n/a
424.376	0.105	848752	keystroke_r	r	n/a
424.601	0.09	849202	keystroke_h	h	n/a
424.736	0.0905	849472	keystroke_a	a	n/a
424.9305	0.1055	849861	keystroke_p	p	n/a
425.096	0.105	850192	keystroke_s	s	n/a
425.231	0.09	850462	keystroke_Key.space	Key.space	n/a
425.441	0.105	850882	keystroke_q	q	n/a
425.651	0.1195	851302	keystroke_u	u	n/a
425.801	0.105	851602	keystroke_a	a	n/a
425.996	0.12	851992	keystroke_l	l	n/a
426.1905	0.105	852381	keystroke_i	i	n/a
426.356	0.09	852712	keystroke_t	t	n/a
426.4905	0.1045	852981	keystroke_y	y	n/a
426.731	0.075	853462	keystroke_Key.enter	Key.enter	n/a
426.8135	5.9345	853627	prompt	n/a	numerous ebook demand clark\n
427.436	0.1045	854872	keystroke_n	n	n/a
427.721	0.0745	855442	keystroke_u	u	n/a
427.9155	0.1055	855831	keystroke_m	m	n/a
428.156	0.09	856312	keystroke_e	e	n/a
428.336	0.09	856672	keystroke_r	r	n/a
428.546	0.075	857092	keystroke_o	o	n/a
428.7715	0.105	857543	keystroke_u	u	n/a
428.9215	0.1045	857843	keystroke_s	s	n/a
429.071	0.06	858142	keystroke_Key.space	Key.space	n/a
429.266	0.09	858532	keystroke_e	e	n/a
429.536	0.03	859072	keystroke_b	b	n/a
429.716	0.0745	859432	keystroke_o	o	n/a
429.9105	0.1055	859821	keystroke_o	o	n/a
430.136	0.1055	860272	keystroke_k	k	n/a
430.3165	0.0895	860633	keystroke_Key.space	Key.space	n/a
430.5265	0.0595	861053	keystroke_d	d	n/a
430.706	0.105	861412	keystroke_e	e	n/a
430.871	0.12	861742	keystroke_m	m	n/a
431.006	0.12	862012	keystroke_a	a	n/a
431.156	0.105	862312	keystroke_n	n	n/a
431.2755	0.135	862551	keystroke_d	d	n/a
431.4255	0.076	862851	keystroke_Key.space	Key.space	n/a
431.696	0.1205	863392	keystroke_c	c	n/a
431.8305	0.09	863661	keystroke_l	l	n/a
431.9655	0.121	863931	keystroke_a	a	n/a
432.1755	0.105	864351	keystroke_r	r	n/a
432.3855	0.1205	864771	keystroke_k	k	n/a
432.685	0.061	865370	keystroke_Key.enter	Key.enter	n/a
432.7525	5.32	865505	prompt	n/a	light whats kelly embassy\n
433.361	0.075	866722	keystroke_l	l	n/a
433.571	0.1205	867142	keystroke_i	i	n/a
433.7665	0.0895	867533	keystroke_g	g	n/a
433.886	0.12	867772	keystroke_h	h	n/a
434.1415	0.0745	868283	keystroke_t	t	n/a
434.336	0.09	868672	keystroke_Key.space	Key.space	n/a
434.4855	0.075	868971	keystroke_w	w	n/a
434.7405	0.06	869481	keystroke_h	h	n/a
434.9205	0.105	869841	keystroke_a	a	n/a
435.1455	0.075	870291	keystroke_t	t	n/a
435.3555	0.0605	870711	keystroke_s	s	n/a
435.5055	0.075	871011	keystroke_Key.space	Key.space	n/a
435.731	0.075	871462	keystroke_k	k	n/a
435.926	0.075	871852	keystroke_e	e	n/a
436.0465	0.059	872093	keystroke_l	l	n/a
436.1955	0.06	872391	keystroke_l	l	n/a
436.406	0.075	872812	keystroke_y	y	n/a
436.5405	0.0755	873081	keystroke_Key.space	Key.space	n/a
436.751	0.1045	873502	keystroke_e	e	n/a
436.9155	0.1055	873831	keystroke_m	m	n/a
437.096	0.075	874192	keystroke_b	b	n/a
437.276	0.09	874552	keystroke_a	a	n/a
437.4855	0.076	874971	keystroke_s	s	n/a
437.651	0.09	875302	keystroke_s	s	n/a
437.801	0.0745	875602	keystroke_y	y	n/a
438.0115	0.0595	876023	keystroke_Key.enter	Key.enter	n/a
438.077	7.6305	876154	prompt	n/a	motivated adoption gravity though\n
438.716	0.09	877432	keystroke_m	m	n/a
439.121	0.09	878242	keystroke_o	o	n/a
439.406	0.045	878812	keystroke_t	t	n/a
439.5705	0.09	879141	keystroke_i	i	n/a
439.646	0.12	879292	keystroke_v	v	n/a
439.856	0.12	879712	keystroke_a	a	n/a
440.036	0.09	880072	keystroke_t	t	n/a
440.261	0.06	880522	keystroke_e	e	n/a
440.441	0.09	880882	keystroke_d	d	n/a
440.576	0.09	881152	keystroke_Key.space	Key.space	n/a
440.816	0.105	881632	keystroke_a	a	n/a
441.026	0.1195	882052	keystroke_d	d	n/a
441.191	0.09	882382	keystroke_o	o	n/a
441.401	0.105	882802	keystroke_p	p	n/a
441.6255	0.06	883251	keystroke_t	t	n/a
441.836	0.105	883672	keystroke_i	i	n/a
442.016	0.105	884032	keystroke_o	o	n/a
442.225	0.1055	884450	keystroke_n	n	n/a
442.4355	0.0755	884871	keystroke_Key.space	Key.space	n/a
442.7055	0.076	885411	keystroke_g	g	n/a
442.8855	0.0905	885771	keystroke_r	r	n/a
443.066	0.12	886132	keystroke_a	a	n/a
443.246	0.1195	886492	keystroke_v	v	n/a
443.3805	0.105	886761	keystroke_i	i	n/a
443.5605	0.06	887121	keystroke_t	t	n/a
443.6805	0.0905	887361	keystroke_y	y	n/a
443.906	0.075	887812	keystroke_Key.space	Key.space	n/a
444.266	0.075	888532	keystroke_t	t	n/a
444.461	0.1055	888922	keystroke_h	h	n/a
444.881	0.09	889762	keystroke_o	o	n/a
445.106	0.1055	890212	keystroke_u	u	n/a
445.2855	0.091	890571	keystroke_g	g	n/a
445.4215	0.075	890843	keystroke_h	h	n/a
445.6605	0.045	891321	keystroke_Key.enter	Key.enter	n/a
445.712	6.266	891424	prompt	n/a	mature matthew midlands italic\n
446.276	0.12	892552	keystroke_m	m	n/a
446.531	0.0905	893062	keystroke_a	a	n/a
446.7555	0.0605	893511	keystroke_t	t	n/a
446.9655	0.105	893931	keystroke_u	u	n/a
447.1305	0.075	894261	keystroke_r	r	n/a
447.3405	0.0905	894681	keystroke_e	e	n/a
447.476	0.06	894952	keystroke_Key.space	Key.space	n/a
447.7155	0.121	895431	keystroke_m	m	n/a
447.896	0.075	895792	keystroke_a	a	n/a
448.136	0.06	896272	keystroke_t	t	n/a
448.316	0.09	896632	keystroke_t	t	n/a
448.5255	0.09	897051	keystroke_h	h	n/a
448.7055	0.0755	897411	keystroke_e	e	n/a
448.901	0.06	897802	keystroke_w	w	n/a
449.0205	0.0755	898041	keystroke_Key.space	Key.space	n/a
449.261	0.0745	898522	keystroke_m	m	n/a
449.486	0.09	898972	keystroke_i	i	n/a
449.636	0.1205	899272	keystroke_d	d	n/a
449.7715	0.1045	899543	keystroke_l	l	n/a
449.936	0.09	899872	keystroke_a	a	n/a
450.056	0.105	900112	keystroke_n	n	n/a
450.221	0.105	900442	keystroke_d	d	n/a
450.461	0.09	900922	keystroke_s	s	n/a
450.596	0.075	901192	keystroke_Key.space	Key.space	n/a
450.836	0.09	901672	keystroke_i	i	n/a
451.076	0.075	902152	keystroke_t	t	n/a
451.241	0.075	902482	keystroke_a	a	n/a
451.361	0.09	902722	keystroke_l	l	n/a
451.586	0.12	903172	keystroke_i	i	n/a
451.736	0.105	903472	keystroke_c	c	n/a
451.915	0.06	903830	keystroke_Key.enter	Key.enter	n/a
451.9855	7.777	903971	prompt	n/a	notebook delay accounting forecast\n
452.5455	0.09	905091	keystroke_m	m	n/a
452.8605	0.075	905721	keystroke_Key.backspace	Key.backspace	n/a
453.1015	0.105	906203	keystroke_n	n	n/a
453.3255	0.105	906651	keystroke_o	o	n/a
453.5055	0.0905	907011	keystroke_t	t	n/a
453.686	0.09	907372	keystroke_e	e	n/a
453.926	0.075	907852	keystroke_b	b	n/a
454.061	0.09	908122	keystroke_o	o	n/a
454.301	0.075	908602	keystroke_o	o	n/a
454.526	0.09	909052	keystroke_k	k	n/a
454.7055	0.105	909411	keystroke_Key.space	Key.space	n/a
454.9155	0.075	909831	keystroke_d	d	n/a
455.141	0.09	910282	keystroke_e	e	n/a
455.291	0.09	910582	keystroke_l	l	n/a
455.426	0.105	910852	keystroke_a	a	n/a
455.621	0.075	911242	keystroke_y	y	n/a
455.801	0.075	911602	keystroke_Key.space	Key.space	n/a
455.9355	0.0755	911871	keystroke_a	a	n/a
456.176	0.06	912352	keystroke_c	c	n/a
456.356	0.0745	912712	keystroke_c	c	n/a
456.5805	0.075	913161	keystroke_o	o	n/a
456.776	0.09	913552	keystroke_u	u	n/a
457.001	0.1045	914002	keystroke_n	n	n/a
457.196	0.06	914392	keystroke_t	t	n/a
457.3465	0.104	914693	keystroke_i	i	n/a
457.5555	0.1055	915111	keystroke_n	n	n/a
457.706	0.06	915412	keystroke_g	g	n/a
457.841	0.075	915682	keystroke_Key.space	Key.space	n/a
458.0055	0.12	916011	keystroke_f	f	n/a
458.1705	0.15	916341	keystroke_o	o	n/a
458.3955	0.1055	916791	keystroke_r	r	n/a
458.606	0.09	917212	keystroke_e	e	n/a
458.861	0.09	917722	keystroke_c	c	n/a
459.086	0.075	918172	keystroke_a	a	n/a
459.296	0.0905	918592	keystroke_s	s	n/a
459.506	0.06	919012	keystroke_t	t	n/a
459.6865	0.0745	919373	keystroke_Key.enter	Key.enter	n/a
459.767	8.3805	919534	prompt	n/a	verify scenic checking fight\n
460.4815	0.074	920963	keystroke_v	v	n/a
460.7055	0.061	921411	keystroke_e	e	n/a
460.9005	0.091	921801	keystroke_r	r	n/a
461.0955	0.106	922191	keystroke_i	i	n/a
461.2305	0.0905	922461	keystroke_f	f	n/a
461.411	0.0755	922822	keystroke_y	y	n/a
461.5905	0.06	923181	keystroke_Key.space	Key.space	n/a
461.7855	0.12	923571	keystroke_s	s	n/a
461.9955	0.1055	923991	keystroke_c	c	n/a
462.206	0.105	924412	keystroke_e	e	n/a
462.3855	0.0605	924771	keystroke_n	n	n/a
462.596	0.1045	925192	keystroke_i	i	n/a
462.7315	0.134	925463	keystroke_c	c	n/a
462.8805	0.075	925761	keystroke_Key.space	Key.space	n/a
463.1505	0.1055	926301	keystroke_Key.space	Key.space	n/a
463.361	0.12	926722	keystroke_h	h	n/a
463.7955	0.0895	927591	keystroke_Key.backspace	Key.backspace	n/a
464.2755	0.0895	928551	keystroke_Key.backspace	Key.backspace	n/a
464.5	0.151	929000	keystroke_c	c	n/a
464.666	0.0905	929332	keystroke_h	h	n/a
464.861	0.105	929722	keystroke_e	e	n/a
465.085	0.121	930170	keystroke_c	c	n/a
465.206	0.075	930412	keystroke_k	k	n/a
465.4305	0.1055	930861	keystroke_i	i	n/a
465.6405	0.1055	931281	keystroke_n	n	n/a
465.851	0.09	931702	keystroke_g	g	n/a
466.001	0.06	932002	keystroke_Key.space	Key.space	n/a
466.211	0.105	932422	keystroke_f	f	n/a
466.376	0.1195	932752	keystroke_l	l	n/a
466.856	0.075	933712	keystroke_Key.backspace	Key.backspace	n/a
467.096	0.1055	934192	keystroke_i	i	n/a
467.456	0.105	934912	keystroke_g	g	n/a
467.621	0.105	935242	keystroke_h	h	n/a
467.876	0.06	935752	keystroke_t	t	n/a
468.0555	0.0905	936111	keystroke_Key.enter	Key.enter	n/a
468.153	6.985	936306	prompt	n/a	tend connector brokers testing\n
468.926	0.075	937852	keystroke_t	t	n/a
469.1215	0.0745	938243	keystroke_e	e	n/a
469.2715	0.1195	938543	keystroke_n	n	n/a
469.466	0.1195	938932	keystroke_d	d	n/a
469.6005	0.0755	939201	keystroke_Key.space	Key.space	n/a
469.78	0.106	939560	keystroke_c	c	n/a
470.0055	0.06	940011	keystroke_o	o	n/a
470.2755	0.075	940551	keystroke_n	n	n/a
470.501	0.1045	941002	keystroke_n	n	n/a
470.5755	0.075	941151	keystroke_e	e	n/a
470.786	0.1195	941572	keystroke_c	c	n/a
471.056	0.0745	942112	keystroke_t	t	n/a
471.251	0.0745	942502	keystroke_o	o	n/a
471.4605	0.09	942921	keystroke_r	r	n/a
471.6105	0.09	943221	keystroke_Key.space	Key.space	n/a
471.8805	0.09	943761	keystroke_b	b	n/a
472.151	0.0895	944302	keystroke_r	r	n/a
472.3605	0.1055	944721	keystroke_o	o	n/a
472.586	0.1195	945172	keystroke_k	k	n/a
472.7655	0.09	945531	keystroke_e	e	n/a
472.9755	0.075	945951	keystroke_r	r	n/a
473.1705	0.091	946341	keystroke_s	s	n/a
473.3805	0.0905	946761	keystroke_Key.space	Key.space	n/a
473.591	0.105	947182	keystroke_t	t	n/a
473.8305	0.06	947661	keystroke_e	e	n/a
474.041	0.12	948082	keystroke_s	s	n/a
474.28	0.091	948560	keystroke_t	t	n/a
474.431	0.105	948862	keystroke_i	i	n/a
474.656	0.104	949312	keystroke_n	n	n/a
474.8355	0.06	949671	keystroke_g	g	n/a
475.0755	0.061	950151	keystroke_Key.enter	Key.enter	n/a
475.1425	8.935	950285	prompt	n/a	establishing stewart accidents psychiatry\n
475.7655	0.075	951531	keystroke_e	e	n/a
475.9605	0.0905	951921	keystroke_s	s	n/a
476.1705	0.09	952341	keystroke_t	t	n/a
476.3805	0.105	952761	keystroke_a	a	n/a
476.5915	0.089	953183	keystroke_b	b	n/a
476.801	0.105	953602	keystroke_l	l	n/a
477.0105	0.106	954021	keystroke_i	i	n/a
477.1755	0.09	954351	keystroke_s	s	n/a
477.3555	0.105	954711	keystroke_h	h	n/a
477.5805	0.0905	955161	keystroke_i	i	n/a
477.776	0.105	955552	keystroke_n	n	n/a
477.9705	0.105	955941	keystroke_g	g	n/a
478.1055	0.09	956211	keystroke_Key.space	Key.space	n/a
478.271	0.105	956542	keystroke_s	s	n/a
478.5105	0.09	957021	keystroke_t	t	n/a
478.736	0.0895	957472	keystroke_e	e	n/a
478.9755	0.0905	957951	keystroke_w	w	n/a
479.186	0.12	958372	keystroke_a	a	n/a
479.3815	0.104	958763	keystroke_r	r	n/a
479.621	0.09	959242	keystroke_t	t	n/a
479.771	0.075	959542	keystroke_Key.space	Key.space	n/a
479.9505	0.105	959901	keystroke_a	a	n/a
480.1905	0.105	960381	keystroke_c	c	n/a
480.416	0.1205	960832	keystroke_c	c	n/a
480.671	0.12	961342	keystroke_i	i	n/a
480.836	0.09	961672	keystroke_d	d	n/a
481.046	0.119	962092	keystroke_e	e	n/a
481.256	0.09	962512	keystroke_n	n	n/a
481.406	0.0905	962812	keystroke_t	t	n/a
481.6005	0.1065	963201	keystroke_s	s	n/a
481.7505	0.105	963501	keystroke_Key.space	Key.space	n/a
481.9755	0.1055	963951	keystroke_p	p	n/a
482.1405	0.09	964281	keystroke_s	s	n/a
482.3955	0.0905	964791	keystroke_y	y	n/a
482.6815	0.1345	965363	keystroke_c	c	n/a
482.771	0.09	965542	keystroke_h	h	n/a
483.011	0.0905	966022	keystroke_i	i	n/a
483.161	0.105	966322	keystroke_a	a	n/a
483.3855	0.06	966771	keystroke_t	t	n/a
483.5355	0.121	967071	keystroke_r	r	n/a
483.7305	0.076	967461	keystroke_y	y	n/a
483.9855	0.0905	967971	keystroke_Key.enter	Key.enter	n/a
484.0825	7.706	968165	prompt	n/a	tractor cons instance established\n
484.7805	0.075	969561	keystroke_t	t	n/a
484.9605	0.1055	969921	keystroke_r	r	n/a
485.1865	0.089	970373	keystroke_a	a	n/a
485.366	0.1345	970732	keystroke_c	c	n/a
485.6355	0.075	971271	keystroke_t	t	n/a
485.831	0.09	971662	keystroke_o	o	n/a
485.996	0.06	971992	keystroke_r	r	n/a
486.161	0.075	972322	keystroke_Key.space	Key.space	n/a
486.416	0.1195	972832	keystroke_c	c	n/a
486.566	0.1045	973132	keystroke_o	o	n/a
486.7905	0.12	973581	keystroke_n	n	n/a
487.0755	0.06	974151	keystroke_s	s	n/a
487.256	0.06	974512	keystroke_Key.space	Key.space	n/a
487.496	0.105	974992	keystroke_i	i	n/a
487.736	0.105	975472	keystroke_n	n	n/a
487.916	0.075	975832	keystroke_s	s	n/a
488.1255	0.1055	976251	keystroke_t	t	n/a
488.336	0.075	976672	keystroke_a	a	n/a
488.501	0.0905	977002	keystroke_n	n	n/a
488.6805	0.06	977361	keystroke_c	c	n/a
488.9055	0.061	977811	keystroke_e	e	n/a
489.0855	0.06	978171	keystroke_Key.space	Key.space	n/a
489.2955	0.06	978591	keystroke_e	e	n/a
489.476	0.075	978952	keystroke_s	s	n/a
489.896	0.075	979792	keystroke_t	t	n/a
490.0905	0.12	980181	keystroke_a	a	n/a
490.3605	0.06	980721	keystroke_b	b	n/a
490.6005	0.105	981201	keystroke_l	l	n/a
490.8105	0.105	981621	keystroke_i	i	n/a
491.0205	0.075	982041	keystroke_s	s	n/a
491.126	0.1045	982252	keystroke_h	h	n/a
491.3205	0.0305	982641	keystroke_e	e	n/a
491.5305	0.1055	983061	keystroke_d	d	n/a
491.726	0.06	983452	keystroke_Key.enter	Key.enter	n/a
491.793	5.0195	983586	prompt	n/a	meals pmid claims guam\n
492.401	0.135	984802	keystroke_m	m	n/a
492.551	0.0745	985102	keystroke_e	e	n/a
492.7165	0.104	985433	keystroke_a	a	n/a
492.896	0.105	985792	keystroke_l	l	n/a
493.0165	0.1045	986033	keystroke_s	s	n/a
493.3	0.076	986600	keystroke_Key.space	Key.space	n/a
493.556	0.09	987112	keystroke_p	p	n/a
493.796	0.09	987592	keystroke_m	m	n/a
494.006	0.12	988012	keystroke_i	i	n/a
494.171	0.09	988342	keystroke_d	d	n/a
494.2915	0.0745	988583	keystroke_Key.space	Key.space	n/a
494.5015	0.119	989003	keystroke_c	c	n/a
494.6365	0.119	989273	keystroke_l	l	n/a
494.8605	0.06	989721	keystroke_a	a	n/a
495.0105	0.06	990021	keystroke_i	i	n/a
495.191	0.105	990382	keystroke_m	m	n/a
495.401	0.09	990802	keystroke_s	s	n/a
495.551	0.06	991102	keystroke_Key.space	Key.space	n/a
495.986	0.105	991972	keystroke_g	g	n/a
496.1205	0.105	992241	keystroke_u	u	n/a
496.3155	0.09	992631	keystroke_a	a	n/a
496.496	0.0895	992992	keystroke_m	m	n/a
496.721	0.09	993442	keystroke_Key.enter	Key.enter	n/a
496.817	5.636	993634	prompt	n/a	finest doug thought oops\n
497.471	0.12	994942	keystroke_f	f	n/a
497.606	0.09	995212	keystroke_i	i	n/a
497.816	0.105	995632	keystroke_n	n	n/a
497.966	0.06	995932	keystroke_e	e	n/a
498.1455	0.1205	996291	keystroke_s	s	n/a
498.401	0.075	996802	keystroke_t	t	n/a
498.521	0.09	997042	keystroke_Key.space	Key.space	n/a
499.0315	0.1195	998063	keystroke_d	d	n/a
499.196	0.09	998392	keystroke_o	o	n/a
499.436	0.105	998872	keystroke_u	u	n/a
499.7215	0.074	999443	keystroke_g	g	n/a
499.8855	0.075	999771	keystroke_Key.space	Key.space	n/a
500.1555	0.075	1000311	keystroke_t	t	n/a
500.276	0.105	1000552	keystroke_h	h	n/a
500.5165	0.194	1001033	keystroke_o	o	n/a
500.6355	0.105	1001271	keystroke_u	u	n/a
500.9355	0.075	1001871	keystroke_g	g	n/a
501.1155	0.1055	1002231	keystroke_h	h	n/a
501.2955	0.06	1002591	keystroke_t	t	n/a
501.4305	0.075	1002861	keystroke_Key.space	Key.space	n/a
501.6705	0.075	1003341	keystroke_o	o	n/a
501.8805	0.075	1003761	keystroke_o	o	n/a
502.0615	0.0895	1004123	keystroke_p	p	n/a
502.241	0.076	1004482	keystroke_s	s	n/a
502.3915	0.059	1004783	keystroke_Key.enter	Key.enter	n/a
502.4595	7.088	1004919	prompt	n/a	mixed effect outlook permission\n
503.1555	0.0905	1006311	keystroke_m	m	n/a
503.3505	0.12	1006701	keystroke_i	i	n/a
503.4855	0.0905	1006971	keystroke_x	x	n/a
503.726	0.0605	1007452	keystroke_e	e	n/a
503.9065	0.1195	1007813	keystroke_d	d	n/a
504.041	0.09	1008082	keystroke_Key.space	Key.space	n/a
504.281	0.0755	1008562	keystroke_e	e	n/a
504.5055	0.061	1009011	keystroke_f	f	n/a
504.671	0.0895	1009342	keystroke_f	f	n/a
504.8805	0.0755	1009761	keystroke_e	e	n/a
505.061	0.1195	1010122	keystroke_c	c	n/a
505.3155	0.075	1010631	keystroke_t	t	n/a
505.4655	0.0605	1010931	keystroke_Key.space	Key.space	n/a
505.7205	0.0905	1011441	keystroke_o	o	n/a
505.9155	0.105	1011831	keystroke_u	u	n/a
506.1715	0.104	1012343	keystroke_t	t	n/a
506.2905	0.0905	1012581	keystroke_l	l	n/a
506.546	0.0595	1013092	keystroke_o	o	n/a
506.7105	0.076	1013421	keystroke_o	o	n/a
506.8905	0.106	1013781	keystroke_k	k	n/a
507.116	0.06	1014232	keystroke_Key.space	Key.space	n/a
507.4605	0.105	1014921	keystroke_p	p	n/a
507.686	0.075	1015372	keystroke_e	e	n/a
507.866	0.09	1015732	keystroke_r	r	n/a
508.061	0.09	1016122	keystroke_m	m	n/a
508.271	0.105	1016542	keystroke_i	i	n/a
508.436	0.06	1016872	keystroke_s	s	n/a
508.631	0.0905	1017262	keystroke_s	s	n/a
508.856	0.075	1017712	keystroke_i	i	n/a
509.066	0.075	1018132	keystroke_o	o	n/a
509.246	0.0905	1018492	keystroke_n	n	n/a
509.4705	0.075	1018941	keystroke_Key.enter	Key.enter	n/a
509.552	7.0005	1019104	prompt	n/a	requirements craft summary charlie\n
510.2955	0.09	1020591	keystroke_r	r	n/a
510.506	0.075	1021012	keystroke_e	e	n/a
510.686	0.0595	1021372	keystroke_q	q	n/a
510.8505	0.12	1021701	keystroke_u	u	n/a
511.1205	0.1055	1022241	keystroke_i	i	n/a
511.2865	0.105	1022573	keystroke_r	r	n/a
511.5115	0.0755	1023023	keystroke_e	e	n/a
511.646	0.1205	1023292	keystroke_m	m	n/a
511.8415	0.119	1023683	keystroke_e	e	n/a
512.0215	0.104	1024043	keystroke_n	n	n/a
512.1555	0.076	1024311	keystroke_t	t	n/a
512.3505	0.061	1024701	keystroke_s	s	n/a
512.4705	0.075	1024941	keystroke_Key.space	Key.space	n/a
512.6205	0.105	1025241	keystroke_c	c	n/a
512.846	0.06	1025692	keystroke_r	r	n/a
513.0115	0.12	1026023	keystroke_a	a	n/a
513.2055	0.105	1026411	keystroke_f	f	n/a
513.4605	0.076	1026921	keystroke_t	t	n/a
513.6415	0.059	1027283	keystroke_Key.space	Key.space	n/a
513.9705	0.105	1027941	keystroke_s	s	n/a
514.091	0.09	1028182	keystroke_u	u	n/a
514.331	0.045	1028662	keystroke_m	m	n/a
514.511	0.09	1029022	keystroke_m	m	n/a
514.676	0.045	1029352	keystroke_a	a	n/a
514.811	0.105	1029622	keystroke_r	r	n/a
514.946	0.09	1029892	keystroke_y	y	n/a
515.111	0.045	1030222	keystroke_Key.space	Key.space	n/a
515.2615	0.105	1030523	keystroke_c	c	n/a
515.3805	0.1055	1030761	keystroke_h	h	n/a
515.5905	0.12	1031181	keystroke_a	a	n/a
515.7705	0.1055	1031541	keystroke_r	r	n/a
515.9515	0.1195	1031903	keystroke_l	l	n/a
516.146	0.12	1032292	keystroke_i	i	n/a
516.296	0.09	1032592	keystroke_e	e	n/a
516.4905	0.0605	1032981	keystroke_Key.enter	Key.enter	n/a
516.5565	6.836	1033113	prompt	n/a	care indonesian essential peter\n
