onset	duration	sample	value	key	prompt_text
4.272	22.1065	8544	prompt	n/a	the quick brown fox jumps over a lazy dog\n
7.792	0	15584	keystroke_t	t	n/a
7.803	0.061	15606	keystroke_h	h	n/a
8.074	0.105	16148	keystroke_e	e	n/a
8.269	0.164	16538	keystroke_Key.space	Key.space	n/a
8.734	0.075	17468	keystroke_q	q	n/a
8.883	0.0905	17766	keystroke_u	u	n/a
9.244	0.09	18488	keystroke_i	i	n/a
9.454	0.105	18908	keystroke_c	c	n/a
9.619	0.105	19238	keystroke_k	k	n/a
9.829	0.12	19658	keystroke_Key.space	Key.space	n/a
11.148	0.1205	22296	keystroke_b	b	n/a
12.738	0.075	25476	keystroke_r	r	n/a
12.888	0.135	25776	keystroke_o	o	n/a
13.1135	0.105	26227	keystroke_w	w	n/a
13.2935	0.195	26587	keystroke_n	n	n/a
13.4585	0.165	26917	keystroke_Key.space	Key.space	n/a
13.6685	0.12	27337	keystroke_f	f	n/a
13.7735	0.1205	27547	keystroke_o	o	n/a
14.0285	0.1205	28057	keystroke_x	x	n/a
14.1935	0.15	28387	keystroke_Key.space	Key.space	n/a
14.4335	0.09	28867	keystroke_j	j	n/a
14.6735	0.0605	29347	keystroke_u	u	n/a
14.9135	0.135	29827	keystroke_m	m	n/a
15.3335	0.1655	30667	keystroke_s	s	n/a
15.4235	0.12	30847	keystroke_Key.space	Key.space	n/a
16.308	0.0755	32616	keystroke_Key.backspace	Key.backspace	n/a
16.6835	0.0905	33367	keystroke_o	o	n/a
17.6585	0.0755	35317	keystroke_Key.backspace	Key.backspace	n/a
17.8535	0.1055	35707	keystroke_Key.backspace	Key.backspace	n/a
18.619	0.105	37238	keystroke_p	p	n/a
18.784	0.165	37568	keystroke_s	s	n/a
18.888	0.166	37776	keystroke_Key.space	Key.space	n/a
19.114	0.135	38228	keystroke_o	o	n/a
19.2935	0.151	38587	keystroke_v	v	n/a
19.5635	0.211	39127	keystroke_e	e	n/a
19.759	0.1345	39518	keystroke_r	r	n/a
19.8785	0.1495	39757	keystroke_Key.space	Key.space	n/a
20.044	0.194	40088	keystroke_a	a	n/a
20.164	0.12	40328	keystroke_Key.space	Key.space	n/a
20.3595	0.1645	40719	keystroke_l	l	n/a
20.509	0.1195	41018	keystroke_a	a	n/a
20.7785	0.18	41557	keystroke_z	z	n/a
21.034	0.0595	42068	keystroke_y	y	n/a
21.423	0.151	42846	keystroke_Key.space	Key.space	n/a
21.634	0.119	43268	keystroke_f	f	n/a
21.769	0.089	43538	keystroke_o	o	n/a
22.008	0.1355	44016	keystroke_d	d	n/a
23.478	0.075	46956	keystroke_Key.backspace	Key.backspace	n/a
23.658	0.075	47316	keystroke_Key.backspace	Key.backspace	n/a
23.838	0.0755	47676	keystroke_Key.backspace	Key.backspace	n/a
24.168	0.121	48336	keystroke_d	d	n/a
24.9485	0.1355	49897	keystroke_o	o	n/a
25.279	0.074	50558	keystroke_g	g	n/a
26.283	0.09	52566	keystroke_Key.enter	Key.enter	n/a
26.384	11.4375	52768	prompt	n/a	disclaimer distance printing level\n
27.079	0.1495	54158	keystroke_d	d	n/a
27.7685	0.1355	55537	keystroke_i	i	n/a
27.9635	0.105	55927	keystroke_s	s	n/a
28.1885	0.18	56377	keystroke_c	c	n/a
28.6535	0.15	57307	keystroke_l	l	n/a
28.8935	0.165	57787	keystroke_a	a	n/a
30.364	0.09	60728	keystroke_i	i	n/a
30.6785	0.105	61357	keystroke_m	m	n/a
30.9485	0.27	61897	keystroke_e	e	n/a
31.2785	0.105	62557	keystroke_r	r	n/a
31.4735	0.1505	62947	keystroke_Key.space	Key.space	n/a
31.699	0.15	63398	keystroke_d	d	n/a
31.894	0.105	63788	keystroke_i	i	n/a
32.104	0.0595	64208	keystroke_s	s	n/a
32.809	0.06	65618	keystroke_t	t	n/a
33.019	0.1945	66038	keystroke_a	a	n/a
33.259	0.1195	66518	keystroke_n	n	n/a
33.574	0.105	67148	keystroke_c	c	n/a
33.844	0.149	67688	keystroke_e	e	n/a
34.054	0.1495	68108	keystroke_Key.space	Key.space	n/a
34.339	0.12	68678	keystroke_p	p	n/a
34.564	0.0895	69128	keystroke_r	r	n/a
34.714	0.074	69428	keystroke_i	i	n/a
34.9535	0.1045	69907	keystroke_n	n	n/a
35.2535	0.09	70507	keystroke_t	t	n/a
35.4035	0.0755	70807	keystroke_i	i	n/a
35.6285	0.075	71257	keystroke_n	n	n/a
35.8385	0.1055	71677	keystroke_g	g	n/a
35.9885	0.135	71977	keystroke_Key.space	Key.space	n/a
36.2135	0.1655	72427	keystroke_l	l	n/a
36.3335	0.105	72667	keystroke_e	e	n/a
36.814	0.15	73628	keystroke_v	v	n/a
37.084	0.1195	74168	keystroke_e	e	n/a
37.279	0.1195	74558	keystroke_l	l	n/a
37.4585	0.1045	74917	keystroke_s	s	n/a
37.7285	0.0895	75457	keystroke_Key.enter	Key.enter	n/a
37.8265	15.2945	75653	prompt	n/a	logos constitutional approved bundle\n
38.8085	0.105	77617	keystroke_l	l	n/a
39.064	0.1345	78128	keystroke_o	o	n/a
39.289	0.0895	78578	keystroke_g	g	n/a
39.4235	0.1055	78847	keystroke_o	o	n/a
39.604	0.1045	79208	keystroke_s	s	n/a
39.7385	0.1505	79477	keystroke_Key.space	Key.space	n/a
39.9335	0.195	79867	keystroke_c	c	n/a
40.1135	0.09	80227	keystroke_o	o	n/a
40.3085	0.1205	80617	keystroke_n	n	n/a
40.564	0.09	81128	keystroke_s	s	n/a
41.074	0.0895	82148	keystroke_i	i	n/a
42.0785	0.075	84157	keystroke_Key.backspace	Key.backspace	n/a
42.859	0.12	85718	keystroke_t	t	n/a
43.1145	0.0735	86229	keystroke_i	i	n/a
43.3085	0.1055	86617	keystroke_t	t	n/a
43.549	0.0895	87098	keystroke_u	u	n/a
43.8335	0.0305	87667	keystroke_t	t	n/a
43.9685	0.1055	87937	keystroke_i	i	n/a
44.164	0.12	88328	keystroke_o	o	n/a
44.509	0.0445	89018	keystroke_n	n	n/a
44.5685	0.046	89137	keystroke_n	n	n/a
44.869	0.1205	89738	keystroke_a	a	n/a
45.094	0.1195	90188	keystroke_l	l	n/a
45.723	0.09	91446	keystroke_Key.backspace	Key.backspace	n/a
45.9185	0.075	91837	keystroke_Key.backspace	Key.backspace	n/a
46.114	0.0745	92228	keystroke_Key.backspace	Key.backspace	n/a
46.5785	0.1055	93157	keystroke_a	a	n/a
47.149	0.12	94298	keystroke_l	l	n/a
47.419	0.179	94838	keystroke_Key.space	Key.space	n/a
47.659	0.165	95318	keystroke_a	a	n/a
48.3185	0.045	96637	keystroke_p	p	n/a
48.514	0.105	97028	keystroke_p	p	n/a
48.739	0.105	97478	keystroke_r	r	n/a
48.889	0.09	97778	keystroke_o	o	n/a
49.099	0.15	98198	keystroke_v	v	n/a
49.354	0.105	98708	keystroke_e	e	n/a
49.5945	0.165	99189	keystroke_d	d	n/a
49.773	0.136	99546	keystroke_Key.space	Key.space	n/a
49.999	0.12	99998	keystroke_b	b	n/a
50.179	0.09	100358	keystroke_u	u	n/a
50.464	0.1045	100928	keystroke_n	n	n/a
50.644	0.18	101288	keystroke_d	d	n/a
51.228	0.091	102456	keystroke_l	l	n/a
51.364	0.105	102728	keystroke_e	e	n/a
53.0135	0.105	106027	keystroke_Key.enter	Key.enter	n/a
53.126	9.6395	106252	prompt	n/a	ghana frames browser stockings\n
54.004	0.1195	108008	keystroke_g	g	n/a
54.2585	0.1055	108517	keystroke_h	h	n/a
54.4845	0.1495	108969	keystroke_a	a	n/a
54.664	0.09	109328	keystroke_n	n	n/a
54.859	0.165	109718	keystroke_a	a	n/a
55.039	0.12	110078	keystroke_Key.space	Key.space	n/a
55.263	0.09	110526	keystroke_f	f	n/a
55.623	0.165	111246	keystroke_a	a	n/a
56.9585	0.105	113917	keystroke_Key.backspace	Key.backspace	n/a
57.229	0.09	114458	keystroke_r	r	n/a
57.409	0.1495	114818	keystroke_a	a	n/a
57.754	0.1195	115508	keystroke_m	m	n/a
57.8745	0.135	115749	keystroke_e	e	n/a
58.2485	0.135	116497	keystroke_s	s	n/a
58.4285	0.15	116857	keystroke_Key.space	Key.space	n/a
58.6235	0.105	117247	keystroke_b	b	n/a
58.9395	0.119	117879	keystroke_r	r	n/a
59.1035	0.135	118207	keystroke_o	o	n/a
59.343	0.12	118686	keystroke_w	w	n/a
59.658	0.1505	119316	keystroke_s	s	n/a
59.9135	0.2405	119827	keystroke_e	e	n/a
60.259	0.0895	120518	keystroke_r	r	n/a
60.3785	0.165	120757	keystroke_Key.space	Key.space	n/a
60.5885	0.18	121177	keystroke_s	s	n/a
60.8735	0.09	121747	keystroke_t	t	n/a
60.9935	0.121	121987	keystroke_o	o	n/a
61.234	0.165	122468	keystroke_c	c	n/a
61.428	0.091	122856	keystroke_k	k	n/a
61.668	0.061	123336	keystroke_i	i	n/a
61.8785	0.12	123757	keystroke_n	n	n/a
62.1785	0.1205	124357	keystroke_g	g	n/a
62.4335	0.0905	124867	keystroke_s	s	n/a
62.674	0.0895	125348	keystroke_Key.enter	Key.enter	n/a
62.7715	7.3285	125543	prompt	n/a	mardi path intranet lies\n
63.829	0.074	127658	keystroke_m	m	n/a
64.0685	0.165	128137	keystroke_a	a	n/a
64.2485	0.0895	128497	keystroke_r	r	n/a
64.474	0.165	128948	keystroke_d	d	n/a
64.624	0.105	129248	keystroke_i	i	n/a
64.804	0.18	129608	keystroke_Key.space	Key.space	n/a
64.999	0.1945	129998	keystroke_p	p	n/a
65.133	0.181	130266	keystroke_a	a	n/a
65.3885	0.105	130777	keystroke_t	t	n/a
65.509	0.0895	131018	keystroke_h	h	n/a
65.674	0.164	131348	keystroke_Key.space	Key.space	n/a
66.019	0.089	132038	keystroke_i	i	n/a
66.259	0.105	132518	keystroke_n	n	n/a
66.484	0.045	132968	keystroke_t	t	n/a
66.694	0.075	133388	keystroke_r	r	n/a
66.8735	0.1355	133747	keystroke_a	a	n/a
67.0685	0.1355	134137	keystroke_n	n	n/a
67.218	0.121	134436	keystroke_e	e	n/a
67.6685	0.105	135337	keystroke_t	t	n/a
67.7885	0.135	135577	keystroke_Key.space	Key.space	n/a
68.0435	0.0905	136087	keystroke_l	l	n/a
68.2835	0.105	136567	keystroke_i	i	n/a
68.4335	0.0895	136867	keystroke_e	e	n/a
68.703	0.12	137406	keystroke_s	s	n/a
70.0235	0.075	140047	keystroke_Key.enter	Key.enter	n/a
70.1035	13.633	140207	prompt	n/a	saying productions crimes rational\n
70.909	0.1345	141818	keystroke_s	s	n/a
71.149	0.15	142298	keystroke_a	a	n/a
71.373	0.076	142746	keystroke_y	y	n/a
71.628	0.12	143256	keystroke_i	i	n/a
71.884	0.1045	143768	keystroke_n	n	n/a
72.0635	0.105	144127	keystroke_g	g	n/a
72.2285	0.135	144457	keystroke_Key.space	Key.space	n/a
72.828	0.136	145656	keystroke_p	p	n/a
73.144	0.0745	146288	keystroke_r	r	n/a
73.2195	0.1195	146439	keystroke_o	o	n/a
73.4435	0.1055	146887	keystroke_d	d	n/a
73.7285	0.0905	147457	keystroke_u	u	n/a
73.909	0.18	147818	keystroke_c	c	n/a
75.0045	0.059	150009	keystroke_i	i	n/a
75.799	0.1045	151598	keystroke_Key.backspace	Key.backspace	n/a
76.0985	0.1055	152197	keystroke_t	t	n/a
76.264	0.1045	152528	keystroke_i	i	n/a
76.4435	0.1055	152887	keystroke_o	o	n/a
76.6685	0.12	153337	keystroke_n	n	n/a
76.8335	0.1505	153667	keystroke_s	s	n/a
77.014	0.15	154028	keystroke_Key.space	Key.space	n/a
77.509	0.195	155018	keystroke_c	c	n/a
79.4135	0.1205	158827	keystroke_r	r	n/a
79.609	0.105	159218	keystroke_i	i	n/a
79.879	0.1195	159758	keystroke_m	m	n/a
80.1185	0.12	160237	keystroke_e	e	n/a
80.3885	0.1495	160777	keystroke_s	s	n/a
80.5085	0.1495	161017	keystroke_Key.space	Key.space	n/a
80.763	0.105	161526	keystroke_r	r	n/a
80.9735	0.135	161947	keystroke_a	a	n/a
81.2735	0.1055	162547	keystroke_t	t	n/a
81.423	0.135	162846	keystroke_i	i	n/a
81.6185	0.1505	163237	keystroke_o	o	n/a
81.904	0.1195	163808	keystroke_n	n	n/a
82.0835	0.1355	164167	keystroke_a	a	n/a
82.2785	0.105	164557	keystroke_l	l	n/a
83.613	0.12	167226	keystroke_Key.enter	Key.enter	n/a
83.7415	8.574	167483	prompt	n/a	sitemap sales defend commit\n
84.543	0.1955	169086	keystroke_s	s	n/a
84.9185	0.1045	169837	keystroke_i	i	n/a
85.159	0.1195	170318	keystroke_t	t	n/a
85.384	0.1495	170768	keystroke_e	e	n/a
85.9235	0.135	171847	keystroke_m	m	n/a
86.1335	0.165	172267	keystroke_a	a	n/a
86.4035	0.15	172807	keystroke_p	p	n/a
86.6585	0.165	173317	keystroke_Key.space	Key.space	n/a
86.8685	0.09	173737	keystroke_s	s	n/a
87.138	0.1505	174276	keystroke_a	a	n/a
87.334	0.135	174668	keystroke_l	l	n/a
87.484	0.1345	174968	keystroke_e	e	n/a
87.814	0.1345	175628	keystroke_s	s	n/a
87.949	0.1495	175898	keystroke_Key.space	Key.space	n/a
88.129	0.12	176258	keystroke_d	d	n/a
88.429	0.135	176858	keystroke_e	e	n/a
88.713	0.1205	177426	keystroke_f	f	n/a
88.969	0.1345	177938	keystroke_e	e	n/a
89.2985	0.075	178597	keystroke_n	n	n/a
89.8985	0.12	179797	keystroke_d	d	n/a
90.0935	0.165	180187	keystroke_Key.space	Key.space	n/a
90.3635	0.1505	180727	keystroke_c	c	n/a
90.558	0.135	181116	keystroke_o	o	n/a
90.874	0.075	181748	keystroke_m	m	n/a
91.053	0.0905	182106	keystroke_m	m	n/a
91.248	0.1355	182496	keystroke_i	i	n/a
91.413	0.1055	182826	keystroke_t	t	n/a
92.209	0.1045	184418	keystroke_Key.enter	Key.enter	n/a
92.324	12.0515	184648	prompt	n/a	diploma alleged internationally she\n
93.184	0.18	186368	keystroke_d	d	n/a
93.3935	0.1355	186787	keystroke_i	i	n/a
93.664	0.059	187328	keystroke_s	s	n/a
94.2335	0.1055	188467	keystroke_Key.backspace	Key.backspace	n/a
95.029	0.1345	190058	keystroke_p	p	n/a
95.434	0.134	190868	keystroke_l	l	n/a
95.7335	0.135	191467	keystroke_o	o	n/a
96.0035	0.1505	192007	keystroke_m	m	n/a
96.753	0.136	193506	keystroke_a	a	n/a
96.918	0.166	193836	keystroke_Key.space	Key.space	n/a
97.129	0.1645	194258	keystroke_a	a	n/a
97.3085	0.045	194617	keystroke_l	l	n/a
97.5035	0.12	195007	keystroke_l	l	n/a
97.6535	0.135	195307	keystroke_e	e	n/a
98.3735	0.15	196747	keystroke_g	g	n/a
98.6135	0.12	197227	keystroke_e	e	n/a
98.8835	0.1355	197767	keystroke_d	d	n/a
99.034	0.1495	198068	keystroke_Key.space	Key.space	n/a
99.303	0.09	198606	keystroke_i	i	n/a
99.559	0.105	199118	keystroke_n	n	n/a
100.4885	0.0745	200977	keystroke_t	t	n/a
100.728	0.18	201456	keystroke_e	e	n/a
100.9685	0.105	201937	keystroke_r	r	n/a
101.1485	0.135	202297	keystroke_n	n	n/a
101.298	0.195	202596	keystroke_a	a	n/a
101.5985	0.12	203197	keystroke_t	t	n/a
101.749	0.225	203498	keystroke_i	i	n/a
101.958	0.15	203916	keystroke_o	o	n/a
102.198	0.136	204396	keystroke_n	n	n/a
102.379	0.1795	204758	keystroke_a	a	n/a
102.589	0.09	205178	keystroke_l	l	n/a
102.7835	0.12	205567	keystroke_l	l	n/a
103.083	0.1205	206166	keystroke_y	y	n/a
103.3685	0.21	206737	keystroke_Key.space	Key.space	n/a
103.5935	0.1205	207187	keystroke_s	s	n/a
103.699	0.06	207398	keystroke_h	h	n/a
103.8795	0.119	207759	keystroke_e	e	n/a
104.238	0.136	208476	keystroke_Key.enter	Key.enter	n/a
104.38	15.7345	208760	prompt	n/a	protected attempting freelance recognition\n
105.154	0.1645	210308	keystroke_p	p	n/a
105.4535	0.09	210907	keystroke_r	r	n/a
105.5585	0.1345	211117	keystroke_o	o	n/a
105.843	0.136	211686	keystroke_t	t	n/a
106.069	0.105	212138	keystroke_e	e	n/a
106.369	0.1805	212738	keystroke_c	c	n/a
106.729	0.165	213458	keystroke_t	t	n/a
106.879	0.165	213758	keystroke_e	e	n/a
107.1785	0.135	214357	keystroke_d	d	n/a
107.359	0.1195	214718	keystroke_Key.space	Key.space	n/a
108.4995	0.239	216999	keystroke_a	a	n/a
108.799	0.0895	217598	keystroke_t	t	n/a
109.039	0.105	218078	keystroke_t	t	n/a
109.264	0.135	218528	keystroke_e	e	n/a
109.429	0.134	218858	keystroke_m	m	n/a
109.758	0.1355	219516	keystroke_p	p	n/a
109.9535	0.1195	219907	keystroke_t	t	n/a
110.104	0.104	220208	keystroke_i	i	n/a
110.359	0.105	220718	keystroke_n	n	n/a
110.5545	0.1045	221109	keystroke_g	g	n/a
110.749	0.1345	221498	keystroke_Key.space	Key.space	n/a
110.944	0.09	221888	keystroke_f	f	n/a
111.258	0.18	222516	keystroke_e	e	n/a
112.264	0.1045	224528	keystroke_Key.backspace	Key.backspace	n/a
112.5635	0.09	225127	keystroke_f	f	n/a
112.7885	0.15	225577	keystroke_r	r	n/a
113.0285	0.12	226057	keystroke_e	e	n/a
113.689	0.105	227378	keystroke_Key.backspace	Key.backspace	n/a
113.899	0.105	227798	keystroke_Key.backspace	Key.backspace	n/a
114.409	0.12	228818	keystroke_Key.backspace	Key.backspace	n/a
115.054	0.134	230108	keystroke_r	r	n/a
115.264	0.09	230528	keystroke_e	e	n/a
115.459	0.105	230918	keystroke_e	e	n/a
115.639	0.135	231278	keystroke_l	l	n/a
115.819	0.165	231638	keystroke_a	a	n/a
115.9535	0.1205	231907	keystroke_n	n	n/a
116.149	0.12	232298	keystroke_c	c	n/a
116.449	0.18	232898	keystroke_e	e	n/a
116.659	0.1645	233318	keystroke_Key.space	Key.space	n/a
116.929	0.1645	233858	keystroke_r	r	n/a
117.1235	0.1655	234247	keystroke_e	e	n/a
117.589	0.195	235178	keystroke_c	c	n/a
118.098	0.151	236196	keystroke_o	o	n/a
118.384	0.104	236768	keystroke_g	g	n/a
118.548	0.12	237096	keystroke_n	n	n/a
118.7885	0.106	237577	keystroke_i	i	n/a
119.1195	0.1495	238239	keystroke_t	t	n/a
119.2545	0.0895	238509	keystroke_i	i	n/a
119.4195	0.195	238839	keystroke_o	o	n/a
119.5995	0.089	239199	keystroke_n	n	n/a
120.004	0.105	240008	keystroke_Key.enter	Key.enter	n/a
120.1265	10.364	240253	prompt	n/a	each equity depression astrology\n
121.234	0.09	242468	keystroke_e	e	n/a
121.4435	0.1055	242887	keystroke_a	a	n/a
121.699	0.18	243398	keystroke_c	c	n/a
121.849	0.09	243698	keystroke_h	h	n/a
122.058	0.135	244116	keystroke_Key.space	Key.space	n/a
122.224	0.12	244448	keystroke_d	d	n/a
122.6735	0.1055	245347	keystroke_Key.backspace	Key.backspace	n/a
122.899	0.15	245798	keystroke_e	e	n/a
123.184	0.134	246368	keystroke_q	q	n/a
123.274	0.09	246548	keystroke_u	u	n/a
123.469	0.1495	246938	keystroke_i	i	n/a
123.7685	0.0605	247537	keystroke_t	t	n/a
123.844	0.105	247688	keystroke_y	y	n/a
124.068	0.135	248136	keystroke_Key.space	Key.space	n/a
124.2635	0.1205	248527	keystroke_d	d	n/a
124.7135	0.12	249427	keystroke_e	e	n/a
124.9385	0.1945	249877	keystroke_p	p	n/a
125.148	0.136	250296	keystroke_r	r	n/a
125.254	0.1495	250508	keystroke_e	e	n/a
125.8235	0.09	251647	keystroke_s	s	n/a
126.0635	0.15	252127	keystroke_s	s	n/a
126.1985	0.1205	252397	keystroke_i	i	n/a
126.4085	0.1205	252817	keystroke_o	o	n/a
126.6335	0.15	253267	keystroke_n	n	n/a
126.8135	0.2095	253627	keystroke_Key.space	Key.space	n/a
127.039	0.1795	254078	keystroke_a	a	n/a
127.309	0.1645	254618	keystroke_s	s	n/a
127.713	0.075	255426	keystroke_t	t	n/a
127.969	0.0895	255938	keystroke_r	r	n/a
128.224	0.1645	256448	keystroke_o	o	n/a
128.5685	0.1055	257137	keystroke_l	l	n/a
128.823	0.121	257646	keystroke_o	o	n/a
129.003	0.091	258006	keystroke_g	g	n/a
129.169	0.0445	258338	keystroke_y	y	n/a
130.3685	0.1205	260737	keystroke_Key.enter	Key.enter	n/a
130.496	10.4945	260992	prompt	n/a	heater antonio bathroom watches\n
131.314	0.105	262628	keystroke_h	h	n/a
131.5085	0.12	263017	keystroke_e	e	n/a
131.748	0.166	263496	keystroke_a	a	n/a
132.064	0.1195	264128	keystroke_t	t	n/a
132.2885	0.166	264577	keystroke_e	e	n/a
133.0685	0.126	266137	keystroke_r	r	n/a
133.293	0.151	266586	keystroke_Key.space	Key.space	n/a
133.474	0.18	266948	keystroke_a	a	n/a
133.609	0.105	267218	keystroke_n	n	n/a
133.8635	0.0905	267727	keystroke_t	t	n/a
134.0285	0.1205	268057	keystroke_o	o	n/a
134.2835	0.1045	268567	keystroke_n	n	n/a
134.524	0.075	269048	keystroke_i	i	n/a
134.7035	0.195	269407	keystroke_o	o	n/a
134.839	0.1945	269678	keystroke_Key.space	Key.space	n/a
135.1085	0.0755	270217	keystroke_b	b	n/a
135.814	0.15	271628	keystroke_a	a	n/a
136.099	0.12	272198	keystroke_t	t	n/a
136.234	0.06	272468	keystroke_h	h	n/a
136.459	0.105	272918	keystroke_r	r	n/a
136.609	0.0895	273218	keystroke_o	o	n/a
136.8035	0.1055	273607	keystroke_o	o	n/a
137.0435	0.1805	274087	keystroke_m	m	n/a
137.1785	0.1805	274357	keystroke_Key.space	Key.space	n/a
138.154	0.135	276308	keystroke_w	w	n/a
138.379	0.179	276758	keystroke_a	a	n/a
138.6935	0.075	277387	keystroke_t	t	n/a
139.039	0.135	278078	keystroke_c	c	n/a
139.189	0.0895	278378	keystroke_h	h	n/a
140.254	0.09	280508	keystroke_e	e	n/a
140.494	0.135	280988	keystroke_s	s	n/a
140.8835	0.1045	281767	keystroke_Key.enter	Key.enter	n/a
140.9955	7.975	281991	prompt	n/a	ment class powers combining\n
141.9185	0.15	283837	keystroke_m	m	n/a
142.339	0.165	284678	keystroke_e	e	n/a
142.549	0.0745	285098	keystroke_n	n	n/a
142.879	0.105	285758	keystroke_t	t	n/a
143.074	0.1495	286148	keystroke_Key.space	Key.space	n/a
143.2995	0.149	286599	keystroke_c	c	n/a
143.4635	0.135	286927	keystroke_l	l	n/a
143.644	0.21	287288	keystroke_a	a	n/a
143.884	0.135	287768	keystroke_s	s	n/a
144.154	0.15	288308	keystroke_s	s	n/a
144.334	0.18	288668	keystroke_Key.space	Key.space	n/a
144.6645	0.135	289329	keystroke_p	p	n/a
144.9645	0.1495	289929	keystroke_o	o	n/a
145.2495	0.119	290499	keystroke_w	w	n/a
145.4595	0.18	290919	keystroke_e	e	n/a
145.8935	0.105	291787	keystroke_r	r	n/a
146.224	0.1355	292448	keystroke_s	s	n/a
146.4035	0.1655	292807	keystroke_Key.space	Key.space	n/a
146.6585	0.1355	293317	keystroke_c	c	n/a
146.884	0.12	293768	keystroke_o	o	n/a
147.1235	0.1195	294247	keystroke_m	m	n/a
147.409	0.1195	294818	keystroke_b	b	n/a
147.5735	0.09	295147	keystroke_i	i	n/a
147.829	0.12	295658	keystroke_n	n	n/a
148.0985	0.09	296197	keystroke_i	i	n/a
148.3085	0.121	296617	keystroke_n	n	n/a
148.579	0.09	297158	keystroke_g	g	n/a
148.879	0.0895	297758	keystroke_Key.enter	Key.enter	n/a
148.9755	9.19	297951	prompt	n/a	regression incurred bowl wants\n
149.824	0.119	299648	keystroke_r	r	n/a
150.003	0.151	300006	keystroke_e	e	n/a
150.394	0.12	300788	keystroke_g	g	n/a
150.679	0.195	301358	keystroke_r	r	n/a
150.799	0.195	301598	keystroke_e	e	n/a
151.174	0.105	302348	keystroke_s	s	n/a
151.3835	0.135	302767	keystroke_s	s	n/a
151.5485	0.1205	303097	keystroke_i	i	n/a
151.743	0.136	303486	keystroke_o	o	n/a
151.999	0.12	303998	keystroke_n	n	n/a
152.328	0.166	304656	keystroke_Key.space	Key.space	n/a
152.629	0.06	305258	keystroke_i	i	n/a
152.839	0.1045	305678	keystroke_n	n	n/a
153.0485	0.1955	306097	keystroke_c	c	n/a
153.3635	0.0755	306727	keystroke_u	u	n/a
153.6185	0.105	307237	keystroke_r	r	n/a
153.829	0.18	307658	keystroke_r	r	n/a
153.9785	0.15	307957	keystroke_e	e	n/a
154.309	0.1195	308618	keystroke_d	d	n/a
154.4585	0.165	308917	keystroke_Key.space	Key.space	n/a
154.774	0.1045	309548	keystroke_b	b	n/a
154.9085	0.135	309817	keystroke_o	o	n/a
155.1785	0.1505	310357	keystroke_w	w	n/a
155.449	0.135	310898	keystroke_l	l	n/a
155.6885	0.1805	311377	keystroke_Key.space	Key.space	n/a
156.094	0.0895	312188	keystroke_w	w	n/a
156.3185	0.1795	312637	keystroke_a	a	n/a
156.4395	0.105	312879	keystroke_n	n	n/a
156.6485	0.105	313297	keystroke_t	t	n/a
156.9035	0.135	313807	keystroke_s	s	n/a
158.0585	0.105	316117	keystroke_Key.enter	Key.enter	n/a
158.169	10.2715	316338	prompt	n/a	museum seattle conferences menus\n
158.9435	0.1055	317887	keystroke_m	m	n/a
159.2735	0.1055	318547	keystroke_u	u	n/a
159.529	0.1345	319058	keystroke_s	s	n/a
159.7535	0.1505	319507	keystroke_e	e	n/a
160.248	0.0905	320496	keystroke_u	u	n/a
160.608	0.166	321216	keystroke_m	m	n/a
160.923	0.18	321846	keystroke_Key.space	Key.space	n/a
161.149	0.12	322298	keystroke_s	s	n/a
161.3735	0.1355	322747	keystroke_e	e	n/a
161.613	0.151	323226	keystroke_a	a	n/a
162.018	0.046	324036	keystroke_t	t	n/a
162.184	0.09	324368	keystroke_t	t	n/a
162.544	0.1195	325088	keystroke_l	l	n/a
162.739	0.1345	325478	keystroke_e	e	n/a
163.1735	0.165	326347	keystroke_Key.space	Key.space	n/a
163.369	0.21	326738	keystroke_c	c	n/a
163.7735	0.135	327547	keystroke_o	o	n/a
164.0285	0.075	328057	keystroke_n	n	n/a
164.2085	0.1955	328417	keystroke_f	f	n/a
164.4635	0.165	328927	keystroke_e	e	n/a
164.7485	0.1355	329497	keystroke_r	r	n/a
164.944	0.1495	329888	keystroke_e	e	n/a
165.1385	0.105	330277	keystroke_n	n	n/a
165.349	0.105	330698	keystroke_c	c	n/a
165.619	0.135	331238	keystroke_e	e	n/a
165.844	0.179	331688	keystroke_s	s	n/a
166.009	0.1495	332018	keystroke_Key.space	Key.space	n/a
166.2485	0.105	332497	keystroke_m	m	n/a
166.3985	0.18	332797	keystroke_e	e	n/a
166.5935	0.09	333187	keystroke_n	n	n/a
166.9095	0.1345	333819	keystroke_u	u	n/a
167.0585	0.105	334117	keystroke_s	s	n/a
168.2885	0.1495	336577	keystroke_Key.enter	Key.enter	n/a
168.4455	9.025	336891	prompt	n/a	explosion providence blind greek\n
169.159	0.1345	338318	keystroke_e	e	n/a
169.459	0.164	338918	keystroke_x	x	n/a
169.729	0.15	339458	keystroke_p	p	n/a
170.029	0.105	340058	keystroke_l	l	n/a
170.269	0.12	340538	keystroke_o	o	n/a
170.449	0.164	340898	keystroke_s	s	n/a
170.659	0.0895	341318	keystroke_i	i	n/a
170.869	0.1045	341738	keystroke_o	o	n/a
171.124	0.179	342248	keystroke_n	n	n/a
171.258	0.18	342516	keystroke_Key.space	Key.space	n/a
171.5585	0.1345	343117	keystroke_p	p	n/a
171.784	0.104	343568	keystroke_r	r	n/a
171.904	0.15	343808	keystroke_o	o	n/a
172.2485	0.135	344497	keystroke_v	v	n/a
172.4735	0.15	344947	keystroke_i	i	n/a
172.6385	0.1205	345277	keystroke_d	d	n/a
173.299	0.119	346598	keystroke_e	e	n/a
173.4935	0.0905	346987	keystroke_n	n	n/a
173.928	0.121	347856	keystroke_c	c	n/a
174.229	0.165	348458	keystroke_e	e	n/a
174.378	0.165	348756	keystroke_Key.space	Key.space	n/a
174.679	0.12	349358	keystroke_b	b	n/a
174.8595	0.104	349719	keystroke_l	l	n/a
175.113	0.075	350226	keystroke_i	i	n/a
175.3235	0.12	350647	keystroke_n	n	n/a
175.6685	0.1955	351337	keystroke_d	d	n/a
175.8785	0.135	351757	keystroke_Key.space	Key.space	n/a
176.1185	0.12	352237	keystroke_g	g	n/a
176.389	0.225	352778	keystroke_r	r	n/a
176.614	0.12	353228	keystroke_e	e	n/a
176.838	0.106	353676	keystroke_e	e	n/a
177.019	0.12	354038	keystroke_k	k	n/a
177.3785	0.09	354757	keystroke_Key.enter	Key.enter	n/a
177.4765	8.1985	354953	prompt	n/a	pubs sacred truly ranking\n
178.354	0.1645	356708	keystroke_p	p	n/a
178.6385	0.1045	357277	keystroke_u	u	n/a
178.8335	0.135	357667	keystroke_b	b	n/a
179.1185	0.1655	358237	keystroke_s	s	n/a
179.328	0.1505	358656	keystroke_Key.space	Key.space	n/a
179.524	0.075	359048	keystroke_s	s	n/a
179.749	0.1045	359498	keystroke_a	a	n/a
179.9735	0.1795	359947	keystroke_c	c	n/a
180.3185	0.15	360637	keystroke_r	r	n/a
180.4235	0.18	360847	keystroke_e	e	n/a
180.784	0.135	361568	keystroke_d	d	n/a
180.9195	0.179	361839	keystroke_Key.space	Key.space	n/a
181.3685	0.06	362737	keystroke_t	t	n/a
181.879	0.12	363758	keystroke_r	r	n/a
182.103	0.121	364206	keystroke_u	u	n/a
182.419	0.12	364838	keystroke_l	l	n/a
182.719	0.1045	365438	keystroke_y	y	n/a
183.003	0.165	366006	keystroke_Key.space	Key.space	n/a
183.228	0.105	366456	keystroke_r	r	n/a
183.394	0.1645	366788	keystroke_a	a	n/a
183.528	0.106	367056	keystroke_n	n	n/a
183.769	0.1045	367538	keystroke_k	k	n/a
184.024	0.134	368048	keystroke_i	i	n/a
184.219	0.18	368438	keystroke_n	n	n/a
184.414	0.1045	368828	keystroke_g	g	n/a
185.554	0.119	371108	keystroke_Key.enter	Key.enter	n/a
185.6805	8.4705	371361	prompt	n/a	pendant author corner housewives\n
186.5135	0.1355	373027	keystroke_p	p	n/a
186.739	0.12	373478	keystroke_e	e	n/a
186.874	0.09	373748	keystroke_n	n	n/a
187.068	0.1205	374136	keystroke_d	d	n/a
187.279	0.164	374558	keystroke_a	a	n/a
187.353	0.1205	374706	keystroke_n	n	n/a
187.6385	0.0745	375277	keystroke_t	t	n/a
188.163	0.1205	376326	keystroke_Key.space	Key.space	n/a
188.299	0.1795	376598	keystroke_a	a	n/a
188.464	0.0745	376928	keystroke_u	u	n/a
189.2435	0.105	378487	keystroke_t	t	n/a
189.3635	0.0595	378727	keystroke_h	h	n/a
189.5285	0.1495	379057	keystroke_o	o	n/a
189.7235	0.09	379447	keystroke_r	r	n/a
189.9035	0.1345	379807	keystroke_Key.space	Key.space	n/a
190.0985	0.1945	380197	keystroke_c	c	n/a
190.263	0.091	380526	keystroke_o	o	n/a
190.518	0.136	381036	keystroke_r	r	n/a
190.774	0.09	381548	keystroke_n	n	n/a
190.924	0.18	381848	keystroke_e	e	n/a
191.284	0.104	382568	keystroke_r	r	n/a
191.4185	0.15	382837	keystroke_Key.space	Key.space	n/a
191.629	0.1195	383258	keystroke_h	h	n/a
191.7935	0.225	383587	keystroke_o	o	n/a
191.9885	0.135	383977	keystroke_u	u	n/a
192.1385	0.1345	384277	keystroke_s	s	n/a
192.363	0.1505	384726	keystroke_e	e	n/a
193.053	0.2255	386106	keystroke_w	w	n/a
193.2935	0.015	386587	keystroke_i	i	n/a
193.3685	0.1495	386737	keystroke_v	v	n/a
193.609	0.104	387218	keystroke_e	e	n/a
193.819	0.1495	387638	keystroke_s	s	n/a
194.0885	0.0605	388177	keystroke_Key.enter	Key.enter	n/a
194.1555	11.8455	388311	prompt	n/a	automated requesting measured bridge\n
195.048	0.181	390096	keystroke_a	a	n/a
195.244	0.075	390488	keystroke_u	u	n/a
195.514	0.12	391028	keystroke_t	t	n/a
195.649	0.09	391298	keystroke_o	o	n/a
195.874	0.104	391748	keystroke_m	m	n/a
196.0235	0.1955	392047	keystroke_a	a	n/a
196.279	0.149	392558	keystroke_t	t	n/a
196.3985	0.165	392797	keystroke_e	e	n/a
196.7285	0.1355	393457	keystroke_d	d	n/a
196.8335	0.165	393667	keystroke_Key.space	Key.space	n/a
197.1635	0.1805	394327	keystroke_r	r	n/a
197.358	0.166	394716	keystroke_e	e	n/a
197.644	0.135	395288	keystroke_q	q	n/a
197.823	0.1205	395646	keystroke_u	u	n/a
197.9585	0.1205	395917	keystroke_e	e	n/a
198.184	0.195	396368	keystroke_s	s	n/a
198.589	0.1195	397178	keystroke_t	t	n/a
198.6935	0.135	397387	keystroke_i	i	n/a
198.949	0.09	397898	keystroke_n	n	n/a
199.114	0.12	398228	keystroke_g	g	n/a
199.2785	0.105	398557	keystroke_Key.space	Key.space	n/a
199.5485	0.105	399097	keystroke_m	m	n/a
199.684	0.12	399368	keystroke_e	e	n/a
199.894	0.1495	399788	keystroke_a	a	n/a
200.1635	0.1495	400327	keystroke_s	s	n/a
200.2985	0.12	400597	keystroke_u	u	n/a
200.5235	0.165	401047	keystroke_r	r	n/a
200.6435	0.135	401287	keystroke_e	e	n/a
200.929	0.15	401858	keystroke_d	d	n/a
201.0485	0.195	402097	keystroke_Key.space	Key.space	n/a
201.3185	0.105	402637	keystroke_b	b	n/a
201.7685	0.105	403537	keystroke_i	i	n/a
201.9185	0.1805	403837	keystroke_d	d	n/a
203.793	0.135	407586	keystroke_Key.backspace	Key.backspace	n/a
203.9435	0.0445	407887	keystroke_Key.backspace	Key.backspace	n/a
204.574	0.1045	409148	keystroke_r	r	n/a
204.7535	0.1045	409507	keystroke_i	i	n/a
204.948	0.181	409896	keystroke_d	d	n/a
205.339	0.134	410678	keystroke_g	g	n/a
205.5495	0.1345	411099	keystroke_e	e	n/a
205.9085	0.09	411817	keystroke_Key.enter	Key.enter	n/a
206.008	11.8725	412016	prompt	n/a	accuracy nominations usps grain\n
206.9445	0.104	413889	keystroke_a	a	n/a
207.169	0.105	414338	keystroke_c	c	n/a
207.349	0.165	414698	keystroke_c	c	n/a
207.574	0.12	415148	keystroke_u	u	n/a
207.754	0.105	415508	keystroke_r	r	n/a
207.919	0.135	415838	keystroke_a	a	n/a
208.159	0.18	416318	keystroke_c	c	n/a
208.309	0.105	416618	keystroke_y	y	n/a
208.579	0.165	417158	keystroke_Key.space	Key.space	n/a
208.804	0.105	417608	keystroke_n	n	n/a
209.568	0.166	419136	keystroke_o	o	n/a
210.093	0.091	420186	keystroke_i	i	n/a
210.364	0.105	420728	keystroke_n	n	n/a
210.874	0.075	421748	keystroke_Key.backspace	Key.backspace	n/a
211.069	0.075	422138	keystroke_Key.backspace	Key.backspace	n/a
211.444	0.059	422888	keystroke_m	m	n/a
211.8035	0.0905	423607	keystroke_i	i	n/a
212.0595	0.104	424119	keystroke_n	n	n/a
212.2235	0.1955	424447	keystroke_a	a	n/a
212.554	0.119	425108	keystroke_t	t	n/a
212.6885	0.0745	425377	keystroke_i	i	n/a
212.853	0.195	425706	keystroke_o	o	n/a
213.063	0.106	426126	keystroke_n	n	n/a
213.274	0.18	426548	keystroke_s	s	n/a
213.484	0.09	426968	keystroke_Key.space	Key.space	n/a
213.859	0.12	427718	keystroke_s	s	n/a
214.009	0.06	428018	keystroke_u	u	n/a
214.428	0.061	428856	keystroke_Key.backspace	Key.backspace	n/a
214.593	0.076	429186	keystroke_Key.backspace	Key.backspace	n/a
214.939	0.075	429878	keystroke_u	u	n/a
215.6735	0.12	431347	keystroke_s	s	n/a
215.899	0.18	431798	keystroke_p	p	n/a
216.1385	0.15	432277	keystroke_s	s	n/a
216.3635	0.165	432727	keystroke_Key.space	Key.space	n/a
216.6185	0.09	433237	keystroke_g	g	n/a
216.859	0.12	433718	keystroke_r	r	n/a
217.024	0.1945	434048	keystroke_a	a	n/a
217.2485	0.09	434497	keystroke_i	i	n/a
217.4885	0.12	434977	keystroke_n	n	n/a
217.804	0.075	435608	keystroke_Key.enter	Key.enter	n/a
217.8845	7.3305	435769	prompt	n/a	geneva kent meetup clearing\n
218.7485	0.0755	437497	keystroke_g	g	n/a
218.989	0.15	437978	keystroke_e	e	n/a
219.154	0.105	438308	keystroke_n	n	n/a
219.304	0.1355	438608	keystroke_e	e	n/a
219.589	0.1345	439178	keystroke_v	v	n/a
219.829	0.164	439658	keystroke_a	a	n/a
219.963	0.136	439926	keystroke_Key.space	Key.space	n/a
220.174	0.12	440348	keystroke_k	k	n/a
220.309	0.1965	440618	keystroke_e	e	n/a
220.4435	0.09	440887	keystroke_n	n	n/a
220.699	0.1065	441398	keystroke_t	t	n/a
220.8335	0.135	441667	keystroke_Key.space	Key.space	n/a
221.0445	0.119	442089	keystroke_m	m	n/a
221.208	0.075	442416	keystroke_e	e	n/a
221.419	0.104	442838	keystroke_e	e	n/a
221.658	0.105	443316	keystroke_t	t	n/a
221.869	0.12	443738	keystroke_u	u	n/a
222.109	0.15	444218	keystroke_p	p	n/a
222.318	0.1805	444636	keystroke_Key.space	Key.space	n/a
222.5135	0.135	445027	keystroke_c	c	n/a
222.7085	0.1355	445417	keystroke_l	l	n/a
222.8585	0.105	445717	keystroke_e	e	n/a
223.0535	0.195	446107	keystroke_a	a	n/a
223.4435	0.1205	446887	keystroke_r	r	n/a
223.668	0.076	447336	keystroke_i	i	n/a
223.879	0.09	447758	keystroke_n	n	n/a
224.0285	0.0905	448057	keystroke_g	g	n/a
225.109	0.1045	450218	keystroke_Key.enter	Key.enter	n/a
225.219	8.8615	450438	prompt	n/a	engineer whole katie chubby\n
225.948	0.1355	451896	keystroke_e	e	n/a
226.0685	0.12	452137	keystroke_n	n	n/a
226.2785	0.1195	452557	keystroke_g	g	n/a
226.518	0.09	453036	keystroke_i	i	n/a
226.7435	0.1045	453487	keystroke_n	n	n/a
226.893	0.1205	453786	keystroke_e	e	n/a
227.1035	0.135	454207	keystroke_e	e	n/a
227.3135	0.12	454627	keystroke_r	r	n/a
227.4485	0.15	454897	keystroke_Key.space	Key.space	n/a
227.6285	0.1495	455257	keystroke_w	w	n/a
227.779	0.0745	455558	keystroke_h	h	n/a
227.8985	0.1195	455797	keystroke_o	o	n/a
228.1535	0.1345	456307	keystroke_l	l	n/a
228.334	0.134	456668	keystroke_e	e	n/a
228.4985	0.1195	456997	keystroke_Key.space	Key.space	n/a
228.889	0.059	457778	keystroke_k	k	n/a
228.978	0.1655	457956	keystroke_a	a	n/a
229.308	0.076	458616	keystroke_t	t	n/a
229.3985	0.1045	458797	keystroke_i	i	n/a
229.563	0.1205	459126	keystroke_e	e	n/a
229.6985	0.135	459397	keystroke_Key.space	Key.space	n/a
229.8935	0.15	459787	keystroke_c	c	n/a
229.9985	0.0905	459997	keystroke_h	h	n/a
230.2535	0.0755	460507	keystroke_u	u	n/a
230.629	0.09	461258	keystroke_b	b	n/a
230.838	0.1055	461676	keystroke_b	b	n/a
230.9885	0.105	461977	keystroke_y	y	n/a
231.7535	0.075	463507	keystroke_'	'	n/a
233.599	0.045	467198	keystroke_Key.backspace	Key.backspace	n/a
233.989	0.089	467978	keystroke_Key.enter	Key.enter	n/a
234.0845	6.131	468169	prompt	n/a	paths income kent defend\n
234.784	0.15	469568	keystroke_p	p	n/a
234.919	0.119	469838	keystroke_a	a	n/a
235.158	0.121	470316	keystroke_t	t	n/a
235.264	0.075	470528	keystroke_h	h	n/a
235.594	0.12	471188	keystroke_s	s	n/a
235.7585	0.1495	471517	keystroke_Key.space	Key.space	n/a
235.999	0.0745	471998	keystroke_i	i	n/a
236.238	0.09	472476	keystroke_n	n	n/a
236.3585	0.1495	472717	keystroke_c	c	n/a
236.4935	0.0895	472987	keystroke_o	o	n/a
236.703	0.09	473406	keystroke_m	m	n/a
236.838	0.15	473676	keystroke_e	e	n/a
236.9585	0.15	473917	keystroke_Key.space	Key.space	n/a
237.2285	0.105	474457	keystroke_k	k	n/a
237.408	0.136	474816	keystroke_e	e	n/a
237.514	0.09	475028	keystroke_n	n	n/a
238.008	0.106	476016	keystroke_t	t	n/a
238.488	0.1655	476976	keystroke_Key.space	Key.space	n/a
238.7285	0.12	477457	keystroke_d	d	n/a
238.9835	0.1495	477967	keystroke_e	e	n/a
239.209	0.15	478418	keystroke_f	f	n/a
239.4485	0.1355	478897	keystroke_e	e	n/a
239.598	0.105	479196	keystroke_n	n	n/a
239.7635	0.1345	479527	keystroke_d	d	n/a
240.123	0.0905	480246	keystroke_Key.enter	Key.enter	n/a
240.22	9.1005	480440	prompt	n/a	winners advisors hydrocodone donor\n
241.0535	0.1205	482107	keystroke_w	w	n/a
241.639	0.1045	483278	keystroke_i	i	n/a
241.893	0.075	483786	keystroke_n	n	n/a
242.104	0.074	484208	keystroke_n	n	n/a
242.193	0.225	484386	keystroke_e	e	n/a
242.403	0.121	484806	keystroke_r	r	n/a
242.6585	0.1645	485317	keystroke_s	s	n/a
242.7935	0.1645	485587	keystroke_Key.space	Key.space	n/a
242.929	0.1645	485858	keystroke_a	a	n/a
243.124	0.1945	486248	keystroke_d	d	n/a
243.498	0.12	486996	keystroke_v	v	n/a
243.694	0.12	487388	keystroke_i	i	n/a
243.874	0.179	487748	keystroke_s	s	n/a
244.039	0.1795	488078	keystroke_o	o	n/a
244.2485	0.1195	488497	keystroke_r	r	n/a
244.504	0.134	489008	keystroke_s	s	n/a
244.653	0.1205	489306	keystroke_Key.space	Key.space	n/a
245.0135	0.105	490027	keystroke_h	h	n/a
245.298	0.09	490596	keystroke_y	y	n/a
245.538	0.1355	491076	keystroke_d	d	n/a
245.8385	0.1345	491677	keystroke_r	r	n/a
245.988	0.1205	491976	keystroke_o	o	n/a
246.2435	0.15	492487	keystroke_c	c	n/a
246.4085	0.15	492817	keystroke_o	o	n/a
247.0235	0.21	494047	keystroke_d	d	n/a
247.249	0.1045	494498	keystroke_o	o	n/a
247.5035	0.12	495007	keystroke_n	n	n/a
247.6835	0.12	495367	keystroke_e	e	n/a
247.8635	0.1645	495727	keystroke_Key.space	Key.space	n/a
248.163	0.1805	496326	keystroke_d	d	n/a
248.358	0.09	496716	keystroke_o	o	n/a
248.5385	0.105	497077	keystroke_n	n	n/a
248.7185	0.1345	497437	keystroke_o	o	n/a
248.9435	0.045	497887	keystroke_r	r	n/a
249.2275	0.091	498455	keystroke_Key.enter	Key.enter	n/a
249.3255	8.185	498651	prompt	n/a	clerk talks belt trying\n
250.219	0.1495	500438	keystroke_c	c	n/a
250.6085	0.2105	501217	keystroke_e	e	n/a
251.313	0.105	502626	keystroke_Key.backspace	Key.backspace	n/a
251.7485	0.09	503497	keystroke_l	l	n/a
251.9885	0.18	503977	keystroke_e	e	n/a
252.2285	0.089	504457	keystroke_r	r	n/a
252.378	0.0905	504756	keystroke_k	k	n/a
252.5885	0.165	505177	keystroke_Key.space	Key.space	n/a
252.813	0.0905	505626	keystroke_t	t	n/a
252.978	0.1805	505956	keystroke_a	a	n/a
253.1135	0.09	506227	keystroke_l	l	n/a
253.324	0.0895	506648	keystroke_k	k	n/a
253.473	0.15	506946	keystroke_s	s	n/a
253.638	0.1355	507276	keystroke_Key.space	Key.space	n/a
254.853	0.12	509706	keystroke_b	b	n/a
255.123	0.1505	510246	keystroke_e	e	n/a
255.2435	0.0905	510487	keystroke_l	l	n/a
255.559	0.1195	511118	keystroke_t	t	n/a
255.6785	0.135	511357	keystroke_Key.space	Key.space	n/a
255.8585	0.12	511717	keystroke_t	t	n/a
256.204	0.105	512408	keystroke_r	r	n/a
256.5485	0.09	513097	keystroke_y	y	n/a
256.8035	0.105	513607	keystroke_i	i	n/a
257.0135	0.09	514027	keystroke_n	n	n/a
257.134	0.105	514268	keystroke_g	g	n/a
257.434	0.0745	514868	keystroke_Key.enter	Key.enter	n/a
257.515	11.2455	515030	prompt	n/a	inspector exclusion pain compilation\n
258.3035	0.09	516607	keystroke_i	i	n/a
258.514	0.1195	517028	keystroke_n	n	n/a
258.6485	0.1505	517297	keystroke_s	s	n/a
258.7835	0.1505	517567	keystroke_p	p	n/a
258.9185	0.106	517837	keystroke_e	e	n/a
259.189	0.1495	518378	keystroke_c	c	n/a
259.5185	0.105	519037	keystroke_t	t	n/a
259.6535	0.15	519307	keystroke_o	o	n/a
259.834	0.1045	519668	keystroke_r	r	n/a
259.9535	0.15	519907	keystroke_Key.space	Key.space	n/a
260.553	0.135	521106	keystroke_e	e	n/a
260.884	0.134	521768	keystroke_x	x	n/a
261.169	0.1495	522338	keystroke_c	c	n/a
261.3335	0.12	522667	keystroke_l	l	n/a
261.649	0.0895	523298	keystroke_u	u	n/a
261.8735	0.1355	523747	keystroke_s	s	n/a
262.204	0.0745	524408	keystroke_o	o	n/a
263.058	0.0905	526116	keystroke_Key.backspace	Key.backspace	n/a
263.463	0.0305	526926	keystroke_i	i	n/a
263.5835	0.09	527167	keystroke_o	o	n/a
263.778	0.135	527556	keystroke_n	n	n/a
263.9885	0.1805	527977	keystroke_Key.space	Key.space	n/a
264.2885	0.1345	528577	keystroke_p	p	n/a
264.588	0.1805	529176	keystroke_a	a	n/a
264.663	0.09	529326	keystroke_i	i	n/a
264.874	0.1645	529748	keystroke_n	n	n/a
265.0535	0.165	530107	keystroke_Key.space	Key.space	n/a
265.369	0.1795	530738	keystroke_c	c	n/a
265.5185	0.135	531037	keystroke_o	o	n/a
265.894	0.164	531788	keystroke_m	m	n/a
266.268	0.18	532536	keystroke_p	p	n/a
266.628	0.09	533256	keystroke_i	i	n/a
266.8535	0.1495	533707	keystroke_l	l	n/a
267.138	0.136	534276	keystroke_a	a	n/a
267.8285	0.1195	535657	keystroke_t	t	n/a
267.933	0.1055	535866	keystroke_i	i	n/a
268.128	0.09	536256	keystroke_o	o	n/a
268.279	0.119	536558	keystroke_n	n	n/a
268.6685	0.0905	537337	keystroke_Key.enter	Key.enter	n/a
268.7655	10.9475	537531	prompt	n/a	twist fascinating category binary\n
269.7035	0.09	539407	keystroke_t	t	n/a
269.929	0.135	539858	keystroke_w	w	n/a
270.079	0.105	540158	keystroke_i	i	n/a
270.244	0.1795	540488	keystroke_s	s	n/a
270.558	0.09	541116	keystroke_t	t	n/a
270.6785	0.1795	541357	keystroke_Key.space	Key.space	n/a
270.918	0.1205	541836	keystroke_f	f	n/a
271.054	0.15	542108	keystroke_a	a	n/a
272.148	0.1055	544296	keystroke_s	s	n/a
272.3735	0.1805	544747	keystroke_c	c	n/a
272.7785	0.1195	545557	keystroke_i	i	n/a
273.063	0.1355	546126	keystroke_n	n	n/a
273.2435	0.165	546487	keystroke_a	a	n/a
273.5285	0.12	547057	keystroke_t	t	n/a
273.6335	0.09	547267	keystroke_i	i	n/a
273.8435	0.1055	547687	keystroke_n	n	n/a
273.9935	0.105	547987	keystroke_g	g	n/a
274.1285	0.165	548257	keystroke_Key.space	Key.space	n/a
274.3235	0.18	548647	keystroke_c	c	n/a
274.5635	0.21	549127	keystroke_a	a	n/a
274.8185	0.12	549637	keystroke_t	t	n/a
275.0285	0.1505	550057	keystroke_e	e	n/a
275.313	0.105	550626	keystroke_g	g	n/a
275.388	0.135	550776	keystroke_o	o	n/a
276.1985	0.105	552397	keystroke_r	r	n/a
276.4685	0.09	552937	keystroke_y	y	n/a
276.738	0.1505	553476	keystroke_Key.space	Key.space	n/a
277.069	0.12	554138	keystroke_b	b	n/a
277.203	0.0905	554406	keystroke_i	i	n/a
277.443	0.1205	554886	keystroke_n	n	n/a
277.5785	0.195	555157	keystroke_a	a	n/a
277.833	0.105	555666	keystroke_r	r	n/a
277.9235	0.1045	555847	keystroke_y	y	n/a
279.618	0.0905	559236	keystroke_Key.enter	Key.enter	n/a
279.7185	14.017	559437	prompt	n/a	regulatory baskets chapel overcome\n
280.9985	0.1205	561997	keystroke_r	r	n/a
281.179	0.179	562358	keystroke_e	e	n/a
284.9305	0.073	569861	keystroke_g	g	n/a
285.0485	0.06	570097	keystroke_u	u	n/a
285.2735	0.15	570547	keystroke_l	l	n/a
285.469	0.164	570938	keystroke_a	a	n/a
285.769	0.104	571538	keystroke_t	t	n/a
285.888	0.105	571776	keystroke_o	o	n/a
286.083	0.12	572166	keystroke_r	r	n/a
286.189	0.089	572378	keystroke_y	y	n/a
286.4585	0.12	572917	keystroke_Key.space	Key.space	n/a
286.653	0.15	573306	keystroke_b	b	n/a
286.833	0.1955	573666	keystroke_a	a	n/a
287.088	0.1805	574176	keystroke_s	s	n/a
287.2535	0.09	574507	keystroke_k	k	n/a
287.4635	0.135	574927	keystroke_e	e	n/a
287.7635	0.09	575527	keystroke_t	t	n/a
288.0185	0.165	576037	keystroke_s	s	n/a
288.1535	0.135	576307	keystroke_Key.space	Key.space	n/a
288.4085	0.1805	576817	keystroke_c	c	n/a
288.604	0.09	577208	keystroke_h	h	n/a
288.754	0.135	577508	keystroke_a	a	n/a
288.934	0.135	577868	keystroke_p	p	n/a
289.144	0.135	578288	keystroke_e	e	n/a
289.384	0.1795	578768	keystroke_l	l	n/a
289.533	0.21	579066	keystroke_Key.space	Key.space	n/a
289.923	0.151	579846	keystroke_o	o	n/a
290.3585	0.2105	580717	keystroke_v	v	n/a
290.6735	0.255	581347	keystroke_e	e	n/a
290.9135	0.105	581827	keystroke_r	r	n/a
291.2885	0.135	582577	keystroke_c	c	n/a
291.439	0.12	582878	keystroke_o	o	n/a
291.798	0.1205	583596	keystroke_e	e	n/a
292.7735	0.075	585547	keystroke_Key.backspace	Key.backspace	n/a
293.1635	0.06	586327	keystroke_m	m	n/a
293.3735	0.09	586747	keystroke_e	e	n/a
293.6435	0.09	587287	keystroke_Key.enter	Key.enter	n/a
293.74	13.7355	587480	prompt	n/a	continuing amazon theoretical front\n
294.513	0.211	589026	keystroke_c	c	n/a
295.5635	0.105	591127	keystroke_o	o	n/a
295.819	0.1045	591638	keystroke_n	n	n/a
296.119	0.1195	592238	keystroke_t	t	n/a
296.224	0.0595	592448	keystroke_i	i	n/a
296.433	0.09	592866	keystroke_n	n	n/a
296.718	0.105	593436	keystroke_u	u	n/a
297.093	0.091	594186	keystroke_i	i	n/a
297.4835	0.075	594967	keystroke_g	g	n/a
297.9335	0.09	595867	keystroke_Key.backspace	Key.backspace	n/a
298.2335	0.12	596467	keystroke_n	n	n/a
298.5335	0.1345	597067	keystroke_g	g	n/a
298.653	0.1505	597306	keystroke_Key.space	Key.space	n/a
298.849	0.1645	597698	keystroke_a	a	n/a
298.9685	0.105	597937	keystroke_m	m	n/a
299.2985	0.015	598597	keystroke_a	a	n/a
299.494	0.15	598988	keystroke_z	z	n/a
299.628	0.091	599256	keystroke_o	o	n/a
299.838	0.181	599676	keystroke_n	n	n/a
299.958	0.1655	599916	keystroke_Key.space	Key.space	n/a
300.3935	0.12	600787	keystroke_t	t	n/a
300.5585	0.045	601117	keystroke_h	h	n/a
301.0085	0.15	602017	keystroke_o	o	n/a
302.3135	0.105	604627	keystroke_Key.backspace	Key.backspace	n/a
302.598	0.135	605196	keystroke_e	e	n/a
302.793	0.121	605586	keystroke_o	o	n/a
303.1085	0.1205	606217	keystroke_r	r	n/a
303.288	0.165	606576	keystroke_e	e	n/a
303.588	0.091	607176	keystroke_t	t	n/a
303.708	0.121	607416	keystroke_i	i	n/a
303.9485	0.105	607897	keystroke_c	c	n/a
304.1885	0.165	608377	keystroke_a	a	n/a
304.2635	0.255	608527	keystroke_l	l	n/a
304.4285	0.1945	608857	keystroke_Key.space	Key.space	n/a
304.6095	0.119	609219	keystroke_f	f	n/a
304.8625	0.1215	609725	keystroke_r	r	n/a
304.9985	0.12	609997	keystroke_o	o	n/a
305.2535	0.06	610507	keystroke_m	m	n/a
306.4685	0.12	612937	keystroke_Key.backspace	Key.backspace	n/a
306.8285	0.12	613657	keystroke_n	n	n/a
307.1435	0.075	614287	keystroke_t	t	n/a
307.383	0.0905	614766	keystroke_Key.enter	Key.enter	n/a
307.48	10.4505	614960	prompt	n/a	affordable vulnerable recall operated\n
308.179	0.15	616358	keystroke_a	a	n/a
308.4185	0.075	616837	keystroke_f	f	n/a
308.5835	0.12	617167	keystroke_f	f	n/a
308.7335	0.1805	617467	keystroke_o	o	n/a
308.8835	0.075	617767	keystroke_r	r	n/a
309.1085	0.1495	618217	keystroke_d	d	n/a
309.3185	0.1495	618637	keystroke_a	a	n/a
309.5735	0.1345	619147	keystroke_b	b	n/a
309.723	0.12	619446	keystroke_l	l	n/a
309.8735	0.195	619747	keystroke_e	e	n/a
310.023	0.15	620046	keystroke_Key.space	Key.space	n/a
310.2335	0.165	620467	keystroke_v	v	n/a
311.0585	0.1055	622117	keystroke_u	u	n/a
311.3285	0.15	622657	keystroke_l	l	n/a
311.7335	0.106	623467	keystroke_n	n	n/a
311.9735	0.21	623947	keystroke_e	e	n/a
312.214	0.09	624428	keystroke_r	r	n/a
312.378	0.195	624756	keystroke_a	a	n/a
312.678	0.135	625356	keystroke_b	b	n/a
312.903	0.105	625806	keystroke_l	l	n/a
313.054	0.1645	626108	keystroke_e	e	n/a
313.1885	0.165	626377	keystroke_Key.space	Key.space	n/a
313.729	0.119	627458	keystroke_r	r	n/a
313.8785	0.1495	627757	keystroke_e	e	n/a
314.253	0.135	628506	keystroke_c	c	n/a
314.524	0.119	629048	keystroke_a	a	n/a
314.658	0.105	629316	keystroke_l	l	n/a
314.9135	0.165	629827	keystroke_l	l	n/a
315.033	0.1955	630066	keystroke_Key.space	Key.space	n/a
315.4085	0.135	630817	keystroke_o	o	n/a
315.7235	0.165	631447	keystroke_p	p	n/a
315.9035	0.195	631807	keystroke_e	e	n/a
316.1285	0.105	632257	keystroke_r	r	n/a
316.8035	0.225	633607	keystroke_a	a	n/a
317.0735	0.18	634147	keystroke_t	t	n/a
317.238	0.15	634476	keystroke_e	e	n/a
317.568	0.106	635136	keystroke_d	d	n/a
317.8385	0.09	635677	keystroke_Key.enter	Key.enter	n/a
317.9385	7.9265	635877	prompt	n/a	replacement picks module internet\n
318.934	0.164	637868	keystroke_r	r	n/a
319.068	0.181	638136	keystroke_e	e	n/a
319.2785	0.1055	638557	keystroke_p	p	n/a
319.519	0.165	639038	keystroke_l	l	n/a
319.609	0.135	639218	keystroke_a	a	n/a
319.819	0.15	639638	keystroke_c	c	n/a
320.103	0.1365	640206	keystroke_e	e	n/a
320.313	0.105	640626	keystroke_m	m	n/a
320.464	0.179	640928	keystroke_e	e	n/a
320.613	0.106	641226	keystroke_n	n	n/a
320.809	0.105	641618	keystroke_t	t	n/a
320.943	0.1505	641886	keystroke_Key.space	Key.space	n/a
321.154	0.135	642308	keystroke_p	p	n/a
321.364	0.135	642728	keystroke_i	i	n/a
321.6335	0.0895	643267	keystroke_c	c	n/a
321.739	0.119	643478	keystroke_k	k	n/a
321.9335	0.15	643867	keystroke_s	s	n/a
322.0985	0.1645	644197	keystroke_Key.space	Key.space	n/a
322.518	0.12	645036	keystroke_m	m	n/a
322.743	0.12	645486	keystroke_o	o	n/a
322.864	0.1645	645728	keystroke_d	d	n/a
323.194	0.014	646388	keystroke_u	u	n/a
323.358	0.12	646716	keystroke_l	l	n/a
323.493	0.15	646986	keystroke_e	e	n/a
323.644	0.164	647288	keystroke_Key.space	Key.space	n/a
324.273	0.076	648546	keystroke_i	i	n/a
324.498	0.09	648996	keystroke_n	n	n/a
324.708	0.1355	649416	keystroke_t	t	n/a
324.888	0.1355	649776	keystroke_e	e	n/a
325.009	0.134	650018	keystroke_r	r	n/a
325.173	0.1355	650346	keystroke_n	n	n/a
325.3085	0.1505	650617	keystroke_e	e	n/a
325.5635	0.09	651127	keystroke_t	t	n/a
325.743	0.1205	651486	keystroke_Key.enter	Key.enter	n/a
325.8695	9.101	651739	prompt	n/a	cattle stephen advisor cards\n
326.538	0.15	653076	keystroke_c	c	n/a
326.823	0.1655	653646	keystroke_a	a	n/a
327.108	0.061	654216	keystroke_t	t	n/a
327.274	0.0895	654548	keystroke_t	t	n/a
327.618	0.06	655236	keystroke_e	e	n/a
328.1135	0.09	656227	keystroke_Key.backspace	Key.backspace	n/a
328.4435	0.15	656887	keystroke_l	l	n/a
328.6535	0.105	657307	keystroke_e	e	n/a
328.8335	0.165	657667	keystroke_Key.space	Key.space	n/a
329.0435	0.2095	658087	keystroke_s	s	n/a
329.329	0.119	658658	keystroke_t	t	n/a
329.748	0.136	659496	keystroke_e	e	n/a
329.9735	0.12	659947	keystroke_p	p	n/a
330.1835	0.105	660367	keystroke_h	h	n/a
330.3485	0.12	660697	keystroke_e	e	n/a
330.5285	0.1805	661057	keystroke_n	n	n/a
330.693	0.1805	661386	keystroke_Key.space	Key.space	n/a
331.0835	0.12	662167	keystroke_a	a	n/a
331.2635	0.18	662527	keystroke_d	d	n/a
331.9835	0.1355	663967	keystroke_v	v	n/a
332.7185	0.1355	665437	keystroke_i	i	n/a
332.929	0.18	665858	keystroke_s	s	n/a
333.1095	0.1195	666219	keystroke_o	o	n/a
333.364	0.104	666728	keystroke_r	r	n/a
333.483	0.1505	666966	keystroke_Key.space	Key.space	n/a
333.709	0.135	667418	keystroke_c	c	n/a
333.965	0.179	667930	keystroke_a	a	n/a
334.1885	0.12	668377	keystroke_r	r	n/a
334.4135	0.1505	668827	keystroke_d	d	n/a
334.6535	0.12	669307	keystroke_s	s	n/a
334.8635	0.105	669727	keystroke_Key.enter	Key.enter	n/a
334.9755	8.1095	669951	prompt	n/a	metals albany litigation meet\n
335.8385	0.15	671677	keystroke_m	m	n/a
336.0035	0.15	672007	keystroke_e	e	n/a
336.2885	0.075	672577	keystroke_t	t	n/a
336.4685	0.18	672937	keystroke_a	a	n/a
336.9485	0.18	673897	keystroke_l	l	n/a
337.1135	0.15	674227	keystroke_s	s	n/a
337.2785	0.15	674557	keystroke_Key.space	Key.space	n/a
337.5335	0.15	675067	keystroke_a	a	n/a
337.9835	0.165	675967	keystroke_l	l	n/a
338.1935	0.165	676387	keystroke_b	b	n/a
338.4035	0.18	676807	keystroke_a	a	n/a
338.5985	0.105	677197	keystroke_n	n	n/a
338.8835	0.105	677767	keystroke_y	y	n/a
339.1085	0.135	678217	keystroke_Key.space	Key.space	n/a
339.289	0.149	678578	keystroke_l	l	n/a
339.753	0.1055	679506	keystroke_i	i	n/a
340.2485	0.09	680497	keystroke_t	t	n/a
340.3685	0.09	680737	keystroke_i	i	n/a
340.6085	0.0595	681217	keystroke_g	g	n/a
340.743	0.1805	681486	keystroke_a	a	n/a
341.0285	0.1195	682057	keystroke_t	t	n/a
341.134	0.105	682268	keystroke_i	i	n/a
341.3135	0.12	682627	keystroke_o	o	n/a
341.5535	0.18	683107	keystroke_n	n	n/a
341.763	0.1655	683526	keystroke_Key.space	Key.space	n/a
342.0185	0.1205	684037	keystroke_m	m	n/a
342.1535	0.0755	684307	keystroke_e	e	n/a
342.349	0.12	684698	keystroke_e	e	n/a
342.589	0.105	685178	keystroke_t	t	n/a
342.9785	0.105	685957	keystroke_Key.enter	Key.enter	n/a
343.088	8.337	686176	prompt	n/a	traveling tuition to rank\n
343.938	0.0755	687876	keystroke_t	t	n/a
344.133	0.09	688266	keystroke_r	r	n/a
344.2535	0.1355	688507	keystroke_a	a	n/a
344.508	0.151	689016	keystroke_v	v	n/a
344.809	0.12	689618	keystroke_e	e	n/a
344.914	0.105	689828	keystroke_l	l	n/a
345.153	0.0755	690306	keystroke_i	i	n/a
345.3045	0.119	690609	keystroke_n	n	n/a
345.4995	0.104	690999	keystroke_g	g	n/a
345.6185	0.1655	691237	keystroke_Key.space	Key.space	n/a
345.933	0.09	691866	keystroke_t	t	n/a
346.083	0.105	692166	keystroke_u	u	n/a
346.309	0.0895	692618	keystroke_i	i	n/a
346.6835	0.105	693367	keystroke_t	t	n/a
346.7435	0.12	693487	keystroke_i	i	n/a
346.9235	0.15	693847	keystroke_o	o	n/a
347.1635	0.1805	694327	keystroke_n	n	n/a
347.403	0.15	694806	keystroke_Key.space	Key.space	n/a
347.763	0.09	695526	keystroke_t	t	n/a
347.823	0.225	695646	keystroke_o	o	n/a
347.973	0.1805	695946	keystroke_Key.space	Key.space	n/a
348.123	0.105	696246	keystroke_r	r	n/a
348.409	0.119	696818	keystroke_n	n	n/a
348.693	0.12	697386	keystroke_k	k	n/a
349.173	0.09	698346	keystroke_Key.backspace	Key.backspace	n/a
349.3385	0.1045	698677	keystroke_Key.backspace	Key.backspace	n/a
349.609	0.164	699218	keystroke_a	a	n/a
350.6885	0.135	701377	keystroke_n	n	n/a
350.9435	0.105	701887	keystroke_k	k	n/a
351.3185	0.105	702637	keystroke_Key.enter	Key.enter	n/a
351.4295	11.6055	702859	prompt	n/a	fail achievements geology footage\n
352.3835	0.105	704767	keystroke_f	f	n/a
352.5785	0.165	705157	keystroke_a	a	n/a
352.819	0.0895	705638	keystroke_i	i	n/a
353.0435	0.225	706087	keystroke_l	l	n/a
353.1935	0.21	706387	keystroke_Key.space	Key.space	n/a
353.4335	0.1505	706867	keystroke_a	a	n/a
353.7185	0.165	707437	keystroke_c	c	n/a
353.8385	0.0605	707677	keystroke_h	h	n/a
354.018	0.0905	708036	keystroke_i	i	n/a
354.843	0.09	709686	keystroke_e	e	n/a
355.068	0.1505	710136	keystroke_v	v	n/a
355.3085	0.15	710617	keystroke_e	e	n/a
355.5185	0.105	711037	keystroke_m	m	n/a
355.6985	0.15	711397	keystroke_e	e	n/a
355.819	0.1045	711638	keystroke_n	n	n/a
355.998	0.105	711996	keystroke_t	t	n/a
356.2535	0.1495	712507	keystroke_s	s	n/a
356.358	0.15	712716	keystroke_Key.space	Key.space	n/a
356.689	0.014	713378	keystroke_g	g	n/a
356.7935	0.1795	713587	keystroke_e	e	n/a
356.913	0.12	713826	keystroke_o	o	n/a
357.228	0.1355	714456	keystroke_l	l	n/a
357.5135	0.09	715027	keystroke_o	o	n/a
357.678	0.135	715356	keystroke_g	g	n/a
357.828	0.105	715656	keystroke_y	y	n/a
358.068	0.165	716136	keystroke_Key.space	Key.space	n/a
358.2485	0.1205	716497	keystroke_f	f	n/a
358.413	0.046	716826	keystroke_o	o	n/a
358.594	0.1045	717188	keystroke_o	o	n/a
358.9685	0.105	717937	keystroke_t	t	n/a
359.149	0.1795	718298	keystroke_a	a	n/a
359.704	0.134	719408	keystroke_e	e	n/a
361.2185	0.105	722437	keystroke_Key.backspace	Key.backspace	n/a
362.3885	0.135	724777	keystroke_g	g	n/a
362.599	0.1495	725198	keystroke_e	e	n/a
362.9435	0.09	725887	keystroke_Key.enter	Key.enter	n/a
363.0405	7.5095	726081	prompt	n/a	maternity chuck beliefs bras\n
363.963	0.12	727926	keystroke_m	m	n/a
364.189	0.1345	728378	keystroke_e	e	n/a
364.4435	0.105	728887	keystroke_t	t	n/a
364.639	0.1345	729278	keystroke_e	e	n/a
364.743	0.106	729486	keystroke_r	r	n/a
364.999	0.0595	729998	keystroke_n	n	n/a
365.238	0.105	730476	keystroke_i	i	n/a
365.509	0.1195	731018	keystroke_t	t	n/a
365.6135	0.09	731227	keystroke_y	y	n/a
365.838	0.1355	731676	keystroke_Key.space	Key.space	n/a
365.9585	0.21	731917	keystroke_c	c	n/a
366.139	0.074	732278	keystroke_h	h	n/a
366.379	0.089	732758	keystroke_u	u	n/a
366.5885	0.195	733177	keystroke_c	c	n/a
366.753	0.15	733506	keystroke_k	k	n/a
367.083	0.1655	734166	keystroke_Key.space	Key.space	n/a
367.4885	0.105	734977	keystroke_b	b	n/a
367.714	0.1945	735428	keystroke_e	e	n/a
367.909	0.1195	735818	keystroke_l	l	n/a
368.1485	0.105	736297	keystroke_i	i	n/a
368.2385	0.15	736477	keystroke_e	e	n/a
368.8085	0.1355	737617	keystroke_f	f	n/a
369.0935	0.15	738187	keystroke_Key.space	Key.space	n/a
369.3035	0.105	738607	keystroke_b	b	n/a
369.6035	0.105	739207	keystroke_r	r	n/a
369.814	0.135	739628	keystroke_a	a	n/a
370.038	0.151	740076	keystroke_s	s	n/a
370.4435	0.1055	740887	keystroke_Key.enter	Key.enter	n/a
370.553	9.8675	741106	prompt	n/a	mpeg hampshire trailer circle\n
371.869	0.135	743738	keystroke_m	m	n/a
372.199	0.1495	744398	keystroke_p	p	n/a
372.3635	0.1205	744727	keystroke_e	e	n/a
372.6185	0.105	745237	keystroke_g	g	n/a
372.8135	0.15	745627	keystroke_Key.space	Key.space	n/a
373.1135	0.0605	746227	keystroke_n	n	n/a
373.7735	0.09	747547	keystroke_Key.backspace	Key.backspace	n/a
374.089	0.105	748178	keystroke_h	h	n/a
374.2985	0.1805	748597	keystroke_a	a	n/a
374.464	0.105	748928	keystroke_m	m	n/a
374.6885	0.1355	749377	keystroke_p	p	n/a
374.9885	0.1655	749977	keystroke_s	s	n/a
375.1085	0.0605	750217	keystroke_h	h	n/a
375.304	0.09	750608	keystroke_i	i	n/a
376.219	0.15	752438	keystroke_r	r	n/a
376.414	0.18	752828	keystroke_e	e	n/a
376.638	0.1805	753276	keystroke_Key.space	Key.space	n/a
376.8785	0.075	753757	keystroke_t	t	n/a
377.0885	0.09	754177	keystroke_r	r	n/a
377.284	0.15	754568	keystroke_a	a	n/a
377.4035	0.0755	754807	keystroke_i	i	n/a
377.6435	0.12	755287	keystroke_l	l	n/a
377.749	0.1945	755498	keystroke_e	e	n/a
377.9735	0.1055	755947	keystroke_r	r	n/a
378.2135	0.1505	756427	keystroke_Key.space	Key.space	n/a
378.379	0.195	756758	keystroke_c	c	n/a
378.634	0.0895	757268	keystroke_i	i	n/a
379.264	0.195	758528	keystroke_r	r	n/a
379.593	0.1505	759186	keystroke_c	c	n/a
379.7885	0.15	759577	keystroke_l	l	n/a
379.999	0.0895	759998	keystroke_e	e	n/a
380.2985	0.12	760597	keystroke_Key.enter	Key.enter	n/a
380.4255	10.09	760851	prompt	n/a	servers minus dont political\n
381.214	0.1195	762428	keystroke_s	s	n/a
381.4235	0.18	762847	keystroke_e	e	n/a
381.6935	0.0905	763387	keystroke_r	r	n/a
382.9385	0.12	765877	keystroke_v	v	n/a
383.179	0.21	766358	keystroke_e	e	n/a
383.374	0.09	766748	keystroke_r	r	n/a
383.584	0.1645	767168	keystroke_s	s	n/a
383.719	0.15	767438	keystroke_Key.space	Key.space	n/a
383.974	0.089	767948	keystroke_m	m	n/a
384.184	0.074	768368	keystroke_i	i	n/a
384.364	0.09	768728	keystroke_n	n	n/a
384.6335	0.105	769267	keystroke_u	u	n/a
384.798	0.136	769596	keystroke_s	s	n/a
384.934	0.1495	769868	keystroke_Key.space	Key.space	n/a
385.204	0.15	770408	keystroke_d	d	n/a
385.309	0.105	770618	keystroke_o	o	n/a
385.459	0.119	770918	keystroke_n	n	n/a
385.713	0.106	771426	keystroke_t	t	n/a
385.924	0.1345	771848	keystroke_Key.space	Key.space	n/a
386.164	0.1795	772328	keystroke_p	p	n/a
386.3285	0.1495	772657	keystroke_o	o	n/a
386.6135	0.1055	773227	keystroke_l	l	n/a
386.8085	0.0905	773617	keystroke_i	i	n/a
387.1085	0.12	774217	keystroke_i	i	n/a
387.3335	0.1195	774667	keystroke_c	c	n/a
387.6935	0.1055	775387	keystroke_a	a	n/a
387.8435	0.12	775687	keystroke_l	l	n/a
388.2785	0.075	776557	keystroke_Key.backspace	Key.backspace	n/a
388.4735	0.075	776947	keystroke_Key.backspace	Key.backspace	n/a
388.6535	0.0905	777307	keystroke_Key.backspace	Key.backspace	n/a
388.833	0.09	777666	keystroke_Key.backspace	Key.backspace	n/a
389.3735	0.09	778747	keystroke_t	t	n/a
389.4935	0.09	778987	keystroke_i	i	n/a
389.719	0.1195	779438	keystroke_c	c	n/a
389.944	0.135	779888	keystroke_a	a	n/a
390.094	0.1195	780188	keystroke_l	l	n/a
390.4085	0.105	780817	keystroke_Key.enter	Key.enter	n/a
390.5195	10.826	781039	prompt	n/a	rolling acknowledge destroyed share\n
391.3985	0.12	782797	keystroke_r	r	n/a
391.5335	0.09	783067	keystroke_o	o	n/a
391.7885	0.09	783577	keystroke_l	l	n/a
391.9685	0.0905	783937	keystroke_l	l	n/a
392.2085	0.075	784417	keystroke_i	i	n/a
392.3735	0.105	784747	keystroke_n	n	n/a
392.5385	0.105	785077	keystroke_g	g	n/a
392.6585	0.165	785317	keystroke_Key.space	Key.space	n/a
392.7785	0.1205	785557	keystroke_a	a	n/a
392.989	0.2095	785978	keystroke_c	c	n/a
393.8735	0.12	787747	keystroke_k	k	n/a
394.113	0.135	788226	keystroke_n	n	n/a
394.3085	0.1655	788617	keystroke_o	o	n/a
394.714	0.135	789428	keystroke_w	w	n/a
394.924	0.149	789848	keystroke_l	l	n/a
395.0585	0.1195	790117	keystroke_e	e	n/a
395.7185	0.0905	791437	keystroke_g	g	n/a
396.198	0.105	792396	keystroke_Key.backspace	Key.backspace	n/a
396.3495	0.1785	792699	keystroke_d	d	n/a
396.634	0.119	793268	keystroke_g	g	n/a
396.829	0.149	793658	keystroke_e	e	n/a
396.9935	0.1345	793987	keystroke_Key.space	Key.space	n/a
397.173	0.0905	794346	keystroke_d	d	n/a
397.5035	0.105	795007	keystroke_e	e	n/a
397.7285	0.21	795457	keystroke_s	s	n/a
398.1035	0.06	796207	keystroke_t	t	n/a
398.2985	0.09	796597	keystroke_r	r	n/a
398.4635	0.135	796927	keystroke_o	o	n/a
398.7335	0.105	797467	keystroke_y	y	n/a
398.9435	0.09	797887	keystroke_e	e	n/a
399.198	0.0905	798396	keystroke_d	d	n/a
399.273	0.1355	798546	keystroke_Key.space	Key.space	n/a
399.4235	0.1645	798847	keystroke_s	s	n/a
399.5285	0.105	799057	keystroke_h	h	n/a
399.709	0.1945	799418	keystroke_a	a	n/a
399.919	0.164	799838	keystroke_r	r	n/a
400.069	0.134	800138	keystroke_e	e	n/a
401.253	0.09	802506	keystroke_Key.enter	Key.enter	n/a
401.351	11.694	802702	prompt	n/a	electoral authority ecommerce timing\n
403.1435	0.09	806287	keystroke_e	e	n/a
403.383	0.1355	806766	keystroke_l	l	n/a
403.533	0.1205	807066	keystroke_e	e	n/a
403.8785	0.18	807757	keystroke_c	c	n/a
404.2385	0.12	808477	keystroke_t	t	n/a
404.4335	0.12	808867	keystroke_o	o	n/a
404.793	0.1045	809586	keystroke_r	r	n/a
405.003	0.165	810006	keystroke_a	a	n/a
405.2725	0.136	810545	keystroke_l	l	n/a
405.4525	0.1955	810905	keystroke_Key.space	Key.space	n/a
405.6625	0.15	811325	keystroke_a	a	n/a
405.933	0.09	811866	keystroke_u	u	n/a
406.1585	0.09	812317	keystroke_t	t	n/a
406.278	0.075	812556	keystroke_h	h	n/a
406.488	0.135	812976	keystroke_o	o	n/a
406.639	0.119	813278	keystroke_r	r	n/a
406.818	0.076	813636	keystroke_i	i	n/a
406.9685	0.1205	813937	keystroke_t	t	n/a
407.074	0.089	814148	keystroke_y	y	n/a
407.2835	0.1345	814567	keystroke_Key.space	Key.space	n/a
407.478	0.045	814956	keystroke_e	e	n/a
408.619	0.105	817238	keystroke_c	c	n/a
408.844	0.15	817688	keystroke_o	o	n/a
409.323	0.076	818646	keystroke_m	m	n/a
410.1325	0.1055	820265	keystroke_m	m	n/a
410.359	0.2395	820718	keystroke_e	e	n/a
410.6435	0.105	821287	keystroke_r	r	n/a
410.958	0.1205	821916	keystroke_c	c	n/a
411.2285	0.164	822457	keystroke_e	e	n/a
411.4085	0.134	822817	keystroke_Key.space	Key.space	n/a
411.6785	0.12	823357	keystroke_t	t	n/a
411.8135	0.0745	823627	keystroke_i	i	n/a
412.039	0.12	824078	keystroke_m	m	n/a
412.2625	0.136	824525	keystroke_i	i	n/a
412.3825	0.166	824765	keystroke_n	n	n/a
412.563	0.106	825126	keystroke_g	g	n/a
412.9685	0.075	825937	keystroke_Key.enter	Key.enter	n/a
413.05	9.355	826100	prompt	n/a	virus adipex keep snow\n
414.798	0.106	829596	keystroke_v	v	n/a
414.949	0.134	829898	keystroke_i	i	n/a
415.3985	0.0905	830797	keystroke_u	u	n/a
415.8935	0.105	831787	keystroke_Key.backspace	Key.backspace	n/a
416.059	0.1195	832118	keystroke_r	r	n/a
416.2985	0.03	832597	keystroke_u	u	n/a
416.404	0.1645	832808	keystroke_s	s	n/a
416.5835	0.135	833167	keystroke_Key.space	Key.space	n/a
417.0185	0.105	834037	keystroke_a	a	n/a
417.2435	0.1645	834487	keystroke_d	d	n/a
417.708	0.165	835416	keystroke_i	i	n/a
417.9935	0.165	835987	keystroke_p	p	n/a
418.699	0.089	837398	keystroke_e	e	n/a
418.9685	0.1645	837937	keystroke_x	x	n/a
419.343	0.165	838686	keystroke_Key.space	Key.space	n/a
419.734	0.1195	839468	keystroke_k	k	n/a
419.959	0.045	839918	keystroke_e	e	n/a
420.1535	0.075	840307	keystroke_e	e	n/a
420.2895	0.149	840579	keystroke_p	p	n/a
420.4685	0.165	840937	keystroke_Key.space	Key.space	n/a
420.6785	0.1655	841357	keystroke_s	s	n/a
420.8285	0.0745	841657	keystroke_n	n	n/a
420.994	0.149	841988	keystroke_o	o	n/a
421.174	0.1205	842348	keystroke_w	w	n/a
422.2835	0.12	844567	keystroke_Key.enter	Key.enter	n/a
422.41	9.2075	844820	prompt	n/a	peru elegant deutschland brief\n
423.1985	0.1045	846397	keystroke_p	p	n/a
423.348	0.1805	846696	keystroke_e	e	n/a
423.6185	0.09	847237	keystroke_r	r	n/a
423.768	0.105	847536	keystroke_u	u	n/a
424.0235	0.15	848047	keystroke_Key.space	Key.space	n/a
424.1885	0.135	848377	keystroke_e	e	n/a
424.3235	0.135	848647	keystroke_l	l	n/a
424.5335	0.15	849067	keystroke_e	e	n/a
424.8635	0.12	849727	keystroke_g	g	n/a
425.0885	0.165	850177	keystroke_a	a	n/a
425.2235	0.105	850447	keystroke_n	n	n/a
425.4785	0.135	850957	keystroke_t	t	n/a
425.5985	0.1345	851197	keystroke_Key.space	Key.space	n/a
426.213	0.09	852426	keystroke_d	d	n/a
426.453	0.166	852906	keystroke_e	e	n/a
426.7835	0.09	853567	keystroke_u	u	n/a
427.053	0.09	854106	keystroke_t	t	n/a
427.3085	0.1495	854617	keystroke_s	s	n/a
427.5935	0.15	855187	keystroke_c	c	n/a
427.7285	0.105	855457	keystroke_h	h	n/a
428.0135	0.15	856027	keystroke_l	l	n/a
428.1785	0.135	856357	keystroke_a	a	n/a
428.2835	0.1195	856567	keystroke_n	n	n/a
428.448	0.18	856896	keystroke_d	d	n/a
428.613	0.165	857226	keystroke_Key.space	Key.space	n/a
428.868	0.106	857736	keystroke_b	b	n/a
429.1535	0.135	858307	keystroke_r	r	n/a
429.3035	0.12	858607	keystroke_i	i	n/a
429.454	0.1345	858908	keystroke_d	d	n/a
429.723	0.1055	859446	keystroke_e	e	n/a
430.323	0.06	860646	keystroke_Key.backspace	Key.backspace	n/a
430.5185	0.0595	861037	keystroke_Key.backspace	Key.backspace	n/a
430.788	0.15	861576	keystroke_e	e	n/a
431.058	0.09	862116	keystroke_f	f	n/a
431.463	0.15	862926	keystroke_Key.enter	Key.enter	n/a
431.622	11.543	863244	prompt	n/a	describes comparing maintenance gathered\n
432.378	0.09	864756	keystroke_d	d	n/a
432.619	0.105	865238	keystroke_e	e	n/a
432.7985	0.1655	865597	keystroke_s	s	n/a
433.098	0.1365	866196	keystroke_c	c	n/a
433.4435	0.105	866887	keystroke_r	r	n/a
433.594	0.104	867188	keystroke_i	i	n/a
433.818	0.12	867636	keystroke_b	b	n/a
434.058	0.1055	868116	keystroke_e	e	n/a
434.283	0.15	868566	keystroke_s	s	n/a
434.418	0.1805	868836	keystroke_Key.space	Key.space	n/a
435.0785	0.1505	870157	keystroke_c	c	n/a
435.2885	0.1045	870577	keystroke_o	o	n/a
435.5285	0.119	871057	keystroke_m	m	n/a
435.7835	0.135	871567	keystroke_p	p	n/a
435.9185	0.18	871837	keystroke_a	a	n/a
436.2335	0.135	872467	keystroke_r	r	n/a
436.3535	0.0755	872707	keystroke_i	i	n/a
436.5635	0.12	873127	keystroke_n	n	n/a
436.7435	0.135	873487	keystroke_g	g	n/a
436.8935	0.104	873787	keystroke_Key.space	Key.space	n/a
437.104	0.105	874208	keystroke_m	m	n/a
437.238	0.1655	874476	keystroke_a	a	n/a
437.5085	0.075	875017	keystroke_i	i	n/a
437.7035	0.12	875407	keystroke_n	n	n/a
437.9135	0.105	875827	keystroke_t	t	n/a
438.1235	0.15	876247	keystroke_e	e	n/a
438.3185	0.1195	876637	keystroke_n	n	n/a
438.5735	0.135	877147	keystroke_a	a	n/a
438.6785	0.12	877357	keystroke_n	n	n/a
438.8735	0.1195	877747	keystroke_c	c	n/a
439.1285	0.21	878257	keystroke_e	e	n/a
439.2925	0.166	878585	keystroke_Key.space	Key.space	n/a
439.7135	0.1055	879427	keystroke_g	g	n/a
439.9235	0.135	879847	keystroke_a	a	n/a
440.2085	0.105	880417	keystroke_t	t	n/a
440.4785	0.135	880957	keystroke_e	e	n/a
440.9585	0.09	881917	keystroke_Key.backspace	Key.backspace	n/a
441.303	0.0755	882606	keystroke_h	h	n/a
441.453	0.165	882906	keystroke_e	e	n/a
441.6485	0.1795	883297	keystroke_r	r	n/a
441.7685	0.165	883537	keystroke_e	e	n/a
442.0535	0.135	884107	keystroke_d	d	n/a
443.0135	0.15	886027	keystroke_Key.enter	Key.enter	n/a
443.171	9.7295	886342	prompt	n/a	directive needn't metric donald\n
443.8085	0.195	887617	keystroke_d	d	n/a
444.0635	0.09	888127	keystroke_i	i	n/a
444.2575	0.121	888515	keystroke_r	r	n/a
444.3035	0.18	888607	keystroke_e	e	n/a
444.6635	0.149	889327	keystroke_c	c	n/a
445.309	0.12	890618	keystroke_t	t	n/a
445.4735	0.105	890947	keystroke_i	i	n/a
445.6985	0.1505	891397	keystroke_v	v	n/a
445.9085	0.1955	891817	keystroke_e	e	n/a
446.088	0.151	892176	keystroke_Key.space	Key.space	n/a
446.389	0.135	892778	keystroke_n	n	n/a
446.569	0.09	893138	keystroke_e	e	n/a
446.779	0.09	893558	keystroke_e	e	n/a
447.063	0.135	894126	keystroke_d	d	n/a
447.408	0.1055	894816	keystroke_n	n	n/a
448.4735	0.135	896947	keystroke_'	'	n/a
448.7435	0.09	897487	keystroke_t	t	n/a
448.9385	0.12	897877	keystroke_Key.space	Key.space	n/a
449.1785	0.105	898357	keystroke_m	m	n/a
449.2985	0.165	898597	keystroke_e	e	n/a
450.4685	0.09	900937	keystroke_t	t	n/a
450.7085	0.09	901417	keystroke_r	r	n/a
450.814	0.1195	901628	keystroke_i	i	n/a
451.039	0.134	902078	keystroke_c	c	n/a
451.2335	0.135	902467	keystroke_Key.space	Key.space	n/a
451.4585	0.195	902917	keystroke_d	d	n/a
451.5775	0.181	903155	keystroke_o	o	n/a
451.7275	0.135	903455	keystroke_n	n	n/a
451.9525	0.121	903905	keystroke_a	a	n/a
452.0585	0.1505	904117	keystroke_l	l	n/a
452.4035	0.15	904807	keystroke_d	d	n/a
452.7785	0.12	905557	keystroke_Key.enter	Key.enter	n/a
452.905	9.8355	905810	prompt	n/a	straight herbal navigator slim\n
453.7235	0.15	907447	keystroke_s	s	n/a
454.0685	0.0595	908137	keystroke_t	t	n/a
454.278	0.0905	908556	keystroke_r	r	n/a
454.518	0.1805	909036	keystroke_a	a	n/a
454.654	0.119	909308	keystroke_i	i	n/a
454.9535	0.135	909907	keystroke_g	g	n/a
455.1035	0.0895	910207	keystroke_h	h	n/a
455.373	0.1655	910746	keystroke_Key.space	Key.space	n/a
456.0785	0.105	912157	keystroke_Key.backspace	Key.backspace	n/a
456.3785	0.1195	912757	keystroke_t	t	n/a
456.5285	0.12	913057	keystroke_Key.space	Key.space	n/a
456.663	0.105	913326	keystroke_h	h	n/a
456.7985	0.195	913597	keystroke_e	e	n/a
457.009	0.0745	914018	keystroke_r	r	n/a
457.3085	0.1205	914617	keystroke_b	b	n/a
457.5035	0.1945	915007	keystroke_a	a	n/a
457.684	0.18	915368	keystroke_l	l	n/a
457.8185	0.1655	915637	keystroke_Key.space	Key.space	n/a
457.999	0.1645	915998	keystroke_n	n	n/a
458.1335	0.18	916267	keystroke_a	a	n/a
458.7185	0.045	917437	keystroke_v	v	n/a
458.779	0.1045	917558	keystroke_i	i	n/a
459.0935	0.09	918187	keystroke_g	g	n/a
459.289	0.135	918578	keystroke_a	a	n/a
459.7535	0.12	919507	keystroke_t	t	n/a
459.9485	0.1655	919897	keystroke_o	o	n/a
460.1285	0.135	920257	keystroke_r	r	n/a
460.3235	0.18	920647	keystroke_Key.space	Key.space	n/a
460.6985	0.1355	921397	keystroke_s	s	n/a
460.8035	0.1055	921607	keystroke_l	l	n/a
461.0435	0.0605	922087	keystroke_i	i	n/a
461.253	0.105	922506	keystroke_m	m	n/a
462.5885	0.15	925177	keystroke_Key.enter	Key.enter	n/a
462.748	9.5475	925496	prompt	n/a	advisory paint internet baltimore\n
463.4885	0.1355	926977	keystroke_a	a	n/a
463.6685	0.225	927337	keystroke_d	d	n/a
464.1035	0.1205	928207	keystroke_v	v	n/a
464.2835	0.09	928567	keystroke_i	i	n/a
464.509	0.134	929018	keystroke_s	s	n/a
464.719	0.135	929438	keystroke_o	o	n/a
465.0785	0.12	930157	keystroke_y	y	n/a
465.8435	0.105	931687	keystroke_Key.space	Key.space	n/a
466.233	0.0905	932466	keystroke_Key.backspace	Key.backspace	n/a
466.4135	0.0895	932827	keystroke_Key.backspace	Key.backspace	n/a
466.6985	0.12	933397	keystroke_r	r	n/a
466.834	0.0895	933668	keystroke_y	y	n/a
467.328	0.1505	934656	keystroke_Key.space	Key.space	n/a
467.5385	0.165	935077	keystroke_p	p	n/a
467.749	0.1945	935498	keystroke_a	a	n/a
467.883	0.045	935766	keystroke_i	i	n/a
468.0635	0.1045	936127	keystroke_n	n	n/a
468.273	0.105	936546	keystroke_t	t	n/a
468.4085	0.1345	936817	keystroke_Key.space	Key.space	n/a
468.633	0.06	937266	keystroke_i	i	n/a
468.8135	0.0905	937627	keystroke_n	n	n/a
468.978	0.106	937956	keystroke_t	t	n/a
469.173	0.1055	938346	keystroke_e	e	n/a
469.2785	0.12	938557	keystroke_r	r	n/a
469.4735	0.105	938947	keystroke_n	n	n/a
469.5935	0.135	939187	keystroke_e	e	n/a
469.8485	0.0755	939697	keystroke_t	t	n/a
469.9685	0.135	939937	keystroke_Key.space	Key.space	n/a
470.2085	0.12	940417	keystroke_b	b	n/a
470.4635	0.18	940927	keystroke_a	a	n/a
470.779	0.1345	941558	keystroke_l	l	n/a
470.9735	0.1055	941947	keystroke_t	t	n/a
471.109	0.09	942218	keystroke_i	i	n/a
471.334	0.104	942668	keystroke_m	m	n/a
471.4835	0.1805	942967	keystroke_o	o	n/a
471.619	0.18	943238	keystroke_r	r	n/a
471.7535	0.1655	943507	keystroke_e	e	n/a
472.1885	0.105	944377	keystroke_Key.enter	Key.enter	n/a
472.3005	13.195	944601	prompt	n/a	hypothesis upload document uniform\n
473.929	0.0745	947858	keystroke_h	h	n/a
474.2885	0.105	948577	keystroke_y	y	n/a
474.5285	0.1955	949057	keystroke_p	p	n/a
474.7385	0.18	949477	keystroke_o	o	n/a
475.038	0.121	950076	keystroke_t	t	n/a
475.1735	0.1045	950347	keystroke_h	h	n/a
475.338	0.1055	950676	keystroke_e	e	n/a
475.579	0.135	951158	keystroke_s	s	n/a
476.088	0.15	952176	keystroke_s	s	n/a
476.703	0.09	953406	keystroke_Key.backspace	Key.backspace	n/a
477.1835	0.135	954367	keystroke_s	s	n/a
477.333	0.135	954666	keystroke_Key.space	Key.space	n/a
478.038	0.045	956076	keystroke_Key.backspace	Key.backspace	n/a
478.189	0.074	956378	keystroke_Key.backspace	Key.backspace	n/a
478.7285	0.1345	957457	keystroke_s	s	n/a
479.343	0.1055	958686	keystroke_Key.backspace	Key.backspace	n/a
480.0785	0.09	960157	keystroke_i	i	n/a
480.2435	0.15	960487	keystroke_s	s	n/a
480.3335	0.15	960667	keystroke_Key.space	Key.space	n/a
480.5435	0.09	961087	keystroke_u	u	n/a
480.7235	0.1355	961447	keystroke_p	p	n/a
480.978	0.105	961956	keystroke_l	l	n/a
481.219	0.12	962438	keystroke_o	o	n/a
481.353	0.106	962706	keystroke_a	a	n/a
481.563	0.15	963126	keystroke_d	d	n/a
481.6835	0.1345	963367	keystroke_Key.space	Key.space	n/a
481.879	0.105	963758	keystroke_d	d	n/a
481.969	0.12	963938	keystroke_o	o	n/a
482.164	0.134	964328	keystroke_c	c	n/a
482.449	0.09	964898	keystroke_u	u	n/a
482.778	0.121	965556	keystroke_m	m	n/a
482.929	0.2695	965858	keystroke_e	e	n/a
483.094	0.09	966188	keystroke_n	n	n/a
483.4695	0.119	966939	keystroke_t	t	n/a
483.6335	0.1355	967267	keystroke_Key.space	Key.space	n/a
484.024	0.075	968048	keystroke_u	u	n/a
484.2785	0.105	968557	keystroke_n	n	n/a
484.5185	0.1045	969037	keystroke_i	i	n/a
484.728	0.1055	969456	keystroke_f	f	n/a
484.8035	0.1195	969607	keystroke_o	o	n/a
484.998	0.09	969996	keystroke_r	r	n/a
485.103	0.105	970206	keystroke_m	m	n/a
485.4035	0.09	970807	keystroke_Key.enter	Key.enter	n/a
485.5	9.581	971000	prompt	n/a	rate cancelled supposed indices\n
486.303	0.106	972606	keystroke_r	r	n/a
486.468	0.196	972936	keystroke_a	a	n/a
486.693	0.136	973386	keystroke_t	t	n/a
486.888	0.135	973776	keystroke_e	e	n/a
487.0835	0.1655	974167	keystroke_Key.space	Key.space	n/a
487.2935	0.1045	974587	keystroke_c	c	n/a
487.624	0.119	975248	keystroke_n	n	n/a
487.863	0.12	975726	keystroke_c	c	n/a
488.134	0.1495	976268	keystroke_e	e	n/a
488.4335	0.09	976867	keystroke_l	l	n/a
488.8235	0.075	977647	keystroke_Key.backspace	Key.backspace	n/a
488.9885	0.075	977977	keystroke_Key.backspace	Key.backspace	n/a
489.213	0.0155	978426	keystroke_Key.backspace	Key.backspace	n/a
489.333	0.0905	978666	keystroke_Key.backspace	Key.backspace	n/a
489.604	0.12	979208	keystroke_a	a	n/a
489.694	0.1045	979388	keystroke_n	n	n/a
489.919	0.1045	979838	keystroke_c	c	n/a
490.1585	0.1505	980317	keystroke_e	e	n/a
490.3225	0.091	980645	keystroke_l	l	n/a
490.549	0.1345	981098	keystroke_l	l	n/a
490.6235	0.105	981247	keystroke_e	e	n/a
490.8935	0.12	981787	keystroke_d	d	n/a
491.028	0.15	982056	keystroke_Key.space	Key.space	n/a
491.3585	0.105	982717	keystroke_s	s	n/a
491.4785	0.12	982957	keystroke_u	u	n/a
491.7335	0.09	983467	keystroke_p	p	n/a
491.913	0.1205	983826	keystroke_p	p	n/a
492.0645	0.1785	984129	keystroke_o	o	n/a
492.273	0.1055	984546	keystroke_s	s	n/a
492.499	0.1045	984998	keystroke_e	e	n/a
492.7235	0.105	985447	keystroke_d	d	n/a
492.8885	0.165	985777	keystroke_Key.space	Key.space	n/a
493.099	0.0745	986198	keystroke_i	i	n/a
493.3535	0.0595	986707	keystroke_n	n	n/a
493.6085	0.1355	987217	keystroke_d	d	n/a
493.9985	0.075	987997	keystroke_i	i	n/a
494.1625	0.1665	988325	keystroke_c	c	n/a
494.494	0.1345	988988	keystroke_e	e	n/a
494.6885	0.165	989377	keystroke_s	s	n/a
495.0185	0.06	990037	keystroke_Key.enter	Key.enter	n/a
495.087	11.543	990174	prompt	n/a	secretary porsche independently ranks\n
495.9795	0.1045	991959	keystroke_s	s	n/a
497.0585	0.075	994117	keystroke_e	e	n/a
497.3435	0.15	994687	keystroke_c	c	n/a
497.779	0.1645	995558	keystroke_e	e	n/a
498.5885	0.12	997177	keystroke_Key.backspace	Key.backspace	n/a
499.548	0.106	999096	keystroke_r	r	n/a
499.7285	0.15	999457	keystroke_e	e	n/a
500.043	0.075	1000086	keystroke_t	t	n/a
500.208	0.18	1000416	keystroke_a	a	n/a
500.3735	0.1195	1000747	keystroke_r	r	n/a
500.554	0.105	1001108	keystroke_y	y	n/a
500.7785	0.135	1001557	keystroke_Key.space	Key.space	n/a
500.9885	0.18	1001977	keystroke_p	p	n/a
501.1695	0.1935	1002339	keystroke_o	o	n/a
501.348	0.0905	1002696	keystroke_r	r	n/a
501.648	0.1505	1003296	keystroke_s	s	n/a
502.339	0.119	1004678	keystroke_c	c	n/a
502.489	0.089	1004978	keystroke_h	h	n/a
502.6535	0.135	1005307	keystroke_e	e	n/a
502.8485	0.119	1005697	keystroke_Key.space	Key.space	n/a
503.089	0.059	1006178	keystroke_i	i	n/a
503.298	0.0905	1006596	keystroke_n	n	n/a
503.4185	0.09	1006837	keystroke_d	d	n/a
503.644	0.1045	1007288	keystroke_e	e	n/a
503.7485	0.105	1007497	keystroke_p	p	n/a
504.0185	0.06	1008037	keystroke_e	e	n/a
504.0635	0.0455	1008127	keystroke_n	n	n/a
504.199	0.09	1008398	keystroke_d	d	n/a
504.4085	0.1345	1008817	keystroke_e	e	n/a
504.5285	0.09	1009057	keystroke_n	n	n/a
504.723	0.076	1009446	keystroke_t	t	n/a
504.8735	0.1055	1009747	keystroke_l	l	n/a
505.144	0.09	1010288	keystroke_y	y	n/a
505.3685	0.12	1010737	keystroke_Key.space	Key.space	n/a
505.5185	0.09	1011037	keystroke_r	r	n/a
505.6685	0.18	1011337	keystroke_a	a	n/a
505.7885	0.1055	1011577	keystroke_n	n	n/a
506.0585	0.0905	1012117	keystroke_k	k	n/a
506.239	0.135	1012478	keystroke_s	s	n/a
506.5385	0.09	1013077	keystroke_Key.enter	Key.enter	n/a
506.635	7.7805	1013270	prompt	n/a	match tender nevada vocals\n
507.4685	0.12	1014937	keystroke_m	m	n/a
507.8285	0.1505	1015657	keystroke_a	a	n/a
508.0685	0.075	1016137	keystroke_t	t	n/a
508.3385	0.15	1016677	keystroke_c	c	n/a
508.4745	0.074	1016949	keystroke_h	h	n/a
508.6685	0.1495	1017337	keystroke_Key.space	Key.space	n/a
508.848	0.106	1017696	keystroke_t	t	n/a
509.0585	0.1505	1018117	keystroke_e	e	n/a
509.1945	0.0895	1018389	keystroke_n	n	n/a
509.374	0.089	1018748	keystroke_d	d	n/a
509.599	0.135	1019198	keystroke_e	e	n/a
509.809	0.1045	1019618	keystroke_r	r	n/a
509.943	0.1355	1019886	keystroke_Key.space	Key.space	n/a
510.1235	0.105	1020247	keystroke_n	n	n/a
510.2285	0.12	1020457	keystroke_e	e	n/a
510.5135	0.15	1021027	keystroke_v	v	n/a
510.7685	0.15	1021537	keystroke_a	a	n/a
511.0235	0.12	1022047	keystroke_d	d	n/a
511.308	0.1655	1022616	keystroke_a	a	n/a
511.4885	0.1055	1022977	keystroke_Key.space	Key.space	n/a
511.684	0.135	1023368	keystroke_v	v	n/a
511.909	0.1185	1023818	keystroke_o	o	n/a
512.1785	0.135	1024357	keystroke_l	l	n/a
512.3585	0.06	1024717	keystroke_a	a	n/a
513.0935	0.0745	1026187	keystroke_Key.backspace	Key.backspace	n/a
513.2735	0.09	1026547	keystroke_Key.backspace	Key.backspace	n/a
513.5285	0.12	1027057	keystroke_c	c	n/a
513.7685	0.12	1027537	keystroke_a	a	n/a
513.8585	0.135	1027717	keystroke_l	l	n/a
514.0395	0.149	1028079	keystroke_s	s	n/a
514.3085	0.105	1028617	keystroke_Key.enter	Key.enter	n/a
514.4195	9.8055	1028839	prompt	n/a	lobby poems designing expenditure\n
515.223	0.0905	1030446	keystroke_l	l	n/a
515.4635	0.135	1030927	keystroke_o	o	n/a
515.6285	0.105	1031257	keystroke_b	b	n/a
515.8535	0.12	1031707	keystroke_b	b	n/a
515.9585	0.0905	1031917	keystroke_y	y	n/a
516.183	0.135	1032366	keystroke_Key.space	Key.space	n/a
516.378	0.135	1032756	keystroke_p	p	n/a
516.544	0.164	1033088	keystroke_o	o	n/a
516.8585	0.09	1033717	keystroke_e	e	n/a
517.0535	0.075	1034107	keystroke_m	m	n/a
517.203	0.1805	1034406	keystroke_s	s	n/a
517.3385	0.1495	1034677	keystroke_Key.space	Key.space	n/a
517.8935	0.1345	1035787	keystroke_d	d	n/a
518.164	0.09	1036328	keystroke_e	e	n/a
518.373	0.165	1036746	keystroke_s	s	n/a
518.523	0.0905	1037046	keystroke_i	i	n/a
518.6885	0.12	1037377	keystroke_g	g	n/a
518.8385	0.12	1037677	keystroke_n	n	n/a
519.0635	0.1495	1038127	keystroke_i	i	n/a
519.1835	0.18	1038367	keystroke_n	n	n/a
519.3785	0.105	1038757	keystroke_g	g	n/a
519.4835	0.165	1038967	keystroke_Key.space	Key.space	n/a
519.9035	0.09	1039807	keystroke_e	e	n/a
520.6235	0.135	1041247	keystroke_c	c	n/a
520.9835	0.0905	1041967	keystroke_p	p	n/a
521.463	0.0605	1042926	keystroke_Key.backspace	Key.backspace	n/a
521.6435	0.09	1043287	keystroke_Key.backspace	Key.backspace	n/a
522.139	0.119	1044278	keystroke_x	x	n/a
522.4685	0.105	1044937	keystroke_p	p	n/a
522.6485	0.12	1045297	keystroke_e	e	n/a
522.7835	0.075	1045567	keystroke_n	n	n/a
522.9935	0.135	1045987	keystroke_d	d	n/a
523.1285	0.09	1046257	keystroke_i	i	n/a
523.4135	0.105	1046827	keystroke_t	t	n/a
523.5485	0.0905	1047097	keystroke_u	u	n/a
523.698	0.12	1047396	keystroke_r	r	n/a
523.803	0.135	1047606	keystroke_e	e	n/a
524.1185	0.105	1048237	keystroke_Key.enter	Key.enter	n/a
524.23	11.216	1048460	prompt	n/a	criminal calculations demand ne'er\n
524.988	0.165	1049976	keystroke_c	c	n/a
525.3335	0.135	1050667	keystroke_r	r	n/a
525.4835	0.06	1050967	keystroke_i	i	n/a
526.2935	0.1345	1052587	keystroke_m	m	n/a
526.593	0.06	1053186	keystroke_i	i	n/a
526.849	0.12	1053698	keystroke_n	n	n/a
527.0585	0.15	1054117	keystroke_a	a	n/a
527.239	0.194	1054478	keystroke_l	l	n/a
527.403	0.15	1054806	keystroke_Key.space	Key.space	n/a
527.5685	0.105	1055137	keystroke_c	c	n/a
527.779	0.0895	1055558	keystroke_a	a	n/a
527.8835	0.1055	1055767	keystroke_l	l	n/a
528.1385	0.135	1056277	keystroke_c	c	n/a
528.2285	0.09	1056457	keystroke_u	u	n/a
528.4685	0.165	1056937	keystroke_l	l	n/a
528.5735	0.165	1057147	keystroke_a	a	n/a
529.0685	0.09	1058137	keystroke_t	t	n/a
529.218	0.09	1058436	keystroke_i	i	n/a
529.384	0.1195	1058768	keystroke_o	o	n/a
529.593	0.105	1059186	keystroke_n	n	n/a
529.759	0.1645	1059518	keystroke_s	s	n/a
529.938	0.12	1059876	keystroke_Key.space	Key.space	n/a
530.253	0.12	1060506	keystroke_d	d	n/a
530.493	0.106	1060986	keystroke_e	e	n/a
530.628	0.09	1061256	keystroke_m	m	n/a
530.7935	0.12	1061587	keystroke_a	a	n/a
530.884	0.104	1061768	keystroke_n	n	n/a
531.0335	0.1795	1062067	keystroke_d	d	n/a
531.183	0.1195	1062366	keystroke_Key.space	Key.space	n/a
531.529	0.0895	1063058	keystroke_n	n	n/a
531.708	0.1055	1063416	keystroke_e	e	n/a
533.4485	0.1355	1066897	keystroke_'	'	n/a
533.704	0.12	1067408	keystroke_e	e	n/a
534.5285	0.09	1069057	keystroke_r	r	n/a
535.3685	0.0755	1070737	keystroke_Key.enter	Key.enter	n/a
535.453	8.7365	1070906	prompt	n/a	regression margin dried decent\n
536.3135	0.119	1072627	keystroke_r	r	n/a
536.4935	0.1355	1072987	keystroke_e	e	n/a
536.7635	0.0895	1073527	keystroke_g	g	n/a
537.738	0.105	1075476	keystroke_r	r	n/a
537.888	0.15	1075776	keystroke_e	e	n/a
538.173	0.0905	1076346	keystroke_s	s	n/a
538.383	0.1055	1076766	keystroke_s	s	n/a
538.5785	0.0905	1077157	keystroke_i	i	n/a
538.7435	0.1355	1077487	keystroke_o	o	n/a
538.9685	0.21	1077937	keystroke_n	n	n/a
539.1635	0.15	1078327	keystroke_Key.space	Key.space	n/a
539.3735	0.135	1078747	keystroke_m	m	n/a
539.4635	0.225	1078927	keystroke_a	a	n/a
539.7035	0.12	1079407	keystroke_r	r	n/a
539.9885	0.135	1079977	keystroke_g	g	n/a
540.1085	0.075	1080217	keystroke_i	i	n/a
540.319	0.1945	1080638	keystroke_n	n	n/a
540.4535	0.1495	1080907	keystroke_Key.space	Key.space	n/a
540.6485	0.09	1081297	keystroke_d	d	n/a
540.889	0.119	1081778	keystroke_e	e	n/a
541.488	0.0755	1082976	keystroke_Key.backspace	Key.backspace	n/a
541.819	0.074	1083638	keystroke_r	r	n/a
541.968	0.12	1083936	keystroke_i	i	n/a
542.1035	0.0905	1084207	keystroke_e	e	n/a
542.328	0.1505	1084656	keystroke_d	d	n/a
542.463	0.1495	1084926	keystroke_Key.space	Key.space	n/a
542.6725	0.076	1085345	keystroke_d	d	n/a
542.883	0.09	1085766	keystroke_e	e	n/a
543.183	0.12	1086366	keystroke_c	c	n/a
543.453	0.1805	1086906	keystroke_e	e	n/a
543.5735	0.135	1087147	keystroke_n	n	n/a
543.8285	0.075	1087657	keystroke_t	t	n/a
544.0985	0.0895	1088197	keystroke_Key.enter	Key.enter	n/a
544.193	10.467	1088386	prompt	n/a	oscar virtue nirvana mountains\n
545.0735	0.165	1090147	keystroke_o	o	n/a
545.2405	0.088	1090481	keystroke_s	s	n/a
545.448	0.165	1090896	keystroke_c	c	n/a
545.659	0.209	1091318	keystroke_a	a	n/a
545.884	0.134	1091768	keystroke_r	r	n/a
546.0335	0.1655	1092067	keystroke_Key.space	Key.space	n/a
546.3035	0.06	1092607	keystroke_c	c	n/a
547.8785	0.12	1095757	keystroke_Key.backspace	Key.backspace	n/a
548.1485	0.135	1096297	keystroke_v	v	n/a
548.328	0.1205	1096656	keystroke_i	i	n/a
548.5825	0.106	1097165	keystroke_r	r	n/a
548.9135	0.1045	1097827	keystroke_t	t	n/a
549.048	0.106	1098096	keystroke_u	u	n/a
549.379	0.135	1098758	keystroke_e	e	n/a
549.5735	0.09	1099147	keystroke_Key.space	Key.space	n/a
549.8435	0.09	1099687	keystroke_n	n	n/a
550.024	0.1195	1100048	keystroke_i	i	n/a
550.173	0.076	1100346	keystroke_r	r	n/a
550.728	0.15	1101456	keystroke_a	a	n/a
551.2535	0.12	1102507	keystroke_Key.backspace	Key.backspace	n/a
551.463	0.1655	1102926	keystroke_v	v	n/a
551.7035	0.15	1103407	keystroke_a	a	n/a
551.884	0.1195	1103768	keystroke_n	n	n/a
552.0625	0.166	1104125	keystroke_a	a	n/a
552.2285	0.1495	1104457	keystroke_Key.space	Key.space	n/a
552.7235	0.0895	1105447	keystroke_m	m	n/a
552.933	0.21	1105866	keystroke_o	o	n/a
553.083	0.1055	1106166	keystroke_u	u	n/a
553.3385	0.15	1106677	keystroke_n	n	n/a
553.549	0.105	1107098	keystroke_t	t	n/a
553.7285	0.15	1107457	keystroke_a	a	n/a
553.8935	0.09	1107787	keystroke_i	i	n/a
554.1185	0.12	1108237	keystroke_n	n	n/a
554.2235	0.15	1108447	keystroke_s	s	n/a
554.5685	0.09	1109137	keystroke_Key.enter	Key.enter	n/a
554.665	7.256	1109330	prompt	n/a	update adventure strike bottle\n
555.394	0.089	1110788	keystroke_u	u	n/a
555.588	0.1655	1111176	keystroke_p	p	n/a
555.768	0.135	1111536	keystroke_d	d	n/a
555.948	0.2255	1111896	keystroke_a	a	n/a
556.233	0.1055	1112466	keystroke_t	t	n/a
556.428	0.15	1112856	keystroke_e	e	n/a
556.5635	0.165	1113127	keystroke_Key.space	Key.space	n/a
556.773	0.1505	1113546	keystroke_a	a	n/a
556.9985	0.1495	1113997	keystroke_d	d	n/a
557.2985	0.1345	1114597	keystroke_v	v	n/a
557.538	0.195	1115076	keystroke_e	e	n/a
557.7185	0.09	1115437	keystroke_n	n	n/a
557.928	0.106	1115856	keystroke_t	t	n/a
558.0935	0.1045	1116187	keystroke_u	u	n/a
558.2285	0.1645	1116457	keystroke_r	r	n/a
558.348	0.1805	1116696	keystroke_e	e	n/a
558.618	0.15	1117236	keystroke_Key.space	Key.space	n/a
558.919	0.134	1117838	keystroke_s	s	n/a
559.2185	0.0755	1118437	keystroke_t	t	n/a
559.4435	0.09	1118887	keystroke_r	r	n/a
559.5485	0.105	1119097	keystroke_i	i	n/a
560.0735	0.09	1120147	keystroke_k	k	n/a
560.2535	0.1645	1120507	keystroke_e	e	n/a
560.4335	0.119	1120867	keystroke_Key.space	Key.space	n/a
560.6435	0.15	1121287	keystroke_b	b	n/a
560.8085	0.105	1121617	keystroke_o	o	n/a
561.034	0.059	1122068	keystroke_t	t	n/a
561.2135	0.105	1122427	keystroke_t	t	n/a
561.349	0.1795	1122698	keystroke_l	l	n/a
561.4685	0.135	1122937	keystroke_e	e	n/a
561.8285	0.09	1123657	keystroke_Key.enter	Key.enter	n/a
561.9255	7.12	1123851	prompt	n/a	patient preference stating shut\n
562.6385	0.15	1125277	keystroke_p	p	n/a
562.8335	0.15	1125667	keystroke_a	a	n/a
563.103	0.1205	1126206	keystroke_t	t	n/a
563.2085	0.09	1126417	keystroke_i	i	n/a
563.3585	0.165	1126717	keystroke_e	e	n/a
563.5085	0.0905	1127017	keystroke_n	n	n/a
563.7485	0.09	1127497	keystroke_t	t	n/a
563.8835	0.134	1127767	keystroke_Key.space	Key.space	n/a
564.138	0.1355	1128276	keystroke_p	p	n/a
564.2875	0.181	1128575	keystroke_r	r	n/a
564.4535	0.1495	1128907	keystroke_e	e	n/a
564.708	0.1505	1129416	keystroke_f	f	n/a
564.874	0.2245	1129748	keystroke_e	e	n/a
565.069	0.1345	1130138	keystroke_r	r	n/a
565.4425	0.1355	1130885	keystroke_e	e	n/a
565.5925	0.105	1131185	keystroke_n	n	n/a
565.8035	0.12	1131607	keystroke_c	c	n/a
566.0585	0.165	1132117	keystroke_e	e	n/a
566.2375	0.1515	1132475	keystroke_Key.space	Key.space	n/a
566.539	0.195	1133078	keystroke_s	s	n/a
566.869	0.089	1133738	keystroke_t	t	n/a
567.0635	0.1955	1134127	keystroke_a	a	n/a
567.304	0.1195	1134608	keystroke_t	t	n/a
567.439	0.06	1134878	keystroke_i	i	n/a
567.6485	0.09	1135297	keystroke_n	n	n/a
567.784	0.1345	1135568	keystroke_g	g	n/a
567.9035	0.15	1135807	keystroke_Key.space	Key.space	n/a
568.0835	0.165	1136167	keystroke_s	s	n/a
568.219	0.06	1136438	keystroke_h	h	n/a
568.4435	0.0895	1136887	keystroke_u	u	n/a
568.6985	0.105	1137397	keystroke_t	t	n/a
568.9535	0.09	1137907	keystroke_Key.enter	Key.enter	n/a
569.0495	8.038	1138099	prompt	n/a	learned fetish finally shorts\n
569.8075	0.121	1139615	keystroke_l	l	n/a
569.9585	0.12	1139917	keystroke_e	e	n/a
570.1985	0.1955	1140397	keystroke_a	a	n/a
570.409	0.1195	1140818	keystroke_r	r	n/a
570.5435	0.105	1141087	keystroke_n	n	n/a
570.6785	0.105	1141357	keystroke_e	e	n/a
570.9335	0.165	1141867	keystroke_d	d	n/a
571.0535	0.149	1142107	keystroke_Key.space	Key.space	n/a
571.2635	0.105	1142527	keystroke_f	f	n/a
571.4435	0.15	1142887	keystroke_e	e	n/a
571.7585	0.075	1143517	keystroke_t	t	n/a
571.8485	0.1055	1143697	keystroke_i	i	n/a
572.043	0.135	1144086	keystroke_s	s	n/a
572.164	0.09	1144328	keystroke_h	h	n/a
572.328	0.1355	1144656	keystroke_Key.space	Key.space	n/a
572.4785	0.1345	1144957	keystroke_f	f	n/a
572.614	0.074	1145228	keystroke_i	i	n/a
572.824	0.089	1145648	keystroke_n	n	n/a
573.078	0.12	1146156	keystroke_a	a	n/a
573.213	0.06	1146426	keystroke_l	l	n/a
573.409	0.0595	1146818	keystroke_l	l	n/a
573.6785	0.06	1147357	keystroke_y	y	n/a
573.8435	0.135	1147687	keystroke_Key.space	Key.space	n/a
574.0235	0.135	1148047	keystroke_s	s	n/a
574.1435	0.075	1148287	keystroke_h	h	n/a
575.104	0.1795	1150208	keystroke_o	o	n/a
575.3435	0.0905	1150687	keystroke_r	r	n/a
575.614	0.074	1151228	keystroke_t	t	n/a
575.809	0.1345	1151618	keystroke_s	s	n/a
576.9785	0.105	1153957	keystroke_Key.enter	Key.enter	n/a
577.103	8.6375	1154206	prompt	n/a	pounds yale automotive sent\n
577.8485	0.18	1155697	keystroke_p	p	n/a
578.0735	0.2255	1156147	keystroke_o	o	n/a
578.313	0.106	1156626	keystroke_u	u	n/a
578.598	0.1205	1157196	keystroke_n	n	n/a
578.734	0.12	1157468	keystroke_d	d	n/a
578.959	0.15	1157918	keystroke_s	s	n/a
579.093	0.135	1158186	keystroke_Key.space	Key.space	n/a
579.318	0.135	1158636	keystroke_y	y	n/a
579.4685	0.1655	1158937	keystroke_a	a	n/a
579.679	0.1045	1159358	keystroke_l	l	n/a
579.798	0.1805	1159596	keystroke_e	e	n/a
579.933	0.1495	1159866	keystroke_Key.space	Key.space	n/a
580.1135	0.1795	1160227	keystroke_a	a	n/a
580.2935	0.09	1160587	keystroke_u	u	n/a
580.579	0.105	1161158	keystroke_t	t	n/a
580.759	0.09	1161518	keystroke_o	o	n/a
581.0435	0.045	1162087	keystroke_m	m	n/a
582.0935	0.15	1164187	keystroke_o	o	n/a
583.834	0.105	1167668	keystroke_t	t	n/a
583.924	0.075	1167848	keystroke_i	i	n/a
584.1785	0.1345	1168357	keystroke_v	v	n/a
584.4035	0.1795	1168807	keystroke_e	e	n/a
584.568	0.135	1169136	keystroke_Key.space	Key.space	n/a
584.749	0.134	1169498	keystroke_s	s	n/a
584.943	0.195	1169886	keystroke_e	e	n/a
585.0785	0.1055	1170157	keystroke_n	n	n/a
585.3335	0.075	1170667	keystroke_t	t	n/a
585.6485	0.09	1171297	keystroke_Key.enter	Key.enter	n/a
585.745	8.2605	1171490	prompt	n/a	beat reach opening consecutive\n
586.6085	0.12	1173217	keystroke_b	b	n/a
586.8635	0.1355	1173727	keystroke_e	e	n/a
587.1045	0.1495	1174209	keystroke_a	a	n/a
587.359	0.1055	1174718	keystroke_t	t	n/a
587.495	0.133	1174990	keystroke_Key.space	Key.space	n/a
587.644	0.1045	1175288	keystroke_r	r	n/a
587.7485	0.1655	1175497	keystroke_e	e	n/a
587.974	0.1345	1175948	keystroke_a	a	n/a
588.2285	0.15	1176457	keystroke_c	c	n/a
588.319	0.0895	1176638	keystroke_h	h	n/a
588.498	0.1505	1176996	keystroke_Key.space	Key.space	n/a
589.338	0.105	1178676	keystroke_o	o	n/a
589.623	0.1355	1179246	keystroke_p	p	n/a
589.864	0.12	1179728	keystroke_e	e	n/a
590.088	0.106	1180176	keystroke_n	n	n/a
590.329	0.165	1180658	keystroke_i	i	n/a
590.509	0.135	1181018	keystroke_n	n	n/a
590.704	0.135	1181408	keystroke_g	g	n/a
590.824	0.135	1181648	keystroke_Key.space	Key.space	n/a
591.034	0.18	1182068	keystroke_c	c	n/a
591.154	0.194	1182308	keystroke_o	o	n/a
591.333	0.15	1182666	keystroke_n	n	n/a
592.054	0.134	1184108	keystroke_s	s	n/a
592.309	0.104	1184618	keystroke_e	e	n/a
592.564	0.18	1185128	keystroke_c	c	n/a
592.803	0.0755	1185606	keystroke_u	u	n/a
593.043	0.106	1186086	keystroke_t	t	n/a
593.178	0.121	1186356	keystroke_i	i	n/a
593.3885	0.1355	1186777	keystroke_v	v	n/a
593.614	0.1345	1187228	keystroke_e	e	n/a
593.9135	0.09	1187827	keystroke_Key.enter	Key.enter	n/a
594.0105	8.965	1188021	prompt	n/a	cardiac stud enhancement orders\n
594.964	0.119	1189928	keystroke_c	c	n/a
595.189	0.134	1190378	keystroke_a	a	n/a
595.413	0.1055	1190826	keystroke_r	r	n/a
595.654	0.12	1191308	keystroke_i	i	n/a
595.789	0.1195	1191578	keystroke_d	d	n/a
595.9685	0.136	1191937	keystroke_a	a	n/a
596.2235	0.181	1192447	keystroke_c	c	n/a
596.419	0.1795	1192838	keystroke_Key.space	Key.space	n/a
596.6295	0.1795	1193259	keystroke_s	s	n/a
596.899	0.135	1193798	keystroke_t	t	n/a
596.9885	0.1055	1193977	keystroke_u	u	n/a
597.4085	0.135	1194817	keystroke_Key.space	Key.space	n/a
598.023	0.121	1196046	keystroke_Key.backspace	Key.backspace	n/a
598.174	0.164	1196348	keystroke_d	d	n/a
598.368	0.151	1196736	keystroke_Key.space	Key.space	n/a
598.5785	0.15	1197157	keystroke_e	e	n/a
598.699	0.06	1197398	keystroke_n	n	n/a
598.9685	0.09	1197937	keystroke_h	h	n/a
599.1195	0.119	1198239	keystroke_a	a	n/a
599.2535	0.09	1198507	keystroke_n	n	n/a
599.4195	0.119	1198839	keystroke_c	c	n/a
599.7035	0.21	1199407	keystroke_e	e	n/a
599.8685	0.0905	1199737	keystroke_m	m	n/a
600.049	0.15	1200098	keystroke_e	e	n/a
600.154	0.1045	1200308	keystroke_n	n	n/a
600.3785	0.09	1200757	keystroke_t	t	n/a
600.5435	0.165	1201087	keystroke_Key.space	Key.space	n/a
600.904	0.15	1201808	keystroke_o	o	n/a
601.129	0.0895	1202258	keystroke_r	r	n/a
601.354	0.1345	1202708	keystroke_d	d	n/a
601.9685	0.1955	1203937	keystroke_e	e	n/a
602.2235	0.09	1204447	keystroke_r	r	n/a
602.4635	0.15	1204927	keystroke_s	s	n/a
602.883	0.09	1205766	keystroke_Key.enter	Key.enter	n/a
602.98	12.6555	1205960	prompt	n/a	excessive lock obtained stranger\n
603.8285	0.1055	1207657	keystroke_e	e	n/a
604.099	0.12	1208198	keystroke_x	x	n/a
604.339	0.12	1208678	keystroke_c	c	n/a
604.593	0.136	1209186	keystroke_e	e	n/a
606.0335	0.105	1212067	keystroke_s	s	n/a
606.274	0.135	1212548	keystroke_s	s	n/a
606.424	0.1345	1212848	keystroke_i	i	n/a
606.6935	0.12	1213387	keystroke_v	v	n/a
606.9185	0.1505	1213837	keystroke_e	e	n/a
607.054	0.1645	1214108	keystroke_Key.space	Key.space	n/a
607.3685	0.09	1214737	keystroke_o	o	n/a
607.639	0.1045	1215278	keystroke_l	l	n/a
608.0135	0.0905	1216027	keystroke_Key.backspace	Key.backspace	n/a
608.179	0.089	1216358	keystroke_Key.backspace	Key.backspace	n/a
608.494	0.135	1216988	keystroke_l	l	n/a
608.764	0.1195	1217528	keystroke_o	o	n/a
608.914	0.135	1217828	keystroke_c	c	n/a
609.2135	0.21	1218427	keystroke_k	k	n/a
609.3785	0.1945	1218757	keystroke_Key.space	Key.space	n/a
609.618	0.1505	1219236	keystroke_o	o	n/a
609.813	0.121	1219626	keystroke_b	b	n/a
610.2635	0.0595	1220527	keystroke_r	r	n/a
610.458	0.195	1220916	keystroke_a	a	n/a
610.609	0.089	1221218	keystroke_i	i	n/a
610.864	0.0745	1221728	keystroke_n	n	n/a
611.2085	0.06	1222417	keystroke_Key.backspace	Key.backspace	n/a
611.374	0.0745	1222748	keystroke_Key.backspace	Key.backspace	n/a
611.5385	0.0905	1223077	keystroke_Key.backspace	Key.backspace	n/a
612.124	0.105	1224248	keystroke_Key.backspace	Key.backspace	n/a
612.379	0.089	1224758	keystroke_t	t	n/a
612.603	0.196	1225206	keystroke_a	a	n/a
612.724	0.089	1225448	keystroke_i	i	n/a
612.9335	0.105	1225867	keystroke_n	n	n/a
613.053	0.091	1226106	keystroke_e	e	n/a
613.2935	0.12	1226587	keystroke_d	d	n/a
613.3985	0.135	1226797	keystroke_Key.space	Key.space	n/a
613.7585	0.15	1227517	keystroke_s	s	n/a
614.059	0.0595	1228118	keystroke_t	t	n/a
614.254	0.0895	1228508	keystroke_r	r	n/a
614.419	0.195	1228838	keystroke_a	a	n/a
614.539	0.105	1229078	keystroke_n	n	n/a
614.7185	0.135	1229437	keystroke_g	g	n/a
614.9135	0.1955	1229827	keystroke_e	e	n/a
615.0785	0.1055	1230157	keystroke_r	r	n/a
615.5285	0.105	1231057	keystroke_Key.enter	Key.enter	n/a
615.64	11.2605	1231280	prompt	n/a	tobacco methodology peripheral priorities\n
616.744	0.105	1233488	keystroke_t	t	n/a
616.834	0.1045	1233668	keystroke_o	o	n/a
617.119	0.1195	1234238	keystroke_b	b	n/a
617.944	0.105	1235888	keystroke_a	a	n/a
618.184	0.105	1236368	keystroke_c	c	n/a
618.394	0.149	1236788	keystroke_c	c	n/a
618.529	0.18	1237058	keystroke_o	o	n/a
618.738	0.196	1237476	keystroke_Key.space	Key.space	n/a
619.2185	0.075	1238437	keystroke_m	m	n/a
619.459	0.12	1238918	keystroke_e	e	n/a
619.7285	0.105	1239457	keystroke_t	t	n/a
619.8035	0.075	1239607	keystroke_h	h	n/a
619.9835	0.12	1239967	keystroke_o	o	n/a
620.2235	0.1495	1240447	keystroke_d	d	n/a
620.433	0.121	1240866	keystroke_o	o	n/a
620.6885	0.09	1241377	keystroke_l	l	n/a
620.9135	0.1045	1241827	keystroke_o	o	n/a
621.079	0.134	1242158	keystroke_g	g	n/a
621.243	0.091	1242486	keystroke_y	y	n/a
621.588	0.136	1243176	keystroke_Key.space	Key.space	n/a
621.979	0.1045	1243958	keystroke_p	p	n/a
622.309	0.1495	1244618	keystroke_e	e	n/a
622.984	0.1195	1245968	keystroke_r	r	n/a
623.208	0.0905	1246416	keystroke_i	i	n/a
623.4795	0.1345	1246959	keystroke_p	p	n/a
623.749	0.075	1247498	keystroke_h	h	n/a
623.839	0.209	1247678	keystroke_e	e	n/a
624.0645	0.1045	1248129	keystroke_r	r	n/a
624.289	0.1505	1248578	keystroke_a	a	n/a
624.379	0.1795	1248758	keystroke_l	l	n/a
624.529	0.18	1249058	keystroke_Key.space	Key.space	n/a
624.8435	0.046	1249687	keystroke_p	p	n/a
625.0845	0.1045	1250169	keystroke_r	r	n/a
625.264	0.075	1250528	keystroke_i	i	n/a
625.444	0.1205	1250888	keystroke_o	o	n/a
625.654	0.105	1251308	keystroke_r	r	n/a
625.774	0.075	1251548	keystroke_i	i	n/a
625.9985	0.1055	1251997	keystroke_t	t	n/a
626.1185	0.135	1252237	keystroke_i	i	n/a
626.2835	0.1205	1252567	keystroke_e	e	n/a
626.5085	0.12	1253017	keystroke_s	s	n/a
626.7935	0.105	1253587	keystroke_Key.enter	Key.enter	n/a
626.9045	6.206	1253809	prompt	n/a	palestine cope banks struck\n
627.709	0.12	1255418	keystroke_p	p	n/a
627.843	0.151	1255686	keystroke_a	a	n/a
628.008	0.15	1256016	keystroke_l	l	n/a
628.114	0.104	1256228	keystroke_e	e	n/a
628.309	0.165	1256618	keystroke_s	s	n/a
628.6535	0.1055	1257307	keystroke_t	t	n/a
628.6985	0.075	1257397	keystroke_i	i	n/a
628.893	0.09	1257786	keystroke_n	n	n/a
628.999	0.135	1257998	keystroke_e	e	n/a
629.194	0.0895	1258388	keystroke_Key.space	Key.space	n/a
629.3885	0.135	1258777	keystroke_c	c	n/a
629.5235	0.09	1259047	keystroke_o	o	n/a
629.794	0.134	1259588	keystroke_p	p	n/a
629.959	0.1345	1259918	keystroke_e	e	n/a
630.5585	0.1505	1261117	keystroke_Key.space	Key.space	n/a
630.769	0.12	1261538	keystroke_b	b	n/a
630.964	0.165	1261928	keystroke_a	a	n/a
631.114	0.075	1262228	keystroke_n	n	n/a
631.339	0.105	1262678	keystroke_k	k	n/a
631.429	0.12	1262858	keystroke_s	s	n/a
631.564	0.15	1263128	keystroke_Key.space	Key.space	n/a
631.789	0.18	1263578	keystroke_s	s	n/a
632.059	0.075	1264118	keystroke_t	t	n/a
632.269	0.09	1264538	keystroke_r	r	n/a
632.374	0.075	1264748	keystroke_u	u	n/a
632.584	0.1195	1265168	keystroke_c	c	n/a
632.689	0.1045	1265378	keystroke_k	k	n/a
633.0185	0.0905	1266037	keystroke_Key.enter	Key.enter	n/a
633.116	8.92	1266232	prompt	n/a	babies prerequisite everyday relate\n
633.9945	0.104	1267989	keystroke_b	b	n/a
634.144	0.18	1268288	keystroke_a	a	n/a
634.383	0.151	1268766	keystroke_b	b	n/a
634.6235	0.075	1269247	keystroke_i	i	n/a
634.7735	0.09	1269547	keystroke_e	e	n/a
634.9985	0.1505	1269997	keystroke_s	s	n/a
635.164	0.105	1270328	keystroke_Key.space	Key.space	n/a
635.3285	0.1655	1270657	keystroke_p	p	n/a
635.4785	0.1495	1270957	keystroke_r	r	n/a
635.584	0.18	1271168	keystroke_e	e	n/a
636.14	0.089	1272280	keystroke_r	r	n/a
636.244	0.18	1272488	keystroke_e	e	n/a
636.634	0.15	1273268	keystroke_q	q	n/a
636.904	0.075	1273808	keystroke_u	u	n/a
637.0985	0.105	1274197	keystroke_i	i	n/a
637.3085	0.12	1274617	keystroke_s	s	n/a
637.4135	0.0905	1274827	keystroke_i	i	n/a
637.729	0.0905	1275458	keystroke_t	t	n/a
637.984	0.1205	1275968	keystroke_e	e	n/a
638.163	0.15	1276326	keystroke_Key.space	Key.space	n/a
638.314	0.1345	1276628	keystroke_e	e	n/a
638.598	0.166	1277196	keystroke_v	v	n/a
638.808	0.226	1277616	keystroke_e	e	n/a
639.003	0.165	1278006	keystroke_r	r	n/a
639.393	0.1205	1278786	keystroke_d	d	n/a
639.633	0.136	1279266	keystroke_a	a	n/a
639.754	0.074	1279508	keystroke_y	y	n/a
640.3835	0.15	1280767	keystroke_Key.space	Key.space	n/a
640.639	0.135	1281278	keystroke_r	r	n/a
640.7435	0.1505	1281487	keystroke_e	e	n/a
640.9535	0.12	1281907	keystroke_l	l	n/a
641.104	0.1795	1282208	keystroke_a	a	n/a
641.3735	0.1055	1282747	keystroke_t	t	n/a
641.5235	0.15	1283047	keystroke_e	e	n/a
641.928	0.105	1283856	keystroke_Key.enter	Key.enter	n/a
642.0405	8.6055	1284081	prompt	n/a	spreading modeling there's choose\n
642.9185	0.1355	1285837	keystroke_s	s	n/a
643.1135	0.075	1286227	keystroke_p	p	n/a
643.429	0.1495	1286858	keystroke_r	r	n/a
643.5335	0.1805	1287067	keystroke_e	e	n/a
643.789	0.1345	1287578	keystroke_a	a	n/a
643.999	0.21	1287998	keystroke_d	d	n/a
644.1185	0.1045	1288237	keystroke_i	i	n/a
644.3585	0.09	1288717	keystroke_n	n	n/a
644.539	0.1195	1289078	keystroke_g	g	n/a
644.6435	0.12	1289287	keystroke_Key.space	Key.space	n/a
644.839	0.1045	1289678	keystroke_m	m	n/a
645.0185	0.1505	1290037	keystroke_o	o	n/a
645.1985	0.12	1290397	keystroke_d	d	n/a
645.454	0.135	1290908	keystroke_e	e	n/a
645.5435	0.1355	1291087	keystroke_l	l	n/a
645.8135	0.105	1291627	keystroke_i	i	n/a
645.934	0.1495	1291868	keystroke_n	n	n/a
646.1435	0.0755	1292287	keystroke_g	g	n/a
646.2335	0.1505	1292467	keystroke_Key.space	Key.space	n/a
646.489	0.105	1292978	keystroke_t	t	n/a
646.564	0.09	1293128	keystroke_h	h	n/a
646.729	0.165	1293458	keystroke_e	e	n/a
646.924	0.119	1293848	keystroke_r	r	n/a
647.029	0.1645	1294058	keystroke_e	e	n/a
647.8685	0.12	1295737	keystroke_'	'	n/a
648.004	0.1195	1296008	keystroke_s	s	n/a
648.199	0.15	1296398	keystroke_Key.space	Key.space	n/a
648.4685	0.1655	1296937	keystroke_c	c	n/a
648.619	0.075	1297238	keystroke_h	h	n/a
648.8435	0.06	1297687	keystroke_o	o	n/a
649.024	0.09	1298048	keystroke_o	o	n/a
649.084	0.12	1298168	keystroke_s	s	n/a
649.3835	0.121	1298767	keystroke_e	e	n/a
650.554	0.089	1301108	keystroke_Key.enter	Key.enter	n/a
650.65	7.451	1301300	prompt	n/a	ahead believe duncan hacker\n
651.394	0.105	1302788	keystroke_a	a	n/a
651.529	0.09	1303058	keystroke_h	h	n/a
651.694	0.1045	1303388	keystroke_e	e	n/a
651.9035	0.1205	1303807	keystroke_a	a	n/a
652.099	0.1795	1304198	keystroke_d	d	n/a
652.2635	0.135	1304527	keystroke_Key.space	Key.space	n/a
652.519	0.105	1305038	keystroke_b	b	n/a
652.714	0.165	1305428	keystroke_e	e	n/a
652.863	0.1055	1305726	keystroke_l	l	n/a
653.104	0.09	1306208	keystroke_i	i	n/a
653.134	0.135	1306268	keystroke_e	e	n/a
653.419	0.15	1306838	keystroke_v	v	n/a
653.614	0.165	1307228	keystroke_Key.space	Key.space	n/a
653.794	0.105	1307588	keystroke_e	e	n/a
653.944	0.03	1307888	keystroke_i	i	n/a
654.5735	0.075	1309147	keystroke_Key.backspace	Key.backspace	n/a
654.8735	0.0605	1309747	keystroke_Key.backspace	Key.backspace	n/a
655.023	0.0905	1310046	keystroke_Key.backspace	Key.backspace	n/a
655.308	0.121	1310616	keystroke_e	e	n/a
655.518	0.136	1311036	keystroke_Key.space	Key.space	n/a
655.714	0.1645	1311428	keystroke_d	d	n/a
655.8335	0.0745	1311667	keystroke_u	u	n/a
656.074	0.105	1312148	keystroke_n	n	n/a
656.284	0.105	1312568	keystroke_c	c	n/a
656.539	0.105	1313078	keystroke_a	a	n/a
656.584	0.165	1313168	keystroke_n	n	n/a
656.689	0.18	1313378	keystroke_Key.space	Key.space	n/a
656.914	0.104	1313828	keystroke_h	h	n/a
656.988	0.09	1313976	keystroke_a	a	n/a
657.2285	0.12	1314457	keystroke_c	c	n/a
657.3335	0.0905	1314667	keystroke_k	k	n/a
657.4985	0.24	1314997	keystroke_e	e	n/a
657.7235	0.105	1315447	keystroke_r	r	n/a
657.979	0.1195	1315958	keystroke_Key.enter	Key.enter	n/a
658.106	7.3	1316212	prompt	n/a	cove select arranged visit\n
658.9685	0.12	1317937	keystroke_c	c	n/a
659.1035	0.12	1318207	keystroke_o	o	n/a
659.268	0.1205	1318536	keystroke_v	v	n/a
