onset	duration	sample	value	key	prompt_text
4.9455	13.597	9891	prompt	n/a	the quick brown fox jumps over a lazy dog\n
8.4625	0.058	16925	keystroke_t	t	n/a
8.5205	0.09	17041	keystroke_h	h	n/a
8.6405	0.12	17281	keystroke_e	e	n/a
8.9705	0.104	17941	keystroke_Key.space	Key.space	n/a
9.7805	0.045	19561	keystroke_q	q	n/a
9.8705	0.149	19741	keystroke_u	u	n/a
9.9755	0.12	19951	keystroke_i	i	n/a
10.1255	0.165	20251	keystroke_c	c	n/a
10.2905	0.09	20581	keystroke_k	k	n/a
10.5155	0.075	21031	keystroke_Key.space	Key.space	n/a
10.7105	0.105	21421	keystroke_f	f	n/a
11.25	0.06	22500	keystroke_Key.backspace	Key.backspace	n/a
11.46	0.075	22920	keystroke_b	b	n/a
11.67	0.135	23340	keystroke_r	r	n/a
11.79	0.105	23580	keystroke_o	o	n/a
12.135	0.015	24270	keystroke_w	w	n/a
12.24	0.105	24480	keystroke_n	n	n/a
12.585	0.09	25170	keystroke_Key.space	Key.space	n/a
12.84	0.1205	25680	keystroke_f	f	n/a
12.9455	0.135	25891	keystroke_o	o	n/a
13.38	0.045	26760	keystroke_Key.space	Key.space	n/a
13.755	0.09	27510	keystroke_Key.backspace	Key.backspace	n/a
14.115	0.15	28230	keystroke_x	x	n/a
14.4595	0.105	28919	keystroke_Key.space	Key.space	n/a
14.7005	0.0895	29401	keystroke_j	j	n/a
14.88	0.09	29760	keystroke_u	u	n/a
15.12	0.1195	30240	keystroke_m	m	n/a
15.2695	0.12	30539	keystroke_p	p	n/a
15.4645	0.15	30929	keystroke_s	s	n/a
15.5845	0.105	31169	keystroke_Key.space	Key.space	n/a
15.7645	0.135	31529	keystroke_o	o	n/a
15.9895	0.12	31979	keystroke_v	v	n/a
16.1545	0.21	32309	keystroke_e	e	n/a
16.2595	0.166	32519	keystroke_r	r	n/a
16.3795	0.105	32759	keystroke_Key.space	Key.space	n/a
16.5305	0.12	33061	keystroke_a	a	n/a
16.6045	0.106	33209	keystroke_Key.space	Key.space	n/a
16.8295	0.135	33659	keystroke_l	l	n/a
16.9195	0.151	33839	keystroke_a	a	n/a
17.2055	0.15	34411	keystroke_z	z	n/a
17.4755	0.135	34951	keystroke_y	y	n/a
17.6255	0.105	35251	keystroke_Key.space	Key.space	n/a
17.8955	0.135	35791	keystroke_d	d	n/a
18.0155	0.105	36031	keystroke_o	o	n/a
18.2405	0.12	36481	keystroke_g	g	n/a
18.4355	0.105	36871	keystroke_Key.enter	Key.enter	n/a
18.546	6.536	37092	prompt	n/a	serum calculation martha toward\n
19.275	0.135	38550	keystroke_s	s	n/a
19.38	0.21	38760	keystroke_e	e	n/a
19.53	0.135	39060	keystroke_r	r	n/a
19.755	0.12	39510	keystroke_u	u	n/a
20.07	0.165	40140	keystroke_m	m	n/a
20.16	0.15	40320	keystroke_Key.space	Key.space	n/a
20.415	0.15	40830	keystroke_c	c	n/a
20.61	0.135	41220	keystroke_a	a	n/a
20.73	0.105	41460	keystroke_l	l	n/a
21.045	0.135	42090	keystroke_c	c	n/a
21.165	0.09	42330	keystroke_u	u	n/a
21.405	0.12	42810	keystroke_l	l	n/a
21.51	0.165	43020	keystroke_a	a	n/a
21.66	0.12	43320	keystroke_t	t	n/a
21.735	0.315	43470	keystroke_i	i	n/a
21.84	0.195	43680	keystroke_o	o	n/a
21.975	0.165	43950	keystroke_n	n	n/a
22.155	0.12	44310	keystroke_Key.space	Key.space	n/a
22.38	0.135	44760	keystroke_m	m	n/a
22.5	0.21	45000	keystroke_a	a	n/a
22.635	0.09	45270	keystroke_r	r	n/a
22.83	0.12	45660	keystroke_t	t	n/a
22.935	0.12	45870	keystroke_h	h	n/a
23.475	0.12	46950	keystroke_a	a	n/a
23.67	0.12	47340	keystroke_Key.space	Key.space	n/a
23.94	0.0895	47880	keystroke_t	t	n/a
24.09	0.1195	48180	keystroke_o	o	n/a
24.225	0.1345	48450	keystroke_w	w	n/a
24.4205	0.135	48841	keystroke_a	a	n/a
24.4955	0.12	48991	keystroke_r	r	n/a
24.7505	0.12	49501	keystroke_d	d	n/a
24.9905	0.09	49981	keystroke_Key.enter	Key.enter	n/a
25.086	9.641	50172	prompt	n/a	beyond songs investigations gradually\n
25.8905	0.075	51781	keystroke_b	b	n/a
26.4755	0.09	52951	keystroke_e	e	n/a
26.6105	0.09	53221	keystroke_y	y	n/a
26.8655	0.15	53731	keystroke_o	o	n/a
27.0905	0.135	54181	keystroke_n	n	n/a
27.2555	0.15	54511	keystroke_d	d	n/a
27.3905	0.09	54781	keystroke_Key.space	Key.space	n/a
27.7505	0.165	55501	keystroke_s	s	n/a
27.8405	0.135	55681	keystroke_o	o	n/a
28.0655	0.12	56131	keystroke_n	n	n/a
28.3205	0.105	56641	keystroke_g	g	n/a
28.5455	0.12	57091	keystroke_s	s	n/a
28.6955	0.105	57391	keystroke_Key.space	Key.space	n/a
28.9205	0.15	57841	keystroke_i	i	n/a
29.0855	0.1055	58171	keystroke_n	n	n/a
29.22	0.105	58440	keystroke_v	v	n/a
29.46	0.135	58920	keystroke_e	e	n/a
29.7	0.18	59400	keystroke_s	s	n/a
29.865	0.1055	59730	keystroke_t	t	n/a
30.0455	0.105	60091	keystroke_i	i	n/a
30.3005	0.135	60601	keystroke_g	g	n/a
30.4655	0.12	60931	keystroke_a	a	n/a
30.6005	0.12	61201	keystroke_t	t	n/a
30.7055	0.33	61411	keystroke_i	i	n/a
30.8105	0.21	61621	keystroke_o	o	n/a
30.9755	0.12	61951	keystroke_n	n	n/a
31.1855	0.105	62371	keystroke_s	s	n/a
31.3505	0.105	62701	keystroke_Key.space	Key.space	n/a
31.6055	0.075	63211	keystroke_g	g	n/a
31.8005	0.165	63601	keystroke_r	r	n/a
31.9055	0.12	63811	keystroke_a	a	n/a
32.3405	0.12	64681	keystroke_d	d	n/a
32.5655	0.09	65131	keystroke_u	u	n/a
32.7455	0.075	65491	keystroke_s	s	n/a
33.3155	0.015	66631	keystroke_Key.backspace	Key.backspace	n/a
33.4055	0.075	66811	keystroke_a	a	n/a
33.7055	0.075	67411	keystroke_l	l	n/a
33.9005	0.09	67801	keystroke_l	l	n/a
34.1855	0.0145	68371	keystroke_y	y	n/a
34.62	0.105	69240	keystroke_Key.enter	Key.enter	n/a
34.735	6.877	69470	prompt	n/a	beginner schools seekers rail\n
35.4755	0.09	70951	keystroke_b	b	n/a
35.8805	0.105	71761	keystroke_e	e	n/a
36.1955	0.105	72391	keystroke_g	g	n/a
36.3305	0.03	72661	keystroke_i	i	n/a
36.6305	0.075	73261	keystroke_n	n	n/a
36.8405	0.075	73681	keystroke_n	n	n/a
37.1705	0.1795	74341	keystroke_e	e	n/a
37.305	0.12	74610	keystroke_r	r	n/a
37.56	0.105	75120	keystroke_Key.space	Key.space	n/a
37.815	0.12	75630	keystroke_s	s	n/a
38.04	0.15	76080	keystroke_c	c	n/a
38.175	0.166	76350	keystroke_h	h	n/a
38.311	0.075	76622	keystroke_o	o	n/a
38.506	0.059	77012	keystroke_o	o	n/a
38.73	0.136	77460	keystroke_l	l	n/a
38.94	0.15	77880	keystroke_s	s	n/a
39.091	0.104	78182	keystroke_Key.space	Key.space	n/a
39.3005	0.165	78601	keystroke_s	s	n/a
39.4505	0.105	78901	keystroke_e	e	n/a
39.6605	0.105	79321	keystroke_e	e	n/a
39.7505	0.105	79501	keystroke_k	k	n/a
39.9005	0.165	79801	keystroke_e	e	n/a
40.0205	0.135	80041	keystroke_r	r	n/a
40.2905	0.12	80581	keystroke_s	s	n/a
40.4555	0.12	80911	keystroke_Key.space	Key.space	n/a
40.6805	0.195	81361	keystroke_r	r	n/a
40.8605	0.135	81721	keystroke_a	a	n/a
40.9805	0.135	81961	keystroke_i	i	n/a
41.2505	0.105	82501	keystroke_l	l	n/a
41.4905	0.12	82981	keystroke_Key.enter	Key.enter	n/a
41.6145	13.01	83229	prompt	n/a	household comp upgrade expression\n
42.316	0.135	84632	keystroke_h	h	n/a
42.436	0.164	84872	keystroke_o	o	n/a
42.555	0.136	85110	keystroke_u	u	n/a
42.72	0.18	85440	keystroke_s	s	n/a
42.84	0.15	85680	keystroke_e	e	n/a
43.23	0.165	86460	keystroke_h	h	n/a
43.351	0.119	86702	keystroke_o	o	n/a
43.5905	0.12	87181	keystroke_l	l	n/a
43.7405	0.135	87481	keystroke_d	d	n/a
43.9355	0.09	87871	keystroke_Key.space	Key.space	n/a
44.19	0.105	88380	keystroke_c	c	n/a
44.25	0.105	88500	keystroke_o	o	n/a
44.625	0.165	89250	keystroke_p	p	n/a
45.105	0.06	90210	keystroke_Key.backspace	Key.backspace	n/a
45.36	0.105	90720	keystroke_m	m	n/a
45.54	0.1505	91080	keystroke_p	p	n/a
46.3055	0.12	92611	keystroke_Key.space	Key.space	n/a
46.5905	0.1495	93181	keystroke_u	u	n/a
46.725	0.12	93450	keystroke_p	p	n/a
46.98	0.105	93960	keystroke_g	g	n/a
47.205	0.165	94410	keystroke_r	r	n/a
47.28	0.15	94560	keystroke_a	a	n/a
47.55	0.12	95100	keystroke_d	d	n/a
47.805	0.105	95610	keystroke_e	e	n/a
48.315	0.075	96630	keystroke_Key.space	Key.space	n/a
50.642	0.001	101284	keystroke_j	j	n/a
50.745	0.09	101490	keystroke_e	e	n/a
51.3605	0.075	102721	keystroke_Key.backspace	Key.backspace	n/a
51.5405	0.09	103081	keystroke_Key.backspace	Key.backspace	n/a
51.9455	0.06	103891	keystroke_e	e	n/a
52.2605	0.0895	104521	keystroke_p	p	n/a
52.6505	0.06	105301	keystroke_Key.backspace	Key.backspace	n/a
52.9355	0.15	105871	keystroke_x	x	n/a
53.2055	0.105	106411	keystroke_p	p	n/a
53.4305	0.15	106861	keystroke_r	r	n/a
53.5205	0.12	107041	keystroke_e	e	n/a
53.7605	0.0895	107521	keystroke_s	s	n/a
53.985	0.135	107970	keystroke_s	s	n/a
54.045	0.285	108090	keystroke_i	i	n/a
54.165	0.18	108330	keystroke_o	o	n/a
54.285	0.105	108570	keystroke_n	n	n/a
54.525	0.09	109050	keystroke_Key.enter	Key.enter	n/a
54.629	11.0055	109258	prompt	n/a	scientists nicaragua gazette lafayette\n
55.2605	0.135	110521	keystroke_s	s	n/a
55.5155	0.135	111031	keystroke_c	c	n/a
56.0705	0.15	112141	keystroke_i	i	n/a
56.3105	0.15	112621	keystroke_e	e	n/a
56.4305	0.12	112861	keystroke_n	n	n/a
56.61	0.105	113220	keystroke_t	t	n/a
56.775	0.135	113550	keystroke_i	i	n/a
56.94	0.135	113880	keystroke_s	s	n/a
57.12	0.135	114240	keystroke_t	t	n/a
57.39	0.105	114780	keystroke_Key.space	Key.space	n/a
57.645	0.12	115290	keystroke_n	n	n/a
57.885	0.12	115770	keystroke_i	i	n/a
58.305	0.12	116610	keystroke_c	c	n/a
58.53	0.165	117060	keystroke_a	a	n/a
59.025	0.135	118050	keystroke_r	r	n/a
59.64	0.105	119280	keystroke_a	a	n/a
60.5105	0.135	121021	keystroke_g	g	n/a
60.6145	0.106	121229	keystroke_u	u	n/a
60.7955	0.12	121591	keystroke_a	a	n/a
61.1545	0.1205	122309	keystroke_Key.space	Key.space	n/a
61.65	0.21	123300	keystroke_g	g	n/a
61.83	0.105	123660	keystroke_a	a	n/a
62.1455	0.09	124291	keystroke_z	z	n/a
62.4305	0.105	124861	keystroke_e	e	n/a
62.6255	0.09	125251	keystroke_t	t	n/a
62.8355	0.105	125671	keystroke_t	t	n/a
62.9255	0.12	125851	keystroke_e	e	n/a
63.195	0.105	126390	keystroke_Key.space	Key.space	n/a
63.375	0.15	126750	keystroke_l	l	n/a
63.45	0.105	126900	keystroke_a	a	n/a
63.72	0.135	127440	keystroke_f	f	n/a
63.87	0.09	127740	keystroke_a	a	n/a
63.975	0.12	127950	keystroke_t	t	n/a
64.335	0.075	128670	keystroke_Key.backspace	Key.backspace	n/a
64.575	0.12	129150	keystroke_y	y	n/a
64.7245	0.136	129449	keystroke_e	e	n/a
64.9055	0.105	129811	keystroke_t	t	n/a
65.1305	0.105	130261	keystroke_t	t	n/a
65.2205	0.164	130441	keystroke_e	e	n/a
65.5205	0.104	131041	keystroke_Key.enter	Key.enter	n/a
65.6385	9.087	131277	prompt	n/a	biotechnology you'd nasa hispanic\n
66.4055	0.135	132811	keystroke_b	b	n/a
66.5705	0.135	133141	keystroke_i	i	n/a
66.7655	0.119	133531	keystroke_o	o	n/a
66.9305	0.15	133861	keystroke_t	t	n/a
67.1855	0.1045	134371	keystroke_e	e	n/a
67.425	0.165	134850	keystroke_c	c	n/a
67.65	0.105	135300	keystroke_h	h	n/a
67.98	0.18	135960	keystroke_n	n	n/a
68.115	0.12	136230	keystroke_o	o	n/a
68.7755	0.105	137551	keystroke_l	l	n/a
69.0155	0.12	138031	keystroke_o	o	n/a
69.1955	0.15	138391	keystroke_g	g	n/a
69.3305	0.105	138661	keystroke_y	y	n/a
70.215	0.105	140430	keystroke_Key.space	Key.space	n/a
70.71	0.135	141420	keystroke_y	y	n/a
70.86	0.135	141720	keystroke_o	o	n/a
70.965	0.12	141930	keystroke_u	u	n/a
71.1905	0.1195	142381	keystroke_'	'	n/a
71.7	0.15	143400	keystroke_d	d	n/a
71.865	0.09	143730	keystroke_Key.space	Key.space	n/a
72.09	0.135	144180	keystroke_n	n	n/a
72.226	0.239	144452	keystroke_a	a	n/a
72.435	0.165	144870	keystroke_s	s	n/a
72.6	0.135	145200	keystroke_a	a	n/a
73.0655	0.12	146131	keystroke_Key.space	Key.space	n/a
73.2605	0.21	146521	keystroke_h	h	n/a
73.3955	0.105	146791	keystroke_i	i	n/a
73.5605	0.165	147121	keystroke_s	s	n/a
73.7705	0.12	147541	keystroke_p	p	n/a
73.8905	0.15	147781	keystroke_a	a	n/a
74.0705	0.195	148141	keystroke_n	n	n/a
74.2055	0.12	148411	keystroke_i	i	n/a
74.3845	0.15	148769	keystroke_c	c	n/a
74.5645	0.15	149129	keystroke_Key.enter	Key.enter	n/a
74.7315	7.7625	149463	prompt	n/a	total disturbed extension integrity\n
75.315	0.165	150630	keystroke_t	t	n/a
75.465	0.09	150930	keystroke_o	o	n/a
75.615	0.18	151230	keystroke_t	t	n/a
75.765	0.12	151530	keystroke_a	a	n/a
75.93	0.225	151860	keystroke_l	l	n/a
76.08	0.1645	152160	keystroke_Key.space	Key.space	n/a
76.3655	0.135	152731	keystroke_d	d	n/a
76.4705	0.12	152941	keystroke_i	i	n/a
76.6055	0.15	153211	keystroke_s	s	n/a
76.8155	0.12	153631	keystroke_t	t	n/a
77.01	0.105	154020	keystroke_u	u	n/a
77.175	0.135	154350	keystroke_r	r	n/a
77.385	0.075	154770	keystroke_n	n	n/a
78.075	0.105	156150	keystroke_Key.backspace	Key.backspace	n/a
78.225	0.075	156450	keystroke_b	b	n/a
78.435	0.09	156870	keystroke_e	e	n/a
78.675	0.135	157350	keystroke_d	d	n/a
78.795	0.105	157590	keystroke_Key.space	Key.space	n/a
78.96	0.0905	157920	keystroke_e	e	n/a
79.2005	0.135	158401	keystroke_x	x	n/a
79.4105	0.135	158821	keystroke_t	t	n/a
79.5305	0.1795	159061	keystroke_e	e	n/a
79.695	0.135	159390	keystroke_n	n	n/a
79.86	0.165	159720	keystroke_s	s	n/a
79.95	0.2555	159900	keystroke_i	i	n/a
80.1005	0.15	160201	keystroke_o	o	n/a
80.1755	0.165	160351	keystroke_n	n	n/a
80.4305	0.12	160861	keystroke_Key.space	Key.space	n/a
80.5955	0.195	161191	keystroke_i	i	n/a
80.7605	0.135	161521	keystroke_n	n	n/a
80.8505	0.105	161701	keystroke_t	t	n/a
81.045	0.105	162090	keystroke_e	e	n/a
81.36	0.105	162720	keystroke_g	g	n/a
81.615	0.135	163230	keystroke_r	r	n/a
81.765	0.12	163530	keystroke_i	i	n/a
81.975	0.135	163950	keystroke_t	t	n/a
82.111	0.104	164222	keystroke_y	y	n/a
82.395	0.0905	164790	keystroke_Key.enter	Key.enter	n/a
82.4985	6.858	164997	prompt	n/a	juice suitable early causes\n
83.175	0.12	166350	keystroke_j	j	n/a
83.385	0.15	166770	keystroke_u	u	n/a
83.58	0.135	167160	keystroke_i	i	n/a
83.775	0.135	167550	keystroke_c	c	n/a
84.06	0.15	168120	keystroke_e	e	n/a
84.195	0.135	168390	keystroke_Key.space	Key.space	n/a
84.45	0.165	168900	keystroke_s	s	n/a
84.57	0.135	169140	keystroke_u	u	n/a
84.825	0.105	169650	keystroke_i	i	n/a
84.975	0.12	169950	keystroke_t	t	n/a
85.59	0.105	171180	keystroke_a	a	n/a
85.83	0.135	171660	keystroke_b	b	n/a
85.95	0.165	171900	keystroke_l	l	n/a
86.085	0.135	172170	keystroke_e	e	n/a
86.355	0.135	172710	keystroke_Key.space	Key.space	n/a
86.61	0.135	173220	keystroke_e	e	n/a
86.775	0.165	173550	keystroke_a	a	n/a
86.88	0.1505	173760	keystroke_r	r	n/a
87.1205	0.09	174241	keystroke_l	l	n/a
87.3455	0.135	174691	keystroke_y	y	n/a
87.4655	0.105	174931	keystroke_Key.space	Key.space	n/a
87.6305	0.135	175261	keystroke_c	c	n/a
87.8105	0.119	175621	keystroke_a	a	n/a
88.0045	0.105	176009	keystroke_u	u	n/a
88.5895	0.24	177179	keystroke_s	s	n/a
88.7695	0.12	177539	keystroke_e	e	n/a
89.0095	0.165	178019	keystroke_s	s	n/a
89.205	0.15	178410	keystroke_Key.enter	Key.enter	n/a
89.359	7.55	178718	prompt	n/a	deluxe solely monroe array\n
90	0.09	180000	keystroke_d	d	n/a
90.1955	0.135	180391	keystroke_e	e	n/a
90.3145	0.135	180629	keystroke_l	l	n/a
90.4645	0.106	180929	keystroke_u	u	n/a
90.7195	0.105	181439	keystroke_x	x	n/a
91.515	0.105	183030	keystroke_e	e	n/a
91.665	0.135	183330	keystroke_Key.space	Key.space	n/a
91.875	0.1645	183750	keystroke_s	s	n/a
91.9945	0.09	183989	keystroke_o	o	n/a
92.2195	0.1205	184439	keystroke_l	l	n/a
92.3405	0.119	184681	keystroke_e	e	n/a
92.61	0.0895	185220	keystroke_l	l	n/a
92.8195	0.0905	185639	keystroke_y	y	n/a
93.1945	0.135	186389	keystroke_Key.space	Key.space	n/a
93.6605	0.134	187321	keystroke_m	m	n/a
93.7495	0.135	187499	keystroke_o	o	n/a
93.9595	0.135	187919	keystroke_n	n	n/a
94.2445	0.15	188489	keystroke_r	r	n/a
94.3795	0.12	188759	keystroke_o	o	n/a
94.6045	0.12	189209	keystroke_w	w	n/a
95.0405	0.06	190081	keystroke_Key.backspace	Key.backspace	n/a
95.0855	0.12	190171	keystroke_e	e	n/a
95.2805	0.135	190561	keystroke_Key.space	Key.space	n/a
95.8805	0.12	191761	keystroke_a	a	n/a
96.0155	0.1045	192031	keystroke_r	r	n/a
96.225	0.165	192450	keystroke_r	r	n/a
96.33	0.105	192660	keystroke_a	a	n/a
96.54	0.09	193080	keystroke_y	y	n/a
96.795	0.105	193590	keystroke_Key.enter	Key.enter	n/a
96.913	7.3905	193826	prompt	n/a	depends appreciated teens languages\n
97.635	0.105	195270	keystroke_d	d	n/a
97.815	0.15	195630	keystroke_e	e	n/a
97.95	0.15	195900	keystroke_p	p	n/a
98.1	0.15	196200	keystroke_e	e	n/a
98.265	0.105	196530	keystroke_n	n	n/a
98.46	0.075	196920	keystroke_d	d	n/a
98.775	0.105	197550	keystroke_s	s	n/a
99.1045	0.121	198209	keystroke_Key.space	Key.space	n/a
99.3755	0.09	198751	keystroke_a	a	n/a
99.4355	0.12	198871	keystroke_p	p	n/a
99.6155	0.105	199231	keystroke_p	p	n/a
99.7055	0.1195	199411	keystroke_r	r	n/a
99.78	0.105	199560	keystroke_e	e	n/a
100.02	0.135	200040	keystroke_c	c	n/a
100.17	0.135	200340	keystroke_i	i	n/a
100.32	0.165	200640	keystroke_a	a	n/a
100.44	0.15	200880	keystroke_t	t	n/a
100.605	0.105	201210	keystroke_e	e	n/a
100.8295	0.136	201659	keystroke_d	d	n/a
100.9045	0.12	201809	keystroke_Key.space	Key.space	n/a
101.0845	0.1205	202169	keystroke_t	t	n/a
101.22	0.105	202440	keystroke_e	e	n/a
101.445	0.12	202890	keystroke_e	e	n/a
101.58	0.075	203160	keystroke_n	n	n/a
102.03	0.15	204060	keystroke_s	s	n/a
102.3595	0.12	204719	keystroke_Key.space	Key.space	n/a
102.5555	0.119	205111	keystroke_l	l	n/a
102.6595	0.135	205319	keystroke_a	a	n/a
102.8255	0.075	205651	keystroke_n	n	n/a
103.08	0.135	206160	keystroke_g	g	n/a
103.485	0.12	206970	keystroke_u	u	n/a
103.635	0.15	207270	keystroke_a	a	n/a
103.86	0.165	207720	keystroke_g	g	n/a
103.995	0.12	207990	keystroke_e	e	n/a
104.28	0.015	208560	keystroke_Key.enter	Key.enter	n/a
104.308	9.5515	208616	prompt	n/a	negotiation caring telling taylor\n
104.97	0.075	209940	keystroke_n	n	n/a
105.09	0.0755	210180	keystroke_e	e	n/a
105.2845	0.135	210569	keystroke_g	g	n/a
105.4495	0.1205	210899	keystroke_o	o	n/a
105.615	0.135	211230	keystroke_t	t	n/a
106.035	0.165	212070	keystroke_a	a	n/a
106.17	0.12	212340	keystroke_t	t	n/a
106.275	0.3295	212550	keystroke_i	i	n/a
106.4095	0.196	212819	keystroke_o	o	n/a
106.5445	0.165	213089	keystroke_n	n	n/a
106.7845	0.135	213569	keystroke_Key.space	Key.space	n/a
107.0255	0.119	214051	keystroke_c	c	n/a
107.3395	0.03	214679	keystroke_a	a	n/a
107.3545	0.09	214709	keystroke_r	r	n/a
107.4605	0.119	214921	keystroke_i	i	n/a
107.6395	0.121	215279	keystroke_n	n	n/a
107.7905	0.089	215581	keystroke_g	g	n/a
107.9995	0.075	215999	keystroke_Key.space	Key.space	n/a
108.2705	0.134	216541	keystroke_t	t	n/a
108.4645	0.136	216929	keystroke_e	e	n/a
108.5855	0.089	217171	keystroke_l	l	n/a
108.7795	0.15	217559	keystroke_l	l	n/a
108.8545	0.195	217709	keystroke_i	i	n/a
109.0195	0.136	218039	keystroke_n	n	n/a
109.2155	0.119	218431	keystroke_Key.space	Key.space	n/a
109.4705	0.15	218941	keystroke_t	t	n/a
109.9805	0.089	219961	keystroke_Key.backspace	Key.backspace	n/a
110.1905	0.12	220381	keystroke_Key.backspace	Key.backspace	n/a
110.3255	0.135	220651	keystroke_g	g	n/a
110.4455	0.15	220891	keystroke_Key.space	Key.space	n/a
111.1355	0.135	222271	keystroke_t	t	n/a
111.3605	0.165	222721	keystroke_a	a	n/a
111.4955	0.09	222991	keystroke_y	y	n/a
111.7805	0.045	223561	keystroke_o	o	n/a
112.005	0.075	224010	keystroke_l	l	n/a
112.335	0.06	224670	keystroke_Key.backspace	Key.backspace	n/a
112.5	0.06	225000	keystroke_Key.backspace	Key.backspace	n/a
112.755	0.09	225510	keystroke_l	l	n/a
112.965	0.105	225930	keystroke_o	o	n/a
113.04	0.15	226080	keystroke_r	r	n/a
113.7445	0.105	227489	keystroke_Key.enter	Key.enter	n/a
113.864	13.795	227728	prompt	n/a	sequences afford epinions missions\n
115.0505	0.1645	230101	keystroke_s	s	n/a
115.185	0.09	230370	keystroke_e	e	n/a
115.245	0.03	230490	keystroke_s	s	n/a
115.425	0.165	230850	keystroke_q	q	n/a
115.605	0.12	231210	keystroke_u	u	n/a
115.8	0.12	231600	keystroke_e	e	n/a
116.205	0.06	232410	keystroke_Key.backspace	Key.backspace	n/a
116.385	0.09	232770	keystroke_Key.backspace	Key.backspace	n/a
116.58	0.06	233160	keystroke_Key.backspace	Key.backspace	n/a
116.76	0.075	233520	keystroke_Key.backspace	Key.backspace	n/a
116.805	0.135	233610	keystroke_q	q	n/a
117.09	0.03	234180	keystroke_u	u	n/a
117.2555	0.044	234511	keystroke_e	e	n/a
117.7655	0.119	235531	keystroke_n	n	n/a
118.3645	0.06	236729	keystroke_c	c	n/a
118.605	0.09	237210	keystroke_e	e	n/a
118.83	0.09	237660	keystroke_s	s	n/a
119.22	0.135	238440	keystroke_Key.space	Key.space	n/a
119.52	0.075	239040	keystroke_f	f	n/a
119.835	0.09	239670	keystroke_Key.backspace	Key.backspace	n/a
119.88	0.135	239760	keystroke_a	a	n/a
120.075	0.12	240150	keystroke_f	f	n/a
120.285	0.105	240570	keystroke_f	f	n/a
120.36	0.12	240720	keystroke_o	o	n/a
120.495	0.105	240990	keystroke_r	r	n/a
120.9295	0.121	241859	keystroke_d	d	n/a
121.1245	0.135	242249	keystroke_Key.space	Key.space	n/a
122.265	0.135	244530	keystroke_e	e	n/a
122.49	0.105	244980	keystroke_p	p	n/a
122.73	0.105	245460	keystroke_i	i	n/a
124.0495	0.195	248099	keystroke_n	n	n/a
124.1845	0.15	248369	keystroke_i	i	n/a
124.3795	0.1805	248759	keystroke_o	o	n/a
124.635	0.1505	249270	keystroke_n	n	n/a
125.3095	0.195	250619	keystroke_s	s	n/a
125.4745	0.12	250949	keystroke_Key.space	Key.space	n/a
125.7295	0.1805	251459	keystroke_m	m	n/a
125.85	0.105	251700	keystroke_i	i	n/a
125.955	0.12	251910	keystroke_s	s	n/a
126.1505	0.165	252301	keystroke_s	s	n/a
126.2245	0.181	252449	keystroke_i	i	n/a
126.3605	0.21	252721	keystroke_o	o	n/a
126.5395	0.09	253079	keystroke_n	n	n/a
127.29	0.165	254580	keystroke_s	s	n/a
127.5	0.15	255000	keystroke_Key.enter	Key.enter	n/a
127.663	10.136	255326	prompt	n/a	who're extensions pennsylvania peak\n
128.46	0.12	256920	keystroke_w	w	n/a
128.595	0.12	257190	keystroke_h	h	n/a
128.7	0.1045	257400	keystroke_o	o	n/a
129.18	0.1055	258360	keystroke_'	'	n/a
129.5105	0.18	259021	keystroke_r	r	n/a
129.5855	0.165	259171	keystroke_e	e	n/a
130.3955	0.12	260791	keystroke_e	e	n/a
130.8455	0.195	261691	keystroke_Key.backspace	Key.backspace	n/a
130.9955	0.18	261991	keystroke_Key.space	Key.space	n/a
131.55	0.075	263100	keystroke_e	e	n/a
131.775	0.105	263550	keystroke_x	x	n/a
132.045	0.135	264090	keystroke_t	t	n/a
132.21	0.135	264420	keystroke_e	e	n/a
132.405	0.12	264810	keystroke_n	n	n/a
132.66	0.135	265320	keystroke_s	s	n/a
132.75	0.3605	265500	keystroke_i	i	n/a
132.9	0.225	265800	keystroke_o	o	n/a
133.05	0.135	266100	keystroke_n	n	n/a
133.26	0.12	266520	keystroke_s	s	n/a
133.65	0.12	267300	keystroke_Key.space	Key.space	n/a
134.0255	0.135	268051	keystroke_p	p	n/a
134.1905	0.1345	268381	keystroke_e	e	n/a
134.37	0.105	268740	keystroke_n	n	n/a
134.565	0.09	269130	keystroke_n	n	n/a
134.656	0.194	269312	keystroke_s	s	n/a
134.865	0.105	269730	keystroke_y	y	n/a
135.12	0.105	270240	keystroke_l	l	n/a
135.48	0.165	270960	keystroke_v	v	n/a
135.675	0.105	271350	keystroke_a	a	n/a
135.975	0.2105	271950	keystroke_n	n	n/a
136.1255	0.12	272251	keystroke_i	i	n/a
136.3055	0.1495	272611	keystroke_a	a	n/a
136.635	0.12	273270	keystroke_Key.space	Key.space	n/a
136.875	0.091	273750	keystroke_p	p	n/a
137.0255	0.105	274051	keystroke_e	e	n/a
137.2805	0.135	274561	keystroke_a	a	n/a
137.4305	0.09	274861	keystroke_k	k	n/a
137.6555	0.135	275311	keystroke_Key.enter	Key.enter	n/a
137.805	12.5195	275610	prompt	n/a	biographies threatened geological genes\n
138.585	0.15	277170	keystroke_b	b	n/a
138.75	0.12	277500	keystroke_i	i	n/a
138.96	0.15	277920	keystroke_o	o	n/a
139.23	0.12	278460	keystroke_g	g	n/a
139.455	0.165	278910	keystroke_r	r	n/a
139.59	0.12	279180	keystroke_a	a	n/a
140.1605	0.074	280321	keystroke_p	p	n/a
140.2945	0.195	280589	keystroke_h	h	n/a
140.4595	0.135	280919	keystroke_i	i	n/a
140.9395	0.12	281879	keystroke_e	e	n/a
141.2105	0.1495	282421	keystroke_s	s	n/a
141.39	0.15	282780	keystroke_Key.space	Key.space	n/a
141.78	0.15	283560	keystroke_t	t	n/a
141.9	0.09	283800	keystroke_h	h	n/a
142.035	0.15	284070	keystroke_e	e	n/a
142.41	0.045	284820	keystroke_Key.backspace	Key.backspace	n/a
142.635	0.195	285270	keystroke_r	r	n/a
142.8	0.135	285600	keystroke_e	e	n/a
143.1	0.1205	286200	keystroke_a	a	n/a
143.3255	0.12	286651	keystroke_t	t	n/a
143.6105	0.12	287221	keystroke_e	e	n/a
143.8505	0.12	287701	keystroke_n	n	n/a
144.0155	0.135	288031	keystroke_e	e	n/a
144.3005	0.15	288601	keystroke_d	d	n/a
144.4655	0.12	288931	keystroke_Key.space	Key.space	n/a
144.8105	0.15	289621	keystroke_g	g	n/a
145.0205	0.135	290041	keystroke_e	e	n/a
145.2145	0.135	290429	keystroke_o	o	n/a
146.715	0.075	293430	keystroke_l	l	n/a
146.925	0.12	293850	keystroke_o	o	n/a
147.255	0.15	294510	keystroke_g	g	n/a
147.375	0.15	294750	keystroke_i	i	n/a
147.69	0.105	295380	keystroke_a	a	n/a
148.0505	0.045	296101	keystroke_Key.backspace	Key.backspace	n/a
148.1255	0.12	296251	keystroke_c	c	n/a
148.3955	0.12	296791	keystroke_a	a	n/a
148.5005	0.12	297001	keystroke_l	l	n/a
149.01	0.12	298020	keystroke_Key.space	Key.space	n/a
149.385	0.105	298770	keystroke_g	g	n/a
149.565	0.15	299130	keystroke_e	e	n/a
149.7	0.105	299400	keystroke_n	n	n/a
149.82	0.135	299640	keystroke_e	e	n/a
150.06	0.165	300120	keystroke_s	s	n/a
150.195	0.1205	300390	keystroke_Key.enter	Key.enter	n/a
150.3285	8.65	300657	prompt	n/a	indonesian meetings barrel cloudy\n
151.1105	0.165	302221	keystroke_i	i	n/a
151.2905	0.105	302581	keystroke_n	n	n/a
151.3805	0.15	302761	keystroke_d	d	n/a
151.5005	0.12	303001	keystroke_o	o	n/a
151.9055	0.119	303811	keystroke_n	n	n/a
152.0545	0.1055	304109	keystroke_e	e	n/a
152.2795	0.135	304559	keystroke_s	s	n/a
152.3545	0.1655	304709	keystroke_i	i	n/a
152.5495	0.135	305099	keystroke_a	a	n/a
152.6695	0.09	305339	keystroke_n	n	n/a
153.285	0.105	306570	keystroke_Key.space	Key.space	n/a
153.48	0.12	306960	keystroke_m	m	n/a
153.555	0.105	307110	keystroke_e	e	n/a
153.765	0.2545	307530	keystroke_e	e	n/a
153.8995	0.15	307799	keystroke_t	t	n/a
153.9745	0.15	307949	keystroke_i	i	n/a
154.1255	0.134	308251	keystroke_n	n	n/a
154.2445	0.1355	308489	keystroke_g	g	n/a
155.0245	0.12	310049	keystroke_s	s	n/a
155.3545	0.12	310709	keystroke_Key.space	Key.space	n/a
155.6545	0.1805	311309	keystroke_b	b	n/a
155.82	0.15	311640	keystroke_a	a	n/a
156	0.1045	312000	keystroke_r	r	n/a
156.1945	0.15	312389	keystroke_r	r	n/a
156.3595	0.15	312719	keystroke_e	e	n/a
156.5695	0.106	313139	keystroke_l	l	n/a
157.1845	0.135	314369	keystroke_Key.space	Key.space	n/a
157.4095	0.136	314819	keystroke_c	c	n/a
157.5295	0.105	315059	keystroke_l	l	n/a
157.7705	0.179	315541	keystroke_o	o	n/a
157.9205	0.134	315841	keystroke_u	u	n/a
158.2655	0.119	316531	keystroke_d	d	n/a
158.64	0.09	317280	keystroke_y	y	n/a
158.8645	0.105	317729	keystroke_Key.enter	Key.enter	n/a
158.9825	7.601	317965	prompt	n/a	democrat treaty reprint degree\n
159.63	0.15	319260	keystroke_d	d	n/a
159.84	0.135	319680	keystroke_e	e	n/a
160.11	0.1495	320220	keystroke_m	m	n/a
160.1995	0.165	320399	keystroke_o	o	n/a
160.5745	0.135	321149	keystroke_c	c	n/a
160.8595	0.15	321719	keystroke_r	r	n/a
161.0695	0.1805	322139	keystroke_a	a	n/a
161.28	0.15	322560	keystroke_t	t	n/a
161.7895	0.12	323579	keystroke_Key.space	Key.space	n/a
162.15	0.105	324300	keystroke_t	t	n/a
162.39	0.15	324780	keystroke_r	r	n/a
162.48	0.1805	324960	keystroke_e	e	n/a
162.7805	0.1495	325561	keystroke_a	a	n/a
162.9	0.15	325800	keystroke_t	t	n/a
163.335	0.105	326670	keystroke_y	y	n/a
163.605	0.09	327210	keystroke_Key.space	Key.space	n/a
163.8	0.165	327600	keystroke_r	r	n/a
163.89	0.165	327780	keystroke_e	e	n/a
164.1	0.12	328200	keystroke_p	p	n/a
164.235	0.1495	328470	keystroke_r	r	n/a
164.3995	0.12	328799	keystroke_i	i	n/a
164.625	0.12	329250	keystroke_n	n	n/a
164.76	0.12	329520	keystroke_t	t	n/a
165.075	0.12	330150	keystroke_Key.space	Key.space	n/a
165.345	0.09	330690	keystroke_d	d	n/a
165.54	0.0895	331080	keystroke_e	e	n/a
165.7495	0.075	331499	keystroke_g	g	n/a
165.9445	0.15	331889	keystroke_r	r	n/a
166.0645	0.12	332129	keystroke_e	e	n/a
166.2745	0.12	332549	keystroke_e	e	n/a
166.4245	0.15	332849	keystroke_Key.enter	Key.enter	n/a
166.5885	8.0355	333177	prompt	n/a	lender stretch adverse efficiently\n
167.2645	0.135	334529	keystroke_l	l	n/a
167.3395	0.135	334679	keystroke_e	e	n/a
167.5495	0.06	335099	keystroke_n	n	n/a
167.6545	0.075	335309	keystroke_d	d	n/a
167.8345	0.195	335669	keystroke_e	e	n/a
167.9545	0.15	335909	keystroke_r	r	n/a
168.1495	0.105	336299	keystroke_Key.space	Key.space	n/a
168.2695	0.1655	336539	keystroke_s	s	n/a
168.405	0.105	336810	keystroke_t	t	n/a
168.615	0.135	337230	keystroke_r	r	n/a
168.69	0.135	337380	keystroke_e	e	n/a
169.365	0.12	338730	keystroke_t	t	n/a
169.725	0.165	339450	keystroke_c	c	n/a
169.92	0.15	339840	keystroke_h	h	n/a
170.115	0.135	340230	keystroke_Key.space	Key.space	n/a
170.31	0.12	340620	keystroke_a	a	n/a
170.475	0.105	340950	keystroke_d	d	n/a
170.685	0.105	341370	keystroke_v	v	n/a
170.865	0.1945	341730	keystroke_e	e	n/a
171.015	0.1045	342030	keystroke_r	r	n/a
171.2255	0.12	342451	keystroke_s	s	n/a
171.4345	0.15	342869	keystroke_e	e	n/a
171.5995	0.135	343199	keystroke_Key.space	Key.space	n/a
171.8545	0.12	343709	keystroke_e	e	n/a
172.2895	0.12	344579	keystroke_f	f	n/a
172.5145	0.105	345029	keystroke_f	f	n/a
172.6045	0.135	345209	keystroke_i	i	n/a
172.7995	0.12	345599	keystroke_c	c	n/a
172.9045	0.12	345809	keystroke_i	i	n/a
173.1145	0.12	346229	keystroke_e	e	n/a
173.2795	0.105	346559	keystroke_n	n	n/a
173.4145	0.09	346829	keystroke_t	t	n/a
173.9695	0.12	347939	keystroke_l	l	n/a
174.2395	0.106	348479	keystroke_y	y	n/a
174.5255	0.09	349051	keystroke_Key.enter	Key.enter	n/a
174.629	7.014	349258	prompt	n/a	sherman soft originally contribution\n
175.2755	0.12	350551	keystroke_s	s	n/a
175.4405	0.105	350881	keystroke_h	h	n/a
175.5605	0.195	351121	keystroke_e	e	n/a
175.7105	0.105	351421	keystroke_r	r	n/a
175.9655	0.135	351931	keystroke_m	m	n/a
176.0705	0.135	352141	keystroke_a	a	n/a
176.2355	0.165	352471	keystroke_n	n	n/a
176.3405	0.15	352681	keystroke_Key.space	Key.space	n/a
176.64	0.18	353280	keystroke_s	s	n/a
176.79	0.09	353580	keystroke_o	o	n/a
177.105	0.0905	354210	keystroke_f	f	n/a
177.3305	0.105	354661	keystroke_t	t	n/a
177.4945	0.121	354989	keystroke_Key.space	Key.space	n/a
177.7205	0.12	355441	keystroke_o	o	n/a
177.8545	0.106	355709	keystroke_r	r	n/a
177.9745	0.106	355949	keystroke_i	i	n/a
178.1395	0.165	356279	keystroke_g	g	n/a
178.2595	0.09	356519	keystroke_i	i	n/a
178.4845	0.105	356969	keystroke_n	n	n/a
178.6795	0.09	357359	keystroke_a	a	n/a
178.9195	0.075	357839	keystroke_l	l	n/a
179.0995	0.09	358199	keystroke_l	l	n/a
179.3095	0.135	358619	keystroke_y	y	n/a
179.4295	0.12	358859	keystroke_Key.space	Key.space	n/a
179.595	0.165	359190	keystroke_c	c	n/a
179.685	0.12	359370	keystroke_o	o	n/a
179.865	0.075	359730	keystroke_n	n	n/a
179.985	0.075	359970	keystroke_t	t	n/a
180.18	0.105	360360	keystroke_r	r	n/a
180.27	0.075	360540	keystroke_i	i	n/a
180.585	0.0905	361170	keystroke_b	b	n/a
180.6605	0.12	361321	keystroke_u	u	n/a
180.8555	0.12	361711	keystroke_t	t	n/a
180.9605	0.254	361921	keystroke_i	i	n/a
181.0655	0.195	362131	keystroke_o	o	n/a
181.1995	0.151	362399	keystroke_n	n	n/a
181.5145	0.12	363029	keystroke_Key.enter	Key.enter	n/a
181.647	10.8865	363294	prompt	n/a	dozen identifies treasurer dramatic\n
182.2805	0.12	364561	keystroke_d	d	n/a
182.3705	0.12	364741	keystroke_o	o	n/a
182.6555	0.135	365311	keystroke_z	z	n/a
182.9255	0.105	365851	keystroke_e	e	n/a
183.1655	0.1495	366331	keystroke_n	n	n/a
183.285	0.15	366570	keystroke_Key.space	Key.space	n/a
183.6	0.105	367200	keystroke_i	i	n/a
183.75	0.075	367500	keystroke_d	d	n/a
183.9745	0.075	367949	keystroke_e	e	n/a
184.0645	0.09	368129	keystroke_n	n	n/a
184.2445	0.12	368489	keystroke_t	t	n/a
184.3795	0.09	368759	keystroke_i	i	n/a
184.6045	0.1055	369209	keystroke_f	f	n/a
184.6795	0.1055	369359	keystroke_i	i	n/a
184.875	0.105	369750	keystroke_e	e	n/a
185.19	0.165	370380	keystroke_s	s	n/a
185.565	0.12	371130	keystroke_Key.space	Key.space	n/a
185.8795	0.06	371759	keystroke_t	t	n/a
186.1495	0.105	372299	keystroke_r	r	n/a
186.9745	0.015	373949	keystroke_e	e	n/a
187.1095	0.1205	374219	keystroke_a	a	n/a
187.3795	0.1205	374759	keystroke_s	s	n/a
187.575	0.09	375150	keystroke_u	u	n/a
187.815	0.195	375630	keystroke_e	e	n/a
187.965	0.12	375930	keystroke_r	r	n/a
188.13	0.135	376260	keystroke_e	e	n/a
188.58	0.06	377160	keystroke_Key.backspace	Key.backspace	n/a
188.76	0.0745	377520	keystroke_Key.backspace	Key.backspace	n/a
188.9545	0.075	377909	keystroke_Key.backspace	Key.backspace	n/a
189.0305	0.1945	378061	keystroke_r	r	n/a
189.165	0.12	378330	keystroke_e	e	n/a
189.525	0.09	379050	keystroke_e	e	n/a
189.885	0.105	379770	keystroke_Key.backspace	Key.backspace	n/a
189.975	0.105	379950	keystroke_r	r	n/a
190.6345	0.09	381269	keystroke_Key.space	Key.space	n/a
190.8905	0.135	381781	keystroke_d	d	n/a
191.0705	0.2245	382141	keystroke_r	r	n/a
191.265	0.09	382530	keystroke_a	a	n/a
191.415	0.135	382830	keystroke_m	m	n/a
191.535	0.12	383070	keystroke_a	a	n/a
191.745	0.105	383490	keystroke_t	t	n/a
191.865	0.105	383730	keystroke_i	i	n/a
192.045	0.12	384090	keystroke_c	c	n/a
192.405	0.12	384810	keystroke_Key.enter	Key.enter	n/a
192.5375	6.094	385075	prompt	n/a	internal boot inches cottages\n
193.185	0.135	386370	keystroke_i	i	n/a
193.365	0.09	386730	keystroke_n	n	n/a
193.425	0.105	386850	keystroke_t	t	n/a
193.605	0.165	387210	keystroke_e	e	n/a
193.74	0.075	387480	keystroke_r	r	n/a
193.83	0.135	387660	keystroke_n	n	n/a
193.98	0.12	387960	keystroke_a	a	n/a
194.1	0.09	388200	keystroke_l	l	n/a
194.565	0.09	389130	keystroke_Key.space	Key.space	n/a
194.805	0.105	389610	keystroke_b	b	n/a
194.88	0.06	389760	keystroke_o	o	n/a
195.06	0.135	390120	keystroke_o	o	n/a
195.375	0.105	390750	keystroke_t	t	n/a
195.525	0.1045	391050	keystroke_Key.space	Key.space	n/a
195.7195	0.09	391439	keystroke_i	i	n/a
195.8405	0.104	391681	keystroke_n	n	n/a
196.0195	0.09	392039	keystroke_c	c	n/a
196.1695	0.105	392339	keystroke_h	h	n/a
196.3205	0.104	392641	keystroke_e	e	n/a
196.7095	0.12	393419	keystroke_s	s	n/a
196.95	0.1045	393900	keystroke_Key.space	Key.space	n/a
197.1745	0.12	394349	keystroke_c	c	n/a
197.3095	0.06	394619	keystroke_o	o	n/a
197.4595	0.06	394919	keystroke_t	t	n/a
197.6395	0.12	395279	keystroke_t	t	n/a
197.7895	0.09	395579	keystroke_a	a	n/a
197.9845	0.106	395969	keystroke_g	g	n/a
198.1345	0.105	396269	keystroke_e	e	n/a
198.33	0.1345	396660	keystroke_s	s	n/a
198.5245	0.105	397049	keystroke_Key.enter	Key.enter	n/a
198.6345	7.5645	397269	prompt	n/a	licensing speak bargain becomes\n
199.4395	0.18	398879	keystroke_l	l	n/a
199.5445	0.135	399089	keystroke_i	i	n/a
199.6945	0.09	399389	keystroke_c	c	n/a
199.9345	0.075	399869	keystroke_e	e	n/a
200.0545	0.075	400109	keystroke_n	n	n/a
200.3095	0.105	400619	keystroke_s	s	n/a
200.4295	0.06	400859	keystroke_i	i	n/a
200.6395	0.09	401279	keystroke_n	n	n/a
200.7595	0.105	401519	keystroke_g	g	n/a
200.9995	0.09	401999	keystroke_Key.space	Key.space	n/a
201.2545	0.18	402509	keystroke_s	s	n/a
201.4045	0.15	402809	keystroke_p	p	n/a
201.5845	0.075	403169	keystroke_e	e	n/a
201.7945	0.075	403589	keystroke_a	a	n/a
201.9595	0.09	403919	keystroke_k	k	n/a
202.2745	0.09	404549	keystroke_Key.space	Key.space	n/a
202.56	0.105	405120	keystroke_g	g	n/a
202.935	0.12	405870	keystroke_Key.backspace	Key.backspace	n/a
203.04	0.075	406080	keystroke_b	b	n/a
203.235	0.09	406470	keystroke_a	a	n/a
203.64	0.12	407280	keystroke_r	r	n/a
203.895	0.15	407790	keystroke_g	g	n/a
204.21	0.15	408420	keystroke_a	a	n/a
204.375	0.15	408750	keystroke_i	i	n/a
204.63	0.165	409260	keystroke_n	n	n/a
204.7505	0.1345	409501	keystroke_Key.space	Key.space	n/a
205.005	0.06	410010	keystroke_b	b	n/a
205.1855	0.059	410371	keystroke_e	e	n/a
205.3955	0.15	410791	keystroke_c	c	n/a
205.5005	0.135	411001	keystroke_o	o	n/a
205.6655	0.15	411331	keystroke_m	m	n/a
205.7555	0.075	411511	keystroke_e	e	n/a
205.9355	0.135	411871	keystroke_s	s	n/a
206.0845	0.105	412169	keystroke_Key.enter	Key.enter	n/a
206.203	5.9135	412406	prompt	n/a	mighty bases mold lies\n
206.9395	0.15	413879	keystroke_m	m	n/a
207.0745	0.12	414149	keystroke_i	i	n/a
207.2695	0.105	414539	keystroke_g	g	n/a
207.3755	0.044	414751	keystroke_h	h	n/a
207.6455	0.104	415291	keystroke_t	t	n/a
207.7945	0.105	415589	keystroke_y	y	n/a
208.3045	0.06	416609	keystroke_Key.space	Key.space	n/a
208.5295	0.121	417059	keystroke_b	b	n/a
208.7095	0.165	417419	keystroke_a	a	n/a
208.8895	0.165	417779	keystroke_s	s	n/a
209.1445	0.12	418289	keystroke_e	e	n/a
209.3395	0.165	418679	keystroke_s	s	n/a
209.5195	0.12	419039	keystroke_Key.space	Key.space	n/a
209.8345	0.18	419669	keystroke_m	m	n/a
209.9545	0.12	419909	keystroke_o	o	n/a
210.1805	0.164	420361	keystroke_l	l	n/a
210.4345	0.135	420869	keystroke_d	d	n/a
210.5995	0.105	421199	keystroke_Key.space	Key.space	n/a
210.7795	0.195	421559	keystroke_l	l	n/a
210.9145	0.135	421829	keystroke_i	i	n/a
211.0945	0.15	422189	keystroke_e	e	n/a
211.7995	0.18	423599	keystroke_s	s	n/a
211.9805	0.134	423961	keystroke_Key.enter	Key.enter	n/a
212.12	6.7615	424240	prompt	n/a	nickel tear combines macro\n
212.8045	0.165	425609	keystroke_n	n	n/a
212.9395	0.135	425879	keystroke_i	i	n/a
213.1195	0.12	426239	keystroke_c	c	n/a
213.2405	0.089	426481	keystroke_k	k	n/a
213.4045	0.135	426809	keystroke_e	e	n/a
213.5995	0.12	427199	keystroke_l	l	n/a
213.8845	0.075	427769	keystroke_Key.space	Key.space	n/a
214.0645	0.09	428129	keystroke_t	t	n/a
214.2295	0.075	428459	keystroke_e	e	n/a
214.3945	0.12	428789	keystroke_a	a	n/a
214.5295	0.075	429059	keystroke_r	r	n/a
214.7845	0.105	429569	keystroke_Key.space	Key.space	n/a
215.0395	0.135	430079	keystroke_c	c	n/a
215.1445	0.135	430289	keystroke_o	o	n/a
215.3395	0.135	430679	keystroke_m	m	n/a
215.7295	0.12	431459	keystroke_b	b	n/a
215.8795	0.105	431759	keystroke_i	i	n/a
216.12	0.12	432240	keystroke_n	n	n/a
216.225	0.075	432450	keystroke_e	e	n/a
216.45	0.105	432900	keystroke_s	s	n/a
216.57	0.105	433140	keystroke_Key.space	Key.space	n/a
216.915	0.12	433830	keystroke_m	m	n/a
217.05	0.1355	434100	keystroke_a	a	n/a
217.2	0.09	434400	keystroke_r	r	n/a
217.875	0.105	435750	keystroke_Key.backspace	Key.backspace	n/a
218.085	0.105	436170	keystroke_c	c	n/a
218.34	0.135	436680	keystroke_r	r	n/a
218.445	0.12	436890	keystroke_o	o	n/a
218.745	0.135	437490	keystroke_Key.enter	Key.enter	n/a
218.884	6.2225	437768	prompt	n/a	zones cats invite closely\n
219.6	0.135	439200	keystroke_z	z	n/a
219.81	0.18	439620	keystroke_o	o	n/a
220.005	0.105	440010	keystroke_n	n	n/a
220.065	0.12	440130	keystroke_e	e	n/a
220.365	0.15	440730	keystroke_s	s	n/a
220.62	0.09	441240	keystroke_Key.space	Key.space	n/a
220.86	0.12	441720	keystroke_c	c	n/a
221.055	0.165	442110	keystroke_a	a	n/a
221.19	0.105	442380	keystroke_t	t	n/a
221.4	0.165	442800	keystroke_s	s	n/a
221.625	0.135	443250	keystroke_Key.space	Key.space	n/a
221.82	0.24	443640	keystroke_i	i	n/a
222	0.09	444000	keystroke_n	n	n/a
222.15	0.135	444300	keystroke_v	v	n/a
222.27	0.105	444540	keystroke_i	i	n/a
222.45	0.12	444900	keystroke_t	t	n/a
222.645	0.12	445290	keystroke_e	e	n/a
222.81	0.135	445620	keystroke_Key.space	Key.space	n/a
223.095	0.12	446190	keystroke_c	c	n/a
223.23	0.06	446460	keystroke_l	l	n/a
223.92	0.135	447840	keystroke_o	o	n/a
224.13	0.195	448260	keystroke_s	s	n/a
224.28	0.135	448560	keystroke_e	e	n/a
224.46	0.12	448920	keystroke_l	l	n/a
224.685	0.12	449370	keystroke_y	y	n/a
224.985	0.12	449970	keystroke_Key.enter	Key.enter	n/a
225.109	6.3355	450218	prompt	n/a	peru battery survival food\n
225.87	0.12	451740	keystroke_p	p	n/a
225.975	0.21	451950	keystroke_e	e	n/a
226.125	0.12	452250	keystroke_r	r	n/a
226.485	0.105	452970	keystroke_u	u	n/a
226.725	0.105	453450	keystroke_Key.space	Key.space	n/a
226.95	0.105	453900	keystroke_b	b	n/a
227.115	0.135	454230	keystroke_a	a	n/a
227.235	0.105	454470	keystroke_t	t	n/a
227.565	0.06	455130	keystroke_t	t	n/a
227.61	0.12	455220	keystroke_e	e	n/a
227.685	0.12	455370	keystroke_r	r	n/a
227.8505	0.1645	455701	keystroke_y	y	n/a
228	0.135	456000	keystroke_Key.space	Key.space	n/a
228.21	0.1355	456420	keystroke_s	s	n/a
228.3155	0.105	456631	keystroke_u	u	n/a
228.4355	0.12	456871	keystroke_r	r	n/a
228.7205	0.165	457441	keystroke_v	v	n/a
228.8405	0.12	457681	keystroke_i	i	n/a
228.9905	0.135	457981	keystroke_a	a	n/a
229.3795	0.09	458759	keystroke_Key.backspace	Key.backspace	n/a
229.4255	0.15	458851	keystroke_v	v	n/a
229.6655	0.134	459331	keystroke_a	a	n/a
229.7705	0.119	459541	keystroke_l	l	n/a
230.2205	0.149	460441	keystroke_Key.space	Key.space	n/a
230.6695	0.15	461339	keystroke_f	f	n/a
230.8045	0.075	461609	keystroke_o	o	n/a
230.9995	0.09	461999	keystroke_o	o	n/a
231.0595	0.136	462119	keystroke_d	d	n/a
231.3295	0.105	462659	keystroke_Key.enter	Key.enter	n/a
231.4525	7.3785	462905	prompt	n/a	moreover retired democrats edward\n
232.1395	0.15	464279	keystroke_m	m	n/a
232.2295	0.165	464459	keystroke_o	o	n/a
232.3795	0.18	464759	keystroke_r	r	n/a
232.4845	0.135	464969	keystroke_e	e	n/a
232.7695	0.15	465539	keystroke_o	o	n/a
232.9645	0.09	465929	keystroke_v	v	n/a
233.1595	0.165	466319	keystroke_e	e	n/a
233.2495	0.15	466499	keystroke_r	r	n/a
233.4445	0.12	466889	keystroke_Key.space	Key.space	n/a
233.7895	0.135	467579	keystroke_r	r	n/a
233.8795	0.105	467759	keystroke_e	e	n/a
234.0895	0.105	468179	keystroke_t	t	n/a
234.2095	0.12	468419	keystroke_i	i	n/a
234.3595	0.165	468719	keystroke_r	r	n/a
234.5395	0.06	469079	keystroke_e	e	n/a
234.7795	0.15	469559	keystroke_d	d	n/a
234.9145	0.12	469829	keystroke_Key.space	Key.space	n/a
235.1395	0.09	470279	keystroke_d	d	n/a
235.3345	0.105	470669	keystroke_e	e	n/a
235.4845	0.165	470969	keystroke_m	m	n/a
235.6645	0.105	471329	keystroke_o	o	n/a
235.8745	0.075	471749	keystroke_c	c	n/a
236.1295	0.12	472259	keystroke_r	r	n/a
236.3545	0.135	472709	keystroke_a	a	n/a
236.5195	0.09	473039	keystroke_t	t	n/a
236.7745	0.12	473549	keystroke_s	s	n/a
237.255	0.105	474510	keystroke_Key.space	Key.space	n/a
237.405	0.12	474810	keystroke_e	e	n/a
237.63	0.1045	475260	keystroke_d	d	n/a
237.8545	0.24	475709	keystroke_w	w	n/a
237.9745	0.135	475949	keystroke_a	a	n/a
238.0945	0.12	476189	keystroke_r	r	n/a
238.3645	0.106	476729	keystroke_d	d	n/a
238.6645	0.165	477329	keystroke_Key.enter	Key.enter	n/a
238.834	8.555	477668	prompt	n/a	step relates valentine room\n
239.4595	0.18	478919	keystroke_s	s	n/a
239.6095	0.105	479219	keystroke_t	t	n/a
239.8195	0.12	479639	keystroke_e	e	n/a
240.2845	0.12	480569	keystroke_Key.space	Key.space	n/a
240.7045	0.105	481409	keystroke_Key.backspace	Key.backspace	n/a
241.0195	0.1655	482039	keystroke_p	p	n/a
241.3645	0.105	482729	keystroke_Key.space	Key.space	n/a
241.6045	0.151	483209	keystroke_r	r	n/a
241.6795	0.121	483359	keystroke_e	e	n/a
241.9195	0.12	483839	keystroke_p	p	n/a
242.4745	0.075	484949	keystroke_Key.backspace	Key.backspace	n/a
242.7445	0.135	485489	keystroke_l	l	n/a
242.8495	0.15	485699	keystroke_a	a	n/a
242.9705	0.164	485941	keystroke_t	t	n/a
243.0745	0.1505	486149	keystroke_e	e	n/a
243.375	0.105	486750	keystroke_s	s	n/a
244.41	0.075	488820	keystroke_Key.space	Key.space	n/a
244.665	0.195	489330	keystroke_v	v	n/a
244.83	0.165	489660	keystroke_a	a	n/a
244.965	0.15	489930	keystroke_l	l	n/a
245.19	0.135	490380	keystroke_e	e	n/a
245.385	0.09	490770	keystroke_n	n	n/a
245.58	0.135	491160	keystroke_t	t	n/a
245.685	0.105	491370	keystroke_i	i	n/a
245.895	0.12	491790	keystroke_n	n	n/a
246	0.12	492000	keystroke_e	e	n/a
246.375	0.12	492750	keystroke_Key.space	Key.space	n/a
246.615	0.12	493230	keystroke_r	r	n/a
246.72	0.06	493440	keystroke_o	o	n/a
246.885	0.165	493770	keystroke_o	o	n/a
247.035	0.135	494070	keystroke_m	m	n/a
247.23	0.15	494460	keystroke_Key.enter	Key.enter	n/a
247.3945	10.089	494789	prompt	n/a	mirror availability angels reward\n
248.0095	0.165	496019	keystroke_m	m	n/a
248.1145	0.12	496229	keystroke_o	o	n/a
248.4295	0.09	496859	keystroke_Key.backspace	Key.backspace	n/a
248.6695	0.09	497339	keystroke_i	i	n/a
248.7445	0.09	497489	keystroke_r	r	n/a
248.9395	0.12	497879	keystroke_r	r	n/a
249.0145	0.09	498029	keystroke_o	o	n/a
249.8695	0.135	499739	keystroke_r	r	n/a
250.0495	0.105	500099	keystroke_Key.space	Key.space	n/a
250.3195	0.1355	500639	keystroke_a	a	n/a
250.515	0.18	501030	keystroke_v	v	n/a
250.65	0.135	501300	keystroke_a	a	n/a
250.77	0.09	501540	keystroke_i	i	n/a
250.965	0.12	501930	keystroke_l	l	n/a
251.055	0.1345	502110	keystroke_a	a	n/a
251.385	0.1045	502770	keystroke_b	b	n/a
251.52	0.105	503040	keystroke_i	i	n/a
251.715	0.18	503430	keystroke_l	l	n/a
251.865	0.06	503730	keystroke_t	t	n/a
251.94	0.06	503880	keystroke_i	i	n/a
252.525	0.075	505050	keystroke_Key.backspace	Key.backspace	n/a
252.72	0.09	505440	keystroke_Key.backspace	Key.backspace	n/a
253.44	0.135	506880	keystroke_i	i	n/a
253.725	0.15	507450	keystroke_t	t	n/a
253.86	0.06	507720	keystroke_y	y	n/a
254.355	0.075	508710	keystroke_Key.space	Key.space	n/a
254.5795	0.135	509159	keystroke_a	a	n/a
254.6845	0.105	509369	keystroke_n	n	n/a
254.865	0.1345	509730	keystroke_g	g	n/a
255.0295	0.12	510059	keystroke_e	e	n/a
255.1645	0.075	510329	keystroke_l	l	n/a
255.6895	0.15	511379	keystroke_s	s	n/a
255.8845	0.105	511769	keystroke_Key.space	Key.space	n/a
256.0945	0.12	512189	keystroke_r	r	n/a
256.1545	0.135	512309	keystroke_e	e	n/a
256.5745	0.24	513149	keystroke_w	w	n/a
256.6795	0.15	513359	keystroke_a	a	n/a
256.8155	0.089	513631	keystroke_r	r	n/a
257.07	0.1345	514140	keystroke_d	d	n/a
257.3095	0.165	514619	keystroke_Key.enter	Key.enter	n/a
257.488	10.2865	514976	prompt	n/a	you've eating publishing property\n
258.1495	0.12	516299	keystroke_y	y	n/a
258.3	0.1645	516600	keystroke_o	o	n/a
258.4045	0.135	516809	keystroke_u	u	n/a
258.5545	0.06	517109	keystroke_r	r	n/a
259.0945	0.09	518189	keystroke_Key.backspace	Key.backspace	n/a
259.3945	0.12	518789	keystroke_'	'	n/a
259.7245	0.105	519449	keystroke_v	v	n/a
259.8305	0.149	519661	keystroke_e	e	n/a
260.2795	0.105	520559	keystroke_Key.space	Key.space	n/a
260.5345	0.105	521069	keystroke_e	e	n/a
260.8345	0.03	521669	keystroke_a	a	n/a
260.8495	0.105	521699	keystroke_t	t	n/a
261.0895	0.105	522179	keystroke_i	i	n/a
261.3295	0.09	522659	keystroke_n	n	n/a
262.5295	0.105	525059	keystroke_g	g	n/a
262.9795	0.09	525959	keystroke_Key.space	Key.space	n/a
263.4595	0.12	526919	keystroke_p	p	n/a
263.5345	0.105	527069	keystroke_u	u	n/a
263.8495	0.105	527699	keystroke_b	b	n/a
264.0745	0.165	528149	keystroke_l	l	n/a
264.2695	0.1205	528539	keystroke_i	i	n/a
264.48	0.195	528960	keystroke_s	s	n/a
264.6	0.195	529200	keystroke_h	h	n/a
264.72	0.12	529440	keystroke_i	i	n/a
264.975	0.09	529950	keystroke_n	n	n/a
265.17	0.105	530340	keystroke_g	g	n/a
265.589	0.121	531178	keystroke_Key.space	Key.space	n/a
265.845	0.1195	531690	keystroke_p	p	n/a
266.0095	0.1355	532019	keystroke_r	r	n/a
266.175	0.09	532350	keystroke_o	o	n/a
266.445	0.1345	532890	keystroke_p	p	n/a
266.6545	0.1355	533309	keystroke_e	e	n/a
266.7295	0.12	533459	keystroke_r	r	n/a
267.21	0.1495	534420	keystroke_t	t	n/a
267.3745	0.0755	534749	keystroke_y	y	n/a
267.645	0.12	535290	keystroke_Key.enter	Key.enter	n/a
267.785	11.449	535570	prompt	n/a	originally spencer documentary receptor\n
268.4095	0.12	536819	keystroke_o	o	n/a
268.5145	0.165	537029	keystroke_r	r	n/a
268.7245	0.105	537449	keystroke_i	i	n/a
269.4895	0.12	538979	keystroke_g	g	n/a
270.1645	0.135	540329	keystroke_i	i	n/a
270.4345	0.1355	540869	keystroke_n	n	n/a
270.5395	0.15	541079	keystroke_a	a	n/a
270.7045	0.075	541409	keystroke_l	l	n/a
270.8995	0.09	541799	keystroke_l	l	n/a
271.0945	0.12	542189	keystroke_y	y	n/a
271.1845	0.12	542369	keystroke_Key.space	Key.space	n/a
271.5145	0.03	543029	keystroke_s	s	n/a
271.5295	0.09	543059	keystroke_p	p	n/a
272.0245	0.135	544049	keystroke_e	e	n/a
272.2945	0.105	544589	keystroke_n	n	n/a
272.4445	0.105	544889	keystroke_c	c	n/a
272.7145	0.18	545429	keystroke_e	e	n/a
272.8795	0.075	545759	keystroke_r	r	n/a
273.1195	0.015	546239	keystroke_Key.space	Key.space	n/a
273.6895	0.135	547379	keystroke_d	d	n/a
273.8395	0.015	547679	keystroke_o	o	n/a
274.1395	0.105	548279	keystroke_u	u	n/a
274.6945	0.03	549389	keystroke_Key.backspace	Key.backspace	n/a
274.7095	0.045	549419	keystroke_c	c	n/a
274.8595	0.09	549719	keystroke_u	u	n/a
275.22	0.105	550440	keystroke_m	m	n/a
275.415	0.134	550830	keystroke_e	e	n/a
275.534	0.076	551068	keystroke_n	n	n/a
275.655	0.105	551310	keystroke_t	t	n/a
275.895	0.149	551790	keystroke_a	a	n/a
276.03	0.089	552060	keystroke_r	r	n/a
276.269	0.121	552538	keystroke_y	y	n/a
276.63	0.1045	553260	keystroke_Key.space	Key.space	n/a
277.3045	0.18	554609	keystroke_r	r	n/a
277.3945	0.135	554789	keystroke_e	e	n/a
277.665	0.105	555330	keystroke_c	c	n/a
277.89	0.135	555780	keystroke_e	e	n/a
278.1	0.12	556200	keystroke_p	p	n/a
278.205	0.09	556410	keystroke_t	t	n/a
278.535	0.09	557070	keystroke_o	o	n/a
278.685	0.135	557370	keystroke_r	r	n/a
279.105	0.12	558210	keystroke_Key.enter	Key.enter	n/a
279.242	10.7475	558484	prompt	n/a	copy chair alphabetical chrysler\n
279.93	0.195	559860	keystroke_c	c	n/a
280.035	0.15	560070	keystroke_o	o	n/a
280.245	0.195	560490	keystroke_p	p	n/a
280.425	0.105	560850	keystroke_y	y	n/a
280.62	0.12	561240	keystroke_Key.space	Key.space	n/a
280.875	0.15	561750	keystroke_c	c	n/a
280.98	0.105	561960	keystroke_h	h	n/a
281.055	0.21	562110	keystroke_a	a	n/a
281.565	0.12	563130	keystroke_i	i	n/a
281.8045	0.105	563609	keystroke_r	r	n/a
282.1495	0.105	564299	keystroke_Key.space	Key.space	n/a
282.4195	0.15	564839	keystroke_a	a	n/a
282.6895	0.135	565379	keystroke_l	l	n/a
282.9895	0.12	565979	keystroke_p	p	n/a
283.3045	0.075	566609	keystroke_h	h	n/a
283.4995	0.075	566999	keystroke_a	a	n/a
284.0845	0.045	568169	keystroke_b	b	n/a
284.2795	0.09	568559	keystroke_e	e	n/a
284.4595	0.105	568919	keystroke_t	t	n/a
284.6245	0.09	569249	keystroke_i	i	n/a
285.0145	0.06	570029	keystroke_c	c	n/a
285.2545	0.135	570509	keystroke_a	a	n/a
285.4345	0.1355	570869	keystroke_l	l	n/a
285.7045	0.06	571409	keystroke_Key.space	Key.space	n/a
285.9445	0.12	571889	keystroke_c	c	n/a
286.2745	0.135	572549	keystroke_h	h	n/a
286.5445	0.135	573089	keystroke_r	r	n/a
286.7695	0.12	573539	keystroke_i	i	n/a
286.9945	0.135	573989	keystroke_s	s	n/a
287.4295	0.09	574859	keystroke_Key.backspace	Key.backspace	n/a
287.6395	0.09	575279	keystroke_Key.backspace	Key.backspace	n/a
287.8795	0.12	575759	keystroke_y	y	n/a
288.0005	0.179	576001	keystroke_s	s	n/a
289.1095	0.12	578219	keystroke_l	l	n/a
289.4095	0.195	578819	keystroke_e	e	n/a
289.5295	0.15	579059	keystroke_r	r	n/a
289.8295	0.15	579659	keystroke_Key.enter	Key.enter	n/a
289.994	10.4945	579988	prompt	n/a	smart spent andrew characteristics\n
290.8345	0.135	581669	keystroke_s	s	n/a
291.0445	0.135	582089	keystroke_m	m	n/a
291.1645	0.135	582329	keystroke_a	a	n/a
291.4345	0.09	582869	keystroke_r	r	n/a
291.6595	0.105	583319	keystroke_t	t	n/a
291.9745	0.075	583949	keystroke_Key.space	Key.space	n/a
292.3495	0.15	584699	keystroke_s	s	n/a
292.4695	0.15	584939	keystroke_p	p	n/a
292.6645	0.12	585329	keystroke_e	e	n/a
292.8445	0.12	585689	keystroke_n	n	n/a
293.2195	0.12	586439	keystroke_t	t	n/a
293.4445	0.09	586889	keystroke_Key.space	Key.space	n/a
293.6245	0.165	587249	keystroke_a	a	n/a
293.8645	0.105	587729	keystroke_n	n	n/a
294.0445	0.105	588089	keystroke_d	d	n/a
294.2845	0.15	588569	keystroke_r	r	n/a
294.3895	0.12	588779	keystroke_e	e	n/a
295.0345	0.09	590069	keystroke_Key.space	Key.space	n/a
295.2595	0.12	590519	keystroke_c	c	n/a
295.605	0.0895	591210	keystroke_Key.backspace	Key.backspace	n/a
295.7995	0.1055	591599	keystroke_Key.backspace	Key.backspace	n/a
296.01	0.075	592020	keystroke_w	w	n/a
296.22	0.15	592440	keystroke_Key.space	Key.space	n/a
296.73	0.135	593460	keystroke_c	c	n/a
296.925	0.135	593850	keystroke_h	h	n/a
297.09	0.18	594180	keystroke_a	a	n/a
297.285	0.15	594570	keystroke_r	r	n/a
297.45	0.12	594900	keystroke_a	a	n/a
297.705	0.135	595410	keystroke_c	c	n/a
297.975	0.105	595950	keystroke_t	t	n/a
298.215	0.135	596430	keystroke_e	e	n/a
298.305	0.135	596610	keystroke_r	r	n/a
298.485	0.15	596970	keystroke_i	i	n/a
298.74	0.135	597480	keystroke_s	s	n/a
298.95	0.075	597900	keystroke_t	t	n/a
299.145	0.105	598290	keystroke_i	i	n/a
299.655	0.045	599310	keystroke_c	c	n/a
299.82	0.135	599640	keystroke_s	s	n/a
300.42	0.06	600840	keystroke_Key.enter	Key.enter	n/a
300.492	9.1315	600984	prompt	n/a	basically circulation contracts toolbox\n
301.4095	0.1355	602819	keystroke_b	b	n/a
301.56	0.165	603120	keystroke_a	a	n/a
301.71	0.165	603420	keystroke_s	s	n/a
301.86	0.135	603720	keystroke_i	i	n/a
302.055	0.135	604110	keystroke_c	c	n/a
302.235	0.135	604470	keystroke_a	a	n/a
302.34	0.105	604680	keystroke_l	l	n/a
302.52	0.09	605040	keystroke_l	l	n/a
302.715	0.135	605430	keystroke_y	y	n/a
302.835	0.105	605670	keystroke_Key.space	Key.space	n/a
303.045	0.12	606090	keystroke_c	c	n/a
303.18	0.105	606360	keystroke_i	i	n/a
303.36	0.12	606720	keystroke_r	r	n/a
303.81	0.12	607620	keystroke_c	c	n/a
303.96	0.105	607920	keystroke_u	u	n/a
304.215	0.135	608430	keystroke_l	l	n/a
304.365	0.105	608730	keystroke_a	a	n/a
304.5	0.135	609000	keystroke_t	t	n/a
304.545	0.24	609090	keystroke_i	i	n/a
304.71	0.165	609420	keystroke_o	o	n/a
304.845	0.135	609690	keystroke_n	n	n/a
305.4	0.135	610800	keystroke_Key.space	Key.space	n/a
305.79	0.12	611580	keystroke_c	c	n/a
305.865	0.1495	611730	keystroke_o	o	n/a
306	0.12	612000	keystroke_n	n	n/a
306.135	0.09	612270	keystroke_t	t	n/a
306.33	0.135	612660	keystroke_r	r	n/a
306.48	0.105	612960	keystroke_a	a	n/a
306.705	0.12	613410	keystroke_c	c	n/a
306.99	0.06	613980	keystroke_t	t	n/a
307.185	0.12	614370	keystroke_s	s	n/a
307.335	0.104	614670	keystroke_Key.space	Key.space	n/a
307.665	0.105	615330	keystroke_t	t	n/a
307.785	0.075	615570	keystroke_o	o	n/a
307.965	0.09	615930	keystroke_o	o	n/a
308.445	0.135	616890	keystroke_l	l	n/a
308.774	0.106	617548	keystroke_b	b	n/a
308.925	0.135	617850	keystroke_o	o	n/a
309.315	0.12	618630	keystroke_x	x	n/a
309.494	0.12	618988	keystroke_Key.enter	Key.enter	n/a
309.6275	8.096	619255	prompt	n/a	value radiation meaningful closer\n
310.2295	0.165	620459	keystroke_v	v	n/a
310.3945	0.15	620789	keystroke_a	a	n/a
310.5895	0.09	621179	keystroke_l	l	n/a
310.7395	0.105	621479	keystroke_u	u	n/a
310.8895	0.12	621779	keystroke_e	e	n/a
311.0845	0.12	622169	keystroke_Key.space	Key.space	n/a
311.504	0.105	623008	keystroke_r	r	n/a
311.744	0.105	623488	keystroke_a	a	n/a
312.015	0.104	624030	keystroke_d	d	n/a
312.51	0.134	625020	keystroke_i	i	n/a
312.659	0.135	625318	keystroke_a	a	n/a
312.795	0.149	625590	keystroke_t	t	n/a
312.884	0.346	625768	keystroke_i	i	n/a
313.02	0.194	626040	keystroke_o	o	n/a
313.154	0.195	626308	keystroke_n	n	n/a
313.304	0.15	626608	keystroke_Key.space	Key.space	n/a
313.56	0.135	627120	keystroke_m	m	n/a
313.635	0.074	627270	keystroke_e	e	n/a
313.83	0.135	627660	keystroke_a	a	n/a
313.965	0.105	627930	keystroke_n	n	n/a
314.265	0.194	628530	keystroke_i	i	n/a
314.429	0.105	628858	keystroke_n	n	n/a
314.595	0.119	629190	keystroke_g	g	n/a
315.045	0.149	630090	keystroke_f	f	n/a
315.164	0.12	630328	keystroke_u	u	n/a
315.434	0.195	630868	keystroke_l	l	n/a
315.599	0.105	631198	keystroke_Key.space	Key.space	n/a
316.469	0.12	632938	keystroke_c	c	n/a
316.604	0.106	633208	keystroke_l	l	n/a
316.829	0.09	633658	keystroke_o	o	n/a
316.874	0.225	633748	keystroke_s	s	n/a
317.039	0.21	634078	keystroke_e	e	n/a
317.234	0.135	634468	keystroke_r	r	n/a
317.564	0.15	635128	keystroke_Key.enter	Key.enter	n/a
317.7275	8.411	635455	prompt	n/a	removable paper ignore asbestos\n
318.464	0.135	636928	keystroke_r	r	n/a
318.554	0.105	637108	keystroke_e	e	n/a
318.765	0.1645	637530	keystroke_m	m	n/a
318.8695	0.135	637739	keystroke_o	o	n/a
319.1245	0.165	638249	keystroke_v	v	n/a
319.2445	0.135	638489	keystroke_e	e	n/a
320.0245	0.105	640049	keystroke_Key.backspace	Key.backspace	n/a
320.2345	0.12	640469	keystroke_a	a	n/a
320.5645	0.105	641129	keystroke_b	b	n/a
320.7295	0.06	641459	keystroke_l	l	n/a
320.8345	0.135	641669	keystroke_e	e	n/a
321.0295	0.105	642059	keystroke_Key.space	Key.space	n/a
321.6745	0.15	643349	keystroke_p	p	n/a
321.8395	0.165	643679	keystroke_a	a	n/a
321.9445	0.135	643889	keystroke_p	p	n/a
322.2445	0.225	644489	keystroke_e	e	n/a
322.4095	0.135	644819	keystroke_r	r	n/a
322.6195	0.12	645239	keystroke_Key.space	Key.space	n/a
322.7995	0.12	645599	keystroke_i	i	n/a
322.9645	0.15	645929	keystroke_g	g	n/a
323.1445	0.12	646289	keystroke_n	n	n/a
323.2945	0.12	646589	keystroke_o	o	n/a
323.4745	0.195	646949	keystroke_r	r	n/a
323.5945	0.135	647189	keystroke_e	e	n/a
323.8345	0.105	647669	keystroke_Key.space	Key.space	n/a
324.1345	0.105	648269	keystroke_a	a	n/a
324.3145	0.15	648629	keystroke_s	s	n/a
324.5845	0.09	649169	keystroke_b	b	n/a
324.8095	0.06	649619	keystroke_e	e	n/a
324.9745	0.165	649949	keystroke_s	s	n/a
325.0945	0.09	650189	keystroke_t	t	n/a
325.1845	0.12	650369	keystroke_o	o	n/a
325.3345	0.105	650669	keystroke_r	r	n/a
325.695	0.12	651390	keystroke_Key.backspace	Key.backspace	n/a
325.785	0.15	651570	keystroke_s	s	n/a
325.995	0.134	651990	keystroke_Key.enter	Key.enter	n/a
326.143	14.786	652286	prompt	n/a	response missouri controversial occasions\n
327	0.15	654000	keystroke_r	r	n/a
327.12	0.105	654240	keystroke_e	e	n/a
327.39	0.195	654780	keystroke_s	s	n/a
327.555	0.119	655110	keystroke_p	p	n/a
327.795	0.209	655590	keystroke_o	o	n/a
327.959	0.15	655918	keystroke_n	n	n/a
328.065	0.374	656130	keystroke_s	s	n/a
328.425	0.135	656850	keystroke_e	e	n/a
328.739	0.135	657478	keystroke_Key.space	Key.space	n/a
329.3545	0.18	658709	keystroke_m	m	n/a
329.7745	0.09	659549	keystroke_s	s	n/a
330.1045	0.105	660209	keystroke_Key.backspace	Key.backspace	n/a
330.3745	0.105	660749	keystroke_i	i	n/a
330.5245	0.12	661049	keystroke_s	s	n/a
330.7645	0.12	661529	keystroke_s	s	n/a
331.0495	0.225	662099	keystroke_o	o	n/a
331.1995	0.105	662399	keystroke_u	u	n/a
331.8295	0.15	663659	keystroke_r	r	n/a
332.2345	0.09	664469	keystroke_i	i	n/a
332.4445	0.09	664889	keystroke_Key.space	Key.space	n/a
332.6395	0.15	665279	keystroke_c	c	n/a
332.7145	0.165	665429	keystroke_o	o	n/a
332.8645	0.12	665729	keystroke_n	n	n/a
332.9545	0.105	665909	keystroke_t	t	n/a
333.1645	0.12	666329	keystroke_r	r	n/a
333.2695	0.09	666539	keystroke_o	o	n/a
333.5995	0.105	667199	keystroke_v	v	n/a
333.7645	0.165	667529	keystroke_e	e	n/a
333.9145	0.12	667829	keystroke_n	n	n/a
334.0645	0.12	668129	keystroke_s	s	n/a
334.1995	0.27	668399	keystroke_i	i	n/a
334.3345	0.18	668669	keystroke_o	o	n/a
334.7095	0.135	669419	keystroke_a	a	n/a
335.1145	0.075	670229	keystroke_Key.backspace	Key.backspace	n/a
335.28	0.09	670560	keystroke_Key.backspace	Key.backspace	n/a
335.355	0.135	670710	keystroke_a	a	n/a
335.55	0.105	671100	keystroke_l	l	n/a
336.794	0.121	673588	keystroke_Key.space	Key.space	n/a
339.0015	0.058	678003	keystroke_o	o	n/a
339.1195	0.105	678239	keystroke_c	c	n/a
339.2695	0.12	678539	keystroke_a	a	n/a
339.5545	0.105	679109	keystroke_s	s	n/a
339.7645	0.135	679529	keystroke_s	s	n/a
339.8695	0.21	679739	keystroke_i	i	n/a
339.9745	0.24	679949	keystroke_o	o	n/a
340.1695	0.105	680339	keystroke_n	n	n/a
340.3645	0.135	680729	keystroke_s	s	n/a
340.8145	0.105	681629	keystroke_Key.enter	Key.enter	n/a
340.9325	6.2135	681865	prompt	n/a	memphis toner police side\n
341.6695	0.105	683339	keystroke_m	m	n/a
341.8495	0.165	683699	keystroke_e	e	n/a
342.0145	0.105	684029	keystroke_m	m	n/a
342.2995	0.15	684599	keystroke_p	p	n/a
342.4795	0.21	684959	keystroke_h	h	n/a
342.6595	0.12	685319	keystroke_i	i	n/a
342.8095	0.195	685619	keystroke_s	s	n/a
343.0345	0.12	686069	keystroke_Key.space	Key.space	n/a
343.2895	0.15	686579	keystroke_t	t	n/a
343.3795	0.105	686759	keystroke_o	o	n/a
343.5595	0.105	687119	keystroke_n	n	n/a
343.6345	0.18	687269	keystroke_e	e	n/a
343.7545	0.15	687509	keystroke_r	r	n/a
343.9945	0.12	687989	keystroke_Key.space	Key.space	n/a
344.2345	0.09	688469	keystroke_p	p	n/a
344.5345	0.105	689069	keystroke_l	l	n/a
344.9545	0.06	689909	keystroke_Key.backspace	Key.backspace	n/a
345.1945	0.06	690389	keystroke_o	o	n/a
345.4195	0.195	690839	keystroke_l	l	n/a
345.5095	0.15	691019	keystroke_i	i	n/a
345.8245	0.135	691649	keystroke_c	c	n/a
346.1095	0.12	692219	keystroke_e	e	n/a
346.1995	0.105	692399	keystroke_Key.space	Key.space	n/a
346.395	0.135	692790	keystroke_s	s	n/a
346.5	0.12	693000	keystroke_i	i	n/a
346.725	0.06	693450	keystroke_d	d	n/a
346.905	0.105	693810	keystroke_e	e	n/a
347.039	0.105	694078	keystroke_Key.enter	Key.enter	n/a
347.1515	5.5295	694303	prompt	n/a	sure citizen term howard\n
347.8195	0.165	695639	keystroke_s	s	n/a
347.9855	0.119	695971	keystroke_u	u	n/a
348.0895	0.18	696179	keystroke_r	r	n/a
348.2095	0.12	696419	keystroke_e	e	n/a
348.4495	0.06	696899	keystroke_Key.space	Key.space	n/a
348.7195	0.135	697439	keystroke_c	c	n/a
348.8695	0.105	697739	keystroke_i	i	n/a
349.0495	0.135	698099	keystroke_t	t	n/a
349.1545	0.075	698309	keystroke_i	i	n/a
349.4845	0.105	698969	keystroke_z	z	n/a
349.6945	0.15	699389	keystroke_e	e	n/a
349.8595	0.105	699719	keystroke_n	n	n/a
350.0245	0.12	700049	keystroke_Key.space	Key.space	n/a
350.2495	0.105	700499	keystroke_t	t	n/a
350.4145	0.15	700829	keystroke_e	e	n/a
350.5045	0.135	701009	keystroke_r	r	n/a
350.8495	0.075	701699	keystroke_m	m	n/a
351.2695	0.09	702539	keystroke_Key.space	Key.space	n/a
351.5845	0.06	703169	keystroke_h	h	n/a
351.6295	0.075	703259	keystroke_o	o	n/a
351.7195	0.12	703439	keystroke_w	w	n/a
351.9595	0.12	703919	keystroke_a	a	n/a
352.0495	0.105	704099	keystroke_r	r	n/a
352.3495	0.12	704699	keystroke_d	d	n/a
352.5595	0.12	705119	keystroke_Key.enter	Key.enter	n/a
352.6835	7.1595	705367	prompt	n/a	relatives stolen spread center\n
353.2795	0.135	706559	keystroke_r	r	n/a
353.3995	0.0595	706799	keystroke_e	e	n/a
353.609	0.09	707218	keystroke_l	l	n/a
353.744	0.105	707488	keystroke_a	a	n/a
353.864	0.12	707728	keystroke_t	t	n/a
353.984	0.15	707968	keystroke_i	i	n/a
354.194	0.165	708388	keystroke_v	v	n/a
354.344	0.15	708688	keystroke_e	e	n/a
354.479	0.135	708958	keystroke_Key.space	Key.space	n/a
354.764	0.12	709528	keystroke_s	s	n/a
354.944	0.105	709888	keystroke_t	t	n/a
355.199	0.105	710398	keystroke_o	o	n/a
355.454	0.105	710908	keystroke_l	l	n/a
355.725	0.135	711450	keystroke_e	e	n/a
356.01	0.059	712020	keystroke_n	n	n/a
356.309	0.12	712618	keystroke_Key.space	Key.space	n/a
356.699	0.09	713398	keystroke_p	p	n/a
357.059	0.075	714118	keystroke_Key.backspace	Key.backspace	n/a
357.149	0.166	714298	keystroke_s	s	n/a
357.344	0.12	714688	keystroke_p	p	n/a
357.495	0.149	714990	keystroke_r	r	n/a
357.584	0.105	715168	keystroke_e	e	n/a
357.8095	0.135	715619	keystroke_a	a	n/a
358.0795	0.09	716159	keystroke_d	d	n/a
358.2745	0.105	716549	keystroke_Key.space	Key.space	n/a
358.7545	0.105	717509	keystroke_c	c	n/a
358.9945	0.12	717989	keystroke_e	e	n/a
359.1295	0.105	718259	keystroke_n	n	n/a
359.2045	0.105	718409	keystroke_t	t	n/a
359.3395	0.165	718679	keystroke_e	e	n/a
359.4745	0.105	718949	keystroke_r	r	n/a
359.7145	0.12	719429	keystroke_Key.enter	Key.enter	n/a
359.847	9.836	719694	prompt	n/a	colors contacted piece instrument\n
360.5095	0.15	721019	keystroke_c	c	n/a
360.5995	0.09	721199	keystroke_o	o	n/a
360.8395	0.075	721679	keystroke_l	l	n/a
361.0345	0.12	722069	keystroke_o	o	n/a
361.1695	0.06	722339	keystroke_r	r	n/a
361.3945	0.12	722789	keystroke_s	s	n/a
361.5595	0.105	723119	keystroke_Key.space	Key.space	n/a
361.8595	0.135	723719	keystroke_c	c	n/a
361.9795	0.135	723959	keystroke_o	o	n/a
362.1445	0.12	724289	keystroke_n	n	n/a
362.2495	0.075	724499	keystroke_t	t	n/a
362.7295	0.09	725459	keystroke_Key.backspace	Key.backspace	n/a
363.164	0.105	726328	keystroke_t	t	n/a
363.374	0.12	726748	keystroke_a	a	n/a
363.599	0.105	727198	keystroke_c	c	n/a
363.839	0.106	727678	keystroke_t	t	n/a
364.019	0.105	728038	keystroke_e	e	n/a
364.259	0.105	728518	keystroke_d	d	n/a
364.319	0.135	728638	keystroke_Key.space	Key.space	n/a
364.529	0.135	729058	keystroke_p	p	n/a
364.784	0.105	729568	keystroke_i	i	n/a
364.964	0.105	729928	keystroke_e	e	n/a
365.294	0.12	730588	keystroke_c	c	n/a
365.564	0.1055	731128	keystroke_e	e	n/a
365.7145	0.105	731429	keystroke_Key.space	Key.space	n/a
366.0895	0.06	732179	keystroke_i	i	n/a
366.3745	0.105	732749	keystroke_n	n	n/a
366.5995	0.165	733199	keystroke_s	s	n/a
366.7495	0.105	733499	keystroke_t	t	n/a
366.9595	0.135	733919	keystroke_r	r	n/a
367.1395	0.12	734279	keystroke_u	u	n/a
367.4245	0.09	734849	keystroke_m	m	n/a
367.6195	0.165	735239	keystroke_e	e	n/a
367.6345	0.075	735269	keystroke_n	n	n/a
368.369	0.09	736738	keystroke_Key.backspace	Key.backspace	n/a
369.0145	0.105	738029	keystroke_n	n	n/a
369.1345	0.135	738269	keystroke_t	t	n/a
369.5395	0.135	739079	keystroke_Key.enter	Key.enter	n/a
369.691	11.002	739382	prompt	n/a	vendors where've independent licenses\n
370.6195	0.15	741239	keystroke_v	v	n/a
370.7845	0.15	741569	keystroke_e	e	n/a
370.9645	0.12	741929	keystroke_n	n	n/a
371.1145	0.12	742229	keystroke_s	s	n/a
371.4595	0.105	742919	keystroke_Key.backspace	Key.backspace	n/a
371.5495	0.12	743099	keystroke_d	d	n/a
371.7295	0.105	743459	keystroke_o	o	n/a
372.2095	0.09	744419	keystroke_r	r	n/a
372.4345	0.1045	744869	keystroke_s	s	n/a
372.824	0.135	745648	keystroke_Key.space	Key.space	n/a
373.154	0.1805	746308	keystroke_w	w	n/a
373.7845	0.135	747569	keystroke_h	h	n/a
373.9345	0.12	747869	keystroke_e	e	n/a
374.0245	0.18	748049	keystroke_r	r	n/a
374.1445	0.12	748289	keystroke_e	e	n/a
374.5945	0.135	749189	keystroke_'	'	n/a
375.1495	0.12	750299	keystroke_v	v	n/a
375.2545	0.165	750509	keystroke_e	e	n/a
375.4345	0.12	750869	keystroke_Key.space	Key.space	n/a
375.6445	0.135	751289	keystroke_i	i	n/a
375.8245	0.105	751649	keystroke_n	n	n/a
375.9745	0.075	751949	keystroke_d	d	n/a
376.1545	0.15	752309	keystroke_e	e	n/a
376.3045	0.12	752609	keystroke_p	p	n/a
376.4995	0.15	752999	keystroke_e	e	n/a
376.6645	0.09	753329	keystroke_n	n	n/a
376.9345	0.09	753869	keystroke_d	d	n/a
377.4445	0.12	754889	keystroke_e	e	n/a
377.5645	0.12	755129	keystroke_n	n	n/a
377.7295	0.12	755459	keystroke_t	t	n/a
378.2095	0.12	756419	keystroke_Key.space	Key.space	n/a
378.5095	0.21	757019	keystroke_l	l	n/a
378.6295	0.12	757259	keystroke_i	i	n/a
379.1095	0.06	758219	keystroke_c	c	n/a
379.3345	0.135	758669	keystroke_e	e	n/a
379.4695	0.135	758939	keystroke_n	n	n/a
379.9045	0.045	759809	keystroke_s	s	n/a
379.9645	0.045	759929	keystroke_e	e	n/a
380.0845	0.12	760169	keystroke_s	s	n/a
380.5495	0.135	761099	keystroke_Key.enter	Key.enter	n/a
380.698	7.225	761396	prompt	n/a	mounts robots cookbook walks\n
381.524	0.165	763048	keystroke_m	m	n/a
381.644	0.18	763288	keystroke_o	o	n/a
381.869	0.075	763738	keystroke_u	u	n/a
382.109	0.15	764218	keystroke_n	n	n/a
382.229	0.105	764458	keystroke_t	t	n/a
382.454	0.135	764908	keystroke_s	s	n/a
382.559	0.135	765118	keystroke_Key.space	Key.space	n/a
382.904	0.15	765808	keystroke_r	r	n/a
383.024	0.12	766048	keystroke_o	o	n/a
383.249	0.12	766498	keystroke_b	b	n/a
383.384	0.09	766768	keystroke_o	o	n/a
383.594	0.12	767188	keystroke_t	t	n/a
383.924	0.12	767848	keystroke_s	s	n/a
384.224	0.09	768448	keystroke_Key.space	Key.space	n/a
384.554	0.075	769108	keystroke_c	c	n/a
384.719	0.075	769438	keystroke_o	o	n/a
384.974	0.1505	769948	keystroke_o	o	n/a
385.3495	0.075	770699	keystroke_k	k	n/a
385.6495	0.09	771299	keystroke_b	b	n/a
385.7545	0.06	771509	keystroke_o	o	n/a
385.9195	0.165	771839	keystroke_o	o	n/a
386.1445	0.195	772289	keystroke_k	k	n/a
386.2945	0.135	772589	keystroke_Key.space	Key.space	n/a
386.715	0.18	773430	keystroke_w	w	n/a
386.835	0.149	773670	keystroke_a	a	n/a
387.015	0.12	774030	keystroke_l	l	n/a
387.3	0.119	774600	keystroke_k	k	n/a
387.555	0.165	775110	keystroke_s	s	n/a
387.78	0.134	775560	keystroke_Key.enter	Key.enter	n/a
387.927	7.8865	775854	prompt	n/a	teach these're bigger true\n
388.65	0.134	777300	keystroke_t	t	n/a
388.859	0.151	777718	keystroke_e	e	n/a
389.039	0.136	778078	keystroke_a	a	n/a
389.28	0.149	778560	keystroke_c	c	n/a
389.459	0.151	778918	keystroke_h	h	n/a
389.579	0.15	779158	keystroke_Key.space	Key.space	n/a
389.805	0.12	779610	keystroke_t	t	n/a
389.939	0.045	779878	keystroke_h	h	n/a
390.044	0.105	780088	keystroke_e	e	n/a
390.18	0.104	780360	keystroke_r	r	n/a
390.24	0.12	780480	keystroke_e	e	n/a
390.704	0.151	781408	keystroke_'	'	n/a
391.1995	0.0745	782399	keystroke_Key.backspace	Key.backspace	n/a
391.379	0.075	782758	keystroke_Key.backspace	Key.backspace	n/a
391.574	0.12	783148	keystroke_Key.backspace	Key.backspace	n/a
391.68	0.164	783360	keystroke_s	s	n/a
391.8	0.105	783600	keystroke_e	e	n/a
392.5495	0.12	785099	keystroke_'	'	n/a
392.8945	0.1645	785789	keystroke_r	r	n/a
393.014	0.106	786028	keystroke_e	e	n/a
393.404	0.105	786808	keystroke_Key.space	Key.space	n/a
393.809	0.105	787618	keystroke_b	b	n/a
394.004	0.12	788008	keystroke_i	i	n/a
394.109	0.105	788218	keystroke_g	g	n/a
394.319	0.105	788638	keystroke_g	g	n/a
394.499	0.21	788998	keystroke_e	e	n/a
394.634	0.15	789268	keystroke_r	r	n/a
394.844	0.12	789688	keystroke_Key.space	Key.space	n/a
395.039	0.09	790078	keystroke_t	t	n/a
395.22	0.134	790440	keystroke_r	r	n/a
395.339	0.105	790678	keystroke_u	u	n/a
395.489	0.135	790978	keystroke_e	e	n/a
395.699	0.105	791398	keystroke_Key.enter	Key.enter	n/a
395.8175	7.4065	791635	prompt	n/a	standings charity attendance cohen\n
396.539	0.135	793078	keystroke_s	s	n/a
396.689	0.165	793378	keystroke_t	t	n/a
396.839	0.09	793678	keystroke_a	a	n/a
396.974	0.12	793948	keystroke_n	n	n/a
397.214	0.135	794428	keystroke_d	d	n/a
397.304	0.135	794608	keystroke_i	i	n/a
397.484	0.105	794968	keystroke_n	n	n/a
397.574	0.135	795148	keystroke_g	g	n/a
397.814	0.135	795628	keystroke_s	s	n/a
397.964	0.105	795928	keystroke_Key.space	Key.space	n/a
398.459	0.09	796918	keystroke_c	c	n/a
398.594	0.105	797188	keystroke_h	h	n/a
398.729	0.135	797458	keystroke_a	a	n/a
398.879	0.105	797758	keystroke_r	r	n/a
398.954	0.135	797908	keystroke_i	i	n/a
399.209	0.03	798418	keystroke_t	t	n/a
399.509	0.09	799018	keystroke_y	y	n/a
399.824	0.12	799648	keystroke_Key.space	Key.space	n/a
400.109	0.12	800218	keystroke_a	a	n/a
400.349	0.09	800698	keystroke_t	t	n/a
400.544	0.15	801088	keystroke_t	t	n/a
400.739	0.12	801478	keystroke_e	e	n/a
400.86	0.119	801720	keystroke_n	n	n/a
401.069	0.105	802138	keystroke_d	d	n/a
401.294	0.105	802588	keystroke_a	a	n/a
401.369	0.105	802738	keystroke_n	n	n/a
401.549	0.12	803098	keystroke_c	c	n/a
401.805	0.135	803610	keystroke_e	e	n/a
401.925	0.12	803850	keystroke_Key.space	Key.space	n/a
402.105	0.15	804210	keystroke_c	c	n/a
402.239	0.121	804478	keystroke_o	o	n/a
402.525	0.119	805050	keystroke_h	h	n/a
402.63	0.12	805260	keystroke_e	e	n/a
402.825	0.12	805650	keystroke_n	n	n/a
403.065	0.15	806130	keystroke_Key.enter	Key.enter	n/a
403.2275	8.593	806455	prompt	n/a	plugins helped obtained sorts\n
403.92	0.165	807840	keystroke_p	p	n/a
404.25	0.15	808500	keystroke_l	l	n/a
404.43	0.149	808860	keystroke_u	u	n/a
404.76	0.179	809520	keystroke_g	g	n/a
405.164	0.151	810328	keystroke_i	i	n/a
405.404	0.15	810808	keystroke_n	n	n/a
405.629	0.21	811258	keystroke_s	s	n/a
405.929	0.105	811858	keystroke_Key.space	Key.space	n/a
406.305	0.134	812610	keystroke_h	h	n/a
406.424	0.12	812848	keystroke_e	e	n/a
406.56	0.089	813120	keystroke_l	l	n/a
406.829	0.135	813658	keystroke_p	p	n/a
407.054	0.12	814108	keystroke_e	e	n/a
407.324	0.135	814648	keystroke_d	d	n/a
407.384	0.135	814768	keystroke_Key.space	Key.space	n/a
407.549	0.135	815098	keystroke_o	o	n/a
407.729	0.075	815458	keystroke_b	b	n/a
407.954	0.09	815908	keystroke_r	r	n/a
408.3295	0.12	816659	keystroke_Key.backspace	Key.backspace	n/a
408.4045	0.12	816809	keystroke_t	t	n/a
408.6745	0.09	817349	keystroke_a	a	n/a
408.8845	0.135	817769	keystroke_i	i	n/a
409.2295	0.12	818459	keystroke_n	n	n/a
409.3645	0.12	818729	keystroke_e	e	n/a
409.6345	0.12	819269	keystroke_d	d	n/a
409.8745	0.105	819749	keystroke_Key.space	Key.space	n/a
410.0845	0.15	820169	keystroke_s	s	n/a
410.2195	0.12	820439	keystroke_o	o	n/a
410.3545	0.12	820709	keystroke_r	r	n/a
410.6095	0.105	821219	keystroke_t	t	n/a
410.8645	0.15	821729	keystroke_s	s	n/a
411.704	0.106	823408	keystroke_Key.enter	Key.enter	n/a
411.825	9.8635	823650	prompt	n/a	analyst bean olive thorough\n
412.604	0.15	825208	keystroke_a	a	n/a
412.739	0.105	825478	keystroke_n	n	n/a
412.859	0.136	825718	keystroke_a	a	n/a
413.174	0.106	826348	keystroke_l	l	n/a
413.459	0.106	826918	keystroke_y	y	n/a
413.624	0.15	827248	keystroke_s	s	n/a
414.104	0.09	828208	keystroke_t	t	n/a
414.299	0.12	828598	keystroke_Key.space	Key.space	n/a
414.705	0.074	829410	keystroke_b	b	n/a
414.914	0.12	829828	keystroke_e	e	n/a
415.274	0.106	830548	keystroke_a	a	n/a
415.514	0.121	831028	keystroke_m	m	n/a
415.994	0.09	831988	keystroke_Key.backspace	Key.backspace	n/a
416.31	0.164	832620	keystroke_n	n	n/a
416.504	0.135	833008	keystroke_Key.space	Key.space	n/a
416.939	0.105	833878	keystroke_o	o	n/a
417.164	0.195	834328	keystroke_l	l	n/a
417.284	0.15	834568	keystroke_i	i	n/a
417.494	0.165	834988	keystroke_v	v	n/a
417.644	0.195	835288	keystroke_e	e	n/a
417.809	0.135	835618	keystroke_Key.space	Key.space	n/a
418.064	0.12	836128	keystroke_t	t	n/a
418.154	0.135	836308	keystroke_h	h	n/a
418.3795	0.105	836759	keystroke_r	r	n/a
419.0245	0.075	838049	keystroke_Key.backspace	Key.backspace	n/a
419.3095	0.12	838619	keystroke_o	o	n/a
419.5345	0.09	839069	keystroke_r	r	n/a
420.1345	0.135	840269	keystroke_o	o	n/a
420.2245	0.105	840449	keystroke_u	u	n/a
420.7795	0.105	841559	keystroke_g	g	n/a
421.2145	0.105	842429	keystroke_h	h	n/a
421.5895	0.09	843179	keystroke_Key.enter	Key.enter	n/a
421.6925	10.2255	843385	prompt	n/a	correct blink trademarks amongst\n
422.7145	0.15	845429	keystroke_c	c	n/a
422.8045	0.105	845609	keystroke_o	o	n/a
422.9845	0.105	845969	keystroke_r	r	n/a
423.1645	0.15	846329	keystroke_r	r	n/a
423.2695	0.12	846539	keystroke_e	e	n/a
423.5245	0.135	847049	keystroke_c	c	n/a
423.7795	0.15	847559	keystroke_t	t	n/a
423.9145	0.12	847829	keystroke_Key.space	Key.space	n/a
424.3345	0.12	848669	keystroke_b	b	n/a
424.4845	0.06	848969	keystroke_l	l	n/a
425.114	0.075	850228	keystroke_i	i	n/a
425.3095	0.105	850619	keystroke_n	n	n/a
425.969	0.1655	851938	keystroke_k	k	n/a
426.0895	0.135	852179	keystroke_Key.space	Key.space	n/a
426.2695	0.12	852539	keystroke_t	t	n/a
426.4945	0.135	852989	keystroke_r	r	n/a
426.6145	0.09	853229	keystroke_a	a	n/a
426.8245	0.105	853649	keystroke_d	d	n/a
427.0345	0.135	854069	keystroke_e	e	n/a
427.1545	0.12	854309	keystroke_m	m	n/a
427.2895	0.15	854579	keystroke_a	a	n/a
427.4095	0.105	854819	keystroke_r	r	n/a
428.0245	0.12	856049	keystroke_k	k	n/a
428.1745	0.12	856349	keystroke_s	s	n/a
428.6995	0.105	857399	keystroke_Key.space	Key.space	n/a
429.0595	0.135	858119	keystroke_a	a	n/a
429.2245	0.15	858449	keystroke_m	m	n/a
429.3895	0.165	858779	keystroke_o	o	n/a
429.5695	0.09	859139	keystroke_n	n	n/a
429.7795	0.105	859559	keystroke_g	g	n/a
431.129	0.21	862258	keystroke_s	s	n/a
431.309	0.12	862618	keystroke_t	t	n/a
431.774	0.135	863548	keystroke_Key.enter	Key.enter	n/a
431.9235	9.9695	863847	prompt	n/a	wine drugs franchise communist\n
432.524	0.135	865048	keystroke_w	w	n/a
432.614	0.135	865228	keystroke_i	i	n/a
432.854	0.135	865708	keystroke_n	n	n/a
432.959	0.15	865918	keystroke_e	e	n/a
433.124	0.12	866248	keystroke_Key.space	Key.space	n/a
433.544	0.135	867088	keystroke_d	d	n/a
433.784	0.15	867568	keystroke_r	r	n/a
433.919	0.12	867838	keystroke_i	i	n/a
434.819	0.045	869638	keystroke_Key.backspace	Key.backspace	n/a
434.939	0.09	869878	keystroke_Key.backspace	Key.backspace	n/a
435.554	0.165	871108	keystroke_r	r	n/a
435.734	0.12	871468	keystroke_u	u	n/a
435.974	0.06	871948	keystroke_g	g	n/a
436.259	0.15	872518	keystroke_s	s	n/a
436.559	0.105	873118	keystroke_Key.space	Key.space	n/a
436.859	0.1055	873718	keystroke_f	f	n/a
437.0695	0.1645	874139	keystroke_r	r	n/a
437.249	0.135	874498	keystroke_a	a	n/a
437.399	0.09	874798	keystroke_n	n	n/a
437.879	0.075	875758	keystroke_c	c	n/a
438.224	0.1205	876448	keystroke_h	h	n/a
438.4045	0.12	876809	keystroke_i	i	n/a
438.7645	0.12	877529	keystroke_s	s	n/a
438.9895	0.1045	877979	keystroke_e	e	n/a
439.169	0.135	878338	keystroke_Key.space	Key.space	n/a
439.709	0.1205	879418	keystroke_c	c	n/a
439.799	0.135	879598	keystroke_o	o	n/a
440.069	0.0905	880138	keystroke_m	m	n/a
440.264	0.09	880528	keystroke_m	m	n/a
440.534	0.03	881068	keystroke_u	u	n/a
440.774	0.1505	881548	keystroke_n	n	n/a
440.834	0.1505	881668	keystroke_i	i	n/a
441.0145	0.18	882029	keystroke_s	s	n/a
441.1795	0.135	882359	keystroke_t	t	n/a
441.719	0.1655	883438	keystroke_Key.enter	Key.enter	n/a
441.898	19.0755	883796	prompt	n/a	accommodate suspected ireland cindy\n
442.5145	0.075	885029	keystroke_a	a	n/a
442.6945	0.09	885389	keystroke_c	c	n/a
442.8745	0.15	885749	keystroke_c	c	n/a
442.9945	0.135	885989	keystroke_o	o	n/a
443.1895	0.18	886379	keystroke_m	m	n/a
443.3245	0.165	886649	keystroke_o	o	n/a
443.8795	0.12	887759	keystroke_d	d	n/a
444.1645	0.165	888329	keystroke_a	a	n/a
444.3445	0.165	888689	keystroke_t	t	n/a
444.4345	0.18	888869	keystroke_e	e	n/a
444.7345	0.105	889469	keystroke_Key.space	Key.space	n/a
444.9145	0.165	889829	keystroke_s	s	n/a
445.0945	0.105	890189	keystroke_u	u	n/a
445.3945	0.15	890789	keystroke_s	s	n/a
445.5745	0.105	891149	keystroke_p	p	n/a
445.7695	0.12	891539	keystroke_e	e	n/a
446.0395	0.12	892079	keystroke_c	c	n/a
446.3095	0.09	892619	keystroke_t	t	n/a
446.4895	0.105	892979	keystroke_e	e	n/a
446.7895	0.105	893579	keystroke_d	d	n/a
447.1045	0.135	894209	keystroke_Key.space	Key.space	n/a
447.4195	0.135	894839	keystroke_i	i	n/a
447.5845	0.15	895169	keystroke_r	r	n/a
447.78	0.1345	895560	keystroke_e	e	n/a
447.9745	0.135	895949	keystroke_l	l	n/a
448.3945	0.12	896789	keystroke_a	a	n/a
448.5745	0.105	897149	keystroke_n	n	n/a
448.7095	0.135	897419	keystroke_d	d	n/a
448.8595	0.12	897719	keystroke_Key.space	Key.space	n/a
449.0545	0.15	898109	keystroke_c	c	n/a
449.1745	0.105	898349	keystroke_i	i	n/a
449.3845	0.12	898769	keystroke_n	n	n/a
449.6245	0.15	899249	keystroke_d	d	n/a
449.8045	0.105	899609	keystroke_y	y	n/a
453.5695	0.09	907139	keystroke_Key.left	Key.left	n/a
453.7495	0.105	907499	keystroke_Key.left	Key.left	n/a
453.9445	0.105	907889	keystroke_Key.left	Key.left	n/a
454.1245	0.15	908249	keystroke_Key.left	Key.left	n/a
454.3795	0.075	908759	keystroke_Key.left	Key.left	n/a
454.5445	0.12	909089	keystroke_Key.left	Key.left	n/a
454.7395	0.12	909479	keystroke_Key.left	Key.left	n/a
454.9195	0.105	909839	keystroke_Key.left	Key.left	n/a
455.1145	0.105	910229	keystroke_Key.left	Key.left	n/a
455.2945	0.09	910589	keystroke_Key.left	Key.left	n/a
456.5695	0.06	913139	keystroke_Key.left	Key.left	n/a
456.7495	0.075	913499	keystroke_Key.left	Key.left	n/a
456.9595	0.075	913919	keystroke_Key.left	Key.left	n/a
457.4085	0.105	914817	keystroke_Key.left	Key.left	n/a
457.6795	0.1045	915359	keystroke_Key.left	Key.left	n/a
457.9035	0.06	915807	keystroke_Key.left	Key.left	n/a
458.9085	0.135	917817	keystroke_Key.right	Key.right	n/a
459.179	0.1055	918358	keystroke_Key.right	Key.right	n/a
459.3895	0.105	918779	keystroke_Key.right	Key.right	n/a
459.5845	0.12	919169	keystroke_Key.right	Key.right	n/a
460.4695	0.135	920939	keystroke_m	m	n/a
460.8295	0.135	921659	keystroke_Key.enter	Key.enter	n/a
460.9775	8.8625	921955	prompt	n/a	accurate pose jeremy appearing\n
462.675	0.104	925350	keystroke_a	a	n/a
462.884	0.105	925768	keystroke_c	c	n/a
463.049	0.1505	926098	keystroke_c	c	n/a
463.214	0.15	926428	keystroke_u	u	n/a
463.379	0.18	926758	keystroke_r	r	n/a
463.529	0.18	927058	keystroke_a	a	n/a
463.664	0.165	927328	keystroke_t	t	n/a
463.799	0.135	927598	keystroke_e	e	n/a
464.054	0.105	928108	keystroke_Key.space	Key.space	n/a
464.309	0.135	928618	keystroke_p	p	n/a
464.504	0.15	929008	keystroke_o	o	n/a
464.609	0.165	929218	keystroke_s	s	n/a
464.804	0.135	929608	keystroke_e	e	n/a
464.969	0.12	929938	keystroke_Key.space	Key.space	n/a
465.224	0.135	930448	keystroke_j	j	n/a
465.299	0.1955	930598	keystroke_e	e	n/a
465.449	0.12	930898	keystroke_r	r	n/a
465.644	0.15	931288	keystroke_e	e	n/a
466.034	0.105	932068	keystroke_m	m	n/a
466.289	0.15	932578	keystroke_y	y	n/a
466.409	0.105	932818	keystroke_Key.space	Key.space	n/a
466.529	0.15	933058	keystroke_a	a	n/a
466.709	0.06	933418	keystroke_p	p	n/a
466.859	0.135	933718	keystroke_p	p	n/a
466.949	0.135	933898	keystroke_e	e	n/a
467.114	0.15	934228	keystroke_a	a	n/a
467.429	0.045	934858	keystroke_i	i	n/a
467.849	0.075	935698	keystroke_Key.backspace	Key.backspace	n/a
467.939	0.165	935878	keystroke_a	a	n/a
468.569	0.06	937138	keystroke_Key.backspace	Key.backspace	n/a
468.659	0.135	937318	keystroke_r	r	n/a
468.839	0.105	937678	keystroke_i	i	n/a
469.2895	0.135	938579	keystroke_n	n	n/a
469.4545	0.1195	938909	keystroke_g	g	n/a
469.7095	0.12	939419	keystroke_Key.enter	Key.enter	n/a
469.8445	8.3795	939689	prompt	n/a	firmware alias scientists roof\n
470.6395	0.15	941279	keystroke_f	f	n/a
470.7745	0.12	941549	keystroke_i	i	n/a
470.9095	0.12	941819	keystroke_r	r	n/a
471.0895	0.15	942179	keystroke_m	m	n/a
471.4645	0.24	942929	keystroke_w	w	n/a
471.5995	0.12	943199	keystroke_a	a	n/a
471.6745	0.195	943349	keystroke_r	r	n/a
471.7945	0.15	943589	keystroke_e	e	n/a
472.0645	0.135	944129	keystroke_Key.space	Key.space	n/a
472.334	0.15	944668	keystroke_a	a	n/a
472.469	0.165	944938	keystroke_l	l	n/a
472.589	0.135	945178	keystroke_i	i	n/a
472.739	0.15	945478	keystroke_a	a	n/a
472.994	0.195	945988	keystroke_s	s	n/a
473.19	0.119	946380	keystroke_Key.space	Key.space	n/a
473.459	0.12	946918	keystroke_c	c	n/a
473.834	0.075	947668	keystroke_Key.backspace	Key.backspace	n/a
473.924	0.135	947848	keystroke_s	s	n/a
474.1795	0.15	948359	keystroke_c	c	n/a
474.4945	0.12	948989	keystroke_i	i	n/a
474.7795	0.135	949559	keystroke_e	e	n/a
474.8995	0.105	949799	keystroke_n	n	n/a
475.1245	0.09	950249	keystroke_t	t	n/a
475.3345	0.105	950669	keystroke_i	i	n/a
475.4545	0.15	950909	keystroke_s	s	n/a
475.6495	0.09	951299	keystroke_t	t	n/a
476.969	0.15	953938	keystroke_s	s	n/a
477.134	0.1055	954268	keystroke_Key.space	Key.space	n/a
477.3895	0.165	954779	keystroke_r	r	n/a
477.5695	0.045	955139	keystroke_o	o	n/a
477.7345	0.105	955469	keystroke_o	o	n/a
477.9145	0.105	955829	keystroke_f	f	n/a
478.0945	0.12	956189	keystroke_Key.enter	Key.enter	n/a
478.2275	9.641	956455	prompt	n/a	addresses robots downloaded antibody\n
478.919	0.09	957838	keystroke_a	a	n/a
479.204	0.015	958408	keystroke_d	d	n/a
479.399	0.015	958798	keystroke_d	d	n/a
479.444	0.165	958888	keystroke_r	r	n/a
479.549	0.105	959098	keystroke_e	e	n/a
479.774	0.09	959548	keystroke_s	s	n/a
479.984	0.135	959968	keystroke_s	s	n/a
480.104	0.136	960208	keystroke_e	e	n/a
480.314	0.135	960628	keystroke_s	s	n/a
480.719	0.12	961438	keystroke_Key.space	Key.space	n/a
481.29	0.135	962580	keystroke_r	r	n/a
481.454	0.136	962908	keystroke_o	o	n/a
481.724	0.045	963448	keystroke_b	b	n/a
482.204	0.135	964408	keystroke_o	o	n/a
482.474	0.09	964948	keystroke_t	t	n/a
482.729	0.15	965458	keystroke_s	s	n/a
482.865	0.104	965730	keystroke_Key.space	Key.space	n/a
483.044	0.165	966088	keystroke_d	d	n/a
483.179	0.135	966358	keystroke_o	o	n/a
483.315	0.149	966630	keystroke_w	w	n/a
483.494	0.09	966988	keystroke_n	n	n/a
483.944	0.075	967888	keystroke_l	l	n/a
484.154	0.105	968308	keystroke_o	o	n/a
484.289	0.105	968578	keystroke_a	a	n/a
484.634	0.165	969268	keystroke_d	d	n/a
484.934	0.09	969868	keystroke_e	e	n/a
485.159	0.105	970318	keystroke_d	d	n/a
485.279	0.12	970558	keystroke_Key.space	Key.space	n/a
485.459	0.15	970918	keystroke_a	a	n/a
485.594	0.15	971188	keystroke_n	n	n/a
485.819	0.091	971638	keystroke_t	t	n/a
485.999	0.105	971998	keystroke_i	i	n/a
486.719	0.12	973438	keystroke_b	b	n/a
486.824	0.105	973648	keystroke_o	o	n/a
487.004	0.12	974008	keystroke_d	d	n/a
487.154	0.135	974308	keystroke_y	y	n/a
487.754	0.105	975508	keystroke_Key.enter	Key.enter	n/a
487.8725	10.7655	975745	prompt	n/a	gathered urls comparing tablets\n
488.64	0.164	977280	keystroke_g	g	n/a
488.819	0.18	977638	keystroke_a	a	n/a
489	0.119	978000	keystroke_t	t	n/a
489.224	0.09	978448	keystroke_h	h	n/a
489.659	0.03	979318	keystroke_Key.backspace	Key.backspace	n/a
490.184	0.09	980368	keystroke_h	h	n/a
490.334	0.24	980668	keystroke_e	e	n/a
490.484	0.135	980968	keystroke_r	r	n/a
490.649	0.165	981298	keystroke_e	e	n/a
491.234	0.12	982468	keystroke_d	d	n/a
491.429	0.105	982858	keystroke_Key.space	Key.space	n/a
491.639	0.105	983278	keystroke_u	u	n/a
492.089	0.135	984178	keystroke_r	r	n/a
492.569	0.135	985138	keystroke_l	l	n/a
492.944	0.135	985888	keystroke_s	s	n/a
493.169	0.135	986338	keystroke_Key.space	Key.space	n/a
493.439	0.15	986878	keystroke_c	c	n/a
493.559	0.135	987118	keystroke_o	o	n/a
493.754	0.165	987508	keystroke_m	m	n/a
494.249	0.12	988498	keystroke_p	p	n/a
494.429	0.06	988858	keystroke_a	a	n/a
494.789	0.105	989578	keystroke_r	r	n/a
494.864	0.12	989728	keystroke_i	i	n/a
495.119	0.09	990238	keystroke_n	n	n/a
495.314	0.075	990628	keystroke_g	g	n/a
495.6145	0.105	991229	keystroke_Key.space	Key.space	n/a
496.0645	0.135	992129	keystroke_t	t	n/a
496.2735	0.136	992547	keystroke_a	a	n/a
496.5745	0.09	993149	keystroke_b	b	n/a
496.7245	0.12	993449	keystroke_l	l	n/a
496.8145	0.12	993629	keystroke_e	e	n/a
497.2485	0.12	994497	keystroke_t	t	n/a
497.4885	0.15	994977	keystroke_s	s	n/a
498.524	0.105	997048	keystroke_Key.enter	Key.enter	n/a
498.6415	9.2365	997283	prompt	n/a	bicycle pearl coalition cognitive\n
499.3935	0.105	998787	keystroke_b	b	n/a
499.6335	0.135	999267	keystroke_i	i	n/a
499.8435	0.165	999687	keystroke_c	c	n/a
500.0685	0.12	1000137	keystroke_y	y	n/a
500.2935	0.15	1000587	keystroke_c	c	n/a
500.4135	0.135	1000827	keystroke_l	l	n/a
500.6385	0.09	1001277	keystroke_e	e	n/a
500.7885	0.12	1001577	keystroke_Key.space	Key.space	n/a
501.2395	0.06	1002479	keystroke_p	p	n/a
501.2845	0.105	1002569	keystroke_e	e	n/a
501.494	0.1505	1002988	keystroke_a	a	n/a
501.5995	0.105	1003199	keystroke_r	r	n/a
502.1395	0.105	1004279	keystroke_l	l	n/a
502.439	0.105	1004878	keystroke_Key.space	Key.space	n/a
502.694	0.15	1005388	keystroke_c	c	n/a
502.829	0.1055	1005658	keystroke_o	o	n/a
503.0245	0.15	1006049	keystroke_a	a	n/a
503.2945	0.195	1006589	keystroke_l	l	n/a
503.4295	0.135	1006859	keystroke_i	i	n/a
503.7745	0.135	1007549	keystroke_t	t	n/a
503.8345	0.36	1007669	keystroke_i	i	n/a
503.9545	0.225	1007909	keystroke_o	o	n/a
504.1345	0.15	1008269	keystroke_n	n	n/a
504.5095	0.12	1009019	keystroke_Key.space	Key.space	n/a
505.3195	0.105	1010639	keystroke_c	c	n/a
505.4095	0.135	1010819	keystroke_o	o	n/a
505.7095	0.075	1011419	keystroke_n	n	n/a
506.0695	0.105	1012139	keystroke_Key.backspace	Key.backspace	n/a
506.1595	0.15	1012319	keystroke_g	g	n/a
506.4145	0.105	1012829	keystroke_n	n	n/a
506.6245	0.12	1013249	keystroke_i	i	n/a
506.9245	0.105	1013849	keystroke_t	t	n/a
507.0145	0.105	1014029	keystroke_i	i	n/a
507.2395	0.225	1014479	keystroke_v	v	n/a
507.3595	0.135	1014719	keystroke_e	e	n/a
507.7345	0.135	1015469	keystroke_Key.enter	Key.enter	n/a
507.882	13.631	1015764	prompt	n/a	antarctica mistress reads merit\n
508.6195	0.15	1017239	keystroke_a	a	n/a
508.7995	0.135	1017599	keystroke_n	n	n/a
508.9645	0.15	1017929	keystroke_t	t	n/a
509.1895	0.18	1018379	keystroke_a	a	n/a
509.4145	0.15	1018829	keystroke_r	r	n/a
515.1915	0.0875	1030383	keystroke_t	t	n/a
515.264	0.106	1030528	keystroke_i	i	n/a
515.999	0.105	1031998	keystroke_c	c	n/a
516.194	0.12	1032388	keystroke_a	a	n/a
516.329	0.105	1032658	keystroke_Key.space	Key.space	n/a
516.524	0.15	1033048	keystroke_m	m	n/a
516.629	0.12	1033258	keystroke_i	i	n/a
516.719	0.105	1033438	keystroke_s	s	n/a
517.604	0.15	1035208	keystroke_t	t	n/a
518.294	0.18	1036588	keystroke_r	r	n/a
518.459	0.105	1036918	keystroke_e	e	n/a
518.684	0.105	1037368	keystroke_s	s	n/a
518.894	0.21	1037788	keystroke_s	s	n/a
519.044	0.105	1038088	keystroke_Key.space	Key.space	n/a
519.284	0.165	1038568	keystroke_r	r	n/a
519.374	0.12	1038748	keystroke_e	e	n/a
519.569	0.15	1039138	keystroke_a	a	n/a
519.779	0.135	1039558	keystroke_d	d	n/a
519.989	0.12	1039978	keystroke_s	s	n/a
520.139	0.105	1040278	keystroke_Key.space	Key.space	n/a
520.364	0.135	1040728	keystroke_m	m	n/a
520.604	0.226	1041208	keystroke_e	e	n/a
520.814	0.15	1041628	keystroke_r	r	n/a
520.965	0.149	1041930	keystroke_i	i	n/a
521.099	0.135	1042198	keystroke_t	t	n/a
521.339	0.165	1042678	keystroke_Key.enter	Key.enter	n/a
521.5175	9.1155	1043035	prompt	n/a	memphis painting python neighbor\n
522.8845	0.15	1045769	keystroke_m	m	n/a
522.9895	0.15	1045979	keystroke_e	e	n/a
523.1245	0.15	1046249	keystroke_m	m	n/a
523.4095	0.135	1046819	keystroke_p	p	n/a
523.5295	0.195	1047059	keystroke_h	h	n/a
523.6945	0.135	1047389	keystroke_i	i	n/a
524.4445	0.18	1048889	keystroke_s	s	n/a
524.6095	0.09	1049219	keystroke_Key.space	Key.space	n/a
524.8195	0.135	1049639	keystroke_p	p	n/a
524.9095	0.135	1049819	keystroke_a	a	n/a
525.0895	0.09	1050179	keystroke_i	i	n/a
525.3445	0.09	1050689	keystroke_n	n	n/a
525.6145	0.12	1051229	keystroke_t	t	n/a
525.7195	0.105	1051439	keystroke_i	i	n/a
525.9145	0.105	1051829	keystroke_n	n	n/a
526.0345	0.105	1052069	keystroke_g	g	n/a
526.1845	0.075	1052369	keystroke_Key.space	Key.space	n/a
526.4845	0.135	1052969	keystroke_p	p	n/a
526.6045	0.12	1053209	keystroke_y	y	n/a
526.9195	0.15	1053839	keystroke_t	t	n/a
527.0235	0.181	1054047	keystroke_h	h	n/a
527.1745	0.12	1054349	keystroke_o	o	n/a
527.3985	0.091	1054797	keystroke_n	n	n/a
527.9685	0.106	1055937	keystroke_Key.space	Key.space	n/a
528.2835	0.136	1056567	keystroke_n	n	n/a
528.4345	0.134	1056869	keystroke_e	e	n/a
528.5985	0.135	1057197	keystroke_i	i	n/a
528.8395	0.105	1057679	keystroke_g	g	n/a
528.9445	0.089	1057889	keystroke_h	h	n/a
529.4385	0.105	1058877	keystroke_b	b	n/a
529.5585	0.091	1059117	keystroke_o	o	n/a
529.7695	0.059	1059539	keystroke_s	s	n/a
530.1585	0.06	1060317	keystroke_Key.backspace	Key.backspace	n/a
530.2345	0.12	1060469	keystroke_r	r	n/a
530.5035	0.12	1061007	keystroke_Key.enter	Key.enter	n/a
530.6375	8.9065	1061275	prompt	n/a	liquid performances gently disagree\n
531.3445	0.18	1062689	keystroke_l	l	n/a
531.4795	0.09	1062959	keystroke_i	i	n/a
531.7045	0.165	1063409	keystroke_q	q	n/a
531.8845	0.075	1063769	keystroke_u	u	n/a
532.0645	0.12	1064129	keystroke_i	i	n/a
532.5895	0.135	1065179	keystroke_d	d	n/a
532.7845	0.09	1065569	keystroke_Key.space	Key.space	n/a
533.0245	0.135	1066049	keystroke_p	p	n/a
533.1445	0.1945	1066289	keystroke_e	e	n/a
533.264	0.12	1066528	keystroke_r	r	n/a
533.534	0.15	1067068	keystroke_f	f	n/a
533.685	0.134	1067370	keystroke_o	o	n/a
533.864	0.12	1067728	keystroke_r	r	n/a
534.059	0.12	1068118	keystroke_m	m	n/a
534.209	0.12	1068418	keystroke_a	a	n/a
534.314	0.135	1068628	keystroke_n	n	n/a
534.584	0.06	1069168	keystroke_c	c	n/a
534.779	0.12	1069558	keystroke_e	e	n/a
535.004	0.15	1070008	keystroke_s	s	n/a
535.259	0.12	1070518	keystroke_Key.space	Key.space	n/a
535.679	0.12	1071358	keystroke_g	g	n/a
535.874	0.135	1071748	keystroke_e	e	n/a
535.994	0.135	1071988	keystroke_n	n	n/a
536.159	0.135	1072318	keystroke_t	t	n/a
536.324	0.12	1072648	keystroke_l	l	n/a
536.549	0.165	1073098	keystroke_y	y	n/a
536.699	0.105	1073398	keystroke_Key.space	Key.space	n/a
537.029	0.105	1074058	keystroke_d	d	n/a
537.164	0.105	1074328	keystroke_i	i	n/a
537.614	0.135	1075228	keystroke_s	s	n/a
537.899	0.135	1075798	keystroke_a	a	n/a
538.274	0.09	1076548	keystroke_g	g	n/a
538.514	0.195	1077028	keystroke_r	r	n/a
538.619	0.15	1077238	keystroke_e	e	n/a
538.859	0.12	1077718	keystroke_e	e	n/a
539.384	0.15	1078768	keystroke_Key.enter	Key.enter	n/a
539.5535	10.2795	1079107	prompt	n/a	hill normally prohibited voters\n
540.3145	0.18	1080629	keystroke_h	h	n/a
540.4345	0.12	1080869	keystroke_i	i	n/a
540.6895	0.075	1081379	keystroke_l	l	n/a
540.8845	0.165	1081769	keystroke_l	l	n/a
540.9745	0.18	1081949	keystroke_Key.space	Key.space	n/a
541.1245	0.165	1082249	keystroke_n	n	n/a
541.2295	0.15	1082459	keystroke_o	o	n/a
541.3945	0.12	1082789	keystroke_r	r	n/a
541.5745	0.06	1083149	keystroke_m	m	n/a
542.0845	0.135	1084169	keystroke_a	a	n/a
542.2045	0.105	1084409	keystroke_l	l	n/a
542.4595	0.06	1084919	keystroke_y	y	n/a
542.8645	0.045	1085729	keystroke_Key.backspace	Key.backspace	n/a
543.1195	0.1045	1086239	keystroke_l	l	n/a
543.389	0.15	1086778	keystroke_y	y	n/a
543.494	0.12	1086988	keystroke_Key.space	Key.space	n/a
543.734	0.1055	1087468	keystroke_p	p	n/a
543.8695	0.15	1087739	keystroke_r	r	n/a
543.9895	0.105	1087979	keystroke_o	o	n/a
544.2745	0.105	1088549	keystroke_g	g	n/a
544.7095	0.06	1089419	keystroke_Key.backspace	Key.backspace	n/a
544.9645	0.165	1089929	keystroke_h	h	n/a
545.0695	0.12	1090139	keystroke_i	i	n/a
545.5345	0.12	1091069	keystroke_b	b	n/a
547.364	0.105	1094728	keystroke_i	i	n/a
547.514	0.12	1095028	keystroke_t	t	n/a
547.694	0.12	1095388	keystroke_e	e	n/a
547.949	0.135	1095898	keystroke_d	d	n/a
548.039	0.105	1096078	keystroke_Key.space	Key.space	n/a
548.384	0.15	1096768	keystroke_v	v	n/a
548.535	0.104	1097070	keystroke_o	o	n/a
548.819	0.12	1097638	keystroke_t	t	n/a
549.014	0.27	1098028	keystroke_e	e	n/a
549.209	0.15	1098418	keystroke_r	r	n/a
549.479	0.165	1098958	keystroke_s	s	n/a
549.689	0.135	1099378	keystroke_Key.enter	Key.enter	n/a
549.839	7.6445	1099678	prompt	n/a	bryant cookies obvious shower\n
550.604	0.105	1101208	keystroke_b	b	n/a
550.784	0.075	1101568	keystroke_y	y	n/a
551.309	0.075	1102618	keystroke_Key.backspace	Key.backspace	n/a
551.369	0.12	1102738	keystroke_r	r	n/a
551.594	0.12	1103188	keystroke_y	y	n/a
551.954	0.135	1103908	keystroke_a	a	n/a
552.074	0.09	1104148	keystroke_n	n	n/a
552.344	0.105	1104688	keystroke_t	t	n/a
552.629	0.09	1105258	keystroke_Key.space	Key.space	n/a
552.8535	0.1365	1105707	keystroke_c	c	n/a
552.959	0.06	1105918	keystroke_o	o	n/a
553.139	0.106	1106278	keystroke_o	o	n/a
553.289	0.09	1106578	keystroke_k	k	n/a
553.484	0.1195	1106968	keystroke_i	i	n/a
553.5595	0.105	1107119	keystroke_e	e	n/a
553.8135	0.105	1107627	keystroke_s	s	n/a
553.904	0.0895	1107808	keystroke_Key.space	Key.space	n/a
554.1145	0.119	1108229	keystroke_o	o	n/a
554.3535	0.06	1108707	keystroke_b	b	n/a
554.6385	0.121	1109277	keystroke_v	v	n/a
554.9085	0.15	1109817	keystroke_i	i	n/a
555.1045	0.179	1110209	keystroke_o	o	n/a
555.2985	0.121	1110597	keystroke_u	u	n/a
555.5685	0.121	1111137	keystroke_s	s	n/a
555.7785	0.105	1111557	keystroke_Key.space	Key.space	n/a
556.1245	0.165	1112249	keystroke_s	s	n/a
556.229	0.1655	1112458	keystroke_h	h	n/a
556.3785	0.136	1112757	keystroke_o	o	n/a
556.5295	0.1645	1113059	keystroke_w	w	n/a
556.6645	0.2105	1113329	keystroke_e	e	n/a
556.815	0.119	1113630	keystroke_r	r	n/a
557.309	0.165	1114618	keystroke_Key.enter	Key.enter	n/a
557.4885	9.309	1114977	prompt	n/a	settlement euros refined subcommittee\n
558.1045	0.164	1116209	keystroke_s	s	n/a
558.2395	0.135	1116479	keystroke_e	e	n/a
558.4795	0.075	1116959	keystroke_t	t	n/a
558.6445	0.134	1117289	keystroke_t	t	n/a
558.7935	0.121	1117587	keystroke_l	l	n/a
558.8845	0.119	1117769	keystroke_e	e	n/a
559.1395	0.105	1118279	keystroke_m	m	n/a
559.1995	0.165	1118399	keystroke_e	e	n/a
559.3345	0.12	1118669	keystroke_n	n	n/a
559.4095	0.135	1118819	keystroke_t	t	n/a
559.5885	0.075	1119177	keystroke_Key.space	Key.space	n/a
559.7245	0.18	1119449	keystroke_e	e	n/a
559.8595	0.09	1119719	keystroke_r	r	n/a
560.2645	0.03	1120529	keystroke_Key.backspace	Key.backspace	n/a
560.4745	0.09	1120949	keystroke_u	u	n/a
560.6095	0.12	1121219	keystroke_r	r	n/a
560.7895	0.12	1121579	keystroke_o	o	n/a
560.9995	0.105	1121999	keystroke_s	s	n/a
561.2385	0.06	1122477	keystroke_Key.space	Key.space	n/a
561.3895	0.12	1122779	keystroke_r	r	n/a
561.4945	0.075	1122989	keystroke_e	e	n/a
561.8095	0.15	1123619	keystroke_f	f	n/a
561.9595	0.135	1123919	keystroke_i	i	n/a
562.1395	0.12	1124279	keystroke_n	n	n/a
562.3195	0.075	1124639	keystroke_e	e	n/a
562.5595	0.12	1125119	keystroke_d	d	n/a
562.6645	0.119	1125329	keystroke_Key.space	Key.space	n/a
563.0095	0.12	1126019	keystroke_s	s	n/a
563.1445	0.075	1126289	keystroke_u	u	n/a
563.3545	0.075	1126709	keystroke_b	b	n/a
564.3135	0.151	1128627	keystroke_c	c	n/a
564.4345	0.105	1128869	keystroke_o	o	n/a
564.7035	0.091	1129407	keystroke_m	m	n/a
564.8995	0.135	1129799	keystroke_m	m	n/a
565.5295	0.12	1131059	keystroke_i	i	n/a
565.7245	0.105	1131449	keystroke_t	t	n/a
565.9345	0.135	1131869	keystroke_t	t	n/a
566.1295	0.12	1132259	keystroke_e	e	n/a
566.3395	0.135	1132679	keystroke_e	e	n/a
566.6395	0.15	1133279	keystroke_Key.enter	Key.enter	n/a
566.802	6.064	1133604	prompt	n/a	boolean when's dress loved\n
567.4945	0.09	1134989	keystroke_b	b	n/a
567.6895	0.075	1135379	keystroke_o	o	n/a
567.8545	0.075	1135709	keystroke_o	o	n/a
568.0635	0.121	1136127	keystroke_l	l	n/a
568.1245	0.15	1136249	keystroke_e	e	n/a
568.3335	0.151	1136667	keystroke_a	a	n/a
568.4995	0.135	1136999	keystroke_n	n	n/a
568.5895	0.15	1137179	keystroke_Key.space	Key.space	n/a
568.8745	0.134	1137749	keystroke_w	w	n/a
568.9645	0.12	1137929	keystroke_h	h	n/a
569.0695	0.15	1138139	keystroke_e	e	n/a
569.2045	0.15	1138409	keystroke_n	n	n/a
569.3695	0.165	1138739	keystroke_'	'	n/a
569.5935	0.18	1139187	keystroke_s	s	n/a
570.2995	0.045	1140599	keystroke_Key.space	Key.space	n/a
570.7645	0.135	1141529	keystroke_d	d	n/a
570.9895	0.18	1141979	keystroke_r	r	n/a
571.0945	0.135	1142189	keystroke_e	e	n/a
571.3645	0.075	1142729	keystroke_s	s	n/a
571.5445	0.15	1143089	keystroke_s	s	n/a
571.6795	0.105	1143359	keystroke_Key.space	Key.space	n/a
571.9195	0.075	1143839	keystroke_l	l	n/a
572.1145	0.12	1144229	keystroke_o	o	n/a
572.1295	0.15	1144259	keystroke_v	v	n/a
572.3245	0.075	1144649	keystroke_e	e	n/a
572.4895	0.15	1144979	keystroke_d	d	n/a
572.6995	0.165	1145399	keystroke_Key.enter	Key.enter	n/a
572.872	8.521	1145744	prompt	n/a	administrative ascii empirical omega\n
573.4795	0.09	1146959	keystroke_a	a	n/a
573.6295	0.15	1147259	keystroke_d	d	n/a
573.8545	0.15	1147709	keystroke_m	m	n/a
573.9745	0.1795	1147949	keystroke_i	i	n/a
574.1245	0.15	1148249	keystroke_n	n	n/a
574.2295	0.15	1148459	keystroke_i	i	n/a
574.3645	0.15	1148729	keystroke_s	s	n/a
574.5295	0.105	1149059	keystroke_t	t	n/a
574.7395	0.12	1149479	keystroke_r	r	n/a
574.8745	0.075	1149749	keystroke_a	a	n/a
574.9645	0.15	1149929	keystroke_t	t	n/a
575.0995	0.105	1150199	keystroke_i	i	n/a
575.3245	0.15	1150649	keystroke_v	v	n/a
575.4745	0.165	1150949	keystroke_e	e	n/a
575.6095	0.135	1151219	keystroke_Key.space	Key.space	n/a
576.3745	0.015	1152749	keystroke_a	a	n/a
576.4645	0.12	1152929	keystroke_s	s	n/a
576.7195	0.105	1153439	keystroke_c	c	n/a
576.8845	0.105	1153769	keystroke_i	i	n/a
577.0945	0.18	1154189	keystroke_i	i	n/a
577.2145	0.12	1154429	keystroke_Key.space	Key.space	n/a
577.4545	0.12	1154909	keystroke_e	e	n/a
577.6345	0.12	1155269	keystroke_m	m	n/a
577.9795	0.015	1155959	keystroke_p	p	n/a
578.0395	0.135	1156079	keystroke_i	i	n/a
578.2795	0.09	1156559	keystroke_r	r	n/a
578.5945	0.135	1157189	keystroke_i	i	n/a
578.8945	0.105	1157789	keystroke_c	c	n/a
579.1495	0.165	1158299	keystroke_a	a	n/a
579.2845	0.195	1158569	keystroke_l	l	n/a
579.4195	0.12	1158839	keystroke_Key.space	Key.space	n/a
579.6895	0.135	1159379	keystroke_o	o	n/a
579.9145	0.135	1159829	keystroke_m	m	n/a
580.0795	0.24	1160159	keystroke_e	e	n/a
580.2445	0.135	1160489	keystroke_r	r	n/a
580.6795	0.09	1161359	keystroke_Key.backspace	Key.backspace	n/a
580.7545	0.135	1161509	keystroke_g	g	n/a
581.0245	0.135	1162049	keystroke_a	a	n/a
581.2945	0.09	1162589	keystroke_Key.enter	Key.enter	n/a
581.397	7.751	1162794	prompt	n/a	prizes heads matter complicated\n
582.0895	0.105	1164179	keystroke_p	p	n/a
582.3445	0.105	1164689	keystroke_i	i	n/a
582.7345	0.075	1165469	keystroke_Key.backspace	Key.backspace	n/a
582.7945	0.15	1165589	keystroke_r	r	n/a
583.0645	0.09	1166129	keystroke_i	i	n/a
583.3795	0.12	1166759	keystroke_x	x	n/a
583.7095	0.1045	1167419	keystroke_Key.backspace	Key.backspace	n/a
583.769	0.135	1167538	keystroke_z	z	n/a
584.039	0.12	1168078	keystroke_e	e	n/a
584.294	0.105	1168588	keystroke_s	s	n/a
584.414	0.12	1168828	keystroke_Key.space	Key.space	n/a
584.669	0.09	1169338	keystroke_h	h	n/a
584.789	0.105	1169578	keystroke_e	e	n/a
585.119	0.09	1170238	keystroke_a	a	n/a
585.329	0.105	1170658	keystroke_d	d	n/a
585.569	0.12	1171138	keystroke_s	s	n/a
585.674	0.105	1171348	keystroke_Key.space	Key.space	n/a
585.929	0.135	1171858	keystroke_m	m	n/a
586.019	0.12	1172038	keystroke_a	a	n/a
586.184	0.06	1172368	keystroke_t	t	n/a
586.349	0.105	1172698	keystroke_t	t	n/a
586.439	0.24	1172878	keystroke_e	e	n/a
586.619	0.15	1173238	keystroke_r	r	n/a
586.754	0.105	1173508	keystroke_Key.space	Key.space	n/a
586.934	0.15	1173868	keystroke_c	c	n/a
587.039	0.15	1174078	keystroke_o	o	n/a
587.204	0.135	1174408	keystroke_m	m	n/a
587.354	0.105	1174708	keystroke_p	p	n/a
587.579	0.21	1175158	keystroke_l	l	n/a
587.774	0.105	1175548	keystroke_i	i	n/a
588.104	0.0755	1176208	keystroke_c	c	n/a
588.269	0.12	1176538	keystroke_a	a	n/a
588.404	0.135	1176808	keystroke_t	t	n/a
588.554	0.12	1177108	keystroke_e	e	n/a
588.779	0.12	1177558	keystroke_d	d	n/a
589.034	0.105	1178068	keystroke_Key.enter	Key.enter	n/a
589.1525	7.1375	1178305	prompt	n/a	native philips asking sweden\n
589.8445	0.15	1179689	keystroke_n	n	n/a
589.9795	0.165	1179959	keystroke_a	a	n/a
590.1295	0.135	1180259	keystroke_t	t	n/a
590.2045	0.09	1180409	keystroke_i	i	n/a
590.4445	0.165	1180889	keystroke_v	v	n/a
590.5945	0.15	1181189	keystroke_e	e	n/a
590.7595	0.12	1181519	keystroke_Key.space	Key.space	n/a
591.4345	0.12	1182869	keystroke_p	p	n/a
591.5395	0.18	1183079	keystroke_h	h	n/a
591.7045	0.105	1183409	keystroke_i	i	n/a
591.9445	0.075	1183889	keystroke_l	l	n/a
592.2445	0.135	1184489	keystroke_l	l	n/a
592.4545	0.135	1184909	keystroke_i	i	n/a
592.7245	0.12	1185449	keystroke_p	p	n/a
593.0395	0.135	1186079	keystroke_s	s	n/a
593.2645	0.105	1186529	keystroke_Key.space	Key.space	n/a
593.5795	0.12	1187159	keystroke_a	a	n/a
593.7295	0.18	1187459	keystroke_s	s	n/a
593.8945	0.06	1187789	keystroke_k	k	n/a
594.0745	0.165	1188149	keystroke_i	i	n/a
594.2545	0.09	1188509	keystroke_n	n	n/a
594.3745	0.1195	1188749	keystroke_g	g	n/a
594.509	0.105	1189018	keystroke_Key.space	Key.space	n/a
594.749	0.105	1189498	keystroke_s	s	n/a
