onset	duration	sample	value	key	prompt_text
4.587	6.997	9174	prompt	n/a	the quick brown fox jumps over a lazy dog\n
5.6565	0.028	11313	keystroke_t	t	n/a
5.7145	0.09	11429	keystroke_h	h	n/a
5.76	0.0895	11520	keystroke_e	e	n/a
5.8645	0.0905	11729	keystroke_Key.space	Key.space	n/a
5.94	0.0885	11880	keystroke_q	q	n/a
6.0585	0.105	12117	keystroke_u	u	n/a
6.1185	0.105	12237	keystroke_i	i	n/a
6.2085	0.105	12417	keystroke_c	c	n/a
6.2985	0.089	12597	keystroke_k	k	n/a
6.3585	0.075	12717	keystroke_Key.space	Key.space	n/a
6.496	0.09	12992	keystroke_b	b	n/a
6.601	0.06	13202	keystroke_r	r	n/a
6.661	0.0895	13322	keystroke_o	o	n/a
6.736	0.075	13472	keystroke_w	w	n/a
6.811	0.075	13622	keystroke_n	n	n/a
6.8555	0.0905	13711	keystroke_Key.space	Key.space	n/a
6.931	0.075	13862	keystroke_f	f	n/a
7.021	0.09	14042	keystroke_o	o	n/a
7.126	0.1045	14252	keystroke_x	x	n/a
7.2155	0.075	14431	keystroke_Key.space	Key.space	n/a
7.3355	0.075	14671	keystroke_j	j	n/a
7.5005	0.06	15001	keystroke_u	u	n/a
7.6805	0.18	15361	keystroke_m	m	n/a
7.7705	0.135	15541	keystroke_p	p	n/a
7.8905	0.09	15781	keystroke_s	s	n/a
7.9655	0.12	15931	keystroke_Key.space	Key.space	n/a
8.0555	0.105	16111	keystroke_o	o	n/a
8.1305	0.075	16261	keystroke_v	v	n/a
8.2205	0.165	16441	keystroke_e	e	n/a
8.3555	0.045	16711	keystroke_r	r	n/a
8.5055	0.0905	17011	keystroke_a	a	n/a
8.5505	0.1055	17101	keystroke_Key.space	Key.space	n/a
8.7305	0.1055	17461	keystroke_l	l	n/a
8.821	0.105	17642	keystroke_a	a	n/a
9.301	0.075	18602	keystroke_Key.backspace	Key.backspace	n/a
9.5105	0.06	19021	keystroke_Key.backspace	Key.backspace	n/a
9.6905	0.0755	19381	keystroke_Key.backspace	Key.backspace	n/a
9.946	0.09	19892	keystroke_Key.backspace	Key.backspace	n/a
10.231	0.105	20462	keystroke_Key.space	Key.space	n/a
10.426	0.12	20852	keystroke_a	a	n/a
10.501	0.075	21002	keystroke_Key.space	Key.space	n/a
10.6515	0.1045	21303	keystroke_l	l	n/a
10.741	0.045	21482	keystroke_a	a	n/a
10.906	0.1045	21812	keystroke_z	z	n/a
10.9805	0.105	21961	keystroke_y	y	n/a
11.0255	0.09	22051	keystroke_Key.space	Key.space	n/a
11.1305	0.105	22261	keystroke_d	d	n/a
11.2205	0.105	22441	keystroke_o	o	n/a
11.3255	0.09	22651	keystroke_g	g	n/a
11.491	0.09	22982	keystroke_Key.enter	Key.enter	n/a
11.588	6.7295	23176	prompt	n/a	terrorism orleans pope encouraged\n
12.3465	0.06	24693	keystroke_t	t	n/a
12.4665	0.105	24933	keystroke_e	e	n/a
12.5415	0.075	25083	keystroke_r	r	n/a
13.261	0.075	26522	keystroke_r	r	n/a
13.351	0.105	26702	keystroke_o	o	n/a
13.516	0.075	27032	keystroke_r	r	n/a
13.606	0.075	27212	keystroke_i	i	n/a
13.711	0.105	27422	keystroke_s	s	n/a
13.801	0.105	27602	keystroke_m	m	n/a
13.846	0.09	27692	keystroke_Key.space	Key.space	n/a
14.071	0.0905	28142	keystroke_o	o	n/a
14.2515	0.06	28503	keystroke_r	r	n/a
14.626	0.075	29252	keystroke_l	l	n/a
14.716	0.075	29432	keystroke_e	e	n/a
14.746	0.09	29492	keystroke_a	a	n/a
14.851	0.075	29702	keystroke_n	n	n/a
14.911	0.105	29822	keystroke_s	s	n/a
14.986	0.09	29972	keystroke_Key.space	Key.space	n/a
15.121	0.09	30242	keystroke_p	p	n/a
15.256	0.135	30512	keystroke_o	o	n/a
15.346	0.105	30692	keystroke_p	p	n/a
15.466	0.09	30932	keystroke_e	e	n/a
16.1855	0.105	32371	keystroke_Key.space	Key.space	n/a
16.5305	0.075	33061	keystroke_c	c	n/a
16.9205	0.09	33841	keystroke_Key.backspace	Key.backspace	n/a
17.0705	0.09	34141	keystroke_e	e	n/a
17.1755	0.09	34351	keystroke_n	n	n/a
17.3855	0.105	34771	keystroke_c	c	n/a
17.5355	0.135	35071	keystroke_o	o	n/a
17.6405	0.09	35281	keystroke_u	u	n/a
17.7155	0.091	35431	keystroke_r	r	n/a
17.8065	0.089	35613	keystroke_a	a	n/a
17.9405	0.061	35881	keystroke_g	g	n/a
17.9855	0.165	35971	keystroke_e	e	n/a
18.1055	0.12	36211	keystroke_d	d	n/a
18.2405	0.075	36481	keystroke_Key.enter	Key.enter	n/a
18.321	7.0165	36642	prompt	n/a	bahrain fibre differential blogger\n
19.201	0.09	38402	keystroke_b	b	n/a
19.321	0.09	38642	keystroke_a	a	n/a
19.441	0.105	38882	keystroke_h	h	n/a
19.8605	0.105	39721	keystroke_r	r	n/a
19.9205	0.105	39841	keystroke_a	a	n/a
20.0105	0.1205	40021	keystroke_i	i	n/a
20.116	0.105	40232	keystroke_n	n	n/a
20.191	0.09	40382	keystroke_Key.space	Key.space	n/a
20.446	0.09	40892	keystroke_f	f	n/a
20.521	0.105	41042	keystroke_i	i	n/a
20.641	0.06	41282	keystroke_b	b	n/a
20.8505	0.0905	41701	keystroke_r	r	n/a
20.8955	0.1205	41791	keystroke_e	e	n/a
21.001	0.09	42002	keystroke_Key.space	Key.space	n/a
21.406	0.105	42812	keystroke_d	d	n/a
21.481	0.045	42962	keystroke_e	e	n/a
22.021	0.09	44042	keystroke_Key.backspace	Key.backspace	n/a
22.2765	0.105	44553	keystroke_i	i	n/a
23.1605	0.06	46321	keystroke_f	f	n/a
23.2955	0.06	46591	keystroke_f	f	n/a
23.4305	0.1355	46861	keystroke_e	e	n/a
23.5055	0.1055	47011	keystroke_r	r	n/a
23.806	0.075	47612	keystroke_e	e	n/a
23.911	0.1055	47822	keystroke_n	n	n/a
24.0015	0.075	48003	keystroke_t	t	n/a
24.0905	0.091	48181	keystroke_i	i	n/a
24.1955	0.1205	48391	keystroke_a	a	n/a
24.301	0.105	48602	keystroke_l	l	n/a
24.346	0.105	48692	keystroke_Key.space	Key.space	n/a
24.526	0.0905	49052	keystroke_b	b	n/a
24.6165	0.0595	49233	keystroke_l	l	n/a
24.7655	0.075	49531	keystroke_o	o	n/a
24.8255	0.045	49651	keystroke_g	g	n/a
24.946	0.0605	49892	keystroke_g	g	n/a
25.051	0.12	50102	keystroke_e	e	n/a
25.111	0.105	50222	keystroke_r	r	n/a
25.261	0.075	50522	keystroke_Key.enter	Key.enter	n/a
25.341	7.152	50682	prompt	n/a	medline institutional bizarre poems\n
25.966	0.09	51932	keystroke_m	m	n/a
26.071	0.12	52142	keystroke_e	e	n/a
26.161	0.1195	52322	keystroke_d	d	n/a
26.3105	0.105	52621	keystroke_l	l	n/a
26.4005	0.075	52801	keystroke_i	i	n/a
26.5805	0.0605	53161	keystroke_n	n	n/a
26.656	0.075	53312	keystroke_e	e	n/a
26.716	0.0895	53432	keystroke_Key.space	Key.space	n/a
26.9255	0.075	53851	keystroke_i	i	n/a
27.0455	0.105	54091	keystroke_n	n	n/a
27.3455	0.075	54691	keystroke_s	s	n/a
28.021	0.105	56042	keystroke_t	t	n/a
28.186	0.12	56372	keystroke_i	i	n/a
28.561	0.09	57122	keystroke_t	t	n/a
28.726	0.105	57452	keystroke_u	u	n/a
29.446	0.09	58892	keystroke_t	t	n/a
29.521	0.09	59042	keystroke_i	i	n/a
29.566	0.09	59132	keystroke_o	o	n/a
29.731	0.09	59462	keystroke_n	n	n/a
29.821	0.09	59642	keystroke_a	a	n/a
29.896	0.09	59792	keystroke_l	l	n/a
29.956	0.135	59912	keystroke_Key.space	Key.space	n/a
30.196	0.0605	60392	keystroke_b	b	n/a
30.3015	0.089	60603	keystroke_i	i	n/a
30.4205	0.105	60841	keystroke_z	z	n/a
30.871	0.09	61742	keystroke_a	a	n/a
31.261	0.075	62522	keystroke_r	r	n/a
31.411	0.105	62822	keystroke_r	r	n/a
31.486	0.12	62972	keystroke_e	e	n/a
31.591	0.075	63182	keystroke_Key.space	Key.space	n/a
31.8165	0.075	63633	keystroke_p	p	n/a
32.0105	0.106	64021	keystroke_o	o	n/a
32.0865	0.075	64173	keystroke_e	e	n/a
32.1765	0.09	64353	keystroke_m	m	n/a
32.2665	0.09	64533	keystroke_s	s	n/a
32.4165	0.075	64833	keystroke_Key.enter	Key.enter	n/a
32.496	5.967	64992	prompt	n/a	catholic gamespot remedies developing\n
33.271	0.09	66542	keystroke_c	c	n/a
33.301	0.09	66602	keystroke_a	a	n/a
33.511	0.09	67022	keystroke_t	t	n/a
33.586	0.09	67172	keystroke_h	h	n/a
33.736	0.09	67472	keystroke_o	o	n/a
33.946	0.045	67892	keystroke_l	l	n/a
34.036	0.105	68072	keystroke_i	i	n/a
34.126	0.105	68252	keystroke_c	c	n/a
34.216	0.12	68432	keystroke_Key.space	Key.space	n/a
34.4565	0.12	68913	keystroke_g	g	n/a
34.5315	0.09	69063	keystroke_a	a	n/a
34.6365	0.075	69273	keystroke_m	m	n/a
34.6815	0.15	69363	keystroke_e	e	n/a
35.0415	0.075	70083	keystroke_s	s	n/a
35.1615	0.09	70323	keystroke_p	p	n/a
35.2215	0.12	70443	keystroke_o	o	n/a
35.3115	0.09	70623	keystroke_t	t	n/a
35.4165	0.1195	70833	keystroke_Key.space	Key.space	n/a
35.581	0.105	71162	keystroke_r	r	n/a
35.641	0.12	71282	keystroke_e	e	n/a
35.956	0.0155	71912	keystroke_m	m	n/a
35.986	0.06	71972	keystroke_e	e	n/a
36.1815	0.0895	72363	keystroke_d	d	n/a
36.4065	0.1045	72813	keystroke_i	i	n/a
36.541	0.15	73082	keystroke_e	e	n/a
36.631	0.12	73262	keystroke_s	s	n/a
36.736	0.12	73472	keystroke_Key.space	Key.space	n/a
37.1705	0.121	74341	keystroke_d	d	n/a
37.2465	0.105	74493	keystroke_e	e	n/a
37.3965	0.105	74793	keystroke_v	v	n/a
37.4565	0.105	74913	keystroke_e	e	n/a
37.5165	0.075	75033	keystroke_l	l	n/a
37.7115	0.075	75423	keystroke_o	o	n/a
37.8915	0.09	75783	keystroke_p	p	n/a
38.0565	0.12	76113	keystroke_i	i	n/a
38.1315	0.12	76263	keystroke_n	n	n/a
38.1915	0.09	76383	keystroke_g	g	n/a
38.3565	0.105	76713	keystroke_Key.enter	Key.enter	n/a
38.466	8.6075	76932	prompt	n/a	montana alex deadline inquiries\n
39.0755	0.105	78151	keystroke_m	m	n/a
39.2555	0.09	78511	keystroke_o	o	n/a
39.3755	0.105	78751	keystroke_n	n	n/a
39.7805	0.1055	79561	keystroke_a	a	n/a
39.8705	0.1055	79741	keystroke_t	t	n/a
40.546	0.06	81092	keystroke_Key.backspace	Key.backspace	n/a
40.7265	0.09	81453	keystroke_Key.backspace	Key.backspace	n/a
40.9665	0.135	81933	keystroke_t	t	n/a
41.0565	0.09	82113	keystroke_a	a	n/a
41.5365	0.075	83073	keystroke_n	n	n/a
41.6565	0.12	83313	keystroke_a	a	n/a
41.8065	0.105	83613	keystroke_Key.space	Key.space	n/a
41.9565	0.105	83913	keystroke_a	a	n/a
42.0915	0.09	84183	keystroke_l	l	n/a
42.1815	0.105	84363	keystroke_e	e	n/a
42.3915	0.12	84783	keystroke_x	x	n/a
42.4815	0.1045	84963	keystroke_Key.space	Key.space	n/a
42.646	0.075	85292	keystroke_d	d	n/a
42.826	0.075	85652	keystroke_e	e	n/a
42.886	0.135	85772	keystroke_a	a	n/a
42.991	0.135	85982	keystroke_d	d	n/a
43.081	0.135	86162	keystroke_l	l	n/a
43.186	0.09	86372	keystroke_i	i	n/a
43.366	0.09	86732	keystroke_n	n	n/a
43.456	0.09	86912	keystroke_e	e	n/a
43.516	0.105	87032	keystroke_Key.space	Key.space	n/a
43.741	0.075	87482	keystroke_i	i	n/a
43.846	0.105	87692	keystroke_n	n	n/a
44.026	0.075	88052	keystroke_q	q	n/a
44.236	0.165	88472	keystroke_u	u	n/a
44.326	0.15	88652	keystroke_i	i	n/a
46.171	0.1045	92342	keystroke_r	r	n/a
46.2905	0.105	92581	keystroke_i	i	n/a
46.4105	0.105	92821	keystroke_e	e	n/a
46.4855	0.165	92971	keystroke_s	s	n/a
46.9355	0.135	93871	keystroke_Key.enter	Key.enter	n/a
47.0775	15.775	94155	prompt	n/a	setting syndrome identified invisible\n
47.8205	0.105	95641	keystroke_s	s	n/a
48.121	0.12	96242	keystroke_e	e	n/a
48.196	0.075	96392	keystroke_t	t	n/a
48.346	0.09	96692	keystroke_t	t	n/a
48.421	0.105	96842	keystroke_i	i	n/a
48.496	0.1205	96992	keystroke_n	n	n/a
48.586	0.0755	97172	keystroke_g	g	n/a
48.6765	0.135	97353	keystroke_Key.space	Key.space	n/a
48.8565	0.075	97713	keystroke_s	s	n/a
49.0365	0.075	98073	keystroke_y	y	n/a
49.1715	0.09	98343	keystroke_n	n	n/a
49.2765	0.105	98553	keystroke_d	d	n/a
49.456	0.105	98912	keystroke_r	r	n/a
49.531	0.135	99062	keystroke_o	o	n/a
49.606	0.12	99212	keystroke_m	m	n/a
49.681	0.105	99362	keystroke_e	e	n/a
49.741	0.105	99482	keystroke_Key.space	Key.space	n/a
49.876	0.12	99752	keystroke_i	i	n/a
49.951	0.12	99902	keystroke_n	n	n/a
50.056	0.09	100112	keystroke_d	d	n/a
50.101	0.135	100202	keystroke_e	e	n/a
50.566	0.09	101132	keystroke_n	n	n/a
51.391	0.09	102782	keystroke_t	t	n/a
51.706	0.12	103412	keystroke_i	i	n/a
51.856	0.075	103712	keystroke_f	f	n/a
51.961	0.075	103922	keystroke_i	i	n/a
52.021	0.12	104042	keystroke_e	e	n/a
52.081	0.1205	104162	keystroke_d	d	n/a
52.1855	0.075	104371	keystroke_Key.space	Key.space	n/a
52.3505	0.135	104701	keystroke_i	i	n/a
52.4255	0.135	104851	keystroke_n	n	n/a
52.5455	0.105	105091	keystroke_v	v	n/a
52.6965	0.104	105393	keystroke_i	i	n/a
53.461	0.075	106922	keystroke_Key.backspace	Key.backspace	n/a
53.686	0.075	107372	keystroke_Key.backspace	Key.backspace	n/a
53.956	0.06	107912	keystroke_Key.backspace	Key.backspace	n/a
54.211	0.075	108422	keystroke_Key.backspace	Key.backspace	n/a
54.526	0.045	109052	keystroke_Key.backspace	Key.backspace	n/a
54.811	0.075	109622	keystroke_Key.backspace	Key.backspace	n/a
55.066	0.105	110132	keystroke_Key.backspace	Key.backspace	n/a
55.381	0.075	110762	keystroke_Key.backspace	Key.backspace	n/a
55.636	0.09	111272	keystroke_Key.backspace	Key.backspace	n/a
55.891	0.09	111782	keystroke_Key.backspace	Key.backspace	n/a
56.176	0.1195	112352	keystroke_Key.backspace	Key.backspace	n/a
56.4455	0.105	112891	keystroke_Key.backspace	Key.backspace	n/a
56.7155	0.105	113431	keystroke_Key.backspace	Key.backspace	n/a
56.9705	0.09	113941	keystroke_Key.backspace	Key.backspace	n/a
57.2705	0.075	114541	keystroke_Key.backspace	Key.backspace	n/a
57.9315	0.134	115863	keystroke_d	d	n/a
58.0055	0.121	116011	keystroke_e	e	n/a
58.1115	0.119	116223	keystroke_n	n	n/a
58.4555	0.09	116911	keystroke_t	t	n/a
58.5915	0.09	117183	keystroke_i	i	n/a
58.7115	0.075	117423	keystroke_f	f	n/a
58.8015	0.09	117603	keystroke_i	i	n/a
58.8615	0.09	117723	keystroke_e	e	n/a
58.9215	0.09	117843	keystroke_d	d	n/a
59.0115	0.09	118023	keystroke_Key.space	Key.space	n/a
59.1615	0.09	118323	keystroke_v	v	n/a
59.2815	0.105	118563	keystroke_i	i	n/a
60.0615	0.09	120123	keystroke_Key.backspace	Key.backspace	n/a
60.2715	0.09	120543	keystroke_Key.backspace	Key.backspace	n/a
60.5865	0.0895	121173	keystroke_i	i	n/a
60.766	0.105	121532	keystroke_n	n	n/a
60.946	0.12	121892	keystroke_v	v	n/a
61.081	0.1205	122162	keystroke_i	i	n/a
61.561	0.045	123122	keystroke_s	s	n/a
61.651	0.2395	123302	keystroke_i	i	n/a
62.2955	0.09	124591	keystroke_b	b	n/a
62.4315	0.119	124863	keystroke_l	l	n/a
62.5355	0.105	125071	keystroke_e	e	n/a
62.7305	0.12	125461	keystroke_Key.enter	Key.enter	n/a
62.8575	3.355	125715	prompt	n/a	villages climbing pride allow\n
63.5265	0.075	127053	keystroke_v	v	n/a
63.5865	0.105	127173	keystroke_i	i	n/a
63.6615	0.075	127323	keystroke_l	l	n/a
63.7965	0.09	127593	keystroke_l	l	n/a
63.9015	0.075	127803	keystroke_a	a	n/a
64.0365	0.15	128073	keystroke_g	g	n/a
64.0815	0.15	128163	keystroke_e	e	n/a
64.1565	0.09	128313	keystroke_s	s	n/a
64.1715	0.09	128343	keystroke_Key.space	Key.space	n/a
64.3215	0.12	128643	keystroke_c	c	n/a
64.3815	0.105	128763	keystroke_l	l	n/a
64.5615	0.12	129123	keystroke_i	i	n/a
64.6365	0.135	129273	keystroke_m	m	n/a
64.7415	0.09	129483	keystroke_b	b	n/a
64.8015	0.105	129603	keystroke_i	i	n/a
64.8765	0.12	129753	keystroke_n	n	n/a
64.9365	0.105	129873	keystroke_g	g	n/a
65.0265	0.09	130053	keystroke_Key.space	Key.space	n/a
65.1315	0.075	130263	keystroke_p	p	n/a
65.1915	0.105	130383	keystroke_r	r	n/a
65.3265	0.105	130653	keystroke_i	i	n/a
65.3865	0.12	130773	keystroke_d	d	n/a
65.4315	0.105	130863	keystroke_e	e	n/a
65.4915	0.105	130983	keystroke_Key.space	Key.space	n/a
65.6115	0.09	131223	keystroke_a	a	n/a
65.6865	0.06	131373	keystroke_l	l	n/a
65.8065	0.075	131613	keystroke_l	l	n/a
65.9565	0.089	131913	keystroke_o	o	n/a
66.0305	0.09	132061	keystroke_w	w	n/a
66.1355	0.075	132271	keystroke_Key.enter	Key.enter	n/a
66.216	5.3965	132432	prompt	n/a	instructional properties mutual city\n
66.856	0.105	133712	keystroke_i	i	n/a
67.006	0.105	134012	keystroke_n	n	n/a
67.126	0.06	134252	keystroke_s	s	n/a
67.141	0.105	134282	keystroke_t	t	n/a
67.216	0.105	134432	keystroke_r	r	n/a
67.306	0.105	134612	keystroke_u	u	n/a
67.441	0.075	134882	keystroke_c	c	n/a
67.636	0.09	135272	keystroke_t	t	n/a
67.666	0.09	135332	keystroke_i	i	n/a
67.726	0.06	135452	keystroke_o	o	n/a
67.846	0.09	135692	keystroke_n	n	n/a
67.921	0.09	135842	keystroke_a	a	n/a
67.996	0.075	135992	keystroke_l	l	n/a
68.041	0.1045	136082	keystroke_Key.space	Key.space	n/a
68.2055	0.0905	136411	keystroke_p	p	n/a
68.626	0.1055	137252	keystroke_r	r	n/a
68.7765	0.12	137553	keystroke_o	o	n/a
68.8365	0.12	137673	keystroke_p	p	n/a
69.0315	0.15	138063	keystroke_e	e	n/a
69.1205	0.12	138241	keystroke_r	r	n/a
69.3455	0.091	138691	keystroke_t	t	n/a
69.4215	0.12	138843	keystroke_i	i	n/a
69.4965	0.12	138993	keystroke_e	e	n/a
69.5265	0.12	139053	keystroke_s	s	n/a
69.5855	0.106	139171	keystroke_Key.space	Key.space	n/a
69.8415	0.1195	139683	keystroke_m	m	n/a
70.066	0.105	140132	keystroke_u	u	n/a
70.516	0.075	141032	keystroke_t	t	n/a
70.6205	0.09	141241	keystroke_u	u	n/a
70.7265	0.105	141453	keystroke_a	a	n/a
70.8455	0.12	141691	keystroke_l	l	n/a
70.9355	0.09	141871	keystroke_Key.space	Key.space	n/a
71.0405	0.075	142081	keystroke_c	c	n/a
71.1305	0.09	142261	keystroke_i	i	n/a
71.2655	0.06	142531	keystroke_t	t	n/a
71.4305	0.076	142861	keystroke_y	y	n/a
71.5215	0.09	143043	keystroke_Key.enter	Key.enter	n/a
71.616	5.2765	143232	prompt	n/a	suits duty wanting highways\n
72.181	0.075	144362	keystroke_s	s	n/a
72.451	0.105	144902	keystroke_u	u	n/a
72.481	0.105	144962	keystroke_i	i	n/a
72.541	0.1045	145082	keystroke_t	t	n/a
72.6005	0.106	145201	keystroke_s	s	n/a
72.6605	0.105	145321	keystroke_Key.space	Key.space	n/a
72.8255	0.105	145651	keystroke_d	d	n/a
72.9155	0.105	145831	keystroke_u	u	n/a
73.0505	0.075	146101	keystroke_t	t	n/a
73.2005	0.075	146401	keystroke_y	y	n/a
73.2455	0.105	146491	keystroke_Key.space	Key.space	n/a
73.3655	0.12	146731	keystroke_w	w	n/a
73.4105	0.105	146821	keystroke_a	a	n/a
73.5165	0.104	147033	keystroke_n	n	n/a
73.5905	0.09	147181	keystroke_t	t	n/a
73.6505	0.09	147301	keystroke_s	s	n/a
73.7105	0.09	147421	keystroke_i	i	n/a
73.7555	0.12	147511	keystroke_n	n	n/a
74.6555	0.06	149311	keystroke_Key.backspace	Key.backspace	n/a
74.8655	0.06	149731	keystroke_Key.backspace	Key.backspace	n/a
75.1205	0.075	150241	keystroke_Key.backspace	Key.backspace	n/a
75.3915	0.09	150783	keystroke_i	i	n/a
75.4515	0.12	150903	keystroke_n	n	n/a
75.5115	0.09	151023	keystroke_g	g	n/a
75.6155	0.106	151231	keystroke_Key.space	Key.space	n/a
75.9165	0.09	151833	keystroke_h	h	n/a
75.9615	0.075	151923	keystroke_i	i	n/a
76.0515	0.09	152103	keystroke_g	g	n/a
76.1265	0.075	152253	keystroke_h	h	n/a
76.2165	0.09	152433	keystroke_w	w	n/a
76.2615	0.09	152523	keystroke_a	a	n/a
76.3665	0.075	152733	keystroke_y	y	n/a
76.4565	0.06	152913	keystroke_s	s	n/a
76.8015	0.089	153603	keystroke_Key.enter	Key.enter	n/a
76.8955	10.032	153791	prompt	n/a	style cloudy porter heaven\n
77.6265	0.105	155253	keystroke_s	s	n/a
77.7915	0.0895	155583	keystroke_t	t	n/a
77.956	0.0905	155912	keystroke_y	y	n/a
78.031	0.09	156062	keystroke_l	l	n/a
78.106	0.075	156212	keystroke_e	e	n/a
78.196	0.105	156392	keystroke_Key.space	Key.space	n/a
78.316	0.075	156632	keystroke_c	c	n/a
78.436	0.09	156872	keystroke_l	l	n/a
78.631	0.105	157262	keystroke_o	o	n/a
78.706	0.09	157412	keystroke_u	u	n/a
78.751	0.09	157502	keystroke_d	d	n/a
78.871	0.0745	157742	keystroke_l	l	n/a
78.9605	0.075	157921	keystroke_y	y	n/a
79.0055	0.09	158011	keystroke_Key.space	Key.space	n/a
79.1105	0.09	158221	keystroke_p	p	n/a
79.1705	0.135	158341	keystroke_o	o	n/a
79.2155	0.075	158431	keystroke_r	r	n/a
79.3655	0.061	158731	keystroke_t	t	n/a
79.4405	0.12	158881	keystroke_e	e	n/a
79.5165	0.089	159033	keystroke_r	r	n/a
79.5755	0.06	159151	keystroke_Key.space	Key.space	n/a
79.7255	0.105	159451	keystroke_h	h	n/a
79.7705	0.105	159541	keystroke_e	e	n/a
79.8455	0.09	159691	keystroke_a	a	n/a
79.9955	0.106	159991	keystroke_v	v	n/a
80.0405	0.15	160081	keystroke_e	e	n/a
80.1155	0.09	160231	keystroke_n	n	n/a
81.4055	0.075	162811	keystroke_Key.backspace	Key.backspace	n/a
81.6755	0.075	163351	keystroke_Key.backspace	Key.backspace	n/a
81.9605	0.075	163921	keystroke_Key.backspace	Key.backspace	n/a
82.2155	0.075	164431	keystroke_Key.backspace	Key.backspace	n/a
82.4555	0.06	164911	keystroke_Key.backspace	Key.backspace	n/a
82.6955	0.075	165391	keystroke_Key.backspace	Key.backspace	n/a
82.9655	0.06	165931	keystroke_Key.backspace	Key.backspace	n/a
83.2205	0.045	166441	keystroke_Key.backspace	Key.backspace	n/a
83.4605	0.0755	166921	keystroke_Key.backspace	Key.backspace	n/a
83.7305	0.0755	167461	keystroke_Key.backspace	Key.backspace	n/a
83.971	0.09	167942	keystroke_Key.backspace	Key.backspace	n/a
84.241	0.075	168482	keystroke_Key.backspace	Key.backspace	n/a
84.481	0.06	168962	keystroke_Key.backspace	Key.backspace	n/a
84.706	0.075	169412	keystroke_Key.backspace	Key.backspace	n/a
84.946	0.09	169892	keystroke_Key.backspace	Key.backspace	n/a
85.246	0.075	170492	keystroke_Key.backspace	Key.backspace	n/a
85.441	0.09	170882	keystroke_y	y	n/a
85.531	0.105	171062	keystroke_Key.space	Key.space	n/a
85.666	0.12	171332	keystroke_p	p	n/a
85.741	0.135	171482	keystroke_o	o	n/a
85.801	0.075	171602	keystroke_r	r	n/a
85.951	0.06	171902	keystroke_t	t	n/a
85.996	0.15	171992	keystroke_e	e	n/a
86.086	0.12	172172	keystroke_r	r	n/a
86.161	0.075	172322	keystroke_Key.space	Key.space	n/a
86.311	0.09	172622	keystroke_h	h	n/a
86.341	0.12	172682	keystroke_e	e	n/a
86.416	0.075	172832	keystroke_a	a	n/a
86.536	0.135	173072	keystroke_v	v	n/a
86.581	0.135	173162	keystroke_e	e	n/a
86.656	0.075	173312	keystroke_n	n	n/a
86.836	0.09	173672	keystroke_Key.enter	Key.enter	n/a
86.9305	3.0275	173861	prompt	n/a	unwrap crude posts finite\n
87.5705	0.0455	175141	keystroke_u	u	n/a
87.691	0.105	175382	keystroke_n	n	n/a
87.751	0.12	175502	keystroke_w	w	n/a
87.856	0.12	175712	keystroke_r	r	n/a
87.916	0.1195	175832	keystroke_a	a	n/a
87.961	0.105	175922	keystroke_p	p	n/a
88.0505	0.1205	176101	keystroke_Key.space	Key.space	n/a
88.2755	0.06	176551	keystroke_c	c	n/a
88.441	0.0745	176882	keystroke_r	r	n/a
88.5455	0.0905	177091	keystroke_u	u	n/a
88.651	0.09	177302	keystroke_d	d	n/a
88.666	0.15	177332	keystroke_e	e	n/a
88.726	0.105	177452	keystroke_Key.space	Key.space	n/a
88.861	0.1045	177722	keystroke_p	p	n/a
88.921	0.1195	177842	keystroke_o	o	n/a
88.9805	0.09	177961	keystroke_s	s	n/a
89.0555	0.12	178111	keystroke_t	t	n/a
89.1455	0.09	178291	keystroke_s	s	n/a
89.1905	0.105	178381	keystroke_Key.space	Key.space	n/a
89.3255	0.12	178651	keystroke_f	f	n/a
89.4005	0.09	178801	keystroke_i	i	n/a
89.5205	0.12	179041	keystroke_n	n	n/a
89.6105	0.105	179221	keystroke_i	i	n/a
89.6705	0.105	179341	keystroke_t	t	n/a
89.7305	0.12	179461	keystroke_e	e	n/a
89.8955	0.06	179791	keystroke_Key.enter	Key.enter	n/a
89.9625	6.595	179925	prompt	n/a	confident everyone's recent surface\n
90.646	0.045	181292	keystroke_c	c	n/a
90.692	0.074	181384	keystroke_o	o	n/a
90.826	0.12	181652	keystroke_n	n	n/a
90.931	0.075	181862	keystroke_f	f	n/a
91.051	0.12	182102	keystroke_i	i	n/a
91.186	0.045	182372	keystroke_d	d	n/a
91.201	0.1195	182402	keystroke_e	e	n/a
91.3055	0.12	182611	keystroke_n	n	n/a
91.4405	0.06	182881	keystroke_t	t	n/a
91.5155	0.105	183031	keystroke_Key.space	Key.space	n/a
91.6355	0.0905	183271	keystroke_e	e	n/a
91.741	0.075	183482	keystroke_v	v	n/a
91.8915	0.0895	183783	keystroke_e	e	n/a
91.9365	0.0595	183873	keystroke_r	r	n/a
92.086	0.075	184172	keystroke_y	y	n/a
92.116	0.105	184232	keystroke_o	o	n/a
92.266	0.09	184532	keystroke_n	n	n/a
92.656	0.09	185312	keystroke_e	e	n/a
92.851	0.075	185702	keystroke_'	'	n/a
93.016	0.075	186032	keystroke_s	s	n/a
93.151	0.1055	186302	keystroke_Key.space	Key.space	n/a
93.3315	0.075	186663	keystroke_s	s	n/a
93.646	0.1045	187292	keystroke_Key.backspace	Key.backspace	n/a
93.7365	0.074	187473	keystroke_r	r	n/a
93.7955	0.09	187591	keystroke_e	e	n/a
93.9455	0.075	187891	keystroke_c	c	n/a
93.9755	0.12	187951	keystroke_e	e	n/a
94.0805	0.09	188161	keystroke_n	n	n/a
94.1855	0.105	188371	keystroke_t	t	n/a
94.2755	0.12	188551	keystroke_Key.space	Key.space	n/a
94.5155	0.09	189031	keystroke_r	r	n/a
94.936	0.09	189872	keystroke_Key.backspace	Key.backspace	n/a
95.041	0.06	190082	keystroke_s	s	n/a
95.131	0.09	190262	keystroke_u	u	n/a
95.206	0.075	190412	keystroke_r	r	n/a
95.401	0.105	190802	keystroke_f	f	n/a
95.476	0.105	190952	keystroke_a	a	n/a
95.626	0.15	191252	keystroke_c	c	n/a
95.716	0.12	191432	keystroke_e	e	n/a
96.436	0.12	192872	keystroke_Key.enter	Key.enter	n/a
96.5605	3.687	193121	prompt	n/a	diet cancelled jessica ntsc\n
97.126	0.105	194252	keystroke_d	d	n/a
97.216	0.105	194432	keystroke_i	i	n/a
97.336	0.135	194672	keystroke_e	e	n/a
97.396	0.105	194792	keystroke_t	t	n/a
97.441	0.12	194882	keystroke_Key.space	Key.space	n/a
97.6655	0.1055	195331	keystroke_c	c	n/a
97.696	0.105	195392	keystroke_a	a	n/a
97.786	0.105	195572	keystroke_n	n	n/a
97.906	0.09	195812	keystroke_c	c	n/a
97.981	0.15	195962	keystroke_e	e	n/a
98.161	0.045	196322	keystroke_l	l	n/a
98.281	0.105	196562	keystroke_l	l	n/a
98.356	0.105	196712	keystroke_e	e	n/a
98.401	0.105	196802	keystroke_d	d	n/a
98.491	0.09	196982	keystroke_Key.space	Key.space	n/a
98.7305	0.105	197461	keystroke_j	j	n/a
98.7755	0.09	197551	keystroke_e	e	n/a
98.8505	0.045	197701	keystroke_s	s	n/a
98.9715	0.09	197943	keystroke_s	s	n/a
99.0465	0.105	198093	keystroke_i	i	n/a
99.1215	0.105	198243	keystroke_c	c	n/a
99.1965	0.06	198393	keystroke_a	a	n/a
99.2415	0.06	198483	keystroke_Key.space	Key.space	n/a
99.3465	0.135	198693	keystroke_n	n	n/a
99.4665	0.12	198933	keystroke_t	t	n/a
99.6465	0.15	199293	keystroke_s	s	n/a
99.7515	0.1345	199503	keystroke_c	c	n/a
100.156	0.09	200312	keystroke_Key.enter	Key.enter	n/a
100.2505	9.312	200501	prompt	n/a	threat substance enough warning\n
101.041	0.075	202082	keystroke_t	t	n/a
101.146	0.075	202292	keystroke_h	h	n/a
101.236	0.06	202472	keystroke_e	e	n/a
101.776	0.06	203552	keystroke_Key.backspace	Key.backspace	n/a
101.821	0.075	203642	keystroke_r	r	n/a
101.956	0.105	203912	keystroke_e	e	n/a
102.001	0.12	204002	keystroke_a	a	n/a
102.136	0.105	204272	keystroke_t	t	n/a
102.211	0.105	204422	keystroke_Key.space	Key.space	n/a
102.331	0.09	204662	keystroke_s	s	n/a
102.406	0.105	204812	keystroke_u	u	n/a
102.6305	0.09	205261	keystroke_s	s	n/a
102.9755	0.09	205951	keystroke_Key.backspace	Key.backspace	n/a
103.0355	0.09	206071	keystroke_b	b	n/a
103.2615	0.089	206523	keystroke_s	s	n/a
103.3205	0.105	206641	keystroke_t	t	n/a
103.4405	0.105	206881	keystroke_a	a	n/a
103.5305	0.105	207061	keystroke_n	n	n/a
103.6205	0.12	207241	keystroke_c	c	n/a
103.6955	0.12	207391	keystroke_e	e	n/a
103.7555	0.105	207511	keystroke_Key.space	Key.space	n/a
103.996	0.12	207992	keystroke_e	e	n/a
104.086	0.075	208172	keystroke_n	n	n/a
104.251	0.105	208502	keystroke_o	o	n/a
104.311	0.09	208622	keystroke_u	u	n/a
104.386	0.09	208772	keystroke_g	g	n/a
104.491	0.075	208982	keystroke_b	b	n/a
104.536	0.12	209072	keystroke_Key.space	Key.space	n/a
104.671	0.165	209342	keystroke_w	w	n/a
104.746	0.12	209492	keystroke_a	a	n/a
104.821	0.12	209642	keystroke_r	r	n/a
105.301	0.075	210602	keystroke_Key.backspace	Key.backspace	n/a
105.541	0.06	211082	keystroke_Key.backspace	Key.backspace	n/a
105.751	0.075	211502	keystroke_Key.backspace	Key.backspace	n/a
106.081	0.075	212162	keystroke_Key.backspace	Key.backspace	n/a
106.261	0.075	212522	keystroke_h	h	n/a
106.366	0.105	212732	keystroke_Key.space	Key.space	n/a
106.876	0.0755	213752	keystroke_Key.backspace	Key.backspace	n/a
107.1615	0.06	214323	keystroke_Key.backspace	Key.backspace	n/a
107.4615	0.0745	214923	keystroke_Key.backspace	Key.backspace	n/a
107.581	0.105	215162	keystroke_h	h	n/a
107.806	0.105	215612	keystroke_Key.space	Key.space	n/a
107.926	0.1505	215852	keystroke_w	w	n/a
108.001	0.1205	216002	keystroke_a	a	n/a
108.0615	0.1345	216123	keystroke_r	r	n/a
108.286	0.1505	216572	keystroke_n	n	n/a
108.421	0.135	216842	keystroke_i	i	n/a
108.5415	0.12	217083	keystroke_n	n	n/a
108.601	0.0905	217202	keystroke_g	g	n/a
108.6465	0.12	217293	keystroke_s	s	n/a
109.2005	0.045	218401	keystroke_Key.backspace	Key.backspace	n/a
109.4405	0.12	218881	keystroke_Key.enter	Key.enter	n/a
109.5655	5.892	219131	prompt	n/a	forty allowed waterproof publications\n
110.3715	0.089	220743	keystroke_f	f	n/a
110.4455	0.105	220891	keystroke_o	o	n/a
110.5805	0.0905	221161	keystroke_r	r	n/a
110.7765	0.09	221553	keystroke_t	t	n/a
110.8515	0.09	221703	keystroke_Key.space	Key.space	n/a
111.4065	0.075	222813	keystroke_Key.backspace	Key.backspace	n/a
111.5115	0.105	223023	keystroke_y	y	n/a
111.6015	0.089	223203	keystroke_Key.space	Key.space	n/a
111.7515	0.09	223503	keystroke_a	a	n/a
111.8565	0.06	223713	keystroke_l	l	n/a
112.0065	0.045	224013	keystroke_l	l	n/a
112.1255	0.091	224251	keystroke_o	o	n/a
112.1865	0.09	224373	keystroke_w	w	n/a
112.2315	0.059	224463	keystroke_e	e	n/a
112.3815	0.105	224763	keystroke_d	d	n/a
112.4555	0.106	224911	keystroke_Key.space	Key.space	n/a
112.5905	0.075	225181	keystroke_w	w	n/a
112.6355	0.105	225271	keystroke_a	a	n/a
112.6955	0.09	225391	keystroke_t	t	n/a
112.8015	0.134	225603	keystroke_e	e	n/a
112.8755	0.105	225751	keystroke_r	r	n/a
113.1005	0.075	226201	keystroke_p	p	n/a
113.3855	0.091	226771	keystroke_r	r	n/a
113.551	0.06	227102	keystroke_o	o	n/a
113.686	0.09	227372	keystroke_o	o	n/a
113.731	0.105	227462	keystroke_f	f	n/a
113.836	0.0895	227672	keystroke_Key.space	Key.space	n/a
114.061	0.09	228122	keystroke_p	p	n/a
114.211	0.105	228422	keystroke_u	u	n/a
114.301	0.075	228602	keystroke_b	b	n/a
114.391	0.105	228782	keystroke_l	l	n/a
114.466	0.135	228932	keystroke_i	i	n/a
114.541	0.1045	229082	keystroke_c	c	n/a
114.571	0.1055	229142	keystroke_a	a	n/a
114.7515	0.105	229503	keystroke_t	t	n/a
114.8255	0.106	229651	keystroke_i	i	n/a
114.871	0.0755	229742	keystroke_o	o	n/a
115.0365	0.0895	230073	keystroke_n	n	n/a
115.1115	0.09	230223	keystroke_s	s	n/a
115.3665	0.09	230733	keystroke_Key.enter	Key.enter	n/a
115.4605	4.002	230921	prompt	n/a	athletes table ideal nancy\n
116.131	0.0755	232262	keystroke_a	a	n/a
116.266	0.09	232532	keystroke_t	t	n/a
116.371	0.09	232742	keystroke_h	h	n/a
116.776	0.09	233552	keystroke_l	l	n/a
116.896	0.105	233792	keystroke_e	e	n/a
116.986	0.1805	233972	keystroke_t	t	n/a
117.0915	0.149	234183	keystroke_e	e	n/a
117.1515	0.119	234303	keystroke_s	s	n/a
117.2555	0.106	234511	keystroke_Key.space	Key.space	n/a
117.4665	0.105	234933	keystroke_t	t	n/a
117.5405	0.0755	235081	keystroke_a	a	n/a
117.676	0.105	235352	keystroke_b	b	n/a
117.781	0.075	235562	keystroke_l	l	n/a
117.841	0.12	235682	keystroke_e	e	n/a
117.946	0.075	235892	keystroke_Key.space	Key.space	n/a
118.081	0.12	236162	keystroke_i	i	n/a
118.141	0.075	236282	keystroke_d	d	n/a
118.306	0.09	236612	keystroke_e	e	n/a
118.336	0.135	236672	keystroke_a	a	n/a
118.396	0.075	236792	keystroke_l	l	n/a
118.426	0.12	236852	keystroke_Key.space	Key.space	n/a
118.636	0.09	237272	keystroke_n	n	n/a
118.711	0.105	237422	keystroke_a	a	n/a
118.846	0.105	237692	keystroke_n	n	n/a
118.921	0.12	237842	keystroke_c	c	n/a
119.086	0.06	238172	keystroke_y	y	n/a
119.371	0.09	238742	keystroke_Key.enter	Key.enter	n/a
119.4655	4.227	238931	prompt	n/a	grass inns guidelines headed\n
120.136	0.0755	240272	keystroke_g	g	n/a
120.361	0.03	240722	keystroke_r	r	n/a
120.376	0.12	240752	keystroke_a	a	n/a
120.481	0.03	240962	keystroke_s	s	n/a
120.6755	0.015	241351	keystroke_s	s	n/a
121.1705	0.075	242341	keystroke_Key.space	Key.space	n/a
121.3205	0.105	242641	keystroke_i	i	n/a
121.5755	0.045	243151	keystroke_n	n	n/a
121.7105	0.075	243421	keystroke_n	n	n/a
121.7705	0.0905	243541	keystroke_s	s	n/a
121.876	0.105	243752	keystroke_Key.space	Key.space	n/a
122.146	0.075	244292	keystroke_g	g	n/a
122.236	0.09	244472	keystroke_u	u	n/a
122.266	0.105	244532	keystroke_i	i	n/a
122.371	0.105	244742	keystroke_d	d	n/a
122.401	0.135	244802	keystroke_e	e	n/a
122.491	0.12	244982	keystroke_l	l	n/a
122.581	0.075	245162	keystroke_i	i	n/a
122.746	0.075	245492	keystroke_n	n	n/a
122.761	0.135	245522	keystroke_e	e	n/a
122.806	0.135	245612	keystroke_s	s	n/a
122.881	0.105	245762	keystroke_Key.space	Key.space	n/a
123.001	0.09	246002	keystroke_h	h	n/a
123.061	0.105	246122	keystroke_e	e	n/a
123.136	0.105	246272	keystroke_a	a	n/a
123.256	0.09	246512	keystroke_d	d	n/a
123.361	0.135	246722	keystroke_e	e	n/a
123.466	0.105	246932	keystroke_d	d	n/a
123.586	0.105	247172	keystroke_Key.enter	Key.enter	n/a
123.6955	5.2015	247391	prompt	n/a	inherited resolve both renewal\n
124.336	0.0745	248672	keystroke_i	i	n/a
124.4555	0.1055	248911	keystroke_n	n	n/a
124.7405	0.0905	249481	keystroke_h	h	n/a
124.8615	0.0895	249723	keystroke_e	e	n/a
124.9065	0.1045	249813	keystroke_r	r	n/a
125.041	0.105	250082	keystroke_i	i	n/a
125.1765	0.1045	250353	keystroke_t	t	n/a
125.251	0.18	250502	keystroke_e	e	n/a
125.4015	0.1195	250803	keystroke_d	d	n/a
125.551	0.105	251102	keystroke_Key.space	Key.space	n/a
125.866	0.12	251732	keystroke_r	r	n/a
125.926	0.165	251852	keystroke_e	e	n/a
126.016	0.135	252032	keystroke_s	s	n/a
126.152	0.059	252304	keystroke_o	o	n/a
126.316	0.105	252632	keystroke_l	l	n/a
126.391	0.105	252782	keystroke_v	v	n/a
126.436	0.135	252872	keystroke_e	e	n/a
126.526	0.075	253052	keystroke_Key.space	Key.space	n/a
126.661	0.12	253322	keystroke_b	b	n/a
126.916	0.09	253832	keystroke_o	o	n/a
127.021	0.1045	254042	keystroke_t	t	n/a
127.111	0.0905	254222	keystroke_h	h	n/a
127.1565	0.135	254313	keystroke_Key.space	Key.space	n/a
127.4705	0.136	254941	keystroke_r	r	n/a
127.5155	0.151	255031	keystroke_e	e	n/a
127.6805	0.091	255361	keystroke_n	n	n/a
128.2665	0.12	256533	keystroke_e	e	n/a
128.3715	0.135	256743	keystroke_w	w	n/a
128.4465	0.149	256893	keystroke_a	a	n/a
128.5515	0.0745	257103	keystroke_l	l	n/a
128.8205	0.075	257641	keystroke_Key.enter	Key.enter	n/a
128.903	7.329	257806	prompt	n/a	recognition starter subsection nightmare\n
129.646	0.09	259292	keystroke_r	r	n/a
129.721	0.075	259442	keystroke_e	e	n/a
129.9005	0.075	259801	keystroke_c	c	n/a
129.9905	0.075	259981	keystroke_o	o	n/a
130.1105	0.09	260221	keystroke_g	g	n/a
130.2155	0.105	260431	keystroke_n	n	n/a
130.2755	0.09	260551	keystroke_i	i	n/a
130.3665	0.104	260733	keystroke_t	t	n/a
130.4855	0.06	260971	keystroke_i	i	n/a
130.5155	0.075	261031	keystroke_o	o	n/a
130.6505	0.06	261301	keystroke_n	n	n/a
130.6955	0.105	261391	keystroke_Key.space	Key.space	n/a
130.7705	0.075	261541	keystroke_s	s	n/a
130.8305	0.06	261661	keystroke_t	t	n/a
130.921	0.105	261842	keystroke_a	a	n/a
130.981	0.075	261962	keystroke_r	r	n/a
131.1155	0.0905	262231	keystroke_t	t	n/a
131.176	0.1495	262352	keystroke_e	e	n/a
131.296	0.09	262592	keystroke_r	r	n/a
131.371	0.09	262742	keystroke_Key.space	Key.space	n/a
131.566	0.0745	263132	keystroke_s	s	n/a
131.6555	0.075	263311	keystroke_u	u	n/a
131.7315	0.074	263463	keystroke_b	b	n/a
131.8805	0.3	263761	keystroke_e	e	n/a
131.9555	0.135	263911	keystroke_s	s	n/a
132.1355	0.075	264271	keystroke_c	c	n/a
133.126	0.0895	266252	keystroke_Key.backspace	Key.backspace	n/a
133.3955	0.09	266791	keystroke_Key.backspace	Key.backspace	n/a
133.6655	0.075	267331	keystroke_Key.backspace	Key.backspace	n/a
133.8155	0.12	267631	keystroke_s	s	n/a
133.8605	0.15	267721	keystroke_e	e	n/a
133.9205	0.1205	267841	keystroke_c	c	n/a
134.1605	0.09	268321	keystroke_t	t	n/a
134.2205	0.09	268441	keystroke_i	i	n/a
134.2805	0.06	268561	keystroke_o	o	n/a
134.4155	0.075	268831	keystroke_n	n	n/a
134.4755	0.075	268951	keystroke_Key.space	Key.space	n/a
134.5655	0.12	269131	keystroke_n	n	n/a
134.6255	0.105	269251	keystroke_i	i	n/a
134.7155	0.09	269431	keystroke_g	g	n/a
134.8205	0.09	269641	keystroke_h	h	n/a
134.9255	0.075	269851	keystroke_t	t	n/a
135.0755	0.076	270151	keystroke_m	m	n/a
135.1205	0.121	270241	keystroke_a	a	n/a
135.1665	0.134	270333	keystroke_r	r	n/a
135.2565	0.119	270513	keystroke_e	e	n/a
136.1105	0.12	272221	keystroke_Key.enter	Key.enter	n/a
136.236	4.6165	272472	prompt	n/a	separated radiation vocals nvidia\n
136.8005	0.105	273601	keystroke_s	s	n/a
136.8905	0.12	273781	keystroke_e	e	n/a
137.3105	0.105	274621	keystroke_p	p	n/a
137.4305	0.075	274861	keystroke_a	a	n/a
137.4905	0.12	274981	keystroke_r	r	n/a
137.5815	0.09	275163	keystroke_a	a	n/a
137.7005	0.076	275401	keystroke_t	t	n/a
137.7605	0.165	275521	keystroke_e	e	n/a
137.8805	0.105	275761	keystroke_d	d	n/a
137.9705	0.135	275941	keystroke_Key.space	Key.space	n/a
138.1505	0.135	276301	keystroke_r	r	n/a
138.3605	0.135	276721	keystroke_a	a	n/a
138.4805	0.09	276961	keystroke_d	d	n/a
138.6005	0.09	277201	keystroke_i	i	n/a
138.6915	0.089	277383	keystroke_a	a	n/a
138.7505	0.105	277501	keystroke_t	t	n/a
138.8405	0.09	277681	keystroke_i	i	n/a
138.9005	0.06	277801	keystroke_o	o	n/a
139.0355	0.09	278071	keystroke_n	n	n/a
139.0805	0.105	278161	keystroke_Key.space	Key.space	n/a
139.2155	0.075	278431	keystroke_v	v	n/a
139.2755	0.09	278551	keystroke_o	o	n/a
139.3805	0.105	278761	keystroke_c	c	n/a
139.4105	0.105	278821	keystroke_a	a	n/a
139.5005	0.09	279001	keystroke_l	l	n/a
139.6055	0.075	279211	keystroke_s	s	n/a
139.6955	0.06	279391	keystroke_Key.space	Key.space	n/a
139.8305	0.105	279661	keystroke_n	n	n/a
140.1155	0.0605	280231	keystroke_v	v	n/a
140.251	0.075	280502	keystroke_i	i	n/a
140.341	0.075	280682	keystroke_d	d	n/a
140.431	0.09	280862	keystroke_i	i	n/a
140.506	0.09	281012	keystroke_a	a	n/a
140.746	0.105	281492	keystroke_Key.enter	Key.enter	n/a
140.8565	7.0605	281713	prompt	n/a	networks temple sphere premises\n
141.6605	0.09	283321	keystroke_n	n	n/a
141.7355	0.105	283471	keystroke_e	e	n/a
141.7805	0.09	283561	keystroke_t	t	n/a
142.0355	0.03	284071	keystroke_w	w	n/a
142.0505	0.09	284101	keystroke_o	o	n/a
142.1415	0.089	284283	keystroke_r	r	n/a
142.2455	0.12	284491	keystroke_k	k	n/a
142.3205	0.105	284641	keystroke_s	s	n/a
142.4405	0.09	284881	keystroke_Key.space	Key.space	n/a
142.5755	0.09	285151	keystroke_t	t	n/a
142.6355	0.105	285271	keystroke_e	e	n/a
142.6805	0.075	285361	keystroke_m	m	n/a
142.8455	0.105	285691	keystroke_p	p	n/a
142.9055	0.12	285811	keystroke_l	l	n/a
142.9805	0.121	285961	keystroke_e	e	n/a
143.0705	0.105	286141	keystroke_Key.space	Key.space	n/a
143.1905	0.12	286381	keystroke_s	s	n/a
143.2655	0.09	286531	keystroke_p	p	n/a
143.4305	0.0755	286861	keystroke_h	h	n/a
143.4605	0.0905	286921	keystroke_e	e	n/a
143.521	0.135	287042	keystroke_r	r	n/a
143.611	0.12	287222	keystroke_e	e	n/a
143.701	0.09	287402	keystroke_Key.space	Key.space	n/a
143.821	0.105	287642	keystroke_p	p	n/a
143.881	0.105	287762	keystroke_r	r	n/a
143.926	0.12	287852	keystroke_e	e	n/a
143.971	0.12	287942	keystroke_s	s	n/a
144.061	0.12	288122	keystroke_m	m	n/a
144.106	0.12	288212	keystroke_i	i	n/a
144.196	0.09	288392	keystroke_s	s	n/a
144.301	0.12	288602	keystroke_e	e	n/a
144.361	0.09	288722	keystroke_s	s	n/a
145.3955	0.075	290791	keystroke_Key.backspace	Key.backspace	n/a
145.6355	0.075	291271	keystroke_Key.backspace	Key.backspace	n/a
145.9055	0.09	291811	keystroke_Key.backspace	Key.backspace	n/a
146.1605	0.075	292321	keystroke_Key.backspace	Key.backspace	n/a
146.3855	0.075	292771	keystroke_Key.backspace	Key.backspace	n/a
146.6255	0.075	293251	keystroke_Key.backspace	Key.backspace	n/a
147.166	0.135	294332	keystroke_m	m	n/a
147.271	0.12	294542	keystroke_i	i	n/a
147.361	0.075	294722	keystroke_s	s	n/a
147.466	0.1345	294932	keystroke_e	e	n/a
147.556	0.105	295112	keystroke_s	s	n/a
147.8405	0.075	295681	keystroke_Key.enter	Key.enter	n/a
147.9205	11.472	295841	prompt	n/a	scholarship specialized touched shepherd\n
148.501	0.105	297002	keystroke_s	s	n/a
148.591	0.105	297182	keystroke_h	h	n/a
148.921	0.045	297842	keystroke_o	o	n/a
149.086	0.09	298172	keystroke_l	l	n/a
149.986	0.09	299972	keystroke_Key.backspace	Key.backspace	n/a
150.196	0.075	300392	keystroke_Key.backspace	Key.backspace	n/a
150.406	0.075	300812	keystroke_Key.backspace	Key.backspace	n/a
151.036	0.075	302072	keystroke_c	c	n/a
151.111	0.075	302222	keystroke_h	h	n/a
151.2305	0.0905	302461	keystroke_o	o	n/a
151.381	0.105	302762	keystroke_l	l	n/a
151.471	0.09	302942	keystroke_a	a	n/a
151.516	0.09	303032	keystroke_r	r	n/a
151.6805	0.121	303361	keystroke_s	s	n/a
151.7555	0.076	303511	keystroke_h	h	n/a
151.8155	0.076	303631	keystroke_o	o	n/a
151.9055	0.0905	303811	keystroke_Key.space	Key.space	n/a
151.9215	0.0145	303843	keystroke_p	p	n/a
152.551	0.06	305102	keystroke_Key.backspace	Key.backspace	n/a
152.776	0.075	305552	keystroke_Key.backspace	Key.backspace	n/a
153.031	0.09	306062	keystroke_Key.backspace	Key.backspace	n/a
153.736	0.1345	307472	keystroke_i	i	n/a
154.0205	0.135	308041	keystroke_p	p	n/a
154.3655	0.136	308731	keystroke_Key.space	Key.space	n/a
154.6655	0.09	309331	keystroke_s	s	n/a
154.8155	0.076	309631	keystroke_p	p	n/a
154.9665	0.119	309933	keystroke_e	e	n/a
155.1455	0.135	310291	keystroke_c	c	n/a
155.8355	0.09	311671	keystroke_i	i	n/a
155.9855	0.105	311971	keystroke_a	a	n/a
156.1205	0.12	312241	keystroke_l	l	n/a
156.2105	0.12	312421	keystroke_i	i	n/a
156.2555	0.12	312511	keystroke_z	z	n/a
156.3155	0.18	312631	keystroke_e	e	n/a
156.3905	0.12	312781	keystroke_d	d	n/a
156.4805	0.105	312961	keystroke_Key.space	Key.space	n/a
156.721	0.075	313442	keystroke_t	t	n/a
156.766	0.12	313532	keystroke_o	o	n/a
156.841	0.105	313682	keystroke_u	u	n/a
156.961	0.075	313922	keystroke_c	c	n/a
157.051	0.0745	314102	keystroke_h	h	n/a
157.111	0.1195	314222	keystroke_e	e	n/a
157.1555	0.1205	314311	keystroke_d	d	n/a
157.2155	0.1055	314431	keystroke_Key.space	Key.space	n/a
157.516	0.015	315032	keystroke_s	s	n/a
157.681	0.105	315362	keystroke_h	h	n/a
157.816	0.12	315632	keystroke_e	e	n/a
157.951	0.09	315902	keystroke_p	p	n/a
158.6105	0.106	317221	keystroke_h	h	n/a
158.7305	0.12	317461	keystroke_e	e	n/a
158.7905	0.075	317581	keystroke_r	r	n/a
158.9855	0.105	317971	keystroke_d	d	n/a
159.2855	0.1055	318571	keystroke_Key.enter	Key.enter	n/a
159.396	5.651	318792	prompt	n/a	never restriction adventures keen\n
160.471	0.06	320942	keystroke_n	n	n/a
160.501	0.1345	321002	keystroke_e	e	n/a
160.6205	0.105	321241	keystroke_v	v	n/a
160.8605	0.075	321721	keystroke_e	e	n/a
160.8755	0.12	321751	keystroke_r	r	n/a
160.9805	0.045	321961	keystroke_Key.space	Key.space	n/a
161.1605	0.135	322321	keystroke_r	r	n/a
161.206	0.1645	322412	keystroke_e	e	n/a
161.2655	0.18	322531	keystroke_s	s	n/a
162.0005	0.09	324001	keystroke_t	t	n/a
162.0455	0.12	324091	keystroke_r	r	n/a
162.1815	0.105	324363	keystroke_i	i	n/a
162.3015	0.075	324603	keystroke_c	c	n/a
162.4955	0.09	324991	keystroke_t	t	n/a
162.5555	0.105	325111	keystroke_i	i	n/a
162.6155	0.06	325231	keystroke_o	o	n/a
162.781	0.09	325562	keystroke_n	n	n/a
162.856	0.105	325712	keystroke_Key.space	Key.space	n/a
162.991	0.135	325982	keystroke_a	a	n/a
163.066	0.1345	326132	keystroke_d	d	n/a
163.666	0.105	327332	keystroke_v	v	n/a
163.726	0.12	327452	keystroke_e	e	n/a
163.816	0.09	327632	keystroke_n	n	n/a
163.9505	0.09	327901	keystroke_t	t	n/a
164.0855	0.09	328171	keystroke_u	u	n/a
164.1605	0.1355	328321	keystroke_r	r	n/a
164.1905	0.1505	328381	keystroke_e	e	n/a
164.2505	0.1205	328501	keystroke_s	s	n/a
164.296	0.075	328592	keystroke_Key.space	Key.space	n/a
164.461	0.09	328922	keystroke_k	k	n/a
164.536	0.075	329072	keystroke_e	e	n/a
164.671	0.105	329342	keystroke_e	e	n/a
164.761	0.0595	329522	keystroke_n	n	n/a
164.9705	0.075	329941	keystroke_Key.enter	Key.enter	n/a
165.0515	6.851	330103	prompt	n/a	spam arrangements forget cholesterol\n
165.6455	0.0605	331291	keystroke_s	s	n/a
165.721	0.09	331442	keystroke_p	p	n/a
165.8255	0.0905	331651	keystroke_a	a	n/a
165.901	0.105	331802	keystroke_m	m	n/a
165.961	0.105	331922	keystroke_Key.space	Key.space	n/a
166.081	0.12	332162	keystroke_a	a	n/a
166.171	0.06	332342	keystroke_r	r	n/a
166.306	0.09	332612	keystroke_r	r	n/a
166.456	0.105	332912	keystroke_a	a	n/a
166.6065	0.09	333213	keystroke_g	g	n/a
166.6815	0.09	333363	keystroke_e	e	n/a
167.3405	0.06	334681	keystroke_Key.backspace	Key.backspace	n/a
167.5055	0.075	335011	keystroke_Key.backspace	Key.backspace	n/a
167.7315	0.105	335463	keystroke_n	n	n/a
167.8205	0.061	335641	keystroke_g	g	n/a
167.8505	0.091	335701	keystroke_e	e	n/a
167.9565	0.089	335913	keystroke_m	m	n/a
168.0465	0.074	336093	keystroke_e	e	n/a
168.1365	0.0895	336273	keystroke_n	n	n/a
168.196	0.105	336392	keystroke_t	t	n/a
168.241	0.105	336482	keystroke_s	s	n/a
168.316	0.09	336632	keystroke_Key.space	Key.space	n/a
168.436	0.1045	336872	keystroke_f	f	n/a
168.5265	0.09	337053	keystroke_o	o	n/a
168.6305	0.06	337261	keystroke_r	r	n/a
168.7955	0.045	337591	keystroke_g	g	n/a
168.8555	0.12	337711	keystroke_e	e	n/a
168.9305	0.075	337861	keystroke_t	t	n/a
169.0205	0.075	338041	keystroke_Key.space	Key.space	n/a
169.171	0.1345	338342	keystroke_c	c	n/a
169.261	0.0745	338522	keystroke_h	h	n/a
169.3955	0.075	338791	keystroke_o	o	n/a
169.5905	0.09	339181	keystroke_l	l	n/a
170.731	0.12	341462	keystroke_e	e	n/a
170.806	0.1045	341612	keystroke_s	s	n/a
170.896	0.0895	341792	keystroke_t	t	n/a
171.0905	0.105	342181	keystroke_e	e	n/a
171.1205	0.12	342241	keystroke_r	r	n/a
171.3455	0.091	342691	keystroke_o	o	n/a
171.5405	0.075	343081	keystroke_l	l	n/a
171.8255	0.075	343651	keystroke_Key.enter	Key.enter	n/a
171.9055	4.302	343811	prompt	n/a	villa doors noted encyclopedia\n
172.591	0.09	345182	keystroke_v	v	n/a
172.666	0.1195	345332	keystroke_i	i	n/a
172.756	0.09	345512	keystroke_l	l	n/a
172.921	0.075	345842	keystroke_l	l	n/a
173.011	0.105	346022	keystroke_a	a	n/a
173.1005	0.1055	346201	keystroke_Key.space	Key.space	n/a
173.221	0.105	346442	keystroke_d	d	n/a
173.296	0.09	346592	keystroke_o	o	n/a
173.611	0.09	347222	keystroke_o	o	n/a
173.701	0.12	347402	keystroke_r	r	n/a
173.761	0.105	347522	keystroke_s	s	n/a
173.851	0.06	347702	keystroke_Key.space	Key.space	n/a
174.016	0.09	348032	keystroke_n	n	n/a
174.091	0.105	348182	keystroke_o	o	n/a
174.151	0.06	348302	keystroke_t	t	n/a
174.196	0.12	348392	keystroke_e	e	n/a
174.301	0.135	348602	keystroke_d	d	n/a
174.406	0.09	348812	keystroke_Key.space	Key.space	n/a
174.541	0.09	349082	keystroke_e	e	n/a
174.646	0.075	349292	keystroke_n	n	n/a
174.736	0.09	349472	keystroke_c	c	n/a
174.991	0.06	349982	keystroke_y	y	n/a
175.216	0.09	350432	keystroke_c	c	n/a
175.276	0.075	350552	keystroke_l	l	n/a
175.456	0.075	350912	keystroke_o	o	n/a
175.621	0.12	351242	keystroke_p	p	n/a
175.711	0.105	351422	keystroke_e	e	n/a
175.756	0.12	351512	keystroke_d	d	n/a
175.891	0.09	351782	keystroke_i	i	n/a
175.951	0.12	351902	keystroke_a	a	n/a
176.116	0.09	352232	keystroke_Key.enter	Key.enter	n/a
176.2105	4.227	352421	prompt	n/a	ethernet playlist names configurations\n
176.866	0.135	353732	keystroke_e	e	n/a
176.956	0.135	353912	keystroke_t	t	n/a
177.136	0.1045	354272	keystroke_h	h	n/a
177.2705	0.105	354541	keystroke_e	e	n/a
177.331	0.1045	354662	keystroke_r	r	n/a
177.4655	0.075	354931	keystroke_n	n	n/a
177.5105	0.135	355021	keystroke_e	e	n/a
177.571	0.1045	355142	keystroke_t	t	n/a
177.6605	0.0905	355321	keystroke_Key.space	Key.space	n/a
177.886	0.09	355772	keystroke_p	p	n/a
177.946	0.135	355892	keystroke_l	l	n/a
177.991	0.12	355982	keystroke_a	a	n/a
178.096	0.09	356192	keystroke_y	y	n/a
178.231	0.12	356462	keystroke_l	l	n/a
178.291	0.105	356582	keystroke_i	i	n/a
178.336	0.075	356672	keystroke_s	s	n/a
178.381	0.105	356762	keystroke_t	t	n/a
178.441	0.105	356882	keystroke_Key.space	Key.space	n/a
178.606	0.075	357212	keystroke_n	n	n/a
178.666	0.075	357332	keystroke_a	a	n/a
178.756	0.105	357512	keystroke_m	m	n/a
178.816	0.135	357632	keystroke_e	e	n/a
178.891	0.09	357782	keystroke_s	s	n/a
178.936	0.09	357872	keystroke_Key.space	Key.space	n/a
179.1165	0.12	358233	keystroke_c	c	n/a
179.1465	0.09	358293	keystroke_o	o	n/a
179.2965	0.09	358593	keystroke_n	n	n/a
179.3715	0.105	358743	keystroke_f	f	n/a
179.4765	0.105	358953	keystroke_i	i	n/a
179.5665	0.075	359133	keystroke_g	g	n/a
179.6565	0.09	359313	keystroke_u	u	n/a
179.7315	0.09	359463	keystroke_r	r	n/a
179.8065	0.12	359613	keystroke_a	a	n/a
179.8815	0.105	359763	keystroke_t	t	n/a
179.9415	0.09	359883	keystroke_i	i	n/a
180.0015	0.06	360003	keystroke_o	o	n/a
180.1215	0.105	360243	keystroke_n	n	n/a
180.1665	0.075	360333	keystroke_s	s	n/a
180.346	0.09	360692	keystroke_Key.enter	Key.enter	n/a
180.44	3.1325	360880	prompt	n/a	shake prefix deals data\n
181.2455	0.09	362491	keystroke_s	s	n/a
181.3205	0.076	362641	keystroke_h	h	n/a
181.4115	0.06	362823	keystroke_a	a	n/a
181.4855	0.091	362971	keystroke_k	k	n/a
181.5315	0.1045	363063	keystroke_e	e	n/a
181.621	0.09	363242	keystroke_Key.space	Key.space	n/a
181.756	0.09	363512	keystroke_p	p	n/a
181.801	0.09	363602	keystroke_r	r	n/a
181.846	0.105	363692	keystroke_e	e	n/a
182.011	0.075	364022	keystroke_f	f	n/a
182.131	0.075	364262	keystroke_i	i	n/a
182.221	0.075	364442	keystroke_x	x	n/a
182.266	0.12	364532	keystroke_Key.space	Key.space	n/a
182.446	0.045	364892	keystroke_d	d	n/a
182.581	0.09	365162	keystroke_e	e	n/a
182.611	0.105	365222	keystroke_a	a	n/a
182.701	0.075	365402	keystroke_l	l	n/a
182.791	0.09	365582	keystroke_s	s	n/a
182.866	0.12	365732	keystroke_Key.space	Key.space	n/a
183.001	0.1045	366002	keystroke_d	d	n/a
183.1215	0.089	366243	keystroke_a	a	n/a
183.2705	0.075	366541	keystroke_t	t	n/a
183.3315	0.089	366663	keystroke_a	a	n/a
183.4805	0.09	366961	keystroke_Key.enter	Key.enter	n/a
183.5755	3.987	367151	prompt	n/a	adipex hate yarn passage\n
184.261	0.09	368522	keystroke_a	a	n/a
184.306	0.1055	368612	keystroke_d	d	n/a
184.4415	0.105	368883	keystroke_i	i	n/a
184.5165	0.09	369033	keystroke_p	p	n/a
184.6215	0.1195	369243	keystroke_e	e	n/a
184.831	0.135	369662	keystroke_x	x	n/a
184.936	0.075	369872	keystroke_Key.space	Key.space	n/a
185.056	0.12	370112	keystroke_h	h	n/a
185.101	0.105	370202	keystroke_a	a	n/a
185.191	0.12	370382	keystroke_t	t	n/a
185.251	0.105	370502	keystroke_e	e	n/a
185.296	0.12	370592	keystroke_Key.space	Key.space	n/a
185.701	0.105	371402	keystroke_y	y	n/a
185.836	0.105	371672	keystroke_a	a	n/a
185.881	0.135	371762	keystroke_r	r	n/a
186.031	0.075	372062	keystroke_n	n	n/a
186.061	0.15	372122	keystroke_Key.space	Key.space	n/a
186.901	0.09	373802	keystroke_p	p	n/a
186.976	0.075	373952	keystroke_a	a	n/a
187.036	0.06	374072	keystroke_s	s	n/a
187.1565	0.089	374313	keystroke_s	s	n/a
187.2315	0.059	374463	keystroke_a	a	n/a
187.3505	0.105	374701	keystroke_g	g	n/a
187.3955	0.105	374791	keystroke_e	e	n/a
187.4865	0.074	374973	keystroke_Key.enter	Key.enter	n/a
187.5655	4.302	375131	prompt	n/a	speech trunk lift mounting\n
188.671	0.09	377342	keystroke_s	s	n/a
188.791	0.105	377582	keystroke_p	p	n/a
188.881	0.06	377762	keystroke_e	e	n/a
189.016	0.105	378032	keystroke_e	e	n/a
189.061	0.12	378122	keystroke_c	c	n/a
189.151	0.09	378302	keystroke_h	h	n/a
189.196	0.105	378392	keystroke_Key.space	Key.space	n/a
189.316	0.105	378632	keystroke_t	t	n/a
189.376	0.12	378752	keystroke_r	r	n/a
189.406	0.075	378812	keystroke_u	u	n/a
189.586	0.09	379172	keystroke_n	n	n/a
189.631	0.09	379262	keystroke_k	k	n/a
189.691	0.12	379382	keystroke_Key.space	Key.space	n/a
190.216	0.06	380432	keystroke_l	l	n/a
190.291	0.105	380582	keystroke_i	i	n/a
190.351	0.06	380702	keystroke_f	f	n/a
190.501	0.09	381002	keystroke_t	t	n/a
190.546	0.0745	381092	keystroke_Key.space	Key.space	n/a
190.7115	0.119	381423	keystroke_m	m	n/a
190.8765	0.134	381753	keystroke_o	o	n/a
190.9665	0.074	381933	keystroke_u	u	n/a
191.1155	0.09	382231	keystroke_n	n	n/a
191.1755	0.09	382351	keystroke_t	t	n/a
191.2355	0.12	382471	keystroke_i	i	n/a
191.3105	0.105	382621	keystroke_n	n	n/a
191.4005	0.075	382801	keystroke_g	g	n/a
191.7755	0.09	383551	keystroke_Key.enter	Key.enter	n/a
191.8705	3.897	383741	prompt	n/a	bottles beside fraction config\n
192.5415	0.0745	385083	keystroke_b	b	n/a
192.691	0.09	385382	keystroke_o	o	n/a
192.871	0.06	385742	keystroke_t	t	n/a
193.006	0.06	386012	keystroke_t	t	n/a
193.081	0.09	386162	keystroke_l	l	n/a
193.172	0.134	386344	keystroke_e	e	n/a
193.216	0.12	386432	keystroke_s	s	n/a
193.276	0.09	386552	keystroke_Key.space	Key.space	n/a
193.456	0.105	386912	keystroke_b	b	n/a
193.516	0.135	387032	keystroke_e	e	n/a
193.576	0.12	387152	keystroke_s	s	n/a
193.711	0.09	387422	keystroke_i	i	n/a
193.771	0.1495	387542	keystroke_d	d	n/a
193.816	0.1645	387632	keystroke_e	e	n/a
193.9215	0.074	387843	keystroke_s	s	n/a
193.9215	0.104	387843	keystroke_Key.space	Key.space	n/a
194.1605	0.0455	388321	keystroke_f	f	n/a
194.2805	0.1055	388561	keystroke_r	r	n/a
194.356	0.1045	388712	keystroke_a	a	n/a
194.506	0.06	389012	keystroke_c	c	n/a
194.701	0.09	389402	keystroke_t	t	n/a
194.761	0.075	389522	keystroke_i	i	n/a
194.806	0.045	389612	keystroke_o	o	n/a
194.926	0.09	389852	keystroke_n	n	n/a
194.971	0.12	389942	keystroke_Key.space	Key.space	n/a
195.121	0.105	390242	keystroke_c	c	n/a
195.166	0.075	390332	keystroke_o	o	n/a
195.2855	0.105	390571	keystroke_n	n	n/a
195.3615	0.089	390723	keystroke_f	f	n/a
195.4655	0.09	390931	keystroke_i	i	n/a
195.5565	0.074	391113	keystroke_g	g	n/a
195.7055	0.06	391411	keystroke_Key.enter	Key.enter	n/a
195.773	10.4645	391546	prompt	n/a	basename longitude algeria alexander\n
196.5605	0.09	393121	keystroke_b	b	n/a
196.6355	0.12	393271	keystroke_a	a	n/a
196.7105	0.12	393421	keystroke_s	s	n/a
197.1465	0.074	394293	keystroke_n	n	n/a
197.2505	0.105	394501	keystroke_a	a	n/a
197.8655	0.045	395731	keystroke_Key.backspace	Key.backspace	n/a
198.0155	0.09	396031	keystroke_Key.backspace	Key.backspace	n/a
198.1955	0.09	396391	keystroke_e	e	n/a
198.3005	0.075	396601	keystroke_n	n	n/a
198.3905	0.09	396781	keystroke_a	a	n/a
198.5255	0.045	397051	keystroke_m	m	n/a
198.5855	0.12	397171	keystroke_e	e	n/a
199.201	0.09	398402	keystroke_Key.space	Key.space	n/a
199.5305	0.0755	399061	keystroke_l	l	n/a
199.6955	0.075	399391	keystroke_o	o	n/a
199.8005	0.105	399601	keystroke_n	n	n/a
199.8605	0.105	399721	keystroke_g	g	n/a
199.9955	0.1205	399991	keystroke_i	i	n/a
200.101	0.075	400202	keystroke_t	t	n/a
200.221	0.09	400442	keystroke_u	u	n/a
200.326	0.105	400652	keystroke_d	d	n/a
200.341	0.165	400682	keystroke_e	e	n/a
200.896	0.105	401792	keystroke_Key.space	Key.space	n/a
201.3455	0.106	402691	keystroke_a	a	n/a
201.5105	0.075	403021	keystroke_l	l	n/a
201.6305	0.075	403261	keystroke_g	g	n/a
201.7805	0.12	403561	keystroke_e	e	n/a
201.8405	0.09	403681	keystroke_r	r	n/a
201.9455	0.105	403891	keystroke_i	i	n/a
202.0205	0.105	404041	keystroke_a	a	n/a
202.1105	0.105	404221	keystroke_Key.space	Key.space	n/a
204.9325	0.028	409865	keystroke_a	a	n/a
204.9905	0.09	409981	keystroke_l	l	n/a
205.0505	0.105	410101	keystroke_e	e	n/a
205.2755	0.12	410551	keystroke_x	x	n/a
205.5605	0.09	411121	keystroke_a	a	n/a
205.6655	0.105	411331	keystroke_n	n	n/a
205.7855	0.075	411571	keystroke_d	d	n/a
205.8905	0.135	411781	keystroke_e	e	n/a
205.9655	0.105	411931	keystroke_r	r	n/a
206.1305	0.106	412261	keystroke_Key.enter	Key.enter	n/a
206.2405	8.0675	412481	prompt	n/a	fountain recommendation round sufficiently\n
206.9855	0.09	413971	keystroke_f	f	n/a
207.0305	0.135	414061	keystroke_o	o	n/a
207.1215	0.06	414243	keystroke_u	u	n/a
207.2555	0.105	414511	keystroke_n	n	n/a
207.3305	0.091	414661	keystroke_t	t	n/a
207.3755	0.105	414751	keystroke_a	a	n/a
207.4055	0.12	414811	keystroke_i	i	n/a
207.4955	0.09	414991	keystroke_n	n	n/a
207.5705	0.12	415141	keystroke_Key.space	Key.space	n/a
207.7505	0.12	415501	keystroke_r	r	n/a
207.8255	0.09	415651	keystroke_e	e	n/a
208.0055	0.105	416011	keystroke_c	c	n/a
208.0955	0.076	416191	keystroke_o	o	n/a
208.2615	0.074	416523	keystroke_m	m	n/a
208.4105	0.0755	416821	keystroke_m	m	n/a
208.501	0.075	417002	keystroke_e	e	n/a
208.591	0.0745	417182	keystroke_n	n	n/a
208.6355	0.12	417271	keystroke_d	d	n/a
208.7555	0.12	417511	keystroke_a	a	n/a
208.8455	0.12	417691	keystroke_t	t	n/a
208.906	0.1045	417812	keystroke_i	i	n/a
208.9505	0.09	417901	keystroke_o	o	n/a
209.1305	0.075	418261	keystroke_n	n	n/a
209.1905	0.09	418381	keystroke_Key.space	Key.space	n/a
209.2655	0.105	418531	keystroke_r	r	n/a
209.3555	0.12	418711	keystroke_o	o	n/a
209.4305	0.06	418861	keystroke_u	u	n/a
209.5655	0.105	419131	keystroke_n	n	n/a
209.6255	0.06	419251	keystroke_d	d	n/a
209.7005	0.09	419401	keystroke_Key.space	Key.space	n/a
209.8055	0.09	419611	keystroke_s	s	n/a
209.9105	0.09	419821	keystroke_u	u	n/a
210.0305	0.06	420061	keystroke_f	f	n/a
210.1655	0.09	420331	keystroke_f	f	n/a
210.3005	0.09	420601	keystroke_i	i	n/a
210.4055	0.06	420811	keystroke_c	c	n/a
210.4955	0.105	420991	keystroke_i	i	n/a
210.6155	0.06	421231	keystroke_e	e	n/a
212.5055	0.09	425011	keystroke_n	n	n/a
212.6105	0.0905	425221	keystroke_t	t	n/a
212.716	0.09	425432	keystroke_l	l	n/a
212.821	0.105	425642	keystroke_y	y	n/a
214.171	0.1345	428342	keystroke_Key.enter	Key.enter	n/a
214.311	3.0265	428622	prompt	n/a	rich sentences short grip\n
214.9215	0.075	429843	keystroke_r	r	n/a
214.9965	0.09	429993	keystroke_i	i	n/a
215.1165	0.09	430233	keystroke_c	c	n/a
215.1765	0.09	430353	keystroke_h	h	n/a
215.2215	0.105	430443	keystroke_Key.space	Key.space	n/a
215.3115	0.12	430623	keystroke_s	s	n/a
215.3715	0.105	430743	keystroke_e	e	n/a
215.4465	0.12	430893	keystroke_n	n	n/a
215.5515	0.12	431103	keystroke_t	t	n/a
215.6265	0.135	431253	keystroke_e	e	n/a
215.7465	0.135	431493	keystroke_n	n	n/a
215.9115	0.135	431823	keystroke_c	c	n/a
215.9715	0.135	431943	keystroke_e	e	n/a
216.0165	0.135	432033	keystroke_s	s	n/a
216.1205	0.091	432241	keystroke_Key.space	Key.space	n/a
216.2715	0.075	432543	keystroke_s	s	n/a
216.3315	0.09	432663	keystroke_h	h	n/a
216.4515	0.09	432903	keystroke_o	o	n/a
216.5115	0.105	433023	keystroke_r	r	n/a
216.5565	0.104	433113	keystroke_t	t	n/a
216.6315	0.089	433263	keystroke_Key.space	Key.space	n/a
216.7665	0.12	433533	keystroke_g	g	n/a
216.8265	0.135	433653	keystroke_r	r	n/a
216.8565	0.12	433713	keystroke_i	i	n/a
216.9465	0.105	433893	keystroke_p	p	n/a
217.2015	0.135	434403	keystroke_Key.enter	Key.enter	n/a
217.3405	6.402	434681	prompt	n/a	algeria fairfield locked serves\n
217.9515	0.09	435903	keystroke_a	a	n/a
218.0265	0.105	436053	keystroke_l	l	n/a
218.1165	0.06	436233	keystroke_g	g	n/a
218.2215	0.15	436443	keystroke_e	e	n/a
218.2815	0.105	436563	keystroke_r	r	n/a
218.4315	0.105	436863	keystroke_i	i	n/a
218.5515	0.105	437103	keystroke_a	a	n/a
218.6265	0.104	437253	keystroke_Key.space	Key.space	n/a
219.0315	0.105	438063	keystroke_f	f	n/a
219.2415	0.105	438483	keystroke_a	a	n/a
219.4815	0.105	438963	keystroke_i	i	n/a
219.6005	0.091	439201	keystroke_r	r	n/a
219.8415	0.09	439683	keystroke_f	f	n/a
219.9465	0.075	439893	keystroke_i	i	n/a
220.1265	0.09	440253	keystroke_e	e	n/a
220.2015	0.09	440403	keystroke_l	l	n/a
220.2615	0.12	440523	keystroke_d	d	n/a
220.3965	0.09	440793	keystroke_Key.space	Key.space	n/a
220.6965	0.075	441393	keystroke_l	l	n/a
220.8615	0.09	441723	keystroke_o	o	n/a
220.9365	0.075	441873	keystroke_c	c	n/a
221.0265	0.1795	442053	keystroke_k	k	n/a
221.101	0.12	442202	keystroke_e	e	n/a
221.206	0.09	442412	keystroke_d	d	n/a
222.1955	0.12	444391	keystroke_Key.space	Key.space	n/a
222.766	0.1355	445532	keystroke_s	s	n/a
222.811	0.1355	445622	keystroke_e	e	n/a
222.871	0.0755	445742	keystroke_r	r	n/a
223.0515	0.18	446103	keystroke_v	v	n/a
223.1265	0.1495	446253	keystroke_e	e	n/a
223.2165	0.1045	446433	keystroke_s	s	n/a
223.636	0.105	447272	keystroke_Key.enter	Key.enter	n/a
223.746	4.2115	447492	prompt	n/a	radio railway reference missing\n
224.461	0.075	448922	keystroke_r	r	n/a
224.521	0.12	449042	keystroke_a	a	n/a
224.626	0.105	449252	keystroke_d	d	n/a
224.701	0.12	449402	keystroke_i	i	n/a
224.761	0.105	449522	keystroke_o	o	n/a
224.806	0.135	449612	keystroke_Key.space	Key.space	n/a
224.926	0.105	449852	keystroke_r	r	n/a
224.956	0.1205	449912	keystroke_a	a	n/a
225.1805	0.105	450361	keystroke_i	i	n/a
225.2405	0.105	450481	keystroke_l	l	n/a
225.4055	0.12	450811	keystroke_w	w	n/a
225.4655	0.135	450931	keystroke_a	a	n/a
225.5855	0.105	451171	keystroke_y	y	n/a
225.6455	0.12	451291	keystroke_Key.space	Key.space	n/a
226.3965	0.09	452793	keystroke_r	r	n/a
226.4415	0.105	452883	keystroke_e	e	n/a
226.606	0.075	453212	keystroke_f	f	n/a
226.696	0.06	453392	keystroke_e	e	n/a
226.771	0.105	453542	keystroke_r	r	n/a
226.846	0.09	453692	keystroke_e	e	n/a
226.937	0.089	453874	keystroke_n	n	n/a
227.011	0.09	454022	keystroke_c	c	n/a
227.071	0.105	454142	keystroke_e	e	n/a
227.116	0.09	454232	keystroke_Key.space	Key.space	n/a
227.251	0.15	454502	keystroke_m	m	n/a
227.356	0.1055	454712	keystroke_i	i	n/a
227.4465	0.075	454893	keystroke_s	s	n/a
227.5815	0.075	455163	keystroke_s	s	n/a
227.5955	0.121	455191	keystroke_i	i	n/a
227.6715	0.105	455343	keystroke_n	n	n/a
227.7605	0.075	455521	keystroke_g	g	n/a
227.8665	0.0895	455733	keystroke_Key.enter	Key.enter	n/a
227.961	4.2115	455922	prompt	n/a	forget seeing inexpensive bank\n
228.571	0.0895	457142	keystroke_f	f	n/a
228.6605	0.09	457321	keystroke_o	o	n/a
228.7515	0.074	457503	keystroke_r	r	n/a
228.9155	0.0605	457831	keystroke_g	g	n/a
228.991	0.12	457982	keystroke_e	e	n/a
229.051	0.09	458102	keystroke_t	t	n/a
229.126	0.1205	458252	keystroke_Key.space	Key.space	n/a
229.2765	0.12	458553	keystroke_e	e	n/a
229.5915	0.06	459183	keystroke_Key.backspace	Key.backspace	n/a
229.6965	0.06	459393	keystroke_s	s	n/a
229.7115	0.06	459423	keystroke_e	e	n/a
229.8465	0.09	459693	keystroke_e	e	n/a
229.9215	0.135	459843	keystroke_i	i	n/a
230.0115	0.12	460023	keystroke_n	n	n/a
230.0715	0.09	460143	keystroke_g	g	n/a
230.1915	0.075	460383	keystroke_Key.space	Key.space	n/a
230.2965	0.105	460593	keystroke_i	i	n/a
230.3865	0.15	460773	keystroke_n	n	n/a
230.4915	0.12	460983	keystroke_e	e	n/a
230.7015	0.12	461403	keystroke_x	x	n/a
230.8365	0.09	461673	keystroke_p	p	n/a
230.9565	0.105	461913	keystroke_e	e	n/a
231.0315	0.105	462063	keystroke_n	n	n/a
231.1365	0.105	462273	keystroke_s	s	n/a
231.2265	0.12	462453	keystroke_i	i	n/a
231.3015	0.12	462603	keystroke_v	v	n/a
231.3615	0.105	462723	keystroke_e	e	n/a
231.4355	0.075	462871	keystroke_Key.space	Key.space	n/a
231.6915	0.105	463383	keystroke_b	b	n/a
231.7365	0.12	463473	keystroke_a	a	n/a
231.8115	0.09	463623	keystroke_n	n	n/a
231.8715	0.09	463743	keystroke_k	k	n/a
232.0805	0.0905	464161	keystroke_Key.enter	Key.enter	n/a
232.1765	4.8865	464353	prompt	n/a	vancouver jackson william bald\n
232.8315	0.104	465663	keystroke_v	v	n/a
232.8905	0.105	465781	keystroke_a	a	n/a
233.0105	0.105	466021	keystroke_n	n	n/a
233.5205	0.09	467041	keystroke_c	c	n/a
233.6115	0.119	467223	keystroke_o	o	n/a
233.7005	0.06	467401	keystroke_u	u	n/a
233.7755	0.045	467551	keystroke_v	v	n/a
233.9255	0.12	467851	keystroke_e	e	n/a
233.9705	0.105	467941	keystroke_r	r	n/a
234.0605	0.12	468121	keystroke_Key.space	Key.space	n/a
235.2315	0.12	470463	keystroke_j	j	n/a
235.3515	0.03	470703	keystroke_a	a	n/a
235.3665	0.045	470733	keystroke_c	c	n/a
235.3965	0.03	470793	keystroke_k	k	n/a
235.4415	0.09	470883	keystroke_s	s	n/a
235.5165	0.06	471033	keystroke_o	o	n/a
235.6365	0.075	471273	keystroke_n	n	n/a
235.6965	0.09	471393	keystroke_Key.space	Key.space	n/a
235.8015	0.135	471603	keystroke_w	w	n/a
235.8915	0.09	471783	keystroke_i	i	n/a
235.9515	0.045	471903	keystroke_l	l	n/a
236.0865	0.075	472173	keystroke_l	l	n/a
236.1315	0.0895	472263	keystroke_i	i	n/a
236.236	0.09	472472	keystroke_a	a	n/a
236.311	0.0595	472622	keystroke_m	m	n/a
236.341	0.1045	472682	keystroke_Key.space	Key.space	n/a
236.4905	0.135	472981	keystroke_b	b	n/a
236.5805	0.09	473161	keystroke_a	a	n/a
236.6555	0.09	473311	keystroke_l	l	n/a
236.791	0.0755	473582	keystroke_d	d	n/a
237.0315	0.03	474063	keystroke_Key.enter	Key.enter	n/a
237.066	6.5665	474132	prompt	n/a	usgs donate substantial cyprus\n
237.7965	0.075	475593	keystroke_u	u	n/a
237.8265	0.105	475653	keystroke_s	s	n/a
237.9915	0.12	475983	keystroke_g	g	n/a
238.0815	0.12	476163	keystroke_s	s	n/a
238.2305	0.106	476461	keystroke_Key.space	Key.space	n/a
239.551	0.105	479102	keystroke_d	d	n/a
239.581	0.045	479162	keystroke_o	o	n/a
239.6855	0.0905	479371	keystroke_n	n	n/a
239.746	0.09	479492	keystroke_a	a	n/a
239.7905	0.1205	479581	keystroke_t	t	n/a
239.8505	0.12	479701	keystroke_e	e	n/a
239.926	0.09	479852	keystroke_Key.space	Key.space	n/a
240.0755	0.0905	480151	keystroke_s	s	n/a
240.151	0.105	480302	keystroke_u	u	n/a
240.271	0.09	480542	keystroke_b	b	n/a
240.451	0.075	480902	keystroke_s	s	n/a
240.541	0.1195	481082	keystroke_t	t	n/a
240.616	0.0905	481232	keystroke_a	a	n/a
240.7205	0.091	481441	keystroke_n	n	n/a
241.1565	0.074	482313	keystroke_t	t	n/a
241.2455	0.09	482491	keystroke_i	i	n/a
241.3205	0.105	482641	keystroke_a	a	n/a
241.4405	0.09	482881	keystroke_l	l	n/a
241.5005	0.105	483001	keystroke_Key.space	Key.space	n/a
241.726	0.105	483452	keystroke_c	c	n/a
242.086	0.09	484172	keystroke_y	y	n/a
242.866	0.09	485732	keystroke_p	p	n/a
243.0615	0.09	486123	keystroke_r	r	n/a
243.1815	0.0895	486363	keystroke_u	u	n/a
243.271	0.1055	486542	keystroke_s	s	n/a
243.541	0.09	487082	keystroke_Key.enter	Key.enter	n/a
243.6355	13.257	487271	prompt	n/a	arrangements hungry soap made\n
244.651	0.135	489302	keystroke_a	a	n/a
244.756	0.06	489512	keystroke_r	r	n/a
244.876	0.105	489752	keystroke_r	r	n/a
245.221	0.09	490442	keystroke_n	n	n/a
245.296	0.09	490592	keystroke_a	a	n/a
245.431	0.06	490862	keystroke_g	g	n/a
245.446	0.105	490892	keystroke_e	e	n/a
245.506	0.105	491012	keystroke_m	m	n/a
245.671	0.0745	491342	keystroke_e	e	n/a
245.7615	0.09	491523	keystroke_n	n	n/a
245.8055	0.106	491611	keystroke_t	t	n/a
245.8655	0.1055	491731	keystroke_s	s	n/a
245.9405	0.0755	491881	keystroke_Key.space	Key.space	n/a
246.136	0.15	492272	keystroke_h	h	n/a
246.7355	0.075	493471	keystroke_u	u	n/a
246.9005	0.09	493801	keystroke_n	n	n/a
246.9605	0.09	493921	keystroke_g	g	n/a
247.0055	0.135	494011	keystroke_r	r	n/a
247.1555	0.09	494311	keystroke_y	y	n/a
247.1855	0.135	494371	keystroke_Key.space	Key.space	n/a
247.9205	0.105	495841	keystroke_Key.backspace	Key.backspace	n/a
248.2505	0.105	496501	keystroke_Key.backspace	Key.backspace	n/a
248.596	0.09	497192	keystroke_Key.backspace	Key.backspace	n/a
248.911	0.075	497822	keystroke_Key.backspace	Key.backspace	n/a
249.226	0.12	498452	keystroke_Key.backspace	Key.backspace	n/a
249.571	0.075	499142	keystroke_Key.backspace	Key.backspace	n/a
249.9605	0.06	499921	keystroke_Key.backspace	Key.backspace	n/a
250.2755	0.09	500551	keystroke_Key.backspace	Key.backspace	n/a
250.6055	0.1205	501211	keystroke_Key.backspace	Key.backspace	n/a
250.996	0.105	501992	keystroke_Key.backspace	Key.backspace	n/a
251.386	0.075	502772	keystroke_Key.backspace	Key.backspace	n/a
251.671	0.09	503342	keystroke_Key.backspace	Key.backspace	n/a
251.941	0.09	503882	keystroke_Key.backspace	Key.backspace	n/a
252.196	0.075	504392	keystroke_Key.backspace	Key.backspace	n/a
252.496	0.0745	504992	keystroke_Key.backspace	Key.backspace	n/a
252.751	0.075	505502	keystroke_Key.backspace	Key.backspace	n/a
253.4555	0.075	506911	keystroke_Key.backspace	Key.backspace	n/a
254.3855	0.105	508771	keystroke_a	a	n/a
254.5505	0.075	509101	keystroke_n	n	n/a
254.6705	0.075	509341	keystroke_g	g	n/a
254.7005	0.135	509401	keystroke_e	e	n/a
254.8205	0.09	509641	keystroke_m	m	n/a
254.9255	0.09	509851	keystroke_e	e	n/a
255.0605	0.045	510121	keystroke_n	n	n/a
255.0755	0.12	510151	keystroke_t	t	n/a
255.1505	0.075	510301	keystroke_s	s	n/a
255.1955	0.09	510391	keystroke_Key.space	Key.space	n/a
255.3455	0.09	510691	keystroke_h	h	n/a
255.3905	0.09	510781	keystroke_u	u	n/a
255.5255	0.09	511051	keystroke_n	n	n/a
255.5855	0.12	511171	keystroke_g	g	n/a
255.6455	0.12	511291	keystroke_r	r	n/a
255.7805	0.075	511561	keystroke_y	y	n/a
255.8105	0.1055	511621	keystroke_Key.space	Key.space	n/a
255.946	0.09	511892	keystroke_s	s	n/a
256.006	0.09	512012	keystroke_o	o	n/a
256.141	0.075	512282	keystroke_a	a	n/a
256.186	0.105	512372	keystroke_p	p	n/a
256.276	0.09	512552	keystroke_Key.space	Key.space	n/a
256.426	0.075	512852	keystroke_m	m	n/a
256.486	0.12	512972	keystroke_a	a	n/a
256.516	0.15	513032	keystroke_d	d	n/a
256.606	0.135	513212	keystroke_e	e	n/a
256.8015	0.09	513603	keystroke_Key.enter	Key.enter	n/a
256.896	6.8365	513792	prompt	n/a	motivated tolerance sure athletics\n
257.5055	0.105	515011	keystroke_n	n	n/a
257.8505	0.06	515701	keystroke_Key.backspace	Key.backspace	n/a
258.1065	0.089	516213	keystroke_m	m	n/a
258.1205	0.1055	516241	keystroke_o	o	n/a
258.241	0.075	516482	keystroke_t	t	n/a
258.3605	0.12	516721	keystroke_i	i	n/a
258.4655	0.105	516931	keystroke_v	v	n/a
258.5105	0.12	517021	keystroke_a	a	n/a
258.6905	0.09	517381	keystroke_r	r	n/a
258.7655	0.165	517531	keystroke_e	e	n/a
258.9155	0.105	517831	keystroke_d	d	n/a
259.7255	0.09	519451	keystroke_Key.backspace	Key.backspace	n/a
259.9805	0.075	519961	keystroke_Key.backspace	Key.backspace	n/a
260.2505	0.075	520501	keystroke_Key.backspace	Key.backspace	n/a
260.3565	0.104	520713	keystroke_t	t	n/a
260.4155	0.151	520831	keystroke_e	e	n/a
260.5805	0.121	521161	keystroke_d	d	n/a
260.6555	0.105	521311	keystroke_Key.space	Key.space	n/a
260.9255	0.091	521851	keystroke_t	t	n/a
260.9855	0.075	521971	keystroke_o	o	n/a
261.1505	0.09	522301	keystroke_l	l	n/a
261.1815	0.1045	522363	keystroke_e	e	n/a
261.2265	0.0895	522453	keystroke_r	r	n/a
261.345	0.121	522690	keystroke_a	a	n/a
261.466	0.09	522932	keystroke_n	n	n/a
261.526	0.119	523052	keystroke_c	c	n/a
261.601	0.09	523202	keystroke_e	e	n/a
261.66	0.0905	523320	keystroke_Key.space	Key.space	n/a
261.766	0.104	523532	keystroke_s	s	n/a
261.856	0.1045	523712	keystroke_u	u	n/a
261.931	0.1195	523862	keystroke_r	r	n/a
261.976	0.1205	523952	keystroke_e	e	n/a
262.0355	0.12	524071	keystroke_Key.space	Key.space	n/a
262.2605	0.105	524521	keystroke_a	a	n/a
262.3965	0.104	524793	keystroke_t	t	n/a
262.4855	0.09	524971	keystroke_h	h	n/a
262.666	0.09	525332	keystroke_l	l	n/a
262.711	0.15	525422	keystroke_e	e	n/a
262.846	0.105	525692	keystroke_t	t	n/a
262.996	0.09	525992	keystroke_i	i	n/a
263.101	0.105	526202	keystroke_c	c	n/a
263.146	0.1345	526292	keystroke_s	s	n/a
263.6255	0.105	527251	keystroke_Key.enter	Key.enter	n/a
263.7375	7.465	527475	prompt	n/a	greg calculators suggests pressing\n
264.3605	0.09	528721	keystroke_g	g	n/a
264.5705	0.1055	529141	keystroke_r	r	n/a
264.631	0.135	529262	keystroke_e	e	n/a
264.751	0.12	529502	keystroke_g	g	n/a
264.826	0.105	529652	keystroke_Key.space	Key.space	n/a
265.036	0.09	530072	keystroke_c	c	n/a
265.081	0.105	530162	keystroke_a	a	n/a
265.156	0.09	530312	keystroke_l	l	n/a
265.321	0.09	530642	keystroke_c	c	n/a
265.426	0.104	530852	keystroke_u	u	n/a
265.486	0.09	530972	keystroke_l	l	n/a
265.561	0.074	531122	keystroke_a	a	n/a
265.62	0.09	531240	keystroke_t	t	n/a
266.205	0.105	532410	keystroke_o	o	n/a
266.295	0.106	532590	keystroke_r	r	n/a
266.355	0.091	532710	keystroke_s	s	n/a
266.416	0.104	532832	keystroke_Key.space	Key.space	n/a
266.596	0.075	533192	keystroke_s	s	n/a
266.685	0.076	533370	keystroke_u	u	n/a
266.746	0.074	533492	keystroke_g	g	n/a
266.896	0.074	533792	keystroke_g	g	n/a
266.986	0.119	533972	keystroke_e	e	n/a
267.076	0.134	534152	keystroke_t	t	n/a
267.166	0.105	534332	keystroke_s	s	n/a
267.285	0.06	534570	keystroke_Key.space	Key.space	n/a
267.6455	0.0905	535291	keystroke_p	p	n/a
267.706	0.105	535412	keystroke_r	r	n/a
267.751	0.1345	535502	keystroke_e	e	n/a
267.796	0.1045	535592	keystroke_s	s	n/a
268.276	0.075	536552	keystroke_Key.backspace	Key.backspace	n/a
268.486	0.06	536972	keystroke_Key.backspace	Key.backspace	n/a
268.666	0.075	537332	keystroke_Key.backspace	Key.backspace	n/a
268.951	0.075	537902	keystroke_Key.backspace	Key.backspace	n/a
269.176	0.09	538352	keystroke_Key.backspace	Key.backspace	n/a
269.401	0.09	538802	keystroke_Key.backspace	Key.backspace	n/a
269.671	0.045	539342	keystroke_Key.backspace	Key.backspace	n/a
269.911	0.06	539822	keystroke_s	s	n/a
269.956	0.135	539912	keystroke_t	t	n/a
270.061	0.105	540122	keystroke_s	s	n/a
270.196	0.06	540392	keystroke_Key.space	Key.space	n/a
270.421	0.09	540842	keystroke_p	p	n/a
270.496	0.1195	540992	keystroke_r	r	n/a
270.556	0.1195	541112	keystroke_e	e	n/a
270.6	0.0905	541200	keystroke_s	s	n/a
270.7505	0.105	541501	keystroke_s	s	n/a
270.8405	0.09	541681	keystroke_i	i	n/a
270.9005	0.105	541801	keystroke_n	n	n/a
270.9755	0.075	541951	keystroke_g	g	n/a
271.1105	0.09	542221	keystroke_Key.enter	Key.enter	n/a
271.205	5.112	542410	prompt	n/a	sections kingston waterproof strips\n
271.8005	0.12	543601	keystroke_s	s	n/a
271.8605	0.1055	543721	keystroke_e	e	n/a
272.026	0.0895	544052	keystroke_c	c	n/a
272.221	0.09	544442	keystroke_t	t	n/a
272.296	0.06	544592	keystroke_i	i	n/a
272.341	0.06	544682	keystroke_o	o	n/a
272.446	0.105	544892	keystroke_n	n	n/a
272.461	0.09	544922	keystroke_s	s	n/a
272.536	0.105	545072	keystroke_Key.space	Key.space	n/a
272.626	0.09	545252	keystroke_k	k	n/a
272.7755	0.12	545551	keystroke_i	i	n/a
272.8355	0.12	545671	keystroke_n	n	n/a
272.8805	0.105	545761	keystroke_g	g	n/a
272.9705	0.15	545941	keystroke_s	s	n/a
273.0755	0.09	546151	keystroke_t	t	n/a
273.1055	0.075	546211	keystroke_o	o	n/a
273.2105	0.09	546421	keystroke_n	n	n/a
273.2855	0.105	546571	keystroke_Key.space	Key.space	n/a
273.4655	0.09	546931	keystroke_w	w	n/a
273.4955	0.12	546991	keystroke_a	a	n/a
273.6005	0.09	547201	keystroke_t	t	n/a
274.545	0.1205	549090	keystroke_e	e	n/a
274.605	0.1055	549210	keystroke_r	r	n/a
274.8905	0.09	549781	keystroke_p	p	n/a
275.0105	0.09	550021	keystroke_r	r	n/a
275.1155	0.06	550231	keystroke_o	o	n/a
275.2355	0.0905	550471	keystroke_o	o	n/a
275.2955	0.0905	550591	keystroke_f	f	n/a
275.401	0.09	550802	keystroke_Key.space	Key.space	n/a
275.491	0.09	550982	keystroke_s	s	n/a
275.521	0.12	551042	keystroke_t	t	n/a
275.566	0.135	551132	keystroke_r	r	n/a
275.656	0.12	551312	keystroke_i	i	n/a
275.716	0.105	551432	keystroke_p	p	n/a
275.806	0.105	551612	keystroke_s	s	n/a
276.211	0.105	552422	keystroke_Key.enter	Key.enter	n/a
276.32	4.4825	552640	prompt	n/a	kitty circular face academics\n
276.931	0.075	553862	keystroke_k	k	n/a
277.036	0.09	554072	keystroke_i	i	n/a
277.111	0.06	554222	keystroke_t	t	n/a
277.231	0.059	554462	keystroke_t	t	n/a
277.351	0.09	554702	keystroke_y	y	n/a
277.426	0.09	554852	keystroke_Key.space	Key.space	n/a
277.621	0.06	555242	keystroke_c	c	n/a
277.666	0.105	555332	keystroke_i	i	n/a
277.786	0.045	555572	keystroke_r	r	n/a
277.951	0.075	555902	keystroke_c	c	n/a
277.996	0.0895	555992	keystroke_u	u	n/a
278.041	0.0895	556082	keystroke_l	l	n/a
278.1455	0.09	556291	keystroke_a	a	n/a
278.1905	0.105	556381	keystroke_r	r	n/a
278.3405	0.12	556681	keystroke_Key.space	Key.space	n/a
278.655	0.075	557310	keystroke_f	f	n/a
278.79	0.09	557580	keystroke_a	a	n/a
278.895	0.12	557790	keystroke_c	c	n/a
278.97	0.121	557940	keystroke_e	e	n/a
279.045	0.12	558090	keystroke_Key.space	Key.space	n/a
279.3	0.105	558600	keystroke_a	a	n/a
279.511	0.104	559022	keystroke_c	c	n/a
279.57	0.105	559140	keystroke_a	a	n/a
279.915	0.12	559830	keystroke_d	d	n/a
279.975	0.09	559950	keystroke_e	e	n/a
280.05	0.105	560100	keystroke_m	m	n/a
280.095	0.12	560190	keystroke_i	i	n/a
280.216	0.074	560432	keystroke_c	c	n/a
280.245	0.12	560490	keystroke_s	s	n/a
280.695	0.105	561390	keystroke_Key.enter	Key.enter	n/a
280.8055	4.0615	561611	prompt	n/a	herbal downtown doubt essay\n
281.401	0.075	562802	keystroke_h	h	n/a
281.431	0.12	562862	keystroke_e	e	n/a
281.491	0.105	562982	keystroke_r	r	n/a
281.611	0.075	563222	keystroke_b	b	n/a
281.671	0.12	563342	keystroke_a	a	n/a
281.776	0.09	563552	keystroke_l	l	n/a
281.821	0.09	563642	keystroke_Key.space	Key.space	n/a
281.896	0.09	563792	keystroke_d	d	n/a
281.986	0.06	563972	keystroke_o	o	n/a
282.061	0.09	564122	keystroke_w	w	n/a
282.121	0.105	564242	keystroke_n	n	n/a
282.331	0.135	564662	keystroke_t	t	n/a
282.451	0.0895	564902	keystroke_o	o	n/a
282.5555	0.105	565111	keystroke_w	w	n/a
282.6755	0.06	565351	keystroke_n	n	n/a
282.7055	0.12	565411	keystroke_Key.space	Key.space	n/a
283.2305	0.075	566461	keystroke_d	d	n/a
283.2905	0.105	566581	keystroke_o	o	n/a
283.3505	0.09	566701	keystroke_u	u	n/a
283.4415	0.059	566883	keystroke_b	b	n/a
283.6055	0.09	567211	keystroke_t	t	n/a
283.6655	0.09	567331	keystroke_Key.space	Key.space	n/a
283.8605	0.15	567721	keystroke_e	e	n/a
283.9205	0.135	567841	keystroke_s	s	n/a
284.2355	0.075	568471	keystroke_s	s	n/a
284.4005	0.105	568801	keystroke_a	a	n/a
284.4905	0.075	568981	keystroke_y	y	n/a
284.806	0.06	569612	keystroke_Key.enter	Key.enter	n/a
284.87	8.1275	569740	prompt	n/a	miami substitute grave coastal\n
285.466	0.1495	570932	keystroke_m	m	n/a
285.7355	0.105	571471	keystroke_i	i	n/a
285.9605	0.105	571921	keystroke_a	a	n/a
286.2305	0.165	572461	keystroke_m	m	n/a
286.3805	0.12	572761	keystroke_i	i	n/a
286.4705	0.135	572941	keystroke_Key.space	Key.space	n/a
287.731	0.06	575462	keystroke_s	s	n/a
287.8505	0.06	575701	keystroke_u	u	n/a
287.9255	0.075	575851	keystroke_b	b	n/a
288.1505	0.09	576301	keystroke_s	s	n/a
288.4655	0.09	576931	keystroke_t	t	n/a
288.5855	0.0905	577171	keystroke_i	i	n/a
288.795	0.076	577590	keystroke_t	t	n/a
288.886	0.09	577772	keystroke_u	u	n/a
288.9905	0.105	577981	keystroke_t	t	n/a
289.0505	0.12	578101	keystroke_e	e	n/a
289.1405	0.12	578281	keystroke_Key.space	Key.space	n/a
289.5005	0.0455	579001	keystroke_g	g	n/a
289.62	0.091	579240	keystroke_r	r	n/a
289.68	0.105	579360	keystroke_a	a	n/a
289.891	0.149	579782	keystroke_e	e	n/a
289.906	0.014	579812	keystroke_v	v	n/a
289.951	0.119	579902	keystroke_Key.space	Key.space	n/a
290.115	0.15	580230	keystroke_c	c	n/a
290.8205	0.075	581641	keystroke_Key.backspace	Key.backspace	n/a
291.0455	0.075	582091	keystroke_Key.backspace	Key.backspace	n/a
291.2855	0.075	582571	keystroke_Key.backspace	Key.backspace	n/a
291.5555	0.105	583111	keystroke_Key.backspace	Key.backspace	n/a
291.7205	0.105	583441	keystroke_v	v	n/a
291.7805	0.09	583561	keystroke_e	e	n/a
291.8405	0.12	583681	keystroke_Key.space	Key.space	n/a
292.0205	0.09	584041	keystroke_c	c	n/a
292.0805	0.105	584161	keystroke_o	o	n/a
292.2155	0.12	584431	keystroke_a	a	n/a
292.2605	0.15	584521	keystroke_s	s	n/a
292.4555	0.135	584911	keystroke_t	t	n/a
292.5305	0.12	585061	keystroke_a	a	n/a
292.6205	0.09	585241	keystroke_l	l	n/a
292.9055	0.09	585811	keystroke_Key.enter	Key.enter	n/a
293	4.332	586000	prompt	n/a	scale alfred warm incident\n
293.791	0.09	587582	keystroke_s	s	n/a
293.926	0.105	587852	keystroke_c	c	n/a
293.971	0.09	587942	keystroke_a	a	n/a
294.046	0.119	588092	keystroke_l	l	n/a
294.166	0.06	588332	keystroke_e	e	n/a
294.24	0.09	588480	keystroke_Key.space	Key.space	n/a
294.3	0.105	588600	keystroke_a	a	n/a
294.436	0.104	588872	keystroke_l	l	n/a
294.555	0.0605	589110	keystroke_f	f	n/a
294.7055	0.075	589411	keystroke_r	r	n/a
294.7505	0.15	589501	keystroke_e	e	n/a
294.8705	0.12	589741	keystroke_d	d	n/a
294.9455	0.105	589891	keystroke_Key.space	Key.space	n/a
295.0805	0.135	590161	keystroke_w	w	n/a
295.1405	0.105	590281	keystroke_a	a	n/a
295.1855	0.12	590371	keystroke_r	r	n/a
295.2605	0.105	590521	keystroke_m	m	n/a
295.3205	0.09	590641	keystroke_Key.space	Key.space	n/a
295.7105	0.0905	591421	keystroke_i	i	n/a
295.846	0.12	591692	keystroke_n	n	n/a
295.951	0.09	591902	keystroke_c	c	n/a
296.056	0.1345	592112	keystroke_i	i	n/a
296.1605	0.12	592321	keystroke_d	d	n/a
296.2205	0.135	592441	keystroke_e	e	n/a
296.7005	0.09	593401	keystroke_n	n	n/a
296.7755	0.09	593551	keystroke_t	t	n/a
297.2255	0.105	594451	keystroke_Key.enter	Key.enter	n/a
297.3355	5.427	594671	prompt	n/a	helen assumptions deeper seat\n
298.1255	0.105	596251	keystroke_h	h	n/a
298.2455	0.105	596491	keystroke_e	e	n/a
298.3655	0.0745	596731	keystroke_l	l	n/a
298.455	0.12	596910	keystroke_e	e	n/a
298.545	0.105	597090	keystroke_m	m	n/a
298.605	0.075	597210	keystroke_Key.space	Key.space	n/a
299.1605	0.0745	598321	keystroke_Key.backspace	Key.backspace	n/a
299.355	0.1205	598710	keystroke_Key.backspace	Key.backspace	n/a
299.625	0.09	599250	keystroke_n	n	n/a
299.685	0.135	599370	keystroke_Key.space	Key.space	n/a
299.9405	0.09	599881	keystroke_a	a	n/a
299.9855	0.0905	599971	keystroke_s	s	n/a
300.136	0.0895	600272	keystroke_s	s	n/a
300.181	0.0745	600362	keystroke_u	u	n/a
300.3605	0.105	600721	keystroke_m	m	n/a
300.4955	0.105	600991	keystroke_p	p	n/a
300.6015	0.104	601203	keystroke_t	t	n/a
300.7205	0.075	601441	keystroke_i	i	n/a
300.7505	0.075	601501	keystroke_o	o	n/a
300.8705	0.12	601741	keystroke_n	n	n/a
300.9455	0.09	601891	keystroke_s	s	n/a
301.0205	0.12	602041	keystroke_Key.space	Key.space	n/a
301.1555	0.12	602311	keystroke_d	d	n/a
301.2155	0.105	602431	keystroke_e	e	n/a
301.3955	0.105	602791	keystroke_e	e	n/a
301.5305	0.09	603061	keystroke_p	p	n/a
301.6355	0.105	603271	keystroke_e	e	n/a
301.6955	0.09	603391	keystroke_r	r	n/a
301.7555	0.105	603511	keystroke_Key.space	Key.space	n/a
301.9055	0.09	603811	keystroke_s	s	n/a
302.0855	0.105	604171	keystroke_e	e	n/a
302.1605	0.105	604321	keystroke_a	a	n/a
302.3105	0.105	604621	keystroke_t	t	n/a
302.6555	0.105	605311	keystroke_Key.enter	Key.enter	n/a
302.7655	4.752	605531	prompt	n/a	papers nutten subscribers iceland\n
303.6905	0.09	607381	keystroke_p	p	n/a
303.7655	0.0905	607531	keystroke_a	a	n/a
303.8705	0.09	607741	keystroke_p	p	n/a
303.9455	0.15	607891	keystroke_e	e	n/a
303.9755	0.105	607951	keystroke_r	r	n/a
304.0505	0.105	608101	keystroke_s	s	n/a
304.1105	0.075	608221	keystroke_Key.space	Key.space	n/a
304.2605	0.135	608521	keystroke_n	n	n/a
304.3355	0.09	608671	keystroke_u	u	n/a
304.3805	0.06	608761	keystroke_t	t	n/a
304.5155	0.106	609031	keystroke_t	t	n/a
304.5605	0.135	609121	keystroke_e	e	n/a
304.6355	0.09	609271	keystroke_n	n	n/a
304.6805	0.135	609361	keystroke_Key.space	Key.space	n/a
305.0705	0.075	610141	keystroke_s	s	n/a
305.1605	0.105	610321	keystroke_u	u	n/a
305.2805	0.075	610561	keystroke_b	b	n/a
305.4155	0.165	610831	keystroke_s	s	n/a
305.5355	0.075	611071	keystroke_c	c	n/a
305.7455	0.075	611491	keystroke_r	r	n/a
305.8055	0.12	611611	keystroke_i	i	n/a
305.9105	0.075	611821	keystroke_b	b	n/a
306.0305	0.195	612061	keystroke_e	e	n/a
306.1055	0.135	612211	keystroke_r	r	n/a
306.2405	0.06	612481	keystroke_s	s	n/a
306.2855	0.075	612571	keystroke_Key.space	Key.space	n/a
306.7355	0.09	613471	keystroke_i	i	n/a
306.8405	0.09	613681	keystroke_c	c	n/a
306.8705	0.135	613741	keystroke_e	e	n/a
306.9905	0.09	613981	keystroke_l	l	n/a
307.0955	0.075	614191	keystroke_a	a	n/a
307.2155	0.075	614431	keystroke_n	n	n/a
307.2605	0.09	614521	keystroke_d	d	n/a
307.4255	0.09	614851	keystroke_Key.enter	Key.enter	n/a
307.522	4.87	615044	prompt	n/a	this's begun captured pics\n
308.2355	0.075	616471	keystroke_t	t	n/a
308.2955	0.12	616591	keystroke_h	h	n/a
308.3405	0.09	616681	keystroke_i	i	n/a
308.596	0.105	617192	keystroke_s	s	n/a
308.821	0.105	617642	keystroke_'	'	n/a
309.016	0.105	618032	keystroke_s	s	n/a
309.166	0.105	618332	keystroke_Key.space	Key.space	n/a
309.556	0.09	619112	keystroke_b	b	n/a
309.7655	0.0455	619531	keystroke_g	g	n/a
310.26	0.031	620520	keystroke_Key.backspace	Key.backspace	n/a
310.276	0.0595	620552	keystroke_e	e	n/a
310.381	0.104	620762	keystroke_g	g	n/a
310.456	0.074	620912	keystroke_u	u	n/a
310.575	0.121	621150	keystroke_n	n	n/a
310.621	0.135	621242	keystroke_Key.space	Key.space	n/a
310.846	0.09	621692	keystroke_c	c	n/a
310.876	0.105	621752	keystroke_a	a	n/a
310.936	0.105	621872	keystroke_p	p	n/a
311.101	0.09	622202	keystroke_t	t	n/a
311.221	0.09	622442	keystroke_u	u	n/a
311.296	0.105	622592	keystroke_r	r	n/a
311.356	0.165	622712	keystroke_e	e	n/a
311.491	0.105	622982	keystroke_d	d	n/a
311.551	0.12	623102	keystroke_Key.space	Key.space	n/a
311.775	0.1355	623550	keystroke_p	p	n/a
311.866	0.1345	623732	keystroke_i	i	n/a
311.9555	0.12	623911	keystroke_c	c	n/a
312.0305	0.12	624061	keystroke_s	s	n/a
312.2255	0.165	624451	keystroke_Key.enter	Key.enter	n/a
312.395	4.3625	624790	prompt	n/a	nobody possess voted strategy\n
313.0055	0.09	626011	keystroke_n	n	n/a
313.1855	0.0755	626371	keystroke_o	o	n/a
313.2455	0.09	626491	keystroke_b	b	n/a
313.381	0.0595	626762	keystroke_o	o	n/a
313.41	0.1055	626820	keystroke_d	d	n/a
313.471	0.1045	626942	keystroke_y	y	n/a
313.546	0.074	627092	keystroke_Key.space	Key.space	n/a
313.6655	0.105	627331	keystroke_p	p	n/a
313.741	0.119	627482	keystroke_o	o	n/a
313.8305	0.0905	627661	keystroke_s	s	n/a
314.011	0.06	628022	keystroke_s	s	n/a
314.191	0.12	628382	keystroke_e	e	n/a
314.251	0.09	628502	keystroke_s	s	n/a
314.431	0.09	628862	keystroke_s	s	n/a
314.566	0.105	629132	keystroke_Key.space	Key.space	n/a
314.746	0.12	629492	keystroke_v	v	n/a
314.851	0.105	629702	keystroke_o	o	n/a
314.986	0.09	629972	keystroke_t	t	n/a
315.076	0.135	630152	keystroke_e	e	n/a
315.196	0.105	630392	keystroke_d	d	n/a
315.316	0.075	630632	keystroke_Key.space	Key.space	n/a
315.466	0.09	630932	keystroke_s	s	n/a
315.586	0.074	631172	keystroke_t	t	n/a
315.766	0.074	631532	keystroke_r	r	n/a
315.796	0.09	631592	keystroke_a	a	n/a
316.036	0.105	632072	keystroke_t	t	n/a
316.111	0.119	632222	keystroke_e	e	n/a
316.246	0.134	632492	keystroke_g	g	n/a
316.351	0.09	632702	keystroke_y	y	n/a
316.65	0.105	633300	keystroke_Key.enter	Key.enter	n/a
316.76	4.662	633520	prompt	n/a	partner comics tattoo bible\n
317.386	0.089	634772	keystroke_p	p	n/a
317.5955	0.12	635191	keystroke_a	a	n/a
317.67	0.076	635340	keystroke_r	r	n/a
317.8205	0.0895	635641	keystroke_t	t	n/a
317.9255	0.075	635851	keystroke_n	n	n/a
317.9855	0.135	635971	keystroke_e	e	n/a
318.0305	0.105	636061	keystroke_r	r	n/a
318.1055	0.105	636211	keystroke_Key.space	Key.space	n/a
318.3005	0.075	636601	keystroke_c	c	n/a
318.3605	0.09	636721	keystroke_o	o	n/a
318.5105	0.1205	637021	keystroke_m	m	n/a
318.5705	0.1055	637141	keystroke_i	i	n/a
318.616	0.09	637232	keystroke_c	c	n/a
318.661	0.105	637322	keystroke_s	s	n/a
318.751	0.12	637502	keystroke_Key.space	Key.space	n/a
318.976	0.09	637952	keystroke_t	t	n/a
319.036	0.09	638072	keystroke_a	a	n/a
319.4405	0.09	638881	keystroke_t	t	n/a
320.0255	0.045	640051	keystroke_t	t	n/a
320.1305	0.075	640261	keystroke_o	o	n/a
320.2805	0.09	640561	keystroke_o	o	n/a
320.5055	0.09	641011	keystroke_Key.space	Key.space	n/a
320.7005	0.09	641401	keystroke_b	b	n/a
320.8055	0.12	641611	keystroke_i	i	n/a
320.9105	0.09	641821	keystroke_b	b	n/a
321.0155	0.105	642031	keystroke_l	l	n/a
321.1355	0.09	642271	keystroke_e	e	n/a
321.3455	0.075	642691	keystroke_Key.enter	Key.enter	n/a
321.4275	5.9795	642855	prompt	n/a	headlines joining netherlands archive\n
322.186	0.12	644372	keystroke_h	h	n/a
322.441	0.09	644882	keystroke_e	e	n/a
322.516	0.135	645032	keystroke_a	a	n/a
322.606	0.105	645212	keystroke_d	d	n/a
322.666	0.105	645332	keystroke_l	l	n/a
322.756	0.06	645512	keystroke_i	i	n/a
322.891	0.09	645782	keystroke_n	n	n/a
322.936	0.135	645872	keystroke_e	e	n/a
322.996	0.12	645992	keystroke_s	s	n/a
323.026	0.105	646052	keystroke_Key.space	Key.space	n/a
323.161	0.03	646322	keystroke_h	h	n/a
323.5505	0.075	647101	keystroke_Key.backspace	Key.backspace	n/a
323.731	0.105	647462	keystroke_j	j	n/a
323.866	0.12	647732	keystroke_o	o	n/a
323.956	0.105	647912	keystroke_i	i	n/a
324.166	0.075	648332	keystroke_n	n	n/a
324.226	0.15	648452	keystroke_i	i	n/a
324.331	0.09	648662	keystroke_n	n	n/a
324.406	0.09	648812	keystroke_g	g	n/a
324.466	0.09	648932	keystroke_Key.space	Key.space	n/a
324.751	0.105	649502	keystroke_n	n	n/a
324.841	0.09	649682	keystroke_e	e	n/a
324.901	0.105	649802	keystroke_t	t	n/a
325.036	0.12	650072	keystroke_h	h	n/a
325.111	0.105	650222	keystroke_e	e	n/a
325.141	0.105	650282	keystroke_r	r	n/a
325.291	0.105	650582	keystroke_l	l	n/a
325.381	0.075	650762	keystroke_a	a	n/a
325.471	0.105	650942	keystroke_n	n	n/a
325.561	0.105	651122	keystroke_d	d	n/a
325.621	0.105	651242	keystroke_s	s	n/a
325.666	0.1195	651332	keystroke_Key.space	Key.space	n/a
325.8305	0.12	651661	keystroke_a	a	n/a
326.0855	0.075	652171	keystroke_r	r	n/a
326.2955	0.105	652591	keystroke_c	c	n/a
326.3855	0.105	652771	keystroke_h	h	n/a
326.4305	0.09	652861	keystroke_i	i	n/a
326.9105	0.12	653821	keystroke_v	v	n/a
326.9555	0.15	653911	keystroke_e	e	n/a
327.3455	0.06	654691	keystroke_Key.enter	Key.enter	n/a
327.41	4.017	654820	prompt	n/a	who's careful active donation\n
328.11	0.105	656220	keystroke_w	w	n/a
328.17	0.075	656340	keystroke_h	h	n/a
328.3205	0.09	656641	keystroke_o	o	n/a
328.635	0.09	657270	keystroke_'	'	n/a
328.77	0.091	657540	keystroke_s	s	n/a
328.891	0.075	657782	keystroke_Key.space	Key.space	n/a
328.996	0.075	657992	keystroke_c	c	n/a
329.026	0.105	658052	keystroke_a	a	n/a
329.191	0.09	658382	keystroke_r	r	n/a
329.251	0.075	658502	keystroke_e	e	n/a
329.371	0.12	658742	keystroke_f	f	n/a
329.416	0.12	658832	keystroke_u	u	n/a
329.476	0.105	658952	keystroke_l	l	n/a
329.521	0.15	659042	keystroke_Key.space	Key.space	n/a
329.836	0.12	659672	keystroke_a	a	n/a
329.896	0.12	659792	keystroke_c	c	n/a
330.151	0.06	660302	keystroke_t	t	n/a
330.226	0.1195	660452	keystroke_i	i	n/a
330.3455	0.135	660691	keystroke_v	v	n/a
330.4055	0.105	660811	keystroke_e	e	n/a
330.4505	0.105	660901	keystroke_Key.space	Key.space	n/a
330.6305	0.105	661261	keystroke_d	d	n/a
330.6755	0.061	661351	keystroke_o	o	n/a
330.7955	0.09	661591	keystroke_n	n	n/a
330.8705	0.09	661741	keystroke_a	a	n/a
330.9005	0.12	661801	keystroke_t	t	n/a
331.0055	0.09	662011	keystroke_i	i	n/a
331.0505	0.075	662101	keystroke_o	o	n/a
331.2005	0.0755	662401	keystroke_n	n	n/a
331.351	0.075	662702	keystroke_Key.enter	Key.enter	n/a
331.4295	4.4075	662859	prompt	n/a	associate fatal mercedes exports\n
332.026	0.105	664052	keystroke_a	a	n/a
332.086	0.09	664172	keystroke_s	s	n/a
332.236	0.09	664472	keystroke_s	s	n/a
332.296	0.105	664592	keystroke_o	o	n/a
332.446	0.105	664892	keystroke_c	c	n/a
332.581	0.105	665162	keystroke_i	i	n/a
332.641	0.12	665282	keystroke_a	a	n/a
332.731	0.135	665462	keystroke_t	t	n/a
332.806	0.135	665612	keystroke_e	e	n/a
332.881	0.09	665762	keystroke_Key.space	Key.space	n/a
333.031	0.105	666062	keystroke_f	f	n/a
333.121	0.09	666242	keystroke_a	a	n/a
333.226	0.12	666452	keystroke_t	t	n/a
333.301	0.09	666602	keystroke_a	a	n/a
333.331	0.105	666662	keystroke_l	l	n/a
333.376	0.12	666752	keystroke_Key.space	Key.space	n/a
333.631	0.12	667262	keystroke_m	m	n/a
333.721	0.09	667442	keystroke_e	e	n/a
333.766	0.09	667532	keystroke_r	r	n/a
334.126	0.09	668252	keystroke_c	c	n/a
334.306	0.1045	668612	keystroke_e	e	n/a
334.4705	0.1655	668941	keystroke_d	d	n/a
334.5605	0.1655	669121	keystroke_e	e	n/a
334.651	0.105	669302	keystroke_s	s	n/a
334.756	0.105	669512	keystroke_Key.space	Key.space	n/a
334.906	0.075	669812	keystroke_e	e	n/a
335.056	0.09	670112	keystroke_x	x	n/a
335.116	0.12	670232	keystroke_p	p	n/a
335.191	0.135	670382	keystroke_o	o	n/a
335.311	0.075	670622	keystroke_r	r	n/a
335.461	0.105	670922	keystroke_t	t	n/a
335.506	0.12	671012	keystroke_s	s	n/a
335.746	0.09	671492	keystroke_Key.enter	Key.enter	n/a
335.84	4.662	671680	prompt	n/a	congo channel caring picnic\n
336.526	0.09	673052	keystroke_c	c	n/a
336.571	0.06	673142	keystroke_o	o	n/a
336.676	0.105	673352	keystroke_n	n	n/a
336.781	0.09	673562	keystroke_g	g	n/a
336.856	0.09	673712	keystroke_o	o	n/a
336.901	0.12	673802	keystroke_Key.space	Key.space	n/a
337.051	0.09	674102	keystroke_c	c	n/a
337.156	0.075	674312	keystroke_h	h	n/a
337.321	0.06	674642	keystroke_a	a	n/a
337.441	0.075	674882	keystroke_n	n	n/a
337.651	0.075	675302	keystroke_n	n	n/a
337.771	0.09	675542	keystroke_e	e	n/a
337.861	0.105	675722	keystroke_l	l	n/a
337.921	0.105	675842	keystroke_Key.space	Key.space	n/a
338.221	0.105	676442	keystroke_c	c	n/a
338.266	0.075	676532	keystroke_a	a	n/a
338.4455	0.09	676891	keystroke_r	r	n/a
338.5205	0.12	677041	keystroke_i	i	n/a
338.5955	0.105	677191	keystroke_n	n	n/a
338.6555	0.09	677311	keystroke_g	g	n/a
338.7605	0.045	677521	keystroke_Key.space	Key.space	n/a
338.8205	0.09	677641	keystroke_p	p	n/a
339.0455	0.075	678091	keystroke_i	i	n/a
339.1055	0.135	678211	keystroke_c	c	n/a
339.1955	0.12	678391	keystroke_n	n	n/a
339.2555	0.105	678511	keystroke_i	i	n/a
339.4355	0.12	678871	keystroke_c	c	n/a
340.3805	0.12	680761	keystroke_Key.enter	Key.enter	n/a
340.505	3.777	681010	prompt	n/a	medical younger improve dicke\n
341.19	0.1055	682380	keystroke_m	m	n/a
341.265	0.1205	682530	keystroke_e	e	n/a
341.3255	0.09	682651	keystroke_d	d	n/a
341.4305	0.09	682861	keystroke_i	i	n/a
341.5355	0.075	683071	keystroke_c	c	n/a
341.5655	0.12	683131	keystroke_a	a	n/a
341.6255	0.105	683251	keystroke_l	l	n/a
341.7005	0.1055	683401	keystroke_Key.space	Key.space	n/a
341.896	0.09	683792	keystroke_y	y	n/a
341.926	0.12	683852	keystroke_o	o	n/a
342.001	0.06	684002	keystroke_u	u	n/a
342.121	0.1045	684242	keystroke_n	n	n/a
342.151	0.0595	684302	keystroke_g	g	n/a
342.2705	0.12	684541	keystroke_e	e	n/a
342.3005	0.12	684601	keystroke_r	r	n/a
342.4055	0.06	684811	keystroke_Key.space	Key.space	n/a
342.5405	0.0905	685081	keystroke_i	i	n/a
342.661	0.09	685322	keystroke_m	m	n/a
342.811	0.059	685622	keystroke_p	p	n/a
342.885	0.106	685770	keystroke_r	r	n/a
342.976	0.09	685952	keystroke_o	o	n/a
343.096	0.105	686192	keystroke_v	v	n/a
343.125	0.136	686250	keystroke_e	e	n/a
343.186	0.105	686372	keystroke_Key.space	Key.space	n/a
343.651	0.075	687302	keystroke_d	d	n/a
343.726	0.09	687452	keystroke_i	i	n/a
343.846	0.09	687692	keystroke_c	c	n/a
343.921	0.09	687842	keystroke_k	k	n/a
344.026	0.0895	688052	keystroke_e	e	n/a
344.1755	0.105	688351	keystroke_Key.enter	Key.enter	n/a
344.287	10.2105	688574	prompt	n/a	fragrances supposed populations brief\n
345.0605	0.06	690121	keystroke_f	f	n/a
345.2105	0.0745	690421	keystroke_r	r	n/a
345.255	0.105	690510	keystroke_a	a	n/a
346.065	0.09	692130	keystroke_g	g	n/a
346.921	0.104	693842	keystroke_r	r	n/a
346.98	0.09	693960	keystroke_a	a	n/a
347.055	0.105	694110	keystroke_n	n	n/a
347.19	0.121	694380	keystroke_c	c	n/a
347.235	0.151	694470	keystroke_e	e	n/a
347.325	0.106	694650	keystroke_s	s	n/a
347.415	0.121	694830	keystroke_Key.space	Key.space	n/a
348.09	0.075	696180	keystroke_s	s	n/a
348.15	0.06	696300	keystroke_u	u	n/a
348.345	0.06	696690	keystroke_p	p	n/a
348.48	0.09	696960	keystroke_p	p	n/a
348.511	0.1045	697022	keystroke_o	o	n/a
348.555	0.1205	697110	keystroke_s	s	n/a
348.5855	0.15	697171	keystroke_e	e	n/a
348.6765	0.074	697353	keystroke_d	d	n/a
348.7655	0.075	697531	keystroke_Key.space	Key.space	n/a
349.4105	0.06	698821	keystroke_p	p	n/a
349.5005	0.12	699001	keystroke_o	o	n/a
349.5905	0.09	699181	keystroke_p	p	n/a
349.7705	0.09	699541	keystroke_u	u	n/a
349.8305	0.075	699661	keystroke_l	l	n/a
349.8905	0.075	699781	keystroke_a	a	n/a
349.9355	0.12	699871	keystroke_t	t	n/a
350.0105	0.105	700021	keystroke_i	i	n/a
350.0855	0.045	700171	keystroke_o	o	n/a
350.2055	0.09	700411	keystroke_s	s	n/a
350.2205	0.075	700441	keystroke_n	n	n/a
350.3555	0.105	700711	keystroke_Key.space	Key.space	n/a
350.5955	0.09	701191	keystroke_b	b	n/a
350.6855	0.105	701371	keystroke_r	r	n/a
350.8055	0.09	701611	keystroke_i	i	n/a
350.9105	0.06	701821	keystroke_e	e	n/a
351.571	0.075	703142	keystroke_Key.backspace	Key.backspace	n/a
351.886	0.06	703772	keystroke_Key.backspace	Key.backspace	n/a
352.171	0.06	704342	keystroke_Key.backspace	Key.backspace	n/a
352.471	0.075	704942	keystroke_Key.backspace	Key.backspace	n/a
352.786	0.075	705572	keystroke_Key.backspace	Key.backspace	n/a
353.086	0.075	706172	keystroke_Key.backspace	Key.backspace	n/a
353.341	0.074	706682	keystroke_Key.backspace	Key.backspace	n/a
353.595	0.09	707190	keystroke_n	n	n/a
353.67	0.09	707340	keystroke_s	s	n/a
353.761	0.089	707522	keystroke_Key.space	Key.space	n/a
353.88	0.12	707760	keystroke_b	b	n/a
353.985	0.09	707970	keystroke_r	r	n/a
354.091	0.089	708182	keystroke_i	i	n/a
354.151	0.149	708302	keystroke_e	e	n/a
354.226	0.119	708452	keystroke_f	f	n/a
354.39	0.105	708780	keystroke_Key.enter	Key.enter	n/a
354.5005	3.4465	709001	prompt	n/a	realtor hence sticks barnes\n
355.2	0.12	710400	keystroke_r	r	n/a
355.26	0.12	710520	keystroke_e	e	n/a
355.395	0.1355	710790	keystroke_a	a	n/a
355.5155	0.12	711031	keystroke_l	l	n/a
355.6805	0.075	711361	keystroke_t	t	n/a
355.7855	0.09	711571	keystroke_o	o	n/a
355.8605	0.105	711721	keystroke_r	r	n/a
355.9355	0.09	711871	keystroke_Key.space	Key.space	n/a
356.1455	0.075	712291	keystroke_h	h	n/a
356.2355	0.0905	712471	keystroke_e	e	n/a
356.341	0.09	712682	keystroke_n	n	n/a
356.416	0.105	712832	keystroke_c	c	n/a
356.476	0.12	712952	keystroke_e	e	n/a
356.551	0.105	713102	keystroke_Key.space	Key.space	n/a
356.671	0.12	713342	keystroke_s	s	n/a
356.731	0.075	713462	keystroke_t	t	n/a
356.806	0.09	713612	keystroke_i	i	n/a
356.926	0.105	713852	keystroke_c	c	n/a
356.986	0.105	713972	keystroke_k	k	n/a
357.076	0.105	714152	keystroke_s	s	n/a
357.166	0.075	714332	keystroke_Key.space	Key.space	n/a
357.376	0.09	714752	keystroke_b	b	n/a
357.436	0.09	714872	keystroke_a	a	n/a
357.511	0.09	715022	keystroke_r	r	n/a
357.586	0.09	715172	keystroke_n	n	n/a
357.646	0.15	715292	keystroke_e	e	n/a
357.721	0.105	715442	keystroke_s	s	n/a
357.856	0.09	715712	keystroke_Key.enter	Key.enter	n/a
357.9505	3.897	715901	prompt	n/a	huge texas python finnish\n
358.666	0.135	717332	keystroke_h	h	n/a
358.726	0.105	717452	keystroke_u	u	n/a
358.801	0.09	717602	keystroke_g	g	n/a
358.846	0.105	717692	keystroke_e	e	n/a
358.906	0.12	717812	keystroke_Key.space	Key.space	n/a
359.041	0.135	718082	keystroke_t	t	n/a
359.296	0.09	718592	keystroke_e	e	n/a
359.506	0.09	719012	keystroke_x	x	n/a
359.566	0.135	719132	keystroke_a	a	n/a
359.671	0.12	719342	keystroke_s	s	n/a
359.761	0.105	719522	keystroke_Key.space	Key.space	n/a
360.046	0.09	720092	keystroke_p	p	n/a
360.151	0.075	720302	keystroke_y	y	n/a
360.376	0.12	720752	keystroke_t	t	n/a
360.436	0.105	720872	keystroke_h	h	n/a
360.511	0.075	721022	keystroke_o	o	n/a
360.616	0.105	721232	keystroke_n	n	n/a
360.69	0.106	721380	keystroke_Key.space	Key.space	n/a
360.796	0.12	721592	keystroke_f	f	n/a
360.886	0.075	721772	keystroke_i	i	n/a
361.021	0.074	722042	keystroke_n	n	n/a
361.156	0.104	722312	keystroke_n	n	n/a
361.216	0.09	722432	keystroke_i	i	n/a
361.321	0.119	722642	keystroke_s	s	n/a
361.411	0.089	722822	keystroke_h	h	n/a
361.785	0.06	723570	keystroke_Key.enter	Key.enter	n/a
361.8505	5.0815	723701	prompt	n/a	inputs earlier indie thereafter\n
362.521	0.0595	725042	keystroke_i	i	n/a
362.7005	0.09	725401	keystroke_n	n	n/a
362.956	0.015	725912	keystroke_-	-	n/a
363.031	0.075	726062	keystroke_u	u	n/a
363.376	0.09	726752	keystroke_Key.backspace	Key.backspace	n/a
363.646	0.075	727292	keystroke_Key.backspace	Key.backspace	n/a
364.081	0.075	728162	keystroke_p	p	n/a
364.231	0.0895	728462	keystroke_u	u	n/a
364.291	0.0895	728582	keystroke_t	t	n/a
364.3505	0.09	728701	keystroke_s	s	n/a
364.3955	0.105	728791	keystroke_Key.space	Key.space	n/a
364.5455	0.075	729091	keystroke_e	e	n/a
364.5755	0.135	729151	keystroke_a	a	n/a
364.7555	0.09	729511	keystroke_r	r	n/a
365.0105	0.105	730021	keystroke_l	l	n/a
365.0855	0.105	730171	keystroke_i	i	n/a
365.1455	0.09	730291	keystroke_e	e	n/a
365.1755	0.12	730351	keystroke_r	r	n/a
365.2655	0.09	730531	keystroke_Key.space	Key.space	n/a
365.4155	0.075	730831	keystroke_i	i	n/a
365.4755	0.12	730951	keystroke_n	n	n/a
365.5805	0.105	731161	keystroke_d	d	n/a
365.6705	0.09	731341	keystroke_i	i	n/a
365.7455	0.105	731491	keystroke_e	e	n/a
365.8055	0.105	731611	keystroke_Key.space	Key.space	n/a
365.9405	0.09	731881	keystroke_t	t	n/a
366.0315	0.1035	732063	keystroke_h	h	n/a
366.105	0.09	732210	keystroke_e	e	n/a
366.15	0.15	732300	keystroke_r	r	n/a
366.27	0.105	732540	keystroke_e	e	n/a
366.39	0.12	732780	keystroke_a	a	n/a
366.48	0.06	732960	keystroke_f	f	n/a
366.615	0.0905	733230	keystroke_t	t	n/a
366.6905	0.12	733381	keystroke_e	e	n/a
366.7655	0.105	733531	keystroke_r	r	n/a
366.8855	0.0455	733771	keystroke_Key.enter	Key.enter	n/a
366.9365	4.6005	733873	prompt	n/a	her prior ranch citizenship\n
367.651	0.075	735302	keystroke_h	h	n/a
367.711	0.135	735422	keystroke_e	e	n/a
367.771	0.105	735542	keystroke_r	r	n/a
367.861	0.075	735722	keystroke_Key.space	Key.space	n/a
368.041	0.09	736082	keystroke_p	p	n/a
368.146	0.105	736292	keystroke_r	r	n/a
368.206	0.12	736412	keystroke_i	i	n/a
368.266	0.09	736532	keystroke_o	o	n/a
368.386	0.1045	736772	keystroke_r	r	n/a
368.7155	0.075	737431	keystroke_Key.space	Key.space	n/a
368.8655	0.12	737731	keystroke_r	r	n/a
369.0755	0.105	738151	keystroke_a	a	n/a
369.1955	0.09	738391	keystroke_n	n	n/a
369.3155	0.1505	738631	keystroke_c	c	n/a
369.421	0.09	738842	keystroke_h	h	n/a
369.481	0.09	738962	keystroke_Key.space	Key.space	n/a
369.646	0.09	739292	keystroke_c	c	n/a
369.721	0.12	739442	keystroke_i	i	n/a
369.931	0.075	739862	keystroke_t	t	n/a
370.036	0.12	740072	keystroke_i	i	n/a
370.141	0.12	740282	keystroke_z	z	n/a
370.216	0.12	740432	keystroke_e	e	n/a
370.276	0.105	740552	keystroke_n	n	n/a
370.411	0.105	740822	keystroke_s	s	n/a
370.501	0.12	741002	keystroke_h	h	n/a
370.576	0.105	741152	keystroke_i	i	n/a
370.636	0.105	741272	keystroke_p	p	n/a
371.4155	0.12	742831	keystroke_Key.enter	Key.enter	n/a
371.54	6.9125	743080	prompt	n/a	interfaces basketball stops proceed\n
372.3455	0.075	744691	keystroke_i	i	n/a
372.4655	0.09	744931	keystroke_n	n	n/a
372.616	0.135	745232	keystroke_e	e	n/a
372.706	0.105	745412	keystroke_r	r	n/a
373.276	0.045	746552	keystroke_Key.backspace	Key.backspace	n/a
373.411	0.09	746822	keystroke_Key.backspace	Key.backspace	n/a
373.486	0.075	746972	keystroke_t	t	n/a
373.606	0.135	747212	keystroke_e	e	n/a
373.666	0.105	747332	keystroke_r	r	n/a
373.876	0.105	747752	keystroke_f	f	n/a
373.951	0.12	747902	keystroke_a	a	n/a
374.086	0.105	748172	keystroke_c	c	n/a
374.296	0.105	748592	keystroke_e	e	n/a
374.341	0.15	748682	keystroke_s	s	n/a
375.0905	0.105	750181	keystroke_Key.space	Key.space	n/a
375.301	0.09	750602	keystroke_b	b	n/a
375.361	0.105	750722	keystroke_a	a	n/a
375.421	0.09	750842	keystroke_s	s	n/a
375.496	0.105	750992	keystroke_k	k	n/a
375.616	0.105	751232	keystroke_e	e	n/a
375.676	0.075	751352	keystroke_t	t	n/a
375.87	0.121	751740	keystroke_b	b	n/a
375.931	0.135	751862	keystroke_a	a	n/a
375.976	0.075	751952	keystroke_l	l	n/a
376.126	0.09	752252	keystroke_l	l	n/a
376.185	0.106	752370	keystroke_Key.space	Key.space	n/a
376.336	0.0895	752672	keystroke_s	s	n/a
376.395	0.0755	752790	keystroke_t	t	n/a
376.4555	0.12	752911	keystroke_o	o	n/a
376.5005	0.105	753001	keystroke_p	p	n/a
376.5455	0.105	753091	keystroke_s	s	n/a
376.6655	0.09	753331	keystroke_Key.space	Key.space	n/a
377.2205	0.1205	754441	keystroke_p	p	n/a
377.3105	0.09	754621	keystroke_r	r	n/a
377.431	0.135	754862	keystroke_o	o	n/a
377.6255	0.09	755251	keystroke_c	c	n/a
377.851	0.075	755702	keystroke_e	e	n/a
377.986	0.135	755972	keystroke_e	e	n/a
