onset	duration	sample	value	key	prompt_text
23.86	8.377	47720	prompt	n/a	the quick brown fox jumps over a lazy dog\n
25.1845	0.0285	50369	keystroke_t	t	n/a
25.198	0.135	50396	keystroke_h	h	n/a
25.318	0.0905	50636	keystroke_e	e	n/a
25.3785	0.149	50757	keystroke_Key.space	Key.space	n/a
25.6335	0.09	51267	keystroke_q	q	n/a
25.7685	0.12	51537	keystroke_y	y	n/a
25.8435	0.12	51687	keystroke_u	u	n/a
26.1885	0.075	52377	keystroke_Key.backspace	Key.backspace	n/a
26.3385	0.06	52677	keystroke_Key.backspace	Key.backspace	n/a
26.924	0.134	53848	keystroke_u	u	n/a
27.013	0.1205	54026	keystroke_i	i	n/a
27.149	0.1045	54298	keystroke_c	c	n/a
27.269	0.0895	54538	keystroke_k	k	n/a
27.5835	0.075	55167	keystroke_Key.space	Key.space	n/a
27.7785	0.0745	55557	keystroke_b	b	n/a
27.928	0.06	55856	keystroke_r	r	n/a
28.018	0.0755	56036	keystroke_o	o	n/a
28.213	0.0755	56426	keystroke_w	w	n/a
28.3335	0.12	56667	keystroke_n	n	n/a
28.4385	0.075	56877	keystroke_Key.space	Key.space	n/a
28.5585	0.105	57117	keystroke_f	f	n/a
28.6785	0.075	57357	keystroke_o	o	n/a
28.828	0.0755	57656	keystroke_x	x	n/a
28.933	0.09	57866	keystroke_Key.space	Key.space	n/a
29.1135	0.09	58227	keystroke_j	j	n/a
29.293	0.0605	58586	keystroke_u	u	n/a
29.5035	0.075	59007	keystroke_m	m	n/a
29.608	0.0905	59216	keystroke_p	p	n/a
29.728	0.075	59456	keystroke_s	s	n/a
29.8485	0.0595	59697	keystroke_Key.space	Key.space	n/a
29.909	0.1045	59818	keystroke_o	o	n/a
30.028	0.1355	60056	keystroke_v	v	n/a
30.193	0.165	60386	keystroke_e	e	n/a
30.313	0.1055	60626	keystroke_r	r	n/a
30.4035	0.089	60807	keystroke_Key.space	Key.space	n/a
30.538	0.0905	61076	keystroke_a	a	n/a
30.613	0.0745	61226	keystroke_Key.space	Key.space	n/a
30.8385	0.1055	61677	keystroke_l	l	n/a
30.9285	0.0745	61857	keystroke_a	a	n/a
31.094	0.1045	62188	keystroke_z	z	n/a
31.2285	0.135	62457	keystroke_y	y	n/a
31.333	0.0905	62666	keystroke_Key.space	Key.space	n/a
31.4535	0.075	62907	keystroke_d	d	n/a
31.543	0.075	63086	keystroke_o	o	n/a
31.6635	0.06	63327	keystroke_g	g	n/a
32.1885	0.0445	64377	keystroke_Key.enter	Key.enter	n/a
32.244	5.4215	64488	prompt	n/a	nearest thunder kills sudan\n
32.9235	0.09	65847	keystroke_n	n	n/a
33.028	0.15	66056	keystroke_e	e	n/a
33.118	0.1205	66236	keystroke_a	a	n/a
33.223	0.1055	66446	keystroke_r	r	n/a
33.4035	0.1355	66807	keystroke_e	e	n/a
33.4935	0.15	66987	keystroke_s	s	n/a
33.5985	0.075	67197	keystroke_t	t	n/a
33.7035	0.0895	67407	keystroke_Key.space	Key.space	n/a
34.018	0.075	68036	keystroke_t	t	n/a
34.0785	0.105	68157	keystroke_h	h	n/a
34.213	0.1355	68426	keystroke_u	u	n/a
34.3035	0.0895	68607	keystroke_n	n	n/a
34.378	0.076	68756	keystroke_d	d	n/a
34.543	0.12	69086	keystroke_e	e	n/a
34.6335	0.075	69267	keystroke_r	r	n/a
34.7235	0.1045	69447	keystroke_Key.space	Key.space	n/a
34.8585	0.12	69717	keystroke_k	k	n/a
35.068	0.075	70136	keystroke_i	i	n/a
35.2485	0.06	70497	keystroke_l	l	n/a
35.368	0.106	70736	keystroke_l	l	n/a
35.4585	0.0745	70917	keystroke_s	s	n/a
35.5785	0.0895	71157	keystroke_Key.space	Key.space	n/a
35.669	0.1045	71338	keystroke_s	s	n/a
35.789	0.074	71578	keystroke_u	u	n/a
35.9385	0.255	71877	keystroke_d	d	n/a
36.268	0.076	72536	keystroke_a	a	n/a
36.358	0.105	72716	keystroke_n	n	n/a
37.603	0.06	75206	keystroke_Key.enter	Key.enter	n/a
37.6695	9.2815	75339	prompt	n/a	guestbook internationally then fairfield\n
38.458	0.061	76916	keystroke_g	g	n/a
38.594	0.074	77188	keystroke_u	u	n/a
38.7135	0.18	77427	keystroke_e	e	n/a
38.759	0.1485	77518	keystroke_s	s	n/a
38.8785	0.075	77757	keystroke_t	t	n/a
39.044	0.0595	78088	keystroke_b	b	n/a
39.209	0.0595	78418	keystroke_o	o	n/a
39.3435	0.15	78687	keystroke_o	o	n/a
39.4635	0.12	78927	keystroke_k	k	n/a
39.5385	0.09	79077	keystroke_Key.space	Key.space	n/a
39.7635	0.1205	79527	keystroke_i	i	n/a
39.8535	0.075	79707	keystroke_m	m	n/a
39.9885	0.09	79977	keystroke_m	m	n/a
40.348	0.0605	80696	keystroke_Key.backspace	Key.backspace	n/a
40.4835	0.0745	80967	keystroke_Key.backspace	Key.backspace	n/a
40.678	0.09	81356	keystroke_n	n	n/a
41.2785	0.09	82557	keystroke_t	t	n/a
41.3985	0.12	82797	keystroke_e	e	n/a
41.489	0.104	82978	keystroke_r	r	n/a
41.654	0.12	83308	keystroke_n	n	n/a
41.744	0.075	83488	keystroke_a	a	n/a
41.878	0.3005	83756	keystroke_i	i	n/a
42.014	0.165	84028	keystroke_o	o	n/a
42.089	0.119	84178	keystroke_n	n	n/a
42.5235	0.06	85047	keystroke_Key.backspace	Key.backspace	n/a
42.6735	0.06	85347	keystroke_Key.backspace	Key.backspace	n/a
42.8085	0.0895	85617	keystroke_Key.backspace	Key.backspace	n/a
42.899	0.0745	85798	keystroke_t	t	n/a
43.064	0.2245	86128	keystroke_i	i	n/a
43.1235	0.15	86247	keystroke_o	o	n/a
43.1985	0.105	86397	keystroke_n	n	n/a
43.3485	0.0755	86697	keystroke_a	a	n/a
43.4535	0.06	86907	keystroke_l	l	n/a
43.5885	0.0895	87177	keystroke_l	l	n/a
43.8135	0.0745	87627	keystroke_y	y	n/a
43.9035	0.076	87807	keystroke_Key.space	Key.space	n/a
44.608	0.076	89216	keystroke_t	t	n/a
44.7285	0.09	89457	keystroke_h	h	n/a
44.8035	0.09	89607	keystroke_e	e	n/a
44.954	0.12	89908	keystroke_n	n	n/a
45.013	0.09	90026	keystroke_Key.space	Key.space	n/a
45.134	0.074	90268	keystroke_f	f	n/a
45.404	0.06	90808	keystroke_a	a	n/a
45.569	0.09	91138	keystroke_i	i	n/a
45.6735	0.06	91347	keystroke_r	r	n/a
45.8535	0.075	91707	keystroke_f	f	n/a
45.9735	0.105	91947	keystroke_i	i	n/a
46.0935	0.045	92187	keystroke_e	e	n/a
46.1685	0.09	92337	keystroke_l	l	n/a
46.2735	0.06	92547	keystroke_d	d	n/a
46.8585	0.09	93717	keystroke_Key.enter	Key.enter	n/a
46.956	7.7955	93912	prompt	n/a	framing journalist generates connect\n
47.5785	0.0605	95157	keystroke_t	t	n/a
48.0885	0.03	96177	keystroke_Key.backspace	Key.backspace	n/a
48.1485	0.075	96297	keystroke_f	f	n/a
48.328	0.0755	96656	keystroke_r	r	n/a
48.389	0.075	96778	keystroke_a	a	n/a
48.479	0.1045	96958	keystroke_m	m	n/a
48.7035	0.105	97407	keystroke_i	i	n/a
48.764	0.1045	97528	keystroke_n	n	n/a
48.8695	0.059	97739	keystroke_g	g	n/a
48.9435	0.075	97887	keystroke_Key.space	Key.space	n/a
49.604	0.1045	99208	keystroke_j	j	n/a
49.7685	0.1355	99537	keystroke_o	o	n/a
49.859	0.104	99718	keystroke_u	u	n/a
49.979	0.075	99958	keystroke_r	r	n/a
50.1135	0.0895	100227	keystroke_n	n	n/a
50.2335	0.09	100467	keystroke_a	a	n/a
50.4745	0.104	100949	keystroke_l	l	n/a
50.6535	0.06	101307	keystroke_i	i	n/a
50.7285	0.1505	101457	keystroke_s	s	n/a
50.8335	0.075	101667	keystroke_t	t	n/a
50.9535	0.075	101907	keystroke_Key.space	Key.space	n/a
51.3435	0.075	102687	keystroke_g	g	n/a
51.449	0.0745	102898	keystroke_e	e	n/a
51.524	0.0895	103048	keystroke_n	n	n/a
51.6435	0.1355	103287	keystroke_e	e	n/a
51.7485	0.0905	103497	keystroke_r	r	n/a
51.898	0.0755	103796	keystroke_a	a	n/a
51.988	0.121	103976	keystroke_t	t	n/a
52.0785	0.105	104157	keystroke_e	e	n/a
52.2435	0.09	104487	keystroke_s	s	n/a
52.379	0.0745	104758	keystroke_Key.space	Key.space	n/a
53.1435	0.1055	106287	keystroke_c	c	n/a
53.2185	0.1205	106437	keystroke_o	o	n/a
53.3535	0.045	106707	keystroke_n	n	n/a
53.474	0.0895	106948	keystroke_n	n	n/a
53.623	0.075	107246	keystroke_e	e	n/a
53.6685	0.1045	107337	keystroke_c	c	n/a
53.924	0.045	107848	keystroke_t	t	n/a
54.674	0.075	109348	keystroke_Key.enter	Key.enter	n/a
54.755	6.5365	109510	prompt	n/a	connector estate voted robin\n
55.394	0.0895	110788	keystroke_c	c	n/a
55.514	0.0745	111028	keystroke_o	o	n/a
55.694	0.06	111388	keystroke_n	n	n/a
56.1435	0.06	112287	keystroke_n	n	n/a
56.2935	0.1355	112587	keystroke_e	e	n/a
56.3985	0.076	112797	keystroke_c	c	n/a
56.594	0.06	113188	keystroke_t	t	n/a
56.684	0.09	113368	keystroke_o	o	n/a
56.759	0.06	113518	keystroke_r	r	n/a
56.909	0.06	113818	keystroke_Key.space	Key.space	n/a
57.524	0.0595	115048	keystroke_e	e	n/a
57.688	0.1205	115376	keystroke_s	s	n/a
57.8385	0.0905	115677	keystroke_t	t	n/a
57.9435	0.135	115887	keystroke_a	a	n/a
58.0485	0.1205	116097	keystroke_t	t	n/a
58.1385	0.1205	116277	keystroke_e	e	n/a
58.3185	0.045	116637	keystroke_Key.space	Key.space	n/a
59.0835	0.0755	118167	keystroke_v	v	n/a
59.2635	0.12	118527	keystroke_o	o	n/a
59.413	0.121	118826	keystroke_t	t	n/a
59.488	0.106	118976	keystroke_e	e	n/a
59.714	0.0595	119428	keystroke_d	d	n/a
59.833	0.09	119666	keystroke_Key.space	Key.space	n/a
60.254	0.059	120508	keystroke_r	r	n/a
60.344	0.09	120688	keystroke_o	o	n/a
60.5235	0.09	121047	keystroke_b	b	n/a
60.6435	0.15	121287	keystroke_i	i	n/a
60.7335	0.0905	121467	keystroke_n	n	n/a
61.2135	0.075	122427	keystroke_Key.enter	Key.enter	n/a
61.296	10.2445	122592	prompt	n/a	exact algorithms thailand substances\n
61.9785	0.075	123957	keystroke_e	e	n/a
62.1885	0.1055	124377	keystroke_x	x	n/a
62.384	0.15	124768	keystroke_a	a	n/a
62.504	0.09	125008	keystroke_c	c	n/a
62.714	0.0595	125428	keystroke_t	t	n/a
62.819	0.105	125638	keystroke_Key.space	Key.space	n/a
63.2245	0.029	126449	keystroke_a	a	n/a
63.2835	0.1345	126567	keystroke_l	l	n/a
63.4485	0.0745	126897	keystroke_g	g	n/a
63.614	0.075	127228	keystroke_o	o	n/a
63.719	0.075	127438	keystroke_r	r	n/a
63.973	0.091	127946	keystroke_i	i	n/a
64.109	0.075	128218	keystroke_t	t	n/a
64.258	0.09	128516	keystroke_h	h	n/a
64.468	0.0905	128936	keystroke_m	m	n/a
64.574	0.0895	129148	keystroke_s	s	n/a
64.738	0.0605	129476	keystroke_Key.space	Key.space	n/a
65.684	0.06	131368	keystroke_t	t	n/a
65.7885	0.09	131577	keystroke_h	h	n/a
65.908	0.0765	131816	keystroke_a	a	n/a
66.0735	0.0905	132147	keystroke_i	i	n/a
66.268	0.091	132536	keystroke_l	l	n/a
66.389	0.06	132778	keystroke_a	a	n/a
66.494	0.09	132988	keystroke_n	n	n/a
66.584	0.06	133168	keystroke_d	d	n/a
66.703	0.09	133406	keystroke_Key.space	Key.space	n/a
67.4685	0.015	134937	keystroke_s	s	n/a
67.559	0.1205	135118	keystroke_u	u	n/a
67.7085	0.09	135417	keystroke_b	b	n/a
67.9035	0.12	135807	keystroke_s	s	n/a
68.2485	0.105	136497	keystroke_t	t	n/a
68.5035	0.105	137007	keystroke_a	a	n/a
68.6235	0.0895	137247	keystroke_n	n	n/a
68.774	0.18	137548	keystroke_c	c	n/a
68.9235	0.1195	137847	keystroke_e	e	n/a
69.223	0.0755	138446	keystroke_s	s	n/a
71.5365	0.0005	143073	keystroke_Key.enter	Key.enter	n/a
71.5475	8.8235	143095	prompt	n/a	oxygen troubleshooting suggested airplane\n
72.2385	0.09	144477	keystroke_o	o	n/a
72.614	0.09	145228	keystroke_x	x	n/a
72.734	0.105	145468	keystroke_y	y	n/a
72.9735	0.105	145947	keystroke_g	g	n/a
73.124	0.0745	146248	keystroke_e	e	n/a
73.259	0.1195	146518	keystroke_n	n	n/a
73.3935	0.075	146787	keystroke_Key.space	Key.space	n/a
73.9485	0.06	147897	keystroke_t	t	n/a
74.1285	0.075	148257	keystroke_r	r	n/a
74.2185	0.1505	148437	keystroke_o	o	n/a
74.309	0.105	148618	keystroke_u	u	n/a
74.534	0.09	149068	keystroke_b	b	n/a
74.6685	0.1055	149337	keystroke_l	l	n/a
74.789	0.075	149578	keystroke_e	e	n/a
74.983	0.076	149966	keystroke_s	s	n/a
75.089	0.075	150178	keystroke_h	h	n/a
75.254	0.06	150508	keystroke_o	o	n/a
75.404	0.075	150808	keystroke_o	o	n/a
75.494	0.059	150988	keystroke_t	t	n/a
75.6285	0.135	151257	keystroke_i	i	n/a
75.6885	0.12	151377	keystroke_n	n	n/a
75.7935	0.0745	151587	keystroke_g	g	n/a
75.958	0.075	151916	keystroke_Key.space	Key.space	n/a
76.3335	0.06	152667	keystroke_s	s	n/a
76.4235	0.0605	152847	keystroke_u	u	n/a
76.5585	0.075	153117	keystroke_g	g	n/a
76.7085	0.09	153417	keystroke_g	g	n/a
76.904	0.1195	153808	keystroke_e	e	n/a
76.9935	0.165	153987	keystroke_s	s	n/a
77.144	0.0895	154288	keystroke_t	t	n/a
77.2045	0.0895	154409	keystroke_e	e	n/a
77.413	0.0605	154826	keystroke_d	d	n/a
77.5185	0.0895	155037	keystroke_Key.space	Key.space	n/a
78.283	0.06	156566	keystroke_a	a	n/a
78.448	0.0905	156896	keystroke_i	i	n/a
78.5535	0.075	157107	keystroke_r	r	n/a
78.6885	0.075	157377	keystroke_p	p	n/a
78.869	0.09	157738	keystroke_l	l	n/a
78.9435	0.075	157887	keystroke_a	a	n/a
79.274	0.06	158548	keystroke_n	n	n/a
79.349	0.06	158698	keystroke_e	e	n/a
80.308	0.06	160616	keystroke_Key.enter	Key.enter	n/a
80.3745	7.586	160749	prompt	n/a	treasures supervision talking asia\n
81.0585	0.0755	162117	keystroke_t	t	n/a
81.254	0.1195	162508	keystroke_r	r	n/a
81.344	0.1045	162688	keystroke_e	e	n/a
81.463	0.1365	162926	keystroke_a	a	n/a
81.5835	0.0905	163167	keystroke_s	s	n/a
81.733	0.091	163466	keystroke_u	u	n/a
81.928	0.076	163856	keystroke_r	r	n/a
81.9585	0.105	163917	keystroke_e	e	n/a
82.109	0.104	164218	keystroke_s	s	n/a
82.258	0.09	164516	keystroke_Key.space	Key.space	n/a
82.889	0.06	165778	keystroke_s	s	n/a
83.0235	0.09	166047	keystroke_u	u	n/a
83.159	0.105	166318	keystroke_p	p	n/a
83.234	0.12	166468	keystroke_e	e	n/a
83.3085	0.075	166617	keystroke_r	r	n/a
83.5185	0.06	167037	keystroke_v	v	n/a
83.564	0.09	167128	keystroke_i	i	n/a
83.714	0.0895	167428	keystroke_s	s	n/a
83.833	0.21	167666	keystroke_i	i	n/a
83.8935	0.1355	167787	keystroke_o	o	n/a
83.9235	0.15	167847	keystroke_n	n	n/a
84.1035	0.075	168207	keystroke_Key.space	Key.space	n/a
84.944	0.0295	169888	keystroke_t	t	n/a
84.9585	0.075	169917	keystroke_a	a	n/a
85.0635	0.0905	170127	keystroke_l	l	n/a
85.1385	0.105	170277	keystroke_k	k	n/a
85.3485	0.12	170697	keystroke_i	i	n/a
85.4235	0.0745	170847	keystroke_n	n	n/a
85.5135	0.045	171027	keystroke_g	g	n/a
85.5735	0.105	171147	keystroke_Key.space	Key.space	n/a
85.874	0.0895	171748	keystroke_a	a	n/a
85.9485	0.1055	171897	keystroke_s	s	n/a
86.0395	0.089	172079	keystroke_i	i	n/a
86.159	0.0745	172318	keystroke_a	a	n/a
87.898	0.061	175796	keystroke_Key.enter	Key.enter	n/a
87.965	5.3805	175930	prompt	n/a	pepper harris review sounds\n
88.709	0.075	177418	keystroke_p	p	n/a
88.799	0.06	177598	keystroke_e	e	n/a
88.919	0.045	177838	keystroke_p	p	n/a
89.0385	0.09	178077	keystroke_p	p	n/a
89.114	0.164	178228	keystroke_e	e	n/a
89.263	0.076	178526	keystroke_r	r	n/a
89.3835	0.0895	178767	keystroke_Key.space	Key.space	n/a
89.563	0.0905	179126	keystroke_h	h	n/a
89.669	0.045	179338	keystroke_a	a	n/a
89.8185	0.075	179637	keystroke_r	r	n/a
89.9835	0.06	179967	keystroke_r	r	n/a
90.0445	0.119	180089	keystroke_i	i	n/a
90.179	0.0905	180358	keystroke_s	s	n/a
90.2835	0.075	180567	keystroke_Key.space	Key.space	n/a
91.019	0.105	182038	keystroke_r	r	n/a
91.094	0.105	182188	keystroke_e	e	n/a
91.304	0.075	182608	keystroke_v	v	n/a
91.439	0.1045	182878	keystroke_i	i	n/a
91.5135	0.1655	183027	keystroke_e	e	n/a
91.6035	0.12	183207	keystroke_w	w	n/a
91.7235	0.06	183447	keystroke_Key.space	Key.space	n/a
92.399	0.105	184798	keystroke_s	s	n/a
92.534	0.104	185068	keystroke_o	o	n/a
92.579	0.09	185158	keystroke_u	u	n/a
92.759	0.104	185518	keystroke_n	n	n/a
92.834	0.135	185668	keystroke_d	d	n/a
92.909	0.104	185818	keystroke_s	s	n/a
93.299	0.0445	186598	keystroke_Key.enter	Key.enter	n/a
93.3505	4.615	186701	prompt	n/a	libs twice volt left\n
94.079	0.0895	188158	keystroke_l	l	n/a
94.244	0.1045	188488	keystroke_i	i	n/a
94.3635	0.0755	188727	keystroke_b	b	n/a
94.4535	0.1055	188907	keystroke_s	s	n/a
94.8885	0.0605	189777	keystroke_Key.space	Key.space	n/a
95.3235	0.0755	190647	keystroke_t	t	n/a
95.4435	0.1045	190887	keystroke_w	w	n/a
95.534	0.09	191068	keystroke_i	i	n/a
95.669	0.105	191338	keystroke_c	c	n/a
95.7885	0.1055	191577	keystroke_e	e	n/a
95.894	0.0895	191788	keystroke_Key.space	Key.space	n/a
96.4035	0.0755	192807	keystroke_v	v	n/a
96.509	0.075	193018	keystroke_o	o	n/a
96.689	0.075	193378	keystroke_l	l	n/a
96.779	0.06	193558	keystroke_t	t	n/a
96.9135	0.0595	193827	keystroke_Key.space	Key.space	n/a
97.094	0.09	194188	keystroke_l	l	n/a
97.214	0.119	194428	keystroke_e	e	n/a
97.304	0.075	194608	keystroke_f	f	n/a
97.4985	0.045	194997	keystroke_t	t	n/a
97.888	0.075	195776	keystroke_Key.enter	Key.enter	n/a
97.9705	6.55	195941	prompt	n/a	eagle headset requires andorra\n
98.578	0.121	197156	keystroke_e	e	n/a
98.728	0.136	197456	keystroke_a	a	n/a
98.834	0.074	197668	keystroke_g	g	n/a
98.9685	0.075	197937	keystroke_l	l	n/a
99.0735	0.075	198147	keystroke_e	e	n/a
99.2235	0.075	198447	keystroke_Key.space	Key.space	n/a
99.794	0.06	199588	keystroke_h	h	n/a
99.8385	0.075	199677	keystroke_e	e	n/a
99.989	0.1045	199978	keystroke_a	a	n/a
100.0485	0.1055	200097	keystroke_d	d	n/a
100.259	0.119	200518	keystroke_s	s	n/a
100.348	0.136	200696	keystroke_e	e	n/a
100.453	0.106	200906	keystroke_t	t	n/a
100.574	0.089	201148	keystroke_Key.space	Key.space	n/a
101.354	0.1195	202708	keystroke_r	r	n/a
101.444	0.0895	202888	keystroke_e	e	n/a
101.6385	0.075	203277	keystroke_q	q	n/a
101.7285	0.12	203457	keystroke_u	u	n/a
101.7885	0.12	203577	keystroke_i	i	n/a
101.8635	0.0905	203727	keystroke_r	r	n/a
101.9235	0.09	203847	keystroke_e	e	n/a
102.119	0.1045	204238	keystroke_s	s	n/a
102.2535	0.045	204507	keystroke_Key.space	Key.space	n/a
102.9435	0.09	205887	keystroke_a	a	n/a
103.0785	0.075	206157	keystroke_n	n	n/a
103.1985	0.075	206397	keystroke_d	d	n/a
103.3935	0.076	206787	keystroke_o	o	n/a
103.5585	0.0455	207117	keystroke_r	r	n/a
103.694	0.06	207388	keystroke_r	r	n/a
103.828	0.0605	207656	keystroke_a	a	n/a
104.4585	0.06	208917	keystroke_Key.enter	Key.enter	n/a
104.5255	7.7045	209051	prompt	n/a	costume financial competition cases\n
105.1035	0.1205	210207	keystroke_s	s	n/a
105.5685	0.045	211137	keystroke_Key.backspace	Key.backspace	n/a
105.644	0.09	211288	keystroke_c	c	n/a
105.779	0.0895	211558	keystroke_o	o	n/a
105.944	0.105	211888	keystroke_s	s	n/a
106.184	0.075	212368	keystroke_t	t	n/a
106.289	0.09	212578	keystroke_u	u	n/a
106.514	0.09	213028	keystroke_m	m	n/a
106.604	0.075	213208	keystroke_e	e	n/a
106.739	0.0445	213478	keystroke_Key.space	Key.space	n/a
107.308	0.061	214616	keystroke_f	f	n/a
107.4135	0.076	214827	keystroke_i	i	n/a
107.4585	0.09	214917	keystroke_n	n	n/a
107.894	0.0295	215788	keystroke_a	a	n/a
108.2085	0.09	216417	keystroke_n	n	n/a
108.3135	0.0905	216627	keystroke_c	c	n/a
108.493	0.0905	216986	keystroke_i	i	n/a
108.6285	0.075	217257	keystroke_a	a	n/a
108.7185	0.105	217437	keystroke_l	l	n/a
108.8835	0.0905	217767	keystroke_Key.space	Key.space	n/a
109.2135	0.09	218427	keystroke_c	c	n/a
109.3185	0.15	218637	keystroke_o	o	n/a
109.4235	0.075	218847	keystroke_m	m	n/a
109.5885	0.075	219177	keystroke_p	p	n/a
109.709	0.074	219418	keystroke_e	e	n/a
109.934	0.045	219868	keystroke_t	t	n/a
110.038	0.076	220076	keystroke_i	i	n/a
110.128	0.061	220256	keystroke_t	t	n/a
110.249	0.225	220498	keystroke_i	i	n/a
110.324	0.135	220648	keystroke_o	o	n/a
110.354	0.149	220708	keystroke_n	n	n/a
110.5635	0.0605	221127	keystroke_Key.space	Key.space	n/a
111.209	0.2105	222418	keystroke_c	c	n/a
111.3735	0.15	222747	keystroke_a	a	n/a
111.4335	0.165	222867	keystroke_s	s	n/a
111.569	0.0895	223138	keystroke_e	e	n/a
111.764	0.0745	223528	keystroke_s	s	n/a
112.1535	0.0755	224307	keystroke_Key.enter	Key.enter	n/a
112.234	7.6315	224468	prompt	n/a	avon immediately peripherals passage\n
112.8145	0.104	225629	keystroke_a	a	n/a
113.0235	0.075	226047	keystroke_v	v	n/a
113.1435	0.075	226287	keystroke_o	o	n/a
113.2785	0.105	226557	keystroke_n	n	n/a
113.3985	0.0605	226797	keystroke_Key.space	Key.space	n/a
113.534	0.105	227068	keystroke_i	i	n/a
113.6535	0.075	227307	keystroke_m	m	n/a
113.789	0.105	227578	keystroke_m	m	n/a
113.909	0.06	227818	keystroke_e	e	n/a
114.059	0.075	228118	keystroke_d	d	n/a
114.164	0.0895	228328	keystroke_i	i	n/a
114.314	0.135	228628	keystroke_a	a	n/a
114.434	0.09	228868	keystroke_t	t	n/a
114.479	0.1495	228958	keystroke_e	e	n/a
114.584	0.1045	229168	keystroke_l	l	n/a
114.824	0.0595	229648	keystroke_y	y	n/a
114.9445	0.059	229889	keystroke_Key.space	Key.space	n/a
115.648	0.075	231296	keystroke_p	p	n/a
115.784	0.09	231568	keystroke_e	e	n/a
115.859	0.075	231718	keystroke_r	r	n/a
115.948	0.0605	231896	keystroke_i	i	n/a
116.1285	0.06	232257	keystroke_p	p	n/a
116.2485	0.06	232497	keystroke_e	e	n/a
116.354	0.0595	232708	keystroke_h	h	n/a
116.519	0.015	233038	keystroke_e	e	n/a
116.8035	0.045	233607	keystroke_Key.backspace	Key.backspace	n/a
116.9385	0.075	233877	keystroke_Key.backspace	Key.backspace	n/a
117.0885	0.1055	234177	keystroke_Key.backspace	Key.backspace	n/a
117.2685	0.075	234537	keystroke_h	h	n/a
117.3135	0.12	234627	keystroke_e	e	n/a
117.3885	0.0905	234777	keystroke_r	r	n/a
117.5235	0.106	235047	keystroke_a	a	n/a
117.6135	0.06	235227	keystroke_l	l	n/a
117.7485	0.0755	235497	keystroke_s	s	n/a
117.854	0.044	235708	keystroke_Key.space	Key.space	n/a
118.6345	0.0745	237269	keystroke_p	p	n/a
118.694	0.105	237388	keystroke_a	a	n/a
118.858	0.076	237716	keystroke_s	s	n/a
119.039	0.0595	238078	keystroke_s	s	n/a
119.1585	0.105	238317	keystroke_a	a	n/a
119.2785	0.0605	238557	keystroke_g	g	n/a
119.324	0.09	238648	keystroke_e	e	n/a
119.8035	0.0605	239607	keystroke_Key.enter	Key.enter	n/a
119.8705	6.595	239741	prompt	n/a	sara painting adequate listprice\n
120.404	0.09	240808	keystroke_s	s	n/a
120.554	0.12	241108	keystroke_a	a	n/a
120.644	0.135	241288	keystroke_r	r	n/a
120.7945	0.0885	241589	keystroke_a	a	n/a
120.898	0.091	241796	keystroke_Key.space	Key.space	n/a
121.3335	0.075	242667	keystroke_p	p	n/a
121.4385	0.076	242877	keystroke_a	a	n/a
121.558	0.1205	243116	keystroke_i	i	n/a
121.6485	0.0745	243297	keystroke_n	n	n/a
121.739	0.0605	243478	keystroke_t	t	n/a
121.844	0.09	243688	keystroke_i	i	n/a
121.9035	0.076	243807	keystroke_n	n	n/a
121.9795	0.0445	243959	keystroke_g	g	n/a
122.129	0.0595	244258	keystroke_Key.space	Key.space	n/a
122.714	0.0745	245428	keystroke_a	a	n/a
122.864	0.0895	245728	keystroke_d	d	n/a
123.0445	0.09	246089	keystroke_e	e	n/a
123.254	0.09	246508	keystroke_q	q	n/a
123.374	0.0905	246748	keystroke_u	u	n/a
123.5095	0.1345	247019	keystroke_a	a	n/a
123.614	0.09	247228	keystroke_t	t	n/a
123.779	0.075	247558	keystroke_e	e	n/a
123.989	0.0745	247978	keystroke_Key.space	Key.space	n/a
124.7085	0.09	249417	keystroke_l	l	n/a
124.9035	0.075	249807	keystroke_i	i	n/a
124.9635	0.106	249927	keystroke_s	s	n/a
125.0385	0.0755	250077	keystroke_t	t	n/a
125.219	0.075	250438	keystroke_p	p	n/a
125.3085	0.06	250617	keystroke_r	r	n/a
125.4585	0.0605	250917	keystroke_i	i	n/a
125.5485	0.09	251097	keystroke_c	c	n/a
125.6085	0.0905	251217	keystroke_e	e	n/a
126.3885	0.075	252777	keystroke_Key.enter	Key.enter	n/a
126.47	6.7205	252940	prompt	n/a	direction dolls attacks moved\n
127.064	0.075	254128	keystroke_d	d	n/a
127.2285	0.075	254457	keystroke_i	i	n/a
127.3185	0.0605	254637	keystroke_r	r	n/a
127.3935	0.196	254787	keystroke_e	e	n/a
127.5585	0.0755	255117	keystroke_c	c	n/a
127.768	0.06	255536	keystroke_t	t	n/a
127.859	0.21	255718	keystroke_i	i	n/a
127.934	0.12	255868	keystroke_o	o	n/a
127.9645	0.1345	255929	keystroke_n	n	n/a
128.519	0.045	257038	keystroke_Key.space	Key.space	n/a
128.714	0.0745	257428	keystroke_d	d	n/a
128.8335	0.06	257667	keystroke_o	o	n/a
129.0285	0.045	258057	keystroke_l	l	n/a
129.149	0.075	258298	keystroke_l	l	n/a
129.254	0.0745	258508	keystroke_s	s	n/a
129.3735	0.075	258747	keystroke_Key.space	Key.space	n/a
129.4945	0.1195	258989	keystroke_a	a	n/a
129.5995	0.105	259199	keystroke_t	t	n/a
129.7635	0.0905	259527	keystroke_t	t	n/a
129.974	0.135	259948	keystroke_a	a	n/a
130.11	0.074	260220	keystroke_k	k	n/a
130.289	0.0305	260578	keystroke_s	s	n/a
130.574	0.06	261148	keystroke_Key.backspace	Key.backspace	n/a
130.724	0.075	261448	keystroke_Key.backspace	Key.backspace	n/a
130.814	0.06	261628	keystroke_c	c	n/a
130.934	0.075	261868	keystroke_k	k	n/a
131.039	0.075	262078	keystroke_s	s	n/a
131.309	0.06	262618	keystroke_Key.space	Key.space	n/a
131.939	0.105	263878	keystroke_m	m	n/a
132.059	0.105	264118	keystroke_o	o	n/a
132.164	0.165	264328	keystroke_v	v	n/a
132.299	0.105	264598	keystroke_e	e	n/a
132.539	0.0595	265078	keystroke_d	d	n/a
133.124	0.06	266248	keystroke_Key.enter	Key.enter	n/a
133.194	6.5915	266388	prompt	n/a	meaning patch headset assumptions\n
133.859	0.105	267718	keystroke_m	m	n/a
133.949	0.09	267898	keystroke_e	e	n/a
134.024	0.12	268048	keystroke_a	a	n/a
134.114	0.06	268228	keystroke_n	n	n/a
134.233	0.121	268466	keystroke_i	i	n/a
134.309	0.09	268618	keystroke_n	n	n/a
134.369	0.0905	268738	keystroke_g	g	n/a
134.46	0.0885	268920	keystroke_Key.space	Key.space	n/a
134.6385	0.09	269277	keystroke_p	p	n/a
134.7135	0.105	269427	keystroke_a	a	n/a
134.8035	0.076	269607	keystroke_t	t	n/a
135.0285	0.0605	270057	keystroke_c	c	n/a
135.1195	0.089	270239	keystroke_h	h	n/a
135.5235	0.075	271047	keystroke_Key.space	Key.space	n/a
135.839	0.0595	271678	keystroke_h	h	n/a
136.0035	0.105	272007	keystroke_e	e	n/a
136.304	0.15	272608	keystroke_a	a	n/a
136.439	0.1045	272878	keystroke_d	d	n/a
136.5885	0.106	273177	keystroke_s	s	n/a
136.6635	0.18	273327	keystroke_e	e	n/a
136.7985	0.1205	273597	keystroke_t	t	n/a
136.979	0.06	273958	keystroke_Key.space	Key.space	n/a
137.8345	0.059	275669	keystroke_a	a	n/a
137.9695	0.09	275939	keystroke_s	s	n/a
138.1495	0.074	276299	keystroke_s	s	n/a
138.2085	0.105	276417	keystroke_u	u	n/a
138.4335	0.076	276867	keystroke_m	m	n/a
138.5385	0.1045	277077	keystroke_p	p	n/a
138.674	0.06	277348	keystroke_t	t	n/a
138.824	0.24	277648	keystroke_i	i	n/a
138.899	0.1355	277798	keystroke_o	o	n/a
138.913	0.181	277826	keystroke_n	n	n/a
139.109	0.075	278218	keystroke_s	s	n/a
139.709	0.075	279418	keystroke_Key.enter	Key.enter	n/a
139.7925	7.898	279585	prompt	n/a	dishes situated composite voting\n
140.384	0.075	280768	keystroke_d	d	n/a
140.669	0.09	281338	keystroke_i	i	n/a
140.804	0.06	281608	keystroke_s	s	n/a
140.924	0.0755	281848	keystroke_h	h	n/a
141.0135	0.0755	282027	keystroke_e	e	n/a
141.134	0.105	282268	keystroke_s	s	n/a
141.254	0.06	282508	keystroke_Key.space	Key.space	n/a
141.8385	0.165	283677	keystroke_s	s	n/a
142.1085	0.075	284217	keystroke_i	i	n/a
142.2285	0.015	284457	keystroke_i	i	n/a
142.559	0.075	285118	keystroke_u	u	n/a
142.814	0.06	285628	keystroke_Key.backspace	Key.backspace	n/a
142.964	0.06	285928	keystroke_Key.backspace	Key.backspace	n/a
143.114	0.075	286228	keystroke_t	t	n/a
143.309	0.09	286618	keystroke_u	u	n/a
143.489	0.1345	286978	keystroke_a	a	n/a
143.579	0.0595	287158	keystroke_t	t	n/a
143.804	0.06	287608	keystroke_e	e	n/a
143.984	0.06	287968	keystroke_d	d	n/a
144.104	0.06	288208	keystroke_Key.space	Key.space	n/a
144.794	0.105	289588	keystroke_c	c	n/a
144.914	0.105	289828	keystroke_o	o	n/a
144.974	0.075	289948	keystroke_m	m	n/a
145.1395	0.0745	290279	keystroke_p	p	n/a
145.3195	0.0895	290639	keystroke_o	o	n/a
145.424	0.0745	290848	keystroke_s	s	n/a
145.559	0.0745	291118	keystroke_i	i	n/a
145.6635	0.06	291327	keystroke_t	t	n/a
145.9185	0.075	291837	keystroke_e	e	n/a
146.1135	0.076	292227	keystroke_Key.space	Key.space	n/a
146.669	0.075	293338	keystroke_v	v	n/a
146.759	0.09	293518	keystroke_o	o	n/a
146.9685	0.061	293937	keystroke_t	t	n/a
147.0895	0.135	294179	keystroke_i	i	n/a
147.1795	0.06	294359	keystroke_n	n	n/a
147.2545	0.0445	294509	keystroke_g	g	n/a
147.614	0.075	295228	keystroke_Key.enter	Key.enter	n/a
147.695	7.751	295390	prompt	n/a	eden somerset connected scanning\n
148.3785	0.0155	296757	keystroke_s	s	n/a
148.6045	0.0895	297209	keystroke_Key.backspace	Key.backspace	n/a
148.889	0.06	297778	keystroke_e	e	n/a
149.069	0.075	298138	keystroke_d	d	n/a
149.249	0.075	298498	keystroke_e	e	n/a
149.339	0.1195	298678	keystroke_n	n	n/a
149.444	0.0895	298888	keystroke_Key.space	Key.space	n/a
149.699	0.059	299398	keystroke_s	s	n/a
149.8045	0.104	299609	keystroke_o	o	n/a
149.849	0.1345	299698	keystroke_m	m	n/a
150.359	0.165	300718	keystroke_e	e	n/a
150.4935	0.091	300987	keystroke_r	r	n/a
150.674	0.059	301348	keystroke_s	s	n/a
150.869	0.15	301738	keystroke_e	e	n/a
150.988	0.076	301976	keystroke_t	t	n/a
151.0935	0.075	302187	keystroke_Key.space	Key.space	n/a
151.7985	0.135	303597	keystroke_c	c	n/a
151.9185	0.0905	303837	keystroke_o	o	n/a
151.994	0.03	303988	keystroke_n	n	n/a
152.114	0.075	304228	keystroke_n	n	n/a
152.204	0.135	304408	keystroke_e	e	n/a
152.294	0.105	304588	keystroke_c	c	n/a
152.549	0.075	305098	keystroke_t	t	n/a
152.609	0.09	305218	keystroke_e	e	n/a
152.804	0.075	305608	keystroke_d	d	n/a
152.909	0.075	305818	keystroke_Key.space	Key.space	n/a
153.6145	0.0895	307229	keystroke_s	s	n/a
153.7645	0.1345	307529	keystroke_c	c	n/a
153.884	0.09	307768	keystroke_a	a	n/a
153.9745	0.0745	307949	keystroke_n	n	n/a
154.124	0.09	308248	keystroke_n	n	n/a
154.304	0.1195	308608	keystroke_i	i	n/a
154.3645	0.105	308729	keystroke_n	n	n/a
154.484	0.0595	308968	keystroke_g	g	n/a
155.369	0.075	310738	keystroke_Key.enter	Key.enter	n/a
155.4505	6.431	310901	prompt	n/a	name huntington operated kurt\n
156.1045	0.075	312209	keystroke_n	n	n/a
156.2085	0.06	312417	keystroke_a	a	n/a
156.2985	0.1055	312597	keystroke_m	m	n/a
156.3885	0.076	312777	keystroke_e	e	n/a
156.4935	0.0905	312987	keystroke_Key.space	Key.space	n/a
156.6735	0.1055	313347	keystroke_h	h	n/a
156.7635	0.1505	313527	keystroke_u	u	n/a
156.869	0.09	313738	keystroke_n	n	n/a
157.0195	0.074	314039	keystroke_t	t	n/a
157.154	0.105	314308	keystroke_i	i	n/a
157.1985	0.1055	314397	keystroke_n	n	n/a
157.289	0.075	314578	keystroke_g	g	n/a
157.6945	0.09	315389	keystroke_d	d	n/a
157.8295	0.045	315659	keystroke_o	o	n/a
158.1135	0.045	316227	keystroke_Key.backspace	Key.backspace	n/a
158.2335	0.075	316467	keystroke_Key.backspace	Key.backspace	n/a
158.3385	0.046	316677	keystroke_t	t	n/a
158.4295	0.1045	316859	keystroke_o	o	n/a
158.488	0.076	316976	keystroke_n	n	n/a
158.728	0.0605	317456	keystroke_Key.space	Key.space	n/a
159.479	0.045	318958	keystroke_o	o	n/a
159.613	0.091	319226	keystroke_p	p	n/a
159.68	0.114	319360	keystroke_e	e	n/a
159.764	0.0755	319528	keystroke_r	r	n/a
159.9	0.089	319800	keystroke_a	a	n/a
159.974	0.09	319948	keystroke_t	t	n/a
160.139	0.0755	320278	keystroke_e	e	n/a
160.334	0.0595	320668	keystroke_d	d	n/a
160.4535	0.0905	320907	keystroke_Key.space	Key.space	n/a
160.828	0.076	321656	keystroke_k	k	n/a
161.0995	0.0745	322199	keystroke_u	u	n/a
161.189	0.075	322378	keystroke_r	r	n/a
161.384	0.06	322768	keystroke_t	t	n/a
161.804	0.075	323608	keystroke_Key.enter	Key.enter	n/a
161.885	5.891	323770	prompt	n/a	hardware passion wait fighter\n
162.479	0.075	324958	keystroke_h	h	n/a
162.584	0.12	325168	keystroke_a	a	n/a
162.674	0.1495	325348	keystroke_r	r	n/a
162.763	0.121	325526	keystroke_d	d	n/a
162.989	0.075	325978	keystroke_w	w	n/a
163.184	0.105	326368	keystroke_a	a	n/a
163.2585	0.1205	326517	keystroke_r	r	n/a
163.3485	0.0905	326697	keystroke_e	e	n/a
163.4985	0.075	326997	keystroke_Key.space	Key.space	n/a
163.9035	0.075	327807	keystroke_p	p	n/a
163.9935	0.105	327987	keystroke_a	a	n/a
164.189	0.0745	328378	keystroke_s	s	n/a
164.3385	0.091	328677	keystroke_s	s	n/a
164.459	0.27	328918	keystroke_i	i	n/a
164.564	0.149	329128	keystroke_o	o	n/a
164.624	0.15	329248	keystroke_n	n	n/a
164.789	0.06	329578	keystroke_Key.space	Key.space	n/a
165.554	0.0605	331108	keystroke_w	w	n/a
165.719	0.09	331438	keystroke_a	a	n/a
165.839	0.075	331678	keystroke_i	i	n/a
165.944	0.0745	331888	keystroke_t	t	n/a
166.0785	0.1055	332157	keystroke_Key.space	Key.space	n/a
166.4385	0.06	332877	keystroke_f	f	n/a
166.544	0.075	333088	keystroke_i	i	n/a
166.6635	0.075	333327	keystroke_g	g	n/a
166.784	0.0745	333568	keystroke_h	h	n/a
166.8435	0.1205	333687	keystroke_t	t	n/a
166.9645	0.15	333929	keystroke_e	e	n/a
167.0685	0.0755	334137	keystroke_r	r	n/a
167.699	0.075	335398	keystroke_Key.enter	Key.enter	n/a
167.78	6.8805	335560	prompt	n/a	rewards concepts testing snap\n
168.4495	0.1645	336899	keystroke_r	r	n/a
168.539	0.12	337078	keystroke_e	e	n/a
168.749	0.135	337498	keystroke_q	q	n/a
169.229	0.075	338458	keystroke_Key.backspace	Key.backspace	n/a
169.334	0.09	338668	keystroke_w	w	n/a
169.499	0.1355	338998	keystroke_a	a	n/a
169.589	0.1795	339178	keystroke_r	r	n/a
169.738	0.1365	339476	keystroke_d	d	n/a
169.964	0.104	339928	keystroke_s	s	n/a
170.1435	0.075	340287	keystroke_Key.space	Key.space	n/a
170.849	0.075	341698	keystroke_c	c	n/a
170.9245	0.1345	341849	keystroke_o	o	n/a
170.999	0.105	341998	keystroke_n	n	n/a
171.119	0.15	342238	keystroke_c	c	n/a
171.239	0.12	342478	keystroke_e	e	n/a
171.404	0.06	342808	keystroke_p	p	n/a
171.494	0.044	342988	keystroke_t	t	n/a
171.644	0.0605	343288	keystroke_s	s	n/a
171.8385	0.06	343677	keystroke_Key.space	Key.space	n/a
172.574	0.105	345148	keystroke_t	t	n/a
172.649	0.09	345298	keystroke_e	e	n/a
172.829	0.12	345658	keystroke_s	s	n/a
172.904	0.075	345808	keystroke_t	t	n/a
173.009	0.12	346018	keystroke_i	i	n/a
173.084	0.09	346168	keystroke_n	n	n/a
173.1595	0.0445	346319	keystroke_g	g	n/a
173.294	0.06	346588	keystroke_Key.space	Key.space	n/a
173.848	0.046	347696	keystroke_s	s	n/a
173.9085	0.076	347817	keystroke_n	n	n/a
173.999	0.09	347998	keystroke_a	a	n/a
174.1045	0.0895	348209	keystroke_p	p	n/a
174.599	0.06	349198	keystroke_Key.enter	Key.enter	n/a
174.6645	7.2415	349329	prompt	n/a	organizational which saturn he'd\n
175.349	0.0755	350698	keystroke_o	o	n/a
175.439	0.0605	350878	keystroke_r	r	n/a
175.649	0.06	351298	keystroke_g	g	n/a
175.874	0.06	351748	keystroke_a	a	n/a
175.979	0.075	351958	keystroke_n	n	n/a
176.069	0.105	352138	keystroke_i	i	n/a
176.159	0.09	352318	keystroke_z	z	n/a
176.61	0.104	353220	keystroke_a	a	n/a
176.759	0.06	353518	keystroke_t	t	n/a
176.879	0.225	353758	keystroke_i	i	n/a
176.939	0.15	353878	keystroke_o	o	n/a
176.999	0.12	353998	keystroke_n	n	n/a
177.224	0.06	354448	keystroke_a	a	n/a
177.314	0.105	354628	keystroke_l	l	n/a
177.449	0.075	354898	keystroke_Key.space	Key.space	n/a
178.0785	0.075	356157	keystroke_w	w	n/a
178.1985	0.1055	356397	keystroke_h	h	n/a
178.334	0.1045	356668	keystroke_i	i	n/a
178.4535	0.075	356907	keystroke_c	c	n/a
178.5435	0.1055	357087	keystroke_h	h	n/a
178.619	0.0895	357238	keystroke_Key.space	Key.space	n/a
178.799	0.0595	357598	keystroke_s	s	n/a
179.054	0.105	358108	keystroke_a	a	n/a
179.279	0.06	358558	keystroke_t	t	n/a
179.369	0.075	358738	keystroke_u	u	n/a
179.444	0.075	358888	keystroke_r	r	n/a
179.5935	0.075	359187	keystroke_n	n	n/a
179.849	0.06	359698	keystroke_Key.space	Key.space	n/a
180.239	0.06	360478	keystroke_h	h	n/a
180.329	0.045	360658	keystroke_e	e	n/a
181.019	0.075	362038	keystroke_'	'	n/a
181.094	0.06	362188	keystroke_d	d	n/a
181.829	0.075	363658	keystroke_Key.enter	Key.enter	n/a
181.9105	5.9495	363821	prompt	n/a	real internationally intent protocol\n
182.504	0.1055	365008	keystroke_r	r	n/a
182.5485	0.15	365097	keystroke_e	e	n/a
182.6685	0.1205	365337	keystroke_a	a	n/a
182.7435	0.1205	365487	keystroke_l	l	n/a
182.849	0.1045	365698	keystroke_Key.space	Key.space	n/a
182.9845	0.1045	365969	keystroke_i	i	n/a
183.074	0.105	366148	keystroke_n	n	n/a
183.164	0.1055	366328	keystroke_t	t	n/a
183.239	0.15	366478	keystroke_e	e	n/a
183.344	0.12	366688	keystroke_r	r	n/a
183.449	0.12	366898	keystroke_n	n	n/a
183.569	0.1195	367138	keystroke_a	a	n/a
183.6585	0.0755	367317	keystroke_t	t	n/a
183.7935	0.27	367587	keystroke_i	i	n/a
183.8985	0.1805	367797	keystroke_o	o	n/a
183.9895	0.119	367979	keystroke_n	n	n/a
184.0935	0.09	368187	keystroke_a	a	n/a
184.229	0.105	368458	keystroke_l	l	n/a
184.378	0.105	368756	keystroke_l	l	n/a
184.619	0.06	369238	keystroke_y	y	n/a
184.7085	0.06	369417	keystroke_Key.space	Key.space	n/a
185.4285	0.1055	370857	keystroke_i	i	n/a
185.5185	0.031	371037	keystroke_n	n	n/a
185.5635	0.03	371127	keystroke_t	t	n/a
185.579	0.0605	371158	keystroke_e	e	n/a
185.6085	0.075	371217	keystroke_n	n	n/a
185.7145	0.0735	371429	keystroke_t	t	n/a
185.819	0.074	371638	keystroke_Key.space	Key.space	n/a
186.569	0.075	373138	keystroke_p	p	n/a
186.674	0.075	373348	keystroke_r	r	n/a
186.764	0.075	373528	keystroke_o	o	n/a
186.869	0.075	373738	keystroke_t	t	n/a
186.959	0.075	373918	keystroke_o	o	n/a
187.229	0.0595	374458	keystroke_c	c	n/a
187.3185	0.075	374637	keystroke_o	o	n/a
187.469	0.0895	374938	keystroke_l	l	n/a
187.7985	0.06	375597	keystroke_Key.enter	Key.enter	n/a
187.8635	5.772	375727	prompt	n/a	huntington vinyl goal ceramic\n
188.5335	0.0905	377067	keystroke_h	h	n/a
188.6385	0.09	377277	keystroke_u	u	n/a
188.6835	0.09	377367	keystroke_n	n	n/a
188.8795	0.0595	377759	keystroke_t	t	n/a
189.1795	0.1335	378359	keystroke_i	i	n/a
189.238	0.106	378476	keystroke_n	n	n/a
189.358	0.046	378716	keystroke_g	g	n/a
189.764	0.03	379528	keystroke_t	t	n/a
189.839	0.12	379678	keystroke_o	o	n/a
189.899	0.105	379798	keystroke_n	n	n/a
190.064	0.0745	380128	keystroke_Key.space	Key.space	n/a
190.5735	0.061	381147	keystroke_v	v	n/a
190.6185	0.105	381237	keystroke_i	i	n/a
190.6635	0.091	381327	keystroke_n	n	n/a
190.8885	0.06	381777	keystroke_y	y	n/a
191.024	0.0895	382048	keystroke_l	l	n/a
191.1285	0.075	382257	keystroke_Key.space	Key.space	n/a
191.729	0.075	383458	keystroke_g	g	n/a
191.819	0.06	383638	keystroke_o	o	n/a
191.909	0.09	383818	keystroke_a	a	n/a
191.984	0.075	383968	keystroke_l	l	n/a
192.1185	0.0895	384237	keystroke_Key.space	Key.space	n/a
192.509	0.105	385018	keystroke_c	c	n/a
192.644	0.135	385288	keystroke_e	e	n/a
192.764	0.075	385528	keystroke_r	r	n/a
192.884	0.075	385768	keystroke_a	a	n/a
192.9745	0.1045	385949	keystroke_m	m	n/a
193.094	0.089	386188	keystroke_i	i	n/a
193.154	0.119	386308	keystroke_c	c	n/a
193.574	0.06	387148	keystroke_Key.enter	Key.enter	n/a
193.639	7.512	387278	prompt	n/a	backgrounds involved calculator arlington\n
194.3085	0.0755	388617	keystroke_b	b	n/a
194.3845	0.134	388769	keystroke_a	a	n/a
194.444	0.1045	388888	keystroke_c	c	n/a
194.5635	0.06	389127	keystroke_k	k	n/a
194.654	0.075	389308	keystroke_g	g	n/a
194.789	0.0745	389578	keystroke_r	r	n/a
194.879	0.0895	389758	keystroke_o	o	n/a
194.909	0.0895	389818	keystroke_u	u	n/a
195.074	0.09	390148	keystroke_n	n	n/a
195.1485	0.135	390297	keystroke_d	d	n/a
195.239	0.09	390478	keystroke_s	s	n/a
195.314	0.0595	390628	keystroke_Key.space	Key.space	n/a
196.049	0.09	392098	keystroke_i	i	n/a
196.109	0.09	392218	keystroke_n	n	n/a
196.244	0.1055	392488	keystroke_v	v	n/a
196.3645	0.0595	392729	keystroke_o	o	n/a
196.514	0.075	393028	keystroke_l	l	n/a
196.559	0.105	393118	keystroke_v	v	n/a
196.679	0.075	393358	keystroke_e	e	n/a
196.874	0.06	393748	keystroke_d	d	n/a
196.9485	0.075	393897	keystroke_Key.space	Key.space	n/a
197.4135	0.1205	394827	keystroke_c	c	n/a
197.5185	0.0755	395037	keystroke_a	a	n/a
197.699	0.09	395398	keystroke_l	l	n/a
197.9245	0.0595	395849	keystroke_c	c	n/a
198.0595	0.089	396119	keystroke_u	u	n/a
198.224	0.09	396448	keystroke_l	l	n/a
198.329	0.105	396658	keystroke_a	a	n/a
198.419	0.09	396838	keystroke_t	t	n/a
198.629	0.075	397258	keystroke_o	o	n/a
198.719	0.0605	397438	keystroke_r	r	n/a
198.824	0.075	397648	keystroke_Key.space	Key.space	n/a
199.4545	0.089	398909	keystroke_a	a	n/a
199.5885	0.0905	399177	keystroke_r	r	n/a
199.784	0.135	399568	keystroke_l	l	n/a
200.024	0.105	400048	keystroke_i	i	n/a
200.084	0.075	400168	keystroke_n	n	n/a
200.144	0.12	400288	keystroke_g	g	n/a
200.459	0.075	400918	keystroke_t	t	n/a
200.549	0.075	401098	keystroke_o	o	n/a
200.564	0.09	401128	keystroke_n	n	n/a
201.104	0.045	402208	keystroke_Key.enter	Key.enter	n/a
201.155	5.44	402310	prompt	n/a	dana belize monkey touched\n
201.809	0.075	403618	keystroke_d	d	n/a
201.959	0.0755	403918	keystroke_a	a	n/a
202.049	0.075	404098	keystroke_n	n	n/a
202.139	0.09	404278	keystroke_a	a	n/a
202.2435	0.0755	404487	keystroke_Key.space	Key.space	n/a
202.544	0.06	405088	keystroke_b	b	n/a
202.664	0.06	405328	keystroke_e	e	n/a
202.859	0.075	405718	keystroke_l	l	n/a
202.979	0.0905	405958	keystroke_i	i	n/a
203.024	0.09	406048	keystroke_z	z	n/a
203.174	0.075	406348	keystroke_e	e	n/a
203.5335	0.06	407067	keystroke_Key.space	Key.space	n/a
204.089	0.1045	408178	keystroke_m	m	n/a
204.2535	0.09	408507	keystroke_o	o	n/a
204.374	0.0745	408748	keystroke_n	n	n/a
204.464	0.0745	408928	keystroke_k	k	n/a
204.5395	0.075	409079	keystroke_e	e	n/a
204.689	0.0595	409378	keystroke_y	y	n/a
204.764	0.0745	409528	keystroke_Key.space	Key.space	n/a
205.5735	0.0605	411147	keystroke_t	t	n/a
205.664	0.1045	411328	keystroke_o	o	n/a
205.724	0.0745	411448	keystroke_u	u	n/a
205.8285	0.09	411657	keystroke_c	c	n/a
205.9035	0.075	411807	keystroke_h	h	n/a
206.009	0.06	412018	keystroke_e	e	n/a
206.159	0.0445	412318	keystroke_d	d	n/a
206.5335	0.0605	413067	keystroke_Key.enter	Key.enter	n/a
206.5995	7.8115	413199	prompt	n/a	reasonable shaved dicke facial\n
207.1785	0.121	414357	keystroke_r	r	n/a
207.269	0.105	414538	keystroke_e	e	n/a
207.359	0.1645	414718	keystroke_a	a	n/a
207.464	0.1495	414928	keystroke_s	s	n/a
207.599	0.1055	415198	keystroke_o	o	n/a
207.689	0.0745	415378	keystroke_n	n	n/a
207.839	0.0755	415678	keystroke_a	a	n/a
208.019	0.0895	416038	keystroke_l	l	n/a
208.1245	0.059	416249	keystroke_e	e	n/a
208.2135	0.0755	416427	keystroke_Key.space	Key.space	n/a
208.6935	0.03	417387	keystroke_Key.backspace	Key.backspace	n/a
208.814	0.06	417628	keystroke_Key.backspace	Key.backspace	n/a
208.9785	0.0755	417957	keystroke_Key.backspace	Key.backspace	n/a
209.3085	0.0605	418617	keystroke_b	b	n/a
209.4735	0.0605	418947	keystroke_l	l	n/a
209.564	0.0595	419128	keystroke_e	e	n/a
209.7435	0.075	419487	keystroke_Key.space	Key.space	n/a
210.4635	0.075	420927	keystroke_s	s	n/a
210.554	0.0745	421108	keystroke_h	h	n/a
210.6435	0.0755	421287	keystroke_a	a	n/a
210.69	0.119	421380	keystroke_v	v	n/a
210.7935	0.0755	421587	keystroke_e	e	n/a
210.9445	0.074	421889	keystroke_d	d	n/a
211.034	0.09	422068	keystroke_Key.space	Key.space	n/a
211.3195	0.089	422639	keystroke_d	d	n/a
211.574	0.045	423148	keystroke_i	i	n/a
211.994	0.06	423988	keystroke_c	c	n/a
212.084	0.0755	424168	keystroke_k	k	n/a
212.249	0.03	424498	keystroke_e	e	n/a
212.474	0.075	424948	keystroke_Key.space	Key.space	n/a
213.074	0.09	426148	keystroke_f	f	n/a
213.209	0.135	426418	keystroke_a	a	n/a
213.2845	0.1195	426569	keystroke_c	c	n/a
213.405	0.089	426810	keystroke_i	i	n/a
213.524	0.09	427048	keystroke_a	a	n/a
213.6	0.074	427200	keystroke_l	l	n/a
214.349	0.06	428698	keystroke_Key.enter	Key.enter	n/a
214.4155	12.3145	428831	prompt	n/a	flooring shouldn't shopzilla confidentiality\n
215.084	0.0605	430168	keystroke_f	f	n/a
215.2045	0.0745	430409	keystroke_l	l	n/a
215.4135	0.046	430827	keystroke_o	o	n/a
215.549	0.075	431098	keystroke_o	o	n/a
215.6085	0.06	431217	keystroke_r	r	n/a
215.7285	0.075	431457	keystroke_i	i	n/a
215.7585	0.09	431517	keystroke_n	n	n/a
215.8335	0.0455	431667	keystroke_g	g	n/a
215.9085	0.0905	431817	keystroke_Key.space	Key.space	n/a
215.9835	0.0905	431967	keystroke_s	s	n/a
216.0595	0.105	432119	keystroke_h	h	n/a
216.239	0.09	432478	keystroke_o	o	n/a
216.313	0.0915	432626	keystroke_u	u	n/a
216.419	0.075	432838	keystroke_l	l	n/a
216.539	0.059	433078	keystroke_d	d	n/a
216.629	0.06	433258	keystroke_n	n	n/a
217.214	0.06	434428	keystroke_'	'	n/a
217.334	0.0605	434668	keystroke_t	t	n/a
217.454	0.075	434908	keystroke_Key.space	Key.space	n/a
218.324	0.1055	436648	keystroke_s	s	n/a
218.6095	0.0895	437219	keystroke_h	h	n/a
218.729	0.105	437458	keystroke_i	i	n/a
218.9845	0.0295	437969	keystroke_p	p	n/a
218.999	0.03	437998	keystroke_o	o	n/a
219.3735	0.045	438747	keystroke_Key.backspace	Key.backspace	n/a
219.4935	0.06	438987	keystroke_Key.backspace	Key.backspace	n/a
219.629	0.09	439258	keystroke_Key.backspace	Key.backspace	n/a
219.824	0.09	439648	keystroke_o	o	n/a
219.989	0.09	439978	keystroke_p	p	n/a
220.2145	0.075	440429	keystroke_z	z	n/a
220.3485	0.0605	440697	keystroke_i	i	n/a
220.5745	0.045	441149	keystroke_l	l	n/a
220.6945	0.0895	441389	keystroke_l	l	n/a
220.814	0.06	441628	keystroke_a	a	n/a
220.9035	0.061	441807	keystroke_Key.space	Key.space	n/a
221.7435	0.076	443487	keystroke_c	c	n/a
221.7895	0.134	443579	keystroke_o	o	n/a
221.8945	0.09	443789	keystroke_n	n	n/a
221.9695	0.075	443939	keystroke_f	f	n/a
222.0885	0.076	444177	keystroke_i	i	n/a
222.1795	0.0595	444359	keystroke_d	d	n/a
222.404	0.06	444808	keystroke_e	e	n/a
222.4795	0.105	444959	keystroke_n	n	n/a
222.599	0.0445	445198	keystroke_t	t	n/a
222.7335	0.09	445467	keystroke_i	i	n/a
222.855	0.0745	445710	keystroke_a	a	n/a
223.094	0.1355	446188	keystroke_l	l	n/a
223.544	0.0455	447088	keystroke_i	i	n/a
223.7095	0.06	447419	keystroke_t	t	n/a
223.8745	0.075	447749	keystroke_y	y	n/a
226.726	0.001	453452	keystroke_Key.enter	Key.enter	n/a
226.7355	6.14	453471	prompt	n/a	independently death intention worker\n
227.73	0.1185	455460	keystroke_i	i	n/a
227.8045	0.09	455609	keystroke_n	n	n/a
227.8645	0.06	455729	keystroke_d	d	n/a
228.0145	0.06	456029	keystroke_e	e	n/a
228.1045	0.075	456209	keystroke_p	p	n/a
228.209	0.061	456418	keystroke_e	e	n/a
228.3145	0.074	456629	keystroke_n	n	n/a
228.4935	0.0905	456987	keystroke_d	d	n/a
228.719	0.0595	457438	keystroke_e	e	n/a
228.8385	0.075	457677	keystroke_n	n	n/a
228.9435	0.0605	457887	keystroke_t	t	n/a
229.0495	0.074	458099	keystroke_l	l	n/a
229.259	0.06	458518	keystroke_y	y	n/a
229.334	0.0905	458668	keystroke_Key.space	Key.space	n/a
229.559	0.06	459118	keystroke_d	d	n/a
229.709	0.12	459418	keystroke_e	e	n/a
229.784	0.135	459568	keystroke_a	a	n/a
229.92	0.074	459840	keystroke_t	t	n/a
229.9795	0.0745	459959	keystroke_h	h	n/a
230.099	0.075	460198	keystroke_Key.space	Key.space	n/a
230.699	0.15	461398	keystroke_i	i	n/a
230.819	0.09	461638	keystroke_n	n	n/a
230.9245	0.089	461849	keystroke_t	t	n/a
230.9845	0.09	461969	keystroke_e	e	n/a
231.1035	0.121	462207	keystroke_n	n	n/a
231.4795	0.06	462959	keystroke_t	t	n/a
231.569	0.225	463138	keystroke_i	i	n/a
231.644	0.136	463288	keystroke_o	o	n/a
231.659	0.18	463318	keystroke_n	n	n/a
231.854	0.075	463708	keystroke_Key.space	Key.space	n/a
231.989	0.06	463978	keystroke_w	w	n/a
232.109	0.09	464218	keystroke_o	o	n/a
232.214	0.075	464428	keystroke_r	r	n/a
232.304	0.0905	464608	keystroke_k	k	n/a
232.4085	0.106	464817	keystroke_e	e	n/a
232.4835	0.0755	464967	keystroke_r	r	n/a
232.8135	0.06	465627	keystroke_Key.enter	Key.enter	n/a
232.8785	6.0125	465757	prompt	n/a	deployment well threshold dayton\n
233.429	0.0755	466858	keystroke_d	d	n/a
233.6095	0.0445	467219	keystroke_e	e	n/a
233.7145	0.0595	467429	keystroke_p	p	n/a
233.879	0.06	467758	keystroke_l	l	n/a
234.059	0.075	468118	keystroke_o	o	n/a
234.2695	0.045	468539	keystroke_y	y	n/a
234.494	0.0455	468988	keystroke_m	m	n/a
234.554	0.0605	469108	keystroke_e	e	n/a
234.644	0.075	469288	keystroke_n	n	n/a
234.734	0.06	469468	keystroke_t	t	n/a
234.854	0.06	469708	keystroke_Key.space	Key.space	n/a
235.4545	0.0745	470909	keystroke_w	w	n/a
235.679	0.0455	471358	keystroke_e	e	n/a
235.769	0.0605	471538	keystroke_l	l	n/a
235.889	0.136	471778	keystroke_l	l	n/a
236.0095	0.09	472019	keystroke_Key.space	Key.space	n/a
236.114	0.075	472228	keystroke_t	t	n/a
236.234	0.09	472468	keystroke_h	h	n/a
236.325	0.119	472650	keystroke_r	r	n/a
236.399	0.1505	472798	keystroke_e	e	n/a
236.5335	0.091	473067	keystroke_s	s	n/a
236.7895	0.045	473579	keystroke_h	h	n/a
236.8795	0.0745	473759	keystroke_o	o	n/a
237.059	0.091	474118	keystroke_l	l	n/a
237.134	0.091	474268	keystroke_d	d	n/a
237.239	0.075	474478	keystroke_Key.space	Key.space	n/a
237.8995	0.119	475799	keystroke_d	d	n/a
238.0345	0.0745	476069	keystroke_a	a	n/a
238.1235	0.061	476247	keystroke_y	y	n/a
238.3045	0.06	476609	keystroke_t	t	n/a
238.3495	0.119	476699	keystroke_o	o	n/a
238.409	0.09	476818	keystroke_n	n	n/a
238.8135	0.076	477627	keystroke_Key.enter	Key.enter	n/a
238.896	8.4995	477792	prompt	n/a	dictionary bones victoria mouth\n
239.4445	0.0595	478889	keystroke_d	d	n/a
239.549	0.0755	479098	keystroke_i	i	n/a
239.6085	0.091	479217	keystroke_c	c	n/a
239.804	0.0455	479608	keystroke_t	t	n/a
239.879	0.18	479758	keystroke_i	i	n/a
239.939	0.0905	479878	keystroke_o	o	n/a
239.969	0.1055	479938	keystroke_n	n	n/a
240.044	0.12	480088	keystroke_a	a	n/a
240.119	0.075	480238	keystroke_r	r	n/a
240.239	0.061	480478	keystroke_y	y	n/a
240.329	0.075	480658	keystroke_Key.space	Key.space	n/a
240.974	0.0605	481948	keystroke_h	h	n/a
241.1395	0.0295	482279	keystroke_o	o	n/a
241.379	0.0605	482758	keystroke_Key.backspace	Key.backspace	n/a
241.5135	0.0605	483027	keystroke_Key.backspace	Key.backspace	n/a
241.7625	0.0515	483525	keystroke_b	b	n/a
241.8735	0.1055	483747	keystroke_o	o	n/a
241.9495	0.0745	483899	keystroke_n	n	n/a
241.9645	0.1345	483929	keystroke_e	e	n/a
242.0695	0.105	484139	keystroke_s	s	n/a
242.204	0.06	484408	keystroke_Key.space	Key.space	n/a
242.8195	0.0745	485639	keystroke_v	v	n/a
242.939	0.0745	485878	keystroke_i	i	n/a
243.029	0.0905	486058	keystroke_c	c	n/a
243.2245	0.045	486449	keystroke_t	t	n/a
243.2995	0.075	486599	keystroke_o	o	n/a
243.39	0.0745	486780	keystroke_r	r	n/a
243.539	0.0455	487078	keystroke_i	i	n/a
243.839	0.0745	487678	keystroke_a	a	n/a
243.989	0.0595	487978	keystroke_Key.space	Key.space	n/a
244.6485	0.09	489297	keystroke_m	m	n/a
244.8885	0.076	489777	keystroke_o	o	n/a
245.0085	0.0455	490017	keystroke_t	t	n/a
245.0845	0.06	490169	keystroke_u	u	n/a
245.265	0.0585	490530	keystroke_h	h	n/a
245.699	0.045	491398	keystroke_Key.backspace	Key.backspace	n/a
245.834	0.06	491668	keystroke_Key.backspace	Key.backspace	n/a
245.984	0.0595	491968	keystroke_Key.backspace	Key.backspace	n/a
246.1045	0.074	492209	keystroke_u	u	n/a
246.2245	0.0595	492449	keystroke_t	t	n/a
246.2995	0.06	492599	keystroke_h	h	n/a
247.334	0.0595	494668	keystroke_Key.enter	Key.enter	n/a
247.3995	6.3265	494799	prompt	n/a	religious hear shade kits\n
248.0545	0.135	496109	keystroke_r	r	n/a
248.129	0.1355	496258	keystroke_e	e	n/a
248.249	0.075	496498	keystroke_l	l	n/a
248.429	0.075	496858	keystroke_i	i	n/a
248.534	0.075	497068	keystroke_g	g	n/a
248.669	0.09	497338	keystroke_i	i	n/a
248.8795	0.1795	497759	keystroke_o	o	n/a
249.014	0.09	498028	keystroke_u	u	n/a
249.074	0.015	498148	keystroke_i	i	n/a
249.149	0.075	498298	keystroke_s	s	n/a
249.2385	0.0595	498477	keystroke_Key.space	Key.space	n/a
249.839	0.0445	499678	keystroke_Key.backspace	Key.backspace	n/a
249.9735	0.06	499947	keystroke_Key.backspace	Key.backspace	n/a
250.109	0.09	500218	keystroke_Key.backspace	Key.backspace	n/a
250.229	0.09	500458	keystroke_s	s	n/a
250.3345	0.089	500669	keystroke_Key.space	Key.space	n/a
251.1595	0.075	502319	keystroke_h	h	n/a
251.2195	0.18	502439	keystroke_e	e	n/a
251.3085	0.12	502617	keystroke_a	a	n/a
251.3685	0.121	502737	keystroke_r	r	n/a
251.5045	0.074	503009	keystroke_Key.space	Key.space	n/a
251.6535	0.091	503307	keystroke_s	s	n/a
251.7295	0.0595	503459	keystroke_h	h	n/a
251.8335	0.091	503667	keystroke_a	a	n/a
251.9095	0.074	503819	keystroke_d	d	n/a
252.0885	0.061	504177	keystroke_e	e	n/a
252.194	0.0595	504388	keystroke_Key.space	Key.space	n/a
252.5695	0.074	505139	keystroke_k	k	n/a
252.7645	0.059	505529	keystroke_i	i	n/a
252.7935	0.135	505587	keystroke_t	t	n/a
252.9295	0.119	505859	keystroke_s	s	n/a
253.6635	0.06	507327	keystroke_Key.enter	Key.enter	n/a
253.7315	6.9845	507463	prompt	n/a	denmark courses statewide developing\n
254.4445	0.104	508889	keystroke_d	d	n/a
254.6535	0.046	509307	keystroke_e	e	n/a
254.7145	0.0745	509429	keystroke_n	n	n/a
254.8945	0.0895	509789	keystroke_m	m	n/a
254.969	0.1055	509938	keystroke_a	a	n/a
255.059	0.075	510118	keystroke_r	r	n/a
255.164	0.0755	510328	keystroke_k	k	n/a
255.284	0.075	510568	keystroke_Key.space	Key.space	n/a
255.659	0.075	511318	keystroke_c	c	n/a
255.9295	0.1345	511859	keystroke_o	o	n/a
256.034	0.0755	512068	keystroke_u	u	n/a
256.124	0.105	512248	keystroke_r	r	n/a
256.214	0.15	512428	keystroke_s	s	n/a
256.289	0.135	512578	keystroke_e	e	n/a
256.544	0.06	513088	keystroke_s	s	n/a
256.709	0.06	513418	keystroke_Key.space	Key.space	n/a
257.3395	0.105	514679	keystroke_s	s	n/a
257.549	0.075	515098	keystroke_t	t	n/a
257.5945	0.1195	515189	keystroke_a	a	n/a
257.699	0.09	515398	keystroke_t	t	n/a
257.729	0.1205	515458	keystroke_e	e	n/a
258.0145	0.075	516029	keystroke_w	w	n/a
258.1495	0.074	516299	keystroke_i	i	n/a
258.2385	0.0455	516477	keystroke_d	d	n/a
258.404	0.0455	516808	keystroke_e	e	n/a
258.509	0.06	517018	keystroke_Key.space	Key.space	n/a
259.214	0.045	518428	keystroke_d	d	n/a
259.319	0.06	518638	keystroke_e	e	n/a
259.454	0.1055	518908	keystroke_v	v	n/a
259.5445	0.0595	519089	keystroke_e	e	n/a
259.589	0.09	519178	keystroke_l	l	n/a
259.784	0.075	519568	keystroke_o	o	n/a
259.949	0.0755	519898	keystroke_p	p	n/a
260.129	0.12	520258	keystroke_i	i	n/a
260.219	0.09	520438	keystroke_n	n	n/a
260.2785	0.0455	520557	keystroke_g	g	n/a
260.639	0.0745	521278	keystroke_Key.enter	Key.enter	n/a
260.72	6.7605	521440	prompt	n/a	beautifully spears acoustic peterson\n
261.3445	0.0745	522689	keystroke_b	b	n/a
261.3895	0.1195	522779	keystroke_e	e	n/a
261.494	0.1355	522988	keystroke_a	a	n/a
261.6145	0.0595	523229	keystroke_u	u	n/a
261.7195	0.06	523439	keystroke_t	t	n/a
261.914	0.03	523828	keystroke_i	i	n/a
261.988	0.0615	523976	keystroke_f	f	n/a
262.1545	0.0595	524309	keystroke_u	u	n/a
262.319	0.075	524638	keystroke_l	l	n/a
262.4545	0.0745	524909	keystroke_l	l	n/a
262.619	0.06	525238	keystroke_y	y	n/a
262.709	0.075	525418	keystroke_Key.space	Key.space	n/a
263.324	0.0755	526648	keystroke_s	s	n/a
263.489	0.06	526978	keystroke_p	p	n/a
263.564	0.1195	527128	keystroke_e	e	n/a
263.6095	0.3	527219	keystroke_a	a	n/a
263.924	0.105	527848	keystroke_r	r	n/a
264.074	0.075	528148	keystroke_s	s	n/a
264.194	0.075	528388	keystroke_Key.space	Key.space	n/a
264.8995	0.165	529799	keystroke_a	a	n/a
265.094	0.075	530188	keystroke_c	c	n/a
265.229	0.105	530458	keystroke_o	o	n/a
265.289	0.1205	530578	keystroke_u	u	n/a
265.394	0.165	530788	keystroke_s	s	n/a
265.544	0.0755	531088	keystroke_t	t	n/a
265.6345	0.0895	531269	keystroke_i	i	n/a
265.754	0.09	531508	keystroke_c	c	n/a
265.889	0.075	531778	keystroke_Key.space	Key.space	n/a
266.324	0.075	532648	keystroke_p	p	n/a
266.384	0.105	532768	keystroke_e	e	n/a
266.5045	0.089	533009	keystroke_t	t	n/a
266.6095	0.105	533219	keystroke_e	e	n/a
266.6995	0.06	533399	keystroke_r	r	n/a
266.834	0.0895	533668	keystroke_s	s	n/a
266.8935	0.09	533787	keystroke_o	o	n/a
266.9385	0.076	533877	keystroke_n	n	n/a
267.4195	0.059	534839	keystroke_Key.enter	Key.enter	n/a
267.4845	7.001	534969	prompt	n/a	ears archived nurse juan\n
268.154	0.105	536308	keystroke_e	e	n/a
268.244	0.135	536488	keystroke_a	a	n/a
268.364	0.105	536728	keystroke_r	r	n/a
268.484	0.0895	536968	keystroke_s	s	n/a
268.5885	0.09	537177	keystroke_Key.space	Key.space	n/a
268.7685	0.075	537537	keystroke_a	a	n/a
269.309	0.075	538618	keystroke_r	r	n/a
269.519	0.06	539038	keystroke_c	c	n/a
269.5945	0.1045	539189	keystroke_h	h	n/a
269.684	0.105	539368	keystroke_i	i	n/a
269.744	0.0905	539488	keystroke_v	v	n/a
269.849	0.06	539698	keystroke_e	e	n/a
269.999	0.075	539998	keystroke_d	d	n/a
270.1345	0.0595	540269	keystroke_Key.space	Key.space	n/a
270.7645	0.09	541529	keystroke_n	n	n/a
270.884	0.091	541768	keystroke_r	r	n/a
271.0195	0.0595	542039	keystroke_u	u	n/a
271.0935	0.106	542187	keystroke_s	s	n/a
271.169	0.1055	542338	keystroke_e	e	n/a
271.3035	0.075	542607	keystroke_Key.space	Key.space	n/a
271.754	0.045	543508	keystroke_Key.backspace	Key.backspace	n/a
271.889	0.06	543778	keystroke_Key.backspace	Key.backspace	n/a
272.024	0.06	544048	keystroke_Key.backspace	Key.backspace	n/a
272.159	0.075	544318	keystroke_Key.backspace	Key.backspace	n/a
272.309	0.075	544618	keystroke_Key.backspace	Key.backspace	n/a
272.459	0.075	544918	keystroke_u	u	n/a
272.519	0.0905	545038	keystroke_r	r	n/a
272.624	0.105	545248	keystroke_s	s	n/a
272.669	0.105	545338	keystroke_e	e	n/a
272.804	0.06	545608	keystroke_Key.space	Key.space	n/a
273.509	0.06	547018	keystroke_j	j	n/a
273.704	0.075	547408	keystroke_u	u	n/a
273.914	0.075	547828	keystroke_a	a	n/a
274.079	0.0605	548158	keystroke_n	n	n/a
274.4245	0.059	548849	keystroke_Key.enter	Key.enter	n/a
274.491	7.105	548982	prompt	n/a	laser vitamins directions brooks\n
275.054	0.0905	550108	keystroke_l	l	n/a
275.114	0.075	550228	keystroke_a	a	n/a
275.174	0.18	550348	keystroke_s	s	n/a
275.339	0.106	550678	keystroke_e	e	n/a
275.414	0.1055	550828	keystroke_r	r	n/a
275.5335	0.0605	551067	keystroke_Key.space	Key.space	n/a
275.7745	0.059	551549	keystroke_v	v	n/a
275.8485	0.061	551697	keystroke_i	i	n/a
275.984	0.0905	551968	keystroke_t	t	n/a
276.1045	0.1195	552209	keystroke_a	a	n/a
276.254	0.06	552508	keystroke_i	i	n/a
277.004	0.06	554008	keystroke_Key.backspace	Key.backspace	n/a
277.2135	0.0605	554427	keystroke_m	m	n/a
277.3495	0.1045	554699	keystroke_i	i	n/a
277.4245	0.059	554849	keystroke_n	n	n/a
277.679	0.1045	555358	keystroke_s	s	n/a
277.8735	0.075	555747	keystroke_Key.space	Key.space	n/a
278.519	0.1805	557038	keystroke_d	d	n/a
278.7145	0.0895	557429	keystroke_i	i	n/a
278.8195	0.075	557639	keystroke_r	r	n/a
278.879	0.1205	557758	keystroke_e	e	n/a
279.044	0.075	558088	keystroke_c	c	n/a
279.239	0.045	558478	keystroke_t	t	n/a
279.3295	0.179	558659	keystroke_i	i	n/a
279.3895	0.105	558779	keystroke_o	o	n/a
279.449	0.1045	558898	keystroke_n	n	n/a
279.569	0.0605	559138	keystroke_s	s	n/a
279.764	0.075	559528	keystroke_Key.space	Key.space	n/a
280.2885	0.0905	560577	keystroke_b	b	n/a
280.5295	0.044	561059	keystroke_r	r	n/a
280.6335	0.061	561267	keystroke_o	o	n/a
280.784	0.1345	561568	keystroke_o	o	n/a
280.889	0.09	561778	keystroke_k	k	n/a
280.9945	0.089	561989	keystroke_s	s	n/a
281.534	0.06	563068	keystroke_Key.enter	Key.enter	n/a
281.601	7.1795	563202	prompt	n/a	campaigns beijing aging player\n
282.1945	0.105	564389	keystroke_c	c	n/a
282.2685	0.106	564537	keystroke_a	a	n/a
282.3895	0.09	564779	keystroke_m	m	n/a
282.5385	0.091	565077	keystroke_p	p	n/a
282.6445	0.0745	565289	keystroke_a	a	n/a
283.109	0.0605	566218	keystroke_i	i	n/a
283.2295	0.06	566459	keystroke_g	g	n/a
283.3195	0.075	566639	keystroke_n	n	n/a
283.6495	0.06	567299	keystroke_s	s	n/a
283.7985	0.0305	567597	keystroke_Key.space	Key.space	n/a
284.699	0.075	569398	keystroke_b	b	n/a
284.819	0.09	569638	keystroke_e	e	n/a
285.014	0.0755	570028	keystroke_i	i	n/a
285.224	0.045	570448	keystroke_j	j	n/a
285.3745	0.1045	570749	keystroke_i	i	n/a
285.449	0.0905	570898	keystroke_n	n	n/a
285.554	0.06	571108	keystroke_g	g	n/a
285.674	0.0605	571348	keystroke_Key.space	Key.space	n/a
286.289	0.09	572578	keystroke_a	a	n/a
286.454	0.061	572908	keystroke_g	g	n/a
286.544	0.12	573088	keystroke_i	i	n/a
286.619	0.105	573238	keystroke_n	n	n/a
286.739	0.045	573478	keystroke_g	g	n/a
286.8445	0.075	573689	keystroke_Key.space	Key.space	n/a
287.5195	0.075	575039	keystroke_p	p	n/a
287.7145	0.075	575429	keystroke_l	l	n/a
287.8045	0.075	575609	keystroke_a	a	n/a
287.9395	0.06	575879	keystroke_y	y	n/a
288.0145	0.105	576029	keystroke_e	e	n/a
288.0895	0.09	576179	keystroke_r	r	n/a
288.704	0.075	577408	keystroke_Key.enter	Key.enter	n/a
288.788	7.733	577576	prompt	n/a	though cube vocabulary songs\n
289.4245	0.06	578849	keystroke_t	t	n/a
289.4985	0.0905	578997	keystroke_h	h	n/a
289.7095	0.0895	579419	keystroke_i	i	n/a
289.724	0.06	579448	keystroke_o	o	n/a
289.829	0.1205	579658	keystroke_u	u	n/a
290.0085	0.06	580017	keystroke_g	g	n/a
290.129	0.12	580258	keystroke_h	h	n/a
290.4595	0.03	580919	keystroke_=	=	n/a
290.729	0.045	581458	keystroke_Key.backspace	Key.backspace	n/a
290.8645	0.0745	581729	keystroke_Key.backspace	Key.backspace	n/a
290.999	0.06	581998	keystroke_Key.backspace	Key.backspace	n/a
291.134	0.075	582268	keystroke_Key.backspace	Key.backspace	n/a
291.284	0.12	582568	keystroke_Key.backspace	Key.backspace	n/a
291.494	0.09	582988	keystroke_Key.backspace	Key.backspace	n/a
291.719	0.1195	583438	keystroke_o	o	n/a
291.8835	0.105	583767	keystroke_u	u	n/a
292.109	0.09	584218	keystroke_g	g	n/a
292.229	0.105	584458	keystroke_h	h	n/a
292.349	0.1055	584698	keystroke_Key.space	Key.space	n/a
292.6035	0.105	585207	keystroke_c	c	n/a
292.7835	0.0755	585567	keystroke_u	u	n/a
292.8745	0.09	585749	keystroke_b	b	n/a
292.9935	0.0755	585987	keystroke_e	e	n/a
293.084	0.0905	586168	keystroke_Key.space	Key.space	n/a
293.324	0.0605	586648	keystroke_v	v	n/a
293.4145	0.06	586829	keystroke_o	o	n/a
293.7895	0.0895	587579	keystroke_c	c	n/a
293.8935	0.0755	587787	keystroke_a	a	n/a
293.9985	0.106	587997	keystroke_b	b	n/a
294.3735	0.061	588747	keystroke_u	u	n/a
294.524	0.09	589048	keystroke_l	l	n/a
294.599	0.106	589198	keystroke_a	a	n/a
294.6895	0.0745	589379	keystroke_r	r	n/a
294.824	0.06	589648	keystroke_y	y	n/a
294.9745	0.0745	589949	keystroke_Key.space	Key.space	n/a
295.664	0.075	591328	keystroke_s	s	n/a
295.769	0.1195	591538	keystroke_o	o	n/a
295.859	0.0755	591718	keystroke_n	n	n/a
295.9495	0.09	591899	keystroke_g	g	n/a
296.0095	0.09	592019	keystroke_s	s	n/a
296.444	0.075	592888	keystroke_Key.enter	Key.enter	n/a
296.5255	6.97	593051	prompt	n/a	vessels latina sharing sponsored\n
297.194	0.105	594388	keystroke_v	v	n/a
297.344	0.0605	594688	keystroke_e	e	n/a
297.5245	0.06	595049	keystroke_s	s	n/a
297.6735	0.091	595347	keystroke_s	s	n/a
298.289	0.06	596578	keystroke_e	e	n/a
298.424	0.09	596848	keystroke_l	l	n/a
298.589	0.075	597178	keystroke_s	s	n/a
298.754	0.09	597508	keystroke_Key.space	Key.space	n/a
299.1135	0.0905	598227	keystroke_l	l	n/a
299.1895	0.074	598379	keystroke_a	a	n/a
299.3685	0.0605	598737	keystroke_t	t	n/a
299.4585	0.105	598917	keystroke_i	i	n/a
299.5195	0.105	599039	keystroke_n	n	n/a
299.6095	0.0745	599219	keystroke_a	a	n/a
299.7145	0.0895	599429	keystroke_Key.space	Key.space	n/a
300.5995	0.0595	601199	keystroke_s	s	n/a
300.674	0.06	601348	keystroke_h	h	n/a
300.734	0.1195	601468	keystroke_a	a	n/a
300.8535	0.061	601707	keystroke_r	r	n/a
300.9285	0.09	601857	keystroke_i	i	n/a
300.959	0.1045	601918	keystroke_n	n	n/a
301.0485	0.075	602097	keystroke_g	g	n/a
301.3195	0.074	602639	keystroke_Key.space	Key.space	n/a
301.7695	0.075	603539	keystroke_s	s	n/a
301.8735	0.09	603747	keystroke_p	p	n/a
302.0695	0.105	604139	keystroke_o	o	n/a
302.1445	0.075	604289	keystroke_n	n	n/a
302.2335	0.09	604467	keystroke_s	s	n/a
302.4145	0.075	604829	keystroke_o	o	n/a
302.5345	0.06	605069	keystroke_r	r	n/a
302.6695	0.075	605339	keystroke_e	e	n/a
302.8495	0.0605	605699	keystroke_d	d	n/a
303.4195	0.0745	606839	keystroke_Key.enter	Key.enter	n/a
303.4995	8.052	606999	prompt	n/a	implications weather disabilities moment\n
304.184	0.09	608368	keystroke_i	i	n/a
304.244	0.09	608488	keystroke_m	m	n/a
304.394	0.075	608788	keystroke_p	p	n/a
304.5735	0.076	609147	keystroke_l	l	n/a
304.7995	0.09	609599	keystroke_i	i	n/a
304.9345	0.105	609869	keystroke_c	c	n/a
305.0695	0.165	610139	keystroke_a	a	n/a
305.1895	0.09	610379	keystroke_t	t	n/a
305.2945	0.2095	610589	keystroke_i	i	n/a
305.3545	0.12	610709	keystroke_o	o	n/a
305.3695	0.15	610739	keystroke_n	n	n/a
305.534	0.0895	611068	keystroke_s	s	n/a
305.6535	0.09	611307	keystroke_Key.space	Key.space	n/a
306.2395	0.105	612479	keystroke_w	w	n/a
306.3295	0.135	612659	keystroke_e	e	n/a
306.4795	0.045	612959	keystroke_a	a	n/a
306.5395	0.075	613079	keystroke_t	t	n/a
306.6445	0.075	613289	keystroke_h	h	n/a
306.6895	0.105	613379	keystroke_e	e	n/a
306.7645	0.075	613529	keystroke_r	r	n/a
306.8545	0.075	613709	keystroke_Key.space	Key.space	n/a
307.334	0.09	614668	keystroke_d	d	n/a
307.469	0.1205	614938	keystroke_i	i	n/a
307.664	0.0895	615328	keystroke_s	s	n/a
307.7835	0.121	615567	keystroke_a	a	n/a
307.934	0.09	615868	keystroke_b	b	n/a
308.1285	0.0905	616257	keystroke_i	i	n/a
308.429	0.135	616858	keystroke_l	l	n/a
308.6085	0.0155	617217	keystroke_t	t	n/a
309.1795	0.015	618359	keystroke_Key.backspace	Key.backspace	n/a
309.314	0.0745	618628	keystroke_i	i	n/a
309.4195	0.06	618839	keystroke_t	t	n/a
309.4945	0.09	618989	keystroke_i	i	n/a
309.5985	0.046	619197	keystroke_e	e	n/a
309.7345	0.09	619469	keystroke_s	s	n/a
309.8385	0.075	619677	keystroke_Key.space	Key.space	n/a
310.649	0.0895	621298	keystroke_m	m	n/a
310.7535	0.106	621507	keystroke_o	o	n/a
310.8135	0.09	621627	keystroke_m	m	n/a
310.9185	0.0755	621837	keystroke_e	e	n/a
311.0085	0.06	622017	keystroke_n	n	n/a
311.0995	0.075	622199	keystroke_t	t	n/a
311.4595	0.089	622919	keystroke_Key.enter	Key.enter	n/a
311.5555	6.4305	623111	prompt	n/a	represents seen webshots dozen\n
312.224	0.1355	624448	keystroke_r	r	n/a
312.329	0.09	624658	keystroke_e	e	n/a
312.404	0.09	624808	keystroke_p	p	n/a
312.525	0.104	625050	keystroke_r	r	n/a
312.584	0.12	625168	keystroke_e	e	n/a
312.689	0.15	625378	keystroke_s	s	n/a
312.824	0.0905	625648	keystroke_e	e	n/a
312.959	0.06	625918	keystroke_n	n	n/a
313.034	0.06	626068	keystroke_t	t	n/a
313.169	0.09	626338	keystroke_s	s	n/a
313.2895	0.06	626579	keystroke_Key.space	Key.space	n/a
313.964	0.06	627928	keystroke_s	s	n/a
314.1285	0.031	628257	keystroke_e	e	n/a
314.2485	0.076	628497	keystroke_e	e	n/a
314.3395	0.134	628679	keystroke_n	n	n/a
314.4435	0.0755	628887	keystroke_Key.space	Key.space	n/a
314.5195	0.1195	629039	keystroke_w	w	n/a
314.6095	0.09	629219	keystroke_e	e	n/a
314.7135	0.0755	629427	keystroke_b	b	n/a
314.8635	0.075	629727	keystroke_s	s	n/a
314.9845	0.074	629969	keystroke_h	h	n/a
315.074	0.1055	630148	keystroke_o	o	n/a
315.1635	0.061	630327	keystroke_t	t	n/a
315.2835	0.105	630567	keystroke_s	s	n/a
315.4035	0.0755	630807	keystroke_Key.space	Key.space	n/a
316.2895	0.0445	632579	keystroke_d	d	n/a
316.4095	0.0895	632819	keystroke_o	o	n/a
316.5745	0.0905	633149	keystroke_e	e	n/a
317.0535	0.075	634107	keystroke_Key.backspace	Key.backspace	n/a
317.0845	0.089	634169	keystroke_z	z	n/a
317.2495	0.074	634499	keystroke_e	e	n/a
317.3395	0.059	634679	keystroke_n	n	n/a
317.9395	0.045	635879	keystroke_Key.enter	Key.enter	n/a
317.99	7.991	635980	prompt	n/a	christ starsmerchant third variations\n
318.675	0.0745	637350	keystroke_c	c	n/a
318.7645	0.09	637529	keystroke_h	h	n/a
318.8995	0.06	637799	keystroke_r	r	n/a
318.9745	0.104	637949	keystroke_i	i	n/a
319.0945	0.1345	638189	keystroke_s	s	n/a
319.214	0.06	638428	keystroke_t	t	n/a
319.484	0.06	638968	keystroke_Key.space	Key.space	n/a
320.2645	0.09	640529	keystroke_s	s	n/a
320.4895	0.044	640979	keystroke_t	t	n/a
320.774	0.135	641548	keystroke_a	a	n/a
320.9095	0.105	641819	keystroke_r	r	n/a
321.0295	0.119	642059	keystroke_s	s	n/a
321.3445	0.09	642689	keystroke_m	m	n/a
321.4185	0.091	642837	keystroke_e	e	n/a
321.494	0.0605	642988	keystroke_r	r	n/a
321.674	0.075	643348	keystroke_c	c	n/a
321.764	0.075	643528	keystroke_h	h	n/a
321.9595	0.0895	643919	keystroke_a	a	n/a
322.064	0.09	644128	keystroke_n	n	n/a
322.304	0.0605	644608	keystroke_t	t	n/a
322.4395	0.089	644879	keystroke_Key.space	Key.space	n/a
323.5945	0.0595	647189	keystroke_t	t	n/a
323.744	0.075	647488	keystroke_h	h	n/a
323.8645	0.0895	647729	keystroke_i	i	n/a
323.969	0.136	647938	keystroke_r	r	n/a
324.119	0.0905	648238	keystroke_d	d	n/a
324.269	0.0905	648538	keystroke_Key.space	Key.space	n/a
324.419	0.09	648838	keystroke_v	v	n/a
324.524	0.12	649048	keystroke_a	a	n/a
324.629	0.075	649258	keystroke_r	r	n/a
324.734	0.105	649468	keystroke_i	i	n/a
324.8845	0.119	649769	keystroke_a	a	n/a
324.9895	0.06	649979	keystroke_t	t	n/a
325.109	0.225	650218	keystroke_i	i	n/a
325.1845	0.1195	650369	keystroke_o	o	n/a
325.214	0.135	650428	keystroke_n	n	n/a
325.364	0.0755	650728	keystroke_s	s	n/a
325.919	0.06	651838	keystroke_Key.enter	Key.enter	n/a
325.9855	6.325	651971	prompt	n/a	heel household loop refurbished\n
326.6395	0.0595	653279	keystroke_h	h	n/a
326.714	0.045	653428	keystroke_e	e	n/a
326.849	0.09	653698	keystroke_e	e	n/a
326.984	0.105	653968	keystroke_l	l	n/a
327.119	0.09	654238	keystroke_Key.space	Key.space	n/a
327.269	0.075	654538	keystroke_h	h	n/a
327.3895	0.105	654779	keystroke_o	o	n/a
327.449	0.09	654898	keystroke_u	u	n/a
327.479	0.09	654958	keystroke_s	s	n/a
327.555	0.0595	655110	keystroke_e	e	n/a
327.6895	0.09	655379	keystroke_h	h	n/a
327.8245	0.09	655649	keystroke_o	o	n/a
328.0195	0.06	656039	keystroke_l	l	n/a
328.5135	0.046	657027	keystroke_d	d	n/a
328.6195	0.074	657239	keystroke_Key.space	Key.space	n/a
329.0685	0.0305	658137	keystroke_l	l	n/a
329.2345	0.045	658469	keystroke_o	o	n/a
329.3835	0.06	658767	keystroke_o	o	n/a
329.5335	0.0755	659067	keystroke_p	p	n/a
329.699	0.075	659398	keystroke_Key.space	Key.space	n/a
330.314	0.12	660628	keystroke_r	r	n/a
330.3895	0.1045	660779	keystroke_e	e	n/a
330.5845	0.075	661169	keystroke_f	f	n/a
330.674	0.075	661348	keystroke_u	u	n/a
330.81	0.074	661620	keystroke_r	r	n/a
330.914	0.06	661828	keystroke_b	b	n/a
331.4245	0.075	662849	keystroke_i	i	n/a
331.5445	0.06	663089	keystroke_s	s	n/a
331.6345	0.0755	663269	keystroke_h	h	n/a
331.7245	0.045	663449	keystroke_e	e	n/a
331.874	0.0605	663748	keystroke_d	d	n/a
332.2645	0.0445	664529	keystroke_Key.enter	Key.enter	n/a
332.313	6.2225	664626	prompt	n/a	clients maryland orleans standing\n
332.9695	0.09	665939	keystroke_c	c	n/a
333.179	0.09	666358	keystroke_l	l	n/a
333.359	0.075	666718	keystroke_i	i	n/a
333.449	0.06	666898	keystroke_e	e	n/a
333.555	0.0735	667110	keystroke_n	n	n/a
333.599	0.09	667198	keystroke_t	t	n/a
333.734	0.0895	667468	keystroke_s	s	n/a
333.839	0.09	667678	keystroke_Key.space	Key.space	n/a
334.1985	0.105	668397	keystroke_m	m	n/a
334.3345	0.074	668669	keystroke_a	a	n/a
334.724	0.0745	669448	keystroke_r	r	n/a
334.8295	0.089	669659	keystroke_y	y	n/a
335.0235	0.09	670047	keystroke_l	l	n/a
335.234	0.0445	670468	keystroke_a	a	n/a
335.3245	0.074	670649	keystroke_n	n	n/a
335.4135	0.0605	670827	keystroke_d	d	n/a
335.5185	0.0905	671037	keystroke_Key.space	Key.space	n/a
335.819	0.0905	671638	keystroke_o	o	n/a
335.9245	0.059	671849	keystroke_r	r	n/a
336.1195	0.075	672239	keystroke_l	l	n/a
336.225	0.0595	672450	keystroke_e	e	n/a
336.3745	0.1045	672749	keystroke_a	a	n/a
336.4635	0.061	672927	keystroke_n	n	n/a
336.6145	0.0755	673229	keystroke_s	s	n/a
336.704	0.075	673408	keystroke_Key.space	Key.space	n/a
337.2895	0.074	674579	keystroke_s	s	n/a
337.4985	0.0455	674997	keystroke_t	t	n/a
337.589	0.0755	675178	keystroke_a	a	n/a
337.6645	0.075	675329	keystroke_n	n	n/a
337.7545	0.06	675509	keystroke_d	d	n/a
337.8595	0.089	675719	keystroke_i	i	n/a
337.9045	0.074	675809	keystroke_n	n	n/a
337.9795	0.045	675959	keystroke_g	g	n/a
338.5195	0.014	677039	keystroke_Key.enter	Key.enter	n/a
338.5395	5.606	677079	prompt	n/a	hold combo here cooperation\n
339.1195	0.074	678239	keystroke_h	h	n/a
339.2095	0.089	678419	keystroke_o	o	n/a
339.4045	0.089	678809	keystroke_l	l	n/a
339.5095	0.044	679019	keystroke_d	d	n/a
339.764	0.0905	679528	keystroke_Key.space	Key.space	n/a
339.9445	0.0595	679889	keystroke_c	c	n/a
340.034	0.1205	680068	keystroke_o	o	n/a
340.1245	0.075	680249	keystroke_m	m	n/a
340.4095	0.09	680819	keystroke_b	b	n/a
340.6045	0.089	681209	keystroke_o	o	n/a
340.7695	0.074	681539	keystroke_Key.space	Key.space	n/a
341.2945	0.075	682589	keystroke_h	h	n/a
341.4895	0.105	682979	keystroke_e	e	n/a
341.6095	0.12	683219	keystroke_r	r	n/a
341.6995	0.105	683399	keystroke_e	e	n/a
341.8195	0.045	683639	keystroke_Key.space	Key.space	n/a
342.3895	0.075	684779	keystroke_c	c	n/a
342.5095	0.06	685019	keystroke_o	o	n/a
342.6435	0.0755	685287	keystroke_o	o	n/a
342.8245	0.089	685649	keystroke_p	p	n/a
342.9285	0.091	685857	keystroke_e	e	n/a
342.9895	0.089	685979	keystroke_r	r	n/a
343.1395	0.1045	686279	keystroke_a	a	n/a
343.2295	0.075	686459	keystroke_t	t	n/a
343.3045	0.2245	686609	keystroke_i	i	n/a
343.3935	0.1205	686787	keystroke_o	o	n/a
343.4095	0.1345	686819	keystroke_n	n	n/a
344.0995	0.044	688199	keystroke_Key.enter	Key.enter	n/a
344.1495	7.361	688299	prompt	n/a	avatar sophisticated turner ross\n
344.6395	0.1205	689279	keystroke_a	a	n/a
344.834	0.106	689668	keystroke_v	v	n/a
344.954	0.135	689908	keystroke_a	a	n/a
345.149	0.076	690298	keystroke_t	t	n/a
345.314	0.0455	690628	keystroke_o	o	n/a
345.719	0.0595	691438	keystroke_Key.backspace	Key.backspace	n/a
345.7935	0.1205	691587	keystroke_a	a	n/a
345.8835	0.075	691767	keystroke_r	r	n/a
345.9885	0.0455	691977	keystroke_Key.space	Key.space	n/a
346.634	0.09	693268	keystroke_s	s	n/a
346.799	0.1055	693598	keystroke_o	o	n/a
347.1895	0.044	694379	keystroke_h	h	n/a
347.6095	0.06	695219	keystroke_Key.backspace	Key.backspace	n/a
347.7885	0.06	695577	keystroke_p	p	n/a
347.9685	0.076	695937	keystroke_h	h	n/a
348.074	0.0755	696148	keystroke_i	i	n/a
348.1645	0.105	696329	keystroke_s	s	n/a
348.3295	0.0745	696659	keystroke_t	t	n/a
348.524	0.075	697048	keystroke_i	i	n/a
348.6295	0.09	697259	keystroke_c	c	n/a
348.779	0.075	697558	keystroke_a	a	n/a
348.899	0.075	697798	keystroke_t	t	n/a
348.9445	0.1045	697889	keystroke_e	e	n/a
349.124	0.09	698248	keystroke_d	d	n/a
349.2295	0.0595	698459	keystroke_Key.space	Key.space	n/a
349.9345	0.0445	699869	keystroke_t	t	n/a
350.0695	0.06	700139	keystroke_u	u	n/a
350.1595	0.0745	700319	keystroke_r	r	n/a
350.2485	0.09	700497	keystroke_n	n	n/a
350.3395	0.119	700679	keystroke_e	e	n/a
350.4145	0.074	700829	keystroke_r	r	n/a
350.534	0.0745	701068	keystroke_Key.space	Key.space	n/a
350.7135	0.075	701427	keystroke_r	r	n/a
350.8045	0.06	701609	keystroke_o	o	n/a
350.924	0.06	701848	keystroke_s	s	n/a
351.0745	0.0745	702149	keystroke_s	s	n/a
351.449	0.06	702898	keystroke_Key.enter	Key.enter	n/a
351.5165	8.2595	703033	prompt	n/a	symbols suggestion however captured\n
352.079	0.1205	704158	keystroke_s	s	n/a
352.2745	0.06	704549	keystroke_y	y	n/a
352.469	0.0745	704938	keystroke_n	n	n/a
352.964	0.0595	705928	keystroke_Key.backspace	Key.backspace	n/a
353.2495	0.075	706499	keystroke_m	m	n/a
353.459	0.0455	706918	keystroke_b	b	n/a
353.5645	0.075	707129	keystroke_o	o	n/a
353.864	0.0895	707728	keystroke_l	l	n/a
354.0135	0.091	708027	keystroke_s	s	n/a
354.119	0.0595	708238	keystroke_Key.space	Key.space	n/a
354.7345	0.075	709469	keystroke_s	s	n/a
354.8685	0.076	709737	keystroke_u	u	n/a
354.9745	0.06	709949	keystroke_g	g	n/a
355.1085	0.121	710217	keystroke_g	g	n/a
355.214	0.2245	710428	keystroke_e	e	n/a
355.3335	0.121	710667	keystroke_s	s	n/a
355.3945	0.1045	710789	keystroke_t	t	n/a
355.5145	0.165	711029	keystroke_i	i	n/a
355.574	0.0905	711148	keystroke_o	o	n/a
355.575	0.1345	711150	keystroke_n	n	n/a
355.8145	0.0745	711629	keystroke_Key.space	Key.space	n/a
356.4585	0.105	712917	keystroke_h	h	n/a
356.6095	0.105	713219	keystroke_o	o	n/a
356.7155	0.0885	713431	keystroke_w	w	n/a
356.774	0.0745	713548	keystroke_e	e	n/a
356.9235	0.076	713847	keystroke_v	v	n/a
357.0135	0.181	714027	keystroke_e	e	n/a
357.15	0.074	714300	keystroke_r	r	n/a
357.209	0.06	714418	keystroke_Key.space	Key.space	n/a
357.899	0.045	715798	keystroke_s	s	n/a
357.989	0.121	715978	keystroke_c	c	n/a
358.349	0.045	716698	keystroke_Key.backspace	Key.backspace	n/a
358.484	0.0905	716968	keystroke_Key.backspace	Key.backspace	n/a
358.5445	0.09	717089	keystroke_c	c	n/a
358.6195	0.105	717239	keystroke_a	a	n/a
358.694	0.075	717388	keystroke_p	p	n/a
358.8145	0.0745	717629	keystroke_t	t	n/a
358.9195	0.075	717839	keystroke_u	u	n/a
358.9795	0.0895	717959	keystroke_r	r	n/a
359.0395	0.09	718079	keystroke_e	e	n/a
359.2195	0.0755	718439	keystroke_d	d	n/a
359.699	0.0755	719398	keystroke_Key.enter	Key.enter	n/a
359.783	6.0225	719566	prompt	n/a	renewal courts apartment citation\n
360.434	0.1055	720868	keystroke_r	r	n/a
360.509	0.105	721018	keystroke_e	e	n/a
360.6445	0.09	721289	keystroke_n	n	n/a
360.719	0.1355	721438	keystroke_e	e	n/a
360.794	0.1055	721588	keystroke_w	w	n/a
361.0345	0.09	722069	keystroke_a	a	n/a
361.1395	0.075	722279	keystroke_l	l	n/a
361.2745	0.089	722549	keystroke_Key.space	Key.space	n/a
361.6495	0.104	723299	keystroke_c	c	n/a
361.7695	0.12	723539	keystroke_o	o	n/a
361.844	0.09	723688	keystroke_u	u	n/a
361.9045	0.0595	723809	keystroke_r	r	n/a
362.0845	0.0745	724169	keystroke_t	t	n/a
362.1745	0.0595	724349	keystroke_s	s	n/a
362.2795	0.0745	724559	keystroke_Key.space	Key.space	n/a
362.9695	0.1345	725939	keystroke_a	a	n/a
363.164	0.075	726328	keystroke_p	p	n/a
363.2545	0.09	726509	keystroke_a	a	n/a
363.3295	0.06	726659	keystroke_r	r	n/a
363.509	0.0605	727018	keystroke_t	t	n/a
363.5845	0.09	727169	keystroke_m	m	n/a
363.6895	0.075	727379	keystroke_e	e	n/a
363.7795	0.0745	727559	keystroke_n	n	n/a
363.869	0.075	727738	keystroke_t	t	n/a
363.974	0.105	727948	keystroke_Key.space	Key.space	n/a
364.484	0.075	728968	keystroke_c	c	n/a
364.6035	0.075	729207	keystroke_i	i	n/a
364.7095	0.059	729419	keystroke_t	t	n/a
364.8585	0.12	729717	keystroke_a	a	n/a
364.9495	0.059	729899	keystroke_t	t	n/a
365.024	0.225	730048	keystroke_i	i	n/a
365.1145	0.1195	730229	keystroke_o	o	n/a
365.144	0.1355	730288	keystroke_n	n	n/a
365.744	0.06	731488	keystroke_Key.enter	Key.enter	n/a
365.8095	7.8415	731619	prompt	n/a	divided lady mainland progressive\n
366.39	0.06	732780	keystroke_d	d	n/a
366.539	0.075	733078	keystroke_i	i	n/a
366.644	0.045	733288	keystroke_v	v	n/a
366.749	0.075	733498	keystroke_i	i	n/a
366.959	0.0605	733918	keystroke_d	d	n/a
367.1695	0.0295	734339	keystroke_e	e	n/a
367.3195	0.06	734639	keystroke_d	d	n/a
367.4385	0.075	734877	keystroke_Key.space	Key.space	n/a
367.8445	0.09	735689	keystroke_l	l	n/a
367.9195	0.2095	735839	keystroke_a	a	n/a
368.069	0.03	736138	keystroke_d	d	n/a
368.174	0.075	736348	keystroke_d	d	n/a
368.4295	0.0595	736859	keystroke_y	y	n/a
368.654	0.0445	737308	keystroke_Key.backspace	Key.backspace	n/a
368.7885	0.061	737577	keystroke_Key.backspace	Key.backspace	n/a
368.9245	0.075	737849	keystroke_y	y	n/a
369.0595	0.074	738119	keystroke_Key.space	Key.space	n/a
369.3895	0.075	738779	keystroke_m	m	n/a
369.4935	0.0905	738987	keystroke_a	a	n/a
369.7945	0.045	739589	keystroke_i	i	n/a
369.8095	0.075	739619	keystroke_n	n	n/a
370.0495	0.09	740099	keystroke_l	l	n/a
370.1845	0.075	740369	keystroke_a	a	n/a
370.4245	0.075	740849	keystroke_n	n	n/a
370.5445	0.075	741089	keystroke_d	d	n/a
370.6345	0.075	741269	keystroke_Key.space	Key.space	n/a
371.279	0.075	742558	keystroke_p	p	n/a
371.3395	0.0895	742679	keystroke_r	r	n/a
371.5335	0.045	743067	keystroke_o	o	n/a
371.5935	0.0615	743187	keystroke_g	g	n/a
371.759	0.0905	743518	keystroke_r	r	n/a
371.8195	0.074	743639	keystroke_e	e	n/a
371.9835	0.0605	743967	keystroke_s	s	n/a
372.1185	0.09	744237	keystroke_s	s	n/a
372.24	0.0745	744480	keystroke_i	i	n/a
372.3295	0.059	744659	keystroke_v	v	n/a
372.3895	0.0595	744779	keystroke_e	e	n/a
373.574	0.0755	747148	keystroke_Key.enter	Key.enter	n/a
373.6555	8.125	747311	prompt	n/a	tradition relevance chester locks\n
374.2495	0.074	748499	keystroke_t	t	n/a
374.3695	0.119	748739	keystroke_r	r	n/a
374.474	0.1655	748948	keystroke_a	a	n/a
374.6235	0.0755	749247	keystroke_d	d	n/a
374.7295	0.074	749459	keystroke_i	i	n/a
374.849	0.06	749698	keystroke_t	t	n/a
374.954	0.2255	749908	keystroke_i	i	n/a
375.0295	0.1805	750059	keystroke_n	n	n/a
375.045	0.104	750090	keystroke_o	o	n/a
375.21	0.0885	750420	keystroke_Key.space	Key.space	n/a
375.6585	0.045	751317	keystroke_Key.backspace	Key.backspace	n/a
375.7795	0.09	751559	keystroke_Key.backspace	Key.backspace	n/a
375.944	0.0755	751888	keystroke_Key.backspace	Key.backspace	n/a
376.169	0.09	752338	keystroke_o	o	n/a
376.214	0.1055	752428	keystroke_n	n	n/a
376.334	0.105	752668	keystroke_Key.space	Key.space	n/a
377.0845	0.075	754169	keystroke_r	r	n/a
377.1145	0.12	754229	keystroke_e	e	n/a
377.2795	0.09	754559	keystroke_l	l	n/a
377.3545	0.075	754709	keystroke_e	e	n/a
377.5345	0.075	755069	keystroke_v	v	n/a
377.624	0.1355	755248	keystroke_a	a	n/a
377.744	0.0455	755488	keystroke_t	t	n/a
377.804	0.1055	755608	keystroke_n	n	n/a
378.179	0.045	756358	keystroke_Key.backspace	Key.backspace	n/a
378.2985	0.045	756597	keystroke_Key.backspace	Key.backspace	n/a
378.4495	0.074	756899	keystroke_n	n	n/a
378.5085	0.091	757017	keystroke_c	c	n/a
378.584	0.0905	757168	keystroke_e	e	n/a
378.704	0.075	757408	keystroke_Key.space	Key.space	n/a
379.439	0.105	758878	keystroke_c	c	n/a
379.53	0.074	759060	keystroke_h	h	n/a
379.619	0.1805	759238	keystroke_e	e	n/a
379.769	0.1505	759538	keystroke_s	s	n/a
379.9345	0.0745	759869	keystroke_t	t	n/a
379.994	0.1505	759988	keystroke_e	e	n/a
380.114	0.09	760228	keystroke_r	r	n/a
380.204	0.075	760408	keystroke_Key.space	Key.space	n/a
380.489	0.06	760978	keystroke_l	l	n/a
380.6995	0.06	761399	keystroke_o	o	n/a
380.7745	0.09	761549	keystroke_c	c	n/a
380.8795	0.0895	761759	keystroke_k	k	n/a
380.984	0.06	761968	keystroke_s	s	n/a
381.7045	0.0745	763409	keystroke_Key.enter	Key.enter	n/a
381.783	7.213	763566	prompt	n/a	programmers evaluate acer rated\n
382.6795	0.059	765359	keystroke_p	p	n/a
382.7695	0.104	765539	keystroke_r	r	n/a
383.1595	0.06	766319	keystroke_o	o	n/a
383.2785	0.061	766557	keystroke_g	g	n/a
383.4135	0.091	766827	keystroke_r	r	n/a
383.5195	0.105	767039	keystroke_a	a	n/a
383.6085	0.076	767217	keystroke_m	m	n/a
383.7445	0.09	767489	keystroke_m	m	n/a
383.819	0.1205	767638	keystroke_e	e	n/a
383.8945	0.12	767789	keystroke_r	r	n/a
384.0295	0.0895	768059	keystroke_s	s	n/a
384.149	0.0755	768298	keystroke_Key.space	Key.space	n/a
384.869	0.061	769738	keystroke_e	e	n/a
385.0635	0.1355	770127	keystroke_l	l	n/a
385.4545	0.06	770909	keystroke_Key.backspace	Key.backspace	n/a
385.5295	0.104	771059	keystroke_v	v	n/a
385.6195	0.075	771239	keystroke_a	a	n/a
385.7235	0.075	771447	keystroke_l	l	n/a
385.934	0.0595	771868	keystroke_u	u	n/a
386.2035	0.105	772407	keystroke_a	a	n/a
386.2945	0.104	772589	keystroke_t	t	n/a
386.3685	0.105	772737	keystroke_e	e	n/a
386.4895	0.089	772979	keystroke_Key.space	Key.space	n/a
387.1945	0.105	774389	keystroke_a	a	n/a
387.344	0.1055	774688	keystroke_c	c	n/a
387.5245	0.12	775049	keystroke_e	e	n/a
387.614	0.09	775228	keystroke_r	r	n/a
387.7345	0.1045	775469	keystroke_Key.space	Key.space	n/a
388.0645	0.075	776129	keystroke_r	r	n/a
388.3045	0.135	776609	keystroke_a	a	n/a
388.4095	0.09	776819	keystroke_t	t	n/a
388.4545	0.12	776909	keystroke_e	e	n/a
388.6495	0.075	777299	keystroke_d	d	n/a
388.949	0.0455	777898	keystroke_Key.enter	Key.enter	n/a
389	11.262	778000	prompt	n/a	they'll industries campbell bios\n
389.714	0.091	779428	keystroke_t	t	n/a
389.73	0.03	779460	keystroke_r	r	n/a
389.894	0.0905	779788	keystroke_h	h	n/a
389.999	0.075	779998	keystroke_e	e	n/a
390.104	0.09	780208	keystroke_y	y	n/a
390.599	0.0305	781198	keystroke_Key.backspace	Key.backspace	n/a
390.7345	0.0595	781469	keystroke_Key.backspace	Key.backspace	n/a
390.8535	0.076	781707	keystroke_Key.backspace	Key.backspace	n/a
391.019	0.0605	782038	keystroke_Key.backspace	Key.backspace	n/a
391.7395	0.075	783479	keystroke_h	h	n/a
391.8595	0.0595	783719	keystroke_e	e	n/a
391.949	0.0755	783898	keystroke_y	y	n/a
392.339	0.0455	784678	keystroke_'	'	n/a
392.759	0.06	785518	keystroke_l	l	n/a
392.9095	0.0595	785819	keystroke_l	l	n/a
393.0295	0.0745	786059	keystroke_Key.space	Key.space	n/a
393.9445	0.135	787889	keystroke_i	i	n/a
394.0195	0.09	788039	keystroke_n	n	n/a
394.1245	0.09	788249	keystroke_d	d	n/a
394.2595	0.075	788519	keystroke_u	u	n/a
394.3495	0.09	788699	keystroke_s	s	n/a
394.4545	0.045	788909	keystroke_t	t	n/a
394.5745	0.0895	789149	keystroke_r	r	n/a
394.649	0.0755	789298	keystroke_i	i	n/a
394.739	0.075	789478	keystroke_e	e	n/a
394.9045	0.0745	789809	keystroke_s	s	n/a
395.009	0.06	790018	keystroke_Key.space	Key.space	n/a
395.579	0.12	791158	keystroke_c	c	n/a
395.6845	0.1045	791369	keystroke_a	a	n/a
395.804	0.09	791608	keystroke_m	m	n/a
395.9395	0.09	791879	keystroke_p	p	n/a
396.1945	0.045	792389	keystroke_e	e	n/a
396.284	0.076	792568	keystroke_b	b	n/a
396.629	0.045	793258	keystroke_Key.backspace	Key.backspace	n/a
396.734	0.0755	793468	keystroke_Key.backspace	Key.backspace	n/a
396.929	0.0605	793858	keystroke_b	b	n/a
397.004	0.0605	794008	keystroke_e	e	n/a
397.109	0.0605	794218	keystroke_l	l	n/a
397.2445	0.105	794489	keystroke_l	l	n/a
397.3645	0.06	794729	keystroke_Key.space	Key.space	n/a
398.219	0.075	796438	keystroke_b	b	n/a
398.3995	0.09	796799	keystroke_i	i	n/a
398.579	0.075	797158	keystroke_o	o	n/a
398.684	0.0905	797368	keystroke_s	s	n/a
400.199	0.06	800398	keystroke_Key.enter	Key.enter	n/a
400.266	9.025	800532	prompt	n/a	laptops must've nudist visual\n
400.8595	0.104	801719	keystroke_l	l	n/a
400.9785	0.091	801957	keystroke_a	a	n/a
401.19	0.1045	802380	keystroke_p	p	n/a
401.3995	0.06	802799	keystroke_t	t	n/a
401.6095	0.0295	803219	keystroke_o	o	n/a
401.7145	0.0595	803429	keystroke_o	o	n/a
401.9245	0.0595	803849	keystroke_p	p	n/a
402.329	0.075	804658	keystroke_Key.backspace	Key.backspace	n/a
402.4945	0.06	804989	keystroke_Key.backspace	Key.backspace	n/a
402.614	0.075	805228	keystroke_[	[	n/a
402.704	0.0755	805408	keystroke_s	s	n/a
402.8235	0.061	805647	keystroke_Key.space	Key.space	n/a
403.1535	0.0455	806307	keystroke_Key.backspace	Key.backspace	n/a
403.3045	0.045	806609	keystroke_Key.backspace	Key.backspace	n/a
403.4395	0.06	806879	keystroke_Key.backspace	Key.backspace	n/a
403.619	0.0745	807238	keystroke_p	p	n/a
403.7245	0.1045	807449	keystroke_s	s	n/a
403.8595	0.075	807719	keystroke_Key.space	Key.space	n/a
404.504	0.105	809008	keystroke_m	m	n/a
404.729	0.06	809458	keystroke_u	u	n/a
404.774	0.1355	809548	keystroke_s	s	n/a
404.8795	0.0745	809759	keystroke_t	t	n/a
405.449	0.0755	810898	keystroke_'	'	n/a
405.509	0.105	811018	keystroke_v	v	n/a
405.584	0.1055	811168	keystroke_e	e	n/a
405.704	0.0605	811408	keystroke_Key.space	Key.space	n/a
406.7845	0.0745	813569	keystroke_n	n	n/a
406.994	0.06	813988	keystroke_u	u	n/a
407.0695	0.09	814139	keystroke_d	d	n/a
407.205	0.0595	814410	keystroke_i	i	n/a
407.2795	0.0905	814559	keystroke_s	s	n/a
407.5045	0.06	815009	keystroke_t	t	n/a
407.5945	0.075	815189	keystroke_Key.space	Key.space	n/a
408.255	0.1045	816510	keystroke_v	v	n/a
408.4495	0.09	816899	keystroke_i	i	n/a
408.5545	0.059	817109	keystroke_s	s	n/a
408.6595	0.059	817319	keystroke_u	u	n/a
408.7645	0.06	817529	keystroke_a	a	n/a
408.8545	0.09	817709	keystroke_l	l	n/a
409.2445	0.044	818489	keystroke_Key.enter	Key.enter	n/a
409.296	6.1	818592	prompt	n/a	intended movie teenage folder\n
410.0395	0.0145	820079	keystroke_t	t	n/a
410.2495	0.044	820499	keystroke_Key.backspace	Key.backspace	n/a
410.4755	0.074	820951	keystroke_i	i	n/a
410.52	0.0895	821040	keystroke_n	n	n/a
410.5945	0.09	821189	keystroke_t	t	n/a
410.6545	0.075	821309	keystroke_e	e	n/a
410.7595	0.075	821519	keystroke_n	n	n/a
410.864	0.0605	821728	keystroke_d	d	n/a
411.029	0.0455	822058	keystroke_e	e	n/a
411.1795	0.06	822359	keystroke_d	d	n/a
411.2845	0.0295	822569	keystroke_Key.space	Key.space	n/a
411.8085	0.091	823617	keystroke_m	m	n/a
411.9145	0.105	823829	keystroke_o	o	n/a
412.004	0.09	824008	keystroke_v	v	n/a
412.124	0.0755	824248	keystroke_e	e	n/a
412.2595	0.0745	824519	keystroke_i	i	n/a
412.529	0.0605	825058	keystroke_Key.backspace	Key.backspace	n/a
412.664	0.045	825328	keystroke_Key.backspace	Key.backspace	n/a
412.829	0.09	825658	keystroke_i	i	n/a
412.904	0.0755	825808	keystroke_e	e	n/a
413.0395	0.0745	826079	keystroke_Key.space	Key.space	n/a
413.309	0.06	826618	keystroke_t	t	n/a
413.4295	0.075	826859	keystroke_e	e	n/a
413.564	0.09	827128	keystroke_e	e	n/a
413.669	0.075	827338	keystroke_n	n	n/a
413.7895	0.09	827579	keystroke_a	a	n/a
413.8645	0.0755	827729	keystroke_g	g	n/a
413.91	0.119	827820	keystroke_e	e	n/a
414.089	0.06	828178	keystroke_Key.space	Key.space	n/a
414.4345	0.0595	828869	keystroke_f	f	n/a
414.5095	0.0895	829019	keystroke_o	o	n/a
414.69	0.104	829380	keystroke_l	l	n/a
414.779	0.0455	829558	keystroke_d	d	n/a
414.9295	0.1045	829859	keystroke_e	e	n/a
415.004	0.0755	830008	keystroke_r	r	n/a
415.3345	0.0595	830669	keystroke_Key.enter	Key.enter	n/a
415.4005	5.5155	830801	prompt	n/a	posters checks ideal ladder\n
416.1595	0.0745	832319	keystroke_p	p	n/a
416.3545	0.09	832709	keystroke_o	o	n/a
416.4295	0.135	832859	keystroke_s	s	n/a
416.5495	0.075	833099	keystroke_t	t	n/a
416.6395	0.12	833279	keystroke_e	e	n/a
416.7295	0.105	833459	keystroke_r	r	n/a
416.8795	0.075	833759	keystroke_s	s	n/a
416.9695	0.075	833939	keystroke_Key.space	Key.space	n/a
417.5395	0.0895	835079	keystroke_c	c	n/a
417.644	0.06	835288	keystroke_h	h	n/a
417.719	0.0905	835438	keystroke_e	e	n/a
417.7945	0.105	835589	keystroke_c	c	n/a
417.8695	0.075	835739	keystroke_k	k	n/a
417.9595	0.09	835919	keystroke_s	s	n/a
418.0945	0.074	836189	keystroke_Key.space	Key.space	n/a
418.95	0.0595	837900	keystroke_i	i	n/a
418.9945	0.03	837989	keystroke_d	d	n/a
419.0695	0.09	838139	keystroke_e	e	n/a
419.1895	0.09	838379	keystroke_a	a	n/a
419.2945	0.075	838589	keystroke_l	l	n/a
419.3995	0.105	838799	keystroke_Key.space	Key.space	n/a
419.7595	0.075	839519	keystroke_l	l	n/a
419.8195	0.075	839639	keystroke_a	a	n/a
419.954	0.0605	839908	keystroke_d	d	n/a
420.1195	0.06	840239	keystroke_d	d	n/a
420.374	0.106	840748	keystroke_e	e	n/a
420.464	0.075	840928	keystroke_r	r	n/a
420.854	0.06	841708	keystroke_Key.enter	Key.enter	n/a
420.9205	9.0405	841841	prompt	n/a	democrats where'd gentleman prescribed\n
421.5295	0.0595	843059	keystroke_d	d	n/a
421.694	0.06	843388	keystroke_e	e	n/a
421.784	0.12	843568	keystroke_m	m	n/a
421.949	0.09	843898	keystroke_o	o	n/a
422.2795	0.0745	844559	keystroke_c	c	n/a
422.5495	0.09	845099	keystroke_r	r	n/a
422.699	0.135	845398	keystroke_a	a	n/a
422.8495	0.0595	845699	keystroke_t	t	n/a
423.1045	0.0595	846209	keystroke_s	s	n/a
423.2995	0.0895	846599	keystroke_Key.space	Key.space	n/a
423.614	0.09	847228	keystroke_w	w	n/a
423.6895	0.074	847379	keystroke_h	h	n/a
423.7495	0.075	847499	keystroke_e	e	n/a
423.8095	0.1195	847619	keystroke_r	r	n/a
423.8995	0.0905	847799	keystroke_e	e	n/a
424.6795	0.075	849359	keystroke_'	'	n/a
424.7395	0.075	849479	keystroke_d	d	n/a
424.874	0.0755	849748	keystroke_Key.space	Key.space	n/a
425.7595	0.105	851519	keystroke_g	g	n/a
425.8495	0.105	851699	keystroke_e	e	n/a
426.3295	0.105	852659	keystroke_n	n	n/a
426.7495	0.075	853499	keystroke_t	t	n/a
426.9445	0.105	853889	keystroke_l	l	n/a
427.1095	0.09	854219	keystroke_e	e	n/a
427.305	0.1195	854610	keystroke_m	m	n/a
427.4995	0.075	854999	keystroke_a	a	n/a
427.5895	0.0895	855179	keystroke_n	n	n/a
427.799	0.09	855598	keystroke_Key.space	Key.space	n/a
428.5345	0.075	857069	keystroke_p	p	n/a
428.624	0.09	857248	keystroke_r	r	n/a
428.654	0.1055	857308	keystroke_e	e	n/a
428.834	0.1055	857668	keystroke_s	s	n/a
429.074	0.075	858148	keystroke_c	c	n/a
429.254	0.0755	858508	keystroke_r	r	n/a
429.314	0.105	858628	keystroke_i	i	n/a
429.389	0.0905	858778	keystroke_b	b	n/a
429.449	0.061	858898	keystroke_e	e	n/a
429.584	0.106	859168	keystroke_d	d	n/a
429.8845	0.0745	859769	keystroke_Key.enter	Key.enter	n/a
429.965	9.131	859930	prompt	n/a	procedure covering aluminium prep\n
430.664	0.06	861328	keystroke_p	p	n/a
430.754	0.075	861508	keystroke_r	r	n/a
430.874	0.0605	861748	keystroke_o	o	n/a
430.95	0.104	861900	keystroke_c	c	n/a
431.129	0.075	862258	keystroke_i	i	n/a
431.145	0.074	862290	keystroke_u	u	n/a
431.564	0.0755	863128	keystroke_Key.backspace	Key.backspace	n/a
431.684	0.0905	863368	keystroke_Key.backspace	Key.backspace	n/a
431.789	0.0755	863578	keystroke_e	e	n/a
431.9695	0.09	863939	keystroke_u	u	n/a
432.0745	0.09	864149	keystroke_d	d	n/a
432.464	0.045	864928	keystroke_Key.backspace	Key.backspace	n/a
432.584	0.0905	865168	keystroke_Key.backspace	Key.backspace	n/a
432.6435	0.091	865287	keystroke_d	d	n/a
432.7945	0.06	865589	keystroke_u	u	n/a
432.8395	0.105	865679	keystroke_r	r	n/a
432.9145	0.105	865829	keystroke_e	e	n/a
433.0495	0.06	866099	keystroke_Key.space	Key.space	n/a
433.8295	0.06	867659	keystroke_c	c	n/a
433.9195	0.075	867839	keystroke_o	o	n/a
434.0245	0.075	868049	keystroke_v	v	n/a
434.1145	0.1345	868229	keystroke_e	e	n/a
434.234	0.061	868468	keystroke_r	r	n/a
434.325	0.104	868650	keystroke_i	i	n/a
434.385	0.09	868770	keystroke_n	n	n/a
434.46	0.074	868920	keystroke_g	g	n/a
434.579	0.075	869158	keystroke_Key.space	Key.space	n/a
435.2695	0.09	870539	keystroke_a	a	n/a
435.389	0.121	870778	keystroke_l	l	n/a
435.554	0.0745	871108	keystroke_u	u	n/a
436.004	0.12	872008	keystroke_m	m	n/a
436.4245	0.075	872849	keystroke_n	n	n/a
436.8595	0.045	873719	keystroke_Key.backspace	Key.backspace	n/a
437.07	0.149	874140	keystroke_i	i	n/a
437.174	0.09	874348	keystroke_n	n	n/a
437.4	0.059	874800	keystroke_u	u	n/a
437.579	0.09	875158	keystroke_m	m	n/a
438.1945	0.0745	876389	keystroke_Key.space	Key.space	n/a
438.42	0.059	876840	keystroke_p	p	n/a
438.509	0.106	877018	keystroke_r	r	n/a
438.569	0.105	877138	keystroke_e	e	n/a
438.644	0.075	877288	keystroke_p	p	n/a
439.0195	0.0745	878039	keystroke_Key.enter	Key.enter	n/a
439.1035	6.7275	878207	prompt	n/a	thirty false broken desired\n
439.739	0.0755	879478	keystroke_t	t	n/a
439.799	0.0905	879598	keystroke_h	h	n/a
439.9345	0.09	879869	keystroke_i	i	n/a
440.039	0.0455	880078	keystroke_r	r	n/a
440.1895	0.0745	880379	keystroke_t	t	n/a
440.2795	0.0605	880559	keystroke_y	y	n/a
440.34	0.0745	880680	keystroke_Key.space	Key.space	n/a
441.0595	0.135	882119	keystroke_f	f	n/a
441.179	0.12	882358	keystroke_a	a	n/a
441.314	0.105	882628	keystroke_l	l	n/a
441.434	0.1805	882868	keystroke_s	s	n/a
441.5695	0.104	883139	keystroke_e	e	n/a
441.734	0.0895	883468	keystroke_Key.space	Key.space	n/a
442.3945	0.06	884789	keystroke_b	b	n/a
442.5145	0.075	885029	keystroke_r	r	n/a
442.5745	0.15	885149	keystroke_o	o	n/a
442.6795	0.105	885359	keystroke_k	k	n/a
442.8	0.0895	885600	keystroke_e	e	n/a
442.9045	0.09	885809	keystroke_n	n	n/a
443.0545	0.09	886109	keystroke_Key.space	Key.space	n/a
443.6845	0.0755	887369	keystroke_d	d	n/a
443.9095	0.06	887819	keystroke_e	e	n/a
444.0295	0.075	888059	keystroke_i	i	n/a
444.0745	0.075	888149	keystroke_s	s	n/a
444.6895	0.105	889379	keystroke_Key.backspace	Key.backspace	n/a
444.8095	0.075	889619	keystroke_Key.backspace	Key.backspace	n/a
444.8995	0.075	889799	keystroke_s	s	n/a
445.0195	0.074	890039	keystroke_i	i	n/a
445.095	0.0885	890190	keystroke_r	r	n/a
445.1545	0.075	890309	keystroke_e	e	n/a
445.3345	0.09	890669	keystroke_d	d	n/a
445.7545	0.075	891509	keystroke_Key.enter	Key.enter	n/a
445.8355	10.106	891671	prompt	n/a	liabilities navigate forwarding modify\n
446.5345	0.105	893069	keystroke_l	l	n/a
446.8045	0.075	893609	keystroke_i	i	n/a
446.9095	0.09	893819	keystroke_a	a	n/a
447.1195	0.105	894239	keystroke_b	b	n/a
447.3445	0.075	894689	keystroke_i	i	n/a
447.6445	0.1195	895289	keystroke_l	l	n/a
447.824	0.105	895648	keystroke_i	i	n/a
448.004	0.075	896008	keystroke_t	t	n/a
448.155	0.09	896310	keystroke_i	i	n/a
448.289	0.0605	896578	keystroke_e	e	n/a
448.589	0.0755	897178	keystroke_s	s	n/a
448.71	0.075	897420	keystroke_Key.space	Key.space	n/a
449.519	0.0155	899038	keystroke_n	n	n/a
449.61	0.074	899220	keystroke_v	v	n/a
449.745	0.1645	899490	keystroke_a	a	n/a
450.074	0.046	900148	keystroke_Key.backspace	Key.backspace	n/a
450.2095	0.075	900419	keystroke_Key.backspace	Key.backspace	n/a
450.2245	0.1345	900449	keystroke_a	a	n/a
450.3005	0.089	900601	keystroke_v	v	n/a
450.464	0.0755	900928	keystroke_i	i	n/a
450.5695	0.09	901139	keystroke_g	g	n/a
450.6895	0.12	901379	keystroke_a	a	n/a
450.7945	0.1205	901589	keystroke_t	t	n/a
450.8695	0.12	901739	keystroke_e	e	n/a
451.0495	0.09	902099	keystroke_Key.space	Key.space	n/a
451.7245	0.075	903449	keystroke_f	f	n/a
451.814	0.0905	903628	keystroke_o	o	n/a
451.9345	0.105	903869	keystroke_r	r	n/a
452.0245	0.12	904049	keystroke_w	w	n/a
452.2195	0.09	904439	keystroke_a	a	n/a
452.2645	0.15	904529	keystroke_r	r	n/a
452.3695	0.09	904739	keystroke_d	d	n/a
452.4895	0.105	904979	keystroke_i	i	n/a
452.5345	0.09	905069	keystroke_n	n	n/a
452.61	0.0745	905220	keystroke_g	g	n/a
452.7445	0.09	905489	keystroke_Key.space	Key.space	n/a
453.6895	0.1045	907379	keystroke_m	m	n/a
453.779	0.121	907558	keystroke_o	o	n/a
453.885	0.089	907770	keystroke_d	d	n/a
454.094	0.046	908188	keystroke_f	f	n/a
454.815	0.074	909630	keystroke_Key.backspace	Key.backspace	n/a
455.0245	0.0745	910049	keystroke_i	i	n/a
455.1145	0.09	910229	keystroke_f	f	n/a
455.324	0.0755	910648	keystroke_y	y	n/a
455.8495	0.0895	911699	keystroke_Key.enter	Key.enter	n/a
455.946	8.171	911892	prompt	n/a	damages evident strengths mediawiki\n
456.614	0.046	913228	keystroke_d	d	n/a
456.674	0.075	913348	keystroke_a	a	n/a
456.7345	0.0905	913469	keystroke_m	m	n/a
456.8845	0.09	913769	keystroke_a	a	n/a
456.975	0.089	913950	keystroke_g	g	n/a
457.049	0.1655	914098	keystroke_e	e	n/a
457.139	0.136	914278	keystroke_s	s	n/a
457.2595	0.0745	914519	keystroke_Key.space	Key.space	n/a
457.994	0.046	915988	keystroke_e	e	n/a
458.144	0.106	916288	keystroke_v	v	n/a
458.309	0.075	916618	keystroke_i	i	n/a
458.399	0.045	916798	keystroke_d	d	n/a
458.519	0.075	917038	keystroke_e	e	n/a
458.625	0.0895	917250	keystroke_n	n	n/a
458.7295	0.075	917459	keystroke_t	t	n/a
458.8195	0.09	917639	keystroke_Key.space	Key.space	n/a
459.5245	0.0905	919049	keystroke_s	s	n/a
459.6595	0.0605	919319	keystroke_t	t	n/a
459.78	0.1195	919560	keystroke_r	r	n/a
459.8545	0.1055	919709	keystroke_e	e	n/a
460.0195	0.1045	920039	keystroke_n	n	n/a
460.169	0.06	920338	keystroke_g	g	n/a
460.364	0.045	920728	keystroke_t	t	n/a
460.439	0.075	920878	keystroke_h	h	n/a
460.59	0.0745	921180	keystroke_s	s	n/a
460.709	0.075	921418	keystroke_Key.space	Key.space	n/a
461.625	0.1195	923250	keystroke_m	m	n/a
461.909	0.076	923818	keystroke_e	e	n/a
462.1345	0.0755	924269	keystroke_d	d	n/a
462.2845	0.09	924569	keystroke_i	i	n/a
462.4045	0.059	924809	keystroke_a	a	n/a
462.959	0.0605	925918	keystroke_w	w	n/a
463.034	0.076	926068	keystroke_i	i	n/a
463.1845	0.075	926369	keystroke_k	k	n/a
463.3495	0.075	926699	keystroke_i	i	n/a
464.009	0.105	928018	keystroke_Key.enter	Key.enter	n/a
464.121	4.8095	928242	prompt	n/a	door mouth lows shake\n
464.714	0.06	929428	keystroke_d	d	n/a
464.834	0.06	929668	keystroke_o	o	n/a
464.954	0.105	929908	keystroke_o	o	n/a
465.044	0.076	930088	keystroke_r	r	n/a
465.1495	0.0895	930299	keystroke_Key.space	Key.space	n/a
465.329	0.076	930658	keystroke_m	m	n/a
465.5095	0.12	931019	keystroke_o	o	n/a
465.6145	0.09	931229	keystroke_u	u	n/a
465.7195	0.09	931439	keystroke_t	t	n/a
465.8245	0.09	931649	keystroke_h	h	n/a
465.8985	0.091	931797	keystroke_Key.space	Key.space	n/a
466.5745	0.119	933149	keystroke_l	l	n/a
466.649	0.0745	933298	keystroke_a	a	n/a
467.1145	0.074	934229	keystroke_Key.backspace	Key.backspace	n/a
467.34	0.0745	934680	keystroke_o	o	n/a
467.3995	0.0605	934799	keystroke_w	w	n/a
467.5795	0.1045	935159	keystroke_s	s	n/a
467.639	0.09	935278	keystroke_Key.space	Key.space	n/a
468.044	0.0595	936088	keystroke_s	s	n/a
468.1195	0.075	936239	keystroke_h	h	n/a
468.2095	0.075	936419	keystroke_a	a	n/a
468.3145	0.0755	936629	keystroke_k	k	n/a
468.4045	0.06	936809	keystroke_e	e	n/a
468.8845	0.044	937769	keystroke_Key.enter	Key.enter	n/a
468.934	5.937	937868	prompt	n/a	reprints knives reduce cycling\n
469.5745	0.1495	939149	keystroke_r	r	n/a
469.694	0.09	939388	keystroke_e	e	n/a
469.785	0.074	939570	keystroke_p	p	n/a
469.904	0.1055	939808	keystroke_r	r	n/a
470.024	0.105	940048	keystroke_i	i	n/a
470.099	0.12	940198	keystroke_n	n	n/a
470.22	0.074	940440	keystroke_t	t	n/a
470.309	0.09	940618	keystroke_s	s	n/a
470.444	0.09	940888	keystroke_Key.space	Key.space	n/a
471.014	0.09	942028	keystroke_k	k	n/a
471.179	0.0905	942358	keystroke_n	n	n/a
471.314	0.09	942628	keystroke_i	i	n/a
471.359	0.1055	942718	keystroke_v	v	n/a
471.554	0.15	943108	keystroke_e	e	n/a
471.675	0.1345	943350	keystroke_s	s	n/a
471.824	0.045	943648	keystroke_Key.space	Key.space	n/a
472.395	0.119	944790	keystroke_r	r	n/a
472.4845	0.09	944969	keystroke_e	e	n/a
472.664	0.09	945328	keystroke_d	d	n/a
472.7845	0.074	945569	keystroke_u	u	n/a
472.8595	0.105	945719	keystroke_c	c	n/a
472.9335	0.105	945867	keystroke_e	e	n/a
473.084	0.0895	946168	keystroke_Key.space	Key.space	n/a
473.7895	0.075	947579	keystroke_c	c	n/a
473.924	0.0905	947848	keystroke_y	y	n/a
474.0145	0.0895	948029	keystroke_c	c	n/a
474.105	0.089	948210	keystroke_l	l	n/a
474.2835	0.121	948567	keystroke_i	i	n/a
474.36	0.074	948720	keystroke_n	n	n/a
474.4345	0.029	948869	keystroke_g	g	n/a
474.809	0.0605	949618	keystroke_Key.enter	Key.enter	n/a
474.8755	5.7865	949751	prompt	n/a	taken behavior commerce grid\n
475.635	0.075	951270	keystroke_t	t	n/a
475.724	0.105	951448	keystroke_a	a	n/a
475.814	0.09	951628	keystroke_k	k	n/a
475.889	0.121	951778	keystroke_e	e	n/a
475.9945	0.104	951989	keystroke_n	n	n/a
476.0695	0.074	952139	keystroke_Key.space	Key.space	n/a
476.3395	0.0755	952679	keystroke_b	b	n/a
476.37	0.075	952740	keystroke_e	e	n/a
476.5495	0.06	953099	keystroke_h	h	n/a
476.6395	0.12	953279	keystroke_a	a	n/a
476.774	0.0755	953548	keystroke_v	v	n/a
476.8785	0.0615	953757	keystroke_i	i	n/a
477.059	0.0755	954118	keystroke_o	o	n/a
477.1495	0.06	954299	keystroke_r	r	n/a
477.2535	0.076	954507	keystroke_Key.space	Key.space	n/a
478.0045	0.075	956009	keystroke_c	c	n/a
478.0935	0.091	956187	keystroke_o	o	n/a
478.2745	0.06	956549	keystroke_m	m	n/a
478.3795	0.09	956759	keystroke_m	m	n/a
478.4545	0.12	956909	keystroke_e	e	n/a
478.5295	0.06	957059	keystroke_r	r	n/a
478.7095	0.105	957419	keystroke_c	c	n/a
478.9495	0.06	957899	keystroke_e	e	n/a
479.0545	0.0745	958109	keystroke_Key.space	Key.space	n/a
479.7295	0.075	959459	keystroke_g	g	n/a
480.0445	0.075	960089	keystroke_r	r	n/a
480.1345	0.09	960269	keystroke_i	i	n/a
480.2395	0.075	960479	keystroke_d	d	n/a
480.629	0.0305	961258	keystroke_Key.enter	Key.enter	n/a
480.666	4.105	961332	prompt	n/a	given reach side vanilla\n
481.38	0.06	962760	keystroke_g	g	n/a
481.4695	0.09	962939	keystroke_i	i	n/a
481.575	0.0895	963150	keystroke_v	v	n/a
481.6345	0.105	963269	keystroke_e	e	n/a
481.6945	0.09	963389	keystroke_n	n	n/a
481.8145	0.0745	963629	keystroke_Key.space	Key.space	n/a
481.919	0.0905	963838	keystroke_r	r	n/a
481.979	0.1205	963958	keystroke_e	e	n/a
482.085	0.1495	964170	keystroke_a	a	n/a
482.174	0.09	964348	keystroke_c	c	n/a
482.25	0.074	964500	keystroke_h	h	n/a
482.339	0.105	964678	keystroke_Key.space	Key.space	n/a
482.9545	0.075	965909	keystroke_s	s	n/a
483.09	0.0745	966180	keystroke_i	i	n/a
483.1495	0.045	966299	keystroke_d	d	n/a
483.3145	0.0305	966629	keystroke_e	e	n/a
483.3595	0.09	966719	keystroke_Key.space	Key.space	n/a
483.629	0.09	967258	keystroke_v	v	n/a
483.704	0.0755	967408	keystroke_a	a	n/a
