onset	duration	sample	value	key	prompt_text
11.4555	12.8585	22911	prompt	n/a	the quick brown fox jumps over a lazy dog\n
13.826	0.06	27652	keystroke_q	q	n/a
14.0215	0.0745	28043	keystroke_u	u	n/a
14.186	0.075	28372	keystroke_i	i	n/a
14.351	0.0745	28702	keystroke_c	c	n/a
14.5465	0.09	29093	keystroke_k	k	n/a
15.2505	0.0755	30501	keystroke_Key.space	Key.space	n/a
15.431	0.0895	30862	keystroke_b	b	n/a
15.5055	0.0905	31011	keystroke_r	r	n/a
15.6855	0.09	31371	keystroke_o	o	n/a
15.8205	0.061	31641	keystroke_w	w	n/a
16.0605	0.1655	32121	keystroke_n	n	n/a
16.1505	0.1205	32301	keystroke_Key.space	Key.space	n/a
17.051	0.075	34102	keystroke_f	f	n/a
17.141	0.0905	34282	keystroke_i	i	n/a
17.3365	0.0895	34673	keystroke_x	x	n/a
17.4855	0.105	34971	keystroke_Key.space	Key.space	n/a
17.6955	0.09	35391	keystroke_j	j	n/a
17.8755	0.09	35751	keystroke_u	u	n/a
18.0705	0.195	36141	keystroke_m	m	n/a
18.2505	0.075	36501	keystroke_p	p	n/a
18.3865	0.074	36773	keystroke_s	s	n/a
18.4755	0.06	36951	keystroke_Key.space	Key.space	n/a
18.701	0.075	37402	keystroke_=	=	n/a
18.881	0.0605	37762	keystroke_=	=	n/a
19.0765	0.045	38153	keystroke_=	=	n/a
19.211	0.06	38422	keystroke_Key.backspace	Key.backspace	n/a
19.346	0.09	38692	keystroke_Key.backspace	Key.backspace	n/a
19.556	0.045	39112	keystroke_Key.backspace	Key.backspace	n/a
20.186	0.0755	40372	keystroke_o	o	n/a
20.456	0.075	40912	keystroke_v	v	n/a
20.576	0.0755	41152	keystroke_e	e	n/a
20.771	0.075	41542	keystroke_r	r	n/a
20.8605	0.0755	41721	keystroke_Key.space	Key.space	n/a
20.996	0.06	41992	keystroke_a	a	n/a
21.101	0.045	42202	keystroke_Key.space	Key.space	n/a
21.236	0.1045	42472	keystroke_l	l	n/a
21.5065	0.105	43013	keystroke_a	a	n/a
21.791	0.0905	43582	keystroke_z	z	n/a
21.9565	0.09	43913	keystroke_y	y	n/a
22.091	0.105	44182	keystroke_Key.space	Key.space	n/a
22.301	0.0895	44602	keystroke_d	d	n/a
22.4505	0.09	44901	keystroke_o	o	n/a
22.6005	0.0605	45201	keystroke_g	g	n/a
22.9005	0.076	45801	keystroke_'	'	n/a
24.056	0.0595	48112	keystroke_Key.backspace	Key.backspace	n/a
24.236	0.075	48472	keystroke_Key.enter	Key.enter	n/a
24.32	9.758	48640	prompt	n/a	scenic troubleshooting saskatchewan again\n
25.1515	0.074	50303	keystroke_s	s	n/a
25.6005	0.0755	51201	keystroke_c	c	n/a
25.7965	0.06	51593	keystroke_e	e	n/a
25.9315	0.119	51863	keystroke_n	n	n/a
26.0205	0.12	52041	keystroke_i	i	n/a
26.1255	0.09	52251	keystroke_c	c	n/a
26.3055	0.1055	52611	keystroke_Key.space	Key.space	n/a
26.9055	0.076	53811	keystroke_t	t	n/a
27.086	0.0905	54172	keystroke_r	r	n/a
27.161	0.0905	54322	keystroke_o	o	n/a
27.3705	0.076	54741	keystroke_u	u	n/a
27.461	0.0605	54922	keystroke_b	b	n/a
27.566	0.09	55132	keystroke_l	l	n/a
27.7165	0.074	55433	keystroke_e	e	n/a
27.9265	0.089	55853	keystroke_s	s	n/a
28.0005	0.09	56001	keystroke_h	h	n/a
28.211	0.0605	56422	keystroke_o	o	n/a
28.3465	0.089	56693	keystroke_o	o	n/a
28.4815	0.075	56963	keystroke_t	t	n/a
28.6305	0.1665	57261	keystroke_i	i	n/a
28.7065	0.1195	57413	keystroke_n	n	n/a
28.781	0.09	57562	keystroke_g	g	n/a
28.9155	0.12	57831	keystroke_Key.space	Key.space	n/a
29.276	0.1045	58552	keystroke_s	s	n/a
29.846	0.0755	59692	keystroke_a	a	n/a
30.521	0.1055	61042	keystroke_s	s	n/a
31.1365	0.1045	62273	keystroke_k	k	n/a
31.421	0.015	62842	keystroke_a	a	n/a
31.526	0.105	63052	keystroke_t	t	n/a
31.736	0.0895	63472	keystroke_c	c	n/a
31.781	0.0895	63562	keystroke_h	h	n/a
31.991	0.09	63982	keystroke_e	e	n/a
32.216	0.09	64432	keystroke_w	w	n/a
32.4115	0.104	64823	keystroke_a	a	n/a
32.5755	0.165	65151	keystroke_n	n	n/a
32.711	0.1495	65422	keystroke_Key.space	Key.space	n/a
33.236	0.0745	66472	keystroke_a	a	n/a
33.386	0.1055	66772	keystroke_g	g	n/a
33.521	0.0905	67042	keystroke_a	a	n/a
33.6405	0.135	67281	keystroke_i	i	n/a
33.717	0.134	67434	keystroke_n	n	n/a
33.986	0.0895	67972	keystroke_Key.enter	Key.enter	n/a
34.096	9.6265	68192	prompt	n/a	proceedings ranking noticed debt\n
35.0355	0.106	70071	keystroke_p	p	n/a
35.1855	0.15	70371	keystroke_r	r	n/a
35.2905	0.091	70581	keystroke_o	o	n/a
35.4705	0.0905	70941	keystroke_c	c	n/a
35.681	0.075	71362	keystroke_e	e	n/a
35.876	0.06	71752	keystroke_d	d	n/a
36.3705	0.075	72741	keystroke_Key.backspace	Key.backspace	n/a
36.551	0.09	73102	keystroke_e	e	n/a
36.761	0.075	73522	keystroke_d	d	n/a
36.911	0.1195	73822	keystroke_d	d	n/a
37.0615	0.12	74123	keystroke_i	i	n/a
37.136	0.1355	74272	keystroke_n	n	n/a
37.2405	0.0755	74481	keystroke_g	g	n/a
37.6605	0.075	75321	keystroke_Key.backspace	Key.backspace	n/a
37.826	0.0605	75652	keystroke_Key.backspace	Key.backspace	n/a
37.9915	0.06	75983	keystroke_Key.backspace	Key.backspace	n/a
38.3205	0.1055	76641	keystroke_Key.backspace	Key.backspace	n/a
38.9665	0.12	77933	keystroke_i	i	n/a
39.0565	0.104	78113	keystroke_n	n	n/a
39.2655	0.09	78531	keystroke_g	g	n/a
39.4455	0.09	78891	keystroke_s	s	n/a
39.611	0.09	79222	keystroke_Key.space	Key.space	n/a
40.136	0.076	80272	keystroke_r	r	n/a
40.3455	0.0905	80691	keystroke_a	a	n/a
40.4205	0.091	80841	keystroke_n	n	n/a
41.2165	0.074	82433	keystroke_k	k	n/a
41.3955	0.135	82791	keystroke_i	i	n/a
41.4865	0.134	82973	keystroke_n	n	n/a
41.5455	0.09	83091	keystroke_g	g	n/a
41.711	0.0905	83422	keystroke_Key.space	Key.space	n/a
41.921	0.21	83842	keystroke_n	n	n/a
42.026	0.15	84052	keystroke_o	o	n/a
42.101	0.09	84202	keystroke_t	t	n/a
42.296	0.09	84592	keystroke_i	i	n/a
42.371	0.105	84742	keystroke_c	c	n/a
42.581	0.09	85162	keystroke_e	e	n/a
42.761	0.075	85522	keystroke_d	d	n/a
42.881	0.075	85762	keystroke_Key.space	Key.space	n/a
42.9715	0.09	85943	keystroke_d	d	n/a
43.1365	0.0895	86273	keystroke_e	e	n/a
43.287	0.0895	86574	keystroke_b	b	n/a
43.451	0.0755	86902	keystroke_t	t	n/a
43.646	0.075	87292	keystroke_Key.enter	Key.enter	n/a
43.7275	19.196	87455	prompt	n/a	collecting organisation appointed highlights\n
44.861	0.075	89722	keystroke_c	c	n/a
45.266	0.076	90532	keystroke_o	o	n/a
45.461	0.0455	90922	keystroke_l	l	n/a
45.626	0.045	91252	keystroke_l	l	n/a
45.7455	0.045	91491	keystroke_l	l	n/a
45.8515	0.0745	91703	keystroke_e	e	n/a
46.0915	0.09	92183	keystroke_c	c	n/a
46.3615	0.06	92723	keystroke_t	t	n/a
46.5115	0.12	93023	keystroke_i	i	n/a
46.5865	0.105	93173	keystroke_n	n	n/a
46.6615	0.09	93323	keystroke_g	g	n/a
46.7965	0.105	93593	keystroke_Key.space	Key.space	n/a
47.1865	0.03	94373	keystroke_Key.backspace	Key.backspace	n/a
47.3515	0.0445	94703	keystroke_=	=	n/a
47.5015	0.06	95003	keystroke_=	=	n/a
47.7415	0.059	95483	keystroke_Key.backspace	Key.backspace	n/a
47.8755	0.06	95751	keystroke_Key.backspace	Key.backspace	n/a
48.0105	0.045	96021	keystroke_Key.backspace	Key.backspace	n/a
48.206	0.045	96412	keystroke_Key.backspace	Key.backspace	n/a
48.3405	0.061	96681	keystroke_Key.backspace	Key.backspace	n/a
48.476	0.0595	96952	keystroke_Key.backspace	Key.backspace	n/a
48.611	0.0445	97222	keystroke_Key.backspace	Key.backspace	n/a
48.7455	0.075	97491	keystroke_Key.backspace	Key.backspace	n/a
48.9255	0.046	97851	keystroke_Key.backspace	Key.backspace	n/a
49.5855	0.1055	99171	keystroke_e	e	n/a
49.8265	0.0745	99653	keystroke_c	c	n/a
50.0215	0.06	100043	keystroke_t	t	n/a
50.126	0.1345	100252	keystroke_i	i	n/a
50.201	0.1195	100402	keystroke_n	n	n/a
50.3055	0.061	100611	keystroke_g	g	n/a
50.441	0.09	100882	keystroke_Key.space	Key.space	n/a
50.636	0.0755	101272	keystroke_o	o	n/a
50.801	0.075	101602	keystroke_r	r	n/a
50.98	0.0915	101960	keystroke_g	g	n/a
51.1465	0.09	102293	keystroke_a	a	n/a
51.492	0.0295	102984	keystroke_n	n	n/a
51.5065	0.06	103013	keystroke_i	i	n/a
52.4665	0.089	104933	keystroke_s	s	n/a
52.631	0.0905	105262	keystroke_a	a	n/a
52.886	0.075	105772	keystroke_t	t	n/a
53.036	0.09	106072	keystroke_i	i	n/a
53.231	0.135	106462	keystroke_o	o	n/a
53.306	0.09	106612	keystroke_n	n	n/a
53.471	0.09	106942	keystroke_Key.space	Key.space	n/a
53.621	0.06	107242	keystroke_a	a	n/a
53.7265	0.0595	107453	keystroke_p	p	n/a
53.8915	0.0745	107783	keystroke_p	p	n/a
54.0415	0.1195	108083	keystroke_o	o	n/a
54.266	0.135	108532	keystroke_i	i	n/a
54.341	0.15	108682	keystroke_n	n	n/a
54.446	0.076	108892	keystroke_t	t	n/a
54.656	0.0905	109312	keystroke_e	e	n/a
54.8365	0.0895	109673	keystroke_d	d	n/a
54.9405	0.0905	109881	keystroke_Key.space	Key.space	n/a
56.0955	0.12	112191	keystroke_h	h	n/a
57.3705	0.031	114741	keystroke_u	u	n/a
57.4905	0.091	114981	keystroke_g	g	n/a
57.5965	0.075	115193	keystroke_h	h	n/a
57.8215	0.0295	115643	keystroke_k	k	n/a
58.316	0.0455	116632	keystroke_=	=	n/a
58.4515	0.075	116903	keystroke_=	=	n/a
58.6015	0.06	117203	keystroke_=	=	n/a
58.7065	0.045	117413	keystroke_=	=	n/a
58.8265	0.045	117653	keystroke_=	=	n/a
59.0055	0.076	118011	keystroke_Key.backspace	Key.backspace	n/a
59.1415	0.18	118283	keystroke_Key.backspace	Key.backspace	n/a
59.3515	0.06	118703	keystroke_Key.backspace	Key.backspace	n/a
59.501	0.06	119002	keystroke_Key.backspace	Key.backspace	n/a
59.621	0.0745	119242	keystroke_Key.backspace	Key.backspace	n/a
59.7555	0.0905	119511	keystroke_Key.backspace	Key.backspace	n/a
59.9515	0.089	119903	keystroke_Key.backspace	Key.backspace	n/a
60.1155	0.1055	120231	keystroke_Key.backspace	Key.backspace	n/a
60.5965	0.0745	121193	keystroke_Key.backspace	Key.backspace	n/a
61.061	0.075	122122	keystroke_i	i	n/a
61.2415	0.0595	122483	keystroke_g	g	n/a
61.301	0.09	122602	keystroke_h	h	n/a
61.511	0.0905	123022	keystroke_l	l	n/a
61.706	0.06	123412	keystroke_i	i	n/a
61.841	0.09	123682	keystroke_g	g	n/a
61.916	0.105	123832	keystroke_h	h	n/a
62.0665	0.0895	124133	keystroke_t	t	n/a
62.321	0.09	124642	keystroke_s	s	n/a
62.8455	0.075	125691	keystroke_Key.enter	Key.enter	n/a
62.9275	11.141	125855	prompt	n/a	symbols perception messaging jackie\n
63.746	0.09	127492	keystroke_s	s	n/a
63.896	0.06	127792	keystroke_y	y	n/a
64.076	0.0895	128152	keystroke_m	m	n/a
64.2105	0.0905	128421	keystroke_b	b	n/a
64.346	0.045	128692	keystroke_o	o	n/a
64.511	0.0605	129022	keystroke_l	l	n/a
64.5865	0.075	129173	keystroke_s	s	n/a
64.766	0.09	129532	keystroke_Key.space	Key.space	n/a
65.1415	0.059	130283	keystroke_p	p	n/a
65.2905	0.076	130581	keystroke_e	e	n/a
65.4565	0.0895	130913	keystroke_r	r	n/a
65.6365	0.1055	131273	keystroke_c	c	n/a
65.846	0.075	131692	keystroke_e	e	n/a
65.981	0.03	131962	keystroke_p	p	n/a
66.101	0.06	132202	keystroke_t	t	n/a
66.221	0.12	132442	keystroke_i	i	n/a
66.446	0.1205	132892	keystroke_o	o	n/a
66.552	0.1335	133104	keystroke_n	n	n/a
66.8065	0.0895	133613	keystroke_Key.space	Key.space	n/a
67.062	0.1035	134124	keystroke_m	m	n/a
67.2265	0.09	134453	keystroke_e	e	n/a
67.4365	0.0445	134873	keystroke_s	s	n/a
67.5705	0.105	135141	keystroke_s	s	n/a
68.066	0.15	136132	keystroke_i	i	n/a
68.1565	0.1345	136313	keystroke_n	n	n/a
68.261	0.09	136522	keystroke_g	g	n/a
68.501	0.105	137002	keystroke_Key.space	Key.space	n/a
69.011	0.06	138022	keystroke_Key.backspace	Key.backspace	n/a
69.1455	0.075	138291	keystroke_Key.backspace	Key.backspace	n/a
69.3105	0.0605	138621	keystroke_Key.backspace	Key.backspace	n/a
69.4455	0.0755	138891	keystroke_Key.backspace	Key.backspace	n/a
70.5255	0.1205	141051	keystroke_a	a	n/a
71.156	0.0605	142312	keystroke_g	g	n/a
71.2465	0.12	142493	keystroke_i	i	n/a
71.306	0.135	142612	keystroke_n	n	n/a
71.456	0.0605	142912	keystroke_g	g	n/a
71.5615	0.12	143123	keystroke_Key.space	Key.space	n/a
72.4165	0.0745	144833	keystroke_j	j	n/a
72.506	0.09	145012	keystroke_a	a	n/a
72.7315	0.09	145463	keystroke_c	c	n/a
72.8365	0.0445	145673	keystroke_k	k	n/a
72.971	0.0745	145942	keystroke_i	i	n/a
73.076	0.0605	146152	keystroke_e	e	n/a
74.006	0.0595	148012	keystroke_Key.enter	Key.enter	n/a
74.0765	16.6265	148153	prompt	n/a	sprint tournament dolls thongs\n
74.8465	0.075	149693	keystroke_s	s	n/a
74.936	0.0905	149872	keystroke_p	p	n/a
75.116	0.06	150232	keystroke_r	r	n/a
75.2215	0.135	150443	keystroke_i	i	n/a
75.2965	0.1345	150593	keystroke_n	n	n/a
75.476	0.0455	150952	keystroke_t	t	n/a
75.551	0.105	151102	keystroke_Key.space	Key.space	n/a
76.046	0.0605	152092	keystroke_t	t	n/a
76.1515	0.0895	152303	keystroke_o	o	n/a
76.6155	0.091	153231	keystroke_u	u	n/a
76.766	0.0605	153532	keystroke_r	r	n/a
76.8705	0.09	153741	keystroke_n	n	n/a
77.0505	0.075	154101	keystroke_a	a	n/a
77.141	0.075	154282	keystroke_m	m	n/a
77.3065	0.06	154613	keystroke_e	e	n/a
77.501	0.0755	155002	keystroke_t	t	n/a
77.591	0.0895	155182	keystroke_Key.space	Key.space	n/a
77.771	0.075	155542	keystroke_d	d	n/a
77.876	0.075	155752	keystroke_o	o	n/a
78.0565	0.0595	156113	keystroke_l	l	n/a
78.2215	0.0595	156443	keystroke_l	l	n/a
78.4315	0.059	156863	keystroke_Key.backspace	Key.backspace	n/a
78.5805	0.06	157161	keystroke_Key.backspace	Key.backspace	n/a
78.716	0.0745	157432	keystroke_Key.backspace	Key.backspace	n/a
78.8665	0.059	157733	keystroke_Key.backspace	Key.backspace	n/a
79.0155	0.0755	158031	keystroke_Key.backspace	Key.backspace	n/a
79.1805	0.075	158361	keystroke_Key.backspace	Key.backspace	n/a
80.741	0.09	161482	keystroke_t	t	n/a
80.951	0.105	161902	keystroke_Key.space	Key.space	n/a
81.2515	0.0745	162503	keystroke_d	d	n/a
85.799	0.012	171598	keystroke_o	o	n/a
85.9305	0.046	171861	keystroke_l	l	n/a
86.0655	0.0755	172131	keystroke_l	l	n/a
86.3205	0.1055	172641	keystroke_s	s	n/a
86.546	0.075	173092	keystroke_Key.space	Key.space	n/a
86.9065	0.075	173813	keystroke_t	t	n/a
87.0115	0.075	174023	keystroke_h	h	n/a
87.2815	0.06	174563	keystroke_i	i	n/a
87.2965	0.165	174593	keystroke_n	n	n/a
87.7315	0.045	175463	keystroke_Key.backspace	Key.backspace	n/a
87.8655	0.0905	175731	keystroke_Key.backspace	Key.backspace	n/a
88.6455	0.15	177291	keystroke_o	o	n/a
88.7355	0.136	177471	keystroke_n	n	n/a
88.8565	0.09	177713	keystroke_g	g	n/a
89.1115	0.075	178223	keystroke_s	s	n/a
89.2315	0.1045	178463	keystroke_'	'	n/a
90.4465	0.0745	180893	keystroke_Key.backspace	Key.backspace	n/a
90.641	0.06	181282	keystroke_Key.enter	Key.enter	n/a
90.71	25.5985	181420	prompt	n/a	something's employment swedish forge\n
91.556	0.09	183112	keystroke_s	s	n/a
91.661	0.136	183322	keystroke_o	o	n/a
91.7215	0.135	183443	keystroke_m	m	n/a
91.8415	0.0895	183683	keystroke_e	e	n/a
92.052	0.09	184104	keystroke_t	t	n/a
92.112	0.0595	184224	keystroke_h	h	n/a
92.277	0.104	184554	keystroke_i	i	n/a
92.352	0.119	184704	keystroke_n	n	n/a
92.456	0.0605	184912	keystroke_g	g	n/a
93.176	0.061	186352	keystroke_'	'	n/a
93.341	0.09	186682	keystroke_s	s	n/a
93.4465	0.104	186893	keystroke_Key.space	Key.space	n/a
93.9115	0.075	187823	keystroke_e	e	n/a
94.0015	0.1355	188003	keystroke_o	o	n/a
94.0615	0.135	188123	keystroke_m	m	n/a
94.2715	0.105	188543	keystroke_p	p	n/a
94.3615	0.06	188723	keystroke_l	l	n/a
95.381	0.0755	190762	keystroke_o	o	n/a
95.6215	0.045	191243	keystroke_y	y	n/a
95.8015	0.09	191603	keystroke_m	m	n/a
95.9365	0.089	191873	keystroke_e	e	n/a
96.0405	0.0755	192081	keystroke_n	n	n/a
96.1765	0.089	192353	keystroke_t	t	n/a
96.2205	0.105	192441	keystroke_Key.space	Key.space	n/a
96.5365	0.1355	193073	keystroke_s	s	n/a
96.776	0.091	193552	keystroke_w	w	n/a
96.971	0.06	193942	keystroke_e	e	n/a
98.8165	0.0745	197633	keystroke_d	d	n/a
98.936	0.0905	197872	keystroke_i	i	n/a
99.191	0.06	198382	keystroke_s	s	n/a
99.3555	0.135	198711	keystroke_h	h	n/a
99.4605	0.1205	198921	keystroke_Key.space	Key.space	n/a
103.481	0.075	206962	keystroke_Key.backspace	Key.backspace	n/a
103.7655	0.075	207531	keystroke_Key.backspace	Key.backspace	n/a
103.931	0.0755	207862	keystroke_Key.backspace	Key.backspace	n/a
104.0805	0.091	208161	keystroke_Key.backspace	Key.backspace	n/a
104.2605	0.075	208521	keystroke_Key.backspace	Key.backspace	n/a
104.3965	0.09	208793	keystroke_Key.backspace	Key.backspace	n/a
104.5465	0.089	209093	keystroke_Key.backspace	Key.backspace	n/a
104.6965	0.09	209393	keystroke_Key.backspace	Key.backspace	n/a
104.862	0.074	209724	keystroke_Key.backspace	Key.backspace	n/a
105.596	0.075	211192	keystroke_m	m	n/a
105.791	0.1055	211582	keystroke_p	p	n/a
105.8815	0.164	211763	keystroke_l	l	n/a
106.061	0.1055	212122	keystroke_o	o	n/a
106.3465	0.0595	212693	keystroke_y	y	n/a
106.5415	0.0745	213083	keystroke_m	m	n/a
106.721	0.0895	213442	keystroke_e	e	n/a
106.8705	0.105	213741	keystroke_n	n	n/a
106.991	0.0605	213982	keystroke_t	t	n/a
107.111	0.1055	214222	keystroke_Key.space	Key.space	n/a
107.801	0.105	215602	keystroke_s	s	n/a
107.996	0.0755	215992	keystroke_w	w	n/a
108.1765	0.09	216353	keystroke_e	e	n/a
108.356	0.0755	216712	keystroke_i	i	n/a
108.476	0.0605	216952	keystroke_d	d	n/a
109.316	0.105	218632	keystroke_Key.backspace	Key.backspace	n/a
109.5265	0.1195	219053	keystroke_=	=	n/a
109.766	0.0905	219532	keystroke_d	d	n/a
109.9315	0.075	219863	keystroke_u	u	n/a
110.2915	0.0445	220583	keystroke_=	=	n/a
110.4265	0.0745	220853	keystroke_Key.backspace	Key.backspace	n/a
110.5615	0.074	221123	keystroke_Key.backspace	Key.backspace	n/a
110.7865	0.015	221573	keystroke_Key.backspace	Key.backspace	n/a
111.0115	0.06	222023	keystroke_Key.backspace	Key.backspace	n/a
111.1765	0.06	222353	keystroke_Key.backspace	Key.backspace	n/a
112.0165	0.075	224033	keystroke_d	d	n/a
112.1365	0.075	224273	keystroke_i	i	n/a
112.2565	0.06	224513	keystroke_s	s	n/a
112.3765	0.1045	224753	keystroke_h	h	n/a
112.586	0.0755	225172	keystroke_Key.space	Key.space	n/a
113.8005	0.045	227601	keystroke_Key.backspace	Key.backspace	n/a
113.907	0.0745	227814	keystroke_Key.backspace	Key.backspace	n/a
114.821	0.0905	229642	keystroke_h	h	n/a
114.926	0.105	229852	keystroke_Key.space	Key.space	n/a
115.182	0.0895	230364	keystroke_f	f	n/a
115.317	0.03	230634	keystroke_o	o	n/a
115.8265	0.06	231653	keystroke_r	r	n/a
115.9005	0.091	231801	keystroke_g	g	n/a
116.0665	0.06	232133	keystroke_e	e	n/a
116.2305	0.076	232461	keystroke_Key.enter	Key.enter	n/a
116.3165	14.3615	232633	prompt	n/a	dynamics todd java pierce\n
117.131	0.0745	234262	keystroke_d	d	n/a
117.2665	0.089	234533	keystroke_y	y	n/a
117.3565	0.075	234713	keystroke_b	b	n/a
117.4005	0.076	234801	keystroke_a	a	n/a
117.5805	0.1355	235161	keystroke_m	m	n/a
117.7005	0.0905	235401	keystroke_i	i	n/a
117.8065	0.0595	235613	keystroke_c	c	n/a
118.0005	0.0755	236001	keystroke_s	s	n/a
118.091	0.09	236182	keystroke_Key.space	Key.space	n/a
118.301	0.0605	236602	keystroke_t	t	n/a
118.3765	0.09	236753	keystroke_o	o	n/a
118.6315	0.045	237263	keystroke_d	d	n/a
118.7815	0.089	237563	keystroke_d	d	n/a
118.8855	0.105	237771	keystroke_Key.space	Key.space	n/a
119.3815	0.03	238763	keystroke_=	=	n/a
119.5015	0.045	239003	keystroke_Key.backspace	Key.backspace	n/a
119.6355	0.045	239271	keystroke_Key.backspace	Key.backspace	n/a
119.8005	0.046	239601	keystroke_Key.backspace	Key.backspace	n/a
119.9365	0.045	239873	keystroke_Key.backspace	Key.backspace	n/a
120.0865	0.03	240173	keystroke_Key.backspace	Key.backspace	n/a
120.2355	0.031	240471	keystroke_Key.backspace	Key.backspace	n/a
120.4005	0.045	240801	keystroke_Key.backspace	Key.backspace	n/a
120.5965	0.045	241193	keystroke_Key.backspace	Key.backspace	n/a
120.792	0.0295	241584	keystroke_Key.backspace	Key.backspace	n/a
121.0005	0.0305	242001	keystroke_Key.backspace	Key.backspace	n/a
121.1955	0.045	242391	keystroke_Key.backspace	Key.backspace	n/a
121.3915	0.045	242783	keystroke_Key.backspace	Key.backspace	n/a
121.6165	0.044	243233	keystroke_Key.backspace	Key.backspace	n/a
122.2765	0.075	244553	keystroke_n	n	n/a
122.411	0.09	244822	keystroke_a	a	n/a
122.516	0.1355	245032	keystroke_m	m	n/a
122.6065	0.105	245213	keystroke_i	i	n/a
122.7565	0.075	245513	keystroke_c	c	n/a
122.9365	0.0745	245873	keystroke_s	s	n/a
123.041	0.09	246082	keystroke_Key.space	Key.space	n/a
123.8065	0.09	247613	keystroke_t	t	n/a
123.9115	0.0455	247823	keystroke_i	i	n/a
123.9265	0.015	247853	keystroke_o	o	n/a
124.0465	0.06	248093	keystroke_d	d	n/a
124.2115	0.09	248423	keystroke_d	d	n/a
124.3165	0.12	248633	keystroke_Key.space	Key.space	n/a
124.5115	0.0445	249023	keystroke_j	j	n/a
125.381	0.045	250762	keystroke_Key.backspace	Key.backspace	n/a
125.531	0.045	251062	keystroke_Key.backspace	Key.backspace	n/a
125.6515	0.044	251303	keystroke_Key.backspace	Key.backspace	n/a
125.7865	0.06	251573	keystroke_Key.backspace	Key.backspace	n/a
125.9365	0.0445	251873	keystroke_Key.backspace	Key.backspace	n/a
126.0715	0.074	252143	keystroke_Key.backspace	Key.backspace	n/a
126.7915	0.06	253583	keystroke_o	o	n/a
126.956	0.0755	253912	keystroke_d	d	n/a
127.107	0.1045	254214	keystroke_d	d	n/a
127.241	0.0755	254482	keystroke_Key.space	Key.space	n/a
127.4065	0.06	254813	keystroke_j	j	n/a
127.4965	0.0745	254993	keystroke_a	a	n/a
127.6615	0.06	255323	keystroke_v	v	n/a
127.7515	0.045	255503	keystroke_a	a	n/a
127.886	0.0905	255772	keystroke_Key.space	Key.space	n/a
129.5965	0.09	259193	keystroke_p	p	n/a
129.7465	0.06	259493	keystroke_i	i	n/a
129.8515	0.09	259703	keystroke_e	e	n/a
130.0615	0.09	260123	keystroke_r	r	n/a
130.2565	0.0895	260513	keystroke_c	c	n/a
130.436	0.0905	260872	keystroke_e	e	n/a
130.601	0.075	261202	keystroke_Key.enter	Key.enter	n/a
130.6825	8.066	261365	prompt	n/a	translated hampshire libs lodge\n
131.7555	0.075	263511	keystroke_t	t	n/a
131.9355	0.076	263871	keystroke_r	r	n/a
132.1915	0.075	264383	keystroke_a	a	n/a
132.7165	0.0595	265433	keystroke_n	n	n/a
132.8515	0.0745	265703	keystroke_s	s	n/a
133.016	0.0605	266032	keystroke_l	l	n/a
133.1215	0.075	266243	keystroke_a	a	n/a
133.3155	0.061	266631	keystroke_t	t	n/a
133.4215	0.074	266843	keystroke_e	e	n/a
133.5855	0.091	267171	keystroke_d	d	n/a
133.6905	0.106	267381	keystroke_Key.space	Key.space	n/a
134.157	0.0895	268314	keystroke_h	h	n/a
134.2905	0.1055	268581	keystroke_a	a	n/a
134.4115	0.0895	268823	keystroke_m	m	n/a
134.666	0.09	269332	keystroke_p	p	n/a
135.0115	0.074	270023	keystroke_s	s	n/a
135.1465	0.0595	270293	keystroke_h	h	n/a
135.3105	0.061	270621	keystroke_i	i	n/a
135.387	0.0895	270774	keystroke_r	r	n/a
135.5665	0.0895	271133	keystroke_e	e	n/a
135.6855	0.0905	271371	keystroke_Key.space	Key.space	n/a
136.286	0.0905	272572	keystroke_l	l	n/a
136.511	0.06	273022	keystroke_i	i	n/a
136.766	0.061	273532	keystroke_b	b	n/a
136.9165	0.0745	273833	keystroke_s	s	n/a
137.096	0.0745	274192	keystroke_Key.space	Key.space	n/a
137.321	0.046	274642	keystroke_l	l	n/a
137.486	0.06	274972	keystroke_o	o	n/a
137.696	0.09	275392	keystroke_d	d	n/a
137.801	0.0905	275602	keystroke_g	g	n/a
138.011	0.0605	276022	keystroke_e	e	n/a
138.6865	0.06	277373	keystroke_Key.enter	Key.enter	n/a
138.7535	9.4295	277507	prompt	n/a	door brussels attending shopzilla\n
139.617	0.0595	279234	keystroke_d	d	n/a
139.7215	0.045	279443	keystroke_o	o	n/a
139.8565	0.0895	279713	keystroke_o	o	n/a
140.0065	0.075	280013	keystroke_r	r	n/a
140.1415	0.075	280283	keystroke_Key.space	Key.space	n/a
140.5615	0.0895	281123	keystroke_b	b	n/a
140.6665	0.075	281333	keystroke_r	r	n/a
140.802	0.059	281604	keystroke_u	u	n/a
140.921	0.06	281842	keystroke_s	s	n/a
141.0865	0.1045	282173	keystroke_s	s	n/a
141.281	0.0605	282562	keystroke_e	e	n/a
141.4465	0.075	282893	keystroke_s	s	n/a
141.7765	0.06	283553	keystroke_=	=	n/a
142.151	0.06	284302	keystroke_Key.backspace	Key.backspace	n/a
142.3165	0.06	284633	keystroke_Key.backspace	Key.backspace	n/a
142.9165	0.059	285833	keystroke_l	l	n/a
143.0065	0.074	286013	keystroke_s	s	n/a
143.0955	0.0905	286191	keystroke_Key.space	Key.space	n/a
143.2165	0.0895	286433	keystroke_a	a	n/a
143.3215	0.0445	286643	keystroke_t	t	n/a
143.456	0.075	286912	keystroke_t	t	n/a
143.6665	0.0755	287333	keystroke_e	e	n/a
143.727	0.074	287454	keystroke_n	n	n/a
143.847	0.074	287694	keystroke_d	d	n/a
143.9815	0.0605	287963	keystroke_u	u	n/a
144.0865	0.03	288173	keystroke_n	n	n/a
144.1015	0.06	288203	keystroke_g	g	n/a
144.2665	0.045	288533	keystroke_Key.space	Key.space	n/a
144.4765	0.06	288953	keystroke_Key.backspace	Key.backspace	n/a
144.6415	0.059	289283	keystroke_Key.backspace	Key.backspace	n/a
144.776	0.0605	289552	keystroke_Key.backspace	Key.backspace	n/a
144.8965	0.1045	289793	keystroke_Key.backspace	Key.backspace	n/a
145.602	0.134	291204	keystroke_i	i	n/a
145.6615	0.1045	291323	keystroke_n	n	n/a
145.751	0.0755	291502	keystroke_g	g	n/a
145.871	0.09	291742	keystroke_Key.space	Key.space	n/a
146.4865	0.075	292973	keystroke_s	s	n/a
146.621	0.1055	293242	keystroke_h	h	n/a
146.8915	0.075	293783	keystroke_o	o	n/a
147.0715	0.091	294143	keystroke_p	p	n/a
147.4765	0.075	294953	keystroke_z	z	n/a
147.5815	0.06	295163	keystroke_i	i	n/a
147.7315	0.075	295463	keystroke_l	l	n/a
147.8665	0.075	295733	keystroke_l	l	n/a
147.987	0.105	295974	keystroke_a	a	n/a
148.106	0.0745	296212	keystroke_Key.enter	Key.enter	n/a
148.189	7.8835	296378	prompt	n/a	brochure funny appraisal apache\n
149.2315	0.075	298463	keystroke_b	b	n/a
149.426	0.0755	298852	keystroke_r	r	n/a
149.5315	0.09	299063	keystroke_o	o	n/a
149.7265	0.075	299453	keystroke_c	c	n/a
149.8615	0.06	299723	keystroke_h	h	n/a
150.0115	0.06	300023	keystroke_u	u	n/a
150.2815	0.075	300563	keystroke_r	r	n/a
150.4765	0.0745	300953	keystroke_e	e	n/a
150.5815	0.0745	301163	keystroke_Key.space	Key.space	n/a
151.286	0.105	302572	keystroke_f	f	n/a
151.421	0.06	302842	keystroke_u	u	n/a
151.6165	0.0445	303233	keystroke_n	n	n/a
151.751	0.09	303502	keystroke_n	n	n/a
151.856	0.0755	303712	keystroke_y	y	n/a
151.961	0.075	303922	keystroke_Key.space	Key.space	n/a
152.157	0.074	304314	keystroke_a	a	n/a
152.2465	0.0605	304493	keystroke_p	p	n/a
152.8755	0.045	305751	keystroke_p	p	n/a
153.0705	0.0915	306141	keystroke_r	r	n/a
154.196	0.09	308392	keystroke_a	a	n/a
154.316	0.076	308632	keystroke_i	i	n/a
154.466	0.075	308932	keystroke_s	s	n/a
154.646	0.0755	309292	keystroke_a	a	n/a
154.737	0.0595	309474	keystroke_l	l	n/a
154.886	0.0755	309772	keystroke_Key.space	Key.space	n/a
155.051	0.075	310102	keystroke_a	a	n/a
155.141	0.0605	310282	keystroke_p	p	n/a
155.3515	0.0745	310703	keystroke_a	a	n/a
155.5615	0.09	311123	keystroke_c	c	n/a
155.6365	0.09	311273	keystroke_h	h	n/a
155.8165	0.045	311633	keystroke_e	e	n/a
155.9815	0.09	311963	keystroke_Key.enter	Key.enter	n/a
156.093	5.6795	312186	prompt	n/a	subscriber tide about invite\n
156.9115	0.075	313823	keystroke_s	s	n/a
157.1515	0.075	314303	keystroke_u	u	n/a
157.4215	0.075	314843	keystroke_b	b	n/a
157.841	0.0905	315682	keystroke_s	s	n/a
158.0665	0.09	316133	keystroke_c	c	n/a
158.2615	0.074	316523	keystroke_r	r	n/a
158.3505	0.076	316701	keystroke_i	i	n/a
158.5765	0.09	317153	keystroke_b	b	n/a
158.6805	0.09	317361	keystroke_e	e	n/a
158.8605	0.105	317721	keystroke_r	r	n/a
158.9815	0.089	317963	keystroke_Key.space	Key.space	n/a
159.4005	0.046	318801	keystroke_t	t	n/a
159.4465	0.0445	318893	keystroke_i	i	n/a
159.5815	0.075	319163	keystroke_d	d	n/a
159.747	0.059	319494	keystroke_e	e	n/a
159.821	0.105	319642	keystroke_Key.space	Key.space	n/a
160.001	0.0605	320002	keystroke_a	a	n/a
160.091	0.075	320182	keystroke_b	b	n/a
160.2715	0.0745	320543	keystroke_o	o	n/a
160.4515	0.075	320903	keystroke_u	u	n/a
160.4965	0.074	320993	keystroke_t	t	n/a
160.6005	0.09	321201	keystroke_Key.space	Key.space	n/a
160.797	0.1345	321594	keystroke_i	i	n/a
160.8715	0.105	321743	keystroke_n	n	n/a
161.0215	0.075	322043	keystroke_v	v	n/a
161.1115	0.0905	322223	keystroke_i	i	n/a
161.3665	0.045	322733	keystroke_t	t	n/a
161.4865	0.0605	322973	keystroke_e	e	n/a
161.6965	0.0745	323393	keystroke_Key.enter	Key.enter	n/a
161.7765	10.1665	323553	prompt	n/a	conclude bowling baby accompanying\n
162.627	0.044	325254	keystroke_c	c	n/a
162.731	0.15	325462	keystroke_o	o	n/a
162.821	0.12	325642	keystroke_n	n	n/a
162.926	0.09	325852	keystroke_c	c	n/a
163.0465	0.045	326093	keystroke_l	l	n/a
163.287	0.0745	326574	keystroke_u	u	n/a
163.3765	0.075	326753	keystroke_d	d	n/a
163.541	0.0755	327082	keystroke_e	e	n/a
163.6465	0.09	327293	keystroke_Key.space	Key.space	n/a
164.2765	0.06	328553	keystroke_c	c	n/a
164.6365	0.0745	329273	keystroke_Key.backspace	Key.backspace	n/a
164.8765	0.075	329753	keystroke_b	b	n/a
165.0565	0.075	330113	keystroke_o	o	n/a
165.1765	0.075	330353	keystroke_w	w	n/a
165.2815	0.09	330563	keystroke_l	l	n/a
165.477	0.1195	330954	keystroke_i	i	n/a
165.5515	0.135	331103	keystroke_n	n	n/a
165.6565	0.105	331313	keystroke_g	g	n/a
165.836	0.09	331672	keystroke_Key.space	Key.space	n/a
167.892	0.074	335784	keystroke_b	b	n/a
168.026	0.06	336052	keystroke_a	a	n/a
168.087	0.09	336174	keystroke_b	b	n/a
168.2665	0.0755	336533	keystroke_y	y	n/a
168.3865	0.1205	336773	keystroke_Key.space	Key.space	n/a
168.911	0.075	337822	keystroke_a	a	n/a
169.197	0.074	338394	keystroke_c	c	n/a
169.346	0.1205	338692	keystroke_c	c	n/a
169.511	0.1505	339022	keystroke_o	o	n/a
169.6465	0.12	339293	keystroke_m	m	n/a
169.842	0.1345	339684	keystroke_p	p	n/a
170.0065	0.09	340013	keystroke_a	a	n/a
170.1265	0.105	340253	keystroke_n	n	n/a
171.2815	0.0745	342563	keystroke_y	y	n/a
171.4615	0.12	342923	keystroke_i	i	n/a
171.4765	0.165	342953	keystroke_n	n	n/a
171.6255	0.076	343251	keystroke_g	g	n/a
171.836	0.105	343672	keystroke_Key.enter	Key.enter	n/a
171.948	6.43	343896	prompt	n/a	feels caught internet under\n
172.7665	0.075	345533	keystroke_f	f	n/a
172.9465	0.06	345893	keystroke_e	e	n/a
173.0965	0.074	346193	keystroke_e	e	n/a
173.2315	0.0905	346463	keystroke_l	l	n/a
173.396	0.075	346792	keystroke_s	s	n/a
173.546	0.105	347092	keystroke_Key.space	Key.space	n/a
173.711	0.075	347422	keystroke_c	c	n/a
173.9365	0.0445	347873	keystroke_a	a	n/a
174.0415	0.075	348083	keystroke_u	u	n/a
174.2515	0.075	348503	keystroke_g	g	n/a
174.4015	0.105	348803	keystroke_h	h	n/a
174.4915	0.09	348983	keystroke_t	t	n/a
174.6115	0.1045	349223	keystroke_Key.space	Key.space	n/a
175.061	0.121	350122	keystroke_i	i	n/a
175.121	0.135	350242	keystroke_n	n	n/a
175.271	0.09	350542	keystroke_t	t	n/a
175.4665	0.06	350933	keystroke_e	e	n/a
175.6465	0.045	351293	keystroke_r	r	n/a
175.7065	0.075	351413	keystroke_n	n	n/a
175.7965	0.075	351593	keystroke_e	e	n/a
176.0055	0.06	352011	keystroke_t	t	n/a
176.1115	0.089	352223	keystroke_Key.space	Key.space	n/a
177.507	0.1495	355014	keystroke_u	u	n/a
177.6105	0.1065	355221	keystroke_n	n	n/a
177.8355	0.105	355671	keystroke_d	d	n/a
178.0165	0.09	356033	keystroke_e	e	n/a
178.211	0.0605	356422	keystroke_r	r	n/a
178.286	0.09	356572	keystroke_Key.enter	Key.enter	n/a
178.3825	11.9955	356765	prompt	n/a	referral aluminium shakespeare eggs\n
179.261	0.075	358522	keystroke_r	r	n/a
179.412	0.09	358824	keystroke_e	e	n/a
179.6515	0.0895	359303	keystroke_f	f	n/a
179.877	0.074	359754	keystroke_e	e	n/a
180.0715	0.0755	360143	keystroke_r	r	n/a
180.252	0.074	360504	keystroke_r	r	n/a
180.5665	0.0745	361133	keystroke_a	a	n/a
180.731	0.06	361462	keystroke_l	l	n/a
180.896	0.0605	361792	keystroke_Key.space	Key.space	n/a
180.986	0.061	361972	keystroke_a	a	n/a
181.106	0.09	362212	keystroke_l	l	n/a
181.346	0.031	362692	keystroke_u	u	n/a
185.1585	0.013	370317	keystroke_m	m	n/a
185.621	0.06	371242	keystroke_i	i	n/a
185.801	0.075	371602	keystroke_n	n	n/a
185.9365	0.0905	371873	keystroke_i	i	n/a
186.191	0.0155	372382	keystroke_u	u	n/a
186.3565	0.075	372713	keystroke_m	m	n/a
186.4455	0.0905	372891	keystroke_Key.space	Key.space	n/a
187.0615	0.09	374123	keystroke_s	s	n/a
187.182	0.074	374364	keystroke_h	h	n/a
187.346	0.075	374692	keystroke_a	a	n/a
187.8115	0.075	375623	keystroke_k	k	n/a
187.931	0.076	375862	keystroke_e	e	n/a
188.1115	0.09	376223	keystroke_s	s	n/a
188.216	0.06	376432	keystroke_p	p	n/a
188.337	0.089	376674	keystroke_e	e	n/a
188.531	0.0755	377062	keystroke_a	a	n/a
188.7565	0.075	377513	keystroke_r	r	n/a
188.937	0.0595	377874	keystroke_e	e	n/a
189.431	0.0755	378862	keystroke_Key.space	Key.space	n/a
189.6115	0.0755	379223	keystroke_e	e	n/a
189.8225	0.044	379645	keystroke_g	g	n/a
189.956	0.1055	379912	keystroke_g	g	n/a
190.136	0.09	380272	keystroke_s	s	n/a
190.3015	0.0745	380603	keystroke_Key.enter	Key.enter	n/a
190.3865	14.3015	380773	prompt	n/a	reggae motherboard ourselves vegas\n
191.2765	0.075	382553	keystroke_r	r	n/a
191.427	0.0895	382854	keystroke_e	e	n/a
191.5615	0.0445	383123	keystroke_g	g	n/a
191.696	0.091	383392	keystroke_g	g	n/a
191.832	0.089	383664	keystroke_a	a	n/a
192.0865	0.059	384173	keystroke_e	e	n/a
192.251	0.075	384502	keystroke_Key.space	Key.space	n/a
192.5065	0.075	385013	keystroke_n	n	n/a
192.866	0.105	385732	keystroke_Key.backspace	Key.backspace	n/a
193.152	0.134	386304	keystroke_m	m	n/a
193.271	0.091	386542	keystroke_o	o	n/a
193.4365	0.1045	386873	keystroke_t	t	n/a
193.586	0.0605	387172	keystroke_h	h	n/a
193.6465	0.09	387293	keystroke_e	e	n/a
193.8115	0.105	387623	keystroke_r	r	n/a
193.9465	0.09	387893	keystroke_Key.space	Key.space	n/a
194.5015	0.06	389003	keystroke_Key.backspace	Key.backspace	n/a
194.517	0.059	389034	keystroke_=	=	n/a
194.787	0.074	389574	keystroke_b	b	n/a
194.9815	0.0895	389963	keystroke_o	o	n/a
195.206	0.091	390412	keystroke_a	a	n/a
195.507	0.044	391014	keystroke_Key.backspace	Key.backspace	n/a
195.656	0.0155	391312	keystroke_Key.backspace	Key.backspace	n/a
195.8215	0.0595	391643	keystroke_Key.backspace	Key.backspace	n/a
196.0315	0.0445	392063	keystroke_Key.backspace	Key.backspace	n/a
196.301	0.045	392602	keystroke_Key.backspace	Key.backspace	n/a
196.6005	0.06	393201	keystroke_Key.backspace	Key.backspace	n/a
196.8855	0.0605	393771	keystroke_Key.backspace	Key.backspace	n/a
197.1715	0.0745	394343	keystroke_Key.backspace	Key.backspace	n/a
197.9065	0.0755	395813	keystroke_t	t	n/a
197.996	0.076	395992	keystroke_h	h	n/a
198.1165	0.0755	396233	keystroke_e	e	n/a
198.2815	0.075	396563	keystroke_r	r	n/a
198.4015	0.09	396803	keystroke_b	b	n/a
198.6115	0.0745	397223	keystroke_o	o	n/a
198.7165	0.0595	397433	keystroke_a	a	n/a
198.927	0.0595	397854	keystroke_r	r	n/a
199.091	0.0905	398182	keystroke_d	d	n/a
199.196	0.0905	398392	keystroke_Key.space	Key.space	n/a
199.8715	0.0745	399743	keystroke_o	o	n/a
200.0515	0.06	400103	keystroke_u	u	n/a
200.171	0.075	400342	keystroke_r	r	n/a
200.351	0.0905	400702	keystroke_s	s	n/a
200.501	0.09	401002	keystroke_e	e	n/a
200.666	0.0905	401332	keystroke_l	l	n/a
200.936	0.061	401872	keystroke_v	v	n/a
200.981	0.061	401962	keystroke_e	e	n/a
201.446	0.0305	402892	keystroke_Key.backspace	Key.backspace	n/a
201.5805	0.046	403161	keystroke_Key.backspace	Key.backspace	n/a
201.7315	0.06	403463	keystroke_Key.backspace	Key.backspace	n/a
202.9765	0.06	405953	keystroke_l	l	n/a
203.2765	0.06	406553	keystroke_v	v	n/a
203.3965	0.09	406793	keystroke_e	e	n/a
203.5765	0.09	407153	keystroke_s	s	n/a
203.6515	0.09	407303	keystroke_Key.space	Key.space	n/a
203.8165	0.09	407633	keystroke_v	v	n/a
203.9515	0.06	407903	keystroke_e	e	n/a
204.1015	0.06	408203	keystroke_g	g	n/a
204.1915	0.105	408383	keystroke_a	a	n/a
204.3715	0.12	408743	keystroke_s	s	n/a
204.6115	0.075	409223	keystroke_Key.enter	Key.enter	n/a
204.6925	11.305	409385	prompt	n/a	rugs explanation designer polyester\n
205.481	0.045	410962	keystroke_r	r	n/a
205.6315	0.0745	411263	keystroke_u	u	n/a
205.8265	0.0745	411653	keystroke_g	g	n/a
205.932	0.074	411864	keystroke_s	s	n/a
206.066	0.105	412132	keystroke_Key.space	Key.space	n/a
206.366	0.09	412732	keystroke_e	e	n/a
206.621	0.0755	413242	keystroke_x	x	n/a
206.952	0.075	413904	keystroke_o	o	n/a
207.027	0.0595	414054	keystroke_k	k	n/a
207.0415	0.06	414083	keystroke_l	l	n/a
207.3565	0.045	414713	keystroke_Key.backspace	Key.backspace	n/a
207.476	0.06	414952	keystroke_Key.backspace	Key.backspace	n/a
207.626	0.03	415252	keystroke_Key.backspace	Key.backspace	n/a
208.3315	0.104	416663	keystroke_p	p	n/a
208.4065	0.075	416813	keystroke_l	l	n/a
208.6015	0.0605	417203	keystroke_a	a	n/a
208.7215	0.075	417443	keystroke_n	n	n/a
208.8265	0.105	417653	keystroke_a	a	n/a
209.1115	0.06	418223	keystroke_t	t	n/a
209.2315	0.075	418463	keystroke_i	i	n/a
209.5915	0.06	419183	keystroke_n	n	n/a
210.0565	0.06	420113	keystroke_Key.backspace	Key.backspace	n/a
211.0015	0.15	422003	keystroke_o	o	n/a
211.0915	0.15	422183	keystroke_n	n	n/a
211.2565	0.074	422513	keystroke_s	s	n/a
211.4055	0.09	422811	keystroke_Key.space	Key.space	n/a
211.6005	0.091	423201	keystroke_d	d	n/a
211.7665	0.09	423533	keystroke_e	e	n/a
211.961	0.0905	423922	keystroke_s	s	n/a
212.0665	0.0895	424133	keystroke_i	i	n/a
212.216	0.0905	424432	keystroke_g	g	n/a
212.366	0.045	424732	keystroke_n	n	n/a
212.471	0.075	424942	keystroke_e	e	n/a
212.6515	0.0595	425303	keystroke_r	r	n/a
212.756	0.0755	425512	keystroke_Key.space	Key.space	n/a
213.1915	0.075	426383	keystroke_p	p	n/a
213.3865	0.06	426773	keystroke_l	l	n/a
214.0915	0.075	428183	keystroke_Key.backspace	Key.backspace	n/a
214.3765	0.09	428753	keystroke_o	o	n/a
214.5265	0.09	429053	keystroke_l	l	n/a
214.7815	0.075	429563	keystroke_y	y	n/a
215.2165	0.06	430433	keystroke_e	e	n/a
215.3665	0.075	430733	keystroke_s	s	n/a
215.4265	0.09	430853	keystroke_t	t	n/a
215.5615	0.09	431123	keystroke_e	e	n/a
215.7565	0.075	431513	keystroke_r	r	n/a
215.9215	0.0745	431843	keystroke_Key.enter	Key.enter	n/a
216.0015	12.461	432003	prompt	n/a	proven fever passenger circuit\n
216.866	0.0755	433732	keystroke_o	o	n/a
217.4965	0.0595	434993	keystroke_Key.backspace	Key.backspace	n/a
217.631	0.075	435262	keystroke_Key.backspace	Key.backspace	n/a
218.4715	0.074	436943	keystroke_p	p	n/a
218.5905	0.076	437181	keystroke_r	r	n/a
218.6955	0.09	437391	keystroke_o	o	n/a
219.3565	0.06	438713	keystroke_v	v	n/a
219.4765	0.06	438953	keystroke_e	e	n/a
219.5665	0.1355	439133	keystroke_n	n	n/a
219.686	0.105	439372	keystroke_Key.space	Key.space	n/a
219.881	0.075	439762	keystroke_f	f	n/a
219.971	0.0755	439942	keystroke_a	a	n/a
220.1505	0.0905	440301	keystroke_s	s	n/a
220.2265	0.074	440453	keystroke_t	t	n/a
220.3315	0.0905	440663	keystroke_e	e	n/a
220.4965	0.09	440993	keystroke_r	r	n/a
220.6165	0.075	441233	keystroke_Key.space	Key.space	n/a
221.351	0.06	442702	keystroke_Key.backspace	Key.backspace	n/a
221.4865	0.0745	442973	keystroke_Key.backspace	Key.backspace	n/a
221.6365	0.0595	443273	keystroke_Key.backspace	Key.backspace	n/a
221.786	0.06	443572	keystroke_Key.backspace	Key.backspace	n/a
221.936	0.06	443872	keystroke_Key.backspace	Key.backspace	n/a
222.071	0.0605	444142	keystroke_Key.backspace	Key.backspace	n/a
222.191	0.0905	444382	keystroke_Key.backspace	Key.backspace	n/a
222.416	0.03	444832	keystroke_Key.backspace	Key.backspace	n/a
222.851	0.075	445702	keystroke_Key.space	Key.space	n/a
223.0465	0.075	446093	keystroke_f	f	n/a
223.1515	0.0755	446303	keystroke_e	e	n/a
223.2415	0.0745	446483	keystroke_v	v	n/a
223.346	0.105	446692	keystroke_e	e	n/a
223.5265	0.09	447053	keystroke_r	r	n/a
223.6315	0.06	447263	keystroke_Key.space	Key.space	n/a
224.201	0.0605	448402	keystroke_p	p	n/a
224.306	0.09	448612	keystroke_a	a	n/a
224.516	0.0445	449032	keystroke_s	s	n/a
224.6365	0.1045	449273	keystroke_s	s	n/a
224.816	0.091	449632	keystroke_e	e	n/a
224.9365	0.0895	449873	keystroke_n	n	n/a
225.566	0.0755	451132	keystroke_g	g	n/a
225.7305	0.09	451461	keystroke_e	e	n/a
225.8965	0.089	451793	keystroke_r	r	n/a
226.0465	0.074	452093	keystroke_Key.space	Key.space	n/a
227.3965	0.105	454793	keystroke_c	c	n/a
227.5315	0.06	455063	keystroke_i	i	n/a
227.6215	0.075	455243	keystroke_r	r	n/a
227.8015	0.105	455603	keystroke_c	c	n/a
227.9365	0.045	455873	keystroke_u	u	n/a
228.086	0.0605	456172	keystroke_i	i	n/a
228.221	0.061	456442	keystroke_t	t	n/a
228.3865	0.075	456773	keystroke_Key.enter	Key.enter	n/a
228.4705	8.2575	456941	prompt	n/a	telling achievements something's revenge\n
229.4065	0.0895	458813	keystroke_t	t	n/a
229.617	0.059	459234	keystroke_e	e	n/a
229.706	0.076	459412	keystroke_l	l	n/a
229.8565	0.1355	459713	keystroke_l	l	n/a
230.096	0.135	460192	keystroke_i	i	n/a
230.171	0.135	460342	keystroke_n	n	n/a
230.2165	0.0745	460433	keystroke_g	g	n/a
230.396	0.1055	460792	keystroke_Key.space	Key.space	n/a
230.5765	0.12	461153	keystroke_a	a	n/a
230.9515	0.06	461903	keystroke_c	c	n/a
231.0715	0.075	462143	keystroke_h	h	n/a
231.2515	0.0595	462503	keystroke_i	i	n/a
231.371	0.075	462742	keystroke_e	e	n/a
231.747	0.074	463494	keystroke_v	v	n/a
231.926	0.045	463852	keystroke_e	e	n/a
232.046	0.0605	464092	keystroke_m	m	n/a
232.107	0.0895	464214	keystroke_e	e	n/a
232.226	0.0755	464452	keystroke_n	n	n/a
232.317	0.06	464634	keystroke_t	t	n/a
232.5115	0.075	465023	keystroke_s	s	n/a
232.6165	0.09	465233	keystroke_Key.space	Key.space	n/a
232.7665	0.075	465533	keystroke_s	s	n/a
232.917	0.1195	465834	keystroke_o	o	n/a
232.9765	0.135	465953	keystroke_m	m	n/a
233.096	0.09	466192	keystroke_e	e	n/a
233.336	0.0605	466672	keystroke_t	t	n/a
233.6815	0.1055	467363	keystroke_h	h	n/a
234.3715	0.1195	468743	keystroke_i	i	n/a
234.4315	0.1195	468863	keystroke_n	n	n/a
234.6115	0.0895	469223	keystroke_g	g	n/a
235.0015	0.0595	470003	keystroke_'	'	n/a
235.1215	0.1055	470243	keystroke_s	s	n/a
235.271	0.075	470542	keystroke_Key.space	Key.space	n/a
235.541	0.0905	471082	keystroke_r	r	n/a
235.706	0.09	471412	keystroke_e	e	n/a
235.811	0.0755	471622	keystroke_v	v	n/a
235.9165	0.0895	471833	keystroke_e	e	n/a
236.0515	0.0745	472103	keystroke_n	n	n/a
236.276	0.09	472552	keystroke_g	g	n/a
236.471	0.075	472942	keystroke_e	e	n/a
236.6655	0.06	473331	keystroke_Key.enter	Key.enter	n/a
236.7395	15.5435	473479	prompt	n/a	success feature strip physics\n
237.597	0.0745	475194	keystroke_s	s	n/a
237.7315	0.0755	475463	keystroke_u	u	n/a
238.0015	0.09	476003	keystroke_c	c	n/a
238.121	0.105	476242	keystroke_e	e	n/a
238.3165	0.075	476633	keystroke_s	s	n/a
238.466	0.105	476932	keystroke_s	s	n/a
238.586	0.1055	477172	keystroke_Key.space	Key.space	n/a
238.946	0.105	477892	keystroke_f	f	n/a
239.7265	0.06	479453	keystroke_Key.backspace	Key.backspace	n/a
239.861	0.06	479722	keystroke_Key.backspace	Key.backspace	n/a
240.011	0.105	480022	keystroke_Key.backspace	Key.backspace	n/a
240.161	0.075	480322	keystroke_Key.backspace	Key.backspace	n/a
241.8865	0.104	483773	keystroke_Key.backspace	Key.backspace	n/a
242.456	0.075	484912	keystroke_c	c	n/a
242.6515	0.0745	485303	keystroke_e	e	n/a
242.846	0.06	485692	keystroke_s	s	n/a
242.982	0.104	485964	keystroke_s	s	n/a
243.191	0.105	486382	keystroke_Key.space	Key.space	n/a
243.7315	0.075	487463	keystroke_f	f	n/a
243.8665	0.075	487733	keystroke_e	e	n/a
244.0765	0.0905	488153	keystroke_a	a	n/a
244.272	0.0595	488544	keystroke_u	u	n/a
244.496	0.06	488992	keystroke_t	t	n/a
244.886	0.0755	489772	keystroke_r	r	n/a
245.0665	0.075	490133	keystroke_e	e	n/a
245.2465	0.075	490493	keystroke_s	s	n/a
245.3355	0.0615	490671	keystroke_Key.space	Key.space	n/a
245.8755	0.0455	491751	keystroke_Key.backspace	Key.backspace	n/a
245.996	0.075	491992	keystroke_Key.backspace	Key.backspace	n/a
246.236	0.045	492472	keystroke_Key.backspace	Key.backspace	n/a
246.2965	0.0295	492593	keystroke_Key.backspace	Key.backspace	n/a
247.1065	0.0745	494213	keystroke_u	u	n/a
247.2265	0.1055	494453	keystroke_r	r	n/a
247.422	0.0895	494844	keystroke_e	e	n/a
247.6465	0.0445	495293	keystroke_s	s	n/a
247.7365	0.09	495473	keystroke_Key.space	Key.space	n/a
248.4115	0.0295	496823	keystroke_Key.backspace	Key.backspace	n/a
248.516	0.09	497032	keystroke_Key.backspace	Key.backspace	n/a
248.666	0.105	497332	keystroke_Key.backspace	Key.backspace	n/a
249.4165	0.09	498833	keystroke_e	e	n/a
249.6115	0.075	499223	keystroke_s	s	n/a
249.6715	0.09	499343	keystroke_Key.space	Key.space	n/a
249.7915	0.12	499583	keystroke_s	s	n/a
250.0465	0.074	500093	keystroke_t	t	n/a
250.1965	0.0905	500393	keystroke_r	r	n/a
250.287	0.074	500574	keystroke_i	i	n/a
250.482	0.075	500964	keystroke_p	p	n/a
250.6465	0.059	501293	keystroke_s	s	n/a
250.7655	0.0905	501531	keystroke_Key.space	Key.space	n/a
251.022	0.074	502044	keystroke_p	p	n/a
251.397	0.059	502794	keystroke_h	h	n/a
251.531	0.075	503062	keystroke_y	y	n/a
251.6365	0.075	503273	keystroke_s	s	n/a
251.7715	0.075	503543	keystroke_i	i	n/a
251.8765	0.09	503753	keystroke_c	c	n/a
252.0715	0.09	504143	keystroke_s	s	n/a
252.2065	0.074	504413	keystroke_Key.enter	Key.enter	n/a
252.287	8.5155	504574	prompt	n/a	auckland saint makes composer\n
253.151	0.0905	506302	keystroke_a	a	n/a
253.301	0.0605	506602	keystroke_u	u	n/a
253.436	0.075	506872	keystroke_c	c	n/a
253.541	0.0755	507082	keystroke_k	k	n/a
253.7215	0.045	507443	keystroke_l	l	n/a
253.8265	0.09	507653	keystroke_a	a	n/a
253.9915	0.075	507983	keystroke_b	b	n/a
254.0965	0.075	508193	keystroke_d	d	n/a
254.2315	0.1195	508463	keystroke_Key.space	Key.space	n/a
254.9065	0.0595	509813	keystroke_Key.backspace	Key.backspace	n/a
255.101	0.015	510202	keystroke_Key.backspace	Key.backspace	n/a
255.2365	0.09	510473	keystroke_Key.backspace	Key.backspace	n/a
255.8965	0.0605	511793	keystroke_n	n	n/a
256.0315	0.075	512063	keystroke_d	d	n/a
256.1215	0.105	512243	keystroke_Key.space	Key.space	n/a
256.2565	0.09	512513	keystroke_s	s	n/a
256.4215	0.09	512843	keystroke_a	a	n/a
256.5565	0.135	513113	keystroke_i	i	n/a
256.5865	0.15	513173	keystroke_n	n	n/a
256.7215	0.09	513443	keystroke_t	t	n/a
256.8265	0.104	513653	keystroke_Key.space	Key.space	n/a
256.9915	0.1045	513983	keystroke_m	m	n/a
257.081	0.0905	514162	keystroke_a	a	n/a
257.2465	0.0745	514493	keystroke_k	k	n/a
257.3815	0.09	514763	keystroke_e	e	n/a
257.546	0.105	515092	keystroke_s	s	n/a
257.681	0.09	515362	keystroke_Key.space	Key.space	n/a
257.9965	0.075	515993	keystroke_c	c	n/a
258.177	0.029	516354	keystroke_i	i	n/a
258.2215	0.0595	516443	keystroke_m	m	n/a
258.506	0.075	517012	keystroke_Key.backspace	Key.backspace	n/a
258.6565	0.075	517313	keystroke_Key.backspace	Key.backspace	n/a
258.7915	0.09	517583	keystroke_Key.backspace	Key.backspace	n/a
259.331	0.0905	518662	keystroke_Key.space	Key.space	n/a
259.542	0.089	519084	keystroke_c	c	n/a
259.646	0.151	519292	keystroke_o	o	n/a
259.721	0.1355	519442	keystroke_m	m	n/a
259.886	0.09	519772	keystroke_p	p	n/a
260.066	0.0905	520132	keystroke_o	o	n/a
260.171	0.075	520342	keystroke_s	s	n/a
260.351	0.1205	520702	keystroke_e	e	n/a
260.5615	0.0905	521123	keystroke_r	r	n/a
260.7115	0.0895	521423	keystroke_Key.enter	Key.enter	n/a
260.8105	8.4975	521621	prompt	n/a	requests operated regional departmental\n
261.761	0.075	523522	keystroke_r	r	n/a
261.911	0.1205	523822	keystroke_e	e	n/a
262.1365	0.075	524273	keystroke_q	q	n/a
262.2565	0.075	524513	keystroke_u	u	n/a
262.392	0.0745	524784	keystroke_e	e	n/a
262.5265	0.0905	525053	keystroke_s	s	n/a
262.6605	0.0465	525321	keystroke_t	t	n/a
262.7365	0.09	525473	keystroke_s	s	n/a
262.8565	0.09	525713	keystroke_Key.space	Key.space	n/a
263.3815	0.0605	526763	keystroke_o	o	n/a
263.5315	0.06	527063	keystroke_p	p	n/a
263.637	0.0745	527274	keystroke_e	e	n/a
263.817	0.074	527634	keystroke_r	r	n/a
264.0265	0.09	528053	keystroke_a	a	n/a
264.1315	0.075	528263	keystroke_t	t	n/a
264.2515	0.074	528503	keystroke_e	e	n/a
264.4015	0.104	528803	keystroke_d	d	n/a
264.5205	0.09	529041	keystroke_Key.space	Key.space	n/a
264.7615	0.0755	529523	keystroke_r	r	n/a
264.9105	0.091	529821	keystroke_e	e	n/a
265.1355	0.091	530271	keystroke_g	g	n/a
265.2415	0.0745	530483	keystroke_i	i	n/a
265.4065	0.1045	530813	keystroke_o	o	n/a
265.512	0.119	531024	keystroke_n	n	n/a
265.586	0.061	531172	keystroke_a	a	n/a
265.721	0.12	531442	keystroke_l	l	n/a
265.871	0.105	531742	keystroke_Key.space	Key.space	n/a
266.186	0.135	532372	keystroke_d	d	n/a
266.4265	0.1045	532853	keystroke_e	e	n/a
266.681	0.0895	533362	keystroke_r	r	n/a
267.2965	0.06	534593	keystroke_Key.backspace	Key.backspace	n/a
267.5965	0.075	535193	keystroke_p	p	n/a
267.7315	0.105	535463	keystroke_a	a	n/a
268.0165	0.09	536033	keystroke_r	r	n/a
268.1815	0.09	536363	keystroke_t	t	n/a
268.3165	0.0905	536633	keystroke_m	m	n/a
268.4215	0.075	536843	keystroke_e	e	n/a
268.5115	0.0905	537023	keystroke_n	n	n/a
268.6315	0.06	537263	keystroke_t	t	n/a
268.8715	0.075	537743	keystroke_a	a	n/a
268.9765	0.105	537953	keystroke_l	l	n/a
269.1865	0.12	538373	keystroke_Key.enter	Key.enter	n/a
269.313	13.6155	538626	prompt	n/a	breath specializing kijiji montreal\n
270.1015	0.075	540203	keystroke_b	b	n/a
270.2815	0.09	540563	keystroke_r	r	n/a
270.4465	0.09	540893	keystroke_e	e	n/a
270.6715	0.0745	541343	keystroke_a	a	n/a
270.776	0.0895	541552	keystroke_t	t	n/a
270.9865	0.12	541973	keystroke_h	h	n/a
271.136	0.1045	542272	keystroke_Key.space	Key.space	n/a
271.5255	0.121	543051	keystroke_s	s	n/a
271.6915	0.075	543383	keystroke_p	p	n/a
272.1115	0.089	544223	keystroke_e	e	n/a
272.351	0.075	544702	keystroke_c	c	n/a
272.456	0.09	544912	keystroke_i	i	n/a
272.6215	0.0745	545243	keystroke_a	a	n/a
272.756	0.075	545512	keystroke_l	l	n/a
272.951	0.031	545902	keystroke_i	i	n/a
273.7765	0.0745	547553	keystroke_z	z	n/a
273.926	0.15	547852	keystroke_i	i	n/a
274.016	0.1505	548032	keystroke_n	n	n/a
274.1515	0.0895	548303	keystroke_g	g	n/a
274.301	0.12	548602	keystroke_Key.space	Key.space	n/a
277.1535	0	554307	keystroke_k	k	n/a
277.2265	0.0755	554453	keystroke_i	i	n/a
277.3915	0.09	554783	keystroke_j	j	n/a
277.586	0.03	555172	keystroke_i	i	n/a
277.931	0.15	555862	keystroke_j	j	n/a
278.066	0.136	556132	keystroke_i	i	n/a
278.3515	0.105	556703	keystroke_Key.space	Key.space	n/a
279.0565	0.105	558113	keystroke_n	n	n/a
279.8065	0.0895	559613	keystroke_Key.backspace	Key.backspace	n/a
280.136	0.075	560272	keystroke_m	m	n/a
280.4665	0.1655	560933	keystroke_o	o	n/a
280.5715	0.1345	561143	keystroke_n	n	n/a
280.752	0.0895	561504	keystroke_t	t	n/a
280.9165	0.0755	561833	keystroke_r	r	n/a
281.097	0.059	562194	keystroke_r	r	n/a
281.111	0.03	562222	keystroke_e	e	n/a
281.8765	0.059	563753	keystroke_Key.backspace	Key.backspace	n/a
282.0105	0.075	564021	keystroke_Key.backspace	Key.backspace	n/a
282.1765	0.105	564353	keystroke_e	e	n/a
282.4315	0.06	564863	keystroke_a	a	n/a
282.5365	0.105	565073	keystroke_l	l	n/a
282.8365	0.09	565673	keystroke_Key.enter	Key.enter	n/a
282.944	10.0785	565888	prompt	n/a	element immigration improved enters\n
283.6765	0.075	567353	keystroke_e	e	n/a
283.7965	0.075	567593	keystroke_l	l	n/a
283.9015	0.075	567803	keystroke_e	e	n/a
284.0365	0.06	568073	keystroke_m	m	n/a
284.2015	0.075	568403	keystroke_e	e	n/a
284.336	0.061	568672	keystroke_n	n	n/a
284.486	0.06	568972	keystroke_t	t	n/a
284.5915	0.09	569183	keystroke_Key.space	Key.space	n/a
285.1765	0.06	570353	keystroke_i	i	n/a
285.3565	0.06	570713	keystroke_m	m	n/a
285.476	0.075	570952	keystroke_m	m	n/a
285.656	0.046	571312	keystroke_i	i	n/a
285.8515	0.0595	571703	keystroke_g	g	n/a
285.926	0.09	571852	keystroke_r	r	n/a
286.1515	0.0895	572303	keystroke_a	a	n/a
286.256	0.0755	572512	keystroke_n	n	n/a
286.5565	0.0605	573113	keystroke_t	t	n/a
287.097	0.075	574194	keystroke_i	i	n/a
287.2615	0.1045	574523	keystroke_o	o	n/a
287.3365	0.135	574673	keystroke_n	n	n/a
287.726	0.0455	575452	keystroke_Key.backspace	Key.backspace	n/a
287.8465	0.045	575693	keystroke_Key.backspace	Key.backspace	n/a
287.966	0.06	575932	keystroke_Key.backspace	Key.backspace	n/a
288.1015	0.045	576203	keystroke_Key.backspace	Key.backspace	n/a
288.206	0.045	576412	keystroke_Key.backspace	Key.backspace	n/a
288.296	0.06	576592	keystroke_Key.backspace	Key.backspace	n/a
288.9715	0.105	577943	keystroke_a	a	n/a
289.346	0.0605	578692	keystroke_t	t	n/a
289.451	0.0605	578902	keystroke_i	i	n/a
289.601	0.1205	579202	keystroke_o	o	n/a
289.6615	0.12	579323	keystroke_n	n	n/a
289.9615	0.1045	579923	keystroke_Key.space	Key.space	n/a
290.456	0.135	580912	keystroke_i	i	n/a
290.546	0.106	581092	keystroke_m	m	n/a
290.6965	0.105	581393	keystroke_p	p	n/a
290.847	0.0745	581694	keystroke_r	r	n/a
290.9365	0.09	581873	keystroke_o	o	n/a
291.222	0.06	582444	keystroke_v	v	n/a
291.297	0.074	582594	keystroke_e	e	n/a
291.446	0.121	582892	keystroke_d	d	n/a
291.551	0.09	583102	keystroke_Key.space	Key.space	n/a
292.046	0.075	584092	keystroke_e	e	n/a
292.136	0.0755	584272	keystroke_n	n	n/a
292.361	0.03	584722	keystroke_t	t	n/a
292.376	0.016	584752	keystroke_r	r	n/a
292.451	0.0905	584902	keystroke_e	e	n/a
292.6315	0.09	585263	keystroke_r	r	n/a
292.811	0.1055	585622	keystroke_s	s	n/a
292.9005	0.12	585801	keystroke_Key.enter	Key.enter	n/a
293.026	11.292	586052	prompt	n/a	makes content beginners kinase\n
293.7565	0.075	587513	keystroke_m	m	n/a
293.8765	0.089	587753	keystroke_a	a	n/a
293.9815	0.06	587963	keystroke_k	k	n/a
294.0865	0.105	588173	keystroke_e	e	n/a
294.2515	0.105	588503	keystroke_s	s	n/a
294.3715	0.09	588743	keystroke_Key.space	Key.space	n/a
294.7165	0.105	589433	keystroke_c	c	n/a
294.8065	0.12	589613	keystroke_o	o	n/a
294.8815	0.12	589763	keystroke_n	n	n/a
295.0315	0.09	590063	keystroke_t	t	n/a
295.2415	0.0755	590483	keystroke_e	e	n/a
295.3755	0.075	590751	keystroke_n	n	n/a
295.5115	0.0605	591023	keystroke_t	t	n/a
295.5865	0.105	591173	keystroke_Key.space	Key.space	n/a
296.1265	0.06	592253	keystroke_b	b	n/a
296.2475	0.074	592495	keystroke_e	e	n/a
296.5165	0.06	593033	keystroke_g	g	n/a
296.6815	0.106	593363	keystroke_g	g	n/a
296.907	0.1045	593814	keystroke_i	i	n/a
296.9665	0.135	593933	keystroke_n	n	n/a
297.117	0.1045	594234	keystroke_e	e	n/a
297.296	0.1055	594592	keystroke_r	r	n/a
297.492	0.0895	594984	keystroke_s	s	n/a
297.5965	0.06	595193	keystroke_Key.space	Key.space	n/a
298.4965	0.0595	596993	keystroke_Key.backspace	Key.backspace	n/a
298.631	0.06	597262	keystroke_Key.backspace	Key.backspace	n/a
298.782	0.074	597564	keystroke_Key.backspace	Key.backspace	n/a
302.0515	0.0755	604103	keystroke_r	r	n/a
302.276	0.06	604552	keystroke_s	s	n/a
302.381	0.09	604762	keystroke_Key.space	Key.space	n/a
303.236	0.06	606472	keystroke_k	k	n/a
303.401	0.121	606802	keystroke_i	i	n/a
303.5365	0.0905	607073	keystroke_n	n	n/a
303.7165	0.06	607433	keystroke_a	a	n/a
303.9115	0.075	607823	keystroke_s	s	n/a
304.092	0.044	608184	keystroke_r	r	n/a
304.106	0.045	608212	keystroke_e	e	n/a
304.2115	0.105	608423	keystroke_Key.enter	Key.enter	n/a
304.324	6.5635	608648	prompt	n/a	chronicle clouds solo pull\n
305.1865	0.089	610373	keystroke_c	c	n/a
305.3215	0.09	610643	keystroke_h	h	n/a
305.3965	0.0755	610793	keystroke_r	r	n/a
305.5315	0.0755	611063	keystroke_o	o	n/a
305.726	0.1355	611452	keystroke_n	n	n/a
305.8165	0.1205	611633	keystroke_i	i	n/a
305.9515	0.09	611903	keystroke_c	c	n/a
306.116	0.1055	612232	keystroke_l	l	n/a
306.236	0.0755	612472	keystroke_e	e	n/a
306.4015	0.075	612803	keystroke_s	s	n/a
306.5215	0.1045	613043	keystroke_Key.space	Key.space	n/a
306.8965	0.06	613793	keystroke_Key.backspace	Key.backspace	n/a
307.0315	0.075	614063	keystroke_Key.backspace	Key.backspace	n/a
307.3315	0.104	614663	keystroke_Key.space	Key.space	n/a
308.0365	0.0745	616073	keystroke_c	c	n/a
308.2015	0.12	616403	keystroke_l	l	n/a
308.427	0.0895	616854	keystroke_o	o	n/a
308.6515	0.0895	617303	keystroke_u	u	n/a
308.726	0.075	617452	keystroke_d	d	n/a
308.892	0.0895	617784	keystroke_s	s	n/a
308.9965	0.09	617993	keystroke_Key.space	Key.space	n/a
309.3415	0.075	618683	keystroke_s	s	n/a
309.4315	0.075	618863	keystroke_o	o	n/a
309.582	0.089	619164	keystroke_l	l	n/a
309.746	0.0905	619492	keystroke_o	o	n/a
309.866	0.1055	619732	keystroke_Key.space	Key.space	n/a
310.0765	0.075	620153	keystroke_p	p	n/a
310.286	0.076	620572	keystroke_u	u	n/a
310.496	0.0455	620992	keystroke_l	l	n/a
310.6315	0.09	621263	keystroke_l	l	n/a
310.8115	0.0745	621623	keystroke_Key.enter	Key.enter	n/a
310.8915	6.0715	621783	prompt	n/a	permitted variety habits congress\n
311.7115	0.0745	623423	keystroke_p	p	n/a
311.816	0.09	623632	keystroke_e	e	n/a
311.9815	0.1195	623963	keystroke_r	r	n/a
312.086	0.12	624172	keystroke_m	m	n/a
312.1915	0.089	624383	keystroke_i	i	n/a
312.327	0.0745	624654	keystroke_t	t	n/a
312.4755	0.105	624951	keystroke_t	t	n/a
312.7015	0.059	625403	keystroke_e	e	n/a
312.8505	0.106	625701	keystroke_d	d	n/a
312.9715	0.075	625943	keystroke_Key.space	Key.space	n/a
313.166	0.09	626332	keystroke_v	v	n/a
313.271	0.0755	626542	keystroke_a	a	n/a
313.4815	0.0755	626963	keystroke_r	r	n/a
313.586	0.075	627172	keystroke_i	i	n/a
313.676	0.09	627352	keystroke_e	e	n/a
313.886	0.075	627772	keystroke_t	t	n/a
314.007	0.09	628014	keystroke_y	y	n/a
314.126	0.12	628252	keystroke_Key.space	Key.space	n/a
314.592	0.0745	629184	keystroke_h	h	n/a
314.7115	0.075	629423	keystroke_a	a	n/a
314.8015	0.0755	629603	keystroke_b	b	n/a
315.0115	0.06	630023	keystroke_i	i	n/a
315.1315	0.1045	630263	keystroke_t	t	n/a
315.342	0.0895	630684	keystroke_s	s	n/a
315.461	0.09	630922	keystroke_Key.space	Key.space	n/a
315.6715	0.075	631343	keystroke_c	c	n/a
315.7615	0.12	631523	keystroke_o	o	n/a
315.8515	0.104	631703	keystroke_n	n	n/a
316.077	0.0745	632154	keystroke_g	g	n/a
316.167	0.0895	632334	keystroke_r	r	n/a
316.3465	0.09	632693	keystroke_e	e	n/a
316.5115	0.09	633023	keystroke_s	s	n/a
316.6765	0.12	633353	keystroke_s	s	n/a
316.8565	0.105	633713	keystroke_Key.enter	Key.enter	n/a
316.9755	4.8175	633951	prompt	n/a	bald camps graham staff\n
317.7415	0.0755	635483	keystroke_b	b	n/a
317.8615	0.0755	635723	keystroke_a	a	n/a
317.996	0.045	635992	keystroke_l	l	n/a
318.086	0.076	636172	keystroke_d	d	n/a
318.176	0.105	636352	keystroke_Key.space	Key.space	n/a
318.311	0.0605	636622	keystroke_c	c	n/a
318.5215	0.06	637043	keystroke_a	a	n/a
318.6715	0.09	637343	keystroke_m	m	n/a
318.7765	0.075	637553	keystroke_p	p	n/a
318.911	0.0755	637822	keystroke_s	s	n/a
319.0465	0.1195	638093	keystroke_Key.space	Key.space	n/a
319.7215	0.0895	639443	keystroke_g	g	n/a
319.827	0.0745	639654	keystroke_r	r	n/a
320.037	0.0745	640074	keystroke_a	a	n/a
320.141	0.09	640282	keystroke_h	h	n/a
320.2915	0.075	640583	keystroke_a	a	n/a
320.4115	0.12	640823	keystroke_m	m	n/a
320.5165	0.12	641033	keystroke_Key.space	Key.space	n/a
320.8615	0.105	641723	keystroke_s	s	n/a
321.0565	0.075	642113	keystroke_t	t	n/a
321.1465	0.075	642293	keystroke_a	a	n/a
321.2665	0.075	642533	keystroke_f	f	n/a
321.4015	0.105	642803	keystroke_f	f	n/a
321.7015	0.09	643403	keystroke_Key.enter	Key.enter	n/a
321.7995	10.1485	643599	prompt	n/a	reservoir elements gamecube directions\n
322.706	0.075	645412	keystroke_r	r	n/a
322.8865	0.075	645773	keystroke_e	e	n/a
323.081	0.075	646162	keystroke_s	s	n/a
323.231	0.0755	646462	keystroke_e	e	n/a
323.426	0.09	646852	keystroke_r	r	n/a
323.666	0.061	647332	keystroke_v	v	n/a
323.846	0.06	647692	keystroke_o	o	n/a
324.012	0.0745	648024	keystroke_i	i	n/a
324.146	0.06	648292	keystroke_r	r	n/a
324.251	0.1055	648502	keystroke_Key.space	Key.space	n/a
324.806	0.0605	649612	keystroke_e	e	n/a
324.9415	0.0745	649883	keystroke_l	l	n/a
325.0315	0.045	650063	keystroke_e	e	n/a
325.181	0.0615	650362	keystroke_m	m	n/a
325.2115	0.045	650423	keystroke_e	e	n/a
325.751	0.0755	651502	keystroke_n	n	n/a
325.886	0.0755	651772	keystroke_t	t	n/a
326.111	0.0605	652222	keystroke_s	s	n/a
326.216	0.09	652432	keystroke_Key.space	Key.space	n/a
326.5765	0.075	653153	keystroke_g	g	n/a
326.726	0.075	653452	keystroke_a	a	n/a
326.8315	0.0745	653663	keystroke_m	m	n/a
326.9815	0.0605	653963	keystroke_e	e	n/a
327.281	0.0605	654562	keystroke_c	c	n/a
327.416	0.1355	654832	keystroke_u	u	n/a
327.491	0.1205	654982	keystroke_b	b	n/a
327.6265	0.0605	655253	keystroke_e	e	n/a
327.7615	0.1045	655523	keystroke_Key.space	Key.space	n/a
328.1215	0.09	656243	keystroke_d	d	n/a
328.2415	0.06	656483	keystroke_i	i	n/a
328.361	0.076	656722	keystroke_r	r	n/a
328.5265	0.089	657053	keystroke_e	e	n/a
328.7955	0.045	657591	keystroke_Key.backspace	Key.backspace	n/a
328.9305	0.061	657861	keystroke_Key.backspace	Key.backspace	n/a
329.0655	0.076	658131	keystroke_Key.backspace	Key.backspace	n/a
330.357	0.059	660714	keystroke_i	i	n/a
330.4915	0.0755	660983	keystroke_r	r	n/a
330.656	0.091	661312	keystroke_e	e	n/a
330.881	0.076	661762	keystroke_c	c	n/a
331.076	0.06	662152	keystroke_t	t	n/a
331.181	0.09	662362	keystroke_i	i	n/a
331.361	0.121	662722	keystroke_o	o	n/a
331.4215	0.1195	662843	keystroke_n	n	n/a
331.721	0.09	663442	keystroke_s	s	n/a
331.856	0.0905	663712	keystroke_Key.enter	Key.enter	n/a
331.952	9.686	663904	prompt	n/a	sentences event fotos commissions\n
332.6655	0.076	665331	keystroke_s	s	n/a
332.8015	0.104	665603	keystroke_e	e	n/a
332.9215	0.0755	665843	keystroke_n	n	n/a
333.0715	0.06	666143	keystroke_t	t	n/a
333.2515	0.06	666503	keystroke_e	e	n/a
333.4165	0.075	666833	keystroke_n	n	n/a
333.476	0.0605	666952	keystroke_c	c	n/a
333.6565	0.075	667313	keystroke_e	e	n/a
333.8215	0.105	667643	keystroke_s	s	n/a
333.9115	0.1045	667823	keystroke_Key.space	Key.space	n/a
334.1215	0.075	668243	keystroke_e	e	n/a
334.392	0.059	668784	keystroke_v	v	n/a
334.6015	0.0605	669203	keystroke_e	e	n/a
334.752	0.0595	669504	keystroke_n	n	n/a
334.902	0.06	669804	keystroke_t	t	n/a
335.021	0.105	670042	keystroke_Key.space	Key.space	n/a
336.011	0.076	672022	keystroke_f	f	n/a
336.1015	0.075	672203	keystroke_o	o	n/a
336.116	0.03	672232	keystroke_i	i	n/a
336.237	0.074	672474	keystroke_t	t	n/a
336.326	0.0455	672652	keystroke_o	o	n/a
336.477	0.059	672954	keystroke_s	s	n/a
336.596	0.105	673192	keystroke_Key.space	Key.space	n/a
337.1815	0.06	674363	keystroke_Key.backspace	Key.backspace	n/a
337.3165	0.0595	674633	keystroke_Key.backspace	Key.backspace	n/a
337.436	0.045	674872	keystroke_Key.backspace	Key.backspace	n/a
337.5415	0.06	675083	keystroke_Key.backspace	Key.backspace	n/a
337.7365	0.03	675473	keystroke_Key.backspace	Key.backspace	n/a
337.8865	0.09	675773	keystroke_t	t	n/a
338.067	0.0595	676134	keystroke_o	o	n/a
338.217	0.0595	676434	keystroke_s	s	n/a
338.8015	0.0745	677603	keystroke_Key.space	Key.space	n/a
339.7315	0.06	679463	keystroke_c	c	n/a
339.807	0.0745	679614	keystroke_o	o	n/a
340.0165	0.09	680033	keystroke_m	m	n/a
340.257	0.045	680514	keystroke_i	i	n/a
340.5565	0.045	681113	keystroke_s	s	n/a
340.721	0.06	681442	keystroke_s	s	n/a
340.886	0.105	681772	keystroke_i	i	n/a
341.051	0.1505	682102	keystroke_o	o	n/a
341.1415	0.12	682283	keystroke_n	n	n/a
341.3065	0.075	682613	keystroke_s	s	n/a
341.5315	0.1045	683063	keystroke_Key.enter	Key.enter	n/a
341.644	9.819	683288	prompt	n/a	extends identification me brings\n
345.119	0.013	690238	keystroke_e	e	n/a
345.3415	0.0755	690683	keystroke_x	x	n/a
345.7165	0.0605	691433	keystroke_t	t	n/a
345.972	0.0595	691944	keystroke_e	e	n/a
346.1215	0.06	692243	keystroke_n	n	n/a
346.2865	0.0445	692573	keystroke_d	d	n/a
346.572	0.059	693144	keystroke_s	s	n/a
346.691	0.0755	693382	keystroke_Key.space	Key.space	n/a
347.441	0.06	694882	keystroke_i	i	n/a
347.5915	0.0455	695183	keystroke_d	d	n/a
347.711	0.09	695422	keystroke_e	e	n/a
347.816	0.09	695632	keystroke_n	n	n/a
347.9365	0.0595	695873	keystroke_t	t	n/a
348.0415	0.1045	696083	keystroke_i	i	n/a
348.1615	0.0605	696323	keystroke_f	f	n/a
348.281	0.061	696562	keystroke_i	i	n/a
348.386	0.09	696772	keystroke_c	c	n/a
348.6265	0.0745	697253	keystroke_a	a	n/a
348.897	0.044	697794	keystroke_t	t	n/a
348.986	0.105	697972	keystroke_i	i	n/a
349.1515	0.165	698303	keystroke_o	o	n/a
349.2565	0.165	698513	keystroke_n	n	n/a
349.496	0.1655	698992	keystroke_Key.space	Key.space	n/a
349.932	0.0895	699864	keystroke_m	m	n/a
350.066	0.1055	700132	keystroke_e	e	n/a
350.186	0.105	700372	keystroke_Key.space	Key.space	n/a
350.3515	0.135	700703	keystroke_b	b	n/a
350.5165	0.0905	701033	keystroke_r	r	n/a
350.6515	0.1505	701303	keystroke_i	i	n/a
350.742	0.149	701484	keystroke_n	n	n/a
350.8765	0.1045	701753	keystroke_g	g	n/a
351.1765	0.045	702353	keystroke_s	s	n/a
351.3865	0.075	702773	keystroke_Key.enter	Key.enter	n/a
351.467	6.101	702934	prompt	n/a	diverse army stand cents\n
352.5415	0.0755	705083	keystroke_d	d	n/a
352.6615	0.061	705323	keystroke_i	i	n/a
352.8865	0.075	705773	keystroke_v	v	n/a
352.9915	0.0755	705983	keystroke_e	e	n/a
353.1715	0.075	706343	keystroke_r	r	n/a
353.3965	0.06	706793	keystroke_s	s	n/a
353.5315	0.075	707063	keystroke_e	e	n/a
353.6515	0.09	707303	keystroke_Key.space	Key.space	n/a
353.8015	0.09	707603	keystroke_a	a	n/a
354.0575	0.059	708115	keystroke_r	r	n/a
354.1615	0.075	708323	keystroke_m	m	n/a
355.167	0.0745	710334	keystroke_y	y	n/a
355.3015	0.09	710603	keystroke_Key.space	Key.space	n/a
355.4065	0.06	710813	keystroke_s	s	n/a
355.497	0.0745	710994	keystroke_t	t	n/a
355.6165	0.075	711233	keystroke_a	a	n/a
355.737	0.0745	711474	keystroke_n	n	n/a
355.8565	0.075	711713	keystroke_d	d	n/a
356.4865	0.06	712973	keystroke_Key.space	Key.space	n/a
356.757	0.044	713514	keystroke_c	c	n/a
356.906	0.0905	713812	keystroke_e	e	n/a
357.011	0.075	714022	keystroke_n	n	n/a
357.132	0.074	714264	keystroke_t	t	n/a
357.356	0.061	714712	keystroke_s	s	n/a
357.4765	0.09	714953	keystroke_Key.enter	Key.enter	n/a
357.5785	9.6795	715157	prompt	n/a	exists leading that's define\n
358.227	0.075	716454	keystroke_e	e	n/a
358.4515	0.09	716903	keystroke_x	x	n/a
358.6315	0.06	717263	keystroke_i	i	n/a
358.7065	0.075	717413	keystroke_s	s	n/a
358.8865	0.06	717773	keystroke_t	t	n/a
359.007	0.0445	718014	keystroke_s	s	n/a
359.1715	0.09	718343	keystroke_Key.space	Key.space	n/a
359.547	0.044	719094	keystroke_k	k	n/a
359.606	0.0605	719212	keystroke_a	a	n/a
359.9065	0.0295	719813	keystroke_=	=	n/a
360.026	0.075	720052	keystroke_Key.backspace	Key.backspace	n/a
360.2665	0.0595	720533	keystroke_Key.backspace	Key.backspace	n/a
360.3865	0.09	720773	keystroke_Key.backspace	Key.backspace	n/a
360.9115	0.06	721823	keystroke_l	l	n/a
361.032	0.0585	722064	keystroke_e	e	n/a
361.2265	0.0755	722453	keystroke_a	a	n/a
361.4215	0.075	722843	keystroke_d	d	n/a
361.5265	0.12	723053	keystroke_i	i	n/a
361.5865	0.09	723173	keystroke_n	n	n/a
361.6765	0.09	723353	keystroke_g	g	n/a
361.7955	0.106	723591	keystroke_Key.space	Key.space	n/a
362.0365	0.075	724073	keystroke_t	t	n/a
362.0965	0.105	724193	keystroke_h	h	n/a
362.2765	0.0745	724553	keystroke_a	a	n/a
362.382	0.104	724764	keystroke_t	t	n/a
362.921	0.076	725842	keystroke_'	'	n/a
363.0715	0.09	726143	keystroke_s	s	n/a
363.1765	0.09	726353	keystroke_Key.space	Key.space	n/a
363.2815	0.0755	726563	keystroke_e	e	n/a
363.4915	0.09	726983	keystroke_x	x	n/a
363.626	0.061	727252	keystroke_i	i	n/a
363.7465	0.0895	727493	keystroke_s	s	n/a
363.971	0.06	727942	keystroke_t	t	n/a
364.151	0.0755	728302	keystroke_e	e	n/a
364.2865	0.09	728573	keystroke_n	n	n/a
364.3915	0.075	728783	keystroke_c	c	n/a
364.826	0.045	729652	keystroke_Key.backspace	Key.backspace	n/a
364.9465	0.06	729893	keystroke_Key.backspace	Key.backspace	n/a
365.0815	0.045	730163	keystroke_Key.backspace	Key.backspace	n/a
365.2765	0.045	730553	keystroke_Key.backspace	Key.backspace	n/a
365.3665	0.045	730733	keystroke_Key.backspace	Key.backspace	n/a
365.4715	0.06	730943	keystroke_Key.backspace	Key.backspace	n/a
365.6065	0.06	731213	keystroke_Key.backspace	Key.backspace	n/a
365.9515	0.075	731903	keystroke_Key.backspace	Key.backspace	n/a
366.252	0.075	732504	keystroke_d	d	n/a
366.402	0.09	732804	keystroke_e	e	n/a
366.642	0.06	733284	keystroke_f	f	n/a
366.7315	0.1205	733463	keystroke_i	i	n/a
366.7915	0.1205	733583	keystroke_n	n	n/a
366.927	0.044	733854	keystroke_e	e	n/a
367.166	0.091	734332	keystroke_Key.enter	Key.enter	n/a
367.264	12.579	734528	prompt	n/a	achievements clothing cyber tennis\n
368.1265	0.06	736253	keystroke_a	a	n/a
368.3665	0.0745	736733	keystroke_c	c	n/a
368.456	0.0755	736912	keystroke_h	h	n/a
368.637	0.06	737274	keystroke_i	i	n/a
368.712	0.075	737424	keystroke_e	e	n/a
370.061	0.09	740122	keystroke_v	v	n/a
370.197	0.074	740394	keystroke_e	e	n/a
370.317	0.059	740634	keystroke_m	m	n/a
370.4065	0.0905	740813	keystroke_e	e	n/a
370.5115	0.0755	741023	keystroke_n	n	n/a
370.526	0.046	741052	keystroke_b	b	n/a
370.602	0.09	741204	keystroke_t	t	n/a
370.842	0.075	741684	keystroke_s	s	n/a
370.9615	0.075	741923	keystroke_Key.space	Key.space	n/a
371.3965	0.03	742793	keystroke_Key.backspace	Key.backspace	n/a
371.5315	0.045	743063	keystroke_Key.backspace	Key.backspace	n/a
371.6665	0.06	743333	keystroke_Key.backspace	Key.backspace	n/a
371.7865	0.09	743573	keystroke_Key.backspace	Key.backspace	n/a
372.207	0.0895	744414	keystroke_t	t	n/a
372.462	0.075	744924	keystroke_s	s	n/a
372.581	0.075	745162	keystroke_Key.space	Key.space	n/a
372.7015	0.0595	745403	keystroke_c	c	n/a
372.807	0.0445	745614	keystroke_k	k	n/a
372.9565	0.0755	745913	keystroke_o	o	n/a
373.377	0.089	746754	keystroke_Key.backspace	Key.backspace	n/a
373.871	0.0905	747742	keystroke_Key.backspace	Key.backspace	n/a
374.231	0.0605	748462	keystroke_l	l	n/a
374.382	0.045	748764	keystroke_o	o	n/a
374.666	0.075	749332	keystroke_t	t	n/a
374.756	0.0755	749512	keystroke_h	h	n/a
374.9365	0.1205	749873	keystroke_i	i	n/a
375.0115	0.1045	750023	keystroke_n	n	n/a
375.101	0.06	750202	keystroke_g	g	n/a
375.206	0.105	750412	keystroke_Key.space	Key.space	n/a
375.8665	0.06	751733	keystroke_x	x	n/a
377.486	0.09	754972	keystroke_Key.backspace	Key.backspace	n/a
377.786	0.076	755572	keystroke_c	c	n/a
377.9215	0.0745	755843	keystroke_y	y	n/a
378.131	0.061	756262	keystroke_b	b	n/a
378.236	0.0905	756472	keystroke_e	e	n/a
378.417	0.0745	756834	keystroke_r	r	n/a
378.596	0.105	757192	keystroke_Key.space	Key.space	n/a
378.717	0.074	757434	keystroke_t	t	n/a
378.941	0.0605	757882	keystroke_e	e	n/a
379.047	0.059	758094	keystroke_n	n	n/a
379.197	0.074	758394	keystroke_n	n	n/a
379.3465	0.0895	758693	keystroke_i	i	n/a
379.541	0.016	759082	keystroke_s	s	n/a
379.752	0.0885	759504	keystroke_Key.enter	Key.enter	n/a
379.855	16.5775	759710	prompt	n/a	rocket motel interactions wherever\n
380.6365	0.09	761273	keystroke_r	r	n/a
380.7405	0.076	761481	keystroke_o	o	n/a
380.877	0.0745	761754	keystroke_c	c	n/a
380.9965	0.0755	761993	keystroke_k	k	n/a
381.1165	0.06	762233	keystroke_e	e	n/a
381.296	0.075	762592	keystroke_t	t	n/a
381.401	0.075	762802	keystroke_Key.space	Key.space	n/a
381.581	0.136	763162	keystroke_m	m	n/a
381.687	0.059	763374	keystroke_i	i	n/a
381.701	0.0755	763402	keystroke_o	o	n/a
381.791	0.076	763582	keystroke_d	d	n/a
382.1665	0.0455	764333	keystroke_Key.backspace	Key.backspace	n/a
382.301	0.075	764602	keystroke_Key.backspace	Key.backspace	n/a
382.451	0.0905	764902	keystroke_Key.backspace	Key.backspace	n/a
382.8415	0.075	765683	keystroke_o	o	n/a
383.247	0.0745	766494	keystroke_t	t	n/a
383.472	0.059	766944	keystroke_e	e	n/a
383.547	0.074	767094	keystroke_l	l	n/a
383.681	0.12	767362	keystroke_Key.space	Key.space	n/a
384.1915	0.12	768383	keystroke_i	i	n/a
384.2665	0.1045	768533	keystroke_n	n	n/a
384.506	0.06	769012	keystroke_t	t	n/a
384.521	0.031	769042	keystroke_r	r	n/a
384.5965	0.09	769193	keystroke_e	e	n/a
384.7615	0.09	769523	keystroke_r	r	n/a
385.467	0.044	770934	keystroke_Key.backspace	Key.backspace	n/a
386.081	0.09	772162	keystroke_r	r	n/a
386.786	0.06	773572	keystroke_Key.backspace	Key.backspace	n/a
386.9215	0.09	773843	keystroke_Key.backspace	Key.backspace	n/a
387.071	0.0895	774142	keystroke_Key.backspace	Key.backspace	n/a
387.2215	0.075	774443	keystroke_e	e	n/a
387.4015	0.075	774803	keystroke_r	r	n/a
387.7015	0.075	775403	keystroke_a	a	n/a
387.9565	0.045	775913	keystroke_x	x	n/a
387.9715	0.045	775943	keystroke_c	c	n/a
388.151	0.0755	776302	keystroke_t	t	n/a
388.286	0.0755	776572	keystroke_i	i	n/a
388.437	0.1345	776874	keystroke_o	o	n/a
388.512	0.1195	777024	keystroke_n	n	n/a
388.8415	0.06	777683	keystroke_Key.backspace	Key.backspace	n/a
389.0065	0.045	778013	keystroke_Key.backspace	Key.backspace	n/a
389.1415	0.06	778283	keystroke_Key.backspace	Key.backspace	n/a
389.3515	0.06	778703	keystroke_Key.backspace	Key.backspace	n/a
389.4865	0.075	778973	keystroke_Key.backspace	Key.backspace	n/a
389.6515	0.09	779303	keystroke_Key.backspace	Key.backspace	n/a
389.936	0.091	779872	keystroke_c	c	n/a
390.192	0.0895	780384	keystroke_t	t	n/a
390.476	0.06	780952	keystroke_i	i	n/a
390.6265	0.135	781253	keystroke_o	o	n/a
390.7165	0.104	781433	keystroke_n	n	n/a
390.8065	0.0605	781613	keystroke_s	s	n/a
390.9865	0.105	781973	keystroke_Key.space	Key.space	n/a
391.721	0.0905	783442	keystroke_w	w	n/a
391.872	0.0745	783744	keystroke_h	h	n/a
391.9615	0.0745	783923	keystroke_e	e	n/a
392.1115	0.09	784223	keystroke_e	e	n/a
392.292	0.0745	784584	keystroke_r	r	n/a
392.4865	0.0755	784973	keystroke_e	e	n/a
392.5765	0.0455	785153	keystroke_v	v	n/a
392.667	0.1045	785334	keystroke_e	e	n/a
392.8465	0.09	785693	keystroke_r	r	n/a
393.1615	0.045	786323	keystroke_Key.backspace	Key.backspace	n/a
393.2815	0.06	786563	keystroke_Key.backspace	Key.backspace	n/a
393.416	0.0905	786832	keystroke_Key.backspace	Key.backspace	n/a
393.5815	0.06	787163	keystroke_Key.backspace	Key.backspace	n/a
393.716	0.1205	787432	keystroke_Key.backspace	Key.backspace	n/a
393.971	0.1205	787942	keystroke_Key.backspace	Key.backspace	n/a
394.271	0.09	788542	keystroke_r	r	n/a
394.482	0.074	788964	keystroke_e	e	n/a
395.592	0.09	791184	keystroke_v	v	n/a
395.771	0.091	791542	keystroke_e	e	n/a
395.952	0.075	791904	keystroke_r	r	n/a
396.3565	0.074	792713	keystroke_Key.enter	Key.enter	n/a
396.4355	7.7675	792871	prompt	n/a	cheque player pitch affect\n
397.317	0.0745	794634	keystroke_c	c	n/a
397.4365	0.0595	794873	keystroke_h	h	n/a
397.557	0.0745	795114	keystroke_e	e	n/a
397.7965	0.06	795593	keystroke_q	q	n/a
397.9315	0.09	795863	keystroke_u	u	n/a
398.0665	0.0605	796133	keystroke_e	e	n/a
398.2165	0.09	796433	keystroke_Key.space	Key.space	n/a
398.5615	0.1195	797123	keystroke_p	p	n/a
398.622	0.1195	797244	keystroke_l	l	n/a
398.756	0.0905	797512	keystroke_a	a	n/a
398.9215	0.0605	797843	keystroke_y	y	n/a
398.997	0.104	797994	keystroke_e	e	n/a
399.3115	0.0145	798623	keystroke_r	r	n/a
399.341	0.12	798682	keystroke_Key.space	Key.space	n/a
401.7735	0.001	803547	keystroke_p	p	n/a
401.907	0.0595	803814	keystroke_i	i	n/a
402.026	0.0605	804052	keystroke_t	t	n/a
402.2515	0.0305	804503	keystroke_c	c	n/a
402.3115	0.1355	804623	keystroke_h	h	n/a
402.401	0.1345	804802	keystroke_Key.space	Key.space	n/a
402.9265	0.0605	805853	keystroke_a	a	n/a
403.0465	0.06	806093	keystroke_f	f	n/a
403.182	0.1045	806364	keystroke_f	f	n/a
403.346	0.09	806692	keystroke_e	e	n/a
403.571	0.0755	807142	keystroke_c	c	n/a
403.661	0.0905	807322	keystroke_t	t	n/a
404.111	0.09	808222	keystroke_Key.enter	Key.enter	n/a
404.207	9.656	808414	prompt	n/a	bandwidth ultram reunion mutual\n
405.1015	0.0605	810203	keystroke_b	b	n/a
405.4165	0.0605	810833	keystroke_a	a	n/a
405.6265	0.059	811253	keystroke_d	d	n/a
406.1965	0.09	812393	keystroke_Key.backspace	Key.backspace	n/a
406.497	0.0745	812994	keystroke_n	n	n/a
406.6165	0.06	813233	keystroke_d	d	n/a
406.7965	0.075	813593	keystroke_w	w	n/a
407.066	0.06	814132	keystroke_i	i	n/a
407.3815	0.0895	814763	keystroke_d	d	n/a
407.621	0.06	815242	keystroke_t	t	n/a
407.7715	0.105	815543	keystroke_h	h	n/a
407.861	0.09	815722	keystroke_Key.space	Key.space	n/a
408.581	0.1055	817162	keystroke_u	u	n/a
408.8365	0.0905	817673	keystroke_l	l	n/a
409.0465	0.0755	818093	keystroke_t	t	n/a
409.2265	0.075	818453	keystroke_r	r	n/a
409.526	0.0455	819052	keystroke_a	a	n/a
409.6765	0.105	819353	keystroke_m	m	n/a
409.7365	0.12	819473	keystroke_Key.space	Key.space	n/a
410.8915	0.0745	821783	keystroke_r	r	n/a
411.101	0.0905	822202	keystroke_e	e	n/a
411.3265	0.075	822653	keystroke_u	u	n/a
411.686	0.075	823372	keystroke_n	n	n/a
411.866	0.075	823732	keystroke_i	i	n/a
412.031	0.1355	824062	keystroke_o	o	n/a
412.1215	0.135	824243	keystroke_n	n	n/a
412.3165	0.1195	824633	keystroke_Key.space	Key.space	n/a
412.8565	0.09	825713	keystroke_m	m	n/a
413.0665	0.075	826133	keystroke_u	u	n/a
413.1865	0.09	826373	keystroke_t	t	n/a
413.2615	0.075	826523	keystroke_u	u	n/a
413.4865	0.06	826973	keystroke_a	a	n/a
413.5915	0.105	827183	keystroke_l	l	n/a
413.7715	0.089	827543	keystroke_Key.enter	Key.enter	n/a
413.868	5.861	827736	prompt	n/a	radius char tomorrow cleaner\n
414.6265	0.089	829253	keystroke_r	r	n/a
414.8665	0.075	829733	keystroke_a	a	n/a
415.0615	0.0745	830123	keystroke_d	d	n/a
415.167	0.0745	830334	keystroke_i	i	n/a
415.332	0.074	830664	keystroke_u	u	n/a
415.4515	0.075	830903	keystroke_s	s	n/a
415.5405	0.136	831081	keystroke_Key.space	Key.space	n/a
415.7815	0.03	831563	keystroke_m	m	n/a
416.1715	0.09	832343	keystroke_Key.backspace	Key.backspace	n/a
416.3215	0.1045	832643	keystroke_c	c	n/a
416.472	0.09	832944	keystroke_h	h	n/a
416.6215	0.09	833243	keystroke_a	a	n/a
417.0565	0.06	834113	keystroke_r	r	n/a
417.2215	0.075	834443	keystroke_Key.space	Key.space	n/a
417.3265	0.09	834653	keystroke_t	t	n/a
417.4605	0.135	834921	keystroke_o	o	n/a
417.5365	0.165	835073	keystroke_m	m	n/a
417.7315	0.075	835463	keystroke_o	o	n/a
417.8215	0.06	835643	keystroke_r	r	n/a
417.987	0.1195	835974	keystroke_r	r	n/a
418.1215	0.1055	836243	keystroke_o	o	n/a
418.256	0.076	836512	keystroke_w	w	n/a
418.377	0.104	836754	keystroke_Key.space	Key.space	n/a
418.571	0.076	837142	keystroke_c	c	n/a
418.6615	0.09	837323	keystroke_l	l	n/a
418.812	0.075	837624	keystroke_e	e	n/a
419.007	0.105	838014	keystroke_a	a	n/a
419.141	0.106	838282	keystroke_n	n	n/a
419.292	0.0895	838584	keystroke_e	e	n/a
419.5165	0.075	839033	keystroke_r	r	n/a
419.6365	0.09	839273	keystroke_Key.enter	Key.enter	n/a
419.7515	7.7615	839503	prompt	n/a	joint sole fisher selling\n
420.612	0.0745	841224	keystroke_j	j	n/a
420.7915	0.0905	841583	keystroke_o	o	n/a
420.9415	0.1355	841883	keystroke_i	i	n/a
421.0165	0.135	842033	keystroke_n	n	n/a
421.1815	0.06	842363	keystroke_t	t	n/a
421.4215	0.1045	842843	keystroke_Key.space	Key.space	n/a
422.0515	0.09	844103	keystroke_d	d	n/a
422.1425	0.0885	844285	keystroke_o	o	n/a
422.291	0.0905	844582	keystroke_l	l	n/a
422.397	0.0745	844794	keystroke_r	r	n/a
422.502	0.0895	845004	keystroke_Key.space	Key.space	n/a
422.607	0.089	845214	keystroke_g	g	n/a
422.7115	0.0745	845423	keystroke_i	i	n/a
422.876	0.075	845752	keystroke_s	s	n/a
422.966	0.0905	845932	keystroke_h	h	n/a
423.2665	0.0145	846533	keystroke_Key.backspace	Key.backspace	n/a
423.371	0.0595	846742	keystroke_Key.backspace	Key.backspace	n/a
423.5215	0.06	847043	keystroke_Key.backspace	Key.backspace	n/a
423.6415	0.105	847283	keystroke_Key.backspace	Key.backspace	n/a
423.8215	0.075	847643	keystroke_Key.backspace	Key.backspace	n/a
423.9715	0.075	847943	keystroke_Key.backspace	Key.backspace	n/a
424.1215	0.075	848243	keystroke_Key.backspace	Key.backspace	n/a
424.2865	0.075	848573	keystroke_Key.backspace	Key.backspace	n/a
424.6765	0.06	849353	keystroke_Key.backspace	Key.backspace	n/a
425.0965	0.0595	850193	keystroke_s	s	n/a
425.172	0.0745	850344	keystroke_o	o	n/a
425.3215	0.075	850643	keystroke_l	l	n/a
425.3815	0.06	850763	keystroke_e	e	n/a
425.5015	0.0895	851003	keystroke_Key.space	Key.space	n/a
425.6215	0.0745	851243	keystroke_f	f	n/a
425.7265	0.0755	851453	keystroke_i	i	n/a
425.8765	0.0605	851753	keystroke_s	s	n/a
425.9665	0.06	851933	keystroke_h	h	n/a
426.087	0.09	852174	keystroke_e	e	n/a
426.2665	0.0895	852533	keystroke_r	r	n/a
426.3415	0.1045	852683	keystroke_Key.space	Key.space	n/a
426.5065	0.06	853013	keystroke_s	s	n/a
426.626	0.075	853252	keystroke_e	e	n/a
426.716	0.061	853432	keystroke_l	l	n/a
426.852	0.089	853704	keystroke_l	l	n/a
427.061	0.1505	854122	keystroke_i	i	n/a
427.136	0.135	854272	keystroke_n	n	n/a
427.2265	0.075	854453	keystroke_g	g	n/a
427.421	0.09	854842	keystroke_Key.enter	Key.enter	n/a
427.5185	5.814	855037	prompt	n/a	blade ones murphy advise\n
428.4715	0.075	856943	keystroke_v	v	n/a
428.8315	0.075	857663	keystroke_Key.backspace	Key.backspace	n/a
428.9815	0.075	857963	keystroke_b	b	n/a
429.1165	0.0755	858233	keystroke_l	l	n/a
429.297	0.1045	858594	keystroke_a	a	n/a
429.5515	0.075	859103	keystroke_d	d	n/a
429.716	0.06	859432	keystroke_e	e	n/a
429.791	0.09	859582	keystroke_Key.space	Key.space	n/a
430.631	0.12	861262	keystroke_o	o	n/a
430.691	0.1205	861382	keystroke_n	n	n/a
430.781	0.075	861562	keystroke_e	e	n/a
430.947	0.105	861894	keystroke_s	s	n/a
431.021	0.195	862042	keystroke_Key.space	Key.space	n/a
431.171	0.12	862342	keystroke_m	m	n/a
431.4415	0.0605	862883	keystroke_u	u	n/a
431.546	0.0755	863092	keystroke_r	r	n/a
431.652	0.0595	863304	keystroke_p	p	n/a
431.8915	0.045	863783	keystroke_h	h	n/a
432.012	0.0745	864024	keystroke_y	y	n/a
432.1615	0.105	864323	keystroke_Key.space	Key.space	n/a
432.2815	0.09	864563	keystroke_a	a	n/a
432.506	0.075	865012	keystroke_d	d	n/a
432.5965	0.0895	865193	keystroke_v	v	n/a
432.822	0.059	865644	keystroke_i	i	n/a
432.9715	0.075	865943	keystroke_s	s	n/a
433.1515	0.06	866303	keystroke_e	e	n/a
433.2565	0.075	866513	keystroke_Key.enter	Key.enter	n/a
433.336	6.4475	866672	prompt	n/a	bottles bars toys watts\n
434.217	0.0745	868434	keystroke_b	b	n/a
434.3665	0.0905	868733	keystroke_o	o	n/a
434.502	0.0445	869004	keystroke_t	t	n/a
434.6665	0.105	869333	keystroke_t	t	n/a
435.1315	0.0755	870263	keystroke_l	l	n/a
435.297	0.075	870594	keystroke_e	e	n/a
435.446	0.105	870892	keystroke_s	s	n/a
435.6265	0.09	871253	keystroke_Key.space	Key.space	n/a
435.8215	0.06	871643	keystroke_b	b	n/a
435.9415	0.1055	871883	keystroke_a	a	n/a
436.3015	0.075	872603	keystroke_r	r	n/a
436.526	0.0755	873052	keystroke_s	s	n/a
436.631	0.09	873262	keystroke_Key.space	Key.space	n/a
437.021	0.075	874042	keystroke_b	b	n/a
437.3515	0.075	874703	keystroke_Key.backspace	Key.backspace	n/a
437.5465	0.075	875093	keystroke_t	t	n/a
437.666	0.061	875332	keystroke_o	o	n/a
437.936	0.061	875872	keystroke_y	y	n/a
438.116	0.075	876232	keystroke_s	s	n/a
438.281	0.1055	876562	keystroke_Key.space	Key.space	n/a
438.881	0.0905	877762	keystroke_w	w	n/a
439.032	0.1195	878064	keystroke_a	a	n/a
439.1665	0.03	878333	keystroke_t	t	n/a
439.3015	0.09	878603	keystroke_t	t	n/a
439.5115	0.075	879023	keystroke_s	s	n/a
439.6615	0.12	879323	keystroke_Key.enter	Key.enter	n/a
439.795	6.033	879590	prompt	n/a	ride trivia better whose\n
440.7265	0.075	881453	keystroke_r	r	n/a
440.862	0.0895	881724	keystroke_i	i	n/a
441.102	0.0895	882204	keystroke_e	e	n/a
441.251	0.0905	882502	keystroke_Key.space	Key.space	n/a
441.357	0.0745	882714	keystroke_t	t	n/a
441.5225	0.0735	883045	keystroke_r	r	n/a
441.6115	0.1045	883223	keystroke_i	i	n/a
442.2115	0.0445	884423	keystroke_=	=	n/a
442.3765	0.045	884753	keystroke_Key.backspace	Key.backspace	n/a
442.4815	0.06	884963	keystroke_Key.backspace	Key.backspace	n/a
442.7065	0.06	885413	keystroke_Key.backspace	Key.backspace	n/a
442.8565	0.06	885713	keystroke_Key.backspace	Key.backspace	n/a
443.0065	0.09	886013	keystroke_Key.backspace	Key.backspace	n/a
443.1715	0.0755	886343	keystroke_Key.backspace	Key.backspace	n/a
443.3225	0.074	886645	keystroke_d	d	n/a
443.4715	0.09	886943	keystroke_e	e	n/a
443.5765	0.09	887153	keystroke_Key.space	Key.space	n/a
443.862	0.0295	887724	keystroke_y	y	n/a
444.011	0.0905	888022	keystroke_r	r	n/a
444.5065	0.045	889013	keystroke_Key.backspace	Key.backspace	n/a
444.6265	0.075	889253	keystroke_Key.backspace	Key.backspace	n/a
444.8515	0.06	889703	keystroke_t	t	n/a
445.0015	0.105	890003	keystroke_r	r	n/a
445.1515	0.075	890303	keystroke_i	i	n/a
445.2715	0.0605	890543	keystroke_v	v	n/a
445.3615	0.0905	890723	keystroke_i	i	n/a
445.5575	0.074	891115	keystroke_a	a	n/a
445.7365	0.09	891473	keystroke_Key.enter	Key.enter	n/a
445.833	52.961	891666	prompt	n/a	testimonials botswana hometown workflow\n
447.012	0.0895	894024	keystroke_t	t	n/a
447.1315	0.075	894263	keystroke_e	e	n/a
447.2965	0.0895	894593	keystroke_s	s	n/a
447.506	0.06	895012	keystroke_t	t	n/a
447.612	0.1045	895224	keystroke_i	i	n/a
447.701	0.105	895402	keystroke_m	m	n/a
448.1965	0.12	896393	keystroke_o	o	n/a
448.3765	0.135	896753	keystroke_n	n	n/a
448.7815	0.105	897563	keystroke_i	i	n/a
449.351	0.0895	898702	keystroke_a	a	n/a
449.4555	0.076	898911	keystroke_l	l	n/a
449.5915	0.075	899183	keystroke_s	s	n/a
449.6815	0.09	899363	keystroke_Key.space	Key.space	n/a
450.342	0.074	900684	keystroke_b	b	n/a
450.476	0.0905	900952	keystroke_o	o	n/a
450.5815	0.0745	901163	keystroke_t	t	n/a
450.8215	0.0605	901643	keystroke_s	s	n/a
451.0465	0.0445	902093	keystroke_w	w	n/a
451.061	0.015	902122	keystroke_q	q	n/a
451.212	0.075	902424	keystroke_a	a	n/a
451.361	0.09	902722	keystroke_n	n	n/a
452.021	0.0905	904042	keystroke_Key.backspace	Key.backspace	n/a
452.156	0.06	904312	keystroke_Key.backspace	Key.backspace	n/a
452.291	0.0755	904582	keystroke_Key.backspace	Key.backspace	n/a
452.4115	0.0905	904823	keystroke_a	a	n/a
452.576	0.0605	905152	keystroke_b	b	n/a
452.696	0.046	905392	keystroke_a	a	n/a
452.8465	0.0755	905693	keystroke_Key.space	Key.space	n/a
456.2545	0	912509	keystroke_Key.backspace	Key.backspace	n/a
456.3265	0.075	912653	keystroke_Key.backspace	Key.backspace	n/a
456.461	0.075	912922	keystroke_Key.backspace	Key.backspace	n/a
457.5115	0.0755	915023	keystroke_n	n	n/a
457.6025	0.0895	915205	keystroke_s	s	n/a
457.766	0.09	915532	keystroke_Key.space	Key.space	n/a
458.4265	0.045	916853	keystroke_Key.f12	Key.f12	n/a
458.5915	0.015	917183	keystroke_=	=	n/a
458.7265	0.075	917453	keystroke_Key.backspace	Key.backspace	n/a
458.8765	0.06	917753	keystroke_Key.backspace	Key.backspace	n/a
458.9955	0.0605	917991	keystroke_Key.backspace	Key.backspace	n/a
461.428	0	922856	keystroke_Key.f11	Key.f11	n/a
463.7535	0.0135	927507	keystroke_Key.f11	Key.f11	n/a
464.321	0.12	928642	keystroke_Key.esc	Key.esc	n/a
464.966	0.0755	929932	keystroke_Key.esc	Key.esc	n/a
465.552	0.1195	931104	keystroke_Key.esc	Key.esc	n/a
471.284	0.001	942568	keystroke_Key.backspace	Key.backspace	n/a
471.371	0.075	942742	keystroke_Key.backspace	Key.backspace	n/a
471.387	0.044	942774	keystroke_=	=	n/a
471.506	0.06	943012	keystroke_Key.backspace	Key.backspace	n/a
472.602	0.0595	945204	keystroke_a	a	n/a
472.7065	0.0455	945413	keystroke_Key.space	Key.space	n/a
475.348	0.0005	950696	keystroke_g	g	n/a
475.587	0.0595	951174	keystroke_=	=	n/a
475.857	0.09	951714	keystroke_h	h	n/a
476.067	0.1045	952134	keystroke_o	o	n/a
476.157	0.1345	952314	keystroke_m	m	n/a
476.2465	0.06	952493	keystroke_e	e	n/a
476.472	0.0745	952944	keystroke_t	t	n/a
476.5615	0.03	953123	keystroke_o	o	n/a
476.7725	0.074	953545	keystroke_w	w	n/a
476.9365	0.1355	953873	keystroke_n	n	n/a
477.0265	0.12	954053	keystroke_Key.space	Key.space	n/a
478.062	0.045	956124	keystroke_=	=	n/a
478.212	0.045	956424	keystroke_=	=	n/a
478.3625	0.0445	956725	keystroke_=	=	n/a
478.482	0.06	956964	keystroke_=	=	n/a
478.602	0.06	957204	keystroke_=	=	n/a
479.037	0.03	958074	keystroke_Key.backspace	Key.backspace	n/a
479.202	0.0445	958404	keystroke_Key.backspace	Key.backspace	n/a
479.396	0.045	958792	keystroke_Key.backspace	Key.backspace	n/a
479.5765	0.045	959153	keystroke_Key.backspace	Key.backspace	n/a
479.7865	0.045	959573	keystroke_Key.backspace	Key.backspace	n/a
479.997	0.045	959994	keystroke_Key.backspace	Key.backspace	n/a
480.2215	0.0605	960443	keystroke_Key.backspace	Key.backspace	n/a
480.4615	0.0455	960923	keystroke_Key.backspace	Key.backspace	n/a
480.687	0.0445	961374	keystroke_Key.backspace	Key.backspace	n/a
480.9275	0.059	961855	keystroke_Key.backspace	Key.backspace	n/a
481.167	0.0595	962334	keystroke_Key.backspace	Key.backspace	n/a
481.4365	0.06	962873	keystroke_Key.backspace	Key.backspace	n/a
481.707	0.0595	963414	keystroke_Key.f12	Key.f12	n/a
481.9765	0.0595	963953	keystroke_Key.backspace	Key.backspace	n/a
482.2315	0.045	964463	keystroke_Key.backspace	Key.backspace	n/a
482.5015	0.06	965003	keystroke_Key.backspace	Key.backspace	n/a
483.5515	0.165	967103	keystroke_v	v	n/a
491.834	0.0005	983668	keystroke_Key.backspace	Key.backspace	n/a
491.9365	0.0605	983873	keystroke_Key.backspace	Key.backspace	n/a
492.117	0.0595	984234	keystroke_Key.backspace	Key.backspace	n/a
492.312	0.06	984624	keystroke_Key.backspace	Key.backspace	n/a
493.452	0.09	986904	keystroke_Key.space	Key.space	n/a
495.3875	0.0435	990775	keystroke_h	h	n/a
495.5525	0.12	991105	keystroke_o	o	n/a
495.6265	0.1205	991253	keystroke_m	m	n/a
495.762	0.09	991524	keystroke_e	e	n/a
496.152	0.091	992304	keystroke_t	t	n/a
496.272	0.09	992544	keystroke_o	o	n/a
496.452	0.06	992904	keystroke_w	w	n/a
496.6025	0.1195	993205	keystroke_n	n	n/a
496.677	0.12	993354	keystroke_Key.space	Key.space	n/a
497.412	0.0745	994824	keystroke_w	w	n/a
497.5765	0.075	995153	keystroke_o	o	n/a
497.7565	0.076	995513	keystroke_r	r	n/a
497.9065	0.0905	995813	keystroke_k	k	n/a
498.1915	0.076	996383	keystroke_f	f	n/a
498.3125	0.074	996625	keystroke_l	l	n/a
498.462	0.1205	996924	keystroke_o	o	n/a
498.597	0.06	997194	keystroke_w	w	n/a
498.732	0.059	997464	keystroke_Key.enter	Key.enter	n/a
498.8055	7.173	997611	prompt	n/a	checkout receive alert growth\n
499.6775	0.059	999355	keystroke_c	c	n/a
499.767	0.0745	999534	keystroke_h	h	n/a
499.8715	0.076	999743	keystroke_e	e	n/a
500.037	0.09	1000074	keystroke_c	c	n/a
500.1565	0.076	1000313	keystroke_k	k	n/a
500.3365	0.0605	1000673	keystroke_o	o	n/a
500.502	0.0745	1001004	keystroke_u	u	n/a
500.6215	0.075	1001243	keystroke_t	t	n/a
500.7425	0.074	1001485	keystroke_Key.space	Key.space	n/a
501.1175	0.075	1002235	keystroke_r	r	n/a
501.2675	0.09	1002535	keystroke_e	e	n/a
501.4765	0.0755	1002953	keystroke_c	c	n/a
501.6415	0.0755	1003283	keystroke_e	e	n/a
501.7765	0.076	1003553	keystroke_i	i	n/a
501.9715	0.076	1003943	keystroke_v	v	n/a
502.0615	0.06	1004123	keystroke_e	e	n/a
502.2265	0.0905	1004453	keystroke_Key.space	Key.space	n/a
502.932	0.075	1005864	keystroke_a	a	n/a
503.082	0.0755	1006164	keystroke_l	l	n/a
503.382	0.089	1006764	keystroke_e	e	n/a
503.5465	0.105	1007093	keystroke_r	r	n/a
503.772	0.09	1007544	keystroke_t	t	n/a
503.907	0.0605	1007814	keystroke_Key.space	Key.space	n/a
504.042	0.105	1008084	keystroke_g	g	n/a
504.162	0.075	1008324	keystroke_r	r	n/a
504.297	0.06	1008594	keystroke_o	o	n/a
504.462	0.09	1008924	keystroke_w	w	n/a
504.702	0.06	1009404	keystroke_t	t	n/a
504.7765	0.09	1009553	keystroke_h	h	n/a
505.947	0.03	1011894	keystroke_Key.enter	Key.enter	n/a
505.985	4.9885	1011970	prompt	n/a	bars entity buzz legal\n
506.8925	0.0595	1013785	keystroke_b	b	n/a
506.997	0.09	1013994	keystroke_a	a	n/a
507.222	0.0605	1014444	keystroke_r	r	n/a
507.4175	0.075	1014835	keystroke_s	s	n/a
507.5075	0.104	1015015	keystroke_Key.space	Key.space	n/a
507.6565	0.061	1015313	keystroke_e	e	n/a
507.7765	0.09	1015553	keystroke_n	n	n/a
508.0615	0.075	1016123	keystroke_t	t	n/a
508.2115	0.0905	1016423	keystroke_i	i	n/a
508.3465	0.075	1016693	keystroke_t	t	n/a
508.4815	0.0745	1016963	keystroke_y	y	n/a
508.632	0.1045	1017264	keystroke_Key.space	Key.space	n/a
509.427	0.1195	1018854	keystroke_b	b	n/a
509.532	0.09	1019064	keystroke_u	u	n/a
509.7415	0.0455	1019483	keystroke_z	z	n/a
509.8925	0.1045	1019785	keystroke_z	z	n/a
509.9815	0.09	1019963	keystroke_Key.space	Key.space	n/a
510.132	0.09	1020264	keystroke_l	l	n/a
510.2365	0.0755	1020473	keystroke_e	e	n/a
510.4015	0.06	1020803	keystroke_g	g	n/a
510.5365	0.0605	1021073	keystroke_a	a	n/a
510.657	0.0755	1021314	keystroke_l	l	n/a
510.8965	0.0755	1021793	keystroke_Key.enter	Key.enter	n/a
510.9775	8.231	1021955	prompt	n/a	frankfurt three explains wives\n
512.023	0.074	1024046	keystroke_f	f	n/a
512.2025	0.074	1024405	keystroke_r	r	n/a
512.427	0.0745	1024854	keystroke_a	a	n/a
512.5165	0.1355	1025033	keystroke_n	n	n/a
512.5925	0.119	1025185	keystroke_k	k	n/a
512.7425	0.074	1025485	keystroke_f	f	n/a
512.8615	0.076	1025723	keystroke_u	u	n/a
512.9675	0.09	1025935	keystroke_r	r	n/a
513.147	0.09	1026294	keystroke_t	t	n/a
513.252	0.09	1026504	keystroke_Key.space	Key.space	n/a
513.597	0.075	1027194	keystroke_t	t	n/a
513.6565	0.105	1027313	keystroke_h	h	n/a
513.8215	0.0605	1027643	keystroke_r	r	n/a
514.617	0.06	1029234	keystroke_e	e	n/a
514.767	0.0745	1029534	keystroke_e	e	n/a
514.857	0.1045	1029714	keystroke_Key.space	Key.space	n/a
514.992	0.0745	1029984	keystroke_e	e	n/a
515.202	0.075	1030404	keystroke_x	x	n/a
515.3225	0.1345	1030645	keystroke_p	p	n/a
515.412	0.089	1030824	keystroke_l	l	n/a
515.517	0.0745	1031034	keystroke_a	a	n/a
515.6815	0.105	1031363	keystroke_i	i	n/a
515.6975	0.074	1031395	keystroke_u	u	n/a
515.7575	0.1195	1031515	keystroke_n	n	n/a
515.847	0.0755	1031694	keystroke_s	s	n/a
516.027	0.0895	1032054	keystroke_Key.space	Key.space	n/a
516.5815	0.03	1033163	keystroke_Key.backspace	Key.backspace	n/a
516.687	0.059	1033374	keystroke_Key.backspace	Key.backspace	n/a
516.8365	0.06	1033673	keystroke_Key.backspace	Key.backspace	n/a
516.9715	0.09	1033943	keystroke_Key.backspace	Key.backspace	n/a
517.5275	0.0735	1035055	keystroke_n	n	n/a
517.662	0.075	1035324	keystroke_s	s	n/a
517.751	0.06	1035502	keystroke_Key.space	Key.space	n/a
517.857	0.059	1035714	keystroke_w	w	n/a
517.9325	0.0885	1035865	keystroke_i	i	n/a
518.1725	0.0895	1036345	keystroke_v	v	n/a
518.2775	0.0745	1036555	keystroke_e	e	n/a
518.457	0.075	1036914	keystroke_s	s	n/a
519.147	0.06	1038294	keystroke_Key.enter	Key.enter	n/a
519.213	7.3905	1038426	prompt	n/a	sept happens needn't comes\n
519.9425	0.0745	1039885	keystroke_s	s	n/a
520.122	0.075	1040244	keystroke_e	e	n/a
520.212	0.075	1040424	keystroke_p	p	n/a
520.377	0.0755	1040754	keystroke_t	t	n/a
520.497	0.105	1040994	keystroke_Key.space	Key.space	n/a
521.202	0.06	1042404	keystroke_h	h	n/a
521.3075	0.09	1042615	keystroke_a	a	n/a
521.607	0.0455	1043214	keystroke_p	p	n/a
521.7415	0.09	1043483	keystroke_p	p	n/a
521.8915	0.075	1043783	keystroke_e	e	n/a
522.0425	0.059	1044085	keystroke_n	n	n/a
522.1315	0.076	1044263	keystroke_s	s	n/a
522.2665	0.0905	1044533	keystroke_Key.space	Key.space	n/a
522.7765	0.076	1045553	keystroke_n	n	n/a
523.032	0.0745	1046064	keystroke_e	e	n/a
523.6615	0.0755	1047323	keystroke_e	e	n/a
523.872	0.075	1047744	keystroke_d	d	n/a
524.0065	0.0905	1048013	keystroke_n	n	n/a
524.7265	0.06	1049453	keystroke_'	'	n/a
524.8915	0.03	1049783	keystroke_t	t	n/a
525.0265	0.075	1050053	keystroke_Key.space	Key.space	n/a
525.5825	0.074	1051165	keystroke_c	c	n/a
525.7315	0.135	1051463	keystroke_o	o	n/a
525.8215	0.12	1051643	keystroke_m	m	n/a
525.9565	0.0755	1051913	keystroke_e	e	n/a
526.2865	0.1055	1052573	keystroke_s	s	n/a
526.5115	0.09	1053023	keystroke_Key.enter	Key.enter	n/a
526.6075	14.712	1053215	prompt	n/a	institute thesaurus insects housewives\n
527.6375	0.0895	1055275	keystroke_i	i	n/a
527.712	0.075	1055424	keystroke_n	n	n/a
527.802	0.0455	1055604	keystroke_s	s	n/a
528.0125	0.0445	1056025	keystroke_t	t	n/a
528.282	0.0895	1056564	keystroke_i	i	n/a
528.822	0.075	1057644	keystroke_t	t	n/a
529.017	0.074	1058034	keystroke_u	u	n/a
529.242	0.0605	1058484	keystroke_e	e	n/a
529.4975	0.1045	1058995	keystroke_s	s	n/a
529.617	0.075	1059234	keystroke_Key.space	Key.space	n/a
530.337	0.0595	1060674	keystroke_Key.backspace	Key.backspace	n/a
530.4865	0.0605	1060973	keystroke_Key.backspace	Key.backspace	n/a
530.637	0.0895	1061274	keystroke_Key.backspace	Key.backspace	n/a
531.7615	0.045	1063523	keystroke_Key.backspace	Key.backspace	n/a
532.872	0.0745	1065744	keystroke_u	u	n/a
533.0825	0.074	1066165	keystroke_t	t	n/a
533.2165	0.09	1066433	keystroke_e	e	n/a
533.3815	0.106	1066763	keystroke_s	s	n/a
533.502	0.074	1067004	keystroke_Key.space	Key.space	n/a
534.102	0.075	1068204	keystroke_t	t	n/a
534.207	0.0755	1068414	keystroke_h	h	n/a
534.3125	0.074	1068625	keystroke_e	e	n/a
534.5825	0.044	1069165	keystroke_s	s	n/a
534.7615	0.0755	1069523	keystroke_a	a	n/a
534.8815	0.09	1069763	keystroke_u	u	n/a
535.1975	0.0595	1070395	keystroke_r	r	n/a
535.3615	0.075	1070723	keystroke_u	u	n/a
535.482	0.0595	1070964	keystroke_s	s	n/a
535.6015	0.0905	1071203	keystroke_Key.space	Key.space	n/a
536.6665	0.105	1073333	keystroke_i	i	n/a
536.7265	0.12	1073453	keystroke_n	n	n/a
536.817	0.075	1073634	keystroke_s	s	n/a
536.9825	0.089	1073965	keystroke_e	e	n/a
537.1915	0.075	1074383	keystroke_c	c	n/a
537.342	0.09	1074684	keystroke_t	t	n/a
537.4475	0.074	1074895	keystroke_s	s	n/a
537.5965	0.09	1075193	keystroke_Key.space	Key.space	n/a
537.987	0.06	1075974	keystroke_h	h	n/a
538.197	0.045	1076394	keystroke_o	o	n/a
538.362	0.06	1076724	keystroke_u	u	n/a
538.452	0.074	1076904	keystroke_s	s	n/a
538.6025	0.09	1077205	keystroke_e	e	n/a
538.916	0.0305	1077832	keystroke_Key.backspace	Key.backspace	n/a
539.052	0.044	1078104	keystroke_Key.backspace	Key.backspace	n/a
539.187	0.075	1078374	keystroke_Key.backspace	Key.backspace	n/a
540.012	0.0755	1080024	keystroke_u	u	n/a
540.1315	0.075	1080263	keystroke_s	s	n/a
540.2815	0.0615	1080563	keystroke_e	e	n/a
540.477	0.075	1080954	keystroke_w	w	n/a
540.611	0.076	1081222	keystroke_i	i	n/a
540.8665	0.045	1081733	keystroke_v	v	n/a
540.9275	0.075	1081855	keystroke_e	e	n/a
541.1075	0.075	1082215	keystroke_s	s	n/a
541.257	0.06	1082514	keystroke_Key.enter	Key.enter	n/a
541.335	6.973	1082670	prompt	n/a	commit assume selecting alcohol\n
542.0815	0.06	1084163	keystroke_c	c	n/a
542.1715	0.06	1084343	keystroke_o	o	n/a
542.3665	0.0755	1084733	keystroke_m	m	n/a
542.472	0.135	1084944	keystroke_m	m	n/a
543.252	0.06	1086504	keystroke_i	i	n/a
543.4165	0.06	1086833	keystroke_t	t	n/a
543.522	0.075	1087044	keystroke_Key.space	Key.space	n/a
543.7025	0.074	1087405	keystroke_a	a	n/a
543.882	0.0595	1087764	keystroke_s	s	n/a
544.017	0.1195	1088034	keystroke_s	s	n/a
544.1215	0.06	1088243	keystroke_u	u	n/a
544.317	0.09	1088634	keystroke_m	m	n/a
544.437	0.06	1088874	keystroke_e	e	n/a
544.5415	0.1055	1089083	keystroke_Key.space	Key.space	n/a
544.692	0.105	1089384	keystroke_s	s	n/a
544.8575	0.0745	1089715	keystroke_e	e	n/a
544.977	0.075	1089954	keystroke_l	l	n/a
545.082	0.075	1090164	keystroke_e	e	n/a
545.277	0.105	1090554	keystroke_c	c	n/a
545.5025	0.0595	1091005	keystroke_t	t	n/a
545.5915	0.076	1091183	keystroke_i	i	n/a
545.742	0.12	1091484	keystroke_o	o	n/a
545.8165	0.105	1091633	keystroke_n	n	n/a
546.0115	0.105	1092023	keystroke_Key.space	Key.space	n/a
546.7025	0.074	1093405	keystroke_a	a	n/a
546.868	0.0595	1093736	keystroke_l	l	n/a
547.0465	0.075	1094093	keystroke_c	c	n/a
547.617	0.075	1095234	keystroke_o	o	n/a
547.767	0.06	1095534	keystroke_h	h	n/a
547.887	0.075	1095774	keystroke_o	o	n/a
548.037	0.105	1096074	keystroke_l	l	n/a
548.247	0.06	1096494	keystroke_Key.enter	Key.enter	n/a
548.3175	11.421	1096635	prompt	n/a	lexmark senate unlock bandwidth\n
549.117	0.075	1098234	keystroke_l	l	n/a
549.312	0.09	1098624	keystroke_e	e	n/a
549.5375	0.0745	1099075	keystroke_x	x	n/a
549.687	0.06	1099374	keystroke_m	m	n/a
549.822	0.075	1099644	keystroke_a	a	n/a
550.077	0.045	1100154	keystroke_r	r	n/a
550.2125	0.089	1100425	keystroke_k	k	n/a
550.3175	0.1045	1100635	keystroke_Key.space	Key.space	n/a
550.7065	0.075	1101413	keystroke_s	s	n/a
550.902	0.0745	1101804	keystroke_e	e	n/a
551.0365	0.0605	1102073	keystroke_n	n	n/a
552.2675	0.029	1104535	keystroke_a	a	n/a
552.387	0.0605	1104774	keystroke_t	t	n/a
552.4915	0.046	1104983	keystroke_a	a	n/a
553.332	0.09	1106664	keystroke_Key.backspace	Key.backspace	n/a
553.5715	0.061	1107143	keystroke_e	e	n/a
553.6915	0.0905	1107383	keystroke_Key.space	Key.space	n/a
554.982	0.1355	1109964	keystroke_u	u	n/a
555.057	0.135	1110114	keystroke_n	n	n/a
555.2975	0.0595	1110595	keystroke_l	l	n/a
555.447	0.0755	1110894	keystroke_o	o	n/a
555.582	0.06	1111164	keystroke_c	c	n/a
555.6565	0.1205	1111313	keystroke_k	k	n/a
555.8215	0.1205	1111643	keystroke_Key.space	Key.space	n/a
556.0775	0.0895	1112155	keystroke_b	b	n/a
556.182	0.0905	1112364	keystroke_a	a	n/a
556.317	0.0745	1112634	keystroke_n	n	n/a
556.407	0.0745	1112814	keystroke_d	d	n/a
556.617	0.075	1113234	keystroke_w	w	n/a
557.352	0.045	1114704	keystroke_i	i	n/a
557.562	0.06	1115124	keystroke_d	d	n/a
557.817	0.045	1115634	keystroke_=	=	n/a
557.967	0.06	1115934	keystroke_Key.backspace	Key.backspace	n/a
558.087	0.09	1116174	keystroke_Key.backspace	Key.backspace	n/a
558.356	0.016	1116712	keystroke_Key.backspace	Key.backspace	n/a
559.017	0.075	1118034	keystroke_i	i	n/a
559.1525	0.0745	1118305	keystroke_d	d	n/a
559.362	0.06	1118724	keystroke_t	t	n/a
559.4375	0.09	1118875	keystroke_h	h	n/a
559.677	0.06	1119354	keystroke_Key.enter	Key.enter	n/a
559.743	8.1855	1119486	prompt	n/a	favorites theology knowledge break\n
560.5615	0.06	1121123	keystroke_f	f	n/a
560.6975	0.0895	1121395	keystroke_a	a	n/a
560.7565	0.09	1121513	keystroke_v	v	n/a
560.9975	0.0595	1121995	keystroke_o	o	n/a
561.116	0.0605	1122232	keystroke_r	r	n/a
561.2075	0.075	1122415	keystroke_i	i	n/a
561.3115	0.076	1122623	keystroke_t	t	n/a
561.5065	0.076	1123013	keystroke_e	e	n/a
561.6865	0.09	1123373	keystroke_s	s	n/a
561.8065	0.0755	1123613	keystroke_Key.space	Key.space	n/a
562.107	0.0895	1124214	keystroke_t	t	n/a
562.2265	0.1055	1124453	keystroke_h	h	n/a
562.3465	0.0755	1124693	keystroke_e	e	n/a
562.512	0.075	1125024	keystroke_o	o	n/a
562.677	0.075	1125354	keystroke_l	l	n/a
562.8125	0.0595	1125625	keystroke_o	o	n/a
562.9165	0.09	1125833	keystroke_g	g	n/a
563.052	0.105	1126104	keystroke_y	y	n/a
563.202	0.105	1126404	keystroke_Key.space	Key.space	n/a
564.6725	0.119	1129345	keystroke_k	k	n/a
564.7165	0.21	1129433	keystroke_n	n	n/a
564.8965	0.1355	1129793	keystroke_o	o	n/a
565.1515	0.121	1130303	keystroke_w	w	n/a
565.4075	0.1045	1130815	keystroke_l	l	n/a
565.587	0.09	1131174	keystroke_e	e	n/a
565.767	0.105	1131534	keystroke_d	d	n/a
565.887	0.06	1131774	keystroke_g	g	n/a
565.9915	0.091	1131983	keystroke_e	e	n/a
566.142	0.09	1132284	keystroke_Key.space	Key.space	n/a
566.937	0.105	1133874	keystroke_b	b	n/a
567.1465	0.0605	1134293	keystroke_r	r	n/a
567.312	0.075	1134624	keystroke_e	e	n/a
567.537	0.06	1135074	keystroke_a	a	n/a
567.657	0.09	1135314	keystroke_k	k	n/a
567.852	0.075	1135704	keystroke_Key.enter	Key.enter	n/a
567.933	10.3005	1135866	prompt	n/a	trinidad jacob reported restrictions\n
569.0965	0.075	1138193	keystroke_t	t	n/a
569.2765	0.045	1138553	keystroke_r	r	n/a
569.3215	0.09	1138643	keystroke_i	i	n/a
569.4265	0.1805	1138853	keystroke_n	n	n/a
569.562	0.12	1139124	keystroke_i	i	n/a
569.9515	0.09	1139903	keystroke_d	d	n/a
570.2215	0.06	1140443	keystroke_a	a	n/a
570.4015	0.0755	1140803	keystroke_d	d	n/a
570.5215	0.105	1141043	keystroke_Key.space	Key.space	n/a
572.577	0.06	1145154	keystroke_j	j	n/a
572.682	0.06	1145364	keystroke_a	a	n/a
