onset	duration	sample	value	key	prompt_text
11.4555	12.8585	22911	prompt	n/a	the quick brown fox jumps over a lazy dog\n
13.826	0.06	27652	keystroke	q	n/a
14.0215	0.0745	28043	keystroke	u	n/a
14.186	0.075	28372	keystroke	i	n/a
14.351	0.0745	28702	keystroke	c	n/a
14.5465	0.09	29093	keystroke	k	n/a
15.2505	0.0755	30501	keystroke	Key.space	n/a
15.431	0.0895	30862	keystroke	b	n/a
15.5055	0.0905	31011	keystroke	r	n/a
15.6855	0.09	31371	keystroke	o	n/a
15.8205	0.061	31641	keystroke	w	n/a
16.0605	0.1655	32121	keystroke	n	n/a
16.1505	0.1205	32301	keystroke	Key.space	n/a
17.051	0.075	34102	keystroke	f	n/a
17.141	0.0905	34282	keystroke	i	n/a
17.3365	0.0895	34673	keystroke	x	n/a
17.4855	0.105	34971	keystroke	Key.space	n/a
17.6955	0.09	35391	keystroke	j	n/a
17.8755	0.09	35751	keystroke	u	n/a
18.0705	0.195	36141	keystroke	m	n/a
18.2505	0.075	36501	keystroke	p	n/a
18.3865	0.074	36773	keystroke	s	n/a
18.4755	0.06	36951	keystroke	Key.space	n/a
18.701	0.075	37402	keystroke	=	n/a
18.881	0.0605	37762	keystroke	=	n/a
19.0765	0.045	38153	keystroke	=	n/a
19.211	0.06	38422	keystroke	Key.backspace	n/a
19.346	0.09	38692	keystroke	Key.backspace	n/a
19.556	0.045	39112	keystroke	Key.backspace	n/a
20.186	0.0755	40372	keystroke	o	n/a
20.456	0.075	40912	keystroke	v	n/a
20.576	0.0755	41152	keystroke	e	n/a
20.771	0.075	41542	keystroke	r	n/a
20.8605	0.0755	41721	keystroke	Key.space	n/a
20.996	0.06	41992	keystroke	a	n/a
21.101	0.045	42202	keystroke	Key.space	n/a
21.236	0.1045	42472	keystroke	l	n/a
21.5065	0.105	43013	keystroke	a	n/a
21.791	0.0905	43582	keystroke	z	n/a
21.9565	0.09	43913	keystroke	y	n/a
22.091	0.105	44182	keystroke	Key.space	n/a
22.301	0.0895	44602	keystroke	d	n/a
22.4505	0.09	44901	keystroke	o	n/a
22.6005	0.0605	45201	keystroke	g	n/a
22.9005	0.076	45801	keystroke	'	n/a
24.056	0.0595	48112	keystroke	Key.backspace	n/a
24.236	0.075	48472	keystroke	Key.enter	n/a
24.32	9.758	48640	prompt	n/a	scenic troubleshooting saskatchewan again\n
25.1515	0.074	50303	keystroke	s	n/a
25.6005	0.0755	51201	keystroke	c	n/a
25.7965	0.06	51593	keystroke	e	n/a
25.9315	0.119	51863	keystroke	n	n/a
26.0205	0.12	52041	keystroke	i	n/a
26.1255	0.09	52251	keystroke	c	n/a
26.3055	0.1055	52611	keystroke	Key.space	n/a
26.9055	0.076	53811	keystroke	t	n/a
27.086	0.0905	54172	keystroke	r	n/a
27.161	0.0905	54322	keystroke	o	n/a
27.3705	0.076	54741	keystroke	u	n/a
27.461	0.0605	54922	keystroke	b	n/a
27.566	0.09	55132	keystroke	l	n/a
27.7165	0.074	55433	keystroke	e	n/a
27.9265	0.089	55853	keystroke	s	n/a
28.0005	0.09	56001	keystroke	h	n/a
28.211	0.0605	56422	keystroke	o	n/a
28.3465	0.089	56693	keystroke	o	n/a
28.4815	0.075	56963	keystroke	t	n/a
28.6305	0.1665	57261	keystroke	i	n/a
28.7065	0.1195	57413	keystroke	n	n/a
28.781	0.09	57562	keystroke	g	n/a
28.9155	0.12	57831	keystroke	Key.space	n/a
29.276	0.1045	58552	keystroke	s	n/a
29.846	0.0755	59692	keystroke	a	n/a
30.521	0.1055	61042	keystroke	s	n/a
31.1365	0.1045	62273	keystroke	k	n/a
31.421	0.015	62842	keystroke	a	n/a
31.526	0.105	63052	keystroke	t	n/a
31.736	0.0895	63472	keystroke	c	n/a
31.781	0.0895	63562	keystroke	h	n/a
31.991	0.09	63982	keystroke	e	n/a
32.216	0.09	64432	keystroke	w	n/a
32.4115	0.104	64823	keystroke	a	n/a
32.5755	0.165	65151	keystroke	n	n/a
32.711	0.1495	65422	keystroke	Key.space	n/a
33.236	0.0745	66472	keystroke	a	n/a
33.386	0.1055	66772	keystroke	g	n/a
33.521	0.0905	67042	keystroke	a	n/a
33.6405	0.135	67281	keystroke	i	n/a
33.717	0.134	67434	keystroke	n	n/a
33.986	0.0895	67972	keystroke	Key.enter	n/a
34.096	9.6265	68192	prompt	n/a	proceedings ranking noticed debt\n
35.0355	0.106	70071	keystroke	p	n/a
35.1855	0.15	70371	keystroke	r	n/a
35.2905	0.091	70581	keystroke	o	n/a
35.4705	0.0905	70941	keystroke	c	n/a
35.681	0.075	71362	keystroke	e	n/a
35.876	0.06	71752	keystroke	d	n/a
36.3705	0.075	72741	keystroke	Key.backspace	n/a
36.551	0.09	73102	keystroke	e	n/a
36.761	0.075	73522	keystroke	d	n/a
36.911	0.1195	73822	keystroke	d	n/a
37.0615	0.12	74123	keystroke	i	n/a
37.136	0.1355	74272	keystroke	n	n/a
37.2405	0.0755	74481	keystroke	g	n/a
37.6605	0.075	75321	keystroke	Key.backspace	n/a
37.826	0.0605	75652	keystroke	Key.backspace	n/a
37.9915	0.06	75983	keystroke	Key.backspace	n/a
38.3205	0.1055	76641	keystroke	Key.backspace	n/a
38.9665	0.12	77933	keystroke	i	n/a
39.0565	0.104	78113	keystroke	n	n/a
39.2655	0.09	78531	keystroke	g	n/a
39.4455	0.09	78891	keystroke	s	n/a
39.611	0.09	79222	keystroke	Key.space	n/a
40.136	0.076	80272	keystroke	r	n/a
40.3455	0.0905	80691	keystroke	a	n/a
40.4205	0.091	80841	keystroke	n	n/a
41.2165	0.074	82433	keystroke	k	n/a
41.3955	0.135	82791	keystroke	i	n/a
41.4865	0.134	82973	keystroke	n	n/a
41.5455	0.09	83091	keystroke	g	n/a
41.711	0.0905	83422	keystroke	Key.space	n/a
41.921	0.21	83842	keystroke	n	n/a
42.026	0.15	84052	keystroke	o	n/a
42.101	0.09	84202	keystroke	t	n/a
42.296	0.09	84592	keystroke	i	n/a
42.371	0.105	84742	keystroke	c	n/a
42.581	0.09	85162	keystroke	e	n/a
42.761	0.075	85522	keystroke	d	n/a
42.881	0.075	85762	keystroke	Key.space	n/a
42.9715	0.09	85943	keystroke	d	n/a
43.1365	0.0895	86273	keystroke	e	n/a
43.287	0.0895	86574	keystroke	b	n/a
43.451	0.0755	86902	keystroke	t	n/a
43.646	0.075	87292	keystroke	Key.enter	n/a
43.7275	19.196	87455	prompt	n/a	collecting organisation appointed highlights\n
44.861	0.075	89722	keystroke	c	n/a
45.266	0.076	90532	keystroke	o	n/a
45.461	0.0455	90922	keystroke	l	n/a
45.626	0.045	91252	keystroke	l	n/a
45.7455	0.045	91491	keystroke	l	n/a
45.8515	0.0745	91703	keystroke	e	n/a
46.0915	0.09	92183	keystroke	c	n/a
46.3615	0.06	92723	keystroke	t	n/a
46.5115	0.12	93023	keystroke	i	n/a
46.5865	0.105	93173	keystroke	n	n/a
46.6615	0.09	93323	keystroke	g	n/a
46.7965	0.105	93593	keystroke	Key.space	n/a
47.1865	0.03	94373	keystroke	Key.backspace	n/a
47.3515	0.0445	94703	keystroke	=	n/a
47.5015	0.06	95003	keystroke	=	n/a
47.7415	0.059	95483	keystroke	Key.backspace	n/a
47.8755	0.06	95751	keystroke	Key.backspace	n/a
48.0105	0.045	96021	keystroke	Key.backspace	n/a
48.206	0.045	96412	keystroke	Key.backspace	n/a
48.3405	0.061	96681	keystroke	Key.backspace	n/a
48.476	0.0595	96952	keystroke	Key.backspace	n/a
48.611	0.0445	97222	keystroke	Key.backspace	n/a
48.7455	0.075	97491	keystroke	Key.backspace	n/a
48.9255	0.046	97851	keystroke	Key.backspace	n/a
49.5855	0.1055	99171	keystroke	e	n/a
49.8265	0.0745	99653	keystroke	c	n/a
50.0215	0.06	100043	keystroke	t	n/a
50.126	0.1345	100252	keystroke	i	n/a
50.201	0.1195	100402	keystroke	n	n/a
50.3055	0.061	100611	keystroke	g	n/a
50.441	0.09	100882	keystroke	Key.space	n/a
50.636	0.0755	101272	keystroke	o	n/a
50.801	0.075	101602	keystroke	r	n/a
50.98	0.0915	101960	keystroke	g	n/a
51.1465	0.09	102293	keystroke	a	n/a
51.492	0.0295	102984	keystroke	n	n/a
51.5065	0.06	103013	keystroke	i	n/a
52.4665	0.089	104933	keystroke	s	n/a
52.631	0.0905	105262	keystroke	a	n/a
52.886	0.075	105772	keystroke	t	n/a
53.036	0.09	106072	keystroke	i	n/a
53.231	0.135	106462	keystroke	o	n/a
53.306	0.09	106612	keystroke	n	n/a
53.471	0.09	106942	keystroke	Key.space	n/a
53.621	0.06	107242	keystroke	a	n/a
53.7265	0.0595	107453	keystroke	p	n/a
53.8915	0.0745	107783	keystroke	p	n/a
54.0415	0.1195	108083	keystroke	o	n/a
54.266	0.135	108532	keystroke	i	n/a
54.341	0.15	108682	keystroke	n	n/a
54.446	0.076	108892	keystroke	t	n/a
54.656	0.0905	109312	keystroke	e	n/a
54.8365	0.0895	109673	keystroke	d	n/a
54.9405	0.0905	109881	keystroke	Key.space	n/a
56.0955	0.12	112191	keystroke	h	n/a
57.3705	0.031	114741	keystroke	u	n/a
57.4905	0.091	114981	keystroke	g	n/a
57.5965	0.075	115193	keystroke	h	n/a
57.8215	0.0295	115643	keystroke	k	n/a
58.316	0.0455	116632	keystroke	=	n/a
58.4515	0.075	116903	keystroke	=	n/a
58.6015	0.06	117203	keystroke	=	n/a
58.7065	0.045	117413	keystroke	=	n/a
58.8265	0.045	117653	keystroke	=	n/a
59.0055	0.076	118011	keystroke	Key.backspace	n/a
59.1415	0.18	118283	keystroke	Key.backspace	n/a
59.3515	0.06	118703	keystroke	Key.backspace	n/a
59.501	0.06	119002	keystroke	Key.backspace	n/a
59.621	0.0745	119242	keystroke	Key.backspace	n/a
59.7555	0.0905	119511	keystroke	Key.backspace	n/a
59.9515	0.089	119903	keystroke	Key.backspace	n/a
60.1155	0.1055	120231	keystroke	Key.backspace	n/a
60.5965	0.0745	121193	keystroke	Key.backspace	n/a
61.061	0.075	122122	keystroke	i	n/a
61.2415	0.0595	122483	keystroke	g	n/a
61.301	0.09	122602	keystroke	h	n/a
61.511	0.0905	123022	keystroke	l	n/a
61.706	0.06	123412	keystroke	i	n/a
61.841	0.09	123682	keystroke	g	n/a
61.916	0.105	123832	keystroke	h	n/a
62.0665	0.0895	124133	keystroke	t	n/a
62.321	0.09	124642	keystroke	s	n/a
62.8455	0.075	125691	keystroke	Key.enter	n/a
62.9275	11.141	125855	prompt	n/a	symbols perception messaging jackie\n
63.746	0.09	127492	keystroke	s	n/a
63.896	0.06	127792	keystroke	y	n/a
64.076	0.0895	128152	keystroke	m	n/a
64.2105	0.0905	128421	keystroke	b	n/a
64.346	0.045	128692	keystroke	o	n/a
64.511	0.0605	129022	keystroke	l	n/a
64.5865	0.075	129173	keystroke	s	n/a
64.766	0.09	129532	keystroke	Key.space	n/a
65.1415	0.059	130283	keystroke	p	n/a
65.2905	0.076	130581	keystroke	e	n/a
65.4565	0.0895	130913	keystroke	r	n/a
65.6365	0.1055	131273	keystroke	c	n/a
65.846	0.075	131692	keystroke	e	n/a
65.981	0.03	131962	keystroke	p	n/a
66.101	0.06	132202	keystroke	t	n/a
66.221	0.12	132442	keystroke	i	n/a
66.446	0.1205	132892	keystroke	o	n/a
66.552	0.1335	133104	keystroke	n	n/a
66.8065	0.0895	133613	keystroke	Key.space	n/a
67.062	0.1035	134124	keystroke	m	n/a
67.2265	0.09	134453	keystroke	e	n/a
67.4365	0.0445	134873	keystroke	s	n/a
67.5705	0.105	135141	keystroke	s	n/a
68.066	0.15	136132	keystroke	i	n/a
68.1565	0.1345	136313	keystroke	n	n/a
68.261	0.09	136522	keystroke	g	n/a
68.501	0.105	137002	keystroke	Key.space	n/a
69.011	0.06	138022	keystroke	Key.backspace	n/a
69.1455	0.075	138291	keystroke	Key.backspace	n/a
69.3105	0.0605	138621	keystroke	Key.backspace	n/a
69.4455	0.0755	138891	keystroke	Key.backspace	n/a
70.5255	0.1205	141051	keystroke	a	n/a
71.156	0.0605	142312	keystroke	g	n/a
71.2465	0.12	142493	keystroke	i	n/a
71.306	0.135	142612	keystroke	n	n/a
71.456	0.0605	142912	keystroke	g	n/a
71.5615	0.12	143123	keystroke	Key.space	n/a
72.4165	0.0745	144833	keystroke	j	n/a
72.506	0.09	145012	keystroke	a	n/a
72.7315	0.09	145463	keystroke	c	n/a
72.8365	0.0445	145673	keystroke	k	n/a
72.971	0.0745	145942	keystroke	i	n/a
73.076	0.0605	146152	keystroke	e	n/a
74.006	0.0595	148012	keystroke	Key.enter	n/a
74.0765	16.6265	148153	prompt	n/a	sprint tournament dolls thongs\n
74.8465	0.075	149693	keystroke	s	n/a
74.936	0.0905	149872	keystroke	p	n/a
75.116	0.06	150232	keystroke	r	n/a
75.2215	0.135	150443	keystroke	i	n/a
75.2965	0.1345	150593	keystroke	n	n/a
75.476	0.0455	150952	keystroke	t	n/a
75.551	0.105	151102	keystroke	Key.space	n/a
76.046	0.0605	152092	keystroke	t	n/a
76.1515	0.0895	152303	keystroke	o	n/a
76.6155	0.091	153231	keystroke	u	n/a
76.766	0.0605	153532	keystroke	r	n/a
76.8705	0.09	153741	keystroke	n	n/a
77.0505	0.075	154101	keystroke	a	n/a
77.141	0.075	154282	keystroke	m	n/a
77.3065	0.06	154613	keystroke	e	n/a
77.501	0.0755	155002	keystroke	t	n/a
77.591	0.0895	155182	keystroke	Key.space	n/a
77.771	0.075	155542	keystroke	d	n/a
77.876	0.075	155752	keystroke	o	n/a
78.0565	0.0595	156113	keystroke	l	n/a
78.2215	0.0595	156443	keystroke	l	n/a
78.4315	0.059	156863	keystroke	Key.backspace	n/a
78.5805	0.06	157161	keystroke	Key.backspace	n/a
78.716	0.0745	157432	keystroke	Key.backspace	n/a
78.8665	0.059	157733	keystroke	Key.backspace	n/a
79.0155	0.0755	158031	keystroke	Key.backspace	n/a
79.1805	0.075	158361	keystroke	Key.backspace	n/a
80.741	0.09	161482	keystroke	t	n/a
80.951	0.105	161902	keystroke	Key.space	n/a
81.2515	0.0745	162503	keystroke	d	n/a
85.799	0.012	171598	keystroke	o	n/a
85.9305	0.046	171861	keystroke	l	n/a
86.0655	0.0755	172131	keystroke	l	n/a
86.3205	0.1055	172641	keystroke	s	n/a
86.546	0.075	173092	keystroke	Key.space	n/a
86.9065	0.075	173813	keystroke	t	n/a
87.0115	0.075	174023	keystroke	h	n/a
87.2815	0.06	174563	keystroke	i	n/a
87.2965	0.165	174593	keystroke	n	n/a
87.7315	0.045	175463	keystroke	Key.backspace	n/a
87.8655	0.0905	175731	keystroke	Key.backspace	n/a
88.6455	0.15	177291	keystroke	o	n/a
88.7355	0.136	177471	keystroke	n	n/a
88.8565	0.09	177713	keystroke	g	n/a
89.1115	0.075	178223	keystroke	s	n/a
89.2315	0.1045	178463	keystroke	'	n/a
90.4465	0.0745	180893	keystroke	Key.backspace	n/a
90.641	0.06	181282	keystroke	Key.enter	n/a
90.71	25.5985	181420	prompt	n/a	something's employment swedish forge\n
91.556	0.09	183112	keystroke	s	n/a
91.661	0.136	183322	keystroke	o	n/a
91.7215	0.135	183443	keystroke	m	n/a
91.8415	0.0895	183683	keystroke	e	n/a
92.052	0.09	184104	keystroke	t	n/a
92.112	0.0595	184224	keystroke	h	n/a
92.277	0.104	184554	keystroke	i	n/a
92.352	0.119	184704	keystroke	n	n/a
92.456	0.0605	184912	keystroke	g	n/a
93.176	0.061	186352	keystroke	'	n/a
93.341	0.09	186682	keystroke	s	n/a
93.4465	0.104	186893	keystroke	Key.space	n/a
93.9115	0.075	187823	keystroke	e	n/a
94.0015	0.1355	188003	keystroke	o	n/a
94.0615	0.135	188123	keystroke	m	n/a
94.2715	0.105	188543	keystroke	p	n/a
94.3615	0.06	188723	keystroke	l	n/a
95.381	0.0755	190762	keystroke	o	n/a
95.6215	0.045	191243	keystroke	y	n/a
95.8015	0.09	191603	keystroke	m	n/a
95.9365	0.089	191873	keystroke	e	n/a
96.0405	0.0755	192081	keystroke	n	n/a
96.1765	0.089	192353	keystroke	t	n/a
96.2205	0.105	192441	keystroke	Key.space	n/a
96.5365	0.1355	193073	keystroke	s	n/a
96.776	0.091	193552	keystroke	w	n/a
96.971	0.06	193942	keystroke	e	n/a
98.8165	0.0745	197633	keystroke	d	n/a
98.936	0.0905	197872	keystroke	i	n/a
99.191	0.06	198382	keystroke	s	n/a
99.3555	0.135	198711	keystroke	h	n/a
99.4605	0.1205	198921	keystroke	Key.space	n/a
103.481	0.075	206962	keystroke	Key.backspace	n/a
103.7655	0.075	207531	keystroke	Key.backspace	n/a
103.931	0.0755	207862	keystroke	Key.backspace	n/a
104.0805	0.091	208161	keystroke	Key.backspace	n/a
104.2605	0.075	208521	keystroke	Key.backspace	n/a
104.3965	0.09	208793	keystroke	Key.backspace	n/a
104.5465	0.089	209093	keystroke	Key.backspace	n/a
104.6965	0.09	209393	keystroke	Key.backspace	n/a
104.862	0.074	209724	keystroke	Key.backspace	n/a
105.596	0.075	211192	keystroke	m	n/a
105.791	0.1055	211582	keystroke	p	n/a
105.8815	0.164	211763	keystroke	l	n/a
106.061	0.1055	212122	keystroke	o	n/a
106.3465	0.0595	212693	keystroke	y	n/a
106.5415	0.0745	213083	keystroke	m	n/a
106.721	0.0895	213442	keystroke	e	n/a
106.8705	0.105	213741	keystroke	n	n/a
106.991	0.0605	213982	keystroke	t	n/a
107.111	0.1055	214222	keystroke	Key.space	n/a
107.801	0.105	215602	keystroke	s	n/a
107.996	0.0755	215992	keystroke	w	n/a
108.1765	0.09	216353	keystroke	e	n/a
108.356	0.0755	216712	keystroke	i	n/a
108.476	0.0605	216952	keystroke	d	n/a
109.316	0.105	218632	keystroke	Key.backspace	n/a
109.5265	0.1195	219053	keystroke	=	n/a
109.766	0.0905	219532	keystroke	d	n/a
109.9315	0.075	219863	keystroke	u	n/a
110.2915	0.0445	220583	keystroke	=	n/a
110.4265	0.0745	220853	keystroke	Key.backspace	n/a
110.5615	0.074	221123	keystroke	Key.backspace	n/a
110.7865	0.015	221573	keystroke	Key.backspace	n/a
111.0115	0.06	222023	keystroke	Key.backspace	n/a
111.1765	0.06	222353	keystroke	Key.backspace	n/a
112.0165	0.075	224033	keystroke	d	n/a
112.1365	0.075	224273	keystroke	i	n/a
112.2565	0.06	224513	keystroke	s	n/a
112.3765	0.1045	224753	keystroke	h	n/a
112.586	0.0755	225172	keystroke	Key.space	n/a
113.8005	0.045	227601	keystroke	Key.backspace	n/a
113.907	0.0745	227814	keystroke	Key.backspace	n/a
114.821	0.0905	229642	keystroke	h	n/a
114.926	0.105	229852	keystroke	Key.space	n/a
115.182	0.0895	230364	keystroke	f	n/a
115.317	0.03	230634	keystroke	o	n/a
115.8265	0.06	231653	keystroke	r	n/a
115.9005	0.091	231801	keystroke	g	n/a
116.0665	0.06	232133	keystroke	e	n/a
116.2305	0.076	232461	keystroke	Key.enter	n/a
116.3165	14.3615	232633	prompt	n/a	dynamics todd java pierce\n
117.131	0.0745	234262	keystroke	d	n/a
117.2665	0.089	234533	keystroke	y	n/a
117.3565	0.075	234713	keystroke	b	n/a
117.4005	0.076	234801	keystroke	a	n/a
117.5805	0.1355	235161	keystroke	m	n/a
117.7005	0.0905	235401	keystroke	i	n/a
117.8065	0.0595	235613	keystroke	c	n/a
118.0005	0.0755	236001	keystroke	s	n/a
118.091	0.09	236182	keystroke	Key.space	n/a
118.301	0.0605	236602	keystroke	t	n/a
118.3765	0.09	236753	keystroke	o	n/a
118.6315	0.045	237263	keystroke	d	n/a
118.7815	0.089	237563	keystroke	d	n/a
118.8855	0.105	237771	keystroke	Key.space	n/a
119.3815	0.03	238763	keystroke	=	n/a
119.5015	0.045	239003	keystroke	Key.backspace	n/a
119.6355	0.045	239271	keystroke	Key.backspace	n/a
119.8005	0.046	239601	keystroke	Key.backspace	n/a
119.9365	0.045	239873	keystroke	Key.backspace	n/a
120.0865	0.03	240173	keystroke	Key.backspace	n/a
120.2355	0.031	240471	keystroke	Key.backspace	n/a
120.4005	0.045	240801	keystroke	Key.backspace	n/a
120.5965	0.045	241193	keystroke	Key.backspace	n/a
120.792	0.0295	241584	keystroke	Key.backspace	n/a
121.0005	0.0305	242001	keystroke	Key.backspace	n/a
121.1955	0.045	242391	keystroke	Key.backspace	n/a
121.3915	0.045	242783	keystroke	Key.backspace	n/a
121.6165	0.044	243233	keystroke	Key.backspace	n/a
122.2765	0.075	244553	keystroke	n	n/a
122.411	0.09	244822	keystroke	a	n/a
122.516	0.1355	245032	keystroke	m	n/a
122.6065	0.105	245213	keystroke	i	n/a
122.7565	0.075	245513	keystroke	c	n/a
122.9365	0.0745	245873	keystroke	s	n/a
123.041	0.09	246082	keystroke	Key.space	n/a
123.8065	0.09	247613	keystroke	t	n/a
123.9115	0.0455	247823	keystroke	i	n/a
123.9265	0.015	247853	keystroke	o	n/a
124.0465	0.06	248093	keystroke	d	n/a
124.2115	0.09	248423	keystroke	d	n/a
124.3165	0.12	248633	keystroke	Key.space	n/a
124.5115	0.0445	249023	keystroke	j	n/a
125.381	0.045	250762	keystroke	Key.backspace	n/a
125.531	0.045	251062	keystroke	Key.backspace	n/a
125.6515	0.044	251303	keystroke	Key.backspace	n/a
125.7865	0.06	251573	keystroke	Key.backspace	n/a
125.9365	0.0445	251873	keystroke	Key.backspace	n/a
126.0715	0.074	252143	keystroke	Key.backspace	n/a
126.7915	0.06	253583	keystroke	o	n/a
126.956	0.0755	253912	keystroke	d	n/a
127.107	0.1045	254214	keystroke	d	n/a
127.241	0.0755	254482	keystroke	Key.space	n/a
127.4065	0.06	254813	keystroke	j	n/a
127.4965	0.0745	254993	keystroke	a	n/a
127.6615	0.06	255323	keystroke	v	n/a
127.7515	0.045	255503	keystroke	a	n/a
127.886	0.0905	255772	keystroke	Key.space	n/a
129.5965	0.09	259193	keystroke	p	n/a
129.7465	0.06	259493	keystroke	i	n/a
129.8515	0.09	259703	keystroke	e	n/a
130.0615	0.09	260123	keystroke	r	n/a
130.2565	0.0895	260513	keystroke	c	n/a
130.436	0.0905	260872	keystroke	e	n/a
130.601	0.075	261202	keystroke	Key.enter	n/a
130.6825	8.066	261365	prompt	n/a	translated hampshire libs lodge\n
131.7555	0.075	263511	keystroke	t	n/a
131.9355	0.076	263871	keystroke	r	n/a
132.1915	0.075	264383	keystroke	a	n/a
132.7165	0.0595	265433	keystroke	n	n/a
132.8515	0.0745	265703	keystroke	s	n/a
133.016	0.0605	266032	keystroke	l	n/a
133.1215	0.075	266243	keystroke	a	n/a
133.3155	0.061	266631	keystroke	t	n/a
133.4215	0.074	266843	keystroke	e	n/a
133.5855	0.091	267171	keystroke	d	n/a
133.6905	0.106	267381	keystroke	Key.space	n/a
134.157	0.0895	268314	keystroke	h	n/a
134.2905	0.1055	268581	keystroke	a	n/a
134.4115	0.0895	268823	keystroke	m	n/a
134.666	0.09	269332	keystroke	p	n/a
135.0115	0.074	270023	keystroke	s	n/a
135.1465	0.0595	270293	keystroke	h	n/a
135.3105	0.061	270621	keystroke	i	n/a
135.387	0.0895	270774	keystroke	r	n/a
135.5665	0.0895	271133	keystroke	e	n/a
135.6855	0.0905	271371	keystroke	Key.space	n/a
136.286	0.0905	272572	keystroke	l	n/a
136.511	0.06	273022	keystroke	i	n/a
136.766	0.061	273532	keystroke	b	n/a
136.9165	0.0745	273833	keystroke	s	n/a
137.096	0.0745	274192	keystroke	Key.space	n/a
137.321	0.046	274642	keystroke	l	n/a
137.486	0.06	274972	keystroke	o	n/a
137.696	0.09	275392	keystroke	d	n/a
137.801	0.0905	275602	keystroke	g	n/a
138.011	0.0605	276022	keystroke	e	n/a
138.6865	0.06	277373	keystroke	Key.enter	n/a
138.7535	9.4295	277507	prompt	n/a	door brussels attending shopzilla\n
139.617	0.0595	279234	keystroke	d	n/a
139.7215	0.045	279443	keystroke	o	n/a
139.8565	0.0895	279713	keystroke	o	n/a
140.0065	0.075	280013	keystroke	r	n/a
140.1415	0.075	280283	keystroke	Key.space	n/a
140.5615	0.0895	281123	keystroke	b	n/a
140.6665	0.075	281333	keystroke	r	n/a
140.802	0.059	281604	keystroke	u	n/a
140.921	0.06	281842	keystroke	s	n/a
141.0865	0.1045	282173	keystroke	s	n/a
141.281	0.0605	282562	keystroke	e	n/a
141.4465	0.075	282893	keystroke	s	n/a
141.7765	0.06	283553	keystroke	=	n/a
142.151	0.06	284302	keystroke	Key.backspace	n/a
142.3165	0.06	284633	keystroke	Key.backspace	n/a
142.9165	0.059	285833	keystroke	l	n/a
143.0065	0.074	286013	keystroke	s	n/a
143.0955	0.0905	286191	keystroke	Key.space	n/a
143.2165	0.0895	286433	keystroke	a	n/a
143.3215	0.0445	286643	keystroke	t	n/a
143.456	0.075	286912	keystroke	t	n/a
143.6665	0.0755	287333	keystroke	e	n/a
143.727	0.074	287454	keystroke	n	n/a
143.847	0.074	287694	keystroke	d	n/a
143.9815	0.0605	287963	keystroke	u	n/a
144.0865	0.03	288173	keystroke	n	n/a
144.1015	0.06	288203	keystroke	g	n/a
144.2665	0.045	288533	keystroke	Key.space	n/a
144.4765	0.06	288953	keystroke	Key.backspace	n/a
144.6415	0.059	289283	keystroke	Key.backspace	n/a
144.776	0.0605	289552	keystroke	Key.backspace	n/a
144.8965	0.1045	289793	keystroke	Key.backspace	n/a
145.602	0.134	291204	keystroke	i	n/a
145.6615	0.1045	291323	keystroke	n	n/a
145.751	0.0755	291502	keystroke	g	n/a
145.871	0.09	291742	keystroke	Key.space	n/a
146.4865	0.075	292973	keystroke	s	n/a
146.621	0.1055	293242	keystroke	h	n/a
146.8915	0.075	293783	keystroke	o	n/a
147.0715	0.091	294143	keystroke	p	n/a
147.4765	0.075	294953	keystroke	z	n/a
147.5815	0.06	295163	keystroke	i	n/a
147.7315	0.075	295463	keystroke	l	n/a
147.8665	0.075	295733	keystroke	l	n/a
147.987	0.105	295974	keystroke	a	n/a
148.106	0.0745	296212	keystroke	Key.enter	n/a
148.189	7.8835	296378	prompt	n/a	brochure funny appraisal apache\n
149.2315	0.075	298463	keystroke	b	n/a
149.426	0.0755	298852	keystroke	r	n/a
149.5315	0.09	299063	keystroke	o	n/a
149.7265	0.075	299453	keystroke	c	n/a
149.8615	0.06	299723	keystroke	h	n/a
150.0115	0.06	300023	keystroke	u	n/a
150.2815	0.075	300563	keystroke	r	n/a
150.4765	0.0745	300953	keystroke	e	n/a
150.5815	0.0745	301163	keystroke	Key.space	n/a
151.286	0.105	302572	keystroke	f	n/a
151.421	0.06	302842	keystroke	u	n/a
151.6165	0.0445	303233	keystroke	n	n/a
151.751	0.09	303502	keystroke	n	n/a
151.856	0.0755	303712	keystroke	y	n/a
151.961	0.075	303922	keystroke	Key.space	n/a
152.157	0.074	304314	keystroke	a	n/a
152.2465	0.0605	304493	keystroke	p	n/a
152.8755	0.045	305751	keystroke	p	n/a
153.0705	0.0915	306141	keystroke	r	n/a
154.196	0.09	308392	keystroke	a	n/a
154.316	0.076	308632	keystroke	i	n/a
154.466	0.075	308932	keystroke	s	n/a
154.646	0.0755	309292	keystroke	a	n/a
154.737	0.0595	309474	keystroke	l	n/a
154.886	0.0755	309772	keystroke	Key.space	n/a
155.051	0.075	310102	keystroke	a	n/a
155.141	0.0605	310282	keystroke	p	n/a
155.3515	0.0745	310703	keystroke	a	n/a
155.5615	0.09	311123	keystroke	c	n/a
155.6365	0.09	311273	keystroke	h	n/a
155.8165	0.045	311633	keystroke	e	n/a
155.9815	0.09	311963	keystroke	Key.enter	n/a
156.093	5.6795	312186	prompt	n/a	subscriber tide about invite\n
156.9115	0.075	313823	keystroke	s	n/a
157.1515	0.075	314303	keystroke	u	n/a
157.4215	0.075	314843	keystroke	b	n/a
157.841	0.0905	315682	keystroke	s	n/a
158.0665	0.09	316133	keystroke	c	n/a
158.2615	0.074	316523	keystroke	r	n/a
158.3505	0.076	316701	keystroke	i	n/a
158.5765	0.09	317153	keystroke	b	n/a
158.6805	0.09	317361	keystroke	e	n/a
158.8605	0.105	317721	keystroke	r	n/a
158.9815	0.089	317963	keystroke	Key.space	n/a
159.4005	0.046	318801	keystroke	t	n/a
159.4465	0.0445	318893	keystroke	i	n/a
159.5815	0.075	319163	keystroke	d	n/a
159.747	0.059	319494	keystroke	e	n/a
159.821	0.105	319642	keystroke	Key.space	n/a
160.001	0.0605	320002	keystroke	a	n/a
160.091	0.075	320182	keystroke	b	n/a
160.2715	0.0745	320543	keystroke	o	n/a
160.4515	0.075	320903	keystroke	u	n/a
160.4965	0.074	320993	keystroke	t	n/a
160.6005	0.09	321201	keystroke	Key.space	n/a
160.797	0.1345	321594	keystroke	i	n/a
160.8715	0.105	321743	keystroke	n	n/a
161.0215	0.075	322043	keystroke	v	n/a
161.1115	0.0905	322223	keystroke	i	n/a
161.3665	0.045	322733	keystroke	t	n/a
161.4865	0.0605	322973	keystroke	e	n/a
161.6965	0.0745	323393	keystroke	Key.enter	n/a
161.7765	10.1665	323553	prompt	n/a	conclude bowling baby accompanying\n
162.627	0.044	325254	keystroke	c	n/a
162.731	0.15	325462	keystroke	o	n/a
162.821	0.12	325642	keystroke	n	n/a
162.926	0.09	325852	keystroke	c	n/a
163.0465	0.045	326093	keystroke	l	n/a
163.287	0.0745	326574	keystroke	u	n/a
163.3765	0.075	326753	keystroke	d	n/a
163.541	0.0755	327082	keystroke	e	n/a
163.6465	0.09	327293	keystroke	Key.space	n/a
164.2765	0.06	328553	keystroke	c	n/a
164.6365	0.0745	329273	keystroke	Key.backspace	n/a
164.8765	0.075	329753	keystroke	b	n/a
165.0565	0.075	330113	keystroke	o	n/a
165.1765	0.075	330353	keystroke	w	n/a
165.2815	0.09	330563	keystroke	l	n/a
165.477	0.1195	330954	keystroke	i	n/a
165.5515	0.135	331103	keystroke	n	n/a
165.6565	0.105	331313	keystroke	g	n/a
165.836	0.09	331672	keystroke	Key.space	n/a
167.892	0.074	335784	keystroke	b	n/a
168.026	0.06	336052	keystroke	a	n/a
168.087	0.09	336174	keystroke	b	n/a
168.2665	0.0755	336533	keystroke	y	n/a
168.3865	0.1205	336773	keystroke	Key.space	n/a
168.911	0.075	337822	keystroke	a	n/a
169.197	0.074	338394	keystroke	c	n/a
169.346	0.1205	338692	keystroke	c	n/a
169.511	0.1505	339022	keystroke	o	n/a
169.6465	0.12	339293	keystroke	m	n/a
169.842	0.1345	339684	keystroke	p	n/a
170.0065	0.09	340013	keystroke	a	n/a
170.1265	0.105	340253	keystroke	n	n/a
171.2815	0.0745	342563	keystroke	y	n/a
171.4615	0.12	342923	keystroke	i	n/a
171.4765	0.165	342953	keystroke	n	n/a
171.6255	0.076	343251	keystroke	g	n/a
171.836	0.105	343672	keystroke	Key.enter	n/a
171.948	6.43	343896	prompt	n/a	feels caught internet under\n
172.7665	0.075	345533	keystroke	f	n/a
172.9465	0.06	345893	keystroke	e	n/a
173.0965	0.074	346193	keystroke	e	n/a
173.2315	0.0905	346463	keystroke	l	n/a
173.396	0.075	346792	keystroke	s	n/a
173.546	0.105	347092	keystroke	Key.space	n/a
173.711	0.075	347422	keystroke	c	n/a
173.9365	0.0445	347873	keystroke	a	n/a
174.0415	0.075	348083	keystroke	u	n/a
174.2515	0.075	348503	keystroke	g	n/a
174.4015	0.105	348803	keystroke	h	n/a
174.4915	0.09	348983	keystroke	t	n/a
174.6115	0.1045	349223	keystroke	Key.space	n/a
175.061	0.121	350122	keystroke	i	n/a
175.121	0.135	350242	keystroke	n	n/a
175.271	0.09	350542	keystroke	t	n/a
175.4665	0.06	350933	keystroke	e	n/a
175.6465	0.045	351293	keystroke	r	n/a
175.7065	0.075	351413	keystroke	n	n/a
175.7965	0.075	351593	keystroke	e	n/a
176.0055	0.06	352011	keystroke	t	n/a
176.1115	0.089	352223	keystroke	Key.space	n/a
177.507	0.1495	355014	keystroke	u	n/a
177.6105	0.1065	355221	keystroke	n	n/a
177.8355	0.105	355671	keystroke	d	n/a
178.0165	0.09	356033	keystroke	e	n/a
178.211	0.0605	356422	keystroke	r	n/a
178.286	0.09	356572	keystroke	Key.enter	n/a
178.3825	11.9955	356765	prompt	n/a	referral aluminium shakespeare eggs\n
179.261	0.075	358522	keystroke	r	n/a
179.412	0.09	358824	keystroke	e	n/a
179.6515	0.0895	359303	keystroke	f	n/a
179.877	0.074	359754	keystroke	e	n/a
180.0715	0.0755	360143	keystroke	r	n/a
180.252	0.074	360504	keystroke	r	n/a
180.5665	0.0745	361133	keystroke	a	n/a
180.731	0.06	361462	keystroke	l	n/a
180.896	0.0605	361792	keystroke	Key.space	n/a
180.986	0.061	361972	keystroke	a	n/a
181.106	0.09	362212	keystroke	l	n/a
181.346	0.031	362692	keystroke	u	n/a
185.1585	0.013	370317	keystroke	m	n/a
185.621	0.06	371242	keystroke	i	n/a
185.801	0.075	371602	keystroke	n	n/a
185.9365	0.0905	371873	keystroke	i	n/a
186.191	0.0155	372382	keystroke	u	n/a
186.3565	0.075	372713	keystroke	m	n/a
186.4455	0.0905	372891	keystroke	Key.space	n/a
187.0615	0.09	374123	keystroke	s	n/a
187.182	0.074	374364	keystroke	h	n/a
187.346	0.075	374692	keystroke	a	n/a
187.8115	0.075	375623	keystroke	k	n/a
187.931	0.076	375862	keystroke	e	n/a
188.1115	0.09	376223	keystroke	s	n/a
188.216	0.06	376432	keystroke	p	n/a
188.337	0.089	376674	keystroke	e	n/a
188.531	0.0755	377062	keystroke	a	n/a
188.7565	0.075	377513	keystroke	r	n/a
188.937	0.0595	377874	keystroke	e	n/a
189.431	0.0755	378862	keystroke	Key.space	n/a
189.6115	0.0755	379223	keystroke	e	n/a
189.8225	0.044	379645	keystroke	g	n/a
189.956	0.1055	379912	keystroke	g	n/a
190.136	0.09	380272	keystroke	s	n/a
190.3015	0.0745	380603	keystroke	Key.enter	n/a
190.3865	14.3015	380773	prompt	n/a	reggae motherboard ourselves vegas\n
191.2765	0.075	382553	keystroke	r	n/a
191.427	0.0895	382854	keystroke	e	n/a
191.5615	0.0445	383123	keystroke	g	n/a
191.696	0.091	383392	keystroke	g	n/a
191.832	0.089	383664	keystroke	a	n/a
192.0865	0.059	384173	keystroke	e	n/a
192.251	0.075	384502	keystroke	Key.space	n/a
192.5065	0.075	385013	keystroke	n	n/a
192.866	0.105	385732	keystroke	Key.backspace	n/a
193.152	0.134	386304	keystroke	m	n/a
193.271	0.091	386542	keystroke	o	n/a
193.4365	0.1045	386873	keystroke	t	n/a
193.586	0.0605	387172	keystroke	h	n/a
193.6465	0.09	387293	keystroke	e	n/a
193.8115	0.105	387623	keystroke	r	n/a
193.9465	0.09	387893	keystroke	Key.space	n/a
194.5015	0.06	389003	keystroke	Key.backspace	n/a
194.517	0.059	389034	keystroke	=	n/a
194.787	0.074	389574	keystroke	b	n/a
194.9815	0.0895	389963	keystroke	o	n/a
195.206	0.091	390412	keystroke	a	n/a
195.507	0.044	391014	keystroke	Key.backspace	n/a
195.656	0.0155	391312	keystroke	Key.backspace	n/a
195.8215	0.0595	391643	keystroke	Key.backspace	n/a
196.0315	0.0445	392063	keystroke	Key.backspace	n/a
196.301	0.045	392602	keystroke	Key.backspace	n/a
196.6005	0.06	393201	keystroke	Key.backspace	n/a
196.8855	0.0605	393771	keystroke	Key.backspace	n/a
197.1715	0.0745	394343	keystroke	Key.backspace	n/a
197.9065	0.0755	395813	keystroke	t	n/a
197.996	0.076	395992	keystroke	h	n/a
198.1165	0.0755	396233	keystroke	e	n/a
198.2815	0.075	396563	keystroke	r	n/a
198.4015	0.09	396803	keystroke	b	n/a
198.6115	0.0745	397223	keystroke	o	n/a
198.7165	0.0595	397433	keystroke	a	n/a
198.927	0.0595	397854	keystroke	r	n/a
199.091	0.0905	398182	keystroke	d	n/a
199.196	0.0905	398392	keystroke	Key.space	n/a
199.8715	0.0745	399743	keystroke	o	n/a
200.0515	0.06	400103	keystroke	u	n/a
200.171	0.075	400342	keystroke	r	n/a
200.351	0.0905	400702	keystroke	s	n/a
200.501	0.09	401002	keystroke	e	n/a
200.666	0.0905	401332	keystroke	l	n/a
200.936	0.061	401872	keystroke	v	n/a
200.981	0.061	401962	keystroke	e	n/a
201.446	0.0305	402892	keystroke	Key.backspace	n/a
201.5805	0.046	403161	keystroke	Key.backspace	n/a
201.7315	0.06	403463	keystroke	Key.backspace	n/a
202.9765	0.06	405953	keystroke	l	n/a
203.2765	0.06	406553	keystroke	v	n/a
203.3965	0.09	406793	keystroke	e	n/a
203.5765	0.09	407153	keystroke	s	n/a
203.6515	0.09	407303	keystroke	Key.space	n/a
203.8165	0.09	407633	keystroke	v	n/a
203.9515	0.06	407903	keystroke	e	n/a
204.1015	0.06	408203	keystroke	g	n/a
204.1915	0.105	408383	keystroke	a	n/a
204.3715	0.12	408743	keystroke	s	n/a
204.6115	0.075	409223	keystroke	Key.enter	n/a
204.6925	11.305	409385	prompt	n/a	rugs explanation designer polyester\n
205.481	0.045	410962	keystroke	r	n/a
205.6315	0.0745	411263	keystroke	u	n/a
205.8265	0.0745	411653	keystroke	g	n/a
205.932	0.074	411864	keystroke	s	n/a
206.066	0.105	412132	keystroke	Key.space	n/a
206.366	0.09	412732	keystroke	e	n/a
206.621	0.0755	413242	keystroke	x	n/a
206.952	0.075	413904	keystroke	o	n/a
207.027	0.0595	414054	keystroke	k	n/a
207.0415	0.06	414083	keystroke	l	n/a
207.3565	0.045	414713	keystroke	Key.backspace	n/a
207.476	0.06	414952	keystroke	Key.backspace	n/a
207.626	0.03	415252	keystroke	Key.backspace	n/a
208.3315	0.104	416663	keystroke	p	n/a
208.4065	0.075	416813	keystroke	l	n/a
208.6015	0.0605	417203	keystroke	a	n/a
208.7215	0.075	417443	keystroke	n	n/a
208.8265	0.105	417653	keystroke	a	n/a
209.1115	0.06	418223	keystroke	t	n/a
209.2315	0.075	418463	keystroke	i	n/a
209.5915	0.06	419183	keystroke	n	n/a
210.0565	0.06	420113	keystroke	Key.backspace	n/a
211.0015	0.15	422003	keystroke	o	n/a
211.0915	0.15	422183	keystroke	n	n/a
211.2565	0.074	422513	keystroke	s	n/a
211.4055	0.09	422811	keystroke	Key.space	n/a
211.6005	0.091	423201	keystroke	d	n/a
211.7665	0.09	423533	keystroke	e	n/a
211.961	0.0905	423922	keystroke	s	n/a
212.0665	0.0895	424133	keystroke	i	n/a
212.216	0.0905	424432	keystroke	g	n/a
212.366	0.045	424732	keystroke	n	n/a
212.471	0.075	424942	keystroke	e	n/a
212.6515	0.0595	425303	keystroke	r	n/a
212.756	0.0755	425512	keystroke	Key.space	n/a
213.1915	0.075	426383	keystroke	p	n/a
213.3865	0.06	426773	keystroke	l	n/a
214.0915	0.075	428183	keystroke	Key.backspace	n/a
214.3765	0.09	428753	keystroke	o	n/a
214.5265	0.09	429053	keystroke	l	n/a
214.7815	0.075	429563	keystroke	y	n/a
215.2165	0.06	430433	keystroke	e	n/a
215.3665	0.075	430733	keystroke	s	n/a
215.4265	0.09	430853	keystroke	t	n/a
215.5615	0.09	431123	keystroke	e	n/a
215.7565	0.075	431513	keystroke	r	n/a
215.9215	0.0745	431843	keystroke	Key.enter	n/a
216.0015	12.461	432003	prompt	n/a	proven fever passenger circuit\n
216.866	0.0755	433732	keystroke	o	n/a
217.4965	0.0595	434993	keystroke	Key.backspace	n/a
217.631	0.075	435262	keystroke	Key.backspace	n/a
218.4715	0.074	436943	keystroke	p	n/a
218.5905	0.076	437181	keystroke	r	n/a
218.6955	0.09	437391	keystroke	o	n/a
219.3565	0.06	438713	keystroke	v	n/a
219.4765	0.06	438953	keystroke	e	n/a
219.5665	0.1355	439133	keystroke	n	n/a
219.686	0.105	439372	keystroke	Key.space	n/a
219.881	0.075	439762	keystroke	f	n/a
219.971	0.0755	439942	keystroke	a	n/a
220.1505	0.0905	440301	keystroke	s	n/a
220.2265	0.074	440453	keystroke	t	n/a
220.3315	0.0905	440663	keystroke	e	n/a
220.4965	0.09	440993	keystroke	r	n/a
220.6165	0.075	441233	keystroke	Key.space	n/a
221.351	0.06	442702	keystroke	Key.backspace	n/a
221.4865	0.0745	442973	keystroke	Key.backspace	n/a
221.6365	0.0595	443273	keystroke	Key.backspace	n/a
221.786	0.06	443572	keystroke	Key.backspace	n/a
221.936	0.06	443872	keystroke	Key.backspace	n/a
222.071	0.0605	444142	keystroke	Key.backspace	n/a
222.191	0.0905	444382	keystroke	Key.backspace	n/a
222.416	0.03	444832	keystroke	Key.backspace	n/a
222.851	0.075	445702	keystroke	Key.space	n/a
223.0465	0.075	446093	keystroke	f	n/a
223.1515	0.0755	446303	keystroke	e	n/a
223.2415	0.0745	446483	keystroke	v	n/a
223.346	0.105	446692	keystroke	e	n/a
223.5265	0.09	447053	keystroke	r	n/a
223.6315	0.06	447263	keystroke	Key.space	n/a
224.201	0.0605	448402	keystroke	p	n/a
224.306	0.09	448612	keystroke	a	n/a
224.516	0.0445	449032	keystroke	s	n/a
224.6365	0.1045	449273	keystroke	s	n/a
224.816	0.091	449632	keystroke	e	n/a
224.9365	0.0895	449873	keystroke	n	n/a
225.566	0.0755	451132	keystroke	g	n/a
225.7305	0.09	451461	keystroke	e	n/a
225.8965	0.089	451793	keystroke	r	n/a
226.0465	0.074	452093	keystroke	Key.space	n/a
227.3965	0.105	454793	keystroke	c	n/a
227.5315	0.06	455063	keystroke	i	n/a
227.6215	0.075	455243	keystroke	r	n/a
227.8015	0.105	455603	keystroke	c	n/a
227.9365	0.045	455873	keystroke	u	n/a
228.086	0.0605	456172	keystroke	i	n/a
228.221	0.061	456442	keystroke	t	n/a
228.3865	0.075	456773	keystroke	Key.enter	n/a
228.4705	8.2575	456941	prompt	n/a	telling achievements something's revenge\n
229.4065	0.0895	458813	keystroke	t	n/a
229.617	0.059	459234	keystroke	e	n/a
229.706	0.076	459412	keystroke	l	n/a
229.8565	0.1355	459713	keystroke	l	n/a
230.096	0.135	460192	keystroke	i	n/a
230.171	0.135	460342	keystroke	n	n/a
230.2165	0.0745	460433	keystroke	g	n/a
230.396	0.1055	460792	keystroke	Key.space	n/a
230.5765	0.12	461153	keystroke	a	n/a
230.9515	0.06	461903	keystroke	c	n/a
231.0715	0.075	462143	keystroke	h	n/a
231.2515	0.0595	462503	keystroke	i	n/a
231.371	0.075	462742	keystroke	e	n/a
231.747	0.074	463494	keystroke	v	n/a
231.926	0.045	463852	keystroke	e	n/a
232.046	0.0605	464092	keystroke	m	n/a
232.107	0.0895	464214	keystroke	e	n/a
232.226	0.0755	464452	keystroke	n	n/a
232.317	0.06	464634	keystroke	t	n/a
232.5115	0.075	465023	keystroke	s	n/a
232.6165	0.09	465233	keystroke	Key.space	n/a
232.7665	0.075	465533	keystroke	s	n/a
232.917	0.1195	465834	keystroke	o	n/a
232.9765	0.135	465953	keystroke	m	n/a
233.096	0.09	466192	keystroke	e	n/a
233.336	0.0605	466672	keystroke	t	n/a
233.6815	0.1055	467363	keystroke	h	n/a
234.3715	0.1195	468743	keystroke	i	n/a
234.4315	0.1195	468863	keystroke	n	n/a
234.6115	0.0895	469223	keystroke	g	n/a
235.0015	0.0595	470003	keystroke	'	n/a
235.1215	0.1055	470243	keystroke	s	n/a
235.271	0.075	470542	keystroke	Key.space	n/a
235.541	0.0905	471082	keystroke	r	n/a
235.706	0.09	471412	keystroke	e	n/a
235.811	0.0755	471622	keystroke	v	n/a
235.9165	0.0895	471833	keystroke	e	n/a
236.0515	0.0745	472103	keystroke	n	n/a
236.276	0.09	472552	keystroke	g	n/a
236.471	0.075	472942	keystroke	e	n/a
236.6655	0.06	473331	keystroke	Key.enter	n/a
236.7395	15.5435	473479	prompt	n/a	success feature strip physics\n
237.597	0.0745	475194	keystroke	s	n/a
237.7315	0.0755	475463	keystroke	u	n/a
238.0015	0.09	476003	keystroke	c	n/a
238.121	0.105	476242	keystroke	e	n/a
238.3165	0.075	476633	keystroke	s	n/a
238.466	0.105	476932	keystroke	s	n/a
238.586	0.1055	477172	keystroke	Key.space	n/a
238.946	0.105	477892	keystroke	f	n/a
239.7265	0.06	479453	keystroke	Key.backspace	n/a
239.861	0.06	479722	keystroke	Key.backspace	n/a
240.011	0.105	480022	keystroke	Key.backspace	n/a
240.161	0.075	480322	keystroke	Key.backspace	n/a
241.8865	0.104	483773	keystroke	Key.backspace	n/a
242.456	0.075	484912	keystroke	c	n/a
242.6515	0.0745	485303	keystroke	e	n/a
242.846	0.06	485692	keystroke	s	n/a
242.982	0.104	485964	keystroke	s	n/a
243.191	0.105	486382	keystroke	Key.space	n/a
243.7315	0.075	487463	keystroke	f	n/a
243.8665	0.075	487733	keystroke	e	n/a
244.0765	0.0905	488153	keystroke	a	n/a
244.272	0.0595	488544	keystroke	u	n/a
244.496	0.06	488992	keystroke	t	n/a
244.886	0.0755	489772	keystroke	r	n/a
245.0665	0.075	490133	keystroke	e	n/a
245.2465	0.075	490493	keystroke	s	n/a
245.3355	0.0615	490671	keystroke	Key.space	n/a
245.8755	0.0455	491751	keystroke	Key.backspace	n/a
245.996	0.075	491992	keystroke	Key.backspace	n/a
246.236	0.045	492472	keystroke	Key.backspace	n/a
246.2965	0.0295	492593	keystroke	Key.backspace	n/a
247.1065	0.0745	494213	keystroke	u	n/a
247.2265	0.1055	494453	keystroke	r	n/a
247.422	0.0895	494844	keystroke	e	n/a
247.6465	0.0445	495293	keystroke	s	n/a
247.7365	0.09	495473	keystroke	Key.space	n/a
248.4115	0.0295	496823	keystroke	Key.backspace	n/a
248.516	0.09	497032	keystroke	Key.backspace	n/a
248.666	0.105	497332	keystroke	Key.backspace	n/a
249.4165	0.09	498833	keystroke	e	n/a
249.6115	0.075	499223	keystroke	s	n/a
249.6715	0.09	499343	keystroke	Key.space	n/a
249.7915	0.12	499583	keystroke	s	n/a
250.0465	0.074	500093	keystroke	t	n/a
250.1965	0.0905	500393	keystroke	r	n/a
250.287	0.074	500574	keystroke	i	n/a
250.482	0.075	500964	keystroke	p	n/a
250.6465	0.059	501293	keystroke	s	n/a
250.7655	0.0905	501531	keystroke	Key.space	n/a
251.022	0.074	502044	keystroke	p	n/a
251.397	0.059	502794	keystroke	h	n/a
251.531	0.075	503062	keystroke	y	n/a
251.6365	0.075	503273	keystroke	s	n/a
251.7715	0.075	503543	keystroke	i	n/a
251.8765	0.09	503753	keystroke	c	n/a
252.0715	0.09	504143	keystroke	s	n/a
252.2065	0.074	504413	keystroke	Key.enter	n/a
252.287	8.5155	504574	prompt	n/a	auckland saint makes composer\n
253.151	0.0905	506302	keystroke	a	n/a
253.301	0.0605	506602	keystroke	u	n/a
253.436	0.075	506872	keystroke	c	n/a
253.541	0.0755	507082	keystroke	k	n/a
253.7215	0.045	507443	keystroke	l	n/a
253.8265	0.09	507653	keystroke	a	n/a
253.9915	0.075	507983	keystroke	b	n/a
254.0965	0.075	508193	keystroke	d	n/a
254.2315	0.1195	508463	keystroke	Key.space	n/a
254.9065	0.0595	509813	keystroke	Key.backspace	n/a
255.101	0.015	510202	keystroke	Key.backspace	n/a
255.2365	0.09	510473	keystroke	Key.backspace	n/a
255.8965	0.0605	511793	keystroke	n	n/a
256.0315	0.075	512063	keystroke	d	n/a
256.1215	0.105	512243	keystroke	Key.space	n/a
256.2565	0.09	512513	keystroke	s	n/a
256.4215	0.09	512843	keystroke	a	n/a
256.5565	0.135	513113	keystroke	i	n/a
256.5865	0.15	513173	keystroke	n	n/a
256.7215	0.09	513443	keystroke	t	n/a
256.8265	0.104	513653	keystroke	Key.space	n/a
256.9915	0.1045	513983	keystroke	m	n/a
257.081	0.0905	514162	keystroke	a	n/a
257.2465	0.0745	514493	keystroke	k	n/a
257.3815	0.09	514763	keystroke	e	n/a
257.546	0.105	515092	keystroke	s	n/a
257.681	0.09	515362	keystroke	Key.space	n/a
257.9965	0.075	515993	keystroke	c	n/a
258.177	0.029	516354	keystroke	i	n/a
258.2215	0.0595	516443	keystroke	m	n/a
258.506	0.075	517012	keystroke	Key.backspace	n/a
258.6565	0.075	517313	keystroke	Key.backspace	n/a
258.7915	0.09	517583	keystroke	Key.backspace	n/a
259.331	0.0905	518662	keystroke	Key.space	n/a
259.542	0.089	519084	keystroke	c	n/a
259.646	0.151	519292	keystroke	o	n/a
259.721	0.1355	519442	keystroke	m	n/a
259.886	0.09	519772	keystroke	p	n/a
260.066	0.0905	520132	keystroke	o	n/a
260.171	0.075	520342	keystroke	s	n/a
260.351	0.1205	520702	keystroke	e	n/a
260.5615	0.0905	521123	keystroke	r	n/a
260.7115	0.0895	521423	keystroke	Key.enter	n/a
260.8105	8.4975	521621	prompt	n/a	requests operated regional departmental\n
261.761	0.075	523522	keystroke	r	n/a
261.911	0.1205	523822	keystroke	e	n/a
262.1365	0.075	524273	keystroke	q	n/a
262.2565	0.075	524513	keystroke	u	n/a
262.392	0.0745	524784	keystroke	e	n/a
262.5265	0.0905	525053	keystroke	s	n/a
262.6605	0.0465	525321	keystroke	t	n/a
262.7365	0.09	525473	keystroke	s	n/a
262.8565	0.09	525713	keystroke	Key.space	n/a
263.3815	0.0605	526763	keystroke	o	n/a
263.5315	0.06	527063	keystroke	p	n/a
263.637	0.0745	527274	keystroke	e	n/a
263.817	0.074	527634	keystroke	r	n/a
264.0265	0.09	528053	keystroke	a	n/a
264.1315	0.075	528263	keystroke	t	n/a
264.2515	0.074	528503	keystroke	e	n/a
264.4015	0.104	528803	keystroke	d	n/a
264.5205	0.09	529041	keystroke	Key.space	n/a
264.7615	0.0755	529523	keystroke	r	n/a
264.9105	0.091	529821	keystroke	e	n/a
265.1355	0.091	530271	keystroke	g	n/a
265.2415	0.0745	530483	keystroke	i	n/a
265.4065	0.1045	530813	keystroke	o	n/a
265.512	0.119	531024	keystroke	n	n/a
265.586	0.061	531172	keystroke	a	n/a
265.721	0.12	531442	keystroke	l	n/a
265.871	0.105	531742	keystroke	Key.space	n/a
266.186	0.135	532372	keystroke	d	n/a
266.4265	0.1045	532853	keystroke	e	n/a
266.681	0.0895	533362	keystroke	r	n/a
267.2965	0.06	534593	keystroke	Key.backspace	n/a
267.5965	0.075	535193	keystroke	p	n/a
267.7315	0.105	535463	keystroke	a	n/a
268.0165	0.09	536033	keystroke	r	n/a
268.1815	0.09	536363	keystroke	t	n/a
268.3165	0.0905	536633	keystroke	m	n/a
268.4215	0.075	536843	keystroke	e	n/a
268.5115	0.0905	537023	keystroke	n	n/a
268.6315	0.06	537263	keystroke	t	n/a
268.8715	0.075	537743	keystroke	a	n/a
268.9765	0.105	537953	keystroke	l	n/a
269.1865	0.12	538373	keystroke	Key.enter	n/a
269.313	13.6155	538626	prompt	n/a	breath specializing kijiji montreal\n
270.1015	0.075	540203	keystroke	b	n/a
270.2815	0.09	540563	keystroke	r	n/a
270.4465	0.09	540893	keystroke	e	n/a
270.6715	0.0745	541343	keystroke	a	n/a
270.776	0.0895	541552	keystroke	t	n/a
270.9865	0.12	541973	keystroke	h	n/a
271.136	0.1045	542272	keystroke	Key.space	n/a
271.5255	0.121	543051	keystroke	s	n/a
271.6915	0.075	543383	keystroke	p	n/a
272.1115	0.089	544223	keystroke	e	n/a
272.351	0.075	544702	keystroke	c	n/a
272.456	0.09	544912	keystroke	i	n/a
272.6215	0.0745	545243	keystroke	a	n/a
272.756	0.075	545512	keystroke	l	n/a
272.951	0.031	545902	keystroke	i	n/a
273.7765	0.0745	547553	keystroke	z	n/a
273.926	0.15	547852	keystroke	i	n/a
274.016	0.1505	548032	keystroke	n	n/a
274.1515	0.0895	548303	keystroke	g	n/a
274.301	0.12	548602	keystroke	Key.space	n/a
277.1535	0	554307	keystroke	k	n/a
277.2265	0.0755	554453	keystroke	i	n/a
277.3915	0.09	554783	keystroke	j	n/a
277.586	0.03	555172	keystroke	i	n/a
277.931	0.15	555862	keystroke	j	n/a
278.066	0.136	556132	keystroke	i	n/a
278.3515	0.105	556703	keystroke	Key.space	n/a
279.0565	0.105	558113	keystroke	n	n/a
279.8065	0.0895	559613	keystroke	Key.backspace	n/a
280.136	0.075	560272	keystroke	m	n/a
280.4665	0.1655	560933	keystroke	o	n/a
280.5715	0.1345	561143	keystroke	n	n/a
280.752	0.0895	561504	keystroke	t	n/a
280.9165	0.0755	561833	keystroke	r	n/a
281.097	0.059	562194	keystroke	r	n/a
281.111	0.03	562222	keystroke	e	n/a
281.8765	0.059	563753	keystroke	Key.backspace	n/a
282.0105	0.075	564021	keystroke	Key.backspace	n/a
282.1765	0.105	564353	keystroke	e	n/a
282.4315	0.06	564863	keystroke	a	n/a
282.5365	0.105	565073	keystroke	l	n/a
282.8365	0.09	565673	keystroke	Key.enter	n/a
282.944	10.0785	565888	prompt	n/a	element immigration improved enters\n
283.6765	0.075	567353	keystroke	e	n/a
283.7965	0.075	567593	keystroke	l	n/a
283.9015	0.075	567803	keystroke	e	n/a
284.0365	0.06	568073	keystroke	m	n/a
284.2015	0.075	568403	keystroke	e	n/a
284.336	0.061	568672	keystroke	n	n/a
284.486	0.06	568972	keystroke	t	n/a
284.5915	0.09	569183	keystroke	Key.space	n/a
285.1765	0.06	570353	keystroke	i	n/a
285.3565	0.06	570713	keystroke	m	n/a
285.476	0.075	570952	keystroke	m	n/a
285.656	0.046	571312	keystroke	i	n/a
285.8515	0.0595	571703	keystroke	g	n/a
285.926	0.09	571852	keystroke	r	n/a
286.1515	0.0895	572303	keystroke	a	n/a
286.256	0.0755	572512	keystroke	n	n/a
286.5565	0.0605	573113	keystroke	t	n/a
287.097	0.075	574194	keystroke	i	n/a
287.2615	0.1045	574523	keystroke	o	n/a
287.3365	0.135	574673	keystroke	n	n/a
287.726	0.0455	575452	keystroke	Key.backspace	n/a
287.8465	0.045	575693	keystroke	Key.backspace	n/a
287.966	0.06	575932	keystroke	Key.backspace	n/a
288.1015	0.045	576203	keystroke	Key.backspace	n/a
288.206	0.045	576412	keystroke	Key.backspace	n/a
288.296	0.06	576592	keystroke	Key.backspace	n/a
288.9715	0.105	577943	keystroke	a	n/a
289.346	0.0605	578692	keystroke	t	n/a
289.451	0.0605	578902	keystroke	i	n/a
289.601	0.1205	579202	keystroke	o	n/a
289.6615	0.12	579323	keystroke	n	n/a
289.9615	0.1045	579923	keystroke	Key.space	n/a
290.456	0.135	580912	keystroke	i	n/a
290.546	0.106	581092	keystroke	m	n/a
290.6965	0.105	581393	keystroke	p	n/a
290.847	0.0745	581694	keystroke	r	n/a
290.9365	0.09	581873	keystroke	o	n/a
291.222	0.06	582444	keystroke	v	n/a
291.297	0.074	582594	keystroke	e	n/a
291.446	0.121	582892	keystroke	d	n/a
291.551	0.09	583102	keystroke	Key.space	n/a
292.046	0.075	584092	keystroke	e	n/a
292.136	0.0755	584272	keystroke	n	n/a
292.361	0.03	584722	keystroke	t	n/a
292.376	0.016	584752	keystroke	r	n/a
292.451	0.0905	584902	keystroke	e	n/a
292.6315	0.09	585263	keystroke	r	n/a
292.811	0.1055	585622	keystroke	s	n/a
292.9005	0.12	585801	keystroke	Key.enter	n/a
293.026	11.292	586052	prompt	n/a	makes content beginners kinase\n
293.7565	0.075	587513	keystroke	m	n/a
293.8765	0.089	587753	keystroke	a	n/a
293.9815	0.06	587963	keystroke	k	n/a
294.0865	0.105	588173	keystroke	e	n/a
294.2515	0.105	588503	keystroke	s	n/a
294.3715	0.09	588743	keystroke	Key.space	n/a
294.7165	0.105	589433	keystroke	c	n/a
294.8065	0.12	589613	keystroke	o	n/a
294.8815	0.12	589763	keystroke	n	n/a
295.0315	0.09	590063	keystroke	t	n/a
295.2415	0.0755	590483	keystroke	e	n/a
295.3755	0.075	590751	keystroke	n	n/a
295.5115	0.0605	591023	keystroke	t	n/a
295.5865	0.105	591173	keystroke	Key.space	n/a
296.1265	0.06	592253	keystroke	b	n/a
296.2475	0.074	592495	keystroke	e	n/a
296.5165	0.06	593033	keystroke	g	n/a
296.6815	0.106	593363	keystroke	g	n/a
296.907	0.1045	593814	keystroke	i	n/a
296.9665	0.135	593933	keystroke	n	n/a
297.117	0.1045	594234	keystroke	e	n/a
297.296	0.1055	594592	keystroke	r	n/a
297.492	0.0895	594984	keystroke	s	n/a
297.5965	0.06	595193	keystroke	Key.space	n/a
298.4965	0.0595	596993	keystroke	Key.backspace	n/a
298.631	0.06	597262	keystroke	Key.backspace	n/a
298.782	0.074	597564	keystroke	Key.backspace	n/a
302.0515	0.0755	604103	keystroke	r	n/a
302.276	0.06	604552	keystroke	s	n/a
302.381	0.09	604762	keystroke	Key.space	n/a
303.236	0.06	606472	keystroke	k	n/a
303.401	0.121	606802	keystroke	i	n/a
303.5365	0.0905	607073	keystroke	n	n/a
303.7165	0.06	607433	keystroke	a	n/a
303.9115	0.075	607823	keystroke	s	n/a
304.092	0.044	608184	keystroke	r	n/a
304.106	0.045	608212	keystroke	e	n/a
304.2115	0.105	608423	keystroke	Key.enter	n/a
304.324	6.5635	608648	prompt	n/a	chronicle clouds solo pull\n
305.1865	0.089	610373	keystroke	c	n/a
305.3215	0.09	610643	keystroke	h	n/a
305.3965	0.0755	610793	keystroke	r	n/a
305.5315	0.0755	611063	keystroke	o	n/a
305.726	0.1355	611452	keystroke	n	n/a
305.8165	0.1205	611633	keystroke	i	n/a
305.9515	0.09	611903	keystroke	c	n/a
306.116	0.1055	612232	keystroke	l	n/a
306.236	0.0755	612472	keystroke	e	n/a
306.4015	0.075	612803	keystroke	s	n/a
306.5215	0.1045	613043	keystroke	Key.space	n/a
306.8965	0.06	613793	keystroke	Key.backspace	n/a
307.0315	0.075	614063	keystroke	Key.backspace	n/a
307.3315	0.104	614663	keystroke	Key.space	n/a
308.0365	0.0745	616073	keystroke	c	n/a
308.2015	0.12	616403	keystroke	l	n/a
308.427	0.0895	616854	keystroke	o	n/a
308.6515	0.0895	617303	keystroke	u	n/a
308.726	0.075	617452	keystroke	d	n/a
308.892	0.0895	617784	keystroke	s	n/a
308.9965	0.09	617993	keystroke	Key.space	n/a
309.3415	0.075	618683	keystroke	s	n/a
309.4315	0.075	618863	keystroke	o	n/a
309.582	0.089	619164	keystroke	l	n/a
309.746	0.0905	619492	keystroke	o	n/a
309.866	0.1055	619732	keystroke	Key.space	n/a
310.0765	0.075	620153	keystroke	p	n/a
310.286	0.076	620572	keystroke	u	n/a
310.496	0.0455	620992	keystroke	l	n/a
310.6315	0.09	621263	keystroke	l	n/a
310.8115	0.0745	621623	keystroke	Key.enter	n/a
310.8915	6.0715	621783	prompt	n/a	permitted variety habits congress\n
311.7115	0.0745	623423	keystroke	p	n/a
311.816	0.09	623632	keystroke	e	n/a
311.9815	0.1195	623963	keystroke	r	n/a
312.086	0.12	624172	keystroke	m	n/a
312.1915	0.089	624383	keystroke	i	n/a
312.327	0.0745	624654	keystroke	t	n/a
312.4755	0.105	624951	keystroke	t	n/a
312.7015	0.059	625403	keystroke	e	n/a
312.8505	0.106	625701	keystroke	d	n/a
312.9715	0.075	625943	keystroke	Key.space	n/a
313.166	0.09	626332	keystroke	v	n/a
313.271	0.0755	626542	keystroke	a	n/a
313.4815	0.0755	626963	keystroke	r	n/a
313.586	0.075	627172	keystroke	i	n/a
313.676	0.09	627352	keystroke	e	n/a
313.886	0.075	627772	keystroke	t	n/a
314.007	0.09	628014	keystroke	y	n/a
314.126	0.12	628252	keystroke	Key.space	n/a
314.592	0.0745	629184	keystroke	h	n/a
314.7115	0.075	629423	keystroke	a	n/a
314.8015	0.0755	629603	keystroke	b	n/a
315.0115	0.06	630023	keystroke	i	n/a
315.1315	0.1045	630263	keystroke	t	n/a
315.342	0.0895	630684	keystroke	s	n/a
315.461	0.09	630922	keystroke	Key.space	n/a
315.6715	0.075	631343	keystroke	c	n/a
315.7615	0.12	631523	keystroke	o	n/a
315.8515	0.104	631703	keystroke	n	n/a
316.077	0.0745	632154	keystroke	g	n/a
316.167	0.0895	632334	keystroke	r	n/a
316.3465	0.09	632693	keystroke	e	n/a
316.5115	0.09	633023	keystroke	s	n/a
316.6765	0.12	633353	keystroke	s	n/a
316.8565	0.105	633713	keystroke	Key.enter	n/a
316.9755	4.8175	633951	prompt	n/a	bald camps graham staff\n
317.7415	0.0755	635483	keystroke	b	n/a
317.8615	0.0755	635723	keystroke	a	n/a
317.996	0.045	635992	keystroke	l	n/a
318.086	0.076	636172	keystroke	d	n/a
318.176	0.105	636352	keystroke	Key.space	n/a
318.311	0.0605	636622	keystroke	c	n/a
318.5215	0.06	637043	keystroke	a	n/a
318.6715	0.09	637343	keystroke	m	n/a
318.7765	0.075	637553	keystroke	p	n/a
318.911	0.0755	637822	keystroke	s	n/a
319.0465	0.1195	638093	keystroke	Key.space	n/a
319.7215	0.0895	639443	keystroke	g	n/a
319.827	0.0745	639654	keystroke	r	n/a
320.037	0.0745	640074	keystroke	a	n/a
320.141	0.09	640282	keystroke	h	n/a
320.2915	0.075	640583	keystroke	a	n/a
320.4115	0.12	640823	keystroke	m	n/a
320.5165	0.12	641033	keystroke	Key.space	n/a
320.8615	0.105	641723	keystroke	s	n/a
321.0565	0.075	642113	keystroke	t	n/a
321.1465	0.075	642293	keystroke	a	n/a
321.2665	0.075	642533	keystroke	f	n/a
321.4015	0.105	642803	keystroke	f	n/a
321.7015	0.09	643403	keystroke	Key.enter	n/a
321.7995	10.1485	643599	prompt	n/a	reservoir elements gamecube directions\n
322.706	0.075	645412	keystroke	r	n/a
322.8865	0.075	645773	keystroke	e	n/a
323.081	0.075	646162	keystroke	s	n/a
323.231	0.0755	646462	keystroke	e	n/a
323.426	0.09	646852	keystroke	r	n/a
323.666	0.061	647332	keystroke	v	n/a
323.846	0.06	647692	keystroke	o	n/a
324.012	0.0745	648024	keystroke	i	n/a
324.146	0.06	648292	keystroke	r	n/a
324.251	0.1055	648502	keystroke	Key.space	n/a
324.806	0.0605	649612	keystroke	e	n/a
324.9415	0.0745	649883	keystroke	l	n/a
325.0315	0.045	650063	keystroke	e	n/a
325.181	0.0615	650362	keystroke	m	n/a
325.2115	0.045	650423	keystroke	e	n/a
325.751	0.0755	651502	keystroke	n	n/a
325.886	0.0755	651772	keystroke	t	n/a
326.111	0.0605	652222	keystroke	s	n/a
326.216	0.09	652432	keystroke	Key.space	n/a
326.5765	0.075	653153	keystroke	g	n/a
326.726	0.075	653452	keystroke	a	n/a
326.8315	0.0745	653663	keystroke	m	n/a
326.9815	0.0605	653963	keystroke	e	n/a
327.281	0.0605	654562	keystroke	c	n/a
327.416	0.1355	654832	keystroke	u	n/a
327.491	0.1205	654982	keystroke	b	n/a
327.6265	0.0605	655253	keystroke	e	n/a
327.7615	0.1045	655523	keystroke	Key.space	n/a
328.1215	0.09	656243	keystroke	d	n/a
328.2415	0.06	656483	keystroke	i	n/a
328.361	0.076	656722	keystroke	r	n/a
328.5265	0.089	657053	keystroke	e	n/a
328.7955	0.045	657591	keystroke	Key.backspace	n/a
328.9305	0.061	657861	keystroke	Key.backspace	n/a
329.0655	0.076	658131	keystroke	Key.backspace	n/a
330.357	0.059	660714	keystroke	i	n/a
330.4915	0.0755	660983	keystroke	r	n/a
330.656	0.091	661312	keystroke	e	n/a
330.881	0.076	661762	keystroke	c	n/a
331.076	0.06	662152	keystroke	t	n/a
331.181	0.09	662362	keystroke	i	n/a
331.361	0.121	662722	keystroke	o	n/a
331.4215	0.1195	662843	keystroke	n	n/a
331.721	0.09	663442	keystroke	s	n/a
331.856	0.0905	663712	keystroke	Key.enter	n/a
331.952	9.686	663904	prompt	n/a	sentences event fotos commissions\n
332.6655	0.076	665331	keystroke	s	n/a
332.8015	0.104	665603	keystroke	e	n/a
332.9215	0.0755	665843	keystroke	n	n/a
333.0715	0.06	666143	keystroke	t	n/a
333.2515	0.06	666503	keystroke	e	n/a
333.4165	0.075	666833	keystroke	n	n/a
333.476	0.0605	666952	keystroke	c	n/a
333.6565	0.075	667313	keystroke	e	n/a
333.8215	0.105	667643	keystroke	s	n/a
333.9115	0.1045	667823	keystroke	Key.space	n/a
334.1215	0.075	668243	keystroke	e	n/a
334.392	0.059	668784	keystroke	v	n/a
334.6015	0.0605	669203	keystroke	e	n/a
334.752	0.0595	669504	keystroke	n	n/a
334.902	0.06	669804	keystroke	t	n/a
335.021	0.105	670042	keystroke	Key.space	n/a
336.011	0.076	672022	keystroke	f	n/a
336.1015	0.075	672203	keystroke	o	n/a
336.116	0.03	672232	keystroke	i	n/a
336.237	0.074	672474	keystroke	t	n/a
336.326	0.0455	672652	keystroke	o	n/a
336.477	0.059	672954	keystroke	s	n/a
336.596	0.105	673192	keystroke	Key.space	n/a
337.1815	0.06	674363	keystroke	Key.backspace	n/a
337.3165	0.0595	674633	keystroke	Key.backspace	n/a
337.436	0.045	674872	keystroke	Key.backspace	n/a
337.5415	0.06	675083	keystroke	Key.backspace	n/a
337.7365	0.03	675473	keystroke	Key.backspace	n/a
337.8865	0.09	675773	keystroke	t	n/a
338.067	0.0595	676134	keystroke	o	n/a
338.217	0.0595	676434	keystroke	s	n/a
338.8015	0.0745	677603	keystroke	Key.space	n/a
339.7315	0.06	679463	keystroke	c	n/a
339.807	0.0745	679614	keystroke	o	n/a
340.0165	0.09	680033	keystroke	m	n/a
340.257	0.045	680514	keystroke	i	n/a
340.5565	0.045	681113	keystroke	s	n/a
340.721	0.06	681442	keystroke	s	n/a
340.886	0.105	681772	keystroke	i	n/a
341.051	0.1505	682102	keystroke	o	n/a
341.1415	0.12	682283	keystroke	n	n/a
341.3065	0.075	682613	keystroke	s	n/a
341.5315	0.1045	683063	keystroke	Key.enter	n/a
341.644	9.819	683288	prompt	n/a	extends identification me brings\n
345.119	0.013	690238	keystroke	e	n/a
345.3415	0.0755	690683	keystroke	x	n/a
345.7165	0.0605	691433	keystroke	t	n/a
345.972	0.0595	691944	keystroke	e	n/a
346.1215	0.06	692243	keystroke	n	n/a
346.2865	0.0445	692573	keystroke	d	n/a
346.572	0.059	693144	keystroke	s	n/a
346.691	0.0755	693382	keystroke	Key.space	n/a
347.441	0.06	694882	keystroke	i	n/a
347.5915	0.0455	695183	keystroke	d	n/a
347.711	0.09	695422	keystroke	e	n/a
347.816	0.09	695632	keystroke	n	n/a
347.9365	0.0595	695873	keystroke	t	n/a
348.0415	0.1045	696083	keystroke	i	n/a
348.1615	0.0605	696323	keystroke	f	n/a
348.281	0.061	696562	keystroke	i	n/a
348.386	0.09	696772	keystroke	c	n/a
348.6265	0.0745	697253	keystroke	a	n/a
348.897	0.044	697794	keystroke	t	n/a
348.986	0.105	697972	keystroke	i	n/a
349.1515	0.165	698303	keystroke	o	n/a
349.2565	0.165	698513	keystroke	n	n/a
349.496	0.1655	698992	keystroke	Key.space	n/a
349.932	0.0895	699864	keystroke	m	n/a
350.066	0.1055	700132	keystroke	e	n/a
350.186	0.105	700372	keystroke	Key.space	n/a
350.3515	0.135	700703	keystroke	b	n/a
350.5165	0.0905	701033	keystroke	r	n/a
350.6515	0.1505	701303	keystroke	i	n/a
350.742	0.149	701484	keystroke	n	n/a
350.8765	0.1045	701753	keystroke	g	n/a
351.1765	0.045	702353	keystroke	s	n/a
351.3865	0.075	702773	keystroke	Key.enter	n/a
351.467	6.101	702934	prompt	n/a	diverse army stand cents\n
352.5415	0.0755	705083	keystroke	d	n/a
352.6615	0.061	705323	keystroke	i	n/a
352.8865	0.075	705773	keystroke	v	n/a
352.9915	0.0755	705983	keystroke	e	n/a
353.1715	0.075	706343	keystroke	r	n/a
353.3965	0.06	706793	keystroke	s	n/a
353.5315	0.075	707063	keystroke	e	n/a
353.6515	0.09	707303	keystroke	Key.space	n/a
353.8015	0.09	707603	keystroke	a	n/a
354.0575	0.059	708115	keystroke	r	n/a
354.1615	0.075	708323	keystroke	m	n/a
355.167	0.0745	710334	keystroke	y	n/a
355.3015	0.09	710603	keystroke	Key.space	n/a
355.4065	0.06	710813	keystroke	s	n/a
355.497	0.0745	710994	keystroke	t	n/a
355.6165	0.075	711233	keystroke	a	n/a
355.737	0.0745	711474	keystroke	n	n/a
355.8565	0.075	711713	keystroke	d	n/a
356.4865	0.06	712973	keystroke	Key.space	n/a
356.757	0.044	713514	keystroke	c	n/a
356.906	0.0905	713812	keystroke	e	n/a
357.011	0.075	714022	keystroke	n	n/a
357.132	0.074	714264	keystroke	t	n/a
357.356	0.061	714712	keystroke	s	n/a
357.4765	0.09	714953	keystroke	Key.enter	n/a
357.5785	9.6795	715157	prompt	n/a	exists leading that's define\n
358.227	0.075	716454	keystroke	e	n/a
358.4515	0.09	716903	keystroke	x	n/a
358.6315	0.06	717263	keystroke	i	n/a
358.7065	0.075	717413	keystroke	s	n/a
358.8865	0.06	717773	keystroke	t	n/a
359.007	0.0445	718014	keystroke	s	n/a
359.1715	0.09	718343	keystroke	Key.space	n/a
359.547	0.044	719094	keystroke	k	n/a
359.606	0.0605	719212	keystroke	a	n/a
359.9065	0.0295	719813	keystroke	=	n/a
360.026	0.075	720052	keystroke	Key.backspace	n/a
360.2665	0.0595	720533	keystroke	Key.backspace	n/a
360.3865	0.09	720773	keystroke	Key.backspace	n/a
360.9115	0.06	721823	keystroke	l	n/a
361.032	0.0585	722064	keystroke	e	n/a
361.2265	0.0755	722453	keystroke	a	n/a
361.4215	0.075	722843	keystroke	d	n/a
361.5265	0.12	723053	keystroke	i	n/a
361.5865	0.09	723173	keystroke	n	n/a
361.6765	0.09	723353	keystroke	g	n/a
361.7955	0.106	723591	keystroke	Key.space	n/a
362.0365	0.075	724073	keystroke	t	n/a
362.0965	0.105	724193	keystroke	h	n/a
362.2765	0.0745	724553	keystroke	a	n/a
362.382	0.104	724764	keystroke	t	n/a
362.921	0.076	725842	keystroke	'	n/a
363.0715	0.09	726143	keystroke	s	n/a
363.1765	0.09	726353	keystroke	Key.space	n/a
363.2815	0.0755	726563	keystroke	e	n/a
363.4915	0.09	726983	keystroke	x	n/a
363.626	0.061	727252	keystroke	i	n/a
363.7465	0.0895	727493	keystroke	s	n/a
363.971	0.06	727942	keystroke	t	n/a
364.151	0.0755	728302	keystroke	e	n/a
364.2865	0.09	728573	keystroke	n	n/a
364.3915	0.075	728783	keystroke	c	n/a
364.826	0.045	729652	keystroke	Key.backspace	n/a
364.9465	0.06	729893	keystroke	Key.backspace	n/a
365.0815	0.045	730163	keystroke	Key.backspace	n/a
365.2765	0.045	730553	keystroke	Key.backspace	n/a
365.3665	0.045	730733	keystroke	Key.backspace	n/a
365.4715	0.06	730943	keystroke	Key.backspace	n/a
365.6065	0.06	731213	keystroke	Key.backspace	n/a
365.9515	0.075	731903	keystroke	Key.backspace	n/a
366.252	0.075	732504	keystroke	d	n/a
366.402	0.09	732804	keystroke	e	n/a
366.642	0.06	733284	keystroke	f	n/a
366.7315	0.1205	733463	keystroke	i	n/a
366.7915	0.1205	733583	keystroke	n	n/a
366.927	0.044	733854	keystroke	e	n/a
367.166	0.091	734332	keystroke	Key.enter	n/a
367.264	12.579	734528	prompt	n/a	achievements clothing cyber tennis\n
368.1265	0.06	736253	keystroke	a	n/a
368.3665	0.0745	736733	keystroke	c	n/a
368.456	0.0755	736912	keystroke	h	n/a
368.637	0.06	737274	keystroke	i	n/a
368.712	0.075	737424	keystroke	e	n/a
370.061	0.09	740122	keystroke	v	n/a
370.197	0.074	740394	keystroke	e	n/a
370.317	0.059	740634	keystroke	m	n/a
370.4065	0.0905	740813	keystroke	e	n/a
370.5115	0.0755	741023	keystroke	n	n/a
370.526	0.046	741052	keystroke	b	n/a
370.602	0.09	741204	keystroke	t	n/a
370.842	0.075	741684	keystroke	s	n/a
370.9615	0.075	741923	keystroke	Key.space	n/a
371.3965	0.03	742793	keystroke	Key.backspace	n/a
371.5315	0.045	743063	keystroke	Key.backspace	n/a
371.6665	0.06	743333	keystroke	Key.backspace	n/a
371.7865	0.09	743573	keystroke	Key.backspace	n/a
372.207	0.0895	744414	keystroke	t	n/a
372.462	0.075	744924	keystroke	s	n/a
372.581	0.075	745162	keystroke	Key.space	n/a
372.7015	0.0595	745403	keystroke	c	n/a
372.807	0.0445	745614	keystroke	k	n/a
372.9565	0.0755	745913	keystroke	o	n/a
373.377	0.089	746754	keystroke	Key.backspace	n/a
373.871	0.0905	747742	keystroke	Key.backspace	n/a
374.231	0.0605	748462	keystroke	l	n/a
374.382	0.045	748764	keystroke	o	n/a
374.666	0.075	749332	keystroke	t	n/a
374.756	0.0755	749512	keystroke	h	n/a
374.9365	0.1205	749873	keystroke	i	n/a
375.0115	0.1045	750023	keystroke	n	n/a
375.101	0.06	750202	keystroke	g	n/a
375.206	0.105	750412	keystroke	Key.space	n/a
375.8665	0.06	751733	keystroke	x	n/a
377.486	0.09	754972	keystroke	Key.backspace	n/a
377.786	0.076	755572	keystroke	c	n/a
377.9215	0.0745	755843	keystroke	y	n/a
378.131	0.061	756262	keystroke	b	n/a
378.236	0.0905	756472	keystroke	e	n/a
378.417	0.0745	756834	keystroke	r	n/a
378.596	0.105	757192	keystroke	Key.space	n/a
378.717	0.074	757434	keystroke	t	n/a
378.941	0.0605	757882	keystroke	e	n/a
379.047	0.059	758094	keystroke	n	n/a
379.197	0.074	758394	keystroke	n	n/a
379.3465	0.0895	758693	keystroke	i	n/a
379.541	0.016	759082	keystroke	s	n/a
379.752	0.0885	759504	keystroke	Key.enter	n/a
379.855	16.5775	759710	prompt	n/a	rocket motel interactions wherever\n
380.6365	0.09	761273	keystroke	r	n/a
380.7405	0.076	761481	keystroke	o	n/a
380.877	0.0745	761754	keystroke	c	n/a
380.9965	0.0755	761993	keystroke	k	n/a
381.1165	0.06	762233	keystroke	e	n/a
381.296	0.075	762592	keystroke	t	n/a
381.401	0.075	762802	keystroke	Key.space	n/a
381.581	0.136	763162	keystroke	m	n/a
381.687	0.059	763374	keystroke	i	n/a
381.701	0.0755	763402	keystroke	o	n/a
381.791	0.076	763582	keystroke	d	n/a
382.1665	0.0455	764333	keystroke	Key.backspace	n/a
382.301	0.075	764602	keystroke	Key.backspace	n/a
382.451	0.0905	764902	keystroke	Key.backspace	n/a
382.8415	0.075	765683	keystroke	o	n/a
383.247	0.0745	766494	keystroke	t	n/a
383.472	0.059	766944	keystroke	e	n/a
383.547	0.074	767094	keystroke	l	n/a
383.681	0.12	767362	keystroke	Key.space	n/a
384.1915	0.12	768383	keystroke	i	n/a
384.2665	0.1045	768533	keystroke	n	n/a
384.506	0.06	769012	keystroke	t	n/a
384.521	0.031	769042	keystroke	r	n/a
384.5965	0.09	769193	keystroke	e	n/a
384.7615	0.09	769523	keystroke	r	n/a
385.467	0.044	770934	keystroke	Key.backspace	n/a
386.081	0.09	772162	keystroke	r	n/a
386.786	0.06	773572	keystroke	Key.backspace	n/a
386.9215	0.09	773843	keystroke	Key.backspace	n/a
387.071	0.0895	774142	keystroke	Key.backspace	n/a
387.2215	0.075	774443	keystroke	e	n/a
387.4015	0.075	774803	keystroke	r	n/a
387.7015	0.075	775403	keystroke	a	n/a
387.9565	0.045	775913	keystroke	x	n/a
387.9715	0.045	775943	keystroke	c	n/a
388.151	0.0755	776302	keystroke	t	n/a
388.286	0.0755	776572	keystroke	i	n/a
388.437	0.1345	776874	keystroke	o	n/a
388.512	0.1195	777024	keystroke	n	n/a
388.8415	0.06	777683	keystroke	Key.backspace	n/a
389.0065	0.045	778013	keystroke	Key.backspace	n/a
389.1415	0.06	778283	keystroke	Key.backspace	n/a
389.3515	0.06	778703	keystroke	Key.backspace	n/a
389.4865	0.075	778973	keystroke	Key.backspace	n/a
389.6515	0.09	779303	keystroke	Key.backspace	n/a
389.936	0.091	779872	keystroke	c	n/a
390.192	0.0895	780384	keystroke	t	n/a
390.476	0.06	780952	keystroke	i	n/a
390.6265	0.135	781253	keystroke	o	n/a
390.7165	0.104	781433	keystroke	n	n/a
390.8065	0.0605	781613	keystroke	s	n/a
390.9865	0.105	781973	keystroke	Key.space	n/a
391.721	0.0905	783442	keystroke	w	n/a
391.872	0.0745	783744	keystroke	h	n/a
391.9615	0.0745	783923	keystroke	e	n/a
392.1115	0.09	784223	keystroke	e	n/a
392.292	0.0745	784584	keystroke	r	n/a
392.4865	0.0755	784973	keystroke	e	n/a
392.5765	0.0455	785153	keystroke	v	n/a
392.667	0.1045	785334	keystroke	e	n/a
392.8465	0.09	785693	keystroke	r	n/a
393.1615	0.045	786323	keystroke	Key.backspace	n/a
393.2815	0.06	786563	keystroke	Key.backspace	n/a
393.416	0.0905	786832	keystroke	Key.backspace	n/a
393.5815	0.06	787163	keystroke	Key.backspace	n/a
393.716	0.1205	787432	keystroke	Key.backspace	n/a
393.971	0.1205	787942	keystroke	Key.backspace	n/a
394.271	0.09	788542	keystroke	r	n/a
394.482	0.074	788964	keystroke	e	n/a
395.592	0.09	791184	keystroke	v	n/a
395.771	0.091	791542	keystroke	e	n/a
395.952	0.075	791904	keystroke	r	n/a
396.3565	0.074	792713	keystroke	Key.enter	n/a
396.4355	7.7675	792871	prompt	n/a	cheque player pitch affect\n
397.317	0.0745	794634	keystroke	c	n/a
397.4365	0.0595	794873	keystroke	h	n/a
397.557	0.0745	795114	keystroke	e	n/a
397.7965	0.06	795593	keystroke	q	n/a
397.9315	0.09	795863	keystroke	u	n/a
398.0665	0.0605	796133	keystroke	e	n/a
398.2165	0.09	796433	keystroke	Key.space	n/a
398.5615	0.1195	797123	keystroke	p	n/a
398.622	0.1195	797244	keystroke	l	n/a
398.756	0.0905	797512	keystroke	a	n/a
398.9215	0.0605	797843	keystroke	y	n/a
398.997	0.104	797994	keystroke	e	n/a
399.3115	0.0145	798623	keystroke	r	n/a
399.341	0.12	798682	keystroke	Key.space	n/a
401.7735	0.001	803547	keystroke	p	n/a
401.907	0.0595	803814	keystroke	i	n/a
402.026	0.0605	804052	keystroke	t	n/a
402.2515	0.0305	804503	keystroke	c	n/a
402.3115	0.1355	804623	keystroke	h	n/a
402.401	0.1345	804802	keystroke	Key.space	n/a
402.9265	0.0605	805853	keystroke	a	n/a
403.0465	0.06	806093	keystroke	f	n/a
403.182	0.1045	806364	keystroke	f	n/a
403.346	0.09	806692	keystroke	e	n/a
403.571	0.0755	807142	keystroke	c	n/a
403.661	0.0905	807322	keystroke	t	n/a
404.111	0.09	808222	keystroke	Key.enter	n/a
404.207	9.656	808414	prompt	n/a	bandwidth ultram reunion mutual\n
405.1015	0.0605	810203	keystroke	b	n/a
405.4165	0.0605	810833	keystroke	a	n/a
405.6265	0.059	811253	keystroke	d	n/a
406.1965	0.09	812393	keystroke	Key.backspace	n/a
406.497	0.0745	812994	keystroke	n	n/a
406.6165	0.06	813233	keystroke	d	n/a
406.7965	0.075	813593	keystroke	w	n/a
407.066	0.06	814132	keystroke	i	n/a
407.3815	0.0895	814763	keystroke	d	n/a
407.621	0.06	815242	keystroke	t	n/a
407.7715	0.105	815543	keystroke	h	n/a
407.861	0.09	815722	keystroke	Key.space	n/a
408.581	0.1055	817162	keystroke	u	n/a
408.8365	0.0905	817673	keystroke	l	n/a
409.0465	0.0755	818093	keystroke	t	n/a
409.2265	0.075	818453	keystroke	r	n/a
409.526	0.0455	819052	keystroke	a	n/a
409.6765	0.105	819353	keystroke	m	n/a
409.7365	0.12	819473	keystroke	Key.space	n/a
410.8915	0.0745	821783	keystroke	r	n/a
411.101	0.0905	822202	keystroke	e	n/a
411.3265	0.075	822653	keystroke	u	n/a
411.686	0.075	823372	keystroke	n	n/a
411.866	0.075	823732	keystroke	i	n/a
412.031	0.1355	824062	keystroke	o	n/a
412.1215	0.135	824243	keystroke	n	n/a
412.3165	0.1195	824633	keystroke	Key.space	n/a
412.8565	0.09	825713	keystroke	m	n/a
413.0665	0.075	826133	keystroke	u	n/a
413.1865	0.09	826373	keystroke	t	n/a
413.2615	0.075	826523	keystroke	u	n/a
413.4865	0.06	826973	keystroke	a	n/a
413.5915	0.105	827183	keystroke	l	n/a
413.7715	0.089	827543	keystroke	Key.enter	n/a
413.868	5.861	827736	prompt	n/a	radius char tomorrow cleaner\n
414.6265	0.089	829253	keystroke	r	n/a
414.8665	0.075	829733	keystroke	a	n/a
415.0615	0.0745	830123	keystroke	d	n/a
415.167	0.0745	830334	keystroke	i	n/a
415.332	0.074	830664	keystroke	u	n/a
415.4515	0.075	830903	keystroke	s	n/a
415.5405	0.136	831081	keystroke	Key.space	n/a
415.7815	0.03	831563	keystroke	m	n/a
416.1715	0.09	832343	keystroke	Key.backspace	n/a
416.3215	0.1045	832643	keystroke	c	n/a
416.472	0.09	832944	keystroke	h	n/a
416.6215	0.09	833243	keystroke	a	n/a
417.0565	0.06	834113	keystroke	r	n/a
417.2215	0.075	834443	keystroke	Key.space	n/a
417.3265	0.09	834653	keystroke	t	n/a
417.4605	0.135	834921	keystroke	o	n/a
417.5365	0.165	835073	keystroke	m	n/a
417.7315	0.075	835463	keystroke	o	n/a
417.8215	0.06	835643	keystroke	r	n/a
417.987	0.1195	835974	keystroke	r	n/a
418.1215	0.1055	836243	keystroke	o	n/a
418.256	0.076	836512	keystroke	w	n/a
418.377	0.104	836754	keystroke	Key.space	n/a
418.571	0.076	837142	keystroke	c	n/a
418.6615	0.09	837323	keystroke	l	n/a
418.812	0.075	837624	keystroke	e	n/a
419.007	0.105	838014	keystroke	a	n/a
419.141	0.106	838282	keystroke	n	n/a
419.292	0.0895	838584	keystroke	e	n/a
419.5165	0.075	839033	keystroke	r	n/a
419.6365	0.09	839273	keystroke	Key.enter	n/a
419.7515	7.7615	839503	prompt	n/a	joint sole fisher selling\n
420.612	0.0745	841224	keystroke	j	n/a
420.7915	0.0905	841583	keystroke	o	n/a
420.9415	0.1355	841883	keystroke	i	n/a
421.0165	0.135	842033	keystroke	n	n/a
421.1815	0.06	842363	keystroke	t	n/a
421.4215	0.1045	842843	keystroke	Key.space	n/a
422.0515	0.09	844103	keystroke	d	n/a
422.1425	0.0885	844285	keystroke	o	n/a
422.291	0.0905	844582	keystroke	l	n/a
422.397	0.0745	844794	keystroke	r	n/a
422.502	0.0895	845004	keystroke	Key.space	n/a
422.607	0.089	845214	keystroke	g	n/a
422.7115	0.0745	845423	keystroke	i	n/a
422.876	0.075	845752	keystroke	s	n/a
422.966	0.0905	845932	keystroke	h	n/a
423.2665	0.0145	846533	keystroke	Key.backspace	n/a
423.371	0.0595	846742	keystroke	Key.backspace	n/a
423.5215	0.06	847043	keystroke	Key.backspace	n/a
423.6415	0.105	847283	keystroke	Key.backspace	n/a
423.8215	0.075	847643	keystroke	Key.backspace	n/a
423.9715	0.075	847943	keystroke	Key.backspace	n/a
424.1215	0.075	848243	keystroke	Key.backspace	n/a
424.2865	0.075	848573	keystroke	Key.backspace	n/a
424.6765	0.06	849353	keystroke	Key.backspace	n/a
425.0965	0.0595	850193	keystroke	s	n/a
425.172	0.0745	850344	keystroke	o	n/a
425.3215	0.075	850643	keystroke	l	n/a
425.3815	0.06	850763	keystroke	e	n/a
425.5015	0.0895	851003	keystroke	Key.space	n/a
425.6215	0.0745	851243	keystroke	f	n/a
425.7265	0.0755	851453	keystroke	i	n/a
425.8765	0.0605	851753	keystroke	s	n/a
425.9665	0.06	851933	keystroke	h	n/a
426.087	0.09	852174	keystroke	e	n/a
426.2665	0.0895	852533	keystroke	r	n/a
426.3415	0.1045	852683	keystroke	Key.space	n/a
426.5065	0.06	853013	keystroke	s	n/a
426.626	0.075	853252	keystroke	e	n/a
426.716	0.061	853432	keystroke	l	n/a
426.852	0.089	853704	keystroke	l	n/a
427.061	0.1505	854122	keystroke	i	n/a
427.136	0.135	854272	keystroke	n	n/a
427.2265	0.075	854453	keystroke	g	n/a
427.421	0.09	854842	keystroke	Key.enter	n/a
427.5185	5.814	855037	prompt	n/a	blade ones murphy advise\n
428.4715	0.075	856943	keystroke	v	n/a
428.8315	0.075	857663	keystroke	Key.backspace	n/a
428.9815	0.075	857963	keystroke	b	n/a
429.1165	0.0755	858233	keystroke	l	n/a
429.297	0.1045	858594	keystroke	a	n/a
429.5515	0.075	859103	keystroke	d	n/a
429.716	0.06	859432	keystroke	e	n/a
429.791	0.09	859582	keystroke	Key.space	n/a
430.631	0.12	861262	keystroke	o	n/a
430.691	0.1205	861382	keystroke	n	n/a
430.781	0.075	861562	keystroke	e	n/a
430.947	0.105	861894	keystroke	s	n/a
431.021	0.195	862042	keystroke	Key.space	n/a
431.171	0.12	862342	keystroke	m	n/a
431.4415	0.0605	862883	keystroke	u	n/a
431.546	0.0755	863092	keystroke	r	n/a
431.652	0.0595	863304	keystroke	p	n/a
431.8915	0.045	863783	keystroke	h	n/a
432.012	0.0745	864024	keystroke	y	n/a
432.1615	0.105	864323	keystroke	Key.space	n/a
432.2815	0.09	864563	keystroke	a	n/a
432.506	0.075	865012	keystroke	d	n/a
432.5965	0.0895	865193	keystroke	v	n/a
432.822	0.059	865644	keystroke	i	n/a
432.9715	0.075	865943	keystroke	s	n/a
433.1515	0.06	866303	keystroke	e	n/a
433.2565	0.075	866513	keystroke	Key.enter	n/a
433.336	6.4475	866672	prompt	n/a	bottles bars toys watts\n
434.217	0.0745	868434	keystroke	b	n/a
434.3665	0.0905	868733	keystroke	o	n/a
434.502	0.0445	869004	keystroke	t	n/a
434.6665	0.105	869333	keystroke	t	n/a
435.1315	0.0755	870263	keystroke	l	n/a
435.297	0.075	870594	keystroke	e	n/a
435.446	0.105	870892	keystroke	s	n/a
435.6265	0.09	871253	keystroke	Key.space	n/a
435.8215	0.06	871643	keystroke	b	n/a
435.9415	0.1055	871883	keystroke	a	n/a
436.3015	0.075	872603	keystroke	r	n/a
436.526	0.0755	873052	keystroke	s	n/a
436.631	0.09	873262	keystroke	Key.space	n/a
437.021	0.075	874042	keystroke	b	n/a
437.3515	0.075	874703	keystroke	Key.backspace	n/a
437.5465	0.075	875093	keystroke	t	n/a
437.666	0.061	875332	keystroke	o	n/a
437.936	0.061	875872	keystroke	y	n/a
438.116	0.075	876232	keystroke	s	n/a
438.281	0.1055	876562	keystroke	Key.space	n/a
438.881	0.0905	877762	keystroke	w	n/a
439.032	0.1195	878064	keystroke	a	n/a
439.1665	0.03	878333	keystroke	t	n/a
439.3015	0.09	878603	keystroke	t	n/a
439.5115	0.075	879023	keystroke	s	n/a
439.6615	0.12	879323	keystroke	Key.enter	n/a
439.795	6.033	879590	prompt	n/a	ride trivia better whose\n
440.7265	0.075	881453	keystroke	r	n/a
440.862	0.0895	881724	keystroke	i	n/a
441.102	0.0895	882204	keystroke	e	n/a
441.251	0.0905	882502	keystroke	Key.space	n/a
441.357	0.0745	882714	keystroke	t	n/a
441.5225	0.0735	883045	keystroke	r	n/a
441.6115	0.1045	883223	keystroke	i	n/a
442.2115	0.0445	884423	keystroke	=	n/a
442.3765	0.045	884753	keystroke	Key.backspace	n/a
442.4815	0.06	884963	keystroke	Key.backspace	n/a
442.7065	0.06	885413	keystroke	Key.backspace	n/a
442.8565	0.06	885713	keystroke	Key.backspace	n/a
443.0065	0.09	886013	keystroke	Key.backspace	n/a
443.1715	0.0755	886343	keystroke	Key.backspace	n/a
443.3225	0.074	886645	keystroke	d	n/a
443.4715	0.09	886943	keystroke	e	n/a
443.5765	0.09	887153	keystroke	Key.space	n/a
443.862	0.0295	887724	keystroke	y	n/a
444.011	0.0905	888022	keystroke	r	n/a
444.5065	0.045	889013	keystroke	Key.backspace	n/a
444.6265	0.075	889253	keystroke	Key.backspace	n/a
444.8515	0.06	889703	keystroke	t	n/a
445.0015	0.105	890003	keystroke	r	n/a
445.1515	0.075	890303	keystroke	i	n/a
445.2715	0.0605	890543	keystroke	v	n/a
445.3615	0.0905	890723	keystroke	i	n/a
445.5575	0.074	891115	keystroke	a	n/a
445.7365	0.09	891473	keystroke	Key.enter	n/a
445.833	52.961	891666	prompt	n/a	testimonials botswana hometown workflow\n
447.012	0.0895	894024	keystroke	t	n/a
447.1315	0.075	894263	keystroke	e	n/a
447.2965	0.0895	894593	keystroke	s	n/a
447.506	0.06	895012	keystroke	t	n/a
447.612	0.1045	895224	keystroke	i	n/a
447.701	0.105	895402	keystroke	m	n/a
448.1965	0.12	896393	keystroke	o	n/a
448.3765	0.135	896753	keystroke	n	n/a
448.7815	0.105	897563	keystroke	i	n/a
449.351	0.0895	898702	keystroke	a	n/a
449.4555	0.076	898911	keystroke	l	n/a
449.5915	0.075	899183	keystroke	s	n/a
449.6815	0.09	899363	keystroke	Key.space	n/a
450.342	0.074	900684	keystroke	b	n/a
450.476	0.0905	900952	keystroke	o	n/a
450.5815	0.0745	901163	keystroke	t	n/a
450.8215	0.0605	901643	keystroke	s	n/a
451.0465	0.0445	902093	keystroke	w	n/a
451.061	0.015	902122	keystroke	q	n/a
451.212	0.075	902424	keystroke	a	n/a
451.361	0.09	902722	keystroke	n	n/a
452.021	0.0905	904042	keystroke	Key.backspace	n/a
452.156	0.06	904312	keystroke	Key.backspace	n/a
452.291	0.0755	904582	keystroke	Key.backspace	n/a
452.4115	0.0905	904823	keystroke	a	n/a
452.576	0.0605	905152	keystroke	b	n/a
452.696	0.046	905392	keystroke	a	n/a
452.8465	0.0755	905693	keystroke	Key.space	n/a
456.2545	0	912509	keystroke	Key.backspace	n/a
456.3265	0.075	912653	keystroke	Key.backspace	n/a
456.461	0.075	912922	keystroke	Key.backspace	n/a
457.5115	0.0755	915023	keystroke	n	n/a
457.6025	0.0895	915205	keystroke	s	n/a
457.766	0.09	915532	keystroke	Key.space	n/a
458.4265	0.045	916853	keystroke	Key.f12	n/a
458.5915	0.015	917183	keystroke	=	n/a
458.7265	0.075	917453	keystroke	Key.backspace	n/a
458.8765	0.06	917753	keystroke	Key.backspace	n/a
458.9955	0.0605	917991	keystroke	Key.backspace	n/a
461.428	0	922856	keystroke	Key.f11	n/a
463.7535	0.0135	927507	keystroke	Key.f11	n/a
464.321	0.12	928642	keystroke	Key.esc	n/a
464.966	0.0755	929932	keystroke	Key.esc	n/a
465.552	0.1195	931104	keystroke	Key.esc	n/a
471.284	0.001	942568	keystroke	Key.backspace	n/a
471.371	0.075	942742	keystroke	Key.backspace	n/a
471.387	0.044	942774	keystroke	=	n/a
471.506	0.06	943012	keystroke	Key.backspace	n/a
472.602	0.0595	945204	keystroke	a	n/a
472.7065	0.0455	945413	keystroke	Key.space	n/a
475.348	0.0005	950696	keystroke	g	n/a
475.587	0.0595	951174	keystroke	=	n/a
475.857	0.09	951714	keystroke	h	n/a
476.067	0.1045	952134	keystroke	o	n/a
476.157	0.1345	952314	keystroke	m	n/a
476.2465	0.06	952493	keystroke	e	n/a
476.472	0.0745	952944	keystroke	t	n/a
476.5615	0.03	953123	keystroke	o	n/a
476.7725	0.074	953545	keystroke	w	n/a
476.9365	0.1355	953873	keystroke	n	n/a
477.0265	0.12	954053	keystroke	Key.space	n/a
478.062	0.045	956124	keystroke	=	n/a
478.212	0.045	956424	keystroke	=	n/a
478.3625	0.0445	956725	keystroke	=	n/a
478.482	0.06	956964	keystroke	=	n/a
478.602	0.06	957204	keystroke	=	n/a
479.037	0.03	958074	keystroke	Key.backspace	n/a
479.202	0.0445	958404	keystroke	Key.backspace	n/a
479.396	0.045	958792	keystroke	Key.backspace	n/a
479.5765	0.045	959153	keystroke	Key.backspace	n/a
479.7865	0.045	959573	keystroke	Key.backspace	n/a
479.997	0.045	959994	keystroke	Key.backspace	n/a
480.2215	0.0605	960443	keystroke	Key.backspace	n/a
480.4615	0.0455	960923	keystroke	Key.backspace	n/a
480.687	0.0445	961374	keystroke	Key.backspace	n/a
480.9275	0.059	961855	keystroke	Key.backspace	n/a
481.167	0.0595	962334	keystroke	Key.backspace	n/a
481.4365	0.06	962873	keystroke	Key.backspace	n/a
481.707	0.0595	963414	keystroke	Key.f12	n/a
481.9765	0.0595	963953	keystroke	Key.backspace	n/a
482.2315	0.045	964463	keystroke	Key.backspace	n/a
482.5015	0.06	965003	keystroke	Key.backspace	n/a
483.5515	0.165	967103	keystroke	v	n/a
491.834	0.0005	983668	keystroke	Key.backspace	n/a
491.9365	0.0605	983873	keystroke	Key.backspace	n/a
492.117	0.0595	984234	keystroke	Key.backspace	n/a
492.312	0.06	984624	keystroke	Key.backspace	n/a
493.452	0.09	986904	keystroke	Key.space	n/a
495.3875	0.0435	990775	keystroke	h	n/a
495.5525	0.12	991105	keystroke	o	n/a
495.6265	0.1205	991253	keystroke	m	n/a
495.762	0.09	991524	keystroke	e	n/a
496.152	0.091	992304	keystroke	t	n/a
496.272	0.09	992544	keystroke	o	n/a
496.452	0.06	992904	keystroke	w	n/a
496.6025	0.1195	993205	keystroke	n	n/a
496.677	0.12	993354	keystroke	Key.space	n/a
497.412	0.0745	994824	keystroke	w	n/a
497.5765	0.075	995153	keystroke	o	n/a
497.7565	0.076	995513	keystroke	r	n/a
497.9065	0.0905	995813	keystroke	k	n/a
498.1915	0.076	996383	keystroke	f	n/a
498.3125	0.074	996625	keystroke	l	n/a
498.462	0.1205	996924	keystroke	o	n/a
498.597	0.06	997194	keystroke	w	n/a
498.732	0.059	997464	keystroke	Key.enter	n/a
498.8055	7.173	997611	prompt	n/a	checkout receive alert growth\n
499.6775	0.059	999355	keystroke	c	n/a
499.767	0.0745	999534	keystroke	h	n/a
499.8715	0.076	999743	keystroke	e	n/a
500.037	0.09	1000074	keystroke	c	n/a
500.1565	0.076	1000313	keystroke	k	n/a
500.3365	0.0605	1000673	keystroke	o	n/a
500.502	0.0745	1001004	keystroke	u	n/a
500.6215	0.075	1001243	keystroke	t	n/a
500.7425	0.074	1001485	keystroke	Key.space	n/a
501.1175	0.075	1002235	keystroke	r	n/a
501.2675	0.09	1002535	keystroke	e	n/a
501.4765	0.0755	1002953	keystroke	c	n/a
501.6415	0.0755	1003283	keystroke	e	n/a
501.7765	0.076	1003553	keystroke	i	n/a
501.9715	0.076	1003943	keystroke	v	n/a
502.0615	0.06	1004123	keystroke	e	n/a
502.2265	0.0905	1004453	keystroke	Key.space	n/a
502.932	0.075	1005864	keystroke	a	n/a
503.082	0.0755	1006164	keystroke	l	n/a
503.382	0.089	1006764	keystroke	e	n/a
503.5465	0.105	1007093	keystroke	r	n/a
503.772	0.09	1007544	keystroke	t	n/a
503.907	0.0605	1007814	keystroke	Key.space	n/a
504.042	0.105	1008084	keystroke	g	n/a
504.162	0.075	1008324	keystroke	r	n/a
504.297	0.06	1008594	keystroke	o	n/a
504.462	0.09	1008924	keystroke	w	n/a
504.702	0.06	1009404	keystroke	t	n/a
504.7765	0.09	1009553	keystroke	h	n/a
505.947	0.03	1011894	keystroke	Key.enter	n/a
505.985	4.9885	1011970	prompt	n/a	bars entity buzz legal\n
506.8925	0.0595	1013785	keystroke	b	n/a
506.997	0.09	1013994	keystroke	a	n/a
507.222	0.0605	1014444	keystroke	r	n/a
507.4175	0.075	1014835	keystroke	s	n/a
507.5075	0.104	1015015	keystroke	Key.space	n/a
507.6565	0.061	1015313	keystroke	e	n/a
507.7765	0.09	1015553	keystroke	n	n/a
508.0615	0.075	1016123	keystroke	t	n/a
508.2115	0.0905	1016423	keystroke	i	n/a
508.3465	0.075	1016693	keystroke	t	n/a
508.4815	0.0745	1016963	keystroke	y	n/a
508.632	0.1045	1017264	keystroke	Key.space	n/a
509.427	0.1195	1018854	keystroke	b	n/a
509.532	0.09	1019064	keystroke	u	n/a
509.7415	0.0455	1019483	keystroke	z	n/a
509.8925	0.1045	1019785	keystroke	z	n/a
509.9815	0.09	1019963	keystroke	Key.space	n/a
510.132	0.09	1020264	keystroke	l	n/a
510.2365	0.0755	1020473	keystroke	e	n/a
510.4015	0.06	1020803	keystroke	g	n/a
510.5365	0.0605	1021073	keystroke	a	n/a
510.657	0.0755	1021314	keystroke	l	n/a
510.8965	0.0755	1021793	keystroke	Key.enter	n/a
510.9775	8.231	1021955	prompt	n/a	frankfurt three explains wives\n
512.023	0.074	1024046	keystroke	f	n/a
512.2025	0.074	1024405	keystroke	r	n/a
512.427	0.0745	1024854	keystroke	a	n/a
512.5165	0.1355	1025033	keystroke	n	n/a
512.5925	0.119	1025185	keystroke	k	n/a
512.7425	0.074	1025485	keystroke	f	n/a
512.8615	0.076	1025723	keystroke	u	n/a
512.9675	0.09	1025935	keystroke	r	n/a
513.147	0.09	1026294	keystroke	t	n/a
513.252	0.09	1026504	keystroke	Key.space	n/a
513.597	0.075	1027194	keystroke	t	n/a
513.6565	0.105	1027313	keystroke	h	n/a
513.8215	0.0605	1027643	keystroke	r	n/a
514.617	0.06	1029234	keystroke	e	n/a
514.767	0.0745	1029534	keystroke	e	n/a
514.857	0.1045	1029714	keystroke	Key.space	n/a
514.992	0.0745	1029984	keystroke	e	n/a
515.202	0.075	1030404	keystroke	x	n/a
515.3225	0.1345	1030645	keystroke	p	n/a
515.412	0.089	1030824	keystroke	l	n/a
515.517	0.0745	1031034	keystroke	a	n/a
515.6815	0.105	1031363	keystroke	i	n/a
515.6975	0.074	1031395	keystroke	u	n/a
515.7575	0.1195	1031515	keystroke	n	n/a
515.847	0.0755	1031694	keystroke	s	n/a
516.027	0.0895	1032054	keystroke	Key.space	n/a
516.5815	0.03	1033163	keystroke	Key.backspace	n/a
516.687	0.059	1033374	keystroke	Key.backspace	n/a
516.8365	0.06	1033673	keystroke	Key.backspace	n/a
516.9715	0.09	1033943	keystroke	Key.backspace	n/a
517.5275	0.0735	1035055	keystroke	n	n/a
517.662	0.075	1035324	keystroke	s	n/a
517.751	0.06	1035502	keystroke	Key.space	n/a
517.857	0.059	1035714	keystroke	w	n/a
517.9325	0.0885	1035865	keystroke	i	n/a
518.1725	0.0895	1036345	keystroke	v	n/a
518.2775	0.0745	1036555	keystroke	e	n/a
518.457	0.075	1036914	keystroke	s	n/a
519.147	0.06	1038294	keystroke	Key.enter	n/a
519.213	7.3905	1038426	prompt	n/a	sept happens needn't comes\n
519.9425	0.0745	1039885	keystroke	s	n/a
520.122	0.075	1040244	keystroke	e	n/a
520.212	0.075	1040424	keystroke	p	n/a
520.377	0.0755	1040754	keystroke	t	n/a
520.497	0.105	1040994	keystroke	Key.space	n/a
521.202	0.06	1042404	keystroke	h	n/a
521.3075	0.09	1042615	keystroke	a	n/a
521.607	0.0455	1043214	keystroke	p	n/a
521.7415	0.09	1043483	keystroke	p	n/a
521.8915	0.075	1043783	keystroke	e	n/a
522.0425	0.059	1044085	keystroke	n	n/a
522.1315	0.076	1044263	keystroke	s	n/a
522.2665	0.0905	1044533	keystroke	Key.space	n/a
522.7765	0.076	1045553	keystroke	n	n/a
523.032	0.0745	1046064	keystroke	e	n/a
523.6615	0.0755	1047323	keystroke	e	n/a
523.872	0.075	1047744	keystroke	d	n/a
524.0065	0.0905	1048013	keystroke	n	n/a
524.7265	0.06	1049453	keystroke	'	n/a
524.8915	0.03	1049783	keystroke	t	n/a
525.0265	0.075	1050053	keystroke	Key.space	n/a
525.5825	0.074	1051165	keystroke	c	n/a
525.7315	0.135	1051463	keystroke	o	n/a
525.8215	0.12	1051643	keystroke	m	n/a
525.9565	0.0755	1051913	keystroke	e	n/a
526.2865	0.1055	1052573	keystroke	s	n/a
526.5115	0.09	1053023	keystroke	Key.enter	n/a
526.6075	14.712	1053215	prompt	n/a	institute thesaurus insects housewives\n
527.6375	0.0895	1055275	keystroke	i	n/a
527.712	0.075	1055424	keystroke	n	n/a
527.802	0.0455	1055604	keystroke	s	n/a
528.0125	0.0445	1056025	keystroke	t	n/a
528.282	0.0895	1056564	keystroke	i	n/a
528.822	0.075	1057644	keystroke	t	n/a
529.017	0.074	1058034	keystroke	u	n/a
529.242	0.0605	1058484	keystroke	e	n/a
529.4975	0.1045	1058995	keystroke	s	n/a
529.617	0.075	1059234	keystroke	Key.space	n/a
530.337	0.0595	1060674	keystroke	Key.backspace	n/a
530.4865	0.0605	1060973	keystroke	Key.backspace	n/a
530.637	0.0895	1061274	keystroke	Key.backspace	n/a
531.7615	0.045	1063523	keystroke	Key.backspace	n/a
532.872	0.0745	1065744	keystroke	u	n/a
533.0825	0.074	1066165	keystroke	t	n/a
533.2165	0.09	1066433	keystroke	e	n/a
533.3815	0.106	1066763	keystroke	s	n/a
533.502	0.074	1067004	keystroke	Key.space	n/a
534.102	0.075	1068204	keystroke	t	n/a
534.207	0.0755	1068414	keystroke	h	n/a
534.3125	0.074	1068625	keystroke	e	n/a
534.5825	0.044	1069165	keystroke	s	n/a
534.7615	0.0755	1069523	keystroke	a	n/a
534.8815	0.09	1069763	keystroke	u	n/a
535.1975	0.0595	1070395	keystroke	r	n/a
535.3615	0.075	1070723	keystroke	u	n/a
535.482	0.0595	1070964	keystroke	s	n/a
535.6015	0.0905	1071203	keystroke	Key.space	n/a
536.6665	0.105	1073333	keystroke	i	n/a
536.7265	0.12	1073453	keystroke	n	n/a
536.817	0.075	1073634	keystroke	s	n/a
536.9825	0.089	1073965	keystroke	e	n/a
537.1915	0.075	1074383	keystroke	c	n/a
537.342	0.09	1074684	keystroke	t	n/a
537.4475	0.074	1074895	keystroke	s	n/a
537.5965	0.09	1075193	keystroke	Key.space	n/a
537.987	0.06	1075974	keystroke	h	n/a
538.197	0.045	1076394	keystroke	o	n/a
538.362	0.06	1076724	keystroke	u	n/a
538.452	0.074	1076904	keystroke	s	n/a
538.6025	0.09	1077205	keystroke	e	n/a
538.916	0.0305	1077832	keystroke	Key.backspace	n/a
539.052	0.044	1078104	keystroke	Key.backspace	n/a
539.187	0.075	1078374	keystroke	Key.backspace	n/a
540.012	0.0755	1080024	keystroke	u	n/a
540.1315	0.075	1080263	keystroke	s	n/a
540.2815	0.0615	1080563	keystroke	e	n/a
540.477	0.075	1080954	keystroke	w	n/a
540.611	0.076	1081222	keystroke	i	n/a
540.8665	0.045	1081733	keystroke	v	n/a
540.9275	0.075	1081855	keystroke	e	n/a
541.1075	0.075	1082215	keystroke	s	n/a
541.257	0.06	1082514	keystroke	Key.enter	n/a
541.335	6.973	1082670	prompt	n/a	commit assume selecting alcohol\n
542.0815	0.06	1084163	keystroke	c	n/a
542.1715	0.06	1084343	keystroke	o	n/a
542.3665	0.0755	1084733	keystroke	m	n/a
542.472	0.135	1084944	keystroke	m	n/a
543.252	0.06	1086504	keystroke	i	n/a
543.4165	0.06	1086833	keystroke	t	n/a
543.522	0.075	1087044	keystroke	Key.space	n/a
543.7025	0.074	1087405	keystroke	a	n/a
543.882	0.0595	1087764	keystroke	s	n/a
544.017	0.1195	1088034	keystroke	s	n/a
544.1215	0.06	1088243	keystroke	u	n/a
544.317	0.09	1088634	keystroke	m	n/a
544.437	0.06	1088874	keystroke	e	n/a
544.5415	0.1055	1089083	keystroke	Key.space	n/a
544.692	0.105	1089384	keystroke	s	n/a
544.8575	0.0745	1089715	keystroke	e	n/a
544.977	0.075	1089954	keystroke	l	n/a
545.082	0.075	1090164	keystroke	e	n/a
545.277	0.105	1090554	keystroke	c	n/a
545.5025	0.0595	1091005	keystroke	t	n/a
545.5915	0.076	1091183	keystroke	i	n/a
545.742	0.12	1091484	keystroke	o	n/a
545.8165	0.105	1091633	keystroke	n	n/a
546.0115	0.105	1092023	keystroke	Key.space	n/a
546.7025	0.074	1093405	keystroke	a	n/a
546.868	0.0595	1093736	keystroke	l	n/a
547.0465	0.075	1094093	keystroke	c	n/a
547.617	0.075	1095234	keystroke	o	n/a
547.767	0.06	1095534	keystroke	h	n/a
547.887	0.075	1095774	keystroke	o	n/a
548.037	0.105	1096074	keystroke	l	n/a
548.247	0.06	1096494	keystroke	Key.enter	n/a
548.3175	11.421	1096635	prompt	n/a	lexmark senate unlock bandwidth\n
549.117	0.075	1098234	keystroke	l	n/a
549.312	0.09	1098624	keystroke	e	n/a
549.5375	0.0745	1099075	keystroke	x	n/a
549.687	0.06	1099374	keystroke	m	n/a
549.822	0.075	1099644	keystroke	a	n/a
550.077	0.045	1100154	keystroke	r	n/a
550.2125	0.089	1100425	keystroke	k	n/a
550.3175	0.1045	1100635	keystroke	Key.space	n/a
550.7065	0.075	1101413	keystroke	s	n/a
550.902	0.0745	1101804	keystroke	e	n/a
551.0365	0.0605	1102073	keystroke	n	n/a
552.2675	0.029	1104535	keystroke	a	n/a
552.387	0.0605	1104774	keystroke	t	n/a
552.4915	0.046	1104983	keystroke	a	n/a
553.332	0.09	1106664	keystroke	Key.backspace	n/a
553.5715	0.061	1107143	keystroke	e	n/a
553.6915	0.0905	1107383	keystroke	Key.space	n/a
554.982	0.1355	1109964	keystroke	u	n/a
555.057	0.135	1110114	keystroke	n	n/a
555.2975	0.0595	1110595	keystroke	l	n/a
555.447	0.0755	1110894	keystroke	o	n/a
555.582	0.06	1111164	keystroke	c	n/a
555.6565	0.1205	1111313	keystroke	k	n/a
555.8215	0.1205	1111643	keystroke	Key.space	n/a
556.0775	0.0895	1112155	keystroke	b	n/a
556.182	0.0905	1112364	keystroke	a	n/a
556.317	0.0745	1112634	keystroke	n	n/a
556.407	0.0745	1112814	keystroke	d	n/a
556.617	0.075	1113234	keystroke	w	n/a
557.352	0.045	1114704	keystroke	i	n/a
557.562	0.06	1115124	keystroke	d	n/a
557.817	0.045	1115634	keystroke	=	n/a
557.967	0.06	1115934	keystroke	Key.backspace	n/a
558.087	0.09	1116174	keystroke	Key.backspace	n/a
558.356	0.016	1116712	keystroke	Key.backspace	n/a
559.017	0.075	1118034	keystroke	i	n/a
559.1525	0.0745	1118305	keystroke	d	n/a
559.362	0.06	1118724	keystroke	t	n/a
559.4375	0.09	1118875	keystroke	h	n/a
559.677	0.06	1119354	keystroke	Key.enter	n/a
559.743	8.1855	1119486	prompt	n/a	favorites theology knowledge break\n
560.5615	0.06	1121123	keystroke	f	n/a
560.6975	0.0895	1121395	keystroke	a	n/a
560.7565	0.09	1121513	keystroke	v	n/a
560.9975	0.0595	1121995	keystroke	o	n/a
561.116	0.0605	1122232	keystroke	r	n/a
561.2075	0.075	1122415	keystroke	i	n/a
561.3115	0.076	1122623	keystroke	t	n/a
561.5065	0.076	1123013	keystroke	e	n/a
561.6865	0.09	1123373	keystroke	s	n/a
561.8065	0.0755	1123613	keystroke	Key.space	n/a
562.107	0.0895	1124214	keystroke	t	n/a
562.2265	0.1055	1124453	keystroke	h	n/a
562.3465	0.0755	1124693	keystroke	e	n/a
562.512	0.075	1125024	keystroke	o	n/a
562.677	0.075	1125354	keystroke	l	n/a
562.8125	0.0595	1125625	keystroke	o	n/a
562.9165	0.09	1125833	keystroke	g	n/a
563.052	0.105	1126104	keystroke	y	n/a
563.202	0.105	1126404	keystroke	Key.space	n/a
564.6725	0.119	1129345	keystroke	k	n/a
564.7165	0.21	1129433	keystroke	n	n/a
564.8965	0.1355	1129793	keystroke	o	n/a
565.1515	0.121	1130303	keystroke	w	n/a
565.4075	0.1045	1130815	keystroke	l	n/a
565.587	0.09	1131174	keystroke	e	n/a
565.767	0.105	1131534	keystroke	d	n/a
565.887	0.06	1131774	keystroke	g	n/a
565.9915	0.091	1131983	keystroke	e	n/a
566.142	0.09	1132284	keystroke	Key.space	n/a
566.937	0.105	1133874	keystroke	b	n/a
567.1465	0.0605	1134293	keystroke	r	n/a
567.312	0.075	1134624	keystroke	e	n/a
567.537	0.06	1135074	keystroke	a	n/a
567.657	0.09	1135314	keystroke	k	n/a
567.852	0.075	1135704	keystroke	Key.enter	n/a
567.933	10.3005	1135866	prompt	n/a	trinidad jacob reported restrictions\n
569.0965	0.075	1138193	keystroke	t	n/a
569.2765	0.045	1138553	keystroke	r	n/a
569.3215	0.09	1138643	keystroke	i	n/a
569.4265	0.1805	1138853	keystroke	n	n/a
569.562	0.12	1139124	keystroke	i	n/a
569.9515	0.09	1139903	keystroke	d	n/a
570.2215	0.06	1140443	keystroke	a	n/a
570.4015	0.0755	1140803	keystroke	d	n/a
570.5215	0.105	1141043	keystroke	Key.space	n/a
572.577	0.06	1145154	keystroke	j	n/a
572.682	0.06	1145364	keystroke	a	n/a
572.922	0.075	1145844	keystroke	c	n/a
573.027	0.06	1146054	keystroke	o	n/a
573.207	0.045	1146414	keystroke	b	n/a
573.402	0.089	1146804	keystroke	Key.space	n/a
574.752	0.059	1149504	keystroke	r	n/a
574.916	0.091	1149832	keystroke	e	n/a
575.022	0.029	1150044	keystroke	p	n/a
575.142	0.0595	1150284	keystroke	o	n/a
575.216	0.076	1150432	keystroke	r	n/a
575.367	0.105	1150734	keystroke	t	n/a
575.5765	0.09	1151153	keystroke	e	n/a
575.7415	0.105	1151483	keystroke	d	n/a
575.8475	0.1045	1151695	keystroke	Key.space	n/a
576.0115	0.105	1152023	keystroke	r	n/a
576.222	0.0895	1152444	keystroke	e	n/a
576.417	0.1045	1152834	keystroke	s	n/a
576.6565	0.0745	1153313	keystroke	t	n/a
576.792	0.09	1153584	keystroke	r	n/a
576.9415	0.075	1153883	keystroke	i	n/a
577.0315	0.0905	1154063	keystroke	c	n/a
577.2265	0.076	1154453	keystroke	t	n/a
577.362	0.0895	1154724	keystroke	i	n/a
577.5265	0.1355	1155053	keystroke	o	n/a
577.602	0.1345	1155204	keystroke	n	n/a
577.782	0.09	1155564	keystroke	s	n/a
578.142	0.09	1156284	keystroke	Key.enter	n/a
578.24	7.689	1156480	prompt	n/a	bikini argue basics babies\n
579.2075	0.074	1158415	keystroke	b	n/a
579.3425	0.059	1158685	keystroke	i	n/a
579.4925	0.0745	1158985	keystroke	k	n/a
579.657	0.12	1159314	keystroke	i	n/a
579.7325	0.1345	1159465	keystroke	n	n/a
579.852	0.075	1159704	keystroke	e	n/a
580.032	0.0895	1160064	keystroke	Key.space	n/a
581.2465	0.0455	1162493	keystroke	Key.backspace	n/a
581.382	0.06	1162764	keystroke	Key.backspace	n/a
582.147	0.075	1164294	keystroke	i	n/a
582.312	0.104	1164624	keystroke	Key.space	n/a
582.402	0.09	1164804	keystroke	a	n/a
582.6275	0.0595	1165255	keystroke	r	n/a
582.672	0.075	1165344	keystroke	g	n/a
582.851	0.0755	1165702	keystroke	u	n/a
582.9415	0.0755	1165883	keystroke	e	n/a
583.062	0.105	1166124	keystroke	Key.space	n/a
583.7065	0.075	1167413	keystroke	b	n/a
583.8565	0.0605	1167713	keystroke	a	n/a
584.0215	0.0755	1168043	keystroke	s	n/a
584.157	0.0745	1168314	keystroke	i	n/a
584.247	0.09	1168494	keystroke	c	n/a
584.472	0.0745	1168944	keystroke	s	n/a
584.5765	0.09	1169153	keystroke	Key.space	n/a
584.877	0.0905	1169754	keystroke	b	n/a
585.0415	0.0605	1170083	keystroke	a	n/a
585.1315	0.1205	1170263	keystroke	b	n/a
585.402	0.075	1170804	keystroke	i	n/a
585.5225	0.0745	1171045	keystroke	e	n/a
585.717	0.06	1171434	keystroke	s	n/a
585.852	0.075	1171704	keystroke	Key.enter	n/a
585.9345	7.794	1171869	prompt	n/a	emily requested humanities promotion\n
587.007	0.0755	1174014	keystroke	e	n/a
587.262	0.0905	1174524	keystroke	m	n/a
587.382	0.105	1174764	keystroke	i	n/a
587.5915	0.091	1175183	keystroke	l	n/a
587.757	0.0595	1175514	keystroke	y	n/a
587.8765	0.105	1175753	keystroke	Key.space	n/a
588.8215	0.075	1177643	keystroke	r	n/a
588.9715	0.091	1177943	keystroke	e	n/a
589.227	0.06	1178454	keystroke	q	n/a
589.332	0.045	1178664	keystroke	u	n/a
589.437	0.075	1178874	keystroke	e	n/a
589.602	0.0745	1179204	keystroke	s	n/a
589.7065	0.0905	1179413	keystroke	t	n/a
589.8265	0.0605	1179653	keystroke	s	n/a
589.9465	0.105	1179893	keystroke	Key.space	n/a
590.607	0.06	1181214	keystroke	h	n/a
590.772	0.075	1181544	keystroke	u	n/a
590.967	0.075	1181934	keystroke	m	n/a
591.147	0.0605	1182294	keystroke	a	n/a
591.297	0.1345	1182594	keystroke	n	n/a
591.4015	0.121	1182803	keystroke	i	n/a
591.5665	0.0755	1183133	keystroke	t	n/a
591.687	0.09	1183374	keystroke	i	n/a
591.7915	0.075	1183583	keystroke	e	n/a
591.9565	0.105	1183913	keystroke	s	n/a
592.077	0.1045	1184154	keystroke	Key.space	n/a
592.3315	0.106	1184663	keystroke	p	n/a
592.482	0.0745	1184964	keystroke	r	n/a
592.6015	0.151	1185203	keystroke	o	n/a
592.707	0.1955	1185414	keystroke	m	n/a
592.872	0.135	1185744	keystroke	o	n/a
593.0515	0.075	1186103	keystroke	t	n/a
593.1725	0.119	1186345	keystroke	i	n/a
593.3375	0.1645	1186675	keystroke	o	n/a
593.412	0.151	1186824	keystroke	n	n/a
593.667	0.0595	1187334	keystroke	Key.enter	n/a
593.733	7.7955	1187466	prompt	n/a	peter continues designated horizontal\n
594.9425	0.09	1189885	keystroke	p	n/a
595.1365	0.076	1190273	keystroke	e	n/a
595.302	0.045	1190604	keystroke	t	n/a
595.362	0.091	1190724	keystroke	e	n/a
595.542	0.0755	1191084	keystroke	r	n/a
595.662	0.09	1191324	keystroke	Key.space	n/a
596.1865	0.09	1192373	keystroke	c	n/a
596.322	0.1495	1192644	keystroke	o	n/a
596.4265	0.12	1192853	keystroke	n	n/a
596.5015	0.075	1193003	keystroke	t	n/a
596.637	0.1345	1193274	keystroke	i	n/a
596.7425	0.1645	1193485	keystroke	n	n/a
596.892	0.1645	1193784	keystroke	u	n/a
597.0415	0.0755	1194083	keystroke	e	n/a
597.192	0.105	1194384	keystroke	s	n/a
597.3115	0.105	1194623	keystroke	Key.space	n/a
597.462	0.0595	1194924	keystroke	d	n/a
598.0165	0.06	1196033	keystroke	e	n/a
598.3015	0.0605	1196603	keystroke	s	n/a
598.467	0.09	1196934	keystroke	i	n/a
598.6015	0.0605	1197203	keystroke	g	n/a
598.6915	0.105	1197383	keystroke	n	n/a
598.8715	0.075	1197743	keystroke	a	n/a
598.9615	0.075	1197923	keystroke	t	n/a
599.0815	0.09	1198163	keystroke	e	n/a
599.2465	0.1355	1198493	keystroke	d	n/a
599.367	0.09	1198734	keystroke	Key.space	n/a
599.7425	0.0595	1199485	keystroke	h	n/a
599.9515	0.0455	1199903	keystroke	o	n/a
600.027	0.075	1200054	keystroke	r	n/a
600.162	0.0745	1200324	keystroke	i	n/a
600.432	0.0445	1200864	keystroke	z	n/a
600.552	0.1345	1201104	keystroke	o	n/a
600.6415	0.121	1201283	keystroke	n	n/a
600.822	0.09	1201644	keystroke	t	n/a
601.092	0.0745	1202184	keystroke	a	n/a
601.1965	0.12	1202393	keystroke	l	n/a
601.4365	0.09	1202873	keystroke	Key.enter	n/a
601.5355	10.028	1203071	prompt	n/a	their shanghai double wanting\n
602.307	0.06	1204614	keystroke	t	n/a
602.4115	0.075	1204823	keystroke	h	n/a
602.5165	0.075	1205033	keystroke	e	n/a
602.6515	0.0905	1205303	keystroke	i	n/a
602.787	0.0745	1205574	keystroke	r	n/a
602.9065	0.09	1205813	keystroke	Key.space	n/a
603.2665	0.09	1206533	keystroke	s	n/a
603.387	0.105	1206774	keystroke	h	n/a
603.537	0.0745	1207074	keystroke	a	n/a
603.6265	0.1355	1207253	keystroke	n	n/a
603.8375	0.119	1207675	keystroke	g	n/a
604.062	0.075	1208124	keystroke	a	n/a
604.257	0.0895	1208514	keystroke	i	n/a
604.7065	0.06	1209413	keystroke	Key.backspace	n/a
604.872	0.044	1209744	keystroke	Key.backspace	n/a
605.112	0.074	1210224	keystroke	j	n/a
605.277	0.0755	1210554	keystroke	a	n/a
605.7265	0.075	1211453	keystroke	Key.backspace	n/a
605.8765	0.0905	1211753	keystroke	Key.backspace	n/a
606.5965	0.075	1213193	keystroke	h	n/a
606.747	0.0745	1213494	keystroke	a	n/a
606.8815	0.075	1213763	keystroke	i	n/a
607.0165	0.12	1214033	keystroke	Key.space	n/a
607.7065	0.0755	1215413	keystroke	d	n/a
607.7965	0.075	1215593	keystroke	o	n/a
607.9765	0.0905	1215953	keystroke	u	n/a
608.0815	0.075	1216163	keystroke	b	n/a
608.262	0.0745	1216524	keystroke	l	n/a
608.3215	0.0455	1216643	keystroke	e	n/a
608.517	0.09	1217034	keystroke	Key.space	n/a
608.682	0.075	1217364	keystroke	w	n/a
608.892	0.075	1217784	keystroke	a	n/a
608.997	0.09	1217994	keystroke	n	n/a
609.2815	0.15	1218563	keystroke	i	n/a
609.3865	0.1505	1218773	keystroke	n	n/a
609.732	0.045	1219464	keystroke	Key.backspace	n/a
609.8665	0.0905	1219733	keystroke	Key.backspace	n/a
610.0175	0.0745	1220035	keystroke	t	n/a
610.2265	0.015	1220453	keystroke	u	n/a
610.2715	0.1505	1220543	keystroke	n	n/a
610.632	0.06	1221264	keystroke	Key.backspace	n/a
610.767	0.075	1221534	keystroke	Key.backspace	n/a
611.037	0.15	1222074	keystroke	i	n/a
611.142	0.15	1222284	keystroke	n	n/a
611.232	0.075	1222464	keystroke	g	n/a
611.487	0.074	1222974	keystroke	Key.enter	n/a
611.568	5.71	1223136	prompt	n/a	tourist parties accident paris\n
612.327	0.075	1224654	keystroke	t	n/a
612.432	0.06	1224864	keystroke	o	n/a
612.5975	0.0895	1225195	keystroke	u	n/a
612.7025	0.0745	1225405	keystroke	r	n/a
612.8665	0.09	1225733	keystroke	i	n/a
612.9415	0.105	1225883	keystroke	s	n/a
613.1815	0.0905	1226363	keystroke	t	n/a
613.3465	0.09	1226693	keystroke	Key.space	n/a
613.7525	0.089	1227505	keystroke	p	n/a
613.8715	0.105	1227743	keystroke	a	n/a
614.0965	0.09	1228193	keystroke	r	n/a
614.3065	0.06	1228613	keystroke	t	n/a
614.3965	0.09	1228793	keystroke	i	n/a
614.5165	0.075	1229033	keystroke	e	n/a
614.712	0.09	1229424	keystroke	s	n/a
614.8765	0.135	1229753	keystroke	Key.space	n/a
615.0265	0.075	1230053	keystroke	a	n/a
615.267	0.045	1230534	keystroke	c	n/a
615.3865	0.105	1230773	keystroke	c	n/a
615.507	0.09	1231014	keystroke	i	n/a
615.642	0.0905	1231284	keystroke	d	n/a
615.807	0.1045	1231614	keystroke	e	n/a
615.927	0.09	1231854	keystroke	n	n/a
616.0625	0.09	1232125	keystroke	t	n/a
616.1665	0.06	1232333	keystroke	Key.space	n/a
616.3625	0.1045	1232725	keystroke	p	n/a
616.4965	0.0755	1232993	keystroke	a	n/a
616.6915	0.09	1233383	keystroke	r	n/a
616.8425	0.09	1233685	keystroke	i	n/a
617.007	0.0595	1234014	keystroke	s	n/a
617.2015	0.075	1234403	keystroke	Key.enter	n/a
617.2845	7.419	1234569	prompt	n/a	removed lone protein significance\n
617.9815	0.06	1235963	keystroke	r	n/a
618.1465	0.075	1236293	keystroke	e	n/a
618.237	0.1205	1236474	keystroke	m	n/a
618.3425	0.119	1236685	keystroke	o	n/a
618.4315	0.09	1236863	keystroke	v	n/a
618.657	0.075	1237314	keystroke	e	n/a
618.807	0.09	1237614	keystroke	d	n/a
618.912	0.075	1237824	keystroke	Key.space	n/a
619.1815	0.165	1238363	keystroke	l	n/a
619.4665	0.0905	1238933	keystroke	o	n/a
619.5115	0.15	1239023	keystroke	n	n/a
619.632	0.0755	1239264	keystroke	e	n/a
619.7515	0.105	1239503	keystroke	Key.space	n/a
620.0225	0.1185	1240045	keystroke	p	n/a
620.1865	0.09	1240373	keystroke	r	n/a
620.382	0.06	1240764	keystroke	i	n/a
