onset	duration	sample	value	key	prompt_text
3.084	11.893	6168	prompt	n/a	the quick brown fox jumps over a lazy dog\n
4.2825	0.027	8565	keystroke_t	t	n/a
4.3245	0.09	8649	keystroke_h	h	n/a
4.7295	0.06	9459	keystroke_e	e	n/a
4.8345	0.09	9669	keystroke_Key.space	Key.space	n/a
5.1195	0.09	10239	keystroke_q	q	n/a
5.3	0.105	10600	keystroke_u	u	n/a
5.375	0.09	10750	keystroke_i	i	n/a
5.51	0.09	11020	keystroke_c	c	n/a
5.675	0.0735	11350	keystroke_k	k	n/a
6.634	0.06	13268	keystroke_Key.space	Key.space	n/a
7.4295	0.075	14859	keystroke_b	b	n/a
7.669	0.09	15338	keystroke_r	r	n/a
7.774	0.105	15548	keystroke_o	o	n/a
7.894	0.0905	15788	keystroke_w	w	n/a
8.0895	0.12	16179	keystroke_n	n	n/a
8.2245	0.105	16449	keystroke_Key.space	Key.space	n/a
8.4645	0.06	16929	keystroke_f	f	n/a
8.5695	0.0895	17139	keystroke_o	o	n/a
8.8985	0.076	17797	keystroke_x	x	n/a
9.3635	0.075	18727	keystroke_Key.space	Key.space	n/a
9.8295	0.075	19659	keystroke_j	j	n/a
10.0095	0.075	20019	keystroke_u	u	n/a
10.2195	0.09	20439	keystroke_m	m	n/a
10.3545	0.0905	20709	keystroke_p	p	n/a
10.46	0.09	20920	keystroke_s	s	n/a
10.954	0.1205	21908	keystroke_Key.space	Key.space	n/a
11.1345	0.105	22269	keystroke_o	o	n/a
11.2545	0.09	22509	keystroke_v	v	n/a
11.4045	0.15	22809	keystroke_e	e	n/a
11.5095	0.0905	23019	keystroke_r	r	n/a
11.6	0.1045	23200	keystroke_Key.space	Key.space	n/a
11.6895	0.12	23379	keystroke_a	a	n/a
11.8395	0.075	23679	keystroke_Key.space	Key.space	n/a
11.9895	0.105	23979	keystroke_l	l	n/a
12.4695	0.09	24939	keystroke_a	a	n/a
12.694	0.12	25388	keystroke_z	z	n/a
12.979	0.09	25958	keystroke_y	y	n/a
13.084	0.1055	26168	keystroke_Key.space	Key.space	n/a
13.4145	0.075	26829	keystroke_d	d	n/a
13.9695	0.0155	27939	keystroke_o	o	n/a
14.2245	0.09	28449	keystroke_g	g	n/a
14.884	0.091	29768	keystroke_Key.enter	Key.enter	n/a
14.9805	16.601	29961	prompt	n/a	consecutive designed answered basement\n
16.2045	0.075	32409	keystroke_c	c	n/a
16.3995	0.135	32799	keystroke_o	o	n/a
16.4895	0.09	32979	keystroke_n	n	n/a
16.7145	0.06	33429	keystroke_s	s	n/a
16.9695	0.06	33939	keystroke_e	e	n/a
17.1345	0.09	34269	keystroke_c	c	n/a
17.825	0.0745	35650	keystroke_u	u	n/a
22.612	0.013	45224	keystroke_Key.backspace	Key.backspace	n/a
24.4695	0.0755	48939	keystroke_u	u	n/a
24.6495	0.0755	49299	keystroke_t	t	n/a
24.755	0.09	49510	keystroke_i	i	n/a
24.92	0.12	49840	keystroke_v	v	n/a
25.01	0.105	50020	keystroke_e	e	n/a
25.175	0.09	50350	keystroke_Key.space	Key.space	n/a
25.835	0.135	51670	keystroke_d	d	n/a
25.9245	0.1055	51849	keystroke_e	e	n/a
26.2095	0.075	52419	keystroke_s	s	n/a
27.395	0.0745	54790	keystroke_i	i	n/a
27.5295	0.1205	55059	keystroke_g	g	n/a
27.695	0.12	55390	keystroke_n	n	n/a
27.935	0.105	55870	keystroke_e	e	n/a
28.22	0.09	56440	keystroke_d	d	n/a
28.37	0.15	56740	keystroke_Key.space	Key.space	n/a
28.655	0.12	57310	keystroke_a	a	n/a
28.8045	0.075	57609	keystroke_n	n	n/a
28.8645	0.12	57729	keystroke_s	s	n/a
29.0445	0.2255	58089	keystroke_w	w	n/a
29.1345	0.1805	58269	keystroke_e	e	n/a
29.255	0.15	58510	keystroke_r	r	n/a
29.435	0.165	58870	keystroke_e	e	n/a
29.57	0.135	59140	keystroke_d	d	n/a
29.75	0.12	59500	keystroke_Key.space	Key.space	n/a
30.095	0.105	60190	keystroke_b	b	n/a
30.215	0.15	60430	keystroke_a	a	n/a
30.305	0.09	60610	keystroke_s	s	n/a
30.485	0.075	60970	keystroke_e	e	n/a
30.65	0.075	61300	keystroke_m	m	n/a
31.04	0.09	62080	keystroke_e	e	n/a
31.145	0.105	62290	keystroke_n	n	n/a
31.265	0.09	62530	keystroke_t	t	n/a
31.5045	0.075	63009	keystroke_Key.enter	Key.enter	n/a
31.585	14.8315	63170	prompt	n/a	commonwealth council capability statutory\n
32.1345	0.0755	64269	keystroke_c	c	n/a
32.27	0.135	64540	keystroke_o	o	n/a
32.42	0.0745	64840	keystroke_m	m	n/a
32.5705	0.09	65141	keystroke_m	m	n/a
32.6745	0.135	65349	keystroke_o	o	n/a
32.7655	0.119	65531	keystroke_n	n	n/a
33.6055	0.105	67211	keystroke_w	w	n/a
33.8295	0.075	67659	keystroke_e	e	n/a
33.9795	0.12	67959	keystroke_a	a	n/a
34.4895	0.09	68979	keystroke_l	l	n/a
34.6095	0.106	69219	keystroke_t	t	n/a
34.7455	0.104	69491	keystroke_h	h	n/a
35.1945	0.09	70389	keystroke_Key.space	Key.space	n/a
35.4655	0.104	70931	keystroke_c	c	n/a
35.5705	0.119	71141	keystroke_o	o	n/a
35.6595	0.105	71319	keystroke_n	n	n/a
36.9045	0.045	73809	keystroke_Key.backspace	Key.backspace	n/a
37.1455	0.134	74291	keystroke_u	u	n/a
37.2195	0.121	74439	keystroke_n	n	n/a
37.715	0.075	75430	keystroke_c	c	n/a
38.255	0.0895	76510	keystroke_u	u	n/a
38.4645	0.075	76929	keystroke_k	k	n/a
38.915	0.045	77830	keystroke_Key.backspace	Key.backspace	n/a
39.05	0.06	78100	keystroke_Key.backspace	Key.backspace	n/a
39.26	0.06	78520	keystroke_i	i	n/a
39.455	0.105	78910	keystroke_l	l	n/a
39.68	0.09	79360	keystroke_Key.space	Key.space	n/a
40.175	0.075	80350	keystroke_c	c	n/a
40.73	0.135	81460	keystroke_a	a	n/a
40.895	0.06	81790	keystroke_p	p	n/a
41.06	0.09	82120	keystroke_a	a	n/a
41.375	0.09	82750	keystroke_b	b	n/a
41.525	0.135	83050	keystroke_i	i	n/a
41.72	0.165	83440	keystroke_l	l	n/a
41.825	0.105	83650	keystroke_i	i	n/a
41.945	0.105	83890	keystroke_t	t	n/a
42.095	0.09	84190	keystroke_y	y	n/a
42.47	0.135	84940	keystroke_Key.space	Key.space	n/a
42.77	0.0755	85540	keystroke_s	s	n/a
42.9645	0.106	85929	keystroke_t	t	n/a
43.0855	0.179	86171	keystroke_a	a	n/a
43.3395	0.1055	86679	keystroke_t	t	n/a
44.465	0.0905	88930	keystroke_u	u	n/a
45.2295	0.135	90459	keystroke_t	t	n/a
45.5295	0.09	91059	keystroke_o	o	n/a
45.6345	0.06	91269	keystroke_r	r	n/a
45.8595	0.135	91719	keystroke_y	y	n/a
46.3245	0.09	92649	keystroke_Key.enter	Key.enter	n/a
46.4195	16.9995	92839	prompt	n/a	conservation dictionary acting focusing\n
47.0145	0.0755	94029	keystroke_c	c	n/a
47.135	0.15	94270	keystroke_p	p	n/a
47.51	0.06	95020	keystroke_n	n	n/a
48.2	0.075	96400	keystroke_Key.backspace	Key.backspace	n/a
48.38	0.045	96760	keystroke_Key.backspace	Key.backspace	n/a
48.9645	0.09	97929	keystroke_o	o	n/a
49.0095	0.1055	98019	keystroke_n	n	n/a
49.219	0.0915	98438	keystroke_s	s	n/a
49.4145	0.15	98829	keystroke_e	e	n/a
49.5055	0.119	99011	keystroke_r	r	n/a
50.135	0.12	100270	keystroke_c	c	n/a
50.21	0.15	100420	keystroke_a	a	n/a
50.7345	0.06	101469	keystroke_Key.backspace	Key.backspace	n/a
50.8845	0.045	101769	keystroke_Key.backspace	Key.backspace	n/a
50.9895	0.15	101979	keystroke_v	v	n/a
51.0495	0.18	102099	keystroke_a	a	n/a
51.5895	0.12	103179	keystroke_t	t	n/a
51.6945	0.225	103389	keystroke_i	i	n/a
51.8145	0.12	103629	keystroke_o	o	n/a
51.8595	0.165	103719	keystroke_n	n	n/a
52.0545	0.09	104109	keystroke_Key.space	Key.space	n/a
52.5195	0.075	105039	keystroke_d	d	n/a
52.655	0.06	105310	keystroke_i	i	n/a
52.745	0.075	105490	keystroke_s	s	n/a
53.075	0.06	106150	keystroke_Key.backspace	Key.backspace	n/a
53.15	0.105	106300	keystroke_c	c	n/a
53.465	0.045	106930	keystroke_t	t	n/a
53.54	0.1195	107080	keystroke_o	o	n/a
53.6745	0.075	107349	keystroke_r	r	n/a
54.0345	0.075	108069	keystroke_Key.backspace	Key.backspace	n/a
54.3495	0.075	108699	keystroke_Key.backspace	Key.backspace	n/a
54.6355	0.2545	109271	keystroke_i	i	n/a
54.7695	0.1655	109539	keystroke_o	o	n/a
54.875	0.12	109750	keystroke_n	n	n/a
55.1145	0.1505	110229	keystroke_a	a	n/a
55.355	0.105	110710	keystroke_r	r	n/a
55.7895	0.1055	111579	keystroke_y	y	n/a
56.165	0.105	112330	keystroke_Key.space	Key.space	n/a
56.375	0.09	112750	keystroke_a	a	n/a
56.495	0.105	112990	keystroke_c	c	n/a
56.795	0.075	113590	keystroke_t	t	n/a
57.26	0.06	114520	keystroke_i	i	n/a
57.47	0.075	114940	keystroke_n	n	n/a
58.025	0.12	116050	keystroke_f	f	n/a
58.61	0.09	117220	keystroke_Key.backspace	Key.backspace	n/a
58.8495	0.09	117699	keystroke_g	g	n/a
59.1795	0.12	118359	keystroke_Key.space	Key.space	n/a
60.1405	0.074	120281	keystroke_f	f	n/a
60.2905	0.089	120581	keystroke_o	o	n/a
60.6795	0.091	121359	keystroke_c	c	n/a
60.8295	0.105	121659	keystroke_u	u	n/a
61.8045	0.0905	123609	keystroke_s	s	n/a
61.925	0.12	123850	keystroke_i	i	n/a
62.015	0.105	124030	keystroke_n	n	n/a
62.135	0.075	124270	keystroke_g	g	n/a
63.335	0.075	126670	keystroke_Key.enter	Key.enter	n/a
63.423	13.407	126846	prompt	n/a	upgrades prostate chief correspondence\n
64.43	0.06	128860	keystroke_u	u	n/a
64.655	0.075	129310	keystroke_p	p	n/a
65.1795	0.091	130359	keystroke_g	g	n/a
65.405	0.105	130810	keystroke_r	r	n/a
65.6	0.135	131200	keystroke_a	a	n/a
65.705	0.15	131410	keystroke_d	d	n/a
65.795	0.12	131590	keystroke_e	e	n/a
66.035	0.075	132070	keystroke_s	s	n/a
66.245	0.09	132490	keystroke_Key.space	Key.space	n/a
66.485	0.075	132970	keystroke_p	p	n/a
66.815	0.09	133630	keystroke_r	r	n/a
66.95	0.09	133900	keystroke_o	o	n/a
67.1	0.105	134200	keystroke_s	s	n/a
67.43	0.105	134860	keystroke_t	t	n/a
67.5955	0.135	135191	keystroke_a	a	n/a
68.2405	0.135	136481	keystroke_t	t	n/a
68.3445	0.121	136689	keystroke_e	e	n/a
68.6155	0.045	137231	keystroke_s	s	n/a
69.3195	0.091	138639	keystroke_Key.backspace	Key.backspace	n/a
69.6205	0.1195	139241	keystroke_Key.space	Key.space	n/a
69.905	0.12	139810	keystroke_c	c	n/a
70.085	0.1195	140170	keystroke_h	h	n/a
70.3245	0.075	140649	keystroke_i	i	n/a
70.4445	0.09	140889	keystroke_e	e	n/a
70.7295	0.135	141459	keystroke_f	f	n/a
71.0595	0.12	142119	keystroke_Key.space	Key.space	n/a
71.615	0.09	143230	keystroke_c	c	n/a
71.9155	0.075	143831	keystroke_o	o	n/a
72.0655	0.075	144131	keystroke_r	r	n/a
72.515	0.105	145030	keystroke_r	r	n/a
72.65	0.09	145300	keystroke_e	e	n/a
72.8595	0.09	145719	keystroke_s	s	n/a
73.7	0.09	147400	keystroke_p	p	n/a
73.925	0.09	147850	keystroke_o	o	n/a
74.105	0.105	148210	keystroke_n	n	n/a
75.0805	0.1045	150161	keystroke_d	d	n/a
75.335	0.075	150670	keystroke_e	e	n/a
75.485	0.09	150970	keystroke_n	n	n/a
75.65	0.135	151300	keystroke_c	c	n/a
75.74	0.075	151480	keystroke_e	e	n/a
76.7445	0.075	153489	keystroke_Key.enter	Key.enter	n/a
76.834	7.2025	153668	prompt	n/a	domain snapshot babe accessing\n
77.7205	0.104	155441	keystroke_d	d	n/a
78.0805	0.09	156161	keystroke_o	o	n/a
78.3205	0.06	156641	keystroke_m	m	n/a
78.4555	0.09	156911	keystroke_a	a	n/a
78.6055	0.1045	157211	keystroke_i	i	n/a
78.71	0.18	157420	keystroke_n	n	n/a
78.86	0.12	157720	keystroke_Key.space	Key.space	n/a
79.01	0.09	158020	keystroke_s	s	n/a
79.16	0.09	158320	keystroke_n	n	n/a
79.28	0.075	158560	keystroke_a	a	n/a
79.475	0.09	158950	keystroke_p	p	n/a
79.88	0.075	159760	keystroke_s	s	n/a
80.075	0.135	160150	keystroke_h	h	n/a
80.195	0.135	160390	keystroke_o	o	n/a
80.39	0.135	160780	keystroke_t	t	n/a
80.555	0.075	161110	keystroke_Key.space	Key.space	n/a
80.735	0.1045	161470	keystroke_b	b	n/a
80.8545	0.1055	161709	keystroke_a	a	n/a
81.0195	0.075	162039	keystroke_b	b	n/a
81.14	0.105	162280	keystroke_e	e	n/a
81.3795	0.09	162759	keystroke_Key.space	Key.space	n/a
81.6055	0.195	163211	keystroke_a	a	n/a
81.8005	0.105	163601	keystroke_c	c	n/a
82.0545	0.165	164109	keystroke_c	c	n/a
82.2345	0.136	164469	keystroke_e	e	n/a
82.5045	0.076	165009	keystroke_s	s	n/a
82.7145	0.0755	165429	keystroke_s	s	n/a
82.97	0.135	165940	keystroke_i	i	n/a
83.18	0.09	166360	keystroke_n	n	n/a
83.345	0.075	166690	keystroke_g	g	n/a
83.945	0.09	167890	keystroke_Key.enter	Key.enter	n/a
84.04	12.4545	168080	prompt	n/a	laptops foundation poultry gasoline\n
84.6195	0.0905	169239	keystroke_l	l	n/a
84.74	0.09	169480	keystroke_a	a	n/a
85.1	0.0905	170200	keystroke_p	p	n/a
85.5055	0.1045	171011	keystroke_t	t	n/a
85.685	0.15	171370	keystroke_o	o	n/a
85.775	0.1345	171550	keystroke_p	p	n/a
86.0445	0.105	172089	keystroke_s	s	n/a
86.3595	0.12	172719	keystroke_Key.space	Key.space	n/a
87.0345	0.135	174069	keystroke_g	g	n/a
87.53	0.0905	175060	keystroke_Key.backspace	Key.backspace	n/a
87.6355	0.12	175271	keystroke_f	f	n/a
88.2805	0.104	176561	keystroke_u	u	n/a
88.6705	0.075	177341	keystroke_Key.backspace	Key.backspace	n/a
89.2105	0.09	178421	keystroke_u	u	n/a
89.4505	0.09	178901	keystroke_n	n	n/a
89.8995	0.105	179799	keystroke_d	d	n/a
90.215	0.015	180430	keystroke_a	a	n/a
90.32	0.09	180640	keystroke_t	t	n/a
90.47	0.225	180940	keystroke_i	i	n/a
90.665	0.2245	181330	keystroke_o	o	n/a
90.8445	0.135	181689	keystroke_n	n	n/a
90.9345	0.12	181869	keystroke_Key.space	Key.space	n/a
91.1745	0.09	182349	keystroke_p	p	n/a
91.4295	0.09	182859	keystroke_o	o	n/a
91.7145	0.075	183429	keystroke_u	u	n/a
91.97	0.075	183940	keystroke_l	l	n/a
92.27	0.09	184540	keystroke_t	t	n/a
92.48	0.09	184960	keystroke_r	r	n/a
92.675	0.075	185350	keystroke_y	y	n/a
92.93	0.105	185860	keystroke_Key.space	Key.space	n/a
94.0855	0.03	188171	keystroke_g	g	n/a
94.52	0.18	189040	keystroke_a	a	n/a
94.685	0.135	189370	keystroke_s	s	n/a
95.045	0.105	190090	keystroke_o	o	n/a
95.285	0.075	190570	keystroke_l	l	n/a
95.465	0.1345	190930	keystroke_i	i	n/a
95.57	0.1045	191140	keystroke_n	n	n/a
95.6895	0.121	191379	keystroke_e	e	n/a
96.4105	0.075	192821	keystroke_Key.enter	Key.enter	n/a
96.5	10.089	193000	prompt	n/a	arena accomplished bright causing\n
97.0855	0.105	194171	keystroke_a	a	n/a
97.2805	0.15	194561	keystroke_r	r	n/a
97.3855	0.12	194771	keystroke_e	e	n/a
97.6095	0.105	195219	keystroke_n	n	n/a
97.8045	0.106	195609	keystroke_a	a	n/a
97.9845	0.12	195969	keystroke_Key.space	Key.space	n/a
98.1795	0.091	196359	keystroke_a	a	n/a
98.435	0.09	196870	keystroke_c	c	n/a
98.63	0.09	197260	keystroke_c	c	n/a
98.765	0.15	197530	keystroke_o	o	n/a
98.975	0.09	197950	keystroke_m	m	n/a
99.89	0.03	199780	keystroke_p	p	n/a
100.61	0.09	201220	keystroke_l	l	n/a
100.8645	0.075	201729	keystroke_i	i	n/a
101.0155	0.104	202031	keystroke_s	s	n/a
101.4195	0.09	202839	keystroke_h	h	n/a
101.8095	0.15	203619	keystroke_e	e	n/a
101.9145	0.15	203829	keystroke_d	d	n/a
102.1245	0.075	204249	keystroke_Key.space	Key.space	n/a
102.3345	0.106	204669	keystroke_b	b	n/a
102.5305	0.12	205061	keystroke_r	r	n/a
102.665	0.09	205330	keystroke_i	i	n/a
102.8155	0.1045	205631	keystroke_g	g	n/a
102.9355	0.12	205871	keystroke_h	h	n/a
103.07	0.09	206140	keystroke_t	t	n/a
103.25	0.09	206500	keystroke_Key.space	Key.space	n/a
103.535	0.1205	207070	keystroke_c	c	n/a
103.7155	0.12	207431	keystroke_a	a	n/a
103.8805	0.06	207761	keystroke_u	u	n/a
103.9555	0.09	207911	keystroke_s	s	n/a
104.2255	0.045	208451	keystroke_e	e	n/a
104.84	0.075	209680	keystroke_Key.backspace	Key.backspace	n/a
105.11	0.1045	210220	keystroke_i	i	n/a
105.1995	0.12	210399	keystroke_n	n	n/a
105.3795	0.09	210759	keystroke_g	g	n/a
106.5195	0.06	213039	keystroke_Key.enter	Key.enter	n/a
106.5935	6.7305	213187	prompt	n/a	lovely books reform worth\n
107.135	0.075	214270	keystroke_l	l	n/a
107.33	0.09	214660	keystroke_o	o	n/a
107.465	0.135	214930	keystroke_v	v	n/a
107.585	0.12	215170	keystroke_e	e	n/a
107.795	0.075	215590	keystroke_l	l	n/a
108.08	0.135	216160	keystroke_y	y	n/a
108.23	0.075	216460	keystroke_Key.space	Key.space	n/a
108.395	0.09	216790	keystroke_b	b	n/a
108.6055	0.0745	217211	keystroke_o	o	n/a
108.785	0.12	217570	keystroke_o	o	n/a
108.815	0.135	217630	keystroke_k	k	n/a
108.98	0.105	217960	keystroke_s	s	n/a
109.13	0.105	218260	keystroke_Key.space	Key.space	n/a
109.415	0.15	218830	keystroke_r	r	n/a
109.52	0.12	219040	keystroke_e	e	n/a
109.7	0.15	219400	keystroke_f	f	n/a
109.865	0.09	219730	keystroke_o	o	n/a
110.12	0.09	220240	keystroke_r	r	n/a
110.315	0.105	220630	keystroke_m	m	n/a
110.675	0.105	221350	keystroke_Key.space	Key.space	n/a
110.93	0.09	221860	keystroke_w	w	n/a
111.035	0.09	222070	keystroke_o	o	n/a
111.155	0.105	222310	keystroke_r	r	n/a
111.41	0.12	222820	keystroke_t	t	n/a
111.575	0.165	223150	keystroke_h	h	n/a
113.2395	0.0755	226479	keystroke_Key.enter	Key.enter	n/a
113.328	12.942	226656	prompt	n/a	female clubs nick jefferson\n
114.575	0.12	229150	keystroke_d	d	n/a
114.635	0.09	229270	keystroke_e	e	n/a
114.785	0.1055	229570	keystroke_m	m	n/a
114.9505	0.06	229901	keystroke_a	a	n/a
115.1755	0.105	230351	keystroke_l	l	n/a
115.3855	0.075	230771	keystroke_e	e	n/a
116.03	0.12	232060	keystroke_Key.backspace	Key.backspace	n/a
116.24	0.06	232480	keystroke_Key.backspace	Key.backspace	n/a
116.39	0.045	232780	keystroke_Key.backspace	Key.backspace	n/a
116.525	0.06	233050	keystroke_Key.backspace	Key.backspace	n/a
116.69	0.03	233380	keystroke_Key.backspace	Key.backspace	n/a
116.825	0.075	233650	keystroke_Key.backspace	Key.backspace	n/a
117.425	0.105	234850	keystroke_f	f	n/a
117.5895	0.0905	235179	keystroke_e	e	n/a
117.9645	0.06	235929	keystroke_m	m	n/a
118.085	0.075	236170	keystroke_a	a	n/a
118.235	0.09	236470	keystroke_l	l	n/a
118.385	0.06	236770	keystroke_e	e	n/a
118.505	0.105	237010	keystroke_Key.space	Key.space	n/a
118.64	0.09	237280	keystroke_c	c	n/a
118.76	0.12	237520	keystroke_l	l	n/a
119.03	0.075	238060	keystroke_u	u	n/a
119.45	0.09	238900	keystroke_b	b	n/a
119.69	0.15	239380	keystroke_s	s	n/a
120.365	0.075	240730	keystroke_Key.space	Key.space	n/a
121.4	0.1195	242800	keystroke_n	n	n/a
121.5045	0.076	243009	keystroke_i	i	n/a
121.6395	0.105	243279	keystroke_c	c	n/a
121.7595	0.15	243519	keystroke_k	k	n/a
121.8645	0.15	243729	keystroke_Key.space	Key.space	n/a
123.0655	0.06	246131	keystroke_j	j	n/a
123.1855	0.075	246371	keystroke_e	e	n/a
124.235	0.075	248470	keystroke_f	f	n/a
124.415	0.075	248830	keystroke_f	f	n/a
124.58	0.12	249160	keystroke_e	e	n/a
124.64	0.1205	249280	keystroke_r	r	n/a
124.955	0.09	249910	keystroke_s	s	n/a
125.105	0.12	250210	keystroke_o	o	n/a
125.21	0.075	250420	keystroke_n	n	n/a
126.1545	0.105	252309	keystroke_Key.enter	Key.enter	n/a
126.274	5.6275	252548	prompt	n/a	simple rough sends martin\n
126.9805	0.075	253961	keystroke_s	s	n/a
127.0705	0.105	254141	keystroke_i	i	n/a
127.2655	0.09	254531	keystroke_m	m	n/a
127.3705	0.135	254741	keystroke_p	p	n/a
127.4605	0.1195	254921	keystroke_l	l	n/a
127.715	0.0755	255430	keystroke_e	e	n/a
127.8955	0.09	255791	keystroke_Key.space	Key.space	n/a
128.1505	0.12	256301	keystroke_r	r	n/a
128.3305	0.135	256661	keystroke_o	o	n/a
128.3905	0.12	256781	keystroke_u	u	n/a
128.5255	0.12	257051	keystroke_g	g	n/a
128.6755	0.09	257351	keystroke_h	h	n/a
128.8705	0.06	257741	keystroke_Key.space	Key.space	n/a
129.4705	0.06	258941	keystroke_s	s	n/a
129.6055	0.1045	259211	keystroke_e	e	n/a
129.725	0.105	259450	keystroke_n	n	n/a
129.815	0.15	259630	keystroke_d	d	n/a
129.95	0.12	259900	keystroke_s	s	n/a
130.16	0.09	260320	keystroke_Key.space	Key.space	n/a
130.355	0.105	260710	keystroke_m	m	n/a
130.475	0.12	260950	keystroke_a	a	n/a
130.64	0.1045	261280	keystroke_r	r	n/a
130.8495	0.0755	261699	keystroke_t	t	n/a
130.985	0.135	261970	keystroke_i	i	n/a
131.09	0.12	262180	keystroke_n	n	n/a
131.8095	0.09	263619	keystroke_Key.enter	Key.enter	n/a
131.904	9.6655	263808	prompt	n/a	reverse restaurant additions virus\n
132.59	0.165	265180	keystroke_r	r	n/a
132.71	0.105	265420	keystroke_e	e	n/a
132.92	0.12	265840	keystroke_v	v	n/a
133.07	0.165	266140	keystroke_e	e	n/a
133.19	0.12	266380	keystroke_r	r	n/a
133.535	0.1055	267070	keystroke_s	s	n/a
133.7455	0.09	267491	keystroke_e	e	n/a
133.9105	0.1345	267821	keystroke_Key.space	Key.space	n/a
134.285	0.1355	268570	keystroke_r	r	n/a
134.36	0.12	268720	keystroke_e	e	n/a
134.6005	0.105	269201	keystroke_s	s	n/a
134.9305	0.075	269861	keystroke_t	t	n/a
135.74	0.105	271480	keystroke_a	a	n/a
135.89	0.0905	271780	keystroke_u	u	n/a
136.1755	0.105	272351	keystroke_r	r	n/a
136.2955	0.12	272591	keystroke_a	a	n/a
136.4305	0.1045	272861	keystroke_n	n	n/a
136.55	0.105	273100	keystroke_t	t	n/a
136.76	0.075	273520	keystroke_Key.space	Key.space	n/a
136.94	0.12	273880	keystroke_a	a	n/a
137.045	0.06	274090	keystroke_d	d	n/a
137.18	0.12	274360	keystroke_d	d	n/a
137.285	0.09	274570	keystroke_i	i	n/a
137.48	0.09	274960	keystroke_t	t	n/a
137.585	0.1955	275170	keystroke_i	i	n/a
137.675	0.1205	275350	keystroke_o	o	n/a
137.7505	0.1195	275501	keystroke_n	n	n/a
137.915	0.075	275830	keystroke_s	s	n/a
138.2305	0.12	276461	keystroke_Key.space	Key.space	n/a
138.8005	0.135	277601	keystroke_c	c	n/a
139.3255	0.09	278651	keystroke_Key.backspace	Key.backspace	n/a
139.4165	0.074	278833	keystroke_v	v	n/a
139.5655	0.09	279131	keystroke_i	i	n/a
139.8205	0.105	279641	keystroke_r	r	n/a
140.0155	0.09	280031	keystroke_u	u	n/a
140.2405	0.03	280481	keystroke_i	i	n/a
140.6905	0.0745	281381	keystroke_Key.backspace	Key.backspace	n/a
140.9755	0.09	281951	keystroke_s	s	n/a
141.4855	0.075	282971	keystroke_Key.enter	Key.enter	n/a
141.574	6.0025	283148	prompt	n/a	costs charity ocean birds\n
142.2655	0.105	284531	keystroke_c	c	n/a
142.3705	0.09	284741	keystroke_o	o	n/a
142.4755	0.09	284951	keystroke_s	s	n/a
142.7305	0.089	285461	keystroke_t	t	n/a
143.1795	0.076	286359	keystroke_s	s	n/a
143.315	0.12	286630	keystroke_Key.space	Key.space	n/a
143.5255	0.1195	287051	keystroke_c	c	n/a
143.675	0.075	287350	keystroke_h	h	n/a
144.08	0.1355	288160	keystroke_a	a	n/a
144.2	0.1055	288400	keystroke_r	r	n/a
144.3955	0.09	288791	keystroke_i	i	n/a
144.545	0.09	289090	keystroke_t	t	n/a
144.755	0.105	289510	keystroke_y	y	n/a
144.965	0.09	289930	keystroke_Key.space	Key.space	n/a
145.145	0.09	290290	keystroke_o	o	n/a
145.325	0.135	290650	keystroke_c	c	n/a
145.43	0.165	290860	keystroke_e	e	n/a
145.565	0.135	291130	keystroke_a	a	n/a
145.73	0.135	291460	keystroke_n	n	n/a
145.88	0.0755	291760	keystroke_Key.space	Key.space	n/a
146.2105	0.09	292421	keystroke_b	b	n/a
146.3755	0.105	292751	keystroke_i	i	n/a
146.5555	0.105	293111	keystroke_r	r	n/a
146.8695	0.181	293739	keystroke_d	d	n/a
147.0205	0.105	294041	keystroke_s	s	n/a
147.5155	0.0595	295031	keystroke_Key.enter	Key.enter	n/a
147.5805	11.4795	295161	prompt	n/a	fuzzy indians maryland branch\n
148.85	0.09	297700	keystroke_f	f	n/a
149.06	0.075	298120	keystroke_u	u	n/a
149.375	0.06	298750	keystroke_z	z	n/a
149.555	0.0605	299110	keystroke_z	z	n/a
149.7505	0.12	299501	keystroke_y	y	n/a
149.9005	0.09	299801	keystroke_Key.space	Key.space	n/a
150.1555	0.12	300311	keystroke_i	i	n/a
150.2605	0.12	300521	keystroke_n	n	n/a
150.4255	0.12	300851	keystroke_c	c	n/a
150.6805	0.075	301361	keystroke_i	i	n/a
151.055	0.06	302110	keystroke_Key.backspace	Key.backspace	n/a
151.205	0.06	302410	keystroke_Key.backspace	Key.backspace	n/a
151.34	0.12	302680	keystroke_d	d	n/a
151.67	0.06	303340	keystroke_i	i	n/a
151.79	0.105	303580	keystroke_a	a	n/a
151.925	0.105	303850	keystroke_n	n	n/a
152.015	0.09	304030	keystroke_s	s	n/a
152.735	0.06	305470	keystroke_Key.space	Key.space	n/a
152.885	0.105	305770	keystroke_m	m	n/a
152.975	0.135	305950	keystroke_a	a	n/a
153.125	0.105	306250	keystroke_r	r	n/a
153.275	0.12	306550	keystroke_l	l	n/a
153.53	0.045	307060	keystroke_u	u	n/a
154.085	0.06	308170	keystroke_Key.backspace	Key.backspace	n/a
154.865	0.06	309730	keystroke_Key.backspace	Key.backspace	n/a
155.63	0.06	311260	keystroke_y	y	n/a
155.855	0.03	311710	keystroke_a	a	n/a
156.1995	0.045	312399	keystroke_Key.backspace	Key.backspace	n/a
156.4695	0.09	312939	keystroke_l	l	n/a
156.6355	0.0745	313271	keystroke_a	a	n/a
156.755	0.09	313510	keystroke_n	n	n/a
156.86	0.0905	313720	keystroke_d	d	n/a
157.4905	0.0895	314981	keystroke_Key.space	Key.space	n/a
157.73	0.105	315460	keystroke_b	b	n/a
157.91	0.105	315820	keystroke_r	r	n/a
158.075	0.12	316150	keystroke_a	a	n/a
158.21	0.105	316420	keystroke_n	n	n/a
158.3	0.09	316600	keystroke_c	c	n/a
158.525	0.105	317050	keystroke_h	h	n/a
158.975	0.075	317950	keystroke_Key.enter	Key.enter	n/a
159.064	8.59	318128	prompt	n/a	autumn third interfaces forecasts\n
159.6505	0.105	319301	keystroke_a	a	n/a
159.8155	0.105	319631	keystroke_u	u	n/a
159.9805	0.105	319961	keystroke_t	t	n/a
160.2505	0.075	320501	keystroke_u	u	n/a
160.4755	0.09	320951	keystroke_m	m	n/a
160.7605	0.09	321521	keystroke_n	n	n/a
161.165	0.105	322330	keystroke_Key.space	Key.space	n/a
161.465	0.12	322930	keystroke_t	t	n/a
161.5705	0.1195	323141	keystroke_h	h	n/a
161.6455	0.09	323291	keystroke_i	i	n/a
161.72	0.09	323440	keystroke_r	r	n/a
161.9455	0.135	323891	keystroke_d	d	n/a
162.11	0.12	324220	keystroke_Key.space	Key.space	n/a
162.4705	0.105	324941	keystroke_i	i	n/a
162.5605	0.09	325121	keystroke_n	n	n/a
162.6355	0.12	325271	keystroke_t	t	n/a
162.7705	0.15	325541	keystroke_e	e	n/a
162.8755	0.105	325751	keystroke_r	r	n/a
163.4005	0.09	326801	keystroke_f	f	n/a
163.5655	0.135	327131	keystroke_a	a	n/a
163.6545	0.181	327309	keystroke_c	c	n/a
163.7745	0.12	327549	keystroke_e	e	n/a
163.9695	0.09	327939	keystroke_s	s	n/a
164.255	0.12	328510	keystroke_Key.space	Key.space	n/a
164.8255	0.06	329651	keystroke_f	f	n/a
164.9295	0.09	329859	keystroke_o	o	n/a
165.2455	0.165	330491	keystroke_r	r	n/a
165.4855	0.12	330971	keystroke_e	e	n/a
165.8905	0.135	331781	keystroke_c	c	n/a
165.9955	0.18	331991	keystroke_a	a	n/a
166.1005	0.15	332201	keystroke_s	s	n/a
166.3705	0.075	332741	keystroke_t	t	n/a
166.67	0.06	333340	keystroke_s	s	n/a
166.745	0.06	333490	keystroke_s	s	n/a
167.24	0.075	334480	keystroke_Key.backspace	Key.backspace	n/a
167.6	0.045	335200	keystroke_Key.enter	Key.enter	n/a
167.6585	8.3395	335317	prompt	n/a	transformation celebration pair amber\n
168.59	0.105	337180	keystroke_t	t	n/a
168.77	0.105	337540	keystroke_r	r	n/a
168.86	0.105	337720	keystroke_a	a	n/a
168.995	0.09	337990	keystroke_n	n	n/a
169.1	0.075	338200	keystroke_s	s	n/a
169.55	0.0895	339100	keystroke_f	f	n/a
169.6405	0.0895	339281	keystroke_o	o	n/a
169.745	0.09	339490	keystroke_r	r	n/a
169.88	0.09	339760	keystroke_m	m	n/a
170.045	0.075	340090	keystroke_a	a	n/a
170.255	0.075	340510	keystroke_t	t	n/a
170.315	0.21	340630	keystroke_i	i	n/a
170.405	0.135	340810	keystroke_o	o	n/a
170.48	0.135	340960	keystroke_n	n	n/a
170.6	0.105	341200	keystroke_Key.space	Key.space	n/a
171.0955	0.09	342191	keystroke_c	c	n/a
171.3055	0.09	342611	keystroke_e	e	n/a
171.4555	0.075	342911	keystroke_l	l	n/a
171.5755	0.075	343151	keystroke_e	e	n/a
172.0255	0.075	344051	keystroke_b	b	n/a
172.4005	0.105	344801	keystroke_r	r	n/a
172.6405	0.075	345281	keystroke_a	a	n/a
172.8345	0.09	345669	keystroke_t	t	n/a
172.9395	0.226	345879	keystroke_i	i	n/a
173.0595	0.09	346119	keystroke_o	o	n/a
173.0895	0.18	346179	keystroke_n	n	n/a
173.315	0.075	346630	keystroke_Key.space	Key.space	n/a
173.51	0.0755	347020	keystroke_p	p	n/a
173.6155	0.105	347231	keystroke_a	a	n/a
173.7355	0.09	347471	keystroke_i	i	n/a
173.8255	0.09	347651	keystroke_r	r	n/a
174.2005	0.09	348401	keystroke_Key.space	Key.space	n/a
174.5605	0.105	349121	keystroke_a	a	n/a
174.755	0.075	349510	keystroke_m	m	n/a
174.965	0.075	349930	keystroke_b	b	n/a
175.055	0.135	350110	keystroke_e	e	n/a
175.145	0.09	350290	keystroke_r	r	n/a
175.895	0.09	351790	keystroke_Key.enter	Key.enter	n/a
175.998	11.636	351996	prompt	n/a	incidence poll auburn interests\n
176.5555	0.075	353111	keystroke_i	i	n/a
176.7505	0.09	353501	keystroke_n	n	n/a
177.3655	0.075	354731	keystroke_c	c	n/a
177.5005	0.0895	355001	keystroke_i	i	n/a
177.815	0.15	355630	keystroke_d	d	n/a
177.95	0.105	355900	keystroke_e	e	n/a
178.1595	0.09	356319	keystroke_n	n	n/a
178.3095	0.136	356619	keystroke_c	c	n/a
178.3845	0.1355	356769	keystroke_e	e	n/a
178.9405	0.075	357881	keystroke_Key.space	Key.space	n/a
179.1355	0.09	358271	keystroke_p	p	n/a
179.5855	0.075	359171	keystroke_i	i	n/a
179.7655	0.075	359531	keystroke_l	l	n/a
180.2005	0.075	360401	keystroke_Key.backspace	Key.backspace	n/a
180.4705	0.09	360941	keystroke_o	o	n/a
181.25	0.075	362500	keystroke_Key.backspace	Key.backspace	n/a
181.46	0.075	362920	keystroke_Key.backspace	Key.backspace	n/a
181.865	0.075	363730	keystroke_o	o	n/a
182.06	0.075	364120	keystroke_l	l	n/a
182.21	0.075	364420	keystroke_l	l	n/a
182.39	0.105	364780	keystroke_Key.space	Key.space	n/a
183.0205	0.12	366041	keystroke_a	a	n/a
183.1555	0.09	366311	keystroke_u	u	n/a
183.6505	0.075	367301	keystroke_b	b	n/a
184.13	0.045	368260	keystroke_u	u	n/a
184.37	0.105	368740	keystroke_r	r	n/a
184.49	0.105	368980	keystroke_n	n	n/a
185.39	0.12	370780	keystroke_Key.space	Key.space	n/a
185.6895	0.1505	371379	keystroke_i	i	n/a
185.8095	0.1205	371619	keystroke_n	n	n/a
185.975	0.1045	371950	keystroke_t	t	n/a
186.1405	0.135	372281	keystroke_e	e	n/a
186.2305	0.15	372461	keystroke_r	r	n/a
186.3655	0.09	372731	keystroke_e	e	n/a
186.6055	0.09	373211	keystroke_s	s	n/a
186.8455	0.105	373691	keystroke_t	t	n/a
187.2055	0.075	374411	keystroke_s	s	n/a
187.5355	0.089	375071	keystroke_Key.enter	Key.enter	n/a
187.638	8.561	375276	prompt	n/a	wayne incidence poll grass\n
189.065	0.075	378130	keystroke_w	w	n/a
189.2905	0.09	378581	keystroke_a	a	n/a
189.5155	0.06	379031	keystroke_y	y	n/a
189.7405	0.075	379481	keystroke_n	n	n/a
189.8455	0.0895	379691	keystroke_e	e	n/a
190.265	0.12	380530	keystroke_Key.space	Key.space	n/a
191.825	0.12	383650	keystroke_i	i	n/a
191.93	0.105	383860	keystroke_n	n	n/a
192.185	0.09	384370	keystroke_c	c	n/a
192.32	0.0905	384640	keystroke_i	i	n/a
192.635	0.135	385270	keystroke_d	d	n/a
192.695	0.105	385390	keystroke_e	e	n/a
192.83	0.09	385660	keystroke_n	n	n/a
192.905	0.135	385810	keystroke_c	c	n/a
193.01	0.105	386020	keystroke_e	e	n/a
193.34	0.12	386680	keystroke_Key.space	Key.space	n/a
193.64	0.075	387280	keystroke_p	p	n/a
193.865	0.075	387730	keystroke_o	o	n/a
194.045	0.075	388090	keystroke_l	l	n/a
194.21	0.105	388420	keystroke_l	l	n/a
194.27	0.12	388540	keystroke_Key.space	Key.space	n/a
194.4205	0.06	388841	keystroke_c	c	n/a
194.7205	0.075	389441	keystroke_Key.backspace	Key.backspace	n/a
194.8105	0.1045	389621	keystroke_g	g	n/a
195.2305	0.12	390461	keystroke_r	r	n/a
195.4855	0.09	390971	keystroke_a	a	n/a
195.5455	0.09	391091	keystroke_s	s	n/a
195.6955	0.09	391391	keystroke_s	s	n/a
196.0855	0.1045	392171	keystroke_Key.enter	Key.enter	n/a
196.205	7.457	392410	prompt	n/a	devoted cord router promised\n
197.015	0.135	394030	keystroke_d	d	n/a
197.105	0.12	394210	keystroke_e	e	n/a
197.345	0.045	394690	keystroke_c	c	n/a
197.435	0.09	394870	keystroke_o	o	n/a
198.2595	0.075	396519	keystroke_Key.backspace	Key.backspace	n/a
198.4095	0.075	396819	keystroke_Key.backspace	Key.backspace	n/a
198.5445	0.091	397089	keystroke_v	v	n/a
198.6655	0.12	397331	keystroke_o	o	n/a
198.9955	0.105	397991	keystroke_t	t	n/a
199.1455	0.18	398291	keystroke_e	e	n/a
199.2805	0.09	398561	keystroke_d	d	n/a
199.4155	0.12	398831	keystroke_Key.space	Key.space	n/a
199.6255	0.105	399251	keystroke_c	c	n/a
199.7455	0.105	399491	keystroke_o	o	n/a
199.8955	0.12	399791	keystroke_r	r	n/a
200.1205	0.12	400241	keystroke_d	d	n/a
200.2555	0.105	400511	keystroke_Key.space	Key.space	n/a
200.69	0.1355	401380	keystroke_r	r	n/a
200.8705	0.15	401741	keystroke_o	o	n/a
200.9905	0.105	401981	keystroke_u	u	n/a
201.1255	0.12	402251	keystroke_t	t	n/a
201.3655	0.09	402731	keystroke_e	e	n/a
201.5305	0.09	403061	keystroke_r	r	n/a
201.6955	0.105	403391	keystroke_Key.space	Key.space	n/a
202.0855	0.075	404171	keystroke_p	p	n/a
202.1905	0.105	404381	keystroke_r	r	n/a
202.3255	0.0895	404651	keystroke_o	o	n/a
202.5655	0.105	405131	keystroke_m	m	n/a
202.7455	0.075	405491	keystroke_i	i	n/a
202.8805	0.105	405761	keystroke_s	s	n/a
203.0905	0.12	406181	keystroke_e	e	n/a
203.1655	0.1195	406331	keystroke_d	d	n/a
203.5855	0.075	407171	keystroke_Key.enter	Key.enter	n/a
203.6645	8.4195	407329	prompt	n/a	helpful insured vsnet seeing\n
204.485	0.06	408970	keystroke_h	h	n/a
204.546	0.0895	409092	keystroke_e	e	n/a
204.6505	0.09	409301	keystroke_l	l	n/a
204.86	0.075	409720	keystroke_p	p	n/a
205.3105	0.09	410621	keystroke_d	d	n/a
206.03	0.075	412060	keystroke_Key.backspace	Key.backspace	n/a
206.1655	0.09	412331	keystroke_f	f	n/a
206.4055	0.075	412811	keystroke_u	u	n/a
206.6155	0.135	413231	keystroke_l	l	n/a
206.7055	0.105	413411	keystroke_Key.space	Key.space	n/a
206.8855	0.165	413771	keystroke_i	i	n/a
207.0205	0.105	414041	keystroke_n	n	n/a
207.2605	0.075	414521	keystroke_s	s	n/a
207.38	0.075	414760	keystroke_u	u	n/a
207.5	0.135	415000	keystroke_r	r	n/a
207.605	0.195	415210	keystroke_e	e	n/a
207.77	0.135	415540	keystroke_d	d	n/a
207.935	0.12	415870	keystroke_Key.space	Key.space	n/a
208.7305	0.075	417461	keystroke_v	v	n/a
209.1055	0.105	418211	keystroke_s	s	n/a
209.4655	0.12	418931	keystroke_n	n	n/a
209.5705	0.165	419141	keystroke_e	e	n/a
209.7055	0.12	419411	keystroke_t	t	n/a
209.9005	0.1045	419801	keystroke_Key.space	Key.space	n/a
210.125	0.06	420250	keystroke_s	s	n/a
210.29	0.06	420580	keystroke_e	e	n/a
210.425	0.09	420850	keystroke_e	e	n/a
210.56	0.12	421120	keystroke_i	i	n/a
210.65	0.09	421300	keystroke_n	n	n/a
210.755	0.105	421510	keystroke_g	g	n/a
212.015	0.06	424030	keystroke_Key.enter	Key.enter	n/a
212.0885	5.7335	424177	prompt	n/a	investment park ethernet rank\n
212.615	0.135	425230	keystroke_i	i	n/a
212.72	0.12	425440	keystroke_n	n	n/a
212.885	0.105	425770	keystroke_v	v	n/a
213.05	0.105	426100	keystroke_e	e	n/a
213.35	0.015	426700	keystroke_s	s	n/a
213.41	0.09	426820	keystroke_t	t	n/a
213.6355	0.075	427271	keystroke_m	m	n/a
213.7405	0.09	427481	keystroke_e	e	n/a
213.8605	0.075	427721	keystroke_n	n	n/a
214.0255	0.09	428051	keystroke_t	t	n/a
214.1755	0.105	428351	keystroke_Key.space	Key.space	n/a
214.4005	0.105	428801	keystroke_p	p	n/a
214.5205	0.135	429041	keystroke_a	a	n/a
214.6255	0.105	429251	keystroke_r	r	n/a
214.7905	0.09	429581	keystroke_k	k	n/a
214.9855	0.09	429971	keystroke_Key.space	Key.space	n/a
215.4955	0.105	430991	keystroke_e	e	n/a
215.78	0.09	431560	keystroke_t	t	n/a
215.9455	0.105	431891	keystroke_h	h	n/a
216.0655	0.12	432131	keystroke_e	e	n/a
216.1555	0.075	432311	keystroke_r	r	n/a
216.5005	0.105	433001	keystroke_n	n	n/a
216.6205	0.075	433241	keystroke_e	e	n/a
216.8155	0.075	433631	keystroke_t	t	n/a
216.9505	0.105	433901	keystroke_Key.space	Key.space	n/a
217.1605	0.135	434321	keystroke_r	r	n/a
217.2805	0.12	434561	keystroke_a	a	n/a
217.4155	0.12	434831	keystroke_n	n	n/a
217.5505	0.0745	435101	keystroke_k	k	n/a
217.776	0.044	435552	keystroke_Key.enter	Key.enter	n/a
217.8245	10.1145	435649	prompt	n/a	connector playback jackets marshall\n
218.556	0.209	437112	keystroke_c	c	n/a
218.78	0.015	437560	keystroke_o	o	n/a
218.81	0.06	437620	keystroke_n	n	n/a
218.96	0.09	437920	keystroke_n	n	n/a
219.62	0.075	439240	keystroke_e	e	n/a
219.755	0.105	439510	keystroke_c	c	n/a
220.295	0.09	440590	keystroke_t	t	n/a
220.43	0.09	440860	keystroke_o	o	n/a
220.58	0.09	441160	keystroke_r	r	n/a
220.79	0.105	441580	keystroke_Key.space	Key.space	n/a
221.075	0.09	442150	keystroke_p	p	n/a
221.3905	0.09	442781	keystroke_l	l	n/a
221.5405	0.105	443081	keystroke_a	a	n/a
221.6905	0.0745	443381	keystroke_y	y	n/a
222.0205	0.075	444041	keystroke_b	b	n/a
222.1405	0.105	444281	keystroke_a	a	n/a
222.215	0.1355	444430	keystroke_c	c	n/a
222.3205	0.1345	444641	keystroke_k	k	n/a
222.4105	0.1195	444821	keystroke_Key.space	Key.space	n/a
222.695	0.1055	445390	keystroke_j	j	n/a
222.8455	0.12	445691	keystroke_a	a	n/a
223.2655	0.105	446531	keystroke_c	c	n/a
223.385	0.09	446770	keystroke_k	k	n/a
223.535	0.1055	447070	keystroke_e	e	n/a
223.716	0.089	447432	keystroke_t	t	n/a
223.925	0.106	447850	keystroke_s	s	n/a
224.225	0.09	448450	keystroke_Key.space	Key.space	n/a
224.4955	0.105	448991	keystroke_m	m	n/a
224.5555	0.135	449111	keystroke_a	a	n/a
224.6455	0.105	449291	keystroke_r	r	n/a
224.9155	0.09	449831	keystroke_s	s	n/a
225.0505	0.105	450101	keystroke_h	h	n/a
225.3655	0.09	450731	keystroke_a	a	n/a
225.7405	0.06	451481	keystroke_;	;	n/a
226.2805	0.09	452561	keystroke_Key.backspace	Key.backspace	n/a
226.806	0.0445	453612	keystroke_l	l	n/a
226.9555	0.06	453911	keystroke_l	l	n/a
227.825	0.105	455650	keystroke_Key.enter	Key.enter	n/a
227.944	9.9555	455888	prompt	n/a	triumph ruling ended rendered\n
228.7255	0.105	457451	keystroke_t	t	n/a
228.92	0.09	457840	keystroke_r	r	n/a
229.145	0.0605	458290	keystroke_u	u	n/a
229.925	0.075	459850	keystroke_Key.backspace	Key.backspace	n/a
230.271	0.059	460542	keystroke_i	i	n/a
230.6005	0.06	461201	keystroke_u	u	n/a
231.1255	0.12	462251	keystroke_m	m	n/a
231.3505	0.09	462701	keystroke_p	p	n/a
231.621	0.09	463242	keystroke_h	h	n/a
231.83	0.12	463660	keystroke_Key.space	Key.space	n/a
232.356	0.179	464712	keystroke_r	r	n/a
232.565	0.091	465130	keystroke_u	u	n/a
233.075	0.165	466150	keystroke_l	l	n/a
233.3	0.105	466600	keystroke_i	i	n/a
233.375	0.12	466750	keystroke_n	n	n/a
233.51	0.0605	467020	keystroke_g	g	n/a
233.646	0.1045	467292	keystroke_Key.space	Key.space	n/a
233.9455	0.075	467891	keystroke_e	e	n/a
234.0355	0.09	468071	keystroke_n	n	n/a
234.1555	0.105	468311	keystroke_d	d	n/a
234.2755	0.105	468551	keystroke_e	e	n/a
234.3355	0.105	468671	keystroke_d	d	n/a
234.5905	0.075	469181	keystroke_Key.space	Key.space	n/a
235.055	0.105	470110	keystroke_r	r	n/a
235.115	0.135	470230	keystroke_e	e	n/a
235.325	0.075	470650	keystroke_n	n	n/a
235.596	0.075	471192	keystroke_d	d	n/a
236.21	0.12	472420	keystroke_e	e	n/a
236.3	0.09	472600	keystroke_d	d	n/a
236.9605	0.09	473921	keystroke_Key.backspace	Key.backspace	n/a
237.0655	0.09	474131	keystroke_r	r	n/a
237.1855	0.15	474371	keystroke_e	e	n/a
237.2905	0.105	474581	keystroke_d	d	n/a
237.8305	0.06	475661	keystroke_Key.enter	Key.enter	n/a
237.9035	7.4285	475807	prompt	n/a	chose fought dirt harmful\n
238.6855	0.105	477371	keystroke_c	c	n/a
238.7605	0.12	477521	keystroke_h	h	n/a
238.8355	0.135	477671	keystroke_o	o	n/a
238.9555	0.075	477911	keystroke_s	s	n/a
239.1355	0.075	478271	keystroke_e	e	n/a
239.2405	0.12	478481	keystroke_Key.space	Key.space	n/a
239.72	0.09	479440	keystroke_g	g	n/a
240.3805	0.075	480761	keystroke_Key.backspace	Key.backspace	n/a
240.7255	0.06	481451	keystroke_f	f	n/a
240.8755	0.15	481751	keystroke_o	o	n/a
240.9655	0.105	481931	keystroke_u	u	n/a
241.0855	0.09	482171	keystroke_g	g	n/a
241.2055	0.105	482411	keystroke_h	h	n/a
241.4155	0.06	482831	keystroke_t	t	n/a
242.0455	0.12	484091	keystroke_Key.space	Key.space	n/a
242.3455	0.0755	484691	keystroke_d	d	n/a
242.4355	0.0755	484871	keystroke_i	i	n/a
242.5255	0.09	485051	keystroke_r	r	n/a
242.7205	0.075	485441	keystroke_l	l	n/a
243.1255	0.045	486251	keystroke_Key.backspace	Key.backspace	n/a
243.1855	0.09	486371	keystroke_t	t	n/a
243.4405	0.075	486881	keystroke_Key.space	Key.space	n/a
243.6805	0.135	487361	keystroke_h	h	n/a
243.9355	0.12	487871	keystroke_a	a	n/a
244.0105	0.105	488021	keystroke_r	r	n/a
244.1605	0.09	488321	keystroke_m	m	n/a
244.6105	0.09	489221	keystroke_f	f	n/a
244.7905	0.075	489581	keystroke_u	u	n/a
245.0005	0.06	490001	keystroke_l	l	n/a
245.2555	0.075	490511	keystroke_Key.enter	Key.enter	n/a
245.3345	10.5955	490669	prompt	n/a	competitors protected reseller portion\n
246.035	0.105	492070	keystroke_c	c	n/a
246.155	0.15	492310	keystroke_o	o	n/a
246.26	0.075	492520	keystroke_m	m	n/a
246.425	0.09	492850	keystroke_p	p	n/a
246.575	0.09	493150	keystroke_e	e	n/a
246.845	0.0605	493690	keystroke_t	t	n/a
246.9655	0.09	493931	keystroke_i	i	n/a
247.6105	0.09	495221	keystroke_t	t	n/a
247.7455	0.075	495491	keystroke_o	o	n/a
247.8505	0.075	495701	keystroke_r	r	n/a
248.0905	0.105	496181	keystroke_s	s	n/a
248.6605	0.09	497321	keystroke_Key.space	Key.space	n/a
248.8255	0.075	497651	keystroke_p	p	n/a
249.0055	0.015	498011	keystroke_r	r	n/a
249.4855	0.015	498971	keystroke_o	o	n/a
249.8605	0.09	499721	keystroke_c	c	n/a
250.2955	0.09	500591	keystroke_Key.backspace	Key.backspace	n/a
250.4455	0.12	500891	keystroke_t	t	n/a
250.6705	0.09	501341	keystroke_e	e	n/a
250.8505	0.105	501701	keystroke_c	c	n/a
251.196	0.074	502392	keystroke_t	t	n/a
251.405	0.165	502810	keystroke_e	e	n/a
251.495	0.12	502990	keystroke_d	d	n/a
251.6755	0.0895	503351	keystroke_Key.space	Key.space	n/a
251.886	0.074	503772	keystroke_s	s	n/a
252.2	0.06	504400	keystroke_Key.backspace	Key.backspace	n/a
252.261	0.119	504522	keystroke_r	r	n/a
252.32	0.12	504640	keystroke_e	e	n/a
252.665	0.075	505330	keystroke_s	s	n/a
253.085	0.06	506170	keystroke_l	l	n/a
253.43	0.06	506860	keystroke_Key.backspace	Key.backspace	n/a
253.505	0.09	507010	keystroke_e	e	n/a
253.67	0.046	507340	keystroke_l	l	n/a
253.836	0.09	507672	keystroke_l	l	n/a
253.956	0.15	507912	keystroke_e	e	n/a
254.091	0.12	508182	keystroke_r	r	n/a
254.361	0.104	508722	keystroke_Key.space	Key.space	n/a
254.525	0.091	509050	keystroke_p	p	n/a
254.766	0.075	509532	keystroke_o	o	n/a
254.856	0.09	509712	keystroke_r	r	n/a
255.0805	0.075	510161	keystroke_t	t	n/a
255.1855	0.255	510371	keystroke_i	i	n/a
255.3205	0.135	510641	keystroke_o	o	n/a
255.3805	0.165	510761	keystroke_n	n	n/a
255.8305	0.09	511661	keystroke_Key.enter	Key.enter	n/a
255.9335	9.4325	511867	prompt	n/a	terminals personally yield tablet\n
256.641	0.135	513282	keystroke_t	t	n/a
256.806	0.12	513612	keystroke_e	e	n/a
256.851	0.12	513702	keystroke_r	r	n/a
257.105	0.165	514210	keystroke_m	m	n/a
257.765	0.0905	515530	keystroke_i	i	n/a
257.9905	0.0745	515981	keystroke_n	n	n/a
258.11	0.105	516220	keystroke_a	a	n/a
258.275	0.075	516550	keystroke_l	l	n/a
258.41	0.075	516820	keystroke_s	s	n/a
258.6055	0.075	517211	keystroke_Key.space	Key.space	n/a
258.7705	0.09	517541	keystroke_p	p	n/a
258.9055	0.12	517811	keystroke_e	e	n/a
258.9805	0.105	517961	keystroke_r	r	n/a
259.1605	0.15	518321	keystroke_s	s	n/a
259.2655	0.135	518531	keystroke_o	o	n/a
259.3855	0.12	518771	keystroke_n	n	n/a
259.4905	0.0905	518981	keystroke_a	a	n/a
259.596	0.075	519192	keystroke_l	l	n/a
259.761	0.105	519522	keystroke_l	l	n/a
259.986	0.165	519972	keystroke_y	y	n/a
260.136	0.09	520272	keystroke_Key.space	Key.space	n/a
261.066	0.075	522132	keystroke_y	y	n/a
261.335	0.06	522670	keystroke_i	i	n/a
262.415	0.091	524830	keystroke_e	e	n/a
262.626	0.06	525252	keystroke_l	l	n/a
262.761	0.104	525522	keystroke_d	d	n/a
263.06	0.135	526120	keystroke_Key.space	Key.space	n/a
263.511	0.12	527022	keystroke_t	t	n/a
263.691	0.12	527382	keystroke_a	a	n/a
263.856	0.09	527712	keystroke_b	b	n/a
264.066	0.0895	528132	keystroke_l	l	n/a
264.1705	0.075	528341	keystroke_e	e	n/a
264.3505	0.09	528701	keystroke_t	t	n/a
264.5755	0.0895	529151	keystroke_s	s	n/a
265.0105	0.09	530021	keystroke_Key.backspace	Key.backspace	n/a
265.2805	0.075	530561	keystroke_Key.enter	Key.enter	n/a
265.371	9.7285	530742	prompt	n/a	transformation reject bread fiber\n
266.1955	0.075	532391	keystroke_t	t	n/a
266.4205	0.135	532841	keystroke_r	r	n/a
266.5255	0.105	533051	keystroke_a	a	n/a
266.69	0.06	533380	keystroke_n	n	n/a
266.7655	0.0595	533531	keystroke_s	s	n/a
267.8	0.06	535600	keystroke_f	f	n/a
267.89	0.09	535780	keystroke_o	o	n/a
267.995	0.09	535990	keystroke_r	r	n/a
268.13	0.1055	536260	keystroke_m	m	n/a
268.2205	0.0745	536441	keystroke_a	a	n/a
268.355	0.1205	536710	keystroke_t	t	n/a
268.49	0.2105	536980	keystroke_i	i	n/a
268.55	0.165	537100	keystroke_o	o	n/a
268.625	0.151	537250	keystroke_n	n	n/a
268.76	0.105	537520	keystroke_Key.space	Key.space	n/a
268.955	0.136	537910	keystroke_r	r	n/a
269.045	0.09	538090	keystroke_e	e	n/a
269.24	0.061	538480	keystroke_g	g	n/a
269.8105	0.075	539621	keystroke_Key.backspace	Key.backspace	n/a
270.2155	0.09	540431	keystroke_j	j	n/a
270.3065	0.059	540613	keystroke_e	e	n/a
270.4855	0.105	540971	keystroke_c	c	n/a
270.7855	0.06	541571	keystroke_t	t	n/a
271.7005	0.12	543401	keystroke_Key.space	Key.space	n/a
272.076	0.09	544152	keystroke_b	b	n/a
272.211	0.12	544422	keystroke_r	r	n/a
272.301	0.135	544602	keystroke_e	e	n/a
272.466	0.135	544932	keystroke_a	a	n/a
272.586	0.134	545172	keystroke_d	d	n/a
272.8555	0.1055	545711	keystroke_Key.space	Key.space	n/a
273.366	0.075	546732	keystroke_d	d	n/a
273.891	0.06	547782	keystroke_Key.backspace	Key.backspace	n/a
273.936	0.105	547872	keystroke_f	f	n/a
274.116	0.09	548232	keystroke_i	i	n/a
274.341	0.089	548682	keystroke_b	b	n/a
274.46	0.12	548920	keystroke_e	e	n/a
274.536	0.105	549072	keystroke_r	r	n/a
275.031	0.06	550062	keystroke_Key.enter	Key.enter	n/a
275.1035	7.7585	550207	prompt	n/a	intelligent harold rated crack\n
275.735	0.09	551470	keystroke_i	i	n/a
275.87	0.105	551740	keystroke_n	n	n/a
276.02	0.09	552040	keystroke_t	t	n/a
276.201	0.089	552402	keystroke_e	e	n/a
276.35	0.06	552700	keystroke_l	l	n/a
276.53	0.135	553060	keystroke_l	l	n/a
276.65	0.075	553300	keystroke_i	i	n/a
276.845	0.09	553690	keystroke_g	g	n/a
277.1005	0.0895	554201	keystroke_e	e	n/a
277.2205	0.09	554441	keystroke_n	n	n/a
277.3555	0.0745	554711	keystroke_t	t	n/a
277.5055	0.1045	555011	keystroke_Key.space	Key.space	n/a
278.0305	0.0895	556061	keystroke_h	h	n/a
278.1505	0.1195	556301	keystroke_a	a	n/a
278.36	0.105	556720	keystroke_r	r	n/a
278.555	0.075	557110	keystroke_o	o	n/a
278.75	0.0755	557500	keystroke_l	l	n/a
278.8705	0.105	557741	keystroke_d	d	n/a
279.0355	0.105	558071	keystroke_Key.space	Key.space	n/a
279.41	0.046	558820	keystroke_r	r	n/a
279.501	0.074	559002	keystroke_r	r	n/a
280.01	0.075	560020	keystroke_Key.backspace	Key.backspace	n/a
280.175	0.0605	560350	keystroke_a	a	n/a
280.2955	0.105	560591	keystroke_t	t	n/a
280.4755	0.15	560951	keystroke_e	e	n/a
280.6255	0.075	561251	keystroke_d	d	n/a
280.7605	0.09	561521	keystroke_Key.space	Key.space	n/a
280.9705	0.12	561941	keystroke_c	c	n/a
281.1805	0.15	562361	keystroke_r	r	n/a
281.676	0.12	563352	keystroke_a	a	n/a
281.9755	0.09	563951	keystroke_c	c	n/a
282.2305	0.09	564461	keystroke_k	k	n/a
282.771	0.09	565542	keystroke_Key.enter	Key.enter	n/a
282.8665	6.3105	565733	prompt	n/a	steps pass consolidated accounts\n
283.401	0.09	566802	keystroke_s	s	n/a
283.625	0.1055	567250	keystroke_t	t	n/a
283.8205	0.12	567641	keystroke_e	e	n/a
284.166	0.09	568332	keystroke_p	p	n/a
284.391	0.09	568782	keystroke_s	s	n/a
284.6155	0.045	569231	keystroke_Key.space	Key.space	n/a
284.8405	0.105	569681	keystroke_p	p	n/a
284.9605	0.12	569921	keystroke_a	a	n/a
285.0655	0.045	570131	keystroke_s	s	n/a
285.2155	0.105	570431	keystroke_s	s	n/a
285.3355	0.09	570671	keystroke_Key.space	Key.space	n/a
285.6355	0.1205	571271	keystroke_c	c	n/a
285.7255	0.1355	571451	keystroke_o	o	n/a
285.816	0.105	571632	keystroke_n	n	n/a
285.996	0.09	571992	keystroke_s	s	n/a
286.146	0.06	572292	keystroke_o	o	n/a
286.371	0.165	572742	keystroke_l	l	n/a
286.491	0.105	572982	keystroke_i	i	n/a
286.911	0.1345	573822	keystroke_d	d	n/a
287.0155	0.12	574031	keystroke_a	a	n/a
287.2105	0.105	574421	keystroke_t	t	n/a
287.3755	0.165	574751	keystroke_e	e	n/a
287.4805	0.1205	574961	keystroke_d	d	n/a
287.631	0.09	575262	keystroke_Key.space	Key.space	n/a
287.751	0.09	575502	keystroke_a	a	n/a
287.916	0.09	575832	keystroke_c	c	n/a
288.081	0.09	576162	keystroke_c	c	n/a
288.126	0.165	576252	keystroke_o	o	n/a
288.246	0.105	576492	keystroke_u	u	n/a
288.336	0.09	576672	keystroke_n	n	n/a
288.381	0.09	576762	keystroke_t	t	n/a
288.6505	0.045	577301	keystroke_s	s	n/a
289.1305	0.045	578261	keystroke_Key.enter	Key.enter	n/a
289.18	11.525	578360	prompt	n/a	gasoline prozac japanese shakira\n
289.9705	0.105	579941	keystroke_g	g	n/a
290.1955	0.135	580391	keystroke_a	a	n/a
290.2705	0.12	580541	keystroke_s	s	n/a
290.6005	0.075	581201	keystroke_o	o	n/a
291.2605	0.15	582521	keystroke_l	l	n/a
291.3805	0.12	582761	keystroke_i	i	n/a
291.4555	0.135	582911	keystroke_n	n	n/a
291.5755	0.09	583151	keystroke_e	e	n/a
291.7255	0.06	583451	keystroke_Key.space	Key.space	n/a
291.8605	0.09	583721	keystroke_p	p	n/a
292.025	0.105	584050	keystroke_r	r	n/a
292.175	0.076	584350	keystroke_o	o	n/a
292.58	0.105	585160	keystroke_z	z	n/a
292.79	0.105	585580	keystroke_a	a	n/a
293.031	0.135	586062	keystroke_v	v	n/a
293.5255	0.075	587051	keystroke_Key.backspace	Key.backspace	n/a
293.5855	0.09	587171	keystroke_c	c	n/a
294.1855	0.0455	588371	keystroke_Key.space	Key.space	n/a
294.261	0.06	588522	keystroke_Key.space	Key.space	n/a
294.5755	0.105	589151	keystroke_j	j	n/a
294.6955	0.09	589391	keystroke_a	a	n/a
295.0405	0.075	590081	keystroke_Key.backspace	Key.backspace	n/a
295.2055	0.045	590411	keystroke_Key.backspace	Key.backspace	n/a
295.3555	0.03	590711	keystroke_Key.backspace	Key.backspace	n/a
295.5505	0.0745	591101	keystroke_j	j	n/a
295.715	0.121	591430	keystroke_a	a	n/a
295.896	0.0745	591792	keystroke_p	p	n/a
296.3155	0.09	592631	keystroke_a	a	n/a
296.4205	0.105	592841	keystroke_n	n	n/a
296.5855	0.06	593171	keystroke_e	e	n/a
296.7655	0.075	593531	keystroke_s	s	n/a
296.9455	0.0755	593891	keystroke_e	e	n/a
297.066	0.12	594132	keystroke_Key.space	Key.space	n/a
297.471	0.105	594942	keystroke_s	s	n/a
297.606	0.075	595212	keystroke_h	h	n/a
297.711	0.09	595422	keystroke_a	a	n/a
298.806	0.045	597612	keystroke_k	k	n/a
298.911	0.06	597822	keystroke_i	i	n/a
299.046	0.135	598092	keystroke_r	r	n/a
299.121	0.1195	598242	keystroke_e	e	n/a
299.9905	0.0905	599981	keystroke_Key.backspace	Key.backspace	n/a
300.141	0.09	600282	keystroke_a	a	n/a
300.621	0.075	601242	keystroke_Key.enter	Key.enter	n/a
300.709	6.3485	601418	prompt	n/a	forest sciences reno contrary\n
301.506	0.1345	603012	keystroke_f	f	n/a
301.6555	0.075	603311	keystroke_o	o	n/a
301.7755	0.105	603551	keystroke_r	r	n/a
301.9705	0.075	603941	keystroke_e	e	n/a
302.1505	0.075	604301	keystroke_s	s	n/a
302.3455	0.105	604691	keystroke_t	t	n/a
302.4655	0.09	604931	keystroke_Key.space	Key.space	n/a
302.6455	0.075	605291	keystroke_s	s	n/a
302.8105	0.09	605621	keystroke_c	c	n/a
302.9305	0.06	605861	keystroke_i	i	n/a
303.0055	0.075	606011	keystroke_e	e	n/a
303.1705	0.09	606341	keystroke_n	n	n/a
303.2755	0.135	606551	keystroke_c	c	n/a
303.3505	0.12	606701	keystroke_e	e	n/a
303.6055	0.09	607211	keystroke_s	s	n/a
303.8755	0.105	607751	keystroke_Key.space	Key.space	n/a
304.3555	0.105	608711	keystroke_r	r	n/a
304.4155	0.105	608831	keystroke_e	e	n/a
304.5505	0.12	609101	keystroke_n	n	n/a
304.6555	0.165	609311	keystroke_o	o	n/a
304.8055	0.12	609611	keystroke_Key.space	Key.space	n/a
305.1805	0.135	610361	keystroke_c	c	n/a
305.3005	0.09	610601	keystroke_o	o	n/a
305.3605	0.105	610721	keystroke_n	n	n/a
305.646	0.074	611292	keystroke_t	t	n/a
305.841	0.09	611682	keystroke_r	r	n/a
306.006	0.135	612012	keystroke_a	a	n/a
306.26	0.091	612520	keystroke_r	r	n/a
306.56	0.09	613120	keystroke_y	y	n/a
306.995	0.0605	613990	keystroke_Key.enter	Key.enter	n/a
307.061	8.389	614122	prompt	n/a	width geek crash perception\n
307.866	0.09	615732	keystroke_w	w	n/a
307.971	0.06	615942	keystroke_i	i	n/a
308.286	0.075	616572	keystroke_f	f	n/a
308.886	0.075	617772	keystroke_Key.backspace	Key.backspace	n/a
309.171	0.075	618342	keystroke_d	d	n/a
309.411	0.09	618822	keystroke_t	t	n/a
309.516	0.18	619032	keystroke_h	h	n/a
309.681	0.12	619362	keystroke_Key.space	Key.space	n/a
310.9555	0.075	621911	keystroke_g	g	n/a
311.1355	0.09	622271	keystroke_e	e	n/a
311.3305	0.105	622661	keystroke_e	e	n/a
311.4805	0.12	622961	keystroke_k	k	n/a
311.6155	0.105	623231	keystroke_Key.space	Key.space	n/a
312.3655	0.09	624731	keystroke_c	c	n/a
312.5755	0.121	625151	keystroke_r	r	n/a
312.6805	0.196	625361	keystroke_a	a	n/a
312.7705	0.12	625541	keystroke_s	s	n/a
312.9505	0.135	625901	keystroke_h	h	n/a
313.0405	0.105	626081	keystroke_Key.space	Key.space	n/a
313.2205	0.09	626441	keystroke_p	p	n/a
313.3405	0.12	626681	keystroke_e	e	n/a
313.4005	0.09	626801	keystroke_r	r	n/a
313.7155	0.135	627431	keystroke_c	c	n/a
313.8655	0.105	627731	keystroke_e	e	n/a
314.0155	0.075	628031	keystroke_p	p	n/a
314.6155	0.135	629231	keystroke_t	t	n/a
314.7655	0.09	629531	keystroke_i	i	n/a
314.7805	0.06	629561	keystroke_o	o	n/a
314.8105	0.12	629621	keystroke_n	n	n/a
315.3205	0.12	630641	keystroke_Key.enter	Key.enter	n/a
315.454	15.5355	630908	prompt	n/a	transparency obtained folks assessing\n
316.3255	0.075	632651	keystroke_t	t	n/a
316.5055	0.075	633011	keystroke_r	r	n/a
316.7605	0.105	633521	keystroke_n	n	n/a
317.1955	0.06	634391	keystroke_Key.backspace	Key.backspace	n/a
317.2705	0.105	634541	keystroke_a	a	n/a
317.4055	0.09	634811	keystroke_n	n	n/a
317.5105	0.075	635021	keystroke_s	s	n/a
317.9755	0.06	635951	keystroke_p	p	n/a
318.1405	0.18	636281	keystroke_a	a	n/a
318.3055	0.12	636611	keystroke_r	r	n/a
318.906	0.075	637812	keystroke_e	e	n/a
319.056	0.1195	638112	keystroke_n	n	n/a
319.2055	0.135	638411	keystroke_c	c	n/a
319.4905	0.0905	638981	keystroke_y	y	n/a
319.821	0.0895	639642	keystroke_Key.space	Key.space	n/a
320.2405	0.075	640481	keystroke_o	o	n/a
320.4205	0.1055	640841	keystroke_b	b	n/a
320.7655	0.105	641531	keystroke_t	t	n/a
320.9905	0.091	641981	keystroke_a	a	n/a
321.1255	0.21	642251	keystroke_i	i	n/a
321.2305	0.12	642461	keystroke_o	o	n/a
321.2905	0.135	642581	keystroke_n	n	n/a
321.4855	0.135	642971	keystroke_e	e	n/a
321.5605	0.12	643121	keystroke_d	d	n/a
322.326	0.075	644652	keystroke_Key.backspace	Key.backspace	n/a
322.611	0.06	645222	keystroke_Key.backspace	Key.backspace	n/a
322.8055	0.045	645611	keystroke_Key.backspace	Key.backspace	n/a
322.9705	0.075	645941	keystroke_Key.backspace	Key.backspace	n/a
323.736	0.0895	647472	keystroke_n	n	n/a
325.944	0.0265	651888	keystroke_e	e	n/a
325.944	0.0865	651888	keystroke_d	d	n/a
326.6755	0.075	653351	keystroke_Key.space	Key.space	n/a
327.666	0.0445	655332	keystroke_f	f	n/a
327.7255	0.075	655451	keystroke_o	o	n/a
327.9055	0.09	655811	keystroke_l	l	n/a
328.0255	0.09	656051	keystroke_d	d	n/a
328.6855	0.06	657371	keystroke_Key.backspace	Key.backspace	n/a
328.8805	0.09	657761	keystroke_k	k	n/a
329.0015	0.074	658003	keystroke_s	s	n/a
329.2405	0.075	658481	keystroke_Key.space	Key.space	n/a
329.4955	0.09	658991	keystroke_a	a	n/a
329.5405	0.09	659081	keystroke_s	s	n/a
329.7205	0.09	659441	keystroke_s	s	n/a
329.9155	0.075	659831	keystroke_e	e	n/a
330.1105	0.075	660221	keystroke_s	s	n/a
330.2605	0.09	660521	keystroke_s	s	n/a
330.3955	0.12	660791	keystroke_i	i	n/a
330.5005	0.09	661001	keystroke_n	n	n/a
330.6055	0.075	661211	keystroke_g	g	n/a
330.8905	0.09	661781	keystroke_Key.enter	Key.enter	n/a
330.9935	9.433	661987	prompt	n/a	checks brother securities realistic\n
331.6105	0.12	663221	keystroke_c	c	n/a
331.7155	0.105	663431	keystroke_h	h	n/a
331.8055	0.09	663611	keystroke_e	e	n/a
331.9705	0.09	663941	keystroke_c	c	n/a
332.0755	0.0905	664151	keystroke_k	k	n/a
332.286	0.06	664572	keystroke_s	s	n/a
332.571	0.105	665142	keystroke_Key.space	Key.space	n/a
332.841	0.09	665682	keystroke_b	b	n/a
333.036	0.0745	666072	keystroke_r	r	n/a
333.2305	0.09	666461	keystroke_o	o	n/a
333.5755	0.075	667151	keystroke_h	h	n/a
333.9205	0.06	667841	keystroke_Key.backspace	Key.backspace	n/a
333.9955	0.09	667991	keystroke_t	t	n/a
334.131	0.09	668262	keystroke_h	h	n/a
334.206	0.12	668412	keystroke_e	e	n/a
334.296	0.09	668592	keystroke_r	r	n/a
334.4905	0.09	668981	keystroke_Key.space	Key.space	n/a
334.7305	0.09	669461	keystroke_s	s	n/a
334.9705	0.06	669941	keystroke_e	e	n/a
335.1355	0.105	670271	keystroke_c	c	n/a
335.3305	0.075	670661	keystroke_u	u	n/a
335.4805	0.09	670961	keystroke_r	r	n/a
335.6455	0.075	671291	keystroke_i	i	n/a
335.9455	0.075	671891	keystroke_t	t	n/a
336.0805	0.09	672161	keystroke_i	i	n/a
336.3505	0.09	672701	keystroke_e	e	n/a
336.9055	0.09	673811	keystroke_s	s	n/a
337.0555	0.15	674111	keystroke_Key.space	Key.space	n/a
337.5505	0.1355	675101	keystroke_r	r	n/a
337.641	0.135	675282	keystroke_e	e	n/a
337.731	0.135	675462	keystroke_a	a	n/a
337.821	0.15	675642	keystroke_l	l	n/a
337.926	0.12	675852	keystroke_i	i	n/a
338.061	0.09	676122	keystroke_s	s	n/a
338.361	0.075	676722	keystroke_t	t	n/a
338.526	0.075	677052	keystroke_i	i	n/a
338.706	0.09	677412	keystroke_c	c	n/a
340.326	0.0895	680652	keystroke_Key.enter	Key.enter	n/a
340.4315	6.211	680863	prompt	n/a	ordered instrumental parish bald\n
341.001	0.09	682002	keystroke_o	o	n/a
341.196	0.09	682392	keystroke_r	r	n/a
341.435	0.1205	682870	keystroke_d	d	n/a
341.5705	0.15	683141	keystroke_e	e	n/a
341.6755	0.135	683351	keystroke_r	r	n/a
341.8105	0.15	683621	keystroke_e	e	n/a
341.9455	0.09	683891	keystroke_d	d	n/a
342.0805	0.105	684161	keystroke_Key.space	Key.space	n/a
342.2905	0.1355	684581	keystroke_i	i	n/a
342.381	0.105	684762	keystroke_n	n	n/a
342.456	0.12	684912	keystroke_s	s	n/a
342.711	0.09	685422	keystroke_t	t	n/a
342.951	0.09	685902	keystroke_r	r	n/a
343.176	0.105	686352	keystroke_u	u	n/a
343.491	0.0745	686982	keystroke_m	m	n/a
343.7755	0.09	687551	keystroke_e	e	n/a
343.9105	0.09	687821	keystroke_n	n	n/a
344.0455	0.09	688091	keystroke_t	t	n/a
344.1955	0.135	688391	keystroke_a	a	n/a
344.3155	0.1505	688631	keystroke_l	l	n/a
344.436	0.12	688872	keystroke_Key.space	Key.space	n/a
344.646	0.075	689292	keystroke_p	p	n/a
344.736	0.135	689472	keystroke_a	a	n/a
344.856	0.105	689712	keystroke_r	r	n/a
345.006	0.0895	690012	keystroke_i	i	n/a
345.1255	0.09	690251	keystroke_s	s	n/a
345.2455	0.15	690491	keystroke_h	h	n/a
345.3505	0.09	690701	keystroke_Key.space	Key.space	n/a
345.6355	0.09	691271	keystroke_b	b	n/a
345.7705	0.0905	691541	keystroke_a	a	n/a
346.041	0.075	692082	keystroke_l	l	n/a
346.191	0.105	692382	keystroke_d	d	n/a
346.551	0.0895	693102	keystroke_Key.enter	Key.enter	n/a
346.645	10.4895	693290	prompt	n/a	markers handles contemporary scene\n
347.1805	0.09	694361	keystroke_m	m	n/a
347.2855	0.075	694571	keystroke_a	a	n/a
347.601	0.09	695202	keystroke_r	r	n/a
347.796	0.09	695592	keystroke_k	k	n/a
347.931	0.12	695862	keystroke_e	e	n/a
348.021	0.075	696042	keystroke_r	r	n/a
348.246	0.105	696492	keystroke_s	s	n/a
348.396	0.105	696792	keystroke_Key.space	Key.space	n/a
348.7105	0.06	697421	keystroke_h	h	n/a
348.8305	0.105	697661	keystroke_a	a	n/a
348.9805	0.09	697961	keystroke_n	n	n/a
349.1455	0.075	698291	keystroke_d	d	n/a
349.2805	0.105	698561	keystroke_l	l	n/a
349.4305	0.075	698861	keystroke_e	e	n/a
349.6405	0.105	699281	keystroke_s	s	n/a
349.8355	0.06	699671	keystroke_Key.space	Key.space	n/a
350.1055	0.09	700211	keystroke_c	c	n/a
350.2105	0.21	700421	keystroke_o	o	n/a
350.4055	0.12	700811	keystroke_n	n	n/a
350.6755	0.15	701351	keystroke_t	t	n/a
350.8405	0.135	701681	keystroke_e	e	n/a
351.1105	0.09	702221	keystroke_m	m	n/a
351.3205	0.075	702641	keystroke_p	p	n/a
351.5455	0.075	703091	keystroke_o	o	n/a
351.6805	0.105	703361	keystroke_r	r	n/a
352.1305	0.09	704261	keystroke_t	t	n/a
352.3255	0.12	704651	keystroke_a	a	n/a
352.865	0.076	705730	keystroke_Key.backspace	Key.backspace	n/a
353.016	0.09	706032	keystroke_Key.backspace	Key.backspace	n/a
353.3755	0.12	706751	keystroke_a	a	n/a
354.3355	0.105	708671	keystroke_r	r	n/a
354.651	0.12	709302	keystroke_y	y	n/a
354.9205	0.09	709841	keystroke_Key.space	Key.space	n/a
355.5805	0.09	711161	keystroke_s	s	n/a
355.7155	0.135	711431	keystroke_c	c	n/a
355.8055	0.12	711611	keystroke_e	e	n/a
356.1205	0.06	712241	keystroke_n	n	n/a
356.1655	0.0905	712331	keystroke_e	e	n/a
357.036	0.09	714072	keystroke_Key.enter	Key.enter	n/a
357.1385	10.976	714277	prompt	n/a	quantum barbie swedish carpet\n
358.536	0.0745	717072	keystroke_q	q	n/a
358.8205	0.075	717641	keystroke_u	u	n/a
359.1365	0.119	718273	keystroke_a	a	n/a
359.676	0.105	719352	keystroke_n	n	n/a
359.976	0.1045	719952	keystroke_t	t	n/a
360.1855	0.075	720371	keystroke_u	u	n/a
360.3805	0.09	720761	keystroke_m	m	n/a
360.5755	0.09	721151	keystroke_Key.space	Key.space	n/a
360.7705	0.105	721541	keystroke_b	b	n/a
360.9055	0.135	721811	keystroke_a	a	n/a
360.9955	0.105	721991	keystroke_r	r	n/a
361.4305	0.09	722861	keystroke_b	b	n/a
361.5955	0.12	723191	keystroke_i	i	n/a
361.8355	0.12	723671	keystroke_e	e	n/a
362.12	0.136	724240	keystroke_Key.space	Key.space	n/a
363.1105	0.09	726221	keystroke_w	w	n/a
363.7255	0.09	727451	keystroke_Key.backspace	Key.backspace	n/a
363.7855	0.105	727571	keystroke_s	s	n/a
363.9355	0.15	727871	keystroke_w	w	n/a
365.1355	0.075	730271	keystroke_e	e	n/a
365.4505	0.076	730901	keystroke_d	d	n/a
365.5705	0.06	731141	keystroke_i	i	n/a
365.6155	0.09	731231	keystroke_s	s	n/a
365.7505	0.121	731501	keystroke_h	h	n/a
366.2305	0.09	732461	keystroke_Key.space	Key.space	n/a
366.6205	0.12	733241	keystroke_c	c	n/a
366.7115	0.119	733423	keystroke_a	a	n/a
366.9355	0.075	733871	keystroke_r	r	n/a
367.566	0.06	735132	keystroke_p	p	n/a
367.671	0.075	735342	keystroke_e	e	n/a
367.821	0.06	735642	keystroke_t	t	n/a
368.031	0.075	736062	keystroke_Key.enter	Key.enter	n/a
368.1185	9.2215	736237	prompt	n/a	happy holidays procurement combined\n
368.6755	0.12	737351	keystroke_h	h	n/a
368.8405	0.09	737681	keystroke_a	a	n/a
369.0805	0.075	738161	keystroke_p	p	n/a
369.2605	0.075	738521	keystroke_p	p	n/a
369.591	0.12	739182	keystroke_y	y	n/a
369.786	0.105	739572	keystroke_Key.space	Key.space	n/a
370.161	0.135	740322	keystroke_h	h	n/a
370.281	0.075	740562	keystroke_o	o	n/a
370.431	0.165	740862	keystroke_l	l	n/a
370.536	0.15	741072	keystroke_i	i	n/a
370.731	0.12	741462	keystroke_d	d	n/a
370.806	0.1195	741612	keystroke_a	a	n/a
370.986	0.105	741972	keystroke_y	y	n/a
371.151	0.06	742302	keystroke_s	s	n/a
371.601	0.09	743202	keystroke_Key.space	Key.space	n/a
371.8105	0.075	743621	keystroke_p	p	n/a
371.9605	0.0895	743921	keystroke_r	r	n/a
372.066	0.105	744132	keystroke_o	o	n/a
372.321	0.075	744642	keystroke_c	c	n/a
372.8755	0.075	745751	keystroke_y	y	n/a
373.3105	0.06	746621	keystroke_Key.backspace	Key.backspace	n/a
373.5355	0.0745	747071	keystroke_u	u	n/a
373.6255	0.0895	747251	keystroke_r	r	n/a
373.7	0.0905	747400	keystroke_e	e	n/a
374.21	0.0305	748420	keystroke_m	m	n/a
374.255	0.076	748510	keystroke_e	e	n/a
374.376	0.0895	748752	keystroke_n	n	n/a
374.4805	0.105	748961	keystroke_t	t	n/a
374.6305	0.075	749261	keystroke_Key.space	Key.space	n/a
374.9755	0.105	749951	keystroke_c	c	n/a
375.0655	0.15	750131	keystroke_o	o	n/a
375.4255	0.076	750851	keystroke_m	m	n/a
375.6955	0.075	751391	keystroke_b	b	n/a
375.921	0.06	751842	keystroke_i	i	n/a
376.146	0.09	752292	keystroke_n	n	n/a
376.341	0.12	752682	keystroke_e	e	n/a
376.446	0.12	752892	keystroke_d	d	n/a
377.2705	0.06	754541	keystroke_Key.enter	Key.enter	n/a
377.3455	11.4545	754691	prompt	n/a	highland queue recognize cookies\n
377.961	0.15	755922	keystroke_h	h	n/a
378.081	0.105	756162	keystroke_i	i	n/a
378.201	0.105	756402	keystroke_g	g	n/a
378.321	0.135	756642	keystroke_h	h	n/a
378.951	0.105	757902	keystroke_l	l	n/a
379.101	0.075	758202	keystroke_a	a	n/a
379.206	0.075	758412	keystroke_n	n	n/a
379.341	0.105	758682	keystroke_d	d	n/a
379.506	0.075	759012	keystroke_Key.space	Key.space	n/a
379.941	0.105	759882	keystroke_q	q	n/a
380.151	0.09	760302	keystroke_u	u	n/a
380.346	0.105	760692	keystroke_e	e	n/a
381.3815	0.1045	762763	keystroke_u	u	n/a
381.487	0.089	762974	keystroke_e	e	n/a
382.0705	0.09	764141	keystroke_Key.space	Key.space	n/a
382.5505	0.106	765101	keystroke_r	r	n/a
382.6405	0.105	765281	keystroke_e	e	n/a
383.1955	0.1205	766391	keystroke_c	c	n/a
383.376	0.06	766752	keystroke_o	o	n/a
383.586	0.03	767172	keystroke_g	g	n/a
384.066	0.15	768132	keystroke_n	n	n/a
384.186	0.105	768372	keystroke_i	i	n/a
384.4705	0.09	768941	keystroke_z	z	n/a
384.6955	0.075	769391	keystroke_e	e	n/a
384.8455	0.105	769691	keystroke_Key.space	Key.space	n/a
385.2055	0.105	770411	keystroke_b	b	n/a
385.4005	0.06	770801	keystroke_o	o	n/a
385.8205	0.06	771641	keystroke_Key.backspace	Key.backspace	n/a
385.956	0.06	771912	keystroke_Key.backspace	Key.backspace	n/a
387.066	0.105	774132	keystroke_c	c	n/a
387.231	0.06	774462	keystroke_o	o	n/a
387.396	0.12	774792	keystroke_o	o	n/a
387.486	0.075	774972	keystroke_k	k	n/a
387.696	0.0895	775392	keystroke_i	i	n/a
387.8455	0.1055	775691	keystroke_e	e	n/a
388.041	0.09	776082	keystroke_s	s	n/a
388.716	0.075	777432	keystroke_Key.enter	Key.enter	n/a
388.804	6.9635	777608	prompt	n/a	mumbai starter costs camel\n
389.6155	0.12	779231	keystroke_m	m	n/a
389.8555	0.075	779711	keystroke_u	u	n/a
390.0655	0.075	780131	keystroke_m	m	n/a
390.2605	0.09	780521	keystroke_b	b	n/a
390.4705	0.075	780941	keystroke_a	a	n/a
390.5755	0.18	781151	keystroke_i	i	n/a
390.7105	0.135	781421	keystroke_Key.space	Key.space	n/a
390.9205	0.091	781841	keystroke_s	s	n/a
391.1155	0.12	782231	keystroke_t	t	n/a
391.3405	0.1955	782681	keystroke_a	a	n/a
391.491	0.1345	782982	keystroke_r	r	n/a
391.7155	0.075	783431	keystroke_t	t	n/a
391.9105	0.15	783821	keystroke_e	e	n/a
392.0305	0.105	784061	keystroke_r	r	n/a
392.2105	0.105	784421	keystroke_Key.space	Key.space	n/a
392.3455	0.15	784691	keystroke_c	c	n/a
392.5105	0.06	785021	keystroke_o	o	n/a
392.6755	0.0905	785351	keystroke_s	s	n/a
392.931	0.105	785862	keystroke_t	t	n/a
393.156	0.12	786312	keystroke_s	s	n/a
393.381	0.09	786762	keystroke_Key.space	Key.space	n/a
393.606	0.12	787212	keystroke_c	c	n/a
393.681	0.135	787362	keystroke_a	a	n/a
393.801	0.12	787602	keystroke_m	m	n/a
393.906	0.09	787812	keystroke_e	e	n/a
394.251	0.09	788502	keystroke_l	l	n/a
395.691	0.075	791382	keystroke_Key.enter	Key.enter	n/a
395.7715	9.2735	791543	prompt	n/a	instruments comp faith secretary\n
396.441	0.09	792882	keystroke_i	i	n/a
396.606	0.1195	793212	keystroke_n	n	n/a
396.7705	0.105	793541	keystroke_s	s	n/a
396.981	0.075	793962	keystroke_t	t	n/a
397.176	0.09	794352	keystroke_r	r	n/a
397.401	0.0895	794802	keystroke_u	u	n/a
397.6555	0.09	795311	keystroke_m	m	n/a
397.956	0.075	795912	keystroke_e	e	n/a
398.076	0.09	796152	keystroke_n	n	n/a
398.1955	0.0905	796391	keystroke_t	t	n/a
398.421	0.105	796842	keystroke_s	s	n/a
398.571	0.09	797142	keystroke_Key.space	Key.space	n/a
398.736	0.135	797472	keystroke_c	c	n/a
398.841	0.1655	797682	keystroke_o	o	n/a
398.9465	0.12	797893	keystroke_m	m	n/a
399.1415	0.09	798283	keystroke_p	p	n/a
399.4115	0.09	798823	keystroke_Key.space	Key.space	n/a
400.2355	0.12	800471	keystroke_f	f	n/a
400.4005	0.135	800801	keystroke_a	a	n/a
400.5505	0.075	801101	keystroke_i	i	n/a
400.7455	0.09	801491	keystroke_t	t	n/a
400.8955	0.12	801791	keystroke_h	h	n/a
401.1505	0.075	802301	keystroke_Key.space	Key.space	n/a
401.4205	0.075	802841	keystroke_s	s	n/a
401.6155	0.045	803231	keystroke_e	e	n/a
401.7955	0.135	803591	keystroke_c	c	n/a
402.1405	0.15	804281	keystroke_r	r	n/a
402.2755	0.105	804551	keystroke_e	e	n/a
402.6965	0.135	805393	keystroke_t	t	n/a
402.8455	0.151	805691	keystroke_a	a	n/a
402.9215	0.12	805843	keystroke_r	r	n/a
403.1155	0.136	806231	keystroke_y	y	n/a
404.9465	0.089	809893	keystroke_Key.enter	Key.enter	n/a
405.049	11.2035	810098	prompt	n/a	struck only halifax effectiveness\n
405.5155	0.09	811031	keystroke_s	s	n/a
405.7255	0.0755	811451	keystroke_t	t	n/a
405.906	0.105	811812	keystroke_r	r	n/a
406.116	0.09	812232	keystroke_u	u	n/a
406.251	0.105	812502	keystroke_c	c	n/a
406.4465	0.12	812893	keystroke_k	k	n/a
406.7165	0.105	813433	keystroke_Key.space	Key.space	n/a
406.9115	0.135	813823	keystroke_o	o	n/a
407.0155	0.136	814031	keystroke_n	n	n/a
407.1665	0.12	814333	keystroke_l	l	n/a
407.4665	0.1495	814933	keystroke_y	y	n/a
407.5415	0.1195	815083	keystroke_Key.space	Key.space	n/a
407.781	0.12	815562	keystroke_h	h	n/a
407.946	0.12	815892	keystroke_a	a	n/a
408.081	0.135	816162	keystroke_l	l	n/a
408.396	0.12	816792	keystroke_i	i	n/a
409.1005	0.046	818201	keystroke_f	f	n/a
409.3115	0.09	818623	keystroke_a	a	n/a
409.6115	0.089	819223	keystroke_x	x	n/a
410.3155	0.09	820631	keystroke_Key.space	Key.space	n/a
410.481	0.09	820962	keystroke_e	e	n/a
412.2205	0.075	824441	keystroke_f	f	n/a
412.4155	0.075	824831	keystroke_f	f	n/a
412.5355	0.151	825071	keystroke_e	e	n/a
412.6715	0.06	825343	keystroke_c	c	n/a
412.9415	0.1045	825883	keystroke_t	t	n/a
413.121	0.0895	826242	keystroke_i	i	n/a
413.2855	0.135	826571	keystroke_v	v	n/a
413.3755	0.12	826751	keystroke_e	e	n/a
413.661	0.105	827322	keystroke_n	n	n/a
413.796	0.09	827592	keystroke_e	e	n/a
414.006	0.06	828012	keystroke_s	s	n/a
414.141	0.105	828282	keystroke_s	s	n/a
416.166	0.075	832332	keystroke_Key.enter	Key.enter	n/a
416.2575	10.405	832515	prompt	n/a	mercury drug strain delivered\n
416.8865	0.105	833773	keystroke_m	m	n/a
416.9615	0.09	833923	keystroke_e	e	n/a
417.2305	0.091	834461	keystroke_r	r	n/a
417.4865	0.135	834973	keystroke_c	c	n/a
417.6665	0.044	835333	keystroke_u	u	n/a
417.8015	0.089	835603	keystroke_r	r	n/a
418.281	0.09	836562	keystroke_y	y	n/a
418.626	0.1045	837252	keystroke_Key.space	Key.space	n/a
419.3455	0.09	838691	keystroke_d	d	n/a
419.5405	0.091	839081	keystroke_r	r	n/a
419.7515	0.09	839503	keystroke_u	u	n/a
419.9015	0.09	839803	keystroke_g	g	n/a
420.486	0.12	840972	keystroke_Key.space	Key.space	n/a
420.711	0.075	841422	keystroke_s	s	n/a
420.921	0.09	841842	keystroke_t	t	n/a
421.1005	0.09	842201	keystroke_r	r	n/a
421.1605	0.135	842321	keystroke_a	a	n/a
421.3405	0.12	842681	keystroke_i	i	n/a
421.4155	0.12	842831	keystroke_n	n	n/a
421.641	0.09	843282	keystroke_Key.space	Key.space	n/a
422.136	0.12	844272	keystroke_d	d	n/a
422.226	0.105	844452	keystroke_e	e	n/a
422.466	0.12	844932	keystroke_l	l	n/a
422.541	0.105	845082	keystroke_i	i	n/a
422.766	0.12	845532	keystroke_v	v	n/a
422.946	0.1945	845892	keystroke_e	e	n/a
423.201	0.1495	846402	keystroke_r	r	n/a
425.046	0.03	850092	keystroke_e	e	n/a
425.061	0.0305	850122	keystroke_d	d	n/a
426.576	0.075	853152	keystroke_Key.enter	Key.enter	n/a
426.667	8.0775	853334	prompt	n/a	taxes unlock treasures renew\n
427.656	0.105	855312	keystroke_t	t	n/a
427.791	0.18	855582	keystroke_a	a	n/a
428.2405	0.12	856481	keystroke_x	x	n/a
428.7055	0.09	857411	keystroke_e	e	n/a
428.9305	0.075	857861	keystroke_s	s	n/a
429.0805	0.12	858161	keystroke_Key.space	Key.space	n/a
429.3805	0.12	858761	keystroke_u	u	n/a
429.5455	0.105	859091	keystroke_n	n	n/a
429.7405	0.075	859481	keystroke_l	l	n/a
429.9505	0.09	859901	keystroke_o	o	n/a
430.1605	0.09	860321	keystroke_c	c	n/a
430.2955	0.15	860591	keystroke_k	k	n/a
430.3855	0.135	860771	keystroke_Key.space	Key.space	n/a
430.7005	0.105	861401	keystroke_t	t	n/a
430.8955	0.165	861791	keystroke_r	r	n/a
431.0315	0.1345	862063	keystroke_e	e	n/a
431.166	0.12	862332	keystroke_a	a	n/a
431.436	0.12	862872	keystroke_s	s	n/a
431.6155	0.105	863231	keystroke_u	u	n/a
431.7955	0.075	863591	keystroke_e	e	n/a
432.456	0.06	864912	keystroke_Key.backspace	Key.backspace	n/a
432.546	0.12	865092	keystroke_r	r	n/a
432.621	0.12	865242	keystroke_e	e	n/a
432.846	0.105	865692	keystroke_s	s	n/a
433.011	0.1055	866022	keystroke_Key.space	Key.space	n/a
433.4465	0.1345	866893	keystroke_r	r	n/a
433.5215	0.1045	867043	keystroke_e	e	n/a
433.641	0.165	867282	keystroke_n	n	n/a
433.971	0.105	867942	keystroke_e	e	n/a
434.016	0.12	868032	keystroke_w	w	n/a
434.6465	0.09	869293	keystroke_Key.enter	Key.enter	n/a
434.749	6.3185	869498	prompt	n/a	antibodies admin compete spending\n
435.336	0.105	870672	keystroke_a	a	n/a
435.426	0.09	870852	keystroke_n	n	n/a
435.7105	0.0905	871421	keystroke_t	t	n/a
435.861	0.06	871722	keystroke_i	i	n/a
436.176	0.09	872352	keystroke_b	b	n/a
436.356	0.1045	872712	keystroke_o	o	n/a
436.5205	0.091	873041	keystroke_d	d	n/a
436.6415	0.09	873283	keystroke_i	i	n/a
436.7605	0.076	873521	keystroke_e	e	n/a
436.9415	0.075	873883	keystroke_s	s	n/a
437.0605	0.06	874121	keystroke_Key.space	Key.space	n/a
437.1805	0.105	874361	keystroke_a	a	n/a
437.3005	0.09	874601	keystroke_d	d	n/a
437.4955	0.1205	874991	keystroke_m	m	n/a
437.721	0.12	875442	keystroke_i	i	n/a
437.811	0.135	875622	keystroke_n	n	n/a
437.991	0.06	875982	keystroke_Key.space	Key.space	n/a
438.276	0.09	876552	keystroke_c	c	n/a
438.396	0.12	876792	keystroke_o	o	n/a
438.471	0.09	876942	keystroke_m	m	n/a
438.621	0.09	877242	keystroke_p	p	n/a
438.756	0.09	877512	keystroke_e	e	n/a
438.951	0.075	877902	keystroke_t	t	n/a
439.011	0.105	878022	keystroke_e	e	n/a
439.356	0.09	878712	keystroke_Key.space	Key.space	n/a
439.521	0.075	879042	keystroke_s	s	n/a
439.611	0.09	879222	keystroke_p	p	n/a
439.731	0.075	879462	keystroke_e	e	n/a
440.166	0.075	880332	keystroke_n	n	n/a
440.256	0.105	880512	keystroke_d	d	n/a
440.406	0.075	880812	keystroke_i	i	n/a
440.451	0.09	880902	keystroke_n	n	n/a
440.6015	0.075	881203	keystroke_g	g	n/a
440.991	0.075	881982	keystroke_Key.enter	Key.enter	n/a
441.0705	10.0695	882141	prompt	n/a	photographic dealing parameters iceland\n
441.8165	0.0895	883633	keystroke_p	p	n/a
442.026	0.135	884052	keystroke_h	h	n/a
442.116	0.105	884232	keystroke_o	o	n/a
442.251	0.09	884502	keystroke_t	t	n/a
442.356	0.09	884712	keystroke_o	o	n/a
443.3455	0.045	886691	keystroke_g	g	n/a
443.5105	0.0905	887021	keystroke_r	r	n/a
443.616	0.135	887232	keystroke_a	a	n/a
443.736	0.06	887472	keystroke_p	p	n/a
443.901	0.165	887802	keystroke_h	h	n/a
444.036	0.12	888072	keystroke_i	i	n/a
444.606	0.105	889212	keystroke_c	c	n/a
445.2065	0.15	890413	keystroke_Key.space	Key.space	n/a
445.5215	0.1495	891043	keystroke_d	d	n/a
445.596	0.165	891192	keystroke_e	e	n/a
445.701	0.12	891402	keystroke_a	a	n/a
445.791	0.18	891582	keystroke_l	l	n/a
445.911	0.15	891822	keystroke_i	i	n/a
446.001	0.135	892002	keystroke_n	n	n/a
446.121	0.09	892242	keystroke_g	g	n/a
446.256	0.09	892512	keystroke_Key.space	Key.space	n/a
446.436	0.09	892872	keystroke_p	p	n/a
446.541	0.12	893082	keystroke_a	a	n/a
446.646	0.15	893292	keystroke_r	r	n/a
446.781	0.105	893562	keystroke_a	a	n/a
447.066	0.105	894132	keystroke_m	m	n/a
447.201	0.09	894402	keystroke_e	e	n/a
447.366	0.105	894732	keystroke_t	t	n/a
447.5765	0.12	895153	keystroke_e	e	n/a
447.7115	0.09	895423	keystroke_r	r	n/a
448.1465	0.105	896293	keystroke_d	d	n/a
448.7015	0.105	897403	keystroke_Key.backspace	Key.backspace	n/a
448.7915	0.09	897583	keystroke_s	s	n/a
449.0165	0.09	898033	keystroke_Key.space	Key.space	n/a
449.2415	0.09	898483	keystroke_i	i	n/a
449.3915	0.15	898783	keystroke_c	c	n/a
449.5565	0.105	899113	keystroke_e	e	n/a
449.7515	0.045	899503	keystroke_l	l	n/a
449.8415	0.075	899683	keystroke_a	a	n/a
449.9315	0.09	899863	keystroke_n	n	n/a
450.0065	0.105	900013	keystroke_d	d	n/a
451.0705	0.06	902141	keystroke_Key.enter	Key.enter	n/a
451.144	9.956	902288	prompt	n/a	acre yang stability camping\n
451.9115	0.12	903823	keystroke_a	a	n/a
452.1365	0.105	904273	keystroke_c	c	n/a
452.6765	0.119	905353	keystroke_r	r	n/a
452.7505	0.105	905501	keystroke_e	e	n/a
453.0655	0.0905	906131	keystroke_Key.space	Key.space	n/a
453.846	0.075	907692	keystroke_y	y	n/a
453.981	0.06	907962	keystroke_a	a	n/a
454.071	0.1045	908142	keystroke_n	n	n/a
454.3405	0.09	908681	keystroke_g	g	n/a
455.0605	0.12	910121	keystroke_Key.space	Key.space	n/a
455.1955	0.075	910391	keystroke_s	s	n/a
455.4065	0.074	910813	keystroke_t	t	n/a
455.5405	0.121	911081	keystroke_a	a	n/a
455.6915	0.09	911383	keystroke_b	b	n/a
455.8865	0.1345	911773	keystroke_i	i	n/a
456.036	0.15	912072	keystroke_l	l	n/a
456.126	0.105	912252	keystroke_i	i	n/a
456.276	0.09	912552	keystroke_t	t	n/a
456.411	0.135	912822	keystroke_y	y	n/a
456.531	0.12	913062	keystroke_Key.space	Key.space	n/a
456.771	0.0605	913542	keystroke_c	c	n/a
457.0265	0.105	914053	keystroke_a	a	n/a
457.2215	0.06	914443	keystroke_p	p	n/a
457.5965	0.059	915193	keystroke_m	m	n/a
457.8955	0.061	915791	keystroke_Key.backspace	Key.backspace	n/a
458.0305	0.045	916061	keystroke_Key.backspace	Key.backspace	n/a
458.226	0.105	916452	keystroke_m	m	n/a
458.406	0.12	916812	keystroke_p	p	n/a
459.261	0.075	918522	keystroke_i	i	n/a
459.306	0.105	918612	keystroke_n	n	n/a
459.411	0.09	918822	keystroke_g	g	n/a
461.001	0.09	922002	keystroke_Key.enter	Key.enter	n/a
461.104	10.288	922208	prompt	n/a	workshop unavailable securities junior\n
461.916	0.1055	923832	keystroke_w	w	n/a
462.006	0.1055	924012	keystroke_o	o	n/a
462.1715	0.089	924343	keystroke_r	r	n/a
462.306	0.075	924612	keystroke_k	k	n/a
462.5005	0.0755	925001	keystroke_s	s	n/a
462.621	0.1345	925242	keystroke_h	h	n/a
462.696	0.105	925392	keystroke_o	o	n/a
462.906	0.09	925812	keystroke_p	p	n/a
463.116	0.12	926232	keystroke_Key.space	Key.space	n/a
463.596	0.135	927192	keystroke_u	u	n/a
463.716	0.135	927432	keystroke_n	n	n/a
463.911	0.075	927822	keystroke_a	a	n/a
464.361	0.1055	928722	keystroke_b	b	n/a
465.096	0.06	930192	keystroke_Key.backspace	Key.backspace	n/a
465.231	0.105	930462	keystroke_v	v	n/a
465.306	0.1205	930612	keystroke_a	a	n/a
465.411	0.09	930822	keystroke_i	i	n/a
465.606	0.09	931212	keystroke_l	l	n/a
466.011	0.1055	932022	keystroke_a	a	n/a
466.1165	0.105	932233	keystroke_b	b	n/a
466.2065	0.12	932413	keystroke_l	l	n/a
466.3415	0.105	932683	keystroke_e	e	n/a
466.4165	0.15	932833	keystroke_Key.space	Key.space	n/a
466.641	0.09	933282	keystroke_s	s	n/a
466.806	0.09	933612	keystroke_e	e	n/a
467.031	0.12	934062	keystroke_c	c	n/a
467.241	0.105	934482	keystroke_u	u	n/a
467.661	0.1055	935322	keystroke_r	r	n/a
467.8715	0.075	935743	keystroke_i	i	n/a
468.1415	0.0895	936283	keystroke_t	t	n/a
468.246	0.09	936492	keystroke_i	i	n/a
468.7555	0.09	937511	keystroke_e	e	n/a
468.9965	0.075	937993	keystroke_s	s	n/a
469.1465	0.12	938293	keystroke_Key.space	Key.space	n/a
469.9265	0.075	939853	keystroke_j	j	n/a
470.1215	0.09	940243	keystroke_u	u	n/a
470.2565	0.12	940513	keystroke_n	n	n/a
470.4215	0.1045	940843	keystroke_i	i	n/a
470.481	0.135	940962	keystroke_o	o	n/a
470.751	0.105	941502	keystroke_r	r	n/a
471.306	0.075	942612	keystroke_Key.enter	Key.enter	n/a
471.3975	8.6925	942795	prompt	n/a	participating delhi handmade filtering\n
471.9815	0.0895	943963	keystroke_p	p	n/a
472.2215	0.1195	944443	keystroke_a	a	n/a
472.311	0.09	944622	keystroke_r	r	n/a
472.521	0.09	945042	keystroke_t	t	n/a
472.641	0.075	945282	keystroke_i	i	n/a
472.881	0.09	945762	keystroke_c	c	n/a
473.001	0.09	946002	keystroke_i	i	n/a
473.211	0.09	946422	keystroke_p	p	n/a
473.376	0.075	946752	keystroke_a	a	n/a
473.5855	0.06	947171	keystroke_t	t	n/a
473.7055	0.135	947411	keystroke_i	i	n/a
473.7805	0.105	947561	keystroke_n	n	n/a
473.8705	0.105	947741	keystroke_g	g	n/a
474.0205	0.075	948041	keystroke_Key.space	Key.space	n/a
474.2155	0.165	948431	keystroke_d	d	n/a
474.3205	0.12	948641	keystroke_e	e	n/a
474.486	0.12	948972	keystroke_l	l	n/a
475.011	0.1205	950022	keystroke_h	h	n/a
475.1165	0.075	950233	keystroke_i	i	n/a
475.3265	0.089	950653	keystroke_Key.space	Key.space	n/a
476.0015	0.195	952003	keystroke_h	h	n/a
476.2115	0.03	952423	keystroke_a	a	n/a
476.2265	0.03	952453	keystroke_n	n	n/a
476.2565	0.075	952513	keystroke_d	d	n/a
476.4365	0.075	952873	keystroke_e	e	n/a
476.9165	0.045	953833	keystroke_Key.backspace	Key.backspace	n/a
477.0965	0.09	954193	keystroke_m	m	n/a
477.1715	0.135	954343	keystroke_a	a	n/a
477.2915	0.12	954583	keystroke_d	d	n/a
477.3515	0.105	954703	keystroke_e	e	n/a
477.8755	0.09	955751	keystroke_Key.space	Key.space	n/a
478.3415	0.12	956683	keystroke_f	f	n/a
478.5665	0.1045	957133	keystroke_i	i	n/a
478.716	0.09	957432	keystroke_l	l	n/a
478.986	0.12	957972	keystroke_t	t	n/a
479.136	0.105	958272	keystroke_e	e	n/a
479.226	0.09	958452	keystroke_r	r	n/a
479.376	0.135	958752	keystroke_i	i	n/a
479.481	0.09	958962	keystroke_n	n	n/a
479.556	0.075	959112	keystroke_g	g	n/a
480.006	0.075	960012	keystroke_Key.enter	Key.enter	n/a
480.094	11.535	960188	prompt	n/a	slip canada birmingham frog\n
480.771	0.0455	961542	keystroke_s	s	n/a
480.876	0.1205	961752	keystroke_l	l	n/a
480.966	0.09	961932	keystroke_i	i	n/a
481.161	0.075	962322	keystroke_p	p	n/a
481.326	0.09	962652	keystroke_Key.space	Key.space	n/a
481.5815	0.105	963163	keystroke_c	c	n/a
481.6565	0.135	963313	keystroke_a	a	n/a
481.8215	0.0745	963643	keystroke_n	n	n/a
481.926	0.12	963852	keystroke_a	a	n/a
482.481	0.121	964962	keystroke_d	d	n/a
482.586	0.1355	965172	keystroke_a	a	n/a
482.8105	0.1055	965621	keystroke_Key.space	Key.space	n/a
483.1705	0.076	966341	keystroke_b	b	n/a
483.9815	0.09	967963	keystroke_i	i	n/a
484.101	0.09	968202	keystroke_r	r	n/a
484.506	0.075	969012	keystroke_m	m	n/a
484.746	0.09	969492	keystroke_i	i	n/a
485.091	0.075	970182	keystroke_g	g	n/a
485.436	0.075	970872	keystroke_Key.backspace	Key.backspace	n/a
485.6465	0.105	971293	keystroke_n	n	n/a
485.7665	0.06	971533	keystroke_g	g	n/a
486.1115	0.09	972223	keystroke_h	h	n/a
486.2315	0.105	972463	keystroke_a	a	n/a
486.6815	0.09	973363	keystroke_m	m	n/a
486.8915	0.075	973783	keystroke_Key.space	Key.space	n/a
487.6715	0.06	975343	keystroke_f	f	n/a
487.8965	0.12	975793	keystroke_o	o	n/a
488.4065	0.06	976813	keystroke_Key.backspace	Key.backspace	n/a
488.4815	0.105	976963	keystroke_r	r	n/a
488.9465	0.105	977893	keystroke_o	o	n/a
489.1115	0.105	978223	keystroke_g	g	n/a
491.619	0.0005	983238	keystroke_Key.enter	Key.enter	n/a
491.633	7.38	983266	prompt	n/a	lace retirement trying shield\n
492.9365	0.12	985873	keystroke_l	l	n/a
493.0415	0.105	986083	keystroke_a	a	n/a
493.1165	0.1495	986233	keystroke_c	c	n/a
493.2215	0.0895	986443	keystroke_e	e	n/a
493.356	0.12	986712	keystroke_Key.space	Key.space	n/a
493.806	0.135	987612	keystroke_r	r	n/a
493.881	0.15	987762	keystroke_e	e	n/a
494.136	0.06	988272	keystroke_t	t	n/a
494.286	0.075	988572	keystroke_i	i	n/a
494.391	0.12	988782	keystroke_r	r	n/a
494.496	0.106	988992	keystroke_e	e	n/a
494.841	0.09	989682	keystroke_m	m	n/a
494.977	0.074	989954	keystroke_e	e	n/a
495.066	0.09	990132	keystroke_n	n	n/a
495.171	0.09	990342	keystroke_t	t	n/a
495.336	0.09	990672	keystroke_Key.space	Key.space	n/a
495.786	0.09	991572	keystroke_t	t	n/a
495.981	0.09	991962	keystroke_r	r	n/a
496.056	0.105	992112	keystroke_y	y	n/a
496.296	0.06	992592	keystroke_u	u	n/a
496.8815	0.06	993763	keystroke_Key.backspace	Key.backspace	n/a
497.0915	0.105	994183	keystroke_i	i	n/a
497.1515	0.12	994303	keystroke_n	n	n/a
497.2565	0.09	994513	keystroke_g	g	n/a
497.3765	0.105	994753	keystroke_Key.space	Key.space	n/a
497.646	0.105	995292	keystroke_s	s	n/a
497.931	0.09	995862	keystroke_h	h	n/a
498.156	0.03	996312	keystroke_i	i	n/a
498.336	0.075	996672	keystroke_e	e	n/a
498.456	0.075	996912	keystroke_l	l	n/a
498.591	0.0755	997182	keystroke_d	d	n/a
498.9365	0.075	997873	keystroke_Key.enter	Key.enter	n/a
499.0155	5.457	998031	prompt	n/a	postage passes tank decades\n
499.716	0.1055	999432	keystroke_p	p	n/a
499.8515	0.105	999703	keystroke_o	o	n/a
500.0165	0.09	1000033	keystroke_s	s	n/a
500.2565	0.075	1000513	keystroke_t	t	n/a
500.4515	0.105	1000903	keystroke_a	a	n/a
500.7065	0.1345	1001413	keystroke_g	g	n/a
500.796	0.105	1001592	keystroke_e	e	n/a
500.931	0.12	1001862	keystroke_Key.space	Key.space	n/a
501.096	0.12	1002192	keystroke_p	p	n/a
501.201	0.135	1002402	keystroke_a	a	n/a
501.276	0.075	1002552	keystroke_s	s	n/a
501.426	0.09	1002852	keystroke_s	s	n/a
501.6215	0.075	1003243	keystroke_e	e	n/a
501.7865	0.105	1003573	keystroke_s	s	n/a
501.9065	0.09	1003813	keystroke_Key.space	Key.space	n/a
502.071	0.105	1004142	keystroke_t	t	n/a
502.221	0.12	1004442	keystroke_a	a	n/a
502.356	0.15	1004712	keystroke_n	n	n/a
502.476	0.18	1004952	keystroke_k	k	n/a
502.611	0.105	1005222	keystroke_Key.space	Key.space	n/a
502.9565	0.105	1005913	keystroke_d	d	n/a
503.0165	0.105	1006033	keystroke_e	e	n/a
503.196	0.105	1006392	keystroke_c	c	n/a
503.361	0.165	1006722	keystroke_a	a	n/a
503.511	0.195	1007022	keystroke_d	d	n/a
503.646	0.105	1007292	keystroke_e	e	n/a
503.841	0.09	1007682	keystroke_s	s	n/a
504.381	0.09	1008762	keystroke_Key.enter	Key.enter	n/a
504.4755	9.201	1008951	prompt	n/a	structural sleeve contracts eugene\n
505.011	0.09	1010022	keystroke_s	s	n/a
505.236	0.075	1010472	keystroke_t	t	n/a
505.401	0.09	1010802	keystroke_r	r	n/a
505.521	0.1055	1011042	keystroke_u	u	n/a
505.6415	0.12	1011283	keystroke_c	c	n/a
506.061	0.105	1012122	keystroke_t	t	n/a
506.2265	0.104	1012453	keystroke_u	u	n/a
506.421	0.1055	1012842	keystroke_r	r	n/a
506.5715	0.135	1013143	keystroke_a	a	n/a
506.8115	0.09	1013623	keystroke_l	l	n/a
507.0065	0.105	1014013	keystroke_Key.space	Key.space	n/a
507.5015	0.09	1015003	keystroke_s	s	n/a
507.6215	0.075	1015243	keystroke_l	l	n/a
507.7415	0.0745	1015483	keystroke_e	e	n/a
507.876	0.075	1015752	keystroke_e	e	n/a
508.026	0.12	1016052	keystroke_v	v	n/a
508.116	0.075	1016232	keystroke_e	e	n/a
508.281	0.105	1016562	keystroke_Key.space	Key.space	n/a
508.956	0.105	1017912	keystroke_c	c	n/a
509.046	0.135	1018092	keystroke_o	o	n/a
509.151	0.09	1018302	keystroke_n	n	n/a
509.406	0.075	1018812	keystroke_t	t	n/a
509.571	0.075	1019142	keystroke_r	r	n/a
509.661	0.18	1019322	keystroke_a	a	n/a
509.811	0.12	1019622	keystroke_c	c	n/a
510.096	0.03	1020192	keystroke_t	t	n/a
510.411	0.075	1020822	keystroke_s	s	n/a
510.546	0.105	1021092	keystroke_Key.space	Key.space	n/a
511.041	0.09	1022082	keystroke_s	s	n/a
511.6715	0.075	1023343	keystroke_Key.backspace	Key.backspace	n/a
511.7915	0.09	1023583	keystroke_e	e	n/a
511.9715	0.075	1023943	keystroke_u	u	n/a
512.6315	0.015	1025263	keystroke_g	g	n/a
512.887	0.12	1025774	keystroke_e	e	n/a
513.036	0.09	1026072	keystroke_n	n	n/a
513.112	0.09	1026224	keystroke_e	e	n/a
513.576	0.09	1027152	keystroke_Key.enter	Key.enter	n/a
513.6815	4.5915	1027363	prompt	n/a	knit carmen action cons\n
514.4465	0.18	1028893	keystroke_k	k	n/a
514.5365	0.135	1029073	keystroke_n	n	n/a
514.6415	0.105	1029283	keystroke_o	o	n/a
515.0315	0.075	1030063	keystroke_Key.backspace	Key.backspace	n/a
515.211	0.075	1030422	keystroke_i	i	n/a
515.331	0.075	1030662	keystroke_t	t	n/a
515.436	0.075	1030872	keystroke_Key.space	Key.space	n/a
515.6315	0.105	1031263	keystroke_c	c	n/a
515.7215	0.135	1031443	keystroke_a	a	n/a
515.8865	0.09	1031773	keystroke_r	r	n/a
516.0965	0.06	1032193	keystroke_m	m	n/a
516.1715	0.09	1032343	keystroke_e	e	n/a
516.2915	0.105	1032583	keystroke_n	n	n/a
516.5765	0.075	1033153	keystroke_Key.space	Key.space	n/a
516.7415	0.165	1033483	keystroke_a	a	n/a
516.8615	0.09	1033723	keystroke_c	c	n/a
517.1315	0.06	1034263	keystroke_t	t	n/a
517.1915	0.21	1034383	keystroke_i	i	n/a
517.2815	0.135	1034563	keystroke_o	o	n/a
517.3265	0.165	1034653	keystroke_n	n	n/a
517.4765	0.0895	1034953	keystroke_Key.space	Key.space	n/a
517.626	0.12	1035252	keystroke_c	c	n/a
517.701	0.12	1035402	keystroke_o	o	n/a
517.791	0.135	1035582	keystroke_n	n	n/a
517.911	0.09	1035822	keystroke_s	s	n/a
518.1965	0.075	1036393	keystroke_Key.enter	Key.enter	n/a
518.2755	10.627	1036551	prompt	n/a	pills bottles initiatives contents\n
519.021	0.15	1038042	keystroke_p	p	n/a
519.172	0.104	1038344	keystroke_o	o	n/a
519.8165	0.075	1039633	keystroke_Key.backspace	Key.backspace	n/a
520.4465	0.075	1040893	keystroke_i	i	n/a
520.6115	0.06	1041223	keystroke_l	l	n/a
520.7765	0.075	1041553	keystroke_l	l	n/a
520.881	0.0905	1041762	keystroke_s	s	n/a
520.9865	0.09	1041973	keystroke_Key.space	Key.space	n/a
521.1965	0.15	1042393	keystroke_b	b	n/a
521.3165	0.105	1042633	keystroke_o	o	n/a
521.4365	0.075	1042873	keystroke_t	t	n/a
521.5865	0.105	1043173	keystroke_t	t	n/a
521.9315	0.075	1043863	keystroke_l	l	n/a
522.0515	0.06	1044103	keystroke_e	e	n/a
522.2315	0.0895	1044463	keystroke_s	s	n/a
522.891	0.105	1045782	keystroke_Key.space	Key.space	n/a
523.056	0.165	1046112	keystroke_i	i	n/a
523.176	0.135	1046352	keystroke_n	n	n/a
523.3265	0.0895	1046653	keystroke_i	i	n/a
523.446	0.075	1046892	keystroke_t	t	n/a
523.7015	0.12	1047403	keystroke_a	a	n/a
525.3965	0.09	1050793	keystroke_Key.backspace	Key.backspace	n/a
525.6365	0.075	1051273	keystroke_i	i	n/a
525.7565	0.105	1051513	keystroke_a	a	n/a
526.0565	0.075	1052113	keystroke_t	t	n/a
526.1615	0.105	1052323	keystroke_i	i	n/a
526.327	0.134	1052654	keystroke_v	v	n/a
526.401	0.12	1052802	keystroke_e	e	n/a
526.626	0.0905	1053252	keystroke_s	s	n/a
526.7615	0.075	1053523	keystroke_Key.space	Key.space	n/a
526.8965	0.12	1053793	keystroke_c	c	n/a
527.0015	0.135	1054003	keystroke_o	o	n/a
527.0915	0.105	1054183	keystroke_n	n	n/a
527.2265	0.105	1054453	keystroke_t	t	n/a
527.3915	0.12	1054783	keystroke_e	e	n/a
527.826	0.09	1055652	keystroke_n	n	n/a
528.246	0.09	1056492	keystroke_t	t	n/a
528.441	0.09	1056882	keystroke_s	s	n/a
528.8005	0.091	1057601	keystroke_Key.enter	Key.enter	n/a
528.9065	10.5245	1057813	prompt	n/a	butler it's adrian communications\n
529.611	0.105	1059222	keystroke_b	b	n/a
529.791	0.075	1059582	keystroke_u	u	n/a
530.137	0.104	1060274	keystroke_t	t	n/a
530.317	0.09	1060634	keystroke_l	l	n/a
530.512	0.134	1061024	keystroke_e	e	n/a
530.676	0.105	1061352	keystroke_r	r	n/a
530.826	0.09	1061652	keystroke_Key.space	Key.space	n/a
530.991	0.12	1061982	keystroke_i	i	n/a
531.141	0.075	1062282	keystroke_t	t	n/a
531.306	0.12	1062612	keystroke_'	'	n/a
531.471	0.06	1062942	keystroke_s	s	n/a
531.546	0.09	1063092	keystroke_Key.space	Key.space	n/a
531.681	0.1505	1063362	keystroke_a	a	n/a
531.8465	0.15	1063693	keystroke_d	d	n/a
532.1465	0.15	1064293	keystroke_r	r	n/a
532.3265	0.075	1064653	keystroke_i	i	n/a
532.4465	0.12	1064893	keystroke_a	a	n/a
532.5965	0.135	1065193	keystroke_n	n	n/a
532.896	0.09	1065792	keystroke_Key.space	Key.space	n/a
533.196	0.12	1066392	keystroke_c	c	n/a
533.301	0.1655	1066602	keystroke_o	o	n/a
534.4265	0.075	1068853	keystroke_m	m	n/a
534.577	0.09	1069154	keystroke_m	m	n/a
534.9515	0.09	1069903	keystroke_u	u	n/a
535.1465	0.09	1070293	keystroke_n	n	n/a
535.2815	0.09	1070563	keystroke_i	i	n/a
538.2685	0.058	1076537	keystroke_c	c	n/a
538.2695	0.147	1076539	keystroke_a	a	n/a
538.5365	0.09	1077073	keystroke_t	t	n/a
538.6415	0.195	1077283	keystroke_i	i	n/a
538.7315	0.12	1077463	keystroke_o	o	n/a
538.7915	0.12	1077583	keystroke_n	n	n/a
538.9265	0.09	1077853	keystroke_s	s	n/a
539.3465	0.0755	1078693	keystroke_Key.enter	Key.enter	n/a
539.436	23.08	1078872	prompt	n/a	wherever remained louisville authorities\n
540.367	0.089	1080734	keystroke_w	w	n/a
540.471	0.135	1080942	keystroke_h	h	n/a
540.592	0.105	1081184	keystroke_e	e	n/a
540.651	0.166	1081302	keystroke_r	r	n/a
540.771	0.09	1081542	keystroke_e	e	n/a
543.7145	0.042	1087429	keystroke_v	v	n/a
543.8015	0.1045	1087603	keystroke_e	e	n/a
543.861	0.105	1087722	keystroke_r	r	n/a
544.1465	0.09	1088293	keystroke_Key.space	Key.space	n/a
544.881	0.136	1089762	keystroke_r	r	n/a
544.972	0.119	1089944	keystroke_e	e	n/a
545.137	0.135	1090274	keystroke_m	m	n/a
545.286	0.106	1090572	keystroke_a	a	n/a
545.496	0.1355	1090992	keystroke_i	i	n/a
545.6165	0.105	1091233	keystroke_n	n	n/a
545.8565	0.09	1091713	keystroke_d	d	n/a
545.9915	0.12	1091983	keystroke_e	e	n/a
546.0965	0.09	1092193	keystroke_d	d	n/a
546.2165	0.12	1092433	keystroke_Key.space	Key.space	n/a
547.1165	0.06	1094233	keystroke_Key.backspace	Key.backspace	n/a
547.266	0.06	1094532	keystroke_Key.backspace	Key.backspace	n/a
547.401	0.075	1094802	keystroke_Key.backspace	Key.backspace	n/a
547.5515	0.075	1095103	keystroke_Key.backspace	Key.backspace	n/a
548.8415	0.105	1097683	keystroke_e	e	n/a
548.9015	0.12	1097803	keystroke_d	d	n/a
549.0965	0.105	1098193	keystroke_Key.space	Key.space	n/a
549.6065	0.06	1099213	keystroke_l	l	n/a
549.8465	0.195	1099693	keystroke_o	o	n/a
549.9665	0.105	1099933	keystroke_i	i	n/a
550.1765	0.09	1100353	keystroke_u	u	n/a
550.3115	0.09	1100623	keystroke_s	s	n/a
551.587	0.06	1103174	keystroke_Key.backspace	Key.backspace	n/a
551.737	0.075	1103474	keystroke_Key.backspace	Key.backspace	n/a
551.902	0.075	1103804	keystroke_Key.backspace	Key.backspace	n/a
552.157	0.1045	1104314	keystroke_i	i	n/a
552.2165	0.09	1104433	keystroke_o	o	n/a
552.6965	0.06	1105393	keystroke_Key.backspace	Key.backspace	n/a
552.847	0.074	1105694	keystroke_Key.backspace	Key.backspace	n/a
553.2365	0.045	1106473	keystroke_u	u	n/a
553.806	0.075	1107612	keystroke_i	i	n/a
553.956	0.075	1107912	keystroke_s	s	n/a
554.587	0.165	1109174	keystroke_v	v	n/a
554.767	0.06	1109534	keystroke_i	i	n/a
554.932	0.06	1109864	keystroke_l	l	n/a
555.097	0.06	1110194	keystroke_l	l	n/a
555.142	0.075	1110284	keystroke_e	e	n/a
555.307	0.075	1110614	keystroke_Key.space	Key.space	n/a
556.987	0.06	1113974	keystroke_a	a	n/a
557.062	0.09	1114124	keystroke_u	u	n/a
557.197	0.09	1114394	keystroke_t	t	n/a
557.482	0.06	1114964	keystroke_o	o	n/a
557.617	0.1045	1115234	keystroke_h	h	n/a
557.8715	0.045	1115743	keystroke_Key.backspace	Key.backspace	n/a
557.9915	0.075	1115983	keystroke_Key.backspace	Key.backspace	n/a
558.2015	0.09	1116403	keystroke_h	h	n/a
558.2765	0.165	1116553	keystroke_o	o	n/a
558.6965	0.075	1117393	keystroke_i	i	n/a
559.1165	0.03	1118233	keystroke_Key.backspace	Key.backspace	n/a
559.1315	0.12	1118263	keystroke_r	r	n/a
559.4165	0.09	1118833	keystroke_i	i	n/a
559.5515	0.075	1119103	keystroke_t	t	n/a
560.256	0.076	1120512	keystroke_i	i	n/a
560.496	0.09	1120992	keystroke_e	e	n/a
560.736	0.075	1121472	keystroke_s	s	n/a
562.432	0.075	1124864	keystroke_Key.enter	Key.enter	n/a
562.52	9.1605	1125040	prompt	n/a	users nightmare commission battery\n
563.377	0.09	1126754	keystroke_u	u	n/a
563.467	0.089	1126934	keystroke_s	s	n/a
563.661	0.105	1127322	keystroke_e	e	n/a
563.736	0.105	1127472	keystroke_r	r	n/a
563.976	0.105	1127952	keystroke_s	s	n/a
564.141	0.121	1128282	keystroke_Key.space	Key.space	n/a
564.3665	0.165	1128733	keystroke_n	n	n/a
564.457	0.1195	1128914	keystroke_i	i	n/a
564.5915	0.09	1129183	keystroke_g	g	n/a
564.6965	0.105	1129393	keystroke_h	h	n/a
564.8165	0.075	1129633	keystroke_t	t	n/a
565.1165	0.105	1130233	keystroke_m	m	n/a
566.0165	0.105	1132033	keystroke_a	a	n/a
566.1365	0.1355	1132273	keystroke_r	r	n/a
566.212	0.09	1132424	keystroke_e	e	n/a
566.767	0.119	1133534	keystroke_Key.space	Key.space	n/a
566.962	0.104	1133924	keystroke_c	c	n/a
567.067	0.119	1134134	keystroke_o	o	n/a
567.142	0.0895	1134284	keystroke_m	m	n/a
567.3065	0.105	1134613	keystroke_m	m	n/a
567.5165	0.1195	1135033	keystroke_i	i	n/a
567.741	0.105	1135482	keystroke_s	s	n/a
569.2415	0.09	1138483	keystroke_s	s	n/a
569.3465	0.225	1138693	keystroke_i	i	n/a
569.4665	0.12	1138933	keystroke_o	o	n/a
569.6165	0.12	1139233	keystroke_n	n	n/a
569.9615	0.09	1139923	keystroke_Key.space	Key.space	n/a
570.2915	0.075	1140583	keystroke_b	b	n/a
570.4265	0.1045	1140853	keystroke_a	a	n/a
570.651	0.046	1141302	keystroke_t	t	n/a
570.771	0.105	1141542	keystroke_t	t	n/a
570.891	0.12	1141782	keystroke_e	e	n/a
570.966	0.09	1141932	keystroke_r	r	n/a
571.146	0.105	1142292	keystroke_y	y	n/a
571.5815	0.09	1143163	keystroke_Key.enter	Key.enter	n/a
571.6865	9.174	1143373	prompt	n/a	interface video stuart limit\n
572.3165	0.135	1144633	keystroke_i	i	n/a
572.4065	0.12	1144813	keystroke_n	n	n/a
572.5565	0.12	1145113	keystroke_t	t	n/a
572.6915	0.12	1145383	keystroke_e	e	n/a
572.7665	0.09	1145533	keystroke_r	r	n/a
573.2315	0.09	1146463	keystroke_f	f	n/a
573.3365	0.24	1146673	keystroke_a	a	n/a
573.4425	0.164	1146885	keystroke_c	c	n/a
573.5615	0.09	1147123	keystroke_e	e	n/a
573.8465	0.105	1147693	keystroke_Key.space	Key.space	n/a
574.3415	0.105	1148683	keystroke_v	v	n/a
574.4915	0.06	1148983	keystroke_i	i	n/a
574.7015	0.03	1149403	keystroke_d	d	n/a
574.7615	0.18	1149523	keystroke_e	e	n/a
574.8815	0.135	1149763	keystroke_a	a	n/a
575.481	0.06	1150962	keystroke_Key.backspace	Key.backspace	n/a
575.751	0.1055	1151502	keystroke_o	o	n/a
576.2615	0.09	1152523	keystroke_Key.space	Key.space	n/a
576.5015	0.105	1153003	keystroke_s	s	n/a
576.727	0.075	1153454	keystroke_t	t	n/a
576.892	0.06	1153784	keystroke_u	u	n/a
577.282	0.09	1154564	keystroke_a	a	n/a
577.582	0.105	1155164	keystroke_r	r	n/a
577.807	0.105	1155614	keystroke_t	t	n/a
577.942	0.09	1155884	keystroke_Key.space	Key.space	n/a
578.107	0.135	1156214	keystroke_l	l	n/a
578.422	0.0895	1156844	keystroke_i	i	n/a
579.2615	0.135	1158523	keystroke_m	m	n/a
579.3515	0.09	1158703	keystroke_i	i	n/a
579.4565	0.0895	1158913	keystroke_t	t	n/a
580.776	0.076	1161552	keystroke_Key.enter	Key.enter	n/a
580.8645	8.996	1161729	prompt	n/a	brick cemetery luke planet\n
581.542	0.105	1163084	keystroke_b	b	n/a
581.707	0.105	1163414	keystroke_r	r	n/a
581.842	0.06	1163684	keystroke_i	i	n/a
582.097	0.105	1164194	keystroke_c	c	n/a
582.217	0.1345	1164434	keystroke_k	k	n/a
582.3065	0.105	1164613	keystroke_Key.space	Key.space	n/a
582.5915	0.15	1165183	keystroke_c	c	n/a
582.6825	0.1345	1165365	keystroke_e	e	n/a
582.877	0.12	1165754	keystroke_m	m	n/a
583.207	0.105	1166414	keystroke_e	e	n/a
583.507	0.0895	1167014	keystroke_t	t	n/a
584.0315	0.135	1168063	keystroke_e	e	n/a
584.1215	0.105	1168243	keystroke_r	r	n/a
584.3765	0.045	1168753	keystroke_t	t	n/a
584.887	0.015	1169774	keystroke_Key.backspace	Key.backspace	n/a
585.0665	0.075	1170133	keystroke_y	y	n/a
585.5915	0.09	1171183	keystroke_Key.space	Key.space	n/a
585.7865	0.09	1171573	keystroke_l	l	n/a
586.0265	0.015	1172053	keystroke_u	u	n/a
586.4765	0.03	1172953	keystroke_c	c	n/a
586.8965	0.075	1173793	keystroke_Key.backspace	Key.backspace	n/a
587.0915	0.075	1174183	keystroke_k	k	n/a
587.1815	0.105	1174363	keystroke_e	e	n/a
587.6165	0.0595	1175233	keystroke_Key.space	Key.space	n/a
587.857	0.195	1175714	keystroke_p	p	n/a
587.977	0.105	1175954	keystroke_l	l	n/a
588.127	0.135	1176254	keystroke_a	a	n/a
588.277	0.105	1176554	keystroke_n	n	n/a
588.442	0.074	1176884	keystroke_e	e	n/a
588.6365	0.075	1177273	keystroke_t	t	n/a
589.7615	0.09	1179523	keystroke_Key.enter	Key.enter	n/a
589.8645	11.936	1179729	prompt	n/a	norwegian referring beaver agrees\n
590.467	0.105	1180934	keystroke_n	n	n/a
590.692	0.06	1181384	keystroke_o	o	n/a
590.797	0.09	1181594	keystroke_r	r	n/a
591.187	0.09	1182374	keystroke_w	w	n/a
591.442	0.045	1182884	keystroke_e	e	n/a
592.297	0.105	1184594	keystroke_g	g	n/a
592.882	0.075	1185764	keystroke_i	i	n/a
592.987	0.075	1185974	keystroke_a	a	n/a
593.092	0.09	1186184	keystroke_n	n	n/a
593.302	0.12	1186604	keystroke_Key.space	Key.space	n/a
594.8615	0.12	1189723	keystroke_r	r	n/a
594.9365	0.135	1189873	keystroke_e	e	n/a
596.5865	0.12	1193173	keystroke_f	f	n/a
596.7815	0.105	1193563	keystroke_f	f	n/a
597.3365	0.06	1194673	keystroke_Key.backspace	Key.backspace	n/a
597.5015	0.1355	1195003	keystroke_e	e	n/a
597.622	0.06	1195244	keystroke_r	r	n/a
597.756	0.105	1195512	keystroke_r	r	n/a
597.892	0.1345	1195784	keystroke_i	i	n/a
597.982	0.1045	1195964	keystroke_n	n	n/a
598.0715	0.09	1196143	keystroke_g	g	n/a
598.2215	0.105	1196443	keystroke_Key.space	Key.space	n/a
598.5515	0.075	1197103	keystroke_b	b	n/a
598.6565	0.135	1197313	keystroke_e	e	n/a
598.7615	0.135	1197523	keystroke_a	a	n/a
598.9565	0.135	1197913	keystroke_v	v	n/a
599.1065	0.195	1198213	keystroke_e	e	n/a
599.2565	0.105	1198513	keystroke_r	r	n/a
599.7665	0.045	1199533	keystroke_Key.space	Key.space	n/a
600.021	0.12	1200042	keystroke_a	a	n/a
600.487	0.104	1200974	keystroke_g	g	n/a
600.802	0.12	1201604	keystroke_r	r	n/a
600.981	0.061	1201962	keystroke_e	e	n/a
601.147	0.074	1202294	keystroke_e	e	n/a
601.342	0.075	1202684	keystroke_s	s	n/a
601.702	0.09	1203404	keystroke_Key.enter	Key.enter	n/a
601.8045	5.8685	1203609	prompt	n/a	assess rating shares essays\n
602.3315	0.12	1204663	keystroke_a	a	n/a
602.4665	0.075	1204933	keystroke_s	s	n/a
602.6465	0.0755	1205293	keystroke_s	s	n/a
602.871	0.06	1205742	keystroke_e	e	n/a
603.082	0.075	1206164	keystroke_s	s	n/a
603.247	0.09	1206494	keystroke_s	s	n/a
603.381	0.12	1206762	keystroke_Key.space	Key.space	n/a
603.546	0.1655	1207092	keystroke_r	r	n/a
603.9665	0.09	1207933	keystroke_a	a	n/a
604.1315	0.09	1208263	keystroke_t	t	n/a
604.2815	0.12	1208563	keystroke_i	i	n/a
604.3715	0.105	1208743	keystroke_n	n	n/a
604.4315	0.105	1208863	keystroke_g	g	n/a
604.5965	0.09	1209193	keystroke_Key.space	Key.space	n/a
604.7615	0.105	1209523	keystroke_s	s	n/a
604.8815	0.105	1209763	keystroke_h	h	n/a
605.0015	0.12	1210003	keystroke_a	a	n/a
605.1065	0.165	1210213	keystroke_r	r	n/a
605.2865	0.09	1210573	keystroke_e	e	n/a
605.466	0.12	1210932	keystroke_s	s	n/a
605.691	0.075	1211382	keystroke_Key.space	Key.space	n/a
606.1265	0.09	1212253	keystroke_e	e	n/a
606.3365	0.06	1212673	keystroke_s	s	n/a
606.4715	0.09	1212943	keystroke_s	s	n/a
606.5465	0.105	1213093	keystroke_a	a	n/a
606.7115	0.0755	1213423	keystroke_y	y	n/a
606.817	0.09	1213634	keystroke_s	s	n/a
607.5965	0.075	1215193	keystroke_Key.enter	Key.enter	n/a
607.676	6.4775	1215352	prompt	n/a	easier couple warren locations\n
608.2565	0.09	1216513	keystroke_e	e	n/a
608.4065	0.12	1216813	keystroke_a	a	n/a
608.4665	0.105	1216933	keystroke_s	s	n/a
608.6315	0.075	1217263	keystroke_i	i	n/a
608.7515	0.135	1217503	keystroke_e	e	n/a
608.8265	0.12	1217653	keystroke_r	r	n/a
609.0065	0.105	1218013	keystroke_Key.space	Key.space	n/a
609.202	0.105	1218404	keystroke_c	c	n/a
609.292	0.105	1218584	keystroke_o	o	n/a
609.352	0.09	1218704	keystroke_u	u	n/a
609.562	0.164	1219124	keystroke_p	p	n/a
609.666	0.105	1219332	keystroke_l	l	n/a
609.921	0.106	1219842	keystroke_e	e	n/a
610.147	0.089	1220294	keystroke_Key.space	Key.space	n/a
610.432	0.15	1220864	keystroke_w	w	n/a
610.537	0.105	1221074	keystroke_a	a	n/a
610.777	0.075	1221554	keystroke_t	t	n/a
610.942	0.09	1221884	keystroke_t	t	n/a
611.272	0.06	1222544	keystroke_Key.backspace	Key.backspace	n/a
611.407	0.075	1222814	keystroke_Key.backspace	Key.backspace	n/a
611.527	0.0895	1223054	keystroke_r	r	n/a
611.7065	0.105	1223413	keystroke_r	r	n/a
611.782	0.1195	1223564	keystroke_e	e	n/a
611.9315	0.12	1223863	keystroke_n	n	n/a
612.1565	0.075	1224313	keystroke_Key.space	Key.space	n/a
612.3215	0.045	1224643	keystroke_l	l	n/a
612.4865	0.075	1224973	keystroke_o	o	n/a
612.8465	0.09	1225693	keystroke_c	c	n/a
612.9515	0.105	1225903	keystroke_a	a	n/a
613.2215	0.075	1226443	keystroke_t	t	n/a
613.3415	0.2405	1226683	keystroke_i	i	n/a
613.4615	0.1355	1226923	keystroke_o	o	n/a
613.5215	0.1505	1227043	keystroke_n	n	n/a
613.687	0.075	1227374	keystroke_s	s	n/a
614.062	0.09	1228124	keystroke_Key.enter	Key.enter	n/a
614.157	9.664	1228314	prompt	n/a	publish event nevertheless wikipedia\n
614.7665	0.105	1229533	keystroke_p	p	n/a
614.947	0.0745	1229894	keystroke_u	u	n/a
615.1415	0.0905	1230283	keystroke_b	b	n/a
615.367	0.15	1230734	keystroke_l	l	n/a
615.4865	0.1055	1230973	keystroke_i	i	n/a
615.622	0.09	1231244	keystroke_s	s	n/a
615.742	0.1645	1231484	keystroke_h	h	n/a
615.8765	0.075	1231753	keystroke_Key.space	Key.space	n/a
615.9965	0.075	1231993	keystroke_e	e	n/a
616.1765	0.105	1232353	keystroke_v	v	n/a
616.2965	0.15	1232593	keystroke_e	e	n/a
616.4165	0.135	1232833	keystroke_n	n	n/a
616.702	0.09	1233404	keystroke_t	t	n/a
616.987	0.1045	1233974	keystroke_Key.space	Key.space	n/a
617.3015	0.09	1234603	keystroke_n	n	n/a
617.3765	0.075	1234753	keystroke_e	e	n/a
617.5715	0.09	1235143	keystroke_v	v	n/a
617.7365	0.15	1235473	keystroke_e	e	n/a
617.8265	0.121	1235653	keystroke_r	r	n/a
618.1115	0.03	1236223	keystroke_h	h	n/a
