onset	duration	sample	value	key	prompt_text
1.851	9.6525	3702	prompt	n/a	the quick brown fox jumps over a lazy dog\n
3.644	0.059	7288	keystroke_t	t	n/a
3.718	0.075	7436	keystroke_h	h	n/a
3.837	0.1505	7674	keystroke_e	e	n/a
3.943	0.1045	7886	keystroke_Key.space	Key.space	n/a
4.032	0.136	8064	keystroke_q	q	n/a
4.1225	0.105	8245	keystroke_u	u	n/a
4.423	0.0745	8846	keystroke_i	i	n/a
4.978	0.135	9956	keystroke_c	c	n/a
5.0975	0.09	10195	keystroke_k	k	n/a
5.203	0.1195	10406	keystroke_Key.space	Key.space	n/a
5.368	0.0895	10736	keystroke_b	b	n/a
5.4725	0.105	10945	keystroke_r	r	n/a
5.5925	0.0905	11185	keystroke_o	o	n/a
5.698	0.075	11396	keystroke_w	w	n/a
5.878	0.09	11756	keystroke_n	n	n/a
5.983	0.1345	11966	keystroke_Key.space	Key.space	n/a
6.145	0.104	12290	keystroke_f	f	n/a
6.234	0.075	12468	keystroke_o	o	n/a
6.3985	0.1355	12797	keystroke_x	x	n/a
6.579	0.1355	13158	keystroke_Key.space	Key.space	n/a
6.955	0.12	13910	keystroke_j	j	n/a
7.15	0.09	14300	keystroke_u	u	n/a
7.375	0.09	14750	keystroke_m	m	n/a
7.495	0.165	14990	keystroke_p	p	n/a
7.7055	0.1345	15411	keystroke_s	s	n/a
7.78	0.135	15560	keystroke_Key.space	Key.space	n/a
7.9755	0.0895	15951	keystroke_o	o	n/a
8.0805	0.0895	16161	keystroke_v	v	n/a
8.335	0.0905	16670	keystroke_e	e	n/a
8.5305	0.1345	17061	keystroke_r	r	n/a
8.59	0.0905	17180	keystroke_Key.space	Key.space	n/a
8.74	0.18	17480	keystroke_a	a	n/a
8.845	0.105	17690	keystroke_Key.space	Key.space	n/a
8.965	0.1355	17930	keystroke_l	l	n/a
9.0855	0.075	18171	keystroke_a	a	n/a
9.2655	0.1205	18531	keystroke_z	z	n/a
9.6105	0.15	19221	keystroke_y	y	n/a
9.8355	0.075	19671	keystroke_Key.space	Key.space	n/a
9.9405	0.12	19881	keystroke_d	d	n/a
10.091	0.0895	20182	keystroke_o	o	n/a
10.196	0.1045	20392	keystroke_g	g	n/a
10.376	0.1045	20752	keystroke_'	'	n/a
11.0955	0.15	22191	keystroke_Key.backspace	Key.backspace	n/a
11.4405	0.06	22881	keystroke_Key.enter	Key.enter	n/a
11.508	10.2695	23016	prompt	n/a	booking clarke solid databases\n
12.9405	0.075	25881	keystroke_b	b	n/a
13.1505	0.0305	26301	keystroke_o	o	n/a
13.675	0.015	27350	keystroke_o	o	n/a
13.795	0.09	27590	keystroke_k	k	n/a
13.99	0.12	27980	keystroke_i	i	n/a
14.096	0.1045	28192	keystroke_n	n	n/a
14.185	0.1355	28370	keystroke_g	g	n/a
14.3055	0.12	28611	keystroke_Key.space	Key.space	n/a
14.6505	0.1055	29301	keystroke_c	c	n/a
14.966	0.0145	29932	keystroke_l	l	n/a
14.9955	0.105	29991	keystroke_a	a	n/a
15.1155	0.1055	30231	keystroke_r	r	n/a
15.4155	0.105	30831	keystroke_k	k	n/a
15.5355	0.075	31071	keystroke_e	e	n/a
15.8055	0.09	31611	keystroke_Key.space	Key.space	n/a
15.956	0.1195	31912	keystroke_s	s	n/a
16.0605	0.09	32121	keystroke_o	o	n/a
16.4505	0.105	32901	keystroke_i	i	n/a
16.6605	0.1195	33321	keystroke_d	d	n/a
16.765	0.1055	33530	keystroke_Key.space	Key.space	n/a
18.565	0.0605	37130	keystroke_Key.backspace	Key.backspace	n/a
18.715	0.0455	37430	keystroke_Key.backspace	Key.backspace	n/a
18.8355	0.0595	37671	keystroke_Key.backspace	Key.backspace	n/a
19.24	0.09	38480	keystroke_l	l	n/a
19.435	0.1055	38870	keystroke_i	i	n/a
19.5855	0.15	39171	keystroke_d	d	n/a
19.6605	0.12	39321	keystroke_Key.space	Key.space	n/a
19.9155	0.105	39831	keystroke_d	d	n/a
20.0355	0.135	40071	keystroke_a	a	n/a
20.2605	0.0905	40521	keystroke_t	t	n/a
20.4255	0.12	40851	keystroke_a	a	n/a
20.6055	0.075	41211	keystroke_b	b	n/a
20.77	0.1655	41540	keystroke_a	a	n/a
20.921	0.1485	41842	keystroke_s	s	n/a
21.2655	0.105	42531	keystroke_e	e	n/a
21.415	0.12	42830	keystroke_s	s	n/a
21.655	0.1205	43310	keystroke_Key.enter	Key.enter	n/a
21.7815	8.996	43563	prompt	n/a	provision picture glossary specified\n
22.5105	0.135	45021	keystroke_p	p	n/a
22.6155	0.0905	45231	keystroke_r	r	n/a
22.7505	0.1195	45501	keystroke_o	o	n/a
22.9005	0.1055	45801	keystroke_v	v	n/a
23.0505	0.1195	46101	keystroke_i	i	n/a
23.185	0.105	46370	keystroke_s	s	n/a
23.3055	0.0895	46611	keystroke_i	i	n/a
23.471	0.104	46942	keystroke_o	o	n/a
23.6805	0.12	47361	keystroke_n	n	n/a
23.801	0.134	47602	keystroke_Key.space	Key.space	n/a
23.936	0.075	47872	keystroke_p	p	n/a
24.1	0.106	48200	keystroke_i	i	n/a
24.191	0.09	48382	keystroke_c	c	n/a
24.446	0.1045	48892	keystroke_t	t	n/a
24.5205	0.09	49041	keystroke_u	u	n/a
24.9855	0.0905	49971	keystroke_r	r	n/a
25.181	0.105	50362	keystroke_e	e	n/a
25.45	0.136	50900	keystroke_Key.space	Key.space	n/a
25.7505	0.1195	51501	keystroke_g	g	n/a
25.885	0.075	51770	keystroke_l	l	n/a
26.05	0.135	52100	keystroke_o	o	n/a
26.17	0.0755	52340	keystroke_s	s	n/a
26.35	0.1055	52700	keystroke_s	s	n/a
26.485	0.165	52970	keystroke_a	a	n/a
26.575	0.12	53150	keystroke_r	r	n/a
26.92	0.12	53840	keystroke_y	y	n/a
27.175	0.105	54350	keystroke_Key.space	Key.space	n/a
27.4	0.151	54800	keystroke_s	s	n/a
27.5805	0.1045	55161	keystroke_p	p	n/a
27.9705	0.1045	55941	keystroke_e	e	n/a
28.36	0.0755	56720	keystroke_c	c	n/a
28.4955	0.12	56991	keystroke_i	i	n/a
29.756	0.119	59512	keystroke_f	f	n/a
29.845	0.106	59690	keystroke_i	i	n/a
29.981	0.059	59962	keystroke_e	e	n/a
30.161	0.119	60322	keystroke_d	d	n/a
30.236	0.1345	60472	keystroke_Key.space	Key.space	n/a
30.64	0.1355	61280	keystroke_Key.enter	Key.enter	n/a
30.7825	8.62	61565	prompt	n/a	listening smilies postings dispatch\n
31.691	0.09	63382	keystroke_l	l	n/a
31.7955	0.12	63591	keystroke_i	i	n/a
31.856	0.1345	63712	keystroke_s	s	n/a
32.0955	0.09	64191	keystroke_t	t	n/a
32.7555	0.105	65511	keystroke_e	e	n/a
32.8755	0.12	65751	keystroke_n	n	n/a
33.1455	0.15	66291	keystroke_i	i	n/a
33.3255	0.12	66651	keystroke_n	n	n/a
33.476	0.1045	66952	keystroke_g	g	n/a
33.6855	0.135	67371	keystroke_Key.space	Key.space	n/a
33.8805	0.12	67761	keystroke_s	s	n/a
33.9705	0.135	67941	keystroke_m	m	n/a
34.0905	0.105	68181	keystroke_i	i	n/a
34.2255	0.1505	68451	keystroke_l	l	n/a
34.9005	0.075	69801	keystroke_e	e	n/a
35.0355	0.12	70071	keystroke_s	s	n/a
35.126	0.1345	70252	keystroke_Key.space	Key.space	n/a
35.6055	0.135	71211	keystroke_p	p	n/a
35.726	0.1195	71452	keystroke_o	o	n/a
35.831	0.0895	71662	keystroke_s	s	n/a
35.9655	0.1355	71931	keystroke_i	i	n/a
36.1155	0.135	72231	keystroke_t	t	n/a
36.701	0.0445	73402	keystroke_Key.backspace	Key.backspace	n/a
36.836	0.06	73672	keystroke_Key.backspace	Key.backspace	n/a
37.316	0.104	74632	keystroke_t	t	n/a
37.406	0.12	74812	keystroke_i	i	n/a
37.465	0.135	74930	keystroke_n	n	n/a
37.616	0.105	75232	keystroke_g	g	n/a
37.765	0.136	75530	keystroke_Key.space	Key.space	n/a
38.095	0.1055	76190	keystroke_d	d	n/a
38.215	0.121	76430	keystroke_i	i	n/a
38.306	0.134	76612	keystroke_s	s	n/a
38.486	0.12	76972	keystroke_p	p	n/a
38.59	0.1055	77180	keystroke_a	a	n/a
38.725	0.061	77450	keystroke_t	t	n/a
38.921	0.09	77842	keystroke_c	c	n/a
38.996	0.119	77992	keystroke_h	h	n/a
39.266	0.135	78532	keystroke_Key.enter	Key.enter	n/a
39.406	12.7615	78812	prompt	n/a	medieval received printers assisted\n
40.181	0.135	80362	keystroke_m	m	n/a
40.256	0.075	80512	keystroke_e	e	n/a
40.45	0.106	80900	keystroke_d	d	n/a
40.57	0.1055	81140	keystroke_i	i	n/a
40.8115	0.044	81623	keystroke_e	e	n/a
41.021	0.09	82042	keystroke_v	v	n/a
41.216	0.12	82432	keystroke_a	a	n/a
41.321	0.1055	82642	keystroke_l	l	n/a
41.44	0.075	82880	keystroke_Key.space	Key.space	n/a
41.561	0.06	83122	keystroke_r	r	n/a
41.741	0.075	83482	keystroke_e	e	n/a
42.131	0.105	84262	keystroke_c	c	n/a
43.3615	0.1045	86723	keystroke_i	i	n/a
43.631	0.09	87262	keystroke_v	v	n/a
43.871	0.0595	87742	keystroke_e	e	n/a
44.051	0.1195	88102	keystroke_d	d	n/a
44.1105	0.105	88221	keystroke_Key.space	Key.space	n/a
44.306	0.09	88612	keystroke_p	p	n/a
44.3655	0.1205	88731	keystroke_r	r	n/a
44.4705	0.1055	88941	keystroke_i	i	n/a
45.31	0.0755	90620	keystroke_Key.backspace	Key.backspace	n/a
45.476	0.0295	90952	keystroke_Key.backspace	Key.backspace	n/a
45.5955	0.045	91191	keystroke_Key.backspace	Key.backspace	n/a
45.7155	0.06	91431	keystroke_Key.backspace	Key.backspace	n/a
45.881	0.0445	91762	keystroke_Key.backspace	Key.backspace	n/a
46.031	0.09	92062	keystroke_Key.backspace	Key.backspace	n/a
46.1955	0.09	92391	keystroke_Key.backspace	Key.backspace	n/a
47.4705	0.09	94941	keystroke_Key.backspace	Key.backspace	n/a
47.531	0.1045	95062	keystroke_e	e	n/a
47.921	0.105	95842	keystroke_i	i	n/a
48.041	0.09	96082	keystroke_v	v	n/a
48.251	0.06	96502	keystroke_e	e	n/a
48.416	0.12	96832	keystroke_d	d	n/a
48.476	0.1345	96952	keystroke_Key.space	Key.space	n/a
48.626	0.09	97252	keystroke_p	p	n/a
48.701	0.1195	97402	keystroke_r	r	n/a
48.791	0.09	97582	keystroke_i	i	n/a
48.971	0.12	97942	keystroke_n	n	n/a
49.0455	0.09	98091	keystroke_t	t	n/a
49.2705	0.06	98541	keystroke_e	e	n/a
49.4205	0.06	98841	keystroke_r	r	n/a
49.5405	0.121	99081	keystroke_s	s	n/a
49.6305	0.1205	99261	keystroke_Key.space	Key.space	n/a
49.976	0.195	99952	keystroke_a	a	n/a
50.111	0.105	100222	keystroke_s	s	n/a
50.336	0.09	100672	keystroke_s	s	n/a
50.816	0.12	101632	keystroke_i	i	n/a
51.191	0.135	102382	keystroke_s	s	n/a
51.386	0.0905	102772	keystroke_t	t	n/a
51.581	0.0895	103162	keystroke_e	e	n/a
51.79	0.136	103580	keystroke_d	d	n/a
52.001	0.165	104002	keystroke_Key.enter	Key.enter	n/a
52.172	7.0315	104344	prompt	n/a	plugin eggs accounts hope\n
52.7655	0.105	105531	keystroke_p	p	n/a
53.006	0.12	106012	keystroke_l	l	n/a
53.2155	0.12	106431	keystroke_u	u	n/a
53.351	0.12	106702	keystroke_g	g	n/a
54.311	0.09	108622	keystroke_i	i	n/a
54.476	0.15	108952	keystroke_n	n	n/a
54.581	0.135	109162	keystroke_Key.space	Key.space	n/a
54.776	0.09	109552	keystroke_e	e	n/a
54.9855	0.06	109971	keystroke_g	g	n/a
55.151	0.0595	110302	keystroke_g	g	n/a
55.3905	0.12	110781	keystroke_s	s	n/a
55.4505	0.1205	110901	keystroke_Key.space	Key.space	n/a
55.601	0.0895	111202	keystroke_a	a	n/a
55.7355	0.12	111471	keystroke_c	c	n/a
55.8255	0.0755	111651	keystroke_o	o	n/a
55.991	0.0595	111982	keystroke_o	o	n/a
56.6205	0.075	113241	keystroke_Key.backspace	Key.backspace	n/a
56.7105	0.105	113421	keystroke_Key.backspace	Key.backspace	n/a
57.146	0.12	114292	keystroke_c	c	n/a
57.2515	0.0885	114503	keystroke_o	o	n/a
57.446	0.09	114892	keystroke_u	u	n/a
57.6255	0.1355	115251	keystroke_n	n	n/a
57.7755	0.105	115551	keystroke_t	t	n/a
58.076	0.165	116152	keystroke_s	s	n/a
58.256	0.1195	116512	keystroke_Key.space	Key.space	n/a
58.4805	0.1045	116961	keystroke_h	h	n/a
58.616	0.18	117232	keystroke_o	o	n/a
58.7205	0.12	117441	keystroke_p	p	n/a
58.8105	0.1205	117621	keystroke_e	e	n/a
59.0505	0.1505	118101	keystroke_Key.enter	Key.enter	n/a
59.208	11.409	118416	prompt	n/a	bali smoking andrea bacteria\n
60.041	0.12	120082	keystroke_b	b	n/a
60.1905	0.1655	120381	keystroke_a	a	n/a
60.566	0.075	121132	keystroke_l	l	n/a
60.746	0.12	121492	keystroke_i	i	n/a
60.986	0.074	121972	keystroke_Key.space	Key.space	n/a
61.301	0.015	122602	keystroke_s	s	n/a
61.331	0.075	122662	keystroke_m	m	n/a
62.7405	0.0905	125481	keystroke_o	o	n/a
62.9655	0.075	125931	keystroke_k	k	n/a
63.1305	0.091	126261	keystroke_i	i	n/a
63.2055	0.18	126411	keystroke_n	n	n/a
63.3555	0.105	126711	keystroke_g	g	n/a
63.4455	0.12	126891	keystroke_Key.space	Key.space	n/a
63.686	0.1495	127372	keystroke_a	a	n/a
63.8055	0.105	127611	keystroke_n	n	n/a
64.241	0.0895	128482	keystroke_r	r	n/a
64.8555	0.075	129711	keystroke_Key.backspace	Key.backspace	n/a
64.9005	0.0755	129801	keystroke_d	d	n/a
65.0955	0.0455	130191	keystroke_r	r	n/a
65.246	0.105	130492	keystroke_e	e	n/a
65.666	0.1205	131332	keystroke_a	a	n/a
65.936	0.105	131872	keystroke_Key.space	Key.space	n/a
66.3415	0.104	132683	keystroke_b	b	n/a
66.461	0.105	132922	keystroke_a	a	n/a
66.6255	0.105	133251	keystroke_c	c	n/a
67.9155	0.0755	135831	keystroke_t	t	n/a
68.9955	0.06	137991	keystroke_e	e	n/a
69.1455	0.1055	138291	keystroke_r	r	n/a
69.2215	0.1195	138443	keystroke_i	i	n/a
69.311	0.135	138622	keystroke_a	a	n/a
70.496	0.12	140992	keystroke_Key.enter	Key.enter	n/a
70.623	25.1945	141246	prompt	n/a	philip football resolutions recipient\n
71.366	0.0895	142732	keystroke_p	p	n/a
71.5455	0.0755	143091	keystroke_h	h	n/a
71.756	0.1205	143512	keystroke_i	i	n/a
72.881	0.15	145762	keystroke_l	l	n/a
73.5115	0.119	147023	keystroke_i	i	n/a
73.6605	0.1055	147321	keystroke_p	p	n/a
73.8255	0.135	147651	keystroke_Key.space	Key.space	n/a
82.9475	0.059	165895	keystroke_f	f	n/a
83.051	0.03	166102	keystroke_o	o	n/a
83.156	0.105	166312	keystroke_o	o	n/a
83.321	0.1055	166642	keystroke_t	t	n/a
83.606	0.105	167212	keystroke_b	b	n/a
83.726	0.1655	167452	keystroke_a	a	n/a
83.846	0.105	167692	keystroke_l	l	n/a
83.996	0.105	167992	keystroke_Key.space	Key.space	n/a
84.1315	0.075	168263	keystroke_r	r	n/a
84.9105	0.06	169821	keystroke_Key.backspace	Key.backspace	n/a
85.0465	0.0745	170093	keystroke_Key.backspace	Key.backspace	n/a
85.1965	0.06	170393	keystroke_Key.backspace	Key.backspace	n/a
85.5415	0.0745	171083	keystroke_k	k	n/a
85.946	0.0595	171892	keystroke_Key.backspace	Key.backspace	n/a
86.1415	0.059	172283	keystroke_l	l	n/a
86.2905	0.0755	172581	keystroke_Key.space	Key.space	n/a
86.6965	0.059	173393	keystroke_Key.backspace	Key.backspace	n/a
86.9215	0.0745	173843	keystroke_l	l	n/a
87.0565	0.1195	174113	keystroke_Key.space	Key.space	n/a
87.5665	0.074	175133	keystroke_r	r	n/a
87.7465	0.105	175493	keystroke_e	e	n/a
87.9405	0.106	175881	keystroke_s	s	n/a
88.0765	0.0745	176153	keystroke_o	o	n/a
88.2565	0.105	176513	keystroke_l	l	n/a
88.4955	0.12	176991	keystroke_u	u	n/a
91.438	0.058	182876	keystroke_t	t	n/a
91.526	0.075	183052	keystroke_i	i	n/a
91.6915	0.1495	183383	keystroke_o	o	n/a
91.781	0.135	183562	keystroke_n	n	n/a
91.901	0.105	183802	keystroke_s	s	n/a
91.976	0.135	183952	keystroke_Key.space	Key.space	n/a
92.516	0.06	185032	keystroke_r	r	n/a
92.6815	0.1045	185363	keystroke_e	e	n/a
92.9215	0.1645	185843	keystroke_c	c	n/a
93.056	0.105	186112	keystroke_i	i	n/a
93.416	0.12	186832	keystroke_p	p	n/a
93.521	0.105	187042	keystroke_e	e	n/a
93.6715	0.0895	187343	keystroke_i	i	n/a
94.721	0.045	189442	keystroke_Key.backspace	Key.backspace	n/a
94.826	0.06	189652	keystroke_Key.backspace	Key.backspace	n/a
95.021	0.06	190042	keystroke_i	i	n/a
95.111	0.1055	190222	keystroke_e	e	n/a
95.231	0.075	190462	keystroke_n	n	n/a
95.336	0.075	190672	keystroke_t	t	n/a
95.5165	0.0745	191033	keystroke_Key.space	Key.space	n/a
95.6965	0.1195	191393	keystroke_Key.enter	Key.enter	n/a
95.821	6.4325	191642	prompt	n/a	affect spirits plates refuse\n
96.5205	0.136	193041	keystroke_a	a	n/a
96.671	0.0605	193342	keystroke_f	f	n/a
96.8365	0.0445	193673	keystroke_f	f	n/a
96.9865	0.0595	193973	keystroke_e	e	n/a
97.166	0.1055	194332	keystroke_c	c	n/a
97.406	0.1055	194812	keystroke_t	t	n/a
97.5255	0.1205	195051	keystroke_Key.space	Key.space	n/a
97.6315	0.1195	195263	keystroke_s	s	n/a
97.8115	0.1045	195623	keystroke_p	p	n/a
98.426	0.075	196852	keystroke_i	i	n/a
98.561	0.1345	197122	keystroke_r	r	n/a
99.536	0.09	199072	keystroke_i	i	n/a
99.6415	0.075	199283	keystroke_t	t	n/a
99.8215	0.1495	199643	keystroke_s	s	n/a
99.8965	0.1495	199793	keystroke_Key.space	Key.space	n/a
100.301	0.0905	200602	keystroke_p	p	n/a
100.4965	0.105	200993	keystroke_l	l	n/a
100.5865	0.12	201173	keystroke_a	a	n/a
100.721	0.09	201442	keystroke_t	t	n/a
100.9305	0.091	201861	keystroke_e	e	n/a
101.036	0.165	202072	keystroke_s	s	n/a
101.171	0.105	202342	keystroke_Key.space	Key.space	n/a
101.3365	0.09	202673	keystroke_r	r	n/a
101.5315	0.044	203063	keystroke_e	e	n/a
101.6965	0.12	203393	keystroke_f	f	n/a
101.801	0.105	203602	keystroke_u	u	n/a
101.9215	0.15	203843	keystroke_s	s	n/a
101.996	0.1505	203992	keystroke_e	e	n/a
102.161	0.09	204322	keystroke_Key.enter	Key.enter	n/a
102.258	7.0295	204516	prompt	n/a	continental mali securely trio\n
103.031	0.12	206062	keystroke_c	c	n/a
103.106	0.0755	206212	keystroke_o	o	n/a
103.286	0.09	206572	keystroke_n	n	n/a
103.3465	0.12	206693	keystroke_t	t	n/a
103.467	0.059	206934	keystroke_i	i	n/a
103.601	0.12	207202	keystroke_n	n	n/a
103.706	0.105	207412	keystroke_e	e	n/a
103.826	0.105	207652	keystroke_n	n	n/a
103.931	0.075	207862	keystroke_t	t	n/a
104.051	0.12	208102	keystroke_a	a	n/a
104.141	0.135	208282	keystroke_l	l	n/a
104.261	0.105	208522	keystroke_Key.space	Key.space	n/a
104.3965	0.075	208793	keystroke_m	m	n/a
104.4865	0.1495	208973	keystroke_a	a	n/a
104.6215	0.105	209243	keystroke_i	i	n/a
104.7115	0.165	209423	keystroke_l	l	n/a
104.8615	0.09	209723	keystroke_Key.space	Key.space	n/a
105.0265	0.12	210053	keystroke_s	s	n/a
105.1765	0.104	210353	keystroke_e	e	n/a
105.4615	0.09	210923	keystroke_c	c	n/a
105.6115	0.03	211223	keystroke_u	u	n/a
106.151	0.075	212302	keystroke_r	r	n/a
106.466	0.09	212932	keystroke_e	e	n/a
106.571	0.09	213142	keystroke_l	l	n/a
106.796	0.075	213592	keystroke_y	y	n/a
107.036	0.09	214072	keystroke_Key.space	Key.space	n/a
107.3965	0.09	214793	keystroke_t	t	n/a
107.6065	0.1045	215213	keystroke_r	r	n/a
107.7265	0.1045	215453	keystroke_i	i	n/a
107.966	0.105	215932	keystroke_p	p	n/a
107.981	0.1055	215962	keystroke_o	o	n/a
108.5505	0.06	217101	keystroke_Key.backspace	Key.backspace	n/a
108.641	0.045	217282	keystroke_Key.backspace	Key.backspace	n/a
108.8215	0.0895	217643	keystroke_o	o	n/a
109.136	0.1495	218272	keystroke_Key.enter	Key.enter	n/a
109.292	7.2255	218584	prompt	n/a	slave applicants asbestos pretty\n
109.9305	0.1355	219861	keystroke_s	s	n/a
110.021	0.1355	220042	keystroke_a	a	n/a
110.1115	0.105	220223	keystroke_l	l	n/a
110.5005	0.03	221001	keystroke_Key.backspace	Key.backspace	n/a
110.5905	0.061	221181	keystroke_Key.backspace	Key.backspace	n/a
110.8015	0.089	221603	keystroke_l	l	n/a
110.9215	0.075	221843	keystroke_a	a	n/a
111.1315	0.03	222263	keystroke_v	v	n/a
111.2965	0.135	222593	keystroke_e	e	n/a
111.3555	0.105	222711	keystroke_Key.space	Key.space	n/a
111.4905	0.135	222981	keystroke_a	a	n/a
111.6105	0.0305	223221	keystroke_p	p	n/a
111.7315	0.0745	223463	keystroke_p	p	n/a
111.9405	0.1505	223881	keystroke_l	l	n/a
112.0615	0.1195	224123	keystroke_i	i	n/a
112.1665	0.074	224333	keystroke_c	c	n/a
112.3015	0.09	224603	keystroke_a	a	n/a
112.5115	0.06	225023	keystroke_n	n	n/a
113.0965	0.0895	226193	keystroke_t	t	n/a
113.306	0.12	226612	keystroke_s	s	n/a
113.366	0.1345	226732	keystroke_Key.space	Key.space	n/a
113.5755	0.1355	227151	keystroke_a	a	n/a
113.9065	0.119	227813	keystroke_s	s	n/a
114.2505	0.091	228501	keystroke_b	b	n/a
114.3565	0.1195	228713	keystroke_e	e	n/a
114.551	0.12	229102	keystroke_s	s	n/a
114.716	0.1045	229432	keystroke_t	t	n/a
114.911	0.0895	229822	keystroke_o	o	n/a
115.0305	0.166	230061	keystroke_s	s	n/a
115.1805	0.1055	230361	keystroke_Key.space	Key.space	n/a
115.3305	0.1355	230661	keystroke_p	p	n/a
115.436	0.06	230872	keystroke_r	r	n/a
115.586	0.075	231172	keystroke_e	e	n/a
115.766	0.0605	231532	keystroke_t	t	n/a
115.9005	0.1055	231801	keystroke_t	t	n/a
116.141	0.1055	232282	keystroke_y	y	n/a
116.381	0.135	232762	keystroke_Key.enter	Key.enter	n/a
116.522	7.676	233044	prompt	n/a	fort intervention resumes subscriber\n
117.1465	0.09	234293	keystroke_f	f	n/a
117.3105	0.091	234621	keystroke_o	o	n/a
117.4165	0.105	234833	keystroke_r	r	n/a
117.626	0.105	235252	keystroke_t	t	n/a
117.7465	0.12	235493	keystroke_Key.space	Key.space	n/a
117.926	0.06	235852	keystroke_i	i	n/a
118.076	0.1345	236152	keystroke_n	n	n/a
118.5565	0.104	237113	keystroke_t	t	n/a
118.7955	0.061	237591	keystroke_e	e	n/a
118.9305	0.06	237861	keystroke_r	r	n/a
119.1565	0.09	238313	keystroke_v	v	n/a
119.3505	0.0905	238701	keystroke_e	e	n/a
119.456	0.105	238912	keystroke_n	n	n/a
119.546	0.105	239092	keystroke_t	t	n/a
119.6215	0.0745	239243	keystroke_i	i	n/a
119.801	0.09	239602	keystroke_o	o	n/a
119.906	0.135	239812	keystroke_n	n	n/a
120.011	0.12	240022	keystroke_Key.space	Key.space	n/a
120.161	0.0605	240322	keystroke_r	r	n/a
120.356	0.105	240712	keystroke_e	e	n/a
120.7465	0.1195	241493	keystroke_s	s	n/a
120.8965	0.0895	241793	keystroke_u	u	n/a
121.121	0.135	242242	keystroke_m	m	n/a
121.226	0.0905	242452	keystroke_e	e	n/a
121.391	0.15	242782	keystroke_s	s	n/a
121.526	0.12	243052	keystroke_Key.space	Key.space	n/a
121.721	0.135	243442	keystroke_s	s	n/a
121.841	0.09	243682	keystroke_u	u	n/a
122.036	0.09	244072	keystroke_b	b	n/a
122.606	0.135	245212	keystroke_s	s	n/a
123.176	0.15	246352	keystroke_r	r	n/a
123.356	0.1355	246712	keystroke_i	i	n/a
123.5665	0.1195	247133	keystroke_b	b	n/a
123.731	0.09	247462	keystroke_e	e	n/a
123.896	0.1655	247792	keystroke_r	r	n/a
124.076	0.12	248152	keystroke_Key.enter	Key.enter	n/a
124.203	6.175	248406	prompt	n/a	plaza speed removable cats\n
124.7815	0.12	249563	keystroke_p	p	n/a
124.916	0.0595	249832	keystroke_a	a	n/a
125.321	0.06	250642	keystroke_Key.backspace	Key.backspace	n/a
125.5305	0.105	251061	keystroke_l	l	n/a
125.6665	0.1345	251333	keystroke_a	a	n/a
125.921	0.0755	251842	keystroke_z	z	n/a
126.131	0.1205	252262	keystroke_a	a	n/a
126.2215	0.119	252443	keystroke_Key.space	Key.space	n/a
126.4015	0.1195	252803	keystroke_s	s	n/a
126.5515	0.105	253103	keystroke_p	p	n/a
126.7165	0.074	253433	keystroke_e	e	n/a
126.8665	0.045	253733	keystroke_e	e	n/a
127.0465	0.09	254093	keystroke_d	d	n/a
127.091	0.1345	254182	keystroke_Key.space	Key.space	n/a
127.5265	0.075	255053	keystroke_r	r	n/a
127.6905	0.091	255381	keystroke_e	e	n/a
127.9165	0.135	255833	keystroke_m	m	n/a
128.021	0.1505	256042	keystroke_o	o	n/a
128.1565	0.075	256313	keystroke_v	v	n/a
128.3355	0.105	256671	keystroke_a	a	n/a
129.0115	0.075	258023	keystroke_b	b	n/a
129.0705	0.1355	258141	keystroke_l	l	n/a
129.191	0.1195	258382	keystroke_e	e	n/a
129.4905	0.106	258981	keystroke_Key.space	Key.space	n/a
129.731	0.0905	259462	keystroke_c	c	n/a
129.836	0.12	259672	keystroke_a	a	n/a
130.001	0.09	260002	keystroke_t	t	n/a
130.151	0.12	260302	keystroke_s	s	n/a
130.226	0.15	260452	keystroke_Key.enter	Key.enter	n/a
130.383	5.515	260766	prompt	n/a	contract bidding years shoot\n
131.0655	0.106	262131	keystroke_c	c	n/a
131.1865	0.104	262373	keystroke_o	o	n/a
131.756	0.1045	263512	keystroke_n	n	n/a
131.8755	0.1055	263751	keystroke_t	t	n/a
132.101	0.075	264202	keystroke_r	r	n/a
132.191	0.075	264382	keystroke_a	a	n/a
132.371	0.075	264742	keystroke_c	c	n/a
132.581	0.0895	265162	keystroke_t	t	n/a
132.6715	0.104	265343	keystroke_Key.space	Key.space	n/a
132.9865	0.0595	265973	keystroke_b	b	n/a
133.181	0.1055	266362	keystroke_i	i	n/a
133.421	0.075	266842	keystroke_d	d	n/a
133.571	0.105	267142	keystroke_d	d	n/a
133.6605	0.1505	267321	keystroke_i	i	n/a
133.751	0.15	267502	keystroke_n	n	n/a
133.8865	0.1205	267773	keystroke_g	g	n/a
133.991	0.0905	267982	keystroke_Key.space	Key.space	n/a
134.171	0.09	268342	keystroke_y	y	n/a
134.381	0.1205	268762	keystroke_e	e	n/a
134.5015	0.2095	269003	keystroke_a	a	n/a
134.576	0.105	269152	keystroke_r	r	n/a
134.696	0.1355	269392	keystroke_s	s	n/a
134.801	0.12	269602	keystroke_Key.space	Key.space	n/a
134.9665	0.1195	269933	keystroke_s	s	n/a
135.071	0.12	270142	keystroke_h	h	n/a
135.341	0.09	270682	keystroke_o	o	n/a
135.491	0.1345	270982	keystroke_o	o	n/a
135.611	0.105	271222	keystroke_t	t	n/a
135.746	0.15	271492	keystroke_Key.enter	Key.enter	n/a
135.9025	10.9155	271805	prompt	n/a	catherine cooperative perfectly album\n
136.8415	0.0895	273683	keystroke_c	c	n/a
136.991	0.105	273982	keystroke_a	a	n/a
137.141	0.0905	274282	keystroke_t	t	n/a
137.246	0.12	274492	keystroke_h	h	n/a
137.351	0.06	274702	keystroke_e	e	n/a
137.501	0.09	275002	keystroke_r	r	n/a
137.561	0.1355	275122	keystroke_i	i	n/a
137.6505	0.106	275301	keystroke_n	n	n/a
137.8015	0.105	275603	keystroke_e	e	n/a
137.8905	0.135	275781	keystroke_Key.space	Key.space	n/a
138.0865	0.12	276173	keystroke_c	c	n/a
138.191	0.0455	276382	keystroke_o	o	n/a
138.2965	0.075	276593	keystroke_o	o	n/a
138.4165	0.1195	276833	keystroke_p	p	n/a
138.5515	0.075	277103	keystroke_e	e	n/a
138.716	0.0905	277432	keystroke_r	r	n/a
140.1715	0.12	280343	keystroke_a	a	n/a
140.3365	0.075	280673	keystroke_t	t	n/a
140.4415	0.15	280883	keystroke_i	i	n/a
140.5765	0.06	281153	keystroke_v	v	n/a
140.756	0.12	281512	keystroke_e	e	n/a
140.831	0.105	281662	keystroke_Key.space	Key.space	n/a
140.951	0.1355	281902	keystroke_p	p	n/a
141.071	0.075	282142	keystroke_e	e	n/a
141.2515	0.075	282503	keystroke_r	r	n/a
141.866	0.075	283732	keystroke_f	f	n/a
142.0315	0.0745	284063	keystroke_e	e	n/a
142.2565	0.105	284513	keystroke_c	c	n/a
143.0515	0.135	286103	keystroke_t	t	n/a
143.3665	0.134	286733	keystroke_l	l	n/a
143.5315	0.075	287063	keystroke_y	y	n/a
143.756	0.09	287512	keystroke_Key.space	Key.space	n/a
143.996	0.0905	287992	keystroke_a	a	n/a
144.0715	0.1645	288143	keystroke_l	l	n/a
144.296	0.105	288592	keystroke_m	m	n/a
144.746	0.075	289492	keystroke_Key.backspace	Key.backspace	n/a
144.9565	0.075	289913	keystroke_n	n	n/a
145.106	0.105	290212	keystroke_u	u	n/a
145.3915	0.0295	290783	keystroke_m	m	n/a
145.6005	0.03	291201	keystroke_Key.backspace	Key.backspace	n/a
145.7055	0.03	291411	keystroke_Key.backspace	Key.backspace	n/a
145.8115	0.044	291623	keystroke_Key.backspace	Key.backspace	n/a
145.931	0.075	291862	keystroke_b	b	n/a
146.051	0.1055	292102	keystroke_u	u	n/a
146.4115	0.075	292823	keystroke_m	m	n/a
146.6955	0.1205	293391	keystroke_Key.enter	Key.enter	n/a
146.823	7.9005	293646	prompt	n/a	recreation initially woods parcel\n
147.461	0.06	294922	keystroke_r	r	n/a
147.611	0.06	295222	keystroke_e	e	n/a
147.8505	0.1055	295701	keystroke_c	c	n/a
148.0605	0.0605	296121	keystroke_r	r	n/a
148.5105	0.151	297021	keystroke_e	e	n/a
148.6465	0.1195	297293	keystroke_a	a	n/a
148.841	0.09	297682	keystroke_t	t	n/a
148.9755	0.075	297951	keystroke_i	i	n/a
149.1565	0.0895	298313	keystroke_o	o	n/a
149.336	0.12	298672	keystroke_n	n	n/a
149.4405	0.1355	298881	keystroke_Key.space	Key.space	n/a
149.561	0.09	299122	keystroke_i	i	n/a
149.741	0.12	299482	keystroke_n	n	n/a
149.831	0.105	299662	keystroke_i	i	n/a
151.4365	0.1345	302873	keystroke_t	t	n/a
151.616	0.09	303232	keystroke_i	i	n/a
151.751	0.15	303502	keystroke_a	a	n/a
151.856	0.06	303712	keystroke_l	l	n/a
152.006	0.09	304012	keystroke_l	l	n/a
152.246	0.075	304492	keystroke_y	y	n/a
152.351	0.1345	304702	keystroke_Key.space	Key.space	n/a
152.4865	0.1345	304973	keystroke_w	w	n/a
152.6065	0.0295	305213	keystroke_o	o	n/a
152.711	0.105	305422	keystroke_o	o	n/a
152.8315	0.0895	305663	keystroke_d	d	n/a
152.996	0.135	305992	keystroke_s	s	n/a
153.085	0.136	306170	keystroke_Key.space	Key.space	n/a
153.701	0.0905	307402	keystroke_p	p	n/a
153.7765	0.1645	307553	keystroke_a	a	n/a
153.9255	0.0755	307851	keystroke_r	r	n/a
154.136	0.0895	308272	keystroke_c	c	n/a
154.316	0.135	308632	keystroke_e	e	n/a
154.3915	0.09	308783	keystroke_l	l	n/a
154.6005	0.121	309201	keystroke_Key.enter	Key.enter	n/a
154.7295	7.3	309459	prompt	n/a	burning tomato enable affiliation\n
155.336	0.1045	310672	keystroke_b	b	n/a
155.486	0.1195	310972	keystroke_u	u	n/a
155.6205	0.12	311241	keystroke_r	r	n/a
155.7405	0.09	311481	keystroke_n	n	n/a
155.8455	0.1355	311691	keystroke_i	i	n/a
155.951	0.12	311902	keystroke_n	n	n/a
156.056	0.105	312112	keystroke_g	g	n/a
156.3255	0.1355	312651	keystroke_Key.space	Key.space	n/a
156.7605	0.0905	313521	keystroke_t	t	n/a
156.911	0.1055	313822	keystroke_o	o	n/a
157.346	0.06	314692	keystroke_a	a	n/a
157.436	0.03	314872	keystroke_m	m	n/a
157.766	0.045	315532	keystroke_Key.backspace	Key.backspace	n/a
157.961	0.03	315922	keystroke_Key.backspace	Key.backspace	n/a
158.26	0.106	316520	keystroke_m	m	n/a
158.351	0.135	316702	keystroke_a	a	n/a
158.5315	0.1195	317063	keystroke_t	t	n/a
158.636	0.09	317272	keystroke_o	o	n/a
158.891	0.135	317782	keystroke_Key.space	Key.space	n/a
159.3405	0.106	318681	keystroke_e	e	n/a
159.416	0.1045	318832	keystroke_n	n	n/a
159.536	0.1495	319072	keystroke_a	a	n/a
159.6555	0.045	319311	keystroke_b	b	n/a
159.7905	0.12	319581	keystroke_l	l	n/a
159.9255	0.135	319851	keystroke_e	e	n/a
160.046	0.12	320092	keystroke_Key.space	Key.space	n/a
160.2105	0.1055	320421	keystroke_a	a	n/a
160.346	0.075	320692	keystroke_f	f	n/a
160.511	0.1055	321022	keystroke_f	f	n/a
160.601	0.1205	321202	keystroke_i	i	n/a
160.916	0.165	321832	keystroke_l	l	n/a
161.066	0.1355	322132	keystroke_i	i	n/a
161.1865	0.104	322373	keystroke_a	a	n/a
161.3055	0.121	322611	keystroke_t	t	n/a
161.3655	0.075	322731	keystroke_i	i	n/a
161.5015	0.1345	323003	keystroke_o	o	n/a
161.5915	0.135	323183	keystroke_n	n	n/a
161.8605	0.166	323721	keystroke_Key.enter	Key.enter	n/a
162.0335	5.7845	324067	prompt	n/a	yacht temperatures maybe polo\n
162.746	0.09	325492	keystroke_y	y	n/a
162.926	0.075	325852	keystroke_a	a	n/a
163.091	0.105	326182	keystroke_c	c	n/a
163.166	0.09	326332	keystroke_h	h	n/a
163.331	0.12	326662	keystroke_t	t	n/a
163.496	0.12	326992	keystroke_Key.space	Key.space	n/a
163.691	0.12	327382	keystroke_t	t	n/a
163.946	0.105	327892	keystroke_e	e	n/a
164.141	0.135	328282	keystroke_m	m	n/a
164.2015	0.1345	328403	keystroke_p	p	n/a
165.0105	0.091	330021	keystroke_e	e	n/a
165.1915	0.1045	330383	keystroke_r	r	n/a
165.311	0.105	330622	keystroke_a	a	n/a
165.4615	0.105	330923	keystroke_t	t	n/a
165.581	0.09	331162	keystroke_u	u	n/a
165.686	0.075	331372	keystroke_r	r	n/a
165.866	0.09	331732	keystroke_e	e	n/a
165.971	0.165	331942	keystroke_s	s	n/a
166.106	0.12	332212	keystroke_Key.space	Key.space	n/a
166.376	0.1205	332752	keystroke_m	m	n/a
166.436	0.1045	332872	keystroke_a	a	n/a
166.6305	0.0755	333261	keystroke_y	y	n/a
166.751	0.1055	333502	keystroke_b	b	n/a
166.8715	0.12	333743	keystroke_e	e	n/a
166.9465	0.12	333893	keystroke_Key.space	Key.space	n/a
167.0515	0.165	334103	keystroke_p	p	n/a
167.1715	0.104	334343	keystroke_o	o	n/a
167.3515	0.1045	334703	keystroke_l	l	n/a
167.4415	0.119	334883	keystroke_o	o	n/a
167.6965	0.119	335393	keystroke_Key.enter	Key.enter	n/a
167.8245	14.408	335649	prompt	n/a	heating cardiff telecharger chem\n
171.0885	0.012	342177	keystroke_h	h	n/a
171.116	0.12	342232	keystroke_e	e	n/a
171.2055	0.1805	342411	keystroke_a	a	n/a
171.341	0.1355	342682	keystroke_t	t	n/a
171.461	0.135	342922	keystroke_i	i	n/a
171.611	0.09	343222	keystroke_n	n	n/a
171.686	0.09	343372	keystroke_g	g	n/a
171.761	0.15	343522	keystroke_Key.space	Key.space	n/a
172.271	0.06	344542	keystroke_c	c	n/a
172.406	0.12	344812	keystroke_a	a	n/a
172.496	0.09	344992	keystroke_r	r	n/a
172.6915	0.1045	345383	keystroke_d	d	n/a
172.8115	0.0895	345623	keystroke_i	i	n/a
172.976	0.0605	345952	keystroke_f	f	n/a
173.1265	0.12	346253	keystroke_f	f	n/a
173.2305	0.121	346461	keystroke_Key.space	Key.space	n/a
173.5465	0.09	347093	keystroke_t	t	n/a
174.176	0.1795	348352	keystroke_e	e	n/a
175.0015	0.179	350003	keystroke_l	l	n/a
175.166	0.0305	350332	keystroke_e	e	n/a
175.3755	0.0905	350751	keystroke_c	c	n/a
175.481	0.0905	350962	keystroke_h	h	n/a
175.5865	0.1345	351173	keystroke_a	a	n/a
175.661	0.075	351322	keystroke_r	r	n/a
175.841	0.075	351682	keystroke_g	g	n/a
176.021	0.09	352042	keystroke_e	e	n/a
176.186	0.1355	352372	keystroke_r	r	n/a
176.291	0.15	352582	keystroke_Key.space	Key.space	n/a
176.561	0.12	353122	keystroke_c	c	n/a
177.191	0.105	354382	keystroke_Key.backspace	Key.backspace	n/a
181.6325	0.044	363265	keystroke_c	c	n/a
181.6455	0.09	363291	keystroke_h	h	n/a
181.7965	0.105	363593	keystroke_e	e	n/a
181.8565	0.105	363713	keystroke_m	m	n/a
182.111	0.1205	364222	keystroke_Key.enter	Key.enter	n/a
182.2375	8.065	364475	prompt	n/a	national oliver appendix allied\n
182.9955	0.075	365991	keystroke_n	n	n/a
183.3105	0.12	366621	keystroke_a	a	n/a
183.4015	0.134	366803	keystroke_t	t	n/a
183.4765	0.06	366953	keystroke_i	i	n/a
183.6115	0.119	367223	keystroke_o	o	n/a
183.7015	0.134	367403	keystroke_n	n	n/a
183.881	0.0895	367762	keystroke_a	a	n/a
183.9855	0.105	367971	keystroke_l	l	n/a
184.5855	0.06	369171	keystroke_Key.space	Key.space	n/a
184.7955	0.09	369591	keystroke_o	o	n/a
184.961	0.15	369922	keystroke_l	l	n/a
185.081	0.1505	370162	keystroke_i	i	n/a
185.1565	0.0895	370313	keystroke_v	v	n/a
185.351	0.075	370702	keystroke_e	e	n/a
185.5315	0.075	371063	keystroke_r	r	n/a
185.561	0.12	371122	keystroke_Key.space	Key.space	n/a
185.816	0.105	371632	keystroke_a	a	n/a
185.9665	0.075	371933	keystroke_p	p	n/a
186.101	0.1195	372202	keystroke_p	p	n/a
186.3265	0.1195	372653	keystroke_e	e	n/a
186.4315	0.1195	372863	keystroke_n	n	n/a
187.4515	0.12	374903	keystroke_d	d	n/a
187.5865	0.1045	375173	keystroke_i	i	n/a
187.692	0.149	375384	keystroke_x	x	n/a
187.826	0.1645	375652	keystroke_Key.space	Key.space	n/a
188.8015	0.1345	377603	keystroke_a	a	n/a
188.906	0.075	377812	keystroke_l	l	n/a
189.086	0.1055	378172	keystroke_l	l	n/a
189.356	0.1205	378712	keystroke_i	i	n/a
189.521	0.075	379042	keystroke_e	e	n/a
189.8065	0.12	379613	keystroke_d	d	n/a
190.1355	0.165	380271	keystroke_Key.enter	Key.enter	n/a
190.3065	11.487	380613	prompt	n/a	fabulous paso polished amateur\n
195.433	0.013	390866	keystroke_f	f	n/a
195.5515	0.09	391103	keystroke_a	a	n/a
196.076	0.12	392152	keystroke_b	b	n/a
196.256	0.105	392512	keystroke_u	u	n/a
196.601	0.105	393202	keystroke_l	l	n/a
196.7665	0.075	393533	keystroke_o	o	n/a
196.9615	0.0895	393923	keystroke_u	u	n/a
197.0665	0.165	394133	keystroke_s	s	n/a
197.1565	0.1495	394313	keystroke_Key.space	Key.space	n/a
197.3215	0.1055	394643	keystroke_p	p	n/a
197.4415	0.165	394883	keystroke_a	a	n/a
197.5165	0.15	395033	keystroke_s	s	n/a
197.6515	0.09	395303	keystroke_o	o	n/a
197.7705	0.135	395541	keystroke_Key.space	Key.space	n/a
198.2365	0.12	396473	keystroke_p	p	n/a
198.4465	0.09	396893	keystroke_o	o	n/a
198.656	0.1205	397312	keystroke_l	l	n/a
198.7615	0.12	397523	keystroke_i	i	n/a
199.0915	0.1055	398183	keystroke_s	s	n/a
199.181	0.0905	398362	keystroke_h	h	n/a
199.451	0.121	398902	keystroke_d	d	n/a
199.8105	0.106	399621	keystroke_Key.backspace	Key.backspace	n/a
199.8565	0.075	399713	keystroke_e	e	n/a
200.0355	0.1205	400071	keystroke_d	d	n/a
200.1105	0.15	400221	keystroke_Key.space	Key.space	n/a
200.621	0.1055	401242	keystroke_a	a	n/a
200.7415	0.105	401483	keystroke_m	m	n/a
200.8315	0.135	401663	keystroke_a	a	n/a
201.0715	0.0595	402143	keystroke_t	t	n/a
201.266	0.1055	402532	keystroke_e	e	n/a
201.3855	0.136	402771	keystroke_u	u	n/a
201.5065	0.075	403013	keystroke_r	r	n/a
201.6715	0.12	403343	keystroke_Key.enter	Key.enter	n/a
201.7975	5.3955	403595	prompt	n/a	finish flights trail raleigh\n
202.526	0.09	405052	keystroke_f	f	n/a
202.631	0.105	405262	keystroke_i	i	n/a
202.871	0.1205	405742	keystroke_n	n	n/a
202.947	0.119	405894	keystroke_i	i	n/a
203.5165	0.12	407033	keystroke_s	s	n/a
203.622	0.1045	407244	keystroke_h	h	n/a
203.8015	0.135	407603	keystroke_Key.space	Key.space	n/a
204.0565	0.105	408113	keystroke_f	f	n/a
204.1465	0.105	408293	keystroke_l	l	n/a
204.2065	0.105	408413	keystroke_i	i	n/a
204.3115	0.09	408623	keystroke_g	g	n/a
204.4165	0.089	408833	keystroke_h	h	n/a
204.4765	0.09	408953	keystroke_t	t	n/a
204.6265	0.135	409253	keystroke_s	s	n/a
204.717	0.1185	409434	keystroke_Key.space	Key.space	n/a
204.806	0.1205	409612	keystroke_r	r	n/a
205.121	0.075	410242	keystroke_Key.backspace	Key.backspace	n/a
205.181	0.075	410362	keystroke_t	t	n/a
205.331	0.06	410662	keystroke_r	r	n/a
205.406	0.15	410812	keystroke_a	a	n/a
205.481	0.12	410962	keystroke_i	i	n/a
205.6015	0.1345	411203	keystroke_l	l	n/a
205.736	0.12	411472	keystroke_Key.space	Key.space	n/a
205.9915	0.09	411983	keystroke_r	r	n/a
206.1115	0.105	412223	keystroke_a	a	n/a
206.2755	0.1215	412551	keystroke_l	l	n/a
206.397	0.089	412794	keystroke_e	e	n/a
206.711	0.1055	413422	keystroke_i	i	n/a
206.8165	0.0895	413633	keystroke_g	g	n/a
206.9215	0.0595	413843	keystroke_h	h	n/a
207.0565	0.135	414113	keystroke_Key.enter	Key.enter	n/a
207.1965	7.272	414393	prompt	n/a	none delete express thomas\n
207.9565	0.0745	415913	keystroke_n	n	n/a
208.091	0.09	416182	keystroke_o	o	n/a
208.256	0.136	416512	keystroke_n	n	n/a
208.8265	0.1195	417653	keystroke_e	e	n/a
208.931	0.15	417862	keystroke_Key.space	Key.space	n/a
209.111	0.105	418222	keystroke_d	d	n/a
209.306	0.1055	418612	keystroke_e	e	n/a
209.4265	0.09	418853	keystroke_l	l	n/a
210.1005	0.091	420201	keystroke_e	e	n/a
210.3265	0.0745	420653	keystroke_t	t	n/a
210.5215	0.105	421043	keystroke_e	e	n/a
210.5965	0.135	421193	keystroke_Key.space	Key.space	n/a
210.7615	0.075	421523	keystroke_e	e	n/a
210.9865	0.12	421973	keystroke_x	x	n/a
211.2115	0.09	422423	keystroke_p	p	n/a
211.3165	0.075	422633	keystroke_r	r	n/a
211.4965	0.09	422993	keystroke_e	e	n/a
211.6315	0.0905	423263	keystroke_s	s	n/a
211.797	0.15	423594	keystroke_s	s	n/a
211.9015	0.1345	423803	keystroke_Key.space	Key.space	n/a
212.067	0.1045	424134	keystroke_t	t	n/a
212.1415	0.0895	424283	keystroke_h	h	n/a
212.516	0.1355	425032	keystroke_m	m	n/a
213.056	0.15	426112	keystroke_a	a	n/a
213.341	0.0455	426682	keystroke_Key.backspace	Key.backspace	n/a
213.446	0.06	426892	keystroke_Key.backspace	Key.backspace	n/a
213.6265	0.06	427253	keystroke_o	o	n/a
213.791	0.1205	427582	keystroke_m	m	n/a
213.881	0.18	427762	keystroke_a	a	n/a
214.001	0.1655	428002	keystroke_s	s	n/a
214.3315	0.135	428663	keystroke_Key.enter	Key.enter	n/a
214.4735	11.05	428947	prompt	n/a	concepts hierarchy laura nursery\n
215.2015	0.135	430403	keystroke_c	c	n/a
215.322	0.1195	430644	keystroke_o	o	n/a
215.4265	0.15	430853	keystroke_n	n	n/a
215.5615	0.0445	431123	keystroke_c	c	n/a
215.7115	0.075	431423	keystroke_e	e	n/a
215.846	0.1055	431692	keystroke_p	p	n/a
215.9365	0.0895	431873	keystroke_t	t	n/a
216.656	0.1505	433312	keystroke_s	s	n/a
216.791	0.15	433582	keystroke_Key.space	Key.space	n/a
217.316	0.1055	434632	keystroke_h	h	n/a
217.4515	0.105	434903	keystroke_i	i	n/a
217.6915	0.105	435383	keystroke_e	e	n/a
217.8865	0.105	435773	keystroke_r	r	n/a
218.0055	0.121	436011	keystroke_a	a	n/a
218.441	0.106	436882	keystroke_c	c	n/a
218.531	0.0905	437062	keystroke_h	h	n/a
218.8465	0.06	437693	keystroke_y	y	n/a
219.0115	0.09	438023	keystroke_Key.space	Key.space	n/a
219.1465	0.105	438293	keystroke_l	l	n/a
219.477	0.1045	438954	keystroke_a	a	n/a
219.6415	0.105	439283	keystroke_u	u	n/a
219.7765	0.12	439553	keystroke_r	r	n/a
219.9265	0.105	439853	keystroke_a	a	n/a
220.0165	0.135	440033	keystroke_Key.space	Key.space	n/a
221.996	0.1055	443992	keystroke_n	n	n/a
222.1765	0.1495	444353	keystroke_u	u	n/a
222.341	0.105	444682	keystroke_r	r	n/a
222.581	0.1655	445162	keystroke_s	s	n/a
222.6715	0.12	445343	keystroke_e	e	n/a
222.9565	0.075	445913	keystroke_r	r	n/a
223.3915	0.09	446783	keystroke_y	y	n/a
225.416	0.1055	450832	keystroke_Key.enter	Key.enter	n/a
225.528	6.7905	451056	prompt	n/a	satisfy webmaster imported trout\n
226.1215	0.135	452243	keystroke_s	s	n/a
226.4355	0.1365	452871	keystroke_a	a	n/a
226.5865	0.09	453173	keystroke_t	t	n/a
226.691	0.105	453382	keystroke_i	i	n/a
227.081	0.136	454162	keystroke_s	s	n/a
227.3365	0.0605	454673	keystroke_f	f	n/a
227.5615	0.1045	455123	keystroke_y	y	n/a
227.756	0.105	455512	keystroke_Key.space	Key.space	n/a
227.9215	0.12	455843	keystroke_w	w	n/a
228.027	0.1345	456054	keystroke_e	e	n/a
228.1765	0.09	456353	keystroke_b	b	n/a
228.7315	0.12	457463	keystroke_m	m	n/a
228.8215	0.15	457643	keystroke_a	a	n/a
228.8815	0.15	457763	keystroke_s	s	n/a
229.0165	0.105	458033	keystroke_t	t	n/a
229.2415	0.03	458483	keystroke_e	e	n/a
229.377	0.1045	458754	keystroke_r	r	n/a
229.4365	0.12	458873	keystroke_Key.space	Key.space	n/a
229.6015	0.104	459203	keystroke_i	i	n/a
229.7965	0.1795	459593	keystroke_m	m	n/a
229.8715	0.1195	459743	keystroke_p	p	n/a
230.0215	0.135	460043	keystroke_o	o	n/a
230.1415	0.09	460283	keystroke_r	r	n/a
230.7865	0.105	461573	keystroke_t	t	n/a
231.0105	0.075	462021	keystroke_e	e	n/a
231.1915	0.12	462383	keystroke_d	d	n/a
231.2365	0.1345	462473	keystroke_Key.space	Key.space	n/a
231.521	0.06	463042	keystroke_t	t	n/a
231.671	0.12	463342	keystroke_r	r	n/a
231.761	0.045	463522	keystroke_o	o	n/a
231.911	0.105	463822	keystroke_u	u	n/a
232.016	0.09	464032	keystroke_t	t	n/a
232.181	0.135	464362	keystroke_Key.enter	Key.enter	n/a
232.3225	11.7105	464645	prompt	n/a	web face humanity christians\n
233.1715	0.15	466343	keystroke_w	w	n/a
233.2455	0.151	466491	keystroke_e	e	n/a
233.3805	0.106	466761	keystroke_b	b	n/a
233.5465	0.15	467093	keystroke_Key.space	Key.space	n/a
233.7265	0.119	467453	keystroke_f	f	n/a
233.8915	0.1055	467783	keystroke_a	a	n/a
234.056	0.075	468112	keystroke_c	c	n/a
234.2365	0.1345	468473	keystroke_e	e	n/a
234.3265	0.135	468653	keystroke_Key.space	Key.space	n/a
234.506	0.105	469012	keystroke_h	h	n/a
234.656	0.105	469312	keystroke_u	u	n/a
234.926	0.1355	469852	keystroke_m	m	n/a
235.316	0.1355	470632	keystroke_n	n	n/a
235.436	0.1505	470872	keystroke_a	a	n/a
235.647	0.104	471294	keystroke_i	i	n/a
235.766	0.106	471532	keystroke_t	t	n/a
236.5015	0.0745	473003	keystroke_Key.backspace	Key.backspace	n/a
236.9055	0.0755	473811	keystroke_Key.backspace	Key.backspace	n/a
237.2065	0.105	474413	keystroke_n	n	n/a
237.356	0.151	474712	keystroke_i	i	n/a
237.491	0.105	474982	keystroke_t	t	n/a
237.731	0.075	475462	keystroke_y	y	n/a
237.851	0.15	475702	keystroke_Key.space	Key.space	n/a
238.166	0.09	476332	keystroke_c	c	n/a
238.766	0.0605	477532	keystroke_Key.backspace	Key.backspace	n/a
238.9165	0.0595	477833	keystroke_Key.backspace	Key.backspace	n/a
239.066	0.0455	478132	keystroke_Key.backspace	Key.backspace	n/a
239.216	0.06	478432	keystroke_Key.backspace	Key.backspace	n/a
239.3515	0.075	478703	keystroke_Key.backspace	Key.backspace	n/a
239.516	0.015	479032	keystroke_Key.backspace	Key.backspace	n/a
239.6365	0.0445	479273	keystroke_Key.backspace	Key.backspace	n/a
239.756	0.09	479512	keystroke_Key.backspace	Key.backspace	n/a
239.967	0.1345	479934	keystroke_a	a	n/a
240.056	0.105	480112	keystroke_n	n	n/a
240.656	0.1205	481312	keystroke_i	i	n/a
240.7915	0.105	481583	keystroke_t	t	n/a
241.0315	0.09	482063	keystroke_y	y	n/a
241.1965	0.09	482393	keystroke_Key.space	Key.space	n/a
241.3765	0.105	482753	keystroke_c	c	n/a
241.4965	0.105	482993	keystroke_h	h	n/a
241.7365	0.1195	483473	keystroke_r	r	n/a
241.916	0.09	483832	keystroke_i	i	n/a
242.081	0.105	484162	keystroke_s	s	n/a
243.1915	0.0895	486383	keystroke_t	t	n/a
243.296	0.12	486592	keystroke_i	i	n/a
243.401	0.1355	486802	keystroke_a	a	n/a
243.521	0.1205	487042	keystroke_n	n	n/a
243.6265	0.1345	487253	keystroke_s	s	n/a
243.866	0.165	487732	keystroke_Key.enter	Key.enter	n/a
244.0375	6.8355	488075	prompt	n/a	wind degrees virtual daughters\n
244.5565	0.09	489113	keystroke_w	w	n/a
244.736	0.12	489472	keystroke_i	i	n/a
244.841	0.15	489682	keystroke_n	n	n/a
244.976	0.15	489952	keystroke_d	d	n/a
245.0365	0.1345	490073	keystroke_Key.space	Key.space	n/a
245.2465	0.1045	490493	keystroke_d	d	n/a
245.456	0.0455	490912	keystroke_r	r	n/a
245.7415	0.06	491483	keystroke_Key.backspace	Key.backspace	n/a
245.7715	0.09	491543	keystroke_e	e	n/a
245.9815	0.06	491963	keystroke_g	g	n/a
246.146	0.076	492292	keystroke_r	r	n/a
246.311	0.09	492622	keystroke_e	e	n/a
246.461	0.0755	492922	keystroke_s	s	n/a
246.6415	0.12	493283	keystroke_s	s	n/a
247.0305	0.045	494061	keystroke_Key.backspace	Key.backspace	n/a
247.1515	0.075	494303	keystroke_Key.backspace	Key.backspace	n/a
247.1955	0.06	494391	keystroke_e	e	n/a
247.2715	0.15	494543	keystroke_s	s	n/a
247.4055	0.121	494811	keystroke_Key.space	Key.space	n/a
247.8715	0.09	495743	keystroke_v	v	n/a
248.051	0.0755	496102	keystroke_i	i	n/a
248.1115	0.105	496223	keystroke_r	r	n/a
248.2905	0.106	496581	keystroke_t	t	n/a
248.3805	0.0755	496761	keystroke_u	u	n/a
248.5015	0.165	497003	keystroke_a	a	n/a
248.6055	0.09	497211	keystroke_l	l	n/a
248.7555	0.106	497511	keystroke_Key.space	Key.space	n/a
248.9215	0.105	497843	keystroke_d	d	n/a
249.071	0.135	498142	keystroke_a	a	n/a
249.222	0.1045	498444	keystroke_u	u	n/a
249.432	0.089	498864	keystroke_g	g	n/a
249.7915	0.09	499583	keystroke_h	h	n/a
249.9265	0.075	499853	keystroke_t	t	n/a
250.1215	0.0905	500243	keystroke_e	e	n/a
250.4515	0.075	500903	keystroke_r	r	n/a
250.6165	0.09	501233	keystroke_s	s	n/a
250.7215	0.15	501443	keystroke_Key.enter	Key.enter	n/a
250.878	11.4255	501756	prompt	n/a	pottery barcelona prediction legally\n
251.6815	0.12	503363	keystroke_p	p	n/a
251.891	0.105	503782	keystroke_o	o	n/a
252.071	0.105	504142	keystroke_t	t	n/a
252.3265	0.06	504653	keystroke_t	t	n/a
252.5065	0.06	505013	keystroke_e	e	n/a
252.6715	0.0895	505343	keystroke_r	r	n/a
252.911	0.0755	505822	keystroke_y	y	n/a
253.0915	0.1045	506183	keystroke_Key.space	Key.space	n/a
253.511	0.12	507022	keystroke_b	b	n/a
253.676	0.105	507352	keystroke_a	a	n/a
253.886	0.075	507772	keystroke_r	r	n/a
254.126	0.0755	508252	keystroke_c	c	n/a
254.306	0.105	508612	keystroke_e	e	n/a
254.4565	0.12	508913	keystroke_l	l	n/a
254.742	0.0145	509484	keystroke_o	o	n/a
254.9515	0.015	509903	keystroke_n	n	n/a
254.9665	0.1505	509933	keystroke_a	a	n/a
255.1305	0.105	510261	keystroke_Key.space	Key.space	n/a
259.4085	0.043	518817	keystroke_p	p	n/a
259.4085	0.043	518817	keystroke_r	r	n/a
259.5565	0.12	519113	keystroke_e	e	n/a
259.9315	0.09	519863	keystroke_d	d	n/a
260.2465	0.12	520493	keystroke_i	i	n/a
260.3815	0.0755	520763	keystroke_c	c	n/a
260.592	0.104	521184	keystroke_t	t	n/a
260.621	0.076	521242	keystroke_i	i	n/a
260.801	0.045	521602	keystroke_o	o	n/a
260.951	0.12	521902	keystroke_n	n	n/a
261.071	0.135	522142	keystroke_Key.space	Key.space	n/a
261.221	0.1205	522442	keystroke_l	l	n/a
261.3265	0.075	522653	keystroke_e	e	n/a
261.522	0.0595	523044	keystroke_g	g	n/a
261.6565	0.09	523313	keystroke_a	a	n/a
261.7315	0.045	523463	keystroke_l	l	n/a
261.8505	0.106	523701	keystroke_l	l	n/a
261.9705	0.0905	523941	keystroke_y	y	n/a
262.166	0.135	524332	keystroke_Key.enter	Key.enter	n/a
262.307	8.021	524614	prompt	n/a	aids bridge placing trade\n
263.066	0.1505	526132	keystroke_a	a	n/a
263.1565	0.12	526313	keystroke_i	i	n/a
263.2615	0.135	526523	keystroke_d	d	n/a
263.7565	0.15	527513	keystroke_s	s	n/a
263.8915	0.12	527783	keystroke_Key.space	Key.space	n/a
264.0865	0.134	528173	keystroke_b	b	n/a
264.2355	0.106	528471	keystroke_r	r	n/a
264.342	0.1045	528684	keystroke_i	i	n/a
267.4485	0.028	534897	keystroke_d	d	n/a
267.6115	0.075	535223	keystroke_g	g	n/a
267.7915	0.105	535583	keystroke_e	e	n/a
267.9265	0.135	535853	keystroke_Key.space	Key.space	n/a
268.1365	0.09	536273	keystroke_p	p	n/a
268.347	0.119	536694	keystroke_l	l	n/a
268.6455	0.091	537291	keystroke_a	a	n/a
268.7965	0.12	537593	keystroke_c	c	n/a
268.932	0.15	537864	keystroke_i	i	n/a
269.036	0.106	538072	keystroke_n	n	n/a
269.217	0.1195	538434	keystroke_g	g	n/a
269.3365	0.089	538673	keystroke_Key.space	Key.space	n/a
269.4705	0.0915	538941	keystroke_t	t	n/a
269.6815	0.074	539363	keystroke_r	r	n/a
269.7715	0.1795	539543	keystroke_a	a	n/a
269.892	0.0895	539784	keystroke_d	d	n/a
270.0565	0.1055	540113	keystroke_e	e	n/a
270.2055	0.1205	540411	keystroke_Key.enter	Key.enter	n/a
270.335	5.603	540670	prompt	n/a	approval terry dublin window\n
270.956	0.1505	541912	keystroke_a	a	n/a
271.0615	0.03	542123	keystroke_p	p	n/a
271.3015	0.015	542603	keystroke_p	p	n/a
271.317	0.1195	542634	keystroke_r	r	n/a
271.451	0.1195	542902	keystroke_o	o	n/a
271.6455	0.091	543291	keystroke_v	v	n/a
271.8265	0.1355	543653	keystroke_a	a	n/a
271.932	0.074	543864	keystroke_l	l	n/a
272.096	0.1205	544192	keystroke_Key.space	Key.space	n/a
272.4115	0.09	544823	keystroke_t	t	n/a
272.607	0.0745	545214	keystroke_e	e	n/a
272.7865	0.045	545573	keystroke_r	r	n/a
272.9215	0.06	545843	keystroke_r	r	n/a
273.1315	0.075	546263	keystroke_y	y	n/a
273.2665	0.105	546533	keystroke_Key.space	Key.space	n/a
273.5065	0.0895	547013	keystroke_d	d	n/a
273.6415	0.105	547283	keystroke_u	u	n/a
273.8215	0.105	547643	keystroke_b	b	n/a
274.0315	0.12	548063	keystroke_l	l	n/a
274.122	0.1045	548244	keystroke_i	i	n/a
274.317	0.1195	548634	keystroke_n	n	n/a
274.4515	0.105	548903	keystroke_Key.space	Key.space	n/a
274.5865	0.105	549173	keystroke_w	w	n/a
274.6765	0.075	549353	keystroke_o	o	n/a
274.9765	0.09	549953	keystroke_Key.backspace	Key.backspace	n/a
275.2165	0.06	550433	keystroke_i	i	n/a
275.3815	0.105	550763	keystroke_n	n	n/a
275.472	0.0895	550944	keystroke_d	d	n/a
275.5765	0.075	551153	keystroke_o	o	n/a
275.6815	0.105	551363	keystroke_w	w	n/a
275.8165	0.12	551633	keystroke_Key.enter	Key.enter	n/a
275.942	6.836	551884	prompt	n/a	metallic stages anyway recreational\n
276.746	0.165	553492	keystroke_m	m	n/a
276.8215	0.1045	553643	keystroke_e	e	n/a
277.0315	0.105	554063	keystroke_t	t	n/a
277.1815	0.12	554363	keystroke_a	a	n/a
277.3465	0.075	554693	keystroke_l	l	n/a
277.4965	0.135	554993	keystroke_l	l	n/a
277.5865	0.15	555173	keystroke_i	i	n/a
277.781	0.1205	555562	keystroke_c	c	n/a
277.886	0.1205	555772	keystroke_Key.space	Key.space	n/a
278.126	0.135	556252	keystroke_s	s	n/a
278.321	0.09	556642	keystroke_t	t	n/a
278.4715	0.0445	556943	keystroke_a	a	n/a
278.592	0.074	557184	keystroke_g	g	n/a
278.786	0.1355	557572	keystroke_e	e	n/a
278.9065	0.1495	557813	keystroke_s	s	n/a
278.996	0.1205	557992	keystroke_Key.space	Key.space	n/a
279.2215	0.135	558443	keystroke_a	a	n/a
279.3415	0.1345	558683	keystroke_n	n	n/a
279.4915	0.06	558983	keystroke_y	y	n/a
279.6715	0.1045	559343	keystroke_w	w	n/a
279.8065	0.1045	559613	keystroke_a	a	n/a
280.017	0.1045	560034	keystroke_y	y	n/a
280.1365	0.105	560273	keystroke_Key.space	Key.space	n/a
280.3765	0.075	560753	keystroke_r	r	n/a
280.557	0.0745	561114	keystroke_e	e	n/a
280.7815	0.105	561563	keystroke_c	c	n/a
281.0215	0.06	562043	keystroke_r	r	n/a
281.1865	0.12	562373	keystroke_e	e	n/a
281.2915	0.135	562583	keystroke_a	a	n/a
281.4415	0.105	562883	keystroke_t	t	n/a
281.5615	0.075	563123	keystroke_i	i	n/a
281.697	0.0895	563394	keystroke_o	o	n/a
281.8315	0.12	563663	keystroke_n	n	n/a
282.0115	0.0305	564023	keystroke_a	a	n/a
282.4315	0.0755	564863	keystroke_l	l	n/a
282.6565	0.1195	565313	keystroke_Key.enter	Key.enter	n/a
282.782	5.141	565564	prompt	n/a	share heading please seal\n
283.4215	0.1045	566843	keystroke_s	s	n/a
283.4965	0.1195	566993	keystroke_h	h	n/a
283.601	0.135	567202	keystroke_a	a	n/a
283.661	0.076	567322	keystroke_r	r	n/a
283.871	0.12	567742	keystroke_e	e	n/a
284.006	0.09	568012	keystroke_Key.space	Key.space	n/a
284.2765	0.075	568553	keystroke_h	h	n/a
284.3815	0.1055	568763	keystroke_e	e	n/a
284.532	0.1645	569064	keystroke_a	a	n/a
284.6065	0.1495	569213	keystroke_d	d	n/a
284.742	0.1195	569484	keystroke_i	i	n/a
284.8165	0.105	569633	keystroke_n	n	n/a
284.8915	0.12	569783	keystroke_g	g	n/a
284.9965	0.12	569993	keystroke_Key.space	Key.space	n/a
285.1315	0.09	570263	keystroke_p	p	n/a
285.341	0.09	570682	keystroke_l	l	n/a
286.0315	0.1345	572063	keystroke_e	e	n/a
286.2265	0.1495	572453	keystroke_a	a	n/a
286.601	0.1055	573202	keystroke_s	s	n/a
286.6465	0.135	573293	keystroke_e	e	n/a
286.796	0.1205	573592	keystroke_Key.space	Key.space	n/a
287.276	0.1345	574552	keystroke_s	s	n/a
287.367	0.1335	574734	keystroke_e	e	n/a
287.5165	0.1345	575033	keystroke_a	a	n/a
287.6065	0.09	575213	keystroke_l	l	n/a
287.7705	0.151	575541	keystroke_Key.enter	Key.enter	n/a
287.9275	7.7505	575855	prompt	n/a	so're spots death because\n
288.5515	0.1495	577103	keystroke_s	s	n/a
288.686	0.09	577372	keystroke_o	o	n/a
288.941	0.076	577882	keystroke_'	'	n/a
289.122	0.059	578244	keystroke_r	r	n/a
289.2715	0.1195	578543	keystroke_e	e	n/a
289.466	0.12	578932	keystroke_Key.space	Key.space	n/a
290.3965	0.1355	580793	keystroke_s	s	n/a
290.547	0.1195	581094	keystroke_p	p	n/a
290.6215	0.135	581243	keystroke_o	o	n/a
290.7415	0.075	581483	keystroke_r	r	n/a
291.4915	0.0895	582983	keystroke_Key.backspace	Key.backspace	n/a
291.551	0.091	583102	keystroke_t	t	n/a
291.701	0.15	583402	keystroke_s	s	n/a
291.852	0.104	583704	keystroke_Key.space	Key.space	n/a
292.032	0.074	584064	keystroke_d	d	n/a
292.2565	0.12	584513	keystroke_a	a	n/a
292.8265	0.12	585653	keystroke_Key.backspace	Key.backspace	n/a
292.9615	0.12	585923	keystroke_e	e	n/a
293.0365	0.12	586073	keystroke_a	a	n/a
293.201	0.12	586402	keystroke_t	t	n/a
293.261	0.105	586522	keystroke_h	h	n/a
293.456	0.1205	586912	keystroke_Key.space	Key.space	n/a
293.7715	0.105	587543	keystroke_b	b	n/a
293.8465	0.105	587693	keystroke_e	e	n/a
294.1015	0.1345	588203	keystroke_c	c	n/a
294.401	0.135	588802	keystroke_a	a	n/a
294.9715	0.1045	589943	keystroke_u	u	n/a
295.092	0.164	590184	keystroke_s	s	n/a
295.166	0.18	590332	keystroke_e	e	n/a
295.301	0.1205	590602	keystroke_Key.space	Key.space	n/a
295.511	0.165	591022	keystroke_Key.enter	Key.enter	n/a
295.6815	12.237	591363	prompt	n/a	role lesbians switzerland recommended\n
296.4105	0.076	592821	keystroke_r	r	n/a
296.591	0.076	593182	keystroke_o	o	n/a
297.596	0.09	595192	keystroke_l	l	n/a
297.716	0.12	595432	keystroke_e	e	n/a
297.7915	0.1345	595583	keystroke_Key.space	Key.space	n/a
298.181	0.12	596362	keystroke_l	l	n/a
298.286	0.0905	596572	keystroke_e	e	n/a
298.437	0.134	596874	keystroke_s	s	n/a
299.0815	0.194	598163	keystroke_b	b	n/a
299.292	0.0145	598584	keystroke_i	i	n/a
299.3065	0.1055	598613	keystroke_a	a	n/a
299.3815	0.1195	598763	keystroke_n	n	n/a
299.6065	0.1055	599213	keystroke_s	s	n/a
299.8765	0.1195	599753	keystroke_Key.space	Key.space	n/a
300.4315	0.075	600863	keystroke_w	w	n/a
300.9715	0.09	601943	keystroke_Key.backspace	Key.backspace	n/a
301.092	0.1045	602184	keystroke_s	s	n/a
301.662	0.059	603324	keystroke_w	w	n/a
301.736	0.09	603472	keystroke_i	i	n/a
302.3365	0.0905	604673	keystroke_t	t	n/a
302.546	0.1055	605092	keystroke_z	z	n/a
302.6965	0.075	605393	keystroke_e	e	n/a
302.861	0.075	605722	keystroke_r	r	n/a
302.966	0.135	605932	keystroke_l	l	n/a
303.086	0.135	606172	keystroke_a	a	n/a
303.207	0.119	606414	keystroke_n	n	n/a
303.401	0.12	606802	keystroke_d	d	n/a
303.536	0.1355	607072	keystroke_Key.space	Key.space	n/a
303.8215	0.09	607643	keystroke_r	r	n/a
305.771	0.0755	611542	keystroke_e	e	n/a
306.011	0.1355	612022	keystroke_c	c	n/a
306.1915	0.09	612383	keystroke_o	o	n/a
306.4015	0.105	612803	keystroke_m	m	n/a
306.6865	0.1505	613373	keystroke_m	m	n/a
306.881	0.136	613762	keystroke_e	e	n/a
307.0175	0.119	614035	keystroke_n	n	n/a
307.1515	0.105	614303	keystroke_d	d	n/a
307.3465	0.09	614693	keystroke_e	e	n/a
307.5265	0.1355	615053	keystroke_d	d	n/a
307.767	0.149	615534	keystroke_Key.enter	Key.enter	n/a
307.923	6.895	615846	prompt	n/a	regular this launch ecuador\n
308.682	0.075	617364	keystroke_r	r	n/a
308.817	0.089	617634	keystroke_e	e	n/a
309.011	0.12	618022	keystroke_g	g	n/a
309.116	0.0755	618232	keystroke_u	u	n/a
309.281	0.106	618562	keystroke_l	l	n/a
309.4465	0.1495	618893	keystroke_a	a	n/a
309.762	0.15	619524	keystroke_r	r	n/a
309.8965	0.1195	619793	keystroke_Key.space	Key.space	n/a
310.032	0.105	620064	keystroke_t	t	n/a
310.121	0.105	620242	keystroke_h	h	n/a
310.181	0.105	620362	keystroke_i	i	n/a
310.287	0.15	620574	keystroke_s	s	n/a
310.3765	0.1195	620753	keystroke_Key.space	Key.space	n/a
310.526	0.135	621052	keystroke_l	l	n/a
310.676	0.15	621352	keystroke_a	a	n/a
310.781	0.06	621562	keystroke_u	u	n/a
310.946	0.105	621892	keystroke_n	n	n/a
311.037	0.134	622074	keystroke_c	c	n/a
311.172	0.135	622344	keystroke_h	h	n/a
311.321	0.12	622642	keystroke_Key.space	Key.space	n/a
311.516	0.075	623032	keystroke_e	e	n/a
311.697	0.089	623394	keystroke_d	d	n/a
311.817	0.12	623634	keystroke_u	u	n/a
312.6115	0.045	625223	keystroke_Key.backspace	Key.backspace	n/a
312.7465	0.045	625493	keystroke_Key.backspace	Key.backspace	n/a
312.8365	0.0755	625673	keystroke_c	c	n/a
313.2565	0.075	626513	keystroke_u	u	n/a
314.1565	0.165	628313	keystroke_a	a	n/a
314.367	0.1195	628734	keystroke_d	d	n/a
314.4565	0.1195	628913	keystroke_o	o	n/a
314.591	0.121	629182	keystroke_r	r	n/a
314.727	0.089	629454	keystroke_Key.enter	Key.enter	n/a
314.822	9.2815	629644	prompt	n/a	untitled participants ruling looks\n
315.656	0.106	631312	keystroke_u	u	n/a
315.851	0.15	631702	keystroke_n	n	n/a
316.106	0.121	632212	keystroke_t	t	n/a
316.2415	0.135	632483	keystroke_i	i	n/a
316.737	0.119	633474	keystroke_t	t	n/a
318.0565	0.105	636113	keystroke_l	l	n/a
318.1915	0.075	636383	keystroke_e	e	n/a
318.3865	0.12	636773	keystroke_d	d	n/a
318.4465	0.135	636893	keystroke_Key.space	Key.space	n/a
318.867	0.1045	637734	keystroke_p	p	n/a
318.9565	0.1345	637913	keystroke_a	a	n/a
319.061	0.0905	638122	keystroke_r	r	n/a
319.2415	0.105	638483	keystroke_t	t	n/a
319.4515	0.1195	638903	keystroke_i	i	n/a
319.6765	0.105	639353	keystroke_c	c	n/a
319.8115	0.105	639623	keystroke_i	i	n/a
320.0215	0.09	640043	keystroke_p	p	n/a
320.127	0.149	640254	keystroke_a	a	n/a
320.2615	0.12	640523	keystroke_n	n	n/a
320.352	0.0895	640704	keystroke_t	t	n/a
320.5615	0.1505	641123	keystroke_s	s	n/a
320.6665	0.1195	641333	keystroke_Key.space	Key.space	n/a
320.831	0.1355	641662	keystroke_r	r	n/a
320.9515	0.0895	641903	keystroke_u	u	n/a
321.477	0.1195	642954	keystroke_l	l	n/a
321.8965	0.075	643793	keystroke_i	i	n/a
322.0315	0.135	644063	keystroke_n	n	n/a
322.1815	0.105	644363	keystroke_g	g	n/a
322.3005	0.1055	644601	keystroke_Key.space	Key.space	n/a
322.437	0.0595	644874	keystroke_b	b	n/a
322.721	0.06	645442	keystroke_Key.backspace	Key.backspace	n/a
322.946	0.075	645892	keystroke_l	l	n/a
323.157	0.03	646314	keystroke_o	o	n/a
323.262	0.059	646524	keystroke_o	o	n/a
323.412	0.0895	646824	keystroke_k	k	n/a
323.516	0.121	647032	keystroke_s	s	n/a
323.981	0.12	647962	keystroke_Key.enter	Key.enter	n/a
324.107	8.2915	648214	prompt	n/a	versions intensity butterfly scoring\n
324.806	0.1355	649612	keystroke_v	v	n/a
325.0915	0.09	650183	keystroke_e	e	n/a
325.2565	0.12	650513	keystroke_r	r	n/a
325.886	0.075	651772	keystroke_s	s	n/a
326.081	0.06	652162	keystroke_i	i	n/a
326.216	0.1055	652432	keystroke_o	o	n/a
326.306	0.1355	652612	keystroke_n	n	n/a
326.5015	0.1045	653003	keystroke_s	s	n/a
326.7715	0.1505	653543	keystroke_Key.space	Key.space	n/a
326.9815	0.15	653963	keystroke_i	i	n/a
327.0715	0.1355	654143	keystroke_n	n	n/a
327.3405	0.046	654681	keystroke_t	t	n/a
327.596	0.1055	655192	keystroke_e	e	n/a
327.6715	0.1645	655343	keystroke_n	n	n/a
327.8515	0.1205	655703	keystroke_s	s	n/a
327.956	0.106	655912	keystroke_i	i	n/a
328.0915	0.1355	656183	keystroke_t	t	n/a
328.362	0.104	656724	keystroke_y	y	n/a
328.511	0.12	657022	keystroke_Key.space	Key.space	n/a
328.6915	0.105	657383	keystroke_b	b	n/a
328.8865	0.1055	657773	keystroke_u	u	n/a
329.0965	0.075	658193	keystroke_t	t	n/a
329.262	0.075	658524	keystroke_t	t	n/a
329.457	0.06	658914	keystroke_e	e	n/a
329.6065	0.105	659213	keystroke_r	r	n/a
329.8465	0.09	659693	keystroke_f	f	n/a
330.0565	0.105	660113	keystroke_l	l	n/a
330.2065	0.09	660413	keystroke_y	y	n/a
330.3715	0.105	660743	keystroke_Key.space	Key.space	n/a
330.5665	0.09	661133	keystroke_s	s	n/a
330.7765	0.0905	661553	keystroke_c	c	n/a
330.9415	0.12	661883	keystroke_o	o	n/a
331.7215	0.135	663443	keystroke_r	r	n/a
331.8865	0.1195	663773	keystroke_i	i	n/a
331.9915	0.1195	663983	keystroke_n	n	n/a
332.1265	0.0745	664253	keystroke_g	g	n/a
332.261	0.135	664522	keystroke_Key.enter	Key.enter	n/a
332.403	11.305	664806	prompt	n/a	cadillac concerns military succeed\n
333.236	0.15	666472	keystroke_a	a	n/a
333.521	0.135	667042	keystroke_Key.backspace	Key.backspace	n/a
333.671	0.15	667342	keystroke_c	c	n/a
333.8665	0.1195	667733	keystroke_a	a	n/a
334.5415	0.09	669083	keystroke_d	d	n/a
334.6765	0.12	669353	keystroke_i	i	n/a
334.8855	0.0915	669771	keystroke_l	l	n/a
335.8765	0.12	671753	keystroke_l	l	n/a
336.0115	0.1055	672023	keystroke_a	a	n/a
336.2515	0.1195	672503	keystroke_c	c	n/a
336.4165	0.12	672833	keystroke_Key.space	Key.space	n/a
336.6415	0.135	673283	keystroke_c	c	n/a
336.7915	0.1225	673583	keystroke_o	o	n/a
338.5165	0.1355	677033	keystroke_n	n	n/a
338.6665	0.0895	677333	keystroke_c	c	n/a
338.876	0.045	677752	keystroke_e	e	n/a
339.012	0.1045	678024	keystroke_r	r	n/a
339.0865	0.135	678173	keystroke_n	n	n/a
339.2365	0.105	678473	keystroke_s	s	n/a
339.461	0.135	678922	keystroke_Key.space	Key.space	n/a
339.687	0.1045	679374	keystroke_m	m	n/a
339.852	0.1195	679704	keystroke_i	i	n/a
340.077	0.1345	680154	keystroke_l	l	n/a
340.3465	0.105	680693	keystroke_i	i	n/a
340.631	0.0905	681262	keystroke_t	t	n/a
340.8115	0.15	681623	keystroke_a	a	n/a
340.9015	0.105	681803	keystroke_r	r	n/a
341.1715	0.105	682343	keystroke_y	y	n/a
341.3365	0.0595	682673	keystroke_Key.space	Key.space	n/a
341.4115	0.105	682823	keystroke_s	s	n/a
341.5165	0.1205	683033	keystroke_u	u	n/a
341.6815	0.12	683363	keystroke_c	c	n/a
342.1765	0.105	684353	keystroke_c	c	n/a
342.3865	0.105	684773	keystroke_e	e	n/a
343.167	0.075	686334	keystroke_e	e	n/a
343.3615	0.09	686723	keystroke_d	d	n/a
343.512	0.194	687024	keystroke_Key.enter	Key.enter	n/a
343.7125	15.0555	687425	prompt	n/a	peninsula establish represented suicide\n
344.381	0.1505	688762	keystroke_p	p	n/a
344.562	0.12	689124	keystroke_e	e	n/a
344.7565	0.135	689513	keystroke_n	n	n/a
344.9815	0.1055	689963	keystroke_i	i	n/a
345.446	0.105	690892	keystroke_s	s	n/a
345.5665	0.1205	691133	keystroke_u	u	n/a
345.807	0.089	691614	keystroke_l	l	n/a
346.0165	0.075	692033	keystroke_a	a	n/a
346.286	0.135	692572	keystroke_Key.space	Key.space	n/a
348.1765	0.06	696353	keystroke_Key.backspace	Key.backspace	n/a
348.3115	0.075	696623	keystroke_Key.backspace	Key.backspace	n/a
348.4615	0.045	696923	keystroke_Key.backspace	Key.backspace	n/a
348.5665	0.06	697133	keystroke_Key.backspace	Key.backspace	n/a
348.7165	0.09	697433	keystroke_Key.backspace	Key.backspace	n/a
349.0765	0.135	698153	keystroke_n	n	n/a
349.2865	0.135	698573	keystroke_s	s	n/a
349.3765	0.0905	698753	keystroke_u	u	n/a
349.5415	0.105	699083	keystroke_l	l	n/a
349.692	0.179	699384	keystroke_a	a	n/a
349.811	0.1505	699622	keystroke_Key.space	Key.space	n/a
350.321	0.15	700642	keystroke_e	e	n/a
350.8165	0.18	701633	keystroke_s	s	n/a
350.9215	0.09	701843	keystroke_t	t	n/a
351.071	0.15	702142	keystroke_a	a	n/a
351.2665	0.1205	702533	keystroke_b	b	n/a
351.4615	0.1205	702923	keystroke_l	l	n/a
351.5215	0.1345	703043	keystroke_i	i	n/a
351.6415	0.1195	703283	keystroke_s	s	n/a
351.762	0.104	703524	keystroke_h	h	n/a
351.971	0.1055	703942	keystroke_Key.space	Key.space	n/a
352.121	0.09	704242	keystroke_r	r	n/a
352.3015	0.1195	704603	keystroke_e	e	n/a
352.751	0.135	705502	keystroke_p	p	n/a
352.871	0.09	705742	keystroke_r	r	n/a
353.0365	0.12	706073	keystroke_e	e	n/a
353.2765	0.15	706553	keystroke_s	s	n/a
354.431	0.09	708862	keystroke_e	e	n/a
354.537	0.104	709074	keystroke_n	n	n/a
354.672	0.089	709344	keystroke_t	t	n/a
354.896	0.076	709792	keystroke_e	e	n/a
355.0915	0.1045	710183	keystroke_d	d	n/a
355.196	0.1205	710392	keystroke_Key.space	Key.space	n/a
355.466	0.121	710932	keystroke_s	s	n/a
355.556	0.12	711112	keystroke_u	u	n/a
355.7965	0.105	711593	keystroke_c	c	n/a
355.9165	0.1045	711833	keystroke_i	i	n/a
356.2915	0.045	712583	keystroke_Key.backspace	Key.backspace	n/a
356.3965	0.0595	712793	keystroke_Key.backspace	Key.backspace	n/a
356.5915	0.1045	713183	keystroke_i	i	n/a
356.712	0.134	713424	keystroke_c	c	n/a
356.862	0.1045	713724	keystroke_i	i	n/a
357.866	0.075	715732	keystroke_d	d	n/a
358.031	0.09	716062	keystroke_e	e	n/a
358.5715	0.195	717143	keystroke_Key.enter	Key.enter	n/a
358.7715	7.182	717543	prompt	n/a	suites throw documentation interaction\n
359.5165	0.135	719033	keystroke_s	s	n/a
359.6365	0.09	719273	keystroke_u	u	n/a
359.832	0.105	719664	keystroke_i	i	n/a
359.9515	0.075	719903	keystroke_t	t	n/a
360.207	0.135	720414	keystroke_s	s	n/a
360.461	0.105	720922	keystroke_Key.space	Key.space	n/a
360.746	0.105	721492	keystroke_t	t	n/a
360.836	0.121	721672	keystroke_h	h	n/a
360.9415	0.1195	721883	keystroke_r	r	n/a
361.031	0.135	722062	keystroke_o	o	n/a
361.2265	0.09	722453	keystroke_w	w	n/a
361.4665	0.12	722933	keystroke_Key.space	Key.space	n/a
361.8415	0.1195	723683	keystroke_d	d	n/a
361.976	0.12	723952	keystroke_o	o	n/a
362.231	0.12	724462	keystroke_c	c	n/a
362.336	0.1055	724672	keystroke_u	u	n/a
362.561	0.15	725122	keystroke_m	m	n/a
362.891	0.121	725782	keystroke_e	e	n/a
363.012	0.134	726024	keystroke_n	n	n/a
363.161	0.091	726322	keystroke_t	t	n/a
363.296	0.091	726592	keystroke_a	a	n/a
363.446	0.1055	726892	keystroke_t	t	n/a
363.521	0.075	727042	keystroke_i	i	n/a
363.686	0.1055	727372	keystroke_o	o	n/a
363.806	0.1355	727612	keystroke_n	n	n/a
363.956	0.1205	727912	keystroke_Key.space	Key.space	n/a
364.1515	0.1045	728303	keystroke_i	i	n/a
364.286	0.1205	728572	keystroke_n	n	n/a
364.3915	0.09	728783	keystroke_t	t	n/a
364.587	0.0595	729174	keystroke_e	e	n/a
364.7215	0.105	729443	keystroke_r	r	n/a
364.8415	0.105	729683	keystroke_a	a	n/a
365.022	0.0745	730044	keystroke_c	c	n/a
365.2015	0.105	730403	keystroke_t	t	n/a
365.2765	0.075	730553	keystroke_i	i	n/a
365.4415	0.195	730883	keystroke_o	o	n/a
365.5615	0.135	731123	keystroke_n	n	n/a
365.8015	0.15	731603	keystroke_Key.enter	Key.enter	n/a
365.9595	8.3035	731919	prompt	n/a	incentives column enclosed occurrence\n
366.5815	0.1055	733163	keystroke_i	i	n/a
366.7765	0.1355	733553	keystroke_n	n	n/a
366.8815	0.105	733763	keystroke_c	c	n/a
367.0455	0.106	734091	keystroke_n	n	n/a
367.6315	0.09	735263	keystroke_Key.backspace	Key.backspace	n/a
367.7065	0.105	735413	keystroke_e	e	n/a
367.8415	0.12	735683	keystroke_n	n	n/a
367.9465	0.09	735893	keystroke_t	t	n/a
368.0515	0.09	736103	keystroke_i	i	n/a
368.2165	0.075	736433	keystroke_v	v	n/a
368.397	0.1195	736794	keystroke_e	e	n/a
368.5915	0.1655	737183	keystroke_s	s	n/a
368.7705	0.136	737541	keystroke_Key.space	Key.space	n/a
369.011	0.121	738022	keystroke_c	c	n/a
369.1765	0.0895	738353	keystroke_o	o	n/a
369.431	0.12	738862	keystroke_l	l	n/a
369.7015	0.105	739403	keystroke_u	u	n/a
369.9415	0.075	739883	keystroke_m	m	n/a
370.1215	0.105	740243	keystroke_n	n	n/a
370.2565	0.1045	740513	keystroke_Key.space	Key.space	n/a
370.662	0.119	741324	keystroke_e	e	n/a
370.767	0.134	741534	keystroke_n	n	n/a
370.946	0.1355	741892	keystroke_c	c	n/a
371.0365	0.135	742073	keystroke_l	l	n/a
371.1265	0.165	742253	keystroke_o	o	n/a
371.2765	0.12	742553	keystroke_s	s	n/a
371.3355	0.091	742671	keystroke_e	e	n/a
371.5615	0.0895	743123	keystroke_d	d	n/a
371.6365	0.1195	743273	keystroke_Key.space	Key.space	n/a
372.4765	0.09	744953	keystroke_o	o	n/a
372.7615	0.075	745523	keystroke_c	c	n/a
372.926	0.0905	745852	keystroke_c	c	n/a
373.032	0.105	746064	keystroke_u	u	n/a
373.151	0.09	746302	keystroke_r	r	n/a
373.451	0.105	746902	keystroke_e	e	n/a
373.557	0.1345	747114	keystroke_n	n	n/a
373.706	0.0755	747412	keystroke_c	c	n/a
373.886	0.09	747772	keystroke_e	e	n/a
374.096	0.1655	748192	keystroke_Key.enter	Key.enter	n/a
374.2665	10.3165	748533	prompt	n/a	selections pharmacy festival defensive\n
374.9365	0.134	749873	keystroke_s	s	n/a
375.0865	0.1495	750173	keystroke_e	e	n/a
375.251	0.1205	750502	keystroke_l	l	n/a
375.431	0.09	750862	keystroke_e	e	n/a
375.656	0.09	751312	keystroke_c	c	n/a
375.8815	0.105	751763	keystroke_t	t	n/a
375.926	0.075	751852	keystroke_i	i	n/a
376.0915	0.0895	752183	keystroke_o	o	n/a
376.287	0.119	752574	keystroke_n	n	n/a
376.451	0.135	752902	keystroke_s	s	n/a
376.5415	0.15	753083	keystroke_Key.space	Key.space	n/a
376.7665	0.1055	753533	keystroke_p	p	n/a
376.991	0.106	753982	keystroke_h	h	n/a
377.157	0.1795	754314	keystroke_a	a	n/a
377.247	0.1195	754494	keystroke_r	r	n/a
379.6325	0.059	759265	keystroke_m	m	n/a
379.6615	0.1055	759323	keystroke_a	a	n/a
379.8265	0.0605	759653	keystroke_c	c	n/a
380.156	0.0905	760312	keystroke_y	y	n/a
380.381	0.1205	760762	keystroke_Key.space	Key.space	n/a
380.7115	0.075	761423	keystroke_f	f	n/a
380.8915	0.135	761783	keystroke_e	e	n/a
381.0115	0.105	762023	keystroke_s	s	n/a
381.1465	0.1055	762293	keystroke_t	t	n/a
381.2365	0.1355	762473	keystroke_i	i	n/a
381.492	0.12	762984	keystroke_c	c	n/a
382.136	0.105	764272	keystroke_Key.backspace	Key.backspace	n/a
382.242	0.075	764484	keystroke_v	v	n/a
382.4065	0.105	764813	keystroke_a	a	n/a
382.5265	0.1205	765053	keystroke_l	l	n/a
382.6615	0.105	765323	keystroke_Key.space	Key.space	n/a
382.8265	0.045	765653	keystroke_d	d	n/a
382.9765	0.075	765953	keystroke_e	e	n/a
383.2015	0.1205	766403	keystroke_f	f	n/a
383.4415	0.135	766883	keystroke_e	e	n/a
383.5915	0.15	767183	keystroke_n	n	n/a
383.7565	0.0905	767513	keystroke_s	s	n/a
383.9215	0.12	767843	keystroke_i	i	n/a
384.1015	0.06	768203	keystroke_v	v	n/a
384.282	0.0895	768564	keystroke_e	e	n/a
384.416	0.1645	768832	keystroke_Key.enter	Key.enter	n/a
384.5875	6.0255	769175	prompt	n/a	radio organize loves volumes\n
385.1065	0.15	770213	keystroke_r	r	n/a
385.2715	0.1045	770543	keystroke_a	a	n/a
385.4215	0.1195	770843	keystroke_d	d	n/a
385.542	0.089	771084	keystroke_i	i	n/a
385.7365	0.105	771473	keystroke_o	o	n/a
385.856	0.12	771712	keystroke_Key.space	Key.space	n/a
386.1115	0.1195	772223	keystroke_o	o	n/a
386.216	0.09	772432	keystroke_r	r	n/a
386.4115	0.0595	772823	keystroke_g	g	n/a
386.6065	0.09	773213	keystroke_a	a	n/a
387.146	0.12	774292	keystroke_n	n	n/a
387.282	0.119	774564	keystroke_i	i	n/a
387.386	0.135	774772	keystroke_z	z	n/a
387.596	0.12	775192	keystroke_e	e	n/a
387.686	0.15	775372	keystroke_Key.space	Key.space	n/a
388.0915	0.1345	776183	keystroke_l	l	n/a
388.212	0.1485	776424	keystroke_o	o	n/a
388.3165	0.06	776633	keystroke_v	v	n/a
388.4965	0.105	776993	keystroke_e	e	n/a
388.6315	0.135	777263	keystroke_s	s	n/a
388.721	0.1355	777442	keystroke_Key.space	Key.space	n/a
389.0515	0.075	778103	keystroke_v	v	n/a
389.1415	0.09	778283	keystroke_o	o	n/a
389.3515	0.1045	778703	keystroke_l	l	n/a
389.6515	0.1055	779303	keystroke_u	u	n/a
389.891	0.091	779782	keystroke_m	m	n/a
390.146	0.0905	780292	keystroke_e	e	n/a
390.281	0.135	780562	keystroke_s	s	n/a
390.4765	0.135	780953	keystroke_Key.enter	Key.enter	n/a
390.617	7.7955	781234	prompt	n/a	ballet succeed nine medium\n
391.4965	0.1195	782993	keystroke_b	b	n/a
391.631	0.1655	783262	keystroke_a	a	n/a
391.8115	0.0895	783623	keystroke_l	l	n/a
391.976	0.105	783952	keystroke_l	l	n/a
392.051	0.0905	784102	keystroke_e	e	n/a
392.2765	0.12	784553	keystroke_t	t	n/a
392.4115	0.1495	784823	keystroke_Key.space	Key.space	n/a
393.2965	0.1205	786593	keystroke_s	s	n/a
393.4465	0.1195	786893	keystroke_u	u	n/a
393.5965	0.105	787193	keystroke_c	c	n/a
393.8365	0.075	787673	keystroke_c	c	n/a
394.0315	0.135	788063	keystroke_e	e	n/a
394.4365	0.1045	788873	keystroke_e	e	n/a
394.751	0.136	789502	keystroke_d	d	n/a
394.8565	0.0595	789713	keystroke_Key.space	Key.space	n/a
395.861	0.121	791722	keystroke_n	n	n/a
395.9365	0.1655	791873	keystroke_i	i	n/a
396.072	0.135	792144	keystroke_n	n	n/a
396.191	0.1205	792382	keystroke_e	e	n/a
396.2815	0.1345	792563	keystroke_Key.space	Key.space	n/a
396.506	0.135	793012	keystroke_m	m	n/a
396.6115	0.0755	793223	keystroke_e	e	n/a
396.791	0.091	793582	keystroke_d	d	n/a
396.866	0.06	793732	keystroke_u	u	n/a
397.2715	0.09	794543	keystroke_Key.backspace	Key.backspace	n/a
397.4815	0.0755	794963	keystroke_i	i	n/a
397.6615	0.105	795323	keystroke_u	u	n/a
397.9165	0.105	795833	keystroke_m	m	n/a
398.2615	0.15	796523	keystroke_Key.enter	Key.enter	n/a
398.417	5.471	796834	prompt	n/a	voted generated deviation cups\n
399.222	0.119	798444	keystroke_v	v	n/a
399.357	0.119	798714	keystroke_o	o	n/a
399.491	0.06	798982	keystroke_t	t	n/a
399.657	0.075	799314	keystroke_e	e	n/a
399.851	0.1205	799702	keystroke_d	d	n/a
399.926	0.1805	799852	keystroke_Key.space	Key.space	n/a
400.331	0.045	800662	keystroke_g	g	n/a
400.481	0.15	800962	keystroke_e	e	n/a
400.6615	0.1345	801323	keystroke_n	n	n/a
400.811	0.0755	801622	keystroke_e	e	n/a
400.9765	0.09	801953	keystroke_r	r	n/a
401.0965	0.105	802193	keystroke_a	a	n/a
401.2465	0.075	802493	keystroke_t	t	n/a
401.4115	0.075	802823	keystroke_e	e	n/a
401.5915	0.1055	803183	keystroke_d	d	n/a
401.6515	0.105	803303	keystroke_Key.space	Key.space	n/a
401.8465	0.09	803693	keystroke_d	d	n/a
401.9965	0.075	803993	keystroke_e	e	n/a
402.2965	0.1045	804593	keystroke_v	v	n/a
402.4165	0.12	804833	keystroke_i	i	n/a
402.551	0.105	805102	keystroke_a	a	n/a
402.641	0.135	805282	keystroke_t	t	n/a
402.7465	0.09	805493	keystroke_i	i	n/a
402.926	0.0605	805852	keystroke_o	o	n/a
403.076	0.1345	806152	keystroke_n	n	n/a
403.1965	0.0745	806393	keystroke_Key.space	Key.space	n/a
403.287	0.104	806574	keystroke_c	c	n/a
403.376	0.075	806752	keystroke_u	u	n/a
403.5265	0.12	807053	keystroke_p	p	n/a
403.632	0.0895	807264	keystroke_s	s	n/a
403.7515	0.135	807503	keystroke_Key.enter	Key.enter	n/a
403.8925	8.3955	807785	prompt	n/a	galleries willow mines synthetic\n
404.5015	0.075	809003	keystroke_g	g	n/a
404.6365	0.135	809273	keystroke_a	a	n/a
404.741	0.06	809482	keystroke_l	l	n/a
404.876	0.12	809752	keystroke_l	l	n/a
405.0115	0.0895	810023	keystroke_r	r	n/a
405.4005	0.091	810801	keystroke_Key.backspace	Key.backspace	n/a
405.4615	0.09	810923	keystroke_e	e	n/a
405.6265	0.135	811253	keystroke_r	r	n/a
405.7465	0.09	811493	keystroke_i	i	n/a
406.2115	0.135	812423	keystroke_e	e	n/a
406.3315	0.1505	812663	keystroke_s	s	n/a
406.466	0.135	812932	keystroke_Key.space	Key.space	n/a
406.8715	0.1195	813743	keystroke_w	w	n/a
406.992	0.0895	813984	keystroke_i	i	n/a
407.171	0.045	814342	keystroke_l	l	n/a
407.291	0.1205	814582	keystroke_l	l	n/a
407.396	0.12	814792	keystroke_o	o	n/a
407.531	0.1055	815062	keystroke_w	w	n/a
407.651	0.15	815302	keystroke_Key.space	Key.space	n/a
407.876	0.12	815752	keystroke_m	m	n/a
408.041	0.15	816082	keystroke_i	i	n/a
408.146	0.135	816292	keystroke_n	n	n/a
408.266	0.12	816532	keystroke_e	e	n/a
408.596	0.135	817192	keystroke_s	s	n/a
408.671	0.15	817342	keystroke_Key.space	Key.space	n/a
409.286	0.0155	818572	keystroke_s	s	n/a
409.391	0.1055	818782	keystroke_y	y	n/a
409.571	0.12	819142	keystroke_n	n	n/a
409.751	0.1205	819502	keystroke_t	t	n/a
409.886	0.09	819772	keystroke_h	h	n/a
410.111	0.105	820222	keystroke_e	e	n/a
410.426	0.1205	820852	keystroke_t	t	n/a
410.576	0.12	821152	keystroke_i	i	n/a
410.711	0.105	821422	keystroke_c	c	n/a
412.151	0.135	824302	keystroke_Key.enter	Key.enter	n/a
412.293	8.6955	824586	prompt	n/a	article vernon mobiles structural\n
412.9165	0.134	825833	keystroke_a	a	n/a
412.9915	0.12	825983	keystroke_r	r	n/a
413.2015	0.0905	826403	keystroke_t	t	n/a
413.276	0.105	826552	keystroke_i	i	n/a
413.4115	0.105	826823	keystroke_v	v	n/a
413.5465	0.105	827093	keystroke_l	l	n/a
414.0115	0.0295	828023	keystroke_Key.backspace	Key.backspace	n/a
414.101	0.075	828202	keystroke_Key.backspace	Key.backspace	n/a
414.191	0.1205	828382	keystroke_c	c	n/a
414.326	0.0605	828652	keystroke_l	l	n/a
414.4765	0.135	828953	keystroke_e	e	n/a
414.596	0.135	829192	keystroke_Key.space	Key.space	n/a
414.866	0.09	829732	keystroke_v	v	n/a
415.0615	0.0595	830123	keystroke_e	e	n/a
415.196	0.1655	830392	keystroke_r	r	n/a
415.421	0.105	830842	keystroke_n	n	n/a
415.586	0.09	831172	keystroke_o	o	n/a
415.721	0.12	831442	keystroke_n	n	n/a
415.871	0.12	831742	keystroke_Key.space	Key.space	n/a
417.041	0.0605	834082	keystroke_m	m	n/a
417.1765	0.105	834353	keystroke_o	o	n/a
417.6715	0.075	835343	keystroke_b	b	n/a
417.852	0.105	835704	keystroke_i	i	n/a
418.1365	0.1045	836273	keystroke_l	l	n/a
418.257	0.119	836514	keystroke_e	e	n/a
418.421	0.1505	836842	keystroke_s	s	n/a
418.7365	0.135	837473	keystroke_Key.space	Key.space	n/a
418.9165	0.18	837833	keystroke_s	s	n/a
419.0815	0.09	838163	keystroke_t	t	n/a
419.2615	0.105	838523	keystroke_r	r	n/a
419.3515	0.1055	838703	keystroke_u	u	n/a
419.4865	0.09	838973	keystroke_c	c	n/a
419.9365	0.1205	839873	keystroke_t	t	n/a
420.0715	0.15	840143	keystroke_u	u	n/a
420.2515	0.09	840503	keystroke_r	r	n/a
420.4015	0.12	840803	keystroke_a	a	n/a
420.4915	0.12	840983	keystroke_l	l	n/a
420.8065	0.18	841613	keystroke_Key.enter	Key.enter	n/a
420.9925	6.656	841985	prompt	n/a	combine admission cams seattle\n
421.6165	0.135	843233	keystroke_c	c	n/a
421.7065	0.0755	843413	keystroke_o	o	n/a
421.8715	0.09	843743	keystroke_m	m	n/a
422.0965	0.03	844193	keystroke_b	b	n/a
422.1865	0.105	844373	keystroke_i	i	n/a
422.5315	0.12	845063	keystroke_n	n	n/a
422.6965	0.12	845393	keystroke_e	e	n/a
422.9815	0.135	845963	keystroke_Key.space	Key.space	n/a
423.2365	0.15	846473	keystroke_a	a	n/a
423.4165	0.1345	846833	keystroke_d	d	n/a
423.5365	0.1345	847073	keystroke_m	m	n/a
423.7765	0.1345	847553	keystroke_i	i	n/a
424.2405	0.076	848481	keystroke_s	s	n/a
424.391	0.1205	848782	keystroke_s	s	n/a
424.4815	0.075	848963	keystroke_i	i	n/a
424.6615	0.0745	849323	keystroke_o	o	n/a
424.961	0.015	849922	keystroke_n	n	n/a
424.976	0.12	849952	keystroke_Key.space	Key.space	n/a
425.126	0.09	850252	keystroke_c	c	n/a
425.232	0.134	850464	keystroke_a	a	n/a
425.351	0.135	850702	keystroke_m	m	n/a
425.636	0.105	851272	keystroke_s	s	n/a
425.7715	0.105	851543	keystroke_Key.space	Key.space	n/a
426.0865	0.1495	852173	keystroke_s	s	n/a
426.191	0.1205	852382	keystroke_e	e	n/a
426.3115	0.12	852623	keystroke_a	a	n/a
426.447	0.119	852894	keystroke_t	t	n/a
427.091	0.0755	854182	keystroke_t	t	n/a
427.1815	0.12	854363	keystroke_l	l	n/a
427.3315	0.09	854663	keystroke_e	e	n/a
427.4815	0.1645	854963	keystroke_Key.enter	Key.enter	n/a
427.6525	4.3915	855305	prompt	n/a	highest attack done charts\n
428.3065	0.1345	856613	keystroke_h	h	n/a
428.3965	0.1045	856793	keystroke_i	i	n/a
428.486	0.106	856972	keystroke_g	g	n/a
428.576	0.1355	857152	keystroke_h	h	n/a
428.696	0.1205	857392	keystroke_e	e	n/a
428.8015	0.135	857603	keystroke_s	s	n/a
428.9215	0.1205	857843	keystroke_t	t	n/a
429.056	0.1205	858112	keystroke_Key.space	Key.space	n/a
429.206	0.1345	858412	keystroke_a	a	n/a
429.327	0.0585	858654	keystroke_t	t	n/a
429.477	0.074	858954	keystroke_t	t	n/a
429.596	0.075	859192	keystroke_a	a	n/a
429.776	0.12	859552	keystroke_c	c	n/a
429.881	0.09	859762	keystroke_h	h	n/a
430.016	0.1205	860032	keystroke_Key.space	Key.space	n/a
430.196	0.12	860392	keystroke_d	d	n/a
430.2865	0.1345	860573	keystroke_o	o	n/a
430.3915	0.12	860783	keystroke_n	n	n/a
430.526	0.0755	861052	keystroke_e	e	n/a
430.5865	0.12	861173	keystroke_Key.space	Key.space	n/a
430.8865	0.1055	861773	keystroke_c	c	n/a
430.9615	0.105	861923	keystroke_h	h	n/a
431.0815	0.1205	862163	keystroke_a	a	n/a
431.2765	0.12	862553	keystroke_r	r	n/a
431.517	0.1045	863034	keystroke_t	t	n/a
431.7115	0.1195	863423	keystroke_s	s	n/a
431.9065	0.1345	863813	keystroke_Key.enter	Key.enter	n/a
432.0485	5.17	864097	prompt	n/a	lists reserves hate trek\n
432.6865	0.1355	865373	keystroke_l	l	n/a
432.792	0.135	865584	keystroke_i	i	n/a
432.866	0.136	865732	keystroke_s	s	n/a
432.9565	0.1345	865913	keystroke_t	t	n/a
433.152	0.149	866304	keystroke_s	s	n/a
433.376	0.15	866752	keystroke_Key.space	Key.space	n/a
434.1115	0.045	868223	keystroke_r	r	n/a
434.2465	0.09	868493	keystroke_e	e	n/a
434.3815	0.15	868763	keystroke_s	s	n/a
434.4715	0.09	868943	keystroke_e	e	n/a
434.6365	0.09	869273	keystroke_r	r	n/a
434.8765	0.09	869753	keystroke_v	v	n/a
435.0865	0.1205	870173	keystroke_e	e	n/a
435.1915	0.135	870383	keystroke_s	s	n/a
435.2815	0.12	870563	keystroke_Key.space	Key.space	n/a
435.4315	0.12	870863	keystroke_h	h	n/a
435.5365	0.12	871073	keystroke_a	a	n/a
435.6415	0.075	871283	keystroke_t	t	n/a
435.8365	0.09	871673	keystroke_e	e	n/a
435.8965	0.105	871793	keystroke_Key.space	Key.space	n/a
436.2265	0.06	872453	keystroke_t	t	n/a
436.377	0.0595	872754	keystroke_r	r	n/a
436.5265	0.1055	873053	keystroke_e	e	n/a
436.6615	0.1055	873323	keystroke_k	k	n/a
437.021	0.195	874042	keystroke_Key.enter	Key.enter	n/a
437.2225	10.5715	874445	prompt	n/a	vice countries yorkshire brings\n
438.642	0.09	877284	keystroke_v	v	n/a
438.7165	0.09	877433	keystroke_i	i	n/a
438.8365	0.105	877673	keystroke_c	c	n/a
439.2565	0.12	878513	keystroke_e	e	n/a
439.3915	0.12	878783	keystroke_Key.space	Key.space	n/a
439.6615	0.1195	879323	keystroke_c	c	n/a
439.7665	0.1195	879533	keystroke_o	o	n/a
439.947	0.119	879894	keystroke_n	n	n/a
440.5315	0.1205	881063	keystroke_Key.backspace	Key.backspace	n/a
440.7415	0.0905	881483	keystroke_u	u	n/a
440.9215	0.1205	881843	keystroke_n	n	n/a
441.3415	0.09	882683	keystroke_t	t	n/a
441.5215	0.12	883043	keystroke_r	r	n/a
441.5815	0.12	883163	keystroke_i	i	n/a
441.7765	0.105	883553	keystroke_e	e	n/a
441.8965	0.15	883793	keystroke_s	s	n/a
442.0765	0.135	884153	keystroke_Key.space	Key.space	n/a
442.4965	0.105	884993	keystroke_y	y	n/a
442.6165	0.105	885233	keystroke_o	o	n/a
442.7365	0.12	885473	keystroke_r	r	n/a
442.8415	0.12	885683	keystroke_k	k	n/a
442.9765	0.1205	885953	keystroke_s	s	n/a
443.156	0.1355	886312	keystroke_h	h	n/a
443.231	0.1655	886462	keystroke_i	i	n/a
443.3665	0.075	886733	keystroke_r	r	n/a
443.561	0.075	887122	keystroke_e	e	n/a
443.606	0.1205	887212	keystroke_Key.space	Key.space	n/a
444.102	0.044	888204	keystroke_Key.backspace	Key.backspace	n/a
444.206	0.06	888412	keystroke_Key.backspace	Key.backspace	n/a
444.3115	0.075	888623	keystroke_Key.backspace	Key.backspace	n/a
444.431	0.0605	888862	keystroke_Key.backspace	Key.backspace	n/a
444.552	0.0595	889104	keystroke_Key.backspace	Key.backspace	n/a
444.6565	0.0745	889313	keystroke_Key.backspace	Key.backspace	n/a
445.0315	0.135	890063	keystroke_s	s	n/a
445.1365	0.12	890273	keystroke_h	h	n/a
445.2415	0.135	890483	keystroke_i	i	n/a
445.3915	0.0905	890783	keystroke_r	r	n/a
445.572	0.1345	891144	keystroke_e	e	n/a
445.6765	0.15	891353	keystroke_Key.space	Key.space	n/a
445.9915	0.09	891983	keystroke_b	b	n/a
446.0815	0.12	892163	keystroke_r	r	n/a
446.1415	0.15	892283	keystroke_i	i	n/a
446.2465	0.15	892493	keystroke_n	n	n/a
446.3815	0.06	892763	keystroke_g	g	n/a
446.5615	0.09	893123	keystroke_s	s	n/a
447.627	0.1645	895254	keystroke_Key.enter	Key.enter	n/a
447.8085	14.76	895617	prompt	n/a	ferrari contain commonly heavily\n
448.436	0.1055	896872	keystroke_f	f	n/a
448.646	0.12	897292	keystroke_e	e	n/a
449.082	0.089	898164	keystroke_r	r	n/a
449.276	0.12	898552	keystroke_r	r	n/a
449.411	0.121	898822	keystroke_a	a	n/a
449.592	0.12	899184	keystroke_i	i	n/a
449.786	0.15	899572	keystroke_Key.space	Key.space	n/a
450.012	0.09	900024	keystroke_c	c	n/a
450.072	0.105	900144	keystroke_o	o	n/a
450.236	0.166	900472	keystroke_n	n	n/a
450.3565	0.0905	900713	keystroke_t	t	n/a
450.5065	0.15	901013	keystroke_a	a	n/a
450.611	0.135	901222	keystroke_i	i	n/a
450.716	0.136	901432	keystroke_n	n	n/a
450.896	0.15	901792	keystroke_Key.space	Key.space	n/a
458.5185	0.0885	917037	keystroke_c	c	n/a
458.5465	0.09	917093	keystroke_o	o	n/a
458.922	0.06	917844	keystroke_m	m	n/a
459.072	0.0905	918144	keystroke_m	m	n/a
459.147	0.105	918294	keystroke_o	o	n/a
459.282	0.135	918564	keystroke_n	n	n/a
459.582	0.0745	919164	keystroke_l	l	n/a
459.732	0.12	919464	keystroke_y	y	n/a
460.0465	0.135	920093	keystroke_Key.space	Key.space	n/a
460.332	0.105	920664	keystroke_h	h	n/a
460.4215	0.1505	920843	keystroke_e	e	n/a
460.5565	0.0755	921113	keystroke_a	a	n/a
460.7215	0.15	921443	keystroke_v	v	n/a
461.0815	0.09	922163	keystroke_i	i	n/a
461.2465	0.135	922493	keystroke_l	l	n/a
461.4265	0.135	922853	keystroke_y	y	n/a
461.577	0.105	923154	keystroke_Key.space	Key.space	n/a
462.432	0.135	924864	keystroke_Key.enter	Key.enter	n/a
462.5745	8.5585	925149	prompt	n/a	potential adults comp patricia\n
463.257	0.105	926514	keystroke_p	p	n/a
463.3915	0.15	926783	keystroke_o	o	n/a
463.512	0.1045	927024	keystroke_t	t	n/a
463.707	0.09	927414	keystroke_e	e	n/a
463.827	0.12	927654	keystroke_n	n	n/a
463.932	0.1205	927864	keystroke_t	t	n/a
464.037	0.12	928074	keystroke_i	i	n/a
464.187	0.15	928374	keystroke_a	a	n/a
464.292	0.15	928584	keystroke_l	l	n/a
464.412	0.105	928824	keystroke_Key.space	Key.space	n/a
464.532	0.15	929064	keystroke_d	d	n/a
465.147	0.15	930294	keystroke_Key.backspace	Key.backspace	n/a
465.312	0.045	930624	keystroke_a	a	n/a
465.372	0.075	930744	keystroke_u	u	n/a
466.167	0.06	932334	keystroke_Key.backspace	Key.backspace	n/a
466.228	0.014	932456	keystroke_d	d	n/a
466.257	0.045	932514	keystroke_u	u	n/a
466.392	0.09	932784	keystroke_l	l	n/a
466.467	0.0895	932934	keystroke_t	t	n/a
466.662	0.1345	933324	keystroke_s	s	n/a
466.7665	0.12	933533	keystroke_Key.space	Key.space	n/a
467.0365	0.136	934073	keystroke_c	c	n/a
467.1565	0.1805	934313	keystroke_o	o	n/a
467.2465	0.151	934493	keystroke_m	m	n/a
467.3225	0.105	934645	keystroke_p	p	n/a
467.5165	0.105	935033	keystroke_Key.space	Key.space	n/a
468.552	0.12	937104	keystroke_p	p	n/a
468.642	0.1495	937284	keystroke_a	a	n/a
468.747	0.1195	937494	keystroke_r	r	n/a
469.7065	0.0895	939413	keystroke_Key.backspace	Key.backspace	n/a
469.767	0.105	939534	keystroke_t	t	n/a
470.007	0.1195	940014	keystroke_r	r	n/a
470.1415	0.075	940283	keystroke_i	i	n/a
470.667	0.0895	941334	keystroke_c	c	n/a
470.772	0.075	941544	keystroke_i	i	n/a
470.862	0.135	941724	keystroke_a	a	n/a
471.012	0.1195	942024	keystroke_Key.enter	Key.enter	n/a
471.1375	9.9405	942275	prompt	n/a	geographical modular implications timber\n
471.8815	0.0755	943763	keystroke_g	g	n/a
472.061	0.1205	944122	keystroke_e	e	n/a
472.3315	0.1055	944663	keystroke_o	o	n/a
472.587	0.075	945174	keystroke_g	g	n/a
472.767	0.09	945534	keystroke_r	r	n/a
472.917	0.135	945834	keystroke_a	a	n/a
473.022	0.12	946044	keystroke_p	p	n/a
473.352	0.1045	946704	keystroke_h	h	n/a
473.5765	0.09	947153	keystroke_i	i	n/a
473.936	0.091	947872	keystroke_c	c	n/a
474.072	0.09	948144	keystroke_a	a	n/a
474.192	0.09	948384	keystroke_l	l	n/a
474.357	0.12	948714	keystroke_Key.space	Key.space	n/a
474.5975	0.119	949195	keystroke_m	m	n/a
474.7315	0.03	949463	keystroke_m	m	n/a
474.7475	0.089	949495	keystroke_o	o	n/a
475.736	0.0455	951472	keystroke_Key.backspace	Key.backspace	n/a
475.8265	0.0755	951653	keystroke_Key.backspace	Key.backspace	n/a
476.0065	0.06	952013	keystroke_o	o	n/a
476.0965	0.135	952193	keystroke_d	d	n/a
476.1865	0.075	952373	keystroke_u	u	n/a
476.3515	0.105	952703	keystroke_l	l	n/a
476.5015	0.165	953003	keystroke_a	a	n/a
476.6815	0.12	953363	keystroke_r	r	n/a
476.9215	0.12	953843	keystroke_Key.space	Key.space	n/a
477.0715	0.09	954143	keystroke_i	i	n/a
477.2515	0.121	954503	keystroke_m	m	n/a
478.0765	0.09	956153	keystroke_p	p	n/a
478.2865	0.0905	956573	keystroke_l	l	n/a
478.4815	0.09	956963	keystroke_i	i	n/a
478.587	0.09	957174	keystroke_c	c	n/a
478.692	0.15	957384	keystroke_a	a	n/a
478.827	0.135	957654	keystroke_t	t	n/a
478.872	0.075	957744	keystroke_i	i	n/a
479.037	0.135	958074	keystroke_o	o	n/a
479.127	0.165	958254	keystroke_n	n	n/a
479.277	0.1195	958554	keystroke_s	s	n/a
479.366	0.135	958732	keystroke_Key.space	Key.space	n/a
479.6665	0.1205	959333	keystroke_t	t	n/a
479.7715	0.075	959543	keystroke_i	i	n/a
479.877	0.1205	959754	keystroke_m	m	n/a
480.5365	0.09	961073	keystroke_b	b	n/a
480.6415	0.06	961283	keystroke_e	e	n/a
480.776	0.1355	961552	keystroke_r	r	n/a
480.912	0.164	961824	keystroke_Key.enter	Key.enter	n/a
481.082	5.832	962164	prompt	n/a	tested police framing they\n
481.902	0.09	963804	keystroke_t	t	n/a
482.1565	0.1355	964313	keystroke_e	e	n/a
482.307	0.135	964614	keystroke_s	s	n/a
482.397	0.09	964794	keystroke_t	t	n/a
482.5775	0.0585	965155	keystroke_e	e	n/a
482.742	0.105	965484	keystroke_d	d	n/a
482.801	0.105	965602	keystroke_Key.space	Key.space	n/a
483.072	0.15	966144	keystroke_p	p	n/a
483.191	0.1065	966382	keystroke_o	o	n/a
483.372	0.15	966744	keystroke_l	l	n/a
483.447	0.1345	966894	keystroke_i	i	n/a
483.552	0.089	967104	keystroke_c	c	n/a
483.7475	0.1195	967495	keystroke_e	e	n/a
483.851	0.15	967702	keystroke_Key.space	Key.space	n/a
484.2125	0.0745	968425	keystroke_f	f	n/a
484.587	0.119	969174	keystroke_r	r	n/a
484.707	0.1495	969414	keystroke_a	a	n/a
484.7815	0.15	969563	keystroke_m	m	n/a
484.977	0.135	969954	keystroke_i	i	n/a
485.067	0.135	970134	keystroke_n	n	n/a
485.217	0.089	970434	keystroke_g	g	n/a
485.322	0.12	970644	keystroke_Key.space	Key.space	n/a
486.087	0.075	972174	keystroke_t	t	n/a
486.177	0.12	972354	keystroke_h	h	n/a
486.267	0.105	972534	keystroke_e	e	n/a
486.5065	0.105	973013	keystroke_y	y	n/a
486.7465	0.1655	973493	keystroke_Key.enter	Key.enter	n/a
486.9185	13.315	973837	prompt	n/a	palestinian switches mapping studies\n
487.917	0.074	975834	keystroke_p	p	n/a
488.3665	0.135	976733	keystroke_a	a	n/a
488.5465	0.15	977093	keystroke_l	l	n/a
488.6675	0.1345	977335	keystroke_e	e	n/a
488.982	0.105	977964	keystroke_s	s	n/a
489.162	0.105	978324	keystroke_t	t	n/a
489.657	0.15	979314	keystroke_i	i	n/a
489.987	0.1045	979974	keystroke_n	n	n/a
490.0615	0.1505	980123	keystroke_i	i	n/a
490.1965	0.1355	980393	keystroke_a	a	n/a
490.302	0.1495	980604	keystroke_n	n	n/a
490.4665	0.1055	980933	keystroke_Key.space	Key.space	n/a
494.669	0.001	989338	keystroke_s	s	n/a
495.162	0.075	990324	keystroke_w	w	n/a
495.372	0.135	990744	keystroke_i	i	n/a
495.492	0.105	990984	keystroke_t	t	n/a
495.612	0.105	991224	keystroke_h	h	n/a
496.2715	0.105	992543	keystroke_Key.backspace	Key.backspace	n/a
496.527	0.075	993054	keystroke_h	h	n/a
496.812	0.09	993624	keystroke_Key.backspace	Key.backspace	n/a
496.857	0.1805	993714	keystroke_c	c	n/a
497.052	0.0895	994104	keystroke_h	h	n/a
497.2015	0.121	994403	keystroke_e	e	n/a
497.352	0.164	994704	keystroke_s	s	n/a
497.457	0.149	994914	keystroke_Key.space	Key.space	n/a
497.862	0.1195	995724	keystroke_m	m	n/a
497.952	0.15	995904	keystroke_a	a	n/a
498.057	0.06	996114	keystroke_p	p	n/a
498.192	0.119	996384	keystroke_p	p	n/a
498.387	0.119	996774	keystroke_i	i	n/a
498.4625	0.1495	996925	keystroke_n	n	n/a
498.5965	0.135	997193	keystroke_g	g	n/a
498.7015	0.12	997403	keystroke_Key.space	Key.space	n/a
498.8665	0.195	997733	keystroke_s	s	n/a
498.9725	0.104	997945	keystroke_t	t	n/a
499.1065	0.075	998213	keystroke_u	u	n/a
499.302	0.1045	998604	keystroke_d	d	n/a
499.4075	0.119	998815	keystroke_i	i	n/a
499.512	0.1195	999024	keystroke_e	e	n/a
499.6615	0.165	999323	keystroke_s	s	n/a
499.8415	0.18	999683	keystroke_Key.space	Key.space	n/a
500.0665	0.1655	1000133	keystroke_Key.enter	Key.enter	n/a
500.238	6.19	1000476	prompt	n/a	sandwich trust fragrance doing\n
500.787	0.15	1001574	keystroke_s	s	n/a
500.906	0.106	1001812	keystroke_n	n	n/a
501.3265	0.0755	1002653	keystroke_Key.backspace	Key.backspace	n/a
501.4165	0.1195	1002833	keystroke_a	a	n/a
501.5515	0.105	1003103	keystroke_n	n	n/a
501.6715	0.075	1003343	keystroke_d	d	n/a
501.852	0.075	1003704	keystroke_w	w	n/a
501.9415	0.12	1003883	keystroke_i	i	n/a
502.091	0.1505	1004182	keystroke_c	c	n/a
502.1815	0.1205	1004363	keystroke_h	h	n/a
502.3465	0.12	1004693	keystroke_Key.space	Key.space	n/a
502.482	0.0905	1004964	keystroke_t	t	n/a
502.662	0.135	1005324	keystroke_r	r	n/a
502.737	0.135	1005474	keystroke_u	u	n/a
502.827	0.15	1005654	keystroke_s	s	n/a
502.932	0.1495	1005864	keystroke_t	t	n/a
503.052	0.1495	1006104	keystroke_Key.space	Key.space	n/a
503.5465	0.0905	1007093	keystroke_f	f	n/a
503.7265	0.12	1007453	keystroke_r	r	n/a
503.8615	0.18	1007723	keystroke_a	a	n/a
503.9965	0.1055	1007993	keystroke_n	n	n/a
504.627	0.09	1009254	keystroke_Key.backspace	Key.backspace	n/a
504.702	0.0895	1009404	keystroke_g	g	n/a
504.8965	0.1055	1009793	keystroke_r	r	n/a
505.047	0.1195	1010094	keystroke_a	a	n/a
505.152	0.1355	1010304	keystroke_n	n	n/a
505.272	0.0745	1010544	keystroke_c	c	n/a
505.4515	0.121	1010903	keystroke_e	e	n/a
505.5415	0.12	1011083	keystroke_Key.space	Key.space	n/a
505.677	0.1205	1011354	keystroke_d	d	n/a
505.7665	0.075	1011533	keystroke_o	o	n/a
505.9165	0.1355	1011833	keystroke_i	i	n/a
505.9915	0.151	1011983	keystroke_n	n	n/a
506.0815	0.105	1012163	keystroke_g	g	n/a
506.2915	0.135	1012583	keystroke_Key.enter	Key.enter	n/a
506.4325	9.627	1012865	prompt	n/a	investing compatible currency carefully\n
507.0865	0.15	1014173	keystroke_i	i	n/a
507.2065	0.1355	1014413	keystroke_n	n	n/a
507.327	0.09	1014654	keystroke_v	v	n/a
507.5365	0.105	1015073	keystroke_e	e	n/a
507.656	0.151	1015312	keystroke_s	s	n/a
507.762	0.135	1015524	keystroke_t	t	n/a
507.867	0.12	1015734	keystroke_i	i	n/a
507.942	0.135	1015884	keystroke_n	n	n/a
508.047	0.105	1016094	keystroke_g	g	n/a
508.137	0.135	1016274	keystroke_Key.space	Key.space	n/a
508.3765	0.1205	1016753	keystroke_c	c	n/a
508.467	0.12	1016934	keystroke_o	o	n/a
509.052	0.12	1018104	keystroke_m	m	n/a
509.247	0.12	1018494	keystroke_p	p	n/a
509.472	0.1505	1018944	keystroke_a	a	n/a
509.772	0.119	1019544	keystroke_t	t	n/a
509.952	0.104	1019904	keystroke_i	i	n/a
510.177	0.075	1020354	keystroke_b	b	n/a
510.3115	0.1355	1020623	keystroke_l	l	n/a
510.506	0.136	1021012	keystroke_e	e	n/a
510.7615	0.105	1021523	keystroke_Key.space	Key.space	n/a
510.852	0.1045	1021704	keystroke_c	c	n/a
511.4215	0.045	1022843	keystroke_u	u	n/a
511.497	0.09	1022994	keystroke_r	r	n/a
511.707	0.075	1023414	keystroke_r	r	n/a
511.887	0.045	1023774	keystroke_e	e	n/a
512.067	0.105	1024134	keystroke_c	c	n/a
512.187	0.105	1024374	keystroke_n	n	n/a
513.102	0.06	1026204	keystroke_Key.backspace	Key.backspace	n/a
513.566	0.09	1027132	keystroke_Key.backspace	Key.backspace	n/a
513.926	0.106	1027852	keystroke_n	n	n/a
514.092	0.104	1028184	keystroke_c	c	n/a
514.331	0.0755	1028662	keystroke_y	y	n/a
514.5565	0.1205	1029113	keystroke_Key.space	Key.space	n/a
514.796	0.1055	1029592	keystroke_c	c	n/a
514.9615	0.15	1029923	keystroke_a	a	n/a
515.052	0.0445	1030104	keystroke_r	r	n/a
515.1865	0.1055	1030373	keystroke_e	e	n/a
515.382	0.09	1030764	keystroke_f	f	n/a
515.457	0.075	1030914	keystroke_u	u	n/a
515.6215	0.0605	1031243	keystroke_l	l	n/a
515.727	0.09	1031454	keystroke_l	l	n/a
515.8015	0.09	1031603	keystroke_y	y	n/a
515.9065	0.15	1031813	keystroke_Key.enter	Key.enter	n/a
516.073	8.5655	1032146	prompt	n/a	greatly fruit storm websites\n
516.6715	0.09	1033343	keystroke_g	g	n/a
516.852	0.0745	1033704	keystroke_r	r	n/a
517.0315	0.12	1034063	keystroke_e	e	n/a
517.0915	0.165	1034183	keystroke_a	a	n/a
517.2715	0.0595	1034543	keystroke_t	t	n/a
517.4065	0.12	1034813	keystroke_f	f	n/a
517.5415	0.105	1035083	keystroke_l	l	n/a
517.9915	0.045	1035983	keystroke_Key.backspace	Key.backspace	n/a
518.0965	0.075	1036193	keystroke_Key.backspace	Key.backspace	n/a
518.1865	0.135	1036373	keystroke_t	t	n/a
518.3665	0.06	1036733	keystroke_l	l	n/a
518.4865	0.0605	1036973	keystroke_y	y	n/a
518.7565	0.03	1037513	keystroke_Key.backspace	Key.backspace	n/a
518.847	0.0745	1037694	keystroke_Key.backspace	Key.backspace	n/a
519.4615	0.0295	1038923	keystroke_Key.backspace	Key.backspace	n/a
519.612	0.119	1039224	keystroke_l	l	n/a
519.732	0.12	1039464	keystroke_y	y	n/a
519.837	0.135	1039674	keystroke_Key.space	Key.space	n/a
520.377	0.09	1040754	keystroke_f	f	n/a
520.587	0.1495	1041174	keystroke_r	r	n/a
520.677	0.075	1041354	keystroke_u	u	n/a
520.8265	0.1355	1041653	keystroke_i	i	n/a
520.947	0.1345	1041894	keystroke_t	t	n/a
521.0965	0.1055	1042193	keystroke_Key.space	Key.space	n/a
521.502	0.179	1043004	keystroke_s	s	n/a
521.667	0.09	1043334	keystroke_t	t	n/a
521.772	0.1045	1043544	keystroke_o	o	n/a
522.297	0.105	1044594	keystroke_r	r	n/a
522.447	0.135	1044894	keystroke_m	m	n/a
522.6265	0.0895	1045253	keystroke_Key.space	Key.space	n/a
522.807	0.105	1045614	keystroke_w	w	n/a
522.882	0.045	1045764	keystroke_e	e	n/a
522.987	0.105	1045974	keystroke_b	b	n/a
523.497	0.1345	1046994	keystroke_s	s	n/a
523.6765	0.105	1047353	keystroke_i	i	n/a
523.8715	0.135	1047743	keystroke_t	t	n/a
524.1115	0.1355	1048223	keystroke_e	e	n/a
524.2615	0.12	1048523	keystroke_s	s	n/a
524.4865	0.15	1048973	keystroke_Key.enter	Key.enter	n/a
524.643	4.721	1049286	prompt	n/a	choir magical proved column\n
525.3415	0.1205	1050683	keystroke_c	c	n/a
525.4765	0.105	1050953	keystroke_h	h	n/a
525.5365	0.12	1051073	keystroke_o	o	n/a
525.7165	0.1355	1051433	keystroke_i	i	n/a
525.8365	0.1355	1051673	keystroke_r	r	n/a
525.942	0.134	1051884	keystroke_Key.space	Key.space	n/a
526.122	0.15	1052244	keystroke_m	m	n/a
526.2265	0.0755	1052453	keystroke_a	a	n/a
526.392	0.105	1052784	keystroke_g	g	n/a
526.481	0.1205	1052962	keystroke_i	i	n/a
526.617	0.089	1053234	keystroke_c	c	n/a
526.751	0.106	1053502	keystroke_a	a	n/a
526.842	0.12	1053684	keystroke_l	l	n/a
527.066	0.1055	1054132	keystroke_Key.space	Key.space	n/a
527.247	0.1195	1054494	keystroke_p	p	n/a
527.322	0.0895	1054644	keystroke_r	r	n/a
527.4415	0.135	1054883	keystroke_o	o	n/a
527.5615	0.0605	1055123	keystroke_v	v	n/a
527.7115	0.075	1055423	keystroke_e	e	n/a
527.892	0.09	1055784	keystroke_d	d	n/a
527.9365	0.1205	1055873	keystroke_Key.space	Key.space	n/a
528.147	0.105	1056294	keystroke_c	c	n/a
528.282	0.104	1056564	keystroke_o	o	n/a
528.521	0.0905	1057042	keystroke_l	l	n/a
528.7165	0.105	1057433	keystroke_u	u	n/a
528.9265	0.06	1057853	keystroke_m	m	n/a
529.0765	0.075	1058153	keystroke_n	n	n/a
529.2415	0.12	1058483	keystroke_Key.enter	Key.enter	n/a
529.369	8.095	1058738	prompt	n/a	anyone association locking belkin\n
530.007	0.104	1060014	keystroke_a	a	n/a
530.081	0.136	1060162	keystroke_n	n	n/a
530.202	0.074	1060404	keystroke_y	y	n/a
530.337	0.149	1060674	keystroke_o	o	n/a
530.441	0.12	1060882	keystroke_n	n	n/a
530.546	0.1205	1061092	keystroke_e	e	n/a
530.621	0.1355	1061242	keystroke_Key.space	Key.space	n/a
531.1765	0.12	1062353	keystroke_a	a	n/a
531.522	0.1045	1063044	keystroke_s	s	n/a
531.7165	0.1055	1063433	keystroke_s	s	n/a
531.807	0.1195	1063614	keystroke_o	o	n/a
531.957	0.1045	1063914	keystroke_c	c	n/a
532.0475	0.1195	1064095	keystroke_i	i	n/a
532.152	0.135	1064304	keystroke_a	a	n/a
532.256	0.166	1064512	keystroke_t	t	n/a
532.346	0.0605	1064692	keystroke_i	i	n/a
532.497	0.1205	1064994	keystroke_o	o	n/a
532.557	0.1345	1065114	keystroke_n	n	n/a
532.6765	0.105	1065353	keystroke_Key.space	Key.space	n/a
532.8115	0.075	1065623	keystroke_l	l	n/a
532.9615	0.09	1065923	keystroke_o	o	n/a
533.097	0.1195	1066194	keystroke_c	c	n/a
533.2015	0.1055	1066403	keystroke_k	k	n/a
533.3815	0.105	1066763	keystroke_i	i	n/a
533.4415	0.12	1066883	keystroke_n	n	n/a
533.5765	0.075	1067153	keystroke_g	g	n/a
534.1765	0.1205	1068353	keystroke_Key.space	Key.space	n/a
534.6265	0.091	1069253	keystroke_b	b	n/a
534.896	0.15	1069792	keystroke_l	l	n/a
535.167	0.1345	1070334	keystroke_k	k	n/a
535.8565	0.1045	1071713	keystroke_Key.backspace	Key.backspace	n/a
536.0365	0.06	1072073	keystroke_Key.backspace	Key.backspace	n/a
536.1265	0.15	1072253	keystroke_e	e	n/a
536.2615	0.12	1072523	keystroke_l	l	n/a
536.772	0.075	1073544	keystroke_k	k	n/a
536.9365	0.1355	1073873	keystroke_i	i	n/a
537.057	0.1045	1074114	keystroke_n	n	n/a
537.311	0.1505	1074622	keystroke_Key.enter	Key.enter	n/a
537.4685	7.195	1074937	prompt	n/a	scenario wish including operate\n
538.2865	0.075	1076573	keystroke_s	s	n/a
538.4365	0.1205	1076873	keystroke_c	c	n/a
538.6765	0.075	1077353	keystroke_e	e	n/a
538.7665	0.1055	1077533	keystroke_n	n	n/a
539.517	0.105	1079034	keystroke_a	a	n/a
539.592	0.15	1079184	keystroke_r	r	n/a
539.727	0.105	1079454	keystroke_i	i	n/a
540.0115	0.0905	1080023	keystroke_o	o	n/a
540.2815	0.09	1080563	keystroke_Key.space	Key.space	n/a
540.3865	0.1355	1080773	keystroke_w	w	n/a
540.507	0.1045	1081014	keystroke_i	i	n/a
540.6265	0.105	1081253	keystroke_s	s	n/a
540.7015	0.105	1081403	keystroke_h	h	n/a
540.836	0.076	1081672	keystroke_Key.space	Key.space	n/a
541.002	0.12	1082004	keystroke_c	c	n/a
541.451	0.06	1082902	keystroke_Key.backspace	Key.backspace	n/a
541.632	0.06	1083264	keystroke_i	i	n/a
541.767	0.15	1083534	keystroke_n	n	n/a
541.872	0.1205	1083744	keystroke_c	c	n/a
542.007	0.105	1084014	keystroke_l	l	n/a
542.217	0.104	1084434	keystroke_u	u	n/a
542.381	0.121	1084762	keystroke_d	d	n/a
542.981	0.0755	1085962	keystroke_i	i	n/a
543.131	0.136	1086262	keystroke_n	n	n/a
543.282	0.119	1086564	keystroke_g	g	n/a
543.386	0.12	1086772	keystroke_Key.space	Key.space	n/a
543.537	0.12	1087074	keystroke_o	o	n/a
543.642	0.134	1087284	keystroke_p	p	n/a
543.762	0.075	1087524	keystroke_e	e	n/a
543.926	0.091	1087852	keystroke_r	r	n/a
544.0015	0.1345	1088003	keystroke_a	a	n/a
544.107	0.089	1088214	keystroke_t	t	n/a
544.316	0.106	1088632	keystroke_e	e	n/a
544.496	0.1655	1088992	keystroke_Key.enter	Key.enter	n/a
544.668	6.325	1089336	prompt	n/a	pike entitled especially ever\n
545.2915	0.075	1090583	keystroke_p	p	n/a
545.4415	0.06	1090883	keystroke_i	i	n/a
545.5915	0.135	1091183	keystroke_k	k	n/a
545.7415	0.0905	1091483	keystroke_e	e	n/a
545.967	0.1345	1091934	keystroke_Key.space	Key.space	n/a
546.3565	0.105	1092713	keystroke_e	e	n/a
546.4465	0.135	1092893	keystroke_n	n	n/a
546.5965	0.1205	1093193	keystroke_t	t	n/a
546.7465	0.135	1093493	keystroke_i	i	n/a
547.1515	0.12	1094303	keystroke_t	t	n/a
547.257	0.0895	1094514	keystroke_l	l	n/a
547.392	0.105	1094784	keystroke_e	e	n/a
547.6165	0.075	1095233	keystroke_d	d	n/a
547.8565	0.105	1095713	keystroke_Key.space	Key.space	n/a
548.1865	0.135	1096373	keystroke_e	e	n/a
548.4865	0.12	1096973	keystroke_s	s	n/a
548.6515	0.135	1097303	keystroke_p	p	n/a
548.8015	0.1055	1097603	keystroke_e	e	n/a
549.057	0.1345	1098114	keystroke_c	c	n/a
549.1615	0.075	1098323	keystroke_i	i	n/a
549.3415	0.105	1098683	keystroke_a	a	n/a
549.4615	0.075	1098923	keystroke_l	l	n/a
549.6115	0.09	1099223	keystroke_l	l	n/a
549.7165	0.075	1099433	keystroke_y	y	n/a
549.9715	0.135	1099943	keystroke_Key.space	Key.space	n/a
550.167	0.0745	1100334	keystroke_e	e	n/a
550.376	0.076	1100752	keystroke_v	v	n/a
550.572	0.045	1101144	keystroke_e	e	n/a
550.707	0.165	1101414	keystroke_r	r	n/a
550.857	0.135	1101714	keystroke_Key.enter	Key.enter	n/a
550.997	8.9075	1101994	prompt	n/a	stem listprice found threatened\n
551.547	0.104	1103094	keystroke_s	s	n/a
551.697	0.09	1103394	keystroke_t	t	n/a
551.907	0.09	1103814	keystroke_e	e	n/a
551.982	0.15	1103964	keystroke_m	m	n/a
552.117	0.104	1104234	keystroke_Key.space	Key.space	n/a
552.282	0.135	1104564	keystroke_l	l	n/a
552.462	0.18	1104924	keystroke_i	i	n/a
552.552	0.12	1105104	keystroke_s	s	n/a
552.807	0.09	1105614	keystroke_t	t	n/a
553.932	0.104	1107864	keystroke_p	p	n/a
554.081	0.136	1108162	keystroke_r	r	n/a
