onset	duration	sample	value	key	prompt_text
9.7665	18.9675	19533	prompt	n/a	the quick brown fox jumps over a lazy dog\n
13.02	0.045	26040	keystroke	q	n/a
13.109	0.061	26218	keystroke	u	n/a
13.29	0.075	26580	keystroke	i	n/a
13.515	0.0155	27030	keystroke	c	n/a
13.6055	0.1045	27211	keystroke	k	n/a
13.92	0.06	27840	keystroke	Key.space	n/a
14.2805	0.06	28561	keystroke	Key.backspace	n/a
14.4305	0.06	28861	keystroke	Key.backspace	n/a
14.5805	0.06	29161	keystroke	Key.backspace	n/a
14.7605	0.0445	29521	keystroke	Key.backspace	n/a
14.9405	0.0455	29881	keystroke	Key.backspace	n/a
15.106	0.0595	30212	keystroke	Key.backspace	n/a
15.2705	0.06	30541	keystroke	Key.backspace	n/a
15.4355	0.075	30871	keystroke	Key.backspace	n/a
15.9005	0.106	31801	keystroke	t	n/a
16.0215	0.075	32043	keystroke	h	n/a
16.1115	0.075	32223	keystroke	e	n/a
16.3365	0.075	32673	keystroke	Key.space	n/a
17.116	0.106	34232	keystroke	q	n/a
17.297	0.09	34594	keystroke	u	n/a
17.477	0.09	34954	keystroke	c	n/a
17.612	0.09	35224	keystroke	i	n/a
18.707	0.045	37414	keystroke	Key.backspace	n/a
18.872	0.06	37744	keystroke	Key.backspace	n/a
19.5175	0.075	39035	keystroke	i	n/a
19.6525	0.075	39305	keystroke	c	n/a
19.7875	0.075	39575	keystroke	k	n/a
19.9825	0.09	39965	keystroke	Key.space	n/a
20.178	0.0745	40356	keystroke	b	n/a
20.3275	0.09	40655	keystroke	r	n/a
20.598	0.015	41196	keystroke	o	n/a
20.643	0.09	41286	keystroke	w	n/a
20.763	0.075	41526	keystroke	n	n/a
20.958	0.1045	41916	keystroke	Key.space	n/a
21.123	0.045	42246	keystroke	f	n/a
21.258	0.06	42516	keystroke	o	n/a
21.588	0.075	43176	keystroke	x	n/a
21.723	0.09	43446	keystroke	Key.space	n/a
21.9635	0.06	43927	keystroke	j	n/a
22.8345	0.06	45669	keystroke	u	n/a
23.044	0.075	46088	keystroke	m	n/a
23.239	0.075	46478	keystroke	p	n/a
23.4345	0.105	46869	keystroke	s	n/a
23.5545	0.12	47109	keystroke	Key.space	n/a
23.6595	0.105	47319	keystroke	o	n/a
23.8395	0.075	47679	keystroke	v	n/a
24.0795	0.075	48159	keystroke	e	n/a
24.1095	0.12	48219	keystroke	r	n/a
24.2595	0.09	48519	keystroke	Key.space	n/a
24.3645	0.0895	48729	keystroke	a	n/a
24.4695	0.09	48939	keystroke	Key.space	n/a
24.62	0.105	49240	keystroke	l	n/a
24.74	0.09	49480	keystroke	a	n/a
25.0845	0.06	50169	keystroke	y	n/a
25.76	0.06	51520	keystroke	Key.backspace	n/a
25.9095	0.136	51819	keystroke	z	n/a
26.5705	0.09	53141	keystroke	y	n/a
26.766	0.074	53532	keystroke	Key.space	n/a
26.9	0.136	53800	keystroke	d	n/a
27.051	0.0895	54102	keystroke	o	n/a
27.2015	0.09	54403	keystroke	g	n/a
27.5765	0.06	55153	keystroke	'	n/a
28.2665	0.0905	56533	keystroke	Key.backspace	n/a
28.627	0.105	57254	keystroke	Key.enter	n/a
28.7385	11.3845	57477	prompt	n/a	toyota stake band extensions\n
29.5565	0.075	59113	keystroke	t	n/a
29.6765	0.06	59353	keystroke	o	n/a
29.902	0.0905	59804	keystroke	y	n/a
30.0375	0.1045	60075	keystroke	a	n/a
30.592	0.045	61184	keystroke	Key.backspace	n/a
30.803	0.06	61606	keystroke	i	n/a
30.938	0.0895	61876	keystroke	t	n/a
31.328	0.045	62656	keystroke	Key.backspace	n/a
31.4625	0.075	62925	keystroke	Key.backspace	n/a
31.943	0.06	63886	keystroke	o	n/a
32.3335	0.0745	64667	keystroke	t	n/a
32.588	0.09	65176	keystroke	a	n/a
32.979	0.09	65958	keystroke	Key.space	n/a
33.5185	0.075	67037	keystroke	s	n/a
33.7135	0.076	67427	keystroke	t	n/a
33.8785	0.105	67757	keystroke	a	n/a
34.8395	0.0595	69679	keystroke	k	n/a
34.989	0.09	69978	keystroke	e	n/a
35.094	0.06	70188	keystroke	Key.space	n/a
35.274	0.06	70548	keystroke	b	n/a
35.379	0.091	70758	keystroke	a	n/a
35.499	0.075	70998	keystroke	n	n/a
35.6645	0.09	71329	keystroke	d	n/a
35.8145	0.06	71629	keystroke	Key.space	n/a
36.0545	0.105	72109	keystroke	e	n/a
36.925	0.105	73850	keystroke	x	n/a
37.21	0.045	74420	keystroke	t	n/a
37.33	0.09	74660	keystroke	e	n/a
37.45	0.075	74900	keystroke	n	n/a
37.66	0.106	75320	keystroke	s	n/a
38.1405	0.045	76281	keystroke	i	n/a
38.545	0.136	77090	keystroke	o	n/a
38.666	0.105	77332	keystroke	n	n/a
38.831	0.105	77662	keystroke	s	n/a
39.056	0.09	78112	keystroke	'	n/a
39.716	0.06	79432	keystroke	Key.backspace	n/a
40.091	0.03	80182	keystroke	Key.enter	n/a
40.126	8.446	80252	prompt	n/a	parental shades saying blogs\n
41.3365	0.0755	82673	keystroke	p	n/a
41.472	0.075	82944	keystroke	a	n/a
41.667	0.105	83334	keystroke	r	n/a
41.773	0.089	83546	keystroke	e	n/a
42.4325	0.0745	84865	keystroke	n	n/a
42.6275	0.09	85255	keystroke	t	n/a
42.8075	0.1195	85615	keystroke	a	n/a
42.972	0.1055	85944	keystroke	l	n/a
43.2125	0.0745	86425	keystroke	Key.space	n/a
43.5275	0.09	87055	keystroke	s	n/a
43.753	0.09	87506	keystroke	a	n/a
44.173	0.075	88346	keystroke	Key.backspace	n/a
44.518	0.06	89036	keystroke	h	n/a
44.593	0.1345	89186	keystroke	a	n/a
44.7575	0.045	89515	keystroke	r	n/a
45.0735	0.075	90147	keystroke	Key.backspace	n/a
45.2535	0.06	90507	keystroke	d	n/a
45.2985	0.105	90597	keystroke	e	n/a
45.5835	0.105	91167	keystroke	s	n/a
45.7485	0.075	91497	keystroke	Key.space	n/a
45.9585	0.1655	91917	keystroke	s	n/a
46.064	0.12	92128	keystroke	a	n/a
46.5585	0.06	93117	keystroke	y	n/a
46.7995	0.12	93599	keystroke	i	n/a
46.8895	0.105	93779	keystroke	n	n/a
47.0245	0.075	94049	keystroke	g	n/a
47.1445	0.075	94289	keystroke	Key.space	n/a
47.3245	0.06	94649	keystroke	b	n/a
47.5645	0.03	95129	keystroke	l	n/a
47.7145	0.09	95429	keystroke	o	n/a
47.939	0.045	95878	keystroke	g	n/a
48.15	0.1195	96300	keystroke	s	n/a
48.4345	0.135	96869	keystroke	Key.enter	n/a
48.575	8.3985	97150	prompt	n/a	david issues headphones rent\n
49.5905	0.15	99181	keystroke	d	n/a
49.7105	0.09	99421	keystroke	a	n/a
49.9205	0.09	99841	keystroke	v	n/a
50.0555	0.075	100111	keystroke	i	n/a
50.1905	0.105	100381	keystroke	d	n/a
50.3105	0.09	100621	keystroke	Key.space	n/a
50.4605	0.09	100921	keystroke	i	n/a
50.6405	0.06	101281	keystroke	s	n/a
50.8055	0.0895	101611	keystroke	s	n/a
50.9105	0.09	101821	keystroke	u	n/a
51.0315	0.1195	102063	keystroke	e	n/a
51.136	0.105	102272	keystroke	s	n/a
51.331	0.09	102662	keystroke	Key.space	n/a
52.0365	0.075	104073	keystroke	h	n/a
52.1865	0.09	104373	keystroke	e	n/a
52.3665	0.09	104733	keystroke	a	n/a
52.4865	0.1345	104973	keystroke	d	n/a
53.3115	0.12	106623	keystroke	o	n/a
53.5215	0.075	107043	keystroke	h	n/a
54.0315	0.091	108063	keystroke	Key.backspace	n/a
54.1975	0.09	108395	keystroke	Key.backspace	n/a
54.962	0.045	109924	keystroke	p	n/a
55.0815	0.06	110163	keystroke	h	n/a
55.2475	0.09	110495	keystroke	o	n/a
55.2925	0.12	110585	keystroke	n	n/a
55.5175	0.1345	111035	keystroke	e	n/a
55.637	0.105	111274	keystroke	s	n/a
55.832	0.09	111664	keystroke	Key.space	n/a
56.1165	0.121	112233	keystroke	r	n/a
56.2525	0.09	112505	keystroke	e	n/a
56.4175	0.105	112835	keystroke	n	n/a
56.567	0.105	113134	keystroke	t	n/a
56.852	0.12	113704	keystroke	Key.enter	n/a
56.977	6.4765	113954	prompt	n/a	upon aware fellow twiki\n
58.0975	0.09	116195	keystroke	u	n/a
58.3525	0.075	116705	keystroke	p	n/a
58.607	0.06	117214	keystroke	o	n/a
58.787	0.09	117574	keystroke	n	n/a
58.967	0.09	117934	keystroke	Key.space	n/a
59.1315	0.151	118263	keystroke	a	n/a
59.2675	0.1795	118535	keystroke	w	n/a
59.432	0.12	118864	keystroke	a	n/a
59.642	0.135	119284	keystroke	r	n/a
60.1675	0.0745	120335	keystroke	e	n/a
60.302	0.09	120604	keystroke	Key.space	n/a
60.6615	0.075	121323	keystroke	f	n/a
60.7515	0.075	121503	keystroke	e	n/a
60.9015	0.06	121803	keystroke	l	n/a
61.0525	0.0745	122105	keystroke	l	n/a
61.247	0.0595	122494	keystroke	o	n/a
61.397	0.105	122794	keystroke	w	n/a
61.487	0.1195	122974	keystroke	Key.space	n/a
61.742	0.09	123484	keystroke	t	n/a
62.4465	0.105	124893	keystroke	w	n/a
62.6415	0.075	125283	keystroke	i	n/a
62.8215	0.06	125643	keystroke	k	n/a
62.9865	0.06	125973	keystroke	i	n/a
63.331	0.12	126662	keystroke	Key.enter	n/a
63.46	15.4565	126920	prompt	n/a	produced studies jackie integrating\n
64.261	0.09	128522	keystroke	o	n/a
65.116	0.015	130232	keystroke	Key.backspace	n/a
65.176	0.075	130352	keystroke	p	n/a
65.4755	0.076	130951	keystroke	r	n/a
66.2855	0.045	132571	keystroke	o	n/a
66.541	0.09	133082	keystroke	d	n/a
66.751	0.03	133502	keystroke	u	n/a
67.5015	0.089	135003	keystroke	c	n/a
67.936	0.075	135872	keystroke	e	n/a
68.131	0.09	136262	keystroke	d	n/a
68.325	0.075	136650	keystroke	Key.space	n/a
68.46	0.091	136920	keystroke	s	n/a
68.941	0.0595	137882	keystroke	t	n/a
69.63	0.076	139260	keystroke	u	n/a
69.7955	0.105	139591	keystroke	d	n/a
69.9455	0.075	139891	keystroke	i	n/a
70.1555	0.135	140311	keystroke	e	n/a
70.2755	0.105	140551	keystroke	s	n/a
70.4855	0.0895	140971	keystroke	Key.space	n/a
71.025	0.0755	142050	keystroke	j	n/a
71.1155	0.105	142231	keystroke	a	n/a
71.3255	0.075	142651	keystroke	c	n/a
71.4605	0.06	142921	keystroke	k	n/a
71.655	0.06	143310	keystroke	i	n/a
71.76	0.0745	143520	keystroke	e	n/a
71.9695	0.09	143939	keystroke	s	n/a
72.1345	0.136	144269	keystroke	Key.space	n/a
72.405	0.12	144810	keystroke	i	n/a
72.54	0.1045	145080	keystroke	n	n/a
73.0795	0.075	146159	keystroke	t	n/a
73.485	0.06	146970	keystroke	Key.backspace	n/a
73.65	0.06	147300	keystroke	Key.backspace	n/a
73.8595	0.075	147719	keystroke	Key.backspace	n/a
74.0245	0.06	148049	keystroke	Key.backspace	n/a
74.1895	0.076	148379	keystroke	Key.backspace	n/a
74.46	0.09	148920	keystroke	Key.space	n/a
74.685	0.06	149370	keystroke	i	n/a
75.045	0.06	150090	keystroke	n	n/a
75.255	0.105	150510	keystroke	t	n/a
75.5095	0.1355	151019	keystroke	e	n/a
75.7195	0.045	151439	keystroke	r	n/a
76.1545	0.0755	152309	keystroke	Key.backspace	n/a
76.35	0.135	152700	keystroke	g	n/a
76.5	0.1195	153000	keystroke	r	n/a
76.7395	0.09	153479	keystroke	a	n/a
77.8045	0.1055	155609	keystroke	t	n/a
78.015	0.135	156030	keystroke	i	n/a
78.165	0.1195	156330	keystroke	n	n/a
78.345	0.0745	156690	keystroke	g	n/a
78.7645	0.15	157529	keystroke	Key.enter	n/a
78.92	10.316	157840	prompt	n/a	fifteen seen installation protective\n
80.0245	0.045	160049	keystroke	f	n/a
80.129	0.105	160258	keystroke	i	n/a
80.415	0.105	160830	keystroke	f	n/a
80.655	0.09	161310	keystroke	t	n/a
80.805	0.075	161610	keystroke	e	n/a
81	0.03	162000	keystroke	e	n/a
81.0895	0.105	162179	keystroke	n	n/a
81.2545	0.1645	162509	keystroke	Key.space	n/a
81.404	0.106	162808	keystroke	s	n/a
81.584	0.075	163168	keystroke	e	n/a
81.735	0.09	163470	keystroke	e	n/a
81.8845	0.09	163769	keystroke	n	n/a
82.0345	0.12	164069	keystroke	Key.space	n/a
82.3345	0.09	164669	keystroke	i	n/a
82.8895	0.12	165779	keystroke	n	n/a
83.0995	0.105	166199	keystroke	s	n/a
83.2645	0.1045	166529	keystroke	t	n/a
83.489	0.09	166978	keystroke	a	n/a
83.699	0.045	167398	keystroke	l	n/a
83.789	0.0445	167578	keystroke	l	n/a
83.9235	0.045	167847	keystroke	l	n/a
84.794	0.12	169588	keystroke	Key.backspace	n/a
85.0035	0.09	170007	keystroke	a	n/a
85.1985	0.105	170397	keystroke	t	n/a
85.3635	0.12	170727	keystroke	i	n/a
85.6185	0.1055	171237	keystroke	o	n/a
85.768	0.091	171536	keystroke	n	n/a
86.024	0.135	172048	keystroke	Key.space	n/a
86.9085	0.105	173817	keystroke	p	n/a
87.0735	0.1055	174147	keystroke	r	n/a
87.4785	0.0895	174957	keystroke	o	n/a
87.658	0.121	175316	keystroke	t	n/a
87.794	0.1045	175588	keystroke	e	n/a
88.0335	0.105	176067	keystroke	c	n/a
88.2885	0.1045	176577	keystroke	t	n/a
88.483	0.09	176966	keystroke	i	n/a
88.633	0.091	177266	keystroke	v	n/a
88.753	0.106	177506	keystroke	e	n/a
89.114	0.1195	178228	keystroke	Key.enter	n/a
89.241	7.284	178482	prompt	n/a	table valid markets ministers\n
90.388	0.135	180776	keystroke	t	n/a
90.5385	0.03	181077	keystroke	a	n/a
90.6135	0.075	181227	keystroke	b	n/a
90.838	0.105	181676	keystroke	l	n/a
90.973	0.105	181946	keystroke	e	n/a
91.093	0.135	182186	keystroke	Key.space	n/a
91.453	0.061	182906	keystroke	v	n/a
91.618	0.1205	183236	keystroke	a	n/a
91.7835	0.0745	183567	keystroke	l	n/a
92.008	0.09	184016	keystroke	i	n/a
92.143	0.105	184286	keystroke	d	n/a
92.278	0.135	184556	keystroke	Key.space	n/a
92.7135	0.105	185427	keystroke	m	n/a
92.8485	0.1195	185697	keystroke	a	n/a
93.178	0.105	186356	keystroke	r	n/a
93.328	0.105	186656	keystroke	k	n/a
93.479	0.1345	186958	keystroke	e	n/a
93.7185	0.09	187437	keystroke	t	n/a
93.9585	0.135	187917	keystroke	s	n/a
94.1535	0.1195	188307	keystroke	Key.space	n/a
94.514	0.119	189028	keystroke	m	n/a
94.7675	0.061	189535	keystroke	i	n/a
94.8585	0.135	189717	keystroke	n	n/a
95.0235	0.09	190047	keystroke	i	n/a
95.2935	0.045	190587	keystroke	s	n/a
95.503	0.045	191006	keystroke	t	n/a
95.683	0.09	191366	keystroke	e	n/a
95.758	0.105	191516	keystroke	r	n/a
96.118	0.09	192236	keystroke	s	n/a
96.388	0.1345	192776	keystroke	Key.enter	n/a
96.528	6.9705	193056	prompt	n/a	form chat cartridge value\n
97.3035	0.0895	194607	keystroke	f	n/a
97.438	0.09	194876	keystroke	o	n/a
97.543	0.105	195086	keystroke	r	n/a
97.693	0.1045	195386	keystroke	m	n/a
97.9025	0.121	195805	keystroke	Key.space	n/a
98.0835	0.105	196167	keystroke	c	n/a
98.248	0.0745	196496	keystroke	h	n/a
98.3525	0.105	196705	keystroke	a	n/a
98.5775	0.075	197155	keystroke	r	n/a
99.088	0.075	198176	keystroke	Key.backspace	n/a
99.193	0.09	198386	keystroke	t	n/a
99.3875	0.105	198775	keystroke	Key.space	n/a
99.8525	0.075	199705	keystroke	c	n/a
100.0475	0.105	200095	keystroke	a	n/a
100.287	0.15	200574	keystroke	r	n/a
100.572	0.181	201144	keystroke	t	n/a
100.737	0.1055	201474	keystroke	r	n/a
101.052	0.075	202104	keystroke	i	n/a
101.202	0.105	202404	keystroke	d	n/a
101.4865	0.015	202973	keystroke	g	n/a
101.5615	0.12	203123	keystroke	e	n/a
102.0725	0.105	204145	keystroke	Key.space	n/a
102.4915	0.045	204983	keystroke	v	n/a
102.6265	0.165	205253	keystroke	a	n/a
102.7465	0.12	205493	keystroke	l	n/a
102.9875	0.0745	205975	keystroke	u	n/a
103.1065	0.09	206213	keystroke	e	n/a
103.4065	0.09	206813	keystroke	Key.enter	n/a
103.501	9.086	207002	prompt	n/a	failures presently breast advertise\n
104.4715	0.09	208943	keystroke	f	n/a
104.5465	0.135	209093	keystroke	a	n/a
104.7115	0.09	209423	keystroke	i	n/a
104.9515	0.045	209903	keystroke	l	n/a
105.1165	0.0745	210233	keystroke	u	n/a
105.251	0.135	210502	keystroke	r	n/a
105.341	0.105	210682	keystroke	e	n/a
105.567	0.105	211134	keystroke	s	n/a
105.686	0.121	211372	keystroke	Key.space	n/a
105.9565	0.09	211913	keystroke	p	n/a
106.0615	0.15	212123	keystroke	r	n/a
106.1215	0.135	212243	keystroke	e	n/a
106.3915	0.1645	212783	keystroke	s	n/a
106.541	0.1045	213082	keystroke	e	n/a
106.7205	0.091	213441	keystroke	n	n/a
106.8865	0.12	213773	keystroke	t	n/a
107.096	0.075	214192	keystroke	;	n/a
107.261	0.12	214522	keystroke	y	n/a
107.7115	0.045	215423	keystroke	=	n/a
107.8765	0.09	215753	keystroke	Key.backspace	n/a
108.0415	0.09	216083	keystroke	Key.backspace	n/a
108.461	0.09	216922	keystroke	Key.backspace	n/a
108.671	0.075	217342	keystroke	l	n/a
108.836	0.075	217672	keystroke	y	n/a
109.016	0.12	218032	keystroke	Key.space	n/a
109.3915	0.059	218783	keystroke	b	n/a
109.6905	0.1795	219381	keystroke	r	n/a
109.7955	0.1205	219591	keystroke	e	n/a
110.006	0.1055	220012	keystroke	a	n/a
110.081	0.135	220162	keystroke	s	n/a
110.3505	0.105	220701	keystroke	t	n/a
110.4705	0.1055	220941	keystroke	Key.space	n/a
110.696	0.12	221392	keystroke	a	n/a
111.1155	0.12	222231	keystroke	d	n/a
111.3105	0.045	222621	keystroke	v	n/a
111.4005	0.09	222801	keystroke	e	n/a
111.4755	0.135	222951	keystroke	r	n/a
111.7005	0.09	223401	keystroke	t	n/a
111.8655	0.09	223731	keystroke	i	n/a
112.0005	0.1055	224001	keystroke	s	n/a
112.166	0.12	224332	keystroke	e	n/a
112.451	0.1345	224902	keystroke	Key.enter	n/a
112.5975	8.4945	225195	prompt	n/a	punishment trusted stopped card\n
113.711	0.0595	227422	keystroke	p	n/a
114.2505	0.045	228501	keystroke	u	n/a
114.3855	0.1195	228771	keystroke	n	n/a
115.1205	0.075	230241	keystroke	i	n/a
115.2555	0.12	230511	keystroke	s	n/a
115.3905	0.06	230781	keystroke	h	n/a
115.645	0.105	231290	keystroke	m	n/a
115.81	0.105	231620	keystroke	e	n/a
115.93	0.06	231860	keystroke	n	n/a
116.11	0.12	232220	keystroke	t	n/a
116.245	0.1055	232490	keystroke	Key.space	n/a
116.7855	0.105	233571	keystroke	t	n/a
116.8455	0.105	233691	keystroke	r	n/a
117.01	0.0905	234020	keystroke	u	n/a
117.175	0.105	234350	keystroke	s	n/a
117.3545	0.106	234709	keystroke	t	n/a
117.4295	0.106	234859	keystroke	e	n/a
117.6255	0.135	235251	keystroke	d	n/a
117.8055	0.12	235611	keystroke	Key.space	n/a
117.9855	0.0895	235971	keystroke	s	n/a
118.15	0.1055	236300	keystroke	t	n/a
118.3445	0.106	236689	keystroke	o	n/a
118.78	0.06	237560	keystroke	p	n/a
118.945	0.045	237890	keystroke	p	n/a
119.125	0.075	238250	keystroke	e	n/a
119.305	0.105	238610	keystroke	d	n/a
119.425	0.12	238850	keystroke	Key.space	n/a
119.575	0.105	239150	keystroke	c	n/a
119.695	0.105	239390	keystroke	a	n/a
119.9645	0.06	239929	keystroke	h	n/a
120.4295	0.121	240859	keystroke	Key.backspace	n/a
120.5655	0.06	241131	keystroke	r	n/a
120.775	0.075	241550	keystroke	d	n/a
120.985	0.1045	241970	keystroke	Key.enter	n/a
121.0945	9.656	242189	prompt	n/a	asus declaration pass appraisal\n
121.93	0.12	243860	keystroke	a	n/a
122.2295	0.105	244459	keystroke	s	n/a
122.425	0.09	244850	keystroke	u	n/a
122.545	0.12	245090	keystroke	s	n/a
122.695	0.12	245390	keystroke	Key.space	n/a
123.0995	0.135	246199	keystroke	d	n/a
123.2795	0.105	246559	keystroke	e	n/a
123.5195	0.105	247039	keystroke	c	n/a
123.67	0.105	247340	keystroke	l	n/a
123.865	0.06	247730	keystroke	a	n/a
124.03	0.105	248060	keystroke	r	n/a
124.2845	0.075	248569	keystroke	a	n/a
124.734	0.09	249468	keystroke	t	n/a
124.93	0.09	249860	keystroke	i	n/a
125.17	0.12	250340	keystroke	o	n/a
125.44	0.12	250880	keystroke	j	n/a
126.084	0.105	252168	keystroke	Key.backspace	n/a
126.6995	0.105	253399	keystroke	n	n/a
127.0595	0.0895	254119	keystroke	Key.space	n/a
127.2695	0.0595	254539	keystroke	p	n/a
127.374	0.21	254748	keystroke	a	n/a
127.885	0.074	255770	keystroke	s	n/a
128.079	0.06	256158	keystroke	s	n/a
128.199	0.12	256398	keystroke	Key.space	n/a
128.5595	0.1045	257119	keystroke	a	n/a
128.7545	0.045	257509	keystroke	p	n/a
128.8895	0.0745	257779	keystroke	p	n/a
129.054	0.105	258108	keystroke	r	n/a
129.264	0.09	258528	keystroke	a	n/a
129.504	0.06	259008	keystroke	i	n/a
129.8035	0.09	259607	keystroke	s	n/a
129.9835	0.105	259967	keystroke	a	n/a
130.1345	0.12	260269	keystroke	l	n/a
130.629	0.12	261258	keystroke	Key.enter	n/a
130.754	8.7255	261508	prompt	n/a	collecting speaking aside discount\n
131.4995	0.09	262999	keystroke	c	n/a
131.619	0.105	263238	keystroke	o	n/a
131.859	0.03	263718	keystroke	l	n/a
131.9785	0.075	263957	keystroke	l	n/a
132.0985	0.105	264197	keystroke	e	n/a
132.2185	0.0905	264437	keystroke	c	n/a
132.4435	0.105	264887	keystroke	t	n/a
132.6235	0.105	265247	keystroke	i	n/a
132.7585	0.12	265517	keystroke	n	n/a
132.893	0.09	265786	keystroke	g	n/a
133.013	0.1055	266026	keystroke	Key.space	n/a
133.2535	0.09	266507	keystroke	s	n/a
133.3445	0.104	266689	keystroke	p	n/a
133.5235	0.105	267047	keystroke	e	n/a
133.6295	0.134	267259	keystroke	a	n/a
133.823	0.075	267646	keystroke	l	n/a
134.213	0.016	268426	keystroke	i	n/a
134.529	0.06	269058	keystroke	Key.backspace	n/a
134.6785	0.06	269357	keystroke	Key.backspace	n/a
135.1135	0.045	270227	keystroke	k	n/a
135.3085	0.09	270617	keystroke	i	n/a
135.3235	0.135	270647	keystroke	n	n/a
135.5185	0.0905	271037	keystroke	g	n/a
135.6835	0.12	271367	keystroke	Key.space	n/a
136.1035	0.15	272207	keystroke	a	n/a
136.2385	0.12	272477	keystroke	s	n/a
136.4635	0.045	272927	keystroke	i	n/a
136.688	0.1505	273376	keystroke	d	n/a
136.8235	0.075	273647	keystroke	e	n/a
137.0035	0.105	274007	keystroke	Key.space	n/a
137.243	0.09	274486	keystroke	a	n/a
137.618	0.075	275236	keystroke	Key.backspace	n/a
137.8135	0.0895	275627	keystroke	d	n/a
137.918	0.06	275836	keystroke	i	n/a
138.128	0.06	276256	keystroke	s	n/a
138.323	0.1195	276646	keystroke	c	n/a
138.5325	0.15	277065	keystroke	o	n/a
138.6075	0.09	277215	keystroke	u	n/a
138.8475	0.091	277695	keystroke	n	n/a
138.9835	0.1195	277967	keystroke	t	n/a
139.373	0.105	278746	keystroke	Key.enter	n/a
139.482	11.8165	278964	prompt	n/a	plans conceptual exclusion metres\n
140.318	0.06	280636	keystroke	o	n/a
141.0975	0.061	282195	keystroke	Key.backspace	n/a
141.353	0.105	282706	keystroke	p	n/a
141.518	0.105	283036	keystroke	l	n/a
141.728	0.105	283456	keystroke	a	n/a
141.893	0.075	283786	keystroke	n	n/a
142.2675	0.09	284535	keystroke	s	n/a
142.4475	0.1055	284895	keystroke	Key.space	n/a
142.628	0.12	285256	keystroke	c	n/a
143.078	0.12	286156	keystroke	o	n/a
143.183	0.12	286366	keystroke	n	n/a
143.4225	0.045	286845	keystroke	v	n/a
143.5275	0.105	287055	keystroke	e	n/a
143.7225	0.075	287445	keystroke	p	n/a
144.0675	0.06	288135	keystroke	Key.backspace	n/a
144.2025	0.06	288405	keystroke	Key.backspace	n/a
144.3525	0.075	288705	keystroke	Key.backspace	n/a
144.4875	0.1055	288975	keystroke	c	n/a
144.578	0.1195	289156	keystroke	e	n/a
144.9975	0.09	289995	keystroke	p	n/a
145.747	0.135	291494	keystroke	t	n/a
145.867	0.09	291734	keystroke	u	n/a
146.1825	0.075	292365	keystroke	a	n/a
146.4525	0.1195	292905	keystroke	l	n/a
146.887	0.15	293774	keystroke	Key.space	n/a
147.143	0.1045	294286	keystroke	e	n/a
147.457	0.105	294914	keystroke	x	n/a
147.727	0.09	295454	keystroke	c	n/a
147.832	0.09	295664	keystroke	l	n/a
148.027	0.0895	296054	keystroke	u	n/a
148.177	0.1205	296354	keystroke	s	n/a
148.3425	0.1045	296685	keystroke	i	n/a
148.567	0.1355	297134	keystroke	o	n/a
148.642	0.1205	297284	keystroke	n	n/a
148.8975	0.15	297795	keystroke	Key.space	n/a
149.0625	0.105	298125	keystroke	m	n/a
149.2125	0.09	298425	keystroke	e	n/a
149.3775	0.12	298755	keystroke	t	n/a
149.6625	0.1045	299325	keystroke	r	n/a
149.752	0.09	299504	keystroke	e	n/a
150.007	0.09	300014	keystroke	s	n/a
150.157	0.135	300314	keystroke	'	n/a
150.8475	0.12	301695	keystroke	Key.backspace	n/a
151.192	0.105	302384	keystroke	Key.enter	n/a
151.3015	8.1115	302603	prompt	n/a	sleeps executed herbal tutorials\n
152.107	0.1205	304214	keystroke	s	n/a
152.2875	0.1045	304575	keystroke	l	n/a
152.4515	0.0605	304903	keystroke	e	n/a
152.5865	0.1205	305173	keystroke	e	n/a
152.737	0.105	305474	keystroke	p	n/a
153.1715	0.075	306343	keystroke	s	n/a
153.2915	0.136	306583	keystroke	Key.space	n/a
153.4875	0.1045	306975	keystroke	e	n/a
154.252	0.075	308504	keystroke	x	n/a
154.4465	0.105	308893	keystroke	e	n/a
154.6715	0.075	309343	keystroke	c	n/a
154.8515	0.09	309703	keystroke	u	n/a
154.9865	0.12	309973	keystroke	t	n/a
155.0925	0.1045	310185	keystroke	e	n/a
155.3165	0.12	310633	keystroke	d	n/a
155.5125	0.1195	311025	keystroke	Key.space	n/a
155.8865	0.09	311773	keystroke	h	n/a
156.0215	0.12	312043	keystroke	e	n/a
156.1265	0.09	312253	keystroke	r	n/a
156.2765	0.0905	312553	keystroke	b	n/a
156.4265	0.09	312853	keystroke	a	n/a
156.9215	0.135	313843	keystroke	l	n/a
157.1165	0.135	314233	keystroke	Key.space	n/a
157.2965	0.105	314593	keystroke	t	n/a
157.4165	0.075	314833	keystroke	u	n/a
157.5665	0.12	315133	keystroke	t	n/a
157.806	0.06	315612	keystroke	o	n/a
158.136	0.09	316272	keystroke	r	n/a
158.391	0.09	316782	keystroke	i	n/a
158.557	0.135	317114	keystroke	a	n/a
158.752	0.09	317504	keystroke	l	n/a
158.9915	0.105	317983	keystroke	s	n/a
159.3065	0.105	318613	keystroke	Key.enter	n/a
159.416	13.961	318832	prompt	n/a	occasions transparency considerations forge\n
160.4165	0.09	320833	keystroke	o	n/a
160.5805	0.061	321161	keystroke	c	n/a
160.7465	0.09	321493	keystroke	c	n/a
160.8965	0.1195	321793	keystroke	a	n/a
160.9715	0.1345	321943	keystroke	s	n/a
161.136	0.0895	322272	keystroke	i	n/a
161.5715	0.135	323143	keystroke	o	n/a
161.6915	0.135	323383	keystroke	j	n/a
162.006	0.045	324012	keystroke	s	n/a
162.396	0.06	324792	keystroke	Key.backspace	n/a
162.5305	0.075	325061	keystroke	Key.backspace	n/a
162.771	0.105	325542	keystroke	n	n/a
162.891	0.12	325782	keystroke	s	n/a
163.0405	0.12	326081	keystroke	Key.space	n/a
163.3705	0.15	326741	keystroke	t	n/a
163.4755	0.121	326951	keystroke	r	n/a
163.6865	0.135	327373	keystroke	a	n/a
163.8365	0.075	327673	keystroke	n	n/a
163.956	0.09	327912	keystroke	s	n/a
164.106	0.135	328212	keystroke	p	n/a
164.256	0.105	328512	keystroke	a	n/a
164.466	0.1345	328932	keystroke	r	n/a
164.541	0.1195	329082	keystroke	e	n/a
164.7055	0.105	329411	keystroke	n	n/a
164.9605	0.12	329921	keystroke	c	n/a
165.0815	0.104	330163	keystroke	y	n/a
165.381	0.1495	330762	keystroke	Key.space	n/a
165.8755	0.105	331751	keystroke	c	n/a
166.0855	0.135	332171	keystroke	o	n/a
166.2055	0.1495	332411	keystroke	n	n/a
166.4905	0.12	332981	keystroke	s	n/a
166.7005	0.06	333401	keystroke	u	n/a
167.121	0.045	334242	keystroke	Key.backspace	n/a
167.3905	0.09	334781	keystroke	i	n/a
167.69	0.12	335380	keystroke	d	n/a
167.885	0.106	335770	keystroke	e	n/a
167.945	0.106	335890	keystroke	r	n/a
168.186	0.12	336372	keystroke	s	n/a
168.291	0.0745	336582	keystroke	a	n/a
168.47	0.1205	336940	keystroke	t	n/a
168.6505	0.075	337301	keystroke	i	n/a
168.9055	0.06	337811	keystroke	o	n/a
169.34	0.06	338680	keystroke	Key.backspace	n/a
169.5055	0.0595	339011	keystroke	Key.backspace	n/a
169.655	0.075	339310	keystroke	Key.backspace	n/a
169.821	0.06	339642	keystroke	Key.backspace	n/a
169.986	0.0595	339972	keystroke	Key.backspace	n/a
170.7355	0.06	341471	keystroke	a	n/a
170.9155	0.105	341831	keystroke	t	n/a
171.14	0.075	342280	keystroke	i	n/a
171.411	0.074	342822	keystroke	o	n/a
171.7105	0.09	343421	keystroke	n	n/a
171.921	0.134	343842	keystroke	s	n/a
172.1	0.105	344200	keystroke	Key.space	n/a
172.295	0.0905	344590	keystroke	f	n/a
172.4305	0.135	344861	keystroke	o	n/a
172.5955	0.09	345191	keystroke	r	n/a
172.8355	0.06	345671	keystroke	g	n/a
172.9855	0.105	345971	keystroke	e	n/a
173.2405	0.135	346481	keystroke	Key.enter	n/a
173.381	7.3455	346762	prompt	n/a	studio hitachi latina twice\n
174.11	0.075	348220	keystroke	s	n/a
174.335	0.09	348670	keystroke	t	n/a
174.5	0.0605	349000	keystroke	u	n/a
174.6355	0.105	349271	keystroke	d	n/a
174.785	0.09	349570	keystroke	i	n/a
175.0705	0.045	350141	keystroke	i	n/a
175.5355	0.075	351071	keystroke	Key.backspace	n/a
175.7605	0.1045	351521	keystroke	o	n/a
176.03	0.105	352060	keystroke	Key.space	n/a
176.4055	0.12	352811	keystroke	h	n/a
176.5105	0.075	353021	keystroke	i	n/a
176.6605	0.0895	353321	keystroke	t	n/a
176.84	0.075	353680	keystroke	a	n/a
177.0955	0.09	354191	keystroke	h	n/a
177.4855	0.0595	354971	keystroke	Key.backspace	n/a
177.62	0.105	355240	keystroke	c	n/a
177.74	0.18	355480	keystroke	h	n/a
177.905	0.0605	355810	keystroke	i	n/a
178.1155	0.1345	356231	keystroke	Key.space	n/a
178.445	0.09	356890	keystroke	l	n/a
178.64	0.105	357280	keystroke	a	n/a
178.9395	0.1205	357879	keystroke	t	n/a
179.075	0.135	358150	keystroke	i	n/a
179.195	0.075	358390	keystroke	n	n/a
179.3	0.15	358600	keystroke	a	n/a
179.48	0.15	358960	keystroke	Key.space	n/a
179.645	0.1195	359290	keystroke	t	n/a
179.9295	0.09	359859	keystroke	w	n/a
180.1095	0.075	360219	keystroke	i	n/a
180.2295	0.196	360459	keystroke	c	n/a
180.4105	0.089	360821	keystroke	e	n/a
180.6195	0.106	361239	keystroke	Key.enter	n/a
180.73	6.641	361460	prompt	n/a	covering format wolf frozen\n
181.46	0.12	362920	keystroke	c	n/a
181.595	0.09	363190	keystroke	o	n/a
181.7455	0.0895	363491	keystroke	v	n/a
181.94	0.09	363880	keystroke	e	n/a
182	0.09	364000	keystroke	r	n/a
182.15	0.03	364300	keystroke	i	n/a
182.15	0.12	364300	keystroke	n	n/a
182.7795	0.0755	365559	keystroke	g	n/a
182.96	0.0745	365920	keystroke	Key.space	n/a
183.274	0.091	366548	keystroke	f	n/a
183.395	0.12	366790	keystroke	o	n/a
183.56	0.105	367120	keystroke	r	n/a
183.65	0.12	367300	keystroke	m	n/a
183.785	0.0895	367570	keystroke	a	n/a
183.9645	0.135	367929	keystroke	t	n/a
184.1145	0.15	368229	keystroke	Key.space	n/a
184.3695	0.075	368739	keystroke	w	n/a
184.6545	0.0745	369309	keystroke	o	n/a
185.299	0.0905	370598	keystroke	l	n/a
185.5995	0.09	371199	keystroke	f	n/a
185.7195	0.12	371439	keystroke	Key.space	n/a
185.8695	0.165	371739	keystroke	f	n/a
186.0195	0.075	372039	keystroke	r	n/a
186.1245	0.0895	372249	keystroke	o	n/a
186.559	0.135	373118	keystroke	z	n/a
186.724	0.105	373448	keystroke	e	n/a
186.904	0.105	373808	keystroke	n	n/a
187.2335	0.1355	374467	keystroke	Key.enter	n/a
187.374	13.2265	374748	prompt	n/a	contained philippines centres andrews\n
188.2995	0.1195	376599	keystroke	c	n/a
188.404	0.12	376808	keystroke	o	n/a
188.449	0.135	376898	keystroke	n	n/a
188.644	0.105	377288	keystroke	t	n/a
188.824	0.09	377648	keystroke	a	n/a
189.0335	0.12	378067	keystroke	i	n/a
189.2885	0.09	378577	keystroke	n	n/a
189.4235	0.105	378847	keystroke	e	n/a
189.6485	0.12	379297	keystroke	d	n/a
189.7535	0.12	379507	keystroke	Key.space	n/a
189.9485	0.09	379897	keystroke	p	n/a
190.5635	0.045	381127	keystroke	h	n/a
190.9385	0.015	381877	keystroke	i	n/a
191.4485	0.165	382897	keystroke	l	n/a
192.0635	0.09	384127	keystroke	l	n/a
192.3035	0.09	384607	keystroke	i	n/a
192.604	0.105	385208	keystroke	p	n/a
193.729	0.06	387458	keystroke	Key.backspace	n/a
193.9085	0.045	387817	keystroke	Key.backspace	n/a
194.059	0.06	388118	keystroke	Key.backspace	n/a
195.124	0.045	390248	keystroke	i	n/a
195.3185	0.06	390637	keystroke	p	n/a
195.4835	0.075	390967	keystroke	p	n/a
195.769	0.135	391538	keystroke	i	n/a
195.889	0.105	391778	keystroke	n	n/a
196.054	0.1195	392108	keystroke	e	n/a
196.1285	0.15	392257	keystroke	s	n/a
196.3085	0.12	392617	keystroke	Key.space	n/a
196.5485	0.09	393097	keystroke	c	n/a
196.6235	0.105	393247	keystroke	e	n/a
196.908	0.03	393816	keystroke	t	n/a
196.9985	0.075	393997	keystroke	n	n/a
197.4035	0.06	394807	keystroke	Key.backspace	n/a
197.5535	0.06	395107	keystroke	Key.backspace	n/a
197.7485	0.0755	395497	keystroke	n	n/a
197.854	0.075	395708	keystroke	t	n/a
198.064	0.12	396128	keystroke	r	n/a
198.124	0.105	396248	keystroke	e	n/a
198.3485	0.12	396697	keystroke	s	n/a
198.5285	0.12	397057	keystroke	Key.space	n/a
198.889	0.06	397778	keystroke	a	n/a
199.069	0.075	398138	keystroke	n	n/a
199.189	0.105	398378	keystroke	d	n/a
199.3835	0.165	398767	keystroke	r	n/a
199.5185	0.09	399037	keystroke	e	n/a
199.7735	0.045	399547	keystroke	w	n/a
199.9535	0.09	399907	keystroke	s	n/a
200.493	0.105	400986	keystroke	Key.enter	n/a
200.6075	8.377	401215	prompt	n/a	bidder videos programming paying\n
201.5885	0.06	403177	keystroke	b	n/a
201.7535	0.09	403507	keystroke	i	n/a
201.8885	0.075	403777	keystroke	d	n/a
202.0685	0.0895	404137	keystroke	d	n/a
202.3085	0.1195	404617	keystroke	e	n/a
202.3685	0.1345	404737	keystroke	r	n/a
202.608	0.12	405216	keystroke	Key.space	n/a
203.418	0.12	406836	keystroke	v	n/a
203.553	0.09	407106	keystroke	i	n/a
203.688	0.135	407376	keystroke	d	n/a
203.793	0.105	407586	keystroke	e	n/a
203.913	0.12	407826	keystroke	o	n/a
204.048	0.1055	408096	keystroke	s	n/a
204.2735	0.1345	408547	keystroke	Key.space	n/a
204.7535	0.105	409507	keystroke	p	n/a
204.8885	0.0895	409777	keystroke	r	n/a
205.128	0.045	410256	keystroke	o	n/a
205.293	0.09	410586	keystroke	g	n/a
205.368	0.1195	410736	keystroke	r	n/a
205.5775	0.1205	411155	keystroke	a	n/a
205.983	0.075	411966	keystroke	m	n/a
206.118	0.105	412236	keystroke	m	n/a
206.8385	0.075	413677	keystroke	i	n/a
206.8985	0.1045	413797	keystroke	n	n/a
207.048	0.06	414096	keystroke	g	n/a
207.153	0.12	414306	keystroke	Key.space	n/a
207.348	0.105	414696	keystroke	p	n/a
207.483	0.09	414966	keystroke	a	n/a
207.663	0.09	415326	keystroke	y	n/a
207.9175	0.09	415835	keystroke	i	n/a
207.9475	0.15	415895	keystroke	n	n/a
208.3385	0.0895	416677	keystroke	g	n/a
208.8475	0.135	417695	keystroke	Key.enter	n/a
208.9885	7.976	417977	prompt	n/a	replace meanwhile nobody ears\n
209.7335	0.1195	419467	keystroke	r	n/a
209.8385	0.1045	419677	keystroke	e	n/a
210.0325	0.1055	420065	keystroke	p	n/a
210.0775	0.1355	420155	keystroke	l	n/a
210.2425	0.18	420485	keystroke	a	n/a
210.4675	0.165	420935	keystroke	c	n/a
210.5425	0.105	421085	keystroke	e	n/a
210.7225	0.151	421445	keystroke	Key.space	n/a
211.233	0.09	422466	keystroke	m	n/a
211.3525	0.091	422705	keystroke	e	n/a
211.4885	0.0895	422977	keystroke	a	n/a
211.623	0.09	423246	keystroke	n	n/a
211.938	0.09	423876	keystroke	w	n/a
212.043	0.09	424086	keystroke	h	n/a
212.134	0.119	424268	keystroke	i	n/a
212.448	0.075	424896	keystroke	l	n/a
212.6425	0.0905	425285	keystroke	e	n/a
212.973	0.105	425946	keystroke	Key.space	n/a
213.4225	0.075	426845	keystroke	b	n/a
213.9475	0.075	427895	keystroke	Key.backspace	n/a
214.218	0.075	428436	keystroke	n	n/a
214.3825	0.075	428765	keystroke	o	n/a
214.8325	0.015	429665	keystroke	b	n/a
214.8775	0.075	429755	keystroke	o	n/a
214.9975	0.12	429995	keystroke	d	n/a
215.1325	0.0595	430265	keystroke	y	n/a
215.312	0.135	430624	keystroke	Key.space	n/a
216.0775	0.09	432155	keystroke	e	n/a
216.1675	0.135	432335	keystroke	a	n/a
216.3475	0.075	432695	keystroke	r	n/a
216.6475	0.105	433295	keystroke	s	n/a
216.873	0.09	433746	keystroke	Key.enter	n/a
216.9675	16.841	433935	prompt	n/a	birds interpreted join bradley\n
217.7875	0.03	435575	keystroke	b	n/a
217.9225	0.0745	435845	keystroke	i	n/a
218.012	0.075	436024	keystroke	r	n/a
218.207	0.105	436414	keystroke	d	n/a
218.252	0.135	436504	keystroke	s	n/a
218.402	0.105	436804	keystroke	Key.space	n/a
218.522	0.106	437044	keystroke	i	n/a
218.583	0.135	437166	keystroke	n	n/a
218.793	0.1195	437586	keystroke	t	n/a
219.197	0.015	438394	keystroke	p	n/a
219.302	0.121	438604	keystroke	r	n/a
219.393	0.089	438786	keystroke	e	n/a
219.783	0.1795	439566	keystroke	t	n/a
220.0225	0.135	440045	keystroke	e	n/a
220.4275	0.06	440855	keystroke	d	n/a
220.6225	0.1195	441245	keystroke	Key.space	n/a
221.1475	0.12	442295	keystroke	j	n/a
221.3725	0.0905	442745	keystroke	o	n/a
221.5975	0.105	443195	keystroke	i	n/a
221.6575	0.12	443315	keystroke	n	n/a
221.8825	0.12	443765	keystroke	Key.space	n/a
222.1375	0.12	444275	keystroke	b	n/a
224.345	0.042	448690	keystroke	Key.backspace	n/a
224.568	0.0745	449136	keystroke	Key.backspace	n/a
224.8675	0.075	449735	keystroke	Key.backspace	n/a
225.152	0.105	450304	keystroke	Key.backspace	n/a
225.4215	0.105	450843	keystroke	Key.backspace	n/a
225.7375	0.075	451475	keystroke	Key.backspace	n/a
226.052	0.06	452104	keystroke	Key.backspace	n/a
226.3665	0.075	452733	keystroke	Key.backspace	n/a
226.6825	0.0895	453365	keystroke	Key.backspace	n/a
226.952	0.0895	453904	keystroke	Key.backspace	n/a
227.2815	0.0605	454563	keystroke	Key.backspace	n/a
227.552	0.09	455104	keystroke	Key.backspace	n/a
227.8675	0.09	455735	keystroke	Key.backspace	n/a
228.4815	0.09	456963	keystroke	e	n/a
228.6925	0.06	457385	keystroke	r	n/a
228.932	0.075	457864	keystroke	p	n/a
229.112	0.09	458224	keystroke	r	n/a
229.187	0.12	458374	keystroke	e	n/a
229.367	0.09	458734	keystroke	t	n/a
229.472	0.105	458944	keystroke	e	n/a
229.682	0.1045	459364	keystroke	d	n/a
229.8465	0.135	459693	keystroke	Key.space	n/a
230.5815	0.075	461163	keystroke	j	n/a
231.002	0.045	462004	keystroke	o	n/a
231.332	0.075	462664	keystroke	i	n/a
231.527	0.075	463054	keystroke	n	n/a
231.722	0.0895	463444	keystroke	Key.space	n/a
232.5025	0.075	465005	keystroke	b	n/a
232.6065	0.075	465213	keystroke	r	n/a
232.7565	0.1205	465513	keystroke	a	n/a
232.862	0.165	465724	keystroke	d	n/a
233.042	0.0895	466084	keystroke	l	n/a
233.1465	0.105	466293	keystroke	e	n/a
233.2965	0.075	466593	keystroke	y	n/a
233.7015	0.1055	467403	keystroke	Key.enter	n/a
233.811	6.0275	467622	prompt	n/a	moved relay keen picked\n
234.647	0.105	469294	keystroke	m	n/a
234.797	0.09	469594	keystroke	o	n/a
234.977	0.105	469954	keystroke	v	n/a
235.142	0.09	470284	keystroke	e	n/a
235.367	0.0895	470734	keystroke	d	n/a
235.5465	0.12	471093	keystroke	Key.space	n/a
235.7415	0.105	471483	keystroke	r	n/a
235.7865	0.1205	471573	keystroke	e	n/a
235.952	0.09	471904	keystroke	l	n/a
236.102	0.105	472204	keystroke	a	n/a
236.357	0.0745	472714	keystroke	y	n/a
236.6115	0.105	473223	keystroke	Key.space	n/a
236.8665	0.06	473733	keystroke	k	n/a
237.002	0.075	474004	keystroke	e	n/a
237.167	0.075	474334	keystroke	e	n/a
237.317	0.1345	474634	keystroke	n	n/a
237.5415	0.09	475083	keystroke	Key.space	n/a
237.7515	0.09	475503	keystroke	p	n/a
237.9615	0.045	475923	keystroke	u	n/a
238.5015	0.06	477003	keystroke	Key.backspace	n/a
238.847	0.03	477694	keystroke	i	n/a
238.997	0.105	477994	keystroke	c	n/a
239.117	0.075	478234	keystroke	k	n/a
239.252	0.0895	478504	keystroke	e	n/a
239.4765	0.075	478953	keystroke	d	n/a
239.6865	0.15	479373	keystroke	Key.enter	n/a
239.841	13.1665	479682	prompt	n/a	democracy taxation costs census\n
240.6315	0.12	481263	keystroke	d	n/a
240.7365	0.12	481473	keystroke	e	n/a
240.9465	0.1045	481893	keystroke	m	n/a
241.142	0.09	482284	keystroke	o	n/a
241.442	0.105	482884	keystroke	c	n/a
241.6665	0.09	483333	keystroke	r	n/a
241.8015	0.105	483603	keystroke	a	n/a
242.026	0.12	484052	keystroke	c	n/a
242.176	0.105	484352	keystroke	y	n/a
242.447	0.09	484894	keystroke	Key.space	n/a
242.7015	0.0895	485403	keystroke	t	n/a
242.896	0.106	485792	keystroke	a	n/a
243.1515	0.075	486303	keystroke	s	n/a
243.3765	0.09	486753	keystroke	a	n/a
243.6165	0.12	487233	keystroke	t	n/a
243.7665	0.105	487533	keystroke	i	n/a
244.036	0.105	488072	keystroke	o	n/a
244.201	0.105	488402	keystroke	n	n/a
244.411	0.1355	488822	keystroke	Key.space	n/a
245.057	0.09	490114	keystroke	Key.backspace	n/a
245.3415	0.0895	490683	keystroke	Key.backspace	n/a
245.566	0.075	491132	keystroke	Key.backspace	n/a
245.806	0.105	491612	keystroke	Key.backspace	n/a
246.062	0.075	492124	keystroke	Key.backspace	n/a
246.3465	0.045	492693	keystroke	Key.backspace	n/a
246.6315	0.045	493263	keystroke	Key.backspace	n/a
246.8865	0.03	493773	keystroke	Key.backspace	n/a
247.4265	0.06	494853	keystroke	a	n/a
247.966	0.09	495932	keystroke	x	n/a
248.101	0.105	496202	keystroke	a	n/a
248.342	0.09	496684	keystroke	t	n/a
249.3315	0.105	498663	keystroke	i	n/a
249.5715	0.105	499143	keystroke	o	n/a
249.7815	0.105	499563	keystroke	n	n/a
249.9765	0.135	499953	keystroke	Key.space	n/a
250.591	0.105	501182	keystroke	c	n/a
250.816	0.0905	501632	keystroke	o	n/a
250.9505	0.1055	501901	keystroke	s	n/a
251.146	0.09	502292	keystroke	t	n/a
251.311	0.1045	502622	keystroke	s	n/a
251.4755	0.106	502951	keystroke	Key.space	n/a
251.7915	0.045	503583	keystroke	c	n/a
251.8515	0.045	503703	keystroke	e	n/a
251.9865	0.105	503973	keystroke	n	n/a
252.1665	0.104	504333	keystroke	s	n/a
252.3455	0.0905	504691	keystroke	u	n/a
252.631	0.105	505262	keystroke	s	n/a
252.916	0.09	505832	keystroke	Key.enter	n/a
253.0105	7.4825	506021	prompt	n/a	discrete shoe input congress\n
254.2215	0.059	508443	keystroke	d	n/a
254.3855	0.09	508771	keystroke	i	n/a
254.5515	0.09	509103	keystroke	s	n/a
254.7615	0.12	509523	keystroke	c	n/a
255.0015	0.1195	510003	keystroke	r	n/a
255.061	0.135	510122	keystroke	e	n/a
255.376	0.12	510752	keystroke	t	n/a
255.571	0.1045	511142	keystroke	e	n/a
255.8255	0.165	511651	keystroke	Key.space	n/a
256.1405	0.105	512281	keystroke	s	n/a
256.3055	0.075	512611	keystroke	h	n/a
256.53	0.091	513060	keystroke	o	n/a
256.725	0.106	513450	keystroke	e	n/a
257.086	0.015	514172	keystroke	Key.space	n/a
257.296	0.09	514592	keystroke	i	n/a
257.506	0.105	515012	keystroke	n	n/a
257.761	0.0895	515522	keystroke	p	n/a
257.985	0.106	515970	keystroke	u	n/a
258.15	0.106	516300	keystroke	t	n/a
258.421	0.105	516842	keystroke	Key.space	n/a
258.661	0.1195	517322	keystroke	c	n/a
258.8405	0.105	517681	keystroke	o	n/a
258.9155	0.12	517831	keystroke	n	n/a
259.1555	0.15	518311	keystroke	g	n/a
259.4705	0.18	518941	keystroke	r	n/a
259.5905	0.12	519181	keystroke	e	n/a
259.89	0.075	519780	keystroke	s	n/a
260.085	0.091	520170	keystroke	s	n/a
260.3705	0.12	520741	keystroke	Key.enter	n/a
260.496	12.761	520992	prompt	n/a	thomson jpeg eliminate conversations\n
261.316	0.09	522632	keystroke	t	n/a
261.466	0.0745	522932	keystroke	h	n/a
261.7205	0.0895	523441	keystroke	o	n/a
261.87	0.135	523740	keystroke	m	n/a
262.246	0.12	524492	keystroke	s	n/a
262.4255	0.12	524851	keystroke	o	n/a
262.6655	0.105	525331	keystroke	n	n/a
263.476	0.015	526952	keystroke	Key.space	n/a
263.9705	0.06	527941	keystroke	j	n/a
264.3155	0.075	528631	keystroke	p	n/a
264.481	0.09	528962	keystroke	e	n/a
264.7655	0.09	529531	keystroke	g	n/a
264.975	0.21	529950	keystroke	Key.space	n/a
266.056	0.104	532112	keystroke	e	n/a
266.22	0.0905	532440	keystroke	l	n/a
266.5805	0.075	533161	keystroke	i	n/a
266.8505	0.1045	533701	keystroke	m	n/a
267.135	0.075	534270	keystroke	n	n/a
267.571	0.075	535142	keystroke	Key.backspace	n/a
267.8855	0.105	535771	keystroke	i	n/a
268.0955	0.0595	536191	keystroke	n	n/a
268.32	0.09	536640	keystroke	a	n/a
268.531	0.1195	537062	keystroke	t	n/a
268.6355	0.12	537271	keystroke	e	n/a
269.1755	0.135	538351	keystroke	Key.space	n/a
269.4605	0.1495	538921	keystroke	c	n/a
269.76	0.045	539520	keystroke	n	n/a
270.1805	0.06	540361	keystroke	Key.backspace	n/a
270.4355	0.0895	540871	keystroke	o	n/a
270.63	0.105	541260	keystroke	n	n/a
270.84	0.105	541680	keystroke	v	n/a
271.005	0.15	542010	keystroke	e	n/a
271.14	0.135	542280	keystroke	r	n/a
271.3805	0.15	542761	keystroke	s	n/a
271.4695	0.12	542939	keystroke	a	n/a
271.6795	0.135	543359	keystroke	t	n/a
272.0855	0.09	544171	keystroke	i	n/a
272.4155	0.1195	544831	keystroke	o	n/a
272.55	0.12	545100	keystroke	n	n/a
272.805	0.105	545610	keystroke	s	n/a
273.12	0.135	546240	keystroke	Key.enter	n/a
273.26	5.532	546520	prompt	n/a	token eminem felt right\n
274.005	0.105	548010	keystroke	t	n/a
274.125	0.09	548250	keystroke	o	n/a
274.275	0.105	548550	keystroke	k	n/a
274.44	0.105	548880	keystroke	e	n/a
274.59	0.0895	549180	keystroke	n	n/a
274.7845	0.105	549569	keystroke	Key.space	n/a
274.935	0.105	549870	keystroke	e	n/a
275.025	0.105	550050	keystroke	m	n/a
275.235	0.075	550470	keystroke	i	n/a
275.43	0.075	550860	keystroke	n	n/a
275.715	0.075	551430	keystroke	e	n/a
275.88	0.1045	551760	keystroke	m	n/a
276.2555	0.135	552511	keystroke	Key.space	n/a
276.7805	0.1495	553561	keystroke	f	n/a
276.945	0.0895	553890	keystroke	e	n/a
277.0645	0.106	554129	keystroke	l	n/a
277.29	0.12	554580	keystroke	t	n/a
277.56	0.1055	555120	keystroke	Key.space	n/a
277.8755	0.0895	555751	keystroke	r	n/a
277.98	0.075	555960	keystroke	i	n/a
278.16	0.09	556320	keystroke	g	n/a
278.265	0.06	556530	keystroke	h	n/a
278.385	0.105	556770	keystroke	t	n/a
278.6395	0.15	557279	keystroke	Key.enter	n/a
278.795	10.0915	557590	prompt	n/a	skin mounts proposal cardiff\n
279.6605	0.09	559321	keystroke	s	n/a
279.7355	0.075	559471	keystroke	k	n/a
279.945	0.09	559890	keystroke	i	n/a
279.99	0.135	559980	keystroke	n	n/a
280.245	0.09	560490	keystroke	Key.space	n/a
280.5	0.09	561000	keystroke	m	n/a
280.635	0.1645	561270	keystroke	o	n/a
280.7545	0.0905	561509	keystroke	i	n/a
281.2345	0.075	562469	keystroke	Key.backspace	n/a
281.4755	0.135	562951	keystroke	u	n/a
281.5655	0.1195	563131	keystroke	n	n/a
281.745	0.06	563490	keystroke	t	n/a
281.985	0.135	563970	keystroke	s	n/a
282.135	0.0745	564270	keystroke	Key.space	n/a
282.4795	0.061	564959	keystroke	r	n/a
282.7505	0.0745	565501	keystroke	Key.backspace	n/a
282.975	0.12	565950	keystroke	p	n/a
283.1995	0.075	566399	keystroke	r	n/a
284.115	0.075	568230	keystroke	o	n/a
284.325	0.06	568650	keystroke	p	n/a
284.49	0.06	568980	keystroke	o	n/a
284.655	0.15	569310	keystroke	s	n/a
284.82	0.1495	569640	keystroke	a	n/a
284.9245	0.106	569849	keystroke	l	n/a
285.1355	0.09	570271	keystroke	Key.space	n/a
285.2705	0.149	570541	keystroke	c	n/a
285.375	0.1645	570750	keystroke	a	n/a
285.5845	0.12	571169	keystroke	r	n/a
285.7945	0.15	571589	keystroke	f	n/a
286.0045	0.061	572009	keystroke	i	n/a
286.545	0.06	573090	keystroke	Key.backspace	n/a
286.68	0.09	573360	keystroke	Key.backspace	n/a
286.785	0.12	573570	keystroke	d	n/a
286.965	0.09	573930	keystroke	i	n/a
287.16	0.06	574320	keystroke	g	n/a
287.3095	0.09	574619	keystroke	g	n/a
287.9395	0.0755	575879	keystroke	Key.backspace	n/a
288.105	0.09	576210	keystroke	Key.backspace	n/a
288.2695	0.105	576539	keystroke	f	n/a
288.4495	0.075	576899	keystroke	f	n/a
288.7045	0.18	577409	keystroke	Key.enter	n/a
288.8895	8.052	577779	prompt	n/a	lloyd sized skype burns\n
289.7545	0.045	579509	keystroke	l	n/a
289.9045	0.045	579809	keystroke	l	n/a
290.07	0.06	580140	keystroke	o	n/a
290.295	0.09	580590	keystroke	y	n/a
290.43	0.12	580860	keystroke	d	n/a
290.58	0.09	581160	keystroke	Key.space	n/a
290.865	0.0445	581730	keystroke	s	n/a
291.029	0.09	582058	keystroke	i	n/a
291.78	0.075	583560	keystroke	i	n/a
292.1845	0.045	584369	keystroke	Key.backspace	n/a
292.3795	0.1055	584759	keystroke	z	n/a
292.65	0.135	585300	keystroke	e	n/a
292.919	0.121	585838	keystroke	d	n/a
293.054	0.12	586108	keystroke	Key.space	n/a
293.295	0.105	586590	keystroke	s	n/a
293.7895	0.075	587579	keystroke	k	n/a
294.0745	0.06	588149	keystroke	y	n/a
295.049	0.076	590098	keystroke	p	n/a
295.44	0.15	590880	keystroke	e	n/a
295.605	0.12	591210	keystroke	Key.space	n/a
295.964	0.091	591928	keystroke	b	n/a
296.16	0.09	592320	keystroke	u	n/a
296.31	0.09	592620	keystroke	r	n/a
296.43	0.135	592860	keystroke	n	n/a
296.58	0.12	593160	keystroke	s	n/a
296.8045	0.1355	593609	keystroke	Key.enter	n/a
296.944	11.352	593888	prompt	n/a	malawi accompanying apart interventions\n
298.02	0.044	596040	keystroke	m	n/a
298.199	0.121	596398	keystroke	a	n/a
298.395	0.075	596790	keystroke	l	n/a
298.53	0.135	597060	keystroke	a	n/a
298.7545	0.09	597509	keystroke	w	n/a
298.9345	0.12	597869	keystroke	i	n/a
299.655	0.075	599310	keystroke	Key.space	n/a
299.835	0.0595	599670	keystroke	a	n/a
300.044	0.0755	600088	keystroke	c	n/a
300.2245	0.12	600449	keystroke	c	n/a
300.4045	0.12	600809	keystroke	o	n/a
300.5545	0.12	601109	keystroke	m	n/a
300.8095	0.0295	601619	keystroke	p	n/a
301.3495	0.12	602699	keystroke	a	n/a
301.8295	0.0895	603659	keystroke	y	n/a
302.309	0.045	604618	keystroke	Key.backspace	n/a
302.5195	0.0745	605039	keystroke	n	n/a
302.744	0.075	605488	keystroke	y	n/a
303.015	0.1195	606030	keystroke	i	n/a
303.075	0.1195	606150	keystroke	n	n/a
303.3445	0.015	606689	keystroke	g	n/a
303.9145	0.1505	607829	keystroke	Key.space	n/a
304.1095	0.105	608219	keystroke	a	n/a
304.2445	0.105	608489	keystroke	p	n/a
304.4095	0.1045	608819	keystroke	a	n/a
304.709	0.196	609418	keystroke	r	n/a
304.92	0.105	609840	keystroke	t	n/a
305.3545	0.12	610709	keystroke	Key.space	n/a
305.5795	0.09	611159	keystroke	i	n/a
305.6845	0.135	611369	keystroke	n	n/a
305.8795	0.1045	611759	keystroke	t	n/a
306.059	0.135	612118	keystroke	e	n/a
306.149	0.105	612298	keystroke	r	n/a
306.45	0.12	612900	keystroke	v	n/a
306.72	0.075	613440	keystroke	e	n/a
306.84	0.0895	613680	keystroke	n	n/a
307.019	0.105	614038	keystroke	t	n/a
307.169	0.09	614338	keystroke	i	n/a
307.379	0.105	614758	keystroke	o	n/a
307.71	0.075	615420	keystroke	n	n/a
307.8895	0.135	615779	keystroke	s	n/a
308.115	0.18	616230	keystroke	Key.enter	n/a
308.3005	9.3705	616601	prompt	n/a	writers bizrate weight formatting\n
309.3595	0.0745	618719	keystroke	w	n/a
309.509	0.09	619018	keystroke	r	n/a
309.704	0.09	619408	keystroke	i	n/a
309.854	0.12	619708	keystroke	t	n/a
310.049	0.151	620098	keystroke	e	n/a
310.155	0.1645	620310	keystroke	r	n/a
310.4245	0.12	620849	keystroke	s	n/a
310.6195	0.105	621239	keystroke	Key.space	n/a
310.9795	0.105	621959	keystroke	b	n/a
311.219	0.105	622438	keystroke	i	n/a
311.4895	0.09	622979	keystroke	s	n/a
311.7595	0.12	623519	keystroke	r	n/a
312.224	0.045	624448	keystroke	Key.backspace	n/a
312.374	0.075	624748	keystroke	Key.backspace	n/a
312.614	0.015	625228	keystroke	z	n/a
313.2745	0.075	626549	keystroke	r	n/a
313.4245	0.09	626849	keystroke	a	n/a
313.6495	0.105	627299	keystroke	t	n/a
313.7695	0.135	627539	keystroke	e	n/a
314.1145	0.105	628229	keystroke	Key.space	n/a
314.4445	0.135	628889	keystroke	w	n/a
314.5195	0.12	629039	keystroke	e	n/a
314.6545	0.09	629309	keystroke	i	n/a
314.864	0.075	629728	keystroke	g	n/a
315.104	0.105	630208	keystroke	h	n/a
315.269	0.135	630538	keystroke	t	n/a
315.479	0.12	630958	keystroke	Key.space	n/a
315.9145	0.075	631829	keystroke	f	n/a
316.0195	0.09	632039	keystroke	o	n/a
316.1995	0.1195	632399	keystroke	r	n/a
316.304	0.105	632608	keystroke	m	n/a
316.424	0.09	632848	keystroke	a	n/a
316.6345	0.074	633269	keystroke	t	n/a
316.7995	0.09	633599	keystroke	t	n/a
316.9945	0.105	633989	keystroke	i	n/a
317.0695	0.135	634139	keystroke	n	n/a
317.2945	0.06	634589	keystroke	g	n/a
317.534	0.1345	635068	keystroke	Key.enter	n/a
317.674	6.7615	635348	prompt	n/a	norm bridge studying eagle\n
318.719	0.06	637438	keystroke	n	n/a
318.899	0.075	637798	keystroke	o	n/a
319.034	0.1045	638068	keystroke	r	n/a
319.1535	0.09	638307	keystroke	m	n/a
319.3635	0.12	638727	keystroke	Key.space	n/a
319.6035	0.106	639207	keystroke	b	n/a
319.7845	0.105	639569	keystroke	r	n/a
319.9645	0.0895	639929	keystroke	i	n/a
320.189	0.135	640378	keystroke	d	n/a
320.384	0.045	640768	keystroke	g	n/a
320.7595	0.12	641519	keystroke	e	n/a
321.0445	0.135	642089	keystroke	Key.space	n/a
321.344	0.105	642688	keystroke	s	n/a
321.584	0.075	643168	keystroke	t	n/a
321.704	0.105	643408	keystroke	u	n/a
321.869	0.135	643738	keystroke	d	n/a
322.034	0.075	644068	keystroke	y	n/a
322.2885	0.136	644577	keystroke	i	n/a
322.3785	0.1505	644757	keystroke	n	n/a
322.634	0.105	645268	keystroke	g	n/a
322.754	0.12	645508	keystroke	Key.space	n/a
322.919	0.1205	645838	keystroke	e	n/a
323.1145	0.1195	646229	keystroke	a	n/a
323.429	0.0445	646858	keystroke	g	n/a
323.8185	0.136	647637	keystroke	l	n/a
323.9985	0.076	647997	keystroke	e	n/a
324.2695	0.1645	648539	keystroke	Key.enter	n/a
324.439	9.581	648878	prompt	n/a	jeep location craft isolation\n
325.349	0.06	650698	keystroke	j	n/a
325.469	0.09	650938	keystroke	e	n/a
325.679	0.075	651358	keystroke	e	n/a
326.639	0.105	653278	keystroke	p	n/a
326.864	0.135	653728	keystroke	Key.space	n/a
327.044	0.075	654088	keystroke	k	n/a
327.9285	0.105	655857	keystroke	Key.backspace	n/a
328.199	0.075	656398	keystroke	l	n/a
328.379	0.075	656758	keystroke	o	n/a
328.6185	0.105	657237	keystroke	c	n/a
328.7835	0.105	657567	keystroke	a	n/a
329.024	0.09	658048	keystroke	t	n/a
329.159	0.105	658318	keystroke	i	n/a
329.399	0.1495	658798	keystroke	o	n/a
329.5185	0.12	659037	keystroke	n	n/a
329.7885	0.12	659577	keystroke	Key.space	n/a
329.9835	0.075	659967	keystroke	c	n/a
330.854	0.12	661708	keystroke	r	n/a
331.004	0.1045	662008	keystroke	a	n/a
331.1685	0.1195	662337	keystroke	f	n/a
331.4095	0.0895	662819	keystroke	t	n/a
331.559	0.0895	663118	keystroke	Key.space	n/a
331.7085	0.12	663417	keystroke	i	n/a
331.8735	0.105	663747	keystroke	s	n/a
332.0085	0.09	664017	keystroke	o	n/a
332.1885	0.06	664377	keystroke	l	n/a
332.4295	0.1185	664859	keystroke	a	n/a
332.684	0.105	665368	keystroke	t	n/a
333.134	0.09	666268	keystroke	i	n/a
333.4185	0.135	666837	keystroke	o	n/a
333.5235	0.15	667047	keystroke	n	n/a
333.8685	0.1505	667737	keystroke	Key.enter	n/a
334.023	10.9025	668046	prompt	n/a	moderator makers calculate concerns\n
334.829	0.1045	669658	keystroke	m	n/a
335.0235	0.015	670047	keystroke	o	n/a
335.0835	0.12	670167	keystroke	d	n/a
335.8785	0.09	671757	keystroke	e	n/a
335.9235	0.1195	671847	keystroke	r	n/a
336.209	0.09	672418	keystroke	a	n/a
336.404	0.09	672808	keystroke	t	n/a
336.599	0.09	673198	keystroke	o	n/a
336.749	0.12	673498	keystroke	r	n/a
336.944	0.1045	673888	keystroke	Key.space	n/a
337.4685	0.09	674937	keystroke	a	n/a
337.6335	0.045	675267	keystroke	m	n/a
337.9485	0.03	675897	keystroke	Key.backspace	n/a
338.0835	0.06	676167	keystroke	Key.backspace	n/a
338.2785	0.0745	676557	keystroke	m	n/a
338.413	0.1055	676826	keystroke	a	n/a
338.4885	0.105	676977	keystroke	k	n/a
338.6835	0.135	677367	keystroke	e	n/a
338.7885	0.12	677577	keystroke	r	n/a
339.0585	0.135	678117	keystroke	s	n/a
339.2535	0.1045	678507	keystroke	Key.space	n/a
339.418	0.15	678836	keystroke	c	n/a
339.553	0.105	679106	keystroke	a	n/a
339.703	0.075	679406	keystroke	l	n/a
339.854	0.135	679708	keystroke	c	n/a
340.094	0.09	680188	keystroke	u	n/a
340.5135	0.12	681027	keystroke	l	n/a
340.7085	0.0905	681417	keystroke	a	n/a
340.949	0.105	681898	keystroke	t	n/a
341.069	0.09	682138	keystroke	e	n/a
341.174	0.1345	682348	keystroke	Key.space	n/a
341.3235	0.135	682647	keystroke	c	n/a
341.4435	0.1505	682887	keystroke	o	n/a
341.5035	0.1205	683007	keystroke	n	n/a
341.669	0.09	683338	keystroke	v	n/a
341.8485	0.15	683697	keystroke	e	n/a
341.9685	0.12	683937	keystroke	r	n/a
342.3435	0.06	684687	keystroke	Key.backspace	n/a
342.5085	0.06	685017	keystroke	Key.backspace	n/a
342.6585	0.06	685317	keystroke	Key.backspace	n/a
342.8085	0.045	685617	keystroke	Key.backspace	n/a
342.8835	0.105	685767	keystroke	c	n/a
343.4235	0.0745	686847	keystroke	Key.backspace	n/a
343.679	0.06	687358	keystroke	n	n/a
343.799	0.1195	687598	keystroke	c	n/a
343.963	0.12	687926	keystroke	e	n/a
344.068	0.105	688136	keystroke	r	n/a
344.203	0.075	688406	keystroke	n	n/a
344.368	0.105	688736	keystroke	s	n/a
344.774	0.1495	689548	keystroke	Key.enter	n/a
344.9285	8.8315	689857	prompt	n/a	malta solo gone these\n
345.868	0.091	691736	keystroke	m	n/a
346.093	0.091	692186	keystroke	a	n/a
346.199	0.105	692398	keystroke	l	n/a
346.3935	0.12	692787	keystroke	t	n/a
346.6035	0.12	693207	keystroke	a	n/a
346.7535	0.12	693507	keystroke	Key.space	n/a
346.8745	0.104	693749	keystroke	s	n/a
346.9935	0.09	693987	keystroke	o	n/a
347.188	0.075	694376	keystroke	l	n/a
347.383	0.075	694766	keystroke	o	n/a
347.683	0.09	695366	keystroke	Key.space	n/a
348.7335	0.12	697467	keystroke	d	n/a
348.8535	0.15	697707	keystroke	o	n/a
348.9435	0.1195	697887	keystroke	n	n/a
349.108	0.075	698216	keystroke	e	n/a
349.228	0.09	698456	keystroke	Key.space	n/a
349.483	0.1205	698966	keystroke	t	n/a
349.5885	0.105	699177	keystroke	h	n/a
349.7085	0.09	699417	keystroke	e	n/a
350.158	0.075	700316	keystroke	Key.backspace	n/a
350.3535	0.075	700707	keystroke	Key.backspace	n/a
350.5335	0.06	701067	keystroke	Key.backspace	n/a
350.6985	0.06	701397	keystroke	Key.backspace	n/a
350.8785	0.06	701757	keystroke	Key.backspace	n/a
351.0735	0.0445	702147	keystroke	Key.backspace	n/a
351.238	0.045	702476	keystroke	Key.backspace	n/a
351.523	0.06	703046	keystroke	Key.backspace	n/a
352.153	0.09	704306	keystroke	g	n/a
352.378	0.105	704756	keystroke	o	n/a
352.558	0.09	705116	keystroke	n	n/a
352.708	0.105	705416	keystroke	e	n/a
352.798	0.0905	705596	keystroke	Key.space	n/a
352.9335	0.135	705867	keystroke	t	n/a
353.0535	0.075	706107	keystroke	h	n/a
353.1435	0.09	706287	keystroke	e	n/a
353.353	0.105	706706	keystroke	s	n/a
353.443	0.12	706886	keystroke	e	n/a
353.608	0.15	707216	keystroke	Key.enter	n/a
353.7625	7.3625	707525	prompt	n/a	globe fitness television lamb\n
354.613	0.0755	709226	keystroke	f	n/a
354.9585	0.0745	709917	keystroke	Key.backspace	n/a
355.228	0.0895	710456	keystroke	g	n/a
355.3625	0.061	710725	keystroke	l	n/a
355.5885	0.014	711177	keystroke	o	n/a
355.6935	0.075	711387	keystroke	b	n/a
355.8285	0.105	711657	keystroke	e	n/a
355.9185	0.09	711837	keystroke	Key.space	n/a
356.0235	0.135	712047	keystroke	f	n/a
356.1285	0.075	712257	keystroke	i	n/a
356.308	0.12	712616	keystroke	t	n/a
356.398	0.09	712796	keystroke	n	n/a
356.533	0.09	713066	keystroke	e	n/a
356.743	0.06	713486	keystroke	s	n/a
356.8785	0.135	713757	keystroke	s	n/a
357.0285	0.1195	714057	keystroke	Key.space	n/a
357.3885	0.15	714777	keystroke	t	n/a
357.5685	0.06	715137	keystroke	e	n/a
357.6585	0.1045	715317	keystroke	l	n/a
357.778	0.12	715556	keystroke	e	n/a
358.048	0.105	716096	keystroke	v	n/a
358.333	0.06	716666	keystroke	i	n/a
358.498	0.075	716996	keystroke	s	n/a
358.5875	0.075	717175	keystroke	i	n/a
358.7525	0.09	717505	keystroke	o	n/a
358.8125	0.106	717625	keystroke	n	n/a
358.9935	0.135	717987	keystroke	Key.space	n/a
359.1435	0.09	718287	keystroke	l	n/a
359.2635	0.1195	718527	keystroke	a	n/a
359.518	0.075	719036	keystroke	b	n/a
360.1635	0.075	720327	keystroke	Key.backspace	n/a
360.403	0.075	720806	keystroke	m	n/a
360.568	0.09	721136	keystroke	b	n/a
360.9885	0.135	721977	keystroke	Key.enter	n/a
361.1275	9.297	722255	prompt	n/a	cited findings toronto strip\n
362.2485	0.09	724497	keystroke	c	n/a
362.443	0.075	724886	keystroke	i	n/a
362.653	0.105	725306	keystroke	t	n/a
362.773	0.075	725546	keystroke	e	n/a
362.953	0.09	725906	keystroke	d	n/a
363.058	0.12	726116	keystroke	Key.space	n/a
363.179	0.074	726358	keystroke	f	n/a
363.268	0.1195	726536	keystroke	i	n/a
363.343	0.1345	726686	keystroke	n	n/a
363.4785	0.09	726957	keystroke	d	n/a
363.5825	0.091	727165	keystroke	i	n/a
363.6125	0.136	727225	keystroke	n	n/a
363.8085	0.09	727617	keystroke	g	n/a
364.0485	0.1045	728097	keystroke	s	n/a
364.243	0.12	728486	keystroke	Key.space	n/a
364.513	0.045	729026	keystroke	t	n/a
364.573	0.12	729146	keystroke	o	n/a
364.828	0.0755	729656	keystroke	r	n/a
364.9785	0.1045	729957	keystroke	o	n/a
365.158	0.105	730316	keystroke	m	n/a
365.4135	0.074	730827	keystroke	t	n/a
365.5485	0.075	731097	keystroke	o	n/a
365.9235	0.0745	731847	keystroke	Key.backspace	n/a
366.088	0.075	732176	keystroke	Key.backspace	n/a
366.613	0.0605	733226	keystroke	Key.backspace	n/a
367.003	0.075	734006	keystroke	n	n/a
367.3175	0.105	734635	keystroke	t	n/a
367.4675	0.075	734935	keystroke	o	n/a
367.6625	0.106	735325	keystroke	Key.space	n/a
367.9785	0.1345	735957	keystroke	s	n/a
368.4725	0.106	736945	keystroke	t	n/a
369.058	0.075	738116	keystroke	r	n/a
369.328	0.0595	738656	keystroke	i	n/a
369.5525	0.075	739105	keystroke	p	n/a
370.288	0.135	740576	keystroke	Key.enter	n/a
370.428	6.867	740856	prompt	n/a	top keywords normally luke\n
371.3085	0.105	742617	keystroke	t	n/a
371.7585	0.1795	743517	keystroke	o	n/a
371.923	0.09	743846	keystroke	p	n/a
372.178	0.15	744356	keystroke	Key.space	n/a
372.343	0.06	744686	keystroke	k	n/a
372.448	0.09	744896	keystroke	e	n/a
372.598	0.06	745196	keystroke	y	n/a
372.8385	0.075	745677	keystroke	w	n/a
372.9285	0.105	745857	keystroke	o	n/a
373.0635	0.0745	746127	keystroke	r	n/a
373.333	0.1355	746666	keystroke	d	n/a
373.4525	0.135	746905	keystroke	s	n/a
373.7685	0.075	747537	keystroke	Key.space	n/a
374.023	0.075	748046	keystroke	n	n/a
374.218	0.105	748436	keystroke	o	n/a
374.743	0.0895	749486	keystroke	r	n/a
374.8775	0.075	749755	keystroke	m	n/a
375.0125	0.105	750025	keystroke	a	n/a
375.3125	0.075	750625	keystroke	l	n/a
375.4625	0.091	750925	keystroke	l	n/a
375.793	0.075	751586	keystroke	y	n/a
376.0175	0.09	752035	keystroke	Key.space	n/a
376.3025	0.105	752605	keystroke	l	n/a
376.5285	0.06	753057	keystroke	u	n/a
376.7085	0.0895	753417	keystroke	k	n/a
376.8725	0.135	753745	keystroke	e	n/a
377.1725	0.12	754345	keystroke	Key.enter	n/a
377.2975	10.137	754595	prompt	n/a	defend mechanics proposal printed\n
378.0885	0.15	756177	keystroke	d	n/a
378.2075	0.105	756415	keystroke	e	n/a
378.3735	0.12	756747	keystroke	f	n/a
378.5085	0.1045	757017	keystroke	e	n/a
378.658	0.09	757316	keystroke	n	n/a
379.3325	0.105	758665	keystroke	d	n/a
379.4975	0.09	758995	keystroke	Key.space	n/a
379.7075	0.06	759415	keystroke	m	n/a
379.7835	0.059	759567	keystroke	e	n/a
379.9185	0.1345	759837	keystroke	c	n/a
380.068	0.06	760136	keystroke	h	n/a
380.188	0.0595	760376	keystroke	a	n/a
380.2925	0.075	760585	keystroke	n	n/a
380.4275	0.075	760855	keystroke	i	n/a
380.6525	0.09	761305	keystroke	c	n/a
380.8485	0.075	761697	keystroke	i	n/a
381.343	0.135	762686	keystroke	s	n/a
381.8375	0.076	763675	keystroke	Key.backspace	n/a
382.0175	0.0755	764035	keystroke	Key.backspace	n/a
382.798	0.15	765596	keystroke	s	n/a
383.0675	0.09	766135	keystroke	Key.space	n/a
383.293	0.09	766586	keystroke	p	n/a
383.458	0.09	766916	keystroke	r	n/a
383.608	0.075	767216	keystroke	o	n/a
383.788	0.09	767576	keystroke	p	n/a
383.998	0.09	767996	keystroke	o	n/a
384.1625	0.105	768325	keystroke	s	n/a
384.688	0.12	769376	keystroke	a	n/a
384.868	0.09	769736	keystroke	l	n/a
385.1225	0.12	770245	keystroke	Key.space	n/a
385.3925	0.09	770785	keystroke	p	n/a
385.5575	0.135	771115	keystroke	r	n/a
385.8575	0.105	771715	keystroke	i	n/a
386.488	0.09	772976	keystroke	n	n/a
386.623	0.135	773246	keystroke	t	n/a
386.773	0.1045	773546	keystroke	e	n/a
387.0125	0.0755	774025	keystroke	d	n/a
387.298	0.135	774596	keystroke	Key.enter	n/a
387.4375	7.2865	774875	prompt	n/a	sleeps queen readers work\n
388.1975	0.09	776395	keystroke	s	n/a
388.3025	0.105	776605	keystroke	l	n/a
388.4675	0.045	776935	keystroke	e	n/a
388.5875	0.105	777175	keystroke	e	n/a
388.722	0.091	777444	keystroke	p	n/a
388.843	0.1195	777686	keystroke	s	n/a
388.9775	0.135	777955	keystroke	Key.space	n/a
389.1575	0.075	778315	keystroke	q	n/a
389.2475	0.045	778495	keystroke	u	n/a
389.667	0.03	779334	keystroke	w	n/a
389.803	0.089	779606	keystroke	w	n/a
390.3725	0.06	780745	keystroke	Key.backspace	n/a
390.6575	0.0745	781315	keystroke	e	n/a
390.838	0.0895	781676	keystroke	e	n/a
391.198	0.075	782396	keystroke	Key.backspace	n/a
391.378	0.06	782756	keystroke	Key.backspace	n/a
391.543	0.045	783086	keystroke	Key.backspace	n/a
391.8275	0.09	783655	keystroke	e	n/a
392.0375	0.075	784075	keystroke	e	n/a
392.1875	0.09	784375	keystroke	n	n/a
392.3975	0.105	784795	keystroke	Key.space	n/a
392.563	0.1645	785126	keystroke	r	n/a
392.6525	0.12	785305	keystroke	e	n/a
392.892	0.106	785784	keystroke	a	n/a
393.013	0.12	786026	keystroke	d	n/a
393.283	0.06	786566	keystroke	e	n/a
393.298	0.105	786596	keystroke	r	n/a
393.508	0.0745	787016	keystroke	s	n/a
393.5975	0.12	787195	keystroke	Key.space	n/a
393.7325	0.09	787465	keystroke	w	n/a
393.8525	0.075	787705	keystroke	o	n/a
394.0625	0.105	788125	keystroke	r	n/a
394.1975	0.105	788395	keystroke	k	n/a
394.587	0.135	789174	keystroke	Key.enter	n/a
394.729	4.8705	789458	prompt	n/a	feet type able lord\n
395.6075	0.075	791215	keystroke	f	n/a
395.6975	0.075	791395	keystroke	e	n/a
395.8625	0.09	791725	keystroke	e	n/a
396.0425	0.105	792085	keystroke	t	n/a
396.2075	0.09	792415	keystroke	Key.space	n/a
396.3575	0.06	792715	keystroke	a	n/a
396.7625	0.0755	793525	keystroke	Key.backspace	n/a
397.033	0.09	794066	keystroke	t	n/a
397.093	0.105	794186	keystroke	y	n/a
397.228	0.075	794456	keystroke	p	n/a
397.363	0.105	794726	keystroke	e	n/a
397.498	0.074	794996	keystroke	Key.space	n/a
397.632	0.076	795264	keystroke	a	n/a
397.768	0.03	795536	keystroke	b	n/a
397.9325	0.075	795865	keystroke	l	n/a
398.0675	0.09	796135	keystroke	e	n/a
398.2025	0.09	796405	keystroke	Key.space	n/a
398.6525	0.045	797305	keystroke	l	n/a
398.7875	0.075	797575	keystroke	o	n/a
398.8775	0.075	797755	keystroke	r	n/a
399.133	0.105	798266	keystroke	d	n/a
399.4475	0.15	798895	keystroke	Key.enter	n/a
399.602	10.5875	799204	prompt	n/a	hitting thickness metadata vocabulary\n
400.588	0.075	801176	keystroke	h	n/a
400.7225	0.09	801445	keystroke	i	n/a
400.873	0.06	801746	keystroke	t	n/a
400.993	0.105	801986	keystroke	t	n/a
401.113	0.105	802226	keystroke	i	n/a
401.143	0.1195	802286	keystroke	n	n/a
401.248	0.1195	802496	keystroke	g	n/a
401.3975	0.105	802795	keystroke	Key.space	n/a
401.4875	0.105	802975	keystroke	t	n/a
401.5775	0.12	803155	keystroke	h	n/a
402.1025	0.0745	804205	keystroke	i	n/a
402.252	0.121	804504	keystroke	c	n/a
402.4025	0.09	804805	keystroke	k	n/a
402.913	0.075	805826	keystroke	n	n/a
403.0925	0.12	806185	keystroke	e	n/a
403.2425	0.075	806485	keystroke	s	n/a
403.4375	0.075	806875	keystroke	s	n/a
403.5725	0.135	807145	keystroke	Key.space	n/a
403.7225	0.105	807445	keystroke	m	n/a
403.8425	0.105	807685	keystroke	e	n/a
403.9485	0.1185	807897	keystroke	s	n/a
404.443	0.06	808886	keystroke	Key.backspace	n/a
404.518	0.075	809036	keystroke	t	n/a
404.728	0.09	809456	keystroke	a	n/a
404.9225	0.06	809845	keystroke	Key.space	n/a
405.267	0.06	810534	keystroke	Key.backspace	n/a
405.402	0.151	810804	keystroke	d	n/a
405.493	0.09	810986	keystroke	a	n/a
405.733	0.03	811466	keystroke	t	n/a
406.0925	0.09	812185	keystroke	a	n/a
406.2725	0.105	812545	keystroke	Key.space	n/a
407.098	0.089	814196	keystroke	v	n/a
407.503	0.09	815006	keystroke	o	n/a
407.638	0.1345	815276	keystroke	c	n/a
407.8025	0.09	815605	keystroke	a	n/a
408.1175	0.045	816235	keystroke	b	n/a
408.2675	0.075	816535	keystroke	u	n/a
408.4925	0.075	816985	keystroke	l	n/a
408.627	0.12	817254	keystroke	a	n/a
408.732	0.105	817464	keystroke	r	n/a
408.9425	0.015	817885	keystroke	u	n/a
409.483	0.045	818966	keystroke	Key.backspace	n/a
409.6925	0.075	819385	keystroke	y	n/a
410.1275	0.06	820255	keystroke	Key.enter	n/a
410.1925	9.1165	820385	prompt	n/a	lexmark newcastle destination exec\n
411.462	0.075	822924	keystroke	l	n/a
411.7025	0.0595	823405	keystroke	e	n/a
412.018	0.1045	824036	keystroke	x	n/a
412.153	0.1045	824306	keystroke	m	n/a
412.2575	0.09	824515	keystroke	a	n/a
412.3625	0.15	824725	keystroke	r	n/a
412.5275	0.0905	825055	keystroke	k	n/a
412.722	0.121	825444	keystroke	Key.space	n/a
412.993	0.06	825986	keystroke	n	n/a
413.098	0.1045	826196	keystroke	e	n/a
413.3525	0.075	826705	keystroke	w	n/a
413.8475	0.135	827695	keystroke	c	n/a
413.9675	0.1045	827935	keystroke	a	n/a
414.102	0.075	828204	keystroke	s	n/a
414.3125	0.105	828625	keystroke	t	n/a
414.4775	0.105	828955	keystroke	l	n/a
414.5975	0.075	829195	keystroke	e	n/a
415.033	0.1345	830066	keystroke	Key.space	n/a
415.4975	0.09	830995	keystroke	d	n/a
415.9175	0.09	831835	keystroke	e	n/a
416.142	0.045	832284	keystroke	s	n/a
416.382	0.03	832764	keystroke	t	n/a
416.472	0.1205	832944	keystroke	i	n/a
416.6075	0.165	833215	keystroke	n	n/a
416.7875	0.0895	833575	keystroke	a	n/a
416.967	0.09	833934	keystroke	t	n/a
417.102	0.091	834204	keystroke	i	n/a
417.328	0.105	834656	keystroke	o	n/a
417.5075	0.12	835015	keystroke	n	n/a
417.7475	0.135	835495	keystroke	Key.space	n/a
418.1675	0.075	836335	keystroke	e	n/a
418.452	0.105	836904	keystroke	x	n/a
418.7375	0.06	837475	keystroke	e	n/a
418.9625	0.105	837925	keystroke	c	n/a
419.1275	0.1795	838255	keystroke	Key.enter	n/a
419.3115	10.6325	838623	prompt	n/a	consists gambling happened combined\n
420.132	0.09	840264	keystroke	c	n/a
420.313	0.09	840626	keystroke	o	n/a
420.357	0.121	840714	keystroke	n	n/a
420.508	0.1045	841016	keystroke	s	n/a
420.6275	0.105	841255	keystroke	i	n/a
420.7475	0.0895	841495	keystroke	s	n/a
420.957	0.12	841914	keystroke	t	n/a
421.137	0.06	842274	keystroke	e	n/a
421.558	0.0595	843116	keystroke	Key.backspace	n/a
421.7075	0.06	843415	keystroke	s	n/a
421.7975	0.12	843595	keystroke	Key.space	n/a
422.0075	0.06	844015	keystroke	c	n/a
422.3225	0.09	844645	keystroke	Key.backspace	n/a
422.4725	0.0755	844945	keystroke	g	n/a
422.6825	0.075	845365	keystroke	a	n/a
422.7725	0.0895	845545	keystroke	m	n/a
422.982	0.135	845964	keystroke	p	n/a
423.118	0.104	846236	keystroke	l	n/a
423.5075	0.06	847015	keystroke	Key.backspace	n/a
423.6575	0.06	847315	keystroke	Key.backspace	n/a
424.7525	0.075	849505	keystroke	b	n/a
424.9325	0.075	849865	keystroke	l	n/a
425.1425	0.165	850285	keystroke	i	n/a
425.2325	0.12	850465	keystroke	n	n/a
425.4875	0.0895	850975	keystroke	g	n/a
425.622	0.12	851244	keystroke	Key.space	n/a
425.952	0.075	851904	keystroke	h	n/a
426.117	0.106	852234	keystroke	a	n/a
426.298	0.015	852596	keystroke	p	n/a
426.7775	0.0745	853555	keystroke	p	n/a
426.987	0.09	853974	keystroke	e	n/a
427.108	0.12	854216	keystroke	n	n/a
427.243	0.075	854486	keystroke	e	n/a
427.453	0.1045	854906	keystroke	d	n/a
427.6175	0.12	855235	keystroke	Key.space	n/a
427.8275	0.105	855655	keystroke	c	n/a
427.9025	0.1345	855805	keystroke	o	n/a
428.4125	0.075	856825	keystroke	m	n/a
428.7125	0.06	857425	keystroke	b	n/a
428.922	0.0755	857844	keystroke	i	n/a
428.937	0.165	857874	keystroke	n	n/a
429.147	0.135	858294	keystroke	e	n/a
429.4475	0.135	858895	keystroke	d	n/a
429.8375	0.105	859675	keystroke	Key.enter	n/a
429.9465	10.1675	859893	prompt	n/a	dedicated underlying governor they\n
430.9475	0.1195	861895	keystroke	d	n/a
431.0825	0.105	862165	keystroke	e	n/a
431.1875	0.12	862375	keystroke	d	n/a
431.3525	0.09	862705	keystroke	i	n/a
431.4725	0.15	862945	keystroke	c	n/a
431.6675	0.045	863335	keystroke	a	n/a
431.847	0.061	863694	keystroke	t	n/a
431.922	0.105	863844	keystroke	e	n/a
432.3125	0.105	864625	keystroke	d	n/a
432.4775	0.135	864955	keystroke	Key.space	n/a
432.7325	0.165	865465	keystroke	n	n/a
432.7475	0.015	865495	keystroke	u	n/a
432.8075	0.045	865615	keystroke	u	n/a
433.3925	0.075	866785	keystroke	Key.backspace	n/a
433.5725	0.045	867145	keystroke	Key.backspace	n/a
433.7375	0.075	867475	keystroke	Key.backspace	n/a
434.277	0.09	868554	keystroke	u	n/a
434.397	0.105	868794	keystroke	n	n/a
434.637	0.105	869274	keystroke	d	n/a
434.8325	0.15	869665	keystroke	e	n/a
434.9375	0.1355	869875	keystroke	r	n/a
435.088	0.0895	870176	keystroke	l	n/a
435.3725	0.09	870745	keystroke	y	n/a
435.5825	0.12	871165	keystroke	i	n/a
435.6275	0.195	871255	keystroke	n	n/a
435.8525	0.135	871705	keystroke	g	n/a
436.0025	0.105	872005	keystroke	Key.space	n/a
436.467	0.06	872934	keystroke	f	n/a
436.767	0.0905	873534	keystroke	Key.backspace	n/a
437.0525	0.075	874105	keystroke	g	n/a
437.1725	0.075	874345	keystroke	o	n/a
438.148	0.0895	876296	keystroke	v	n/a
438.3575	0.135	876715	keystroke	e	n/a
438.4475	0.12	876895	keystroke	r	n/a
438.5825	0.075	877165	keystroke	n	n/a
438.7925	0.09	877585	keystroke	o	n/a
438.9575	0.12	877915	keystroke	r	n/a
439.0925	0.0895	878185	keystroke	Key.space	n/a
439.242	0.09	878484	keystroke	t	n/a
439.362	0.075	878724	keystroke	h	n/a
439.452	0.12	878904	keystroke	e	n/a
439.573	0.059	879146	keystroke	y	n/a
440.0225	0.09	880045	keystroke	Key.enter	n/a
440.117	8.097	880234	prompt	n/a	thoroughly receptors japan treaty\n
440.937	0.09	881874	keystroke	t	n/a
441.042	0.06	882084	keystroke	h	n/a
441.252	0.09	882504	keystroke	o	n/a
441.417	0.106	882834	keystroke	r	n/a
441.582	0.09	883164	keystroke	o	n/a
441.718	0.0895	883436	keystroke	u	n/a
441.8675	0.075	883735	keystroke	g	n/a
441.9725	0.06	883945	keystroke	h	n/a
442.1675	0.075	884335	keystroke	l	n/a
442.6175	0.0445	885235	keystroke	y	n/a
442.752	0.12	885504	keystroke	Key.space	n/a
442.977	0.12	885954	keystroke	r	n/a
443.052	0.135	886104	keystroke	e	n/a
443.277	0.12	886554	keystroke	c	n/a
443.412	0.1205	886824	keystroke	e	n/a
443.562	0.1055	887124	keystroke	p	n/a
443.7575	0.09	887515	keystroke	t	n/a
444.1325	0.075	888265	keystroke	o	n/a
444.2675	0.105	888535	keystroke	r	n/a
444.537	0.105	889074	keystroke	s	n/a
444.687	0.12	889374	keystroke	Key.space	n/a
445.407	0.105	890814	keystroke	j	n/a
445.647	0.045	891294	keystroke	a	n/a
445.977	0.0895	891954	keystroke	p	n/a
446.1425	0.12	892285	keystroke	a	n/a
446.3075	0.09	892615	keystroke	n	n/a
446.5175	0.105	893035	keystroke	Key.space	n/a
446.7425	0.1495	893485	keystroke	t	n/a
446.8175	0.1195	893635	keystroke	r	n/a
447.042	0.105	894084	keystroke	e	n/a
447.132	0.15	894264	keystroke	a	n/a
447.507	0.105	895014	keystroke	t	n/a
447.732	0.0895	895464	keystroke	y	n/a
448.0625	0.15	896125	keystroke	Key.enter	n/a
448.217	10.8715	896434	prompt	n/a	puzzles emotions basement bacon\n
448.9315	0.091	897863	keystroke	p	n/a
449.1725	0.075	898345	keystroke	u	n/a
449.5775	0.015	899155	keystroke	x	n/a
450.402	0.09	900804	keystroke	Key.backspace	n/a
450.6715	0.105	901343	keystroke	z	n/a
450.882	0.09	901764	keystroke	z	n/a
451.092	0.0455	902184	keystroke	l	n/a
451.512	0.12	903024	keystroke	e	n/a
451.7815	0.06	903563	keystroke	s	n/a
451.8715	0.136	903743	keystroke	Key.space	n/a
452.0825	0.105	904165	keystroke	m	n/a
452.2325	0.1195	904465	keystroke	e	n/a
452.3375	0.1045	904675	keystroke	o	n/a
452.817	0.03	905634	keystroke	Key.backspace	n/a
452.9525	0.09	905905	keystroke	Key.backspace	n/a
453.1175	0.06	906235	keystroke	Key.backspace	n/a
453.267	0.075	906534	keystroke	e	n/a
453.3715	0.09	906743	keystroke	m	n/a
453.9725	0.0745	907945	keystroke	o	n/a
454.197	0.0895	908394	keystroke	t	n/a
454.3315	0.075	908663	keystroke	i	n/a
454.4965	0.1355	908993	keystroke	o	n/a
454.617	0.075	909234	keystroke	n	n/a
454.9025	0.105	909805	keystroke	s	n/a
455.112	0.075	910224	keystroke	Key.space	n/a
455.832	0.06	911664	keystroke	b	n/a
455.922	0.1495	911844	keystroke	a	n/a
456.0415	0.12	912083	keystroke	s	n/a
456.1465	0.135	912293	keystroke	e	n/a
456.3115	0.091	912623	keystroke	m	n/a
456.4615	0.09	912923	keystroke	e	n/a
456.5365	0.1055	913073	keystroke	n	n/a
456.747	0.0905	913494	keystroke	t	n/a
456.8675	0.135	913735	keystroke	Key.space	n/a
457.302	0.09	914604	keystroke	b	n/a
457.437	0.195	914874	keystroke	a	n/a
457.587	0.105	915174	keystroke	s	n/a
458.142	0.075	916284	keystroke	Key.backspace	n/a
458.307	0.1345	916614	keystroke	c	n/a
458.4565	0.12	916913	keystroke	o	n/a
458.5465	0.091	917093	keystroke	n	n/a
459.012	0.075	918024	keystroke	Key.enter	n/a
459.0915	8.397	918183	prompt	n/a	identification chris alter peripheral\n
459.8525	0.074	919705	keystroke	i	n/a
459.972	0.18	919944	keystroke	d	n/a
460.107	0.12	920214	keystroke	e	n/a
460.242	0.105	920484	keystroke	n	n/a
460.5715	0.06	921143	keystroke	t	n/a
460.707	0.09	921414	keystroke	i	n/a
460.9165	0.075	921833	keystroke	f	n/a
461.0815	0.076	922163	keystroke	i	n/a
461.2625	0.12	922525	keystroke	c	n/a
461.4125	0.075	922825	keystroke	a	n/a
461.562	0.135	923124	keystroke	t	n/a
461.712	0.075	923424	keystroke	i	n/a
461.907	0.075	923814	keystroke	o	n/a
461.937	0.135	923874	keystroke	n	n/a
462.252	0.0895	924504	keystroke	Key.space	n/a
462.4315	0.105	924863	keystroke	c	n/a
462.5665	0.105	925133	keystroke	h	n/a
462.7165	0.121	925433	keystroke	r	n/a
462.8675	0.0895	925735	keystroke	i	n/a
463.107	0.1355	926214	keystroke	s	n/a
463.3025	0.0895	926605	keystroke	Key.space	n/a
463.5865	0.135	927173	keystroke	a	n/a
463.8415	0.076	927683	keystroke	l	n/a
464.0075	0.12	928015	keystroke	t	n/a
464.3225	0.1795	928645	keystroke	e	n/a
464.547	0.105	929094	keystroke	r	n/a
464.967	0.15	929934	keystroke	Key.space	n/a
465.4315	0.135	930863	keystroke	p	n/a
465.6565	0.106	931313	keystroke	e	n/a
465.7475	0.105	931495	keystroke	r	n/a
466.0025	0.075	932005	keystroke	i	n/a
466.242	0.0745	932484	keystroke	p	n/a
466.4665	0.09	932933	keystroke	h	n/a
466.6615	0.061	933323	keystroke	e	n/a
466.7065	0.106	933413	keystroke	r	n/a
466.8875	0.105	933775	keystroke	a	n/a
466.9925	0.0745	933985	keystroke	l	n/a
467.3375	0.15	934675	keystroke	Key.enter	n/a
467.492	6.0715	934984	prompt	n/a	patches shift settings faces\n
468.282	0.105	936564	keystroke	p	n/a
468.388	0.104	936776	keystroke	a	n/a
468.567	0.0895	937134	keystroke	t	n/a
468.7915	0.1055	937583	keystroke	c	n/a
469.0175	0.059	938035	keystroke	h	n/a
469.1365	0.076	938273	keystroke	e	n/a
469.3625	0.09	938725	keystroke	s	n/a
469.4675	0.09	938935	keystroke	Key.space	n/a
469.617	0.09	939234	keystroke	s	n/a
469.707	0.15	939414	keystroke	h	n/a
469.857	0.075	939714	keystroke	i	n/a
469.977	0.12	939954	keystroke	f	n/a
470.232	0.105	940464	keystroke	t	n/a
470.472	0.12	940944	keystroke	Key.space	n/a
470.862	0.105	941724	keystroke	s	n/a
471.102	0.09	942204	keystroke	e	n/a
471.267	0.09	942534	keystroke	t	n/a
471.447	0.09	942894	keystroke	t	n/a
471.5665	0.135	943133	keystroke	i	n/a
471.6265	0.15	943253	keystroke	n	n/a
471.8215	0.09	943643	keystroke	g	n/a
472.1375	0.105	944275	keystroke	s	n/a
472.2865	0.121	944573	keystroke	Key.space	n/a
472.692	0.075	945384	keystroke	f	n/a
472.812	0.12	945624	keystroke	a	n/a
472.992	0.105	945984	keystroke	c	n/a
473.082	0.075	946164	keystroke	e	n/a
473.2775	0.105	946555	keystroke	s	n/a
473.4275	0.1345	946855	keystroke	Key.enter	n/a
473.5665	12.7325	947133	prompt	n/a	xanax vacations tournaments connectivity\n
475.0325	0.09	950065	keystroke	x	n/a
475.2275	0.105	950455	keystroke	a	n/a
475.3625	0.0895	950725	keystroke	n	n/a
475.497	0.105	950994	keystroke	a	n/a
475.7975	0.0745	951595	keystroke	c	n/a
476.007	0.09	952014	keystroke	Key.space	n/a
476.277	0.0905	952554	keystroke	v	n/a
476.7725	0.059	953545	keystroke	Key.backspace	n/a
476.9225	0.06	953845	keystroke	Key.backspace	n/a
477.087	0.06	954174	keystroke	Key.backspace	n/a
477.2365	0.09	954473	keystroke	x	n/a
477.5065	0.06	955013	keystroke	Key.space	n/a
478.122	0.075	956244	keystroke	v	n/a
478.3165	0.09	956633	keystroke	a	n/a
478.3915	0.15	956783	keystroke	c	n/a
478.5575	0.104	957115	keystroke	a	n/a
478.7375	0.1045	957475	keystroke	i	n/a
478.917	0.105	957834	keystroke	t	n/a
479.8775	0.045	959755	keystroke	Key.backspace	n/a
480.0125	0.075	960025	keystroke	Key.backspace	n/a
480.1625	0.06	960325	keystroke	t	n/a
480.282	0.075	960564	keystroke	i	n/a
480.477	0.1045	960954	keystroke	o	n/a
480.6265	0.12	961253	keystroke	n	n/a
480.7915	0.15	961583	keystroke	s	n/a
480.9565	0.135	961913	keystroke	Key.space	n/a
481.5575	0.0895	963115	keystroke	t	n/a
481.692	0.105	963384	keystroke	o	n/a
481.767	0.09	963534	keystroke	u	n/a
481.902	0.09	963804	keystroke	r	n/a
482.007	0.075	964014	keystroke	n	n/a
482.157	0.09	964314	keystroke	a	n/a
482.607	0.0895	965214	keystroke	m	n/a
482.8015	0.105	965603	keystroke	e	n/a
482.8915	0.075	965783	keystroke	n	n/a
483.0425	0.09	966085	keystroke	t	n/a
483.2825	0.075	966565	keystroke	s	n/a
483.4775	0.0445	966955	keystroke	Key.space	n/a
483.7915	0.0755	967583	keystroke	c	n/a
483.897	0.06	967794	keystroke	o	n/a
484.062	0.06	968124	keystroke	n	n/a
484.197	0.075	968394	keystroke	n	n/a
484.347	0.09	968694	keystroke	e	n/a
484.4815	0.135	968963	keystroke	c	n/a
485.097	0.075	970194	keystroke	t	n/a
485.247	0.075	970494	keystroke	i	n/a
485.442	0.1055	970884	keystroke	v	n/a
485.5625	0.0745	971125	keystroke	i	n/a
485.682	0.12	971364	keystroke	t	n/a
485.862	0.105	971724	keystroke	y	n/a
486.177	0.12	972354	keystroke	Key.enter	n/a
486.3015	7.002	972603	prompt	n/a	alleged bracelet past version\n
487.2275	0.12	974455	keystroke	a	n/a
487.3775	0.0895	974755	keystroke	l	n/a
487.542	0.09	975084	keystroke	l	n/a
488.112	0.075	976224	keystroke	e	n/a
488.278	0.0735	976556	keystroke	g	n/a
488.3965	0.105	976793	keystroke	e	n/a
488.6065	0.105	977213	keystroke	d	n/a
488.7265	0.1205	977453	keystroke	Key.space	n/a
488.937	0.105	977874	keystroke	b	n/a
489.043	0.119	978086	keystroke	r	n/a
489.2965	0.075	978593	keystroke	a	n/a
489.4915	0.105	978983	keystroke	c	n/a
489.5815	0.105	979163	keystroke	e	n/a
489.7915	0.105	979583	keystroke	l	n/a
490.0315	0.12	980063	keystroke	e	n/a
490.1665	0.12	980333	keystroke	t	n/a
490.4525	0.1195	980905	keystroke	Key.space	n/a
491.0515	0.151	982103	keystroke	p	n/a
491.2165	0.03	982433	keystroke	a	n/a
491.2315	0.136	982463	keystroke	s	n/a
491.442	0.105	982884	keystroke	t	n/a
491.562	0.12	983124	keystroke	Key.space	n/a
491.8015	0.06	983603	keystroke	v	n/a
491.9515	0.09	983903	keystroke	e	n/a
491.9965	0.12	983993	keystroke	r	n/a
492.1765	0.24	984353	keystroke	s	n/a
492.2975	0.09	984595	keystroke	i	n/a
492.5075	0.1195	985015	keystroke	o	n/a
492.642	0.225	985284	keystroke	n	n/a
493.167	0.135	986334	keystroke	Key.enter	n/a
493.308	9.4755	986616	prompt	n/a	track spokesman haiti observation\n
494.0515	0.165	988103	keystroke	t	n/a
494.2615	0.045	988523	keystroke	r	n/a
494.4425	0.1045	988885	keystroke	a	n/a
494.532	0.165	989064	keystroke	c	n/a
494.742	0.09	989484	keystroke	k	n/a
494.937	0.105	989874	keystroke	Key.space	n/a
495.072	0.12	990144	keystroke	s	n/a
495.177	0.1195	990354	keystroke	p	n/a
495.537	0.045	991074	keystroke	o	n/a
495.822	0.12	991644	keystroke	k	n/a
496.047	0.09	992094	keystroke	e	n/a
496.347	0.09	992694	keystroke	s	n/a
496.497	0.09	992994	keystroke	m	n/a
496.692	0.1045	993384	keystroke	a	n/a
496.8565	0.091	993713	keystroke	n	n/a
497.307	0.1195	994614	keystroke	Key.space	n/a
497.5465	0.09	995093	keystroke	h	n/a
497.6815	0.121	995363	keystroke	a	n/a
497.8615	0.076	995723	keystroke	i	n/a
498.072	0.045	996144	keystroke	t	n/a
498.162	0.1045	996324	keystroke	i	n/a
498.3265	0.15	996653	keystroke	Key.space	n/a
498.5965	0.075	997193	keystroke	o	n/a
498.8975	0.0895	997795	keystroke	b	n/a
499.091	0.091	998182	keystroke	e	n/a
499.152	0.12	998304	keystroke	r	n/a
499.692	0.075	999384	keystroke	Key.backspace	n/a
499.827	0.105	999654	keystroke	Key.backspace	n/a
499.962	0.1045	999924	keystroke	s	n/a
500.1865	0.12	1000373	keystroke	e	n/a
500.2465	0.15	1000493	keystroke	r	n/a
500.7425	0.075	1001485	keystroke	v	n/a
500.907	0.105	1001814	keystroke	a	n/a
501.072	0.105	1002144	keystroke	t	n/a
501.177	0.09	1002354	keystroke	i	n/a
501.357	0.09	1002714	keystroke	o	n/a
501.432	0.18	1002864	keystroke	n	n/a
501.8965	0.105	1003793	keystroke	s	n/a
502.3465	0.09	1004693	keystroke	Key.backspace	n/a
502.676	0.106	1005352	keystroke	Key.enter	n/a
502.7865	7.107	1005573	prompt	n/a	planner ignore reality derek\n
503.6665	0.1205	1007333	keystroke	p	n/a
503.877	0.09	1007754	keystroke	l	n/a
504.087	0.105	1008174	keystroke	a	n/a
504.2215	0.0755	1008443	keystroke	n	n/a
504.357	0.0895	1008714	keystroke	n	n/a
504.5365	0.1345	1009073	keystroke	e	n/a
504.6415	0.1355	1009283	keystroke	r	n/a
504.7915	0.15	1009583	keystroke	Key.space	n/a
504.9565	0.12	1009913	keystroke	i	n/a
505.1215	0.135	1010243	keystroke	f	n/a
505.2865	0.09	1010573	keystroke	n	n/a
505.766	0.045	1011532	keystroke	Key.backspace	n/a
505.887	0.105	1011774	keystroke	Key.backspace	n/a
506.052	0.09	1012104	keystroke	g	n/a
506.217	0.075	1012434	keystroke	n	n/a
506.412	0.06	1012824	keystroke	o	n/a
506.5765	0.135	1013153	keystroke	r	n/a
506.6815	0.105	1013363	keystroke	e	n/a
506.9515	0.1205	1013903	keystroke	Key.space	n/a
507.4165	0.121	1014833	keystroke	r	n/a
507.5065	0.106	1015013	keystroke	e	n/a
507.717	0.09	1015434	keystroke	a	n/a
507.867	0.075	1015734	keystroke	l	n/a
508.047	0.075	1016094	keystroke	i	n/a
508.167	0.09	1016334	keystroke	t	n/a
508.347	0.075	1016694	keystroke	y	n/a
508.527	0.105	1017054	keystroke	Key.space	n/a
508.7215	0.15	1017443	keystroke	d	n/a
508.9015	0.12	1017803	keystroke	e	n/a
509.0365	0.165	1018073	keystroke	r	n/a
509.1565	0.105	1018313	keystroke	e	n/a
509.3365	0.12	1018673	keystroke	k	n/a
509.7715	0.12	1019543	keystroke	Key.enter	n/a
509.896	7.2875	1019792	prompt	n/a	brother reduce magazines offered\n
510.7015	0.075	1021403	keystroke	b	n/a
510.852	0.075	1021704	keystroke	r	n/a
510.942	0.09	1021884	keystroke	o	n/a
511.091	0.105	1022182	keystroke	t	n/a
511.197	0.105	1022394	keystroke	h	n/a
511.347	0.135	1022694	keystroke	e	n/a
511.437	0.12	1022874	keystroke	r	n/a
511.572	0.15	1023144	keystroke	Key.space	n/a
511.737	0.09	1023474	keystroke	r	n/a
511.797	0.105	1023594	keystroke	e	n/a
512.156	0.12	1024312	keystroke	d	n/a
512.337	0.12	1024674	keystroke	u	n/a
512.517	0.1345	1025034	keystroke	c	n/a
512.6965	0.12	1025393	keystroke	e	n/a
512.8915	0.135	1025783	keystroke	Key.space	n/a
513.1315	0.105	1026263	keystroke	m	n/a
513.267	0.12	1026534	keystroke	a	n/a
514.062	0.015	1028124	keystroke	g	n/a
514.167	0.09	1028334	keystroke	a	n/a
514.3915	0.1355	1028783	keystroke	z	n/a
514.571	0.136	1029142	keystroke	i	n/a
514.6765	0.1055	1029353	keystroke	n	n/a
514.902	0.09	1029804	keystroke	e	n/a
515.352	0.105	1030704	keystroke	s	n/a
515.577	0.105	1031154	keystroke	Key.space	n/a
515.7865	0.075	1031573	keystroke	o	n/a
515.9665	0.075	1031933	keystroke	f	n/a
516.1465	0.075	1032293	keystroke	f	n/a
516.3115	0.075	1032623	keystroke	e	n/a
516.3715	0.165	1032743	keystroke	r	n/a
516.4915	0.105	1032983	keystroke	e	n/a
516.731	0.1355	1033462	keystroke	d	n/a
517.0315	0.15	1034063	keystroke	Key.enter	n/a
517.186	5.607	1034372	prompt	n/a	italy packs star resist\n
518.0815	0.075	1036163	keystroke	i	n/a
518.2315	0.0755	1036463	keystroke	t	n/a
518.4115	0.105	1036823	keystroke	a	n/a
518.5765	0.1045	1037153	keystroke	l	n/a
518.787	0.09	1037574	keystroke	y	n/a
518.937	0.135	1037874	keystroke	Key.space	n/a
519.132	0.09	1038264	keystroke	p	n/a
519.252	0.105	1038504	keystroke	a	n/a
519.417	0.1345	1038834	keystroke	c	n/a
519.5965	0.075	1039193	keystroke	k	n/a
519.8515	0.105	1039703	keystroke	s	n/a
520.1665	0.135	1040333	keystroke	Key.space	n/a
520.331	0.09	1040662	keystroke	s	n/a
520.527	0.12	1041054	keystroke	t	n/a
520.751	0.136	1041502	keystroke	a	n/a
520.872	0.15	1041744	keystroke	r	n/a
521.082	0.105	1042164	keystroke	Key.space	n/a
521.292	0.165	1042584	keystroke	r	n/a
521.412	0.1045	1042824	keystroke	e	n/a
521.6215	0.12	1043243	keystroke	s	n/a
521.8315	0.12	1043663	keystroke	i	n/a
522.0265	0.105	1044053	keystroke	s	n/a
522.311	0.105	1044622	keystroke	t	n/a
522.672	0.12	1045344	keystroke	Key.enter	n/a
522.7955	6.478	1045591	prompt	n/a	earth electric lauren friend\n
523.692	0.12	1047384	keystroke	e	n/a
523.827	0.12	1047654	keystroke	a	n/a
523.917	0.15	1047834	keystroke	r	n/a
524.187	0.1345	1048374	keystroke	t	n/a
524.3515	0.075	1048703	keystroke	h	n/a
524.5315	0.1505	1049063	keystroke	Key.space	n/a
524.922	0.12	1049844	keystroke	e	n/a
525.117	0.09	1050234	keystroke	l	n/a
525.222	0.105	1050444	keystroke	e	n/a
525.4465	0.105	1050893	keystroke	c	n/a
525.7015	0.12	1051403	keystroke	t	n/a
525.7915	0.09	1051583	keystroke	r	n/a
525.9715	0.0905	1051943	keystroke	i	n/a
526.377	0.1495	1052754	keystroke	c	n/a
526.5415	0.105	1053083	keystroke	Key.space	n/a
526.7515	0.075	1053503	keystroke	l	n/a
527.0665	0.09	1054133	keystroke	a	n/a
527.1865	0.105	1054373	keystroke	u	n/a
527.3365	0.1205	1054673	keystroke	r	n/a
527.397	0.1495	1054794	keystroke	e	n/a
527.8315	0.09	1055663	keystroke	n	n/a
528.0115	0.1355	1056023	keystroke	Key.space	n/a
528.252	0.1345	1056504	keystroke	f	n/a
528.342	0.1045	1056684	keystroke	r	n/a
528.4615	0.075	1056923	keystroke	i	n/a
528.5815	0.09	1057163	keystroke	e	n/a
528.6865	0.12	1057373	keystroke	n	n/a
528.8365	0.12	1057673	keystroke	d	n/a
529.0915	0.18	1058183	keystroke	Key.enter	n/a
529.277	14.8465	1058554	prompt	n/a	disappointed niagara delhi expo\n
530.1715	0.105	1060343	keystroke	d	n/a
530.3065	0.1045	1060613	keystroke	i	n/a
530.471	0.106	1060942	keystroke	s	n/a
530.622	0.09	1061244	keystroke	a	n/a
531.252	0.0745	1062504	keystroke	p	n/a
531.4015	0.09	1062803	keystroke	o	n/a
531.5515	0.075	1063103	keystroke	o	n/a
532.137	0.06	1064274	keystroke	Key.backspace	n/a
532.272	0.075	1064544	keystroke	Key.backspace	n/a
532.4065	0.09	1064813	keystroke	p	n/a
532.6915	0.105	1065383	keystroke	i	n/a
532.7665	0.1195	1065533	keystroke	n	n/a
532.977	0.15	1065954	keystroke	t	n/a
533.142	0.09	1066284	keystroke	e	n/a
533.666	0.045	1067332	keystroke	Key.backspace	n/a
533.816	0.045	1067632	keystroke	Key.backspace	n/a
533.951	0.09	1067902	keystroke	Key.backspace	n/a
534.207	0.15	1068414	keystroke	o	n/a
534.5665	0.075	1069133	keystroke	Key.backspace	n/a
534.7465	0.03	1069493	keystroke	Key.backspace	n/a
534.9115	0.075	1069823	keystroke	o	n/a
535.526	0.0455	1071052	keystroke	n	n/a
535.9165	0.045	1071833	keystroke	Key.backspace	n/a
536.1265	0.1345	1072253	keystroke	i	n/a
536.2165	0.0895	1072433	keystroke	n	n/a
536.336	0.21	1072672	keystroke	t	n/a
536.576	0.15	1073152	keystroke	e	n/a
536.892	0.1195	1073784	keystroke	d	n/a
537.1015	0.075	1074203	keystroke	Key.space	n/a
537.4915	0.075	1074983	keystroke	n	n/a
537.6565	0.075	1075313	keystroke	i	n/a
537.8515	0.06	1075703	keystroke	a	n/a
538.0765	0.075	1076153	keystroke	g	n/a
538.316	0.135	1076632	keystroke	a	n/a
538.541	0.105	1077082	keystroke	r	n/a
539.787	0.12	1079574	keystroke	a	n/a
540.372	0.1345	1080744	keystroke	Key.space	n/a
541.122	0.1345	1082244	keystroke	d	n/a
541.3315	0.12	1082663	keystroke	e	n/a
541.6315	0.09	1083263	keystroke	l	n/a
541.8865	0.105	1083773	keystroke	h	n/a
542.0815	0.09	1084163	keystroke	i	n/a
542.366	0.0905	1084732	keystroke	Key.space	n/a
542.7715	0.0895	1085543	keystroke	e	n/a
543.222	0.135	1086444	keystroke	x	n/a
543.402	0.165	1086804	keystroke	p	n/a
543.597	0.1045	1087194	keystroke	o	n/a
543.9865	0.135	1087973	keystroke	Key.enter	n/a
544.1255	6.148	1088251	prompt	n/a	robbie shadow reveal involved\n
545.007	0.09	1090014	keystroke	r	n/a
545.112	0.09	1090224	keystroke	o	n/a
545.352	0.045	1090704	keystroke	b	n/a
545.4715	0.075	1090943	keystroke	b	n/a
545.6365	0.075	1091273	keystroke	i	n/a
545.8315	0.09	1091663	keystroke	e	n/a
545.9515	0.09	1091903	keystroke	Key.space	n/a
546.1165	0.12	1092233	keystroke	s	n/a
546.2515	0.075	1092503	keystroke	h	n/a
546.371	0.105	1092742	keystroke	a	n/a
546.596	0.121	1093192	keystroke	d	n/a
546.762	0.0895	1093524	keystroke	o	n/a
547.077	0.09	1094154	keystroke	w	n/a
547.317	0.105	1094634	keystroke	Key.space	n/a
547.452	0.135	1094904	keystroke	r	n/a
547.557	0.075	1095114	keystroke	e	n/a
547.752	0.1345	1095504	keystroke	v	n/a
547.902	0.1045	1095804	keystroke	e	n/a
548.0815	0.135	1096163	keystroke	a	n/a
548.2465	0.15	1096493	keystroke	l	n/a
548.4415	0.15	1096883	keystroke	Key.space	n/a
548.6665	0.075	1097333	keystroke	i	n/a
548.7715	0.105	1097543	keystroke	n	n/a
548.9965	0.15	1097993	keystroke	v	n/a
549.1615	0.045	1098323	keystroke	o	n/a
549.341	0.09	1098682	keystroke	l	n/a
549.491	0.135	1098982	keystroke	v	n/a
549.656	0.09	1099312	keystroke	e	n/a
549.867	0.1195	1099734	keystroke	d	n/a
550.256	0.015	1100512	keystroke	Key.enter	n/a
550.2765	6.9115	1100553	prompt	n/a	sequence threshold showing in\n
551.4115	0.06	1102823	keystroke	s	n/a
551.4865	0.105	1102973	keystroke	e	n/a
551.7115	0.105	1103423	keystroke	q	n/a
551.8765	0.1055	1103753	keystroke	u	n/a
552.012	0.1195	1104024	keystroke	e	n/a
552.1615	0.1045	1104323	keystroke	n	n/a
552.326	0.12	1104652	keystroke	c	n/a
552.431	0.105	1104862	keystroke	e	n/a
552.596	0.105	1105192	keystroke	Key.space	n/a
553.0315	0.09	1106063	keystroke	t	n/a
553.1815	0.1045	1106363	keystroke	h	n/a
553.331	0.135	1106662	keystroke	r	n/a
553.436	0.105	1106872	keystroke	e	n/a
553.707	0.074	1107414	keystroke	s	n/a
553.842	0.075	1107684	keystroke	h	n/a
554.366	0.06	1108732	keystroke	o	n/a
554.6665	0.1045	1109333	keystroke	l	n/a
555.0415	0.12	1110083	keystroke	d	n/a
555.2815	0.12	1110563	keystroke	Key.space	n/a
555.4765	0.1045	1110953	keystroke	s	n/a
555.596	0.075	1111192	keystroke	h	n/a
555.791	0.09	1111582	keystroke	o	n/a
555.896	0.105	1111792	keystroke	w	n/a
556.077	0.09	1112154	keystroke	i	n/a
556.107	0.15	1112214	keystroke	n	n/a
556.3465	0.0895	1112693	keystroke	g	n/a
556.451	0.12	1112902	keystroke	Key.space	n/a
556.601	0.135	1113202	keystroke	i	n/a
556.691	0.1205	1113382	keystroke	n	n/a
557.0365	0.15	1114073	keystroke	Key.enter	n/a
557.1905	17.113	1114381	prompt	n/a	someone occurrence maximize atmosphere\n
558.012	0.075	1116024	keystroke	s	n/a
558.117	0.1345	1116234	keystroke	o	n/a
558.2065	0.15	1116413	keystroke	m	n/a
558.431	0.075	1116862	keystroke	e	n/a
558.536	0.165	1117072	keystroke	o	n/a
558.641	0.105	1117282	keystroke	n	n/a
558.7915	0.105	1117583	keystroke	e	n/a
558.9565	0.09	1117913	keystroke	Key.space	n/a
559.1365	0.06	1118273	keystroke	o	n/a
559.3165	0.0595	1118633	keystroke	c	n/a
559.511	0.06	1119022	keystroke	c	n/a
559.631	0.09	1119262	keystroke	u	n/a
559.797	0.135	1119594	keystroke	r	n/a
559.917	0.09	1119834	keystroke	e	n/a
560.037	0.09	1120074	keystroke	n	n/a
560.2315	0.12	1120463	keystroke	c	n/a
560.3815	0.06	1120763	keystroke	e	n/a
560.5315	0.105	1121063	keystroke	Key.space	n/a
560.7265	0.0905	1121453	keystroke	m	n/a
560.876	0.106	1121752	keystroke	a	n/a
561.521	0.105	1123042	keystroke	x	n/a
561.6715	0.09	1123343	keystroke	i	n/a
561.8515	0.105	1123703	keystroke	m	n/a
561.9865	0.105	1123973	keystroke	i	n/a
562.1965	0.06	1124393	keystroke	z	n/a
562.481	0.03	1124962	keystroke	e	n/a
562.646	0.105	1125292	keystroke	Key.space	n/a
569.789	0.028	1139578	keystroke	a	n/a
569.907	0.09	1139814	keystroke	t	n/a
570.0115	0.15	1140023	keystroke	m	n/a
570.1465	0.12	1140293	keystroke	o	n/a
570.3565	0.09	1140713	keystroke	s	n/a
570.5965	0.075	1141193	keystroke	t	n/a
571.061	0.075	1142122	keystroke	Key.backspace	n/a
571.287	0.059	1142574	keystroke	o	n/a
571.512	0.09	1143024	keystroke	h	n/a
571.692	0.075	1143384	keystroke	e	n/a
571.9615	0.06	1143923	keystroke	Key.backspace	n/a
572.0965	0.09	1144193	keystroke	Key.backspace	n/a
572.2465	0.09	1144493	keystroke	Key.backspace	n/a
572.9965	0.075	1145993	keystroke	p	n/a
573.432	0.1045	1146864	keystroke	h	n/a
573.5815	0.12	1147163	keystroke	e	n/a
573.732	0.1645	1147464	keystroke	r	n/a
573.8215	0.12	1147643	keystroke	e	n/a
574.1365	0.165	1148273	keystroke	Key.enter	n/a
574.306	10.827	1148612	prompt	n/a	produces good helen pharmaceuticals\n
575.051	0.09	1150102	keystroke	p	n/a
575.201	0.09	1150402	keystroke	r	n/a
575.337	0.105	1150674	keystroke	o	n/a
575.532	0.1195	1151064	keystroke	d	n/a
575.7415	0.075	1151483	keystroke	u	n/a
575.8615	0.15	1151723	keystroke	c	n/a
575.9665	0.09	1151933	keystroke	e	n/a
576.1765	0.1045	1152353	keystroke	s	n/a
576.296	0.105	1152592	keystroke	Key.space	n/a
577.212	0.075	1154424	keystroke	g	n/a
577.362	0.06	1154724	keystroke	o	n/a
577.527	0.0745	1155054	keystroke	o	n/a
577.6465	0.105	1155293	keystroke	d	n/a
577.7065	0.15	1155413	keystroke	Key.space	n/a
577.8865	0.105	1155773	keystroke	h	n/a
578.0815	0.09	1156163	keystroke	e	n/a
578.1715	0.075	1156343	keystroke	l	n/a
578.3215	0.105	1156643	keystroke	e	n/a
578.4415	0.1045	1156883	keystroke	n	n/a
578.696	0.045	1157392	keystroke	Key.space	n/a
578.9215	0.06	1157843	keystroke	p	n/a
579.3265	0.1345	1158653	keystroke	a	n/a
579.686	0.03	1159372	keystroke	Key.backspace	n/a
579.882	0.105	1159764	keystroke	h	n/a
580.0465	0.105	1160093	keystroke	a	n/a
580.2415	0.09	1160483	keystroke	r	n/a
580.3915	0.105	1160783	keystroke	m	n/a
580.661	0.0905	1161322	keystroke	a	n/a
581.7265	0.075	1163453	keystroke	c	n/a
582.912	0.09	1165824	keystroke	e	n/a
583.167	0.1045	1166334	keystroke	u	n/a
583.646	0.09	1167292	keystroke	t	n/a
584.037	0.1345	1168074	keystroke	i	n/a
584.2465	0.12	1168493	keystroke	c	n/a
584.3515	0.135	1168703	keystroke	a	n/a
584.5165	0.1045	1169033	keystroke	l	n/a
584.682	0.134	1169364	keystroke	s	n/a
585.012	0.1195	1170024	keystroke	Key.enter	n/a
585.136	12.807	1170272	prompt	n/a	albania tenant startup menus\n
585.776	0.15	1171552	keystroke	a	n/a
585.972	0.09	1171944	keystroke	l	n/a
586.257	0.03	1172514	keystroke	b	n/a
586.362	0.12	1172724	keystroke	a	n/a
586.4665	0.09	1172933	keystroke	n	n/a
586.6765	0.09	1173353	keystroke	i	n/a
586.8115	0.12	1173623	keystroke	a	n/a
587.1865	0.1345	1174373	keystroke	Key.space	n/a
587.381	0.135	1174762	keystroke	t	n/a
587.531	0.135	1175062	keystroke	e	n/a
587.681	0.075	1175362	keystroke	n	n/a
587.966	0.121	1175932	keystroke	a	n/a
588.132	0.0745	1176264	keystroke	n	n/a
588.3565	0.1345	1176713	keystroke	t	n/a
588.581	0.105	1177162	keystroke	Key.space	n/a
588.7915	0.075	1177583	keystroke	s	n/a
588.9865	0.105	1177973	keystroke	t	n/a
589.1665	0.1345	1178333	keystroke	a	n/a
589.4065	0.12	1178813	keystroke	r	n/a
589.4965	0.105	1178993	keystroke	t	n/a
589.6915	0.105	1179383	keystroke	u	n/a
589.9015	0.105	1179803	keystroke	s	n/a
590.096	0.136	1180192	keystroke	Key.space	n/a
590.382	0.1495	1180764	keystroke	m	n/a
590.5765	0.075	1181153	keystroke	e	n/a
590.7715	0.09	1181543	keystroke	n	n/a
590.9215	0.105	1181843	keystroke	u	n/a
591.1015	0.075	1182203	keystroke	e	n/a
591.2965	0.105	1182593	keystroke	s	n/a
591.8665	0.12	1183733	keystroke	Key.backspace	n/a
592.0615	0.09	1184123	keystroke	Key.backspace	n/a
592.2865	0.105	1184573	keystroke	s	n/a
593.831	0.075	1187662	keystroke	Key.backspace	n/a
594.056	0.075	1188112	keystroke	Key.backspace	n/a
594.266	0.06	1188532	keystroke	Key.backspace	n/a
594.432	0.045	1188864	keystroke	Key.backspace	n/a
594.5965	0.075	1189193	keystroke	Key.backspace	n/a
594.7765	0.06	1189553	keystroke	Key.backspace	n/a
594.9565	0.075	1189913	keystroke	Key.backspace	n/a
595.2265	0.09	1190453	keystroke	p	n/a
595.542	0.104	1191084	keystroke	Key.space	n/a
595.706	0.091	1191412	keystroke	n	n/a
596.1565	0.045	1192313	keystroke	Key.backspace	n/a
596.3665	0.06	1192733	keystroke	m	n/a
596.4865	0.105	1192973	keystroke	e	n/a
596.5765	0.165	1193153	keystroke	n	n/a
596.787	0.1045	1193574	keystroke	u	n/a
597.446	0.105	1194892	keystroke	s	n/a
597.762	0.1795	1195524	keystroke	Key.enter	n/a
597.947	7.316	1195894	prompt	n/a	fishing korea toll minolta\n
598.811	0.121	1197622	keystroke	f	n/a
599.0065	0.075	1198013	keystroke	i	n/a
599.1565	0.12	1198313	keystroke	s	n/a
599.2615	0.06	1198523	keystroke	h	n/a
599.3815	0.105	1198763	keystroke	i	n/a
599.4415	0.105	1198883	keystroke	n	n/a
599.6515	0.075	1199303	keystroke	g	n/a
599.7565	0.12	1199513	keystroke	Key.space	n/a
599.996	0.09	1199992	keystroke	k	n/a
600.176	0.105	1200352	keystroke	o	n/a
600.416	0.105	1200832	keystroke	r	n/a
600.642	0.12	1201284	keystroke	a	n/a
601.1815	0.045	1202363	keystroke	Key.backspace	n/a
601.3465	0.1195	1202693	keystroke	e	n/a
601.451	0.12	1202902	keystroke	a	n/a
601.631	0.12	1203262	keystroke	Key.space	n/a
601.886	0.09	1203772	keystroke	t	n/a
602.006	0.076	1204012	keystroke	o	n/a
602.232	0.015	1204464	keystroke	l	n/a
602.351	0.0905	1204702	keystroke	l	n/a
602.7565	0.105	1205513	keystroke	Key.space	n/a
603.1165	0.09	1206233	keystroke	m	n/a
603.3415	0.075	1206683	keystroke	o	n/a
603.7315	0.06	1207463	keystroke	Key.backspace	n/a
603.9715	0.0745	1207943	keystroke	i	n/a
604.121	0.075	1208242	keystroke	n	n/a
604.301	0.075	1208602	keystroke	o	n/a
604.451	0.09	1208902	keystroke	l	n/a
604.676	0.1055	1209352	keystroke	t	n/a
604.931	0.12	1209862	keystroke	a	n/a
605.111	0.15	1210222	keystroke	Key.enter	n/a
605.2655	11.3975	1210531	prompt	n/a	consultation horizon sixth meter\n
606.8215	0.075	1213643	keystroke	c	n/a
606.9565	0.075	1213913	keystroke	o	n/a
607.1515	0.06	1214303	keystroke	n	n/a
607.902	0.089	1215804	keystroke	s	n/a
608.022	0.075	1216044	keystroke	u	n/a
608.5165	0.09	1217033	keystroke	l	n/a
608.8615	0.045	1217723	keystroke	a	n/a
609.252	0.075	1218504	keystroke	Key.backspace	n/a
609.3865	0.075	1218773	keystroke	t	n/a
609.6415	0.03	1219283	keystroke	a	n/a
609.8215	0.075	1219643	keystroke	t	n/a
609.9565	0.09	1219913	keystroke	i	n/a
610.242	0.1045	1220484	keystroke	o	n/a
610.3615	0.15	1220723	keystroke	n	n/a
610.7065	0.135	1221413	keystroke	Key.space	n/a
610.9615	0.06	1221923	keystroke	h	n/a
611.1115	0.12	1222223	keystroke	o	n/a
611.2615	0.06	1222523	keystroke	r	n/a
611.3665	0.105	1222733	keystroke	i	n/a
611.576	0.09	1223152	keystroke	z	n/a
611.801	0.1205	1223602	keystroke	e	n/a
611.9515	0.1795	1223903	keystroke	o	n/a
612.0415	0.1495	1224083	keystroke	n	n/a
612.5215	0.09	1225043	keystroke	Key.backspace	n/a
612.807	0.0595	1225614	keystroke	Key.backspace	n/a
612.9715	0.075	1225943	keystroke	Key.backspace	n/a
613.2265	0.135	1226453	keystroke	o	n/a
613.3625	0.134	1226725	keystroke	n	n/a
613.6615	0.12	1227323	keystroke	Key.space	n/a
614.081	0.105	1228162	keystroke	s	n/a
614.201	0.091	1228402	keystroke	i	n/a
614.7115	0.09	1229423	keystroke	x	n/a
614.9365	0.075	1229873	keystroke	t	n/a
615.0715	0.075	1230143	keystroke	h	n/a
615.2215	0.135	1230443	keystroke	Key.space	n/a
615.4165	0.105	1230833	keystroke	m	n/a
615.5815	0.1195	1231163	keystroke	e	n/a
615.821	0.105	1231642	keystroke	t	n/a
616.0015	0.15	1232003	keystroke	e	n/a
616.1215	0.12	1232243	keystroke	r	n/a
616.4815	0.1795	1232963	keystroke	Key.enter	n/a
616.666	11.397	1233332	prompt	n/a	planes destruction unexpected excitement\n
617.532	0.1045	1235064	keystroke	p	n/a
617.6665	0.09	1235333	keystroke	l	n/a
617.9665	0.12	1235933	keystroke	a	n/a
618.1015	0.105	1236203	keystroke	n	n/a
618.2515	0.105	1236503	keystroke	e	n/a
618.4765	0.0895	1236953	keystroke	s	n/a
618.581	0.135	1237162	keystroke	Key.space	n/a
618.821	0.12	1237642	keystroke	d	n/a
618.911	0.091	1237822	keystroke	e	n/a
619.091	0.091	1238182	keystroke	s	n/a
619.332	0.075	1238664	keystroke	t	n/a
619.362	0.12	1238724	keystroke	r	n/a
619.5115	0.105	1239023	keystroke	u	n/a
619.6615	0.06	1239323	keystroke	c	n/a
619.8565	0.12	1239713	keystroke	t	n/a
619.9615	0.06	1239923	keystroke	i	n/a
620.2315	0.105	1240463	keystroke	n	n/a
620.9065	0.105	1241813	keystroke	Key.backspace	n/a
621.207	0.09	1242414	keystroke	o	n/a
621.267	0.09	1242534	keystroke	n	n/a
621.5965	0.135	1243193	keystroke	Key.space	n/a
622.302	0.09	1244604	keystroke	u	n/a
622.362	0.1045	1244724	keystroke	n	n/a
622.6015	0.09	1245203	keystroke	e	n/a
622.8265	0.12	1245653	keystroke	x	n/a
623.546	0.105	1247092	keystroke	p	n/a
623.711	0.105	1247422	keystroke	e	n/a
624.177	0.1195	1248354	keystroke	c	n/a
624.4165	0.12	1248833	keystroke	t	n/a
624.5815	0.075	1249163	keystroke	e	n/a
624.746	0.15	1249492	keystroke	d	n/a
624.911	0.121	1249822	keystroke	Key.space	n/a
625.062	0.075	1250124	keystroke	e	n/a
625.3315	0.105	1250663	keystroke	x	n/a
625.5715	0.105	1251143	keystroke	c	n/a
625.7065	0.105	1251413	keystroke	i	n/a
625.8715	0.105	1251743	keystroke	t	n/a
626.0815	0.105	1252163	keystroke	m	n/a
626.711	0.0605	1253422	keystroke	Key.backspace	n/a
626.982	0.105	1253964	keystroke	e	n/a
627.207	0.075	1254414	keystroke	m	n/a
627.402	0.1195	1254804	keystroke	e	n/a
627.5365	0.06	1255073	keystroke	n	n/a
627.6865	0.12	1255373	keystroke	t	n/a
627.9115	0.15	1255823	keystroke	Key.enter	n/a
628.066	5.922	1256132	prompt	n/a	throw pointed token accredited\n
628.856	0.151	1257712	keystroke	t	n/a
628.962	0.075	1257924	keystroke	h	n/a
629.112	0.105	1258224	keystroke	r	n/a
629.2615	0.06	1258523	keystroke	o	n/a
629.3965	0.06	1258793	keystroke	w	n/a
629.4415	0.1345	1258883	keystroke	Key.space	n/a
629.711	0.075	1259422	keystroke	p	n/a
629.741	0.12	1259482	keystroke	o	n/a
630.042	0.1045	1260084	keystroke	i	n/a
630.102	0.1195	1260204	keystroke	n	n/a
630.2815	0.075	1260563	keystroke	t	n/a
630.491	0.075	1260982	keystroke	e	n/a
630.701	0.09	1261402	keystroke	d	n/a
630.836	0.12	1261672	keystroke	Key.space	n/a
631.001	0.135	1262002	keystroke	t	n/a
631.092	0.09	1262184	keystroke	o	n/a
631.332	0.075	1262664	keystroke	k	n/a
631.482	0.0895	1262964	keystroke	e	n/a
631.8415	0.06	1263683	keystroke	n	n/a
632.0515	0.06	1264103	keystroke	Key.space	n/a
632.1715	0.105	1264343	keystroke	a	n/a
632.426	0.045	1264852	keystroke	c	n/a
632.576	0.09	1265152	keystroke	c	n/a
632.7865	0.105	1265573	keystroke	r	n/a
632.8615	0.105	1265723	keystroke	e	n/a
633.0715	0.09	1266143	keystroke	d	n/a
633.1915	0.09	1266383	keystroke	i	n/a
