onset	duration	sample	value	key	prompt_text
6.0195	5.333	12039	prompt	n/a	the quick brown fox jumps over a lazy dog\n
7.0755	0.0285	14151	keystroke_t	t	n/a
7.119	0.045	14238	keystroke_h	h	n/a
7.1785	0.0905	14357	keystroke_e	e	n/a
7.254	0.0745	14508	keystroke_Key.space	Key.space	n/a
7.374	0.0595	14748	keystroke_q	q	n/a
7.4485	0.1055	14897	keystroke_u	u	n/a
7.509	0.0905	15018	keystroke_i	i	n/a
7.6445	0.059	15289	keystroke_c	c	n/a
7.7185	0.061	15437	keystroke_k	k	n/a
7.824	0.09	15648	keystroke_Key.space	Key.space	n/a
7.9435	0.06	15887	keystroke_b	b	n/a
8.0195	0.075	16039	keystroke_r	r	n/a
8.109	0.09	16218	keystroke_o	o	n/a
8.214	0.0605	16428	keystroke_w	w	n/a
8.289	0.0745	16578	keystroke_n	n	n/a
8.394	0.09	16788	keystroke_Key.space	Key.space	n/a
8.469	0.0595	16938	keystroke_f	f	n/a
8.559	0.0745	17118	keystroke_o	o	n/a
8.6485	0.075	17297	keystroke_x	x	n/a
8.7235	0.06	17447	keystroke_Key.space	Key.space	n/a
8.8285	0.0755	17657	keystroke_j	j	n/a
8.9795	0.044	17959	keystroke_u	u	n/a
9.159	0.06	18318	keystroke_m	m	n/a
9.384	0.015	18768	keystroke_p	p	n/a
9.414	0.0305	18828	keystroke_s	s	n/a
9.4735	0.06	18947	keystroke_Key.space	Key.space	n/a
9.5785	0.046	19157	keystroke_o	o	n/a
9.609	0.0745	19218	keystroke_v	v	n/a
9.789	0.09	19578	keystroke_e	e	n/a
9.8945	0.0745	19789	keystroke_r	r	n/a
9.954	0.075	19908	keystroke_Key.space	Key.space	n/a
10.044	0.075	20088	keystroke_a	a	n/a
10.104	0.0755	20208	keystroke_Key.space	Key.space	n/a
10.2395	0.074	20479	keystroke_l	l	n/a
10.2845	0.074	20569	keystroke_a	a	n/a
10.4945	0.0755	20989	keystroke_z	z	n/a
10.554	0.0605	21108	keystroke_y	y	n/a
10.6595	0.0605	21319	keystroke_Key.space	Key.space	n/a
10.7345	0.0595	21469	keystroke_d	d	n/a
10.8095	0.06	21619	keystroke_o	o	n/a
10.99	0.045	21980	keystroke_g	g	n/a
11.335	0.0135	22670	keystroke_Key.enter	Key.enter	n/a
11.36	3.9515	22720	prompt	n/a	anti teaching translate spank\n
11.8895	0.0895	23779	keystroke_a	a	n/a
11.9645	0.075	23929	keystroke_n	n	n/a
12.1145	0.074	24229	keystroke_t	t	n/a
12.1745	0.06	24349	keystroke_i	i	n/a
12.264	0.105	24528	keystroke_Key.space	Key.space	n/a
12.354	0.0605	24708	keystroke_t	t	n/a
12.489	0.0745	24978	keystroke_e	e	n/a
12.609	0.09	25218	keystroke_a	a	n/a
12.7585	0.0755	25517	keystroke_c	c	n/a
12.8035	0.0605	25607	keystroke_h	h	n/a
12.939	0.045	25878	keystroke_i	i	n/a
13.0895	0.06	26179	keystroke_n	n	n/a
13.1345	0.045	26269	keystroke_g	g	n/a
13.1945	0.0895	26389	keystroke_Key.space	Key.space	n/a
13.3135	0.061	26627	keystroke_t	t	n/a
13.494	0.0605	26988	keystroke_r	r	n/a
13.584	0.12	27168	keystroke_a	a	n/a
13.6885	0.06	27377	keystroke_n	n	n/a
13.795	0.089	27590	keystroke_s	s	n/a
13.9445	0.0445	27889	keystroke_l	l	n/a
14.034	0.0755	28068	keystroke_a	a	n/a
14.1545	0.0895	28309	keystroke_t	t	n/a
14.2895	0.075	28579	keystroke_e	e	n/a
14.349	0.075	28698	keystroke_Key.space	Key.space	n/a
14.544	0.06	29088	keystroke_s	s	n/a
14.5895	0.06	29179	keystroke_p	p	n/a
14.6795	0.0905	29359	keystroke_a	a	n/a
14.784	0.045	29568	keystroke_n	n	n/a
14.9345	0.0595	29869	keystroke_k	k	n/a
15.249	0.0605	30498	keystroke_Key.enter	Key.enter	n/a
15.3165	4.75	30633	prompt	n/a	theta dietary candle accuracy\n
15.849	0.075	31698	keystroke_t	t	n/a
15.925	0.0595	31850	keystroke_h	h	n/a
15.9995	0.0895	31999	keystroke_e	e	n/a
16.5245	0.0745	33049	keystroke_t	t	n/a
16.689	0.09	33378	keystroke_a	a	n/a
16.794	0.09	33588	keystroke_Key.space	Key.space	n/a
17.035	0.0895	34070	keystroke_d	d	n/a
17.1095	0.0605	34219	keystroke_i	i	n/a
17.185	0.074	34370	keystroke_e	e	n/a
17.3645	0.0455	34729	keystroke_t	t	n/a
17.5	0.089	35000	keystroke_a	a	n/a
17.575	0.0745	35150	keystroke_r	r	n/a
17.665	0.0295	35330	keystroke_y	y	n/a
17.7545	0.075	35509	keystroke_Key.space	Key.space	n/a
17.9495	0.045	35899	keystroke_c	c	n/a
18.0845	0.0755	36169	keystroke_a	a	n/a
18.1745	0.0595	36349	keystroke_n	n	n/a
18.3995	0.0905	36799	keystroke_d	d	n/a
18.4745	0.0605	36949	keystroke_l	l	n/a
18.6095	0.09	37219	keystroke_e	e	n/a
18.684	0.076	37368	keystroke_Key.space	Key.space	n/a
18.835	0.0895	37670	keystroke_a	a	n/a
19.0295	0.0455	38059	keystroke_c	c	n/a
19.15	0.09	38300	keystroke_c	c	n/a
19.224	0.0755	38448	keystroke_u	u	n/a
19.375	0.06	38750	keystroke_r	r	n/a
19.4645	0.0905	38929	keystroke_a	a	n/a
19.644	0.076	39288	keystroke_c	c	n/a
19.704	0.06	39408	keystroke_y	y	n/a
20.0045	0.0595	40009	keystroke_Key.enter	Key.enter	n/a
20.0715	3.8345	40143	prompt	n/a	century bite coating mighty\n
20.68	0.06	41360	keystroke_c	c	n/a
20.845	0.06	41690	keystroke_e	e	n/a
20.9195	0.0605	41839	keystroke_n	n	n/a
20.9945	0.0755	41989	keystroke_t	t	n/a
21.115	0.0445	42230	keystroke_u	u	n/a
21.174	0.0755	42348	keystroke_r	r	n/a
21.28	0.06	42560	keystroke_y	y	n/a
21.369	0.0755	42738	keystroke_Key.space	Key.space	n/a
21.5045	0.0755	43009	keystroke_b	b	n/a
21.67	0.075	43340	keystroke_i	i	n/a
21.7295	0.0745	43459	keystroke_t	t	n/a
21.88	0.075	43760	keystroke_e	e	n/a
21.97	0.075	43940	keystroke_Key.space	Key.space	n/a
22.18	0.074	44360	keystroke_c	c	n/a
22.255	0.059	44510	keystroke_o	o	n/a
22.3295	0.105	44659	keystroke_a	a	n/a
22.5095	0.075	45019	keystroke_t	t	n/a
22.5695	0.045	45139	keystroke_i	i	n/a
22.7195	0.0895	45439	keystroke_n	n	n/a
22.7645	0.0605	45529	keystroke_g	g	n/a
22.825	0.0745	45650	keystroke_Key.space	Key.space	n/a
22.944	0.061	45888	keystroke_m	m	n/a
23.14	0.045	46280	keystroke_i	i	n/a
23.215	0.0595	46430	keystroke_g	g	n/a
23.305	0.06	46610	keystroke_h	h	n/a
23.4095	0.0755	46819	keystroke_t	t	n/a
23.62	0.0595	47240	keystroke_y	y	n/a
23.83	0.074	47660	keystroke_Key.enter	Key.enter	n/a
23.9125	8.0495	47825	prompt	n/a	superintendent extends operate dealers\n
24.55	0.074	49100	keystroke_s	s	n/a
24.6395	0.0445	49279	keystroke_u	u	n/a
24.805	0.06	49610	keystroke_p	p	n/a
24.8945	0.0755	49789	keystroke_e	e	n/a
24.9995	0.0905	49999	keystroke_r	r	n/a
25.105	0.0445	50210	keystroke_i	i	n/a
25.255	0.06	50510	keystroke_n	n	n/a
25.3	0.075	50600	keystroke_t	t	n/a
25.45	0.075	50900	keystroke_e	e	n/a
25.525	0.06	51050	keystroke_n	n	n/a
25.675	0.075	51350	keystroke_d	d	n/a
25.915	0.06	51830	keystroke_e	e	n/a
25.9755	0.0745	51951	keystroke_n	n	n/a
26.095	0.075	52190	keystroke_t	t	n/a
26.155	0.074	52310	keystroke_Key.space	Key.space	n/a
26.275	0.0755	52550	keystroke_e	e	n/a
26.5	0.045	53000	keystroke_d	d	n/a
26.5305	0.0595	53061	keystroke_t	t	n/a
27.0995	0.0755	54199	keystroke_Key.backspace	Key.backspace	n/a
27.4895	0.0755	54979	keystroke_Key.backspace	Key.backspace	n/a
27.7295	0.09	55459	keystroke_x	x	n/a
27.865	0.06	55730	keystroke_t	t	n/a
27.9695	0.0905	55939	keystroke_e	e	n/a
28.09	0.0745	56180	keystroke_n	n	n/a
28.1795	0.09	56359	keystroke_d	d	n/a
28.3295	0.1055	56659	keystroke_s	s	n/a
28.39	0.0745	56780	keystroke_Key.space	Key.space	n/a
28.675	0.0745	57350	keystroke_o	o	n/a
28.81	0.09	57620	keystroke_p	p	n/a
28.989	0.076	57978	keystroke_e	e	n/a
29.185	0.09	58370	keystroke_r	r	n/a
29.424	0.075	58848	keystroke_t	t	n/a
29.83	0.075	59660	keystroke_Key.backspace	Key.backspace	n/a
29.95	0.0905	59900	keystroke_a	a	n/a
30.16	0.06	60320	keystroke_t	t	n/a
30.294	0.105	60588	keystroke_e	e	n/a
30.4145	0.0445	60829	keystroke_Key.space	Key.space	n/a
30.519	0.076	61038	keystroke_d	d	n/a
30.6995	0.061	61399	keystroke_e	e	n/a
30.7895	0.105	61579	keystroke_a	a	n/a
30.8645	0.075	61729	keystroke_l	l	n/a
30.9845	0.105	61969	keystroke_e	e	n/a
31.0745	0.1055	62149	keystroke_r	r	n/a
31.2545	0.06	62509	keystroke_s	s	n/a
31.854	0.1055	63708	keystroke_Key.enter	Key.enter	n/a
31.9675	4.57	63935	prompt	n/a	adapter indicated thanks replaced\n
32.559	0.091	65118	keystroke_a	a	n/a
32.725	0.0895	65450	keystroke_d	d	n/a
32.8445	0.0905	65689	keystroke_a	a	n/a
32.95	0.075	65900	keystroke_p	p	n/a
33.1	0.06	66200	keystroke_t	t	n/a
33.235	0.09	66470	keystroke_e	e	n/a
33.295	0.09	66590	keystroke_r	r	n/a
33.385	0.074	66770	keystroke_Key.space	Key.space	n/a
33.52	0.06	67040	keystroke_i	i	n/a
33.7	0.059	67400	keystroke_n	n	n/a
33.745	0.075	67490	keystroke_d	d	n/a
33.865	0.045	67730	keystroke_i	i	n/a
33.94	0.075	67880	keystroke_c	c	n/a
34.089	0.091	68178	keystroke_a	a	n/a
34.24	0.06	68480	keystroke_t	t	n/a
34.3595	0.075	68719	keystroke_e	e	n/a
34.5095	0.105	69019	keystroke_d	d	n/a
34.5995	0.075	69199	keystroke_Key.space	Key.space	n/a
34.7195	0.06	69439	keystroke_t	t	n/a
34.7945	0.0605	69589	keystroke_h	h	n/a
34.87	0.09	69740	keystroke_a	a	n/a
34.975	0.045	69950	keystroke_n	n	n/a
35.095	0.0595	70190	keystroke_k	k	n/a
35.1395	0.06	70279	keystroke_s	s	n/a
35.2295	0.0895	70459	keystroke_Key.space	Key.space	n/a
35.289	0.076	70578	keystroke_r	r	n/a
35.3795	0.105	70759	keystroke_e	e	n/a
35.4695	0.1055	70939	keystroke_p	p	n/a
35.53	0.105	71060	keystroke_l	l	n/a
35.62	0.09	71240	keystroke_a	a	n/a
35.875	0.06	71750	keystroke_c	c	n/a
36.1	0.06	72200	keystroke_e	e	n/a
36.295	0.06	72590	keystroke_d	d	n/a
36.445	0.09	72890	keystroke_Key.enter	Key.enter	n/a
36.544	6.2625	73088	prompt	n/a	veteran helen mechanisms pizza\n
37.45	0.06	74900	keystroke_v	v	n/a
37.615	0.075	75230	keystroke_e	e	n/a
37.705	0.09	75410	keystroke_r	r	n/a
38.2	0.045	76400	keystroke_Key.backspace	Key.backspace	n/a
38.35	0.0755	76700	keystroke_t	t	n/a
38.545	0.074	77090	keystroke_e	e	n/a
38.695	0.074	77390	keystroke_r	r	n/a
38.845	0.09	77690	keystroke_a	a	n/a
38.92	0.06	77840	keystroke_n	n	n/a
39.04	0.075	78080	keystroke_Key.space	Key.space	n/a
39.19	0.06	78380	keystroke_h	h	n/a
39.22	0.075	78440	keystroke_e	e	n/a
39.4	0.06	78800	keystroke_l	l	n/a
39.55	0.12	79100	keystroke_e	e	n/a
39.715	0.075	79430	keystroke_n	n	n/a
39.85	0.09	79700	keystroke_Key.space	Key.space	n/a
40.0595	0.061	80119	keystroke_m	m	n/a
40.1345	0.0905	80269	keystroke_e	e	n/a
40.36	0.06	80720	keystroke_c	c	n/a
40.42	0.075	80840	keystroke_h	h	n/a
40.54	0.09	81080	keystroke_a	a	n/a
40.63	0.0745	81260	keystroke_n	n	n/a
40.825	0.045	81650	keystroke_i	i	n/a
40.9745	0.075	81949	keystroke_s	s	n/a
41.155	0.075	82310	keystroke_m	m	n/a
41.77	0.09	83540	keystroke_s	s	n/a
41.8895	0.0755	83779	keystroke_Key.space	Key.space	n/a
42.07	0.06	84140	keystroke_p	p	n/a
42.235	0.09	84470	keystroke_i	i	n/a
42.309	0.03	84618	keystroke_z	z	n/a
42.43	0.075	84860	keystroke_z	z	n/a
42.6545	0.0595	85309	keystroke_a	a	n/a
42.744	0.061	85488	keystroke_Key.enter	Key.enter	n/a
42.815	7.5665	85630	prompt	n/a	institutes touched forming estonia\n
43.435	0.045	86870	keystroke_i	i	n/a
43.5995	0.0755	87199	keystroke_n	n	n/a
43.675	0.045	87350	keystroke_s	s	n/a
43.84	0.0595	87680	keystroke_t	t	n/a
43.8845	0.06	87769	keystroke_i	i	n/a
43.9895	0.075	87979	keystroke_t	t	n/a
44.0795	0.0455	88159	keystroke_u	u	n/a
44.155	0.075	88310	keystroke_t	t	n/a
44.425	0.075	88850	keystroke_e	e	n/a
44.6195	0.075	89239	keystroke_s	s	n/a
44.6795	0.09	89359	keystroke_Key.space	Key.space	n/a
44.8295	0.06	89659	keystroke_t	t	n/a
44.8895	0.06	89779	keystroke_o	o	n/a
45.07	0.06	90140	keystroke_u	u	n/a
45.175	0.0445	90350	keystroke_c	c	n/a
45.25	0.0595	90500	keystroke_h	h	n/a
45.3845	0.075	90769	keystroke_e	e	n/a
45.5945	0.105	91189	keystroke_d	d	n/a
45.6845	0.075	91369	keystroke_Key.space	Key.space	n/a
46.2095	0.0755	92419	keystroke_f	f	n/a
46.3295	0.06	92659	keystroke_o	o	n/a
46.45	0.075	92900	keystroke_r	r	n/a
46.57	0.045	93140	keystroke_m	m	n/a
46.7945	0.0305	93589	keystroke_i	i	n/a
46.9595	0.06	93919	keystroke_n	n	n/a
47.005	0.0595	94010	keystroke_g	g	n/a
47.1095	0.0745	94219	keystroke_Key.space	Key.space	n/a
47.215	0.0445	94430	keystroke_e	e	n/a
47.349	0.09	94698	keystroke_s	s	n/a
47.529	0.076	95058	keystroke_t	t	n/a
47.59	0.06	95180	keystroke_o	o	n/a
47.785	0.0595	95570	keystroke_n	n	n/a
47.9945	0.0455	95989	keystroke_i	i	n/a
48.1	0.075	96200	keystroke_a	a	n/a
50.291	0.088	100582	keystroke_Key.enter	Key.enter	n/a
50.387	4.6445	100774	prompt	n/a	hotels code campaign television\n
51.145	0.06	102290	keystroke_h	h	n/a
51.3995	0.0145	102799	keystroke_o	o	n/a
51.429	0.016	102858	keystroke_t	t	n/a
51.519	0.076	103038	keystroke_e	e	n/a
51.58	0.075	103160	keystroke_l	l	n/a
51.714	0.061	103428	keystroke_s	s	n/a
51.76	0.089	103520	keystroke_Key.space	Key.space	n/a
51.9245	0.075	103849	keystroke_c	c	n/a
51.985	0.0445	103970	keystroke_o	o	n/a
52.1045	0.0605	104209	keystroke_d	d	n/a
52.285	0.0595	104570	keystroke_e	e	n/a
52.375	0.09	104750	keystroke_Key.space	Key.space	n/a
52.555	0.0745	105110	keystroke_c	c	n/a
52.7195	0.0755	105439	keystroke_a	a	n/a
52.7795	0.06	105559	keystroke_m	m	n/a
52.9595	0.0445	105919	keystroke_p	p	n/a
53.02	0.0595	106040	keystroke_a	a	n/a
53.2	0.044	106400	keystroke_i	i	n/a
53.275	0.074	106550	keystroke_g	g	n/a
53.379	0.0605	106758	keystroke_n	n	n/a
53.5145	0.06	107029	keystroke_Key.space	Key.space	n/a
53.6195	0.0605	107239	keystroke_t	t	n/a
53.74	0.075	107480	keystroke_e	e	n/a
53.7845	0.0755	107569	keystroke_l	l	n/a
53.889	0.061	107778	keystroke_e	e	n/a
54.07	0.075	108140	keystroke_v	v	n/a
54.16	0.06	108320	keystroke_i	i	n/a
54.25	0.09	108500	keystroke_s	s	n/a
54.325	0.09	108650	keystroke_i	i	n/a
54.4	0.075	108800	keystroke_o	o	n/a
54.595	0.06	109190	keystroke_n	n	n/a
54.9545	0.0755	109909	keystroke_Key.enter	Key.enter	n/a
55.037	5.1545	110074	prompt	n/a	plugins deutsch alaska operating\n
55.644	0.031	111288	keystroke_p	p	n/a
55.795	0.075	111590	keystroke_l	l	n/a
56.005	0.0445	112010	keystroke_u	u	n/a
56.1095	0.075	112219	keystroke_g	g	n/a
56.17	0.0595	112340	keystroke_i	i	n/a
56.35	0.0595	112700	keystroke_n	n	n/a
56.4245	0.06	112849	keystroke_s	s	n/a
56.5145	0.075	113029	keystroke_Key.space	Key.space	n/a
56.6045	0.0755	113209	keystroke_d	d	n/a
56.8	0.074	113600	keystroke_e	e	n/a
56.92	0.075	113840	keystroke_u	u	n/a
57.1	0.089	114200	keystroke_t	t	n/a
57.5045	0.075	115009	keystroke_s	s	n/a
57.7145	0.06	115429	keystroke_c	c	n/a
57.8045	0.0605	115609	keystroke_h	h	n/a
57.9695	0.09	115939	keystroke_Key.space	Key.space	n/a
58.1495	0.0905	116299	keystroke_a	a	n/a
58.2245	0.0755	116449	keystroke_l	l	n/a
58.33	0.1195	116660	keystroke_a	a	n/a
58.4345	0.0905	116869	keystroke_s	s	n/a
58.54	0.0745	117080	keystroke_k	k	n/a
58.7195	0.075	117439	keystroke_a	a	n/a
58.81	0.0745	117620	keystroke_Key.space	Key.space	n/a
59.0045	0.1055	118009	keystroke_o	o	n/a
59.0795	0.0905	118159	keystroke_p	p	n/a
59.1395	0.105	118279	keystroke_e	e	n/a
59.2595	0.105	118519	keystroke_r	r	n/a
59.3795	0.105	118759	keystroke_a	a	n/a
59.56	0.075	119120	keystroke_t	t	n/a
59.635	0.06	119270	keystroke_i	i	n/a
59.86	0.015	119720	keystroke_n	n	n/a
59.905	0.06	119810	keystroke_g	g	n/a
60.114	0.075	120228	keystroke_Key.enter	Key.enter	n/a
60.1965	6.25	120393	prompt	n/a	ceramic wagner housing occurring\n
60.9395	0.0755	121879	keystroke_c	c	n/a
61.15	0.0745	122300	keystroke_e	e	n/a
61.255	0.1045	122510	keystroke_r	r	n/a
61.4045	0.045	122809	keystroke_m	m	n/a
61.4645	0.075	122929	keystroke_a	a	n/a
61.855	0.045	123710	keystroke_Key.backspace	Key.backspace	n/a
61.99	0.06	123980	keystroke_Key.backspace	Key.backspace	n/a
62.2745	0.0755	124549	keystroke_a	a	n/a
62.44	0.0445	124880	keystroke_m	m	n/a
62.6645	0.0305	125329	keystroke_i	i	n/a
62.74	0.0745	125480	keystroke_c	c	n/a
62.8445	0.06	125689	keystroke_Key.space	Key.space	n/a
62.9645	0.075	125929	keystroke_w	w	n/a
63.1145	0.1355	126229	keystroke_a	a	n/a
63.205	0.06	126410	keystroke_g	g	n/a
63.4145	0.06	126829	keystroke_n	n	n/a
63.46	0.0895	126920	keystroke_e	e	n/a
63.5645	0.09	127129	keystroke_r	r	n/a
63.6995	0.03	127399	keystroke_Key.space	Key.space	n/a
63.82	0.0595	127640	keystroke_h	h	n/a
63.97	0.0595	127940	keystroke_o	o	n/a
64.134	0.045	128268	keystroke_u	u	n/a
64.195	0.074	128390	keystroke_s	s	n/a
64.3	0.059	128600	keystroke_i	i	n/a
64.51	0.075	129020	keystroke_n	n	n/a
64.615	0.075	129230	keystroke_g	g	n/a
64.75	0.074	129500	keystroke_Key.space	Key.space	n/a
65.035	0.075	130070	keystroke_o	o	n/a
65.155	0.0595	130310	keystroke_c	c	n/a
65.3045	0.075	130609	keystroke_c	c	n/a
65.3945	0.045	130789	keystroke_u	u	n/a
65.5745	0.0605	131149	keystroke_r	r	n/a
65.71	0.075	131420	keystroke_r	r	n/a
65.8145	0.0605	131629	keystroke_i	i	n/a
65.9945	0.045	131989	keystroke_n	n	n/a
66.0845	0.0755	132169	keystroke_g	g	n/a
66.385	0.059	132770	keystroke_Key.enter	Key.enter	n/a
66.452	4.0295	132904	prompt	n/a	renew adjustments leads side\n
67.06	0.09	134120	keystroke_r	r	n/a
67.164	0.12	134328	keystroke_e	e	n/a
67.2995	0.0295	134599	keystroke_n	n	n/a
67.374	0.0755	134748	keystroke_e	e	n/a
67.5095	0.075	135019	keystroke_w	w	n/a
67.5995	0.06	135199	keystroke_Key.space	Key.space	n/a
67.765	0.1045	135530	keystroke_a	a	n/a
67.8995	0.09	135799	keystroke_d	d	n/a
68.0045	0.03	136009	keystroke_j	j	n/a
68.1695	0.0295	136339	keystroke_u	u	n/a
68.185	0.06	136370	keystroke_s	s	n/a
68.32	0.09	136640	keystroke_t	t	n/a
68.425	0.06	136850	keystroke_m	m	n/a
68.515	0.059	137030	keystroke_e	e	n/a
68.59	0.06	137180	keystroke_n	n	n/a
68.664	0.06	137328	keystroke_t	t	n/a
68.785	0.09	137570	keystroke_s	s	n/a
68.889	0.091	137778	keystroke_Key.space	Key.space	n/a
69.055	0.0745	138110	keystroke_l	l	n/a
69.085	0.075	138170	keystroke_e	e	n/a
69.2345	0.09	138469	keystroke_a	a	n/a
69.37	0.105	138740	keystroke_d	d	n/a
69.5045	0.09	139009	keystroke_s	s	n/a
69.6095	0.06	139219	keystroke_Key.space	Key.space	n/a
69.715	0.0895	139430	keystroke_s	s	n/a
69.7745	0.075	139549	keystroke_i	i	n/a
69.8945	0.09	139789	keystroke_d	d	n/a
70.1045	0.06	140209	keystroke_e	e	n/a
70.404	0.0755	140808	keystroke_Key.enter	Key.enter	n/a
70.486	5.47	140972	prompt	n/a	finest simplified convenience wildlife\n
71.0945	0.12	142189	keystroke_f	f	n/a
71.1695	0.06	142339	keystroke_i	i	n/a
71.334	0.0605	142668	keystroke_n	n	n/a
71.3495	0.0745	142699	keystroke_e	e	n/a
71.499	0.09	142998	keystroke_s	s	n/a
71.6795	0.0455	143359	keystroke_t	t	n/a
71.7395	0.0595	143479	keystroke_Key.space	Key.space	n/a
71.8295	0.0895	143659	keystroke_s	s	n/a
71.905	0.029	143810	keystroke_i	i	n/a
72.0695	0.0755	144139	keystroke_m	m	n/a
72.2795	0.1055	144559	keystroke_p	p	n/a
72.355	0.105	144710	keystroke_l	l	n/a
72.565	0.06	145130	keystroke_i	i	n/a
72.6395	0.075	145279	keystroke_f	f	n/a
72.7295	0.0755	145459	keystroke_i	i	n/a
72.8345	0.06	145669	keystroke_e	e	n/a
73.0295	0.06	146059	keystroke_d	d	n/a
73.1045	0.075	146209	keystroke_Key.space	Key.space	n/a
73.2695	0.075	146539	keystroke_c	c	n/a
73.3295	0.045	146659	keystroke_o	o	n/a
73.495	0.0595	146990	keystroke_n	n	n/a
73.5245	0.075	147049	keystroke_v	v	n/a
73.719	0.061	147438	keystroke_e	e	n/a
73.794	0.0605	147588	keystroke_n	n	n/a
73.9445	0.045	147889	keystroke_i	i	n/a
74.0045	0.0455	148009	keystroke_e	e	n/a
74.124	0.06	148248	keystroke_n	n	n/a
74.2295	0.06	148459	keystroke_c	c	n/a
74.4395	0.045	148879	keystroke_e	e	n/a
74.5595	0.09	149119	keystroke_Key.space	Key.space	n/a
74.8445	0.06	149689	keystroke_w	w	n/a
74.934	0.045	149868	keystroke_i	i	n/a
75.114	0.076	150228	keystroke_l	l	n/a
75.175	0.075	150350	keystroke_d	d	n/a
75.37	0.06	150740	keystroke_l	l	n/a
75.535	0.06	151070	keystroke_i	i	n/a
75.58	0.06	151160	keystroke_f	f	n/a
75.745	0.06	151490	keystroke_e	e	n/a
75.9095	0.045	151819	keystroke_Key.enter	Key.enter	n/a
75.9615	4.9	151923	prompt	n/a	tuner upcoming paper show\n
76.5845	0.075	153169	keystroke_t	t	n/a
76.675	0.0295	153350	keystroke_u	u	n/a
76.84	0.0595	153680	keystroke_n	n	n/a
76.87	0.0895	153740	keystroke_e	e	n/a
77.005	0.0745	154010	keystroke_r	r	n/a
77.124	0.06	154248	keystroke_Key.space	Key.space	n/a
77.3195	0.045	154639	keystroke_c	c	n/a
77.3805	0.0445	154761	keystroke_u	u	n/a
77.7545	0.06	155509	keystroke_Key.backspace	Key.backspace	n/a
77.9345	0.045	155869	keystroke_Key.backspace	Key.backspace	n/a
78.295	0.06	156590	keystroke_u	u	n/a
78.49	0.06	156980	keystroke_p	p	n/a
78.594	0.075	157188	keystroke_c	c	n/a
78.685	0.0595	157370	keystroke_o	o	n/a
78.849	0.06	157698	keystroke_m	m	n/a
79.029	0.0455	158058	keystroke_i	i	n/a
79.18	0.075	158360	keystroke_n	n	n/a
79.239	0.061	158478	keystroke_g	g	n/a
79.3145	0.06	158629	keystroke_Key.space	Key.space	n/a
79.4645	0.06	158929	keystroke_p	p	n/a
79.5395	0.1055	159079	keystroke_a	a	n/a
79.63	0.0595	159260	keystroke_p	p	n/a
79.72	0.09	159440	keystroke_e	e	n/a
79.8245	0.075	159649	keystroke_r	r	n/a
79.914	0.0755	159828	keystroke_Key.space	Key.space	n/a
80.0945	0.075	160189	keystroke_s	s	n/a
80.1545	0.0455	160309	keystroke_h	h	n/a
80.275	0.0595	160550	keystroke_o	o	n/a
80.38	0.075	160760	keystroke_w	w	n/a
80.785	0.0745	161570	keystroke_Key.enter	Key.enter	n/a
80.868	4.4335	161736	prompt	n/a	messages together highway pork\n
81.4745	0.03	162949	keystroke_m	m	n/a
81.4895	0.09	162979	keystroke_e	e	n/a
81.7595	0.0155	163519	keystroke_s	s	n/a
81.8495	0.09	163699	keystroke_s	s	n/a
82	0.105	164000	keystroke_a	a	n/a
82.1195	0.0605	164239	keystroke_g	g	n/a
82.24	0.0745	164480	keystroke_e	e	n/a
82.555	0.06	165110	keystroke_s	s	n/a
82.66	0.0595	165320	keystroke_Key.space	Key.space	n/a
82.8245	0.0605	165649	keystroke_t	t	n/a
82.8855	0.044	165771	keystroke_o	o	n/a
82.9895	0.075	165979	keystroke_g	g	n/a
83.1395	0.1205	166279	keystroke_e	e	n/a
83.2745	0.0605	166549	keystroke_t	t	n/a
83.365	0.06	166730	keystroke_h	h	n/a
83.455	0.089	166910	keystroke_e	e	n/a
83.515	0.104	167030	keystroke_r	r	n/a
83.649	0.091	167298	keystroke_Key.space	Key.space	n/a
83.8445	0.0595	167689	keystroke_h	h	n/a
83.994	0.061	167988	keystroke_i	i	n/a
84.04	0.045	168080	keystroke_g	g	n/a
84.13	0.06	168260	keystroke_h	h	n/a
84.205	0.074	168410	keystroke_w	w	n/a
84.355	0.1345	168710	keystroke_a	a	n/a
84.429	0.075	168858	keystroke_y	y	n/a
84.55	0.06	169100	keystroke_Key.space	Key.space	n/a
84.7	0.119	169400	keystroke_p	p	n/a
84.775	0.074	169550	keystroke_o	o	n/a
84.895	0.074	169790	keystroke_r	r	n/a
84.999	0.076	169998	keystroke_k	k	n/a
85.2395	0.0595	170479	keystroke_Key.enter	Key.enter	n/a
85.306	5.1105	170612	prompt	n/a	worcester flower media alike\n
85.915	0.0295	171830	keystroke_w	w	n/a
85.9595	0.045	171919	keystroke_o	o	n/a
86.065	0.06	172130	keystroke_r	r	n/a
86.2745	0.075	172549	keystroke_c	c	n/a
86.455	0.06	172910	keystroke_e	e	n/a
86.62	0.06	173240	keystroke_s	s	n/a
86.74	0.075	173480	keystroke_t	t	n/a
86.89	0.09	173780	keystroke_e	e	n/a
86.95	0.105	173900	keystroke_r	r	n/a
87.099	0.0755	174198	keystroke_Key.space	Key.space	n/a
87.2645	0.0305	174529	keystroke_f	f	n/a
87.31	0.06	174620	keystroke_l	l	n/a
87.4595	0.0605	174919	keystroke_o	o	n/a
87.535	0.0745	175070	keystroke_w	w	n/a
87.5495	0.15	175099	keystroke_e	e	n/a
87.67	0.12	175340	keystroke_r	r	n/a
88.5395	0.0755	177079	keystroke_Key.space	Key.space	n/a
88.795	0.075	177590	keystroke_m	m	n/a
88.84	0.075	177680	keystroke_e	e	n/a
89.0195	0.0905	178039	keystroke_d	d	n/a
89.0945	0.0605	178189	keystroke_i	i	n/a
89.17	0.105	178340	keystroke_a	a	n/a
89.26	0.06	178520	keystroke_Key.space	Key.space	n/a
89.38	0.075	178760	keystroke_a	a	n/a
89.47	0.06	178940	keystroke_l	l	n/a
89.6345	0.0455	179269	keystroke_i	i	n/a
89.83	0.0145	179660	keystroke_k	k	n/a
89.874	0.075	179748	keystroke_e	e	n/a
90.324	0.09	180648	keystroke_Key.enter	Key.enter	n/a
90.4205	4.541	180841	prompt	n/a	rotary considering beds tied\n
91.06	0.075	182120	keystroke_r	r	n/a
91.1495	0.0605	182299	keystroke_o	o	n/a
91.255	0.0745	182510	keystroke_t	t	n/a
91.3895	0.09	182779	keystroke_a	a	n/a
91.585	0.0895	183170	keystroke_r	r	n/a
91.6595	0.0755	183319	keystroke_y	y	n/a
91.8545	0.075	183709	keystroke_Key.space	Key.space	n/a
92.05	0.06	184100	keystroke_c	c	n/a
92.44	0.0595	184880	keystroke_o	o	n/a
92.635	0.0595	185270	keystroke_n	n	n/a
92.7095	0.075	185419	keystroke_s	s	n/a
92.8295	0.06	185659	keystroke_i	i	n/a
92.905	0.0895	185810	keystroke_d	d	n/a
93.0695	0.075	186139	keystroke_e	e	n/a
93.1745	0.121	186349	keystroke_r	r	n/a
93.31	0.015	186620	keystroke_i	i	n/a
93.4445	0.075	186889	keystroke_n	n	n/a
93.5045	0.03	187009	keystroke_g	g	n/a
93.58	0.06	187160	keystroke_Key.space	Key.space	n/a
93.685	0.06	187370	keystroke_b	b	n/a
93.714	0.09	187428	keystroke_e	e	n/a
94.0145	0.0145	188029	keystroke_d	d	n/a
94.044	0.076	188088	keystroke_s	s	n/a
94.104	0.09	188208	keystroke_Key.space	Key.space	n/a
94.225	0.075	188450	keystroke_t	t	n/a
94.3	0.0595	188600	keystroke_i	i	n/a
94.405	0.0745	188810	keystroke_e	e	n/a
94.6455	0.06	189291	keystroke_d	d	n/a
94.9145	0.045	189829	keystroke_Key.enter	Key.enter	n/a
94.967	6.3545	189934	prompt	n/a	namibia hollow casinos championship\n
95.785	0.0445	191570	keystroke_n	n	n/a
95.8595	0.09	191719	keystroke_a	a	n/a
95.995	0.0595	191990	keystroke_m	m	n/a
96.2195	0.03	192439	keystroke_i	i	n/a
96.2955	0.0745	192591	keystroke_b	b	n/a
96.385	0.06	192770	keystroke_i	i	n/a
96.55	0.09	193100	keystroke_a	a	n/a
96.6245	0.06	193249	keystroke_Key.space	Key.space	n/a
96.8505	0.044	193701	keystroke_h	h	n/a
97	0.0605	194000	keystroke_o	o	n/a
97.165	0.075	194330	keystroke_l	l	n/a
97.255	0.0755	194510	keystroke_l	l	n/a
97.93	0.045	195860	keystroke_o	o	n/a
98.17	0.015	196340	keystroke_w	w	n/a
98.2	0.03	196400	keystroke_Key.space	Key.space	n/a
98.3045	0.0755	196609	keystroke_c	c	n/a
98.4545	0.0905	196909	keystroke_a	a	n/a
98.5	0.12	197000	keystroke_s	s	n/a
98.62	0.045	197240	keystroke_i	i	n/a
98.785	0.0595	197570	keystroke_n	n	n/a
98.9495	0.06	197899	keystroke_o	o	n/a
99.0245	0.075	198049	keystroke_s	s	n/a
99.1145	0.075	198229	keystroke_Key.space	Key.space	n/a
99.2195	0.075	198439	keystroke_c	c	n/a
99.4005	0.0445	198801	keystroke_h	h	n/a
99.5045	0.105	199009	keystroke_a	a	n/a
99.6105	0.059	199221	keystroke_m	m	n/a
99.775	0.0445	199550	keystroke_p	p	n/a
99.925	0.1055	199850	keystroke_i	i	n/a
100.015	0.075	200030	keystroke_o	o	n/a
100.2105	0.06	200421	keystroke_n	n	n/a
100.2855	0.075	200571	keystroke_s	s	n/a
100.4955	0.0745	200991	keystroke_h	h	n/a
100.54	0.06	201080	keystroke_i	i	n/a
100.7345	0.076	201469	keystroke_p	p	n/a
101.2595	0.0605	202519	keystroke_Key.enter	Key.enter	n/a
101.327	5.9195	202654	prompt	n/a	sources adequate check conditioning\n
101.9205	0.1045	203841	keystroke_s	s	n/a
102.01	0.0445	204020	keystroke_o	o	n/a
102.3545	0.03	204709	keystroke_u	u	n/a
102.3695	0.03	204739	keystroke_r	r	n/a
102.445	0.09	204890	keystroke_c	c	n/a
102.6695	0.0605	205339	keystroke_e	e	n/a
102.8345	0.076	205669	keystroke_s	s	n/a
102.8945	0.075	205789	keystroke_Key.space	Key.space	n/a
103.0145	0.09	206029	keystroke_a	a	n/a
103.1805	0.0895	206361	keystroke_d	d	n/a
103.3445	0.075	206689	keystroke_e	e	n/a
104.035	0.075	208070	keystroke_q	q	n/a
104.155	0.075	208310	keystroke_u	u	n/a
104.3505	0.09	208701	keystroke_a	a	n/a
104.5595	0.06	209119	keystroke_t	t	n/a
104.695	0.0895	209390	keystroke_e	e	n/a
104.7995	0.06	209599	keystroke_Key.space	Key.space	n/a
104.92	0.0595	209840	keystroke_c	c	n/a
104.9805	0.0595	209961	keystroke_h	h	n/a
105.1145	0.0755	210229	keystroke_e	e	n/a
105.34	0.09	210680	keystroke_c	c	n/a
105.3855	0.089	210771	keystroke_k	k	n/a
105.5345	0.075	211069	keystroke_Key.space	Key.space	n/a
105.64	0.0745	211280	keystroke_c	c	n/a
105.7155	0.0445	211431	keystroke_o	o	n/a
105.865	0.075	211730	keystroke_n	n	n/a
105.955	0.059	211910	keystroke_d	d	n/a
106.0455	0.0595	212091	keystroke_i	i	n/a
106.15	0.0755	212300	keystroke_t	t	n/a
106.195	0.09	212390	keystroke_i	i	n/a
106.27	0.0755	212540	keystroke_o	o	n/a
106.4505	0.0595	212901	keystroke_n	n	n/a
106.6295	0.045	213259	keystroke_i	i	n/a
106.795	0.075	213590	keystroke_n	n	n/a
106.9145	0.0755	213829	keystroke_g	g	n/a
107.185	0.0595	214370	keystroke_Key.enter	Key.enter	n/a
107.252	4.1495	214504	prompt	n/a	somehow areas coal placement\n
107.7995	0.0905	215599	keystroke_s	s	n/a
107.9495	0.06	215899	keystroke_o	o	n/a
108.1305	0.074	216261	keystroke_m	m	n/a
108.2195	0.06	216439	keystroke_e	e	n/a
108.325	0.0595	216650	keystroke_h	h	n/a
108.4605	0.074	216921	keystroke_o	o	n/a
108.5505	0.075	217101	keystroke_w	w	n/a
108.655	0.045	217310	keystroke_Key.space	Key.space	n/a
108.76	0.09	217520	keystroke_a	a	n/a
108.895	0.09	217790	keystroke_r	r	n/a
108.97	0.105	217940	keystroke_e	e	n/a
109.105	0.1345	218210	keystroke_a	a	n/a
109.2095	0.135	218419	keystroke_s	s	n/a
109.45	0.0895	218900	keystroke_Key.space	Key.space	n/a
109.6145	0.061	219229	keystroke_c	c	n/a
109.7195	0.0305	219439	keystroke_o	o	n/a
109.81	0.0745	219620	keystroke_a	a	n/a
109.8855	0.0895	219771	keystroke_l	l	n/a
110.0345	0.06	220069	keystroke_Key.space	Key.space	n/a
110.2	0.0445	220400	keystroke_p	p	n/a
110.3645	0.0755	220729	keystroke_l	l	n/a
110.3795	0.076	220759	keystroke_a	a	n/a
110.5605	0.075	221121	keystroke_c	c	n/a
110.7395	0.076	221479	keystroke_e	e	n/a
110.8445	0.045	221689	keystroke_m	m	n/a
110.905	0.0905	221810	keystroke_e	e	n/a
111.0095	0.0455	222019	keystroke_n	n	n/a
111.1755	0.074	222351	keystroke_t	t	n/a
111.3545	0.045	222709	keystroke_Key.enter	Key.enter	n/a
111.407	7.045	222814	prompt	n/a	pick odds there's placement\n
111.97	0.03	223940	keystroke_p	p	n/a
112.135	0.03	224270	keystroke_i	i	n/a
112.166	0.059	224332	keystroke_c	c	n/a
112.285	0.06	224570	keystroke_k	k	n/a
112.4045	0.0605	224809	keystroke_Key.space	Key.space	n/a
112.5095	0.046	225019	keystroke_o	o	n/a
112.57	0.06	225140	keystroke_d	d	n/a
112.72	0.0755	225440	keystroke_d	d	n/a
112.855	0.09	225710	keystroke_s	s	n/a
112.99	0.0745	225980	keystroke_Key.space	Key.space	n/a
113.1555	0.06	226311	keystroke_t	t	n/a
113.2295	0.045	226459	keystroke_h	h	n/a
113.29	0.0895	226580	keystroke_e	e	n/a
113.3645	0.1505	226729	keystroke_r	r	n/a
113.4705	0.119	226941	keystroke_e	e	n/a
113.6355	0.044	227271	keystroke_'	'	n/a
113.7705	0.0595	227541	keystroke_s	s	n/a
113.95	0.09	227900	keystroke_Key.space	Key.space	n/a
114.25	0.045	228500	keystroke_p	p	n/a
114.385	0.06	228770	keystroke_a	a	n/a
114.4	0.06	228800	keystroke_l	l	n/a
114.535	0.075	229070	keystroke_c	c	n/a
114.715	0.0605	229430	keystroke_e	e	n/a
114.7755	0.045	229551	keystroke_m	m	n/a
114.8645	0.075	229729	keystroke_e	e	n/a
115.255	0.0455	230510	keystroke_Key.backspace	Key.backspace	n/a
115.39	0.045	230780	keystroke_Key.backspace	Key.backspace	n/a
115.525	0.06	231050	keystroke_Key.backspace	Key.backspace	n/a
115.66	0.075	231320	keystroke_Key.backspace	Key.backspace	n/a
115.825	0.075	231650	keystroke_Key.backspace	Key.backspace	n/a
116.1545	0.06	232309	keystroke_Key.backspace	Key.backspace	n/a
116.4395	0.0605	232879	keystroke_l	l	n/a
116.485	0.0595	232970	keystroke_a	a	n/a
116.6355	0.0895	233271	keystroke_c	c	n/a
116.8295	0.0605	233659	keystroke_e	e	n/a
116.935	0.0595	233870	keystroke_m	m	n/a
117.0245	0.075	234049	keystroke_e	e	n/a
117.1295	0.061	234259	keystroke_n	n	n/a
117.4145	0.031	234829	keystroke_t	t	n/a
118.3595	0.09	236719	keystroke_Key.enter	Key.enter	n/a
118.456	6.806	236912	prompt	n/a	citysearch privileges strip greece\n
119.26	0.075	238520	keystroke_c	c	n/a
119.35	0.0605	238700	keystroke_i	i	n/a
119.485	0.06	238970	keystroke_t	t	n/a
119.575	0.06	239150	keystroke_y	y	n/a
119.89	0.075	239780	keystroke_s	s	n/a
120.1155	0.0595	240231	keystroke_e	e	n/a
120.235	0.105	240470	keystroke_a	a	n/a
120.3855	0.0745	240771	keystroke_r	r	n/a
120.6255	0.0595	241251	keystroke_c	c	n/a
120.6705	0.0595	241341	keystroke_h	h	n/a
120.805	0.06	241610	keystroke_Key.space	Key.space	n/a
120.94	0.0605	241880	keystroke_p	p	n/a
121.0595	0.061	242119	keystroke_r	r	n/a
121.1505	0.075	242301	keystroke_i	i	n/a
121.3145	0.061	242629	keystroke_v	v	n/a
121.3905	0.06	242781	keystroke_i	i	n/a
121.6	0.06	243200	keystroke_l	l	n/a
121.675	0.075	243350	keystroke_e	e	n/a
122.1855	0.045	244371	keystroke_g	g	n/a
122.4405	0.075	244881	keystroke_e	e	n/a
122.6955	0.075	245391	keystroke_s	s	n/a
122.9045	0.0605	245809	keystroke_Key.space	Key.space	n/a
123.0405	0.09	246081	keystroke_s	s	n/a
123.2205	0.0745	246441	keystroke_t	t	n/a
123.4005	0.06	246801	keystroke_r	r	n/a
123.4305	0.0595	246861	keystroke_i	i	n/a
123.565	0.06	247130	keystroke_p	p	n/a
123.685	0.06	247370	keystroke_Key.space	Key.space	n/a
123.8505	0.045	247701	keystroke_g	g	n/a
123.8655	0.075	247731	keystroke_r	r	n/a
124.0155	0.075	248031	keystroke_e	e	n/a
124.1505	0.075	248301	keystroke_e	e	n/a
124.4045	0.06	248809	keystroke_c	c	n/a
124.6595	0.06	249319	keystroke_e	e	n/a
125.1855	0.0745	250371	keystroke_Key.enter	Key.enter	n/a
125.267	7.9445	250534	prompt	n/a	correlation anatomy zambia montgomery\n
125.9055	0.0595	251811	keystroke_c	c	n/a
126.1295	0.045	252259	keystroke_o	o	n/a
126.2205	0.09	252441	keystroke_r	r	n/a
126.3705	0.075	252741	keystroke_r	r	n/a
126.4755	0.09	252951	keystroke_e	e	n/a
126.5805	0.06	253161	keystroke_l	l	n/a
126.7605	0.15	253521	keystroke_a	a	n/a
127.1655	0.06	254331	keystroke_t	t	n/a
127.2395	0.106	254479	keystroke_i	i	n/a
127.3155	0.09	254631	keystroke_o	o	n/a
127.5255	0.075	255051	keystroke_n	n	n/a
127.645	0.075	255290	keystroke_Key.space	Key.space	n/a
127.735	0.0755	255470	keystroke_a	a	n/a
127.84	0.045	255680	keystroke_n	n	n/a
127.9	0.0755	255800	keystroke_a	a	n/a
128.05	0.075	256100	keystroke_t	t	n/a
128.11	0.045	256220	keystroke_o	o	n/a
128.2605	0.075	256521	keystroke_m	m	n/a
128.35	0.0605	256700	keystroke_y	y	n/a
128.425	0.0755	256850	keystroke_Key.space	Key.space	n/a
128.725	0.06	257450	keystroke_x	x	n/a
128.89	0.105	257780	keystroke_a	a	n/a
129.01	0.06	258020	keystroke_m	m	n/a
129.4455	0.03	258891	keystroke_Key.backspace	Key.backspace	n/a
129.595	0.045	259190	keystroke_Key.backspace	Key.backspace	n/a
129.805	0.045	259610	keystroke_Key.backspace	Key.backspace	n/a
129.955	0.075	259910	keystroke_z	z	n/a
130.1505	0.0745	260301	keystroke_a	a	n/a
130.2105	0.0745	260421	keystroke_m	m	n/a
130.4205	0.0295	260841	keystroke_b	b	n/a
130.5105	0.0595	261021	keystroke_i	i	n/a
130.645	0.09	261290	keystroke_a	a	n/a
130.75	0.075	261500	keystroke_Key.space	Key.space	n/a
130.975	0.0605	261950	keystroke_m	m	n/a
131.1705	0.045	262341	keystroke_o	o	n/a
131.3355	0.075	262671	keystroke_n	n	n/a
131.8155	0.075	263631	keystroke_t	t	n/a
132.0855	0.0445	264171	keystroke_g	g	n/a
132.16	0.0455	264320	keystroke_o	o	n/a
132.3255	0.0595	264651	keystroke_m	m	n/a
132.4	0.0755	264800	keystroke_e	e	n/a
132.5355	0.06	265071	keystroke_r	r	n/a
132.6405	0.0595	265281	keystroke_y	y	n/a
133.1355	0.0745	266271	keystroke_Key.enter	Key.enter	n/a
133.215	4.6925	266430	prompt	n/a	writes subaru infections spoke\n
133.7955	0.105	267591	keystroke_w	w	n/a
133.9455	0.105	267891	keystroke_r	r	n/a
134.0655	0.045	268131	keystroke_i	i	n/a
134.1705	0.06	268341	keystroke_t	t	n/a
134.2905	0.0895	268581	keystroke_e	e	n/a
134.5	0.075	269000	keystroke_s	s	n/a
134.59	0.075	269180	keystroke_Key.space	Key.space	n/a
134.755	0.075	269510	keystroke_s	s	n/a
134.845	0.075	269690	keystroke_u	u	n/a
135.0705	0.0595	270141	keystroke_b	b	n/a
135.1605	0.12	270321	keystroke_a	a	n/a
135.43	0.0155	270860	keystroke_r	r	n/a
135.4605	0.045	270921	keystroke_u	u	n/a
135.6255	0.075	271251	keystroke_Key.space	Key.space	n/a
135.8055	0.06	271611	keystroke_i	i	n/a
135.9545	0.06	271909	keystroke_n	n	n/a
135.9695	0.06	271939	keystroke_f	f	n/a
136.1055	0.075	272211	keystroke_e	e	n/a
136.2995	0.09	272599	keystroke_c	c	n/a
136.5105	0.075	273021	keystroke_t	t	n/a
136.5705	0.089	273141	keystroke_i	i	n/a
136.6295	0.075	273259	keystroke_o	o	n/a
136.8245	0.0755	273649	keystroke_n	n	n/a
136.8855	0.06	273771	keystroke_s	s	n/a
136.9745	0.061	273949	keystroke_Key.space	Key.space	n/a
137.0805	0.044	274161	keystroke_s	s	n/a
137.1395	0.1355	274279	keystroke_p	p	n/a
137.2145	0.106	274429	keystroke_o	o	n/a
137.4255	0.0745	274851	keystroke_k	k	n/a
137.5305	0.0745	275061	keystroke_e	e	n/a
137.845	0.06	275690	keystroke_Key.enter	Key.enter	n/a
137.9125	5.724	275825	prompt	n/a	these're civilization spec review\n
138.5505	0.075	277101	keystroke_t	t	n/a
138.64	0.0605	277280	keystroke_h	h	n/a
138.7155	0.075	277431	keystroke_e	e	n/a
139.045	0.0755	278090	keystroke_e	e	n/a
139.48	0.0595	278960	keystroke_Key.backspace	Key.backspace	n/a
139.6005	0.075	279201	keystroke_s	s	n/a
139.7505	0.059	279501	keystroke_e	e	n/a
139.8245	0.061	279649	keystroke_'	'	n/a
139.9455	0.09	279891	keystroke_r	r	n/a
140.0505	0.09	280101	keystroke_e	e	n/a
140.4395	0.03	280879	keystroke_Key.space	Key.space	n/a
140.5595	0.0605	281119	keystroke_c	c	n/a
140.65	0.0605	281300	keystroke_i	i	n/a
140.77	0.045	281540	keystroke_v	v	n/a
140.8455	0.0445	281691	keystroke_i	i	n/a
141.025	0.06	282050	keystroke_l	l	n/a
141.175	0.0605	282350	keystroke_i	i	n/a
141.2355	0.0895	282471	keystroke_z	z	n/a
141.4305	0.09	282861	keystroke_a	a	n/a
141.6105	0.075	283221	keystroke_t	t	n/a
141.67	0.1055	283340	keystroke_i	i	n/a
141.7455	0.075	283491	keystroke_o	o	n/a
141.9405	0.06	283881	keystroke_n	n	n/a
142.0605	0.075	284121	keystroke_Key.space	Key.space	n/a
142.1955	0.075	284391	keystroke_s	s	n/a
142.2555	0.06	284511	keystroke_p	p	n/a
142.3605	0.075	284721	keystroke_e	e	n/a
142.5705	0.0595	285141	keystroke_c	c	n/a
142.6305	0.06	285261	keystroke_Key.space	Key.space	n/a
142.7645	0.061	285529	keystroke_r	r	n/a
142.8705	0.0895	285741	keystroke_e	e	n/a
143.095	0.075	286190	keystroke_v	v	n/a
143.171	0.0585	286342	keystroke_i	i	n/a
143.2895	0.061	286579	keystroke_e	e	n/a
143.3805	0.09	286761	keystroke_w	w	n/a
143.5755	0.06	287151	keystroke_Key.enter	Key.enter	n/a
143.641	5.1255	287282	prompt	n/a	rhode script opportunity tion\n
144.25	0.0755	288500	keystroke_r	r	n/a
144.3555	0.044	288711	keystroke_h	h	n/a
144.5345	0.045	289069	keystroke_o	o	n/a
144.64	0.0895	289280	keystroke_d	d	n/a
144.8645	0.061	289729	keystroke_e	e	n/a
144.94	0.0745	289880	keystroke_Key.space	Key.space	n/a
145.0295	0.06	290059	keystroke_s	s	n/a
145.1955	0.075	290391	keystroke_c	c	n/a
145.4355	0.03	290871	keystroke_r	r	n/a
145.4505	0.074	290901	keystroke_i	i	n/a
145.6005	0.0595	291201	keystroke_p	p	n/a
145.7045	0.061	291409	keystroke_t	t	n/a
145.81	0.06	291620	keystroke_Key.space	Key.space	n/a
145.975	0.075	291950	keystroke_o	o	n/a
146.065	0.0755	292130	keystroke_p	p	n/a
146.23	0.135	292460	keystroke_p	p	n/a
146.365	0.0745	292730	keystroke_o	o	n/a
146.7855	0.0745	293571	keystroke_r	r	n/a
147.2045	0.075	294409	keystroke_t	t	n/a
147.2945	0.046	294589	keystroke_u	u	n/a
147.4595	0.061	294919	keystroke_n	n	n/a
147.61	0.0595	295220	keystroke_i	i	n/a
147.7005	0.045	295401	keystroke_t	t	n/a
147.8505	0.06	295701	keystroke_y	y	n/a
147.9255	0.0595	295851	keystroke_Key.space	Key.space	n/a
148.06	0.045	296120	keystroke_t	t	n/a
148.135	0.1205	296270	keystroke_i	i	n/a
148.2255	0.0895	296451	keystroke_o	o	n/a
148.45	0.06	296900	keystroke_n	n	n/a
148.705	0.06	297410	keystroke_Key.enter	Key.enter	n/a
148.7695	3.268	297539	prompt	n/a	anyone kids facial maker\n
149.335	0.09	298670	keystroke_a	a	n/a
149.41	0.045	298820	keystroke_n	n	n/a
149.5745	0.045	299149	keystroke_y	y	n/a
149.7395	0.0455	299479	keystroke_o	o	n/a
149.8905	0.059	299781	keystroke_n	n	n/a
149.9345	0.09	299869	keystroke_e	e	n/a
150.04	0.03	300080	keystroke_Key.space	Key.space	n/a
150.1605	0.0445	300321	keystroke_k	k	n/a
150.295	0.0605	300590	keystroke_i	i	n/a
150.325	0.105	300650	keystroke_d	d	n/a
150.4455	0.0895	300891	keystroke_s	s	n/a
150.52	0.075	301040	keystroke_Key.space	Key.space	n/a
150.685	0.0455	301370	keystroke_f	f	n/a
150.76	0.09	301520	keystroke_a	a	n/a
150.94	0.09	301880	keystroke_c	c	n/a
151.015	0.0455	302030	keystroke_i	i	n/a
151.135	0.075	302270	keystroke_a	a	n/a
151.195	0.075	302390	keystroke_l	l	n/a
151.315	0.09	302630	keystroke_Key.space	Key.space	n/a
151.42	0.06	302840	keystroke_m	m	n/a
151.495	0.09	302990	keystroke_a	a	n/a
151.6	0.06	303200	keystroke_k	k	n/a
151.675	0.09	303350	keystroke_e	e	n/a
151.765	0.105	303530	keystroke_r	r	n/a
151.975	0.0595	303950	keystroke_Key.enter	Key.enter	n/a
152.0425	3.8345	304085	prompt	n/a	cams witness saints became\n
152.605	0.075	305210	keystroke_c	c	n/a
152.74	0.09	305480	keystroke_a	a	n/a
152.815	0.0605	305630	keystroke_m	m	n/a
152.905	0.105	305810	keystroke_s	s	n/a
152.995	0.075	305990	keystroke_Key.space	Key.space	n/a
153.16	0.045	306320	keystroke_w	w	n/a
153.19	0.0605	306380	keystroke_i	i	n/a
153.3255	0.0745	306651	keystroke_t	t	n/a
153.445	0.0605	306890	keystroke_n	n	n/a
153.6245	0.0605	307249	keystroke_e	e	n/a
153.85	0.0605	307700	keystroke_s	s	n/a
153.9855	0.06	307971	keystroke_s	s	n/a
154.0755	0.075	308151	keystroke_Key.space	Key.space	n/a
154.1805	0.06	308361	keystroke_s	s	n/a
154.3005	0.09	308601	keystroke_a	a	n/a
154.4055	0.045	308811	keystroke_i	i	n/a
154.5555	0.075	309111	keystroke_n	n	n/a
154.6005	0.075	309201	keystroke_t	t	n/a
154.7355	0.105	309471	keystroke_s	s	n/a
154.8555	0.045	309711	keystroke_Key.space	Key.space	n/a
154.96	0.075	309920	keystroke_b	b	n/a
154.99	0.06	309980	keystroke_e	e	n/a
155.2005	0.075	310401	keystroke_c	c	n/a
155.3495	0.075	310699	keystroke_a	a	n/a
155.4255	0.06	310851	keystroke_m	m	n/a
155.5605	0.059	311121	keystroke_e	e	n/a
155.8295	0.0455	311659	keystroke_Key.enter	Key.enter	n/a
155.881	4.6005	311762	prompt	n/a	chapter facilitate request modes\n
156.5055	0.075	313011	keystroke_c	c	n/a
156.5955	0.06	313191	keystroke_h	h	n/a
156.6705	0.075	313341	keystroke_a	a	n/a
156.805	0.045	313610	keystroke_p	p	n/a
156.865	0.0605	313730	keystroke_t	t	n/a
157.0005	0.0895	314001	keystroke_e	e	n/a
157.0605	0.089	314121	keystroke_r	r	n/a
157.1945	0.06	314389	keystroke_Key.space	Key.space	n/a
157.2845	0.076	314569	keystroke_f	f	n/a
157.405	0.075	314810	keystroke_a	a	n/a
157.5695	0.06	315139	keystroke_c	c	n/a
157.675	0.015	315350	keystroke_i	i	n/a
157.81	0.06	315620	keystroke_l	l	n/a
157.945	0.0755	315890	keystroke_i	i	n/a
157.99	0.06	315980	keystroke_t	t	n/a
158.11	0.105	316220	keystroke_a	a	n/a
158.2455	0.0745	316491	keystroke_t	t	n/a
158.3805	0.09	316761	keystroke_e	e	n/a
158.5	0.0595	317000	keystroke_Key.space	Key.space	n/a
158.68	0.0905	317360	keystroke_r	r	n/a
158.7845	0.105	317569	keystroke_e	e	n/a
158.98	0.075	317960	keystroke_q	q	n/a
159.0695	0.076	318139	keystroke_u	u	n/a
159.1595	0.075	318319	keystroke_e	e	n/a
159.325	0.0745	318650	keystroke_s	s	n/a
159.385	0.0745	318770	keystroke_t	t	n/a
159.5495	0.06	319099	keystroke_Key.space	Key.space	n/a
159.745	0.06	319490	keystroke_m	m	n/a
159.8795	0.076	319759	keystroke_o	o	n/a
159.9395	0.06	319879	keystroke_d	d	n/a
160.0745	0.075	320149	keystroke_e	e	n/a
160.27	0.06	320540	keystroke_s	s	n/a
160.45	0.029	320900	keystroke_Key.enter	Key.enter	n/a
160.485	6.8065	320970	prompt	n/a	strand positions cause gabriel\n
161.0505	0.06	322101	keystroke_s	s	n/a
161.215	0.075	322430	keystroke_t	t	n/a
161.38	0.0905	322760	keystroke_r	r	n/a
161.5005	0.075	323001	keystroke_a	a	n/a
161.59	0.06	323180	keystroke_n	n	n/a
161.695	0.0605	323390	keystroke_d	d	n/a
161.8	0.075	323600	keystroke_Key.space	Key.space	n/a
161.98	0.045	323960	keystroke_p	p	n/a
162.13	0.06	324260	keystroke_o	o	n/a
162.2355	0.0445	324471	keystroke_s	s	n/a
162.3105	0.075	324621	keystroke_i	i	n/a
162.4155	0.09	324831	keystroke_t	t	n/a
162.49	0.1055	324980	keystroke_i	i	n/a
162.55	0.12	325100	keystroke_o	o	n/a
163.87	0.06	327740	keystroke_n	n	n/a
164.0805	0.089	328161	keystroke_s	s	n/a
164.335	0.075	328670	keystroke_Key.space	Key.space	n/a
164.5445	0.045	329089	keystroke_c	c	n/a
164.6495	0.1505	329299	keystroke_a	a	n/a
164.7695	0.0605	329539	keystroke_u	u	n/a
164.8145	0.121	329629	keystroke_s	s	n/a
165.04	0.12	330080	keystroke_e	e	n/a
165.4	0.075	330800	keystroke_Key.space	Key.space	n/a
165.73	0.06	331460	keystroke_g	g	n/a
166.225	0.0895	332450	keystroke_a	a	n/a
166.48	0.0595	332960	keystroke_b	b	n/a
166.6445	0.06	333289	keystroke_r	r	n/a
166.72	0.045	333440	keystroke_i	i	n/a
166.8705	0.09	333741	keystroke_e	e	n/a
166.9455	0.074	333891	keystroke_l	l	n/a
167.245	0.0445	334490	keystroke_Key.enter	Key.enter	n/a
167.296	6.0105	334592	prompt	n/a	procedures lounge rating fisher\n
167.92	0.0445	335840	keystroke_p	p	n/a
167.9805	0.074	335961	keystroke_r	r	n/a
168.1	0.0605	336200	keystroke_o	o	n/a
168.2045	0.0755	336409	keystroke_c	c	n/a
168.3695	0.06	336739	keystroke_e	e	n/a
168.91	0.075	337820	keystroke_d	d	n/a
169.015	0.06	338030	keystroke_u	u	n/a
169.135	0.1055	338270	keystroke_r	r	n/a
169.255	0.105	338510	keystroke_e	e	n/a
169.435	0.09	338870	keystroke_s	s	n/a
169.495	0.075	338990	keystroke_Key.space	Key.space	n/a
169.675	0.045	339350	keystroke_l	l	n/a
170.1545	0.076	340309	keystroke_o	o	n/a
170.365	0.06	340730	keystroke_u	u	n/a
170.56	0.06	341120	keystroke_n	n	n/a
170.635	0.075	341270	keystroke_g	g	n/a
170.83	0.075	341660	keystroke_e	e	n/a
170.92	0.06	341840	keystroke_Key.space	Key.space	n/a
171.025	0.075	342050	keystroke_r	r	n/a
171.1305	0.105	342261	keystroke_a	a	n/a
171.325	0.06	342650	keystroke_t	t	n/a
171.4	0.045	342800	keystroke_i	i	n/a
171.5505	0.0895	343101	keystroke_n	n	n/a
171.625	0.0455	343250	keystroke_g	g	n/a
171.7145	0.06	343429	keystroke_Key.space	Key.space	n/a
172.12	0.06	344240	keystroke_f	f	n/a
172.195	0.075	344390	keystroke_i	i	n/a
172.285	0.0895	344570	keystroke_s	s	n/a
172.4045	0.0755	344809	keystroke_h	h	n/a
172.54	0.105	345080	keystroke_e	e	n/a
172.66	0.105	345320	keystroke_r	r	n/a
173.1845	0.1205	346369	keystroke_Key.enter	Key.enter	n/a
173.313	5.7985	346626	prompt	n/a	enlargement focusing latex reason\n
173.9055	0.09	347811	keystroke_e	e	n/a
174.0105	0.0445	348021	keystroke_n	n	n/a
174.175	0.0595	348350	keystroke_l	l	n/a
174.2495	0.091	348499	keystroke_a	a	n/a
174.3695	0.0755	348739	keystroke_r	r	n/a
174.475	0.06	348950	keystroke_g	g	n/a
174.565	0.09	349130	keystroke_e	e	n/a
174.715	0.09	349430	keystroke_m	m	n/a
174.835	0.075	349670	keystroke_e	e	n/a
174.9255	0.0595	349851	keystroke_n	n	n/a
175.1495	0.06	350299	keystroke_t	t	n/a
175.2545	0.075	350509	keystroke_Key.space	Key.space	n/a
175.5995	0.045	351199	keystroke_f	f	n/a
175.6755	0.075	351351	keystroke_o	o	n/a
175.825	0.0745	351650	keystroke_c	c	n/a
175.945	0.0595	351890	keystroke_u	u	n/a
176.0945	0.061	352189	keystroke_s	s	n/a
176.1405	0.0595	352281	keystroke_i	i	n/a
176.3195	0.09	352639	keystroke_n	n	n/a
176.4245	0.016	352849	keystroke_g	g	n/a
176.4845	0.045	352969	keystroke_Key.space	Key.space	n/a
176.62	0.06	353240	keystroke_l	l	n/a
176.665	0.075	353330	keystroke_a	a	n/a
176.83	0.09	353660	keystroke_t	t	n/a
176.995	0.0755	353990	keystroke_e	e	n/a
177.235	0.075	354470	keystroke_x	x	n/a
177.355	0.075	354710	keystroke_Key.space	Key.space	n/a
177.52	0.0905	355040	keystroke_r	r	n/a
177.6555	0.119	355311	keystroke_e	e	n/a
177.8645	0.1655	355729	keystroke_a	a	n/a
177.9545	0.151	355909	keystroke_s	s	n/a
178.1495	0.061	356299	keystroke_o	o	n/a
178.3605	0.074	356721	keystroke_n	n	n/a
179.005	0.105	358010	keystroke_Key.enter	Key.enter	n/a
179.1155	4.631	358231	prompt	n/a	several campus smoking survivors\n
179.7705	0.074	359541	keystroke_s	s	n/a
179.9345	0.1055	359869	keystroke_e	e	n/a
180.0555	0.044	360111	keystroke_v	v	n/a
180.13	0.0745	360260	keystroke_e	e	n/a
180.235	0.0895	360470	keystroke_r	r	n/a
180.37	0.0905	360740	keystroke_a	a	n/a
180.4745	0.0605	360949	keystroke_l	l	n/a
180.625	0.075	361250	keystroke_Key.space	Key.space	n/a
180.805	0.0755	361610	keystroke_c	c	n/a
180.9395	0.09	361879	keystroke_a	a	n/a
180.9845	0.06	361969	keystroke_m	m	n/a
181.18	0.06	362360	keystroke_p	p	n/a
181.375	0.045	362750	keystroke_u	u	n/a
181.435	0.09	362870	keystroke_s	s	n/a
181.51	0.06	363020	keystroke_Key.space	Key.space	n/a
181.6755	0.06	363351	keystroke_s	s	n/a
181.705	0.0605	363410	keystroke_m	m	n/a
181.885	0.135	363770	keystroke_o	o	n/a
181.975	0.09	363950	keystroke_k	k	n/a
182.1855	0.0595	364371	keystroke_i	i	n/a
182.365	0.075	364730	keystroke_n	n	n/a
182.41	0.06	364820	keystroke_g	g	n/a
182.5	0.09	365000	keystroke_Key.space	Key.space	n/a
182.605	0.09	365210	keystroke_s	s	n/a
182.68	0.045	365360	keystroke_u	u	n/a
182.77	0.075	365540	keystroke_r	r	n/a
182.995	0.045	365990	keystroke_v	v	n/a
183.0255	0.0595	366051	keystroke_i	i	n/a
183.13	0.0755	366260	keystroke_v	v	n/a
183.22	0.075	366440	keystroke_o	o	n/a
183.34	0.06	366680	keystroke_r	r	n/a
183.505	0.0895	367010	keystroke_s	s	n/a
183.64	0.1045	367280	keystroke_Key.enter	Key.enter	n/a
183.75	6.116	367500	prompt	n/a	china creation manufacturers bodies\n
184.36	0.03	368720	keystroke_c	c	n/a
184.3755	0.074	368751	keystroke_h	h	n/a
184.5545	0.0605	369109	keystroke_i	i	n/a
184.72	0.0755	369440	keystroke_n	n	n/a
184.78	0.09	369560	keystroke_a	a	n/a
184.915	0.075	369830	keystroke_Key.space	Key.space	n/a
185.29	0.09	370580	keystroke_c	c	n/a
185.515	0.06	371030	keystroke_r	r	n/a
185.59	0.1195	371180	keystroke_e	e	n/a
185.7555	0.09	371511	keystroke_a	a	n/a
185.935	0.0605	371870	keystroke_t	t	n/a
185.9805	0.12	371961	keystroke_i	i	n/a
186.0705	0.089	372141	keystroke_o	o	n/a
186.2645	0.0755	372529	keystroke_n	n	n/a
186.37	0.06	372740	keystroke_Key.space	Key.space	n/a
186.5055	0.06	373011	keystroke_m	m	n/a
186.5805	0.06	373161	keystroke_a	a	n/a
186.6555	0.075	373311	keystroke_n	n	n/a
186.8355	0.06	373671	keystroke_u	u	n/a
186.9995	0.075	373999	keystroke_f	f	n/a
187.1355	0.09	374271	keystroke_a	a	n/a
187.3305	0.075	374661	keystroke_c	c	n/a
187.5695	0.0455	375139	keystroke_t	t	n/a
187.6305	0.059	375261	keystroke_u	u	n/a
187.7505	0.12	375501	keystroke_r	r	n/a
187.8545	0.15	375709	keystroke_e	e	n/a
187.9895	0.165	375979	keystroke_r	r	n/a
188.35	0.03	376700	keystroke_s	s	n/a
188.5005	0.1045	377001	keystroke_Key.space	Key.space	n/a
188.92	0.075	377840	keystroke_b	b	n/a
188.98	0.0605	377960	keystroke_o	o	n/a
189.1	0.075	378200	keystroke_d	d	n/a
189.19	0.0605	378380	keystroke_i	i	n/a
189.31	0.0755	378620	keystroke_e	e	n/a
189.52	0.0755	379040	keystroke_s	s	n/a
189.805	0.06	379610	keystroke_Key.enter	Key.enter	n/a
189.8705	4.496	379741	prompt	n/a	todd area baskets latitude\n
190.4655	0.0595	380931	keystroke_t	t	n/a
190.5405	0.0595	381081	keystroke_o	o	n/a
190.7205	0.0595	381441	keystroke_d	d	n/a
190.855	0.0755	381710	keystroke_d	d	n/a
190.945	0.075	381890	keystroke_Key.space	Key.space	n/a
191.08	0.1055	382160	keystroke_a	a	n/a
191.1995	0.106	382399	keystroke_r	r	n/a
191.2755	0.1195	382551	keystroke_e	e	n/a
191.4255	0.119	382851	keystroke_a	a	n/a
191.59	0.075	383180	keystroke_Key.space	Key.space	n/a
191.7555	0.074	383511	keystroke_b	b	n/a
191.8145	0.12	383629	keystroke_a	a	n/a
191.8595	0.1505	383719	keystroke_s	s	n/a
192.055	0.0295	384110	keystroke_k	k	n/a
192.145	0.0755	384290	keystroke_e	e	n/a
192.3245	0.0905	384649	keystroke_t	t	n/a
192.49	0.075	384980	keystroke_s	s	n/a
192.625	0.075	385250	keystroke_Key.space	Key.space	n/a
193.0155	0.0745	386031	keystroke_l	l	n/a
193.06	0.09	386120	keystroke_a	a	n/a
193.2395	0.0755	386479	keystroke_t	t	n/a
193.3295	0.06	386659	keystroke_i	i	n/a
193.405	0.0905	386810	keystroke_t	t	n/a
193.5245	0.0755	387049	keystroke_u	u	n/a
193.8705	0.075	387741	keystroke_d	d	n/a
194.0805	0.0595	388161	keystroke_e	e	n/a
194.305	0.0595	388610	keystroke_Key.enter	Key.enter	n/a
194.3705	4.4215	388741	prompt	n/a	exhaust surge poetry encoding\n
195.0255	0.075	390051	keystroke_e	e	n/a
195.265	0.0905	390530	keystroke_x	x	n/a
195.34	0.0605	390680	keystroke_h	h	n/a
195.445	0.075	390890	keystroke_a	a	n/a
195.535	0.0605	391070	keystroke_u	u	n/a
195.61	0.0905	391220	keystroke_s	s	n/a
195.865	0.03	391730	keystroke_t	t	n/a
195.925	0.09	391850	keystroke_Key.space	Key.space	n/a
196.18	0.045	392360	keystroke_s	s	n/a
196.226	0.074	392452	keystroke_u	u	n/a
196.36	0.075	392720	keystroke_r	r	n/a
196.45	0.0605	392900	keystroke_g	g	n/a
196.555	0.075	393110	keystroke_e	e	n/a
196.6895	0.0755	393379	keystroke_Key.space	Key.space	n/a
196.8855	0.0745	393771	keystroke_p	p	n/a
197.0495	0.076	394099	keystroke_o	o	n/a
197.0955	0.0895	394191	keystroke_e	e	n/a
197.305	0.075	394610	keystroke_t	t	n/a
197.485	0.06	394970	keystroke_r	r	n/a
197.53	0.06	395060	keystroke_y	y	n/a
197.6655	0.0595	395331	keystroke_Key.space	Key.space	n/a
197.74	0.09	395480	keystroke_e	e	n/a
197.845	0.075	395690	keystroke_n	n	n/a
198.01	0.09	396020	keystroke_c	c	n/a
198.07	0.075	396140	keystroke_o	o	n/a
198.25	0.075	396500	keystroke_d	d	n/a
198.31	0.045	396620	keystroke_i	i	n/a
198.49	0.045	396980	keystroke_n	n	n/a
198.565	0.075	397130	keystroke_g	g	n/a
198.73	0.06	397460	keystroke_Key.enter	Key.enter	n/a
198.796	5.0805	397592	prompt	n/a	incoming forestry goat occur\n
199.42	0.045	398840	keystroke_i	i	n/a
199.5705	0.0595	399141	keystroke_n	n	n/a
199.6445	0.0605	399289	keystroke_c	c	n/a
199.765	0.03	399530	keystroke_o	o	n/a
199.9445	0.0305	399889	keystroke_m	m	n/a
200.3045	0.046	400609	keystroke_n	n	n/a
200.6945	0.0605	401389	keystroke_Key.backspace	Key.backspace	n/a
200.9495	0.0455	401899	keystroke_i	i	n/a
201.13	0.075	402260	keystroke_n	n	n/a
201.235	0.075	402470	keystroke_g	g	n/a
201.2945	0.075	402589	keystroke_Key.space	Key.space	n/a
201.445	0.0895	402890	keystroke_f	f	n/a
201.5045	0.061	403009	keystroke_o	o	n/a
201.625	0.105	403250	keystroke_r	r	n/a
201.7155	0.1045	403431	keystroke_e	e	n/a
201.8655	0.104	403731	keystroke_s	s	n/a
202.0455	0.0745	404091	keystroke_t	t	n/a
202.2395	0.0605	404479	keystroke_r	r	n/a
202.285	0.0605	404570	keystroke_y	y	n/a
202.4045	0.0755	404809	keystroke_Key.space	Key.space	n/a
202.51	0.0445	405020	keystroke_g	g	n/a
202.6	0.06	405200	keystroke_o	o	n/a
202.6755	0.089	405351	keystroke_a	a	n/a
202.8545	0.06	405709	keystroke_t	t	n/a
202.9295	0.075	405859	keystroke_Key.space	Key.space	n/a
203.0655	0.0745	406131	keystroke_o	o	n/a
203.1555	0.0745	406311	keystroke_c	c	n/a
203.305	0.075	406610	keystroke_c	c	n/a
203.38	0.075	406760	keystroke_u	u	n/a
203.56	0.06	407120	keystroke_r	r	n/a
203.8	0.075	407600	keystroke_Key.enter	Key.enter	n/a
203.881	4.2255	407762	prompt	n/a	changed nato arrive wikipedia\n
204.475	0.015	408950	keystroke_c	c	n/a
204.505	0.0605	409010	keystroke_h	h	n/a
204.595	0.09	409190	keystroke_a	a	n/a
204.7	0.0605	409400	keystroke_n	n	n/a
204.79	0.06	409580	keystroke_g	g	n/a
204.94	0.075	409880	keystroke_e	e	n/a
205.09	0.09	410180	keystroke_d	d	n/a
205.1645	0.0605	410329	keystroke_Key.space	Key.space	n/a
205.2855	0.105	410571	keystroke_n	n	n/a
205.3445	0.061	410689	keystroke_a	a	n/a
205.525	0.075	411050	keystroke_t	t	n/a
205.5855	0.06	411171	keystroke_o	o	n/a
205.72	0.075	411440	keystroke_Key.space	Key.space	n/a
205.84	0.075	411680	keystroke_a	a	n/a
206.0045	0.0605	412009	keystroke_r	r	n/a
206.1405	0.045	412281	keystroke_r	r	n/a
206.2005	0.06	412401	keystroke_i	i	n/a
206.3355	0.059	412671	keystroke_v	v	n/a
206.5745	0.015	413149	keystroke_e	e	n/a
206.605	0.0595	413210	keystroke_Key.space	Key.space	n/a
206.7545	0.09	413509	keystroke_w	w	n/a
206.8295	0.03	413659	keystroke_i	i	n/a
206.9805	0.044	413961	keystroke_k	k	n/a
207.1005	0.0595	414201	keystroke_i	i	n/a
207.2655	0.059	414531	keystroke_p	p	n/a
207.2945	0.076	414589	keystroke_e	e	n/a
207.46	0.0905	414920	keystroke_d	d	n/a
207.535	0.0595	415070	keystroke_i	i	n/a
207.6405	0.0895	415281	keystroke_a	a	n/a
208.0445	0.0605	416089	keystroke_Key.enter	Key.enter	n/a
208.1115	4	416223	prompt	n/a	pics lonely dressing refine\n
208.6905	0.045	417381	keystroke_p	p	n/a
208.8705	0.059	417741	keystroke_i	i	n/a
208.8995	0.106	417799	keystroke_c	c	n/a
209.0495	0.0755	418099	keystroke_s	s	n/a
209.095	0.0595	418190	keystroke_Key.space	Key.space	n/a
209.2455	0.059	418491	keystroke_l	l	n/a
209.4105	0.045	418821	keystroke_o	o	n/a
209.5755	0.045	419151	keystroke_n	n	n/a
209.6505	0.074	419301	keystroke_e	e	n/a
209.7705	0.074	419541	keystroke_l	l	n/a
209.9055	0.074	419811	keystroke_y	y	n/a
209.9645	0.075	419929	keystroke_Key.space	Key.space	n/a
210.16	0.06	420320	keystroke_d	d	n/a
210.325	0.06	420650	keystroke_r	r	n/a
210.4	0.105	420800	keystroke_e	e	n/a
210.6255	0.044	421251	keystroke_s	s	n/a
210.7595	0.046	421519	keystroke_s	s	n/a
210.8055	0.0595	421611	keystroke_i	i	n/a
210.955	0.09	421910	keystroke_n	n	n/a
211.015	0.06	422030	keystroke_g	g	n/a
211.12	0.075	422240	keystroke_Key.space	Key.space	n/a
211.225	0.06	422450	keystroke_r	r	n/a
211.345	0.0745	422690	keystroke_e	e	n/a
211.5405	0.075	423081	keystroke_f	f	n/a
211.6455	0.0445	423291	keystroke_i	i	n/a
211.8095	0.061	423619	keystroke_n	n	n/a
211.885	0.06	423770	keystroke_e	e	n/a
212.0495	0.06	424099	keystroke_Key.enter	Key.enter	n/a
212.1175	5.229	424235	prompt	n/a	buyers trustees proc engineers\n
212.7845	0.0605	425569	keystroke_b	b	n/a
212.8295	0.0605	425659	keystroke_u	u	n/a
212.995	0.06	425990	keystroke_y	y	n/a
213.07	0.09	426140	keystroke_e	e	n/a
213.1755	0.1045	426351	keystroke_r	r	n/a
213.415	0.0905	426830	keystroke_s	s	n/a
213.565	0.075	427130	keystroke_Key.space	Key.space	n/a
213.7	0.075	427400	keystroke_t	t	n/a
213.895	0.0745	427790	keystroke_r	r	n/a
213.9855	0.074	427971	keystroke_u	u	n/a
214.165	0.06	428330	keystroke_s	s	n/a
214.2555	0.0745	428511	keystroke_t	t	n/a
214.3895	0.0755	428779	keystroke_e	e	n/a
214.5405	0.0745	429081	keystroke_e	e	n/a
214.8105	0.074	429621	keystroke_s	s	n/a
215.335	0.1045	430670	keystroke_Key.space	Key.space	n/a
215.5755	0.059	431151	keystroke_p	p	n/a
215.665	0.06	431330	keystroke_r	r	n/a
215.7855	0.0595	431571	keystroke_o	o	n/a
215.9195	0.0755	431839	keystroke_c	c	n/a
215.9795	0.075	431959	keystroke_Key.space	Key.space	n/a
216.1445	0.0455	432289	keystroke_e	e	n/a
216.205	0.0605	432410	keystroke_n	n	n/a
216.3255	0.06	432651	keystroke_g	g	n/a
216.4005	0.045	432801	keystroke_i	i	n/a
216.55	0.06	433100	keystroke_n	n	n/a
216.6405	0.075	433281	keystroke_e	e	n/a
216.79	0.09	433580	keystroke_e	e	n/a
216.94	0.0755	433880	keystroke_r	r	n/a
217.135	0.0605	434270	keystroke_s	s	n/a
217.285	0.06	434570	keystroke_Key.enter	Key.enter	n/a
217.3515	5.3955	434703	prompt	n/a	brother toll extras officials\n
217.99	0.015	435980	keystroke_b	b	n/a
218.1255	0.0595	436251	keystroke_r	r	n/a
218.23	0.0605	436460	keystroke_o	o	n/a
218.3055	0.0745	436611	keystroke_t	t	n/a
218.44	0.06	436880	keystroke_h	h	n/a
218.4705	0.1045	436941	keystroke_e	e	n/a
218.5605	0.1195	437121	keystroke_r	r	n/a
218.695	0.075	437390	keystroke_Key.space	Key.space	n/a
218.86	0.0595	437720	keystroke_t	t	n/a
218.9345	0.06	437869	keystroke_o	o	n/a
219.175	0.015	438350	keystroke_l	l	n/a
219.265	0.09	438530	keystroke_l	l	n/a
219.4445	0.0905	438889	keystroke_Key.space	Key.space	n/a
219.52	0.06	439040	keystroke_e	e	n/a
219.76	0.0605	439520	keystroke_x	x	n/a
220.5395	0.0605	441079	keystroke_t	t	n/a
220.7205	0.059	441441	keystroke_r	r	n/a
220.7945	0.1055	441589	keystroke_a	a	n/a
220.8695	0.12	441739	keystroke_s	s	n/a
221.1105	0.0745	442221	keystroke_Key.space	Key.space	n/a
221.2905	0.0595	442581	keystroke_o	o	n/a
221.395	0.06	442790	keystroke_f	f	n/a
221.5305	0.0595	443061	keystroke_f	f	n/a
221.605	0.06	443210	keystroke_i	i	n/a
221.7255	0.0745	443451	keystroke_c	c	n/a
221.785	0.06	443570	keystroke_i	i	n/a
221.905	0.075	443810	keystroke_a	a	n/a
222.0105	0.0595	444021	keystroke_l	l	n/a
222.13	0.06	444260	keystroke_s	s	n/a
222.655	0.09	445310	keystroke_Key.enter	Key.enter	n/a
222.754	6.548	445508	prompt	n/a	wikipedia sheriff scheduling livecam\n
223.36	0.075	446720	keystroke_w	w	n/a
223.45	0.0455	446900	keystroke_i	i	n/a
223.6	0.0455	447200	keystroke_k	k	n/a
223.7345	0.0605	447469	keystroke_i	i	n/a
223.975	0.06	447950	keystroke_p	p	n/a
224.2445	0.106	448489	keystroke_e	e	n/a
224.5	0.0895	449000	keystroke_d	d	n/a
224.6495	0.076	449299	keystroke_i	i	n/a
224.8605	0.075	449721	keystroke_a	a	n/a
224.995	0.0745	449990	keystroke_Key.space	Key.space	n/a
225.25	0.1195	450500	keystroke_s	s	n/a
225.3245	0.061	450649	keystroke_h	h	n/a
225.4745	0.06	450949	keystroke_e	e	n/a
225.625	0.075	451250	keystroke_r	r	n/a
225.8055	0.0445	451611	keystroke_i	i	n/a
225.91	0.06	451820	keystroke_f	f	n/a
226.0455	0.0745	452091	keystroke_f	f	n/a
226.15	0.075	452300	keystroke_Key.space	Key.space	n/a
226.24	0.0605	452480	keystroke_s	s	n/a
226.42	0.0755	452840	keystroke_c	c	n/a
226.5405	0.06	453081	keystroke_h	h	n/a
226.6455	0.075	453291	keystroke_e	e	n/a
227.155	0.0595	454310	keystroke_d	d	n/a
227.2455	0.074	454491	keystroke_u	u	n/a
227.5145	0.075	455029	keystroke_l	l	n/a
227.7245	0.0305	455449	keystroke_i	i	n/a
227.8745	0.0755	455749	keystroke_n	n	n/a
227.9195	0.06	455839	keystroke_g	g	n/a
227.9945	0.1055	455989	keystroke_Key.space	Key.space	n/a
228.175	0.0605	456350	keystroke_l	l	n/a
228.325	0.06	456650	keystroke_i	i	n/a
228.34	0.0605	456680	keystroke_v	v	n/a
228.52	0.06	457040	keystroke_e	e	n/a
228.7145	0.075	457429	keystroke_c	c	n/a
228.895	0.0905	457790	keystroke_a	a	n/a
228.9705	0.0745	457941	keystroke_m	m	n/a
229.24	0.06	458480	keystroke_Key.enter	Key.enter	n/a
229.306	3.4155	458612	prompt	n/a	clark final told kinds\n
229.9	0.0755	459800	keystroke_c	c	n/a
229.9605	0.074	459921	keystroke_l	l	n/a
230.0645	0.106	460129	keystroke_a	a	n/a
230.2455	0.0745	460491	keystroke_r	r	n/a
230.3045	0.076	460609	keystroke_k	k	n/a
230.455	0.06	460910	keystroke_Key.space	Key.space	n/a
230.545	0.0605	461090	keystroke_f	f	n/a
230.62	0.06	461240	keystroke_i	i	n/a
230.785	0.06	461570	keystroke_n	n	n/a
230.875	0.0755	461750	keystroke_a	a	n/a
230.965	0.09	461930	keystroke_l	l	n/a
231.115	0.0745	462230	keystroke_Key.space	Key.space	n/a
231.2045	0.0755	462409	keystroke_t	t	n/a
231.295	0.045	462590	keystroke_o	o	n/a
231.445	0.09	462890	keystroke_l	l	n/a
231.505	0.06	463010	keystroke_d	d	n/a
231.58	0.06	463160	keystroke_Key.space	Key.space	n/a
231.7	0.075	463400	keystroke_k	k	n/a
231.925	0.03	463850	keystroke_i	i	n/a
232.09	0.06	464180	keystroke_n	n	n/a
232.21	0.09	464420	keystroke_d	d	n/a
232.36	0.075	464720	keystroke_s	s	n/a
232.6445	0.075	465289	keystroke_Key.enter	Key.enter	n/a
232.7245	5.9975	465449	prompt	n/a	contests democratic resolution missouri\n
233.4555	0.075	466911	keystroke_c	c	n/a
233.5155	0.045	467031	keystroke_o	o	n/a
233.6795	0.06	467359	keystroke_n	n	n/a
233.77	0.075	467540	keystroke_t	t	n/a
233.9205	0.0895	467841	keystroke_e	e	n/a
234.085	0.0895	468170	keystroke_s	s	n/a
234.265	0.0595	468530	keystroke_t	t	n/a
234.4145	0.06	468829	keystroke_s	s	n/a
234.5195	0.06	469039	keystroke_Key.space	Key.space	n/a
234.6255	0.074	469251	keystroke_d	d	n/a
234.8195	0.06	469639	keystroke_e	e	n/a
234.8645	0.0605	469729	keystroke_m	m	n/a
235.03	0.045	470060	keystroke_o	o	n/a
235.135	0.0605	470270	keystroke_c	c	n/a
235.36	0.0455	470720	keystroke_r	r	n/a
235.465	0.075	470930	keystroke_a	a	n/a
235.735	0.045	471470	keystroke_t	t	n/a
235.825	0.0595	471650	keystroke_i	i	n/a
236.02	0.06	472040	keystroke_c	c	n/a
236.095	0.075	472190	keystroke_Key.space	Key.space	n/a
236.2755	0.0895	472551	keystroke_r	r	n/a
236.38	0.105	472760	keystroke_e	e	n/a
236.575	0.0745	473150	keystroke_s	s	n/a
236.605	0.0295	473210	keystroke_o	o	n/a
236.755	0.06	473510	keystroke_l	l	n/a
236.935	0.045	473870	keystroke_u	u	n/a
237.0095	0.076	474019	keystroke_t	t	n/a
237.1005	0.1195	474201	keystroke_i	i	n/a
237.19	0.0905	474380	keystroke_o	o	n/a
237.4	0.045	474800	keystroke_n	n	n/a
237.505	0.06	475010	keystroke_Key.space	Key.space	n/a
237.64	0.045	475280	keystroke_m	m	n/a
237.805	0.0455	475610	keystroke_i	i	n/a
237.8645	0.06	475729	keystroke_s	s	n/a
238.0005	0.059	476001	keystroke_s	s	n/a
238.045	0.0595	476090	keystroke_o	o	n/a
238.2105	0.045	476421	keystroke_u	u	n/a
238.2705	0.06	476541	keystroke_r	r	n/a
238.3755	0.06	476751	keystroke_i	i	n/a
238.645	0.075	477290	keystroke_Key.enter	Key.enter	n/a
238.7265	7.99	477453	prompt	n/a	triumph psychiatry donations optical\n
239.335	0.075	478670	keystroke_t	t	n/a
239.5455	0.075	479091	keystroke_r	r	n/a
239.635	0.0905	479270	keystroke_i	i	n/a
239.9055	0.06	479811	keystroke_u	u	n/a
240.1155	0.075	480231	keystroke_m	m	n/a
240.385	0.0605	480770	keystroke_p	p	n/a
240.73	0.0305	481460	keystroke_h	h	n/a
241.1805	0.0745	482361	keystroke_Key.space	Key.space	n/a
241.465	0.06	482930	keystroke_p	p	n/a
241.6455	0.045	483291	keystroke_s	s	n/a
241.735	0.0745	483470	keystroke_y	y	n/a
241.8995	0.061	483799	keystroke_c	c	n/a
241.9445	0.076	483889	keystroke_h	h	n/a
242.1405	0.0445	484281	keystroke_i	i	n/a
242.215	0.075	484430	keystroke_a	a	n/a
242.4105	0.0745	484821	keystroke_t	t	n/a
242.605	0.06	485210	keystroke_r	r	n/a
242.65	0.0595	485300	keystroke_y	y	n/a
242.77	0.06	485540	keystroke_Key.space	Key.space	n/a
242.8605	0.074	485721	keystroke_d	d	n/a
242.9505	0.045	485901	keystroke_o	o	n/a
243.13	0.06	486260	keystroke_n	n	n/a
243.205	0.0755	486410	keystroke_a	a	n/a
244.0295	0.1205	488059	keystroke_t	t	n/a
244.21	0.12	488420	keystroke_i	i	n/a
244.27	0.1055	488540	keystroke_o	o	n/a
244.5245	0.06	489049	keystroke_n	n	n/a
244.6155	0.089	489231	keystroke_s	s	n/a
244.6905	0.074	489381	keystroke_Key.space	Key.space	n/a
244.8555	0.135	489711	keystroke_o	o	n/a
244.9305	0.105	489861	keystroke_p	p	n/a
245.485	0.09	490970	keystroke_t	t	n/a
245.6195	0.0605	491239	keystroke_i	i	n/a
245.8	0.06	491600	keystroke_c	c	n/a
246.265	0.0905	492530	keystroke_a	a	n/a
246.4005	0.075	492801	keystroke_l	l	n/a
246.655	0.06	493310	keystroke_Key.enter	Key.enter	n/a
246.721	3.596	493442	prompt	n/a	visual alto turns seminar\n
247.4355	0.074	494871	keystroke_v	v	n/a
247.5405	0.059	495081	keystroke_i	i	n/a
247.645	0.09	495290	keystroke_s	s	n/a
247.72	0.06	495440	keystroke_u	u	n/a
247.8555	0.0895	495711	keystroke_a	a	n/a
247.93	0.09	495860	keystroke_l	l	n/a
248.05	0.06	496100	keystroke_Key.space	Key.space	n/a
248.17	0.075	496340	keystroke_a	a	n/a
248.23	0.0755	496460	keystroke_l	l	n/a
248.365	0.075	496730	keystroke_t	t	n/a
248.425	0.06	496850	keystroke_o	o	n/a
248.545	0.0755	497090	keystroke_Key.space	Key.space	n/a
248.635	0.075	497270	keystroke_t	t	n/a
248.7405	0.0445	497481	keystroke_u	u	n/a
248.86	0.06	497720	keystroke_r	r	n/a
248.92	0.075	497840	keystroke_n	n	n/a
249.04	0.09	498080	keystroke_s	s	n/a
249.145	0.0755	498290	keystroke_Key.space	Key.space	n/a
249.3255	0.06	498651	keystroke_s	s	n/a
249.5205	0.0895	499041	keystroke_e	e	n/a
249.5655	0.089	499131	keystroke_m	m	n/a
249.73	0.06	499460	keystroke_i	i	n/a
249.895	0.06	499790	keystroke_n	n	n/a
249.97	0.09	499940	keystroke_a	a	n/a
250.0905	0.09	500181	keystroke_r	r	n/a
250.2395	0.075	500479	keystroke_Key.enter	Key.enter	n/a
250.321	4.571	500642	prompt	n/a	santa detail surrounded rotary\n
250.9155	0.0445	501831	keystroke_s	s	n/a
251.0505	0.074	502101	keystroke_a	a	n/a
251.1255	0.075	502251	keystroke_n	n	n/a
251.2445	0.076	502489	keystroke_t	t	n/a
251.3495	0.105	502699	keystroke_a	a	n/a
251.5295	0.045	503059	keystroke_Key.space	Key.space	n/a
251.755	0.105	503510	keystroke_d	d	n/a
251.92	0.09	503840	keystroke_e	e	n/a
252.0705	0.1045	504141	keystroke_t	t	n/a
252.19	0.09	504380	keystroke_a	a	n/a
252.25	0.0755	504500	keystroke_i	i	n/a
252.43	0.06	504860	keystroke_l	l	n/a
252.55	0.06	505100	keystroke_Key.space	Key.space	n/a
252.595	0.0905	505190	keystroke_s	s	n/a
252.715	0.06	505430	keystroke_u	u	n/a
252.79	0.06	505580	keystroke_r	r	n/a
252.925	0.0755	505850	keystroke_r	r	n/a
252.985	0.075	505970	keystroke_o	o	n/a
253.1505	0.0595	506301	keystroke_u	u	n/a
253.3305	0.0595	506661	keystroke_n	n	n/a
253.405	0.0755	506810	keystroke_d	d	n/a
253.57	0.0895	507140	keystroke_e	e	n/a
253.7495	0.09	507499	keystroke_d	d	n/a
253.8105	0.0895	507621	keystroke_Key.space	Key.space	n/a
253.9595	0.075	507919	keystroke_r	r	n/a
254.0495	0.061	508099	keystroke_o	o	n/a
254.1555	0.089	508311	keystroke_t	t	n/a
254.305	0.1055	508610	keystroke_a	a	n/a
254.425	0.105	508850	keystroke_r	r	n/a
254.515	0.06	509030	keystroke_y	y	n/a
254.815	0.075	509630	keystroke_Key.enter	Key.enter	n/a
254.8955	4.752	509791	prompt	n/a	promoted faces strong tracker\n
255.6105	0.075	511221	keystroke_p	p	n/a
255.7155	0.0895	511431	keystroke_r	r	n/a
255.82	0.045	511640	keystroke_o	o	n/a
255.9705	0.0595	511941	keystroke_m	m	n/a
256.15	0.06	512300	keystroke_o	o	n/a
256.195	0.06	512390	keystroke_t	t	n/a
256.345	0.075	512690	keystroke_e	e	n/a
256.5405	0.0745	513081	keystroke_d	d	n/a
256.6	0.075	513200	keystroke_Key.space	Key.space	n/a
256.72	0.075	513440	keystroke_f	f	n/a
256.84	0.09	513680	keystroke_a	a	n/a
257.0355	0.09	514071	keystroke_c	c	n/a
257.3205	0.014	514641	keystroke_e	e	n/a
257.5005	0.045	515001	keystroke_s	s	n/a
257.5145	0.06	515029	keystroke_Key.space	Key.space	n/a
257.6055	0.06	515211	keystroke_s	s	n/a
257.7705	0.06	515541	keystroke_t	t	n/a
257.9205	0.074	515841	keystroke_r	r	n/a
258.0405	0.015	516081	keystroke_o	o	n/a
258.1905	0.06	516381	keystroke_n	n	n/a
258.2355	0.074	516471	keystroke_g	g	n/a
258.3545	0.075	516709	keystroke_Key.space	Key.space	n/a
258.5655	0.06	517131	keystroke_t	t	n/a
258.7455	0.075	517491	keystroke_r	r	n/a
258.865	0.0755	517730	keystroke_a	a	n/a
259.0295	0.0605	518059	keystroke_c	c	n/a
259.0755	0.075	518151	keystroke_k	k	n/a
259.2405	0.06	518481	keystroke_e	e	n/a
259.3445	0.091	518689	keystroke_r	r	n/a
259.5995	0.045	519199	keystroke_Key.enter	Key.enter	n/a
259.6515	4.8405	519303	prompt	n/a	chances spice asset protected\n
260.2305	0.059	520461	keystroke_c	c	n/a
260.3055	0.075	520611	keystroke_h	h	n/a
260.4255	0.029	520851	keystroke_a	a	n/a
260.4995	0.075	520999	keystroke_n	n	n/a
260.5595	0.075	521119	keystroke_c	c	n/a
260.7545	0.076	521509	keystroke_e	e	n/a
260.9355	0.09	521871	keystroke_s	s	n/a
261.0395	0.045	522079	keystroke_Key.space	Key.space	n/a
261.1445	0.076	522289	keystroke_s	s	n/a
261.2055	0.045	522411	keystroke_p	p	n/a
261.3855	0.045	522771	keystroke_i	i	n/a
261.4455	0.059	522891	keystroke_c	c	n/a
261.6855	0.075	523371	keystroke_e	e	n/a
261.8195	0.075	523639	keystroke_Key.space	Key.space	n/a
262.0595	0.106	524119	keystroke_a	a	n/a
262.2555	0.075	524511	keystroke_s	s	n/a
262.4195	0.075	524839	keystroke_s	s	n/a
262.5395	0.121	525079	keystroke_e	e	n/a
262.7645	0.106	525529	keystroke_t	t	n/a
262.8845	0.09	525769	keystroke_Key.space	Key.space	n/a
263.1245	0.061	526249	keystroke_p	p	n/a
263.1995	0.076	526399	keystroke_r	r	n/a
263.2905	0.075	526581	keystroke_o	o	n/a
263.3955	0.06	526791	keystroke_t	t	n/a
263.5295	0.076	527059	keystroke_e	e	n/a
263.7405	0.0745	527481	keystroke_c	c	n/a
263.9645	0.061	527929	keystroke_t	t	n/a
264.1	0.09	528200	keystroke_e	e	n/a
264.295	0.06	528590	keystroke_d	d	n/a
264.4155	0.0745	528831	keystroke_Key.enter	Key.enter	n/a
264.496	5.9655	528992	prompt	n/a	panel conferences decisions temporal\n
265.18	0.06	530360	keystroke_p	p	n/a
265.2855	0.089	530571	keystroke_a	a	n/a
265.3905	0.0595	530781	keystroke_n	n	n/a
265.5245	0.075	531049	keystroke_e	e	n/a
265.5845	0.06	531169	keystroke_l	l	n/a
265.7495	0.0755	531499	keystroke_Key.space	Key.space	n/a
265.9155	0.06	531831	keystroke_c	c	n/a
265.9605	0.059	531921	keystroke_o	o	n/a
266.125	0.0605	532250	keystroke_n	n	n/a
266.2445	0.06	532489	keystroke_f	f	n/a
266.3805	0.0895	532761	keystroke_e	e	n/a
266.5145	0.09	533029	keystroke_r	r	n/a
266.6195	0.09	533239	keystroke_e	e	n/a
266.7555	0.0595	533511	keystroke_n	n	n/a
266.8905	0.059	533781	keystroke_c	c	n/a
267.1	0.0755	534200	keystroke_e	e	n/a
267.2945	0.06	534589	keystroke_s	s	n/a
267.3695	0.0755	534739	keystroke_Key.space	Key.space	n/a
267.4905	0.089	534981	keystroke_d	d	n/a
267.6405	0.074	535281	keystroke_e	e	n/a
268.1055	0.015	536211	keystroke_c	c	n/a
268.1495	0.091	536299	keystroke_i	i	n/a
268.4355	0.0895	536871	keystroke_s	s	n/a
268.54	0.105	537080	keystroke_i	i	n/a
268.6	0.09	537200	keystroke_o	o	n/a
268.84	0.0745	537680	keystroke_n	n	n/a
268.9305	0.0745	537861	keystroke_s	s	n/a
269.0195	0.0755	538039	keystroke_Key.space	Key.space	n/a
269.1545	0.06	538309	keystroke_t	t	n/a
269.275	0.0895	538550	keystroke_e	e	n/a
269.35	0.0605	538700	keystroke_m	m	n/a
269.5305	0.12	539061	keystroke_p	p	n/a
269.605	0.0745	539210	keystroke_o	o	n/a
269.7095	0.09	539419	keystroke_r	r	n/a
269.905	0.0905	539810	keystroke_a	a	n/a
269.98	0.0745	539960	keystroke_l	l	n/a
270.3845	0.075	540769	keystroke_Key.enter	Key.enter	n/a
270.466	5.3515	540932	prompt	n/a	creating reggae consulting julie\n
271.0455	0.0595	542091	keystroke_c	c	n/a
271.27	0.06	542540	keystroke_r	r	n/a
271.345	0.105	542690	keystroke_e	e	n/a
271.4655	0.1045	542931	keystroke_a	a	n/a
271.675	0.09	543350	keystroke_t	t	n/a
271.7505	0.0595	543501	keystroke_i	i	n/a
271.96	0.0305	543920	keystroke_n	n	n/a
271.975	0.03	543950	keystroke_g	g	n/a
272.065	0.105	544130	keystroke_Key.space	Key.space	n/a
272.155	0.09	544310	keystroke_r	r	n/a
272.23	0.0905	544460	keystroke_e	e	n/a
272.365	0.0605	544730	keystroke_g	g	n/a
272.635	0.0745	545270	keystroke_g	g	n/a
272.905	0.0455	545810	keystroke_a	a	n/a
273.1895	0.135	546379	keystroke_e	e	n/a
273.415	0.075	546830	keystroke_Key.space	Key.space	n/a
273.5805	0.075	547161	keystroke_c	c	n/a
273.6255	0.06	547251	keystroke_o	o	n/a
273.8055	0.075	547611	keystroke_n	n	n/a
273.8655	0.075	547731	keystroke_s	s	n/a
274.0005	0.045	548001	keystroke_u	u	n/a
274.1955	0.06	548391	keystroke_l	l	n/a
274.2405	0.0895	548481	keystroke_t	t	n/a
274.39	0.0305	548780	keystroke_i	i	n/a
274.5545	0.061	549109	keystroke_n	n	n/a
274.6305	0.075	549261	keystroke_g	g	n/a
274.6895	0.06	549379	keystroke_Key.space	Key.space	n/a
274.8095	0.076	549619	keystroke_j	j	n/a
274.9905	0.074	549981	keystroke_u	u	n/a
275.1705	0.075	550341	keystroke_l	l	n/a
275.3655	0.06	550731	keystroke_i	i	n/a
275.4855	0.089	550971	keystroke_e	e	n/a
275.7545	0.0605	551509	keystroke_Key.enter	Key.enter	n/a
275.822	4.75	551644	prompt	n/a	prix premier walks voices\n
276.5805	0.06	553161	keystroke_r	r	n/a
277.2105	0.045	554421	keystroke_Key.backspace	Key.backspace	n/a
277.4355	0.0445	554871	keystroke_p	p	n/a
277.54	0.075	555080	keystroke_r	r	n/a
277.6605	0.0595	555321	keystroke_i	i	n/a
277.8555	0.075	555711	keystroke_x	x	n/a
277.975	0.075	555950	keystroke_Key.space	Key.space	n/a
278.185	0.06	556370	keystroke_p	p	n/a
278.275	0.09	556550	keystroke_r	r	n/a
278.38	0.09	556760	keystroke_e	e	n/a
278.5005	0.075	557001	keystroke_m	m	n/a
278.6955	0.045	557391	keystroke_i	i	n/a
278.7555	0.1645	557511	keystroke_e	e	n/a
278.935	0.03	557870	keystroke_r	r	n/a
278.98	0.0605	557960	keystroke_Key.space	Key.space	n/a
279.1305	0.09	558261	keystroke_w	w	n/a
279.2805	0.1195	558561	keystroke_a	a	n/a
279.3705	0.06	558741	keystroke_l	l	n/a
279.52	0.075	559040	keystroke_k	k	n/a
279.58	0.0455	559160	keystroke_s	s	n/a
279.6555	0.089	559311	keystroke_Key.space	Key.space	n/a
279.7605	0.06	559521	keystroke_v	v	n/a
279.8505	0.045	559701	keystroke_o	o	n/a
279.9705	0.06	559941	keystroke_i	i	n/a
280.0305	0.06	560061	keystroke_c	c	n/a
280.2255	0.06	560451	keystroke_e	e	n/a
280.3905	0.0745	560781	keystroke_s	s	n/a
280.5245	0.045	561049	keystroke_Key.enter	Key.enter	n/a
280.5815	5.51	561163	prompt	n/a	usda untitled linda protocols\n
281.2295	0.045	562459	keystroke_u	u	n/a
281.2755	0.104	562551	keystroke_s	s	n/a
281.41	0.0895	562820	keystroke_a	a	n/a
281.815	0.06	563630	keystroke_Key.backspace	Key.backspace	n/a
281.965	0.075	563930	keystroke_d	d	n/a
282.1005	0.12	564201	keystroke_a	a	n/a
282.2645	0.0905	564529	keystroke_Key.space	Key.space	n/a
282.505	0.0455	565010	keystroke_u	u	n/a
282.655	0.045	565310	keystroke_n	n	n/a
282.715	0.0755	565430	keystroke_t	t	n/a
282.8355	0.0445	565671	keystroke_i	i	n/a
282.895	0.075	565790	keystroke_t	t	n/a
283	0.075	566000	keystroke_l	l	n/a
283.135	0.0755	566270	keystroke_e	e	n/a
283.346	0.074	566692	keystroke_d	d	n/a
283.4355	0.0745	566871	keystroke_Key.space	Key.space	n/a
283.645	0.0905	567290	keystroke_l	l	n/a
283.825	0.06	567650	keystroke_i	i	n/a
283.9905	0.06	567981	keystroke_n	n	n/a
284.0505	0.1195	568101	keystroke_d	d	n/a
284.2155	0.1345	568431	keystroke_a	a	n/a
284.365	0.03	568730	keystroke_Key.space	Key.space	n/a
284.5145	0.045	569029	keystroke_p	p	n/a
284.6055	0.06	569211	keystroke_r	r	n/a
284.6655	0.059	569331	keystroke_o	o	n/a
284.8005	0.0595	569601	keystroke_t	t	n/a
284.8455	0.074	569691	keystroke_o	o	n/a
285.0855	0.06	570171	keystroke_c	c	n/a
285.2055	0.074	570411	keystroke_o	o	n/a
285.3845	0.0755	570769	keystroke_l	l	n/a
285.7005	0.0895	571401	keystroke_s	s	n/a
286.03	0.06	572060	keystroke_Key.enter	Key.enter	n/a
286.0955	4.6615	572191	prompt	n/a	webster anyway cosmetic herbal\n
286.66	0.1055	573320	keystroke_w	w	n/a
286.75	0.12	573500	keystroke_e	e	n/a
286.885	0.0605	573770	keystroke_b	b	n/a
287.0055	0.075	574011	keystroke_s	s	n/a
287.2	0.0755	574400	keystroke_t	t	n/a
287.335	0.1205	574670	keystroke_e	e	n/a
287.41	0.12	574820	keystroke_r	r	n/a
287.59	0.06	575180	keystroke_Key.space	Key.space	n/a
287.695	0.105	575390	keystroke_a	a	n/a
287.815	0.03	575630	keystroke_n	n	n/a
287.9805	0.0445	575961	keystroke_y	y	n/a
288.0405	0.075	576081	keystroke_w	w	n/a
288.175	0.105	576350	keystroke_a	a	n/a
288.265	0.06	576530	keystroke_y	y	n/a
288.4455	0.06	576891	keystroke_Key.space	Key.space	n/a
288.9105	0.03	577821	keystroke_c	c	n/a
288.9405	0.06	577881	keystroke_o	o	n/a
289.0295	0.09	578059	keystroke_s	s	n/a
289.1355	0.0895	578271	keystroke_m	m	n/a
289.255	0.0755	578510	keystroke_e	e	n/a
289.4355	0.075	578871	keystroke_t	t	n/a
289.5105	0.0595	579021	keystroke_i	i	n/a
289.69	0.06	579380	keystroke_c	c	n/a
289.735	0.0605	579470	keystroke_Key.space	Key.space	n/a
289.885	0.045	579770	keystroke_h	h	n/a
289.945	0.0605	579890	keystroke_e	e	n/a
290.035	0.09	580070	keystroke_r	r	n/a
290.185	0.0755	580370	keystroke_b	b	n/a
290.32	0.0605	580640	keystroke_a	a	n/a
290.425	0.0605	580850	keystroke_l	l	n/a
290.71	0.045	581420	keystroke_Key.enter	Key.enter	n/a
290.7615	6.4455	581523	prompt	n/a	categories himself facilities conferences\n
291.4305	0.075	582861	keystroke_c	c	n/a
291.5805	0.105	583161	keystroke_a	a	n/a
291.7605	0.06	583521	keystroke_t	t	n/a
291.9105	0.045	583821	keystroke_e	e	n/a
292.0605	0.075	584121	keystroke_g	g	n/a
292.1505	0.06	584301	keystroke_o	o	n/a
292.2705	0.075	584541	keystroke_r	r	n/a
292.3605	0.06	584721	keystroke_i	i	n/a
292.4505	0.075	584901	keystroke_e	e	n/a
292.6595	0.076	585319	keystroke_s	s	n/a
292.7495	0.0605	585499	keystroke_Key.space	Key.space	n/a
292.9745	0.06	585949	keystroke_h	h	n/a
293.1395	0.061	586279	keystroke_i	i	n/a
293.3195	0.06	586639	keystroke_m	m	n/a
293.3805	0.044	586761	keystroke_s	s	n/a
293.4555	0.104	586911	keystroke_e	e	n/a
293.59	0.045	587180	keystroke_l	l	n/a
293.6945	0.076	587389	keystroke_f	f	n/a
293.785	0.0755	587570	keystroke_Key.space	Key.space	n/a
294.0255	0.0595	588051	keystroke_f	f	n/a
294.1305	0.09	588261	keystroke_a	a	n/a
294.3105	0.075	588621	keystroke_c	c	n/a
294.3705	0.045	588741	keystroke_i	i	n/a
294.5805	0.03	589161	keystroke_l	l	n/a
294.7005	0.06	589401	keystroke_i	i	n/a
294.7755	0.075	589551	keystroke_t	t	n/a
294.8805	0.075	589761	keystroke_i	i	n/a
295.015	0.09	590030	keystroke_e	e	n/a
295.21	0.0905	590420	keystroke_s	s	n/a
295.315	0.06	590630	keystroke_Key.space	Key.space	n/a
295.4805	0.0745	590961	keystroke_c	c	n/a
295.54	0.045	591080	keystroke_o	o	n/a
295.7205	0.044	591441	keystroke_n	n	n/a
295.9445	0.09	591889	keystroke_f	f	n/a
296.14	0.0755	592280	keystroke_e	e	n/a
296.2305	0.12	592461	keystroke_r	r	n/a
296.3355	0.105	592671	keystroke_e	e	n/a
296.5005	0.06	593001	keystroke_n	n	n/a
296.6205	0.0745	593241	keystroke_c	c	n/a
296.845	0.06	593690	keystroke_e	e	n/a
297.0105	0.09	594021	keystroke_s	s	n/a
297.1455	0.06	594291	keystroke_Key.enter	Key.enter	n/a
297.2115	5.441	594423	prompt	n/a	fridge auto leaves characters\n
297.8355	0.075	595671	keystroke_f	f	n/a
298.0155	0.0595	596031	keystroke_r	r	n/a
298.09	0.0605	596180	keystroke_i	i	n/a
298.2105	0.06	596421	keystroke_d	d	n/a
298.3155	0.045	596631	keystroke_g	g	n/a
298.4205	0.0745	596841	keystroke_e	e	n/a
298.525	0.075	597050	keystroke_Key.space	Key.space	n/a
298.6905	0.09	597381	keystroke_a	a	n/a
298.795	0.0445	597590	keystroke_u	u	n/a
298.9295	0.061	597859	keystroke_t	t	n/a
299.11	0.0455	598220	keystroke_Key.space	Key.space	n/a
299.5605	0.0295	599121	keystroke_Key.backspace	Key.backspace	n/a
300.0705	0.075	600141	keystroke_o	o	n/a
300.2495	0.0305	600499	keystroke_Key.space	Key.space	n/a
300.3555	0.074	600711	keystroke_l	l	n/a
300.415	0.0905	600830	keystroke_e	e	n/a
300.5495	0.106	601099	keystroke_a	a	n/a
300.6705	0.06	601341	keystroke_v	v	n/a
300.7755	0.075	601551	keystroke_e	e	n/a
300.985	0.075	601970	keystroke_s	s	n/a
301.075	0.0755	602150	keystroke_Key.space	Key.space	n/a
301.1955	0.105	602391	keystroke_c	c	n/a
301.2855	0.06	602571	keystroke_h	h	n/a
301.3605	0.12	602721	keystroke_a	a	n/a
301.555	0.0605	603110	keystroke_r	r	n/a
301.78	0.0755	603560	keystroke_a	a	n/a
301.975	0.06	603950	keystroke_c	c	n/a
302.0505	0.06	604101	keystroke_t	t	n/a
302.1845	0.076	604369	keystroke_e	e	n/a
302.3045	0.0755	604609	keystroke_r	r	n/a
302.4555	0.09	604911	keystroke_s	s	n/a
302.5895	0.06	605179	keystroke_Key.enter	Key.enter	n/a
302.6565	4.7055	605313	prompt	n/a	blvd fate thanks economy\n
303.4595	0.076	606919	keystroke_b	b	n/a
303.5655	0.06	607131	keystroke_l	l	n/a
303.9705	0.075	607941	keystroke_v	v	n/a
304.1945	0.06	608389	keystroke_d	d	n/a
304.4205	0.0745	608841	keystroke_Key.space	Key.space	n/a
304.5395	0.061	609079	keystroke_f	f	n/a
304.6605	0.089	609321	keystroke_a	a	n/a
304.7945	0.075	609589	keystroke_t	t	n/a
305.155	0.075	610310	keystroke_e	e	n/a
305.275	0.075	610550	keystroke_Key.space	Key.space	n/a
305.44	0.06	610880	keystroke_t	t	n/a
305.515	0.045	611030	keystroke_h	h	n/a
305.6055	0.0895	611211	keystroke_a	a	n/a
305.665	0.06	611330	keystroke_n	n	n/a
305.815	0.06	611630	keystroke_k	k	n/a
305.89	0.075	611780	keystroke_s	s	n/a
306.01	0.075	612020	keystroke_Key.space	Key.space	n/a
306.22	0.0445	612440	keystroke_e	e	n/a
306.4305	0.06	612861	keystroke_c	c	n/a
306.4755	0.06	612951	keystroke_o	o	n/a
306.6555	0.075	613311	keystroke_n	n	n/a
306.8055	0.0595	613611	keystroke_o	o	n/a
306.9845	0.075	613969	keystroke_m	m	n/a
307.0455	0.0745	614091	keystroke_y	y	n/a
307.3	0.06	614600	keystroke_Key.enter	Key.enter	n/a
307.366	6.596	614732	prompt	n/a	weak evanescence can't assessments\n
308.0355	0.104	616071	keystroke_w	w	n/a
308.215	0.075	616430	keystroke_e	e	n/a
308.38	0.06	616760	keystroke_a	a	n/a
308.455	0.075	616910	keystroke_k	k	n/a
308.6045	0.1055	617209	keystroke_Key.space	Key.space	n/a
308.695	0.0595	617390	keystroke_e	e	n/a
308.92	0.0455	617840	keystroke_v	v	n/a
309.1005	0.105	618201	keystroke_a	a	n/a
309.5805	0.06	619161	keystroke_n	n	n/a
309.8055	0.075	619611	keystroke_e	e	n/a
310.0295	0.061	620059	keystroke_s	s	n/a
310.1955	0.059	620391	keystroke_c	c	n/a
310.39	0.0605	620780	keystroke_e	e	n/a
310.4655	0.075	620931	keystroke_n	n	n/a
310.6755	0.075	621351	keystroke_c	c	n/a
310.9455	0.015	621891	keystroke_e	e	n/a
310.9755	0.0745	621951	keystroke_Key.space	Key.space	n/a
311.11	0.0745	622220	keystroke_c	c	n/a
311.2455	0.105	622491	keystroke_a	a	n/a
311.3205	0.06	622641	keystroke_n	n	n/a
311.5905	0.059	623181	keystroke_'	'	n/a
311.6805	0.105	623361	keystroke_t	t	n/a
312.0845	0.09	624169	keystroke_Key.space	Key.space	n/a
312.3095	0.09	624619	keystroke_a	a	n/a
312.4605	0.075	624921	keystroke_s	s	n/a
312.6245	0.075	625249	keystroke_s	s	n/a
312.7755	0.09	625551	keystroke_e	e	n/a
313.0005	0.06	626001	keystroke_s	s	n/a
313.135	0.0605	626270	keystroke_s	s	n/a
313.2255	0.059	626451	keystroke_m	m	n/a
313.3445	0.0755	626689	keystroke_e	e	n/a
313.4055	0.0745	626811	keystroke_n	n	n/a
313.5405	0.06	627081	keystroke_t	t	n/a
313.6905	0.075	627381	keystroke_s	s	n/a
313.9005	0.06	627801	keystroke_Key.enter	Key.enter	n/a
313.966	5.2305	627932	prompt	n/a	bibliographic particle mind visited\n
314.6355	0.045	629271	keystroke_b	b	n/a
314.6655	0.06	629331	keystroke_i	i	n/a
314.8005	0.0895	629601	keystroke_b	b	n/a
314.905	0.0605	629810	keystroke_l	l	n/a
315.0845	0.136	630169	keystroke_i	i	n/a
315.1755	0.09	630351	keystroke_o	o	n/a
315.505	0.06	631010	keystroke_g	g	n/a
315.5805	0.0745	631161	keystroke_r	r	n/a
315.7	0.0745	631400	keystroke_a	a	n/a
315.7755	0.06	631551	keystroke_p	p	n/a
316.0005	0.03	632001	keystroke_h	h	n/a
316.1205	0.06	632241	keystroke_i	i	n/a
316.1955	0.075	632391	keystroke_c	c	n/a
316.3305	0.09	632661	keystroke_Key.space	Key.space	n/a
316.5855	0.06	633171	keystroke_p	p	n/a
316.6605	0.0895	633321	keystroke_a	a	n/a
316.81	0.075	633620	keystroke_r	r	n/a
317.005	0.075	634010	keystroke_t	t	n/a
317.08	0.0605	634160	keystroke_i	i	n/a
317.26	0.0455	634520	keystroke_c	c	n/a
317.32	0.0605	634640	keystroke_l	l	n/a
317.44	0.075	634880	keystroke_e	e	n/a
317.53	0.0605	635060	keystroke_Key.space	Key.space	n/a
317.695	0.0455	635390	keystroke_m	m	n/a
317.8755	0.0445	635751	keystroke_i	i	n/a
318.0405	0.075	636081	keystroke_n	n	n/a
318.0705	0.075	636141	keystroke_d	d	n/a
318.1895	0.075	636379	keystroke_Key.space	Key.space	n/a
318.2795	0.045	636559	keystroke_v	v	n/a
318.37	0.06	636740	keystroke_i	i	n/a
318.445	0.0755	636890	keystroke_s	s	n/a
318.535	0.075	637070	keystroke_i	i	n/a
318.655	0.0755	637310	keystroke_t	t	n/a
318.82	0.0755	637640	keystroke_e	e	n/a
319.0005	0.06	638001	keystroke_d	d	n/a
319.1505	0.0445	638301	keystroke_Key.enter	Key.enter	n/a
319.2005	4.706	638401	prompt	n/a	novel granny rubber sunset\n
319.9005	0.059	639801	keystroke_n	n	n/a
320.0645	0.0605	640129	keystroke_o	o	n/a
320.4555	0.074	640911	keystroke_v	v	n/a
320.7405	0.074	641481	keystroke_e	e	n/a
320.8455	0.075	641691	keystroke_l	l	n/a
321.115	0.0155	642230	keystroke_Key.space	Key.space	n/a
321.3255	0.06	642651	keystroke_g	g	n/a
321.3705	0.075	642741	keystroke_r	r	n/a
321.4905	0.09	642981	keystroke_a	a	n/a
321.565	0.0605	643130	keystroke_n	n	n/a
321.67	0.075	643340	keystroke_n	n	n/a
321.7905	0.0745	643581	keystroke_y	y	n/a
321.895	0.0605	643790	keystroke_Key.space	Key.space	n/a
322.3155	0.0895	644631	keystroke_r	r	n/a
322.39	0.0455	644780	keystroke_u	u	n/a
322.57	0.0305	645140	keystroke_b	b	n/a
322.6755	0.089	645351	keystroke_b	b	n/a
322.7495	0.076	645499	keystroke_e	e	n/a
322.8105	0.09	645621	keystroke_r	r	n/a
322.9145	0.06	645829	keystroke_Key.space	Key.space	n/a
323.0045	0.091	646009	keystroke_s	s	n/a
323.0805	0.0445	646161	keystroke_u	u	n/a
323.245	0.06	646490	keystroke_n	n	n/a
323.29	0.0755	646580	keystroke_s	s	n/a
323.425	0.1055	646850	keystroke_e	e	n/a
323.62	0.06	647240	keystroke_t	t	n/a
323.845	0.06	647690	keystroke_Key.enter	Key.enter	n/a
323.91	6.508	647820	prompt	n/a	files berkeley position warren\n
324.6705	0.0595	649341	keystroke_f	f	n/a
324.745	0.0605	649490	keystroke_l	l	n/a
324.925	0.0455	649850	keystroke_i	i	n/a
324.9555	0.0745	649911	keystroke_e	e	n/a
325.3755	0.045	650751	keystroke_Key.backspace	Key.backspace	n/a
325.525	0.045	651050	keystroke_Key.backspace	Key.backspace	n/a
325.66	0.03	651320	keystroke_Key.backspace	Key.backspace	n/a
326.05	0.06	652100	keystroke_i	i	n/a
326.3055	0.0145	652611	keystroke_l	l	n/a
326.35	0.06	652700	keystroke_e	e	n/a
326.545	0.075	653090	keystroke_s	s	n/a
326.6355	0.0595	653271	keystroke_Key.space	Key.space	n/a
326.9055	0.045	653811	keystroke_b	b	n/a
326.9955	0.09	653991	keystroke_e	e	n/a
327.1455	0.0745	654291	keystroke_r	r	n/a
327.2355	0.075	654471	keystroke_k	k	n/a
327.37	0.09	654740	keystroke_e	e	n/a
327.61	0.015	655220	keystroke_l	l	n/a
327.82	0.075	655640	keystroke_e	e	n/a
328	0.0605	656000	keystroke_y	y	n/a
328.195	0.06	656390	keystroke_Key.space	Key.space	n/a
328.3605	0.135	656721	keystroke_p	p	n/a
328.4505	0.09	656901	keystroke_o	o	n/a
328.5855	0.075	657171	keystroke_s	s	n/a
328.6755	0.06	657351	keystroke_i	i	n/a
328.7955	0.075	657591	keystroke_t	t	n/a
328.8255	0.105	657651	keystroke_i	i	n/a
328.8855	0.104	657771	keystroke_o	o	n/a
329.1095	0.076	658219	keystroke_n	n	n/a
329.2445	0.0905	658489	keystroke_Key.space	Key.space	n/a
329.35	0.0745	658700	keystroke_w	w	n/a
329.5	0.105	659000	keystroke_a	a	n/a
329.65	0.0755	659300	keystroke_r	r	n/a
329.7845	0.105	659569	keystroke_r	r	n/a
329.8745	0.105	659749	keystroke_e	e	n/a
329.995	0.0745	659990	keystroke_n	n	n/a
330.3545	0.06	660709	keystroke_Key.enter	Key.enter	n/a
330.422	6.085	660844	prompt	n/a	wayne interactive perspective unions\n
331.1205	0.075	662241	keystroke_w	w	n/a
331.2695	0.12	662539	keystroke_a	a	n/a
331.3455	0.0595	662691	keystroke_y	y	n/a
331.5545	0.0755	663109	keystroke_n	n	n/a
331.6445	0.0605	663289	keystroke_e	e	n/a
331.7195	0.075	663439	keystroke_Key.space	Key.space	n/a
331.9755	0.0145	663951	keystroke_i	i	n/a
332.11	0.06	664220	keystroke_n	n	n/a
332.1405	0.06	664281	keystroke_t	t	n/a
332.2605	0.105	664521	keystroke_e	e	n/a
332.3205	0.105	664641	keystroke_r	r	n/a
332.5	0.0755	665000	keystroke_a	a	n/a
332.68	0.0755	665360	keystroke_c	c	n/a
332.9205	0.0595	665841	keystroke_t	t	n/a
333.0255	0.06	666051	keystroke_i	i	n/a
333.1305	0.0745	666261	keystroke_v	v	n/a
333.2955	0.074	666591	keystroke_e	e	n/a
333.3845	0.045	666769	keystroke_Key.space	Key.space	n/a
333.5195	0.061	667039	keystroke_p	p	n/a
333.5655	0.075	667131	keystroke_e	e	n/a
333.6555	0.09	667311	keystroke_r	r	n/a
333.8655	0.06	667731	keystroke_s	s	n/a
333.9555	0.044	667911	keystroke_p	p	n/a
334.0455	0.074	668091	keystroke_e	e	n/a
334.2695	0.0905	668539	keystroke_c	c	n/a
334.495	0.075	668990	keystroke_t	t	n/a
334.6005	0.075	669201	keystroke_i	i	n/a
334.8555	0.0595	669711	keystroke_v	v	n/a
335.065	0.0755	670130	keystroke_e	e	n/a
335.1705	0.075	670341	keystroke_Key.space	Key.space	n/a
335.3805	0.06	670761	keystroke_u	u	n/a
335.5455	0.075	671091	keystroke_n	n	n/a
335.7555	0.105	671511	keystroke_i	i	n/a
335.8305	0.09	671661	keystroke_o	o	n/a
336.0405	0.06	672081	keystroke_n	n	n/a
336.145	0.0605	672290	keystroke_s	s	n/a
336.46	0.045	672920	keystroke_Key.enter	Key.enter	n/a
336.512	4.585	673024	prompt	n/a	national deeper parental booking\n
337.1055	0.0595	674211	keystroke_n	n	n/a
337.1505	0.075	674301	keystroke_a	a	n/a
337.3155	0.075	674631	keystroke_t	t	n/a
337.36	0.105	674720	keystroke_i	i	n/a
337.4355	0.0895	674871	keystroke_o	o	n/a
337.63	0.06	675260	keystroke_n	n	n/a
337.72	0.0905	675440	keystroke_a	a	n/a
337.825	0.0605	675650	keystroke_l	l	n/a
337.96	0.09	675920	keystroke_Key.space	Key.space	n/a
338.0655	0.06	676131	keystroke_d	d	n/a
338.215	0.075	676430	keystroke_e	e	n/a
338.3505	0.075	676701	keystroke_e	e	n/a
338.4255	0.074	676851	keystroke_p	p	n/a
338.545	0.1055	677090	keystroke_e	e	n/a
338.695	0.075	677390	keystroke_r	r	n/a
338.86	0.075	677720	keystroke_Key.space	Key.space	n/a
339.115	0.0605	678230	keystroke_p	p	n/a
339.1905	0.0595	678381	keystroke_a	a	n/a
339.2655	0.075	678531	keystroke_r	r	n/a
339.355	0.105	678710	keystroke_e	e	n/a
339.4755	0.06	678951	keystroke_n	n	n/a
339.5655	0.075	679131	keystroke_t	t	n/a
339.715	0.09	679430	keystroke_a	a	n/a
339.775	0.06	679550	keystroke_l	l	n/a
339.9105	0.0745	679821	keystroke_Key.space	Key.space	n/a
340.1055	0.105	680211	keystroke_b	b	n/a
340.165	0.0605	680330	keystroke_o	o	n/a
340.2855	0.0295	680571	keystroke_o	o	n/a
340.435	0.0605	680870	keystroke_k	k	n/a
340.5705	0.0595	681141	keystroke_i	i	n/a
340.7355	0.06	681471	keystroke_n	n	n/a
340.825	0.075	681650	keystroke_g	g	n/a
341.035	0.06	682070	keystroke_Key.enter	Key.enter	n/a
341.105	4.942	682210	prompt	n/a	it'd agreed archive feelings\n
341.665	0.0445	683330	keystroke_i	i	n/a
341.7395	0.091	683479	keystroke_t	t	n/a
341.9495	0.06	683899	keystroke_'	'	n/a
342.1005	0.0595	684201	keystroke_d	d	n/a
342.3995	0.075	684799	keystroke_Key.space	Key.space	n/a
342.6545	0.03	685309	keystroke_g	g	n/a
342.97	0.06	685940	keystroke_Key.backspace	Key.backspace	n/a
343.1355	0.09	686271	keystroke_a	a	n/a
343.2855	0.0445	686571	keystroke_g	g	n/a
343.39	0.0755	686780	keystroke_r	r	n/a
343.525	0.09	687050	keystroke_e	e	n/a
343.705	0.06	687410	keystroke_e	e	n/a
343.8855	0.075	687771	keystroke_d	d	n/a
343.9455	0.075	687891	keystroke_Key.space	Key.space	n/a
344.0805	0.06	688161	keystroke_a	a	n/a
344.2005	0.06	688401	keystroke_r	r	n/a
344.41	0.0595	688820	keystroke_c	c	n/a
344.4545	0.046	688909	keystroke_h	h	n/a
344.5605	0.075	689121	keystroke_i	i	n/a
344.6505	0.06	689301	keystroke_v	v	n/a
344.8005	0.09	689601	keystroke_e	e	n/a
344.9045	0.03	689809	keystroke_Key.space	Key.space	n/a
344.9955	0.06	689991	keystroke_f	f	n/a
345.1445	0.09	690289	keystroke_e	e	n/a
345.2955	0.074	690591	keystroke_e	e	n/a
345.385	0.0455	690770	keystroke_l	l	n/a
345.5355	0.059	691071	keystroke_i	i	n/a
345.7005	0.06	691401	keystroke_n	n	n/a
345.7305	0.0445	691461	keystroke_g	g	n/a
345.85	0.09	691700	keystroke_s	s	n/a
346	0.045	692000	keystroke_Key.enter	Key.enter	n/a
346.0515	8.035	692103	prompt	n/a	receptors encourages keys incidents\n
346.6	0.0755	693200	keystroke_r	r	n/a
346.7045	0.076	693409	keystroke_e	e	n/a
346.9305	0.06	693861	keystroke_c	c	n/a
347.1105	0.0595	694221	keystroke_e	e	n/a
347.2	0.06	694400	keystroke_p	p	n/a
347.3205	0.0595	694641	keystroke_t	t	n/a
347.4105	0.06	694821	keystroke_o	o	n/a
347.5155	0.0595	695031	keystroke_r	r	n/a
347.725	0.045	695450	keystroke_s	s	n/a
347.8	0.075	695600	keystroke_Key.space	Key.space	n/a
348.1	0.075	696200	keystroke_e	e	n/a
348.16	0.06	696320	keystroke_n	n	n/a
348.325	0.075	696650	keystroke_c	c	n/a
348.385	0.06	696770	keystroke_o	o	n/a
348.5505	0.0595	697101	keystroke_u	u	n/a
348.625	0.045	697250	keystroke_r	r	n/a
348.715	0.105	697430	keystroke_a	a	n/a
348.835	0.0455	697670	keystroke_g	g	n/a
348.9255	0.0745	697851	keystroke_e	e	n/a
349.1355	0.06	698271	keystroke_s	s	n/a
349.1805	0.06	698361	keystroke_Key.space	Key.space	n/a
349.315	0.075	698630	keystroke_k	k	n/a
349.375	0.0745	698750	keystroke_e	e	n/a
349.5245	0.061	699049	keystroke_y	y	n/a
349.6145	0.06	699229	keystroke_s	s	n/a
349.7045	0.0755	699409	keystroke_Key.space	Key.space	n/a
349.87	0.045	699740	keystroke_i	i	n/a
350.02	0.075	700040	keystroke_n	n	n/a
350.08	0.06	700160	keystroke_c	c	n/a
350.2005	0.06	700401	keystroke_i	i	n/a
350.2905	0.06	700581	keystroke_d	d	n/a
350.4105	0.06	700821	keystroke_i	i	n/a
351.3255	0.0595	702651	keystroke_Key.backspace	Key.backspace	n/a
351.685	0.045	703370	keystroke_Key.backspace	Key.backspace	n/a
353.14	0.0755	706280	keystroke_d	d	n/a
353.35	0.105	706700	keystroke_e	e	n/a
353.44	0.0745	706880	keystroke_n	n	n/a
353.5895	0.075	707179	keystroke_t	t	n/a
353.74	0.0895	707480	keystroke_s	s	n/a
354.0255	0.059	708051	keystroke_Key.enter	Key.enter	n/a
354.089	7.9925	708178	prompt	n/a	typically sailing physiology gazette\n
354.7905	0.059	709581	keystroke_t	t	n/a
354.9555	0.09	709911	keystroke_y	y	n/a
355.0305	0.06	710061	keystroke_p	p	n/a
355.21	0.06	710420	keystroke_i	i	n/a
355.255	0.075	710510	keystroke_c	c	n/a
355.42	0.0755	710840	keystroke_a	a	n/a
355.4805	0.0445	710961	keystroke_l	l	n/a
355.5845	0.09	711169	keystroke_l	l	n/a
355.6895	0.0755	711379	keystroke_y	y	n/a
355.7955	0.059	711591	keystroke_Key.space	Key.space	n/a
355.945	0.06	711890	keystroke_s	s	n/a
356.0495	0.0905	712099	keystroke_a	a	n/a
356.1255	0.044	712251	keystroke_i	i	n/a
356.3045	0.0605	712609	keystroke_l	l	n/a
356.485	0.0455	712970	keystroke_i	i	n/a
356.6655	0.0745	713331	keystroke_n	n	n/a
356.845	0.045	713690	keystroke_g	g	n/a
357.0245	0.075	714049	keystroke_Key.space	Key.space	n/a
357.22	0.06	714440	keystroke_p	p	n/a
357.415	0.045	714830	keystroke_h	h	n/a
357.565	0.0455	715130	keystroke_y	y	n/a
357.625	0.06	715250	keystroke_s	s	n/a
357.7905	0.12	715581	keystroke_i	i	n/a
357.88	0.0905	715760	keystroke_o	o	n/a
358.135	0.075	716270	keystroke_l	l	n/a
358.3	0.06	716600	keystroke_o	o	n/a
358.4205	0.06	716841	keystroke_g	g	n/a
358.5105	0.06	717021	keystroke_y	y	n/a
358.6605	0.06	717321	keystroke_Key.space	Key.space	n/a
358.9755	0.06	717951	keystroke_g	g	n/a
359.0205	0.045	718041	keystroke_a	a	n/a
359.2005	0.075	718401	keystroke_z	z	n/a
359.5455	0.06	719091	keystroke_a	a	n/a
360.37	0.045	720740	keystroke_Key.backspace	Key.backspace	n/a
360.55	0.075	721100	keystroke_e	e	n/a
360.715	0.045	721430	keystroke_t	t	n/a
360.8205	0.075	721641	keystroke_t	t	n/a
360.9705	0.0745	721941	keystroke_e	e	n/a
361.9895	0.09	723979	keystroke_Key.enter	Key.enter	n/a
362.0855	5.6815	724171	prompt	n/a	collected apollo references adapter\n
362.8595	0.0605	725719	keystroke_c	c	n/a
362.9205	0.0445	725841	keystroke_o	o	n/a
363.0845	0.045	726169	keystroke_l	l	n/a
363.19	0.0745	726380	keystroke_l	l	n/a
363.2495	0.075	726499	keystroke_e	e	n/a
363.4595	0.076	726919	keystroke_c	c	n/a
363.6855	0.06	727371	keystroke_t	t	n/a
363.805	0.0905	727610	keystroke_e	e	n/a
363.9705	0.074	727941	keystroke_d	d	n/a
364.06	0.0895	728120	keystroke_Key.space	Key.space	n/a
364.18	0.075	728360	keystroke_a	a	n/a
364.2405	0.1195	728481	keystroke_p	p	n/a
364.315	0.0745	728630	keystroke_o	o	n/a
364.5845	0.015	729169	keystroke_l	l	n/a
364.63	0.075	729260	keystroke_l	l	n/a
364.795	0.075	729590	keystroke_o	o	n/a
364.93	0.075	729860	keystroke_Key.space	Key.space	n/a
365.2455	0.0745	730491	keystroke_r	r	n/a
365.335	0.09	730670	keystroke_e	e	n/a
365.485	0.09	730970	keystroke_f	f	n/a
365.635	0.075	731270	keystroke_e	e	n/a
365.755	0.09	731510	keystroke_r	r	n/a
365.8755	0.089	731751	keystroke_e	e	n/a
366.0255	0.059	732051	keystroke_n	n	n/a
366.1755	0.0445	732351	keystroke_c	c	n/a
366.355	0.09	732710	keystroke_e	e	n/a
366.52	0.1205	733040	keystroke_s	s	n/a
366.61	0.09	733220	keystroke_Key.space	Key.space	n/a
366.73	0.105	733460	keystroke_a	a	n/a
366.82	0.1195	733640	keystroke_d	d	n/a
366.9245	0.1205	733849	keystroke_a	a	n/a
367.0305	0.059	734061	keystroke_p	p	n/a
367.165	0.06	734330	keystroke_t	t	n/a
367.3155	0.0895	734631	keystroke_e	e	n/a
367.3455	0.1045	734691	keystroke_r	r	n/a
367.7195	0.046	735439	keystroke_Key.enter	Key.enter	n/a
367.7715	5.41	735543	prompt	n/a	warnings couples baltimore sporting\n
368.4845	0.105	736969	keystroke_w	w	n/a
368.6945	0.075	737389	keystroke_a	a	n/a
368.8145	0.0755	737629	keystroke_r	r	n/a
368.905	0.06	737810	keystroke_n	n	n/a
369.055	0.0605	738110	keystroke_i	i	n/a
369.2055	0.0595	738411	keystroke_n	n	n/a
369.25	0.0605	738500	keystroke_g	g	n/a
369.3995	0.0755	738799	keystroke_s	s	n/a
369.46	0.0745	738920	keystroke_Key.space	Key.space	n/a
369.639	0.0915	739278	keystroke_c	c	n/a
369.715	0.075	739430	keystroke_o	o	n/a
369.895	0.06	739790	keystroke_u	u	n/a
370.075	0.12	740150	keystroke_p	p	n/a
370.1505	0.1045	740301	keystroke_l	l	n/a
370.2405	0.0595	740481	keystroke_e	e	n/a
370.39	0.0745	740780	keystroke_s	s	n/a
370.4795	0.075	740959	keystroke_Key.space	Key.space	n/a
370.675	0.0455	741350	keystroke_b	b	n/a
370.75	0.0745	741500	keystroke_a	a	n/a
370.87	0.075	741740	keystroke_l	l	n/a
371.0045	0.061	742009	keystroke_t	t	n/a
371.095	0.0455	742190	keystroke_i	i	n/a
371.2755	0.06	742551	keystroke_m	m	n/a
371.4555	0.045	742911	keystroke_o	o	n/a
371.4855	0.1045	742971	keystroke_r	r	n/a
371.59	0.075	743180	keystroke_e	e	n/a
371.68	0.075	743360	keystroke_Key.space	Key.space	n/a
371.89	0.06	743780	keystroke_s	s	n/a
371.935	0.135	743870	keystroke_p	p	n/a
372.0105	0.09	744021	keystroke_o	o	n/a
372.13	0.075	744260	keystroke_r	r	n/a
372.325	0.0755	744650	keystroke_t	t	n/a
372.37	0.0605	744740	keystroke_i	i	n/a
372.5505	0.0445	745101	keystroke_n	n	n/a
372.655	0.06	745310	keystroke_g	g	n/a
373.105	0.075	746210	keystroke_Key.enter	Key.enter	n/a
373.185	4.2565	746370	prompt	n/a	drew browsing affect manage\n
373.9155	0.06	747831	keystroke_d	d	n/a
374.095	0.105	748190	keystroke_r	r	n/a
374.185	0.135	748370	keystroke_e	e	n/a
374.305	0.1205	748610	keystroke_w	w	n/a
374.4845	0.06	748969	keystroke_Key.space	Key.space	n/a
374.7555	0.06	749511	keystroke_b	b	n/a
374.8305	0.074	749661	keystroke_r	r	n/a
374.92	0.06	749840	keystroke_o	o	n/a
374.9945	0.06	749989	keystroke_w	w	n/a
375.16	0.15	750320	keystroke_s	s	n/a
375.235	0.0905	750470	keystroke_i	i	n/a
375.3845	0.075	750769	keystroke_n	n	n/a
375.4755	0.059	750951	keystroke_g	g	n/a
375.5495	0.045	751099	keystroke_Key.space	Key.space	n/a
375.655	0.0755	751310	keystroke_a	a	n/a
375.8055	0.0445	751611	keystroke_f	f	n/a
375.9405	0.0445	751881	keystroke_f	f	n/a
376.045	0.075	752090	keystroke_e	e	n/a
376.3	0.03	752600	keystroke_c	c	n/a
376.465	0.0445	752930	keystroke_t	t	n/a
376.54	0.0595	753080	keystroke_Key.space	Key.space	n/a
376.69	0.0445	753380	keystroke_m	m	n/a
376.7195	0.0755	753439	keystroke_a	a	n/a
376.8405	0.074	753681	keystroke_n	n	n/a
376.8995	0.075	753799	keystroke_a	a	n/a
377.0195	0.045	754039	keystroke_g	g	n/a
377.0945	0.0755	754189	keystroke_e	e	n/a
377.395	0.045	754790	keystroke_Key.enter	Key.enter	n/a
377.446	9.2355	754892	prompt	n/a	acdbentity chronicle barnes republican\n
378.145	0.0905	756290	keystroke_a	a	n/a
378.3855	0.075	756771	keystroke_c	c	n/a
378.7455	0.075	757491	keystroke_d	d	n/a
379.0595	0.0755	758119	keystroke_b	b	n/a
379.1945	0.076	758389	keystroke_e	e	n/a
379.3155	0.045	758631	keystroke_n	n	n/a
379.48	0.06	758960	keystroke_t	t	n/a
379.5705	0.059	759141	keystroke_i	i	n/a
379.66	0.0905	759320	keystroke_t	t	n/a
379.8555	0.06	759711	keystroke_y	y	n/a
379.93	0.09	759860	keystroke_Key.space	Key.space	n/a
380.1695	0.075	760339	keystroke_c	c	n/a
380.23	0.075	760460	keystroke_h	h	n/a
380.3645	0.0605	760729	keystroke_r	r	n/a
380.425	0.06	760850	keystroke_o	o	n/a
380.59	0.075	761180	keystroke_m	m	n/a
381.0695	0.06	762139	keystroke_Key.backspace	Key.backspace	n/a
381.3255	0.0745	762651	keystroke_n	n	n/a
381.4895	0.0455	762979	keystroke_i	i	n/a
381.5495	0.076	763099	keystroke_c	c	n/a
381.6845	0.075	763369	keystroke_l	l	n/a
381.9545	0.015	763909	keystroke_e	e	n/a
383.215	0.1045	766430	keystroke_Key.space	Key.space	n/a
383.5	0.0455	767000	keystroke_b	b	n/a
383.5455	0.105	767091	keystroke_a	a	n/a
383.6955	0.0595	767391	keystroke_r	r	n/a
383.7845	0.06	767569	keystroke_n	n	n/a
383.8745	0.0755	767749	keystroke_e	e	n/a
384.6705	0.075	769341	keystroke_s	s	n/a
384.9095	0.075	769819	keystroke_Key.space	Key.space	n/a
385.345	0.09	770690	keystroke_r	r	n/a
385.48	0.075	770960	keystroke_e	e	n/a
385.57	0.06	771140	keystroke_p	p	n/a
385.735	0.045	771470	keystroke_u	u	n/a
385.8255	0.0745	771651	keystroke_b	b	n/a
385.9155	0.0595	771831	keystroke_l	l	n/a
386.095	0.06	772190	keystroke_i	i	n/a
386.14	0.06	772280	keystroke_c	c	n/a
386.275	0.09	772550	keystroke_a	a	n/a
386.38	0.06	772760	keystroke_n	n	n/a
386.6205	0.06	773241	keystroke_Key.enter	Key.enter	n/a
