onset	duration	sample	value	key	prompt_text
0.0045	0.15	9	keystroke	Key.enter	n/a
0.183	15.0235	366	prompt	n/a	the quick brown fox jumps over a lazy dog\n
6.007	0.029	12014	keystroke	t	n/a
6.081	0.1195	12162	keystroke	h	n/a
6.231	0.135	12462	keystroke	e	n/a
6.351	0.1345	12702	keystroke	Key.space	n/a
7.07	0.1355	14140	keystroke	q	n/a
7.3115	0.104	14623	keystroke	u	n/a
7.5205	0.135	15041	keystroke	i	n/a
7.6705	0.136	15341	keystroke	c	n/a
7.866	0.1355	15732	keystroke	k	n/a
8.121	0.121	16242	keystroke	Key.space	n/a
8.5415	0.1345	17083	keystroke	b	n/a
8.886	0.121	17772	keystroke	r	n/a
9.051	0.076	18102	keystroke	o	n/a
9.112	0.105	18224	keystroke	w	n/a
9.247	0.089	18494	keystroke	n	n/a
9.442	0.119	18884	keystroke	Key.space	n/a
9.877	0.1355	19754	keystroke	f	n/a
10.0565	0.1055	20113	keystroke	o	n/a
10.282	0.12	20564	keystroke	x	n/a
10.462	0.1195	20924	keystroke	Key.space	n/a
10.7015	0.076	21403	keystroke	j	n/a
10.9575	0.089	21915	keystroke	u	n/a
11.2275	0.104	22455	keystroke	m	n/a
11.4665	0.105	22933	keystroke	p	n/a
11.5875	0.105	23175	keystroke	s	n/a
11.7815	0.12	23563	keystroke	Key.space	n/a
11.9325	0.1795	23865	keystroke	o	n/a
12.277	0.1055	24554	keystroke	v	n/a
12.6375	0.21	25275	keystroke	e	n/a
12.7875	0.135	25575	keystroke	r	n/a
12.9075	0.09	25815	keystroke	Key.space	n/a
13.0725	0.12	26145	keystroke	a	n/a
13.1475	0.105	26295	keystroke	Key.space	n/a
13.5075	0.15	27015	keystroke	l	n/a
13.6415	0.061	27283	keystroke	a	n/a
13.8975	0.105	27795	keystroke	z	n/a
14.0925	0.1795	28185	keystroke	y	n/a
14.197	0.15	28394	keystroke	Key.space	n/a
14.392	0.105	28784	keystroke	d	n/a
14.482	0.105	28964	keystroke	o	n/a
14.737	0.12	29474	keystroke	g	n/a
15.097	0.1055	30194	keystroke	Key.enter	n/a
15.2145	23.7645	30429	prompt	n/a	kingston derby micro francis\n
16.087	0.1195	32174	keystroke	k	n/a
16.2815	0.166	32563	keystroke	i	n/a
16.4315	0.181	32863	keystroke	n	n/a
16.852	0.12	33704	keystroke	g	n/a
17.107	0.12	34214	keystroke	s	n/a
17.587	0.105	35174	keystroke	t	n/a
17.707	0.21	35414	keystroke	o	n/a
17.827	0.12	35654	keystroke	n	n/a
18.172	0.09	36344	keystroke	Key.space	n/a
18.757	0.09	37514	keystroke	d	n/a
19.042	0.165	38084	keystroke	e	n/a
19.1625	0.1045	38325	keystroke	r	n/a
19.5525	0.09	39105	keystroke	v	n/a
19.8375	0.1645	39675	keystroke	y	n/a
20.437	0.0745	40874	keystroke	Key.backspace	n/a
20.647	0.09	41294	keystroke	Key.backspace	n/a
21.3825	0.09	42765	keystroke	b	n/a
21.6825	0.075	43365	keystroke	y	n/a
21.8775	0.135	43755	keystroke	Key.space	n/a
22.582	0.0895	45164	keystroke	m	n/a
22.8375	0.089	45675	keystroke	i	n/a
23.0325	0.105	46065	keystroke	c	n/a
23.587	0.105	47174	keystroke	r	n/a
24.2615	0.0905	48523	keystroke	o	n/a
24.5025	0.105	49005	keystroke	Key.space	n/a
25.5975	0.12	51195	keystroke	f	n/a
26.1075	0.18	52215	keystroke	r	n/a
26.2725	0.1195	52545	keystroke	a	n/a
26.842	0.105	53684	keystroke	n	n/a
27.397	0.1505	54794	keystroke	c	n/a
27.5625	0.1045	55125	keystroke	i	n/a
27.787	0.075	55574	keystroke	s	n/a
38.9045	0.073	77809	keystroke	Key.enter	n/a
38.9825	9.882	77965	prompt	n/a	attempted warren excel editor\n
40.0875	0.105	80175	keystroke	a	n/a
40.4625	0.105	80925	keystroke	t	n/a
40.6425	0.1355	81285	keystroke	t	n/a
40.9125	0.1205	81825	keystroke	e	n/a
41.108	0.12	82216	keystroke	m	n/a
41.453	0.135	82906	keystroke	p	n/a
41.6025	0.105	83205	keystroke	t	n/a
41.8725	0.105	83745	keystroke	e	n/a
42.158	0.1345	84316	keystroke	d	n/a
42.4275	0.045	84855	keystroke	Key.space	n/a
42.758	0.2095	85516	keystroke	w	n/a
42.8625	0.165	85725	keystroke	a	n/a
43.0125	0.135	86025	keystroke	r	n/a
43.2525	0.1205	86505	keystroke	r	n/a
43.8375	0.015	87675	keystroke	e	n/a
43.958	0.1195	87916	keystroke	n	n/a
44.3025	0.1205	88605	keystroke	Key.space	n/a
44.543	0.0895	89086	keystroke	e	n/a
44.8875	0.1205	89775	keystroke	x	n/a
45.2175	0.1055	90435	keystroke	c	n/a
45.5025	0.09	91005	keystroke	e	n/a
45.7275	0.135	91455	keystroke	l	n/a
46.0275	0.12	92055	keystroke	Key.space	n/a
46.612	0.091	93224	keystroke	e	n/a
46.868	0.135	93736	keystroke	d	n/a
47.018	0.135	94036	keystroke	i	n/a
47.303	0.12	94606	keystroke	t	n/a
47.468	0.12	94936	keystroke	o	n/a
47.618	0.06	95236	keystroke	r	n/a
48.772	0.09	97544	keystroke	Key.enter	n/a
48.8675	15.0115	97735	prompt	n/a	encyclopedia avatar flour lunch\n
49.837	0.06	99674	keystroke	e	n/a
50.138	0.104	100276	keystroke	n	n/a
50.528	0.1045	101056	keystroke	x	n/a
51.202	0.105	102404	keystroke	Key.backspace	n/a
51.353	0.12	102706	keystroke	c	n/a
51.713	0.12	103426	keystroke	y	n/a
51.968	0.1195	103936	keystroke	c	n/a
52.2225	0.12	104445	keystroke	l	n/a
52.508	0.1345	105016	keystroke	o	n/a
52.6875	0.1355	105375	keystroke	p	n/a
52.8375	0.12	105675	keystroke	e	n/a
53.1825	0.0905	106365	keystroke	d	n/a
53.2735	0.149	106547	keystroke	i	n/a
53.573	0.0895	107146	keystroke	a	n/a
54.473	0.105	108946	keystroke	Key.space	n/a
54.8925	0.09	109785	keystroke	a	n/a
55.598	0.1345	111196	keystroke	v	n/a
55.9875	0.165	111975	keystroke	a	n/a
56.4525	0.135	112905	keystroke	t	n/a
56.738	0.165	113476	keystroke	a	n/a
56.858	0.134	113716	keystroke	r	n/a
57.308	0.09	114616	keystroke	Key.space	n/a
57.848	0.09	115696	keystroke	f	n/a
58.103	0.12	116206	keystroke	l	n/a
58.373	0.1945	116746	keystroke	o	n/a
58.5375	0.1495	117075	keystroke	u	n/a
59.932	0.091	119864	keystroke	r	n/a
60.232	0.12	120464	keystroke	Key.space	n/a
60.608	0.1345	121216	keystroke	l	n/a
60.9375	0.105	121875	keystroke	u	n/a
61.193	0.1045	122386	keystroke	n	n/a
61.4175	0.0905	122835	keystroke	c	n/a
61.583	0.0745	123166	keystroke	h	n/a
63.8345	0.043	127669	keystroke	Key.enter	n/a
63.8825	20.0825	127765	prompt	n/a	browsing presently salaries ping\n
65.1525	0.135	130305	keystroke	b	n/a
65.5575	0.1355	131115	keystroke	r	n/a
66.053	0.15	132106	keystroke	o	n/a
66.218	0.135	132436	keystroke	w	n/a
66.922	0.1055	133844	keystroke	s	n/a
67.283	0.209	134566	keystroke	i	n/a
67.4475	0.1645	134895	keystroke	n	n/a
67.613	0.1195	135226	keystroke	g	n/a
67.942	0.075	135884	keystroke	Key.space	n/a
68.6325	0.1355	137265	keystroke	p	n/a
68.843	0.15	137686	keystroke	r	n/a
68.963	0.12	137926	keystroke	e	n/a
69.263	0.12	138526	keystroke	s	n/a
69.578	0.15	139156	keystroke	e	n/a
69.848	0.1195	139696	keystroke	n	n/a
70.1025	0.105	140205	keystroke	t	n/a
70.2675	0.1805	140535	keystroke	l	n/a
70.6575	0.165	141315	keystroke	y	n/a
70.7925	0.135	141585	keystroke	Key.space	n/a
71.108	0.1195	142216	keystroke	s	n/a
71.3625	0.075	142725	keystroke	a	n/a
71.5875	0.135	143175	keystroke	l	n/a
71.828	0.1345	143656	keystroke	a	n/a
71.9635	0.149	143927	keystroke	r	n/a
72.1875	0.1355	144375	keystroke	i	n/a
72.2775	0.1205	144555	keystroke	e	n/a
72.458	0.1195	144916	keystroke	s	n/a
72.728	0.12	145456	keystroke	Key.space	n/a
73.223	0.09	146446	keystroke	p	n/a
73.448	0.195	146896	keystroke	i	n/a
73.613	0.165	147226	keystroke	n	n/a
81.9995	0.088	163999	keystroke	g	n/a
83.798	0.1645	167596	keystroke	Key.enter	n/a
83.968	11.082	167936	prompt	n/a	dealt mono substance hockey\n
86.7245	0.0285	173449	keystroke	d	n/a
86.918	0.1505	173836	keystroke	e	n/a
87.0525	0.105	174105	keystroke	a	n/a
87.2185	0.164	174437	keystroke	l	n/a
87.488	0.0895	174976	keystroke	t	n/a
88.5525	0.121	177105	keystroke	Key.space	n/a
88.9435	0.1345	177887	keystroke	m	n/a
89.213	0.165	178426	keystroke	o	n/a
89.348	0.18	178696	keystroke	n	n/a
89.498	0.1205	178996	keystroke	o	n/a
90.068	0.105	180136	keystroke	Key.space	n/a
90.353	0.12	180706	keystroke	s	n/a
90.533	0.12	181066	keystroke	u	n/a
90.7125	0.12	181425	keystroke	b	n/a
90.9975	0.106	181995	keystroke	s	n/a
91.3125	0.12	182625	keystroke	t	n/a
91.5525	0.1055	183105	keystroke	a	n/a
92.093	0.12	184186	keystroke	n	n/a
92.423	0.09	184846	keystroke	c	n/a
92.783	0.12	185566	keystroke	e	n/a
92.978	0.09	185956	keystroke	Key.space	n/a
93.203	0.135	186406	keystroke	h	n/a
93.3385	0.1495	186677	keystroke	o	n/a
93.608	0.135	187216	keystroke	c	n/a
93.848	0.09	187696	keystroke	k	n/a
94.118	0.105	188236	keystroke	e	n/a
94.388	0.12	188776	keystroke	y	n/a
94.9875	0.06	189975	keystroke	Key.enter	n/a
95.062	16.7885	190124	prompt	n/a	humanities artificial stability biblical\n
96.0375	0.09	192075	keystroke	h	n/a
96.2925	0.09	192585	keystroke	u	n/a
96.6075	0.135	193215	keystroke	m	n/a
96.8475	0.06	193695	keystroke	a	n/a
96.8925	0.0905	193785	keystroke	n	n/a
97.103	0.105	194206	keystroke	i	n/a
97.253	0.09	194506	keystroke	e	n/a
97.373	0.1055	194746	keystroke	i	n/a
98.093	0.09	196186	keystroke	Key.backspace	n/a
98.273	0.1045	196546	keystroke	Key.backspace	n/a
98.498	0.1195	196996	keystroke	t	n/a
98.6325	0.105	197265	keystroke	i	n/a
98.8275	0.0755	197655	keystroke	e	n/a
99.0975	0.12	198195	keystroke	s	n/a
101.6945	0.001	203389	keystroke	a	n/a
102.173	0.0895	204346	keystroke	Key.backspace	n/a
102.3225	0.15	204645	keystroke	Key.space	n/a
102.6075	0.151	205215	keystroke	a	n/a
102.6975	0.136	205395	keystroke	r	n/a
102.9985	0.1045	205997	keystroke	t	n/a
103.148	0.1205	206296	keystroke	i	n/a
103.493	0.135	206986	keystroke	i	n/a
104.078	0.075	208156	keystroke	Key.backspace	n/a
104.4385	0.12	208877	keystroke	f	n/a
104.5885	0.12	209177	keystroke	i	n/a
104.8585	0.09	209717	keystroke	c	n/a
104.9935	0.105	209987	keystroke	i	n/a
105.1735	0.105	210347	keystroke	a	n/a
105.3085	0.1495	210617	keystroke	l	n/a
105.848	0.135	211696	keystroke	Key.space	n/a
106.313	0.09	212626	keystroke	s	n/a
106.6125	0.1205	213225	keystroke	t	n/a
106.763	0.105	213526	keystroke	a	n/a
107.393	0.12	214786	keystroke	b	n/a
107.678	0.12	215356	keystroke	i	n/a
108.023	0.1345	216046	keystroke	l	n/a
108.2785	0.1795	216557	keystroke	i	n/a
108.5035	0.1495	217007	keystroke	t	n/a
108.668	0.15	217336	keystroke	y	n/a
109.133	0.135	218266	keystroke	Key.space	n/a
109.6285	0.1495	219257	keystroke	b	n/a
109.853	0.135	219706	keystroke	i	n/a
110.063	0.12	220126	keystroke	b	n/a
110.363	0.135	220726	keystroke	l	n/a
110.6175	0.136	221235	keystroke	i	n/a
110.8285	0.12	221657	keystroke	c	n/a
111.0975	0.106	222195	keystroke	a	n/a
111.2485	0.12	222497	keystroke	l	n/a
111.7435	0.104	223487	keystroke	Key.enter	n/a
111.8575	10.972	223715	prompt	n/a	possible involving occupation shortly\n
112.8975	0.09	225795	keystroke	p	n/a
113.0475	0.1355	226095	keystroke	o	n/a
113.213	0.03	226426	keystroke	s	n/a
113.333	0.09	226666	keystroke	s	n/a
113.528	0.105	227056	keystroke	i	n/a
113.753	0.105	227506	keystroke	b	n/a
113.948	0.12	227896	keystroke	l	n/a
114.323	0.12	228646	keystroke	e	n/a
114.608	0.105	229216	keystroke	Key.space	n/a
115.0575	0.195	230115	keystroke	i	n/a
115.2375	0.1205	230475	keystroke	n	n/a
115.598	0.06	231196	keystroke	v	n/a
115.958	0.12	231916	keystroke	o	n/a
116.273	0.15	232546	keystroke	l	n/a
116.498	0.1205	232996	keystroke	v	n/a
116.633	0.18	233266	keystroke	i	n/a
116.768	0.165	233536	keystroke	n	n/a
116.934	0.134	233868	keystroke	g	n/a
117.443	0.105	234886	keystroke	Key.space	n/a
117.8925	0.135	235785	keystroke	o	n/a
118.0425	0.105	236085	keystroke	c	n/a
118.388	0.09	236776	keystroke	u	n/a
118.808	0.075	237616	keystroke	Key.backspace	n/a
118.9875	0.136	237975	keystroke	c	n/a
119.1075	0.1505	238215	keystroke	u	n/a
119.603	0.18	239206	keystroke	p	n/a
119.798	0.06	239596	keystroke	a	n/a
120.038	0.045	240076	keystroke	t	n/a
120.068	0.195	240136	keystroke	i	n/a
120.113	0.195	240226	keystroke	o	n/a
120.233	0.09	240466	keystroke	n	n/a
120.6975	0.105	241395	keystroke	Key.space	n/a
120.8625	0.12	241725	keystroke	s	n/a
120.9975	0.1205	241995	keystroke	h	n/a
121.1325	0.165	242265	keystroke	o	n/a
121.3275	0.075	242655	keystroke	r	n/a
121.5825	0.0455	243165	keystroke	t	n/a
121.703	0.165	243406	keystroke	l	n/a
122.0635	0.119	244127	keystroke	y	n/a
122.6925	0.135	245385	keystroke	Key.enter	n/a
122.8325	11.442	245665	prompt	n/a	amplifier empire healing scan\n
123.623	0.09	247246	keystroke	e	n/a
124.178	0.09	248356	keystroke	Key.backspace	n/a
124.298	0.12	248596	keystroke	a	n/a
124.433	0.12	248866	keystroke	m	n/a
124.673	0.09	249346	keystroke	p	n/a
124.943	0.15	249886	keystroke	l	n/a
125.228	0.225	250456	keystroke	i	n/a
125.8425	0.135	251685	keystroke	f	n/a
126.0675	0.165	252135	keystroke	i	n/a
126.218	0.1045	252436	keystroke	e	n/a
126.6375	0.075	253275	keystroke	e	n/a
126.6975	0.21	253395	keystroke	r	n/a
127.223	0.06	254446	keystroke	Key.backspace	n/a
127.373	0.075	254746	keystroke	Key.backspace	n/a
127.463	0.105	254926	keystroke	r	n/a
128.0175	0.105	256035	keystroke	Key.space	n/a
128.348	0.1195	256696	keystroke	e	n/a
128.5725	0.105	257145	keystroke	m	n/a
128.843	0.0895	257686	keystroke	p	n/a
128.993	0.255	257986	keystroke	i	n/a
129.1575	0.15	258315	keystroke	r	n/a
129.2925	0.12	258585	keystroke	e	n/a
129.803	0.0445	259606	keystroke	Key.space	n/a
130.2075	0.135	260415	keystroke	h	n/a
130.3285	0.179	260657	keystroke	e	n/a
130.5085	0.135	261017	keystroke	a	n/a
130.7035	0.135	261407	keystroke	l	n/a
130.9425	0.18	261885	keystroke	i	n/a
131.0625	0.195	262125	keystroke	n	n/a
131.2125	0.135	262425	keystroke	g	n/a
131.4525	0.12	262905	keystroke	Key.space	n/a
132.1725	0.09	264345	keystroke	s	n/a
132.4735	0.104	264947	keystroke	c	n/a
132.7875	0.06	265575	keystroke	a	n/a
132.9835	0.105	265967	keystroke	n	n/a
134.243	0.03	268486	keystroke	Key.enter	n/a
134.279	13.1355	268558	prompt	n/a	changing yeah satin burton\n
135.293	0.12	270586	keystroke	c	n/a
135.458	0.12	270916	keystroke	h	n/a
135.758	0.12	271516	keystroke	a	n/a
135.908	0.105	271816	keystroke	n	n/a
136.1185	0.1195	272237	keystroke	g	n/a
136.238	0.135	272476	keystroke	i	n/a
136.328	0.135	272656	keystroke	n	n/a
137.437	0.0905	274874	keystroke	g	n/a
141.8345	0.073	283669	keystroke	Key.space	n/a
142.3135	0.165	284627	keystroke	y	n/a
142.583	0.15	285166	keystroke	a	n/a
143.288	0.12	286576	keystroke	Key.backspace	n/a
143.423	0.105	286846	keystroke	e	n/a
143.5135	0.1045	287027	keystroke	a	n/a
143.633	0.105	287266	keystroke	h	n/a
144.038	0.09	288076	keystroke	Key.space	n/a
144.308	0.09	288616	keystroke	s	n/a
144.578	0.0905	289156	keystroke	a	n/a
144.7735	0.075	289547	keystroke	t	n/a
144.9385	0.134	289877	keystroke	i	n/a
145.0585	0.1195	290117	keystroke	n	n/a
145.3575	0.105	290715	keystroke	Key.space	n/a
145.7475	0.12	291495	keystroke	b	n/a
146.0925	0.1505	292185	keystroke	u	n/a
146.273	0.105	292546	keystroke	r	n/a
146.543	0.0895	293086	keystroke	t	n/a
146.6335	0.194	293267	keystroke	o	n/a
146.768	0.1345	293536	keystroke	n	n/a
147.278	0.135	294556	keystroke	Key.enter	n/a
147.417	8.2025	294834	prompt	n/a	intranet divine commodity rica\n
148.2825	0.225	296565	keystroke	i	n/a
148.403	0.21	296806	keystroke	n	n/a
148.6275	0.105	297255	keystroke	t	n/a
148.868	0.1645	297736	keystroke	r	n/a
149.0025	0.105	298005	keystroke	a	n/a
149.1675	0.121	298335	keystroke	n	n/a
149.4675	0.105	298935	keystroke	e	n/a
149.7225	0.075	299445	keystroke	t	n/a
149.888	0.105	299776	keystroke	Key.space	n/a
150.143	0.0895	300286	keystroke	d	n/a
150.2625	0.1205	300525	keystroke	i	n/a
150.548	0.045	301096	keystroke	v	n/a
150.6825	0.225	301365	keystroke	i	n/a
150.9225	0.12	301845	keystroke	n	n/a
151.0875	0.09	302175	keystroke	e	n/a
151.613	0.09	303226	keystroke	Key.space	n/a
152.048	0.12	304096	keystroke	c	n/a
152.183	0.09	304366	keystroke	o	n/a
152.4975	0.06	304995	keystroke	m	n/a
152.6025	0.12	305205	keystroke	m	n/a
152.9925	0.1205	305985	keystroke	o	n/a
153.203	0.135	306406	keystroke	d	n/a
153.413	0.165	306826	keystroke	i	n/a
153.758	0.105	307516	keystroke	t	n/a
153.953	0.15	307906	keystroke	y	n/a
154.088	0.135	308176	keystroke	Key.space	n/a
154.5225	0.075	309045	keystroke	r	n/a
154.613	0.1345	309226	keystroke	i	n/a
154.8675	0.105	309735	keystroke	c	n/a
155.1975	0.105	310395	keystroke	a	n/a
155.4825	0.1355	310965	keystroke	Key.enter	n/a
155.623	22.7065	311246	prompt	n/a	discounts recorder stake genealogy\n
156.3685	0.074	312737	keystroke	s	n/a
156.9825	0.105	313965	keystroke	Key.backspace	n/a
157.1175	0.075	314235	keystroke	d	n/a
157.223	0.1195	314446	keystroke	i	n/a
157.3575	0.105	314715	keystroke	s	n/a
157.6425	0.105	315285	keystroke	c	n/a
157.7775	0.18	315555	keystroke	o	n/a
157.9275	0.12	315855	keystroke	u	n/a
158.2125	0.12	316425	keystroke	n	n/a
158.3475	0.09	316695	keystroke	t	n/a
158.6325	0.105	317265	keystroke	s	n/a
159.038	0.045	318076	keystroke	Key.space	n/a
159.728	0.135	319456	keystroke	r	n/a
159.833	0.075	319666	keystroke	e	n/a
160.313	0.135	320626	keystroke	c	n/a
160.478	0.1345	320956	keystroke	o	n/a
160.7785	0.06	321557	keystroke	r	n/a
161.3325	0.09	322665	keystroke	d	n/a
161.6175	0.151	323235	keystroke	e	n/a
161.7375	0.1355	323475	keystroke	r	n/a
161.9475	0.09	323895	keystroke	Key.space	n/a
162.1875	0.105	324375	keystroke	s	n/a
162.5175	0.1205	325035	keystroke	t	n/a
162.6825	0.12	325365	keystroke	a	n/a
163.0125	0.105	326025	keystroke	k	n/a
163.1025	0.106	326205	keystroke	e	n/a
163.3125	0.0755	326625	keystroke	Key.space	n/a
163.8535	0.074	327707	keystroke	g	n/a
164.0175	0.12	328035	keystroke	e	n/a
164.4825	0.105	328965	keystroke	a	n/a
164.738	0.0895	329476	keystroke	n	n/a
165.0525	0.12	330105	keystroke	e	n/a
165.443	0.0895	330886	keystroke	o	n/a
166.1925	0.045	332385	keystroke	Key.backspace	n/a
166.2975	0.106	332595	keystroke	a	n/a
166.598	0.09	333196	keystroke	l	n/a
166.958	0.15	333916	keystroke	o	n/a
167.228	0.09	334456	keystroke	g	n/a
167.408	0.12	334816	keystroke	y	n/a
168.6525	0.09	337305	keystroke	Key.backspace	n/a
168.9375	0.09	337875	keystroke	Key.backspace	n/a
169.193	0.0745	338386	keystroke	Key.backspace	n/a
169.433	0.075	338866	keystroke	Key.backspace	n/a
169.703	0.06	339406	keystroke	Key.backspace	n/a
169.973	0.075	339946	keystroke	Key.backspace	n/a
170.258	0.105	340516	keystroke	Key.backspace	n/a
170.7525	0.06	341505	keystroke	Key.backspace	n/a
171.218	0.12	342436	keystroke	n	n/a
172.223	0.1795	344446	keystroke	e	n/a
172.4335	0.105	344867	keystroke	a	n/a
172.778	0.15	345556	keystroke	l	n/a
173.1075	0.12	346215	keystroke	o	n/a
173.348	0.1345	346696	keystroke	g	n/a
173.5575	0.1355	347115	keystroke	y	n/a
178.24	0.088	356480	keystroke	Key.enter	n/a
178.3335	16.046	356667	prompt	n/a	renewal postposted locked handed\n
179.6635	0.12	359327	keystroke	r	n/a
179.8435	0.105	359687	keystroke	e	n/a
180.0385	0.135	360077	keystroke	n	n/a
180.1285	0.165	360257	keystroke	e	n/a
180.5785	0.119	361157	keystroke	w	n/a
180.8025	0.12	361605	keystroke	a	n/a
180.9375	0.15	361875	keystroke	l	n/a
181.313	0.1355	362626	keystroke	Key.space	n/a
181.8385	0.105	363677	keystroke	p	n/a
182.0035	0.15	364007	keystroke	o	n/a
182.1085	0.09	364217	keystroke	s	n/a
182.5285	0.105	365057	keystroke	t	n/a
182.7535	0.09	365507	keystroke	p	n/a
182.9185	0.165	365837	keystroke	o	n/a
183.3825	0.135	366765	keystroke	n	n/a
184.103	0.015	368206	keystroke	Key.backspace	n/a
185.858	0.1055	371716	keystroke	s	n/a
186.6085	0.1645	373217	keystroke	t	n/a
186.878	0.105	373756	keystroke	e	n/a
187.178	0.12	374356	keystroke	d	n/a
187.373	0.105	374746	keystroke	Key.space	n/a
188.0935	0.12	376187	keystroke	l	n/a
188.3335	0.09	376667	keystroke	o	n/a
188.4385	0.135	376877	keystroke	c	n/a
188.6785	0.105	377357	keystroke	k	n/a
188.8285	0.09	377657	keystroke	e	n/a
189.1285	0.105	378257	keystroke	d	n/a
189.2785	0.075	378557	keystroke	Key.space	n/a
189.5485	0.105	379097	keystroke	h	n/a
189.6985	0.075	379397	keystroke	a	n/a
189.8035	0.105	379607	keystroke	n	n/a
189.9985	0.105	379997	keystroke	d	n/a
190.2535	0.09	380507	keystroke	e	n/a
190.5235	0.075	381047	keystroke	d	n/a
194.335	0.043	388670	keystroke	Key.enter	n/a
194.3845	11.17	388769	prompt	n/a	superior slowly revolutionary frames\n
195.2785	0.135	390557	keystroke	s	n/a
195.5035	0.075	391007	keystroke	u	n/a
195.6385	0.135	391277	keystroke	p	n/a
195.7885	0.195	391577	keystroke	e	n/a
195.9685	0.12	391937	keystroke	r	n/a
196.2235	0.105	392447	keystroke	i	n/a
196.3885	0.15	392777	keystroke	o	n/a
196.5535	0.135	393107	keystroke	r	n/a
196.8685	0.119	393737	keystroke	Key.space	n/a
197.5885	0.135	395177	keystroke	s	n/a
197.7675	0.1205	395535	keystroke	l	n/a
197.9925	0.091	395985	keystroke	o	n/a
198.1585	0.12	396317	keystroke	w	n/a
198.3835	0.135	396767	keystroke	l	n/a
198.7435	0.18	397487	keystroke	y	n/a
198.8635	0.165	397727	keystroke	Key.space	n/a
199.7325	0.1655	399465	keystroke	r	n/a
199.8835	0.135	399767	keystroke	e	n/a
200.363	0.135	400726	keystroke	v	n/a
200.573	0.0895	401146	keystroke	o	n/a
200.8275	0.135	401655	keystroke	l	n/a
201.4875	0.075	402975	keystroke	u	n/a
201.7585	0.0895	403517	keystroke	t	n/a
201.878	0.2405	403756	keystroke	i	n/a
201.983	0.1655	403966	keystroke	o	n/a
202.073	0.1355	404146	keystroke	n	n/a
202.478	0.1205	404956	keystroke	a	n/a
202.5825	0.1355	405165	keystroke	r	n/a
202.868	0.1505	405736	keystroke	y	n/a
203.063	0.15	406126	keystroke	Key.space	n/a
203.633	0.0755	407266	keystroke	f	n/a
203.948	0.1655	407896	keystroke	r	n/a
204.0685	0.12	408137	keystroke	a	n/a
204.2785	0.12	408557	keystroke	m	n/a
204.3825	0.106	408765	keystroke	e	n/a
204.5775	0.121	409155	keystroke	s	n/a
205.4185	0.134	410837	keystroke	Key.enter	n/a
205.5585	9.071	411117	prompt	n/a	riding damaged cotton computer\n
207.0835	0.12	414167	keystroke	r	n/a
207.3085	0.119	414617	keystroke	i	n/a
207.5625	0.1355	415125	keystroke	d	n/a
207.6985	0.1495	415397	keystroke	i	n/a
207.8185	0.149	415637	keystroke	n	n/a
207.938	0.1045	415876	keystroke	g	n/a
208.538	0.09	417076	keystroke	Key.space	n/a
209.0185	0.105	418037	keystroke	d	n/a
209.2285	0.09	418457	keystroke	a	n/a
209.4075	0.076	418815	keystroke	m	n/a
209.4985	0.09	418997	keystroke	a	n/a
209.7525	0.151	419505	keystroke	g	n/a
209.9175	0.106	419835	keystroke	e	n/a
210.263	0.1045	420526	keystroke	d	n/a
210.4135	0.1045	420827	keystroke	Key.space	n/a
210.6685	0.135	421337	keystroke	c	n/a
210.8185	0.135	421637	keystroke	o	n/a
211.1785	0.09	422357	keystroke	t	n/a
211.3285	0.105	422657	keystroke	t	n/a
211.4485	0.1945	422897	keystroke	o	n/a
211.5535	0.134	423107	keystroke	n	n/a
212.033	0.0895	424066	keystroke	Key.space	n/a
212.4075	0.1205	424815	keystroke	c	n/a
212.5435	0.1045	425087	keystroke	o	n/a
212.708	0.135	425416	keystroke	m	n/a
213.0085	0.1345	426017	keystroke	p	n/a
213.098	0.165	426196	keystroke	u	n/a
213.488	0.12	426976	keystroke	t	n/a
213.743	0.165	427486	keystroke	e	n/a
213.863	0.1205	427726	keystroke	r	n/a
214.5075	0.12	429015	keystroke	Key.enter	n/a
214.633	10.7215	429266	prompt	n/a	idol notifications alerts company\n
215.4235	0.149	430847	keystroke	i	n/a
215.7975	0.121	431595	keystroke	d	n/a
215.888	0.1045	431776	keystroke	o	n/a
216.1275	0.1205	432255	keystroke	l	n/a
216.338	0.1045	432676	keystroke	Key.space	n/a
216.8025	0.151	433605	keystroke	n	n/a
216.9385	0.1345	433877	keystroke	o	n/a
217.613	0.09	435226	keystroke	t	n/a
217.973	0.15	435946	keystroke	i	n/a
218.4985	0.12	436997	keystroke	f	n/a
218.6635	0.135	437327	keystroke	i	n/a
218.9485	0.09	437897	keystroke	c	n/a
219.2185	0.105	438437	keystroke	a	n/a
219.3835	0.105	438767	keystroke	t	n/a
219.4585	0.195	438917	keystroke	i	n/a
219.5335	0.135	439067	keystroke	o	n/a
219.5935	0.135	439187	keystroke	n	n/a
220.1935	0.12	440387	keystroke	s	n/a
220.6135	0.09	441227	keystroke	Key.space	n/a
221.2735	0.105	442547	keystroke	a	n/a
221.4385	0.135	442877	keystroke	l	n/a
221.5885	0.18	443177	keystroke	e	n/a
221.7385	0.105	443477	keystroke	r	n/a
221.9925	0.106	443985	keystroke	t	n/a
222.2485	0.105	444497	keystroke	s	n/a
222.8035	0.12	445607	keystroke	Key.space	n/a
223.088	0.1505	446176	keystroke	c	n/a
223.223	0.105	446446	keystroke	o	n/a
223.4185	0.1195	446837	keystroke	m	n/a
223.673	0.09	447346	keystroke	p	n/a
223.793	0.12	447586	keystroke	a	n/a
223.943	0.06	447886	keystroke	n	n/a
224.288	0.12	448576	keystroke	y	n/a
225.2335	0.12	450467	keystroke	Key.enter	n/a
225.3575	15.8825	450715	prompt	n/a	percent stockholm viewed cingular\n
226.298	0.12	452596	keystroke	p	n/a
226.433	0.135	452866	keystroke	e	n/a
226.538	0.12	453076	keystroke	r	n/a
227.003	0.1055	454006	keystroke	c	n/a
227.288	0.0905	454576	keystroke	e	n/a
227.4385	0.1195	454877	keystroke	n	n/a
227.5735	0.09	455147	keystroke	t	n/a
227.8135	0.105	455627	keystroke	Key.space	n/a
228.3075	0.105	456615	keystroke	s	n/a
228.638	0.135	457276	keystroke	t	n/a
228.833	0.105	457666	keystroke	o	n/a
229.073	0.105	458146	keystroke	c	n/a
229.253	0.12	458506	keystroke	k	n/a
229.583	0.09	459166	keystroke	h	n/a
229.763	0.09	459526	keystroke	o	n/a
229.973	0.12	459946	keystroke	l	n/a
230.363	0.09	460726	keystroke	m	n/a
230.6335	0.09	461267	keystroke	Key.space	n/a
233.9045	0.059	467809	keystroke	v	n/a
234.0235	0.165	468047	keystroke	i	n/a
234.2185	0.165	468437	keystroke	e	n/a
234.3685	0.15	468737	keystroke	w	n/a
235.013	0.09	470026	keystroke	e	n/a
235.283	0.09	470566	keystroke	d	n/a
235.433	0.1355	470866	keystroke	Key.space	n/a
235.7335	0.105	471467	keystroke	s	n/a
236.183	0.09	472366	keystroke	Key.backspace	n/a
236.2885	0.105	472577	keystroke	c	n/a
236.4385	0.15	472877	keystroke	i	n/a
236.5585	0.1045	473117	keystroke	n	n/a
236.873	0.1355	473746	keystroke	c	n/a
237.4135	0.105	474827	keystroke	Key.backspace	n/a
237.5935	0.135	475187	keystroke	g	n/a
237.7285	0.075	475457	keystroke	u	n/a
238.0435	0.15	476087	keystroke	l	n/a
238.2085	0.135	476417	keystroke	a	n/a
238.2835	0.1495	476567	keystroke	r	n/a
241.1645	0.074	482329	keystroke	Key.enter	n/a
241.243	11.3215	482486	prompt	n/a	book musicians coalition vocal\n
242.123	0.135	484246	keystroke	b	n/a
242.378	0.061	484756	keystroke	o	n/a
242.528	0.1055	485056	keystroke	o	n/a
242.798	0.15	485596	keystroke	k	n/a
243.083	0.09	486166	keystroke	Key.space	n/a
243.383	0.09	486766	keystroke	m	n/a
243.728	0.09	487456	keystroke	u	n/a
243.893	0.12	487786	keystroke	s	n/a
244.7335	0.105	489467	keystroke	i	n/a
245.0485	0.105	490097	keystroke	c	n/a
245.1685	0.105	490337	keystroke	i	n/a
245.3785	0.105	490757	keystroke	a	n/a
245.4835	0.105	490967	keystroke	n	n/a
245.6935	0.09	491387	keystroke	s	n/a
246.0835	0.105	492167	keystroke	Key.space	n/a
246.5935	0.105	493187	keystroke	c	n/a
246.7285	0.105	493457	keystroke	o	n/a
246.9535	0.06	493907	keystroke	a	n/a
247.1635	0.09	494327	keystroke	l	n/a
247.3735	0.12	494747	keystroke	i	n/a
247.7035	0.105	495407	keystroke	t	n/a
247.8235	0.18	495647	keystroke	i	n/a
247.8835	0.165	495767	keystroke	o	n/a
247.9585	0.135	495917	keystroke	n	n/a
248.6035	0.135	497207	keystroke	Key.space	n/a
249.2335	0.135	498467	keystroke	c	n/a
249.3835	0.12	498767	keystroke	o	n/a
250.1335	0.075	500267	keystroke	Key.backspace	n/a
250.2835	0.09	500567	keystroke	Key.backspace	n/a
250.6135	0.165	501227	keystroke	v	n/a
250.8085	0.09	501617	keystroke	o	n/a
251.1535	0.119	502307	keystroke	c	n/a
251.4385	0.09	502877	keystroke	a	n/a
251.6035	0.12	503207	keystroke	l	n/a
252.4285	0.135	504857	keystroke	Key.enter	n/a
252.57	8.5895	505140	prompt	n/a	plans declared being richards\n
253.673	0.12	507346	keystroke	p	n/a
253.958	0.135	507916	keystroke	l	n/a
254.138	0.075	508276	keystroke	a	n/a
254.198	0.105	508396	keystroke	n	n/a
254.408	0.1205	508816	keystroke	s	n/a
254.6485	0.09	509297	keystroke	Key.space	n/a
255.2335	0.1045	510467	keystroke	d	n/a
255.488	0.06	510976	keystroke	e	n/a
255.8185	0.1045	511637	keystroke	c	n/a
256.013	0.135	512026	keystroke	l	n/a
256.2085	0.15	512417	keystroke	a	n/a
256.404	0.149	512808	keystroke	r	n/a
256.583	0.09	513166	keystroke	e	n/a
256.868	0.105	513736	keystroke	d	n/a
257.064	0.045	514128	keystroke	Key.space	n/a
257.453	0.09	514906	keystroke	b	n/a
257.6935	0.1045	515387	keystroke	e	n/a
257.8435	0.15	515687	keystroke	i	n/a
257.9485	0.135	515897	keystroke	n	n/a
258.0685	0.09	516137	keystroke	g	n/a
258.3225	0.0905	516645	keystroke	Key.space	n/a
258.8335	0.105	517667	keystroke	r	n/a
258.9835	0.12	517967	keystroke	i	n/a
259.2685	0.1045	518537	keystroke	c	n/a
259.3885	0.1195	518777	keystroke	h	n/a
259.763	0.151	519526	keystroke	a	n/a
260.184	0.089	520368	keystroke	r	n/a
260.5135	0.1495	521027	keystroke	d	n/a
260.6035	0.135	521207	keystroke	s	n/a
261.038	0.12	522076	keystroke	Key.enter	n/a
261.1635	10.7515	522327	prompt	n/a	evaluating improve builds flat\n
262.1335	0.105	524267	keystroke	e	n/a
262.4185	0.135	524837	keystroke	v	n/a
262.6135	0.105	525227	keystroke	a	n/a
262.7935	0.135	525587	keystroke	l	n/a
263.063	0.12	526126	keystroke	u	n/a
263.423	0.12	526846	keystroke	a	n/a
263.678	0.075	527356	keystroke	t	n/a
263.7685	0.1945	527537	keystroke	i	n/a
263.9185	0.225	527837	keystroke	n	n/a
263.933	0.12	527866	keystroke	o	n/a
264.8185	0.12	529637	keystroke	g	n/a
265.2385	0.045	530477	keystroke	Key.backspace	n/a
265.4035	0.075	530807	keystroke	Key.backspace	n/a
265.5385	0.105	531077	keystroke	g	n/a
265.7185	0.09	531437	keystroke	Key.space	n/a
266.468	0.105	532936	keystroke	i	n/a
266.7685	0.1195	533537	keystroke	m	n/a
267.0535	0.105	534107	keystroke	p	n/a
267.2635	0.075	534527	keystroke	r	n/a
267.3535	0.12	534707	keystroke	o	n/a
267.638	0.105	535276	keystroke	v	n/a
267.878	0.105	535756	keystroke	e	n/a
268.553	0.091	537106	keystroke	Key.space	n/a
269.258	0.0605	538516	keystroke	b	n/a
269.333	0.09	538666	keystroke	u	n/a
269.543	0.09	539086	keystroke	i	n/a
269.768	0.12	539536	keystroke	l	n/a
270.023	0.075	540046	keystroke	d	n/a
270.233	0.091	540466	keystroke	s	n/a
270.458	0.1205	540916	keystroke	Key.space	n/a
270.6685	0.15	541337	keystroke	f	n/a
270.8935	0.165	541787	keystroke	l	n/a
271.0735	0.105	542147	keystroke	a	n/a
271.2985	0.1045	542597	keystroke	t	n/a
271.793	0.12	543586	keystroke	Key.enter	n/a
271.9195	8.38	543839	prompt	n/a	printers shop critics wrestling\n
272.873	0.1205	545746	keystroke	p	n/a
273.1285	0.105	546257	keystroke	r	n/a
273.2635	0.149	546527	keystroke	i	n/a
273.3685	0.15	546737	keystroke	n	n/a
273.5035	0.075	547007	keystroke	t	n/a
273.7135	0.12	547427	keystroke	e	n/a
273.7735	0.15	547547	keystroke	r	n/a
274.1935	0.12	548387	keystroke	s	n/a
274.3735	0.0745	548747	keystroke	Key.space	n/a
274.6135	0.105	549227	keystroke	s	n/a
274.7475	0.105	549495	keystroke	h	n/a
274.838	0.18	549676	keystroke	o	n/a
275.184	0.1495	550368	keystroke	p	n/a
275.3185	0.134	550637	keystroke	Key.space	n/a
275.8435	0.075	551687	keystroke	c	n/a
276.1885	0.0895	552377	keystroke	r	n/a
276.3235	0.1355	552647	keystroke	i	n/a
276.5185	0.1045	553037	keystroke	t	n/a
276.6085	0.1045	553217	keystroke	i	n/a
276.9385	0.105	553877	keystroke	c	n/a
277.2385	0.104	554477	keystroke	Key.space	n/a
277.6435	0.12	555287	keystroke	w	n/a
277.8985	0.135	555797	keystroke	r	n/a
278.1235	0.105	556247	keystroke	e	n/a
278.3335	0.12	556667	keystroke	s	n/a
278.663	0.0305	557326	keystroke	t	n/a
279.188	0.09	558376	keystroke	l	n/a
279.398	0.21	558796	keystroke	i	n/a
279.533	0.135	559066	keystroke	n	n/a
279.669	0.029	559338	keystroke	g	n/a
280.1935	0.105	560387	keystroke	Key.enter	n/a
280.303	7.467	560606	prompt	n/a	tokyo sailing must gays\n
281.3335	0.09	562667	keystroke	t	n/a
281.4835	0.09	562967	keystroke	o	n/a
282.0085	0.09	564017	keystroke	k	n/a
282.3685	0.12	564737	keystroke	y	n/a
282.6685	0.134	565337	keystroke	o	n/a
282.9975	0.105	565995	keystroke	Key.space	n/a
283.718	0.1205	567436	keystroke	s	n/a
283.8835	0.105	567767	keystroke	a	n/a
284.0035	0.09	568007	keystroke	i	n/a
284.2735	0.15	568547	keystroke	l	n/a
284.5285	0.195	569057	keystroke	i	n/a
284.6785	0.15	569357	keystroke	n	n/a
284.8135	0.12	569627	keystroke	g	n/a
285.293	0.12	570586	keystroke	Key.space	n/a
285.6535	0.075	571307	keystroke	m	n/a
285.9385	0.105	571877	keystroke	u	n/a
286.0285	0.105	572057	keystroke	s	n/a
286.3585	0.075	572717	keystroke	t	n/a
286.4925	0.09	572985	keystroke	Key.space	n/a
286.7335	0.12	573467	keystroke	g	n/a
286.9585	0.09	573917	keystroke	a	n/a
287.1535	0.105	574307	keystroke	y	n/a
287.2735	0.12	574547	keystroke	s	n/a
287.6635	0.104	575327	keystroke	Key.enter	n/a
287.7725	13.9925	575545	prompt	n/a	brokers recipient architectural entertaining\n
288.5335	0.135	577067	keystroke	b	n/a
288.8635	0.06	577727	keystroke	r	n/a
288.9835	0.09	577967	keystroke	o	n/a
289.283	0.12	578566	keystroke	k	n/a
289.403	0.15	578806	keystroke	e	n/a
289.523	0.1055	579046	keystroke	r	n/a
289.778	0.075	579556	keystroke	s	n/a
290.258	0.0755	580516	keystroke	Key.space	n/a
290.6635	0.15	581327	keystroke	r	n/a
290.7685	0.12	581537	keystroke	e	n/a
291.1285	0.105	582257	keystroke	c	n/a
291.6685	0.15	583337	keystroke	i	n/a
292.1635	0.0745	584327	keystroke	p	n/a
292.373	0.1355	584746	keystroke	i	n/a
292.5235	0.105	585047	keystroke	e	n/a
292.6735	0.12	585347	keystroke	n	n/a
292.8085	0.09	585617	keystroke	t	n/a
293.4085	0.105	586817	keystroke	Key.space	n/a
293.6785	0.135	587357	keystroke	a	n/a
293.7835	0.135	587567	keystroke	r	n/a
294.2335	0.09	588467	keystroke	c	n/a
294.3535	0.105	588707	keystroke	h	n/a
294.4735	0.12	588947	keystroke	i	n/a
295.1935	0.119	590387	keystroke	t	n/a
295.4785	0.075	590957	keystroke	e	n/a
295.7785	0.09	591557	keystroke	c	n/a
296.1385	0.12	592277	keystroke	t	n/a
296.393	0.1195	592786	keystroke	u	n/a
296.5425	0.106	593085	keystroke	r	n/a
296.7235	0.105	593447	keystroke	a	n/a
296.8885	0.1345	593777	keystroke	l	n/a
297.188	0.12	594376	keystroke	Key.space	n/a
297.5635	0.105	595127	keystroke	e	n/a
297.6985	0.105	595397	keystroke	n	n/a
298.058	0.15	596116	keystroke	e	n/a
298.523	0.12	597046	keystroke	Key.backspace	n/a
298.643	0.075	597286	keystroke	t	n/a
298.823	0.1655	597646	keystroke	e	n/a
298.9285	0.12	597857	keystroke	r	n/a
299.3635	0.12	598727	keystroke	t	n/a
299.4985	0.105	598997	keystroke	a	n/a
299.663	0.18	599326	keystroke	i	n/a
299.768	0.1205	599536	keystroke	n	n/a
300.5635	0.21	601127	keystroke	i	n/a
300.6835	0.135	601367	keystroke	n	n/a
301.1035	0.105	602207	keystroke	g	n/a
301.6735	0.09	603347	keystroke	Key.enter	n/a
301.768	10.9765	603536	prompt	n/a	payable orleans existence ranch\n
302.6185	0.135	605237	keystroke	p	n/a
302.7835	0.12	605567	keystroke	a	n/a
302.9635	0.105	605927	keystroke	y	n/a
303.1135	0.09	606227	keystroke	a	n/a
303.3085	0.09	606617	keystroke	p	n/a
304.0735	0.09	608147	keystroke	Key.backspace	n/a
304.2085	0.0595	608417	keystroke	b	n/a
304.4785	0.1345	608957	keystroke	l	n/a
304.5985	0.105	609197	keystroke	e	n/a
305.0935	0.0895	610187	keystroke	Key.space	n/a
305.363	0.135	610726	keystroke	o	n/a
305.513	0.1205	611026	keystroke	r	n/a
305.7825	0.12	611565	keystroke	l	n/a
305.888	0.1805	611776	keystroke	e	n/a
306.0225	0.076	612045	keystroke	a	n/a
306.1725	0.106	612345	keystroke	n	n/a
306.3375	0.106	612675	keystroke	s	n/a
306.8035	0.1045	613607	keystroke	Key.space	n/a
307.073	0.075	614146	keystroke	e	n/a
308.318	0.105	616636	keystroke	x	n/a
308.9035	0.1045	617807	keystroke	i	n/a
309.053	0.075	618106	keystroke	s	n/a
309.413	0.105	618826	keystroke	t	n/a
309.5785	0.1045	619157	keystroke	e	n/a
309.743	0.105	619486	keystroke	n	n/a
309.998	0.075	619996	keystroke	c	n/a
310.298	0.1055	620596	keystroke	e	n/a
310.523	0.06	621046	keystroke	Key.space	n/a
311.018	0.165	622036	keystroke	r	n/a
311.138	0.105	622276	keystroke	a	n/a
311.348	0.1205	622696	keystroke	n	n/a
311.6185	0.09	623237	keystroke	c	n/a
311.7685	0.1045	623537	keystroke	h	n/a
312.6385	0.105	625277	keystroke	Key.enter	n/a
312.747	13.8275	625494	prompt	n/a	traditional prophet telecharger promise\n
313.748	0.105	627496	keystroke	t	n/a
313.973	0.15	627946	keystroke	r	n/a
314.078	0.12	628156	keystroke	a	n/a
314.213	0.12	628426	keystroke	n	n/a
314.5425	0.0755	629085	keystroke	d	n/a
314.933	0.075	629866	keystroke	Key.backspace	n/a
315.113	0.06	630226	keystroke	Key.backspace	n/a
315.204	0.089	630408	keystroke	d	n/a
315.4285	0.105	630857	keystroke	i	n/a
315.638	0.0905	631276	keystroke	t	n/a
315.773	0.225	631546	keystroke	i	n/a
315.878	0.15	631756	keystroke	o	n/a
315.968	0.105	631936	keystroke	n	n/a
316.208	0.12	632416	keystroke	a	n/a
316.373	0.1055	632746	keystroke	l	n/a
316.8835	0.045	633767	keystroke	Key.space	n/a
317.078	0.12	634156	keystroke	p	n/a
317.4535	0.105	634907	keystroke	r	n/a
317.573	0.1055	635146	keystroke	o	n/a
317.798	0.12	635596	keystroke	p	n/a
317.978	0.1195	635956	keystroke	h	n/a
318.1285	0.1055	636257	keystroke	e	n/a
318.5475	0.106	637095	keystroke	t	n/a
319.0275	0.1055	638055	keystroke	Key.space	n/a
319.5825	0.075	639165	keystroke	t	n/a
319.7325	0.09	639465	keystroke	e	n/a
319.928	0.1045	639856	keystroke	l	n/a
320.003	0.09	640006	keystroke	e	n/a
320.3475	0.1205	640695	keystroke	c	n/a
320.483	0.1205	640966	keystroke	h	n/a
320.753	0.165	641506	keystroke	a	n/a
320.9035	0.1195	641807	keystroke	r	n/a
321.323	0.12	642646	keystroke	g	n/a
321.743	0.18	643486	keystroke	e	n/a
321.893	0.1355	643786	keystroke	r	n/a
322.268	0.12	644536	keystroke	Key.space	n/a
323.993	0.135	647986	keystroke	p	n/a
324.203	0.12	648406	keystroke	r	n/a
324.3385	0.1045	648677	keystroke	o	n/a
324.7125	0.045	649425	keystroke	m	n/a
324.9385	0.105	649877	keystroke	i	n/a
325.0735	0.105	650147	keystroke	s	n/a
325.3135	0.105	650627	keystroke	e	n/a
326.4535	0.12	652907	keystroke	Key.enter	n/a
326.5795	11.1555	653159	prompt	n/a	uganda goat weed lightning\n
328.6605	0.073	657321	keystroke	u	n/a
328.778	0.165	657556	keystroke	g	n/a
328.943	0.1205	657886	keystroke	a	n/a
329.0785	0.0895	658157	keystroke	n	n/a
329.3335	0.105	658667	keystroke	d	n/a
329.573	0.075	659146	keystroke	a	n/a
330.2325	0.076	660465	keystroke	Key.space	n/a
330.6685	0.1345	661337	keystroke	g	n/a
331.268	0.1205	662536	keystroke	o	n/a
331.448	0.105	662896	keystroke	a	n/a
331.718	0.1055	663436	keystroke	t	n/a
331.883	0.105	663766	keystroke	Key.space	n/a
332.048	0.12	664096	keystroke	w	n/a
332.4385	0.1045	664877	keystroke	e	n/a
332.618	0.09	665236	keystroke	e	n/a
332.9325	0.136	665865	keystroke	d	n/a
333.1125	0.09	666225	keystroke	Key.space	n/a
333.459	0.1345	666918	keystroke	l	n/a
333.6825	0.136	667365	keystroke	i	n/a
333.8035	0.135	667607	keystroke	g	n/a
333.9535	0.104	667907	keystroke	h	n/a
334.2235	0.0595	668447	keystroke	t	n/a
334.4785	0.03	668957	keystroke	i	n/a
335.198	0.09	670396	keystroke	Key.backspace	n/a
335.3035	0.0895	670607	keystroke	n	n/a
335.378	0.165	670756	keystroke	i	n/a
335.528	0.12	671056	keystroke	n	n/a
335.708	0.12	671416	keystroke	g	n/a
337.583	0.15	675166	keystroke	Key.enter	n/a
337.7375	10.6175	675475	prompt	n/a	cleaners click pension associated\n
338.633	0.09	677266	keystroke	d	n/a
339.1275	0.0905	678255	keystroke	Key.backspace	n/a
339.2335	0.089	678467	keystroke	c	n/a
339.5035	0.135	679007	keystroke	l	n/a
339.6235	0.135	679247	keystroke	e	n/a
339.7135	0.135	679427	keystroke	a	n/a
339.9385	0.12	679877	keystroke	n	n/a
340.0885	0.165	680177	keystroke	e	n/a
340.2085	0.135	680417	keystroke	r	n/a
340.4635	0.105	680927	keystroke	s	n/a
340.7475	0.075	681495	keystroke	Key.space	n/a
341.1825	0.136	682365	keystroke	c	n/a
341.3635	0.15	682727	keystroke	l	n/a
341.6175	0.09	683235	keystroke	i	n/a
341.7385	0.134	683477	keystroke	c	n/a
341.9485	0.09	683897	keystroke	k	n/a
342.1275	0.075	684255	keystroke	Key.space	n/a
342.4885	0.135	684977	keystroke	p	n/a
342.9385	0.09	685877	keystroke	e	n/a
343.0885	0.09	686177	keystroke	n	n/a
343.2085	0.105	686417	keystroke	s	n/a
343.3435	0.255	686687	keystroke	i	n/a
343.5085	0.15	687017	keystroke	o	n/a
343.5685	0.105	687137	keystroke	n	n/a
344.1535	0.105	688307	keystroke	Key.space	n/a
344.5435	0.06	689087	keystroke	a	n/a
344.8285	0.15	689657	keystroke	s	n/a
345.0835	0.09	690167	keystroke	s	n/a
345.2635	0.12	690527	keystroke	o	n/a
345.428	0.1195	690856	keystroke	c	n/a
345.549	0.1345	691098	keystroke	i	n/a
345.7885	0.09	691577	keystroke	a	n/a
345.8935	0.135	691787	keystroke	t	n/a
346.2835	0.089	692567	keystroke	d	n/a
346.7635	0.104	693527	keystroke	Key.backspace	n/a
346.8825	0.09	693765	keystroke	e	n/a
347.1385	0.104	694277	keystroke	d	n/a
348.248	0.105	696496	keystroke	Key.enter	n/a
348.358	10.3925	696716	prompt	n/a	charlotte lift blue major\n
349.283	0.09	698566	keystroke	c	n/a
349.493	0.12	698986	keystroke	h	n/a
349.7035	0.105	699407	keystroke	a	n/a
349.9585	0.0895	699917	keystroke	r	n/a
350.2285	0.1045	700457	keystroke	l	n/a
350.453	0.105	700906	keystroke	o	n/a
350.6335	0.0445	701267	keystroke	t	n/a
350.7675	0.105	701535	keystroke	t	n/a
350.9925	0.091	701985	keystroke	e	n/a
351.2635	0.075	702527	keystroke	Key.space	n/a
351.728	0.15	703456	keystroke	l	n/a
351.998	0.135	703996	keystroke	i	n/a
352.088	0.135	704176	keystroke	f	n/a
352.418	0.075	704836	keystroke	t	n/a
352.538	0.09	705076	keystroke	Key.space	n/a
352.8685	0.15	705737	keystroke	l	n/a
353.483	0.135	706966	keystroke	u	n/a
353.603	0.106	707206	keystroke	e	n/a
354.458	0.105	708916	keystroke	Key.backspace	n/a
354.758	0.045	709516	keystroke	Key.backspace	n/a
354.938	0.0605	709876	keystroke	Key.backspace	n/a
356.2575	0.075	712515	keystroke	b	n/a
356.3475	0.1205	712695	keystroke	l	n/a
356.6335	0.1195	713267	keystroke	u	n/a
356.798	0.12	713596	keystroke	e	n/a
357.218	0.075	714436	keystroke	Key.space	n/a
357.5485	0.134	715097	keystroke	m	n/a
357.7285	0.06	715457	keystroke	a	n/a
357.8935	0.12	715787	keystroke	j	n/a
358.0425	0.105	716085	keystroke	o	n/a
358.1925	0.121	716385	keystroke	r	n/a
358.6585	0.0895	717317	keystroke	Key.enter	n/a
358.758	8.2115	717516	prompt	n/a	baby wellness develop relate\n
359.7385	0.12	719477	keystroke	b	n/a
359.9935	0.09	719987	keystroke	a	n/a
360.1585	0.09	720317	keystroke	b	n/a
360.5625	0.211	721125	keystroke	y	n/a
360.7285	0.15	721457	keystroke	Key.space	n/a
361.1185	0.135	722237	keystroke	w	n/a
361.2385	0.12	722477	keystroke	e	n/a
361.4335	0.0745	722867	keystroke	l	n/a
361.5835	0.105	723167	keystroke	l	n/a
361.8385	0.12	723677	keystroke	n	n/a
361.9735	0.105	723947	keystroke	e	n/a
362.2735	0.075	724547	keystroke	s	n/a
362.4535	0.075	724907	keystroke	s	n/a
362.7235	0.105	725447	keystroke	Key.space	n/a
363.1885	0.105	726377	keystroke	d	n/a
363.4135	0.09	726827	keystroke	e	n/a
363.7735	0.12	727547	keystroke	v	n/a
364.0585	0.105	728117	keystroke	e	n/a
364.1935	0.12	728387	keystroke	l	n/a
364.4335	0.165	728867	keystroke	o	n/a
364.6435	0.105	729287	keystroke	p	n/a
364.8835	0.09	729767	keystroke	Key.space	n/a
365.2285	0.135	730457	keystroke	r	n/a
365.4085	0.105	730817	keystroke	e	n/a
365.5735	0.135	731147	keystroke	l	n/a
365.7535	0.12	731507	keystroke	a	n/a
365.9035	0.12	731807	keystroke	t	n/a
366.2935	0.09	732587	keystroke	e	n/a
366.8485	0.12	733697	keystroke	Key.enter	n/a
366.9725	10.512	733945	prompt	n/a	oldest policies heating captured\n
367.9435	0.09	735887	keystroke	o	n/a
368.1985	0.12	736397	keystroke	l	n/a
368.3635	0.075	736727	keystroke	d	n/a
368.708	0.1805	737416	keystroke	e	n/a
369.3535	0.105	738707	keystroke	s	n/a
369.6535	0.075	739307	keystroke	t	n/a
369.7885	0.15	739577	keystroke	Key.space	n/a
370.2385	0.09	740477	keystroke	p	n/a
370.4635	0.045	740927	keystroke	o	n/a
370.8535	0.12	741707	keystroke	l	n/a
371.1085	0.12	742217	keystroke	i	n/a
371.3785	0.105	742757	keystroke	c	n/a
371.4685	0.135	742937	keystroke	i	n/a
371.6785	0.105	743357	keystroke	e	n/a
371.9335	0.105	743867	keystroke	s	n/a
372.1435	0.105	744287	keystroke	Key.space	n/a
372.6685	0.135	745337	keystroke	h	n/a
372.7885	0.15	745577	keystroke	e	n/a
372.9235	0.1195	745847	keystroke	a	n/a
373.2235	0.0595	746447	keystroke	t	n/a
373.3285	0.1495	746657	keystroke	i	n/a
373.433	0.15	746866	keystroke	n	n/a
373.583	0.0755	747166	keystroke	g	n/a
373.8535	0.1045	747707	keystroke	Key.space	n/a
374.573	0.045	749146	keystroke	c	n/a
374.768	0.06	749536	keystroke	a	n/a
374.933	0.09	749866	keystroke	p	n/a
375.263	0.105	750526	keystroke	t	n/a
375.443	0.105	750886	keystroke	u	n/a
375.608	0.1205	751216	keystroke	r	n/a
375.773	0.06	751546	keystroke	e	n/a
376.133	0.0905	752266	keystroke	d	n/a
377.3635	0.12	754727	keystroke	Key.enter	n/a
377.4875	14.9525	754975	prompt	n/a	latex trinity prescribed scholarship\n
378.698	0.15	757396	keystroke	l	n/a
378.788	0.09	757576	keystroke	a	n/a
378.968	0.045	757936	keystroke	t	n/a
379.1485	0.0595	758297	keystroke	e	n/a
379.5075	0.046	759015	keystroke	x	n/a
379.7785	0.1045	759557	keystroke	Key.space	n/a
380.0175	0.091	760035	keystroke	t	n/a
380.2585	0.0895	760517	keystroke	r	n/a
380.423	0.105	760846	keystroke	i	n/a
380.6185	0.09	761237	keystroke	n	n/a
380.7535	0.165	761507	keystroke	i	n/a
380.9935	0.105	761987	keystroke	t	n/a
381.1585	0.12	762317	keystroke	y	n/a
381.7735	0.105	763547	keystroke	Key.space	n/a
382.2085	0.134	764417	keystroke	p	n/a
382.4175	0.0905	764835	keystroke	r	n/a
382.524	0.104	765048	keystroke	e	n/a
384.1135	0.09	768227	keystroke	s	n/a
384.4135	0.105	768827	keystroke	c	n/a
384.7585	0.09	769517	keystroke	r	n/a
384.8785	0.12	769757	keystroke	i	n/a
385.853	0.105	771706	keystroke	b	n/a
386.078	0.105	772156	keystroke	e	n/a
386.393	0.091	772786	keystroke	d	n/a
386.648	0.09	773296	keystroke	Key.space	n/a
387.248	0.12	774496	keystroke	s	n/a
387.563	0.1205	775126	keystroke	c	n/a
387.7135	0.09	775427	keystroke	h	n/a
387.863	0.0905	775726	keystroke	o	n/a
388.133	0.1355	776266	keystroke	l	n/a
388.508	0.135	777016	keystroke	a	n/a
388.658	0.135	777316	keystroke	r	n/a
389.003	0.105	778006	keystroke	s	n/a
389.1535	0.0895	778307	keystroke	h	n/a
389.273	0.075	778546	keystroke	i	n/a
389.7825	0.045	779565	keystroke	p	n/a
392.35	0.0885	784700	keystroke	Key.enter	n/a
392.4435	9.1915	784887	prompt	n/a	nowhere publicity cliff angry\n
393.3685	0.09	786737	keystroke	n	n/a
393.5485	0.15	787097	keystroke	o	n/a
393.7735	0.135	787547	keystroke	w	n/a
393.9985	0.105	787997	keystroke	h	n/a
394.1485	0.135	788297	keystroke	e	n/a
394.2535	0.15	788507	keystroke	r	n/a
394.358	0.1505	788716	keystroke	e	n/a
394.7035	0.105	789407	keystroke	Key.space	n/a
395.1535	0.1795	790307	keystroke	p	n/a
395.3035	0.1345	790607	keystroke	u	n/a
395.618	0.105	791236	keystroke	b	n/a
395.933	0.015	791866	keystroke	l	n/a
396.038	0.075	792076	keystroke	i	n/a
396.2335	0.1045	792467	keystroke	c	n/a
396.323	0.1505	792646	keystroke	i	n/a
396.638	0.12	793276	keystroke	t	n/a
396.803	0.12	793606	keystroke	y	n/a
397.403	0.1055	794806	keystroke	Key.space	n/a
397.793	0.12	795586	keystroke	c	n/a
397.958	0.105	795916	keystroke	l	n/a
398.183	0.135	796366	keystroke	i	n/a
398.408	0.0905	796816	keystroke	f	n/a
398.618	0.0905	797236	keystroke	f	n/a
398.8735	0.09	797747	keystroke	Key.space	n/a
399.1135	0.105	798227	keystroke	a	n/a
399.2635	0.135	798527	keystroke	n	n/a
399.4285	0.075	798857	keystroke	g	n/a
399.698	0.15	799396	keystroke	r	n/a
400.208	0.12	800416	keystroke	y	n/a
401.483	0.15	802966	keystroke	Key.enter	n/a
401.64	10.27	803280	prompt	n/a	essentials flashing priorities advertise\n
402.518	0.06	805036	keystroke	e	n/a
402.773	0.06	805546	keystroke	s	n/a
402.938	0.105	805876	keystroke	s	n/a
403.3885	0.075	806777	keystroke	e	n/a
403.5535	0.12	807107	keystroke	n	n/a
403.734	0.104	807468	keystroke	t	n/a
403.943	0.105	807886	keystroke	i	n/a
404.093	0.105	808186	keystroke	a	n/a
404.243	0.12	808486	keystroke	l	n/a
404.4385	0.09	808877	keystroke	s	n/a
404.6785	0.105	809357	keystroke	Key.space	n/a
405.1735	0.075	810347	keystroke	f	n/a
405.3835	0.15	810767	keystroke	l	n/a
405.5785	0.09	811157	keystroke	a	n/a
405.8185	0.12	811637	keystroke	s	n/a
405.9535	0.105	811907	keystroke	h	n/a
406.0435	0.18	812087	keystroke	i	n/a
406.2085	0.165	812417	keystroke	n	n/a
406.3885	0.06	812777	keystroke	g	n/a
407.0335	0.105	814067	keystroke	Key.space	n/a
407.3035	0.1345	814607	keystroke	p	n/a
407.528	0.105	815056	keystroke	r	n/a
407.693	0.12	815386	keystroke	i	n/a
407.858	0.135	815716	keystroke	o	n/a
408.0235	0.0745	816047	keystroke	r	n/a
408.143	0.12	816286	keystroke	i	n/a
408.293	0.075	816586	keystroke	t	n/a
408.398	0.1055	816796	keystroke	i	n/a
408.518	0.1355	817036	keystroke	e	n/a
408.6985	0.1345	817397	keystroke	s	n/a
409.133	0.09	818266	keystroke	Key.space	n/a
409.5235	0.09	819047	keystroke	a	n/a
409.7935	0.1195	819587	keystroke	d	n/a
410.1235	0.0895	820247	keystroke	v	n/a
410.498	0.1355	820996	keystroke	e	n/a
410.588	0.105	821176	keystroke	r	n/a
410.858	0.075	821716	keystroke	t	n/a
410.978	0.09	821956	keystroke	i	n/a
411.143	0.105	822286	keystroke	s	n/a
411.368	0.12	822736	keystroke	e	n/a
411.788	0.1205	823576	keystroke	Key.enter	n/a
411.9155	12.8345	823831	prompt	n/a	paying subsidiary gonna letter\n
412.868	0.1355	825736	keystroke	p	n/a
413.049	0.104	826098	keystroke	a	n/a
413.168	0.105	826336	keystroke	y	n/a
413.393	0.1355	826786	keystroke	i	n/a
413.4985	0.135	826997	keystroke	n	n/a
413.6485	0.075	827297	keystroke	g	n/a
413.7985	0.12	827597	keystroke	Key.space	n/a
415.8235	0.1045	831647	keystroke	s	n/a
416.0035	0.1045	832007	keystroke	u	n/a
416.2135	0.075	832427	keystroke	b	n/a
416.4535	0.12	832907	keystroke	s	n/a
416.5885	0.1045	833177	keystroke	i	n/a
416.7985	0.1195	833597	keystroke	d	n/a
418.463	0.135	836926	keystroke	i	n/a
418.763	0.1355	837526	keystroke	a	n/a
418.943	0.105	837886	keystroke	r	n/a
419.2735	0.1045	838547	keystroke	y	n/a
419.498	0.105	838996	keystroke	Key.space	n/a
420.0685	0.09	840137	keystroke	g	n/a
420.234	0.104	840468	keystroke	o	n/a
420.4735	0.0745	840947	keystroke	n	n/a
420.609	0.104	841218	keystroke	n	n/a
420.7735	0.1045	841547	keystroke	a	n/a
420.938	0.0905	841876	keystroke	Key.space	n/a
421.9425	0.15	843885	keystroke	l	n/a
422.1685	0.12	844337	keystroke	a	n/a
422.888	0.1205	845776	keystroke	Key.backspace	n/a
423.053	0.1055	846106	keystroke	e	n/a
423.3225	0.0765	846645	keystroke	t	n/a
423.5035	0.09	847007	keystroke	t	n/a
423.728	0.1655	847456	keystroke	e	n/a
423.8335	0.135	847667	keystroke	r	n/a
424.7335	0.015	849467	keystroke	Key.enter	n/a
424.754	10.488	849508	prompt	n/a	bank accessing vermont fault\n
425.6335	0.12	851267	keystroke	b	n/a
425.8585	0.105	851717	keystroke	a	n/a
426.0385	0.09	852077	keystroke	n	n/a
426.2185	0.105	852437	keystroke	k	n/a
426.6385	0.105	853277	keystroke	Key.space	n/a
427.2835	0.09	854567	keystroke	a	n/a
427.5685	0.105	855137	keystroke	c	n/a
427.7335	0.09	855467	keystroke	c	n/a
428.0185	0.09	856037	keystroke	e	n/a
428.1985	0.09	856397	keystroke	s	n/a
428.378	0.09	856756	keystroke	s	n/a
428.5885	0.12	857177	keystroke	i	n/a
428.6935	0.135	857387	keystroke	n	n/a
428.8125	0.091	857625	keystroke	g	n/a
429.0385	0.105	858077	keystroke	Key.space	n/a
430.088	0.075	860176	keystroke	v	n/a
430.433	0.135	860866	keystroke	e	n/a
430.538	0.1355	861076	keystroke	r	n/a
430.943	0.09	861886	keystroke	m	n/a
431.2135	0.15	862427	keystroke	o	n/a
431.5135	0.12	863027	keystroke	n	n/a
431.7535	0.105	863507	keystroke	t	n/a
431.9485	0.105	863897	keystroke	Key.space	n/a
432.4435	0.075	864887	keystroke	f	n/a
432.7285	0.105	865457	keystroke	a	n/a
432.9235	0.09	865847	keystroke	u	n/a
433.2085	0.1795	866417	keystroke	l	n/a
433.403	0.06	866806	keystroke	t	n/a
435.0985	0.135	870197	keystroke	Key.enter	n/a
435.246	7.6535	870492	prompt	n/a	julia roots reason soft\n
436.134	0.09	872268	keystroke	j	n/a
436.403	0.105	872806	keystroke	u	n/a
436.793	0.1355	873586	keystroke	l	n/a
437.048	0.1355	874096	keystroke	i	n/a
437.288	0.1355	874576	keystroke	a	n/a
437.483	0.1205	874966	keystroke	Key.space	n/a
437.993	0.12	875986	keystroke	r	n/a
438.188	0.045	876376	keystroke	o	n/a
438.338	0.12	876676	keystroke	o	n/a
438.668	0.0755	877336	keystroke	t	n/a
438.938	0.1355	877876	keystroke	s	n/a
439.0885	0.09	878177	keystroke	Key.space	n/a
439.373	0.15	878746	keystroke	r	n/a
439.4935	0.2395	878987	keystroke	e	n/a
439.688	0.1205	879376	keystroke	a	n/a
440.0185	0.09	880037	keystroke	s	n/a
440.1385	0.18	880277	keystroke	o	n/a
440.2135	0.135	880427	keystroke	n	n/a
440.723	0.105	881446	keystroke	Key.space	n/a
441.158	0.12	882316	keystroke	s	n/a
441.293	0.105	882586	keystroke	o	n/a
441.488	0.12	882976	keystroke	f	n/a
441.818	0.06	883636	keystroke	t	n/a
442.7325	0.166	885465	keystroke	Key.enter	n/a
442.903	9.0565	885806	prompt	n/a	balloon oaks feeding recovered\n
443.843	0.15	887686	keystroke	b	n/a
444.068	0.105	888136	keystroke	a	n/a
444.3085	0.0745	888617	keystroke	l	n/a
444.518	0.1055	889036	keystroke	l	n/a
444.833	0.0605	889666	keystroke	o	n/a
444.9685	0.12	889937	keystroke	o	n/a
445.2235	0.09	890447	keystroke	n	n/a
445.5385	0.09	891077	keystroke	Key.space	n/a
446.0935	0.135	892187	keystroke	o	n/a
446.3335	0.09	892667	keystroke	a	n/a
446.5285	0.105	893057	keystroke	k	n/a
446.7685	0.0895	893537	keystroke	s	n/a
447.3385	0.105	894677	keystroke	Key.space	n/a
447.6835	0.15	895367	keystroke	f	n/a
448.0135	0.015	896027	keystroke	e	n/a
448.1035	0.09	896207	keystroke	e	n/a
448.3585	0.105	896717	keystroke	d	n/a
448.4635	0.1195	896927	keystroke	i	n/a
448.538	0.1505	897076	keystroke	n	n/a
448.6735	0.105	897347	keystroke	g	n/a
449.0035	0.12	898007	keystroke	Key.space	n/a
449.4835	0.15	898967	keystroke	r	n/a
449.5885	0.12	899177	keystroke	e	n/a
449.9485	0.1195	899897	keystroke	c	n/a
450.0985	0.1495	900197	keystroke	o	n/a
450.353	0.135	900706	keystroke	v	n/a
450.7135	0.18	901427	keystroke	e	n/a
450.8485	0.165	901697	keystroke	r	n/a
450.9985	0.105	901997	keystroke	e	n/a
451.3585	0.105	902717	keystroke	d	n/a
451.8235	0.135	903647	keystroke	Key.enter	n/a
451.9625	8.577	903925	prompt	n/a	congress judy blood start\n
452.9485	0.105	905897	keystroke	c	n/a
453.1285	0.165	906257	keystroke	o	n/a
453.2635	0.18	906527	keystroke	n	n/a
453.4885	0.15	906977	keystroke	g	n/a
453.7885	0.09	907577	keystroke	r	n/a
453.8935	0.105	907787	keystroke	e	n/a
454.1335	0.075	908267	keystroke	s	n/a
454.2985	0.09	908597	keystroke	s	n/a
454.5085	0.09	909017	keystroke	Key.space	n/a
454.7935	0.105	909587	keystroke	j	n/a
455.0635	0.135	910127	keystroke	u	n/a
455.3335	0.135	910667	keystroke	d	n/a
455.5135	0.1495	911027	keystroke	y	n/a
455.618	0.15	911236	keystroke	Key.space	n/a
455.948	0.135	911896	keystroke	b	n/a
456.2035	0.1195	912407	keystroke	l	n/a
456.458	0.105	912916	keystroke	o	n/a
457.2235	0.105	914447	keystroke	o	n/a
457.4635	0.135	914927	keystroke	d	n/a
457.6885	0.105	915377	keystroke	Key.space	n/a
458.5135	0.105	917027	keystroke	s	n/a
458.8735	0.12	917747	keystroke	t	n/a
459.0235	0.165	918047	keystroke	a	n/a
459.4735	0.12	918947	keystroke	r	n/a
459.849	0.1045	919698	keystroke	t	n/a
460.3885	0.15	920777	keystroke	Key.enter	n/a
460.5455	8.289	921091	prompt	n/a	but paint websites beneficial\n
461.3335	0.135	922667	keystroke	b	n/a
461.5285	0.135	923057	keystroke	u	n/a
461.7685	0.09	923537	keystroke	t	n/a
461.8735	0.105	923747	keystroke	Key.space	n/a
462.0835	0.12	924167	keystroke	p	n/a
462.2185	0.135	924437	keystroke	a	n/a
462.3535	0.12	924707	keystroke	i	n/a
462.4435	0.15	924887	keystroke	n	n/a
462.6985	0.12	925397	keystroke	t	n/a
462.8935	0.12	925787	keystroke	Key.space	n/a
463.4485	0.09	926897	keystroke	w	n/a
463.5535	0.135	927107	keystroke	e	n/a
463.8835	0.09	927767	keystroke	b	n/a
464.1535	0.09	928307	keystroke	s	n/a
464.2735	0.135	928547	keystroke	i	n/a
464.6785	0.105	929357	keystroke	t	n/a
464.8435	0.1195	929687	keystroke	e	n/a
465.008	0.15	930016	keystroke	s	n/a
465.218	0.075	930436	keystroke	Key.space	n/a
465.878	0.105	931756	keystroke	b	n/a
466.148	0.09	932296	keystroke	e	n/a
466.313	0.12	932626	keystroke	n	n/a
466.418	0.09	932836	keystroke	e	n/a
466.658	0.09	933316	keystroke	f	n/a
466.763	0.15	933526	keystroke	i	n/a
467.093	0.12	934186	keystroke	c	n/a
467.2285	0.1195	934457	keystroke	i	n/a
467.453	0.105	934906	keystroke	a	n/a
467.588	0.12	935176	keystroke	l	n/a
468.713	0.12	937426	keystroke	Key.enter	n/a
468.8375	11.3525	937675	prompt	n/a	ebook contrast process accurately\n
469.7035	0.09	939407	keystroke	e	n/a
470.4985	0.105	940997	keystroke	b	n/a
470.7235	0.09	941447	keystroke	o	n/a
470.8735	0.12	941747	keystroke	o	n/a
471.1735	0.105	942347	keystroke	k	n/a
471.4435	0.12	942887	keystroke	Key.space	n/a
472.1635	0.12	944327	keystroke	c	n/a
472.2685	0.105	944537	keystroke	o	n/a
472.3435	0.195	944687	keystroke	n	n/a
472.5535	0.1345	945107	keystroke	t	n/a
472.823	0.15	945646	keystroke	r	n/a
472.943	0.09	945886	keystroke	a	n/a
473.183	0.12	946366	keystroke	s	n/a
473.723	0.06	947446	keystroke	Key.space	n/a
474.458	0.135	948916	keystroke	Key.backspace	n/a
474.6535	0.1045	949307	keystroke	t	n/a
474.938	0.0905	949876	keystroke	Key.space	n/a
475.0875	0.1355	950175	keystroke	p	n/a
475.2375	0.0905	950475	keystroke	r	n/a
475.358	0.121	950716	keystroke	o	n/a
475.688	0.06	951376	keystroke	c	n/a
475.928	0.135	951856	keystroke	e	n/a
476.138	0.09	952276	keystroke	s	n/a
476.333	0.075	952666	keystroke	s	n/a
476.543	0.105	953086	keystroke	Key.space	n/a
477.1735	0.0605	954347	keystroke	a	n/a
477.5185	0.0595	955037	keystroke	c	n/a
477.6685	0.12	955337	keystroke	c	n/a
477.8185	0.135	955637	keystroke	u	n/a
478.0885	0.12	956177	keystroke	r	n/a
478.2535	0.12	956507	keystroke	a	n/a
478.4335	0.12	956867	keystroke	t	n/a
478.943	0.12	957886	keystroke	e	n/a
479.138	0.105	958276	keystroke	l	n/a
479.483	0.12	958966	keystroke	y	n/a
480.0535	0.1345	960107	keystroke	Key.enter	n/a
480.1935	9.6865	960387	prompt	n/a	innovation applies mirrors merger\n
481.1485	0.1345	962297	keystroke	i	n/a
481.418	0.0905	962836	keystroke	n	n/a
481.5685	0.12	963137	keystroke	n	n/a
481.7035	0.164	963407	keystroke	o	n/a
481.9585	0.105	963917	keystroke	v	n/a
482.244	0.1195	964488	keystroke	a	n/a
482.408	0.075	964816	keystroke	t	n/a
482.498	0.195	964996	keystroke	i	n/a
482.603	0.1205	965206	keystroke	o	n/a
482.633	0.12	965266	keystroke	n	n/a
483.0235	0.105	966047	keystroke	Key.space	n/a
483.263	0.105	966526	keystroke	a	n/a
483.383	0.075	966766	keystroke	p	n/a
483.533	0.105	967066	keystroke	p	n/a
483.818	0.135	967636	keystroke	l	n/a
484.043	0.105	968086	keystroke	i	n/a
484.133	0.1355	968266	keystroke	e	n/a
484.2985	0.15	968597	keystroke	s	n/a
484.4935	0.075	968987	keystroke	Key.space	n/a
485.0935	0.089	970187	keystroke	m	n/a
485.3335	0.104	970667	keystroke	i	n/a
485.4835	0.0895	970967	keystroke	r	n/a
485.633	0.105	971266	keystroke	r	n/a
485.933	0.135	971866	keystroke	o	n/a
486.158	0.075	972316	keystroke	r	n/a
486.413	0.0905	972826	keystroke	s	n/a
486.5485	0.0895	973097	keystroke	Key.space	n/a
487.0285	0.135	974057	keystroke	m	n/a
487.1785	0.165	974357	keystroke	e	n/a
487.6285	0.105	975257	keystroke	r	n/a
487.8985	0.12	975797	keystroke	g	n/a
488.0935	0.165	976187	keystroke	e	n/a
488.2125	0.166	976425	keystroke	r	n/a
489.8335	0.0445	979667	keystroke	Key.enter	n/a
489.8825	7.5125	979765	prompt	n/a	causes species ultimate loop\n
490.6435	0.0595	981287	keystroke	c	n/a
490.8985	0.0895	981797	keystroke	a	n/a
491.048	0.105	982096	keystroke	u	n/a
491.1685	0.1345	982337	keystroke	s	n/a
491.334	0.149	982668	keystroke	e	n/a
491.543	0.135	983086	keystroke	s	n/a
491.813	0.09	983626	keystroke	Key.space	n/a
492.2185	0.1195	984437	keystroke	s	n/a
492.473	0.105	984946	keystroke	p	n/a
492.579	0.074	985158	keystroke	e	n/a
492.878	0.106	985756	keystroke	c	n/a
492.999	0.1035	985998	keystroke	i	n/a
493.148	0.18	986296	keystroke	e	n/a
493.3125	0.12	986625	keystroke	s	n/a
493.508	0.0895	987016	keystroke	Key.space	n/a
493.898	0.09	987796	keystroke	u	n/a
494.183	0.15	988366	keystroke	l	n/a
494.348	0.0455	988696	keystroke	t	n/a
494.468	0.1055	988936	keystroke	i	n/a
494.6635	0.12	989327	keystroke	m	n/a
494.7985	0.15	989597	keystroke	a	n/a
495.0385	0.03	990077	keystroke	t	n/a
495.0835	0.09	990167	keystroke	e	n/a
495.9085	0.12	991817	keystroke	Key.space	n/a
496.2835	0.1045	992567	keystroke	l	n/a
496.568	0.045	993136	keystroke	o	n/a
496.688	0.12	993376	keystroke	o	n/a
496.868	0.105	993736	keystroke	p	n/a
497.288	0.105	994576	keystroke	Key.enter	n/a
497.4005	10.2245	994801	prompt	n/a	autumn purposes insert overhead\n
498.113	0.12	996226	keystroke	a	n/a
498.473	0.1055	996946	keystroke	u	n/a
498.833	0.105	997666	keystroke	t	n/a
499.043	0.09	998086	keystroke	u	n/a
499.313	0.12	998626	keystroke	m	n/a
499.554	0.0745	999108	keystroke	n	n/a
499.8835	0.105	999767	keystroke	Key.space	n/a
500.2585	0.135	1000517	keystroke	p	n/a
500.4235	0.12	1000847	keystroke	u	n/a
500.588	0.12	1001176	keystroke	r	n/a
500.7685	0.075	1001537	keystroke	p	n/a
500.963	0.12	1001926	keystroke	o	n/a
501.128	0.135	1002256	keystroke	s	n/a
501.233	0.1655	1002466	keystroke	e	n/a
501.413	0.12	1002826	keystroke	s	n/a
501.7585	0.105	1003517	keystroke	Key.space	n/a
502.2385	0.15	1004477	keystroke	i	n/a
502.3585	0.165	1004717	keystroke	n	n/a
502.4635	0.12	1004927	keystroke	s	n/a
502.7035	0.15	1005407	keystroke	e	n/a
503.063	0.15	1006126	keystroke	r	n/a
503.333	0.121	1006666	keystroke	t	n/a
503.603	0.0755	1007206	keystroke	Key.space	n/a
503.918	0.12	1007836	keystroke	o	n/a
504.158	0.0905	1008316	keystroke	v	n/a
504.473	0.1355	1008946	keystroke	e	n/a
504.548	0.1505	1009096	keystroke	r	n/a
504.8335	0.075	1009667	keystroke	h	n/a
504.9535	0.165	1009907	keystroke	e	n/a
505.103	0.1505	1010206	keystroke	a	n/a
505.163	0.1655	1010326	keystroke	r	n/a
506.0335	0.105	1012067	keystroke	Key.backspace	n/a
506.1835	0.09	1012367	keystroke	d	n/a
507.5035	0.12	1015007	keystroke	Key.enter	n/a
507.628	10.4665	1015256	prompt	n/a	fabric convergence denial rachel\n
508.5535	0.1045	1017107	keystroke	f	n/a
509.0935	0.135	1018187	keystroke	a	n/a
509.3785	0.09	1018757	keystroke	b	n/a
509.813	0.105	1019626	keystroke	r	n/a
509.978	0.105	1019956	keystroke	i	n/a
510.2485	0.1195	1020497	keystroke	c	n/a
510.6685	0.089	1021337	keystroke	Key.space	n/a
511.1485	0.12	1022297	keystroke	c	n/a
511.2535	0.134	1022507	keystroke	o	n/a
511.3735	0.134	1022747	keystroke	n	n/a
511.8835	0.149	1023767	keystroke	v	n/a
512.6035	0.15	1025207	keystroke	e	n/a
512.7085	0.135	1025417	keystroke	r	n/a
513.0235	0.12	1026047	keystroke	g	n/a
513.3385	0.015	1026677	keystroke	e	n/a
513.3985	0.09	1026797	keystroke	n	n/a
513.6685	0.105	1027337	keystroke	c	n/a
514.013	0.12	1028026	keystroke	e	n/a
514.193	0.075	1028386	keystroke	Key.space	n/a
514.4185	0.09	1028837	keystroke	d	n/a
514.5385	0.075	1029077	keystroke	i	n/a
515.033	0.09	1030066	keystroke	Key.backspace	n/a
515.1535	0.12	1030307	keystroke	e	n/a
515.3335	0.1055	1030667	keystroke	n	n/a
515.4985	0.1195	1030997	keystroke	i	n/a
515.6325	0.1065	1031265	keystroke	a	n/a
515.8135	0.09	1031627	keystroke	l	n/a
516.083	0.0905	1032166	keystroke	Key.space	n/a
516.5485	0.18	1033097	keystroke	r	n/a
516.6835	0.135	1033367	keystroke	a	n/a
517.0285	0.09	1034057	keystroke	c	n/a
517.1785	0.09	1034357	keystroke	h	n/a
517.3585	0.09	1034717	keystroke	e	n/a
517.5535	0.12	1035107	keystroke	l	n/a
517.9735	0.12	1035947	keystroke	Key.enter	n/a
518.098	9.147	1036196	prompt	n/a	additions gave attending listing\n
518.7685	0.1045	1037537	keystroke	a	n/a
519.068	0.105	1038136	keystroke	d	n/a
519.2785	0.09	1038557	keystroke	d	n/a
519.458	0.1805	1038916	keystroke	i	n/a
519.6685	0.105	1039337	keystroke	t	n/a
519.7585	0.195	1039517	keystroke	i	n/a
519.8485	0.15	1039697	keystroke	o	n/a
519.9235	0.105	1039847	keystroke	n	n/a
520.0585	0.12	1040117	keystroke	s	n/a
520.5085	0.105	1041017	keystroke	Key.space	n/a
520.8685	0.12	1041737	keystroke	g	n/a
521.0635	0.12	1042127	keystroke	a	n/a
521.3785	0.135	1042757	keystroke	v	n/a
521.5585	0.135	1043117	keystroke	e	n/a
521.8125	0.091	1043625	keystroke	Key.space	n/a
522.2935	0.075	1044587	keystroke	a	n/a
522.5485	0.06	1045097	keystroke	t	n/a
522.7135	0.09	1045427	keystroke	t	n/a
522.8485	0.105	1045697	keystroke	e	n/a
523.0285	0.105	1046057	keystroke	n	n/a
523.1485	0.105	1046297	keystroke	d	n/a
523.2685	0.18	1046537	keystroke	i	n/a
523.3885	0.105	1046777	keystroke	n	n/a
523.5235	0.105	1047047	keystroke	g	n/a
523.763	0.0605	1047526	keystroke	Key.space	n/a
524.2435	0.075	1048487	keystroke	o	n/a
524.9785	0.0445	1049957	keystroke	Key.backspace	n/a
525.263	0.075	1050526	keystroke	l	n/a
525.578	0.12	1051156	keystroke	i	n/a
525.713	0.09	1051426	keystroke	s	n/a
525.998	0.135	1051996	keystroke	t	n/a
526.1635	0.1345	1052327	keystroke	i	n/a
526.253	0.1355	1052506	keystroke	n	n/a
526.403	0.09	1052806	keystroke	g	n/a
527.123	0.12	1054246	keystroke	Key.enter	n/a
527.2475	9.927	1054495	prompt	n/a	screen specialists disclaimer rivers\n
528.0685	0.09	1056137	keystroke	s	n/a
528.3235	0.12	1056647	keystroke	c	n/a
528.6685	0.15	1057337	keystroke	r	n/a
528.8335	0.09	1057667	keystroke	e	n/a
529.0285	0.105	1058057	keystroke	e	n/a
529.2535	0.09	1058507	keystroke	n	n/a
529.5385	0.06	1059077	keystroke	Key.space	n/a
529.7335	0.105	1059467	keystroke	s	n/a
529.9735	0.12	1059947	keystroke	p	n/a
530.0785	0.06	1060157	keystroke	e	n/a
530.3785	0.1195	1060757	keystroke	c	n/a
530.513	0.0905	1061026	keystroke	i	n/a
530.783	0.0905	1061566	keystroke	a	n/a
530.948	0.1055	1061896	keystroke	l	n/a
531.173	0.105	1062346	keystroke	i	n/a
531.3235	0.0895	1062647	keystroke	s	n/a
531.6535	0.0745	1063307	keystroke	t	n/a
531.9235	0.09	1063847	keystroke	s	n/a
532.2535	0.075	1064507	keystroke	Key.space	n/a
532.688	0.09	1065376	keystroke	d	n/a
532.823	0.1055	1065646	keystroke	i	n/a
532.943	0.105	1065886	keystroke	s	n/a
533.228	0.09	1066456	keystroke	c	n/a
533.408	0.1655	1066816	keystroke	l	n/a
533.618	0.075	1067236	keystroke	a	n/a
533.768	0.105	1067536	keystroke	i	n/a
533.993	0.105	1067986	keystroke	m	n/a
534.1285	0.1195	1068257	keystroke	e	n/a
534.2035	0.165	1068407	keystroke	r	n/a
534.4585	0.0895	1068917	keystroke	Key.space	n/a
534.938	0.12	1069876	keystroke	r	n/a
535.073	0.12	1070146	keystroke	i	n/a
535.328	0.105	1070656	keystroke	v	n/a
535.6435	0.1195	1071287	keystroke	e	n/a
535.7035	0.1495	1071407	keystroke	r	n/a
536.003	0.12	1072006	keystroke	s	n/a
537.0535	0.12	1074107	keystroke	Key.enter	n/a
537.177	10.0775	1074354	prompt	n/a	employ cook ready bird\n
537.9835	0.09	1075967	keystroke	e	n/a
538.2085	0.105	1076417	keystroke	m	n/a
538.5235	0.09	1077047	keystroke	p	n/a
538.8085	0.12	1077617	keystroke	l	n/a
539.078	0.1505	1078156	keystroke	o	n/a
539.3335	0.135	1078667	keystroke	y	n/a
539.6485	0.075	1079297	keystroke	Key.space	n/a
539.9785	0.12	1079957	keystroke	c	n/a
540.1135	0.06	1080227	keystroke	o	n/a
540.2635	0.105	1080527	keystroke	o	n/a
540.5185	0.12	1081037	keystroke	k	n/a
540.7885	0.075	1081577	keystroke	Key.space	n/a
541.1485	0.165	1082297	keystroke	r	n/a
541.3435	0.1345	1082687	keystroke	e	n/a
541.5985	0.0595	1083197	keystroke	a	n/a
541.838	0.12	1083676	keystroke	d	n/a
542.048	0.18	1084096	keystroke	y	n/a
542.138	0.165	1084276	keystroke	Key.space	n/a
542.528	0.15	1085056	keystroke	v	n/a
542.708	0.18	1085416	keystroke	i	n/a
543.3225	0.06	1086645	keystroke	Key.backspace	n/a
543.503	0.1045	1087006	keystroke	Key.backspace	n/a
544.1185	0.1195	1088237	keystroke	b	n/a
544.3435	0.164	1088687	keystroke	i	n/a
544.5235	0.0745	1089047	keystroke	i	n/a
544.5385	0.135	1089077	keystroke	r	n/a
544.928	0.09	1089856	keystroke	d	n/a
545.708	0.0605	1091416	keystroke	Key.backspace	n/a
545.8885	0.0445	1091777	keystroke	Key.backspace	n/a
546.008	0.075	1092016	keystroke	Key.backspace	n/a
546.2635	0.105	1092527	keystroke	r	n/a
546.5485	0.1195	1093097	keystroke	d	n/a
547.118	0.135	1094236	keystroke	Key.enter	n/a
547.257	10.6025	1094514	prompt	n/a	surely cinema chinese tapes\n
548.1235	0.105	1096247	keystroke	s	n/a
548.3035	0.119	1096607	keystroke	u	n/a
548.4535	0.135	1096907	keystroke	r	n/a
548.5585	0.135	1097117	keystroke	e	n/a
548.7235	0.135	1097447	keystroke	l	n/a
549.0535	0.15	1098107	keystroke	y	n/a
549.1585	0.15	1098317	keystroke	Key.space	n/a
549.6235	0.105	1099247	keystroke	c	n/a
549.7435	0.18	1099487	keystroke	i	n/a
549.8935	0.135	1099787	keystroke	n	n/a
550.0435	0.1045	1100087	keystroke	e	n/a
550.5535	0.09	1101107	keystroke	m	n/a
550.7185	0.105	1101437	keystroke	a	n/a
551.0035	0.075	1102007	keystroke	Key.space	n/a
551.7535	0.06	1103507	keystroke	c	n/a
551.8885	0.15	1103777	keystroke	h	n/a
552.0235	0.105	1104047	keystroke	i	n/a
552.2185	0.12	1104437	keystroke	n	n/a
552.2935	0.105	1104587	keystroke	e	n/a
552.533	0.12	1105066	keystroke	s	n/a
552.698	0.12	1105396	keystroke	e	n/a
553.388	0.1055	1106776	keystroke	Key.space	n/a
553.8385	0.1495	1107677	keystroke	t	n/a
554.048	0.135	1108096	keystroke	a	n/a
555.9235	0.165	1111847	keystroke	p	n/a
556.1035	0.09	1112207	keystroke	e	n/a
556.3135	0.12	1112627	keystroke	s	n/a
557.6935	0.165	1115387	keystroke	Key.enter	n/a
557.865	21.13	1115730	prompt	n/a	logging cattle gone legislative\n
558.6385	0.12	1117277	keystroke	l	n/a
558.8635	0.105	1117727	keystroke	o	n/a
559.223	0.06	1118446	keystroke	g	n/a
559.673	0.105	1119346	keystroke	g	n/a
559.7935	0.2095	1119587	keystroke	i	n/a
559.8985	0.12	1119797	keystroke	n	n/a
560.078	0.105	1120156	keystroke	g	n/a
560.2885	0.0745	1120577	keystroke	Key.space	n/a
560.9035	0.104	1121807	keystroke	c	n/a
561.1885	0.075	1122377	keystroke	a	n/a
561.4435	0.09	1122887	keystroke	t	n/a
561.6385	0.075	1123277	keystroke	t	n/a
561.908	0.135	1123816	keystroke	l	n/a
561.998	0.105	1123996	keystroke	e	n/a
567.281	0.0725	1134562	keystroke	Key.space	n/a
567.4285	0.105	1134857	keystroke	g	n/a
567.5635	0.165	1135127	keystroke	o	n/a
567.6835	0.15	1135367	keystroke	n	n/a
567.7735	0.12	1135547	keystroke	e	n/a
568.2235	0.105	1136447	keystroke	Key.space	n/a
568.5985	0.195	1137197	keystroke	l	n/a
568.6885	0.12	1137377	keystroke	e	n/a
568.9285	0.09	1137857	keystroke	g	n/a
569.0785	0.12	1138157	keystroke	i	n/a
569.2285	0.105	1138457	keystroke	s	n/a
569.9485	0.2255	1139897	keystroke	l	n/a
570.1135	0.15	1140227	keystroke	a	n/a
570.2785	0.105	1140557	keystroke	t	n/a
570.4735	0.12	1140947	keystroke	i	n/a
570.653	0.075	1141306	keystroke	i	n/a
570.713	0.12	1141426	keystroke	v	n/a
570.9385	0.12	1141877	keystroke	e	n/a
575.41	0.043	1150820	keystroke	Key.backspace	n/a
575.633	0.0905	1151266	keystroke	Key.backspace	n/a
575.8435	0.0895	1151687	keystroke	Key.backspace	n/a
576.353	0.0905	1152706	keystroke	v	n/a
576.624	0.12	1153248	keystroke	e	n/a
578.9205	0.073	1157841	keystroke	Key.enter	n/a
578.9985	16.587	1157997	prompt	n/a	luther protecting detroit displays\n
579.878	0.151	1159756	keystroke	l	n/a
580.1635	0.12	1160327	keystroke	u	n/a
580.344	0.105	1160688	keystroke	t	n/a
580.434	0.105	1160868	keystroke	h	n/a
580.5535	0.1655	1161107	keystroke	e	n/a
580.659	0.15	1161318	keystroke	r	n/a
581.094	0.0895	1162188	keystroke	Key.space	n/a
581.4835	0.135	1162967	keystroke	p	n/a
581.649	0.12	1163298	keystroke	r	n/a
581.7535	0.105	1163507	keystroke	o	n/a
582.1585	0.105	1164317	keystroke	t	n/a
582.3685	0.06	1164737	keystroke	e	n/a
582.669	0.0295	1165338	keystroke	c	n/a
583.0285	0.0905	1166057	keystroke	t	n/a
583.1635	0.195	1166327	keystroke	i	n/a
583.2835	0.135	1166567	keystroke	n	n/a
583.4035	0.075	1166807	keystroke	g	n/a
584.0785	0.09	1168157	keystroke	Key.space	n/a
584.3335	0.105	1168667	keystroke	d	n/a
584.5585	0.09	1169117	keystroke	e	n/a
584.799	0.0895	1169598	keystroke	t	n/a
585.009	0.0895	1170018	keystroke	r	n/a
585.1585	0.1655	1170317	keystroke	o	n/a
585.309	0.209	1170618	keystroke	i	n/a
585.578	0.091	1171156	keystroke	n	n/a
586.193	0.105	1172386	keystroke	Key.backspace	n/a
586.283	0.091	1172566	keystroke	t	n/a
587.5285	0.12	1175057	keystroke	Key.space	n/a
590.1255	0.013	1180251	keystroke	d	n/a
590.6935	0.15	1181387	keystroke	i	n/a
590.8585	0.09	1181717	keystroke	s	n/a
590.9485	0.09	1181897	keystroke	p	n/a
591.2185	0.135	1182437	keystroke	l	n/a
591.3385	0.09	1182677	keystroke	a	n/a
591.5485	0.15	1183097	keystroke	y	n/a
591.6835	0.135	1183367	keystroke	s	n/a
595.4965	0.087	1190993	keystroke	Key.enter	n/a
595.589	12.926	1191178	prompt	n/a	boxed blog suddenly printable\n
596.5135	0.1205	1193027	keystroke	b	n/a
596.709	0.105	1193418	keystroke	o	n/a
597.039	0.105	1194078	keystroke	x	n/a
597.354	0.09	1194708	keystroke	e	n/a
598.089	0.12	1196178	keystroke	d	n/a
598.299	0.105	1196598	keystroke	Key.space	n/a
598.6885	0.1195	1197377	keystroke	b	n/a
598.9435	0.105	1197887	keystroke	l	n/a
599.153	0.1205	1198306	keystroke	o	n/a
599.333	0.12	1198666	keystroke	g	n/a
600.368	0.121	1200736	keystroke	Key.space	n/a
600.5485	0.09	1201097	keystroke	s	n/a
601.704	0.105	1203408	keystroke	u	n/a
601.824	0.09	1203648	keystroke	d	n/a
602.034	0.0895	1204068	keystroke	d	n/a
602.3335	0.1055	1204667	keystroke	e	n/a
602.5585	0.09	1205117	keystroke	n	n/a
602.7235	0.165	1205447	keystroke	l	n/a
603.0985	0.1655	1206197	keystroke	y	n/a
603.2335	0.105	1206467	keystroke	Key.space	n/a
604.5685	0.135	1209137	keystroke	p	n/a
604.9585	0.12	1209917	keystroke	r	n/a
605.1085	0.15	1210217	keystroke	i	n/a
605.2135	0.165	1210427	keystroke	n	n/a
605.513	0.0905	1211026	keystroke	t	n/a
606.1135	0.135	1212227	keystroke	a	n/a
606.699	0.149	1213398	keystroke	l	n/a
607.239	0.0895	1214478	keystroke	Key.backspace	n/a
607.3135	0.12	1214627	keystroke	b	n/a
607.5535	0.12	1215107	keystroke	l	n/a
607.644	0.0895	1215288	keystroke	e	n/a
608.408	0.105	1216816	keystroke	Key.enter	n/a
608.5185	14.412	1217037	prompt	n/a	howard internationally inns focusing\n
609.399	0.119	1218798	keystroke	h	n/a
609.504	0.179	1219008	keystroke	o	n/a
609.6235	0.2095	1219247	keystroke	w	n/a
609.8185	0.1345	1219637	keystroke	e	n/a
610.464	0.134	1220928	keystroke	Key.backspace	n/a
610.628	0.1655	1221256	keystroke	a	n/a
610.734	0.119	1221468	keystroke	r	n/a
611.0335	0.1045	1222067	keystroke	d	n/a
611.213	0.0755	1222426	keystroke	Key.space	n/a
611.544	0.134	1223088	keystroke	i	n/a
612.7435	0.09	1225487	keystroke	n	n/a
613.628	0.0905	1227256	keystroke	t	n/a
613.793	0.1505	1227586	keystroke	e	n/a
613.8985	0.15	1227797	keystroke	r	n/a
614.0635	0.075	1228127	keystroke	n	n/a
614.2285	0.12	1228457	keystroke	a	n/a
614.4235	0.105	1228847	keystroke	t	n/a
614.6185	0.21	1229237	keystroke	i	n/a
614.7685	0.1945	1229537	keystroke	o	n/a
614.948	0.135	1229896	keystroke	n	n/a
615.534	0.045	1231068	keystroke	a	n/a
615.744	0.075	1231488	keystroke	l	n/a
615.894	0.12	1231788	keystroke	l	n/a
616.254	0.12	1232508	keystroke	y	n/a
616.314	0.149	1232628	keystroke	Key.space	n/a
616.599	0.104	1233198	keystroke	i	n/a
616.764	0.0895	1233528	keystroke	n	n/a
616.9135	0.105	1233827	keystroke	n	n/a
617.0785	0.105	1234157	keystroke	s	n/a
617.484	0.0895	1234968	keystroke	Key.space	n/a
617.799	0.119	1235598	keystroke	f	n/a
617.9485	0.1645	1235897	keystroke	o	n/a
618.219	0.104	1236438	keystroke	c	n/a
618.353	0.121	1236706	keystroke	u	n/a
618.534	0.119	1237068	keystroke	s	n/a
618.668	0.121	1237336	keystroke	i	n/a
618.774	0.134	1237548	keystroke	n	n/a
618.924	0.119	1237848	keystroke	g	n/a
622.8255	0.103	1245651	keystroke	Key.enter	n/a
622.9335	19.6015	1245867	prompt	n/a	partial millions challenging virginia\n
623.9035	0.12	1247807	keystroke	p	n/a
624.233	0.165	1248466	keystroke	a	n/a
624.8035	0.135	1249607	keystroke	r	n/a
625.1185	0.09	1250237	keystroke	t	n/a
625.3135	0.1055	1250627	keystroke	i	n/a
625.4035	0.135	1250807	keystroke	a	n/a
625.5685	0.12	1251137	keystroke	l	n/a
625.9735	0.1205	1251947	keystroke	Key.space	n/a
626.3785	0.09	1252757	keystroke	m	n/a
626.6785	0.1055	1253357	keystroke	i	n/a
627.009	0.075	1254018	keystroke	l	n/a
627.159	0.1195	1254318	keystroke	l	n/a
627.414	0.255	1254828	keystroke	i	n/a
627.549	0.15	1255098	keystroke	o	n/a
627.624	0.165	1255248	keystroke	n	n/a
627.804	0.105	1255608	keystroke	s	n/a
628.314	0.0895	1256628	keystroke	Key.space	n/a
628.7335	0.1355	1257467	keystroke	c	n/a
628.914	0.1045	1257828	keystroke	h	n/a
629.1385	0.105	1258277	keystroke	a	n/a
629.5585	0.075	1259117	keystroke	l	n/a
629.7085	0.135	1259417	keystroke	l	n/a
630.0535	0.21	1260107	keystroke	i	n/a
630.1885	0.15	1260377	keystroke	n	n/a
631.2985	0.1205	1262597	keystroke	Key.backspace	n/a
631.7485	0.12	1263497	keystroke	Key.backspace	n/a
632.019	0.0895	1264038	keystroke	e	n/a
632.1685	0.105	1264337	keystroke	n	n/a
632.4385	0.12	1264877	keystroke	g	n/a
632.769	0.18	1265538	keystroke	i	n/a
632.873	0.181	1265746	keystroke	n	n/a
633.069	0.09	1266138	keystroke	g	n/a
633.549	0.105	1267098	keystroke	Key.space	n/a
634.0735	0.06	1268147	keystroke	v	n/a
634.1485	0.18	1268297	keystroke	i	n/a
634.673	0.09	1269346	keystroke	r	n/a
634.973	0.075	1269946	keystroke	g	n/a
635.108	0.2255	1270216	keystroke	i	n/a
635.303	0.12	1270606	keystroke	n	n/a
635.483	0.12	1270966	keystroke	a	n/a
639.2055	0.013	1278411	keystroke	Key.backspace	n/a
639.4885	0.1345	1278977	keystroke	i	n/a
639.774	0.165	1279548	keystroke	a	n/a
642.4605	0.0735	1284921	keystroke	Key.enter	n/a
642.5385	10.2865	1285077	prompt	n/a	antonio forest emotions morrison\n
643.8235	0.1205	1287647	keystroke	a	n/a
643.9285	0.15	1287857	keystroke	n	n/a
644.2435	0.09	1288487	keystroke	t	n/a
644.3485	0.1795	1288697	keystroke	o	n/a
644.469	0.1345	1288938	keystroke	n	n/a
645.159	0.165	1290318	keystroke	i	n/a
645.279	0.15	1290558	keystroke	o	n/a
645.609	0.105	1291218	keystroke	Key.space	n/a
645.999	0.165	1291998	keystroke	f	n/a
646.209	0.135	1292418	keystroke	o	n/a
646.404	0.15	1292808	keystroke	r	n/a
646.539	0.12	1293078	keystroke	e	n/a
646.749	0.12	1293498	keystroke	s	n/a
647.049	0.135	1294098	keystroke	t	n/a
647.259	0.105	1294518	keystroke	Key.space	n/a
647.544	0.105	1295088	keystroke	e	n/a
647.784	0.075	1295568	keystroke	m	n/a
647.994	0.105	1295988	keystroke	o	n/a
648.129	0.075	1296258	keystroke	t	n/a
648.234	0.195	1296468	keystroke	i	n/a
648.339	0.12	1296678	keystroke	o	n/a
648.399	0.1345	1296798	keystroke	n	n/a
648.5785	0.1355	1297157	keystroke	s	n/a
650.319	0.12	1300638	keystroke	Key.space	n/a
650.633	0.105	1301266	keystroke	m	n/a
650.844	0.1195	1301688	keystroke	o	n/a
651.0235	0.075	1302047	keystroke	r	n/a
651.1885	0.09	1302377	keystroke	r	n/a
651.2935	0.105	1302587	keystroke	i	n/a
651.4435	0.135	1302887	keystroke	s	n/a
651.5635	0.1805	1303127	keystroke	o	n/a
651.7135	0.135	1303427	keystroke	n	n/a
652.704	0.1195	1305408	keystroke	Key.enter	n/a
652.8285	18.417	1305657	prompt	n/a	cannon lost rather microwave\n
656.8605	0.058	1313721	keystroke	c	n/a
657.144	0.09	1314288	keystroke	a	n/a
657.354	0.075	1314708	keystroke	n	n/a
657.504	0.075	1315008	keystroke	n	n/a
657.699	0.195	1315398	keystroke	o	n/a
657.804	0.105	1315608	keystroke	n	n/a
658.239	0.1205	1316478	keystroke	Key.space	n/a
658.5535	0.121	1317107	keystroke	l	n/a
658.794	0.21	1317588	keystroke	o	n/a
659.0345	0.12	1318069	keystroke	s	n/a
659.3185	0.105	1318637	keystroke	t	n/a
659.4545	0.0895	1318909	keystroke	Key.space	n/a
659.7385	0.165	1319477	keystroke	r	n/a
659.8885	0.151	1319777	keystroke	a	n/a
660.0995	0.119	1320199	keystroke	t	n/a
660.2335	0.09	1320467	keystroke	h	n/a
660.3685	0.1505	1320737	keystroke	e	n/a
660.4735	0.1355	1320947	keystroke	r	n/a
661.0435	0.015	1322087	keystroke	Key.space	n/a
661.5695	0.06	1323139	keystroke	m	n/a
661.8085	0.091	1323617	keystroke	i	n/a
662.0635	0.091	1324127	keystroke	c	n/a
662.424	0.09	1324848	keystroke	r	n/a
662.559	0.105	1325118	keystroke	o	n/a
663.294	0.105	1326588	keystroke	w	n/a
663.474	0.135	1326948	keystroke	a	n/a
663.894	0.1345	1327788	keystroke	v	n/a
664.1785	0.105	1328357	keystroke	e	n/a
671.1715	0.0725	1342343	keystroke	Key.enter	n/a
671.249	20.3215	1342498	prompt	n/a	yeah burton advertisements cumulative\n
672.3845	0.1645	1344769	keystroke	y	n/a
672.654	0.15	1345308	keystroke	e	n/a
672.789	0.15	1345578	keystroke	a	n/a
673.014	0.105	1346028	keystroke	h	n/a
673.464	0.12	1346928	keystroke	Key.space	n/a
674.1245	0.0895	1348249	keystroke	v	n/a
674.3195	0.134	1348639	keystroke	u	n/a
675.0085	0.06	1350017	keystroke	Key.backspace	n/a
675.1895	0.075	1350379	keystroke	Key.backspace	n/a
677.592	0.057	1355184	keystroke	b	n/a
677.9635	0.18	1355927	keystroke	u	n/a
678.1745	0.119	1356349	keystroke	r	n/a
678.4295	0.1045	1356859	keystroke	t	n/a
678.549	0.1805	1357098	keystroke	o	n/a
678.699	0.15	1357398	keystroke	n	n/a
680.049	0.12	1360098	keystroke	Key.space	n/a
680.694	0.18	1361388	keystroke	a	n/a
680.979	0.075	1361958	keystroke	d	n/a
681.294	0.09	1362588	keystroke	v	n/a
681.624	0.15	1363248	keystroke	e	n/a
682.2845	0.164	1364569	keystroke	r	n/a
682.6285	0.12	1365257	keystroke	t	n/a
682.8535	0.1355	1365707	keystroke	i	n/a
683.0935	0.091	1366187	keystroke	s	n/a
683.3645	0.089	1366729	keystroke	e	n/a
683.6185	0.106	1367237	keystroke	m	n/a
683.8895	0.105	1367779	keystroke	e	n/a
684.0235	0.106	1368047	keystroke	n	n/a
684.1895	0.105	1368379	keystroke	t	n/a
684.5045	0.12	1369009	keystroke	s	n/a
684.744	0.0895	1369488	keystroke	Key.space	n/a
685.2395	0.12	1370479	keystroke	c	n/a
685.539	0.1195	1371078	keystroke	u	n/a
685.929	0.09	1371858	keystroke	m	n/a
686.259	0.09	1372518	keystroke	u	n/a
686.574	0.12	1373148	keystroke	l	n/a
686.739	0.135	1373478	keystroke	a	n/a
686.919	0.12	1373838	keystroke	t	n/a
687.069	0.135	1374138	keystroke	i	n/a
687.339	0.105	1374678	keystroke	v	n/a
687.5045	0.1195	1375009	keystroke	e	n/a
691.51	0.059	1383020	keystroke	Key.enter	n/a
691.5735	11.967	1383147	prompt	n/a	auckland boring pleasure digit\n
692.739	0.105	1385478	keystroke	a	n/a
692.934	0.12	1385868	keystroke	u	n/a
693.3395	0.1045	1386679	keystroke	c	n/a
693.6545	0.1195	1387309	keystroke	k	n/a
694.2245	0.09	1388449	keystroke	l	n/a
694.3895	0.09	1388779	keystroke	a	n/a
694.4945	0.075	1388989	keystroke	n	n/a
694.6745	0.12	1389349	keystroke	d	n/a
694.9295	0.075	1389859	keystroke	Key.space	n/a
696.099	0.1355	1392198	keystroke	b	n/a
696.324	0.1045	1392648	keystroke	o	n/a
696.519	0.09	1393038	keystroke	r	n/a
696.654	0.12	1393308	keystroke	i	n/a
696.744	0.15	1393488	keystroke	n	n/a
696.864	0.105	1393728	keystroke	g	n/a
697.209	0.075	1394418	keystroke	Key.space	n/a
697.6145	0.119	1395229	keystroke	p	n/a
697.9285	0.151	1395857	keystroke	l	n/a
698.0195	0.164	1396039	keystroke	e	n/a
698.289	0.09	1396578	keystroke	a	n/a
699.234	0.09	1398468	keystroke	s	n/a
699.534	0.09	1399068	keystroke	u	n/a
699.744	0.195	1399488	keystroke	r	n/a
699.909	0.135	1399818	keystroke	e	n/a
700.5395	0.075	1401079	keystroke	Key.space	n/a
701.1095	0.15	1402219	keystroke	d	n/a
701.3495	0.12	1402699	keystroke	i	n/a
701.5445	0.105	1403089	keystroke	g	n/a
701.6945	0.105	1403389	keystroke	i	n/a
701.9195	0.105	1403839	keystroke	t	n/a
703.3895	0.15	1406779	keystroke	Key.enter	n/a
703.5435	25.3925	1407087	prompt	n/a	caribbean treatments incomplete clean\n
708.191	0.0735	1416382	keystroke	c	n/a
708.4595	0.105	1416919	keystroke	a	n/a
708.745	0.1345	1417490	keystroke	r	n/a
708.9995	0.195	1417999	keystroke	i	n/a
709.704	0.1205	1419408	keystroke	b	n/a
709.9295	0.0905	1419859	keystroke	b	n/a
710.1695	0.15	1420339	keystroke	e	n/a
710.2895	0.134	1420579	keystroke	a	n/a
710.5145	0.0895	1421029	keystroke	n	n/a
717.536	0.0735	1435072	keystroke	Key.space	n/a
718.314	0.016	1436628	keystroke	t	n/a
718.5245	0.1505	1437049	keystroke	r	n/a
718.689	0.166	1437378	keystroke	e	n/a
718.855	0.134	1437710	keystroke	a	n/a
719.064	0.1055	1438128	keystroke	t	n/a
719.3195	0.09	1438639	keystroke	m	n/a
719.4245	0.12	1438849	keystroke	e	n/a
719.5445	0.12	1439089	keystroke	n	n/a
719.6795	0.09	1439359	keystroke	t	n/a
719.9195	0.105	1439839	keystroke	s	n/a
724.317	0.0725	1448634	keystroke	Key.space	n/a
724.5695	0.18	1449139	keystroke	i	n/a
724.8395	0.1355	1449679	keystroke	n	n/a
725.0795	0.135	1450159	keystroke	c	n/a
725.2445	0.1055	1450489	keystroke	o	n/a
725.4695	0.105	1450939	keystroke	m	n/a
725.8145	0.105	1451629	keystroke	p	n/a
726.0845	0.135	1452169	keystroke	l	n/a
726.2345	0.09	1452469	keystroke	e	n/a
726.4895	0.135	1452979	keystroke	t	n/a
726.6545	0.12	1453309	keystroke	e	n/a
726.97	0.105	1453940	keystroke	Key.space	n/a
727.615	0.105	1455230	keystroke	c	n/a
727.795	0.15	1455590	keystroke	l	n/a
727.96	0.15	1455920	keystroke	e	n/a
728.065	0.15	1456130	keystroke	a	n/a
728.23	0.075	1456460	keystroke	n	n/a
728.815	0.12	1457630	keystroke	Key.enter	n/a
728.941	8.9655	1457882	prompt	n/a	prayer upset thailand license\n
729.865	0.045	1459730	keystroke	p	n/a
730.105	0.15	1460210	keystroke	r	n/a
730.2245	0.1345	1460449	keystroke	a	n/a
730.405	0.105	1460810	keystroke	y	n/a
730.585	0.165	1461170	keystroke	e	n/a
730.69	0.164	1461380	keystroke	r	n/a
731.125	0.105	1462250	keystroke	Key.space	n/a
731.575	0.1205	1463150	keystroke	u	n/a
731.6795	0.135	1463359	keystroke	p	n/a
731.8445	0.105	1463689	keystroke	s	n/a
732.0395	0.105	1464079	keystroke	e	n/a
732.28	0.1195	1464560	keystroke	t	n/a
732.4445	0.09	1464889	keystroke	Key.space	n/a
732.8345	0.135	1465669	keystroke	t	n/a
732.955	0.1345	1465910	keystroke	h	n/a
733.1345	0.135	1466269	keystroke	a	n/a
733.2845	0.075	1466569	keystroke	i	n/a
733.5095	0.12	1467019	keystroke	l	n/a
733.6445	0.105	1467289	keystroke	a	n/a
733.7645	0.0755	1467529	keystroke	n	n/a
733.9295	0.12	1467859	keystroke	d	n/a
734.0645	0.06	1468129	keystroke	Key.space	n/a
735.594	0.121	1471188	keystroke	l	n/a
735.819	0.12	1471638	keystroke	i	n/a
736.1195	0.09	1472239	keystroke	c	n/a
736.374	0.106	1472748	keystroke	e	n/a
736.6145	0.105	1473229	keystroke	n	n/a
736.8095	0.1655	1473619	keystroke	s	n/a
736.945	0.1495	1473890	keystroke	e	n/a
737.7395	0.165	1475479	keystroke	Key.enter	n/a
737.9095	13.8115	1475819	prompt	n/a	webmaster pointing feels encyclopedia\n
738.88	0.1345	1477760	keystroke	w	n/a
739.135	0.1045	1478270	keystroke	e	n/a
739.45	0.0745	1478900	keystroke	b	n/a
740.3045	0.105	1480609	keystroke	m	n/a
740.7095	0.09	1481419	keystroke	a	n/a
740.9345	0.1205	1481869	keystroke	s	n/a
741.2645	0.106	1482529	keystroke	t	n/a
741.4745	0.165	1482949	keystroke	e	n/a
741.5945	0.135	1483189	keystroke	r	n/a
741.9545	0.105	1483909	keystroke	Key.space	n/a
742.4345	0.1205	1484869	keystroke	p	n/a
742.66	0.12	1485320	keystroke	o	n/a
742.72	0.24	1485440	keystroke	i	n/a
742.975	0.09	1485950	keystroke	n	n/a
743.53	0.24	1487060	keystroke	i	n/a
743.71	0.105	1487420	keystroke	n	n/a
744.189	0.061	1488378	keystroke	Key.backspace	n/a
744.34	0.0745	1488680	keystroke	Key.backspace	n/a
744.565	0.09	1489130	keystroke	t	n/a
744.6395	0.135	1489279	keystroke	i	n/a
744.7295	0.1505	1489459	keystroke	n	n/a
744.9245	0.0455	1489849	keystroke	g	n/a
745.4495	0.1055	1490899	keystroke	Key.space	n/a
745.75	0.12	1491500	keystroke	f	n/a
745.945	0.09	1491890	keystroke	e	n/a
746.125	0.09	1492250	keystroke	e	n/a
746.32	0.15	1492640	keystroke	l	n/a
746.455	0.09	1492910	keystroke	s	n/a
746.635	0.09	1493270	keystroke	Key.space	n/a
746.89	0.09	1493780	keystroke	e	n/a
747.04	0.105	1494080	keystroke	n	n/a
747.6395	0.15	1495279	keystroke	c	n/a
747.864	0.0905	1495728	keystroke	y	n/a
748.84	0.135	1497680	keystroke	c	n/a
749.035	0.135	1498070	keystroke	l	n/a
749.275	0.12	1498550	keystroke	o	n/a
749.44	0.135	1498880	keystroke	p	n/a
749.56	0.0905	1499120	keystroke	e	n/a
749.875	0.105	1499750	keystroke	d	n/a
750.085	0.12	1500170	keystroke	i	n/a
750.34	0.1495	1500680	keystroke	a	n/a
751.5845	0.1355	1503169	keystroke	Key.enter	n/a
751.7245	10.647	1503449	prompt	n/a	scenarios machinery several trying\n
752.845	0.075	1505690	keystroke	s	n/a
753.1595	0.1355	1506319	keystroke	c	n/a
753.52	0.0745	1507040	keystroke	e	n/a
753.7145	0.1355	1507429	keystroke	n	n/a
753.9395	0.135	1507879	keystroke	a	n/a
754.0595	0.12	1508119	keystroke	r	n/a
754.255	0.165	1508510	keystroke	i	n/a
754.375	0.164	1508750	keystroke	o	n/a
754.554	0.135	1509108	keystroke	s	n/a
754.869	0.076	1509738	keystroke	Key.space	n/a
755.59	0.135	1511180	keystroke	m	n/a
755.83	0.074	1511660	keystroke	a	n/a
756.19	0.135	1512380	keystroke	c	n/a
756.37	0.105	1512740	keystroke	h	n/a
756.49	0.18	1512980	keystroke	i	n/a
756.624	0.121	1513248	keystroke	n	n/a
757.345	0.18	1514690	keystroke	e	n/a
757.48	0.15	1514960	keystroke	r	n/a
757.825	0.165	1515650	keystroke	y	n/a
757.96	0.135	1515920	keystroke	Key.space	n/a
758.275	0.105	1516550	keystroke	s	n/a
758.47	0.135	1516940	keystroke	e	n/a
758.86	0.09	1517720	keystroke	v	n/a
759.145	0.134	1518290	keystroke	e	n/a
759.235	0.165	1518470	keystroke	r	n/a
759.415	0.105	1518830	keystroke	a	n/a
759.565	0.149	1519130	keystroke	l	n/a
759.819	0.105	1519638	keystroke	Key.space	n/a
760.1045	0.1645	1520209	keystroke	l	n/a
760.569	0.0905	1521138	keystroke	Key.backspace	n/a
760.705	0.09	1521410	keystroke	t	n/a
760.959	0.09	1521918	keystroke	r	n/a
761.094	0.076	1522188	keystroke	y	n/a
761.3345	0.1045	1522669	keystroke	i	n/a
761.44	0.135	1522880	keystroke	n	n/a
761.59	0.09	1523180	keystroke	g	n/a
762.264	0.106	1524528	keystroke	Key.enter	n/a
762.3755	7.9155	1524751	prompt	n/a	permitted norway face drag\n
763.315	0.195	1526630	keystroke	p	n/a
763.5245	0.0445	1527049	keystroke	e	n/a
763.54	0.12	1527080	keystroke	r	n/a
763.705	0.09	1527410	keystroke	m	n/a
763.929	0.106	1527858	keystroke	i	n/a
764.05	0.089	1528100	keystroke	t	n/a
764.215	0.105	1528430	keystroke	t	n/a
764.395	0.09	1528790	keystroke	e	n/a
764.664	0.091	1529328	keystroke	d	n/a
764.814	0.09	1529628	keystroke	Key.space	n/a
765.174	0.151	1530348	keystroke	n	n/a
765.31	0.135	1530620	keystroke	o	n/a
765.43	0.075	1530860	keystroke	r	n/a
765.67	0.15	1531340	keystroke	w	n/a
765.865	0.12	1531730	keystroke	a	n/a
766.18	0.15	1532360	keystroke	y	n/a
766.344	0.106	1532688	keystroke	Key.space	n/a
766.554	0.015	1533108	keystroke	f	n/a
766.704	0.1655	1533408	keystroke	a	n/a
767.1995	0.1205	1534399	keystroke	c	n/a
767.4995	0.105	1534999	keystroke	e	n/a
767.62	0.1195	1535240	keystroke	Key.space	n/a
767.9495	0.1205	1535899	keystroke	g	n/a
768.2795	0.075	1536559	keystroke	r	n/a
768.789	0.075	1537578	keystroke	Key.backspace	n/a
768.9695	0.105	1537939	keystroke	Key.backspace	n/a
769.18	0.1195	1538360	keystroke	d	n/a
769.4645	0.135	1538929	keystroke	r	n/a
769.5845	0.105	1539169	keystroke	a	n/a
769.8845	0.09	1539769	keystroke	g	n/a
770.199	0.09	1540398	keystroke	Key.enter	n/a
770.294	13.4375	1540588	prompt	n/a	demand travesti argument cruise\n
771.19	0.0895	1542380	keystroke	d	n/a
771.399	0.09	1542798	keystroke	e	n/a
771.5495	0.075	1543099	keystroke	m	n/a
771.6845	0.075	1543369	keystroke	a	n/a
771.7745	0.09	1543549	keystroke	n	n/a
771.955	0.0745	1543910	keystroke	d	n/a
772.0595	0.06	1544119	keystroke	Key.space	n/a
772.8695	0.105	1545739	keystroke	t	n/a
773.1095	0.135	1546219	keystroke	r	n/a
773.2145	0.105	1546429	keystroke	a	n/a
773.5745	0.0755	1547149	keystroke	v	n/a
773.8145	0.0905	1547629	keystroke	e	n/a
773.98	0.1045	1547960	keystroke	s	n/a
774.2645	0.075	1548529	keystroke	t	n/a
774.4	0.12	1548800	keystroke	i	n/a
774.999	0.016	1549998	keystroke	Key.space	n/a
775.18	0.15	1550360	keystroke	a	n/a
775.285	0.12	1550570	keystroke	r	n/a
775.615	0.075	1551230	keystroke	g	n/a
775.78	0.09	1551560	keystroke	u	n/a
776.125	0.105	1552250	keystroke	e	n/a
776.7245	0.075	1553449	keystroke	Key.backspace	n/a
776.9645	0.105	1553929	keystroke	m	n/a
777.0845	0.105	1554169	keystroke	e	n/a
777.2045	0.0905	1554409	keystroke	n	n/a
777.325	0.09	1554650	keystroke	t	n/a
778.48	0.0445	1556960	keystroke	Key.space	n/a
778.7045	0.105	1557409	keystroke	c	n/a
779.0795	0.09	1558159	keystroke	r	n/a
779.695	0.0595	1559390	keystroke	u	n/a
779.8895	0.121	1559779	keystroke	i	n/a
780.0545	0.105	1560109	keystroke	s	n/a
780.2645	0.045	1560529	keystroke	e	n/a
783.7015	0.0285	1567403	keystroke	Key.enter	n/a
783.734	23.6075	1567468	prompt	n/a	movie fraser monitored code\n
795.703	0.057	1591406	keystroke	m	n/a
795.91	0.15	1591820	keystroke	o	n/a
796.21	0.135	1592420	keystroke	v	n/a
796.3155	0.1195	1592631	keystroke	i	n/a
796.885	0.12	1593770	keystroke	e	n/a
797.2	0.105	1594400	keystroke	Key.space	n/a
797.56	0.135	1595120	keystroke	f	n/a
797.8745	0.15	1595749	keystroke	r	n/a
797.9945	0.09	1595989	keystroke	a	n/a
798.2345	0.075	1596469	keystroke	s	n/a
798.4605	0.135	1596921	keystroke	e	n/a
798.5655	0.15	1597131	keystroke	r	n/a
798.8055	0.105	1597611	keystroke	Key.space	n/a
802.9025	0.028	1605805	keystroke	m	n/a
803.1105	0.135	1606221	keystroke	o	n/a
803.3055	0.135	1606611	keystroke	n	n/a
803.4855	0.15	1606971	keystroke	i	n/a
803.7855	0.09	1607571	keystroke	t	n/a
803.9205	0.1495	1607841	keystroke	o	n/a
804.085	0.09	1608170	keystroke	r	n/a
804.2955	0.0745	1608591	keystroke	e	n/a
804.5655	0.105	1609131	keystroke	d	n/a
804.7605	0.045	1609521	keystroke	Key.space	n/a
805.4205	0.075	1610841	keystroke	c	n/a
805.5555	0.135	1611111	keystroke	o	n/a
805.7955	0.105	1611591	keystroke	d	n/a
806.0505	0.105	1612101	keystroke	e	n/a
807.2055	0.135	1614411	keystroke	Key.enter	n/a
807.345	36.7925	1614690	prompt	n/a	northeast encourage electro baptist\n
810.5365	0.0145	1621073	keystroke	n	n/a
810.655	0.166	1621310	keystroke	o	n/a
811.046	0.15	1622092	keystroke	r	n/a
811.316	0.0745	1622632	keystroke	t	n/a
811.466	0.1345	1622932	keystroke	h	n/a
811.766	0.1195	1623532	keystroke	e	n/a
811.9455	0.1205	1623891	keystroke	a	n/a
812.1855	0.105	1624371	keystroke	s	n/a
812.4705	0.105	1624941	keystroke	t	n/a
812.6805	0.1195	1625361	keystroke	Key.space	n/a
813.01	0.1055	1626020	keystroke	e	n/a
813.2205	0.1055	1626441	keystroke	n	n/a
813.475	0.121	1626950	keystroke	c	n/a
813.6255	0.1195	1627251	keystroke	o	n/a
813.73	0.165	1627460	keystroke	u	n/a
814.195	0.151	1628390	keystroke	r	n/a
814.346	0.104	1628692	keystroke	a	n/a
814.676	0.134	1629352	keystroke	g	n/a
814.826	0.12	1629652	keystroke	e	n/a
816.3405	0.135	1632681	keystroke	Key.space	n/a
816.6555	0.075	1633311	keystroke	e	n/a
819.913	0.102	1639826	keystroke	l	n/a
820.016	0.089	1640032	keystroke	e	n/a
820.33	0.1205	1640660	keystroke	c	n/a
820.9005	0.105	1641801	keystroke	t	n/a
821.1855	0.075	1642371	keystroke	r	n/a
821.3505	0.135	1642701	keystroke	o	n/a
822.8355	0.12	1645671	keystroke	Key.space	n/a
823.3605	0.105	1646721	keystroke	b	n/a
823.6005	0.1055	1647201	keystroke	a	n/a
823.8705	0.0895	1647741	keystroke	p	n/a
824.11	0.121	1648220	keystroke	t	n/a
824.29	0.12	1648580	keystroke	i	n/a
824.47	0.135	1648940	keystroke	s	n/a
824.785	0.09	1649570	keystroke	t	n/a
843.988	0.148	1687976	keystroke	Key.enter	n/a
844.1405	31.4525	1688281	prompt	n/a	chan smallest formerly nuts\n
846.253	0.058	1692506	keystroke	c	n/a
846.476	0.075	1692952	keystroke	o	n/a
846.821	0.105	1693642	keystroke	a	n/a
847.016	0.06	1694032	keystroke	n	n/a
848.4415	0.1045	1696883	keystroke	Key.backspace	n/a
848.756	0.09	1697512	keystroke	Key.backspace	n/a
849.026	0.09	1698052	keystroke	Key.backspace	n/a
849.6715	0.1345	1699343	keystroke	l	n/a
849.896	0.1205	1699792	keystroke	a	n/a
850.076	0.075	1700152	keystroke	n	n/a
850.346	0.12	1700692	keystroke	Key.space	n/a
851.0365	0.1345	1702073	keystroke	s	n/a
851.291	0.105	1702582	keystroke	m	n/a
851.486	0.075	1702972	keystroke	a	n/a
851.6215	0.0745	1703243	keystroke	l	n/a
851.771	0.135	1703542	keystroke	l	n/a
851.951	0.0905	1703902	keystroke	e	n/a
852.2065	0.1195	1704413	keystroke	s	n/a
852.641	0.105	1705282	keystroke	t	n/a
852.851	0.0905	1705702	keystroke	Key.space	n/a
853.151	0.1055	1706302	keystroke	f	n/a
853.2715	0.105	1706543	keystroke	o	n/a
853.4965	0.105	1706993	keystroke	r	n/a
853.7065	0.119	1707413	keystroke	m	n/a
853.9155	0.135	1707831	keystroke	e	n/a
854.081	0.135	1708162	keystroke	r	n/a
854.2455	0.12	1708491	keystroke	l	n/a
854.6205	0.106	1709241	keystroke	y	n/a
854.771	0.1345	1709542	keystroke	Key.space	n/a
855.1005	0.091	1710201	keystroke	n	n/a
855.3865	0.135	1710773	keystroke	u	n/a
855.5515	0.105	1711103	keystroke	t	n/a
855.851	0.12	1711702	keystroke	s	n/a
858.358	0.043	1716716	keystroke	Key.backspace	n/a
858.566	0.09	1717132	keystroke	Key.backspace	n/a
858.791	0.075	1717582	keystroke	Key.backspace	n/a
859.046	0.075	1718092	keystroke	Key.backspace	n/a
859.271	0.075	1718542	keystroke	Key.backspace	n/a
859.5115	0.0745	1719023	keystroke	Key.backspace	n/a
859.721	0.0905	1719442	keystroke	Key.backspace	n/a
859.9465	0.09	1719893	keystroke	Key.backspace	n/a
860.1865	0.075	1720373	keystroke	Key.backspace	n/a
860.4265	0.0745	1720853	keystroke	Key.backspace	n/a
860.6655	0.0905	1721331	keystroke	Key.backspace	n/a
860.9055	0.09	1721811	keystroke	Key.backspace	n/a
861.161	0.0745	1722322	keystroke	Key.backspace	n/a
861.3855	0.0755	1722771	keystroke	Key.backspace	n/a
861.6115	0.0745	1723223	keystroke	Key.backspace	n/a
861.836	0.0745	1723672	keystroke	Key.backspace	n/a
862.0455	0.075	1724091	keystroke	Key.backspace	n/a
862.271	0.0745	1724542	keystroke	Key.backspace	n/a
862.496	0.0745	1724992	keystroke	Key.backspace	n/a
862.7215	0.059	1725443	keystroke	Key.backspace	n/a
862.9155	0.075	1725831	keystroke	Key.backspace	n/a
863.1405	0.0755	1726281	keystroke	Key.backspace	n/a
863.366	0.0755	1726732	keystroke	Key.backspace	n/a
863.606	0.06	1727212	keystroke	Key.backspace	n/a
863.801	0.075	1727602	keystroke	Key.backspace	n/a
864.026	0.075	1728052	keystroke	Key.backspace	n/a
864.9565	0.1045	1729913	keystroke	h	n/a
865.136	0.105	1730272	keystroke	a	n/a
865.226	0.1055	1730452	keystroke	n	n/a
865.7355	0.1355	1731471	keystroke	Key.space	n/a
866.486	0.1205	1732972	keystroke	s	n/a
866.696	0.09	1733392	keystroke	m	n/a
866.861	0.09	1733722	keystroke	a	n/a
867.011	0.075	1734022	keystroke	l	n/a
867.1605	0.105	1734321	keystroke	l	n/a
867.3265	0.105	1734653	keystroke	e	n/a
867.8515	0.12	1735703	keystroke	s	n/a
868.1515	0.134	1736303	keystroke	t	n/a
868.2705	0.1055	1736541	keystroke	Key.space	n/a
868.496	0.0755	1736992	keystroke	f	n/a
868.5865	0.0895	1737173	keystroke	o	n/a
868.751	0.0755	1737502	keystroke	r	n/a
868.841	0.12	1737682	keystroke	m	n/a
869.2915	0.0595	1738583	keystroke	e	n/a
869.5015	0.0895	1739003	keystroke	l	n/a
869.9815	0.0895	1739963	keystroke	Key.backspace	n/a
870.1165	0.105	1740233	keystroke	r	n/a
870.2955	0.121	1740591	keystroke	l	n/a
870.6415	0.1195	1741283	keystroke	y	n/a
870.881	0.09	1741762	keystroke	Key.space	n/a
871.151	0.06	1742302	keystroke	n	n/a
871.4355	0.105	1742871	keystroke	u	n/a
871.8105	0.106	1743621	keystroke	t	n/a
872.0965	0.134	1744193	keystroke	s	n/a
875.5325	0.059	1751065	keystroke	Key.enter	n/a
875.596	29.3075	1751192	prompt	n/a	madrid marker climb solid\n
876.8815	0.105	1753763	keystroke	m	n/a
877.4965	0.105	1754993	keystroke	a	n/a
877.9905	0.1055	1755981	keystroke	r	n/a
878.231	0.12	1756462	keystroke	r	n/a
878.846	0.075	1757692	keystroke	Key.backspace	n/a
879.041	0.105	1758082	keystroke	Key.backspace	n/a
879.251	0.105	1758502	keystroke	d	n/a
879.626	0.0755	1759252	keystroke	r	n/a
879.821	0.09	1759642	keystroke	i	n/a
880.046	0.1355	1760092	keystroke	d	n/a
880.2865	0.0895	1760573	keystroke	Key.space	n/a
897.913	0.104	1795826	keystroke	m	n/a
898.062	0.15	1796124	keystroke	a	n/a
898.182	0.105	1796364	keystroke	r	n/a
898.587	0.1495	1797174	keystroke	k	n/a
898.7215	0.135	1797443	keystroke	e	n/a
898.8265	0.135	1797653	keystroke	r	n/a
899.1115	0.0905	1798223	keystroke	Key.space	n/a
899.3665	0.135	1798733	keystroke	c	n/a
899.5165	0.1205	1799033	keystroke	l	n/a
899.757	0.105	1799514	keystroke	i	n/a
899.982	0.15	1799964	keystroke	m	n/a
900.192	0.09	1800384	keystroke	b	n/a
900.582	0.0895	1801164	keystroke	Key.space	n/a
900.9565	0.1205	1801913	keystroke	s	n/a
901.122	0.105	1802244	keystroke	o	n/a
901.362	0.12	1802724	keystroke	l	n/a
901.602	0.2545	1803204	keystroke	i	n/a
901.7665	0.1055	1803533	keystroke	d	n/a
904.843	0.059	1809686	keystroke	Key.enter	n/a
904.9075	12.776	1809815	prompt	n/a	pants charlie platforms hostels\n
905.727	0.105	1811454	keystroke	p	n/a
905.892	0.09	1811784	keystroke	a	n/a
905.982	0.135	1811964	keystroke	n	n/a
906.1625	0.0745	1812325	keystroke	t	n/a
906.402	0.15	1812804	keystroke	s	n/a
906.612	0.105	1813224	keystroke	Key.space	n/a
906.942	0.12	1813884	keystroke	c	n/a
907.077	0.12	1814154	keystroke	h	n/a
907.317	0.195	1814634	keystroke	a	n/a
907.467	0.105	1814934	keystroke	r	n/a
907.632	0.12	1815264	keystroke	l	n/a
907.872	0.09	1815744	keystroke	i	n/a
908.232	0.09	1816464	keystroke	e	n/a
908.652	0.105	1817304	keystroke	Key.space	n/a
909.087	0.09	1818174	keystroke	p	n/a
909.372	0.24	1818744	keystroke	l	n/a
909.537	0.12	1819074	keystroke	a	n/a
909.912	0.09	1819824	keystroke	t	n/a
910.227	0.09	1820454	keystroke	f	n/a
910.362	0.12	1820724	keystroke	o	n/a
910.542	0.09	1821084	keystroke	r	n/a
911.037	0.12	1822074	keystroke	m	n/a
911.307	0.105	1822614	keystroke	s	n/a
911.592	0.105	1823184	keystroke	Key.space	n/a
911.832	0.105	1823664	keystroke	h	n/a
911.907	0.1645	1823814	keystroke	o	n/a
912.0865	0.09	1824173	keystroke	s	n/a
912.372	0.09	1824744	keystroke	t	n/a
912.582	0.045	1825164	keystroke	e	n/a
912.702	0.135	1825404	keystroke	l	n/a
912.882	0.135	1825764	keystroke	s	n/a
917.594	0.088	1835188	keystroke	Key.enter	n/a
917.6915	7.627	1835383	prompt	n/a	smart goat examine atmosphere\n
918.447	0.12	1836894	keystroke	s	n/a
918.672	0.135	1837344	keystroke	m	n/a
918.792	0.1805	1837584	keystroke	a	n/a
918.8975	0.1045	1837795	keystroke	r	n/a
919.152	0.09	1838304	keystroke	t	n/a
919.317	0.12	1838634	keystroke	Key.space	n/a
919.602	0.12	1839204	keystroke	g	n/a
919.752	0.135	1839504	keystroke	o	n/a
919.8725	0.1345	1839745	keystroke	a	n/a
920.2025	0.1195	1840405	keystroke	t	n/a
920.397	0.075	1840794	keystroke	Key.space	n/a
920.652	0.09	1841304	keystroke	e	n/a
920.9525	0.1195	1841905	keystroke	x	n/a
921.312	0.105	1842624	keystroke	a	n/a
921.462	0.0905	1842924	keystroke	m	n/a
921.7165	0.2105	1843433	keystroke	i	n/a
921.8815	0.1515	1843763	keystroke	n	n/a
922.0175	0.1195	1844035	keystroke	e	n/a
922.332	0.0755	1844664	keystroke	Key.space	n/a
922.9175	0.12	1845835	keystroke	a	n/a
923.1125	0.09	1846225	keystroke	t	n/a
923.4425	0.105	1846885	keystroke	m	n/a
923.6665	0.135	1847333	keystroke	o	n/a
923.7725	0.105	1847545	keystroke	s	n/a
924.0125	0.135	1848025	keystroke	p	n/a
924.1925	0.15	1848385	keystroke	h	n/a
924.3275	0.165	1848655	keystroke	e	n/a
924.4475	0.1645	1848895	keystroke	r	n/a
924.5975	0.105	1849195	keystroke	e	n/a
925.212	0.1045	1850424	keystroke	Key.enter	n/a
925.3215	8.4125	1850643	prompt	n/a	birds mega contractors impossible\n
926.217	0.105	1852434	keystroke	b	n/a
926.397	0.15	1852794	keystroke	i	n/a
926.562	0.0905	1853124	keystroke	r	n/a
926.8325	0.105	1853665	keystroke	d	n/a
926.9225	0.12	1853845	keystroke	s	n/a
927.0725	0.06	1854145	keystroke	Key.space	n/a
927.3275	0.12	1854655	keystroke	m	n/a
927.4625	0.075	1854925	keystroke	e	n/a
927.7175	0.105	1855435	keystroke	g	n/a
927.8975	0.12	1855795	keystroke	a	n/a
928.1075	0.09	1856215	keystroke	Key.space	n/a
