onset	duration	sample	value	key	prompt_text
3.092	11.596	6184	prompt	n/a	the quick brown fox jumps over a lazy dog\n
5.3975	0.013	10795	keystroke	t	n/a
5.4855	0.06	10971	keystroke	h	n/a
5.6355	0.0605	11271	keystroke	e	n/a
5.86	0.09	11720	keystroke	Key.space	n/a
6.2345	0.109	12469	keystroke	q	n/a
6.3885	0.075	12777	keystroke	u	n/a
7.1395	0.104	14279	keystroke	i	n/a
7.3485	0.0755	14697	keystroke	c	n/a
7.4995	0.09	14999	keystroke	k	n/a
7.7385	0.09	15477	keystroke	Key.space	n/a
7.9495	0.089	15899	keystroke	b	n/a
8.1885	0.0755	16377	keystroke	r	n/a
8.3235	0.09	16647	keystroke	o	n/a
8.5045	0.0745	17009	keystroke	w	n/a
8.609	0.0905	17218	keystroke	n	n/a
8.8195	0.089	17639	keystroke	Key.space	n/a
9.029	0.075	18058	keystroke	f	n/a
9.1635	0.0755	18327	keystroke	o	n/a
9.3755	0.089	18751	keystroke	x	n/a
9.5395	0.105	19079	keystroke	Key.space	n/a
9.7505	0.09	19501	keystroke	j	n/a
10.0495	0.09	20099	keystroke	u	n/a
10.755	0.135	21510	keystroke	m	n/a
11.025	0.135	22050	keystroke	p	n/a
11.3105	0.09	22621	keystroke	s	n/a
11.52	0.075	23040	keystroke	Key.space	n/a
11.655	0.0895	23310	keystroke	o	n/a
11.8345	0.06	23669	keystroke	v	n/a
12	0.075	24000	keystroke	e	n/a
12.0895	0.0755	24179	keystroke	r	n/a
12.1655	0.1045	24331	keystroke	Key.space	n/a
12.3	0.09	24600	keystroke	a	n/a
12.4645	0.091	24929	keystroke	Key.space	n/a
12.87	0.09	25740	keystroke	l	n/a
13.0955	0.104	26191	keystroke	a	n/a
13.4245	0.075	26849	keystroke	z	n/a
13.6195	0.06	27239	keystroke	y	n/a
13.905	0.06	27810	keystroke	Key.space	n/a
14.055	0.0745	28110	keystroke	d	n/a
14.19	0.0745	28380	keystroke	o	n/a
14.3695	0.0755	28739	keystroke	g	n/a
14.61	0.0745	29220	keystroke	Key.enter	n/a
14.693	9.519	29386	prompt	n/a	pools foam totally distributions\n
15.7045	0.1055	31409	keystroke	p	n/a
15.9755	0.074	31951	keystroke	o	n/a
16.1705	0.09	32341	keystroke	o	n/a
16.4245	0.09	32849	keystroke	l	n/a
16.6495	0.015	33299	keystroke	e	n/a
17.115	0.0895	34230	keystroke	Key.backspace	n/a
17.2355	0.09	34471	keystroke	s	n/a
17.43	0.0895	34860	keystroke	Key.space	n/a
17.88	0.09	35760	keystroke	f	n/a
18	0.0895	36000	keystroke	o	n/a
18.1655	0.105	36331	keystroke	a	n/a
18.2855	0.104	36571	keystroke	m	n/a
18.645	0.09	37290	keystroke	Key.space	n/a
18.9305	0.0745	37861	keystroke	t	n/a
19.0195	0.0905	38039	keystroke	o	n/a
19.245	0.0745	38490	keystroke	t	n/a
19.3945	0.076	38789	keystroke	a	n/a
19.4995	0.09	38999	keystroke	l	n/a
19.71	0.105	39420	keystroke	l	n/a
20.0105	0.059	40021	keystroke	y	n/a
20.205	0.0895	40410	keystroke	Key.space	n/a
20.4745	0.075	40949	keystroke	d	n/a
20.6095	0.105	41219	keystroke	i	n/a
20.79	0.075	41580	keystroke	s	n/a
20.94	0.075	41880	keystroke	t	n/a
21.0895	0.061	42179	keystroke	r	n/a
21.194	0.09	42388	keystroke	i	n/a
21.42	0.059	42840	keystroke	c	n/a
21.6305	0.06	43261	keystroke	t	n/a
21.765	0.075	43530	keystroke	u	n/a
22.14	0.059	44280	keystroke	Key.backspace	n/a
22.335	0.045	44670	keystroke	Key.backspace	n/a
22.515	0.075	45030	keystroke	Key.backspace	n/a
22.68	0.06	45360	keystroke	b	n/a
22.8	0.09	45600	keystroke	u	n/a
23.04	0.075	46080	keystroke	t	n/a
23.235	0.105	46470	keystroke	i	n/a
23.355	0.135	46710	keystroke	o	n/a
23.5645	0.076	47129	keystroke	n	n/a
23.6995	0.076	47399	keystroke	s	n/a
24.135	0.075	48270	keystroke	Key.enter	n/a
24.2165	10.0455	48433	prompt	n/a	yale implemented honors stunning\n
25.215	0.0605	50430	keystroke	y	n/a
25.3205	0.0895	50641	keystroke	a	n/a
25.5	0.0905	51000	keystroke	l	n/a
25.74	0.075	51480	keystroke	e	n/a
25.89	0.105	51780	keystroke	Key.space	n/a
26.1445	0.09	52289	keystroke	i	n/a
26.31	0.1045	52620	keystroke	m	n/a
26.5045	0.1355	53009	keystroke	p	n/a
26.805	0.09	53610	keystroke	l	n/a
27.105	0.09	54210	keystroke	e	n/a
27.3155	0.0895	54631	keystroke	m	n/a
27.5405	0.0595	55081	keystroke	e	n/a
27.66	0.0905	55320	keystroke	n	n/a
27.885	0.075	55770	keystroke	t	n/a
28.17	0.0605	56340	keystroke	e	n/a
28.9645	0.076	57929	keystroke	d	n/a
29.205	0.1045	58410	keystroke	Key.space	n/a
29.55	0.09	59100	keystroke	h	n/a
29.7155	0.104	59431	keystroke	o	n/a
29.8805	0.1045	59761	keystroke	n	n/a
30.195	0.075	60390	keystroke	r	n/a
30.7795	0.0755	61559	keystroke	Key.backspace	n/a
31.0505	0.104	62101	keystroke	o	n/a
31.245	0.075	62490	keystroke	r	n/a
31.4545	0.0905	62909	keystroke	s	n/a
31.59	0.105	63180	keystroke	Key.space	n/a
31.8145	0.0905	63629	keystroke	s	n/a
32.07	0.06	64140	keystroke	t	n/a
32.205	0.0755	64410	keystroke	u	n/a
32.475	0.0905	64950	keystroke	n	n/a
32.655	0.12	65310	keystroke	n	n/a
32.88	0.075	65760	keystroke	i	n/a
33.015	0.1055	66030	keystroke	n	n/a
33.135	0.075	66270	keystroke	g	n/a
34.185	0.075	68370	keystroke	Key.enter	n/a
34.2665	10.8105	68533	prompt	n/a	oklahoma stories instruments sorry\n
35.0705	0.0595	70141	keystroke	o	n/a
35.31	0.0605	70620	keystroke	k	n/a
35.76	0.0605	71520	keystroke	l	n/a
35.925	0.0755	71850	keystroke	a	n/a
36.495	0.0445	72990	keystroke	h	n/a
36.72	0.105	73440	keystroke	o	n/a
36.9	0.12	73800	keystroke	m	n/a
37.29	0.045	74580	keystroke	a	n/a
37.485	0.09	74970	keystroke	Key.space	n/a
37.95	0.075	75900	keystroke	s	n/a
38.1605	0.074	76321	keystroke	t	n/a
38.2945	0.0755	76589	keystroke	o	n/a
38.52	0.0595	77040	keystroke	r	n/a
38.745	0.0755	77490	keystroke	i	n/a
39.3145	0.0755	78629	keystroke	e	n/a
39.57	0.0745	79140	keystroke	s	n/a
39.7795	0.0755	79559	keystroke	Key.space	n/a
39.975	0.075	79950	keystroke	i	n/a
40.17	0.075	80340	keystroke	n	n/a
40.6495	0.075	81299	keystroke	s	n/a
40.8145	0.0605	81629	keystroke	t	n/a
40.9495	0.091	81899	keystroke	r	n/a
41.0845	0.075	82169	keystroke	u	n/a
41.2945	0.046	82589	keystroke	c	n/a
41.6845	0.06	83369	keystroke	Key.backspace	n/a
41.91	0.105	83820	keystroke	m	n/a
42.0605	0.075	84121	keystroke	e	n/a
42.2245	0.09	84449	keystroke	n	n/a
42.3605	0.0745	84721	keystroke	t	n/a
42.6305	0.0745	85261	keystroke	s	n/a
42.9	0.09	85800	keystroke	Key.space	n/a
43.32	0.09	86640	keystroke	s	n/a
43.605	0.09	87210	keystroke	o	n/a
43.83	0.06	87660	keystroke	r	n/a
43.995	0.0745	87990	keystroke	r	n/a
44.1305	0.044	88261	keystroke	y	n/a
45.015	0.06	90030	keystroke	Key.enter	n/a
45.082	9.37	90164	prompt	n/a	basis equipped speed equivalent\n
45.9445	0.076	91889	keystroke	b	n/a
46.1255	0.1045	92251	keystroke	a	n/a
46.29	0.12	92580	keystroke	s	n/a
46.485	0.0755	92970	keystroke	i	n/a
46.605	0.09	93210	keystroke	s	n/a
46.815	0.075	93630	keystroke	Key.space	n/a
47.4305	0.0445	94861	keystroke	q	n/a
47.805	0.0595	95610	keystroke	Key.backspace	n/a
47.9695	0.1055	95939	keystroke	e	n/a
48.225	0.09	96450	keystroke	q	n/a
48.42	0.06	96840	keystroke	u	n/a
48.705	0.06	97410	keystroke	i	n/a
49.14	0.0605	98280	keystroke	p	n/a
49.29	0.12	98580	keystroke	p	n/a
49.8455	0.105	99691	keystroke	e	n/a
50.1155	0.059	100231	keystroke	d	n/a
50.34	0.105	100680	keystroke	Key.space	n/a
50.805	0.0755	101610	keystroke	s	n/a
50.955	0.075	101910	keystroke	p	n/a
51.2105	0.06	102421	keystroke	e	n/a
51.4055	0.06	102811	keystroke	e	n/a
51.5995	0.0755	103199	keystroke	d	n/a
51.735	0.135	103470	keystroke	Key.space	n/a
52.2755	0.0745	104551	keystroke	e	n/a
52.5	0.105	105000	keystroke	q	n/a
52.695	0.09	105390	keystroke	u	n/a
52.98	0.1055	105960	keystroke	i	n/a
53.295	0.075	106590	keystroke	v	n/a
53.46	0.0905	106920	keystroke	a	n/a
53.595	0.06	107190	keystroke	l	n/a
53.88	0.045	107760	keystroke	e	n/a
54.0005	0.089	108001	keystroke	n	n/a
54.1795	0.076	108359	keystroke	t	n/a
54.39	0.06	108780	keystroke	Key.enter	n/a
54.4565	7.255	108913	prompt	n/a	examination sheets mere meta\n
55.2455	0.06	110491	keystroke	e	n/a
55.4555	0.0595	110911	keystroke	x	n/a
55.725	0.0755	111450	keystroke	a	n/a
55.86	0.09	111720	keystroke	m	n/a
56.0995	0.076	112199	keystroke	i	n/a
56.265	0.0905	112530	keystroke	n	n/a
56.85	0.075	113700	keystroke	a	n/a
57.075	0.0605	114150	keystroke	t	n/a
57.15	0.106	114300	keystroke	i	n/a
57.27	0.1355	114540	keystroke	o	n/a
57.45	0.09	114900	keystroke	n	n/a
57.6445	0.1055	115289	keystroke	Key.space	n/a
57.8545	0.075	115709	keystroke	s	n/a
57.976	0.0585	115952	keystroke	h	n/a
58.155	0.06	116310	keystroke	e	n/a
58.32	0.0905	116640	keystroke	e	n/a
58.56	0.075	117120	keystroke	t	n/a
58.785	0.075	117570	keystroke	s	n/a
58.95	0.0455	117900	keystroke	Key.space	n/a
59.1905	0.0745	118381	keystroke	m	n/a
59.4155	0.089	118831	keystroke	e	n/a
59.61	0.0905	119220	keystroke	r	n/a
59.7605	0.075	119521	keystroke	e	n/a
59.9845	0.0755	119969	keystroke	Key.space	n/a
60.1955	0.09	120391	keystroke	m	n/a
60.375	0.0755	120750	keystroke	e	n/a
60.5855	0.0745	121171	keystroke	t	n/a
60.8245	0.0755	121649	keystroke	a	n/a
61.62	0.0895	123240	keystroke	Key.enter	n/a
61.7165	7.423	123433	prompt	n/a	genesis nails assessed liver\n
62.7605	0.0595	125521	keystroke	g	n/a
62.91	0.06	125820	keystroke	e	n/a
63.015	0.075	126030	keystroke	n	n/a
63.2105	0.0745	126421	keystroke	e	n/a
63.63	0.045	127260	keystroke	s	n/a
63.7805	0.06	127561	keystroke	i	n/a
63.9905	0.0895	127981	keystroke	s	n/a
64.425	0.105	128850	keystroke	Key.space	n/a
64.935	0.075	129870	keystroke	n	n/a
65.085	0.075	130170	keystroke	a	n/a
65.2195	0.0755	130439	keystroke	i	n/a
65.43	0.075	130860	keystroke	l	n/a
65.625	0.075	131250	keystroke	s	n/a
65.79	0.075	131580	keystroke	Key.space	n/a
66.285	0.075	132570	keystroke	a	n/a
66.5245	0.06	133049	keystroke	s	n/a
66.6755	0.0895	133351	keystroke	s	n/a
66.9155	0.089	133831	keystroke	e	n/a
67.2895	0.0455	134579	keystroke	s	n/a
67.455	0.0755	134910	keystroke	s	n/a
67.7105	0.074	135421	keystroke	e	n/a
67.905	0.0745	135810	keystroke	d	n/a
68.0695	0.09	136139	keystroke	Key.space	n/a
68.2645	0.09	136529	keystroke	l	n/a
68.4605	0.09	136921	keystroke	i	n/a
68.61	0.0905	137220	keystroke	v	n/a
68.79	0.1055	137580	keystroke	e	n/a
68.865	0.06	137730	keystroke	r	n/a
69.075	0.06	138150	keystroke	Key.enter	n/a
69.1465	12.29	138293	prompt	n/a	feedback excellent expense subscribe\n
70.005	0.075	140010	keystroke	f	n/a
70.2595	0.045	140519	keystroke	e	n/a
70.4255	0.044	140851	keystroke	e	n/a
70.6045	0.06	141209	keystroke	d	n/a
70.9045	0.0605	141809	keystroke	b	n/a
71.115	0.0745	142230	keystroke	a	n/a
71.355	0.0595	142710	keystroke	c	n/a
71.4595	0.0755	142919	keystroke	k	n/a
71.67	0.075	143340	keystroke	Key.space	n/a
71.85	0.06	143700	keystroke	e	n/a
72.165	0.0455	144330	keystroke	c	n/a
72.555	0.0595	145110	keystroke	Key.backspace	n/a
72.6605	0.09	145321	keystroke	x	n/a
72.9305	0.0595	145861	keystroke	c	n/a
73.155	0.045	146310	keystroke	e	n/a
73.305	0.0605	146610	keystroke	l	n/a
73.53	0.105	147060	keystroke	l	n/a
73.8905	0.0745	147781	keystroke	e	n/a
74.025	0.075	148050	keystroke	n	n/a
74.3095	0.0755	148619	keystroke	t	n/a
74.505	0.09	149010	keystroke	Key.space	n/a
74.85	0.075	149700	keystroke	e	n/a
75.105	0.06	150210	keystroke	x	n/a
75.27	0.105	150540	keystroke	p	n/a
75.51	0.0605	151020	keystroke	e	n/a
75.645	0.0905	151290	keystroke	n	n/a
75.8695	0.0755	151739	keystroke	s	n/a
76.0505	0.06	152101	keystroke	e	n/a
76.545	0.0895	153090	keystroke	Key.space	n/a
77.025	0.0905	154050	keystroke	s	n/a
77.205	0.075	154410	keystroke	u	n/a
77.445	0.0895	154890	keystroke	b	n/a
77.7145	0.0905	155429	keystroke	s	n/a
77.94	0.0445	155880	keystroke	t	n/a
78.045	0.0895	156090	keystroke	r	n/a
78.255	0.09	156510	keystroke	i	n/a
78.885	0.06	157770	keystroke	Key.backspace	n/a
79.0945	0.045	158189	keystroke	Key.backspace	n/a
79.4545	0.09	158909	keystroke	Key.backspace	n/a
79.8595	0.0755	159719	keystroke	c	n/a
80.1145	0.076	160229	keystroke	r	n/a
80.2645	0.076	160529	keystroke	i	n/a
80.475	0.06	160950	keystroke	b	n/a
80.655	0.0445	161310	keystroke	e	n/a
81.3595	0.075	162719	keystroke	Key.enter	n/a
81.4415	11.95	162883	prompt	n/a	canon opinions virginia collectible\n
82.125	0.075	164250	keystroke	c	n/a
82.305	0.09	164610	keystroke	a	n/a
82.44	0.09	164880	keystroke	n	n/a
82.9195	0.1055	165839	keystroke	o	n/a
83.1305	0.074	166261	keystroke	n	n/a
83.4445	0.0905	166889	keystroke	Key.space	n/a
84.3895	0.106	168779	keystroke	o	n/a
84.6305	0.1045	169261	keystroke	p	n/a
84.9445	0.091	169889	keystroke	i	n/a
85.1855	0.1045	170371	keystroke	n	n/a
86.175	0.1055	172350	keystroke	i	n/a
86.3395	0.09	172679	keystroke	o	n/a
86.5505	0.104	173101	keystroke	n	n/a
86.7745	0.0755	173549	keystroke	s	n/a
87.705	0.12	175410	keystroke	Key.space	n/a
88.1545	0.091	176309	keystroke	v	n/a
88.23	0.075	176460	keystroke	i	n/a
88.485	0.075	176970	keystroke	r	n/a
88.77	0.06	177540	keystroke	g	n/a
88.9205	0.06	177841	keystroke	i	n/a
89.085	0.105	178170	keystroke	n	n/a
89.31	0.075	178620	keystroke	i	n/a
89.475	0.0905	178950	keystroke	a	n/a
89.8345	0.105	179669	keystroke	Key.space	n/a
90.0905	0.059	180181	keystroke	c	n/a
90.225	0.075	180450	keystroke	o	n/a
90.5255	0.06	181051	keystroke	l	n/a
90.7045	0.091	181409	keystroke	l	n/a
90.8395	0.09	181679	keystroke	e	n/a
91.0805	0.044	182161	keystroke	c	n/a
91.275	0.0595	182550	keystroke	t	n/a
91.3495	0.091	182699	keystroke	i	n/a
91.8	0.0755	183600	keystroke	b	n/a
92.0105	0.075	184021	keystroke	l	n/a
92.1905	0.0595	184381	keystroke	e	n/a
93.33	0.06	186660	keystroke	Key.enter	n/a
93.3965	9.595	186793	prompt	n/a	cookie fresh gotten morgan\n
94.155	0.0755	188310	keystroke	c	n/a
94.275	0.0905	188550	keystroke	o	n/a
94.7105	0.0905	189421	keystroke	o	n/a
95.2055	0.104	190411	keystroke	k	n/a
95.55	0.0745	191100	keystroke	i	n/a
95.7305	0.059	191461	keystroke	e	n/a
95.8795	0.105	191759	keystroke	Key.space	n/a
96.195	0.045	192390	keystroke	f	n/a
96.36	0.075	192720	keystroke	r	n/a
96.48	0.075	192960	keystroke	e	n/a
96.81	0.075	193620	keystroke	s	n/a
96.99	0.0745	193980	keystroke	h	n/a
97.245	0.134	194490	keystroke	Key.space	n/a
97.5295	0.0765	195059	keystroke	g	n/a
97.6645	0.075	195329	keystroke	o	n/a
97.9805	0.059	195961	keystroke	t	n/a
98.1905	0.044	196381	keystroke	t	n/a
98.4305	0.105	196861	keystroke	e	n/a
98.5945	0.0605	197189	keystroke	n	n/a
98.925	0.105	197850	keystroke	Key.space	n/a
99.375	0.015	198750	keystroke	g	n/a
99.465	0.1045	198930	keystroke	o	n/a
100.3645	0.0455	200729	keystroke	Key.backspace	n/a
100.5445	0.076	201089	keystroke	Key.backspace	n/a
100.7555	0.09	201511	keystroke	m	n/a
100.9495	0.075	201899	keystroke	o	n/a
101.2045	0.076	202409	keystroke	r	n/a
101.52	0.09	203040	keystroke	g	n/a
101.7605	0.0895	203521	keystroke	a	n/a
102.015	0.12	204030	keystroke	n	n/a
102.915	0.0745	205830	keystroke	Key.enter	n/a
102.996	13.2705	205992	prompt	n/a	reader cylinder bishop humanitarian\n
103.8295	0.09	207659	keystroke	r	n/a
103.9345	0.091	207869	keystroke	e	n/a
104.0845	0.0905	208169	keystroke	a	n/a
104.3095	0.061	208619	keystroke	d	n/a
104.49	0.0605	208980	keystroke	e	n/a
104.6245	0.06	209249	keystroke	r	n/a
104.7745	0.12	209549	keystroke	Key.space	n/a
104.9545	0.09	209909	keystroke	s	n/a
105.2555	0.059	210511	keystroke	y	n/a
105.7495	0.105	211499	keystroke	Key.backspace	n/a
105.9745	0.0905	211949	keystroke	Key.backspace	n/a
106.11	0.09	212220	keystroke	c	n/a
106.29	0.0745	212580	keystroke	y	n/a
106.575	0.0895	213150	keystroke	l	n/a
106.8595	0.0755	213719	keystroke	i	n/a
107.0555	0.12	214111	keystroke	n	n/a
107.4905	0.074	214981	keystroke	d	n/a
107.82	0.075	215640	keystroke	e	n/a
107.9855	0.09	215971	keystroke	r	n/a
108.1495	0.106	216299	keystroke	Key.space	n/a
108.615	0.0745	217230	keystroke	b	n/a
108.7355	0.0895	217471	keystroke	i	n/a
108.9895	0.105	217979	keystroke	s	n/a
109.365	0.1205	218730	keystroke	h	n/a
109.5895	0.1055	219179	keystroke	i	n/a
109.7705	0.105	219541	keystroke	p	n/a
110.385	0.045	220770	keystroke	Key.backspace	n/a
110.535	0.09	221070	keystroke	Key.backspace	n/a
110.79	0.105	221580	keystroke	o	n/a
111.015	0.105	222030	keystroke	p	n/a
111.42	0.075	222840	keystroke	Key.space	n/a
112.0505	0.06	224101	keystroke	h	n/a
112.2595	0.0605	224519	keystroke	u	n/a
112.485	0.105	224970	keystroke	m	n/a
112.725	0.075	225450	keystroke	a	n/a
112.815	0.045	225630	keystroke	n	n/a
113.13	0.075	226260	keystroke	i	n/a
113.415	0.075	226830	keystroke	t	n/a
113.6395	0.0755	227279	keystroke	a	n/a
113.8195	0.09	227639	keystroke	r	n/a
113.9855	0.075	227971	keystroke	i	n/a
114.8105	0.0745	229621	keystroke	a	n/a
114.945	0.09	229890	keystroke	n	n/a
116.205	0.0595	232410	keystroke	Key.enter	n/a
116.272	8.817	232544	prompt	n/a	accounts oman throat friendly\n
117.135	0.0895	234270	keystroke	a	n/a
117.3755	0.06	234751	keystroke	c	n/a
117.5395	0.0605	235079	keystroke	c	n/a
117.6455	0.0745	235291	keystroke	o	n/a
117.81	0.06	235620	keystroke	u	n/a
118.0045	0.09	236009	keystroke	n	n/a
118.2145	0.075	236429	keystroke	t	n/a
118.44	0.075	236880	keystroke	s	n/a
118.59	0.105	237180	keystroke	Key.space	n/a
119.28	0.0895	238560	keystroke	o	n/a
119.5345	0.12	239069	keystroke	m	n/a
119.7145	0.09	239429	keystroke	a	n/a
119.835	0.09	239670	keystroke	n	n/a
120.1795	0.09	240359	keystroke	Key.space	n/a
120.8705	0.0745	241741	keystroke	t	n/a
120.975	0.06	241950	keystroke	h	n/a
121.14	0.09	242280	keystroke	r	n/a
121.41	0.075	242820	keystroke	o	n/a
121.6055	0.09	243211	keystroke	a	n/a
121.8745	0.0895	243749	keystroke	t	n/a
122.069	0.106	244138	keystroke	Key.space	n/a
122.4595	0.09	244919	keystroke	f	n/a
122.67	0.0595	245340	keystroke	r	n/a
122.79	0.0745	245580	keystroke	i	n/a
122.9695	0.0455	245939	keystroke	e	n/a
123.1195	0.075	246239	keystroke	n	n/a
123.2555	0.059	246511	keystroke	d	n/a
123.4495	0.091	246899	keystroke	l	n/a
123.69	0.0445	247380	keystroke	y	n/a
125.025	0.06	250050	keystroke	Key.enter	n/a
125.094	15.5025	250188	prompt	n/a	arthritis consolidation bidding validation\n
126.0005	0.074	252001	keystroke	a	n/a
126.1495	0.09	252299	keystroke	r	n/a
126.4355	0.075	252871	keystroke	t	n/a
126.6145	0.0755	253229	keystroke	h	n/a
127.1095	0.0755	254219	keystroke	r	n/a
127.2455	0.09	254491	keystroke	i	n/a
127.635	0.075	255270	keystroke	t	n/a
127.769	0.0755	255538	keystroke	i	n/a
128.025	0.0605	256050	keystroke	s	n/a
128.384	0.076	256768	keystroke	Key.space	n/a
128.8795	0.076	257759	keystroke	c	n/a
128.9845	0.09	257969	keystroke	o	n/a
129.2095	0.091	258419	keystroke	n	n/a
129.6295	0.09	259259	keystroke	s	n/a
129.8245	0.075	259649	keystroke	o	n/a
130.995	0.1055	261990	keystroke	l	n/a
131.9255	0.075	263851	keystroke	i	n/a
132.18	0.0745	264360	keystroke	d	n/a
132.3445	0.09	264689	keystroke	a	n/a
132.5555	0.074	265111	keystroke	t	n/a
132.6905	0.075	265381	keystroke	i	n/a
132.8095	0.1205	265619	keystroke	o	n/a
132.9755	0.104	265951	keystroke	n	n/a
133.17	0.09	266340	keystroke	Key.space	n/a
133.38	0.076	266760	keystroke	b	n/a
133.5	0.075	267000	keystroke	i	n/a
134.114	0.076	268228	keystroke	d	n/a
134.295	0.09	268590	keystroke	d	n/a
134.475	0.075	268950	keystroke	i	n/a
134.94	0.06	269880	keystroke	Key.backspace	n/a
135.075	0.09	270150	keystroke	e	n/a
135.195	0.09	270390	keystroke	n	n/a
136.23	0.044	272460	keystroke	Key.backspace	n/a
136.409	0.061	272818	keystroke	Key.backspace	n/a
136.649	0.106	273298	keystroke	i	n/a
136.859	0.105	273718	keystroke	n	n/a
137.0995	0.0605	274199	keystroke	g	n/a
138.21	0.075	276420	keystroke	Key.space	n/a
138.8705	0.0745	277741	keystroke	v	n/a
139.05	0.075	278100	keystroke	a	n/a
139.2	0.075	278400	keystroke	l	n/a
139.41	0.06	278820	keystroke	i	n/a
139.5	0.0745	279000	keystroke	d	n/a
139.6345	0.09	279269	keystroke	a	n/a
139.8	0.075	279600	keystroke	t	n/a
139.92	0.09	279840	keystroke	i	n/a
140.025	0.135	280050	keystroke	o	n/a
140.2045	0.09	280409	keystroke	n	n/a
140.535	0.0595	281070	keystroke	Key.enter	n/a
140.601	8.5905	281202	prompt	n/a	buzz interesting assure testimony\n
141.4205	0.074	282841	keystroke	b	n/a
141.54	0.059	283080	keystroke	u	n/a
141.9295	0.0755	283859	keystroke	z	n/a
142.1095	0.0905	284219	keystroke	z	n/a
142.2445	0.1045	284489	keystroke	Key.space	n/a
142.515	0.075	285030	keystroke	i	n/a
142.665	0.105	285330	keystroke	n	n/a
142.89	0.0595	285780	keystroke	t	n/a
143.0095	0.09	286019	keystroke	e	n/a
143.115	0.0745	286230	keystroke	r	n/a
143.355	0.075	286710	keystroke	e	n/a
143.5495	0.0755	287099	keystroke	s	n/a
143.7005	0.06	287401	keystroke	t	n/a
143.8345	0.0755	287669	keystroke	i	n/a
143.985	0.1055	287970	keystroke	n	n/a
144.165	0.075	288330	keystroke	g	n/a
144.285	0.105	288570	keystroke	Key.space	n/a
144.525	0.09	289050	keystroke	a	n/a
144.7945	0.0755	289589	keystroke	s	n/a
144.975	0.075	289950	keystroke	s	n/a
145.11	0.0745	290220	keystroke	u	n/a
145.41	0.075	290820	keystroke	r	n/a
145.6655	0.06	291331	keystroke	e	n/a
145.7995	0.105	291599	keystroke	Key.space	n/a
146.1445	0.061	292289	keystroke	t	n/a
146.385	0.0745	292770	keystroke	e	n/a
146.595	0.0595	293190	keystroke	s	n/a
146.7745	0.06	293549	keystroke	t	n/a
147.1045	0.09	294209	keystroke	i	n/a
147.615	0.12	295230	keystroke	m	n/a
147.8405	0.104	295681	keystroke	o	n/a
148.0495	0.0755	296099	keystroke	n	n/a
148.4095	0.061	296819	keystroke	y	n/a
149.1295	0.06	298259	keystroke	Key.enter	n/a
149.1965	8.8595	298393	prompt	n/a	physicians memo greene themes\n
150.0605	0.119	300121	keystroke	p	n/a
150.2545	0.09	300509	keystroke	h	n/a
150.6305	0.0595	301261	keystroke	y	n/a
151.395	0.0745	302790	keystroke	s	n/a
151.5895	0.075	303179	keystroke	i	n/a
151.8895	0.0605	303779	keystroke	c	n/a
152.084	0.075	304168	keystroke	i	n/a
152.325	0.075	304650	keystroke	a	n/a
152.46	0.074	304920	keystroke	n	n/a
152.64	0.074	305280	keystroke	s	n/a
152.849	0.09	305698	keystroke	Key.space	n/a
153.21	0.09	306420	keystroke	m	n/a
153.315	0.0745	306630	keystroke	e	n/a
153.495	0.105	306990	keystroke	m	n/a
153.705	0.075	307410	keystroke	o	n/a
153.9745	0.09	307949	keystroke	Key.space	n/a
154.2295	0.061	308459	keystroke	g	n/a
154.4095	0.0755	308819	keystroke	r	n/a
154.71	0.075	309420	keystroke	e	n/a
154.89	0.06	309780	keystroke	e	n/a
154.98	0.074	309960	keystroke	n	n/a
155.234	0.06	310468	keystroke	e	n/a
155.444	0.061	310888	keystroke	Key.space	n/a
156.239	0.061	312478	keystroke	t	n/a
156.3305	0.0595	312661	keystroke	h	n/a
156.51	0.0745	313020	keystroke	e	n/a
156.7645	0.12	313529	keystroke	m	n/a
157.0195	0.06	314039	keystroke	e	n/a
157.245	0.0745	314490	keystroke	s	n/a
157.9945	0.06	315989	keystroke	Key.enter	n/a
158.0605	13.691	316121	prompt	n/a	paypal harassment note istanbul\n
158.79	0.09	317580	keystroke	p	n/a
158.9405	0.0895	317881	keystroke	a	n/a
159.1045	0.0595	318209	keystroke	y	n/a
159.57	0.1195	319140	keystroke	p	n/a
159.7345	0.09	319469	keystroke	a	n/a
159.9145	0.09	319829	keystroke	l	n/a
160.304	0.09	320608	keystroke	Key.space	n/a
160.9345	0.0445	321869	keystroke	h	n/a
161.07	0.059	322140	keystroke	a	n/a
161.2495	0.06	322499	keystroke	r	n/a
161.445	0.059	322890	keystroke	r	n/a
161.6995	0.06	323399	keystroke	a	n/a
162.0595	0.045	324119	keystroke	Key.backspace	n/a
162.225	0.075	324450	keystroke	Key.backspace	n/a
162.3445	0.105	324689	keystroke	a	n/a
162.6	0.075	325200	keystroke	s	n/a
162.765	0.0745	325530	keystroke	s	n/a
163.23	0.105	326460	keystroke	m	n/a
163.6345	0.0755	327269	keystroke	e	n/a
163.815	0.074	327630	keystroke	n	n/a
163.949	0.0755	327898	keystroke	t	n/a
164.1145	0.075	328229	keystroke	Key.space	n/a
164.4895	0.0605	328979	keystroke	b	n/a
164.4905	0.089	328981	keystroke	n	n/a
164.6845	0.06	329369	keystroke	o	n/a
164.9545	0.061	329909	keystroke	t	n/a
165.2545	0.105	330509	keystroke	e	n/a
165.5095	0.0905	331019	keystroke	Key.space	n/a
166.0045	0.03	332009	keystroke	Key.backspace	n/a
166.1995	0.0605	332399	keystroke	Key.backspace	n/a
166.3795	0.06	332759	keystroke	Key.backspace	n/a
166.559	0.0305	333118	keystroke	Key.backspace	n/a
166.709	0.0455	333418	keystroke	Key.backspace	n/a
166.8895	0.03	333779	keystroke	Key.backspace	n/a
167.069	0.06	334138	keystroke	Key.backspace	n/a
167.61	0.09	335220	keystroke	Key.space	n/a
167.835	0.09	335670	keystroke	n	n/a
168.0445	0.0905	336089	keystroke	o	n/a
168.315	0.06	336630	keystroke	t	n/a
168.42	0.0895	336840	keystroke	e	n/a
168.6895	0.12	337379	keystroke	Key.space	n/a
169.44	0.0745	338880	keystroke	i	n/a
169.6345	0.06	339269	keystroke	s	n/a
169.9195	0.075	339839	keystroke	t	n/a
170.069	0.076	340138	keystroke	a	n/a
170.2195	0.0605	340439	keystroke	n	n/a
170.669	0.076	341338	keystroke	b	n/a
170.789	0.075	341578	keystroke	u	n/a
171.044	0.061	342088	keystroke	l	n/a
171.689	0.06	343378	keystroke	Key.enter	n/a
171.7555	7.1805	343511	prompt	n/a	download upon found understand\n
172.755	0.09	345510	keystroke	d	n/a
172.86	0.074	345720	keystroke	o	n/a
173.04	0.06	346080	keystroke	w	n/a
173.13	0.09	346260	keystroke	n	n/a
173.445	0.0895	346890	keystroke	l	n/a
173.6545	0.075	347309	keystroke	o	n/a
173.8045	0.0905	347609	keystroke	a	n/a
174	0.06	348000	keystroke	d	n/a
174.1195	0.12	348239	keystroke	Key.space	n/a
174.48	0.0445	348960	keystroke	u	n/a
174.5845	0.12	349169	keystroke	p	n/a
174.9445	0.1055	349889	keystroke	o	n/a
175.1395	0.0905	350279	keystroke	n	n/a
175.349	0.09	350698	keystroke	Key.space	n/a
175.62	0.0895	351240	keystroke	f	n/a
175.7245	0.075	351449	keystroke	o	n/a
175.89	0.0445	351780	keystroke	u	n/a
176.1	0.0745	352200	keystroke	n	n/a
176.2195	0.0595	352439	keystroke	d	n/a
176.339	0.1355	352678	keystroke	Key.space	n/a
176.564	0.06	353128	keystroke	u	n/a
176.759	0.075	353518	keystroke	n	n/a
176.999	0.0905	353998	keystroke	d	n/a
177.194	0.075	354388	keystroke	e	n/a
177.33	0.074	354660	keystroke	r	n/a
177.5555	0.0745	355111	keystroke	s	n/a
177.735	0.0595	355470	keystroke	t	n/a
178.1395	0.0895	356279	keystroke	a	n/a
178.319	0.061	356638	keystroke	n	n/a
178.4695	0.0455	356939	keystroke	d	n/a
178.875	0.0595	357750	keystroke	Key.enter	n/a
178.9405	11.4705	357881	prompt	n/a	publicity deluxe connected stud\n
179.7745	0.09	359549	keystroke	p	n/a
180.0145	0.09	360029	keystroke	u	n/a
180.4045	0.06	360809	keystroke	b	n/a
180.5835	0.091	361167	keystroke	l	n/a
180.7795	0.09	361559	keystroke	i	n/a
180.9445	0.0745	361889	keystroke	c	n/a
181.23	0.0895	362460	keystroke	l	n/a
181.514	0.0455	363028	keystroke	y	n/a
181.9495	0.06	363899	keystroke	Key.backspace	n/a
182.1295	0.075	364259	keystroke	Key.backspace	n/a
182.715	0.075	365430	keystroke	i	n/a
183.03	0.06	366060	keystroke	t	n/a
183.18	0.0745	366360	keystroke	y	n/a
183.869	0.075	367738	keystroke	Key.space	n/a
184.3645	0.075	368729	keystroke	d	n/a
185.01	0.059	370020	keystroke	e	n/a
185.4595	0.105	370919	keystroke	l	n/a
185.7	0.0595	371400	keystroke	u	n/a
186.1045	0.0895	372209	keystroke	x	n/a
186.48	0.075	372960	keystroke	e	n/a
186.765	0.0885	373530	keystroke	Key.space	n/a
187.065	0.06	374130	keystroke	c	n/a
187.2	0.09	374400	keystroke	o	n/a
187.4095	0.09	374819	keystroke	n	n/a
187.65	0.089	375300	keystroke	n	n/a
187.7995	0.0895	375599	keystroke	e	n/a
188.0255	0.0895	376051	keystroke	c	n/a
188.369	0.06	376738	keystroke	t	n/a
188.5195	0.0745	377039	keystroke	e	n/a
188.7	0.075	377400	keystroke	d	n/a
188.85	0.119	377700	keystroke	Key.space	n/a
189.104	0.061	378208	keystroke	s	n/a
189.285	0.06	378570	keystroke	t	n/a
189.45	0.06	378900	keystroke	u	n/a
189.6145	0.06	379229	keystroke	d	n/a
190.3345	0.075	380669	keystroke	Key.enter	n/a
190.4185	11.3025	380837	prompt	n/a	distinction sublime otherwise inclusion\n
191.144	0.0755	382288	keystroke	d	n/a
191.324	0.06	382648	keystroke	i	n/a
191.534	0.075	383068	keystroke	s	n/a
191.6995	0.075	383399	keystroke	t	n/a
191.9245	0.105	383849	keystroke	i	n/a
192.21	0.09	384420	keystroke	n	n/a
192.7045	0.075	385409	keystroke	c	n/a
192.9445	0.0745	385889	keystroke	t	n/a
193.124	0.0905	386248	keystroke	i	n/a
193.199	0.166	386398	keystroke	o	n/a
193.409	0.106	386818	keystroke	n	n/a
193.634	0.075	387268	keystroke	Key.space	n/a
193.874	0.061	387748	keystroke	s	n/a
194.07	0.09	388140	keystroke	u	n/a
194.3695	0.075	388739	keystroke	b	n/a
194.6395	0.105	389279	keystroke	l	n/a
194.834	0.091	389668	keystroke	i	n/a
195.029	0.075	390058	keystroke	n	n/a
195.5845	0.06	391169	keystroke	Key.backspace	n/a
195.7955	0.104	391591	keystroke	m	n/a
195.9445	0.0595	391889	keystroke	e	n/a
196.109	0.1055	392218	keystroke	Key.space	n/a
196.77	0.089	393540	keystroke	o	n/a
197.099	0.045	394198	keystroke	t	n/a
197.219	0.061	394438	keystroke	h	n/a
197.324	0.061	394648	keystroke	e	n/a
197.414	0.0905	394828	keystroke	r	n/a
197.7445	0.09	395489	keystroke	w	n/a
197.8945	0.075	395789	keystroke	i	n/a
198.105	0.09	396210	keystroke	s	n/a
198.254	0.09	396508	keystroke	e	n/a
198.705	0.059	397410	keystroke	Key.space	n/a
199.499	0.06	398998	keystroke	i	n/a
199.649	0.09	399298	keystroke	n	n/a
199.9645	0.0595	399929	keystroke	c	n/a
200.069	0.0765	400138	keystroke	l	n/a
200.28	0.06	400560	keystroke	u	n/a
200.4745	0.075	400949	keystroke	s	n/a
200.7295	0.0895	401459	keystroke	i	n/a
200.925	0.105	401850	keystroke	o	n/a
201.1345	0.0905	402269	keystroke	n	n/a
201.6445	0.0745	403289	keystroke	Key.enter	n/a
201.7255	11.291	403451	prompt	n/a	liabilities ride legitimate rack\n
202.7245	0.075	405449	keystroke	l	n/a
202.89	0.0895	405780	keystroke	i	n/a
203.55	0.089	407100	keystroke	b	n/a
204.104	0.0605	408208	keystroke	Key.backspace	n/a
204.194	0.09	408388	keystroke	a	n/a
204.4645	0.09	408929	keystroke	b	n/a
204.6595	0.09	409319	keystroke	i	n/a
204.9445	0.06	409889	keystroke	l	n/a
205.1545	0.135	410309	keystroke	i	n/a
205.4845	0.09	410969	keystroke	t	n/a
205.6345	0.091	411269	keystroke	i	n/a
205.8445	0.06	411689	keystroke	e	n/a
206.039	0.075	412078	keystroke	s	n/a
206.6545	0.1195	413309	keystroke	Key.space	n/a
207.059	0.0605	414118	keystroke	r	n/a
207.1945	0.075	414389	keystroke	i	n/a
207.329	0.075	414658	keystroke	d	n/a
207.5245	0.06	415049	keystroke	e	n/a
207.6445	0.1045	415289	keystroke	Key.space	n/a
207.9745	0.0755	415949	keystroke	d	n/a
208.424	0.0455	416848	keystroke	Key.backspace	n/a
208.649	0.075	417298	keystroke	l	n/a
208.874	0.0605	417748	keystroke	e	n/a
209.31	0.075	418620	keystroke	g	n/a
209.475	0.075	418950	keystroke	i	n/a
209.8945	0.075	419789	keystroke	t	n/a
210.045	0.1045	420090	keystroke	i	n/a
211.005	0.119	422010	keystroke	m	n/a
211.1845	0.09	422369	keystroke	a	n/a
211.3945	0.09	422789	keystroke	t	n/a
211.5145	0.0755	423029	keystroke	e	n/a
211.6345	0.105	423269	keystroke	Key.space	n/a
211.95	0.075	423900	keystroke	r	n/a
212.1145	0.0895	424229	keystroke	a	n/a
212.3555	0.0435	424711	keystroke	c	n/a
212.4745	0.0745	424949	keystroke	k	n/a
212.955	0.059	425910	keystroke	Key.enter	n/a
213.0205	14.666	426041	prompt	n/a	panasonic techrepublic pakistan static\n
213.87	0.09	427740	keystroke	p	n/a
214.1395	0.105	428279	keystroke	a	n/a
214.3345	0.06	428669	keystroke	n	n/a
214.56	0.09	429120	keystroke	a	n/a
214.8745	0.075	429749	keystroke	s	n/a
215.0095	0.09	430019	keystroke	o	n/a
215.1895	0.0905	430379	keystroke	n	n/a
215.5645	0.075	431129	keystroke	i	n/a
215.7295	0.0755	431459	keystroke	c	n/a
215.9095	0.0755	431819	keystroke	Key.space	n/a
216.315	0.06	432630	keystroke	t	n/a
216.465	0.045	432930	keystroke	h	n/a
217.109	0.0755	434218	keystroke	Key.backspace	n/a
217.215	0.075	434430	keystroke	e	n/a
217.65	0.075	435300	keystroke	c	n/a
217.799	0.06	435598	keystroke	h	n/a
218.2945	0.0745	436589	keystroke	r	n/a
218.984	0.091	437968	keystroke	e	n/a
219.404	0.12	438808	keystroke	p	n/a
219.6595	0.09	439319	keystroke	u	n/a
219.9145	0.06	439829	keystroke	b	n/a
220.0645	0.09	440129	keystroke	l	n/a
220.2295	0.09	440459	keystroke	i	n/a
220.3945	0.076	440789	keystroke	c	n/a
221.0995	0.105	442199	keystroke	Key.space	n/a
221.894	0.1505	443788	keystroke	p	n/a
222.1795	0.09	444359	keystroke	a	n/a
222.3745	0.075	444749	keystroke	k	n/a
222.6145	0.06	445229	keystroke	i	n/a
222.9295	0.075	445859	keystroke	s	n/a
223.1395	0.0755	446279	keystroke	t	n/a
223.38	0.0895	446760	keystroke	a	n/a
223.5445	0.075	447089	keystroke	n	n/a
224.0245	0.075	448049	keystroke	Key.space	n/a
224.4885	0.091	448977	keystroke	s	n/a
224.699	0.075	449398	keystroke	t	n/a
224.85	0.089	449700	keystroke	a	n/a
224.999	0.105	449998	keystroke	t	n/a
225.405	0.09	450810	keystroke	i	n/a
225.6	0.059	451200	keystroke	s	n/a
226.214	0.06	452428	keystroke	Key.backspace	n/a
226.3345	0.0595	452669	keystroke	c	n/a
227.6095	0.075	455219	keystroke	Key.enter	n/a
227.6915	12.834	455383	prompt	n/a	announce readily stanley tell\n
231.437	0.0425	462874	keystroke	a	n/a
232.05	0.0895	464100	keystroke	n	n/a
232.2445	0.12	464489	keystroke	n	n/a
232.4695	0.075	464939	keystroke	o	n/a
232.6795	0.06	465359	keystroke	u	n/a
232.949	0.06	465898	keystroke	n	n/a
233.1895	0.075	466379	keystroke	c	n/a
233.399	0.06	466798	keystroke	e	n/a
233.519	0.105	467038	keystroke	Key.space	n/a
233.8195	0.075	467639	keystroke	r	n/a
233.9245	0.105	467849	keystroke	e	n/a
234.1645	0.0895	468329	keystroke	a	n/a
234.405	0.074	468810	keystroke	d	n/a
234.675	0.09	469350	keystroke	i	n/a
234.915	0.105	469830	keystroke	l	n/a
235.245	0.059	470490	keystroke	y	n/a
235.544	0.075	471088	keystroke	Key.space	n/a
235.7695	0.09	471539	keystroke	s	n/a
235.934	0.09	471868	keystroke	t	n/a
236.085	0.0745	472170	keystroke	a	n/a
236.3845	0.0755	472769	keystroke	n	n/a
236.8045	0.06	473609	keystroke	e	n/a
236.8945	0.09	473789	keystroke	l	n/a
237.3145	0.0745	474629	keystroke	Key.backspace	n/a
237.524	0.06	475048	keystroke	Key.backspace	n/a
237.75	0.089	475500	keystroke	l	n/a
237.9	0.0595	475800	keystroke	e	n/a
238.0795	0.045	476159	keystroke	y	n/a
238.334	0.075	476668	keystroke	Key.space	n/a
238.7095	0.06	477419	keystroke	t	n/a
238.8145	0.105	477629	keystroke	e	n/a
239.055	0.06	478110	keystroke	l	n/a
239.2195	0.075	478439	keystroke	l	n/a
240.464	0.0595	480928	keystroke	Key.enter	n/a
240.5295	8.8465	481059	prompt	n/a	dial reviews france listprice\n
241.3045	0.0745	482609	keystroke	d	n/a
241.4395	0.09	482879	keystroke	i	n/a
241.6645	0.075	483329	keystroke	a	n/a
241.8145	0.075	483629	keystroke	l	n/a
242.129	0.075	484258	keystroke	Key.space	n/a
242.6995	0.1055	485399	keystroke	r	n/a
242.759	0.09	485518	keystroke	e	n/a
243.0895	0.075	486179	keystroke	v	n/a
243.239	0.0605	486478	keystroke	i	n/a
243.344	0.1055	486688	keystroke	e	n/a
243.4195	0.12	486839	keystroke	w	n/a
243.855	0.089	487710	keystroke	s	n/a
244.1395	0.1345	488279	keystroke	Key.space	n/a
244.6795	0.09	489359	keystroke	f	n/a
244.8885	0.091	489777	keystroke	r	n/a
245.0555	0.089	490111	keystroke	a	n/a
245.2645	0.075	490529	keystroke	n	n/a
245.5195	0.0745	491039	keystroke	c	n/a
245.8345	0.06	491669	keystroke	e	n/a
246.0445	0.1045	492089	keystroke	Key.space	n/a
246.644	0.0755	493288	keystroke	l	n/a
246.8245	0.0895	493649	keystroke	i	n/a
246.989	0.06	493978	keystroke	s	n/a
247.124	0.075	494248	keystroke	t	n/a
247.3795	0.1045	494759	keystroke	p	n/a
247.5895	0.0745	495179	keystroke	r	n/a
247.709	0.09	495418	keystroke	i	n/a
247.964	0.0755	495928	keystroke	c	n/a
248.174	0.0755	496348	keystroke	e	n/a
249.299	0.0755	498598	keystroke	Key.enter	n/a
249.3805	8.1705	498761	prompt	n/a	ma'am cingular board gear\n
250.2145	0.09	500429	keystroke	m	n/a
250.4545	0.045	500909	keystroke	a	n/a
250.9645	0.12	501929	keystroke	'	n/a
251.5345	0.075	503069	keystroke	a	n/a
251.6395	0.09	503279	keystroke	m	n/a
251.9245	0.075	503849	keystroke	Key.space	n/a
252.2995	0.075	504599	keystroke	c	n/a
252.5845	0.12	505169	keystroke	i	n/a
252.8095	0.1045	505619	keystroke	n	n/a
253.2145	0.1045	506429	keystroke	g	n/a
253.455	0.074	506910	keystroke	u	n/a
253.7095	0.0745	507419	keystroke	l	n/a
253.844	0.091	507688	keystroke	a	n/a
254.009	0.0905	508018	keystroke	r	n/a
254.1295	0.135	508259	keystroke	Key.space	n/a
254.6395	0.075	509279	keystroke	b	n/a
254.9095	0.06	509819	keystroke	o	n/a
255.075	0.0745	510150	keystroke	a	n/a
255.2095	0.09	510419	keystroke	r	n/a
255.4795	0.0605	510959	keystroke	d	n/a
256.0045	0.09	512009	keystroke	Key.space	n/a
256.6795	0.045	513359	keystroke	g	n/a
256.8435	0.061	513687	keystroke	e	n/a
257.0095	0.0755	514019	keystroke	a	n/a
257.2045	0.06	514409	keystroke	r	n/a
257.4895	0.06	514979	keystroke	Key.enter	n/a
257.555	10.3315	515110	prompt	n/a	psychology doing released recovery\n
258.3295	0.09	516659	keystroke	p	n/a
258.734	0.0755	517468	keystroke	s	n/a
258.8845	0.075	517769	keystroke	y	n/a
259.47	0.045	518940	keystroke	c	n/a
259.6045	0.06	519209	keystroke	h	n/a
259.8595	0.075	519719	keystroke	o	n/a
260.1295	0.075	520259	keystroke	l	n/a
260.3395	0.105	520679	keystroke	o	n/a
260.6095	0.0595	521219	keystroke	g	n/a
260.789	0.045	521578	keystroke	y	n/a
261.1945	0.1045	522389	keystroke	Key.space	n/a
261.494	0.0605	522988	keystroke	d	n/a
261.5995	0.0595	523199	keystroke	o	n/a
261.8095	0.09	523619	keystroke	i	n/a
262.0335	0.091	524067	keystroke	n	n/a
262.1395	0.059	524279	keystroke	g	n/a
262.3935	0.015	524787	keystroke	Key.space	n/a
262.5595	0.09	525119	keystroke	r	n/a
262.6345	0.12	525269	keystroke	e	n/a
262.8295	0.075	525659	keystroke	l	n/a
262.9795	0.0895	525959	keystroke	e	n/a
263.159	0.1045	526318	keystroke	a	n/a
263.279	0.1495	526558	keystroke	s	n/a
263.4295	0.105	526859	keystroke	e	n/a
263.8045	0.06	527609	keystroke	d	n/a
263.9985	0.0755	527997	keystroke	Key.space	n/a
264.6145	0.0295	529229	keystroke	d	n/a
264.974	0.0455	529948	keystroke	Key.backspace	n/a
265.08	0.0895	530160	keystroke	r	n/a
265.184	0.09	530368	keystroke	e	n/a
265.4545	0.0595	530909	keystroke	c	n/a
265.6495	0.06	531299	keystroke	o	n/a
265.8595	0.075	531719	keystroke	v	n/a
266.0245	0.0895	532049	keystroke	e	n/a
266.0995	0.105	532199	keystroke	r	n/a
266.3845	0.044	532769	keystroke	y	n/a
266.3985	0.0155	532797	keystroke	t	n/a
267.1035	0.091	534207	keystroke	Key.backspace	n/a
267.8245	0.0595	535649	keystroke	Key.enter	n/a
267.891	7.825	535782	prompt	n/a	latitude combo motels fifth\n
268.7545	0.075	537509	keystroke	l	n/a
268.86	0.0745	537720	keystroke	a	n/a
269.0245	0.075	538049	keystroke	t	n/a
269.2045	0.06	538409	keystroke	i	n/a
269.369	0.0755	538738	keystroke	t	n/a
269.8495	0.059	539699	keystroke	u	n/a
270.2395	0.06	540479	keystroke	d	n/a
270.4205	0.074	540841	keystroke	e	n/a
270.599	0.105	541198	keystroke	Key.space	n/a
270.9145	0.0445	541829	keystroke	c	n/a
270.9895	0.105	541979	keystroke	o	n/a
271.1385	0.1205	542277	keystroke	m	n/a
271.4985	0.076	542997	keystroke	b	n/a
271.6485	0.076	543297	keystroke	o	n/a
271.9785	0.0755	543957	keystroke	Key.space	n/a
272.294	0.09	544588	keystroke	m	n/a
272.504	0.0605	545008	keystroke	o	n/a
272.759	0.06	545518	keystroke	t	n/a
272.9995	0.09	545999	keystroke	e	n/a
273.1645	0.09	546329	keystroke	l	n/a
273.3895	0.075	546779	keystroke	s	n/a
273.584	0.0895	547168	keystroke	Key.space	n/a
273.8985	0.076	547797	keystroke	f	n/a
274.0485	0.075	548097	keystroke	i	n/a
274.784	0.0905	549568	keystroke	f	n/a
275.129	0.06	550258	keystroke	t	n/a
275.279	0.045	550558	keystroke	h	n/a
275.6685	0.045	551337	keystroke	Key.enter	n/a
275.7195	8.921	551439	prompt	n/a	payable later miscellaneous alias\n
276.825	0.089	553650	keystroke	p	n/a
276.944	0.09	553888	keystroke	a	n/a
277.124	0.0605	554248	keystroke	y	n/a
277.559	0.0905	555118	keystroke	a	n/a
277.769	0.075	555538	keystroke	b	n/a
277.949	0.075	555898	keystroke	l	n/a
278.084	0.0605	556168	keystroke	e	n/a
278.249	0.1055	556498	keystroke	Key.space	n/a
278.4895	0.0745	556979	keystroke	l	n/a
278.639	0.091	557278	keystroke	a	n/a
278.8195	0.09	557639	keystroke	t	n/a
278.969	0.0595	557938	keystroke	e	n/a
279.059	0.0905	558118	keystroke	r	n/a
279.2085	0.106	558417	keystroke	Key.space	n/a
279.584	0.0905	559168	keystroke	m	n/a
279.8245	0.1045	559649	keystroke	i	n/a
280.064	0.0905	560128	keystroke	s	n/a
280.3785	0.076	560757	keystroke	c	n/a
280.649	0.0455	561298	keystroke	e	n/a
280.7995	0.059	561599	keystroke	l	n/a
280.9645	0.104	561929	keystroke	l	n/a
281.159	0.0905	562318	keystroke	a	n/a
281.3395	0.074	562679	keystroke	n	n/a
282.0745	0.06	564149	keystroke	e	n/a
282.2085	0.106	564417	keystroke	o	n/a
282.419	0.0755	564838	keystroke	u	n/a
282.629	0.0745	565258	keystroke	s	n/a
282.974	0.09	565948	keystroke	Key.space	n/a
283.349	0.09	566698	keystroke	a	n/a
283.5445	0.0895	567089	keystroke	l	n/a
283.7685	0.091	567537	keystroke	i	n/a
283.994	0.0745	567988	keystroke	a	n/a
284.2045	0.089	568409	keystroke	s	n/a
284.579	0.0595	569158	keystroke	Key.enter	n/a
284.644	11.367	569288	prompt	n/a	straight pulling terrorist caution\n
285.5245	0.074	571049	keystroke	s	n/a
285.7045	0.06	571409	keystroke	t	n/a
285.8395	0.09	571679	keystroke	r	n/a
286.1845	0.074	572369	keystroke	i	n/a
286.4095	0.104	572819	keystroke	a	n/a
286.7695	0.044	573539	keystroke	Key.backspace	n/a
286.9485	0.061	573897	keystroke	Key.backspace	n/a
286.9945	0.09	573989	keystroke	a	n/a
287.2045	0.075	574409	keystroke	i	n/a
287.3545	0.075	574709	keystroke	g	n/a
287.684	0.0605	575368	keystroke	h	n/a
288.029	0.075	576058	keystroke	t	n/a
288.299	0.105	576598	keystroke	Key.space	n/a
288.614	0.105	577228	keystroke	p	n/a
288.839	0.075	577678	keystroke	u	n/a
289.139	0.1055	578278	keystroke	l	n/a
289.349	0.105	578698	keystroke	l	n/a
289.544	0.075	579088	keystroke	i	n/a
289.679	0.105	579358	keystroke	n	n/a
289.7995	0.0895	579599	keystroke	g	n/a
289.919	0.105	579838	keystroke	Key.space	n/a
290.339	0.0755	580678	keystroke	t	n/a
290.5495	0.0445	581099	keystroke	e	n/a
290.6395	0.1045	581279	keystroke	r	n/a
290.8795	0.075	581759	keystroke	r	n/a
291.059	0.06	582118	keystroke	o	n/a
291.225	0.0895	582450	keystroke	r	n/a
291.494	0.075	582988	keystroke	i	n/a
291.7795	0.105	583559	keystroke	s	n/a
291.929	0.09	583858	keystroke	t	n/a
292.4245	0.119	584849	keystroke	Key.space	n/a
292.6795	0.075	585359	keystroke	c	n/a
292.8585	0.061	585717	keystroke	a	n/a
293.0545	0.089	586109	keystroke	u	n/a
294.044	0.0755	588088	keystroke	t	n/a
294.164	0.0905	588328	keystroke	i	n/a
294.2695	0.1355	588539	keystroke	o	n/a
294.4495	0.09	588899	keystroke	n	n/a
295.949	0.06	591898	keystroke	Key.enter	n/a
296.016	9.3845	592032	prompt	n/a	lancaster swiss bite cycling\n
296.8635	0.076	593727	keystroke	l	n/a
297.0285	0.091	594057	keystroke	a	n/a
297.1345	0.06	594269	keystroke	n	n/a
297.4485	0.076	594897	keystroke	c	n/a
297.8695	0.09	595739	keystroke	a	n/a
298.0345	0.09	596069	keystroke	s	n/a
298.2595	0.09	596519	keystroke	t	n/a
298.4695	0.075	596939	keystroke	e	n/a
298.5295	0.075	597059	keystroke	r	n/a
298.769	0.1055	597538	keystroke	Key.space	n/a
299.0395	0.09	598079	keystroke	s	n/a
299.3095	0.075	598619	keystroke	w	n/a
299.5045	0.06	599009	keystroke	i	n/a
299.9695	0.075	599939	keystroke	s	n/a
300.1335	0.09	600267	keystroke	s	n/a
300.2535	0.121	600507	keystroke	Key.space	n/a
300.659	0.06	601318	keystroke	b	n/a
300.929	0.075	601858	keystroke	i	n/a
301.1385	0.076	602277	keystroke	t	n/a
301.2285	0.09	602457	keystroke	e	n/a
301.5895	0.0745	603179	keystroke	Key.space	n/a
302.294	0.0605	604588	keystroke	c	n/a
302.4595	0.044	604919	keystroke	y	n/a
303.1195	0.06	606239	keystroke	c	n/a
303.2995	0.0745	606599	keystroke	l	n/a
303.479	0.0745	606958	keystroke	i	n/a
303.659	0.1045	607318	keystroke	n	n/a
303.8395	0.075	607679	keystroke	g	n/a
305.3385	0.06	610677	keystroke	Key.enter	n/a
305.4075	9.743	610815	prompt	n/a	syria wives version laboratory\n
306.4045	0.0595	612809	keystroke	s	n/a
306.5235	0.045	613047	keystroke	y	n/a
306.869	0.075	613738	keystroke	r	n/a
307.109	0.06	614218	keystroke	i	n/a
307.3945	0.0595	614789	keystroke	a	n/a
307.604	0.0745	615208	keystroke	Key.space	n/a
308.2485	0.091	616497	keystroke	w	n/a
308.4735	0.076	616947	keystroke	i	n/a
308.8185	0.061	617637	keystroke	v	n/a
309.0295	0.075	618059	keystroke	e	n/a
309.4185	0.076	618837	keystroke	s	n/a
309.794	0.09	619588	keystroke	Key.space	n/a
310.109	0.0895	620218	keystroke	v	n/a
310.364	0.075	620728	keystroke	e	n/a
310.484	0.09	620968	keystroke	r	n/a
310.769	0.03	621538	keystroke	s	n/a
310.8895	0.09	621779	keystroke	i	n/a
310.994	0.1655	621988	keystroke	o	n/a
311.189	0.09	622378	keystroke	n	n/a
311.384	0.075	622768	keystroke	Key.space	n/a
311.549	0.0755	623098	keystroke	a	n/a
312.0745	0.059	624149	keystroke	Key.backspace	n/a
312.3445	0.09	624689	keystroke	l	n/a
312.5395	0.075	625079	keystroke	a	n/a
312.7345	0.09	625469	keystroke	b	n/a
312.9285	0.075	625857	keystroke	o	n/a
313.1085	0.09	626217	keystroke	r	n/a
313.349	0.075	626698	keystroke	a	n/a
313.739	0.12	627478	keystroke	t	n/a
313.904	0.0895	627808	keystroke	o	n/a
314.0545	0.0745	628109	keystroke	r	n/a
314.324	0.045	628648	keystroke	y	n/a
315.089	0.06	630178	keystroke	Key.enter	n/a
315.162	8.9445	630324	prompt	n/a	nepal getting temperature cingular\n
315.9735	0.0605	631947	keystroke	n	n/a
316.109	0.06	632218	keystroke	e	n/a
316.469	0.0895	632938	keystroke	p	n/a
316.6485	0.075	633297	keystroke	a	n/a
316.859	0.0745	633718	keystroke	l	n/a
317.2035	0.075	634407	keystroke	Key.space	n/a
317.7895	0.0595	635579	keystroke	g	n/a
317.939	0.06	635878	keystroke	e	n/a
318.119	0.075	636238	keystroke	t	n/a
318.344	0.06	636688	keystroke	t	n/a
318.434	0.075	636868	keystroke	i	n/a
318.599	0.075	637198	keystroke	n	n/a
318.719	0.075	637438	keystroke	g	n/a
318.854	0.12	637708	keystroke	Key.space	n/a
319.139	0.075	638278	keystroke	t	n/a
319.319	0.06	638638	keystroke	e	n/a
319.634	0.0905	639268	keystroke	m	n/a
319.8585	0.091	639717	keystroke	p	n/a
320.0535	0.0755	640107	keystroke	e	n/a
320.1735	0.09	640347	keystroke	r	n/a
320.5045	0.089	641009	keystroke	a	n/a
320.7735	0.075	641547	keystroke	t	n/a
320.9695	0.0595	641939	keystroke	u	n/a
321.1645	0.074	642329	keystroke	r	n/a
321.2535	0.075	642507	keystroke	e	n/a
321.599	0.0895	643198	keystroke	Key.space	n/a
322.0945	0.074	644189	keystroke	c	n/a
322.2145	0.089	644429	keystroke	i	n/a
322.4245	0.1195	644849	keystroke	n	n/a
322.68	0.0585	645360	keystroke	g	n/a
322.844	0.045	645688	keystroke	u	n/a
323.084	0.09	646168	keystroke	l	n/a
323.3085	0.0755	646617	keystroke	a	n/a
323.4585	0.075	646917	keystroke	r	n/a
324.0295	0.0745	648059	keystroke	Key.enter	n/a
324.1105	8.5155	648221	prompt	n/a	guild linked names coordinates\n
324.959	0.06	649918	keystroke	g	n/a
325.064	0.075	650128	keystroke	u	n/a
325.2585	0.106	650517	keystroke	i	n/a
325.4395	0.12	650879	keystroke	l	n/a
325.634	0.06	651268	keystroke	d	n/a
325.979	0.09	651958	keystroke	Key.space	n/a
326.6085	0.09	653217	keystroke	l	n/a
326.7735	0.091	653547	keystroke	i	n/a
326.954	0.105	653908	keystroke	n	n/a
327.179	0.09	654358	keystroke	k	n/a
327.4045	0.0895	654809	keystroke	e	n/a
327.5995	0.0895	655199	keystroke	d	n/a
327.779	0.105	655558	keystroke	Key.space	n/a
328.304	0.0605	656608	keystroke	n	n/a
328.394	0.09	656788	keystroke	a	n/a
328.544	0.075	657088	keystroke	m	n/a
328.709	0.075	657418	keystroke	e	n/a
328.9345	0.0745	657869	keystroke	s	n/a
329.084	0.09	658168	keystroke	Key.space	n/a
329.489	0.06	658978	keystroke	c	n/a
329.6685	0.09	659337	keystroke	o	n/a
329.9535	0.0755	659907	keystroke	o	n/a
330.1045	0.089	660209	keystroke	r	n/a
330.524	0.03	661048	keystroke	d	n/a
330.7485	0.075	661497	keystroke	i	n/a
330.9135	0.106	661827	keystroke	n	n/a
331.108	0.077	662216	keystroke	a	n/a
331.349	0.09	662698	keystroke	t	n/a
331.484	0.09	662968	keystroke	e	n/a
331.709	0.075	663418	keystroke	s	n/a
332.564	0.06	665128	keystroke	Key.enter	n/a
332.6305	7.63	665261	prompt	n/a	pamela higher citation fence\n
333.5235	0.105	667047	keystroke	p	n/a
333.689	0.09	667378	keystroke	a	n/a
333.7945	0.1045	667589	keystroke	m	n/a
334.1085	0.075	668217	keystroke	e	n/a
334.409	0.0905	668818	keystroke	l	n/a
334.6635	0.106	669327	keystroke	a	n/a
334.9635	0.06	669927	keystroke	Key.space	n/a
335.3085	0.06	670617	keystroke	h	n/a
335.4745	0.09	670949	keystroke	i	n/a
335.8185	0.076	671637	keystroke	g	n/a
335.9385	0.076	671877	keystroke	h	n/a
336.2085	0.0755	672417	keystroke	e	n/a
336.3285	0.0905	672657	keystroke	r	n/a
336.6595	0.0745	673319	keystroke	Key.space	n/a
337.1245	0.044	674249	keystroke	c	n/a
337.2145	0.089	674429	keystroke	i	n/a
337.4535	0.075	674907	keystroke	t	n/a
337.739	0.09	675478	keystroke	a	n/a
338.0235	0.06	676047	keystroke	t	n/a
338.1285	0.09	676257	keystroke	i	n/a
338.2035	0.135	676407	keystroke	o	n/a
338.3985	0.09	676797	keystroke	n	n/a
338.564	0.0895	677128	keystroke	Key.space	n/a
338.684	0.075	677368	keystroke	f	n/a
338.8195	0.0595	677639	keystroke	e	n/a
338.9685	0.09	677937	keystroke	n	n/a
339.224	0.0595	678448	keystroke	c	n/a
339.5845	0.0445	679169	keystroke	e	n/a
340.214	0.045	680428	keystroke	Key.enter	n/a
340.2645	8.2455	680529	prompt	n/a	media query bubble injuries\n
341.1745	0.0895	682349	keystroke	m	n/a
341.309	0.075	682618	keystroke	e	n/a
341.5335	0.075	683067	keystroke	d	n/a
341.714	0.06	683428	keystroke	i	n/a
342.104	0.0745	684208	keystroke	a	n/a
342.269	0.075	684538	keystroke	Key.space	n/a
342.7335	0.0905	685467	keystroke	q	n/a
342.8695	0.0595	685739	keystroke	u	n/a
343.0945	0.059	686189	keystroke	e	n/a
343.1985	0.0755	686397	keystroke	r	n/a
343.3635	0.061	686727	keystroke	y	n/a
343.619	0.09	687238	keystroke	Key.space	n/a
343.8435	0.06	687687	keystroke	b	n/a
344.0085	0.06	688017	keystroke	u	n/a
344.489	0.075	688978	keystroke	b	n/a
344.684	0.075	689368	keystroke	b	n/a
344.774	0.09	689548	keystroke	l	n/a
344.938	0.06	689876	keystroke	e	n/a
345.028	0.105	690056	keystroke	Key.space	n/a
345.209	0.075	690418	keystroke	i	n/a
345.359	0.105	690718	keystroke	n	n/a
345.974	0.105	691948	keystroke	j	n/a
346.244	0.075	692488	keystroke	u	n/a
346.633	0.076	693266	keystroke	r	n/a
346.829	0.075	693658	keystroke	i	n/a
347.3685	0.06	694737	keystroke	e	n/a
347.5635	0.0605	695127	keystroke	s	n/a
348.4485	0.06	696897	keystroke	Key.enter	n/a
348.514	9.5065	697028	prompt	n/a	experiencing lloyd proportion estate\n
349.244	0.075	698488	keystroke	e	n/a
349.454	0.0905	698908	keystroke	x	n/a
349.604	0.1045	699208	keystroke	p	n/a
349.7545	0.074	699509	keystroke	e	n/a
349.8585	0.09	699717	keystroke	r	n/a
349.9935	0.075	699987	keystroke	i	n/a
350.204	0.0745	700408	keystroke	e	n/a
350.3535	0.0755	700707	keystroke	n	n/a
350.579	0.0595	701158	keystroke	c	n/a
350.789	0.06	701578	keystroke	e	n/a
351.3435	0.045	702687	keystroke	Key.backspace	n/a
351.584	0.06	703168	keystroke	i	n/a
351.749	0.105	703498	keystroke	n	n/a
351.839	0.06	703678	keystroke	g	n/a
352.019	0.075	704038	keystroke	Key.space	n/a
352.2895	0.0895	704579	keystroke	l	n/a
352.544	0.12	705088	keystroke	l	n/a
352.784	0.075	705568	keystroke	o	n/a
353.024	0.09	706048	keystroke	y	n/a
353.684	0.045	707368	keystroke	d	n/a
354.029	0.0895	708058	keystroke	Key.space	n/a
354.3285	0.091	708657	keystroke	p	n/a
354.569	0.06	709138	keystroke	r	n/a
354.659	0.09	709318	keystroke	o	n/a
354.899	0.09	709798	keystroke	p	n/a
355.1835	0.091	710367	keystroke	o	n/a
355.394	0.0905	710788	keystroke	r	n/a
355.6645	0.06	711329	keystroke	t	n/a
355.814	0.075	711628	keystroke	i	n/a
355.889	0.165	711778	keystroke	o	n/a
356.0835	0.105	712167	keystroke	n	n/a
356.294	0.0895	712588	keystroke	Key.space	n/a
356.4895	0.0745	712979	keystroke	e	n/a
356.728	0.0755	713456	keystroke	s	n/a
356.9245	0.0745	713849	keystroke	t	n/a
357.089	0.0755	714178	keystroke	a	n/a
357.2245	0.0895	714449	keystroke	t	n/a
357.359	0.045	714718	keystroke	e	n/a
357.9585	0.06	715917	keystroke	Key.enter	n/a
358.024	9.4615	716048	prompt	n/a	labor pickup explosion perspectives\n
358.7385	0.0905	717477	keystroke	l	n/a
358.8585	0.0455	717717	keystroke	a	n/a
359.0085	0.0905	718017	keystroke	b	n/a
359.1295	0.074	718259	keystroke	o	n/a
359.354	0.06	718708	keystroke	r	n/a
359.489	0.1195	718978	keystroke	Key.space	n/a
359.728	0.046	719456	keystroke	i	n/a
360.2985	0.06	720597	keystroke	Key.backspace	n/a
360.5545	0.105	721109	keystroke	p	n/a
360.794	0.0905	721588	keystroke	i	n/a
361.0335	0.0605	722067	keystroke	c	n/a
361.1545	0.074	722309	keystroke	k	n/a
361.4685	0.075	722937	keystroke	u	n/a
361.6485	0.09	723297	keystroke	p	n/a
361.8885	0.075	723777	keystroke	Key.space	n/a
362.1135	0.075	724227	keystroke	e	n/a
362.3235	0.09	724647	keystroke	x	n/a
362.4735	0.091	724947	keystroke	p	n/a
362.6985	0.0755	725397	keystroke	l	n/a
362.9085	0.075	725817	keystroke	o	n/a
363.4785	0.09	726957	keystroke	s	n/a
363.6285	0.075	727257	keystroke	i	n/a
363.748	0.136	727496	keystroke	o	n/a
363.959	0.105	727918	keystroke	n	n/a
364.244	0.105	728488	keystroke	Key.space	n/a
364.499	0.09	728998	keystroke	p	n/a
364.664	0.06	729328	keystroke	e	n/a
364.7685	0.09	729537	keystroke	r	n/a
365.0385	0.0755	730077	keystroke	s	n/a
365.279	0.1345	730558	keystroke	p	n/a
365.4895	0.074	730979	keystroke	e	n/a
365.684	0.075	731368	keystroke	c	n/a
365.894	0.0605	731788	keystroke	t	n/a
365.999	0.06	731998	keystroke	i	n/a
366.194	0.06	732388	keystroke	v	n/a
366.344	0.0755	732688	keystroke	e	n/a
366.539	0.075	733078	keystroke	s	n/a
367.424	0.0595	734848	keystroke	Key.enter	n/a
367.489	12.7315	734978	prompt	n/a	housewives defines disciplinary dispatch\n
368.369	0.06	736738	keystroke	h	n/a
368.5035	0.09	737007	keystroke	o	n/a
368.669	0.0745	737338	keystroke	u	n/a
368.9385	0.09	737877	keystroke	s	n/a
369.299	0.0445	738598	keystroke	e	n/a
369.764	0.06	739528	keystroke	w	n/a
369.959	0.075	739918	keystroke	i	n/a
370.1685	0.075	740337	keystroke	v	n/a
370.3785	0.075	740757	keystroke	e	n/a
370.634	0.06	741268	keystroke	s	n/a
370.9785	0.105	741957	keystroke	Key.space	n/a
371.4595	0.06	742919	keystroke	d	n/a
371.638	0.0605	743276	keystroke	e	n/a
371.849	0.0745	743698	keystroke	f	n/a
372.029	0.06	744058	keystroke	i	n/a
372.164	0.12	744328	keystroke	n	n/a
372.779	0.059	745558	keystroke	e	n/a
372.974	0.0745	745948	keystroke	s	n/a
373.168	0.1205	746336	keystroke	Key.space	n/a
373.514	0.0745	747028	keystroke	d	n/a
373.6195	0.0895	747239	keystroke	i	n/a
373.7985	0.106	747597	keystroke	s	n/a
374.144	0.0595	748288	keystroke	c	n/a
374.3695	0.119	748739	keystroke	i	n/a
374.6085	0.09	749217	keystroke	p	n/a
375.0135	0.09	750027	keystroke	l	n/a
375.2235	0.121	750447	keystroke	i	n/a
375.464	0.0895	750928	keystroke	n	n/a
375.6745	0.074	751349	keystroke	a	n/a
375.8995	0.059	751799	keystroke	r	n/a
376.0935	0.06	752187	keystroke	y	n/a
376.4835	0.09	752967	keystroke	Key.space	n/a
376.7985	0.0605	753597	keystroke	d	n/a
376.9035	0.0905	753807	keystroke	i	n/a
377.0685	0.075	754137	keystroke	s	n/a
377.3835	0.0915	754767	keystroke	p	n/a
377.624	0.0905	755248	keystroke	a	n/a
377.9095	0.059	755819	keystroke	t	n/a
378.194	0.06	756388	keystroke	c	n/a
378.3135	0.0755	756627	keystroke	h	n/a
380.144	0.075	760288	keystroke	Key.enter	n/a
380.225	7.81	760450	prompt	n/a	bargain tips heritage humanity\n
381.389	0.075	762778	keystroke	b	n/a
381.584	0.0745	763168	keystroke	a	n/a
381.6735	0.09	763347	keystroke	r	n/a
382.004	0.0595	764008	keystroke	g	n/a
382.153	0.09	764306	keystroke	a	n/a
382.303	0.0915	764606	keystroke	i	n/a
382.4685	0.09	764937	keystroke	n	n/a
382.6635	0.09	765327	keystroke	Key.space	n/a
382.934	0.0745	765868	keystroke	t	n/a
383.0385	0.09	766077	keystroke	i	n/a
383.2185	0.105	766437	keystroke	p	n/a
383.4285	0.075	766857	keystroke	s	n/a
383.5935	0.1055	767187	keystroke	Key.space	n/a
383.8345	0.059	767669	keystroke	h	n/a
383.9385	0.075	767877	keystroke	e	n/a
384.0435	0.09	768087	keystroke	r	n/a
384.269	0.075	768538	keystroke	i	n/a
384.5535	0.061	769107	keystroke	t	n/a
384.7485	0.105	769497	keystroke	a	n/a
385.0185	0.0755	770037	keystroke	g	n/a
385.1685	0.06	770337	keystroke	e	n/a
385.379	0.0895	770758	keystroke	Key.space	n/a
385.664	0.0445	771328	keystroke	h	n/a
385.9935	0.075	771987	keystroke	u	n/a
386.234	0.09	772468	keystroke	m	n/a
386.488	0.061	772976	keystroke	a	n/a
386.653	0.061	773306	keystroke	n	n/a
386.849	0.074	773698	keystroke	i	n/a
387.089	0.075	774178	keystroke	t	n/a
387.254	0.06	774508	keystroke	y	n/a
387.9735	0.06	775947	keystroke	Key.enter	n/a
388.039	9.461	776078	prompt	n/a	promo department creature consist\n
388.6935	0.09	777387	keystroke	p	n/a
388.8735	0.0605	777747	keystroke	r	n/a
388.9635	0.105	777927	keystroke	o	n/a
389.204	0.029	778408	keystroke	n	n/a
389.2185	0.0755	778437	keystroke	m	n/a
389.4145	0.074	778829	keystroke	p	n/a
389.8785	0.0305	779757	keystroke	Key.backspace	n/a
390.044	0.044	780088	keystroke	Key.backspace	n/a
390.538	0.06	781076	keystroke	Key.backspace	n/a
390.839	0.089	781678	keystroke	m	n/a
391.0785	0.09	782157	keystroke	o	n/a
391.453	0.1055	782906	keystroke	Key.space	n/a
391.9785	0.0895	783957	keystroke	d	n/a
392.2485	0.09	784497	keystroke	e	n/a
392.4735	0.09	784947	keystroke	p	n/a
392.7885	0.075	785577	keystroke	a	n/a
392.9235	0.105	785847	keystroke	r	n/a
393.194	0.075	786388	keystroke	t	n/a
393.404	0.105	786808	keystroke	m	n/a
393.599	0.075	787198	keystroke	e	n/a
393.704	0.0745	787408	keystroke	n	n/a
393.884	0.0595	787768	keystroke	t	n/a
393.9735	0.105	787947	keystroke	Key.space	n/a
394.2285	0.06	788457	keystroke	c	n/a
394.4385	0.0755	788877	keystroke	r	n/a
394.514	0.1045	789028	keystroke	e	n/a
394.6785	0.0605	789357	keystroke	a	n/a
394.7685	0.09	789537	keystroke	t	n/a
395.009	0.0445	790018	keystroke	u	n/a
395.1585	0.075	790317	keystroke	r	n/a
395.2185	0.075	790437	keystroke	e	n/a
395.4135	0.0905	790827	keystroke	Key.space	n/a
395.6535	0.075	791307	keystroke	c	n/a
395.819	0.09	791638	keystroke	o	n/a
396.014	0.089	792028	keystroke	n	n/a
396.164	0.0895	792328	keystroke	s	n/a
396.329	0.075	792658	keystroke	i	n/a
396.4785	0.105	792957	keystroke	s	n/a
396.7185	0.0605	793437	keystroke	t	n/a
397.438	0.06	794876	keystroke	Key.enter	n/a
397.505	9.116	795010	prompt	n/a	vermont classroom stretch retired\n
398.2785	0.075	796557	keystroke	v	n/a
398.4435	0.076	796887	keystroke	e	n/a
398.549	0.075	797098	keystroke	r	n/a
398.684	0.09	797368	keystroke	m	n/a
398.864	0.1045	797728	keystroke	o	n/a
399.043	0.0915	798086	keystroke	n	n/a
399.689	0.06	799378	keystroke	t	n/a
399.854	0.105	799708	keystroke	Key.space	n/a
400.139	0.06	800278	keystroke	c	n/a
400.274	0.09	800548	keystroke	l	n/a
400.4085	0.1055	800817	keystroke	a	n/a
400.604	0.075	801208	keystroke	s	n/a
400.844	0.014	801688	keystroke	s	n/a
401.009	0.06	802018	keystroke	r	n/a
401.174	0.06	802348	keystroke	o	n/a
401.459	0.09	802918	keystroke	o	n/a
401.7435	0.105	803487	keystroke	m	n/a
402.058	0.09	804116	keystroke	Key.space	n/a
402.358	0.0755	804716	keystroke	s	n/a
402.554	0.074	805108	keystroke	t	n/a
402.764	0.0745	805528	keystroke	r	n/a
402.898	0.09	805796	keystroke	e	n/a
403.439	0.06	806878	keystroke	t	n/a
403.754	0.0595	807508	keystroke	c	n/a
403.9335	0.075	807867	keystroke	h	n/a
404.774	0.09	809548	keystroke	Key.space	n/a
405.074	0.075	810148	keystroke	r	n/a
405.164	0.0895	810328	keystroke	e	n/a
405.434	0.06	810868	keystroke	t	n/a
405.5685	0.075	811137	keystroke	i	n/a
405.7185	0.075	811437	keystroke	r	n/a
405.7935	0.075	811587	keystroke	e	n/a
406.049	0.0595	812098	keystroke	d	n/a
406.5585	0.0605	813117	keystroke	Key.enter	n/a
406.6275	8.9475	813255	prompt	n/a	mime understood layers filter\n
407.4435	0.075	814887	keystroke	m	n/a
407.6835	0.0455	815367	keystroke	i	n/a
408.0435	0.09	816087	keystroke	m	n/a
408.4035	0.06	816807	keystroke	e	n/a
408.6435	0.0905	817287	keystroke	Key.space	n/a
409.184	0.06	818368	keystroke	u	n/a
409.394	0.089	818788	keystroke	n	n/a
409.5585	0.0905	819117	keystroke	d	n/a
409.7535	0.046	819507	keystroke	e	n/a
409.8145	0.089	819629	keystroke	r	n/a
410.069	0.0745	820138	keystroke	s	n/a
410.2485	0.06	820497	keystroke	t	n/a
410.3685	0.0905	820737	keystroke	o	n/a
410.7285	0.09	821457	keystroke	o	n/a
410.924	0.06	821848	keystroke	d	n/a
411.374	0.09	822748	keystroke	Key.space	n/a
411.584	0.1045	823168	keystroke	l	n/a
411.749	0.0755	823498	keystroke	a	n/a
411.9435	0.045	823887	keystroke	y	n/a
412.258	0.0605	824516	keystroke	e	n/a
412.378	0.076	824756	keystroke	r	n/a
412.648	0.06	825296	keystroke	s	n/a
412.783	0.106	825566	keystroke	Key.space	n/a
413.008	0.06	826016	keystroke	f	n/a
413.128	0.075	826256	keystroke	i	n/a
413.338	0.09	826676	keystroke	l	n/a
413.548	0.075	827096	keystroke	t	n/a
413.7585	0.045	827517	keystroke	e	n/a
413.819	0.0745	827638	keystroke	r	n/a
415.5135	0.06	831027	keystroke	Key.enter	n/a
415.579	9.206	831158	prompt	n/a	contribute design alerts blackjack\n
416.369	0.06	832738	keystroke	c	n/a
416.519	0.0895	833038	keystroke	o	n/a
416.684	0.09	833368	keystroke	n	n/a
416.9835	0.045	833967	keystroke	t	n/a
417.1035	0.0755	834207	keystroke	r	n/a
417.224	0.1045	834448	keystroke	i	n/a
417.4935	0.06	834987	keystroke	b	n/a
417.6585	0.06	835317	keystroke	u	n/a
417.8535	0.09	835707	keystroke	t	n/a
417.974	0.0745	835948	keystroke	e	n/a
418.184	0.105	836368	keystroke	Key.space	n/a
418.379	0.059	836758	keystroke	d	n/a
418.588	0.046	837176	keystroke	e	n/a
418.799	0.0755	837598	keystroke	s	n/a
418.949	0.06	837898	keystroke	i	n/a
419.114	0.06	838228	keystroke	g	n/a
419.279	0.045	838558	keystroke	n	n/a
419.743	0.061	839486	keystroke	Key.space	n/a
420.478	0.076	840956	keystroke	a	n/a
420.614	0.075	841228	keystroke	l	n/a
420.764	0.0745	841528	keystroke	e	n/a
420.914	0.074	841828	keystroke	r	n/a
421.1235	0.0595	842247	keystroke	t	n/a
421.348	0.06	842696	keystroke	s	n/a
421.498	0.076	842996	keystroke	Key.space	n/a
421.798	0.061	843596	keystroke	b	n/a
421.9485	0.0755	843897	keystroke	l	n/a
422.0985	0.075	844197	keystroke	a	n/a
422.3385	0.045	844677	keystroke	c	n/a
422.4435	0.075	844887	keystroke	k	n/a
422.6685	0.06	845337	keystroke	Key.space	n/a
423.1485	0.06	846297	keystroke	Key.backspace	n/a
423.404	0.0895	846808	keystroke	j	n/a
423.568	0.076	847136	keystroke	a	n/a
423.824	0.075	847648	keystroke	c	n/a
424.004	0.075	848008	keystroke	k	n/a
424.7085	0.075	849417	keystroke	Key.enter	n/a
424.7895	7.676	849579	prompt	n/a	bush relevant equivalent trying\n
425.5185	0.061	851037	keystroke	b	n/a
425.6245	0.045	851249	keystroke	u	n/a
425.8035	0.075	851607	keystroke	s	n/a
425.954	0.075	851908	keystroke	h	n/a
426.178	0.0755	852356	keystroke	Key.space	n/a
426.5685	0.075	853137	keystroke	r	n/a
426.6585	0.0905	853317	keystroke	e	n/a
426.853	0.076	853706	keystroke	l	n/a
427.034	0.074	854068	keystroke	e	n/a
427.3935	0.075	854787	keystroke	v	n/a
427.619	0.0745	855238	keystroke	a	n/a
427.7685	0.075	855537	keystroke	n	n/a
427.9485	0.0605	855897	keystroke	t	n/a
428.099	0.1195	856198	keystroke	Key.space	n/a
428.444	0.1345	856888	keystroke	e	n/a
428.7285	0.075	857457	keystroke	q	n/a
428.8785	0.06	857757	keystroke	u	n/a
429.2535	0.0905	858507	keystroke	i	n/a
429.5085	0.076	859017	keystroke	v	n/a
429.8835	0.105	859767	keystroke	a	n/a
430.138	0.09	860276	keystroke	l	n/a
430.484	0.06	860968	keystroke	e	n/a
430.6035	0.0745	861207	keystroke	n	n/a
430.739	0.0745	861478	keystroke	t	n/a
430.948	0.105	861896	keystroke	Key.space	n/a
431.218	0.06	862436	keystroke	t	n/a
431.384	0.06	862768	keystroke	r	n/a
431.519	0.075	863038	keystroke	y	n/a
431.743	0.091	863486	keystroke	i	n/a
431.939	0.0745	863878	keystroke	n	n/a
432.028	0.0615	864056	keystroke	g	n/a
432.389	0.075	864778	keystroke	Key.enter	n/a
432.4695	12.3595	864939	prompt	n/a	provide he'd disabilities statutes\n
433.1985	0.12	866397	keystroke	p	n/a
433.364	0.09	866728	keystroke	r	n/a
433.4985	0.075	866997	keystroke	o	n/a
434.054	0.0595	868108	keystroke	v	n/a
434.189	0.06	868378	keystroke	i	n/a
434.339	0.06	868678	keystroke	d	n/a
434.534	0.045	869068	keystroke	e	n/a
434.683	0.0905	869366	keystroke	Key.space	n/a
434.954	0.06	869908	keystroke	h	n/a
435.073	0.061	870146	keystroke	e	n/a
435.239	0.09	870478	keystroke	'	n/a
435.568	0.0905	871136	keystroke	d	n/a
435.7935	0.0905	871587	keystroke	Key.space	n/a
436.2285	0.06	872457	keystroke	d	n/a
436.334	0.0745	872668	keystroke	i	n/a
436.484	0.0895	872968	keystroke	s	n/a
436.738	0.076	873476	keystroke	a	n/a
436.963	0.076	873926	keystroke	b	n/a
437.158	0.09	874316	keystroke	l	n/a
437.428	0.0915	874856	keystroke	i	n/a
437.8335	0.06	875667	keystroke	Key.backspace	n/a
438.0135	0.0595	876027	keystroke	Key.backspace	n/a
438.224	0.089	876448	keystroke	i	n/a
438.449	0.09	876898	keystroke	l	n/a
438.643	0.121	877286	keystroke	i	n/a
438.899	0.06	877798	keystroke	t	n/a
439.003	0.06	878006	keystroke	i	n/a
439.199	0.074	878398	keystroke	e	n/a
439.408	0.076	878816	keystroke	s	n/a
439.543	0.0905	879086	keystroke	Key.space	n/a
440.0985	0.0905	880197	keystroke	s	n/a
440.279	0.0745	880558	keystroke	t	n/a
440.399	0.0895	880798	keystroke	a	n/a
440.549	0.0895	881098	keystroke	t	n/a
440.8635	0.045	881727	keystroke	u	n/a
441.058	0.075	882116	keystroke	s	n/a
441.748	0.076	883496	keystroke	Key.backspace	n/a
441.899	0.0745	883798	keystroke	t	n/a
442.019	0.1045	884038	keystroke	e	n/a
442.229	0.0595	884458	keystroke	s	n/a
444.8265	0	889653	keystroke	Key.enter	n/a
444.833	7.897	889666	prompt	n/a	mardi years legs conservative\n
445.7235	0.075	891447	keystroke	m	n/a
445.8885	0.06	891777	keystroke	a	n/a
446.008	0.091	892016	keystroke	r	n/a
446.294	0.045	892588	keystroke	d	n/a
446.354	0.075	892708	keystroke	i	n/a
446.608	0.09	893216	keystroke	Key.space	n/a
446.938	0.061	893876	keystroke	y	n/a
447.014	0.075	894028	keystroke	e	n/a
447.1785	0.06	894357	keystroke	a	n/a
447.3145	0.089	894629	keystroke	r	n/a
447.5685	0.0595	895137	keystroke	s	n/a
448.0335	0.0895	896067	keystroke	Key.space	n/a
448.6485	0.0745	897297	keystroke	l	n/a
448.798	0.061	897596	keystroke	e	n/a
449.024	0.06	898048	keystroke	g	n/a
449.219	0.075	898438	keystroke	s	n/a
449.3535	0.1045	898707	keystroke	Key.space	n/a
449.653	0.045	899306	keystroke	c	n/a
449.789	0.0745	899578	keystroke	o	n/a
449.954	0.075	899908	keystroke	n	n/a
450.5835	0.12	901167	keystroke	s	n/a
450.7935	0.0745	901587	keystroke	e	n/a
450.8535	0.075	901707	keystroke	r	n/a
451.1385	0.075	902277	keystroke	v	n/a
451.304	0.0595	902608	keystroke	a	n/a
451.439	0.0745	902878	keystroke	t	n/a
451.5885	0.06	903177	keystroke	i	n/a
451.7985	0.0595	903597	keystroke	v	n/a
451.919	0.0895	903838	keystroke	e	n/a
452.6535	0.075	905307	keystroke	Key.enter	n/a
452.735	12.3105	905470	prompt	n/a	birthday evaluate touch franchise\n
453.524	0.075	907048	keystroke	b	n/a
453.613	0.0755	907226	keystroke	i	n/a
453.7935	0.076	907587	keystroke	r	n/a
454.0345	0.059	908069	keystroke	t	n/a
454.154	0.045	908308	keystroke	g	n/a
454.154	0.06	908308	keystroke	h	n/a
454.393	0.046	908786	keystroke	d	n/a
454.513	0.0905	909026	keystroke	a	n/a
454.679	0.06	909358	keystroke	y	n/a
454.9335	0.09	909867	keystroke	Key.space	n/a
455.4285	0.045	910857	keystroke	Key.backspace	n/a
455.6085	0.045	911217	keystroke	Key.backspace	n/a
455.7735	0.045	911547	keystroke	Key.backspace	n/a
455.9385	0.045	911877	keystroke	Key.backspace	n/a
456.103	0.045	912206	keystroke	Key.backspace	n/a
456.283	0.045	912566	keystroke	Key.backspace	n/a
456.568	0.0755	913136	keystroke	h	n/a
457.3935	0.0755	914787	keystroke	d	n/a
457.5285	0.06	915057	keystroke	a	n/a
457.6335	0.0595	915267	keystroke	y	n/a
457.8585	0.09	915717	keystroke	Key.space	n/a
458.098	0.075	916196	keystroke	e	n/a
458.369	0.074	916738	keystroke	v	n/a
458.578	0.0605	917156	keystroke	a	n/a
458.774	0.09	917548	keystroke	l	n/a
459.284	0.075	918568	keystroke	u	n/a
459.6735	0.09	919347	keystroke	a	n/a
459.8835	0.09	919767	keystroke	t	n/a
460.0335	0.075	920067	keystroke	e	n/a
460.3185	0.075	920637	keystroke	Key.space	n/a
461.0385	0.075	922077	keystroke	t	n/a
461.159	0.0745	922318	keystroke	o	n/a
461.3085	0.075	922617	keystroke	u	n/a
461.533	0.061	923066	keystroke	c	n/a
461.638	0.0605	923276	keystroke	h	n/a
461.833	0.075	923666	keystroke	Key.space	n/a
462.1635	0.0745	924327	keystroke	f	n/a
462.358	0.075	924716	keystroke	r	n/a
462.553	0.0455	925106	keystroke	a	n/a
462.793	0.091	925586	keystroke	n	n/a
463.2735	0.06	926547	keystroke	c	n/a
463.393	0.0605	926786	keystroke	h	n/a
463.648	0.06	927296	keystroke	i	n/a
463.8285	0.0595	927657	keystroke	s	n/a
463.903	0.09	927806	keystroke	e	n/a
464.9835	0.06	929967	keystroke	Key.enter	n/a
465.0495	6.896	930099	prompt	n/a	dirt furnished broad weeks\n
465.718	0.076	931436	keystroke	d	n/a
465.823	0.0605	931646	keystroke	i	n/a
465.974	0.0595	931948	keystroke	r	n/a
466.1835	0.045	932367	keystroke	t	n/a
466.423	0.106	932846	keystroke	Key.space	n/a
466.708	0.076	933416	keystroke	f	n/a
466.874	0.0595	933748	keystroke	u	n/a
467.0235	0.06	934047	keystroke	r	n/a
467.3985	0.0755	934797	keystroke	n	n/a
467.609	0.0745	935218	keystroke	i	n/a
467.804	0.0895	935608	keystroke	s	n/a
467.9385	0.06	935877	keystroke	h	n/a
468.149	0.06	936298	keystroke	e	n/a
468.3285	0.0755	936657	keystroke	d	n/a
468.5235	0.09	937047	keystroke	Key.space	n/a
468.8835	0.075	937767	keystroke	b	n/a
469.184	0.03	938368	keystroke	r	n/a
469.6635	0.075	939327	keystroke	o	n/a
469.8735	0.075	939747	keystroke	a	n/a
470.1285	0.0755	940257	keystroke	d	n/a
470.4125	0.061	940825	keystroke	Key.space	n/a
470.8485	0.075	941697	keystroke	w	n/a
471.0885	0.0605	942177	keystroke	e	n/a
471.253	0.061	942506	keystroke	e	n/a
471.359	0.075	942718	keystroke	k	n/a
471.554	0.074	943108	keystroke	s	n/a
471.8835	0.06	943767	keystroke	Key.enter	n/a
471.959	6.946	943918	prompt	n/a	money spec thousands summer\n
472.679	0.089	945358	keystroke	m	n/a
472.874	0.09	945748	keystroke	o	n/a
473.068	0.076	946136	keystroke	n	n/a
473.264	0.059	946528	keystroke	e	n/a
473.443	0.045	946886	keystroke	y	n/a
473.6835	0.09	947367	keystroke	Key.space	n/a
473.8935	0.09	947787	keystroke	s	n/a
474.014	0.09	948028	keystroke	p	n/a
474.193	0.06	948386	keystroke	e	n/a
474.3885	0.0745	948777	keystroke	c	n/a
474.808	0.105	949616	keystroke	Key.space	n/a
475.2435	0.0595	950487	keystroke	t	n/a
475.363	0.06	950726	keystroke	h	n/a
475.543	0.106	951086	keystroke	o	n/a
475.799	0.059	951598	keystroke	u	n/a
476.069	0.06	952138	keystroke	s	n/a
476.4885	0.075	952977	keystroke	a	n/a
476.624	0.0595	953248	keystroke	n	n/a
476.803	0.06	953606	keystroke	d	n/a
477.0735	0.0745	954147	keystroke	s	n/a
477.2535	0.105	954507	keystroke	Key.space	n/a
477.4635	0.105	954927	keystroke	s	n/a
477.6285	0.0595	955257	keystroke	u	n/a
477.8535	0.0745	955707	keystroke	m	n/a
478.033	0.076	956066	keystroke	m	n/a
478.168	0.0755	956336	keystroke	e	n/a
478.258	0.0755	956516	keystroke	r	n/a
478.843	0.06	957686	keystroke	Key.enter	n/a
478.9095	10.0155	957819	prompt	n/a	administrative mechanics danger clusters\n
479.6385	0.075	959277	keystroke	a	n/a
479.8335	0.0755	959667	keystroke	d	n/a
479.9835	0.105	959967	keystroke	m	n/a
480.2235	0.075	960447	keystroke	i	n/a
480.3735	0.1055	960747	keystroke	n	n/a
480.5985	0.075	961197	keystroke	i	n/a
480.7035	0.105	961407	keystroke	s	n/a
480.8835	0.06	961767	keystroke	t	n/a
481.0335	0.09	962067	keystroke	r	n/a
481.2285	0.0755	962457	keystroke	a	n/a
481.4535	0.075	962907	keystroke	t	n/a
481.574	0.09	963148	keystroke	i	n/a
481.7685	0.06	963537	keystroke	v	n/a
481.903	0.0755	963806	keystroke	e	n/a
482.1135	0.075	964227	keystroke	Key.space	n/a
482.6535	0.075	965307	keystroke	m	n/a
482.8035	0.06	965607	keystroke	e	n/a
483.0435	0.075	966087	keystroke	c	n/a
483.2085	0.06	966417	keystroke	h	n/a
483.4335	0.075	966867	keystroke	a	n/a
483.5835	0.075	967167	keystroke	n	n/a
483.9285	0.06	967857	keystroke	i	n/a
484.124	0.0595	968248	keystroke	c	n/a
484.3635	0.075	968727	keystroke	s	n/a
484.558	0.0905	969116	keystroke	Key.space	n/a
484.8135	0.075	969627	keystroke	d	n/a
485.0085	0.06	970017	keystroke	a	n/a
485.2185	0.06	970437	keystroke	n	n/a
485.4585	0.06	970917	keystroke	g	n/a
485.6385	0.075	971277	keystroke	e	n/a
485.7285	0.075	971457	keystroke	r	n/a
486.0585	0.12	972117	keystroke	Key.space	n/a
486.599	0.074	973198	keystroke	c	n/a
486.763	0.075	973526	keystroke	l	n/a
486.9885	0.0755	973977	keystroke	u	n/a
487.123	0.091	974246	keystroke	s	n/a
487.3335	0.075	974667	keystroke	t	n/a
487.4985	0.06	974997	keystroke	e	n/a
487.5735	0.09	975147	keystroke	r	n/a
487.8285	0.06	975657	keystroke	s	n/a
488.8635	0.06	977727	keystroke	Key.enter	n/a
488.929	6.147	977858	prompt	n/a	competent strong book dive\n
489.6285	0.06	979257	keystroke	c	n/a
489.7635	0.12	979527	keystroke	o	n/a
490.019	0.135	980038	keystroke	m	n/a
490.333	0.075	980666	keystroke	p	n/a
490.529	0.074	981058	keystroke	e	n/a
490.843	0.091	981686	keystroke	t	n/a
491.234	0.0595	982468	keystroke	e	n/a
491.3535	0.06	982707	keystroke	n	n/a
491.5945	0.059	983189	keystroke	t	n/a
491.7735	0.089	983547	keystroke	Key.space	n/a
492.119	0.09	984238	keystroke	s	n/a
492.314	0.0585	984628	keystroke	t	n/a
492.4625	0.076	984925	keystroke	r	n/a
492.5535	0.09	985107	keystroke	o	n/a
492.6885	0.075	985377	keystroke	n	n/a
492.9735	0.0595	985947	keystroke	g	n/a
493.138	0.0905	986276	keystroke	Key.space	n/a
493.3935	0.075	986787	keystroke	b	n/a
493.5285	0.0755	987057	keystroke	o	n/a
493.7085	0.0755	987417	keystroke	o	n/a
493.889	0.074	987778	keystroke	k	n/a
494.0985	0.089	988197	keystroke	Key.space	n/a
494.2485	0.075	988497	keystroke	d	n/a
494.3685	0.0595	988737	keystroke	i	n/a
494.6085	0.06	989217	keystroke	v	n/a
494.7735	0.0605	989547	keystroke	e	n/a
495.0135	0.06	990027	keystroke	Key.enter	n/a
495.0825	7.508	990165	prompt	n/a	finished ocean gibson among\n
495.8985	0.06	991797	keystroke	f	n/a
496.0185	0.075	992037	keystroke	i	n/a
496.214	0.0745	992428	keystroke	n	n/a
496.4225	0.0765	992845	keystroke	i	n/a
496.6185	0.1055	993237	keystroke	s	n/a
496.7385	0.0595	993477	keystroke	h	n/a
496.9185	0.0605	993837	keystroke	e	n/a
497.098	0.061	994196	keystroke	d	n/a
497.2325	0.121	994465	keystroke	Key.space	n/a
497.564	0.0745	995128	keystroke	o	n/a
497.834	0.0745	995668	keystroke	c	n/a
498.163	0.0755	996326	keystroke	e	n/a
498.4035	0.075	996807	keystroke	a	n/a
498.5525	0.076	997105	keystroke	n	n/a
498.7635	0.075	997527	keystroke	Key.space	n/a
499.2885	0.06	998577	keystroke	g	n/a
499.4235	0.09	998847	keystroke	i	n/a
499.783	0.075	999566	keystroke	b	n/a
500.0535	0.075	1000107	keystroke	s	n/a
500.2335	0.075	1000467	keystroke	o	n/a
500.429	0.0595	1000858	keystroke	n	n/a
500.6235	0.09	1001247	keystroke	Key.space	n/a
500.969	0.06	1001938	keystroke	a	n/a
501.148	0.121	1002296	keystroke	m	n/a
501.403	0.1055	1002806	keystroke	o	n/a
501.628	0.076	1003256	keystroke	n	n/a
501.9735	0.06	1003947	keystroke	g	n/a
502.5285	0.06	1005057	keystroke	Key.enter	n/a
502.595	12.865	1005190	prompt	n/a	classified molecular council tulsa\n
503.2485	0.09	1006497	keystroke	c	n/a
503.3985	0.09	1006797	keystroke	l	n/a
503.6985	0.09	1007397	keystroke	i	n/a
504.2985	0.06	1008597	keystroke	Key.backspace	n/a
504.4635	0.09	1008927	keystroke	a	n/a
504.6885	0.12	1009377	keystroke	s	n/a
505.0185	0.075	1010037	keystroke	s	n/a
505.1835	0.0595	1010367	keystroke	i	n/a
505.5885	0.0745	1011177	keystroke	f	n/a
505.678	0.075	1011356	keystroke	i	n/a
505.933	0.0755	1011866	keystroke	e	n/a
506.113	0.0755	1012226	keystroke	d	n/a
506.2485	0.075	1012497	keystroke	Key.space	n/a
506.488	0.09	1012976	keystroke	m	n/a
506.7285	0.09	1013457	keystroke	o	n/a
507.2685	0.09	1014537	keystroke	l	n/a
507.479	0.0745	1014958	keystroke	e	n/a
507.854	0.075	1015708	keystroke	c	n/a
508.048	0.045	1016096	keystroke	u	n/a
508.2435	0.075	1016487	keystroke	l	n/a
508.3785	0.06	1016757	keystroke	a	n/a
508.5135	0.075	1017027	keystroke	r	n/a
508.6335	0.105	1017267	keystroke	Key.space	n/a
508.8585	0.06	1017717	keystroke	c	n/a
508.9485	0.09	1017897	keystroke	o	n/a
509.1585	0.0455	1018317	keystroke	u	n/a
509.354	0.074	1018708	keystroke	n	n/a
509.9685	0.075	1019937	keystroke	i	n/a
510.1785	0.089	1020357	keystroke	l	n/a
510.568	0.045	1021136	keystroke	Key.backspace	n/a
510.748	0.06	1021496	keystroke	Key.backspace	n/a
510.8235	0.0745	1021647	keystroke	c	n/a
510.973	0.076	1021946	keystroke	i	n/a
511.183	0.075	1022366	keystroke	l	n/a
511.6475	0.076	1023295	keystroke	Key.space	n/a
512.5035	0.0605	1025007	keystroke	u	n/a
512.923	0.0745	1025846	keystroke	Key.backspace	n/a
513.1785	0.075	1026357	keystroke	t	n/a
513.2985	0.075	1026597	keystroke	u	n/a
513.779	0.074	1027558	keystroke	l	n/a
514.123	0.09	1028246	keystroke	s	n/a
514.394	0.0745	1028788	keystroke	a	n/a
515.398	0.06	1030796	keystroke	Key.enter	n/a
515.464	8.7855	1030928	prompt	n/a	certification lemon wishing lucy\n
516.4785	0.06	1032957	keystroke	c	n/a
516.6735	0.06	1033347	keystroke	e	n/a
516.854	0.059	1033708	keystroke	r	n/a
517.0935	0.06	1034187	keystroke	t	n/a
517.2435	0.075	1034487	keystroke	i	n/a
517.4085	0.075	1034817	keystroke	f	n/a
517.543	0.075	1035086	keystroke	i	n/a
517.6935	0.075	1035387	keystroke	c	n/a
517.843	0.09	1035686	keystroke	a	n/a
517.963	0.09	1035926	keystroke	t	n/a
518.068	0.091	1036136	keystroke	i	n/a
518.173	0.1355	1036346	keystroke	o	n/a
518.353	0.091	1036706	keystroke	n	n/a
518.5335	0.075	1037067	keystroke	Key.space	n/a
519.3135	0.09	1038627	keystroke	l	n/a
519.508	0.06	1039016	keystroke	e	n/a
519.6585	0.12	1039317	keystroke	m	n/a
519.9585	0.1055	1039917	keystroke	o	n/a
520.153	0.09	1040306	keystroke	n	n/a
520.4985	0.075	1040997	keystroke	Key.space	n/a
520.978	0.075	1041956	keystroke	w	n/a
521.098	0.0905	1042196	keystroke	i	n/a
521.279	0.075	1042558	keystroke	s	n/a
521.4285	0.0595	1042857	keystroke	h	n/a
521.8185	0.075	1043637	keystroke	i	n/a
522.028	0.1055	1044056	keystroke	n	n/a
522.434	0.0745	1044868	keystroke	g	n/a
522.6285	0.0895	1045257	keystroke	Key.space	n/a
522.9585	0.075	1045917	keystroke	l	n/a
523.1835	0.075	1046367	keystroke	u	n/a
523.4085	0.03	1046817	keystroke	c	n/a
523.6185	0.06	1047237	keystroke	y	n/a
524.1875	0.0605	1048375	keystroke	Key.enter	n/a
524.2535	9.8665	1048507	prompt	n/a	viewpicture tracked routers adjustments\n
525.164	0.0745	1050328	keystroke	v	n/a
525.3285	0.045	1050657	keystroke	i	n/a
525.4035	0.105	1050807	keystroke	e	n/a
525.538	0.1205	1051076	keystroke	w	n/a
525.7635	0.105	1051527	keystroke	p	n/a
525.9585	0.0895	1051917	keystroke	i	n/a
526.1535	0.0595	1052307	keystroke	c	n/a
526.3785	0.06	1052757	keystroke	t	n/a
526.5285	0.045	1053057	keystroke	u	n/a
526.648	0.0905	1053296	keystroke	r	n/a
526.7535	0.0605	1053507	keystroke	e	n/a
526.918	0.12	1053836	keystroke	Key.space	n/a
527.2185	0.075	1054437	keystroke	t	n/a
527.398	0.075	1054796	keystroke	r	n/a
527.593	0.0755	1055186	keystroke	a	n/a
528.0285	0.105	1056057	keystroke	c	n/a
528.1935	0.075	1056387	keystroke	k	n/a
528.4185	0.0595	1056837	keystroke	e	n/a
528.6885	0.075	1057377	keystroke	d	n/a
528.9585	0.12	1057917	keystroke	Key.space	n/a
529.2585	0.075	1058517	keystroke	r	n/a
529.408	0.061	1058816	keystroke	o	n/a
529.543	0.091	1059086	keystroke	u	n/a
529.738	0.0755	1059476	keystroke	t	n/a
529.9035	0.0905	1059807	keystroke	e	n/a
529.9785	0.09	1059957	keystroke	r	n/a
530.2335	0.075	1060467	keystroke	s	n/a
530.4275	0.09	1060855	keystroke	Key.space	n/a
530.8485	0.0755	1061697	keystroke	a	n/a
531.0585	0.0745	1062117	keystroke	d	n/a
531.193	0.09	1062386	keystroke	m	n/a
531.6885	0.075	1063377	keystroke	Key.backspace	n/a
531.9285	0.0745	1063857	keystroke	j	n/a
532.1525	0.061	1064305	keystroke	u	n/a
532.3035	0.06	1064607	keystroke	s	n/a
532.4385	0.0755	1064877	keystroke	t	n/a
532.709	0.1195	1065418	keystroke	m	n/a
532.9035	0.06	1065807	keystroke	e	n/a
533.0385	0.045	1066077	keystroke	n	n/a
533.1885	0.075	1066377	keystroke	t	n/a
533.3835	0.075	1066767	keystroke	s	n/a
534.0285	0.09	1068057	keystroke	Key.enter	n/a
534.1235	11.726	1068247	prompt	n/a	dealt sorted universities operational\n
534.869	0.0745	1069738	keystroke	d	n/a
535.0335	0.0745	1070067	keystroke	e	n/a
535.1535	0.1055	1070307	keystroke	a	n/a
535.288	0.0755	1070576	keystroke	l	n/a
535.5135	0.0595	1071027	keystroke	t	n/a
535.9025	0.1205	1071805	keystroke	Key.space	n/a
536.2035	0.0905	1072407	keystroke	s	n/a
536.3235	0.0745	1072647	keystroke	o	n/a
536.4885	0.075	1072977	keystroke	r	n/a
536.6975	0.075	1073395	keystroke	t	n/a
536.908	0.0745	1073816	keystroke	e	n/a
537.089	0.0735	1074178	keystroke	d	n/a
537.2085	0.1195	1074417	keystroke	Key.space	n/a
537.4785	0.059	1074957	keystroke	u	n/a
537.7175	0.09	1075435	keystroke	n	n/a
537.958	0.075	1075916	keystroke	i	n/a
538.243	0.0605	1076486	keystroke	v	n/a
538.4235	0.059	1076847	keystroke	e	n/a
538.4985	0.075	1076997	keystroke	r	n/a
538.739	0.089	1077478	keystroke	s	n/a
538.888	0.0755	1077776	keystroke	i	n/a
539.0535	0.0755	1078107	keystroke	t	n/a
539.203	0.0755	1078406	keystroke	i	n/a
539.474	0.0595	1078948	keystroke	e	n/a
540.148	0.0755	1080296	keystroke	s	n/a
540.583	0.0905	1081166	keystroke	Key.space	n/a
540.988	0.09	1081976	keystroke	o	n/a
541.183	0.0605	1082366	keystroke	e	n/a
541.2435	0.0895	1082487	keystroke	p	n/a
541.7825	0.06	1083565	keystroke	Key.backspace	n/a
541.964	0.0735	1083928	keystroke	Key.backspace	n/a
542.1735	0.12	1084347	keystroke	p	n/a
542.3835	0.06	1084767	keystroke	e	n/a
542.4885	0.09	1084977	keystroke	r	n/a
542.6685	0.09	1085337	keystroke	a	n/a
542.8185	0.09	1085637	keystroke	t	n/a
542.938	0.075	1085876	keystroke	i	n/a
543.043	0.1205	1086086	keystroke	o	n/a
543.238	0.0755	1086476	keystroke	n	n/a
543.4035	0.045	1086807	keystroke	s	n/a
543.5535	0.0295	1087107	keystroke	a	n/a
543.8985	0.075	1087797	keystroke	Key.backspace	n/a
544.1235	0.06	1088247	keystroke	Key.backspace	n/a
544.2435	0.09	1088487	keystroke	a	n/a
544.3935	0.075	1088787	keystroke	l	n/a
545.7725	0.075	1091545	keystroke	Key.enter	n/a
545.854	10.2865	1091708	prompt	n/a	columbia sunshine spam o'clock\n
546.9885	0.0895	1093977	keystroke	c	n/a
547.183	0.06	1094366	keystroke	o	n/a
547.4235	0.0745	1094847	keystroke	l	n/a
547.6785	0.105	1095357	keystroke	u	n/a
547.723	0.045	1095446	keystroke	i	n/a
548.3535	0.06	1096707	keystroke	Key.backspace	n/a
548.5635	0.09	1097127	keystroke	m	n/a
548.8935	0.075	1097787	keystroke	b	n/a
549.104	0.0745	1098208	keystroke	i	n/a
549.3135	0.075	1098627	keystroke	a	n/a
549.5385	0.09	1099077	keystroke	Key.space	n/a
549.854	0.0895	1099708	keystroke	s	n/a
549.9735	0.06	1099947	keystroke	u	n/a
550.1985	0.075	1100397	keystroke	n	n/a
550.7385	0.0595	1101477	keystroke	c	n/a
550.8435	0.075	1101687	keystroke	h	n/a
551.1875	0.09	1102375	keystroke	i	n/a
551.383	0.0905	1102766	keystroke	n	n/a
552.2385	0.0595	1104477	keystroke	Key.backspace	n/a
552.4485	0.0445	1104897	keystroke	Key.backspace	n/a
552.628	0.105	1105256	keystroke	Key.backspace	n/a
552.778	0.0755	1105556	keystroke	s	n/a
553.1085	0.045	1106217	keystroke	Key.backspace	n/a
553.2885	0.059	1106577	keystroke	Key.backspace	n/a
553.3935	0.09	1106787	keystroke	s	n/a
553.5735	0.045	1107147	keystroke	h	n/a
553.828	0.06	1107656	keystroke	i	n/a
554.008	0.0755	1108016	keystroke	n	n/a
554.173	0.0455	1108346	keystroke	e	n/a
554.383	0.09	1108766	keystroke	Key.space	n/a
554.6985	0.0895	1109397	keystroke	s	n/a
554.863	0.12	1109726	keystroke	p	n/a
555.013	0.09	1110026	keystroke	a	n/a
555.163	0.0755	1110326	keystroke	m	n/a
555.448	0.075	1110896	keystroke	Key.space	n/a
555.6735	0.075	1111347	keystroke	o	n/a
556.0635	0.075	1112127	keystroke	Key.enter	n/a
556.1445	12.2505	1112289	prompt	n/a	ireland completed toward interventions\n
557.8035	0.06	1115607	keystroke	i	n/a
558.0125	0.09	1116025	keystroke	r	n/a
558.104	0.0885	1116208	keystroke	e	n/a
558.4035	0.0745	1116807	keystroke	l	n/a
558.583	0.1055	1117166	keystroke	a	n/a
558.943	0.0605	1117886	keystroke	n	n/a
559.7835	0.075	1119567	keystroke	d	n/a
559.9935	0.089	1119987	keystroke	Key.space	n/a
560.2785	0.06	1120557	keystroke	c	n/a
560.4135	0.089	1120827	keystroke	o	n/a
560.5635	0.105	1121127	keystroke	m	n/a
560.7735	0.105	1121547	keystroke	p	n/a
561.028	0.09	1122056	keystroke	l	n/a
561.223	0.075	1122446	keystroke	e	n/a
561.568	0.0745	1123136	keystroke	t	n/a
561.7485	0.075	1123497	keystroke	e	n/a
561.9435	0.075	1123887	keystroke	d	n/a
562.108	0.1205	1124216	keystroke	Key.space	n/a
562.4985	0.075	1124997	keystroke	t	n/a
562.663	0.075	1125326	keystroke	o	n/a
562.798	0.075	1125596	keystroke	w	n/a
563.518	0.0755	1127036	keystroke	a	n/a
563.7285	0.0605	1127457	keystroke	r	n/a
563.968	0.0605	1127936	keystroke	d	n/a
564.5525	0.09	1129105	keystroke	Key.space	n/a
564.853	0.0745	1129706	keystroke	i	n/a
565.0175	0.09	1130035	keystroke	n	n/a
565.348	0.0905	1130696	keystroke	t	n/a
565.4985	0.089	1130997	keystroke	e	n/a
565.6035	0.075	1131207	keystroke	r	n/a
565.9335	0.0595	1131867	keystroke	v	n/a
566.3675	0.075	1132735	keystroke	e	n/a
566.5325	0.09	1133065	keystroke	n	n/a
566.8175	0.091	1133635	keystroke	t	n/a
567.0125	0.076	1134025	keystroke	i	n/a
567.1175	0.1355	1134235	keystroke	o	n/a
567.313	0.105	1134626	keystroke	n	n/a
567.493	0.09	1134986	keystroke	s	n/a
568.333	0.06	1136666	keystroke	Key.enter	n/a
568.399	8.0355	1136798	prompt	n/a	social promo hosted occurred\n
569.174	0.0895	1138348	keystroke	s	n/a
569.293	0.0755	1138586	keystroke	o	n/a
569.488	0.046	1138976	keystroke	c	n/a
569.6525	0.061	1139305	keystroke	i	n/a
569.8325	0.06	1139665	keystroke	a	n/a
569.908	0.0745	1139816	keystroke	l	n/a
570.1325	0.091	1140265	keystroke	Key.space	n/a
570.5085	0.1045	1141017	keystroke	p	n/a
570.673	0.0755	1141346	keystroke	r	n/a
570.778	0.075	1141556	keystroke	o	n/a
571.093	0.0755	1142186	keystroke	m	n/a
571.348	0.046	1142696	keystroke	o	n/a
571.933	0.09	1143866	keystroke	Key.space	n/a
572.413	0.045	1144826	keystroke	h	n/a
572.608	0.0605	1145216	keystroke	o	n/a
572.7585	0.075	1145517	keystroke	s	n/a
572.9085	0.074	1145817	keystroke	t	n/a
573.1335	0.075	1146267	keystroke	e	n/a
573.3125	0.0605	1146625	keystroke	d	n/a
573.448	0.1055	1146896	keystroke	Key.space	n/a
573.7335	0.089	1147467	keystroke	o	n/a
573.8985	0.06	1147797	keystroke	c	n/a
574.0935	0.105	1148187	keystroke	c	n/a
574.633	0.06	1149266	keystroke	u	n/a
574.828	0.075	1149656	keystroke	r	n/a
575.054	0.0745	1150108	keystroke	r	n/a
575.323	0.045	1150646	keystroke	e	n/a
575.488	0.0755	1150976	keystroke	d	n/a
576.3735	0.059	1152747	keystroke	Key.enter	n/a
576.439	9.611	1152878	prompt	n/a	tackle angels sorts divide\n
577.3475	0.046	1154695	keystroke	t	n/a
577.4835	0.09	1154967	keystroke	a	n/a
577.7535	0.06	1155507	keystroke	c	n/a
577.9035	0.06	1155807	keystroke	k	n/a
578.8785	0.104	1157757	keystroke	l	n/a
579.0585	0.074	1158117	keystroke	e	n/a
579.1925	0.105	1158385	keystroke	Key.space	n/a
579.4635	0.075	1158927	keystroke	a	n/a
579.5835	0.075	1159167	keystroke	n	n/a
579.838	0.06	1159676	keystroke	g	n/a
580.0935	0.0595	1160187	keystroke	e	n/a
580.243	0.0905	1160486	keystroke	l	n/a
580.4685	0.0745	1160937	keystroke	s	n/a
580.618	0.105	1161236	keystroke	Key.space	n/a
580.918	0.075	1161836	keystroke	s	n/a
581.083	0.0755	1162166	keystroke	o	n/a
581.2335	0.059	1162467	keystroke	e	n/a
581.2335	0.09	1162467	keystroke	r	n/a
581.488	0.075	1162976	keystroke	t	n/a
581.773	0.075	1163546	keystroke	s	n/a
582.2675	0.045	1164535	keystroke	Key.backspace	n/a
582.4485	0.044	1164897	keystroke	Key.backspace	n/a
582.6125	0.0605	1165225	keystroke	Key.backspace	n/a
582.9735	0.075	1165947	keystroke	r	n/a
583.2735	0.06	1166547	keystroke	Key.backspace	n/a
583.4535	0.075	1166907	keystroke	Key.backspace	n/a
583.5585	0.09	1167117	keystroke	r	n/a
583.7835	0.045	1167567	keystroke	t	n/a
583.9785	0.06	1167957	keystroke	s	n/a
584.3075	0.12	1168615	keystroke	Key.space	n/a
584.6525	0.0755	1169305	keystroke	d	n/a
584.8185	0.06	1169637	keystroke	i	n/a
585.0725	0.076	1170145	keystroke	v	n/a
585.2085	0.075	1170417	keystroke	i	n/a
585.4185	0.059	1170837	keystroke	d	n/a
585.644	0.059	1171288	keystroke	e	n/a
585.973	0.075	1171946	keystroke	Key.enter	n/a
586.054	9.3855	1172108	prompt	n/a	gamespot price hist relatives\n
587.053	0.075	1174106	keystroke	g	n/a
587.2335	0.0745	1174467	keystroke	a	n/a
587.353	0.075	1174706	keystroke	m	n/a
587.8935	0.0605	1175787	keystroke	e	n/a
588.3435	0.075	1176687	keystroke	s	n/a
588.4635	0.105	1176927	keystroke	p	n/a
588.7635	0.075	1177527	keystroke	o	n/a
588.9885	0.075	1177977	keystroke	t	n/a
589.1985	0.0895	1178397	keystroke	Key.space	n/a
589.4535	0.1045	1178907	keystroke	p	n/a
589.634	0.0895	1179268	keystroke	r	n/a
589.7385	0.09	1179477	keystroke	i	n/a
589.9635	0.06	1179927	keystroke	c	n/a
590.158	0.0605	1180316	keystroke	e	n/a
590.263	0.1205	1180526	keystroke	Key.space	n/a
590.473	0.0755	1180946	keystroke	h	n/a
590.6675	0.0755	1181335	keystroke	i	n/a
590.7885	0.0755	1181577	keystroke	s	n/a
590.9525	0.06	1181905	keystroke	t	n/a
591.1475	0.075	1182295	keystroke	Key.space	n/a
591.898	0.075	1183796	keystroke	r	n/a
591.9735	0.1045	1183947	keystroke	e	n/a
592.138	0.075	1184276	keystroke	l	n/a
592.378	0.0905	1184756	keystroke	a	n/a
592.603	0.075	1185206	keystroke	t	n/a
592.723	0.09	1185446	keystroke	i	n/a
592.948	0.075	1185896	keystroke	v	n/a
593.1125	0.0755	1186225	keystroke	e	n/a
593.293	0.0745	1186586	keystroke	s	n/a
595.3775	0.06	1190755	keystroke	Key.enter	n/a
595.4525	5.957	1190905	prompt	n/a	below shirt it growth\n
596.338	0.06	1192676	keystroke	b	n/a
596.518	0.06	1193036	keystroke	e	n/a
596.683	0.09	1193366	keystroke	l	n/a
596.908	0.09	1193816	keystroke	o	n/a
597.134	0.089	1194268	keystroke	w	n/a
597.298	0.105	1194596	keystroke	Key.space	n/a
597.553	0.0895	1195106	keystroke	s	n/a
597.703	0.06	1195406	keystroke	h	n/a
597.8985	0.0595	1195797	keystroke	i	n/a
598.063	0.075	1196126	keystroke	r	n/a
598.258	0.09	1196516	keystroke	t	n/a
598.333	0.075	1196666	keystroke	Key.space	n/a
598.513	0.075	1197026	keystroke	i	n/a
598.663	0.06	1197326	keystroke	t	n/a
598.767	0.106	1197534	keystroke	Key.space	n/a
599.0825	0.075	1198165	keystroke	g	n/a
599.2935	0.075	1198587	keystroke	r	n/a
599.4435	0.075	1198887	keystroke	o	n/a
599.638	0.075	1199276	keystroke	w	n/a
599.788	0.075	1199576	keystroke	n	n/a
600.238	0.06	1200476	keystroke	Key.backspace	n/a
600.388	0.0595	1200776	keystroke	t	n/a
600.4925	0.0755	1200985	keystroke	h	n/a
601.333	0.075	1202666	keystroke	Key.enter	n/a
601.419	7.8505	1202838	prompt	n/a	enclosed costume check materials\n
602.263	0.06	1204526	keystroke	e	n/a
602.428	0.075	1204856	keystroke	n	n/a
602.683	0.06	1205366	keystroke	c	n/a
602.863	0.06	1205726	keystroke	l	n/a
603.103	0.06	1206206	keystroke	o	n/a
603.268	0.0745	1206536	keystroke	s	n/a
603.4475	0.061	1206895	keystroke	e	n/a
603.5975	0.091	1207195	keystroke	d	n/a
603.7325	0.105	1207465	keystroke	Key.space	n/a
604.063	0.075	1208126	keystroke	c	n/a
604.483	0.06	1208966	keystroke	o	n/a
604.993	0.075	1209986	keystroke	s	n/a
605.278	0.075	1210556	keystroke	t	n/a
605.428	0.06	1210856	keystroke	u	n/a
605.6825	0.09	1211365	keystroke	m	n/a
605.9675	0.015	1211935	keystroke	e	n/a
606.1475	0.0755	1212295	keystroke	Key.space	n/a
606.3725	0.0755	1212745	keystroke	c	n/a
606.508	0.0755	1213016	keystroke	h	n/a
606.658	0.06	1213316	keystroke	e	n/a
606.838	0.0595	1213676	keystroke	c	n/a
606.9425	0.075	1213885	keystroke	k	n/a
607.168	0.09	1214336	keystroke	Key.space	n/a
607.5285	0.0745	1215057	keystroke	m	n/a
607.768	0.075	1215536	keystroke	a	n/a
607.993	0.09	1215986	keystroke	t	n/a
608.188	0.0455	1216376	keystroke	e	n/a
608.247	0.091	1216494	keystroke	r	n/a
608.502	0.06	1217004	keystroke	i	n/a
608.6385	0.089	1217277	keystroke	a	n/a
608.8175	0.075	1217635	keystroke	l	n/a
608.9525	0.075	1217905	keystroke	s	n/a
609.208	0.06	1218416	keystroke	Key.enter	n/a
609.2745	11.5745	1218549	prompt	n/a	showcase happens logistics wireless\n
610.168	0.075	1220336	keystroke	s	n/a
610.303	0.045	1220606	keystroke	h	n/a
610.423	0.0895	1220846	keystroke	o	n/a
610.4825	0.075	1220965	keystroke	w	n/a
610.873	0.075	1221746	keystroke	c	n/a
611.098	0.105	1222196	keystroke	a	n/a
611.248	0.105	1222496	keystroke	s	n/a
611.413	0.09	1222826	keystroke	e	n/a
611.638	0.09	1223276	keystroke	Key.space	n/a
611.863	0.045	1223726	keystroke	h	n/a
611.983	0.09	1223966	keystroke	a	n/a
612.403	0.09	1224806	keystroke	p	n/a
612.598	0.075	1225196	keystroke	p	n/a
612.778	0.06	1225556	keystroke	e	n/a
612.943	0.06	1225886	keystroke	n	n/a
613.183	0.09	1226366	keystroke	s	n/a
613.423	0.105	1226846	keystroke	Key.space	n/a
613.828	0.09	1227656	keystroke	l	n/a
614.053	0.09	1228106	keystroke	o	n/a
614.218	0.075	1228436	keystroke	g	n/a
614.443	0.075	1228886	keystroke	i	n/a
614.623	0.075	1229246	keystroke	c	n/a
615.193	0.06	1230386	keystroke	Key.backspace	n/a
615.328	0.09	1230656	keystroke	s	n/a
615.568	0.045	1231136	keystroke	t	n/a
615.733	0.09	1231466	keystroke	i	n/a
615.9725	0.06	1231945	keystroke	c	n/a
616.3775	0.0755	1232755	keystroke	s	n/a
616.7225	0.09	1233445	keystroke	Key.space	n/a
617.1435	0.044	1234287	keystroke	2	n/a
617.3235	0.059	1234647	keystroke	i	n/a
617.713	0.06	1235426	keystroke	Key.backspace	n/a
617.893	0.075	1235786	keystroke	Key.backspace	n/a
617.998	0.09	1235996	keystroke	w	n/a
618.163	0.0745	1236326	keystroke	i	n/a
618.433	0.104	1236866	keystroke	r	n/a
618.553	0.075	1237106	keystroke	e	n/a
618.867	0.076	1237734	keystroke	l	n/a
619.062	0.06	1238124	keystroke	e	n/a
619.288	0.06	1238576	keystroke	s	n/a
619.438	0.075	1238876	keystroke	s	n/a
620.7875	0.0605	1241575	keystroke	Key.enter	n/a
620.8525	15.912	1241705	prompt	n/a	bang tobacco liabilities honey\n
621.613	0.075	1243226	keystroke	b	n/a
621.777	0.076	1243554	keystroke	a	n/a
621.898	0.075	1243796	keystroke	n	n/a
622.138	0.075	1244276	keystroke	g	n/a
622.332	0.091	1244664	keystroke	Key.space	n/a
622.783	0.075	1245566	keystroke	t	n/a
622.903	0.09	1245806	keystroke	o	n/a
623.7725	0.061	1247545	keystroke	b	n/a
623.9975	0.0905	1247995	keystroke	a	n/a
624.4775	0.0605	1248955	keystroke	c	n/a
624.658	0.045	1249316	keystroke	c	n/a
624.793	0.075	1249586	keystroke	o	n/a
625.0925	0.1055	1250185	keystroke	Key.space	n/a
625.393	0.09	1250786	keystroke	l	n/a
625.573	0.0755	1251146	keystroke	i	n/a
625.8425	0.076	1251685	keystroke	a	n/a
626.173	0.0605	1252346	keystroke	b	n/a
626.293	0.09	1252586	keystroke	i	n/a
627.8375	0.09	1255675	keystroke	l	n/a
628.0625	0.09	1256125	keystroke	i	n/a
628.243	0.1045	1256486	keystroke	t	n/a
628.4225	0.0905	1256845	keystroke	i	n/a
628.6175	0.075	1257235	keystroke	e	n/a
628.8125	0.06	1257625	keystroke	s	n/a
629.0225	0.0905	1258045	keystroke	Key.space	n/a
629.3975	0.0605	1258795	keystroke	h	n/a
629.758	0.12	1259516	keystroke	n	n/a
629.998	0.06	1259996	keystroke	e	n/a
630.313	0.0445	1260626	keystroke	Key.backspace	n/a
630.4775	0.0605	1260955	keystroke	Key.backspace	n/a
630.703	0.075	1261406	keystroke	o	n/a
630.8835	0.0745	1261767	keystroke	b	n/a
630.928	0.045	1261856	keystroke	n	n/a
631.048	0.045	1262096	keystroke	e	n/a
631.2735	0.0595	1262547	keystroke	y	n/a
631.663	0.045	1263326	keystroke	Key.backspace	n/a
631.873	0.045	1263746	keystroke	Key.backspace	n/a
632.038	0.09	1264076	keystroke	Key.backspace	n/a
632.773	0.015	1265546	keystroke	n	n/a
633.087	0.091	1266174	keystroke	Key.backspace	n/a
633.358	0.09	1266716	keystroke	Key.backspace	n/a
633.7025	0.1055	1267405	keystroke	n	n/a
634.0025	0.06	1268005	keystroke	e	n/a
634.2125	0.0755	1268425	keystroke	o	n/a
634.723	0.06	1269446	keystroke	Key.backspace	n/a
635.0235	0.0745	1270047	keystroke	y	n/a
636.658	0.105	1273316	keystroke	Key.enter	n/a
636.769	9.2805	1273538	prompt	n/a	interpretation dolls telephone endif\n
637.8285	0.0745	1275657	keystroke	i	n/a
637.963	0.105	1275926	keystroke	n	n/a
638.188	0.059	1276376	keystroke	t	n/a
638.308	0.06	1276616	keystroke	e	n/a
638.3975	0.0745	1276795	keystroke	r	n/a
638.608	0.0895	1277216	keystroke	p	n/a
638.847	0.091	1277694	keystroke	r	n/a
638.9235	0.0895	1277847	keystroke	e	n/a
639.3735	0.0745	1278747	keystroke	t	n/a
639.598	0.075	1279196	keystroke	a	n/a
639.807	0.075	1279614	keystroke	t	n/a
639.958	0.044	1279916	keystroke	i	n/a
640.0325	0.1345	1280065	keystroke	o	n/a
640.2275	0.1195	1280455	keystroke	n	n/a
640.452	0.075	1280904	keystroke	Key.space	n/a
640.752	0.075	1281504	keystroke	d	n/a
640.872	0.091	1281744	keystroke	o	n/a
641.143	0.06	1282286	keystroke	l	n/a
641.323	0.09	1282646	keystroke	l	n/a
641.683	0.089	1283366	keystroke	s	n/a
641.862	0.0905	1283724	keystroke	Key.space	n/a
642.373	0.075	1284746	keystroke	t	n/a
642.4775	0.1055	1284955	keystroke	e	n/a
642.688	0.075	1285376	keystroke	l	n/a
642.868	0.0595	1285736	keystroke	e	n/a
643.198	0.0895	1286396	keystroke	p	n/a
643.4075	0.0755	1286815	keystroke	h	n/a
643.588	0.09	1287176	keystroke	o	n/a
643.7525	0.09	1287505	keystroke	n	n/a
643.9025	0.0905	1287805	keystroke	e	n/a
644.098	0.09	1288196	keystroke	Key.space	n/a
644.323	0.075	1288646	keystroke	e	n/a
644.458	0.0895	1288916	keystroke	n	n/a
644.6825	0.061	1289365	keystroke	d	n/a
644.803	0.075	1289606	keystroke	i	n/a
645.0575	0.0605	1290115	keystroke	f	n/a
645.973	0.075	1291946	keystroke	Key.enter	n/a
646.053	8.7865	1292106	prompt	n/a	scholar costumes fundamental waiting\n
646.768	0.0745	1293536	keystroke	s	n/a
647.0375	0.0455	1294075	keystroke	c	n/a
647.203	0.06	1294406	keystroke	h	n/a
647.3975	0.075	1294795	keystroke	o	n/a
647.6975	0.0755	1295395	keystroke	l	n/a
647.893	0.0745	1295786	keystroke	a	n/a
648.043	0.0895	1296086	keystroke	r	n/a
648.1475	0.0755	1296295	keystroke	Key.space	n/a
648.538	0.045	1297076	keystroke	c	n/a
648.688	0.06	1297376	keystroke	o	n/a
648.898	0.075	1297796	keystroke	s	n/a
649.213	0.06	1298426	keystroke	t	n/a
649.3935	0.059	1298787	keystroke	u	n/a
649.648	0.075	1299296	keystroke	m	n/a
649.858	0.075	1299716	keystroke	e	n/a
650.0685	0.0745	1300137	keystroke	s	n/a
650.218	0.165	1300436	keystroke	Key.space	n/a
650.4435	0.09	1300887	keystroke	f	n/a
650.608	0.06	1301216	keystroke	u	n/a
650.818	0.0895	1301636	keystroke	n	n/a
651.2825	0.06	1302565	keystroke	d	n/a
651.448	0.059	1302896	keystroke	a	n/a
651.9885	0.0895	1303977	keystroke	m	n/a
652.183	0.0745	1304366	keystroke	e	n/a
652.3025	0.075	1304605	keystroke	n	n/a
652.453	0.0895	1304906	keystroke	t	n/a
652.723	0.075	1305446	keystroke	a	n/a
652.9635	0.075	1305927	keystroke	l	n/a
653.188	0.105	1306376	keystroke	Key.space	n/a
653.368	0.09	1306736	keystroke	w	n/a
653.5635	0.09	1307127	keystroke	a	n/a
653.7585	0.105	1307517	keystroke	i	n/a
653.9525	0.075	1307905	keystroke	t	n/a
654.103	0.09	1308206	keystroke	i	n/a
654.2975	0.076	1308595	keystroke	n	n/a
654.3875	0.076	1308775	keystroke	g	n/a
654.778	0.06	1309556	keystroke	Key.enter	n/a
654.8465	11.138	1309693	prompt	n/a	consider randy explicit bringing\n
655.513	0.0755	1311026	keystroke	c	n/a
655.678	0.0745	1311356	keystroke	o	n/a
655.828	0.09	1311656	keystroke	n	n/a
655.948	0.0895	1311896	keystroke	s	n/a
656.128	0.045	1312256	keystroke	i	n/a
656.248	0.0755	1312496	keystroke	d	n/a
656.4275	0.076	1312855	keystroke	e	n/a
656.6075	0.061	1313215	keystroke	r	n/a
656.623	0.1045	1313246	keystroke	Key.space	n/a
657.1925	0.06	1314385	keystroke	r	n/a
657.3885	0.075	1314777	keystroke	a	n/a
657.523	0.0745	1315046	keystroke	n	n/a
657.7185	0.059	1315437	keystroke	d	n/a
658.1825	0.045	1316365	keystroke	y	n/a
658.4525	0.105	1316905	keystroke	Key.space	n/a
658.678	0.0755	1317356	keystroke	e	n/a
658.8875	0.0755	1317775	keystroke	x	n/a
659.0825	0.091	1318165	keystroke	p	n/a
659.323	0.0905	1318646	keystroke	l	n/a
659.533	0.075	1319066	keystroke	i	n/a
659.968	0.075	1319936	keystroke	i	n/a
660.387	0.0755	1320774	keystroke	Key.backspace	n/a
660.403	0.03	1320806	keystroke	=	n/a
660.672	0.076	1321344	keystroke	i	n/a
661.1375	0.0605	1322275	keystroke	Key.backspace	n/a
661.317	0.0905	1322634	keystroke	Key.backspace	n/a
661.5275	0.06	1323055	keystroke	Key.backspace	n/a
662.2035	0.0745	1324407	keystroke	i	n/a
662.413	0.09	1324826	keystroke	c	n/a
662.548	0.075	1325096	keystroke	i	n/a
662.803	0.0455	1325606	keystroke	t	n/a
663.327	0.091	1326654	keystroke	Key.space	n/a
663.703	0.06	1327406	keystroke	b	n/a
663.928	0.06	1327856	keystroke	r	n/a
664.079	0.1045	1328158	keystroke	i	n/a
664.288	0.119	1328576	keystroke	n	n/a
664.528	0.0595	1329056	keystroke	g	n/a
664.9625	0.09	1329925	keystroke	i	n/a
665.1425	0.09	1330285	keystroke	n	n/a
665.2625	0.0605	1330525	keystroke	g	n/a
665.908	0.0745	1331816	keystroke	Key.enter	n/a
665.9885	17.621	1331977	prompt	n/a	tramadol escorts creation taxation\n
666.943	0.075	1333886	keystroke	t	n/a
667.093	0.09	1334186	keystroke	a	n/a
667.558	0.06	1335116	keystroke	Key.backspace	n/a
667.7525	0.0755	1335505	keystroke	r	n/a
667.8875	0.0905	1335775	keystroke	a	n/a
668.1275	0.0905	1336255	keystroke	m	n/a
669.1935	0.0745	1338387	keystroke	a	n/a
669.5375	0.06	1339075	keystroke	d	n/a
669.6725	0.0755	1339345	keystroke	o	n/a
669.928	0.0895	1339856	keystroke	l	n/a
670.1525	0.1205	1340305	keystroke	Key.space	n/a
670.363	0.09	1340726	keystroke	e	n/a
670.648	0.0905	1341296	keystroke	s	n/a
671.068	0.0745	1342136	keystroke	c	n/a
671.2635	0.0745	1342527	keystroke	o	n/a
671.503	0.075	1343006	keystroke	r	n/a
671.518	0.045	1343036	keystroke	e	n/a
671.743	0.0755	1343486	keystroke	t	n/a
672.627	0.075	1345254	keystroke	Key.backspace	n/a
672.8375	0.075	1345675	keystroke	Key.backspace	n/a
673.1075	0.075	1346215	keystroke	t	n/a
673.3625	0.075	1346725	keystroke	s	n/a
673.6325	0.105	1347265	keystroke	Key.space	n/a
674.083	0.0755	1348166	keystroke	c	n/a
674.3075	0.0755	1348615	keystroke	r	n/a
674.3975	0.1055	1348795	keystroke	e	n/a
674.5635	0.0595	1349127	keystroke	a	n/a
674.698	0.089	1349396	keystroke	t	n/a
674.8485	0.0745	1349697	keystroke	i	n/a
674.938	0.12	1349876	keystroke	o	n/a
675.118	0.06	1350236	keystroke	b	n/a
675.133	0.0595	1350266	keystroke	n	n/a
675.3425	0.09	1350685	keystroke	Key.space	n/a
675.807	0.076	1351614	keystroke	t	n/a
675.987	0.076	1351974	keystroke	a	n/a
676.198	0.1195	1352396	keystroke	x	n/a
677.893	0.09	1355786	keystroke	Key.backspace	n/a
678.103	0.045	1356206	keystroke	Key.backspace	n/a
678.2675	0.0605	1356535	keystroke	Key.backspace	n/a
678.448	0.0595	1356896	keystroke	Key.backspace	n/a
678.628	0.0745	1357256	keystroke	Key.backspace	n/a
678.853	0.0595	1357706	keystroke	Key.backspace	n/a
679.483	0.09	1358966	keystroke	n	n/a
679.903	0.1045	1359806	keystroke	Key.space	n/a
680.293	0.0595	1360586	keystroke	t	n/a
680.443	0.09	1360886	keystroke	a	n/a
680.6675	0.105	1361335	keystroke	x	n/a
680.983	0.09	1361966	keystroke	a	n/a
681.2375	0.075	1362475	keystroke	t	n/a
681.388	0.0895	1362776	keystroke	i	n/a
681.493	0.135	1362986	keystroke	o	n/a
681.6725	0.091	1363345	keystroke	n	n/a
683.562	0.046	1367124	keystroke	Key.enter	n/a
683.6145	7.99	1367229	prompt	n/a	units seen directly revelation\n
684.478	0.0445	1368956	keystroke	u	n/a
684.673	0.0745	1369346	keystroke	n	n/a
685.0175	0.0755	1370035	keystroke	i	n/a
685.258	0.075	1370516	keystroke	t	n/a
685.4975	0.076	1370995	keystroke	s	n/a
