onset	duration	sample	value	key	prompt_text
24.5965	12.0555	49193	prompt	n/a	the quick brown fox jumps over a lazy dog\n
26.601	0.012	53202	keystroke	t	n/a
26.6875	0.1205	53375	keystroke	h	n/a
26.792	0.076	53584	keystroke	e	n/a
26.958	0.09	53916	keystroke	Key.space	n/a
27.6175	0.0905	55235	keystroke	q	n/a
27.858	0.12	55716	keystroke	u	n/a
27.903	0.15	55806	keystroke	i	n/a
28.068	0.075	56136	keystroke	c	n/a
28.188	0.15	56376	keystroke	k	n/a
28.293	0.105	56586	keystroke	Key.space	n/a
28.473	0.06	56946	keystroke	b	n/a
28.6985	0.0745	57397	keystroke	r	n/a
28.803	0.135	57606	keystroke	o	n/a
29.0875	0.09	58175	keystroke	w	n/a
29.1925	0.1355	58385	keystroke	n	n/a
29.3125	0.1045	58625	keystroke	Key.space	n/a
29.5525	0.0755	59105	keystroke	f	n/a
29.657	0.136	59314	keystroke	o	n/a
29.868	0.105	59736	keystroke	x	n/a
30.047	0.106	60094	keystroke	Key.space	n/a
30.2575	0.0755	60515	keystroke	j	n/a
30.4375	0.045	60875	keystroke	u	n/a
30.663	0.0895	61326	keystroke	m	n/a
31.0525	0.075	62105	keystroke	p	n/a
31.2925	0.06	62585	keystroke	s	n/a
31.4725	0.075	62945	keystroke	Key.space	n/a
31.6075	0.12	63215	keystroke	o	n/a
31.878	0.0745	63756	keystroke	v	n/a
32.058	0.06	64116	keystroke	e	n/a
32.208	0.09	64416	keystroke	r	n/a
32.328	0.0895	64656	keystroke	Key.space	n/a
32.4475	0.0905	64895	keystroke	a	n/a
32.5525	0.135	65105	keystroke	l	n/a
33.272	0.091	66544	keystroke	Key.backspace	n/a
33.497	0.0755	66994	keystroke	Key.space	n/a
33.722	0.135	67444	keystroke	l	n/a
33.8275	0.091	67655	keystroke	a	n/a
34.2325	0.0605	68465	keystroke	z	n/a
34.4725	0.0905	68945	keystroke	y	n/a
34.697	0.091	69394	keystroke	Key.space	n/a
35.238	0.075	70476	keystroke	g	n/a
35.613	0.089	71226	keystroke	Key.backspace	n/a
35.763	0.075	71526	keystroke	d	n/a
35.913	0.1045	71826	keystroke	o	n/a
36.1975	0.075	72395	keystroke	g	n/a
36.5575	0.09	73115	keystroke	Key.enter	n/a
36.6595	13.5355	73319	prompt	n/a	aircraft roads requirement marks\n
37.533	0.105	75066	keystroke	a	n/a
38.3725	0.105	76745	keystroke	i	n/a
38.4475	0.0605	76895	keystroke	r	n/a
38.6875	0.091	77375	keystroke	c	n/a
39.183	0.0895	78366	keystroke	r	n/a
39.348	0.1195	78696	keystroke	a	n/a
39.6035	0.059	79207	keystroke	f	n/a
39.813	0.0745	79626	keystroke	t	n/a
40.518	0.09	81036	keystroke	Key.space	n/a
40.788	0.09	81576	keystroke	r	n/a
40.923	0.1345	81846	keystroke	o	n/a
41.013	0.1045	82026	keystroke	a	n/a
41.238	0.06	82476	keystroke	d	n/a
41.448	0.075	82896	keystroke	s	n/a
41.567	0.121	83134	keystroke	Key.space	n/a
41.793	0.09	83586	keystroke	r	n/a
41.943	0.075	83886	keystroke	e	n/a
43.683	0.06	87366	keystroke	q	n/a
43.893	0.09	87786	keystroke	u	n/a
43.938	0.135	87876	keystroke	i	n/a
45.272	0.151	90544	keystroke	r	n/a
45.408	0.059	90816	keystroke	e	n/a
45.513	0.134	91026	keystroke	m	n/a
45.648	0.09	91296	keystroke	e	n/a
45.962	0.046	91924	keystroke	t	n/a
46.128	0.09	92256	keystroke	n	n/a
47.267	0.105	94534	keystroke	Key.backspace	n/a
47.493	0.1045	94986	keystroke	Key.backspace	n/a
47.763	0.105	95526	keystroke	n	n/a
48.047	0.091	96094	keystroke	t	n/a
48.183	0.089	96366	keystroke	Key.space	n/a
48.3785	0.119	96757	keystroke	m	n/a
48.453	0.119	96906	keystroke	a	n/a
48.7225	0.09	97445	keystroke	r	n/a
48.843	0.12	97686	keystroke	k	n/a
49.3825	0.076	98765	keystroke	s	n/a
50.102	0.091	100204	keystroke	Key.enter	n/a
50.199	22.6925	100398	prompt	n/a	behavioral minute query humanity\n
50.838	0.0745	101676	keystroke	v	n/a
51.468	0.09	102936	keystroke	Key.backspace	n/a
51.693	0.09	103386	keystroke	b	n/a
52.398	0.09	104796	keystroke	Key.caps_lock	n/a
55.7305	0.012	111461	keystroke	Key.caps_lock	n/a
56.3425	0.0755	112685	keystroke	b	n/a
56.8375	0.075	113675	keystroke	Key.backspace	n/a
57.063	0.09	114126	keystroke	Key.backspace	n/a
57.543	0.09	115086	keystroke	b	n/a
57.7675	0.0755	115535	keystroke	e	n/a
58.263	0.09	116526	keystroke	h	n/a
58.383	0.12	116766	keystroke	a	n/a
59.6725	0.075	119345	keystroke	v	n/a
59.973	0.09	119946	keystroke	r	n/a
60.108	0.135	120216	keystroke	i	n/a
60.168	0.15	120336	keystroke	o	n/a
61.008	0.105	122016	keystroke	Key.backspace	n/a
61.233	0.1045	122466	keystroke	Key.backspace	n/a
61.518	0.1045	123036	keystroke	Key.backspace	n/a
62.013	0.075	124026	keystroke	i	n/a
64.083	0.105	128166	keystroke	o	n/a
64.353	0.1055	128706	keystroke	r	n/a
64.5035	0.119	129007	keystroke	a	n/a
64.608	0.1195	129216	keystroke	l	n/a
64.833	0.0895	129666	keystroke	Key.space	n/a
65.583	0.0745	131166	keystroke	m	n/a
65.7475	0.12	131495	keystroke	i	n/a
66.498	0.0745	132996	keystroke	n	n/a
66.723	0.09	133446	keystroke	u	n/a
66.888	0.075	133776	keystroke	t	n/a
67.0375	0.105	134075	keystroke	e	n/a
67.248	0.09	134496	keystroke	Key.space	n/a
67.908	0.09	135816	keystroke	q	n/a
68.193	0.0745	136386	keystroke	u	n/a
68.418	0.09	136836	keystroke	e	n/a
69.123	0.09	138246	keystroke	r	n/a
69.258	0.12	138516	keystroke	y	n/a
69.392	0.106	138784	keystroke	Key.space	n/a
69.678	0.06	139356	keystroke	h	n/a
69.873	0.06	139746	keystroke	u	n/a
70.083	0.105	140166	keystroke	m	n/a
70.263	0.075	140526	keystroke	a	n/a
70.863	0.1045	141726	keystroke	n	n/a
71.058	0.1195	142116	keystroke	i	n/a
71.313	0.06	142626	keystroke	t	n/a
71.418	0.105	142836	keystroke	y	n/a
72.783	0.1045	145566	keystroke	Key.enter	n/a
72.9155	11.4795	145831	prompt	n/a	defines intake swiss excel\n
78.4555	0.012	156911	keystroke	d	n/a
78.588	0.075	157176	keystroke	e	n/a
78.9925	0.0755	157985	keystroke	f	n/a
79.0825	0.12	158165	keystroke	i	n/a
79.278	0.119	158556	keystroke	n	n/a
79.398	0.0895	158796	keystroke	e	n/a
79.623	0.075	159246	keystroke	s	n/a
79.7125	0.0895	159425	keystroke	Key.space	n/a
79.8335	0.0895	159667	keystroke	i	n/a
80.0135	0.09	160027	keystroke	n	n/a
80.208	0.0895	160416	keystroke	t	n/a
80.433	0.1055	160866	keystroke	a	n/a
80.9435	0.105	161887	keystroke	k	n/a
81.0325	0.091	162065	keystroke	e	n/a
81.213	0.0895	162426	keystroke	Key.space	n/a
81.4825	0.09	162965	keystroke	s	n/a
82.053	0.0895	164106	keystroke	w	n/a
82.2925	0.1055	164585	keystroke	i	n/a
82.5625	0.09	165125	keystroke	s	n/a
82.7125	0.1055	165425	keystroke	s	n/a
82.893	0.0595	165786	keystroke	Key.space	n/a
83.118	0.075	166236	keystroke	e	n/a
83.3585	0.119	166717	keystroke	x	n/a
83.5685	0.059	167137	keystroke	c	n/a
83.808	0.06	167616	keystroke	e	n/a
83.973	0.135	167946	keystroke	l	n/a
84.318	0.075	168636	keystroke	Key.enter	n/a
84.4	7.6905	168800	prompt	n/a	sunny loving compliant combined\n
85.1435	0.0745	170287	keystroke	s	n/a
85.923	0.0895	171846	keystroke	u	n/a
86.163	0.0595	172326	keystroke	n	n/a
86.2975	0.045	172595	keystroke	n	n/a
86.523	0.105	173046	keystroke	y	n/a
86.793	0.09	173586	keystroke	Key.space	n/a
86.988	0.075	173976	keystroke	l	n/a
87.1835	0.0745	174367	keystroke	o	n/a
87.303	0.09	174606	keystroke	v	n/a
87.394	0.074	174788	keystroke	i	n/a
87.5435	0.135	175087	keystroke	n	n/a
87.7375	0.0905	175475	keystroke	g	n/a
87.903	0.104	175806	keystroke	Key.space	n/a
88.248	0.0905	176496	keystroke	c	n/a
88.368	0.1195	176736	keystroke	o	n/a
88.5335	0.104	177067	keystroke	m	n/a
88.7275	0.0905	177455	keystroke	p	n/a
88.953	0.1045	177906	keystroke	l	n/a
89.193	0.0755	178386	keystroke	i	n/a
89.3135	0.1045	178627	keystroke	a	n/a
89.538	0.1205	179076	keystroke	n	n/a
89.733	0.1055	179466	keystroke	t	n/a
89.898	0.12	179796	keystroke	Key.space	n/a
90.0935	0.0895	180187	keystroke	c	n/a
90.228	0.12	180456	keystroke	o	n/a
90.3925	0.1505	180785	keystroke	m	n/a
90.558	0.06	181116	keystroke	b	n/a
90.753	0.12	181506	keystroke	i	n/a
90.9775	0.15	181955	keystroke	n	n/a
91.1575	0.0755	182315	keystroke	e	n/a
91.8035	0.0745	183607	keystroke	d	n/a
91.997	0.091	183994	keystroke	Key.enter	n/a
92.096	10.134	184192	prompt	n/a	early dispatch recovery ears\n
92.763	0.075	185526	keystroke	e	n/a
92.973	0.1205	185946	keystroke	a	n/a
93.273	0.09	186546	keystroke	r	n/a
93.3775	0.12	186755	keystroke	l	n/a
93.6775	0.09	187355	keystroke	y	n/a
93.918	0.09	187836	keystroke	Key.space	n/a
94.4575	0.0605	188915	keystroke	d	n/a
94.7275	0.06	189455	keystroke	e	n/a
95.3575	0.015	190715	keystroke	Key.backspace	n/a
95.8235	0.059	191647	keystroke	e	n/a
96.6025	0.076	193205	keystroke	Key.backspace	n/a
96.8285	0.0745	193657	keystroke	i	n/a
97.203	0.075	194406	keystroke	s	n/a
97.3375	0.1205	194675	keystroke	p	n/a
97.443	0.1345	194886	keystroke	a	n/a
98.4475	0.1045	196895	keystroke	t	n/a
98.7475	0.09	197495	keystroke	c	n/a
98.883	0.105	197766	keystroke	h	n/a
99.0925	0.0905	198185	keystroke	Key.space	n/a
99.3475	0.1505	198695	keystroke	r	n/a
99.4525	0.1055	198905	keystroke	e	n/a
99.723	0.09	199446	keystroke	c	n/a
99.858	0.15	199716	keystroke	o	n/a
100.023	0.06	200046	keystroke	v	n/a
100.232	0.0765	200464	keystroke	e	n/a
100.458	0.0745	200916	keystroke	r	n/a
100.607	0.12	201214	keystroke	y	n/a
100.7425	0.12	201485	keystroke	Key.space	n/a
101.072	0.076	202144	keystroke	e	n/a
101.298	0.119	202596	keystroke	a	n/a
101.583	0.075	203166	keystroke	r	n/a
101.883	0.074	203766	keystroke	s	n/a
102.153	0.075	204306	keystroke	Key.enter	n/a
102.2355	7.075	204471	prompt	n/a	domains vocal afraid medal\n
103.323	0.075	206646	keystroke	d	n/a
103.487	0.106	206974	keystroke	o	n/a
103.713	0.12	207426	keystroke	m	n/a
103.833	0.09	207666	keystroke	a	n/a
103.983	0.105	207966	keystroke	i	n/a
104.178	0.1045	208356	keystroke	n	n/a
104.313	0.0905	208626	keystroke	s	n/a
104.447	0.1055	208894	keystroke	Key.space	n/a
105.123	0.0595	210246	keystroke	v	n/a
105.243	0.1345	210486	keystroke	o	n/a
105.363	0.1195	210726	keystroke	c	n/a
105.633	0.0895	211266	keystroke	a	n/a
105.8425	0.1505	211685	keystroke	l	n/a
106.0225	0.09	212045	keystroke	Key.space	n/a
106.263	0.1045	212526	keystroke	a	n/a
106.743	0.06	213486	keystroke	f	n/a
106.953	0.075	213906	keystroke	r	n/a
107.178	0.1195	214356	keystroke	a	n/a
107.388	0.12	214776	keystroke	i	n/a
107.5225	0.075	215045	keystroke	d	n/a
107.673	0.105	215346	keystroke	Key.space	n/a
108.063	0.12	216126	keystroke	m	n/a
108.4225	0.075	216845	keystroke	e	n/a
108.6475	0.1205	217295	keystroke	d	n/a
108.7375	0.1205	217475	keystroke	a	n/a
108.963	0.105	217926	keystroke	l	n/a
109.2325	0.075	218465	keystroke	Key.enter	n/a
109.3185	11.331	218637	prompt	n/a	arbitration bronze textbook prague\n
110.088	0.105	220176	keystroke	a	n/a
110.3885	0.0595	220777	keystroke	r	n/a
110.628	0.0745	221256	keystroke	b	n/a
110.763	0.0895	221526	keystroke	i	n/a
111.0625	0.0755	222125	keystroke	t	n/a
111.2575	0.12	222515	keystroke	r	n/a
111.4675	0.121	222935	keystroke	a	n/a
111.783	0.09	223566	keystroke	t	n/a
112.038	0.1495	224076	keystroke	i	n/a
112.128	0.1805	224256	keystroke	o	n/a
112.3975	0.1205	224795	keystroke	n	n/a
112.623	0.1045	225246	keystroke	Key.space	n/a
112.8475	0.0905	225695	keystroke	b	n/a
113.553	0.09	227106	keystroke	r	n/a
113.673	0.119	227346	keystroke	o	n/a
113.882	0.121	227764	keystroke	n	n/a
114.018	0.0895	228036	keystroke	z	n/a
114.333	0.06	228666	keystroke	e	n/a
114.5275	0.1045	229055	keystroke	Key.space	n/a
114.7675	0.075	229535	keystroke	t	n/a
114.783	0.075	229566	keystroke	r	n/a
114.963	0.089	229926	keystroke	e	n/a
115.2335	0.089	230467	keystroke	x	n/a
115.728	0.089	231456	keystroke	Key.backspace	n/a
115.937	0.0905	231874	keystroke	Key.backspace	n/a
116.163	0.104	232326	keystroke	Key.backspace	n/a
116.643	0.0745	233286	keystroke	e	n/a
116.882	0.09	233764	keystroke	x	n/a
117.183	0.0745	234366	keystroke	t	n/a
117.588	0.0745	235176	keystroke	b	n/a
117.768	0.105	235536	keystroke	o	n/a
117.9925	0.1205	235985	keystroke	o	n/a
118.1875	0.1655	236375	keystroke	k	n/a
118.3375	0.075	236675	keystroke	Key.space	n/a
118.5175	0.076	237035	keystroke	p	n/a
118.728	0.165	237456	keystroke	r	n/a
118.878	0.1645	237756	keystroke	a	n/a
119.3735	0.074	238747	keystroke	g	n/a
119.673	0.089	239346	keystroke	u	n/a
119.808	0.06	239616	keystroke	e	n/a
120.5875	0.06	241175	keystroke	Key.enter	n/a
120.655	11.8295	241310	prompt	n/a	independent proper nonprofit consequence\n
121.488	0.105	242976	keystroke	i	n/a
121.653	0.105	243306	keystroke	n	n/a
121.968	0.06	243936	keystroke	d	n/a
122.163	0.06	244326	keystroke	e	n/a
122.5825	0.12	245165	keystroke	p	n/a
122.7325	0.06	245465	keystroke	e	n/a
122.8975	0.1055	245795	keystroke	n	n/a
123.0625	0.075	246125	keystroke	d	n/a
123.273	0.0745	246546	keystroke	e	n/a
123.7675	0.09	247535	keystroke	n	n/a
123.918	0.0745	247836	keystroke	t	n/a
124.0825	0.1205	248165	keystroke	Key.space	n/a
124.293	0.12	248586	keystroke	p	n/a
124.473	0.105	248946	keystroke	r	n/a
124.5625	0.1205	249125	keystroke	o	n/a
124.8325	0.12	249665	keystroke	p	n/a
124.8475	0.0305	249695	keystroke	o	n/a
125.0575	0.0755	250115	keystroke	e	n/a
125.313	0.075	250626	keystroke	r	n/a
125.658	0.075	251316	keystroke	Key.backspace	n/a
125.8525	0.09	251705	keystroke	Key.backspace	n/a
126.078	0.09	252156	keystroke	Key.backspace	n/a
126.3025	0.0755	252605	keystroke	e	n/a
126.5425	0.075	253085	keystroke	r	n/a
126.9625	0.105	253925	keystroke	Key.space	n/a
127.5325	0.1205	255065	keystroke	n	n/a
127.668	0.12	255336	keystroke	o	n/a
127.8325	0.12	255665	keystroke	n	n/a
128.073	0.1045	256146	keystroke	p	n/a
128.3575	0.075	256715	keystroke	r	n/a
128.538	0.105	257076	keystroke	o	n/a
129.108	0.09	258216	keystroke	f	n/a
129.2125	0.1355	258425	keystroke	i	n/a
129.4075	0.1045	258815	keystroke	t	n/a
129.663	0.09	259326	keystroke	Key.space	n/a
129.948	0.0745	259896	keystroke	c	n/a
130.008	0.1195	260016	keystroke	o	n/a
130.1875	0.1205	260375	keystroke	n	n/a
130.3375	0.0755	260675	keystroke	s	n/a
130.5325	0.06	261065	keystroke	e	n/a
131.0425	0.0905	262085	keystroke	q	n/a
131.2675	0.1205	262535	keystroke	u	n/a
131.373	0.075	262746	keystroke	e	n/a
131.583	0.135	263166	keystroke	n	n/a
131.703	0.089	263406	keystroke	c	n/a
131.957	0.076	263914	keystroke	e	n/a
132.168	0.075	264336	keystroke	s	n/a
132.407	0.075	264814	keystroke	Key.enter	n/a
132.4905	7.254	264981	prompt	n/a	star remain sticky halloween\n
133.188	0.0895	266376	keystroke	s	n/a
133.4575	0.0905	266915	keystroke	t	n/a
133.6225	0.12	267245	keystroke	a	n/a
133.8925	0.105	267785	keystroke	r	n/a
134.0575	0.105	268115	keystroke	Key.space	n/a
134.2825	0.15	268565	keystroke	r	n/a
134.4025	0.1205	268805	keystroke	e	n/a
134.5975	0.135	269195	keystroke	m	n/a
134.763	0.105	269526	keystroke	a	n/a
134.9125	0.12	269825	keystroke	i	n/a
135.1075	0.105	270215	keystroke	n	n/a
135.3475	0.075	270695	keystroke	Key.space	n/a
135.813	0.0745	271626	keystroke	s	n/a
136.398	0.075	272796	keystroke	t	n/a
136.532	0.1055	273064	keystroke	i	n/a
136.8325	0.0755	273665	keystroke	c	n/a
136.967	0.105	273934	keystroke	k	n/a
137.238	0.09	274476	keystroke	y	n/a
137.447	0.105	274894	keystroke	Key.space	n/a
137.853	0.105	275706	keystroke	h	n/a
138.0025	0.09	276005	keystroke	a	n/a
138.138	0.089	276276	keystroke	l	n/a
138.333	0.06	276666	keystroke	l	n/a
138.543	0.1045	277086	keystroke	o	n/a
138.767	0.09	277534	keystroke	w	n/a
139.0225	0.0605	278045	keystroke	e	n/a
139.158	0.105	278316	keystroke	e	n/a
139.3525	0.1055	278705	keystroke	n	n/a
139.652	0.091	279304	keystroke	Key.enter	n/a
139.7495	13.1955	279499	prompt	n/a	styles paint alternatively statute\n
140.493	0.045	280986	keystroke	s	n/a
140.718	0.09	281436	keystroke	t	n/a
140.898	0.0895	281796	keystroke	y	n/a
140.913	0.0445	281826	keystroke	u	n/a
141.138	0.134	282276	keystroke	l	n/a
141.572	0.075	283144	keystroke	Key.backspace	n/a
141.767	0.1055	283534	keystroke	Key.backspace	n/a
142.2925	0.105	284585	keystroke	l	n/a
142.4275	0.075	284855	keystroke	e	n/a
142.6675	0.0745	285335	keystroke	s	n/a
142.803	0.1045	285606	keystroke	Key.space	n/a
143.0275	0.105	286055	keystroke	p	n/a
143.2075	0.1055	286415	keystroke	a	n/a
143.2825	0.105	286565	keystroke	i	n/a
143.508	0.119	287016	keystroke	n	n/a
143.7325	0.075	287465	keystroke	g	n/a
143.9575	0.06	287915	keystroke	Key.space	n/a
145.7725	0.075	291545	keystroke	Key.backspace	n/a
145.9525	0.105	291905	keystroke	Key.backspace	n/a
146.193	0.0895	292386	keystroke	t	n/a
146.403	0.0745	292806	keystroke	Key.space	n/a
146.7625	0.09	293525	keystroke	a	n/a
146.8825	0.105	293765	keystroke	l	n/a
147.153	0.09	294306	keystroke	t	n/a
147.333	0.105	294666	keystroke	e	n/a
147.573	0.075	295146	keystroke	r	n/a
148.218	0.105	296436	keystroke	n	n/a
148.353	0.09	296706	keystroke	a	n/a
148.683	0.09	297366	keystroke	t	n/a
148.8035	0.1195	297607	keystroke	i	n/a
149.118	0.06	298236	keystroke	v	n/a
149.328	0.075	298656	keystroke	e	n/a
149.418	0.119	298836	keystroke	l	n/a
149.673	0.135	299346	keystroke	y	n/a
149.793	0.12	299586	keystroke	Key.space	n/a
150.018	0.105	300036	keystroke	s	n/a
150.288	0.105	300576	keystroke	t	n/a
150.513	0.12	301026	keystroke	a	n/a
150.7825	0.0905	301565	keystroke	t	n/a
150.917	0.121	301834	keystroke	u	n/a
151.143	0.075	302286	keystroke	r	n/a
151.367	0.076	302734	keystroke	e	n/a
151.847	0.09	303694	keystroke	Key.backspace	n/a
152.0575	0.1205	304115	keystroke	Key.backspace	n/a
152.508	0.074	305016	keystroke	t	n/a
152.658	0.09	305316	keystroke	e	n/a
152.867	0.076	305734	keystroke	Key.enter	n/a
152.9495	8.23	305899	prompt	n/a	fragrance done boundary orders\n
153.872	0.0755	307744	keystroke	f	n/a
154.1125	0.075	308225	keystroke	r	n/a
154.413	0.09	308826	keystroke	a	n/a
154.9225	0.075	309845	keystroke	g	n/a
155.2075	0.12	310415	keystroke	r	n/a
155.3575	0.135	310715	keystroke	a	n/a
155.6125	0.1055	311225	keystroke	n	n/a
155.748	0.09	311496	keystroke	c	n/a
156.063	0.06	312126	keystroke	e	n/a
156.242	0.1055	312484	keystroke	Key.space	n/a
156.498	0.075	312996	keystroke	d	n/a
156.588	0.1045	313176	keystroke	o	n/a
156.797	0.1205	313594	keystroke	n	n/a
157.008	0.074	314016	keystroke	e	n/a
157.172	0.121	314344	keystroke	Key.space	n/a
157.457	0.09	314914	keystroke	b	n/a
157.592	0.15	315184	keystroke	o	n/a
157.698	0.134	315396	keystroke	u	n/a
157.9975	0.1195	315995	keystroke	n	n/a
158.598	0.1345	317196	keystroke	d	n/a
158.703	0.135	317406	keystroke	a	n/a
159.002	0.091	318004	keystroke	r	n/a
159.168	0.0895	318336	keystroke	y	n/a
159.347	0.09	318694	keystroke	Key.space	n/a
159.527	0.12	319054	keystroke	o	n/a
159.737	0.0905	319474	keystroke	r	n/a
159.9625	0.0905	319925	keystroke	d	n/a
160.233	0.06	320466	keystroke	e	n/a
160.428	0.09	320856	keystroke	r	n/a
160.6825	0.075	321365	keystroke	s	n/a
161.102	0.075	322204	keystroke	Key.enter	n/a
161.184	10.81	322368	prompt	n/a	rated disable portable postposted\n
161.912	0.1055	323824	keystroke	r	n/a
162.1075	0.1195	324215	keystroke	a	n/a
162.3925	0.075	324785	keystroke	t	n/a
162.587	0.0755	325174	keystroke	e	n/a
162.8425	0.075	325685	keystroke	d	n/a
163.0375	0.1205	326075	keystroke	Key.space	n/a
163.3075	0.0905	326615	keystroke	s	n/a
163.488	0.12	326976	keystroke	i	n/a
164.073	0.0595	328146	keystroke	Key.backspace	n/a
164.2375	0.12	328475	keystroke	Key.backspace	n/a
164.432	0.09	328864	keystroke	d	n/a
164.5525	0.12	329105	keystroke	i	n/a
164.732	0.105	329464	keystroke	s	n/a
164.973	0.1045	329946	keystroke	a	n/a
165.2425	0.0905	330485	keystroke	b	n/a
165.423	0.1345	330846	keystroke	l	n/a
165.5725	0.09	331145	keystroke	e	n/a
165.722	0.105	331444	keystroke	Key.space	n/a
165.962	0.121	331924	keystroke	p	n/a
166.203	0.075	332406	keystroke	r	n/a
166.413	0.0895	332826	keystroke	o	n/a
167.027	0.0905	334054	keystroke	Key.backspace	n/a
167.2075	0.1045	334415	keystroke	Key.backspace	n/a
167.493	0.1195	334986	keystroke	o	n/a
167.703	0.074	335406	keystroke	r	n/a
167.943	0.089	335886	keystroke	t	n/a
168.122	0.1055	336244	keystroke	a	n/a
168.347	0.091	336694	keystroke	b	n/a
168.528	0.12	337056	keystroke	l	n/a
168.693	0.074	337386	keystroke	e	n/a
168.9775	0.0595	337955	keystroke	Key.space	n/a
169.668	0.179	339336	keystroke	p	n/a
169.742	0.1355	339484	keystroke	o	n/a
169.937	0.105	339874	keystroke	s	n/a
170.2675	0.0895	340535	keystroke	t	n/a
170.912	0.135	341824	keystroke	p	n/a
170.9725	0.1795	341945	keystroke	o	n/a
171.3025	0.1645	342605	keystroke	n	n/a
171.482	0.076	342964	keystroke	e	n/a
171.693	0.0895	343386	keystroke	d	n/a
171.903	0.089	343806	keystroke	Key.enter	n/a
171.9995	10.945	343999	prompt	n/a	stockings i've might've expected\n
172.712	0.075	345424	keystroke	s	n/a
172.997	0.076	345994	keystroke	t	n/a
173.3875	0.105	346775	keystroke	o	n/a
173.8825	0.09	347765	keystroke	c	n/a
173.9575	0.0895	347915	keystroke	k	n/a
174.168	0.0895	348336	keystroke	i	n/a
174.3325	0.1345	348665	keystroke	n	n/a
174.5285	0.089	349057	keystroke	g	n/a
174.797	0.0755	349594	keystroke	s	n/a
175.247	0.1055	350494	keystroke	Key.space	n/a
175.487	0.0905	350974	keystroke	i	n/a
175.7425	0.1045	351485	keystroke	'	n/a
176.072	0.075	352144	keystroke	v	n/a
176.2675	0.0745	352535	keystroke	e	n/a
176.4625	0.105	352925	keystroke	Key.space	n/a
176.7025	0.09	353405	keystroke	m	n/a
176.8825	0.12	353765	keystroke	i	n/a
177.6325	0.075	355265	keystroke	g	n/a
177.737	0.1205	355474	keystroke	h	n/a
178.7575	0.075	357515	keystroke	t	n/a
178.952	0.136	357904	keystroke	'	n/a
179.208	0.0745	358416	keystroke	v	n/a
179.507	0.06	359014	keystroke	e	n/a
180.0925	0.105	360185	keystroke	Key.space	n/a
180.303	0.0595	360606	keystroke	e	n/a
180.542	0.09	361084	keystroke	x	n/a
180.662	0.105	361324	keystroke	p	n/a
181.622	0.0755	363244	keystroke	e	n/a
181.847	0.076	363694	keystroke	c	n/a
182.1325	0.0895	364265	keystroke	t	n/a
182.342	0.075	364684	keystroke	e	n/a
182.5675	0.0755	365135	keystroke	d	n/a
182.8675	0.075	365735	keystroke	Key.enter	n/a
182.9485	10.481	365897	prompt	n/a	directive illustrations nowhere illness\n
183.6325	0.06	367265	keystroke	d	n/a
184.457	0.105	368914	keystroke	i	n/a
184.7125	0.165	369425	keystroke	r	n/a
184.848	0.0895	369696	keystroke	e	n/a
185.1025	0.105	370205	keystroke	c	n/a
185.388	0.104	370776	keystroke	t	n/a
185.567	0.136	371134	keystroke	i	n/a
185.687	0.121	371374	keystroke	v	n/a
185.9875	0.06	371975	keystroke	e	n/a
186.1825	0.12	372365	keystroke	Key.space	n/a
186.4525	0.09	372905	keystroke	i	n/a
186.6625	0.09	373325	keystroke	l	n/a
186.8875	0.105	373775	keystroke	l	n/a
187.1275	0.0755	374255	keystroke	u	n/a
187.5925	0.0905	375185	keystroke	s	n/a
187.847	0.075	375694	keystroke	t	n/a
188.0425	0.1045	376085	keystroke	r	n/a
188.268	0.105	376536	keystroke	a	n/a
188.553	0.0895	377106	keystroke	t	n/a
188.8225	0.1655	377645	keystroke	i	n/a
188.9275	0.18	377855	keystroke	o	n/a
189.213	0.1045	378426	keystroke	n	n/a
189.573	0.0895	379146	keystroke	s	n/a
189.7525	0.09	379505	keystroke	Key.space	n/a
189.977	0.105	379954	keystroke	n	n/a
190.083	0.165	380166	keystroke	o	n/a
190.308	0.074	380616	keystroke	w	n/a
190.578	0.12	381156	keystroke	h	n/a
190.803	0.075	381606	keystroke	e	n/a
191.237	0.075	382474	keystroke	r	n/a
191.492	0.091	382984	keystroke	e	n/a
191.763	0.075	383526	keystroke	Key.space	n/a
191.942	0.09	383884	keystroke	i	n/a
192.1525	0.0745	384305	keystroke	l	n/a
192.303	0.089	384606	keystroke	l	n/a
192.4975	0.135	384995	keystroke	n	n/a
192.6475	0.0895	385295	keystroke	e	n/a
192.8725	0.1045	385745	keystroke	s	n/a
193.0975	0.0895	386195	keystroke	s	n/a
193.3375	0.09	386675	keystroke	Key.enter	n/a
193.435	9.054	386870	prompt	n/a	brokers opponent costume pants\n
194.283	0.074	388566	keystroke	b	n/a
194.523	0.0745	389046	keystroke	r	n/a
194.6275	0.1205	389255	keystroke	o	n/a
194.853	0.12	389706	keystroke	k	n/a
195.002	0.076	390004	keystroke	e	n/a
195.198	0.1045	390396	keystroke	r	n/a
195.468	0.0745	390936	keystroke	s	n/a
195.6625	0.09	391325	keystroke	Key.space	n/a
195.9475	0.105	391895	keystroke	o	n/a
196.173	0.0595	392346	keystroke	p	n/a
196.3225	0.105	392645	keystroke	p	n/a
197.0875	0.105	394175	keystroke	o	n/a
197.7475	0.135	395495	keystroke	n	n/a
197.942	0.075	395884	keystroke	e	n/a
198.1675	0.135	396335	keystroke	n	n/a
198.4075	0.075	396815	keystroke	t	n/a
198.6475	0.12	397295	keystroke	Key.space	n/a
199.008	0.0595	398016	keystroke	c	n/a
199.0825	0.15	398165	keystroke	o	n/a
199.308	0.1045	398616	keystroke	s	n/a
199.563	0.105	399126	keystroke	t	n/a
199.7275	0.12	399455	keystroke	u	n/a
199.9975	0.135	399995	keystroke	m	n/a
200.1765	0.0615	400353	keystroke	e	n/a
200.297	0.1055	400594	keystroke	Key.space	n/a
200.5375	0.12	401075	keystroke	p	n/a
200.688	0.1045	401376	keystroke	a	n/a
201.4825	0.015	402965	keystroke	n	n/a
201.6935	0.089	403387	keystroke	t	n/a
201.9475	0.105	403895	keystroke	s	n/a
202.3975	0.09	404795	keystroke	Key.enter	n/a
202.493	9.416	404986	prompt	n/a	picnic warned bennett vendor\n
203.2375	0.105	406475	keystroke	p	n/a
203.612	0.121	407224	keystroke	o	n/a
204.0325	0.105	408065	keystroke	Key.backspace	n/a
204.273	0.105	408546	keystroke	i	n/a
204.483	0.0745	408966	keystroke	c	n/a
204.602	0.09	409204	keystroke	n	n/a
204.8125	0.12	409625	keystroke	i	n/a
205.068	0.0895	410136	keystroke	c	n/a
205.3075	0.075	410615	keystroke	Key.space	n/a
205.7725	0.0745	411545	keystroke	w	n/a
205.9825	0.105	411965	keystroke	a	n/a
206.2975	0.0745	412595	keystroke	r	n/a
206.613	0.104	413226	keystroke	n	n/a
206.748	0.074	413496	keystroke	e	n/a
206.9725	0.09	413945	keystroke	d	n/a
207.0925	0.09	414185	keystroke	Key.space	n/a
207.4375	0.06	414875	keystroke	b	n/a
207.678	0.0595	415356	keystroke	e	n/a
208.2175	0.06	416435	keystroke	n	n/a
208.3825	0.09	416765	keystroke	n	n/a
208.6825	0.09	417365	keystroke	e	n/a
208.9525	0.075	417905	keystroke	t	n/a
209.1025	0.09	418205	keystroke	t	n/a
209.267	0.0905	418534	keystroke	Key.space	n/a
209.4775	0.09	418955	keystroke	n	n/a
210.2125	0.015	420425	keystroke	Key.backspace	n/a
210.242	0.045	420484	keystroke	v	n/a
210.812	0.105	421624	keystroke	e	n/a
210.978	0.0895	421956	keystroke	n	n/a
211.2625	0.075	422525	keystroke	d	n/a
211.442	0.121	422884	keystroke	o	n/a
211.592	0.09	423184	keystroke	r	n/a
211.832	0.0755	423664	keystroke	Key.enter	n/a
211.9135	9.041	423827	prompt	n/a	utah greeting lung reproduction\n
212.882	0.0905	425764	keystroke	u	n/a
213.167	0.165	426334	keystroke	t	n/a
213.318	0.1195	426636	keystroke	a	n/a
213.513	0.119	427026	keystroke	h	n/a
213.722	0.105	427444	keystroke	Key.space	n/a
214.2625	0.075	428525	keystroke	g	n/a
214.4875	0.09	428975	keystroke	r	n/a
214.682	0.061	429364	keystroke	e	n/a
214.818	0.09	429636	keystroke	e	n/a
215.103	0.09	430206	keystroke	t	n/a
215.223	0.135	430446	keystroke	i	n/a
215.448	0.135	430896	keystroke	n	n/a
215.688	0.09	431376	keystroke	g	n/a
215.9425	0.0905	431885	keystroke	Key.space	n/a
216.1675	0.12	432335	keystroke	l	n/a
216.407	0.0905	432814	keystroke	u	n/a
216.632	0.105	433264	keystroke	n	n/a
216.857	0.091	433714	keystroke	g	n/a
217.0075	0.0895	434015	keystroke	Key.space	n/a
217.503	0.1045	435006	keystroke	r	n/a
217.652	0.105	435304	keystroke	e	n/a
217.907	0.135	435814	keystroke	p	n/a
218.223	0.089	436446	keystroke	r	n/a
218.388	0.104	436776	keystroke	o	n/a
219.182	0.06	438364	keystroke	d	n/a
219.3775	0.09	438755	keystroke	u	n/a
219.542	0.075	439084	keystroke	c	n/a
219.873	0.0895	439746	keystroke	t	n/a
220.0225	0.195	440045	keystroke	i	n/a
220.1575	0.1655	440315	keystroke	o	n/a
220.3975	0.135	440795	keystroke	n	n/a
220.9075	0.045	441815	keystroke	Key.enter	n/a
220.9585	9.1005	441917	prompt	n/a	notification cooler compression argue\n
221.6725	0.09	443345	keystroke	n	n/a
221.7775	0.12	443555	keystroke	o	n/a
222.0625	0.075	444125	keystroke	t	n/a
222.1825	0.135	444365	keystroke	i	n/a
222.6475	0.075	445295	keystroke	f	n/a
222.7825	0.12	445565	keystroke	i	n/a
223.1125	0.075	446225	keystroke	c	n/a
223.3375	0.075	446675	keystroke	a	n/a
223.8625	0.09	447725	keystroke	t	n/a
224.0725	0.18	448145	keystroke	i	n/a
224.1925	0.15	448385	keystroke	o	n/a
224.4325	0.09	448865	keystroke	n	n/a
224.6125	0.1205	449225	keystroke	Key.space	n/a
224.8675	0.09	449735	keystroke	c	n/a
224.9875	0.0905	449975	keystroke	o	n/a
225.1525	0.105	450305	keystroke	o	n/a
225.378	0.1195	450756	keystroke	l	n/a
225.5125	0.0755	451025	keystroke	e	n/a
225.7375	0.0755	451475	keystroke	r	n/a
225.8275	0.135	451655	keystroke	Key.space	n/a
226.0375	0.12	452075	keystroke	c	n/a
226.0825	0.15	452165	keystroke	o	n/a
226.2775	0.12	452555	keystroke	m	n/a
226.4725	0.105	452945	keystroke	p	n/a
226.6825	0.105	453365	keystroke	r	n/a
226.9225	0.075	453845	keystroke	e	n/a
227.1925	0.075	454385	keystroke	s	n/a
227.3725	0.09	454745	keystroke	s	n/a
227.6125	0.12	455225	keystroke	i	n/a
227.6725	0.15	455345	keystroke	o	n/a
227.9125	0.105	455825	keystroke	n	n/a
228.167	0.1055	456334	keystroke	Key.space	n/a
228.4675	0.0905	456935	keystroke	a	n/a
228.9775	0.075	457955	keystroke	r	n/a
229.2925	0.09	458585	keystroke	g	n/a
229.442	0.1505	458884	keystroke	u	n/a
229.6075	0.075	459215	keystroke	e	n/a
229.983	0.0745	459966	keystroke	Key.enter	n/a
230.068	10.2665	460136	prompt	n/a	computed launch results doom\n
230.853	0.074	461706	keystroke	c	n/a
230.957	0.1205	461914	keystroke	o	n/a
231.1375	0.12	462275	keystroke	m	n/a
231.3925	0.0755	462785	keystroke	p	n/a
231.633	0.089	463266	keystroke	u	n/a
231.918	0.0745	463836	keystroke	t	n/a
232.1125	0.0755	464225	keystroke	e	n/a
232.337	0.09	464674	keystroke	d	n/a
232.622	0.015	465244	keystroke	Key.space	n/a
232.7285	0.1345	465457	keystroke	l	n/a
232.9375	0.09	465875	keystroke	a	n/a
233.463	0.089	466926	keystroke	u	n/a
233.868	0.12	467736	keystroke	n	n/a
234.063	0.09	468126	keystroke	c	n/a
234.227	0.09	468454	keystroke	h	n/a
234.437	0.0905	468874	keystroke	Key.space	n/a
234.9625	0.09	469925	keystroke	r	n/a
235.1575	0.075	470315	keystroke	e	n/a
235.3525	0.09	470705	keystroke	s	n/a
235.8175	0.09	471635	keystroke	u	n/a
236.957	0.12	473914	keystroke	l	n/a
237.092	0.0605	474184	keystroke	r	n/a
237.287	0.076	474574	keystroke	t	n/a
237.8275	0.06	475655	keystroke	Key.backspace	n/a
237.9775	0.105	475955	keystroke	Key.backspace	n/a
238.6075	0.075	477215	keystroke	t	n/a
238.848	0.1345	477696	keystroke	s	n/a
239.207	0.135	478414	keystroke	Key.space	n/a
239.477	0.076	478954	keystroke	d	n/a
239.568	0.074	479136	keystroke	o	n/a
239.747	0.136	479494	keystroke	o	n/a
239.9575	0.12	479915	keystroke	m	n/a
240.2425	0.0895	480485	keystroke	Key.enter	n/a
240.339	11.83	480678	prompt	n/a	reduced saudi corpus publisher\n
241.6075	0.09	483215	keystroke	r	n/a
241.9075	0.075	483815	keystroke	e	n/a
242.7475	0.06	485495	keystroke	d	n/a
242.8825	0.105	485765	keystroke	u	n/a
243.0625	0.0905	486125	keystroke	c	n/a
243.3175	0.0595	486635	keystroke	e	n/a
243.5585	0.0745	487117	keystroke	d	n/a
243.6775	0.1195	487355	keystroke	Key.space	n/a
243.9625	0.21	487925	keystroke	s	n/a
244.112	0.1355	488224	keystroke	a	n/a
244.4425	0.1205	488885	keystroke	u	n/a
244.7125	0.09	489425	keystroke	d	n/a
244.833	0.209	489666	keystroke	i	n/a
245.0565	0.136	490113	keystroke	Key.space	n/a
245.7475	0.1195	491495	keystroke	c	n/a
246.4975	0.15	492995	keystroke	o	n/a
246.7825	0.0905	493565	keystroke	r	n/a
247.2775	0.09	494555	keystroke	p	n/a
247.4725	0.09	494945	keystroke	u	n/a
247.6975	0.075	495395	keystroke	s	n/a
247.9225	0.075	495845	keystroke	Key.space	n/a
248.3425	0.105	496685	keystroke	p	n/a
248.5225	0.0895	497045	keystroke	u	n/a
248.882	0.0605	497764	keystroke	b	n/a
249.393	0.1045	498786	keystroke	l	n/a
249.618	0.045	499236	keystroke	i	n/a
250.307	0.0905	500614	keystroke	s	n/a
250.3975	0.105	500795	keystroke	h	n/a
250.5475	0.075	501095	keystroke	e	n/a
250.817	0.09	501634	keystroke	r	n/a
252.0925	0.0745	504185	keystroke	Key.enter	n/a
252.1735	11.651	504347	prompt	n/a	screensaver preserve surprise kruger\n
252.962	0.0605	505924	keystroke	s	n/a
253.172	0.06	506344	keystroke	c	n/a
253.4425	0.1045	506885	keystroke	r	n/a
253.6515	0.0615	507303	keystroke	e	n/a
253.803	0.0745	507606	keystroke	e	n/a
254.042	0.1205	508084	keystroke	n	n/a
254.687	0.1795	509374	keystroke	s	n/a
254.8375	0.135	509675	keystroke	a	n/a
255.0925	0.09	510185	keystroke	v	n/a
255.3325	0.0755	510665	keystroke	e	n/a
255.5425	0.105	511085	keystroke	r	n/a
255.7375	0.12	511475	keystroke	Key.space	n/a
255.9775	0.105	511955	keystroke	p	n/a
256.128	0.1345	512256	keystroke	r	n/a
256.2475	0.15	512495	keystroke	e	n/a
256.578	0.105	513156	keystroke	s	n/a
257.1025	0.09	514205	keystroke	e	n/a
257.2975	0.0755	514595	keystroke	r	n/a
257.538	0.09	515076	keystroke	v	n/a
257.7925	0.09	515585	keystroke	e	n/a
257.9575	0.12	515915	keystroke	Key.space	n/a
258.1225	0.0905	516245	keystroke	s	n/a
258.9015	0.09	517803	keystroke	u	n/a
259.442	0.061	518884	keystroke	r	n/a
259.6225	0.105	519245	keystroke	p	n/a
260.3725	0.015	520745	keystroke	r	n/a
260.508	0.12	521016	keystroke	i	n/a
261.077	0.075	522154	keystroke	s	n/a
261.317	0.0605	522634	keystroke	e	n/a
261.5575	0.12	523115	keystroke	Key.space	n/a
262.368	0.12	524736	keystroke	k	n/a
262.6525	0.0905	525305	keystroke	r	n/a
262.802	0.1655	525604	keystroke	u	n/a
263.0725	0.105	526145	keystroke	g	n/a
263.282	0.105	526564	keystroke	e	n/a
263.4925	0.105	526985	keystroke	r	n/a
263.7325	0.09	527465	keystroke	Key.enter	n/a
263.8295	10.9145	527659	prompt	n/a	see classics investigations baker\n
264.4675	0.075	528935	keystroke	s	n/a
264.7075	0.0455	529415	keystroke	e	n/a
264.8125	0.105	529625	keystroke	e	n/a
264.977	0.105	529954	keystroke	Key.space	n/a
265.1275	0.105	530255	keystroke	c	n/a
265.263	0.1345	530526	keystroke	l	n/a
265.9825	0.09	531965	keystroke	a	n/a
266.208	0.0735	532416	keystroke	s	n/a
266.3575	0.105	532715	keystroke	s	n/a
266.583	0.1195	533166	keystroke	i	n/a
267.0625	0.075	534125	keystroke	c	n/a
267.3175	0.075	534635	keystroke	s	n/a
267.5425	0.075	535085	keystroke	Key.space	n/a
267.767	0.105	535534	keystroke	i	n/a
267.947	0.1055	535894	keystroke	n	n/a
268.458	0.0735	536916	keystroke	v	n/a
268.6525	0.105	537305	keystroke	s	n/a
268.8925	0.0605	537785	keystroke	e	n/a
269.7625	0.06	539525	keystroke	t	n/a
270.2575	0.045	540515	keystroke	Key.backspace	n/a
270.3625	0.105	540725	keystroke	Key.backspace	n/a
270.7075	0.1195	541415	keystroke	Key.backspace	n/a
271.1725	0.0595	542345	keystroke	e	n/a
271.383	0.089	542766	keystroke	s	n/a
271.652	0.0755	543304	keystroke	t	n/a
271.7725	0.12	543545	keystroke	i	n/a
272.2975	0.09	544595	keystroke	g	n/a
272.4625	0.105	544925	keystroke	a	n/a
272.7475	0.075	545495	keystroke	t	n/a
273.0025	0.1795	546005	keystroke	i	n/a
273.1075	0.1505	546215	keystroke	o	n/a
273.363	0.1345	546726	keystroke	n	n/a
273.5425	0.12	547085	keystroke	Key.space	n/a
273.7375	0.135	547475	keystroke	b	n/a
273.858	0.1345	547716	keystroke	a	n/a
274.0525	0.18	548105	keystroke	k	n/a
274.2175	0.06	548435	keystroke	e	n/a
274.4425	0.075	548885	keystroke	r	n/a
274.6525	0.09	549305	keystroke	Key.enter	n/a
274.748	8.261	549496	prompt	n/a	liberia gregory iran brake\n
275.4625	0.03	550925	keystroke	l	n/a
275.6125	0.09	551225	keystroke	i	n/a
276.198	0.1345	552396	keystroke	b	n/a
276.348	0.1045	552696	keystroke	e	n/a
276.5725	0.1205	553145	keystroke	r	n/a
276.7075	0.15	553415	keystroke	i	n/a
276.8275	0.134	553655	keystroke	a	n/a
277.0075	0.135	554015	keystroke	Key.space	n/a
277.968	0.075	555936	keystroke	g	n/a
278.178	0.164	556356	keystroke	r	n/a
278.327	0.106	556654	keystroke	e	n/a
278.582	0.091	557164	keystroke	g	n/a
278.688	0.1345	557376	keystroke	o	n/a
278.8965	0.106	557793	keystroke	r	n/a
279.092	0.1205	558184	keystroke	y	n/a
279.272	0.105	558544	keystroke	Key.space	n/a
279.498	0.1195	558996	keystroke	i	n/a
279.7975	0.12	559595	keystroke	r	n/a
280.0375	0.1055	560075	keystroke	a	n/a
280.2475	0.09	560495	keystroke	n	n/a
280.442	0.0755	560884	keystroke	Key.space	n/a
281.898	0.06	563796	keystroke	b	n/a
282.198	0.105	564396	keystroke	r	n/a
282.347	0.121	564694	keystroke	a	n/a
282.528	0.135	565056	keystroke	k	n/a
282.693	0.0745	565386	keystroke	e	n/a
282.9325	0.075	565865	keystroke	Key.enter	n/a
283.013	9.641	566026	prompt	n/a	however gzip indonesia benjamin\n
284.208	0.15	568416	keystroke	h	n/a
284.298	0.18	568596	keystroke	o	n/a
284.508	0.104	569016	keystroke	w	n/a
284.733	0.075	569466	keystroke	e	n/a
285.423	0.09	570846	keystroke	v	n/a
285.527	0.105	571054	keystroke	e	n/a
285.7525	0.0895	571505	keystroke	r	n/a
286.007	0.09	572014	keystroke	Key.space	n/a
286.638	0.0895	573276	keystroke	g	n/a
286.8775	0.1345	573755	keystroke	z	n/a
286.997	0.1505	573994	keystroke	i	n/a
287.163	0.1045	574326	keystroke	p	n/a
287.432	0.09	574864	keystroke	Key.space	n/a
288.078	0.1045	576156	keystroke	i	n/a
288.2735	0.119	576547	keystroke	n	n/a
288.4675	0.0895	576935	keystroke	d	n/a
288.5725	0.105	577145	keystroke	o	n/a
289.0675	0.1045	578135	keystroke	n	n/a
289.277	0.0755	578554	keystroke	e	n/a
289.757	0.0905	579514	keystroke	s	n/a
289.8625	0.15	579725	keystroke	i	n/a
290.027	0.09	580054	keystroke	a	n/a
290.1475	0.105	580295	keystroke	Key.space	n/a
290.8675	0.06	581735	keystroke	b	n/a
291.1225	0.0755	582245	keystroke	e	n/a
291.273	0.1045	582546	keystroke	n	n/a
291.5425	0.12	583085	keystroke	j	n/a
291.6775	0.12	583355	keystroke	a	n/a
291.8425	0.105	583685	keystroke	m	n/a
292.0525	0.105	584105	keystroke	i	n/a
292.262	0.0905	584524	keystroke	n	n/a
292.5775	0.074	585155	keystroke	Key.enter	n/a
292.659	8.785	585318	prompt	n/a	gauge impression someone's find\n
293.6575	0.1355	587315	keystroke	g	n/a
293.7475	0.15	587495	keystroke	a	n/a
294.003	0.1195	588006	keystroke	u	n/a
294.1825	0.105	588365	keystroke	g	n/a
294.4225	0.0895	588845	keystroke	e	n/a
294.602	0.1655	589204	keystroke	Key.space	n/a
294.753	0.105	589506	keystroke	i	n/a
294.948	0.089	589896	keystroke	m	n/a
295.143	0.1045	590286	keystroke	p	n/a
295.383	0.1035	590766	keystroke	r	n/a
295.577	0.106	591154	keystroke	e	n/a
295.833	0.0745	591666	keystroke	s	n/a
295.983	0.1035	591966	keystroke	s	n/a
296.237	0.1495	592474	keystroke	i	n/a
296.3275	0.15	592655	keystroke	o	n/a
296.5825	0.12	593165	keystroke	n	n/a
296.747	0.1505	593494	keystroke	Key.space	n/a
296.9725	0.0905	593945	keystroke	s	n/a
297.1075	0.135	594215	keystroke	o	n/a
297.332	0.181	594664	keystroke	m	n/a
298.097	0.09	596194	keystroke	e	n/a
298.2625	0.1195	596525	keystroke	o	n/a
298.427	0.151	596854	keystroke	n	n/a
298.863	0.0595	597726	keystroke	e	n/a
299.1925	0.12	598385	keystroke	'	n/a
299.642	0.075	599284	keystroke	s	n/a
300.317	0.076	600634	keystroke	Key.space	n/a
300.482	0.09	600964	keystroke	f	n/a
300.588	0.1195	601176	keystroke	i	n/a
300.797	0.1505	601594	keystroke	n	n/a
301.022	0.075	602044	keystroke	d	n/a
301.3525	0.0895	602705	keystroke	Key.enter	n/a
301.4485	8.5905	602897	prompt	n/a	reform medicare proud iceland\n
302.403	0.134	604806	keystroke	r	n/a
302.5075	0.1345	605015	keystroke	e	n/a
303.0625	0.06	606125	keystroke	f	n/a
303.2425	0.09	606485	keystroke	r	n/a
303.663	0.075	607326	keystroke	Key.backspace	n/a
303.918	0.1195	607836	keystroke	o	n/a
304.2775	0.075	608555	keystroke	r	n/a
304.3825	0.1495	608765	keystroke	m	n/a
304.607	0.09	609214	keystroke	Key.space	n/a
304.787	0.1205	609574	keystroke	m	n/a
304.982	0.0755	609964	keystroke	e	n/a
305.222	0.0755	610444	keystroke	d	n/a
305.357	0.12	610714	keystroke	i	n/a
305.447	0.09	610894	keystroke	c	n/a
305.673	0.105	611346	keystroke	a	n/a
305.942	0.09	611884	keystroke	r	n/a
306.1375	0.0895	612275	keystroke	e	n/a
306.362	0.12	612724	keystroke	Key.space	n/a
307.037	0.105	614074	keystroke	p	n/a
307.307	0.105	614614	keystroke	r	n/a
307.427	0.09	614854	keystroke	o	n/a
307.5475	0.1345	615095	keystroke	u	n/a
307.8625	0.0595	615725	keystroke	d	n/a
308.087	0.1055	616174	keystroke	Key.space	n/a
308.642	0.106	617284	keystroke	i	n/a
308.8375	0.09	617675	keystroke	c	n/a
309.063	0.059	618126	keystroke	e	n/a
309.243	0.149	618486	keystroke	l	n/a
309.407	0.091	618814	keystroke	a	n/a
309.498	0.1645	618996	keystroke	n	n/a
309.723	0.075	619446	keystroke	d	n/a
309.9315	0.1055	619863	keystroke	Key.enter	n/a
310.0435	7.3005	620087	prompt	n/a	or shades adelaide there's\n
310.743	0.1345	621486	keystroke	o	n/a
310.9075	0.09	621815	keystroke	r	n/a
311.0275	0.09	622055	keystroke	Key.space	n/a
311.372	0.0905	622744	keystroke	s	n/a
311.477	0.1205	622954	keystroke	h	n/a
311.567	0.12	623134	keystroke	a	n/a
311.807	0.0755	623614	keystroke	d	n/a
312.047	0.09	624094	keystroke	e	n/a
312.287	0.09	624574	keystroke	s	n/a
312.452	0.105	624904	keystroke	Key.space	n/a
312.767	0.09	625534	keystroke	a	n/a
312.978	0.0745	625956	keystroke	d	n/a
313.9665	0.061	627933	keystroke	e	n/a
314.3275	0.1505	628655	keystroke	l	n/a
314.478	0.104	628956	keystroke	a	n/a
314.673	0.134	629346	keystroke	i	n/a
314.837	0.0755	629674	keystroke	d	n/a
315.078	0.0745	630156	keystroke	e	n/a
315.243	0.09	630486	keystroke	Key.space	n/a
315.542	0.09	631084	keystroke	t	n/a
315.647	0.151	631294	keystroke	h	n/a
315.827	0.105	631654	keystroke	e	n/a
316.082	0.105	632164	keystroke	r	n/a
316.577	0.09	633154	keystroke	e	n/a
316.682	0.1205	633364	keystroke	'	n/a
316.998	0.0745	633996	keystroke	s	n/a
317.2675	0.075	634535	keystroke	Key.enter	n/a
317.3475	8.8765	634695	prompt	n/a	contact laden voip stronger\n
318.0925	0.0895	636185	keystroke	c	n/a
318.1975	0.1205	636395	keystroke	o	n/a
318.4075	0.1045	636815	keystroke	n	n/a
319.232	0.0905	638464	keystroke	t	n/a
319.382	0.135	638764	keystroke	a	n/a
319.652	0.076	639304	keystroke	c	n/a
319.952	0.0905	639904	keystroke	t	n/a
320.102	0.075	640204	keystroke	Key.space	n/a
320.2975	0.1045	640595	keystroke	l	n/a
320.417	0.105	640834	keystroke	a	n/a
320.627	0.0755	641254	keystroke	d	n/a
320.8675	0.075	641735	keystroke	e	n/a
321.0475	0.105	642095	keystroke	n	n/a
321.2575	0.09	642515	keystroke	Key.space	n/a
322.0225	0.075	644045	keystroke	v	n/a
322.1725	0.18	644345	keystroke	o	n/a
322.683	0.1045	645366	keystroke	i	n/a
322.9075	0.105	645815	keystroke	p	n/a
323.192	0.105	646384	keystroke	Key.space	n/a
323.5225	0.09	647045	keystroke	s	n/a
323.8075	0.074	647615	keystroke	t	n/a
323.9875	0.0895	647975	keystroke	r	n/a
324.0925	0.1205	648185	keystroke	o	n/a
324.287	0.121	648574	keystroke	n	n/a
324.678	0.0895	649356	keystroke	g	n/a
324.8875	0.0755	649775	keystroke	e	n/a
325.637	0.06	651274	keystroke	r	n/a
326.132	0.0905	652264	keystroke	Key.enter	n/a
326.2285	10.0305	652457	prompt	n/a	licensing touched thompson tribute\n
326.943	0.089	653886	keystroke	l	n/a
327.107	0.121	654214	keystroke	i	n/a
327.287	0.076	654574	keystroke	c	n/a
327.528	0.0595	655056	keystroke	e	n/a
327.933	0.1045	655866	keystroke	n	n/a
328.1125	0.09	656225	keystroke	s	n/a
328.2475	0.12	656495	keystroke	i	n/a
328.4425	0.135	656885	keystroke	n	n/a
328.5925	0.09	657185	keystroke	g	n/a
328.7575	0.12	657515	keystroke	Key.space	n/a
329.4625	0.105	658925	keystroke	t	n/a
329.613	0.1795	659226	keystroke	o	n/a
329.733	0.1495	659466	keystroke	u	n/a
330.2875	0.06	660575	keystroke	c	n/a
330.3925	0.1495	660785	keystroke	h	n/a
330.5575	0.075	661115	keystroke	e	n/a
330.7975	0.075	661595	keystroke	d	n/a
331.037	0.1195	662074	keystroke	Key.space	n/a
331.593	0.074	663186	keystroke	t	n/a
331.833	0.1495	663666	keystroke	h	n/a
331.923	0.15	663846	keystroke	i	n/a
332.1925	0.105	664385	keystroke	m	n/a
332.4175	0.1055	664835	keystroke	p	n/a
332.7465	0.0615	665493	keystroke	s	n/a
332.8975	0.1355	665795	keystroke	o	n/a
333.1215	0.106	666243	keystroke	n	n/a
333.3625	0.09	666725	keystroke	Key.space	n/a
333.812	0.075	667624	keystroke	t	n/a
334.0375	0.0905	668075	keystroke	r	n/a
334.142	0.135	668284	keystroke	i	n/a
334.427	0.075	668854	keystroke	b	n/a
334.607	0.1355	669214	keystroke	u	n/a
334.817	0.1055	669634	keystroke	r	n/a
335.0575	0.0595	670115	keystroke	e	n/a
335.462	0.0455	670924	keystroke	Key.backspace	n/a
335.597	0.15	671194	keystroke	Key.backspace	n/a
335.7175	0.0745	671435	keystroke	t	n/a
335.9425	0.06	671885	keystroke	e	n/a
336.1825	0.075	672365	keystroke	Key.enter	n/a
336.265	11.289	672530	prompt	n/a	partnerships introduce valuable graphics\n
337.3075	0.1045	674615	keystroke	p	n/a
337.427	0.105	674854	keystroke	a	n/a
337.652	0.0905	675304	keystroke	r	n/a
337.8325	0.09	675665	keystroke	t	n/a
338.0425	0.1195	676085	keystroke	n	n/a
338.597	0.075	677194	keystroke	e	n/a
339.6475	0.075	679295	keystroke	r	n/a
340.0675	0.06	680135	keystroke	s	n/a
340.1725	0.15	680345	keystroke	h	n/a
340.2625	0.12	680525	keystroke	i	n/a
340.443	0.1195	680886	keystroke	p	n/a
340.8775	0.075	681755	keystroke	Key.space	n/a
341.0725	0.09	682145	keystroke	i	n/a
341.2525	0.1195	682505	keystroke	n	n/a
341.4475	0.0895	682895	keystroke	t	n/a
341.657	0.09	683314	keystroke	r	n/a
341.807	0.1205	683614	keystroke	o	n/a
342.063	0.075	684126	keystroke	d	n/a
342.197	0.105	684394	keystroke	u	n/a
342.317	0.076	684634	keystroke	c	n/a
342.6025	0.075	685205	keystroke	e	n/a
342.737	0.12	685474	keystroke	Key.space	n/a
343.098	0.0745	686196	keystroke	v	n/a
343.2925	0.105	686585	keystroke	a	n/a
343.4275	0.1345	686855	keystroke	l	n/a
343.6825	0.09	687365	keystroke	u	n/a
344.0565	0.0905	688113	keystroke	a	n/a
344.3725	0.0745	688745	keystroke	b	n/a
344.5215	0.1355	689043	keystroke	l	n/a
344.672	0.0595	689344	keystroke	e	n/a
344.9725	0.074	689945	keystroke	Key.space	n/a
345.542	0.105	691084	keystroke	g	n/a
345.7225	0.1045	691445	keystroke	r	n/a
345.872	0.1205	691744	keystroke	a	n/a
346.173	0.1045	692346	keystroke	p	n/a
346.4275	0.165	692855	keystroke	h	n/a
346.5025	0.21	693005	keystroke	i	n/a
346.862	0.09	693724	keystroke	c	n/a
347.102	0.09	694204	keystroke	s	n/a
347.447	0.1055	694894	keystroke	Key.enter	n/a
347.559	9.356	695118	prompt	n/a	he'd equations maritime renewal\n
348.4675	0.1505	696935	keystroke	h	n/a
348.6025	0.06	697205	keystroke	e	n/a
348.7375	0.135	697475	keystroke	'	n/a
348.9475	0.075	697895	keystroke	d	n/a
349.1875	0.09	698375	keystroke	Key.space	n/a
350.357	0.105	700714	keystroke	e	n/a
350.882	0.0455	701764	keystroke	q	n/a
350.972	0.0755	701944	keystroke	u	n/a
351.137	0.09	702274	keystroke	a	n/a
351.7075	0.09	703415	keystroke	t	n/a
351.887	0.181	703774	keystroke	i	n/a
351.9775	0.1655	703955	keystroke	o	n/a
352.2475	0.12	704495	keystroke	n	n/a
352.6225	0.075	705245	keystroke	s	n/a
352.7575	0.09	705515	keystroke	Key.space	n/a
352.9225	0.12	705845	keystroke	m	n/a
353.3575	0.09	706715	keystroke	a	n/a
353.687	0.0755	707374	keystroke	r	n/a
353.793	0.149	707586	keystroke	i	n/a
354.152	0.09	708304	keystroke	t	n/a
354.2575	0.1195	708515	keystroke	i	n/a
354.4525	0.1345	708905	keystroke	m	n/a
354.6625	0.075	709325	keystroke	e	n/a
354.782	0.1055	709564	keystroke	Key.space	n/a
355.0525	0.12	710105	keystroke	r	n/a
355.2325	0.12	710465	keystroke	e	n/a
355.457	0.15	710914	keystroke	n	n/a
355.6365	0.076	711273	keystroke	e	n/a
355.8925	0.089	711785	keystroke	w	n/a
356.372	0.075	712744	keystroke	a	n/a
356.522	0.1205	713044	keystroke	l	n/a
356.822	0.09	713644	keystroke	Key.enter	n/a
356.919	7.285	713838	prompt	n/a	planner lifetime camps cheat\n
357.7065	0.1205	715413	keystroke	p	n/a
357.9315	0.15	715863	keystroke	l	n/a
358.0515	0.121	716103	keystroke	a	n/a
358.2475	0.0755	716495	keystroke	n	n/a
358.3975	0.119	716795	keystroke	n	n/a
358.6075	0.0895	717215	keystroke	e	n/a
358.862	0.0905	717724	keystroke	r	n/a
358.9975	0.09	717995	keystroke	Key.space	n/a
359.2075	0.089	718415	keystroke	l	n/a
359.3575	0.12	718715	keystroke	i	n/a
359.5825	0.09	719165	keystroke	f	n/a
359.7775	0.09	719555	keystroke	e	n/a
360.0475	0.09	720095	keystroke	t	n/a
360.1525	0.12	720305	keystroke	i	n/a
360.3775	0.1205	720755	keystroke	m	n/a
360.5875	0.09	721175	keystroke	e	n/a
360.752	0.09	721504	keystroke	Key.space	n/a
360.9925	0.074	721985	keystroke	c	n/a
361.5925	0.105	723185	keystroke	a	n/a
361.712	0.0895	723424	keystroke	m	n/a
361.9215	0.121	723843	keystroke	p	n/a
362.1775	0.0605	724355	keystroke	s	n/a
362.417	0.0745	724834	keystroke	Key.space	n/a
362.7025	0.074	725405	keystroke	c	n/a
362.792	0.1645	725584	keystroke	h	n/a
363.0025	0.09	726005	keystroke	e	n/a
363.1825	0.134	726365	keystroke	a	n/a
363.5725	0.09	727145	keystroke	t	n/a
364.1115	0.091	728223	keystroke	Key.enter	n/a
364.2085	8.8605	728417	prompt	n/a	loading shake convert sage\n
364.8625	0.09	729725	keystroke	l	n/a
365.1165	0.151	730233	keystroke	o	n/a
365.252	0.0755	730504	keystroke	a	n/a
365.5075	0.0745	731015	keystroke	d	n/a
365.612	0.105	731224	keystroke	i	n/a
365.8225	0.1345	731645	keystroke	n	n/a
366.017	0.09	732034	keystroke	g	n/a
366.167	0.1045	732334	keystroke	Key.space	n/a
366.4215	0.076	732843	keystroke	s	n/a
366.5415	0.1355	733083	keystroke	h	n/a
366.9475	0.1045	733895	keystroke	a	n/a
367.7425	0.255	735485	keystroke	k	n/a
368.117	0.0455	736234	keystroke	e	n/a
368.342	0.09	736684	keystroke	Key.space	n/a
368.8365	0.0755	737673	keystroke	c	n/a
368.9565	0.136	737913	keystroke	o	n/a
369.1815	0.12	738363	keystroke	n	n/a
369.7225	0.09	739445	keystroke	v	n/a
369.933	0.074	739866	keystroke	e	n/a
370.127	0.09	740254	keystroke	r	n/a
371.3125	0.09	742625	keystroke	t	n/a
371.687	0.09	743374	keystroke	Key.space	n/a
371.8975	0.18	743795	keystroke	s	n/a
372.017	0.165	744034	keystroke	a	n/a
372.257	0.1355	744514	keystroke	g	n/a
372.8125	0.075	745625	keystroke	e	n/a
372.9475	0.12	745895	keystroke	Key.enter	n/a
373.074	6.7	746148	prompt	n/a	loop mins pressure remain\n
373.9825	0.0895	747965	keystroke	l	n/a
374.2675	0.06	748535	keystroke	o	n/a
374.3875	0.105	748775	keystroke	o	n/a
374.597	0.12	749194	keystroke	p	n/a
374.822	0.105	749644	keystroke	Key.space	n/a
375.2575	0.105	750515	keystroke	m	n/a
375.497	0.0755	750994	keystroke	i	n/a
375.6475	0.12	751295	keystroke	n	n/a
376.127	0.0755	752254	keystroke	s	n/a
376.337	0.105	752674	keystroke	Key.space	n/a
376.7425	0.1045	753485	keystroke	p	n/a
376.937	0.15	753874	keystroke	r	n/a
377.072	0.1055	754144	keystroke	e	n/a
377.327	0.09	754654	keystroke	s	n/a
377.4925	0.1045	754985	keystroke	s	n/a
377.7315	0.121	755463	keystroke	u	n/a
377.9725	0.119	755945	keystroke	r	n/a
378.0775	0.1495	756155	keystroke	e	n/a
378.272	0.09	756544	keystroke	Key.space	n/a
378.5425	0.15	757085	keystroke	r	n/a
378.6625	0.1645	757325	keystroke	e	n/a
378.857	0.18	757714	keystroke	m	n/a
379.052	0.135	758104	keystroke	a	n/a
379.217	0.135	758434	keystroke	i	n/a
379.412	0.1355	758824	keystroke	n	n/a
379.6675	0.104	759335	keystroke	Key.enter	n/a
379.7785	8.4405	759557	prompt	n/a	leasing genealogy exciting digit\n
380.7625	0.09	761525	keystroke	l	n/a
381.153	0.164	762306	keystroke	e	n/a
381.287	0.135	762574	keystroke	a	n/a
381.542	0.105	763084	keystroke	s	n/a
381.662	0.1055	763324	keystroke	i	n/a
381.8425	0.1645	763685	keystroke	n	n/a
382.022	0.091	764044	keystroke	g	n/a
382.157	0.1045	764314	keystroke	Key.space	n/a
382.4425	0.09	764885	keystroke	g	n/a
382.637	0.09	765274	keystroke	e	n/a
382.8165	0.1205	765633	keystroke	n	n/a
382.922	0.09	765844	keystroke	e	n/a
383.1775	0.105	766355	keystroke	a	n/a
384.0625	0.09	768125	keystroke	l	n/a
384.2725	0.1195	768545	keystroke	o	n/a
384.452	0.105	768904	keystroke	g	n/a
384.5875	0.105	769175	keystroke	y	n/a
384.737	0.12	769474	keystroke	Key.space	n/a
384.9475	0.105	769895	keystroke	e	n/a
385.2175	0.105	770435	keystroke	x	n/a
385.4575	0.075	770915	keystroke	c	n/a
385.5925	0.15	771185	keystroke	i	n/a
385.8925	0.09	771785	keystroke	t	n/a
386.0125	0.134	772025	keystroke	i	n/a
386.2225	0.149	772445	keystroke	n	n/a
386.447	0.1045	772894	keystroke	g	n/a
386.9415	0.091	773883	keystroke	Key.space	n/a
387.2125	0.089	774425	keystroke	d	n/a
387.317	0.1495	774634	keystroke	i	n/a
387.5565	0.09	775113	keystroke	g	n/a
387.707	0.15	775414	keystroke	i	n/a
387.932	0.09	775864	keystroke	t	n/a
388.097	0.12	776194	keystroke	Key.enter	n/a
388.2235	10.45	776447	prompt	n/a	prepaid terminal currencies bills\n
388.997	0.12	777994	keystroke	p	n/a
389.252	0.135	778504	keystroke	r	n/a
389.3425	0.1495	778685	keystroke	e	n/a
389.597	0.165	779194	keystroke	p	n/a
389.822	0.1205	779644	keystroke	a	n/a
390.227	0.135	780454	keystroke	i	n/a
390.512	0.0755	781024	keystroke	d	n/a
390.6925	0.09	781385	keystroke	Key.space	n/a
392.9285	0.029	785857	keystroke	t	n/a
393.0175	0.119	786035	keystroke	e	n/a
393.3025	0.075	786605	keystroke	r	n/a
393.5575	0.075	787115	keystroke	m	n/a
393.977	0.09	787954	keystroke	i	n/a
394.172	0.09	788344	keystroke	n	n/a
394.307	0.135	788614	keystroke	a	n/a
394.4275	0.1195	788855	keystroke	l	n/a
394.592	0.1205	789184	keystroke	Key.space	n/a
394.803	0.089	789606	keystroke	c	n/a
394.922	0.1205	789844	keystroke	u	n/a
395.207	0.09	790414	keystroke	r	n/a
395.3575	0.1045	790715	keystroke	r	n/a
395.582	0.0905	791164	keystroke	e	n/a
395.8225	0.1195	791645	keystroke	n	n/a
396.092	0.0755	792184	keystroke	c	n/a
396.573	0.1185	793146	keystroke	i	n/a
396.707	0.0895	793414	keystroke	e	n/a
396.962	0.09	793924	keystroke	s	n/a
397.3965	0.091	794793	keystroke	Key.space	n/a
397.6365	0.106	795273	keystroke	b	n/a
397.7265	0.1205	795453	keystroke	i	n/a
397.967	0.09	795934	keystroke	l	n/a
398.1465	0.1205	796293	keystroke	l	n/a
398.3265	0.09	796653	keystroke	s	n/a
398.5815	0.09	797163	keystroke	Key.enter	n/a
398.6765	8.9375	797353	prompt	n/a	lines mens career asus\n
399.5725	0.0905	799145	keystroke	l	n/a
399.7375	0.09	799475	keystroke	i	n/a
399.9325	0.195	799865	keystroke	n	n/a
400.0825	0.09	800165	keystroke	e	n/a
400.3075	0.0895	800615	keystroke	s	n/a
400.4425	0.089	800885	keystroke	Key.space	n/a
400.6525	0.1495	801305	keystroke	m	n/a
400.8325	0.0895	801665	keystroke	e	n/a
401.027	0.1355	802054	keystroke	n	n/a
401.2675	0.075	802535	keystroke	s	n/a
401.5075	0.089	803015	keystroke	Key.space	n/a
401.7175	0.075	803435	keystroke	c	n/a
401.9125	0.12	803825	keystroke	a	n/a
402.2425	0.0905	804485	keystroke	r	n/a
403.1125	0.06	806225	keystroke	i	n/a
403.2615	0.105	806523	keystroke	i	n/a
403.7265	0.075	807453	keystroke	Key.backspace	n/a
403.877	0.1055	807754	keystroke	Key.backspace	n/a
404.3425	0.045	808685	keystroke	e	n/a
404.477	0.09	808954	keystroke	e	n/a
405.092	0.09	810184	keystroke	r	n/a
405.347	0.09	810694	keystroke	Key.space	n/a
405.9315	0.015	811863	keystroke	a	n/a
406.0965	0.106	812193	keystroke	s	n/a
406.547	0.135	813094	keystroke	u	n/a
406.697	0.09	813394	keystroke	s	n/a
407.507	0.1055	815014	keystroke	Key.enter	n/a
407.6195	10.119	815239	prompt	n/a	what'd scholars lesbians formed\n
408.662	0.105	817324	keystroke	w	n/a
408.7975	0.165	817595	keystroke	h	n/a
408.887	0.12	817774	keystroke	a	n/a
409.217	0.105	818434	keystroke	t	n/a
409.367	0.12	818734	keystroke	'	n/a
409.7865	0.0755	819573	keystroke	d	n/a
409.997	0.09	819994	keystroke	Key.space	n/a
410.2515	0.091	820503	keystroke	s	n/a
410.4775	0.075	820955	keystroke	c	n/a
410.5825	0.135	821165	keystroke	h	n/a
410.6565	0.12	821313	keystroke	o	n/a
410.897	0.135	821794	keystroke	l	n/a
411.017	0.105	822034	keystroke	a	n/a
411.317	0.1055	822634	keystroke	r	n/a
412.247	0.0455	824494	keystroke	s	n/a
412.3975	0.075	824795	keystroke	Key.space	n/a
412.5475	0.134	825095	keystroke	l	n/a
412.7575	0.105	825515	keystroke	a	n/a
413.0125	0.105	826025	keystroke	s	n/a
413.3425	0.074	826685	keystroke	Key.backspace	n/a
413.492	0.12	826984	keystroke	Key.backspace	n/a
413.627	0.075	827254	keystroke	e	n/a
413.852	0.09	827704	keystroke	s	n/a
414.107	0.09	828214	keystroke	b	n/a
414.227	0.15	828454	keystroke	i	n/a
414.362	0.105	828724	keystroke	a	n/a
414.6925	0.1045	829385	keystroke	n	n/a
415.0065	0.09	830013	keystroke	s	n/a
415.172	0.1055	830344	keystroke	Key.space	n/a
415.832	0.0305	831664	keystroke	f	n/a
416.3725	0.134	832745	keystroke	o	n/a
416.4925	0.074	832985	keystroke	r	n/a
416.6115	0.135	833223	keystroke	m	n/a
417.0475	0.059	834095	keystroke	e	n/a
417.4065	0.076	834813	keystroke	d	n/a
417.662	0.075	835324	keystroke	Key.enter	n/a
417.7435	8.1555	835487	prompt	n/a	responded auction designs may\n
418.4715	0.1355	836943	keystroke	r	n/a
418.622	0.09	837244	keystroke	e	n/a
418.877	0.0745	837754	keystroke	s	n/a
419.117	0.165	838234	keystroke	p	n/a
419.2075	0.15	838415	keystroke	o	n/a
419.4165	0.151	838833	keystroke	n	n/a
419.627	0.075	839254	keystroke	d	n/a
419.822	0.0755	839644	keystroke	e	n/a
420.047	0.075	840094	keystroke	d	n/a
420.227	0.12	840454	keystroke	Key.space	n/a
420.3765	0.12	840753	keystroke	a	n/a
420.5415	0.105	841083	keystroke	u	n/a
420.7215	0.075	841443	keystroke	c	n/a
421.0665	0.09	842133	keystroke	t	n/a
421.337	0.1795	842674	keystroke	i	n/a
421.4415	0.1655	842883	keystroke	o	n/a
421.6515	0.136	843303	keystroke	n	n/a
422.401	0.076	844802	keystroke	Key.space	n/a
422.672	0.075	845344	keystroke	d	n/a
422.867	0.09	845734	keystroke	e	n/a
423.122	0.09	846244	keystroke	s	n/a
423.272	0.105	846544	keystroke	i	n/a
424.4115	0.0905	848823	keystroke	g	n/a
424.6975	0.1045	849395	keystroke	n	n/a
424.937	0.075	849874	keystroke	Key.space	n/a
425.132	0.09	850264	keystroke	m	n/a
425.282	0.105	850564	keystroke	a	n/a
425.463	0.105	850926	keystroke	y	n/a
425.777	0.12	851554	keystroke	Key.enter	n/a
425.9155	7.379	851831	prompt	n/a	decided fever tiles firewall\n
426.6325	0.0745	853265	keystroke	d	n/a
426.842	0.075	853684	keystroke	e	n/a
427.0815	0.076	854163	keystroke	c	n/a
427.2325	0.1195	854465	keystroke	i	n/a
427.547	0.06	855094	keystroke	d	n/a
427.757	0.06	855514	keystroke	e	n/a
427.982	0.075	855964	keystroke	d	n/a
428.192	0.105	856384	keystroke	Key.space	n/a
428.492	0.09	856984	keystroke	f	n/a
428.657	0.09	857314	keystroke	e	n/a
428.897	0.09	857794	keystroke	v	n/a
429.092	0.09	858184	keystroke	e	n/a
429.317	0.09	858634	keystroke	r	n/a
429.437	0.105	858874	keystroke	Key.space	n/a
429.737	0.12	859474	keystroke	t	n/a
429.887	0.105	859774	keystroke	i	n/a
430.127	0.135	860254	keystroke	l	n/a
430.3075	0.075	860615	keystroke	e	n/a
430.547	0.09	861094	keystroke	s	n/a
430.712	0.09	861424	keystroke	Key.space	n/a
431.0115	0.06	862023	keystroke	f	n/a
431.372	0.09	862744	keystroke	i	n/a
431.8825	0.1495	863765	keystroke	r	n/a
431.9725	0.1195	863945	keystroke	e	n/a
432.242	0.09	864484	keystroke	w	n/a
432.4675	0.1045	864935	keystroke	a	n/a
432.6925	0.06	865385	keystroke	l	n/a
432.8425	0.105	865685	keystroke	l	n/a
433.2025	0.09	866405	keystroke	Key.enter	n/a
433.2985	5.863	866597	prompt	n/a	diet teach dive ottawa\n
434.2525	0.0745	868505	keystroke	d	n/a
434.5225	0.1195	869045	keystroke	i	n/a
434.6125	0.09	869225	keystroke	e	n/a
434.8975	0.0895	869795	keystroke	t	n/a
435.047	0.105	870094	keystroke	Key.space	n/a
435.317	0.1045	870634	keystroke	t	n/a
435.5575	0.09	871115	keystroke	e	n/a
435.768	0.119	871536	keystroke	a	n/a
436.007	0.09	872014	keystroke	c	n/a
436.127	0.12	872254	keystroke	h	n/a
436.262	0.105	872524	keystroke	Key.space	n/a
436.442	0.105	872884	keystroke	d	n/a
436.532	0.135	873064	keystroke	i	n/a
436.682	0.075	873364	keystroke	v	n/a
436.892	0.06	873784	keystroke	e	n/a
436.997	0.075	873994	keystroke	Key.space	n/a
437.177	0.1055	874354	keystroke	o	n/a
437.372	0.0605	874744	keystroke	t	n/a
437.522	0.0905	875044	keystroke	t	n/a
437.732	0.105	875464	keystroke	a	n/a
438.002	0.0895	876004	keystroke	w	n/a
438.0325	0.0445	876065	keystroke	s	n/a
438.2115	0.09	876423	keystroke	a	n/a
438.6315	0.075	877263	keystroke	Key.backspace	n/a
438.7665	0.12	877533	keystroke	Key.backspace	n/a
438.9465	0.105	877893	keystroke	a	n/a
439.067	0.0895	878134	keystroke	Key.enter	n/a
439.1665	7.0575	878333	prompt	n/a	decision hotel chair italia\n
440.0875	0.074	880175	keystroke	d	n/a
440.3725	0.0595	880745	keystroke	e	n/a
440.6265	0.06	881253	keystroke	c	n/a
440.7315	0.121	881463	keystroke	i	n/a
440.9865	0.076	881973	keystroke	s	n/a
441.4215	0.18	882843	keystroke	i	n/a
441.5265	0.135	883053	keystroke	o	n/a
441.7515	0.12	883503	keystroke	n	n/a
442.3525	0.09	884705	keystroke	Key.space	n/a
442.5925	0.135	885185	keystroke	h	n/a
442.6525	0.254	885305	keystroke	o	n/a
442.9225	0.104	885845	keystroke	t	n/a
443.1625	0.105	886325	keystroke	e	n/a
443.3575	0.1345	886715	keystroke	l	n/a
443.612	0.09	887224	keystroke	Key.space	n/a
443.8825	0.0745	887765	keystroke	c	n/a
443.987	0.135	887974	keystroke	h	n/a
444.197	0.12	888394	keystroke	a	n/a
444.362	0.15	888724	keystroke	i	n/a
444.557	0.105	889114	keystroke	r	n/a
444.692	0.09	889384	keystroke	Key.space	n/a
444.902	0.12	889804	keystroke	i	n/a
445.127	0.1055	890254	keystroke	t	n/a
445.352	0.1055	890704	keystroke	a	n/a
445.458	0.119	890916	keystroke	l	n/a
445.682	0.1205	891364	keystroke	i	n/a
445.8775	0.135	891755	keystroke	a	n/a
446.1325	0.09	892265	keystroke	Key.enter	n/a
446.2285	7.99	892457	prompt	n/a	apply interracial evans stored\n
446.9425	0.104	893885	keystroke	a	n/a
447.0925	0.059	894185	keystroke	p	n/a
447.212	0.1045	894424	keystroke	p	n/a
447.4365	0.12	894873	keystroke	l	n/a
447.722	0.1045	895444	keystroke	y	n/a
447.887	0.09	895774	keystroke	Key.space	n/a
448.0215	0.105	896043	keystroke	i	n/a
448.2015	0.135	896403	keystroke	n	n/a
449.0125	0.0745	898025	keystroke	t	n/a
449.177	0.105	898354	keystroke	e	n/a
449.852	0.0755	899704	keystroke	r	n/a
449.987	0.105	899974	keystroke	r	n/a
450.212	0.1345	900424	keystroke	a	n/a
450.4975	0.09	900995	keystroke	c	n/a
450.6175	0.15	901235	keystroke	i	n/a
450.8275	0.1045	901655	keystroke	a	n/a
451.0675	0.1045	902135	keystroke	l	n/a
451.2625	0.0595	902525	keystroke	Key.space	n/a
451.457	0.0595	902914	keystroke	e	n/a
451.667	0.18	903334	keystroke	v	n/a
451.817	0.135	903634	keystroke	a	n/a
451.982	0.1205	903964	keystroke	n	n/a
452.1625	0.0895	904325	keystroke	s	n/a
452.461	0.0755	904922	keystroke	Key.space	n/a
452.717	0.105	905434	keystroke	s	n/a
453.002	0.09	906004	keystroke	t	n/a
453.317	0.12	906634	keystroke	o	n/a
453.527	0.165	907054	keystroke	r	n/a
453.677	0.0905	907354	keystroke	e	n/a
453.9165	0.0755	907833	keystroke	d	n/a
454.127	0.0895	908254	keystroke	Key.enter	n/a
454.2235	9.0405	908447	prompt	n/a	auditor chairman born organisms\n
454.8625	0.105	909725	keystroke	a	n/a
455.2065	0.0905	910413	keystroke	u	n/a
455.5965	0.0605	911193	keystroke	d	n/a
455.7165	0.106	911433	keystroke	i	n/a
456.0325	0.089	912065	keystroke	t	n/a
456.1665	0.136	912333	keystroke	o	n/a
456.422	0.09	912844	keystroke	r	n/a
456.557	0.12	913114	keystroke	Key.space	n/a
456.812	0.075	913624	keystroke	c	n/a
456.917	0.12	913834	keystroke	h	n/a
457.172	0.105	914344	keystroke	a	n/a
457.667	0.12	915334	keystroke	i	n/a
457.967	0.09	915934	keystroke	r	n/a
458.117	0.12	916234	keystroke	m	n/a
458.252	0.105	916504	keystroke	a	n/a
458.417	0.105	916834	keystroke	n	n/a
458.582	0.105	917164	keystroke	Key.space	n/a
458.807	0.075	917614	keystroke	b	n/a
458.897	0.1355	917794	keystroke	o	n/a
459.842	0.105	919684	keystroke	r	n/a
459.977	0.1045	919954	keystroke	n	n/a
460.187	0.09	920374	keystroke	Key.space	n/a
460.9065	0.105	921813	keystroke	a	n/a
461.1915	0.075	922383	keystroke	r	n/a
461.432	0.1205	922864	keystroke	g	n/a
461.5225	0.1645	923045	keystroke	a	n/a
461.717	0.09	923434	keystroke	n	n/a
461.882	0.1495	923764	keystroke	i	n/a
462.1065	0.076	924213	keystroke	s	n/a
462.587	0.09	925174	keystroke	m	n/a
462.8715	0.0905	925743	keystroke	s	n/a
463.1715	0.09	926343	keystroke	Key.enter	n/a
463.2685	10.7355	926537	prompt	n/a	equally conservation utils negative\n
464.2515	0.09	928503	keystroke	e	n/a
464.702	0.09	929404	keystroke	q	n/a
464.9275	0.09	929855	keystroke	u	n/a
465.0765	0.09	930153	keystroke	a	n/a
465.677	0.045	931354	keystroke	l	n/a
465.782	0.09	931564	keystroke	l	n/a
466.052	0.09	932104	keystroke	y	n/a
466.172	0.135	932344	keystroke	Key.space	n/a
466.382	0.0755	932764	keystroke	c	n/a
466.5025	0.135	933005	keystroke	o	n/a
466.832	0.105	933664	keystroke	n	n/a
467.0265	0.0905	934053	keystroke	s	n/a
467.4915	0.09	934983	keystroke	e	n/a
467.8065	0.0905	935613	keystroke	r	n/a
468.062	0.1045	936124	keystroke	v	n/a
468.2115	0.121	936423	keystroke	a	n/a
468.5275	0.09	937055	keystroke	t	n/a
468.7965	0.075	937593	keystroke	i	n/a
468.812	0.1345	937624	keystroke	o	n/a
469.037	0.1195	938074	keystroke	n	n/a
469.487	0.06	938974	keystroke	Key.space	n/a
469.712	0.105	939424	keystroke	u	n/a
469.997	0.105	939994	keystroke	t	n/a
470.1175	0.1045	940235	keystroke	i	n/a
470.312	0.18	940624	keystroke	l	n/a
470.507	0.0895	941014	keystroke	s	n/a
470.6715	0.0905	941343	keystroke	Key.space	n/a
470.8365	0.135	941673	keystroke	n	n/a
470.9725	0.075	941945	keystroke	e	n/a
471.212	0.0895	942424	keystroke	g	n/a
471.4065	0.12	942813	keystroke	i	n/a
472.3965	0.12	944793	keystroke	Key.backspace	n/a
472.5025	0.12	945005	keystroke	a	n/a
473.102	0.0905	946204	keystroke	t	n/a
473.237	0.165	946474	keystroke	i	n/a
473.387	0.1355	946774	keystroke	v	n/a
473.657	0.075	947314	keystroke	e	n/a
473.9115	0.09	947823	keystroke	Key.enter	n/a
474.0085	15.205	948017	prompt	n/a	administered recommend naturally citation\n
475.007	0.1355	950014	keystroke	a	n/a
475.2615	0.0755	950523	keystroke	d	n/a
475.352	0.1195	950704	keystroke	m	n/a
475.532	0.1045	951064	keystroke	i	n/a
475.7265	0.121	951453	keystroke	n	n/a
475.817	0.135	951634	keystroke	i	n/a
475.9665	0.1205	951933	keystroke	s	n/a
476.2665	0.106	952533	keystroke	t	n/a
476.507	0.09	953014	keystroke	e	n/a
476.8225	0.1645	953645	keystroke	r	n/a
476.9425	0.1045	953885	keystroke	e	n/a
477.197	0.105	954394	keystroke	d	n/a
477.437	0.09	954874	keystroke	Key.space	n/a
478.052	0.1045	956104	keystroke	r	n/a
478.2625	0.0895	956525	keystroke	e	n/a
478.5915	0.06	957183	keystroke	c	n/a
478.6065	0.0305	957213	keystroke	Key.space	n/a
478.7865	0.15	957573	keystroke	o	n/a
479.372	0.09	958744	keystroke	Key.backspace	n/a
479.521	0.0905	959042	keystroke	Key.backspace	n/a
480.407	0.105	960814	keystroke	o	n/a
482.8385	0.0135	965677	keystroke	m	n/a
482.9575	0.089	965915	keystroke	m	n/a
483.152	0.075	966304	keystroke	e	n/a
483.3775	0.105	966755	keystroke	n	n/a
483.5875	0.059	967175	keystroke	d	n/a
484.1715	0.09	968343	keystroke	Key.space	n/a
484.397	0.12	968794	keystroke	n	n/a
484.502	0.105	969004	keystroke	a	n/a
485.027	0.09	970054	keystroke	t	n/a
485.162	0.135	970324	keystroke	u	n/a
485.402	0.165	970804	keystroke	r	n/a
485.553	0.149	971106	keystroke	a	n/a
485.687	0.09	971374	keystroke	l	n/a
485.867	0.09	971734	keystroke	l	n/a
486.092	0.09	972184	keystroke	y	n/a
486.152	0.12	972304	keystroke	Key.space	n/a
487.007	0.12	974014	keystroke	c	n/a
487.127	0.1195	974254	keystroke	i	n/a
487.3815	0.106	974763	keystroke	t	n/a
487.547	0.15	975094	keystroke	a	n/a
487.832	0.105	975664	keystroke	t	n/a
488.0125	0.225	976025	keystroke	i	n/a
488.1625	0.225	976325	keystroke	o	n/a
488.4775	0.119	976955	keystroke	n	n/a
489.122	0.09	978244	keystroke	Key.enter	n/a
489.218	7.841	978436	prompt	n/a	images crest arise interfaces\n
490.007	0.0895	980014	keystroke	i	n/a
490.1865	0.1055	980373	keystroke	m	n/a
490.3075	0.135	980615	keystroke	a	n/a
490.5465	0.105	981093	keystroke	g	n/a
490.772	0.0895	981544	keystroke	e	n/a
491.0265	0.09	982053	keystroke	s	n/a
491.2065	0.0755	982413	keystroke	Key.space	n/a
491.6125	0.09	983225	keystroke	c	n/a
491.942	0.0905	983884	keystroke	r	n/a
492.092	0.12	984184	keystroke	e	n/a
492.317	0.1045	984634	keystroke	s	n/a
492.5725	0.105	985145	keystroke	t	n/a
492.722	0.105	985444	keystroke	Key.space	n/a
492.8425	0.134	985685	keystroke	a	n/a
493.1425	0.089	986285	keystroke	r	n/a
493.3065	0.15	986613	keystroke	i	n/a
493.5615	0.105	987123	keystroke	s	n/a
493.8165	0.0905	987633	keystroke	e	n/a
493.967	0.105	987934	keystroke	Key.space	n/a
494.117	0.1045	988234	keystroke	i	n/a
494.3115	0.136	988623	keystroke	n	n/a
494.5225	0.089	989045	keystroke	t	n/a
494.8075	0.09	989615	keystroke	e	n/a
495.0775	0.075	990155	keystroke	r	n/a
495.4825	0.0895	990965	keystroke	f	n/a
495.632	0.1205	991264	keystroke	a	n/a
495.9025	0.074	991805	keystroke	c	n/a
496.1715	0.0755	992343	keystroke	e	n/a
496.4125	0.089	992825	keystroke	s	n/a
496.997	0.06	993994	keystroke	Key.enter	n/a
497.063	10.826	994126	prompt	n/a	gift solve allocation statements\n
499.4435	0.001	998887	keystroke	g	n/a
499.5165	0.135	999033	keystroke	i	n/a
500.1315	0.076	1000263	keystroke	f	n/a
500.3715	0.09	1000743	keystroke	t	n/a
500.717	0.015	1001434	keystroke	Key.space	n/a
500.8515	0.09	1001703	keystroke	s	n/a
500.9425	0.1195	1001885	keystroke	o	n/a
501.1815	0.12	1002363	keystroke	l	n/a
501.6915	0.075	1003383	keystroke	v	n/a
501.932	0.0745	1003864	keystroke	e	n/a
502.0815	0.1355	1004163	keystroke	Key.space	n/a
502.4265	0.1055	1004853	keystroke	a	n/a
502.6365	0.0905	1005273	keystroke	l	n/a
502.787	0.0905	1005574	keystroke	l	n/a
503.0125	0.1195	1006025	keystroke	o	n/a
503.207	0.09	1006414	keystroke	c	n/a
503.447	0.1055	1006894	keystroke	a	n/a
504.1225	0.119	1008245	keystroke	t	n/a
504.2725	0.195	1008545	keystroke	i	n/a
504.3915	0.166	1008783	keystroke	o	n/a
504.6175	0.149	1009235	keystroke	n	n/a
504.7965	0.1055	1009593	keystroke	Key.space	n/a
504.9925	0.105	1009985	keystroke	s	n/a
505.2475	0.12	1010495	keystroke	t	n/a
505.4575	0.135	1010915	keystroke	a	n/a
505.8615	0.091	1011723	keystroke	t	n/a
506.0425	0.0745	1012085	keystroke	e	n/a
506.2825	0.15	1012565	keystroke	m	n/a
506.4025	0.105	1012805	keystroke	e	n/a
506.6125	0.119	1013225	keystroke	n	n/a
506.8215	0.106	1013643	keystroke	t	n/a
507.0615	0.1205	1014123	keystroke	s	n/a
507.827	0.0595	1015654	keystroke	Key.enter	n/a
507.8945	8.124	1015789	prompt	n/a	male nurse arrivals webmasters\n
508.5325	0.135	1017065	keystroke	m	n/a
508.6825	0.119	1017365	keystroke	a	n/a
508.8325	0.149	1017665	keystroke	l	n/a
509.0265	0.075	1018053	keystroke	e	n/a
509.2065	0.1055	1018413	keystroke	Key.space	n/a
509.7025	0.09	1019405	keystroke	n	n/a
509.9425	0.09	1019885	keystroke	u	n/a
510.227	0.015	1020454	keystroke	r	n/a
510.392	0.075	1020784	keystroke	s	n/a
510.662	0.075	1021324	keystroke	e	n/a
510.857	0.105	1021714	keystroke	Key.space	n/a
511.097	0.105	1022194	keystroke	a	n/a
511.382	0.075	1022764	keystroke	r	n/a
511.502	0.104	1023004	keystroke	r	n/a
511.727	0.135	1023454	keystroke	i	n/a
511.937	0.105	1023874	keystroke	v	n/a
512.192	0.105	1024384	keystroke	a	n/a
512.732	0.1505	1025464	keystroke	l	n/a
512.8665	0.1055	1025733	keystroke	s	n/a
513.092	0.12	1026184	keystroke	Key.space	n/a
513.4665	0.105	1026933	keystroke	w	n/a
513.7365	0.076	1027473	keystroke	e	n/a
514.0065	0.075	1028013	keystroke	b	n/a
514.322	0.12	1028644	keystroke	m	n/a
514.457	0.1055	1028914	keystroke	a	n/a
514.697	0.09	1029394	keystroke	s	n/a
514.937	0.105	1029874	keystroke	t	n/a
515.162	0.105	1030324	keystroke	e	n/a
515.402	0.1205	1030804	keystroke	r	n/a
515.657	0.09	1031314	keystroke	s	n/a
515.9415	0.0755	1031883	keystroke	Key.enter	n/a
516.0235	14.575	1032047	prompt	n/a	organisation west skilled sapphire\n
516.782	0.0605	1033564	keystroke	a	n/a
517.2765	0.06	1034553	keystroke	Key.backspace	n/a
517.5165	0.121	1035033	keystroke	o	n/a
517.7125	0.0895	1035425	keystroke	r	n/a
517.9365	0.1205	1035873	keystroke	g	n/a
518.0875	0.134	1036175	keystroke	a	n/a
518.3565	0.076	1036713	keystroke	n	n/a
518.5375	0.105	1037075	keystroke	i	n/a
518.762	0.0745	1037524	keystroke	z	n/a
520.067	0.12	1040134	keystroke	Key.backspace	n/a
520.2175	0.0895	1040435	keystroke	s	n/a
520.412	0.0895	1040824	keystroke	a	n/a
521.4165	0.075	1042833	keystroke	t	n/a
521.552	0.1955	1043104	keystroke	i	n/a
521.6725	0.165	1043345	keystroke	o	n/a
521.912	0.12	1043824	keystroke	n	n/a
522.122	0.075	1044244	keystroke	Key.space	n/a
522.287	0.105	1044574	keystroke	w	n/a
522.7665	0.0905	1045533	keystroke	e	n/a
522.9915	0.105	1045983	keystroke	s	n/a
523.2915	0.09	1046583	keystroke	t	n/a
523.4415	0.12	1046883	keystroke	Key.space	n/a
525.1075	0.0895	1050215	keystroke	s	n/a
525.3625	0.0895	1050725	keystroke	k	n/a
525.5865	0.1055	1051173	keystroke	i	n/a
525.8115	0.091	1051623	keystroke	l	n/a
525.9915	0.105	1051983	keystroke	l	n/a
526.292	0.0745	1052584	keystroke	e	n/a
526.532	0.0905	1053064	keystroke	d	n/a
526.697	0.105	1053394	keystroke	Key.space	n/a
527.222	0.075	1054444	keystroke	s	n/a
527.927	0.09	1055854	keystroke	a	n/a
528.212	0.03	1056424	keystroke	p	n/a
528.317	0.12	1056634	keystroke	p	n/a
528.722	0.1945	1057444	keystroke	h	n/a
528.9015	0.136	1057803	keystroke	i	n/a
529.322	0.1055	1058644	keystroke	r	n/a
529.547	0.105	1059094	keystroke	e	n/a
530.507	0.09	1061014	keystroke	Key.enter	n/a
530.6035	13.4495	1061207	prompt	n/a	continuously webmasters harm estates\n
531.647	0.0895	1063294	keystroke	c	n/a
531.7515	0.12	1063503	keystroke	o	n/a
531.902	0.1345	1063804	keystroke	n	n/a
532.7565	0.0905	1065513	keystroke	t	n/a
532.8775	0.119	1065755	keystroke	i	n/a
533.0865	0.0755	1066173	keystroke	n	n/a
533.3125	0.104	1066625	keystroke	u	n/a
534.5265	0.136	1069053	keystroke	o	n/a
535.5025	0.1035	1071005	keystroke	u	n/a
535.9975	0.0745	1071995	keystroke	s	n/a
536.086	0.1055	1072172	keystroke	l	n/a
536.402	0.1195	1072804	keystroke	y	n/a
536.582	0.105	1073164	keystroke	Key.space	n/a
536.852	0.09	1073704	keystroke	w	n/a
537.062	0.09	1074124	keystroke	e	n/a
537.287	0.075	1074574	keystroke	b	n/a
537.9915	0.1055	1075983	keystroke	m	n/a
538.1115	0.091	1076223	keystroke	a	n/a
538.457	0.045	1076914	keystroke	a	n/a
538.982	0.105	1077964	keystroke	Key.backspace	n/a
539.222	0.06	1078444	keystroke	s	n/a
539.762	0.09	1079524	keystroke	t	n/a
539.942	0.105	1079884	keystroke	e	n/a
540.137	0.12	1080274	keystroke	r	n/a
540.962	0.075	1081924	keystroke	s	n/a
541.112	0.09	1082224	keystroke	Key.space	n/a
541.337	0.12	1082674	keystroke	h	n/a
541.472	0.1055	1082944	keystroke	a	n/a
541.742	0.1045	1083484	keystroke	r	n/a
541.8765	0.151	1083753	keystroke	m	n/a
542.0415	0.09	1084083	keystroke	Key.space	n/a
542.237	0.0905	1084474	keystroke	e	n/a
542.477	0.12	1084954	keystroke	s	n/a
542.7765	0.1055	1085553	keystroke	t	n/a
543.0015	0.12	1086003	keystroke	a	n/a
543.2865	0.105	1086573	keystroke	t	n/a
543.512	0.1045	1087024	keystroke	e	n/a
543.7365	0.0905	1087473	keystroke	s	n/a
543.9915	0.06	1087983	keystroke	Key.enter	n/a
544.059	13.3445	1088118	prompt	n/a	frequency allowance theorem releases\n
545.222	0.075	1090444	keystroke	f	n/a
545.537	0.15	1091074	keystroke	r	n/a
545.642	0.135	1091284	keystroke	e	n/a
545.9565	0.105	1091913	keystroke	g	n/a
546.257	0.1645	1092514	keystroke	u	n/a
546.632	0.0745	1093264	keystroke	Key.backspace	n/a
546.767	0.1345	1093534	keystroke	Key.backspace	n/a
548.3875	0.09	1096775	keystroke	q	n/a
548.6265	0.135	1097253	keystroke	u	n/a
548.7915	0.0755	1097583	keystroke	e	n/a
549.2265	0.12	1098453	keystroke	n	n/a
549.8265	0.0605	1099653	keystroke	c	n/a
549.9315	0.1205	1099863	keystroke	y	n/a
550.0365	0.105	1100073	keystroke	Key.space	n/a
550.3515	0.105	1100703	keystroke	a	n/a
550.4715	0.075	1100943	keystroke	l	n/a
550.637	0.09	1101274	keystroke	l	n/a
550.832	0.1045	1101664	keystroke	o	n/a
551.1015	0.1055	1102203	keystroke	w	n/a
551.9125	0.1045	1103825	keystroke	a	n/a
552.077	0.1205	1104154	keystroke	n	n/a
552.1975	0.09	1104395	keystroke	c	n/a
552.4665	0.0755	1104933	keystroke	e	n/a
552.587	0.1195	1105174	keystroke	Key.space	n/a
552.8865	0.105	1105773	keystroke	t	n/a
553.0065	0.18	1106013	keystroke	h	n/a
553.1715	0.105	1106343	keystroke	e	n/a
553.877	0.12	1107754	keystroke	o	n/a
554.147	0.18	1108294	keystroke	r	n/a
554.267	0.135	1108534	keystroke	e	n/a
554.492	0.12	1108984	keystroke	m	n/a
554.657	0.105	1109314	keystroke	Key.space	n/a
554.927	0.18	1109854	keystroke	r	n/a
555.032	0.135	1110064	keystroke	e	n/a
555.2565	0.1655	1110513	keystroke	l	n/a
555.557	0.09	1111114	keystroke	e	n/a
556.352	0.105	1112704	keystroke	a	n/a
556.592	0.09	1113184	keystroke	s	n/a
556.772	0.09	1113544	keystroke	e	n/a
556.997	0.105	1113994	keystroke	s	n/a
557.326	0.075	1114652	keystroke	Key.enter	n/a
557.4075	10.6315	1114815	prompt	n/a	solve comics congressional disorder\n
558.377	0.09	1116754	keystroke	s	n/a
558.527	0.09	1117054	keystroke	o	n/a
558.737	0.12	1117474	keystroke	l	n/a
559.037	0.015	1118074	keystroke	v	n/a
559.157	0.075	1118314	keystroke	e	n/a
559.277	0.0895	1118554	keystroke	Key.space	n/a
559.3965	0.105	1118793	keystroke	c	n/a
559.442	0.12	1118884	keystroke	o	n/a
559.622	0.1045	1119244	keystroke	m	n/a
560.5215	0.1205	1121043	keystroke	i	n/a
560.732	0.09	1121464	keystroke	c	n/a
560.987	0.074	1121974	keystroke	s	n/a
561.121	0.091	1122242	keystroke	Key.space	n/a
561.392	0.074	1122784	keystroke	c	n/a
561.498	0.119	1122996	keystroke	o	n/a
562.217	0.0745	1124434	keystroke	n	n/a
562.622	0.0595	1125244	keystroke	g	n/a
562.832	0.0895	1125664	keystroke	r	n/a
563.2965	0.06	1126593	keystroke	e	n/a
563.522	0.03	1127044	keystroke	s	n/a
563.717	0.075	1127434	keystroke	s	n/a
564.3315	0.1505	1128663	keystroke	i	n/a
564.4215	0.1655	1128843	keystroke	o	n/a
564.692	0.18	1129384	keystroke	n	n/a
564.917	0.09	1129834	keystroke	a	n/a
565.112	0.12	1130224	keystroke	l	n/a
565.3665	0.105	1130733	keystroke	Key.space	n/a
565.742	0.0745	1131484	keystroke	d	n/a
565.907	0.105	1131814	keystroke	i	n/a
566.4015	0.0755	1132803	keystroke	s	n/a
566.5215	0.135	1133043	keystroke	o	n/a
566.8365	0.105	1133673	keystroke	r	n/a
567.2115	0.076	1134423	keystroke	d	n/a
567.4965	0.0605	1134993	keystroke	e	n/a
567.722	0.0905	1135444	keystroke	r	n/a
567.962	0.075	1135924	keystroke	Key.enter	n/a
568.0435	8.275	1136087	prompt	n/a	thereof novels equivalent display\n
569.0125	0.105	1138025	keystroke	t	n/a
569.1765	0.1505	1138353	keystroke	h	n/a
569.252	0.1045	1138504	keystroke	e	n/a
569.507	0.165	1139014	keystroke	r	n/a
569.686	0.106	1139372	keystroke	e	n/a
569.987	0.135	1139974	keystroke	o	n/a
570.2265	0.0905	1140453	keystroke	f	n/a
570.377	0.104	1140754	keystroke	Key.space	n/a
570.602	0.104	1141204	keystroke	n	n/a
570.676	0.181	1141352	keystroke	o	n/a
570.917	0.1045	1141834	keystroke	v	n/a
571.172	0.09	1142344	keystroke	e	n/a
571.4115	0.1355	1142823	keystroke	l	n/a
571.592	0.09	1143184	keystroke	s	n/a
571.772	0.105	1143544	keystroke	Key.space	n/a
572.192	0.09	1144384	keystroke	e	n/a
572.462	0.09	1144924	keystroke	q	n/a
572.746	0.106	1145492	keystroke	u	n/a
572.987	0.1195	1145974	keystroke	i	n/a
573.317	0.105	1146634	keystroke	v	n/a
573.527	0.075	1147054	keystroke	a	n/a
573.7965	0.1055	1147593	keystroke	l	n/a
573.9465	0.0755	1147893	keystroke	e	n/a
574.1265	0.1205	1148253	keystroke	n	n/a
574.337	0.09	1148674	keystroke	t	n/a
574.666	0.091	1149332	keystroke	Key.space	n/a
574.922	0.075	1149844	keystroke	d	n/a
574.997	0.1205	1149994	keystroke	i	n/a
575.161	0.105	1150322	keystroke	s	n/a
575.282	0.119	1150564	keystroke	p	n/a
575.551	0.181	1151102	keystroke	l	n/a
575.732	0.0895	1151464	keystroke	a	n/a
575.9565	0.0895	1151913	keystroke	y	n/a
576.2415	0.0755	1152483	keystroke	Key.enter	n/a
576.3315	10.157	1152663	prompt	n/a	listings initiated pitch bankruptcy\n
577.112	0.1195	1154224	keystroke	l	n/a
577.337	0.12	1154674	keystroke	i	n/a
577.8465	0.0755	1155693	keystroke	s	n/a
578.117	0.09	1156234	keystroke	t	n/a
578.2365	0.12	1156473	keystroke	i	n/a
578.416	0.166	1156832	keystroke	n	n/a
578.641	0.106	1157282	keystroke	g	n/a
578.897	0.089	1157794	keystroke	s	n/a
579.151	0.075	1158302	keystroke	Key.space	n/a
579.3765	0.091	1158753	keystroke	i	n/a
579.5715	0.1205	1159143	keystroke	n	n/a
579.6615	0.136	1159323	keystroke	i	n/a
580.082	0.09	1160164	keystroke	t	n/a
580.2015	0.165	1160403	keystroke	i	n/a
580.487	0.09	1160974	keystroke	a	n/a
580.757	0.1045	1161514	keystroke	t	n/a
580.967	0.075	1161934	keystroke	e	n/a
581.1915	0.09	1162383	keystroke	d	n/a
581.3265	0.105	1162653	keystroke	Key.space	n/a
581.5065	0.0905	1163013	keystroke	p	n/a
581.687	0.165	1163374	keystroke	i	n/a
581.9865	0.09	1163973	keystroke	t	n/a
582.2865	0.105	1164573	keystroke	c	n/a
582.422	0.1195	1164844	keystroke	h	n/a
582.601	0.105	1165202	keystroke	Key.space	n/a
582.841	0.075	1165682	keystroke	b	n/a
583.5915	0.106	1167183	keystroke	a	n/a
583.727	0.1505	1167454	keystroke	n	n/a
583.8325	0.1495	1167665	keystroke	k	n/a
584.401	0.091	1168802	keystroke	r	n/a
584.776	0.12	1169552	keystroke	u	n/a
585.0165	0.1055	1170033	keystroke	p	n/a
585.302	0.075	1170604	keystroke	t	n/a
586.0665	0.016	1172133	keystroke	c	n/a
586.0965	0.045	1172193	keystroke	y	n/a
586.412	0.0745	1172824	keystroke	Key.enter	n/a
586.493	9.1	1172986	prompt	n/a	namespace oils designated he'd\n
587.672	0.105	1175344	keystroke	Key.backspace	n/a
588.317	0.0895	1176634	keystroke	n	n/a
588.5715	0.0905	1177143	keystroke	a	n/a
588.677	0.1195	1177354	keystroke	m	n/a
588.8415	0.09	1177683	keystroke	e	n/a
589.3525	0.074	1178705	keystroke	s	n/a
589.4565	0.1355	1178913	keystroke	p	n/a
589.577	0.1045	1179154	keystroke	a	n/a
589.802	0.075	1179604	keystroke	c	n/a
590.042	0.09	1180084	keystroke	e	n/a
590.357	0.09	1180714	keystroke	Key.space	n/a
590.942	0.1045	1181884	keystroke	o	n/a
591.1215	0.12	1182243	keystroke	i	n/a
591.377	0.1055	1182754	keystroke	l	n/a
591.692	0.075	1183384	keystroke	s	n/a
591.827	0.09	1183654	keystroke	Key.space	n/a
592.067	0.075	1184134	keystroke	d	n/a
592.307	0.09	1184614	keystroke	e	n/a
592.847	0.0745	1185694	keystroke	s	n/a
592.9365	0.1205	1185873	keystroke	i	n/a
593.162	0.09	1186324	keystroke	g	n/a
593.342	0.12	1186684	keystroke	n	n/a
593.447	0.1205	1186894	keystroke	a	n/a
593.717	0.1045	1187434	keystroke	t	n/a
593.9115	0.1055	1187823	keystroke	e	n/a
594.152	0.09	1188304	keystroke	d	n/a
594.2715	0.1045	1188543	keystroke	Key.space	n/a
594.481	0.1665	1188962	keystroke	h	n/a
594.6175	0.0895	1189235	keystroke	e	n/a
594.797	0.15	1189594	keystroke	'	n/a
595.022	0.075	1190044	keystroke	d	n/a
595.217	0.09	1190434	keystroke	Key.space	n/a
595.532	0.06	1191064	keystroke	Key.enter	n/a
595.5965	7.092	1191193	prompt	n/a	great fancy logos stored\n
596.6415	0.0755	1193283	keystroke	g	n/a
596.912	0.1795	1193824	keystroke	r	n/a
597.272	0.09	1194544	keystroke	e	n/a
597.557	0.105	1195114	keystroke	a	n/a
597.8715	0.075	1195743	keystroke	t	n/a
598.007	0.09	1196014	keystroke	Key.space	n/a
598.742	0.1505	1197484	keystroke	f	n/a
598.8615	0.1495	1197723	keystroke	a	n/a
599.027	0.1205	1198054	keystroke	n	n/a
599.149	0.088	1198298	keystroke	c	n/a
599.342	0.1195	1198684	keystroke	y	n/a
599.4315	0.1055	1198863	keystroke	Key.space	n/a
599.746	0.0905	1199492	keystroke	l	n/a
599.972	0.104	1199944	keystroke	o	n/a
600.182	0.09	1200364	keystroke	g	n/a
600.3015	0.136	1200603	keystroke	o	n/a
600.497	0.105	1200994	keystroke	s	n/a
600.632	0.1045	1201264	keystroke	Key.space	n/a
600.9025	0.1045	1201805	keystroke	s	n/a
601.1415	0.09	1202283	keystroke	t	n/a
601.742	0.0895	1203484	keystroke	o	n/a
601.937	0.135	1203874	keystroke	r	n/a
602.1615	0.075	1204323	keystroke	e	n/a
602.3715	0.09	1204743	keystroke	d	n/a
602.597	0.0895	1205194	keystroke	Key.enter	n/a
602.692	7.7365	1205384	prompt	n/a	chubby marks delivering briefing\n
603.3625	0.0895	1206725	keystroke	c	n/a
603.512	0.105	1207024	keystroke	h	n/a
603.752	0.09	1207504	keystroke	u	n/a
604.037	0.075	1208074	keystroke	b	n/a
604.202	0.09	1208404	keystroke	b	n/a
604.442	0.1045	1208884	keystroke	y	n/a
604.6365	0.0905	1209273	keystroke	Key.space	n/a
604.922	0.1045	1209844	keystroke	m	n/a
605.0865	0.0905	1210173	keystroke	a	n/a
605.3715	0.09	1210743	keystroke	r	n/a
605.507	0.1345	1211014	keystroke	k	n/a
605.762	0.074	1211524	keystroke	s	n/a
605.987	0.089	1211974	keystroke	Key.space	n/a
606.2265	0.075	1212453	keystroke	d	n/a
606.4365	0.045	1212873	keystroke	e	n/a
606.527	0.09	1213054	keystroke	l	n/a
606.6615	0.1205	1213323	keystroke	i	n/a
606.797	0.075	1213594	keystroke	v	n/a
606.9465	0.09	1213893	keystroke	e	n/a
607.157	0.09	1214314	keystroke	r	n/a
607.3065	0.12	1214613	keystroke	i	n/a
607.5165	0.136	1215033	keystroke	n	n/a
607.757	0.0745	1215514	keystroke	g	n/a
607.9365	0.0905	1215873	keystroke	Key.space	n/a
608.191	0.061	1216382	keystroke	b	n/a
608.446	0.0905	1216892	keystroke	r	n/a
608.597	0.1645	1217194	keystroke	i	n/a
608.7165	0.09	1217433	keystroke	e	n/a
609.4815	0.0605	1218963	keystroke	f	n/a
609.587	0.1195	1219174	keystroke	i	n/a
609.9465	0.0155	1219893	keystroke	n	n/a
610.052	0.09	1220104	keystroke	g	n/a
610.3515	0.075	1220703	keystroke	Key.enter	n/a
610.4335	7.96	1220867	prompt	n/a	reality fuji dust partners\n
611.087	0.165	1222174	keystroke	r	n/a
611.177	0.225	1222354	keystroke	e	n/a
611.417	0.1045	1222834	keystroke	a	n/a
611.552	0.1045	1223104	keystroke	l	n/a
611.7165	0.1205	1223433	keystroke	i	n/a
611.8965	0.09	1223793	keystroke	t	n/a
612.0615	0.12	1224123	keystroke	y	n/a
612.167	0.0295	1224334	keystroke	u	n/a
612.8115	0.1055	1225623	keystroke	Key.backspace	n/a
612.962	0.105	1225924	keystroke	Key.space	n/a
613.757	0.0745	1227514	keystroke	f	n/a
614.177	0.09	1228354	keystroke	u	n/a
614.401	0.076	1228802	keystroke	j	n/a
614.6265	0.1205	1229253	keystroke	i	n/a
614.852	0.074	1229704	keystroke	Key.space	n/a
615.3765	0.075	1230753	keystroke	d	n/a
615.4665	0.09	1230933	keystroke	u	n/a
615.572	0.1045	1231144	keystroke	s	n/a
615.827	0.089	1231654	keystroke	t	n/a
615.946	0.106	1231892	keystroke	Key.space	n/a
616.157	0.104	1232314	keystroke	p	n/a
616.2915	0.1055	1232583	keystroke	a	n/a
616.547	0.074	1233094	keystroke	r	n/a
616.756	0.0755	1233512	keystroke	t	n/a
616.9665	0.1205	1233933	keystroke	n	n/a
617.072	0.0745	1234144	keystroke	e	n/a
617.2815	0.105	1234563	keystroke	r	n/a
617.5515	0.06	1235103	keystroke	s	n/a
618.3015	0.0905	1236603	keystroke	Key.enter	n/a
618.3975	8.8305	1236795	prompt	n/a	dump japan turkey publisher\n
619.292	0.105	1238584	keystroke	d	n/a
619.3815	0.165	1238763	keystroke	i	n/a
619.9515	0.075	1239903	keystroke	Key.backspace	n/a
620.177	0.0895	1240354	keystroke	u	n/a
620.5815	0.105	1241163	keystroke	m	n/a
620.807	0.105	1241614	keystroke	p	n/a
621.032	0.075	1242064	keystroke	s	n/a
621.166	0.076	1242332	keystroke	Key.space	n/a
621.347	0.09	1242694	keystroke	j	n/a
621.452	0.09	1242904	keystroke	a	n/a
621.647	0.1795	1243294	keystroke	p	n/a
621.8115	0.09	1243623	keystroke	a	n/a
622.3515	0.0895	1244703	keystroke	n	n/a
622.592	0.0745	1245184	keystroke	Key.space	n/a
623.177	0.0745	1246354	keystroke	t	n/a
623.342	0.105	1246684	keystroke	u	n/a
623.5065	0.09	1247013	keystroke	r	n/a
623.747	0.1345	1247494	keystroke	k	n/a
624.8865	0.06	1249773	keystroke	e	n/a
625.1565	0.0905	1250313	keystroke	y	n/a
625.4265	0.105	1250853	keystroke	Key.space	n/a
625.667	0.135	1251334	keystroke	p	n/a
625.8475	0.1045	1251695	keystroke	u	n/a
626.0715	0.0755	1252143	keystroke	b	n/a
626.147	0.135	1252294	keystroke	l	n/a
626.3565	0.12	1252713	keystroke	i	n/a
626.5215	0.105	1253043	keystroke	s	n/a
626.6115	0.12	1253223	keystroke	h	n/a
626.7475	0.074	1253495	keystroke	e	n/a
626.9115	0.09	1253823	keystroke	r	n/a
627.1515	0.075	1254303	keystroke	Key.enter	n/a
627.232	10.2565	1254464	prompt	n/a	attachments firewall disciplines gathering\n
627.947	0.1045	1255894	keystroke	a	n/a
628.202	0.0595	1256404	keystroke	t	n/a
628.307	0.1045	1256614	keystroke	t	n/a
628.5465	0.09	1257093	keystroke	a	n/a
628.8015	0.075	1257603	keystroke	c	n/a
628.952	0.09	1257904	keystroke	h	n/a
629.2065	0.106	1258413	keystroke	m	n/a
629.327	0.0605	1258654	keystroke	e	n/a
629.4765	0.1055	1258953	keystroke	n	n/a
629.612	0.105	1259224	keystroke	t	n/a
629.897	0.0745	1259794	keystroke	s	n/a
630.0165	0.1045	1260033	keystroke	Key.space	n/a
630.242	0.09	1260484	keystroke	f	n/a
630.376	0.1065	1260752	keystroke	i	n/a
631.142	0.1495	1262284	keystroke	r	n/a
631.2465	0.135	1262493	keystroke	e	n/a
631.531	0.106	1263062	keystroke	w	n/a
631.742	0.105	1263484	keystroke	a	n/a
631.9665	0.0755	1263933	keystroke	l	n/a
632.147	0.09	1264294	keystroke	l	n/a
632.342	0.0745	1264684	keystroke	Key.space	n/a
632.5815	0.075	1265163	keystroke	d	n/a
633.092	0.09	1266184	keystroke	i	n/a
633.392	0.075	1266784	keystroke	s	n/a
633.617	0.06	1267234	keystroke	c	n/a
633.782	0.06	1267564	keystroke	i	n/a
633.962	0.135	1267924	keystroke	p	n/a
634.157	0.119	1268314	keystroke	l	n/a
634.366	0.0755	1268732	keystroke	i	n/a
634.5315	0.1655	1269063	keystroke	n	n/a
634.712	0.089	1269424	keystroke	e	n/a
634.9215	0.1045	1269843	keystroke	s	n/a
635.0415	0.0895	1270083	keystroke	Key.space	n/a
635.356	0.091	1270712	keystroke	g	n/a
635.972	0.105	1271944	keystroke	a	n/a
636.302	0.075	1272604	keystroke	t	n/a
636.407	0.15	1272814	keystroke	h	n/a
636.496	0.091	1272992	keystroke	e	n/a
636.692	0.105	1273384	keystroke	r	n/a
636.782	0.1195	1273564	keystroke	i	n/a
636.992	0.119	1273984	keystroke	n	n/a
637.187	0.074	1274374	keystroke	g	n/a
637.411	0.075	1274822	keystroke	Key.enter	n/a
637.494	9.6995	1274988	prompt	n/a	warehouse ascii montgomery sunday\n
638.357	0.0895	1276714	keystroke	w	n/a
638.5365	0.12	1277073	keystroke	a	n/a
638.792	0.1495	1277584	keystroke	r	n/a
638.8965	0.12	1277793	keystroke	e	n/a
639.3015	0.075	1278603	keystroke	Key.space	n/a
639.6765	0.075	1279353	keystroke	Key.backspace	n/a
639.902	0.0745	1279804	keystroke	h	n/a
639.9915	0.165	1279983	keystroke	o	n/a
640.187	0.1195	1280374	keystroke	u	n/a
640.3965	0.105	1280793	keystroke	s	n/a
640.636	0.06	1281272	keystroke	e	n/a
640.8015	0.0895	1281603	keystroke	Key.space	n/a
641.087	0.089	1282174	keystroke	a	n/a
641.6415	0.075	1283283	keystroke	s	n/a
641.867	0.0595	1283734	keystroke	c	n/a
642.0015	0.075	1284003	keystroke	i	n/a
642.137	0.1195	1284274	keystroke	i	n/a
642.3015	0.12	1284603	keystroke	Key.space	n/a
642.4815	0.1355	1284963	keystroke	m	n/a
642.602	0.12	1285204	keystroke	o	n/a
642.812	0.089	1285624	keystroke	n	n/a
643.3215	0.06	1286643	keystroke	t	n/a
644.101	0.076	1288202	keystroke	g	n/a
644.5965	0.09	1289193	keystroke	o	n/a
644.792	0.1195	1289584	keystroke	m	n/a
644.927	0.0895	1289854	keystroke	e	n/a
645.1365	0.091	1290273	keystroke	r	n/a
645.286	0.076	1290572	keystroke	y	n/a
645.8265	0.09	1291653	keystroke	Key.space	n/a
646.112	0.0595	1292224	keystroke	s	n/a
646.216	0.061	1292432	keystroke	u	n/a
646.412	0.1195	1292824	keystroke	n	n/a
646.5465	0.1505	1293093	keystroke	d	n/a
646.667	0.134	1293334	keystroke	a	n/a
646.832	0.105	1293664	keystroke	y	n/a
647.117	0.075	1294234	keystroke	Key.enter	n/a
647.198	9.1305	1294396	prompt	n/a	accessed bundle terrorists burton\n
647.9865	0.1055	1295973	keystroke	a	n/a
648.3765	0.075	1296753	keystroke	c	n/a
648.5115	0.075	1297023	keystroke	c	n/a
648.7815	0.075	1297563	keystroke	e	n/a
649.036	0.0605	1298072	keystroke	s	n/a
649.171	0.106	1298342	keystroke	s	n/a
649.3965	0.075	1298793	keystroke	e	n/a
649.6065	0.075	1299213	keystroke	d	n/a
649.8615	0.06	1299723	keystroke	Key.space	n/a
650.1165	0.0755	1300233	keystroke	b	n/a
650.2665	0.0905	1300533	keystroke	u	n/a
650.5065	0.1045	1301013	keystroke	n	n/a
650.6865	0.09	1301373	keystroke	d	n/a
651.092	0.0895	1302184	keystroke	l	n/a
651.2265	0.0605	1302453	keystroke	e	n/a
651.5115	0.1045	1303023	keystroke	Key.space	n/a
651.826	0.09	1303652	keystroke	t	n/a
652.006	0.09	1304012	keystroke	e	n/a
652.2465	0.045	1304493	keystroke	r	n/a
652.352	0.1045	1304704	keystroke	r	n/a
652.607	0.1045	1305214	keystroke	o	n/a
653.3265	0.075	1306653	keystroke	r	n/a
653.656	0.1205	1307312	keystroke	i	n/a
653.9115	0.075	1307823	keystroke	s	n/a
654.212	0.0895	1308424	keystroke	t	n/a
654.467	0.074	1308934	keystroke	s	n/a
654.6915	0.105	1309383	keystroke	Key.space	n/a
654.961	0.0755	1309922	keystroke	b	n/a
655.067	0.104	1310134	keystroke	u	n/a
655.3215	0.075	1310643	keystroke	r	n/a
655.5615	0.0895	1311123	keystroke	t	n/a
655.757	0.134	1311514	keystroke	o	n/a
655.966	0.105	1311932	keystroke	n	n/a
656.236	0.091	1312472	keystroke	Key.enter	n/a
656.335	11.0485	1312670	prompt	n/a	organisms surgeon weather moderators\n
657.3165	0.105	1314633	keystroke	o	n/a
657.4365	0.06	1314873	keystroke	r	n/a
657.6615	0.075	1315323	keystroke	g	n/a
657.857	0.0895	1315714	keystroke	a	n/a
658.0065	0.075	1316013	keystroke	n	n/a
658.1415	0.136	1316283	keystroke	i	n/a
658.4565	0.09	1316913	keystroke	s	n/a
658.6065	0.15	1317213	keystroke	m	n/a
658.817	0.0895	1317634	keystroke	s	n/a
659.0265	0.075	1318053	keystroke	Key.space	n/a
659.3715	0.09	1318743	keystroke	s	n/a
659.5515	0.105	1319103	keystroke	u	n/a
660.241	0.0755	1320482	keystroke	r	n/a
660.466	0.0755	1320932	keystroke	g	n/a
660.6765	0.09	1321353	keystroke	e	n/a
660.8415	0.1205	1321683	keystroke	o	n/a
661.006	0.105	1322012	keystroke	n	n/a
661.2165	0.0895	1322433	keystroke	Key.space	n/a
661.427	0.1045	1322854	keystroke	w	n/a
661.6065	0.1645	1323213	keystroke	a	n/a
662.4465	0.0895	1324893	keystroke	Key.backspace	n/a
662.462	0.044	1324924	keystroke	=	n/a
662.7165	0.0595	1325433	keystroke	e	n/a
662.8815	0.1055	1325763	keystroke	a	n/a
663.1665	0.06	1326333	keystroke	Key.backspace	n/a
663.3165	0.075	1326633	keystroke	Key.backspace	n/a
663.4665	0.075	1326933	keystroke	Key.backspace	n/a
663.9165	0.09	1327833	keystroke	e	n/a
664.1715	0.09	1328343	keystroke	a	n/a
664.5465	0.075	1329093	keystroke	t	n/a
664.6365	0.1205	1329273	keystroke	h	n/a
664.7265	0.105	1329453	keystroke	e	n/a
664.9515	0.0905	1329903	keystroke	r	n/a
665.1465	0.09	1330293	keystroke	Key.space	n/a
665.4615	0.105	1330923	keystroke	m	n/a
665.6115	0.1345	1331223	keystroke	o	n/a
665.762	0.089	1331524	keystroke	d	n/a
665.9565	0.075	1331913	keystroke	e	n/a
666.1215	0.1055	1332243	keystroke	r	n/a
666.2715	0.12	1332543	keystroke	a	n/a
666.5265	0.075	1333053	keystroke	t	n/a
666.6465	0.15	1333293	keystroke	o	n/a
666.8715	0.1055	1333743	keystroke	r	n/a
667.112	0.09	1334224	keystroke	s	n/a
667.306	0.0755	1334612	keystroke	Key.enter	n/a
667.3875	10.286	1334775	prompt	n/a	behalf html leasing prague\n
669.046	0.106	1338092	keystroke	b	n/a
669.211	0.12	1338422	keystroke	a	n/a
669.4365	0.1045	1338873	keystroke	h	n/a
669.601	0.09	1339202	keystroke	a	n/a
670.502	0.06	1341004	keystroke	Key.backspace	n/a
670.667	0.075	1341334	keystroke	Key.backspace	n/a
670.847	0.09	1341694	keystroke	Key.backspace	n/a
671.117	0.06	1342234	keystroke	e	n/a
671.7315	0.135	1343463	keystroke	h	n/a
671.8365	0.105	1343673	keystroke	a	n/a
671.987	0.1345	1343974	keystroke	l	n/a
672.2115	0.09	1344423	keystroke	f	n/a
672.4065	0.09	1344813	keystroke	Key.space	n/a
672.8565	0.09	1345713	keystroke	h	n/a
674.4615	0.09	1348923	keystroke	t	n/a
674.5665	0.135	1349133	keystroke	m	n/a
674.687	0.105	1349374	keystroke	l	n/a
674.9865	0.09	1349973	keystroke	Key.space	n/a
675.4815	0.1205	1350963	keystroke	l	n/a
675.5715	0.1205	1351143	keystroke	e	n/a
675.722	0.1195	1351444	keystroke	a	n/a
675.946	0.106	1351892	keystroke	s	n/a
676.036	0.105	1352072	keystroke	i	n/a
676.216	0.105	1352432	keystroke	n	n/a
676.3665	0.0905	1352733	keystroke	g	n/a
676.4715	0.09	1352943	keystroke	Key.space	n/a
676.6365	0.1205	1353273	keystroke	p	n/a
676.787	0.15	1353574	keystroke	r	n/a
676.907	0.165	1353814	keystroke	a	n/a
677.132	0.0895	1354264	keystroke	g	n/a
677.237	0.1345	1354474	keystroke	u	n/a
677.3565	0.0755	1354713	keystroke	e	n/a
677.612	0.06	1355224	keystroke	Key.enter	n/a
677.6795	6.684	1355359	prompt	n/a	romania sage reviewing incl\n
678.422	0.0745	1356844	keystroke	r	n/a
678.4815	0.1055	1356963	keystroke	o	n/a
678.662	0.18	1357324	keystroke	m	n/a
678.827	0.09	1357654	keystroke	a	n/a
679.052	0.06	1358104	keystroke	n	n/a
679.187	0.12	1358374	keystroke	i	n/a
679.3665	0.105	1358733	keystroke	a	n/a
679.532	0.0895	1359064	keystroke	Key.space	n/a
679.8465	0.151	1359693	keystroke	s	n/a
679.937	0.15	1359874	keystroke	a	n/a
680.1915	0.1055	1360383	keystroke	g	n/a
680.387	0.09	1360774	keystroke	e	n/a
680.716	0.0755	1361432	keystroke	Key.space	n/a
681.437	0.1045	1362874	keystroke	r	n/a
681.497	0.1195	1362994	keystroke	e	n/a
681.7515	0.09	1363503	keystroke	v	n/a
681.9465	0.1205	1363893	keystroke	i	n/a
682.157	0.06	1364314	keystroke	e	n/a
682.6965	0.105	1365393	keystroke	w	n/a
682.802	0.1045	1365604	keystroke	i	n/a
682.982	0.12	1365964	keystroke	n	n/a
683.161	0.091	1366322	keystroke	g	n/a
683.312	0.104	1366624	keystroke	Key.space	n/a
683.4765	0.105	1366953	keystroke	i	n/a
683.6865	0.1195	1367373	keystroke	n	n/a
683.882	0.06	1367764	keystroke	c	n/a
684.0015	0.1055	1368003	keystroke	l	n/a
684.286	0.075	1368572	keystroke	Key.enter	n/a
684.368	8.3055	1368736	prompt	n/a	occupations floral remarks peru\n
685.502	0.12	1371004	keystroke	o	n/a
685.742	0.059	1371484	keystroke	c	n/a
685.907	0.09	1371814	keystroke	c	n/a
686.177	0.09	1372354	keystroke	u	n/a
686.326	0.105	1372652	keystroke	p	n/a
686.506	0.09	1373012	keystroke	a	n/a
686.9715	0.015	1373943	keystroke	t	n/a
687.3915	0.15	1374783	keystroke	i	n/a
687.4815	0.15	1374963	keystroke	o	n/a
687.662	0.1645	1375324	keystroke	n	n/a
687.8715	0.09	1375743	keystroke	s	n/a
688.0215	0.105	1376043	keystroke	Key.space	n/a
688.2765	0.0755	1376553	keystroke	f	n/a
688.322	0.0895	1376644	keystroke	l	n/a
688.5165	0.12	1377033	keystroke	o	n/a
688.697	0.105	1377394	keystroke	r	n/a
688.892	0.1205	1377784	keystroke	a	n/a
688.9965	0.1505	1377993	keystroke	l	n/a
689.131	0.0755	1378262	keystroke	Key.space	n/a
689.432	0.105	1378864	keystroke	r	n/a
689.762	0.075	1379524	keystroke	e	n/a
690.152	0.104	1380304	keystroke	m	n/a
690.272	0.0745	1380544	keystroke	a	n/a
690.9615	0.0905	1381923	keystroke	r	n/a
691.2015	0.1355	1382403	keystroke	k	n/a
691.3375	0.089	1382675	keystroke	s	n/a
691.562	0.0895	1383124	keystroke	Key.space	n/a
691.772	0.105	1383544	keystroke	p	n/a
691.998	0.0585	1383996	keystroke	e	n/a
692.2065	0.106	1384413	keystroke	r	n/a
692.327	0.105	1384654	keystroke	u	n/a
692.566	0.1055	1385132	keystroke	Key.enter	n/a
692.6785	9.445	1385357	prompt	n/a	consultation attacked norfolk salon\n
693.541	0.075	1387082	keystroke	c	n/a
693.812	0.12	1387624	keystroke	o	n/a
693.992	0.105	1387984	keystroke	n	n/a
694.307	0.075	1388614	keystroke	s	n/a
694.4415	0.0905	1388883	keystroke	u	n/a
694.697	0.12	1389394	keystroke	l	n/a
695.7615	0.09	1391523	keystroke	t	n/a
695.927	0.1195	1391854	keystroke	a	n/a
696.2265	0.09	1392453	keystroke	t	n/a
696.362	0.1495	1392724	keystroke	i	n/a
696.4365	0.18	1392873	keystroke	o	n/a
696.6615	0.135	1393323	keystroke	n	n/a
696.7815	0.105	1393563	keystroke	Key.space	n/a
697.0075	0.0895	1394015	keystroke	a	n/a
697.2615	0.0755	1394523	keystroke	t	n/a
697.3965	0.091	1394793	keystroke	t	n/a
697.607	0.1195	1395214	keystroke	a	n/a
697.877	0.075	1395754	keystroke	c	n/a
697.967	0.165	1395934	keystroke	k	n/a
698.1165	0.0755	1396233	keystroke	e	n/a
698.327	0.0745	1396654	keystroke	d	n/a
698.447	0.105	1396894	keystroke	Key.space	n/a
698.851	0.105	1397702	keystroke	n	n/a
699.0165	0.18	1398033	keystroke	o	n/a
699.2715	0.075	1398543	keystroke	r	n/a
699.7365	0.075	1399473	keystroke	f	n/a
699.827	0.1055	1399654	keystroke	o	n/a
700.0515	0.09	1400103	keystroke	l	n/a
700.2465	0.1205	1400493	keystroke	k	n/a
700.4715	0.105	1400943	keystroke	Key.space	n/a
700.8015	0.1805	1401603	keystroke	s	n/a
700.9215	0.1505	1401843	keystroke	a	n/a
701.057	0.105	1402114	keystroke	l	n/a
701.2815	0.1205	1402563	keystroke	o	n/a
701.5065	0.0905	1403013	keystroke	n	n/a
702.047	0.0745	1404094	keystroke	Key.enter	n/a
702.128	13.9605	1404256	prompt	n/a	communication specials eliminate physicians\n
702.872	0.089	1405744	keystroke	c	n/a
703.007	0.12	1406014	keystroke	o	n/a
703.2615	0.075	1406523	keystroke	m	n/a
703.3815	0.075	1406763	keystroke	m	n/a
703.6365	0.075	1407273	keystroke	u	n/a
703.8765	0.091	1407753	keystroke	n	n/a
704.9415	0.1055	1409883	keystroke	i	n/a
704.957	0.0745	1409914	keystroke	o	n/a
705.152	0.135	1410304	keystroke	c	n/a
705.272	0.105	1410544	keystroke	a	n/a
706.262	0.09	1412524	keystroke	Key.backspace	n/a
706.412	0.09	1412824	keystroke	Key.backspace	n/a
706.592	0.119	1413184	keystroke	Key.backspace	n/a
707.131	0.106	1414262	keystroke	c	n/a
707.281	0.121	1414562	keystroke	a	n/a
707.567	0.0895	1415134	keystroke	t	n/a
707.7165	0.1805	1415433	keystroke	i	n/a
707.8365	0.165	1415673	keystroke	o	n/a
708.0915	0.105	1416183	keystroke	n	n/a
708.3315	0.0905	1416663	keystroke	Key.space	n/a
708.6475	0.0895	1417295	keystroke	s	n/a
708.7515	0.1505	1417503	keystroke	p	n/a
708.872	0.0745	1417744	keystroke	e	n/a
709.0825	0.0895	1418165	keystroke	c	n/a
709.1865	0.105	1418373	keystroke	i	n/a
709.352	0.12	1418704	keystroke	a	n/a
709.5015	0.12	1419003	keystroke	l	n/a
709.952	0.0895	1419904	keystroke	s	n/a
710.147	0.1045	1420294	keystroke	Key.space	n/a
710.4315	0.0755	1420863	keystroke	e	n/a
710.5665	0.135	1421133	keystroke	l	n/a
710.731	0.106	1421462	keystroke	i	n/a
710.9415	0.09	1421883	keystroke	m	n/a
711.047	0.1345	1422094	keystroke	i	n/a
711.2715	0.12	1422543	keystroke	n	n/a
711.497	0.1045	1422994	keystroke	a	n/a
711.7515	0.105	1423503	keystroke	t	n/a
711.9465	0.0905	1423893	keystroke	e	n/a
712.082	0.105	1424164	keystroke	Key.space	n/a
712.292	0.09	1424584	keystroke	p	n/a
712.487	0.075	1424974	keystroke	h	n/a
712.682	0.06	1425364	keystroke	y	n/a
712.697	0.06	1425394	keystroke	u	n/a
712.877	0.09	1425754	keystroke	s	n/a
712.937	0.15	1425874	keystroke	i	n/a
713.9115	0.075	1427823	keystroke	Key.backspace	n/a
714.0765	0.0755	1428153	keystroke	Key.backspace	n/a
714.242	0.09	1428484	keystroke	Key.backspace	n/a
714.917	0.09	1429834	keystroke	s	n/a
715.036	0.136	1430072	keystroke	i	n/a
715.202	0.105	1430404	keystroke	c	n/a
715.337	0.15	1430674	keystroke	i	n/a
715.501	0.091	1431002	keystroke	a	n/a
715.593	0.119	1431186	keystroke	n	n/a
715.757	0.09	1431514	keystroke	s	n/a
716.0265	0.0605	1432053	keystroke	Key.enter	n/a
716.0935	13.81	1432187	prompt	n/a	resources corrected collections anxiety\n
717.0325	0.149	1434065	keystroke	r	n/a
717.1515	0.09	1434303	keystroke	e	n/a
717.392	0.104	1434784	keystroke	s	n/a
717.4975	0.089	1434995	keystroke	o	n/a
717.5715	0.135	1435143	keystroke	u	n/a
717.842	0.105	1435684	keystroke	r	n/a
718.1115	0.09	1436223	keystroke	c	n/a
718.3815	0.0755	1436763	keystroke	e	n/a
718.5915	0.09	1437183	keystroke	s	n/a
718.7115	0.0905	1437423	keystroke	Key.space	n/a
718.9665	0.09	1437933	keystroke	c	n/a
719.1315	0.105	1438263	keystroke	o	n/a
719.3565	0.075	1438713	keystroke	r	n/a
719.4765	0.09	1438953	keystroke	r	n/a
719.6875	0.074	1439375	keystroke	e	n/a
720.287	0.0595	1440574	keystroke	c	n/a
720.7665	0.075	1441533	keystroke	t	n/a
720.947	0.0595	1441894	keystroke	e	n/a
721.1865	0.0455	1442373	keystroke	d	n/a
722.071	0.091	1444142	keystroke	Key.space	n/a
722.311	0.061	1444622	keystroke	c	n/a
722.4015	0.09	1444803	keystroke	o	n/a
722.611	0.075	1445222	keystroke	l	n/a
722.747	0.104	1445494	keystroke	l	n/a
722.9115	0.0595	1445823	keystroke	e	n/a
723.3315	0.0605	1446663	keystroke	c	n/a
723.8265	0.075	1447653	keystroke	t	n/a
723.9615	0.12	1447923	keystroke	i	n/a
