onset	duration	sample	value	key	prompt_text
7.8485	17.798	15697	prompt	n/a	the quick brown fox jumps over a lazy dog\n
12.2105	0.08	24421	keystroke_t	t	n/a
12.3065	0.064	24613	keystroke_h	h	n/a
12.4105	0.072	24821	keystroke_e	e	n/a
12.5145	0.072	25029	keystroke_Key.space	Key.space	n/a
12.9225	0.12	25845	keystroke_q	q	n/a
13.1545	0.096	26309	keystroke_u	u	n/a
13.3785	0.08	26757	keystroke_i	i	n/a
13.5305	0.08	27061	keystroke_c	c	n/a
13.6265	0.08	27253	keystroke_k	k	n/a
13.9865	0.072	27973	keystroke_Key.space	Key.space	n/a
14.179	0.0555	28358	keystroke_b	b	n/a
14.3865	0.064	28773	keystroke_r	r	n/a
14.4905	0.072	28981	keystroke_o	o	n/a
14.5945	0.064	29189	keystroke_w	w	n/a
14.7225	0.064	29445	keystroke_n	n	n/a
14.8905	0.08	29781	keystroke_Key.space	Key.space	n/a
15.0745	0.064	30149	keystroke_f	f	n/a
15.1865	0.072	30373	keystroke_o	o	n/a
15.563	0.096	31126	keystroke_x	x	n/a
16.435	0.088	32870	keystroke_Key.space	Key.space	n/a
16.635	0.072	33270	keystroke_j	j	n/a
16.819	0.072	33638	keystroke_u	u	n/a
17.099	0.072	34198	keystroke_k	k	n/a
17.275	0.08	34550	keystroke_p	p	n/a
17.467	0.08	34934	keystroke_s	s	n/a
17.579	0.072	35158	keystroke_Key.space	Key.space	n/a
17.914	0.1045	35828	keystroke_Key.backspace	Key.backspace	n/a
19.0825	0.08	38165	keystroke_Key.backspace	Key.backspace	n/a
19.347	0.08	38694	keystroke_Key.backspace	Key.backspace	n/a
19.659	0.12	39318	keystroke_Key.backspace	Key.backspace	n/a
21.275	0.0795	42550	keystroke_m	m	n/a
21.4665	0.104	42933	keystroke_p	p	n/a
22.0105	0.072	44021	keystroke_s	s	n/a
22.0985	0.072	44197	keystroke_Key.space	Key.space	n/a
22.2745	0.08	44549	keystroke_o	o	n/a
22.3875	0.071	44775	keystroke_v	v	n/a
22.5305	0.0725	45061	keystroke_e	e	n/a
22.635	0.0715	45270	keystroke_r	r	n/a
22.7305	0.064	45461	keystroke_Key.space	Key.space	n/a
22.8425	0.072	45685	keystroke_a	a	n/a
22.9225	0.072	45845	keystroke_Key.space	Key.space	n/a
23.2185	0.088	46437	keystroke_l	l	n/a
23.3945	0.088	46789	keystroke_a	a	n/a
23.5865	0.096	47173	keystroke_z	z	n/a
23.8265	0.064	47653	keystroke_y	y	n/a
23.947	0.0875	47894	keystroke_Key.space	Key.space	n/a
24.1625	0.104	48325	keystroke_d	d	n/a
24.2905	0.088	48581	keystroke_o	o	n/a
24.4985	0.072	48997	keystroke_g	g	n/a
25.5625	0.08	51125	keystroke_Key.enter	Key.enter	n/a
25.653	10.2235	51306	prompt	n/a	cameron income edited greater\n
26.9865	0.0885	53973	keystroke_c	c	n/a
27.123	0.096	54246	keystroke_a	a	n/a
27.227	0.0715	54454	keystroke_m	m	n/a
27.3465	0.08	54693	keystroke_e	e	n/a
27.5065	0.088	55013	keystroke_r	r	n/a
27.7065	0.088	55413	keystroke_o	o	n/a
27.8825	0.08	55765	keystroke_n	n	n/a
28.0505	0.088	56101	keystroke_Key.space	Key.space	n/a
28.2185	0.072	56437	keystroke_i	i	n/a
28.3625	0.08	56725	keystroke_n	n	n/a
28.5145	0.088	57029	keystroke_c	c	n/a
28.6035	0.079	57207	keystroke_o	o	n/a
29.3225	0.088	58645	keystroke_m	m	n/a
29.9545	0.088	59909	keystroke_e	e	n/a
30.0825	0.08	60165	keystroke_Key.space	Key.space	n/a
30.3065	0.096	60613	keystroke_e	e	n/a
30.6505	0.08	61301	keystroke_f	f	n/a
31.2585	0.072	62517	keystroke_Key.backspace	Key.backspace	n/a
31.4185	0.08	62837	keystroke_d	d	n/a
31.5625	0.104	63125	keystroke_i	i	n/a
31.8665	0.08	63733	keystroke_t	t	n/a
32.882	0.104	65764	keystroke_e	e	n/a
33.314	0.088	66628	keystroke_d	d	n/a
33.93	0.088	67860	keystroke_Key.space	Key.space	n/a
34.626	0.072	69252	keystroke_g	g	n/a
34.818	0.081	69636	keystroke_r	r	n/a
34.946	0.08	69892	keystroke_e	e	n/a
35.09	0.056	70180	keystroke_a	a	n/a
35.219	0.072	70438	keystroke_t	t	n/a
35.339	0.079	70678	keystroke_e	e	n/a
35.426	0.056	70852	keystroke_r	r	n/a
35.794	0.08	71588	keystroke_Key.enter	Key.enter	n/a
35.882	9.6825	71764	prompt	n/a	burlington fans billing caroline\n
36.515	0.096	73030	keystroke_b	b	n/a
36.738	0.08	73476	keystroke_u	u	n/a
36.906	0.088	73812	keystroke_r	r	n/a
37.074	0.088	74148	keystroke_l	l	n/a
37.298	0.081	74596	keystroke_i	i	n/a
37.523	0.088	75046	keystroke_g	g	n/a
37.834	0.08	75668	keystroke_Key.backspace	Key.backspace	n/a
38.307	0.095	76614	keystroke_n	n	n/a
38.538	0.089	77076	keystroke_g	g	n/a
38.842	0.08	77684	keystroke_t	t	n/a
39.018	0.088	78036	keystroke_o	o	n/a
39.21	0.072	78420	keystroke_n	n	n/a
39.458	0.088	78916	keystroke_Key.space	Key.space	n/a
39.706	0.097	79412	keystroke_f	f	n/a
40.666	0.104	81332	keystroke_a	a	n/a
40.906	0.113	81812	keystroke_n	n	n/a
41.187	0.103	82374	keystroke_s	s	n/a
41.882	0.104	83764	keystroke_Key.space	Key.space	n/a
42.122	0.088	84244	keystroke_b	b	n/a
42.25	0.089	84500	keystroke_i	i	n/a
42.49	0.072	84980	keystroke_l	l	n/a
42.643	0.104	85286	keystroke_l	l	n/a
42.874	0.105	85748	keystroke_i	i	n/a
42.986	0.072	85972	keystroke_n	n	n/a
43.122	0.08	86244	keystroke_g	g	n/a
43.2185	0.088	86437	keystroke_Key.space	Key.space	n/a
43.4105	0.104	86821	keystroke_c	c	n/a
43.7465	0.104	87493	keystroke_a	a	n/a
43.9545	0.072	87909	keystroke_r	r	n/a
44.0825	0.096	88165	keystroke_o	o	n/a
44.4745	0.104	88949	keystroke_l	l	n/a
44.7145	0.128	89429	keystroke_i	i	n/a
44.8185	0.08	89637	keystroke_n	n	n/a
45.0025	0.072	90005	keystroke_e	e	n/a
45.4825	0.08	90965	keystroke_Key.enter	Key.enter	n/a
45.57	8.7865	91140	prompt	n/a	crisis aims alot myers\n
46.2905	0.12	92581	keystroke_c	c	n/a
46.6185	0.064	93237	keystroke_r	r	n/a
47.0265	0.112	94053	keystroke_i	i	n/a
47.7545	0.096	95509	keystroke_s	s	n/a
48.0905	0.104	96181	keystroke_i	i	n/a
48.3145	0.072	96629	keystroke_s	s	n/a
48.4905	0.088	96981	keystroke_Key.space	Key.space	n/a
48.6905	0.08	97381	keystroke_a	a	n/a
48.8905	0.096	97781	keystroke_i	i	n/a
49.1305	0.088	98261	keystroke_m	m	n/a
49.4105	0.104	98821	keystroke_s	s	n/a
49.5625	0.104	99125	keystroke_Key.space	Key.space	n/a
49.7145	0.088	99429	keystroke_a	a	n/a
49.8505	0.088	99701	keystroke_l	l	n/a
50.0425	0.072	100085	keystroke_o	o	n/a
50.2265	0.072	100453	keystroke_t	t	n/a
51.1385	0.12	102277	keystroke_Key.space	Key.space	n/a
51.4025	0.112	102805	keystroke_m	m	n/a
52.2185	0.08	104437	keystroke_t	t	n/a
52.7385	0.08	105477	keystroke_Key.backspace	Key.backspace	n/a
52.8985	0.072	105797	keystroke_y	y	n/a
53.1065	0.104	106213	keystroke_e	e	n/a
53.2905	0.072	106581	keystroke_r	r	n/a
53.5465	0.072	107093	keystroke_s	s	n/a
54.2665	0.088	108533	keystroke_Key.enter	Key.enter	n/a
54.3625	18.753	108725	prompt	n/a	concern suicide priorities crossword\n
55.1305	0.096	110261	keystroke_c	c	n/a
55.2345	0.08	110469	keystroke_o	o	n/a
55.3945	0.072	110789	keystroke_n	n	n/a
55.5305	0.104	111061	keystroke_c	c	n/a
55.7065	0.088	111413	keystroke_e	e	n/a
56.2745	0.08	112549	keystroke_r	r	n/a
56.4425	0.104	112885	keystroke_n	n	n/a
56.6825	0.096	113365	keystroke_Key.space	Key.space	n/a
57.0585	0.136	114117	keystroke_s	s	n/a
57.5945	0.112	115189	keystroke_u	u	n/a
58.0985	0.104	116197	keystroke_i	i	n/a
58.4505	0.088	116901	keystroke_c	c	n/a
59.2425	0.152	118485	keystroke_i	i	n/a
59.6505	0.104	119301	keystroke_d	d	n/a
59.8825	0.104	119765	keystroke_e	e	n/a
60.338	0.12	120676	keystroke_Key.space	Key.space	n/a
60.706	0.136	121412	keystroke_p	p	n/a
60.906	0.088	121812	keystroke_r	r	n/a
61.458	0.096	122916	keystroke_o	o	n/a
64.026	0.152	128052	keystroke_Key.backspace	Key.backspace	n/a
65.602	0.096	131204	keystroke_i	i	n/a
65.954	0.056	131908	keystroke_o	o	n/a
66.202	0.104	132404	keystroke_r	r	n/a
67.554	0.088	135108	keystroke_i	i	n/a
68.578	0.088	137156	keystroke_t	t	n/a
68.698	0.072	137396	keystroke_i	i	n/a
68.77	0.088	137540	keystroke_e	e	n/a
68.954	0.088	137908	keystroke_s	s	n/a
69.074	0.08	138148	keystroke_Key.space	Key.space	n/a
69.226	0.096	138452	keystroke_c	c	n/a
69.442	0.056	138884	keystroke_r	r	n/a
69.45	0.056	138900	keystroke_t	t	n/a
69.57	0.064	139140	keystroke_o	o	n/a
70.034	0.08	140068	keystroke_Key.backspace	Key.backspace	n/a
70.202	0.064	140404	keystroke_Key.backspace	Key.backspace	n/a
70.49	0.088	140980	keystroke_r	r	n/a
70.882	0.072	141764	keystroke_Key.backspace	Key.backspace	n/a
71.106	0.08	142212	keystroke_o	o	n/a
71.266	0.072	142532	keystroke_s	s	n/a
71.418	0.08	142836	keystroke_s	s	n/a
71.786	0.096	143572	keystroke_w	w	n/a
71.914	0.08	143828	keystroke_o	o	n/a
72.098	0.08	144196	keystroke_r	r	n/a
72.3215	0.048	144643	keystroke_d	d	n/a
73.0415	0.072	146083	keystroke_Key.enter	Key.enter	n/a
73.121	17.483	146242	prompt	n/a	steering blonde hydrogen buyer\n
73.9625	0.087	147925	keystroke_s	s	n/a
74.1615	0.072	148323	keystroke_t	t	n/a
74.2895	0.104	148579	keystroke_e	e	n/a
74.5375	0.048	149075	keystroke_e	e	n/a
74.8655	0.088	149731	keystroke_r	r	n/a
75.1135	0.096	150227	keystroke_i	i	n/a
75.2335	0.088	150467	keystroke_n	n	n/a
75.3695	0.072	150739	keystroke_g	g	n/a
75.4655	0.088	150931	keystroke_Key.space	Key.space	n/a
75.7935	0.104	151587	keystroke_c	c	n/a
76.2015	0.072	152403	keystroke_Key.backspace	Key.backspace	n/a
76.4975	0.064	152995	keystroke_b	b	n/a
76.5855	0.088	153171	keystroke_l	l	n/a
76.7695	0.096	153539	keystroke_o	o	n/a
76.8815	0.08	153763	keystroke_n	n	n/a
77.0255	0.08	154051	keystroke_d	d	n/a
77.2175	0.08	154435	keystroke_e	e	n/a
77.4575	0.088	154915	keystroke_Key.space	Key.space	n/a
78.3935	0.064	156787	keystroke_h	h	n/a
78.7215	0.088	157443	keystroke_r	r	n/a
79.1135	0.08	158227	keystroke_d	d	n/a
79.3855	0.064	158771	keystroke_r	r	n/a
79.5215	0.072	159043	keystroke_o	o	n/a
79.8335	0.064	159667	keystroke_g	g	n/a
79.9455	0.08	159891	keystroke_e	e	n/a
80.0655	0.08	160131	keystroke_n	n	n/a
80.2655	0.096	160531	keystroke_Key.space	Key.space	n/a
80.7295	0.104	161459	keystroke_b	b	n/a
81.2095	0.08	162419	keystroke_Key.backspace	Key.backspace	n/a
81.3695	0.072	162739	keystroke_Key.backspace	Key.backspace	n/a
81.5215	0.064	163043	keystroke_Key.backspace	Key.backspace	n/a
81.6655	0.064	163331	keystroke_Key.backspace	Key.backspace	n/a
81.8175	0.064	163635	keystroke_Key.backspace	Key.backspace	n/a
81.9615	0.072	163923	keystroke_Key.backspace	Key.backspace	n/a
82.1055	0.08	164211	keystroke_Key.backspace	Key.backspace	n/a
82.2655	0.072	164531	keystroke_Key.backspace	Key.backspace	n/a
83.0015	0.08	166003	keystroke_Key.backspace	Key.backspace	n/a
83.9615	0.04	167923	keystroke_u	u	n/a
84.4255	0.08	168851	keystroke_Key.backspace	Key.backspace	n/a
84.9535	0.064	169907	keystroke_y	y	n/a
85.5695	0.112	171139	keystroke_d	d	n/a
86.8335	0.08	173667	keystroke_r	r	n/a
86.9695	0.096	173939	keystroke_o	o	n/a
87.3135	0.096	174627	keystroke_g	g	n/a
87.5295	0.072	175059	keystroke_e	e	n/a
87.6255	0.088	175251	keystroke_n	n	n/a
87.8415	0.088	175683	keystroke_Key.space	Key.space	n/a
88.1135	0.08	176227	keystroke_b	b	n/a
88.2095	0.08	176419	keystroke_u	u	n/a
88.7375	0.072	177475	keystroke_t	t	n/a
89.1295	0.08	178259	keystroke_Key.backspace	Key.backspace	n/a
89.305	0.08	178610	keystroke_y	y	n/a
89.5935	0.096	179187	keystroke_e	e	n/a
89.7855	0.072	179571	keystroke_r	r	n/a
90.505	0.096	181010	keystroke_Key.enter	Key.enter	n/a
90.6105	11.057	181221	prompt	n/a	meet geneva signatures shall\n
91.217	0.112	182434	keystroke_m	m	n/a
91.401	0.08	182802	keystroke_e	e	n/a
91.553	0.088	183106	keystroke_e	e	n/a
91.761	0.096	183522	keystroke_t	t	n/a
92.105	0.096	184210	keystroke_Key.space	Key.space	n/a
92.513	0.08	185026	keystroke_g	g	n/a
92.681	0.08	185362	keystroke_e	e	n/a
92.785	0.072	185570	keystroke_n	n	n/a
92.889	0.072	185778	keystroke_e	e	n/a
93.017	0.072	186034	keystroke_r	r	n/a
93.425	0.072	186850	keystroke_Key.backspace	Key.backspace	n/a
93.577	0.088	187154	keystroke_v	v	n/a
93.897	0.08	187794	keystroke_a	a	n/a
94.209	0.088	188418	keystroke_Key.space	Key.space	n/a
94.641	0.096	189282	keystroke_s	s	n/a
94.849	0.088	189698	keystroke_i	i	n/a
95.353	0.096	190706	keystroke_g	g	n/a
95.649	0.104	191298	keystroke_n	n	n/a
99.049	0.112	198098	keystroke_a	a	n/a
99.345	0.088	198690	keystroke_t	t	n/a
99.497	0.08	198994	keystroke_u	u	n/a
99.625	0.096	199250	keystroke_r	r	n/a
99.745	0.08	199490	keystroke_e	e	n/a
100.249	0.112	200498	keystroke_Key.space	Key.space	n/a
100.537	0.088	201074	keystroke_s	s	n/a
100.649	0.08	201298	keystroke_h	h	n/a
100.777	0.072	201554	keystroke_a	a	n/a
100.937	0.088	201874	keystroke_l	l	n/a
101.201	0.072	202402	keystroke_l	l	n/a
101.593	0.072	203186	keystroke_Key.enter	Key.enter	n/a
101.6745	12.0655	203349	prompt	n/a	pharmacy distinguished compound calcium\n
102.4815	0.096	204963	keystroke_p	p	n/a
102.7215	0.072	205443	keystroke_h	h	n/a
102.9135	0.112	205827	keystroke_a	a	n/a
103.1055	0.08	206211	keystroke_r	r	n/a
103.2335	0.08	206467	keystroke_m	m	n/a
103.4095	0.096	206819	keystroke_a	a	n/a
103.6495	0.128	207299	keystroke_c	c	n/a
103.9935	0.072	207987	keystroke_y	y	n/a
104.3925	0.08	208785	keystroke_Key.space	Key.space	n/a
104.6255	0.064	209251	keystroke_d	d	n/a
104.8335	0.104	209667	keystroke_i	i	n/a
105.0645	0.105	210129	keystroke_s	s	n/a
107.1455	0.072	214291	keystroke_t	t	n/a
107.2485	0.073	214497	keystroke_i	i	n/a
107.3855	0.088	214771	keystroke_n	n	n/a
107.5685	0.081	215137	keystroke_g	g	n/a
107.6975	0.088	215395	keystroke_u	u	n/a
107.9295	0.08	215859	keystroke_i	i	n/a
108.4735	0.096	216947	keystroke_s	s	n/a
108.5775	0.096	217155	keystroke_h	h	n/a
108.7775	0.08	217555	keystroke_e	e	n/a
109.0015	0.08	218003	keystroke_d	d	n/a
109.5455	0.088	219091	keystroke_Key.space	Key.space	n/a
109.7375	0.088	219475	keystroke_c	c	n/a
109.8095	0.08	219619	keystroke_o	o	n/a
109.9615	0.08	219923	keystroke_m	m	n/a
110.1205	0.097	220241	keystroke_p	p	n/a
110.3775	0.08	220755	keystroke_o	o	n/a
110.5695	0.071	221139	keystroke_u	u	n/a
110.7695	0.071	221539	keystroke_n	n	n/a
110.9215	0.072	221843	keystroke_d	d	n/a
111.5055	0.071	223011	keystroke_Key.space	Key.space	n/a
112.0095	0.096	224019	keystroke_c	c	n/a
112.2255	0.072	224451	keystroke_a	a	n/a
112.3935	0.088	224787	keystroke_l	l	n/a
112.7055	0.088	225411	keystroke_c	c	n/a
112.8975	0.144	225795	keystroke_i	i	n/a
113.1615	0.088	226323	keystroke_u	u	n/a
113.3935	0.08	226787	keystroke_m	m	n/a
113.6735	0.064	227347	keystroke_Key.enter	Key.enter	n/a
113.7465	7.969	227493	prompt	n/a	tires sells depth classes\n
114.4335	0.088	228867	keystroke_t	t	n/a
114.9455	0.103	229891	keystroke_r	r	n/a
115.1855	0.088	230371	keystroke_i	i	n/a
115.4975	0.063	230995	keystroke_Key.backspace	Key.backspace	n/a
115.6325	0.08	231265	keystroke_Key.backspace	Key.backspace	n/a
115.8645	0.081	231729	keystroke_i	i	n/a
116.0255	0.08	232051	keystroke_e	e	n/a
116.6565	0.08	233313	keystroke_Key.backspace	Key.backspace	n/a
117.2975	0.072	234595	keystroke_r	r	n/a
117.4255	0.096	234851	keystroke_e	e	n/a
117.6975	0.104	235395	keystroke_s	s	n/a
117.9845	0.104	235969	keystroke_Key.space	Key.space	n/a
118.2255	0.088	236451	keystroke_s	s	n/a
118.4095	0.08	236819	keystroke_e	e	n/a
118.5615	0.088	237123	keystroke_l	l	n/a
118.7375	0.08	237475	keystroke_l	l	n/a
118.8965	0.088	237793	keystroke_Key.space	Key.space	n/a
119.0575	0.104	238115	keystroke_d	d	n/a
119.2415	0.08	238483	keystroke_e	e	n/a
119.3455	0.096	238691	keystroke_p	p	n/a
119.5535	0.072	239107	keystroke_t	t	n/a
119.7935	0.08	239587	keystroke_h	h	n/a
120.3765	0.088	240753	keystroke_Key.space	Key.space	n/a
120.5695	0.096	241139	keystroke_c	c	n/a
120.6885	0.089	241377	keystroke_l	l	n/a
120.8335	0.08	241667	keystroke_a	a	n/a
120.9935	0.071	241987	keystroke_s	s	n/a
121.1455	0.064	242291	keystroke_s	s	n/a
121.3055	0.064	242611	keystroke_e	e	n/a
121.4735	0.064	242947	keystroke_s	s	n/a
121.6415	0.071	243283	keystroke_Key.enter	Key.enter	n/a
121.721	11.5615	243442	prompt	n/a	drop ranging these treating\n
122.4495	0.144	244899	keystroke_f	f	n/a
122.7215	0.056	245443	keystroke_r	r	n/a
122.8645	0.065	245729	keystroke_o	o	n/a
123.1135	0.079	246227	keystroke_Key.backspace	Key.backspace	n/a
123.273	0.0795	246546	keystroke_Key.backspace	Key.backspace	n/a
123.433	0.0555	246866	keystroke_Key.backspace	Key.backspace	n/a
124.0655	0.088	248131	keystroke_d	d	n/a
124.2575	0.056	248515	keystroke_r	r	n/a
124.3695	0.0885	248739	keystroke_o	o	n/a
124.578	0.0795	249156	keystroke_p	p	n/a
125.0725	0.096	250145	keystroke_Key.space	Key.space	n/a
125.5215	0.08	251043	keystroke_r	r	n/a
125.7295	0.071	251459	keystroke_a	a	n/a
125.8325	0.089	251665	keystroke_n	n	n/a
126.1365	0.097	252273	keystroke_d	d	n/a
126.6175	0.071	253235	keystroke_Key.backspace	Key.backspace	n/a
126.7295	0.088	253459	keystroke_f	f	n/a
127.2325	0.072	254465	keystroke_Key.backspace	Key.backspace	n/a
127.6975	0.064	255395	keystroke_g	g	n/a
127.8165	0.089	255633	keystroke_i	i	n/a
127.9375	0.072	255875	keystroke_n	n	n/a
128.0655	0.056	256131	keystroke_g	g	n/a
128.8245	0.088	257649	keystroke_Key.space	Key.space	n/a
128.9925	0.081	257985	keystroke_t	t	n/a
129.0895	0.064	258179	keystroke_h	h	n/a
129.1855	0.08	258371	keystroke_e	e	n/a
129.3535	0.072	258707	keystroke_s	s	n/a
129.5215	0.072	259043	keystroke_e	e	n/a
129.6245	0.089	259249	keystroke_Key.space	Key.space	n/a
129.7615	0.08	259523	keystroke_t	t	n/a
130.2645	0.113	260529	keystroke_r	r	n/a
130.4895	0.103	260979	keystroke_e	e	n/a
130.7135	0.088	261427	keystroke_a	a	n/a
130.9205	0.081	261841	keystroke_t	t	n/a
131.0805	0.073	262161	keystroke_e	e	n/a
131.2655	0.072	262531	keystroke_d	d	n/a
131.9205	0.089	263841	keystroke_Key.backspace	Key.backspace	n/a
132.2565	0.072	264513	keystroke_Key.backspace	Key.backspace	n/a
132.5295	0.0795	265059	keystroke_i	i	n/a
132.705	0.072	265410	keystroke_n	n	n/a
132.833	0.0725	265666	keystroke_g	g	n/a
133.2015	0.079	266403	keystroke_Key.enter	Key.enter	n/a
133.287	6.3325	266574	prompt	n/a	weeks auditor press whole\n
134.0735	0.088	268147	keystroke_w	w	n/a
134.2575	0.087	268515	keystroke_e	e	n/a
134.4335	0.088	268867	keystroke_e	e	n/a
134.5695	0.079	269139	keystroke_k	k	n/a
134.8015	0.08	269603	keystroke_s	s	n/a
135.152	0.088	270304	keystroke_Key.space	Key.space	n/a
135.5375	0.096	271075	keystroke_a	a	n/a
136.1135	0.103	272227	keystroke_u	u	n/a
136.3855	0.096	272771	keystroke_d	d	n/a
136.4975	0.087	272995	keystroke_i	i	n/a
136.7055	0.063	273411	keystroke_t	t	n/a
136.9055	0.08	273811	keystroke_o	o	n/a
137.0735	0.08	274147	keystroke_r	r	n/a
137.7925	0.097	275585	keystroke_Key.space	Key.space	n/a
138.0895	0.096	276179	keystroke_p	p	n/a
138.2325	0.097	276465	keystroke_r	r	n/a
138.3605	0.097	276721	keystroke_e	e	n/a
138.569	0.064	277138	keystroke_s	s	n/a
138.696	0.073	277392	keystroke_s	s	n/a
138.808	0.08	277616	keystroke_Key.space	Key.space	n/a
138.897	0.063	277794	keystroke_w	w	n/a
139	0.065	278000	keystroke_h	h	n/a
139.137	0.087	278274	keystroke_o	o	n/a
139.329	0.064	278658	keystroke_l	l	n/a
139.425	0.072	278850	keystroke_e	e	n/a
139.545	0.071	279090	keystroke_Key.enter	Key.enter	n/a
139.6255	11.586	279251	prompt	n/a	grade methodology resolved rangers\n
141.057	0.072	282114	keystroke_g	g	n/a
141.224	0.073	282448	keystroke_r	r	n/a
141.401	0.087	282802	keystroke_a	a	n/a
141.537	0.079	283074	keystroke_d	d	n/a
141.688	0.065	283376	keystroke_e	e	n/a
142.136	0.096	284272	keystroke_Key.space	Key.space	n/a
142.336	0.089	284672	keystroke_m	m	n/a
142.457	0.088	284914	keystroke_e	e	n/a
142.632	0.073	285264	keystroke_t	t	n/a
142.729	0.064	285458	keystroke_h	h	n/a
142.881	0.096	285762	keystroke_o	o	n/a
143.2815	0.088	286563	keystroke_d	d	n/a
143.6405	0.128	287281	keystroke_o	o	n/a
143.9295	0.104	287859	keystroke_l	l	n/a
144.1125	0.072	288225	keystroke_o	o	n/a
144.5055	0.111	289011	keystroke_g	g	n/a
144.8095	0.104	289619	keystroke_y	y	n/a
145.4325	0.088	290865	keystroke_Key.space	Key.space	n/a
145.6175	0.071	291235	keystroke_r	r	n/a
146.0815	0.103	292163	keystroke_e	e	n/a
146.6175	0.095	293235	keystroke_s	s	n/a
146.8245	0.089	293649	keystroke_o	o	n/a
147.0245	0.089	294049	keystroke_l	l	n/a
147.2165	0.105	294433	keystroke_v	v	n/a
147.4495	0.095	294899	keystroke_e	e	n/a
147.7535	0.096	295507	keystroke_d	d	n/a
148.1285	0.088	296257	keystroke_Key.space	Key.space	n/a
148.4175	0.079	296835	keystroke_r	r	n/a
148.6645	0.105	297329	keystroke_a	a	n/a
148.8095	0.071	297619	keystroke_n	n	n/a
149.2095	0.079	298419	keystroke_g	g	n/a
149.3455	0.079	298691	keystroke_e	e	n/a
149.4885	0.08	298977	keystroke_r	r	n/a
150.2325	0.064	300465	keystroke_s	s	n/a
151.1295	0.079	302259	keystroke_Key.enter	Key.enter	n/a
151.2195	13.1425	302439	prompt	n/a	died goat financial unsubscribe\n
152.1295	0.088	304259	keystroke_d	d	n/a
152.2255	0.0635	304451	keystroke_i	i	n/a
152.329	0.096	304658	keystroke_e	e	n/a
152.697	0.088	305394	keystroke_d	d	n/a
152.873	0.08	305746	keystroke_Key.space	Key.space	n/a
153.921	0.072	307842	keystroke_g	g	n/a
154.017	0.064	308034	keystroke_o	o	n/a
154.145	0.08	308290	keystroke_a	a	n/a
154.313	0.072	308626	keystroke_t	t	n/a
154.505	0.096	309010	keystroke_Key.space	Key.space	n/a
154.953	0.096	309906	keystroke_d	d	n/a
155.417	0.08	310834	keystroke_Key.backspace	Key.backspace	n/a
155.521	0.088	311042	keystroke_f	f	n/a
155.689	0.08	311378	keystroke_i	i	n/a
155.881	0.072	311762	keystroke_n	n	n/a
156.017	0.096	312034	keystroke_a	a	n/a
156.137	0.08	312274	keystroke_n	n	n/a
156.377	0.088	312754	keystroke_c	c	n/a
156.633	0.112	313266	keystroke_i	i	n/a
156.921	0.088	313842	keystroke_a	a	n/a
157.033	0.104	314066	keystroke_l	l	n/a
157.649	0.096	315298	keystroke_Key.space	Key.space	n/a
157.953	0.096	315906	keystroke_u	u	n/a
158.369	0.088	316738	keystroke_n	n	n/a
158.833	0.104	317666	keystroke_s	s	n/a
159.289	0.112	318578	keystroke_c	c	n/a
159.993	0.072	319986	keystroke_Key.backspace	Key.backspace	n/a
160.913	0.064	321826	keystroke_u	u	n/a
161.457	0.072	322914	keystroke_b	b	n/a
161.825	0.08	323650	keystroke_s	s	n/a
162.017	0.088	324034	keystroke_c	c	n/a
162.233	0.072	324466	keystroke_r	r	n/a
162.361	0.072	324722	keystroke_i	i	n/a
162.521	0.096	325042	keystroke_b	b	n/a
162.817	0.088	325634	keystroke_e	e	n/a
164.2725	0.088	328545	keystroke_Key.enter	Key.enter	n/a
164.3675	10.867	328735	prompt	n/a	needn't carlo brings up\n
165.0805	0.08	330161	keystroke_n	n	n/a
165.2485	0.08	330497	keystroke_e	e	n/a
165.4005	0.08	330801	keystroke_e	e	n/a
165.6005	0.088	331201	keystroke_d	d	n/a
166.7685	0.12	333537	keystroke_n	n	n/a
168.457	0.096	336914	keystroke_'	'	n/a
168.8485	0.08	337697	keystroke_t	t	n/a
169.4965	0.0885	338993	keystroke_Key.space	Key.space	n/a
169.753	0.104	339506	keystroke_c	c	n/a
169.921	0.096	339842	keystroke_a	a	n/a
170.3285	0.0965	340657	keystroke_r	r	n/a
170.6485	0.0965	341297	keystroke_l	l	n/a
170.889	0.08	341778	keystroke_o	o	n/a
171.105	0.0875	342210	keystroke_Key.space	Key.space	n/a
171.3125	0.0965	342625	keystroke_b	b	n/a
171.529	0.072	343058	keystroke_r	r	n/a
171.617	0.088	343234	keystroke_i	i	n/a
173.473	0.144	346946	keystroke_n	n	n/a
173.945	0.08	347890	keystroke_g	g	n/a
174.257	0.0875	348514	keystroke_s	s	n/a
174.4165	0.096	348833	keystroke_Key.space	Key.space	n/a
174.6405	0.08	349281	keystroke_u	u	n/a
174.8245	0.088	349649	keystroke_p	p	n/a
175.1605	0.072	350321	keystroke_Key.enter	Key.enter	n/a
175.2405	13.498	350481	prompt	n/a	valley packages importance enhancements\n
176.3045	0.104	352609	keystroke_v	v	n/a
176.4485	0.0965	352897	keystroke_a	a	n/a
176.5685	0.0725	353137	keystroke_l	l	n/a
176.721	0.0715	353442	keystroke_l	l	n/a
176.8325	0.096	353665	keystroke_e	e	n/a
177.0245	0.064	354049	keystroke_t	t	n/a
177.1845	0.096	354369	keystroke_Key.space	Key.space	n/a
177.4245	0.096	354849	keystroke_p	p	n/a
177.5605	0.112	355121	keystroke_a	a	n/a
178.1765	0.088	356353	keystroke_Key.backspace	Key.backspace	n/a
178.3445	0.08	356689	keystroke_Key.backspace	Key.backspace	n/a
178.5125	0.08	357025	keystroke_Key.backspace	Key.backspace	n/a
178.6805	0.072	357361	keystroke_Key.backspace	Key.backspace	n/a
179.2885	0.072	358577	keystroke_y	y	n/a
179.3925	0.096	358785	keystroke_Key.space	Key.space	n/a
179.7365	0.112	359473	keystroke_p	p	n/a
179.9525	0.104	359905	keystroke_a	a	n/a
180.1365	0.072	360273	keystroke_c	c	n/a
180.2485	0.072	360497	keystroke_k	k	n/a
180.5045	0.112	361009	keystroke_a	a	n/a
180.7285	0.08	361457	keystroke_g	g	n/a
180.8565	0.08	361713	keystroke_e	e	n/a
181.6565	0.112	363313	keystroke_s	s	n/a
182.3365	0.088	364673	keystroke_Key.space	Key.space	n/a
182.5285	0.104	365057	keystroke_i	i	n/a
182.7525	0.096	365505	keystroke_m	m	n/a
182.9525	0.088	365905	keystroke_p	p	n/a
183.1685	0.072	366337	keystroke_o	o	n/a
183.3445	0.088	366689	keystroke_r	r	n/a
183.5285	0.072	367057	keystroke_t	t	n/a
183.6645	0.08	367329	keystroke_a	a	n/a
183.7525	0.072	367505	keystroke_n	n	n/a
183.8885	0.08	367777	keystroke_c	c	n/a
184.0165	0.0885	368033	keystroke_e	e	n/a
184.1925	0.096	368385	keystroke_Key.space	Key.space	n/a
184.3765	0.08	368753	keystroke_e	e	n/a
184.4885	0.088	368977	keystroke_n	n	n/a
184.8725	0.104	369745	keystroke_h	h	n/a
185.1365	0.112	370273	keystroke_a	a	n/a
185.3045	0.088	370609	keystroke_n	n	n/a
185.5285	0.08	371057	keystroke_c	c	n/a
185.6645	0.072	371329	keystroke_h	h	n/a
185.9685	0.08	371937	keystroke_e	e	n/a
186.4245	0.088	372849	keystroke_Key.backspace	Key.backspace	n/a
186.6005	0.088	373201	keystroke_Key.backspace	Key.backspace	n/a
187.3045	0.072	374609	keystroke_e	e	n/a
187.4725	0.096	374945	keystroke_m	m	n/a
187.6885	0.104	375377	keystroke_e	e	n/a
187.8005	0.064	375601	keystroke_n	n	n/a
187.9605	0.072	375921	keystroke_t	t	n/a
188.2325	0.072	376465	keystroke_s	s	n/a
188.6645	0.072	377329	keystroke_Key.enter	Key.enter	n/a
188.7445	9.434	377489	prompt	n/a	polymer remains copying donate\n
189.9685	0.104	379937	keystroke_p	p	n/a
190.1845	0.088	380369	keystroke_o	o	n/a
190.4405	0.104	380881	keystroke_l	l	n/a
190.9605	0.128	381921	keystroke_y	y	n/a
191.4405	0.104	382881	keystroke_m	m	n/a
191.6725	0.136	383345	keystroke_e	e	n/a
192.0165	0.104	384033	keystroke_r	r	n/a
192.3125	0.104	384625	keystroke_Key.space	Key.space	n/a
192.9845	0.08	385969	keystroke_r	r	n/a
193.1205	0.08	386241	keystroke_e	e	n/a
193.2485	0.088	386497	keystroke_m	m	n/a
193.3525	0.072	386705	keystroke_a	a	n/a
193.4805	0.088	386961	keystroke_i	i	n/a
193.7525	0.12	387505	keystroke_n	n	n/a
194.1285	0.096	388257	keystroke_Key.space	Key.space	n/a
194.3445	0.096	388689	keystroke_c	c	n/a
194.4485	0.12	388897	keystroke_o	o	n/a
195.0245	0.12	390049	keystroke_p	p	n/a
195.4325	0.136	390865	keystroke_y	y	n/a
195.8165	0.096	391633	keystroke_i	i	n/a
195.9685	0.096	391937	keystroke_n	n	n/a
196.1045	0.08	392209	keystroke_g	g	n/a
196.5525	0.096	393105	keystroke_Key.space	Key.space	n/a
196.8165	0.088	393633	keystroke_d	d	n/a
196.9445	0.072	393889	keystroke_o	o	n/a
197.0965	0.072	394193	keystroke_n	n	n/a
197.1925	0.104	394385	keystroke_a	a	n/a
197.3685	0.088	394737	keystroke_t	t	n/a
197.4725	0.08	394945	keystroke_e	e	n/a
198.0965	0.08	396193	keystroke_Key.enter	Key.enter	n/a
198.1825	7.044	396365	prompt	n/a	group rolls pros essay\n
199.3365	0.104	398673	keystroke_g	g	n/a
199.5685	0.064	399137	keystroke_r	r	n/a
199.6485	0.072	399297	keystroke_o	o	n/a
199.8085	0.08	399617	keystroke_u	u	n/a
200.0485	0.12	400097	keystroke_p	p	n/a
200.7925	0.096	401585	keystroke_Key.space	Key.space	n/a
201.1445	0.088	402289	keystroke_r	r	n/a
201.3365	0.096	402673	keystroke_o	o	n/a
201.5685	0.08	403137	keystroke_l	l	n/a
201.7445	0.088	403489	keystroke_l	l	n/a
201.9125	0.08	403825	keystroke_s	s	n/a
202.0725	0.08	404145	keystroke_Key.space	Key.space	n/a
202.2565	0.104	404513	keystroke_p	p	n/a
202.4885	0.088	404977	keystroke_r	r	n/a
202.6645	0.072	405329	keystroke_o	o	n/a
202.9605	0.088	405921	keystroke_s	s	n/a
203.4165	0.088	406833	keystroke_Key.space	Key.space	n/a
203.6005	0.096	407201	keystroke_e	e	n/a
203.7765	0.08	407553	keystroke_s	s	n/a
203.9365	0.072	407873	keystroke_s	s	n/a
204.0805	0.096	408161	keystroke_a	a	n/a
204.3365	0.096	408673	keystroke_y	y	n/a
205.1445	0.08	410289	keystroke_Key.enter	Key.enter	n/a
205.2325	13.2975	410465	prompt	n/a	composition breeds attribute gateway\n
206.0325	0.104	412065	keystroke_c	c	n/a
206.1445	0.08	412289	keystroke_o	o	n/a
206.3045	0.064	412609	keystroke_m	m	n/a
206.4645	0.104	412929	keystroke_p	p	n/a
206.6725	0.072	413345	keystroke_p	p	n/a
206.8245	0.088	413649	keystroke_s	s	n/a
207.4245	0.096	414849	keystroke_Key.backspace	Key.backspace	n/a
207.6005	0.104	415201	keystroke_Key.backspace	Key.backspace	n/a
208.432	0.08	416864	keystroke_o	o	n/a
208.601	0.095	417202	keystroke_s	s	n/a
209.136	0.08	418272	keystroke_i	i	n/a
209.44	0.08	418880	keystroke_t	t	n/a
210.464	0.112	420928	keystroke_i	i	n/a
210.768	0.12	421536	keystroke_o	o	n/a
211.064	0.096	422128	keystroke_n	n	n/a
211.264	0.096	422528	keystroke_Key.space	Key.space	n/a
211.504	0.088	423008	keystroke_b	b	n/a
211.76	0.08	423520	keystroke_r	r	n/a
211.968	0.088	423936	keystroke_e	e	n/a
212.144	0.08	424288	keystroke_e	e	n/a
212.32	0.088	424640	keystroke_d	d	n/a
212.512	0.088	425024	keystroke_s	s	n/a
212.72	0.088	425440	keystroke_Key.space	Key.space	n/a
213.104	0.096	426208	keystroke_a	a	n/a
213.368	0.104	426736	keystroke_t	t	n/a
213.568	0.072	427136	keystroke_t	t	n/a
213.704	0.096	427408	keystroke_r	r	n/a
213.872	0.104	427744	keystroke_i	i	n/a
214.2245	0.088	428449	keystroke_b	b	n/a
214.3605	0.096	428721	keystroke_u	u	n/a
214.6085	0.08	429217	keystroke_t	t	n/a
214.8405	0.088	429681	keystroke_e	e	n/a
215.1365	0.088	430273	keystroke_Key.space	Key.space	n/a
216.4645	0.072	432929	keystroke_g	g	n/a
216.6325	0.0885	433265	keystroke_a	a	n/a
216.8005	0.072	433601	keystroke_t	t	n/a
216.9045	0.088	433809	keystroke_e	e	n/a
217.1205	0.096	434241	keystroke_w	w	n/a
217.3125	0.088	434625	keystroke_a	a	n/a
217.5125	0.064	435025	keystroke_y	y	n/a
218.4485	0.08	436897	keystroke_Key.enter	Key.enter	n/a
218.536	8.817	437072	prompt	n/a	sharp representing blast mint\n
219.4965	0.096	438993	keystroke_s	s	n/a
219.6245	0.072	439249	keystroke_h	h	n/a
219.7125	0.088	439425	keystroke_a	a	n/a
219.8965	0.072	439793	keystroke_r	r	n/a
220.0565	0.104	440113	keystroke_p	p	n/a
220.5845	0.104	441169	keystroke_Key.space	Key.space	n/a
220.8245	0.104	441649	keystroke_r	r	n/a
220.9845	0.088	441969	keystroke_e	e	n/a
221.2245	0.088	442449	keystroke_p	p	n/a
221.3925	0.104	442785	keystroke_r	r	n/a
221.5285	0.088	443057	keystroke_e	e	n/a
221.7125	0.096	443425	keystroke_s	s	n/a
222.3525	0.1115	444705	keystroke_n	n	n/a
222.96	0.112	445920	keystroke_Key.backspace	Key.backspace	n/a
223.72	0.096	447440	keystroke_e	e	n/a
223.856	0.104	447712	keystroke_n	n	n/a
224.0485	0.08	448097	keystroke_t	t	n/a
224.1845	0.12	448369	keystroke_i	i	n/a
224.2725	0.088	448545	keystroke_n	n	n/a
224.3925	0.072	448785	keystroke_g	g	n/a
225.096	0.088	450192	keystroke_Key.space	Key.space	n/a
225.416	0.08	450832	keystroke_b	b	n/a
225.504	0.096	451008	keystroke_l	l	n/a
225.648	0.08	451296	keystroke_a	a	n/a
225.824	0.088	451648	keystroke_s	s	n/a
226.16	0.088	452320	keystroke_t	t	n/a
226.455	0.089	452910	keystroke_Key.space	Key.space	n/a
226.64	0.08	453280	keystroke_m	m	n/a
226.784	0.112	453568	keystroke_i	i	n/a
226.872	0.08	453744	keystroke_n	n	n/a
227.056	0.08	454112	keystroke_t	t	n/a
227.28	0.072	454560	keystroke_Key.enter	Key.enter	n/a
227.36	12.4095	454720	prompt	n/a	tokyo names realistic gage\n
228.08	0.088	456160	keystroke_t	t	n/a
228.232	0.08	456464	keystroke_o	o	n/a
228.496	0.096	456992	keystroke_k	k	n/a
228.776	0.072	457552	keystroke_y	y	n/a
228.928	0.088	457856	keystroke_o	o	n/a
229.223	0.089	458446	keystroke_Key.space	Key.space	n/a
229.544	0.104	459088	keystroke_n	n	n/a
229.68	0.104	459360	keystroke_a	a	n/a
229.792	0.064	459584	keystroke_m	m	n/a
229.88	0.088	459760	keystroke_e	e	n/a
230.096	0.08	460192	keystroke_s	s	n/a
230.768	0.088	461536	keystroke_Key.space	Key.space	n/a
230.976	0.104	461952	keystroke_r	r	n/a
231.136	0.088	462272	keystroke_e	e	n/a
231.312	0.072	462624	keystroke_a	a	n/a
231.44	0.104	462880	keystroke_l	l	n/a
231.672	0.096	463344	keystroke_i	i	n/a
231.792	0.104	463584	keystroke_s	s	n/a
231.943	0.081	463886	keystroke_i	i	n/a
232.064	0.072	464128	keystroke_t	t	n/a
232.56	0.104	465120	keystroke_c	c	n/a
232.823	0.089	465646	keystroke_Key.space	Key.space	n/a
233.544	0.08	467088	keystroke_g	g	n/a
233.68	0.072	467360	keystroke_a	a	n/a
233.792	0.072	467584	keystroke_g	g	n/a
233.896	0.08	467792	keystroke_e	e	n/a
235.28	0.112	470560	keystroke_Key.backspace	Key.backspace	n/a
235.528	0.072	471056	keystroke_Key.backspace	Key.backspace	n/a
235.688	0.072	471376	keystroke_Key.backspace	Key.backspace	n/a
235.847	0.081	471694	keystroke_Key.backspace	Key.backspace	n/a
236.016	0.08	472032	keystroke_Key.backspace	Key.backspace	n/a
236.184	0.08	472368	keystroke_Key.backspace	Key.backspace	n/a
236.392	0.096	472784	keystroke_Key.backspace	Key.backspace	n/a
236.928	0.103	473856	keystroke_Key.backspace	Key.backspace	n/a
237.304	0.096	474608	keystroke_t	t	n/a
237.416	0.12	474832	keystroke_i	i	n/a
237.688	0.096	475376	keystroke_c	c	n/a
238.032	0.088	476064	keystroke_Key.space	Key.space	n/a
238.232	0.104	476464	keystroke_g	g	n/a
238.416	0.072	476832	keystroke_a	a	n/a
238.544	0.08	477088	keystroke_g	g	n/a
238.648	0.08	477296	keystroke_e	e	n/a
239.592	0.176	479184	keystroke_Key.enter	Key.enter	n/a
239.775	8.3625	479550	prompt	n/a	spine learners email geometry\n
240.728	0.088	481456	keystroke_s	s	n/a
240.8	0.112	481600	keystroke_p	p	n/a
241.04	0.112	482080	keystroke_i	i	n/a
241.176	0.072	482352	keystroke_n	n	n/a
241.304	0.072	482608	keystroke_e	e	n/a
241.4	0.088	482800	keystroke_Key.space	Key.space	n/a
241.567	0.081	483134	keystroke_l	l	n/a
241.68	0.112	483360	keystroke_e	e	n/a
242.064	0.096	484128	keystroke_a	a	n/a
242.272	0.08	484544	keystroke_r	r	n/a
242.432	0.08	484864	keystroke_n	n	n/a
242.568	0.088	485136	keystroke_e	e	n/a
242.728	0.072	485456	keystroke_r	r	n/a
242.887	0.105	485774	keystroke_s	s	n/a
243.008	0.096	486016	keystroke_Key.space	Key.space	n/a
243.184	0.088	486368	keystroke_e	e	n/a
243.296	0.079	486592	keystroke_m	m	n/a
243.408	0.072	486816	keystroke_a	a	n/a
243.52	0.088	487040	keystroke_i	i	n/a
243.736	0.096	487472	keystroke_l	l	n/a
243.927	0.088	487854	keystroke_Key.space	Key.space	n/a
244.728	0.064	489456	keystroke_g	g	n/a
244.872	0.072	489744	keystroke_e	e	n/a
245.064	0.104	490128	keystroke_o	o	n/a
245.36	0.088	490720	keystroke_m	m	n/a
245.512	0.112	491024	keystroke_e	e	n/a
245.8	0.128	491600	keystroke_t	t	n/a
246.183	0.121	492366	keystroke_y	y	n/a
246.84	0.096	493680	keystroke_Key.backspace	Key.backspace	n/a
247.104	0.144	494208	keystroke_r	r	n/a
247.432	0.104	494864	keystroke_y	y	n/a
248.056	0.08	496112	keystroke_Key.enter	Key.enter	n/a
248.143	12.8425	496286	prompt	n/a	flexible assisted repeated rear\n
249.304	0.08	498608	keystroke_f	f	n/a
249.416	0.08	498832	keystroke_l	l	n/a
249.48	0.088	498960	keystroke_e	e	n/a
249.752	0.104	499504	keystroke_x	x	n/a
249.88	0.088	499760	keystroke_i	i	n/a
250.112	0.08	500224	keystroke_b	b	n/a
250.312	0.096	500624	keystroke_l	l	n/a
250.512	0.088	501024	keystroke_e	e	n/a
250.711	0.08	501422	keystroke_Key.space	Key.space	n/a
250.896	0.088	501792	keystroke_a	a	n/a
251.056	0.08	502112	keystroke_s	s	n/a
251.216	0.079	502432	keystroke_s	s	n/a
251.328	0.08	502656	keystroke_i	i	n/a
251.504	0.088	503008	keystroke_t	t	n/a
251.664	0.08	503328	keystroke_e	e	n/a
251.847	0.081	503694	keystroke_d	d	n/a
252.08	0.088	504160	keystroke_Key.space	Key.space	n/a
252.288	0.088	504576	keystroke_r	r	n/a
252.44	0.072	504880	keystroke_e	e	n/a
252.568	0.096	505136	keystroke_p	p	n/a
252.984	0.079	505968	keystroke_Key.backspace	Key.backspace	n/a
253.151	0.081	506302	keystroke_Key.backspace	Key.backspace	n/a
253.848	0.096	507696	keystroke_Key.backspace	Key.backspace	n/a
254.056	0.079	508112	keystroke_Key.backspace	Key.backspace	n/a
254.223	0.081	508446	keystroke_Key.backspace	Key.backspace	n/a
254.4	0.088	508800	keystroke_Key.backspace	Key.backspace	n/a
254.623	0.081	509246	keystroke_Key.backspace	Key.backspace	n/a
255.552	0.104	511104	keystroke_s	s	n/a
255.816	0.08	511632	keystroke_t	t	n/a
256	0.088	512000	keystroke_e	e	n/a
256.544	0.12	513088	keystroke_d	d	n/a
256.855	0.097	513710	keystroke_Key.space	Key.space	n/a
257.104	0.112	514208	keystroke_r	r	n/a
257.36	0.088	514720	keystroke_e	e	n/a
257.6	0.079	515200	keystroke_p	p	n/a
257.767	0.088	515534	keystroke_e	e	n/a
257.952	0.088	515904	keystroke_a	a	n/a
258.224	0.056	516448	keystroke_t	t	n/a
258.664	0.112	517328	keystroke_e	e	n/a
259	0.088	518000	keystroke_d	d	n/a
259.255	0.104	518510	keystroke_Key.space	Key.space	n/a
259.44	0.112	518880	keystroke_r	r	n/a
259.784	0.104	519568	keystroke_e	e	n/a
259.992	0.087	519984	keystroke_a	a	n/a
260.16	0.088	520320	keystroke_r	r	n/a
260.912	0.071	521824	keystroke_Key.enter	Key.enter	n/a
260.993	11.36	521986	prompt	n/a	darwin minister competent rather\n
262.088	0.088	524176	keystroke_d	d	n/a
262.224	0.112	524448	keystroke_a	a	n/a
262.448	0.08	524896	keystroke_r	r	n/a
262.792	0.072	525584	keystroke_w	w	n/a
263.016	0.096	526032	keystroke_i	i	n/a
263.264	0.095	526528	keystroke_n	n	n/a
263.463	0.08	526926	keystroke_Key.space	Key.space	n/a
263.64	0.071	527280	keystroke_m	m	n/a
263.7825	0.1375	527565	keystroke_i	i	n/a
263.952	0.072	527904	keystroke_n	n	n/a
264.0715	0.088	528143	keystroke_i	i	n/a
264.264	0.112	528528	keystroke_s	s	n/a
264.52	0.088	529040	keystroke_t	t	n/a
264.6635	0.088	529327	keystroke_e	e	n/a
264.84	0.0795	529680	keystroke_r	r	n/a
264.9905	0.104	529981	keystroke_Key.space	Key.space	n/a
265.2955	0.096	530591	keystroke_c	c	n/a
265.4155	0.088	530831	keystroke_o	o	n/a
266.1265	0.129	532253	keystroke_m	m	n/a
266.4465	0.121	532893	keystroke_p	p	n/a
266.8795	0.136	533759	keystroke_e	e	n/a
267.5595	0.128	535119	keystroke_t	t	n/a
267.8875	0.12	535775	keystroke_e	e	n/a
268.0155	0.08	536031	keystroke_n	n	n/a
268.1825	0.049	536365	keystroke_t	t	n/a
269.6715	0.103	539343	keystroke_Key.space	Key.space	n/a
269.9435	0.112	539887	keystroke_r	r	n/a
270.1515	0.088	540303	keystroke_a	a	n/a
270.3435	0.08	540687	keystroke_t	t	n/a
270.4625	0.081	540925	keystroke_h	h	n/a
270.5995	0.112	541199	keystroke_e	e	n/a
270.7915	0.072	541583	keystroke_r	r	n/a
272.2715	0.079	544543	keystroke_Key.enter	Key.enter	n/a
272.358	8.795	544716	prompt	n/a	suicide emails decided presentations\n
273.152	0.079	546304	keystroke_s	s	n/a
273.368	0.104	546736	keystroke_u	u	n/a
273.928	0.079	547856	keystroke_i	i	n/a
274.215	0.097	548430	keystroke_c	c	n/a
274.312	0.063	548624	keystroke_i	i	n/a
274.576	0.104	549152	keystroke_d	d	n/a
274.768	0.079	549536	keystroke_e	e	n/a
274.895	0.104	549790	keystroke_Key.space	Key.space	n/a
275.36	0.096	550720	keystroke_e	e	n/a
275.535	0.089	551070	keystroke_m	m	n/a
275.664	0.079	551328	keystroke_a	a	n/a
276.111	0.096	552222	keystroke_i	i	n/a
276.368	0.079	552736	keystroke_l	l	n/a
276.624	0.087	553248	keystroke_s	s	n/a
276.823	0.088	553646	keystroke_Key.space	Key.space	n/a
277.087	0.096	554174	keystroke_d	d	n/a
277.264	0.087	554528	keystroke_e	e	n/a
277.495	0.073	554990	keystroke_c	c	n/a
277.607	0.081	555214	keystroke_i	i	n/a
277.736	0.095	555472	keystroke_d	d	n/a
277.935	0.08	555870	keystroke_e	e	n/a
278.127	0.088	556254	keystroke_d	d	n/a
278.535	0.096	557070	keystroke_Key.space	Key.space	n/a
278.752	0.087	557504	keystroke_p	p	n/a
278.928	0.119	557856	keystroke_r	r	n/a
279.112	0.079	558224	keystroke_e	e	n/a
279.304	0.079	558608	keystroke_s	s	n/a
279.479	0.08	558958	keystroke_e	e	n/a
279.575	0.064	559150	keystroke_n	n	n/a
279.743	0.072	559486	keystroke_t	t	n/a
279.927	0.072	559854	keystroke_a	a	n/a
280.079	0.064	560158	keystroke_t	t	n/a
280.176	0.088	560352	keystroke_i	i	n/a
280.36	0.1035	560720	keystroke_o	o	n/a
280.479	0.089	560958	keystroke_n	n	n/a
280.8225	0.08	561645	keystroke_s	s	n/a
281.0625	0.088	562125	keystroke_Key.enter	Key.enter	n/a
281.157	7.1405	562314	prompt	n/a	cache advertiser gore pays\n
281.927	0.112	563854	keystroke_c	c	n/a
282.095	0.104	564190	keystroke_a	a	n/a
282.447	0.113	564894	keystroke_c	c	n/a
282.567	0.12	565134	keystroke_h	h	n/a
282.856	0.095	565712	keystroke_e	e	n/a
283.255	0.104	566510	keystroke_Key.space	Key.space	n/a
283.447	0.096	566894	keystroke_a	a	n/a
283.608	0.103	567216	keystroke_d	d	n/a
283.959	0.096	567918	keystroke_v	v	n/a
284.144	0.103	568288	keystroke_e	e	n/a
284.464	0.112	568928	keystroke_r	r	n/a
284.783	0.08	569566	keystroke_t	t	n/a
284.952	0.087	569904	keystroke_i	i	n/a
285.248	0.111	570496	keystroke_s	s	n/a
285.504	0.12	571008	keystroke_e	e	n/a
285.768	0.088	571536	keystroke_r	r	n/a
286.023	0.096	572046	keystroke_Key.space	Key.space	n/a
286.279	0.104	572558	keystroke_g	g	n/a
286.432	0.079	572864	keystroke_o	o	n/a
286.575	0.096	573150	keystroke_r	r	n/a
286.952	0.087	573904	keystroke_e	e	n/a
287.255	0.088	574510	keystroke_Key.space	Key.space	n/a
287.431	0.096	574862	keystroke_p	p	n/a
287.591	0.088	575182	keystroke_a	a	n/a
287.824	0.055	575648	keystroke_y	y	n/a
288.008	0.087	576016	keystroke_s	s	n/a
288.223	0.072	576446	keystroke_Key.enter	Key.enter	n/a
288.3075	13.3735	576615	prompt	n/a	skirt ordinance officially accommodation\n
288.944	0.1185	577888	keystroke_s	s	n/a
289.135	0.128	578270	keystroke_k	k	n/a
289.343	0.088	578686	keystroke_i	i	n/a
289.471	0.104	578942	keystroke_r	r	n/a
289.768	0.079	579536	keystroke_t	t	n/a
290.127	0.072	580254	keystroke_Key.space	Key.space	n/a
290.335	0.096	580670	keystroke_o	o	n/a
290.495	0.088	580990	keystroke_r	r	n/a
290.775	0.112	581550	keystroke_d	d	n/a
291.263	0.1115	582526	keystroke_i	i	n/a
291.503	0.104	583006	keystroke_n	n	n/a
291.784	0.096	583568	keystroke_a	a	n/a
291.8715	0.0715	583743	keystroke_n	n	n/a
292.015	0.096	584030	keystroke_c	c	n/a
292.231	0.12	584462	keystroke_e	e	n/a
292.855	0.08	585710	keystroke_Key.space	Key.space	n/a
292.999	0.113	585998	keystroke_o	o	n/a
293.215	0.088	586430	keystroke_f	f	n/a
293.399	0.08	586798	keystroke_f	f	n/a
293.511	0.096	587022	keystroke_i	i	n/a
293.687	0.104	587374	keystroke_c	c	n/a
293.799	0.096	587598	keystroke_i	i	n/a
293.935	0.096	587870	keystroke_a	a	n/a
294.0865	0.0805	588173	keystroke_l	l	n/a
294.255	0.088	588510	keystroke_l	l	n/a
294.399	0.08	588798	keystroke_y	y	n/a
294.559	0.0875	589118	keystroke_Key.space	Key.space	n/a
294.783	0.088	589566	keystroke_a	a	n/a
294.975	0.072	589950	keystroke_c	c	n/a
295.136	0.0785	590272	keystroke_c	c	n/a
295.2465	0.08	590493	keystroke_o	o	n/a
295.416	0.0785	590832	keystroke_m	m	n/a
300.0785	0.136	600157	keystroke_m	m	n/a
300.3825	0.096	600765	keystroke_o	o	n/a
300.6225	0.104	601245	keystroke_d	d	n/a
300.7665	0.096	601533	keystroke_a	a	n/a
300.9825	0.072	601965	keystroke_t	t	n/a
301.0555	0.079	602111	keystroke_i	i	n/a
301.2145	0.096	602429	keystroke_o	o	n/a
301.3185	0.064	602637	keystroke_n	n	n/a
301.6065	0.072	603213	keystroke_Key.enter	Key.enter	n/a
301.686	12.0185	603372	prompt	n/a	regulated abstract clerk effective\n
302.4475	0.103	604895	keystroke_r	r	n/a
302.6785	0.088	605357	keystroke_e	e	n/a
303.8705	0.08	607741	keystroke_g	g	n/a
303.9985	0.096	607997	keystroke_u	u	n/a
304.2625	0.088	608525	keystroke_l	l	n/a
304.4305	0.128	608861	keystroke_a	a	n/a
304.9185	0.088	609837	keystroke_t	t	n/a
305.0945	0.08	610189	keystroke_e	e	n/a
305.3025	0.088	610605	keystroke_d	d	n/a
305.4705	0.104	610941	keystroke_Key.space	Key.space	n/a
305.7185	0.08	611437	keystroke_a	a	n/a
305.9825	0.112	611965	keystroke_b	b	n/a
306.3505	0.096	612701	keystroke_s	s	n/a
306.7265	0.136	613453	keystroke_t	t	n/a
307.0305	0.096	614061	keystroke_r	r	n/a
307.2465	0.104	614493	keystroke_a	a	n/a
307.4785	0.1285	614957	keystroke_c	c	n/a
307.863	0.088	615726	keystroke_t	t	n/a
308.063	0.112	616126	keystroke_Key.space	Key.space	n/a
308.319	0.128	616638	keystroke_c	c	n/a
308.415	0.096	616830	keystroke_l	l	n/a
308.807	0.088	617614	keystroke_e	e	n/a
309.2155	0.0875	618431	keystroke_r	r	n/a
309.455	0.136	618910	keystroke_k	k	n/a
309.847	0.112	619694	keystroke_Key.space	Key.space	n/a
310.167	0.088	620334	keystroke_e	e	n/a
310.383	0.072	620766	keystroke_f	f	n/a
310.543	0.064	621086	keystroke_f	f	n/a
310.663	0.08	621326	keystroke_e	e	n/a
310.839	0.104	621678	keystroke_c	c	n/a
311.751	0.072	623502	keystroke_t	t	n/a
311.879	0.088	623758	keystroke_i	i	n/a
312.063	0.104	624126	keystroke_v	v	n/a
312.815	0.088	625630	keystroke_e	e	n/a
313.615	0.088	627230	keystroke_Key.enter	Key.enter	n/a
313.7095	15.4425	627419	prompt	n/a	discussions istanbul examinations progress\n
314.607	0.096	629214	keystroke_d	d	n/a
314.711	0.08	629422	keystroke_i	i	n/a
314.855	0.08	629710	keystroke_s	s	n/a
315.111	0.096	630222	keystroke_c	c	n/a
315.239	0.08	630478	keystroke_u	u	n/a
315.423	0.072	630846	keystroke_s	s	n/a
315.567	0.088	631134	keystroke_s	s	n/a
315.719	0.104	631438	keystroke_i	i	n/a
315.943	0.088	631886	keystroke_o	o	n/a
316.103	0.08	632206	keystroke_n	n	n/a
316.2625	0.096	632525	keystroke_s	s	n/a
316.3985	0.088	632797	keystroke_Key.space	Key.space	n/a
316.6705	0.088	633341	keystroke_i	i	n/a
316.8075	0.095	633615	keystroke_s	s	n/a
317.0545	0.08	634109	keystroke_t	t	n/a
317.2065	0.096	634413	keystroke_a	a	n/a
317.3425	0.088	634685	keystroke_n	n	n/a
317.8385	0.08	635677	keystroke_v	v	n/a
317.9905	0.12	635981	keystroke_u	u	n/a
318.3585	0.072	636717	keystroke_Key.backspace	Key.backspace	n/a
318.4945	0.08	636989	keystroke_Key.backspace	Key.backspace	n/a
318.6065	0.08	637213	keystroke_b	b	n/a
318.7665	0.096	637533	keystroke_u	u	n/a
319.0865	0.096	638173	keystroke_l	l	n/a
319.4625	0.088	638925	keystroke_Key.space	Key.space	n/a
320.791	0.112	641582	keystroke_e	e	n/a
321.151	0.104	642302	keystroke_s	s	n/a
321.495	0.088	642990	keystroke_Key.backspace	Key.backspace	n/a
321.631	0.104	643262	keystroke_z	z	n/a
322.247	0.104	644494	keystroke_Key.backspace	Key.backspace	n/a
322.695	0.08	645390	keystroke_x	x	n/a
322.879	0.08	645758	keystroke_a	a	n/a
323.039	0.088	646078	keystroke_m	m	n/a
323.223	0.08	646446	keystroke_i	i	n/a
323.351	0.08	646702	keystroke_n	n	n/a
323.471	0.064	646942	keystroke_i	i	n/a
323.799	0.064	647598	keystroke_Key.backspace	Key.backspace	n/a
323.967	0.112	647934	keystroke_a	a	n/a
324.319	0.08	648638	keystroke_t	t	n/a
324.431	0.088	648862	keystroke_i	i	n/a
324.615	0.088	649230	keystroke_o	o	n/a
324.775	0.088	649550	keystroke_n	n	n/a
325.319	0.096	650638	keystroke_s	s	n/a
325.655	0.079	651310	keystroke_Key.space	Key.space	n/a
325.815	0.096	651630	keystroke_p	p	n/a
325.975	0.112	651950	keystroke_r	r	n/a
326.551	0.088	653102	keystroke_o	o	n/a
326.935	0.072	653870	keystroke_f	f	n/a
327.391	0.08	654782	keystroke_Key.backspace	Key.backspace	n/a
327.839	0.088	655678	keystroke_g	g	n/a
328.047	0.08	656094	keystroke_r	r	n/a
328.191	0.096	656382	keystroke_e	e	n/a
328.423	0.08	656846	keystroke_s	s	n/a
328.599	0.096	657198	keystroke_s	s	n/a
329.063	0.087	658126	keystroke_Key.enter	Key.enter	n/a
329.1575	12.1625	658315	prompt	n/a	celebration spreading effect secretariat\n
329.823	0.104	659646	keystroke_e	e	n/a
330.351	0.08	660702	keystroke_Key.backspace	Key.backspace	n/a
330.711	0.08	661422	keystroke_c	c	n/a
330.855	0.072	661710	keystroke_e	e	n/a
330.959	0.08	661918	keystroke_l	l	n/a
331.087	0.096	662174	keystroke_e	e	n/a
331.303	0.088	662606	keystroke_b	b	n/a
331.535	0.08	663070	keystroke_r	r	n/a
331.703	0.072	663406	keystroke_a	a	n/a
331.847	0.064	663694	keystroke_t	t	n/a
331.943	0.096	663886	keystroke_i	i	n/a
332.151	0.088	664302	keystroke_o	o	n/a
332.367	0.08	664734	keystroke_n	n	n/a
333.046	0.104	666092	keystroke_Key.space	Key.space	n/a
333.279	0.1115	666558	keystroke_s	s	n/a
333.3665	0.08	666733	keystroke_p	p	n/a
333.5185	0.096	667037	keystroke_r	r	n/a
333.6385	0.104	667277	keystroke_e	e	n/a
334.0305	0.104	668061	keystroke_a	a	n/a
334.2865	0.112	668573	keystroke_d	d	n/a
334.5905	0.096	669181	keystroke_i	i	n/a
334.7025	0.112	669405	keystroke_n	n	n/a
334.8705	0.088	669741	keystroke_g	g	n/a
335.0305	0.088	670061	keystroke_Key.space	Key.space	n/a
335.2145	0.096	670429	keystroke_e	e	n/a
335.4145	0.088	670829	keystroke_f	f	n/a
335.5745	0.08	671149	keystroke_f	f	n/a
335.7185	0.088	671437	keystroke_e	e	n/a
335.8945	0.112	671789	keystroke_c	c	n/a
336.1425	0.072	672285	keystroke_t	t	n/a
336.3025	0.104	672605	keystroke_Key.space	Key.space	n/a
336.7825	0.096	673565	keystroke_s	s	n/a
337.0305	0.096	674061	keystroke_e	e	n/a
337.3025	0.128	674605	keystroke_c	c	n/a
337.6545	0.112	675309	keystroke_r	r	n/a
337.9105	0.12	675821	keystroke_e	e	n/a
338.4225	0.136	676845	keystroke_t	t	n/a
339.1185	0.112	678237	keystroke_a	a	n/a
339.4625	0.104	678925	keystroke_r	r	n/a
339.6865	0.08	679373	keystroke_i	i	n/a
339.8865	0.104	679773	keystroke_a	a	n/a
340.1105	0.088	680221	keystroke_t	t	n/a
341.2305	0.088	682461	keystroke_Key.enter	Key.enter	n/a
341.3255	10.003	682651	prompt	n/a	bird transmit pets nevertheless\n
342.4635	0.087	684927	keystroke_b	b	n/a
342.6145	0.08	685229	keystroke_i	i	n/a
342.7665	0.072	685533	keystroke_r	r	n/a
343.9105	0.104	687821	keystroke_d	d	n/a
344.0625	0.088	688125	keystroke_Key.space	Key.space	n/a
344.43	0.08	688860	keystroke_t	t	n/a
344.582	0.096	689164	keystroke_r	r	n/a
344.8225	0.0875	689645	keystroke_a	a	n/a
345.038	0.072	690076	keystroke_n	n	n/a
346.3265	0.088	692653	keystroke_s	s	n/a
346.5025	0.08	693005	keystroke_m	m	n/a
346.6625	0.088	693325	keystroke_i	i	n/a
346.7985	0.072	693597	keystroke_t	t	n/a
346.9265	0.096	693853	keystroke_Key.space	Key.space	n/a
347.1185	0.08	694237	keystroke_p	p	n/a
347.2385	0.096	694477	keystroke_e	e	n/a
347.5025	0.08	695005	keystroke_t	t	n/a
348.3185	0.08	696637	keystroke_Key.space	Key.space	n/a
348.5105	0.072	697021	keystroke_n	n	n/a
348.6305	0.096	697261	keystroke_e	e	n/a
348.9025	0.104	697805	keystroke_v	v	n/a
349.0705	0.096	698141	keystroke_e	e	n/a
349.2785	0.104	698557	keystroke_r	r	n/a
349.8945	0.072	699789	keystroke_t	t	n/a
349.9825	0.088	699965	keystroke_h	h	n/a
350.1185	0.08	700237	keystroke_e	e	n/a
350.3425	0.08	700685	keystroke_l	l	n/a
350.4465	0.08	700893	keystroke_e	e	n/a
350.6305	0.072	701261	keystroke_s	s	n/a
350.7905	0.08	701581	keystroke_s	s	n/a
351.2465	0.08	702493	keystroke_Key.enter	Key.enter	n/a
351.3355	13.3685	702671	prompt	n/a	harper ensuring entities elephant\n
352.9105	0.064	705821	keystroke_h	h	n/a
353.0065	0.096	706013	keystroke_a	a	n/a
353.1905	0.08	706381	keystroke_r	r	n/a
353.3025	0.072	706605	keystroke_p	p	n/a
353.4465	0.088	706893	keystroke_e	e	n/a
353.6305	0.072	707261	keystroke_r	r	n/a
354.1505	0.088	708301	keystroke_Key.space	Key.space	n/a
354.3825	0.088	708765	keystroke_e	e	n/a
354.5345	0.08	709069	keystroke_n	n	n/a
354.7265	0.096	709453	keystroke_s	s	n/a
354.8785	0.08	709757	keystroke_u	u	n/a
355.1425	0.096	710285	keystroke_r	r	n/a
355.3265	0.096	710653	keystroke_i	i	n/a
355.5265	0.088	711053	keystroke_n	n	n/a
355.6785	0.088	711357	keystroke_g	g	n/a
356.0625	0.08	712125	keystroke_Key.space	Key.space	n/a
356.2065	0.096	712413	keystroke_e	e	n/a
356.3345	0.08	712669	keystroke_n	n	n/a
356.4705	0.08	712941	keystroke_t	t	n/a
356.5745	0.08	713149	keystroke_i	i	n/a
356.6785	0.096	713357	keystroke_r	r	n/a
357.134	0.0565	714268	keystroke_r	r	n/a
357.278	0.112	714556	keystroke_i	i	n/a
357.654	0.096	715308	keystroke_Key.backspace	Key.backspace	n/a
357.83	0.096	715660	keystroke_Key.backspace	Key.backspace	n/a
358.03	0.104	716060	keystroke_Key.backspace	Key.backspace	n/a
359.75	0.088	719500	keystroke_t	t	n/a
360.134	0.096	720268	keystroke_i	i	n/a
360.342	0.096	720684	keystroke_e	e	n/a
360.582	0.112	721164	keystroke_s	s	n/a
361.158	0.096	722316	keystroke_Key.space	Key.space	n/a
361.374	0.096	722748	keystroke_e	e	n/a
361.55	0.112	723100	keystroke_l	l	n/a
361.758	0.088	723516	keystroke_e	e	n/a
362.222	0.12	724444	keystroke_p	p	n/a
362.478	0.072	724956	keystroke_h	h	n/a
362.566	0.104	725132	keystroke_a	a	n/a
362.678	0.072	725356	keystroke_n	n	n/a
363.318	0.088	726636	keystroke_t	t	n/a
364.63	0.072	729260	keystroke_Key.enter	Key.enter	n/a
364.709	12.5385	729418	prompt	n/a	sheriff report wrapped badly\n
365.526	0.088	731052	keystroke_s	s	n/a
365.638	0.072	731276	keystroke_h	h	n/a
365.774	0.088	731548	keystroke_e	e	n/a
366.446	0.088	732892	keystroke_r	r	n/a
366.59	0.08	733180	keystroke_i	i	n/a
366.75	0.072	733500	keystroke_f	f	n/a
366.902	0.088	733804	keystroke_f	f	n/a
367.926	0.088	735852	keystroke_Key.space	Key.space	n/a
368.27	0.096	736540	keystroke_r	r	n/a
368.422	0.088	736844	keystroke_e	e	n/a
368.55	0.096	737100	keystroke_p	p	n/a
368.75	0.088	737500	keystroke_o	o	n/a
368.902	0.112	737804	keystroke_r	r	n/a
369.126	0.088	738252	keystroke_t	t	n/a
369.454	0.088	738908	keystroke_Key.space	Key.space	n/a
370.086	0.112	740172	keystroke_w	w	n/a
370.27	0.088	740540	keystroke_r	r	n/a
370.438	0.088	740876	keystroke_a	a	n/a
370.622	0.088	741244	keystroke_p	p	n/a
370.79	0.08	741580	keystroke_p	p	n/a
371.006	0.104	742012	keystroke_i	i	n/a
371.198	0.104	742396	keystroke_n	n	n/a
371.71	0.088	743420	keystroke_Key.backspace	Key.backspace	n/a
371.886	0.096	743772	keystroke_Key.backspace	Key.backspace	n/a
373.038	0.104	746076	keystroke_e	e	n/a
373.286	0.08	746572	keystroke_d	d	n/a
373.414	0.088	746828	keystroke_Key.space	Key.space	n/a
373.886	0.08	747772	keystroke_b	b	n/a
374.054	0.096	748108	keystroke_a	a	n/a
374.27	0.08	748540	keystroke_d	d	n/a
374.43	0.08	748860	keystroke_l	l	n/a
374.638	0.072	749276	keystroke_y	y	n/a
377.166	0.08	754332	keystroke_Key.enter	Key.enter	n/a
377.2525	13.059	754505	prompt	n/a	registered liquid enforcement wondering\n
378.222	0.08	756444	keystroke_r	r	n/a
378.35	0.088	756700	keystroke_e	e	n/a
378.598	0.064	757196	keystroke_g	g	n/a
378.702	0.08	757404	keystroke_i	i	n/a
379.35	0.128	758700	keystroke_s	s	n/a
379.598	0.088	759196	keystroke_t	t	n/a
379.758	0.088	759516	keystroke_e	e	n/a
380.95	0.104	761900	keystroke_r	r	n/a
381.566	0.128	763132	keystroke_e	e	n/a
381.806	0.096	763612	keystroke_d	d	n/a
382.478	0.104	764956	keystroke_Key.space	Key.space	n/a
382.742	0.104	765484	keystroke_l	l	n/a
383.054	0.104	766108	keystroke_i	i	n/a
383.318	0.096	766636	keystroke_q	q	n/a
383.478	0.088	766956	keystroke_u	u	n/a
383.702	0.08	767404	keystroke_i	i	n/a
383.878	0.12	767756	keystroke_d	d	n/a
385.038	0.152	770076	keystroke_Key.space	Key.space	n/a
385.542	0.104	771084	keystroke_e	e	n/a
385.694	0.088	771388	keystroke_n	n	n/a
385.966	0.088	771932	keystroke_f	f	n/a
386.046	0.08	772092	keystroke_o	o	n/a
386.19	0.072	772380	keystroke_r	r	n/a
386.734	0.088	773468	keystroke_c	c	n/a
386.926	0.064	773852	keystroke_e	e	n/a
387.038	0.088	774076	keystroke_m	m	n/a
387.15	0.08	774300	keystroke_e	e	n/a
387.238	0.072	774476	keystroke_n	n	n/a
387.366	0.072	774732	keystroke_t	t	n/a
387.638	0.096	775276	keystroke_Key.space	Key.space	n/a
388.11	0.096	776220	keystroke_e	e	n/a
388.646	0.088	777292	keystroke_Key.backspace	Key.backspace	n/a
388.774	0.072	777548	keystroke_w	w	n/a
388.902	0.096	777804	keystroke_o	o	n/a
389.086	0.08	778172	keystroke_n	n	n/a
389.238	0.088	778476	keystroke_d	d	n/a
389.406	0.088	778812	keystroke_e	e	n/a
389.566	0.072	779132	keystroke_r	r	n/a
389.654	0.096	779308	keystroke_i	i	n/a
389.742	0.08	779484	keystroke_n	n	n/a
389.846	0.064	779692	keystroke_g	g	n/a
390.238	0.072	780476	keystroke_Key.enter	Key.enter	n/a
390.3155	7.636	780631	prompt	n/a	claim nightmare congressional region\n
391.006	0.1035	782012	keystroke_c	c	n/a
391.1175	0.088	782235	keystroke_l	l	n/a
391.2065	0.0795	782413	keystroke_a	a	n/a
391.342	0.088	782684	keystroke_i	i	n/a
391.526	0.08	783052	keystroke_n	n	n/a
392.2295	0.0725	784459	keystroke_Key.backspace	Key.backspace	n/a
392.454	0.08	784908	keystroke_m	m	n/a
392.6775	0.0885	785355	keystroke_Key.space	Key.space	n/a
393.062	0.064	786124	keystroke_n	n	n/a
393.1975	0.0805	786395	keystroke_i	i	n/a
393.302	0.08	786604	keystroke_g	g	n/a
393.382	0.064	786764	keystroke_h	h	n/a
393.494	0.072	786988	keystroke_t	t	n/a
393.71	0.08	787420	keystroke_m	m	n/a
393.838	0.088	787676	keystroke_a	a	n/a
393.998	0.088	787996	keystroke_r	r	n/a
394.102	0.088	788204	keystroke_e	e	n/a
394.398	0.088	788796	keystroke_Key.space	Key.space	n/a
394.59	0.096	789180	keystroke_c	c	n/a
394.694	0.064	789388	keystroke_o	o	n/a
394.846	0.072	789692	keystroke_n	n	n/a
395.134	0.104	790268	keystroke_g	g	n/a
395.366	0.088	790732	keystroke_r	r	n/a
395.51	0.08	791020	keystroke_e	e	n/a
395.718	0.072	791436	keystroke_s	s	n/a
395.87	0.072	791740	keystroke_s	s	n/a
395.982	0.088	791964	keystroke_i	i	n/a
396.174	0.08	792348	keystroke_o	o	n/a
396.294	0.08	792588	keystroke_n	n	n/a
396.43	0.08	792860	keystroke_a	a	n/a
396.55	0.08	793100	keystroke_l	l	n/a
396.734	0.096	793468	keystroke_Key.space	Key.space	n/a
396.982	0.088	793964	keystroke_r	r	n/a
397.126	0.08	794252	keystroke_e	e	n/a
397.302	0.056	794604	keystroke_g	g	n/a
397.374	0.08	794748	keystroke_i	i	n/a
397.55	0.112	795100	keystroke_o	o	n/a
397.646	0.064	795292	keystroke_n	n	n/a
397.878	0.072	795756	keystroke_Key.enter	Key.enter	n/a
397.957	9.2745	795914	prompt	n/a	requesting adaptive measurements incentives\n
398.566	0.088	797132	keystroke_r	r	n/a
398.71	0.072	797420	keystroke_e	e	n/a
398.934	0.128	797868	keystroke_q	q	n/a
399.102	0.072	798204	keystroke_u	u	n/a
399.246	0.08	798492	keystroke_e	e	n/a
399.43	0.088	798860	keystroke_s	s	n/a
399.654	0.08	799308	keystroke_t	t	n/a
399.878	0.08	799756	keystroke_i	i	n/a
399.982	0.088	799964	keystroke_n	n	n/a
400.134	0.064	800268	keystroke_g	g	n/a
400.246	0.096	800492	keystroke_Key.space	Key.space	n/a
400.43	0.104	800860	keystroke_a	a	n/a
400.59	0.104	801180	keystroke_d	d	n/a
400.83	0.08	801660	keystroke_a	a	n/a
400.982	0.112	801964	keystroke_p	p	n/a
401.246	0.072	802492	keystroke_t	t	n/a
401.406	0.08	802812	keystroke_i	i	n/a
401.574	0.104	803148	keystroke_v	v	n/a
401.766	0.072	803532	keystroke_e	e	n/a
401.982	0.088	803964	keystroke_Key.space	Key.space	n/a
402.43	0.096	804860	keystroke_m	m	n/a
402.574	0.08	805148	keystroke_e	e	n/a
402.75	0.072	805500	keystroke_a	a	n/a
402.91	0.08	805820	keystroke_s	s	n/a
403.038	0.072	806076	keystroke_u	u	n/a
403.166	0.072	806332	keystroke_r	r	n/a
403.254	0.072	806508	keystroke_e	e	n/a
403.374	0.08	806748	keystroke_m	m	n/a
403.478	0.08	806956	keystroke_e	e	n/a
403.566	0.064	807132	keystroke_n	n	n/a
403.694	0.064	807388	keystroke_t	t	n/a
403.87	0.072	807740	keystroke_s	s	n/a
404.294	0.088	808588	keystroke_Key.space	Key.space	n/a
404.534	0.088	809068	keystroke_i	i	n/a
404.742	0.064	809484	keystroke_n	n	n/a
404.878	0.088	809756	keystroke_c	c	n/a
405.006	0.0875	810012	keystroke_e	e	n/a
405.078	0.0635	810156	keystroke_n	n	n/a
405.2775	0.072	810555	keystroke_t	t	n/a
405.398	0.08	810796	keystroke_i	i	n/a
405.6375	0.112	811275	keystroke_v	v	n/a
405.8775	0.072	811755	keystroke_e	e	n/a
406.8775	0.08	813755	keystroke_s	s	n/a
407.1655	0.064	814331	keystroke_Key.enter	Key.enter	n/a
407.2365	7.379	814473	prompt	n/a	becomes jumping suse grow\n
408.3175	0.088	816635	keystroke_b	b	n/a
408.4695	0.096	816939	keystroke_e	e	n/a
408.7255	0.056	817451	keystroke_c	c	n/a
408.8215	0.088	817643	keystroke_o	o	n/a
408.9735	0.072	817947	keystroke_m	m	n/a
409.0695	0.072	818139	keystroke_e	e	n/a
409.3415	0.08	818683	keystroke_s	s	n/a
409.5255	0.08	819051	keystroke_Key.space	Key.space	n/a
409.7815	0.072	819563	keystroke_j	j	n/a
409.9655	0.072	819931	keystroke_u	u	n/a
410.1815	0.08	820363	keystroke_m	m	n/a
410.7735	0.12	821547	keystroke_p	p	n/a
411.0695	0.096	822139	keystroke_i	i	n/a
411.1735	0.072	822347	keystroke_n	n	n/a
411.3175	0.08	822635	keystroke_g	g	n/a
411.7655	0.088	823531	keystroke_Key.space	Key.space	n/a
412.0375	0.08	824075	keystroke_s	s	n/a
412.1335	0.08	824267	keystroke_u	u	n/a
412.2615	0.096	824523	keystroke_s	s	n/a
412.5495	0.096	825099	keystroke_e	e	n/a
412.9895	0.104	825979	keystroke_Key.space	Key.space	n/a
413.2695	0.088	826539	keystroke_g	g	n/a
413.9015	0.088	827803	keystroke_r	r	n/a
414.1415	0.088	828283	keystroke_o	o	n/a
414.2535	0.08	828507	keystroke_w	w	n/a
414.5415	0.072	829083	keystroke_Key.enter	Key.enter	n/a
414.621	7.5145	829242	prompt	n/a	coaching spots inkjet buddy\n
415.3735	0.104	830747	keystroke_c	c	n/a
415.7015	0.08	831403	keystroke_o	o	n/a
415.9975	0.104	831995	keystroke_a	a	n/a
416.3975	0.088	832795	keystroke_c	c	n/a
416.5815	0.096	833163	keystroke_h	h	n/a
416.7255	0.08	833451	keystroke_i	i	n/a
416.8135	0.096	833627	keystroke_n	n	n/a
416.9735	0.072	833947	keystroke_g	g	n/a
417.1335	0.096	834267	keystroke_Key.space	Key.space	n/a
417.3335	0.104	834667	keystroke_s	s	n/a
417.4455	0.088	834891	keystroke_p	p	n/a
417.6375	0.08	835275	keystroke_o	o	n/a
417.7895	0.08	835579	keystroke_t	t	n/a
417.9815	0.072	835963	keystroke_s	s	n/a
418.0935	0.08	836187	keystroke_Key.space	Key.space	n/a
418.2775	0.104	836555	keystroke_i	i	n/a
418.4855	0.096	836971	keystroke_n	n	n/a
418.7095	0.088	837419	keystroke_k	k	n/a
419.1415	0.104	838283	keystroke_j	j	n/a
419.4535	0.088	838907	keystroke_e	e	n/a
419.8935	0.08	839787	keystroke_t	t	n/a
420.2215	0.096	840443	keystroke_Key.space	Key.space	n/a
420.4135	0.08	840827	keystroke_b	b	n/a
420.5175	0.08	841035	keystroke_u	u	n/a
420.8775	0.104	841755	keystroke_d	d	n/a
421.2935	0.152	842587	keystroke_d	d	n/a
421.6295	0.08	843259	keystroke_y	y	n/a
422.0615	0.0715	844123	keystroke_Key.enter	Key.enter	n/a
422.142	9.401	844284	prompt	n/a	input government ozone legal\n
422.973	0.088	845946	keystroke_i	i	n/a
423.173	0.072	846346	keystroke_n	n	n/a
423.805	0.12	847610	keystroke_p	p	n/a
424.133	0.064	848266	keystroke_u	u	n/a
424.309	0.096	848618	keystroke_t	t	n/a
424.813	0.104	849626	keystroke_Key.space	Key.space	n/a
425.8935	0.072	851787	keystroke_g	g	n/a
426.0295	0.064	852059	keystroke_o	o	n/a
426.1575	0.064	852315	keystroke_v	v	n/a
426.2935	0.08	852587	keystroke_e	e	n/a
426.7895	0.096	853579	keystroke_r	r	n/a
426.9815	0.088	853963	keystroke_n	n	n/a
427.2055	0.08	854411	keystroke_m	m	n/a
427.3255	0.096	854651	keystroke_e	e	n/a
427.4295	0.08	854859	keystroke_n	n	n/a
427.6535	0.096	855307	keystroke_t	t	n/a
428.3335	0.088	856667	keystroke_Key.space	Key.space	n/a
428.5655	0.088	857131	keystroke_o	o	n/a
428.7895	0.104	857579	keystroke_z	z	n/a
429.5735	0.096	859147	keystroke_o	o	n/a
429.7895	0.08	859579	keystroke_n	n	n/a
429.9575	0.08	859915	keystroke_e	e	n/a
430.0935	0.08	860187	keystroke_Key.space	Key.space	n/a
430.2535	0.08	860507	keystroke_l	l	n/a
430.3575	0.104	860715	keystroke_e	e	n/a
430.5975	0.088	861195	keystroke_g	g	n/a
430.7975	0.072	861595	keystroke_a	a	n/a
430.9735	0.088	861947	keystroke_l	l	n/a
431.4615	0.079	862923	keystroke_Key.enter	Key.enter	n/a
431.548	13.859	863096	prompt	n/a	separate quilt comprehensive boys\n
432.2615	0.095	864523	keystroke_s	s	n/a
432.4045	0.097	864809	keystroke_p	p	n/a
433.0375	0.112	866075	keystroke_a	a	n/a
433.3335	0.088	866667	keystroke_Key.backspace	Key.backspace	n/a
433.4855	0.104	866971	keystroke_Key.backspace	Key.backspace	n/a
433.5975	0.088	867195	keystroke_e	e	n/a
433.7575	0.095	867515	keystroke_p	p	n/a
434.0935	0.112	868187	keystroke_a	a	n/a
434.4615	0.128	868923	keystroke_r	r	n/a
434.7415	0.111	869483	keystroke_a	a	n/a
434.9975	0.08	869995	keystroke_t	t	n/a
435.2855	0.08	870571	keystroke_e	e	n/a
435.4295	0.103	870859	keystroke_Key.space	Key.space	n/a
435.9015	0.104	871803	keystroke_q	q	n/a
436.557	0.104	873114	keystroke_u	u	n/a
436.901	0.113	873802	keystroke_i	i	n/a
437.141	0.105	874282	keystroke_l	l	n/a
437.701	0.08	875402	keystroke_t	t	n/a
438.597	0.112	877194	keystroke_Key.space	Key.space	n/a
438.854	0.096	877708	keystroke_c	c	n/a
438.958	0.071	877916	keystroke_o	o	n/a
439.101	0.072	878202	keystroke_m	m	n/a
439.253	0.089	878506	keystroke_p	p	n/a
439.39	0.104	878780	keystroke_r	r	n/a
439.533	0.089	879066	keystroke_e	e	n/a
440.598	0.08	881196	keystroke_h	h	n/a
441.2055	0.088	882411	keystroke_e	e	n/a
441.4215	0.088	882843	keystroke_n	n	n/a
441.7735	0.096	883547	keystroke_s	s	n/a
441.9095	0.072	883819	keystroke_i	i	n/a
442.1015	0.104	884203	keystroke_v	v	n/a
442.2935	0.072	884587	keystroke_e	e	n/a
442.4375	0.088	884875	keystroke_Key.space	Key.space	n/a
442.6935	0.096	885387	keystroke_b	b	n/a
442.8535	0.088	885707	keystroke_o	o	n/a
443.3655	0.08	886731	keystroke_t	t	n/a
443.6535	0.104	887307	keystroke_s	s	n/a
443.9335	0.08	887867	keystroke_Key.backspace	Key.backspace	n/a
444.0775	0.088	888155	keystroke_Key.backspace	Key.backspace	n/a
444.7015	0.08	889403	keystroke_y	y	n/a
444.9095	0.08	889819	keystroke_s	s	n/a
445.309	0.0965	890618	keystroke_Key.enter	Key.enter	n/a
445.4105	10.285	890821	prompt	n/a	poverty gratuit worth tool\n
446.165	0.1045	892330	keystroke_p	p	n/a
446.373	0.08	892746	keystroke_o	o	n/a
446.597	0.104	893194	keystroke_v	v	n/a
446.821	0.12	893642	keystroke_e	e	n/a
447.101	0.12	894202	keystroke_r	r	n/a
447.397	0.096	894794	keystroke_t	t	n/a
447.605	0.088	895210	keystroke_y	y	n/a
447.869	0.096	895738	keystroke_Key.space	Key.space	n/a
448.597	0.088	897194	keystroke_g	g	n/a
449.197	0.088	898394	keystroke_r	r	n/a
449.533	0.12	899066	keystroke_a	a	n/a
450.285	0.088	900570	keystroke_r	r	n/a
451.085	0.104	902170	keystroke_Key.backspace	Key.backspace	n/a
451.477	0.08	902954	keystroke_t	t	n/a
451.909	0.104	903818	keystroke_u	u	n/a
452.165	0.072	904330	keystroke_i	i	n/a
453.197	0.096	906394	keystroke_t	t	n/a
453.397	0.096	906794	keystroke_Key.space	Key.space	n/a
453.629	0.096	907258	keystroke_w	w	n/a
453.733	0.088	907466	keystroke_o	o	n/a
453.869	0.096	907738	keystroke_r	r	n/a
454.085	0.072	908170	keystroke_t	t	n/a
454.165	0.088	908330	keystroke_h	h	n/a
454.741	0.088	909482	keystroke_Key.space	Key.space	n/a
454.925	0.072	909850	keystroke_t	t	n/a
455.029	0.072	910058	keystroke_o	o	n/a
455.181	0.088	910362	keystroke_o	o	n/a
455.365	0.096	910730	keystroke_l	l	n/a
455.613	0.08	911226	keystroke_Key.enter	Key.enter	n/a
455.705	6.806	911410	prompt	n/a	journal gale minister murray\n
456.981	0.088	913962	keystroke_j	j	n/a
457.205	0.088	914410	keystroke_o	o	n/a
457.381	0.072	914762	keystroke_u	u	n/a
457.597	0.08	915194	keystroke_r	r	n/a
457.869	0.08	915738	keystroke_n	n	n/a
458.2605	0.088	916521	keystroke_a	a	n/a
458.4205	0.088	916841	keystroke_l	l	n/a
458.6045	0.096	917209	keystroke_Key.space	Key.space	n/a
459.1165	0.072	918233	keystroke_g	g	n/a
459.2615	0.079	918523	keystroke_a	a	n/a
459.3565	0.089	918713	keystroke_l	l	n/a
459.5165	0.072	919033	keystroke_e	e	n/a
459.9005	0.104	919801	keystroke_Key.space	Key.space	n/a
460.1565	0.08	920313	keystroke_m	m	n/a
460.3005	0.096	920601	keystroke_i	i	n/a
460.4525	0.064	920905	keystroke_n	n	n/a
460.5485	0.096	921097	keystroke_i	i	n/a
460.7245	0.088	921449	keystroke_s	s	n/a
460.9085	0.089	921817	keystroke_t	t	n/a
461.0525	0.072	922105	keystroke_e	e	n/a
461.1565	0.072	922313	keystroke_r	r	n/a
461.2685	0.088	922537	keystroke_Key.space	Key.space	n/a
461.4525	0.088	922905	keystroke_m	m	n/a
461.6685	0.056	923337	keystroke_u	u	n/a
461.8525	0.08	923705	keystroke_r	r	n/a
462.0045	0.088	924009	keystroke_r	r	n/a
462.1405	0.072	924281	keystroke_a	a	n/a
462.3085	0.064	924617	keystroke_y	y	n/a
462.4445	0.064	924889	keystroke_Key.enter	Key.enter	n/a
462.5165	9.4185	925033	prompt	n/a	missed chambers explains arguments\n
463.2765	0.08	926553	keystroke_m	m	n/a
463.4285	0.073	926857	keystroke_i	i	n/a
463.5565	0.072	927113	keystroke_s	s	n/a
463.6925	0.096	927385	keystroke_s	s	n/a
463.8925	0.072	927785	keystroke_e	e	n/a
464.0925	0.072	928185	keystroke_d	d	n/a
464.2925	0.08	928585	keystroke_Key.space	Key.space	n/a
464.4765	0.096	928953	keystroke_c	c	n/a
464.5885	0.088	929177	keystroke_h	h	n/a
464.6845	0.08	929369	keystroke_a	a	n/a
464.8205	0.08	929641	keystroke_m	m	n/a
465.1085	0.088	930217	keystroke_b	b	n/a
465.2765	0.08	930553	keystroke_e	e	n/a
465.4375	0.063	930875	keystroke_r	r	n/a
465.7325	0.08	931465	keystroke_s	s	n/a
466.3725	0.08	932745	keystroke_Key.space	Key.space	n/a
466.5565	0.088	933113	keystroke_e	e	n/a
466.7975	0.095	933595	keystroke_x	x	n/a
466.9245	0.096	933849	keystroke_p	p	n/a
467.1645	0.088	934329	keystroke_l	l	n/a
467.3005	0.08	934601	keystroke_a	a	n/a
467.4525	0.096	934905	keystroke_i	i	n/a
467.6045	0.072	935209	keystroke_n	n	n/a
468.3725	0.08	936745	keystroke_s	s	n/a
468.5245	0.088	937049	keystroke_Key.space	Key.space	n/a
468.8125	0.104	937625	keystroke_a	a	n/a
469.1245	0.088	938249	keystroke_r	r	n/a
469.5085	0.064	939017	keystroke_g	g	n/a
469.6535	0.087	939307	keystroke_u	u	n/a
469.8765	0.08	939753	keystroke_m	m	n/a
469.9725	0.088	939945	keystroke_e	e	n/a
470.0615	0.063	940123	keystroke_n	n	n/a
470.1725	0.08	940345	keystroke_t	t	n/a
470.4525	0.072	940905	keystroke_s	s	n/a
471.8605	0.072	943721	keystroke_Key.enter	Key.enter	n/a
471.94	7.01	943880	prompt	n/a	dear acres ready linking\n
473.1735	0.087	946347	keystroke_d	d	n/a
473.3405	0.08	946681	keystroke_e	e	n/a
473.5085	0.065	947017	keystroke_a	a	n/a
473.6445	0.056	947289	keystroke_r	r	n/a
473.7485	0.08	947497	keystroke_Key.space	Key.space	n/a
473.9165	0.0955	947833	keystroke_a	a	n/a
474.084	0.08	948168	keystroke_c	c	n/a
474.26	0.072	948520	keystroke_r	r	n/a
474.356	0.0885	948712	keystroke_e	e	n/a
474.6445	0.08	949289	keystroke_s	s	n/a
474.8445	0.088	949689	keystroke_Key.space	Key.space	n/a
475.0445	0.096	950089	keystroke_r	r	n/a
475.1965	0.096	950393	keystroke_e	e	n/a
475.3885	0.088	950777	keystroke_a	a	n/a
475.6125	0.08	951225	keystroke_d	d	n/a
476.004	0.072	952008	keystroke_y	y	n/a
476.292	0.0885	952584	keystroke_Key.space	Key.space	n/a
476.8205	0.104	953641	keystroke_l	l	n/a
477.0285	0.072	954057	keystroke_i	i	n/a
477.1725	0.072	954345	keystroke_n	n	n/a
477.2605	0.088	954521	keystroke_k	k	n/a
477.4365	0.096	954873	keystroke_i	i	n/a
477.5245	0.0635	955049	keystroke_n	n	n/a
477.644	0.072	955288	keystroke_g	g	n/a
478.8605	0.0875	957721	keystroke_Key.enter	Key.enter	n/a
478.955	8.34	957910	prompt	n/a	heavy procurement one convenience\n
479.98	0.064	959960	keystroke_h	h	n/a
480.069	0.079	960138	keystroke_e	e	n/a
480.204	0.08	960408	keystroke_a	a	n/a
480.348	0.088	960696	keystroke_v	v	n/a
480.548	0.064	961096	keystroke_y	y	n/a
481.092	0.096	962184	keystroke_Key.space	Key.space	n/a
481.309	0.095	962618	keystroke_p	p	n/a
481.444	0.072	962888	keystroke_r	r	n/a
481.572	0.088	963144	keystroke_o	o	n/a
482.228	0.096	964456	keystroke_c	c	n/a
482.348	0.064	964696	keystroke_u	u	n/a
482.46	0.0885	964920	keystroke_r	r	n/a
482.5725	0.08	965145	keystroke_e	e	n/a
482.6925	0.064	965385	keystroke_m	m	n/a
482.7885	0.072	965577	keystroke_e	e	n/a
482.8605	0.064	965721	keystroke_n	n	n/a
482.9725	0.064	965945	keystroke_t	t	n/a
483.5325	0.072	967065	keystroke_Key.space	Key.space	n/a
483.6765	0.08	967353	keystroke_o	o	n/a
483.8125	0.072	967625	keystroke_n	n	n/a
483.9325	0.0725	967865	keystroke_e	e	n/a
484.0925	0.088	968185	keystroke_Key.space	Key.space	n/a
484.5245	0.096	969049	keystroke_c	c	n/a
484.6445	0.072	969289	keystroke_o	o	n/a
484.7805	0.072	969561	keystroke_n	n	n/a
484.9565	0.088	969913	keystroke_v	v	n/a
485.1245	0.072	970249	keystroke_e	e	n/a
485.2525	0.08	970505	keystroke_n	n	n/a
485.6605	0.088	971321	keystroke_i	i	n/a
485.8045	0.096	971609	keystroke_e	e	n/a
485.9405	0.064	971881	keystroke_n	n	n/a
486.1165	0.112	972233	keystroke_c	c	n/a
486.2925	0.08	972585	keystroke_e	e	n/a
487.2205	0.072	974441	keystroke_Key.enter	Key.enter	n/a
487.2995	8.291	974599	prompt	n/a	newcastle naked tions emirates\n
488.0045	0.08	976009	keystroke_n	n	n/a
488.1565	0.088	976313	keystroke_e	e	n/a
488.3965	0.104	976793	keystroke_w	w	n/a
488.9325	0.112	977865	keystroke_c	c	n/a
489.1245	0.08	978249	keystroke_a	a	n/a
489.2845	0.096	978569	keystroke_s	s	n/a
489.5485	0.088	979097	keystroke_t	t	n/a
489.7325	0.072	979465	keystroke_l	l	n/a
489.8365	0.08	979673	keystroke_e	e	n/a
490.1805	0.072	980361	keystroke_Key.space	Key.space	n/a
490.3405	0.08	980681	keystroke_n	n	n/a
490.4285	0.096	980857	keystroke_a	a	n/a
490.5805	0.088	981161	keystroke_k	k	n/a
490.7245	0.088	981449	keystroke_e	e	n/a
490.8925	0.08	981785	keystroke_d	d	n/a
491.6845	0.088	983369	keystroke_Key.space	Key.space	n/a
491.8525	0.072	983705	keystroke_t	t	n/a
491.9565	0.088	983913	keystroke_i	i	n/a
492.1565	0.08	984313	keystroke_o	o	n/a
492.3405	0.088	984681	keystroke_n	n	n/a
492.5965	0.08	985193	keystroke_s	s	n/a
492.8205	0.08	985641	keystroke_Key.space	Key.space	n/a
493.0365	0.088	986073	keystroke_e	e	n/a
493.2125	0.072	986425	keystroke_m	m	n/a
493.3725	0.088	986745	keystroke_m	m	n/a
493.7485	0.08	987497	keystroke_Key.backspace	Key.backspace	n/a
494.0285	0.08	988057	keystroke_i	i	n/a
494.3965	0.104	988793	keystroke_r	r	n/a
494.5565	0.096	989113	keystroke_a	a	n/a
494.7645	0.088	989529	keystroke_t	t	n/a
494.9085	0.088	989817	keystroke_e	e	n/a
495.1325	0.08	990265	keystroke_s	s	n/a
495.5085	0.08	991017	keystroke_Key.enter	Key.enter	n/a
495.596	8.082	991192	prompt	n/a	sees ruled ma'am importantly\n
496.3485	0.088	992697	keystroke_s	s	n/a
496.5325	0.088	993065	keystroke_e	e	n/a
496.6925	0.096	993385	keystroke_e	e	n/a
497.1405	0.088	994281	keystroke_s	s	n/a
497.4605	0.08	994921	keystroke_Key.space	Key.space	n/a
497.6045	0.08	995209	keystroke_r	r	n/a
497.7245	0.096	995449	keystroke_u	u	n/a
497.9565	0.088	995913	keystroke_l	l	n/a
498.0765	0.08	996153	keystroke_e	e	n/a
498.2285	0.08	996457	keystroke_d	d	n/a
498.3245	0.072	996649	keystroke_Key.space	Key.space	n/a
498.5005	0.088	997001	keystroke_m	m	n/a
498.6525	0.104	997305	keystroke_a	a	n/a
499.1245	0.096	998249	keystroke_'	'	n/a
499.7485	0.104	999497	keystroke_a	a	n/a
499.8765	0.112	999753	keystroke_m	m	n/a
500.525	0.0955	1001050	keystroke_Key.space	Key.space	n/a
500.7405	0.096	1001481	keystroke_i	i	n/a
500.9325	0.072	1001865	keystroke_m	m	n/a
501.0925	0.096	1002185	keystroke_p	p	n/a
501.3005	0.072	1002601	keystroke_o	o	n/a
501.5965	0.112	1003193	keystroke_r	r	n/a
501.8285	0.088	1003657	keystroke_t	t	n/a
502.0045	0.096	1004009	keystroke_a	a	n/a
502.1325	0.072	1004265	keystroke_n	n	n/a
502.3485	0.096	1004697	keystroke_t	t	n/a
502.5325	0.08	1005065	keystroke_l	l	n/a
502.6205	0.072	1005241	keystroke_y	y	n/a
502.7965	0.088	1005593	keystroke_Key.space	Key.space	n/a
503.3805	0.088	1006761	keystroke_Key.backspace	Key.backspace	n/a
503.5965	0.08	1007193	keystroke_Key.enter	Key.enter	n/a
503.683	6.851	1007366	prompt	n/a	caused feature feels prep\n
504.3805	0.088	1008761	keystroke_c	c	n/a
504.5165	0.088	1009033	keystroke_a	a	n/a
504.6285	0.08	1009257	keystroke_u	u	n/a
504.7165	0.088	1009433	keystroke_s	s	n/a
504.8845	0.088	1009769	keystroke_e	e	n/a
505.0605	0.072	1010121	keystroke_d	d	n/a
505.2525	0.096	1010505	keystroke_Key.space	Key.space	n/a
506.2285	0.088	1012457	keystroke_f	f	n/a
506.3725	0.088	1012745	keystroke_e	e	n/a
506.5325	0.08	1013065	keystroke_a	a	n/a
506.7245	0.064	1013449	keystroke_t	t	n/a
506.8205	0.072	1013641	keystroke_u	u	n/a
506.9085	0.08	1013817	keystroke_r	r	n/a
506.9965	0.088	1013993	keystroke_e	e	n/a
507.7725	0.088	1015545	keystroke_Key.space	Key.space	n/a
508.1165	0.1435	1016233	keystroke_f	f	n/a
508.388	0.088	1016776	keystroke_e	e	n/a
508.564	0.088	1017128	keystroke_e	e	n/a
508.94	0.112	1017880	keystroke_l	l	n/a
509.468	0.088	1018936	keystroke_s	s	n/a
509.612	0.08	1019224	keystroke_Key.space	Key.space	n/a
509.796	0.08	1019592	keystroke_p	p	n/a
509.884	0.104	1019768	keystroke_r	r	n/a
509.996	0.08	1019992	keystroke_e	e	n/a
510.132	0.096	1020264	keystroke_p	p	n/a
510.46	0.072	1020920	keystroke_Key.enter	Key.enter	n/a
510.5395	9.2025	1021079	prompt	n/a	highlights titled referral nicole\n
511.228	0.072	1022456	keystroke_h	h	n/a
511.372	0.096	1022744	keystroke_i	i	n/a
511.508	0.088	1023016	keystroke_g	g	n/a
511.58	0.056	1023160	keystroke_h	h	n/a
512.348	0.088	1024696	keystroke_l	l	n/a
512.58	0.088	1025160	keystroke_i	i	n/a
512.724	0.088	1025448	keystroke_g	g	n/a
512.812	0.056	1025624	keystroke_h	h	n/a
512.924	0.072	1025848	keystroke_t	t	n/a
513.244	0.072	1026488	keystroke_s	s	n/a
513.66	0.096	1027320	keystroke_Key.space	Key.space	n/a
513.868	0.08	1027736	keystroke_t	t	n/a
513.972	0.096	1027944	keystroke_i	i	n/a
514.092	0.0715	1028184	keystroke_t	t	n/a
514.3475	0.12	1028695	keystroke_l	l	n/a
514.5395	0.096	1029079	keystroke_e	e	n/a
514.8275	0.104	1029655	keystroke_d	d	n/a
515.7155	0.088	1031431	keystroke_Key.space	Key.space	n/a
516.0035	0.088	1032007	keystroke_r	r	n/a
516.1395	0.104	1032279	keystroke_e	e	n/a
516.4355	0.112	1032871	keystroke_f	f	n/a
516.7475	0.12	1033495	keystroke_e	e	n/a
517.004	0.128	1034008	keystroke_r	r	n/a
517.764	0.08	1035528	keystroke_r	r	n/a
517.9	0.104	1035800	keystroke_a	a	n/a
518.068	0.104	1036136	keystroke_l	l	n/a
518.292	0.08	1036584	keystroke_Key.space	Key.space	n/a
518.492	0.088	1036984	keystroke_n	n	n/a
518.692	0.12	1037384	keystroke_i	i	n/a
518.868	0.088	1037736	keystroke_c	c	n/a
519.012	0.08	1038024	keystroke_o	o	n/a
519.252	0.088	1038504	keystroke_l	l	n/a
519.388	0.08	1038776	keystroke_e	e	n/a
519.668	0.072	1039336	keystroke_Key.enter	Key.enter	n/a
519.747	7.043	1039494	prompt	n/a	operates fill beam vienna\n
520.38	0.104	1040760	keystroke_o	o	n/a
520.58	0.072	1041160	keystroke_p	p	n/a
520.7	0.096	1041400	keystroke_e	e	n/a
520.852	0.088	1041704	keystroke_r	r	n/a
521.02	0.096	1042040	keystroke_a	a	n/a
521.204	0.088	1042408	keystroke_t	t	n/a
521.34	0.08	1042680	keystroke_e	e	n/a
521.556	0.088	1043112	keystroke_d	d	n/a
522.012	0.088	1044024	keystroke_Key.space	Key.space	n/a
522.364	0.112	1044728	keystroke_f	f	n/a
522.54	0.096	1045080	keystroke_i	i	n/a
522.804	0.08	1045608	keystroke_l	l	n/a
522.972	0.104	1045944	keystroke_l	l	n/a
523.244	0.088	1046488	keystroke_Key.space	Key.space	n/a
523.46	0.08	1046920	keystroke_b	b	n/a
523.62	0.08	1047240	keystroke_e	e	n/a
523.788	0.088	1047576	keystroke_a	a	n/a
523.9	0.096	1047800	keystroke_m	m	n/a
524.092	0.088	1048184	keystroke_Key.space	Key.space	n/a
524.772	0.088	1049544	keystroke_v	v	n/a
524.916	0.104	1049832	keystroke_i	i	n/a
525.084	0.08	1050168	keystroke_e	e	n/a
526.308	0.056	1052616	keystroke_n	n	n/a
526.46	0.072	1052920	keystroke_n	n	n/a
526.564	0.088	1053128	keystroke_a	a	n/a
526.732	0.056	1053464	keystroke_Key.enter	Key.enter	n/a
526.794	11.084	1053588	prompt	n/a	recording change conflict drink\n
527.708	0.08	1055416	keystroke_r	r	n/a
527.82	0.096	1055640	keystroke_e	e	n/a
528.028	0.104	1056056	keystroke_c	c	n/a
528.148	0.088	1056296	keystroke_o	o	n/a
529.356	0.088	1058712	keystroke_r	r	n/a
529.58	0.104	1059160	keystroke_d	d	n/a
529.716	0.088	1059432	keystroke_i	i	n/a
529.844	0.064	1059688	keystroke_n	n	n/a
529.948	0.072	1059896	keystroke_g	g	n/a
530.076	0.104	1060152	keystroke_Key.space	Key.space	n/a
530.972	0.096	1061944	keystroke_c	c	n/a
531.092	0.088	1062184	keystroke_h	h	n/a
531.188	0.096	1062376	keystroke_a	a	n/a
531.308	0.072	1062616	keystroke_n	n	n/a
533.5	0.088	1067000	keystroke_g	g	n/a
533.644	0.096	1067288	keystroke_e	e	n/a
533.988	0.12	1067976	keystroke_Key.space	Key.space	n/a
534.22	0.096	1068440	keystroke_c	c	n/a
534.324	0.072	1068648	keystroke_o	o	n/a
534.46	0.08	1068920	keystroke_n	n	n/a
534.836	0.072	1069672	keystroke_f	f	n/a
534.916	0.072	1069832	keystroke_l	l	n/a
535.084	0.072	1070168	keystroke_i	i	n/a
535.228	0.088	1070456	keystroke_c	c	n/a
535.46	0.08	1070920	keystroke_t	t	n/a
535.844	0.096	1071688	keystroke_Key.space	Key.space	n/a
536.564	0.088	1073128	keystroke_d	d	n/a
536.756	0.064	1073512	keystroke_r	r	n/a
536.844	0.088	1073688	keystroke_i	i	n/a
536.98	0.08	1073960	keystroke_n	n	n/a
537.092	0.072	1074184	keystroke_k	k	n/a
537.788	0.088	1075576	keystroke_Key.enter	Key.enter	n/a
537.885	12.5765	1075770	prompt	n/a	increase collected cartoons subsequent\n
538.9	0.08	1077800	keystroke_i	i	n/a
539.084	0.056	1078168	keystroke_n	n	n/a
539.212	0.08	1078424	keystroke_c	c	n/a
539.388	0.072	1078776	keystroke_r	r	n/a
539.484	0.096	1078968	keystroke_e	e	n/a
539.844	0.096	1079688	keystroke_a	a	n/a
540.124	0.088	1080248	keystroke_s	s	n/a
540.332	0.0795	1080664	keystroke_e	e	n/a
540.508	0.088	1081016	keystroke_Key.space	Key.space	n/a
540.7	0.088	1081400	keystroke_c	c	n/a
540.78	0.088	1081560	keystroke_o	o	n/a
540.98	0.072	1081960	keystroke_l	l	n/a
541.124	0.08	1082248	keystroke_l	l	n/a
541.236	0.088	1082472	keystroke_e	e	n/a
541.42	0.096	1082840	keystroke_c	c	n/a
541.668	0.088	1083336	keystroke_t	t	n/a
541.86	0.08	1083720	keystroke_e	e	n/a
542.028	0.08	1084056	keystroke_d	d	n/a
542.156	0.088	1084312	keystroke_Key.space	Key.space	n/a
542.324	0.0875	1084648	keystroke_c	c	n/a
542.4515	0.0965	1084903	keystroke_a	a	n/a
542.6195	0.112	1085239	keystroke_r	r	n/a
542.86	0.0715	1085720	keystroke_t	t	n/a
543.0195	0.08	1086039	keystroke_o	o	n/a
543.1955	0.08	1086391	keystroke_o	o	n/a
543.3875	0.08	1086775	keystroke_n	n	n/a
543.5955	0.08	1087191	keystroke_s	s	n/a
543.7795	0.0965	1087559	keystroke_Key.space	Key.space	n/a
544.076	0.08	1088152	keystroke_s	s	n/a
544.2195	0.072	1088439	keystroke_u	u	n/a
544.4355	0.0805	1088871	keystroke_b	b	n/a
545.1155	0.08	1090231	keystroke_s	s	n/a
545.4435	0.104	1090887	keystroke_q	q	n/a
546.6675	0.096	1093335	keystroke_Key.backspace	Key.backspace	n/a
547.2755	0.096	1094551	keystroke_e	e	n/a
548.2755	0.096	1096551	keystroke_q	q	n/a
548.9635	0.128	1097927	keystroke_u	u	n/a
549.4595	0.112	1098919	keystroke_e	e	n/a
549.5955	0.104	1099191	keystroke_n	n	n/a
549.7875	0.072	1099575	keystroke_t	t	n/a
550.3715	0.088	1100743	keystroke_Key.enter	Key.enter	n/a
550.4765	10.833	1100953	prompt	n/a	additions shark choose campaigns\n
552.6275	0.104	1105255	keystroke_a	a	n/a
552.8355	0.072	1105671	keystroke_d	d	n/a
552.9875	0.088	1105975	keystroke_d	d	n/a
553.1075	0.104	1106215	keystroke_i	i	n/a
553.2435	0.072	1106487	keystroke_t	t	n/a
553.3315	0.072	1106663	keystroke_i	i	n/a
553.5155	0.096	1107031	keystroke_o	o	n/a
553.8195	0.136	1107639	keystroke_n	n	n/a
554.9235	0.104	1109847	keystroke_s	s	n/a
555.2355	0.096	1110471	keystroke_Key.space	Key.space	n/a
555.9635	0.096	1111927	keystroke_s	s	n/a
556.0915	0.056	1112183	keystroke_h	h	n/a
556.1635	0.112	1112327	keystroke_a	a	n/a
556.3955	0.08	1112791	keystroke_r	r	n/a
557.0595	0.104	1114119	keystroke_k	k	n/a
557.1875	0.104	1114375	keystroke_Key.space	Key.space	n/a
557.3395	0.088	1114679	keystroke_c	c	n/a
557.4595	0.064	1114919	keystroke_h	h	n/a
557.6195	0.096	1115239	keystroke_o	o	n/a
557.8275	0.088	1115655	keystroke_o	o	n/a
558.1955	0.104	1116391	keystroke_s	s	n/a
558.4515	0.088	1116903	keystroke_e	e	n/a
558.6035	0.096	1117207	keystroke_Key.space	Key.space	n/a
558.7715	0.096	1117543	keystroke_c	c	n/a
559.0755	0.08	1118151	keystroke_a	a	n/a
559.2595	0.088	1118519	keystroke_m	m	n/a
559.4995	0.104	1118999	keystroke_p	p	n/a
559.6755	0.096	1119351	keystroke_a	a	n/a
560.0195	0.104	1120039	keystroke_i	i	n/a
560.2115	0.0805	1120423	keystroke_g	g	n/a
560.379	0.096	1120758	keystroke_n	n	n/a
560.956	0.088	1121912	keystroke_s	s	n/a
561.22	0.087	1122440	keystroke_Key.enter	Key.enter	n/a
561.315	9.0985	1122630	prompt	n/a	dependent ensure obligation person\n
562.107	0.137	1124214	keystroke_d	d	n/a
562.324	0.087	1124648	keystroke_e	e	n/a
562.444	0.095	1124888	keystroke_p	p	n/a
562.572	0.088	1125144	keystroke_e	e	n/a
562.723	0.073	1125446	keystroke_n	n	n/a
562.908	0.088	1125816	keystroke_d	d	n/a
563.764	0.096	1127528	keystroke_e	e	n/a
563.9	0.08	1127800	keystroke_n	n	n/a
564.02	0.08	1128040	keystroke_t	t	n/a
564.171	0.096	1128342	keystroke_Key.space	Key.space	n/a
564.364	0.08	1128728	keystroke_s	s	n/a
564.707	0.072	1129414	keystroke_Key.backspace	Key.backspace	n/a
564.812	0.079	1129624	keystroke_e	e	n/a
564.972	0.08	1129944	keystroke_n	n	n/a
565.188	0.088	1130376	keystroke_s	s	n/a
565.292	0.071	1130584	keystroke_u	u	n/a
565.724	0.096	1131448	keystroke_r	r	n/a
565.916	0.079	1131832	keystroke_e	e	n/a
567.131	0.096	1134262	keystroke_Key.space	Key.space	n/a
567.395	0.105	1134790	keystroke_o	o	n/a
567.763	0.064	1135526	keystroke_b	b	n/a
567.852	0.095	1135704	keystroke_l	l	n/a
568.059	0.073	1136118	keystroke_i	i	n/a
568.308	0.072	1136616	keystroke_g	g	n/a
568.427	0.072	1136854	keystroke_a	a	n/a
568.563	0.073	1137126	keystroke_t	t	n/a
568.644	0.072	1137288	keystroke_i	i	n/a
568.803	0.089	1137606	keystroke_o	o	n/a
568.964	0.096	1137928	keystroke_n	n	n/a
569.411	0.096	1138822	keystroke_Key.space	Key.space	n/a
569.603	0.072	1139206	keystroke_p	p	n/a
569.708	0.087	1139416	keystroke_e	e	n/a
569.844	0.071	1139688	keystroke_r	r	n/a
569.972	0.087	1139944	keystroke_s	s	n/a
570.052	0.079	1140104	keystroke_o	o	n/a
570.14	0.071	1140280	keystroke_n	n	n/a
570.331	0.08	1140662	keystroke_Key.enter	Key.enter	n/a
570.419	11.683	1140838	prompt	n/a	grey customized trustee peterson\n
571.484	0.071	1142968	keystroke_g	g	n/a
571.628	0.072	1143256	keystroke_r	r	n/a
571.78	0.088	1143560	keystroke_e	e	n/a
572.003	0.073	1144006	keystroke_y	y	n/a
572.139	0.088	1144278	keystroke_Key.space	Key.space	n/a
572.884	0.095	1145768	keystroke_c	c	n/a
573.059	0.08	1146118	keystroke_u	u	n/a
573.308	0.096	1146616	keystroke_s	s	n/a
573.547	0.08	1147094	keystroke_t	t	n/a
573.804	0.088	1147608	keystroke_o	o	n/a
573.988	0.088	1147976	keystroke_m	m	n/a
574.236	0.08	1148472	keystroke_i	i	n/a
574.492	0.095	1148984	keystroke_z	z	n/a
574.668	0.112	1149336	keystroke_a	a	n/a
575.084	0.088	1150168	keystroke_t	t	n/a
575.379	0.096	1150758	keystroke_i	i	n/a
575.652	0.088	1151304	keystroke_o	o	n/a
575.876	0.088	1151752	keystroke_n	n	n/a
576.035	0.104	1152070	keystroke_Key.space	Key.space	n/a
576.539	0.08	1153078	keystroke_t	t	n/a
576.835	0.072	1153670	keystroke_u	u	n/a
577.379	0.072	1154758	keystroke_Key.backspace	Key.backspace	n/a
577.555	0.072	1155110	keystroke_r	r	n/a
577.699	0.056	1155398	keystroke_u	u	n/a
578.187	0.096	1156374	keystroke_s	s	n/a
578.403	0.088	1156806	keystroke_t	t	n/a
579.619	0.096	1159238	keystroke_e	e	n/a
579.819	0.088	1159638	keystroke_e	e	n/a
580.019	0.096	1160038	keystroke_Key.space	Key.space	n/a
580.187	0.104	1160374	keystroke_p	p	n/a
580.307	0.112	1160614	keystroke_e	e	n/a
580.795	0.08	1161590	keystroke_t	t	n/a
580.947	0.096	1161894	keystroke_e	e	n/a
581.123	0.064	1162246	keystroke_r	r	n/a
581.331	0.08	1162662	keystroke_s	s	n/a
581.435	0.088	1162870	keystroke_o	o	n/a
581.555	0.072	1163110	keystroke_n	n	n/a
582.027	0.072	1164054	keystroke_Key.enter	Key.enter	n/a
582.107	8.922	1164214	prompt	n/a	directive stream associations rather\n
583.083	0.088	1166166	keystroke_d	d	n/a
583.179	0.064	1166358	keystroke_i	i	n/a
583.283	0.08	1166566	keystroke_r	r	n/a
583.403	0.088	1166806	keystroke_e	e	n/a
583.587	0.096	1167174	keystroke_c	c	n/a
584.035	0.08	1168070	keystroke_t	t	n/a
584.195	0.08	1168390	keystroke_i	i	n/a
584.371	0.096	1168742	keystroke_v	v	n/a
584.595	0.112	1169190	keystroke_e	e	n/a
584.779	0.08	1169558	keystroke_Key.space	Key.space	n/a
584.947	0.096	1169894	keystroke_s	s	n/a
585.155	0.104	1170310	keystroke_t	t	n/a
585.603	0.104	1171206	keystroke_r	r	n/a
585.819	0.088	1171638	keystroke_e	e	n/a
585.971	0.088	1171942	keystroke_a	a	n/a
586.275	0.12	1172550	keystroke_m	m	n/a
586.539	0.088	1173078	keystroke_Key.space	Key.space	n/a
586.659	0.088	1173318	keystroke_a	a	n/a
586.819	0.08	1173638	keystroke_s	s	n/a
586.979	0.072	1173958	keystroke_s	s	n/a
587.131	0.096	1174262	keystroke_o	o	n/a
587.323	0.088	1174646	keystroke_c	c	n/a
587.419	0.088	1174838	keystroke_i	i	n/a
587.523	0.096	1175046	keystroke_a	a	n/a
587.803	0.08	1175606	keystroke_t	t	n/a
587.875	0.088	1175750	keystroke_i	i	n/a
588.051	0.088	1176102	keystroke_o	o	n/a
588.212	0.103	1176424	keystroke_n	n	n/a
588.635	0.088	1177270	keystroke_s	s	n/a
588.947	0.12	1177894	keystroke_Key.space	Key.space	n/a
589.507	0.088	1179014	keystroke_r	r	n/a
589.891	0.104	1179782	keystroke_a	a	n/a
590.139	0.0965	1180278	keystroke_t	t	n/a
590.2835	0.104	1180567	keystroke_h	h	n/a
590.4355	0.072	1180871	keystroke_e	e	n/a
590.5715	0.072	1181143	keystroke_r	r	n/a
590.9395	0.088	1181879	keystroke_Key.enter	Key.enter	n/a
591.0335	11.1555	1182067	prompt	n/a	describe brunei charged widespread\n
592.0755	0.064	1184151	keystroke_d	d	n/a
592.1955	0.08	1184391	keystroke_e	e	n/a
592.3955	0.048	1184791	keystroke_s	s	n/a
592.5395	0.088	1185079	keystroke_c	c	n/a
592.7395	0.072	1185479	keystroke_r	r	n/a
592.8435	0.072	1185687	keystroke_i	i	n/a
592.9875	0.064	1185975	keystroke_b	b	n/a
593.1635	0.088	1186327	keystroke_e	e	n/a
593.8915	0.088	1187783	keystroke_Key.space	Key.space	n/a
594.7155	0.088	1189431	keystroke_b	b	n/a
595.0195	0.08	1190039	keystroke_r	r	n/a
595.9075	0.112	1191815	keystroke_u	u	n/a
596.1875	0.104	1192375	keystroke_n	n	n/a
596.4115	0.088	1192823	keystroke_e	e	n/a
596.5315	0.096	1193063	keystroke_i	i	n/a
596.7235	0.096	1193447	keystroke_Key.space	Key.space	n/a
596.9235	0.104	1193847	keystroke_c	c	n/a
597.0435	0.08	1194087	keystroke_h	h	n/a
597.1475	0.096	1194295	keystroke_a	a	n/a
597.3715	0.104	1194743	keystroke_r	r	n/a
597.6435	0.088	1195287	keystroke_g	g	n/a
597.8195	0.08	1195639	keystroke_e	e	n/a
598.0115	0.072	1196023	keystroke_d	d	n/a
598.1875	0.0875	1196375	keystroke_Key.space	Key.space	n/a
598.467	0.096	1196934	keystroke_w	w	n/a
598.579	0.072	1197158	keystroke_i	i	n/a
598.819	0.096	1197638	keystroke_d	d	n/a
598.995	0.08	1197990	keystroke_e	e	n/a
600.467	0.104	1200934	keystroke_s	s	n/a
600.619	0.104	1201238	keystroke_p	p	n/a
600.835	0.088	1201670	keystroke_r	r	n/a
600.939	0.096	1201878	keystroke_e	e	n/a
601.099	0.096	1202198	keystroke_a	a	n/a
601.259	0.08	1202518	keystroke_d	d	n/a
602.107	0.08	1204214	keystroke_Key.enter	Key.enter	n/a
602.195	9.8025	1204390	prompt	n/a	courier opponent ends surplus\n
603.307	0.088	1206614	keystroke_c	c	n/a
603.396	0.055	1206792	keystroke_o	o	n/a
603.507	0.064	1207014	keystroke_u	u	n/a
604.659	0.08	1209318	keystroke_r	r	n/a
604.763	0.08	1209526	keystroke_i	i	n/a
604.851	0.096	1209702	keystroke_e	e	n/a
605.011	0.088	1210022	keystroke_r	r	n/a
605.723	0.088	1211446	keystroke_Key.space	Key.space	n/a
606.003	0.104	1212006	keystroke_o	o	n/a
606.251	0.096	1212502	keystroke_p	p	n/a
606.451	0.096	1212902	keystroke_p	p	n/a
606.683	0.088	1213366	keystroke_o	o	n/a
606.899	0.072	1213798	keystroke_n	n	n/a
607.067	0.104	1214134	keystroke_e	e	n/a
607.475	0.112	1214950	keystroke_n	n	n/a
607.667	0.08	1215334	keystroke_t	t	n/a
608.051	0.104	1216102	keystroke_Key.space	Key.space	n/a
608.267	0.096	1216534	keystroke_e	e	n/a
608.571	0.088	1217142	keystroke_n	n	n/a
608.723	0.081	1217446	keystroke_d	d	n/a
608.851	0.088	1217702	keystroke_s	s	n/a
609.363	0.08	1218726	keystroke_Key.space	Key.space	n/a
609.603	0.088	1219206	keystroke_s	s	n/a
609.731	0.088	1219462	keystroke_u	u	n/a
610.035	0.08	1220070	keystroke_r	r	n/a
610.219	0.08	1220438	keystroke_p	p	n/a
610.403	0.08	1220806	keystroke_l	l	n/a
610.643	0.08	1221286	keystroke_u	u	n/a
610.835	0.088	1221670	keystroke_s	s	n/a
611.915	0.08	1223830	keystroke_Key.enter	Key.enter	n/a
612.003	8.674	1224006	prompt	n/a	terrible citizenship rich christian\n
612.675	0.104	1225350	keystroke_t	t	n/a
612.843	0.08	1225686	keystroke_e	e	n/a
613.003	0.072	1226006	keystroke_r	r	n/a
613.147	0.08	1226294	keystroke_r	r	n/a
613.243	0.096	1226486	keystroke_i	i	n/a
613.395	0.08	1226790	keystroke_b	b	n/a
613.523	0.088	1227046	keystroke_l	l	n/a
613.667	0.072	1227334	keystroke_e	e	n/a
613.851	0.104	1227702	keystroke_Key.space	Key.space	n/a
614.155	0.096	1228310	keystroke_c	c	n/a
614.323	0.104	1228646	keystroke_i	i	n/a
614.667	0.08	1229334	keystroke_t	t	n/a
614.963	0.088	1229926	keystroke_i	i	n/a
615.515	0.104	1231030	keystroke_z	z	n/a
615.731	0.08	1231462	keystroke_e	e	n/a
615.891	0.088	1231782	keystroke_n	n	n/a
616.603	0.088	1233206	keystroke_s	s	n/a
616.707	0.088	1233414	keystroke_h	h	n/a
616.843	0.088	1233686	keystroke_i	i	n/a
617.395	0.1205	1234790	keystroke_p	p	n/a
617.7955	0.104	1235591	keystroke_Key.space	Key.space	n/a
618.1315	0.096	1236263	keystroke_r	r	n/a
618.2345	0.089	1236469	keystroke_i	i	n/a
618.3955	0.096	1236791	keystroke_c	c	n/a
618.4755	0.0705	1236951	keystroke_h	h	n/a
618.666	0.089	1237332	keystroke_Key.space	Key.space	n/a
619.0835	0.128	1238167	keystroke_c	c	n/a
619.3075	0.1035	1238615	keystroke_h	h	n/a
619.451	0.071	1238902	keystroke_r	r	n/a
619.5475	0.0875	1239095	keystroke_i	i	n/a
619.675	0.095	1239350	keystroke_s	s	n/a
619.8755	0.0715	1239751	keystroke_t	t	n/a
619.963	0.08	1239926	keystroke_i	i	n/a
620.083	0.072	1240166	keystroke_a	a	n/a
620.1715	0.0715	1240343	keystroke_n	n	n/a
620.595	0.079	1241190	keystroke_Key.enter	Key.enter	n/a
620.6815	10.9865	1241363	prompt	n/a	think matching personalized screening\n
621.5395	0.0875	1243079	keystroke_t	t	n/a
621.8035	0.1115	1243607	keystroke_i	i	n/a
622.154	0.08	1244308	keystroke_Key.backspace	Key.backspace	n/a
622.795	0.104	1245590	keystroke_h	h	n/a
622.907	0.072	1245814	keystroke_i	i	n/a
623.003	0.104	1246006	keystroke_n	n	n/a
623.123	0.088	1246246	keystroke_k	k	n/a
623.754	0.097	1247508	keystroke_Key.space	Key.space	n/a
623.931	0.08	1247862	keystroke_m	m	n/a
624.027	0.096	1248054	keystroke_a	a	n/a
624.203	0.072	1248406	keystroke_t	t	n/a
624.299	0.112	1248598	keystroke_h	h	n/a
624.419	0.088	1248838	keystroke_i	i	n/a
624.571	0.088	1249142	keystroke_c	c	n/a
624.907	0.104	1249814	keystroke_Key.backspace	Key.backspace	n/a
625.083	0.08	1250166	keystroke_Key.backspace	Key.backspace	n/a
625.251	0.112	1250502	keystroke_Key.backspace	Key.backspace	n/a
625.803	0.088	1251606	keystroke_c	c	n/a
625.963	0.104	1251926	keystroke_h	h	n/a
626.355	0.104	1252710	keystroke_i	i	n/a
626.539	0.096	1253078	keystroke_n	n	n/a
626.707	0.096	1253414	keystroke_g	g	n/a
626.979	0.08	1253958	keystroke_Key.space	Key.space	n/a
627.1465	0.096	1254293	keystroke_p	p	n/a
627.275	0.0875	1254550	keystroke_e	e	n/a
627.427	0.0875	1254854	keystroke_r	r	n/a
627.5865	0.08	1255173	keystroke_s	s	n/a
627.6825	0.088	1255365	keystroke_o	o	n/a
628.0665	0.112	1256133	keystroke_n	n	n/a
628.4185	0.0725	1256837	keystroke_a	a	n/a
628.6185	0.12	1257237	keystroke_l	l	n/a
628.8425	0.088	1257685	keystroke_i	i	n/a
628.9625	0.088	1257925	keystroke_z	z	n/a
629.1385	0.088	1258277	keystroke_e	e	n/a
629.3385	0.072	1258677	keystroke_d	d	n/a
629.923	0.096	1259846	keystroke_Key.space	Key.space	n/a
630.163	0.088	1260326	keystroke_s	s	n/a
630.323	0.104	1260646	keystroke_c	c	n/a
630.515	0.088	1261030	keystroke_r	r	n/a
630.675	0.08	1261350	keystroke_e	e	n/a
630.835	0.0795	1261670	keystroke_e	e	n/a
630.9945	0.096	1261989	keystroke_n	n	n/a
631.1145	0.128	1262229	keystroke_i	i	n/a
631.2185	0.08	1262437	keystroke_n	n	n/a
631.3225	0.072	1262645	keystroke_g	g	n/a
631.5785	0.088	1263157	keystroke_Key.enter	Key.enter	n/a
631.672	6.9	1263344	prompt	n/a	continent rate holes pirates\n
632.4505	0.088	1264901	keystroke_c	c	n/a
632.5625	0.096	1265125	keystroke_o	o	n/a
632.8025	0.088	1265605	keystroke_n	n	n/a
633.1545	0.08	1266309	keystroke_t	t	n/a
633.3225	0.096	1266645	keystroke_i	i	n/a
633.5065	0.088	1267013	keystroke_n	n	n/a
633.6505	0.096	1267301	keystroke_e	e	n/a
633.7545	0.08	1267509	keystroke_n	n	n/a
633.8905	0.072	1267781	keystroke_t	t	n/a
634.266	0.088	1268532	keystroke_Key.space	Key.space	n/a
634.53	0.104	1269060	keystroke_r	r	n/a
634.722	0.096	1269444	keystroke_a	a	n/a
634.906	0.08	1269812	keystroke_t	t	n/a
635.058	0.08	1270116	keystroke_e	e	n/a
635.386	0.096	1270772	keystroke_Key.space	Key.space	n/a
635.682	0.08	1271364	keystroke_h	h	n/a
635.818	0.096	1271636	keystroke_o	o	n/a
635.994	0.096	1271988	keystroke_l	l	n/a
636.098	0.064	1272196	keystroke_e	e	n/a
636.258	0.064	1272516	keystroke_s	s	n/a
636.37	0.08	1272740	keystroke_Key.space	Key.space	n/a
636.522	0.096	1273044	keystroke_p	p	n/a
636.73	0.08	1273460	keystroke_i	i	n/a
636.842	0.12	1273684	keystroke_r	r	n/a
637.026	0.096	1274052	keystroke_a	a	n/a
637.57	0.104	1275140	keystroke_t	t	n/a
637.77	0.072	1275540	keystroke_e	e	n/a
638.234	0.088	1276468	keystroke_s	s	n/a
638.49	0.08	1276980	keystroke_Key.enter	Key.enter	n/a
638.577	8.4745	1277154	prompt	n/a	line babe quarterly equipped\n
639.186	0.1205	1278372	keystroke_l	l	n/a
639.4025	0.12	1278805	keystroke_i	i	n/a
639.5225	0.08	1279045	keystroke_n	n	n/a
639.6425	0.088	1279285	keystroke_e	e	n/a
639.7385	0.096	1279477	keystroke_Key.space	Key.space	n/a
639.9065	0.08	1279813	keystroke_b	b	n/a
640.0585	0.0635	1280117	keystroke_a	a	n/a
640.202	0.064	1280404	keystroke_b	b	n/a
640.3305	0.0795	1280661	keystroke_e	e	n/a
640.745	0.137	1281490	keystroke_Key.space	Key.space	n/a
641.266	0.104	1282532	keystroke_q	q	n/a
641.426	0.072	1282852	keystroke_u	u	n/a
641.578	0.112	1283156	keystroke_a	a	n/a
641.842	0.088	1283684	keystroke_r	r	n/a
642.066	0.072	1284132	keystroke_t	t	n/a
642.41	0.112	1284820	keystroke_e	e	n/a
643.034	0.096	1286068	keystroke_r	r	n/a
643.226	0.096	1286452	keystroke_l	l	n/a
643.394	0.088	1286788	keystroke_y	y	n/a
644.026	0.12	1288052	keystroke_Key.space	Key.space	n/a
644.938	0.096	1289876	keystroke_e	e	n/a
645.298	0.12	1290596	keystroke_q	q	n/a
645.442	0.104	1290884	keystroke_u	u	n/a
645.65	0.088	1291300	keystroke_i	i	n/a
645.89	0.08	1291780	keystroke_p	p	n/a
646.058	0.072	1292116	keystroke_p	p	n/a
646.282	0.104	1292564	keystroke_e	e	n/a
646.466	0.088	1292932	keystroke_d	d	n/a
646.97	0.08	1293940	keystroke_Key.enter	Key.enter	n/a
647.058	14.3525	1294116	prompt	n/a	rover dist amendment clarity\n
648.29	0.08	1296580	keystroke_r	r	n/a
648.386	0.064	1296772	keystroke_o	o	n/a
648.634	0.088	1297268	keystroke_v	v	n/a
648.77	0.088	1297540	keystroke_e	e	n/a
648.914	0.08	1297828	keystroke_r	r	n/a
649.1455	0.088	1298291	keystroke_Key.space	Key.space	n/a
649.3295	0.088	1298659	keystroke_d	d	n/a
649.4415	0.08	1298883	keystroke_i	i	n/a
649.6095	0.104	1299219	keystroke_s	s	n/a
649.8095	0.088	1299619	keystroke_t	t	n/a
650.1295	0.096	1300259	keystroke_Key.space	Key.space	n/a
650.4095	0.088	1300819	keystroke_a	a	n/a
650.6095	0.112	1301219	keystroke_m	m	n/a
650.7615	0.096	1301523	keystroke_e	e	n/a
650.8495	0.072	1301699	keystroke_n	n	n/a
651.0095	0.08	1302019	keystroke_t	t	n/a
651.7055	0.128	1303411	keystroke_m	m	n/a
651.9215	0.096	1303843	keystroke_e	e	n/a
652.0335	0.08	1304067	keystroke_n	n	n/a
652.2255	0.088	1304451	keystroke_t	t	n/a
652.6975	0.12	1305395	keystroke_Key.space	Key.space	n/a
653.0015	0.096	1306003	keystroke_c	c	n/a
653.1295	0.088	1306259	keystroke_h	h	n/a
653.5365	0.113	1307073	keystroke_Key.backspace	Key.backspace	n/a
656.0975	0.072	1312195	keystroke_Key.backspace	Key.backspace	n/a
656.2575	0.071	1312515	keystroke_Key.backspace	Key.backspace	n/a
656.4095	0.08	1312819	keystroke_Key.backspace	Key.backspace	n/a
656.5935	0.072	1313187	keystroke_Key.backspace	Key.backspace	n/a
656.7615	0.08	1313523	keystroke_Key.backspace	Key.backspace	n/a
656.9455	0.088	1313891	keystroke_Key.backspace	Key.backspace	n/a
657.3375	0.12	1314675	keystroke_Key.backspace	Key.backspace	n/a
658.8415	0.088	1317683	keystroke_d	d	n/a
658.9695	0.088	1317939	keystroke_m	m	n/a
659.0975	0.08	1318195	keystroke_e	e	n/a
659.1855	0.072	1318371	keystroke_n	n	n/a
659.3135	0.064	1318627	keystroke_t	t	n/a
659.8885	0.097	1319777	keystroke_Key.space	Key.space	n/a
660.0815	0.096	1320163	keystroke_c	c	n/a
660.1775	0.096	1320355	keystroke_l	l	n/a
660.2815	0.096	1320563	keystroke_a	a	n/a
660.4895	0.088	1320979	keystroke_r	r	n/a
660.6095	0.08	1321219	keystroke_i	i	n/a
660.7855	0.096	1321571	keystroke_t	t	n/a
660.9935	0.088	1321987	keystroke_y	y	n/a
661.3295	0.079	1322659	keystroke_Key.enter	Key.enter	n/a
661.416	9.979	1322832	prompt	n/a	instruction creativity throughout commissions\n
662.1455	0.096	1324291	keystroke_i	i	n/a
662.3215	0.072	1324643	keystroke_n	n	n/a
662.4415	0.0955	1324883	keystroke_s	s	n/a
662.689	0.112	1325378	keystroke_t	t	n/a
662.921	0.088	1325842	keystroke_r	r	n/a
663.057	0.08	1326114	keystroke_u	u	n/a
663.249	0.096	1326498	keystroke_c	c	n/a
663.489	0.064	1326978	keystroke_t	t	n/a
663.585	0.088	1327170	keystroke_i	i	n/a
663.753	0.096	1327506	keystroke_o	o	n/a
663.905	0.096	1327810	keystroke_n	n	n/a
664.033	0.096	1328066	keystroke_Key.space	Key.space	n/a
664.161	0.096	1328322	keystroke_c	c	n/a
664.369	0.096	1328738	keystroke_r	r	n/a
664.505	0.112	1329010	keystroke_e	e	n/a
664.681	0.096	1329362	keystroke_a	a	n/a
664.913	0.08	1329826	keystroke_t	t	n/a
665.049	0.08	1330098	keystroke_i	i	n/a
665.217	0.088	1330434	keystroke_v	v	n/a
665.505	0.104	1331010	keystroke_i	i	n/a
665.865	0.088	1331730	keystroke_t	t	n/a
666.065	0.072	1332130	keystroke_y	y	n/a
666.665	0.072	1333330	keystroke_Key.space	Key.space	n/a
666.889	0.088	1333778	keystroke_t	t	n/a
667.065	0.08	1334130	keystroke_h	h	n/a
667.169	0.088	1334338	keystroke_r	r	n/a
667.265	0.072	1334530	keystroke_o	o	n/a
667.401	0.08	1334802	keystroke_u	u	n/a
667.537	0.088	1335074	keystroke_g	g	n/a
668.297	0.088	1336594	keystroke_h	h	n/a
668.553	0.064	1337106	keystroke_o	o	n/a
668.649	0.08	1337298	keystroke_u	u	n/a
668.793	0.08	1337586	keystroke_t	t	n/a
669.201	0.096	1338402	keystroke_Key.space	Key.space	n/a
669.377	0.096	1338754	keystroke_c	c	n/a
669.466	0.079	1338932	keystroke_o	o	n/a
669.617	0.072	1339234	keystroke_m	m	n/a
669.769	0.072	1339538	keystroke_m	m	n/a
669.913	0.088	1339826	keystroke_i	i	n/a
670.065	0.08	1340130	keystroke_s	s	n/a
670.201	0.096	1340402	keystroke_s	s	n/a
670.337	0.08	1340674	keystroke_i	i	n/a
670.513	0.088	1341026	keystroke_o	o	n/a
670.633	0.072	1341266	keystroke_n	n	n/a
671.113	0.08	1342226	keystroke_s	s	n/a
671.305	0.088	1342610	keystroke_Key.enter	Key.enter	n/a
671.401	11.482	1342802	prompt	n/a	careers consecutive nights beside\n
672.073	0.104	1344146	keystroke_c	c	n/a
672.217	0.096	1344434	keystroke_a	a	n/a
672.426	0.111	1344852	keystroke_r	r	n/a
672.665	0.128	1345330	keystroke_e	e	n/a
672.873	0.096	1345746	keystroke_e	e	n/a
673.169	0.096	1346338	keystroke_r	r	n/a
673.857	0.128	1347714	keystroke_Key.space	Key.space	n/a
674.449	0.0725	1348898	keystroke_Key.backspace	Key.backspace	n/a
674.5615	0.08	1349123	keystroke_s	s	n/a
674.6975	0.087	1349395	keystroke_Key.space	Key.space	n/a
674.9455	0.08	1349891	keystroke_c	c	n/a
675.0415	0.088	1350083	keystroke_o	o	n/a
675.4495	0.088	1350899	keystroke_n	n	n/a
675.9215	0.096	1351843	keystroke_s	s	n/a
676.2415	0.12	1352483	keystroke_e	e	n/a
676.5455	0.128	1353091	keystroke_c	c	n/a
