onset	duration	sample	value	key	prompt_text
8.282	16.483	16564	prompt	n/a	the quick brown fox jumps over a lazy dog\n
10.3065	0.011	20613	keystroke	t	n/a
10.3325	0.0745	20665	keystroke	h	n/a
10.422	0.075	20844	keystroke	e	n/a
10.722	0.09	21444	keystroke	Key.space	n/a
10.917	0.061	21834	keystroke	q	n/a
11.007	0.061	22014	keystroke	u	n/a
11.202	0.06	22404	keystroke	i	n/a
11.412	0.046	22824	keystroke	f	n/a
11.472	0.046	22944	keystroke	k	n/a
12.5815	0.0605	25163	keystroke	Key.backspace	n/a
12.761	0.076	25522	keystroke	Key.backspace	n/a
13.2725	0.075	26545	keystroke	c	n/a
14.067	0.06	28134	keystroke	k	n/a
15.357	0.105	30714	keystroke	Key.space	n/a
15.582	0.06	31164	keystroke	b	n/a
15.837	0.06	31674	keystroke	r	n/a
15.898	0.089	31796	keystroke	o	n/a
16.017	0.0905	32034	keystroke	w	n/a
16.1675	0.059	32335	keystroke	n	n/a
16.3915	0.135	32783	keystroke	Key.space	n/a
16.7065	0.045	33413	keystroke	f	n/a
16.797	0.09	33594	keystroke	o	n/a
16.917	0.135	33834	keystroke	r	n/a
17.4125	0.075	34825	keystroke	s	n/a
18.567	0.06	37134	keystroke	Key.backspace	n/a
18.732	0.06	37464	keystroke	Key.backspace	n/a
18.837	0.12	37674	keystroke	x	n/a
19.2865	0.105	38573	keystroke	Key.space	n/a
20.1865	0.045	40373	keystroke	j	n/a
20.3665	0.03	40733	keystroke	u	n/a
20.5165	0.075	41033	keystroke	m	n/a
20.7715	0.015	41543	keystroke	p	n/a
21.6565	0.105	43313	keystroke	s	n/a
21.7465	0.105	43493	keystroke	Key.space	n/a
21.9415	0.105	43883	keystroke	o	n/a
22.0615	0.061	44123	keystroke	v	n/a
22.1965	0.165	44393	keystroke	e	n/a
22.2715	0.12	44543	keystroke	r	n/a
22.3765	0.075	44753	keystroke	Key.space	n/a
22.5865	0.165	45173	keystroke	a	n/a
22.7065	0.12	45413	keystroke	Key.space	n/a
22.9465	0.12	45893	keystroke	l	n/a
23.0515	0.105	46103	keystroke	a	n/a
23.2765	0.12	46553	keystroke	z	n/a
23.4715	0.075	46943	keystroke	y	n/a
23.6665	0.1045	47333	keystroke	Key.space	n/a
24.2665	0.09	48533	keystroke	d	n/a
24.3415	0.105	48683	keystroke	o	n/a
24.5075	0.075	49015	keystroke	g	n/a
24.6715	0.091	49343	keystroke	Key.enter	n/a
24.7715	7.0275	49543	prompt	n/a	legitimate load economic women\n
25.3915	0.105	50783	keystroke	l	n/a
25.5265	0.075	51053	keystroke	e	n/a
25.7365	0.075	51473	keystroke	g	n/a
25.8265	0.06	51653	keystroke	i	n/a
25.9915	0.075	51983	keystroke	t	n/a
26.0815	0.03	52163	keystroke	i	n/a
26.2315	0.06	52463	keystroke	m	n/a
26.3065	0.15	52613	keystroke	a	n/a
26.4265	0.12	52853	keystroke	t	n/a
26.5015	0.12	53003	keystroke	e	n/a
26.6515	0.09	53303	keystroke	Key.space	n/a
26.7865	0.076	53573	keystroke	l	n/a
26.9815	0.075	53963	keystroke	o	n/a
27.4915	0.12	54983	keystroke	a	n/a
27.8075	0.075	55615	keystroke	d	n/a
28.5865	0.105	57173	keystroke	Key.space	n/a
28.9325	0.074	57865	keystroke	e	n/a
29.1715	0.09	58343	keystroke	c	n/a
29.2465	0.075	58493	keystroke	o	n/a
29.4265	0.03	58853	keystroke	n	n/a
29.7715	0.09	59543	keystroke	o	n/a
30.1165	0.06	60233	keystroke	m	n/a
30.2815	0.06	60563	keystroke	i	n/a
30.3865	0.12	60773	keystroke	c	n/a
30.4915	0.105	60983	keystroke	Key.space	n/a
30.672	0.1195	61344	keystroke	w	n/a
30.7615	0.0755	61523	keystroke	o	n/a
30.927	0.075	61854	keystroke	m	n/a
31.003	0.089	62006	keystroke	e	n/a
31.242	0.09	62484	keystroke	n	n/a
31.707	0.0895	63414	keystroke	Key.enter	n/a
31.804	5.89	63608	prompt	n/a	ghost jordan dome moderate\n
32.4865	0.0455	64973	keystroke	g	n/a
32.5615	0.0905	65123	keystroke	h	n/a
32.682	0.09	65364	keystroke	o	n/a
32.7865	0.1655	65573	keystroke	s	n/a
32.9665	0.0905	65933	keystroke	t	n/a
33.0865	0.0605	66173	keystroke	Key.space	n/a
33.567	0.06	67134	keystroke	j	n/a
33.672	0.0895	67344	keystroke	o	n/a
33.777	0.0745	67554	keystroke	r	n/a
34.002	0.105	68004	keystroke	d	n/a
34.1215	0.1055	68243	keystroke	a	n/a
34.197	0.0745	68394	keystroke	n	n/a
34.527	0.12	69054	keystroke	Key.space	n/a
35.6665	0.075	71333	keystroke	d	n/a
35.7565	0.09	71513	keystroke	o	n/a
35.8765	0.075	71753	keystroke	m	n/a
35.9665	0.045	71933	keystroke	e	n/a
36.3265	0.09	72653	keystroke	Key.space	n/a
36.432	0.0745	72864	keystroke	m	n/a
36.5215	0.105	73043	keystroke	o	n/a
36.8065	0.06	73613	keystroke	d	n/a
36.9715	0.06	73943	keystroke	e	n/a
37.1065	0.09	74213	keystroke	r	n/a
37.2115	0.1205	74423	keystroke	a	n/a
37.3165	0.075	74633	keystroke	t	n/a
37.3765	0.09	74753	keystroke	e	n/a
37.6165	0.075	75233	keystroke	Key.enter	n/a
37.698	9.462	75396	prompt	n/a	spain dressing museums looksmart\n
38.5915	0.075	77183	keystroke	s	n/a
38.8315	0.105	77663	keystroke	p	n/a
38.9215	0.15	77843	keystroke	a	n/a
39.0565	0.12	78113	keystroke	i	n/a
39.1465	0.075	78293	keystroke	n	n/a
39.2815	0.09	78563	keystroke	Key.space	n/a
39.5215	0.06	79043	keystroke	d	n/a
39.8665	0.165	79733	keystroke	r	n/a
39.9865	0.09	79973	keystroke	e	n/a
40.5265	0.075	81053	keystroke	s	n/a
40.6915	0.105	81383	keystroke	s	n/a
40.9315	0.09	81863	keystroke	i	n/a
41.0065	0.105	82013	keystroke	n	n/a
41.0825	0.104	82165	keystroke	g	n/a
41.2015	0.06	82403	keystroke	Key.space	n/a
41.3665	0.075	82733	keystroke	m	n/a
41.5765	0.06	83153	keystroke	u	n/a
41.8015	0.15	83603	keystroke	s	n/a
41.9365	0.09	83873	keystroke	e	n/a
42.0865	0.06	84173	keystroke	u	n/a
42.2665	0.06	84533	keystroke	m	n/a
42.3415	0.105	84683	keystroke	s	n/a
42.4765	0.105	84953	keystroke	Key.space	n/a
43.3165	0.075	86633	keystroke	l	n/a
43.5415	0.045	87083	keystroke	o	n/a
43.6765	0.06	87353	keystroke	o	n/a
43.8565	0.09	87713	keystroke	k	n/a
43.9915	0.12	87983	keystroke	s	n/a
44.2015	0.075	88403	keystroke	m	n/a
44.4265	0.15	88853	keystroke	a	n/a
44.5315	0.09	89063	keystroke	r	n/a
45.0265	0.075	90053	keystroke	t	n/a
45.2215	0.06	90443	keystroke	'	n/a
46.1665	0.09	92333	keystroke	Key.backspace	n/a
47.0515	0.105	94103	keystroke	Key.enter	n/a
47.165	10.989	94330	prompt	n/a	significance degrees conditions universities\n
47.8775	0.089	95755	keystroke	s	n/a
47.9515	0.075	95903	keystroke	i	n/a
48.0865	0.09	96173	keystroke	g	n/a
48.2215	0.045	96443	keystroke	n	n/a
48.6875	0.074	97375	keystroke	i	n/a
48.8965	0.075	97793	keystroke	f	n/a
48.9575	0.074	97915	keystroke	i	n/a
49.1365	0.105	98273	keystroke	c	n/a
49.2265	0.18	98453	keystroke	a	n/a
49.4215	0.06	98843	keystroke	n	n/a
49.6015	0.061	99203	keystroke	c	n/a
49.7515	0.075	99503	keystroke	e	n/a
50.2015	0.09	100403	keystroke	Key.space	n/a
50.5465	0.045	101093	keystroke	d	n/a
50.7115	0.045	101423	keystroke	e	n/a
50.8915	0.075	101783	keystroke	g	n/a
51.0865	0.105	102173	keystroke	r	n/a
51.2965	0.06	102593	keystroke	e	n/a
51.4315	0.075	102863	keystroke	e	n/a
51.5965	0.15	103193	keystroke	s	n/a
51.7615	0.075	103523	keystroke	Key.space	n/a
51.9715	0.09	103943	keystroke	c	n/a
52.0325	0.134	104065	keystroke	o	n/a
52.1515	0.09	104303	keystroke	n	n/a
52.6015	0.09	105203	keystroke	d	n/a
52.7065	0.06	105413	keystroke	i	n/a
52.8415	0.076	105683	keystroke	t	n/a
52.9325	0.089	105865	keystroke	i	n/a
53.1265	0.165	106253	keystroke	o	n/a
53.2765	0.075	106553	keystroke	n	n/a
53.4865	0.105	106973	keystroke	s	n/a
53.6965	0.075	107393	keystroke	Key.space	n/a
55.2415	0.075	110483	keystroke	u	n/a
55.5115	0.09	111023	keystroke	n	n/a
55.6165	0.091	111233	keystroke	i	n/a
55.7515	0.09	111503	keystroke	v	n/a
55.8715	0.136	111743	keystroke	e	n/a
55.9625	0.075	111925	keystroke	r	n/a
56.1425	0.104	112285	keystroke	s	n/a
56.2315	0.09	112463	keystroke	i	n/a
56.3065	0.09	112613	keystroke	t	n/a
56.4725	0.014	112945	keystroke	y	n/a
57.2515	0.075	114503	keystroke	Key.backspace	n/a
57.5075	0.09	115015	keystroke	i	n/a
57.5975	0.074	115195	keystroke	e	n/a
57.7625	0.119	115525	keystroke	s	n/a
58.0615	0.09	116123	keystroke	Key.enter	n/a
58.159	8.5605	116318	prompt	n/a	regular wizard burn letter\n
58.9625	0.119	117925	keystroke	r	n/a
59.0365	0.09	118073	keystroke	e	n/a
59.5925	0.119	119185	keystroke	g	n/a
59.6665	0.06	119333	keystroke	u	n/a
59.8475	0.09	119695	keystroke	l	n/a
59.9225	0.149	119845	keystroke	a	n/a
60.0575	0.119	120115	keystroke	r	n/a
60.7465	0.135	121493	keystroke	Key.space	n/a
61.0025	0.089	122005	keystroke	w	n/a
61.1075	0.075	122215	keystroke	i	n/a
61.3775	0.149	122755	keystroke	z	n/a
61.8865	0.135	123773	keystroke	a	n/a
62.0965	0.106	124193	keystroke	r	n/a
62.3815	0.12	124763	keystroke	d	n/a
62.4865	0.135	124973	keystroke	Key.space	n/a
63.5975	0.105	127195	keystroke	b	n/a
63.8075	0.059	127615	keystroke	u	n/a
64.1665	0.076	128333	keystroke	n	n/a
65.0815	0.075	130163	keystroke	Key.backspace	n/a
65.2625	0.09	130525	keystroke	r	n/a
65.3225	0.12	130645	keystroke	n	n/a
65.6365	0.09	131273	keystroke	Key.space	n/a
65.8015	0.121	131603	keystroke	l	n/a
65.8765	0.106	131753	keystroke	e	n/a
66.0575	0.059	132115	keystroke	t	n/a
66.1775	0.074	132355	keystroke	t	n/a
66.2675	0.134	132535	keystroke	e	n/a
66.3725	0.075	132745	keystroke	r	n/a
66.6575	0.059	133315	keystroke	Key.enter	n/a
66.725	4.749	133450	prompt	n/a	pilot limitation posted fingers\n
67.4515	0.106	134903	keystroke	p	n/a
67.6915	0.061	135383	keystroke	i	n/a
67.8725	0.06	135745	keystroke	l	n/a
68.0375	0.074	136075	keystroke	o	n/a
68.1575	0.06	136315	keystroke	t	n/a
68.2465	0.091	136493	keystroke	Key.space	n/a
68.3675	0.104	136735	keystroke	l	n/a
68.5015	0.091	137003	keystroke	i	n/a
68.6815	0.076	137363	keystroke	m	n/a
68.8175	0.075	137635	keystroke	i	n/a
69.4025	0.105	138805	keystroke	t	n/a
69.5215	0.166	139043	keystroke	a	n/a
69.8075	0.135	139615	keystroke	t	n/a
70.0025	0.075	140005	keystroke	i	n/a
70.1075	0.18	140215	keystroke	o	n/a
70.2275	0.075	140455	keystroke	n	n/a
71.3665	0.105	142733	keystroke	Key.enter	n/a
71.4845	6.2895	142969	prompt	n/a	court financing allen sisters\n
72.9875	0.135	145975	keystroke	c	n/a
73.0775	0.09	146155	keystroke	o	n/a
73.1815	0.061	146363	keystroke	u	n/a
73.2715	0.106	146543	keystroke	r	n/a
73.4975	0.075	146995	keystroke	t	n/a
73.6325	0.12	147265	keystroke	Key.space	n/a
74.0215	0.121	148043	keystroke	f	n/a
74.1275	0.06	148255	keystroke	i	n/a
74.3375	0.06	148675	keystroke	n	n/a
74.4125	0.12	148825	keystroke	a	n/a
74.5625	0.075	149125	keystroke	n	n/a
74.7425	0.105	149485	keystroke	c	n/a
74.8175	0.06	149635	keystroke	i	n/a
74.9675	0.104	149935	keystroke	n	n/a
75.0575	0.089	150115	keystroke	g	n/a
75.1615	0.06	150323	keystroke	Key.space	n/a
75.6575	0.15	151315	keystroke	a	n/a
75.9875	0.06	151975	keystroke	l	n/a
76.1075	0.09	152215	keystroke	l	n/a
76.2275	0.12	152455	keystroke	e	n/a
76.3325	0.075	152665	keystroke	n	n/a
76.4365	0.075	152873	keystroke	Key.space	n/a
76.6025	0.09	153205	keystroke	s	n/a
76.6925	0.075	153385	keystroke	i	n/a
76.7975	0.09	153595	keystroke	s	n/a
76.9175	0.105	153835	keystroke	t	n/a
77.0075	0.18	154015	keystroke	e	n/a
77.1275	0.09	154255	keystroke	r	n/a
77.4275	0.12	154855	keystroke	s	n/a
77.6975	0.075	155395	keystroke	Key.enter	n/a
77.779	4.915	155558	prompt	n/a	flowers racial rivers dies\n
78.4025	0.105	156805	keystroke	f	n/a
78.5375	0.075	157075	keystroke	l	n/a
78.7175	0.09	157435	keystroke	o	n/a
78.7925	0.12	157585	keystroke	w	n/a
78.8975	0.105	157795	keystroke	e	n/a
78.9425	0.12	157885	keystroke	r	n/a
79.1975	0.09	158395	keystroke	s	n/a
79.3165	0.091	158633	keystroke	Key.space	n/a
79.6325	0.12	159265	keystroke	r	n/a
79.7675	0.09	159535	keystroke	a	n/a
80.0075	0.105	160015	keystroke	c	n/a
80.0975	0.06	160195	keystroke	i	n/a
80.2175	0.15	160435	keystroke	a	n/a
80.3525	0.09	160705	keystroke	l	n/a
80.4425	0.075	160885	keystroke	Key.space	n/a
80.6525	0.075	161305	keystroke	r	n/a
80.7125	0.075	161425	keystroke	i	n/a
80.8925	0.105	161785	keystroke	v	n/a
80.9825	0.165	161965	keystroke	e	n/a
81.1025	0.105	162205	keystroke	r	n/a
81.3125	0.12	162625	keystroke	s	n/a
81.4025	0.12	162805	keystroke	Key.space	n/a
81.6275	0.09	163255	keystroke	d	n/a
81.7325	0.06	163465	keystroke	i	n/a
81.8225	0.075	163645	keystroke	e	n/a
82.0025	0.105	164005	keystroke	s	n/a
82.5875	0.104	165175	keystroke	Key.enter	n/a
82.698	11.606	165396	prompt	n/a	helen abandoned paying contributing\n
83.4425	0.059	166885	keystroke	h	n/a
83.6215	0.12	167243	keystroke	e	n/a
83.7865	0.075	167573	keystroke	l	n/a
83.9065	0.105	167813	keystroke	e	n/a
84.0565	0.046	168113	keystroke	n	n/a
84.2815	0.12	168563	keystroke	Key.space	n/a
84.5365	0.135	169073	keystroke	a	n/a
85.5265	0.105	171053	keystroke	b	n/a
85.7065	0.15	171413	keystroke	a	n/a
85.8715	0.075	171743	keystroke	n	n/a
86.0665	0.12	172133	keystroke	d	n/a
86.1725	0.119	172345	keystroke	o	n/a
86.3065	0.075	172613	keystroke	n	n/a
86.4865	0.06	172973	keystroke	e	n/a
86.7125	0.105	173425	keystroke	d	n/a
86.8315	0.12	173663	keystroke	Key.space	n/a
87.2075	0.119	174415	keystroke	p	n/a
87.4015	0.135	174803	keystroke	a	n/a
87.4915	0.06	174983	keystroke	y	n/a
87.7165	0.12	175433	keystroke	i	n/a
87.8075	0.089	175615	keystroke	n	n/a
87.9115	0.09	175823	keystroke	g	n/a
87.9715	0.075	175943	keystroke	Key.space	n/a
88.1815	0.09	176363	keystroke	c	n/a
88.2415	0.105	176483	keystroke	o	n/a
88.4215	0.09	176843	keystroke	n	n/a
88.6165	0.075	177233	keystroke	t	n/a
88.8115	0.105	177623	keystroke	r	n/a
88.9015	0.076	177803	keystroke	i	n/a
93.1505	0.026	186301	keystroke	b	n/a
93.2665	0.076	186533	keystroke	u	n/a
93.5965	0.091	187193	keystroke	t	n/a
93.6875	0.12	187375	keystroke	i	n/a
93.7765	0.09	187553	keystroke	n	n/a
93.8675	0.09	187735	keystroke	g	n/a
94.2275	0.075	188455	keystroke	Key.enter	n/a
94.309	18.579	188618	prompt	n/a	identified manufacturers atmospheric wishing\n
96.57	0	193140	keystroke	i	n/a
96.657	0.075	193314	keystroke	d	n/a
96.807	0.105	193614	keystroke	e	n/a
96.896	0.075	193792	keystroke	n	n/a
97.002	0.089	194004	keystroke	t	n/a
97.121	0.076	194242	keystroke	i	n/a
97.301	0.106	194602	keystroke	f	n/a
97.452	0.089	194904	keystroke	i	n/a
97.572	0.075	195144	keystroke	e	n/a
97.766	0.091	195532	keystroke	d	n/a
97.871	0.12	195742	keystroke	Key.space	n/a
98.426	0.076	196852	keystroke	m	n/a
98.546	0.136	197092	keystroke	a	n/a
98.697	0.059	197394	keystroke	n	n/a
98.861	0.061	197722	keystroke	u	n/a
98.996	0.121	197992	keystroke	f	n/a
99.101	0.091	198202	keystroke	a	n/a
99.312	0.165	198624	keystroke	c	n/a
99.462	0.12	198924	keystroke	t	n/a
99.596	0.076	199192	keystroke	u	n/a
99.701	0.1355	199402	keystroke	r	n/a
99.807	0.1195	199614	keystroke	e	n/a
100.1055	0.151	200211	keystroke	r	n/a
100.482	0.1045	200964	keystroke	s	n/a
101.1105	0.09	202221	keystroke	Key.space	n/a
101.4865	0.015	202973	keystroke	s	n/a
102.3105	0.075	204621	keystroke	Key.backspace	n/a
102.4305	0.136	204861	keystroke	a	n/a
102.6855	0.106	205371	keystroke	t	n/a
103.3905	0.061	206781	keystroke	o	n/a
103.5865	0.075	207173	keystroke	m	n/a
103.6915	0.12	207383	keystroke	o	n/a
104.9655	0.121	209931	keystroke	Key.backspace	n/a
105.1615	0.089	210323	keystroke	Key.backspace	n/a
105.3255	0.091	210651	keystroke	Key.backspace	n/a
106.0465	0.09	212093	keystroke	m	n/a
106.1205	0.151	212241	keystroke	o	n/a
106.3015	0.135	212603	keystroke	s	n/a
106.7365	0.135	213473	keystroke	p	n/a
107.6665	0.06	215333	keystroke	h	n/a
107.7275	0.088	215455	keystroke	e	n/a
108.1015	0.015	216203	keystroke	i	n/a
108.8065	0.074	217613	keystroke	Key.backspace	n/a
108.9865	0.075	217973	keystroke	r	n/a
109.1055	0.091	218211	keystroke	i	n/a
109.2705	0.091	218541	keystroke	c	n/a
109.2865	0.059	218573	keystroke	x	n/a
110.0955	0.166	220191	keystroke	Key.backspace	n/a
110.3205	0.106	220641	keystroke	Key.space	n/a
111.7615	0.09	223523	keystroke	w	n/a
111.9115	0.075	223823	keystroke	i	n/a
112.0615	0.12	224123	keystroke	s	n/a
112.1515	0.06	224303	keystroke	h	n/a
112.2565	0.075	224513	keystroke	i	n/a
112.3765	0.09	224753	keystroke	n	n/a
112.4815	0.09	224963	keystroke	g	n/a
112.8115	0.074	225623	keystroke	Key.enter	n/a
112.892	7.272	225784	prompt	n/a	dinner stem battery bandwidth\n
113.6065	0.105	227213	keystroke	d	n/a
113.6965	0.06	227393	keystroke	i	n/a
113.9515	0.045	227903	keystroke	n	n/a
114.0715	0.075	228143	keystroke	n	n/a
114.1765	0.12	228353	keystroke	e	n/a
114.2515	0.09	228503	keystroke	r	n/a
114.4165	0.12	228833	keystroke	Key.space	n/a
114.6415	0.105	229283	keystroke	s	n/a
114.8215	0.105	229643	keystroke	t	n/a
114.8815	0.135	229763	keystroke	e	n/a
115.1065	0.075	230213	keystroke	m	n/a
115.2715	0.09	230543	keystroke	Key.space	n/a
115.4365	0.075	230873	keystroke	b	n/a
115.5565	0.12	231113	keystroke	a	n/a
115.7515	0.075	231503	keystroke	t	n/a
115.8715	0.09	231743	keystroke	t	n/a
115.9765	0.15	231953	keystroke	e	n/a
116.0815	0.09	232163	keystroke	r	n/a
116.3365	0.06	232673	keystroke	y	n/a
116.5165	0.09	233033	keystroke	Key.space	n/a
116.8915	0.06	233783	keystroke	b	n/a
116.9815	0.12	233963	keystroke	a	n/a
117.7915	0.09	235583	keystroke	n	n/a
117.8665	0.105	235733	keystroke	d	n/a
118.1965	0.135	236393	keystroke	w	n/a
118.3165	0.06	236633	keystroke	i	n/a
118.4365	0.06	236873	keystroke	t	n/a
119.1265	0.09	238253	keystroke	Key.backspace	n/a
119.2465	0.12	238493	keystroke	d	n/a
119.4865	0.09	238973	keystroke	t	n/a
119.5315	0.075	239063	keystroke	h	n/a
120.0715	0.09	240143	keystroke	Key.enter	n/a
120.1795	9.344	240359	prompt	n/a	temperature controversy viewed canberra\n
120.9565	0.105	241913	keystroke	t	n/a
121.0465	0.105	242093	keystroke	e	n/a
121.1665	0.06	242333	keystroke	m	n/a
121.4065	0.06	242813	keystroke	p	n/a
121.5865	0.135	243173	keystroke	e	n/a
121.6765	0.105	243353	keystroke	r	n/a
122.4415	0.15	244883	keystroke	a	n/a
122.6215	0.09	245243	keystroke	t	n/a
122.7715	0.045	245543	keystroke	u	n/a
122.8615	0.12	245723	keystroke	r	n/a
122.9215	0.135	245843	keystroke	e	n/a
123.1165	0.105	246233	keystroke	Key.space	n/a
123.4015	0.135	246803	keystroke	c	n/a
123.4915	0.135	246983	keystroke	o	n/a
123.6115	0.09	247223	keystroke	n	n/a
123.7165	0.09	247433	keystroke	t	n/a
123.9265	0.09	247853	keystroke	r	n/a
124.0315	0.075	248063	keystroke	o	n/a
124.1815	0.09	248363	keystroke	v	n/a
124.3615	0.12	248723	keystroke	e	n/a
124.4365	0.12	248873	keystroke	r	n/a
124.7065	0.135	249413	keystroke	s	n/a
124.8565	0.06	249713	keystroke	y	n/a
125.8615	0.12	251723	keystroke	Key.space	n/a
126.1465	0.12	252293	keystroke	v	n/a
126.2965	0.075	252593	keystroke	i	n/a
126.4465	0.15	252893	keystroke	e	n/a
126.5815	0.12	253163	keystroke	w	n/a
127.0615	0.075	254123	keystroke	e	n/a
127.2415	0.12	254483	keystroke	d	n/a
127.3615	0.105	254723	keystroke	Key.space	n/a
127.676	0.135	255352	keystroke	c	n/a
127.916	0.135	255832	keystroke	a	n/a
128.052	0.074	256104	keystroke	n	n/a
128.487	0.074	256974	keystroke	b	n/a
128.651	0.091	257302	keystroke	e	n/a
128.876	0.046	257752	keystroke	r	n/a
128.996	0.105	257992	keystroke	r	n/a
129.086	0.15	258172	keystroke	a	n/a
129.416	0.105	258832	keystroke	Key.enter	n/a
129.528	7.0905	259056	prompt	n/a	card resolve issues voters\n
130.286	0.121	260572	keystroke	c	n/a
130.407	0.164	260814	keystroke	a	n/a
130.541	0.0895	261082	keystroke	r	n/a
130.7355	0.135	261471	keystroke	d	n/a
130.8555	0.1055	261711	keystroke	Key.space	n/a
131.0805	0.12	262161	keystroke	r	n/a
131.127	0.1185	262254	keystroke	e	n/a
131.397	0.149	262794	keystroke	s	n/a
131.4865	0.1045	262973	keystroke	o	n/a
131.7405	0.091	263481	keystroke	v	n/a
132.4305	0.075	264861	keystroke	Key.backspace	n/a
132.6855	0.106	265371	keystroke	l	n/a
133.0305	0.105	266061	keystroke	v	n/a
133.1205	0.12	266241	keystroke	e	n/a
133.5255	0.09	267051	keystroke	Key.space	n/a
133.9755	0.076	267951	keystroke	i	n/a
134.216	0.0605	268432	keystroke	s	n/a
134.3505	0.105	268701	keystroke	s	n/a
134.4855	0.045	268971	keystroke	u	n/a
134.5605	0.105	269121	keystroke	e	n/a
134.7565	0.119	269513	keystroke	s	n/a
134.9055	0.105	269811	keystroke	Key.space	n/a
135.6105	0.091	271221	keystroke	v	n/a
135.7015	0.105	271403	keystroke	o	n/a
135.8365	0.119	271673	keystroke	t	n/a
135.9415	0.134	271883	keystroke	e	n/a
136.0465	0.089	272093	keystroke	r	n/a
136.2705	0.121	272541	keystroke	s	n/a
136.5105	0.105	273021	keystroke	Key.enter	n/a
136.6235	8.6045	273247	prompt	n/a	junction kodak volleyball defining\n
137.3065	0.059	274613	keystroke	j	n/a
137.5915	0.044	275183	keystroke	u	n/a
137.7715	0.06	275543	keystroke	n	n/a
137.9355	0.09	275871	keystroke	c	n/a
138.0855	0.105	276171	keystroke	t	n/a
138.1755	0.135	276351	keystroke	i	n/a
138.2815	0.164	276563	keystroke	o	n/a
138.3865	0.09	276773	keystroke	n	n/a
138.4905	0.09	276981	keystroke	Key.space	n/a
138.6415	0.06	277283	keystroke	k	n/a
138.8055	0.091	277611	keystroke	o	n/a
138.9265	0.12	277853	keystroke	d	n/a
139.0315	0.135	278063	keystroke	a	n/a
139.2115	0.075	278423	keystroke	k	n/a
139.3755	0.09	278751	keystroke	Key.space	n/a
139.9315	0.12	279863	keystroke	v	n/a
140.0965	0.075	280193	keystroke	o	n/a
140.3065	0.059	280613	keystroke	l	n/a
140.4265	0.075	280853	keystroke	l	n/a
140.5165	0.105	281033	keystroke	e	n/a
140.6665	0.045	281333	keystroke	y	n/a
140.9215	0.089	281843	keystroke	v	n/a
141.1015	0.15	282203	keystroke	a	n/a
141.7755	0.06	283551	keystroke	Key.backspace	n/a
141.9855	0.061	283971	keystroke	Key.backspace	n/a
142.2565	0.075	284513	keystroke	b	n/a
142.3905	0.165	284781	keystroke	a	n/a
142.5415	0.06	285083	keystroke	l	n/a
142.6755	0.09	285351	keystroke	l	n/a
143.4255	0.12	286851	keystroke	Key.space	n/a
143.6215	0.075	287243	keystroke	d	n/a
143.7715	0.09	287543	keystroke	e	n/a
144.0865	0.12	288173	keystroke	f	n/a
144.2215	0.075	288443	keystroke	i	n/a
144.4465	0.06	288893	keystroke	n	n/a
144.5815	0.12	289163	keystroke	i	n/a
144.6715	0.09	289343	keystroke	n	n/a
144.7765	0.075	289553	keystroke	g	n/a
145.1365	0.089	290273	keystroke	Key.enter	n/a
145.2325	7.8105	290465	prompt	n/a	microwave morgan purpose awesome\n
146.0215	0.075	292043	keystroke	m	n/a
146.2015	0.06	292403	keystroke	i	n/a
146.3365	0.09	292673	keystroke	c	n/a
146.4565	0.075	292913	keystroke	o	n/a
147.1755	0.09	294351	keystroke	Key.backspace	n/a
147.3715	0.09	294743	keystroke	r	n/a
147.4465	0.09	294893	keystroke	o	n/a
147.7315	0.075	295463	keystroke	w	n/a
147.9115	0.119	295823	keystroke	a	n/a
148.0915	0.09	296183	keystroke	v	n/a
148.1365	0.15	296273	keystroke	e	n/a
148.2705	0.105	296541	keystroke	Key.space	n/a
148.4665	0.09	296933	keystroke	m	n/a
148.5415	0.12	297083	keystroke	o	n/a
148.6455	0.076	297291	keystroke	r	n/a
148.8565	0.09	297713	keystroke	g	n/a
148.9315	0.135	297863	keystroke	a	n/a
149.0215	0.09	298043	keystroke	n	n/a
149.3215	0.105	298643	keystroke	Key.space	n/a
149.5015	0.135	299003	keystroke	p	n/a
149.6665	0.075	299333	keystroke	u	n/a
150.7765	0.105	301553	keystroke	r	n/a
150.9415	0.15	301883	keystroke	p	n/a
151.0915	0.12	302183	keystroke	o	n/a
151.1665	0.135	302333	keystroke	s	n/a
151.2265	0.15	302453	keystroke	e	n/a
151.3615	0.09	302723	keystroke	Key.space	n/a
151.6615	0.105	303323	keystroke	a	n/a
151.8865	0.225	303773	keystroke	w	n/a
151.9765	0.165	303953	keystroke	e	n/a
152.4565	0.12	304913	keystroke	s	n/a
152.5315	0.12	305063	keystroke	o	n/a
152.6065	0.12	305213	keystroke	m	n/a
152.7415	0.075	305483	keystroke	e	n/a
152.9515	0.09	305903	keystroke	Key.enter	n/a
153.048	10.75	306096	prompt	n/a	dealt extraction somebody's purchasing\n
153.6715	0.06	307343	keystroke	d	n/a
153.8215	0.075	307643	keystroke	e	n/a
154.0465	0.15	308093	keystroke	a	n/a
154.2115	0.09	308423	keystroke	l	n/a
154.3315	0.075	308663	keystroke	t	n/a
154.9315	0.09	309863	keystroke	Key.space	n/a
155.3965	0.06	310793	keystroke	e	n/a
155.6065	0.105	311213	keystroke	x	n/a
155.8465	0.09	311693	keystroke	t	n/a
156.0265	0.105	312053	keystroke	a	n/a
156.7765	0.075	313553	keystroke	Key.backspace	n/a
156.8815	0.165	313763	keystroke	r	n/a
156.9865	0.135	313973	keystroke	a	n/a
157.2565	0.105	314513	keystroke	c	n/a
157.4065	0.09	314813	keystroke	t	n/a
157.7815	0.09	315563	keystroke	i	n/a
157.8865	0.27	315773	keystroke	o	n/a
157.9915	0.105	315983	keystroke	n	n/a
158.2765	0.105	316553	keystroke	Key.space	n/a
158.7565	0.105	317513	keystroke	s	n/a
158.8915	0.12	317783	keystroke	o	n/a
159.0265	0.075	318053	keystroke	m	n/a
159.1165	0.06	318233	keystroke	e	n/a
159.3265	0.06	318653	keystroke	b	n/a
159.4615	0.105	318923	keystroke	o	n/a
159.5815	0.135	319163	keystroke	d	n/a
159.7615	0.09	319523	keystroke	y	n/a
160.9615	0.105	321923	keystroke	'	n/a
161.6065	0.12	323213	keystroke	s	n/a
161.7565	0.09	323513	keystroke	Key.space	n/a
162.0565	0.075	324113	keystroke	p	n/a
162.2065	0.075	324413	keystroke	u	n/a
162.3115	0.09	324623	keystroke	r	n/a
162.8065	0.105	325613	keystroke	c	n/a
162.8815	0.075	325763	keystroke	h	n/a
163.0315	0.12	326063	keystroke	a	n/a
163.3165	0.12	326633	keystroke	s	n/a
163.3765	0.12	326753	keystroke	i	n/a
163.4515	0.09	326903	keystroke	n	n/a
163.5415	0.075	327083	keystroke	g	n/a
163.7065	0.09	327413	keystroke	Key.enter	n/a
163.803	13.3	327606	prompt	n/a	officially aging warnings system\n
164.4565	0.075	328913	keystroke	c	n/a
164.5465	0.09	329093	keystroke	o	n/a
165.1465	0.09	330293	keystroke	Key.backspace	n/a
165.3265	0.075	330653	keystroke	Key.backspace	n/a
165.5665	0.09	331133	keystroke	o	n/a
165.8515	0.06	331703	keystroke	f	n/a
165.9715	0.075	331943	keystroke	f	n/a
166.0615	0.045	332123	keystroke	i	n/a
166.1665	0.105	332333	keystroke	c	n/a
166.2565	0.075	332513	keystroke	i	n/a
166.3615	0.135	332723	keystroke	a	n/a
166.4815	0.075	332963	keystroke	l	n/a
166.6165	0.06	333233	keystroke	l	n/a
166.7815	0.06	333563	keystroke	y	n/a
166.8715	0.105	333743	keystroke	Key.space	n/a
167.2315	0.12	334463	keystroke	a	n/a
167.3815	0.105	334763	keystroke	g	n/a
167.5765	0.045	335153	keystroke	a	n/a
168.1615	0.135	336323	keystroke	i	n/a
168.2515	0.1045	336503	keystroke	n	n/a
168.836	0.105	337672	keystroke	g	n/a
168.971	0.1055	337942	keystroke	Key.space	n/a
171.299	0.042	342598	keystroke	Key.backspace	n/a
171.446	0.09	342892	keystroke	Key.backspace	n/a
171.641	0.075	343282	keystroke	Key.backspace	n/a
171.851	0.06	343702	keystroke	Key.backspace	n/a
172.166	0.075	344332	keystroke	Key.backspace	n/a
173.051	0.135	346102	keystroke	i	n/a
173.141	0.09	346282	keystroke	n	n/a
173.291	0.105	346582	keystroke	g	n/a
173.426	0.105	346852	keystroke	Key.space	n/a
174.161	0.075	348322	keystroke	w	n/a
174.386	0.18	348772	keystroke	a	n/a
174.536	0.12	349072	keystroke	r	n/a
174.866	0.075	349732	keystroke	n	n/a
174.986	0.105	349972	keystroke	i	n/a
175.061	0.105	350122	keystroke	n	n/a
175.181	0.09	350362	keystroke	g	n/a
175.736	0.12	351472	keystroke	s	n/a
175.871	0.09	351742	keystroke	Key.space	n/a
176.126	0.12	352252	keystroke	s	n/a
176.276	0.075	352552	keystroke	y	n/a
176.352	0.149	352704	keystroke	s	n/a
176.546	0.12	353092	keystroke	t	n/a
176.636	0.135	353272	keystroke	e	n/a
176.772	0.074	353544	keystroke	m	n/a
176.996	0.105	353992	keystroke	Key.enter	n/a
177.109	12.385	354218	prompt	n/a	complications carbon positive permits\n
178.046	0.09	356092	keystroke	c	n/a
178.091	0.09	356182	keystroke	o	n/a
178.286	0.075	356572	keystroke	m	n/a
178.496	0.09	356992	keystroke	p	n/a
179.156	0.105	358312	keystroke	l	n/a
179.246	0.105	358492	keystroke	i	n/a
179.411	0.15	358822	keystroke	c	n/a
179.547	0.179	359094	keystroke	a	n/a
179.606	0.135	359212	keystroke	t	n/a
179.771	0.09	359542	keystroke	i	n/a
179.831	0.18	359662	keystroke	o	n/a
179.951	0.075	359902	keystroke	n	n/a
180.041	0.12	360082	keystroke	s	n/a
180.176	0.105	360352	keystroke	Key.space	n/a
180.971	0.12	361942	keystroke	c	n/a
181.121	0.15	362242	keystroke	a	n/a
181.316	0.09	362632	keystroke	r	n/a
181.616	0.045	363232	keystroke	b	n/a
181.736	0.12	363472	keystroke	o	n/a
181.871	0.105	363742	keystroke	n	n/a
182.096	0.105	364192	keystroke	Key.space	n/a
182.351	0.09	364702	keystroke	p	n/a
182.531	0.09	365062	keystroke	o	n/a
182.666	0.12	365332	keystroke	s	n/a
182.771	0.06	365542	keystroke	i	n/a
182.981	0.045	365962	keystroke	r	n/a
182.982	0.059	365964	keystroke	t	n/a
183.071	0.075	366142	keystroke	i	n/a
183.206	0.135	366412	keystroke	v	n/a
183.311	0.12	366622	keystroke	e	n/a
183.461	0.09	366922	keystroke	Key.space	n/a
183.926	0.075	367852	keystroke	Key.backspace	n/a
184.106	0.09	368212	keystroke	Key.backspace	n/a
184.301	0.075	368602	keystroke	Key.backspace	n/a
184.511	0.09	369022	keystroke	Key.backspace	n/a
184.886	0.09	369772	keystroke	Key.backspace	n/a
185.472	0.074	370944	keystroke	t	n/a
185.561	0.075	371122	keystroke	i	n/a
185.921	0.09	371842	keystroke	Key.backspace	n/a
186.191	0.105	372382	keystroke	Key.backspace	n/a
186.431	0.09	372862	keystroke	Key.backspace	n/a
186.686	0.06	373372	keystroke	t	n/a
186.776	0.075	373552	keystroke	i	n/a
186.911	0.105	373822	keystroke	v	n/a
186.971	0.105	373942	keystroke	e	n/a
187.121	0.09	374242	keystroke	Key.space	n/a
187.976	0.09	375952	keystroke	p	n/a
188.231	0.18	376462	keystroke	e	n/a
188.306	0.12	376612	keystroke	r	n/a
188.546	0.09	377092	keystroke	m	n/a
188.651	0.105	377302	keystroke	i	n/a
188.726	0.09	377452	keystroke	t	n/a
188.951	0.12	377902	keystroke	s	n/a
189.401	0.09	378802	keystroke	Key.enter	n/a
189.502	14.826	379004	prompt	n/a	investigations computational chris city\n
190.241	0.045	380482	keystroke	i	n/a
190.421	0.06	380842	keystroke	n	n/a
190.541	0.075	381082	keystroke	v	n/a
190.631	0.15	381262	keystroke	e	n/a
190.931	0.105	381862	keystroke	s	n/a
191.111	0.09	382222	keystroke	t	n/a
191.216	0.075	382432	keystroke	i	n/a
191.366	0.09	382732	keystroke	g	n/a
191.471	0.135	382942	keystroke	a	n/a
191.651	0.105	383302	keystroke	t	n/a
191.771	0.135	383542	keystroke	i	n/a
191.846	0.225	383692	keystroke	o	n/a
191.936	0.06	383872	keystroke	i	n/a
191.966	0.075	383932	keystroke	n	n/a
192.042	0.134	384084	keystroke	s	n/a
192.146	0.105	384292	keystroke	Key.space	n/a
192.371	0.105	384742	keystroke	c	n/a
192.462	0.119	384924	keystroke	o	n/a
192.641	0.105	385282	keystroke	m	n/a
194.456	0.075	388912	keystroke	Key.backspace	n/a
194.666	0.09	389332	keystroke	Key.backspace	n/a
194.846	0.09	389692	keystroke	Key.backspace	n/a
195.041	0.09	390082	keystroke	Key.backspace	n/a
195.221	0.09	390442	keystroke	Key.backspace	n/a
195.446	0.09	390892	keystroke	Key.backspace	n/a
195.881	0.09	391762	keystroke	Key.backspace	n/a
196.662	0.074	393324	keystroke	n	n/a
196.797	0.119	393594	keystroke	s	n/a
196.991	0.105	393982	keystroke	Key.space	n/a
198.176	0.09	396352	keystroke	c	n/a
198.251	0.105	396502	keystroke	o	n/a
198.401	0.075	396802	keystroke	m	n/a
198.731	0.12	397462	keystroke	p	n/a
198.942	0.059	397884	keystroke	u	n/a
199.256	0.181	398512	keystroke	t	n/a
199.511	0.196	399022	keystroke	a	n/a
200.096	0.12	400192	keystroke	t	n/a
200.276	0.09	400552	keystroke	i	n/a
200.411	0.165	400822	keystroke	o	n/a
200.516	0.09	401032	keystroke	n	n/a
200.876	0.135	401752	keystroke	a	n/a
200.981	0.09	401962	keystroke	l	n/a
201.731	0.105	403462	keystroke	Key.space	n/a
202.136	0.121	404272	keystroke	c	n/a
202.271	0.06	404542	keystroke	h	n/a
202.467	0.09	404934	keystroke	r	n/a
202.526	0.075	405052	keystroke	i	n/a
202.646	0.15	405292	keystroke	s	n/a
202.841	0.105	405682	keystroke	Key.space	n/a
203.262	0.105	406524	keystroke	c	n/a
203.336	0.075	406672	keystroke	i	n/a
203.456	0.075	406912	keystroke	t	n/a
203.712	0.089	407424	keystroke	y	n/a
204.236	0.09	408472	keystroke	Key.enter	n/a
204.333	8.05	408666	prompt	n/a	olympic moldova rock corpus\n
204.911	0.061	409822	keystroke	o	n/a
205.076	0.075	410152	keystroke	l	n/a
205.227	0.045	410454	keystroke	y	n/a
205.406	0.075	410812	keystroke	m	n/a
205.766	0.105	411532	keystroke	p	n/a
206.006	0.06	412012	keystroke	i	n/a
206.111	0.091	412222	keystroke	c	n/a
206.276	0.105	412552	keystroke	Key.space	n/a
206.562	0.074	413124	keystroke	m	n/a
206.727	0.09	413454	keystroke	o	n/a
207.087	0.105	414174	keystroke	l	n/a
208.9915	0.059	417983	keystroke	d	n/a
209.2015	0.09	418403	keystroke	o	n/a
209.4705	0.12	418941	keystroke	v	n/a
209.6355	0.135	419271	keystroke	a	n/a
209.8005	0.121	419601	keystroke	Key.space	n/a
210.2815	0.119	420563	keystroke	r	n/a
210.3865	0.105	420773	keystroke	o	n/a
210.5665	0.134	421133	keystroke	c	n/a
210.7155	0.045	421431	keystroke	k	n/a
210.7455	0.121	421491	keystroke	Key.space	n/a
211.1505	0.09	422301	keystroke	c	n/a
211.2715	0.104	422543	keystroke	o	n/a
211.4365	0.105	422873	keystroke	r	n/a
211.6165	0.09	423233	keystroke	p	n/a
211.8115	0.074	423623	keystroke	u	n/a
211.9755	0.105	423951	keystroke	s	n/a
212.2905	0.09	424581	keystroke	Key.enter	n/a
212.3895	4.6885	424779	prompt	n/a	assign kernel static tell\n
212.9965	0.119	425993	keystroke	a	n/a
213.2065	0.074	426413	keystroke	s	n/a
213.3415	0.105	426683	keystroke	s	n/a
213.4155	0.076	426831	keystroke	i	n/a
213.5665	0.089	427133	keystroke	g	n/a
213.6715	0.06	427343	keystroke	n	n/a
213.7755	0.09	427551	keystroke	Key.space	n/a
214.0165	0.105	428033	keystroke	k	n/a
214.1655	0.106	428331	keystroke	e	n/a
214.4065	0.075	428813	keystroke	r	n/a
214.6915	0.059	429383	keystroke	n	n/a
214.8565	0.089	429713	keystroke	e	n/a
214.9615	0.105	429923	keystroke	l	n/a
215.1105	0.09	430221	keystroke	Key.space	n/a
215.3065	0.09	430613	keystroke	s	n/a
215.4565	0.12	430913	keystroke	t	n/a
215.5915	0.18	431183	keystroke	a	n/a
215.7265	0.12	431453	keystroke	t	n/a
215.8315	0.09	431663	keystroke	i	n/a
216.0255	0.091	432051	keystroke	c	n/a
216.1005	0.105	432201	keystroke	Key.space	n/a
216.3565	0.09	432713	keystroke	t	n/a
216.4765	0.12	432953	keystroke	e	n/a
216.6415	0.075	433283	keystroke	l	n/a
216.7915	0.089	433583	keystroke	l	n/a
216.9865	0.09	433973	keystroke	Key.enter	n/a
217.083	5.785	434166	prompt	n/a	dangerous tower sara passes\n
217.7215	0.105	435443	keystroke	d	n/a
217.8565	0.15	435713	keystroke	a	n/a
217.9915	0.075	435983	keystroke	n	n/a
218.0965	0.089	436193	keystroke	g	n/a
218.2305	0.181	436461	keystroke	e	n/a
218.3665	0.075	436733	keystroke	r	n/a
218.5765	0.12	437153	keystroke	o	n/a
218.6665	0.09	437333	keystroke	u	n/a
218.7855	0.151	437571	keystroke	s	n/a
218.9215	0.075	437843	keystroke	Key.space	n/a
219.1315	0.089	438263	keystroke	t	n/a
219.2505	0.091	438501	keystroke	o	n/a
219.3865	0.195	438773	keystroke	w	n/a
219.5365	0.12	439073	keystroke	e	n/a
219.6265	0.15	439253	keystroke	r	n/a
219.9405	0.09	439881	keystroke	Key.space	n/a
220.2115	0.105	440423	keystroke	s	n/a
220.3615	0.165	440723	keystroke	a	n/a
220.6165	0.12	441233	keystroke	r	n/a
220.7375	0.164	441475	keystroke	a	n/a
220.9305	0.12	441861	keystroke	Key.space	n/a
221.7565	0.12	443513	keystroke	p	n/a
221.8765	0.135	443753	keystroke	a	n/a
222.1315	0.075	444263	keystroke	s	n/a
222.2805	0.121	444561	keystroke	s	n/a
222.3865	0.105	444773	keystroke	e	n/a
222.5215	0.164	445043	keystroke	s	n/a
222.7915	0.075	445583	keystroke	Key.enter	n/a
222.8735	7.3	445747	prompt	n/a	luther barry immediate urge\n
223.5565	0.105	447113	keystroke	l	n/a
223.7965	0.03	447593	keystroke	u	n/a
223.9915	0.059	447983	keystroke	t	n/a
224.0515	0.06	448103	keystroke	h	n/a
224.1265	0.12	448253	keystroke	e	n/a
224.1865	0.105	448373	keystroke	r	n/a
224.3355	0.15	448671	keystroke	Key.space	n/a
224.5915	0.06	449183	keystroke	b	n/a
224.6815	0.15	449363	keystroke	a	n/a
224.9815	0.06	449963	keystroke	r	n/a
225.0865	0.105	450173	keystroke	r	n/a
225.2505	0.061	450501	keystroke	y	n/a
226.3165	0.12	452633	keystroke	Key.space	n/a
226.4665	0.06	452933	keystroke	i	n/a
226.7065	0.06	453413	keystroke	m	n/a
226.8265	0.075	453653	keystroke	m	n/a
226.9315	0.075	453863	keystroke	e	n/a
227.1715	0.09	454343	keystroke	d	n/a
227.2465	0.075	454493	keystroke	i	n/a
227.3665	0.165	454733	keystroke	a	n/a
227.5015	0.105	455003	keystroke	t	n/a
227.5465	0.15	455093	keystroke	e	n/a
227.7715	0.105	455543	keystroke	Key.space	n/a
229.451	0.0605	458902	keystroke	u	n/a
229.571	0.1205	459142	keystroke	r	n/a
229.841	0.105	459682	keystroke	g	n/a
229.886	0.1205	459772	keystroke	e	n/a
230.066	0.105	460132	keystroke	Key.enter	n/a
230.1795	5.843	460359	prompt	n/a	immediate lamps submissions korean\n
230.801	0.075	461602	keystroke	i	n/a
230.996	0.045	461992	keystroke	m	n/a
231.116	0.075	462232	keystroke	m	n/a
231.2065	0.0595	462413	keystroke	e	n/a
231.4015	0.0895	462803	keystroke	d	n/a
231.476	0.075	462952	keystroke	i	n/a
231.566	0.15	463132	keystroke	a	n/a
231.6865	0.1045	463373	keystroke	t	n/a
231.746	0.12	463492	keystroke	e	n/a
231.9415	0.1045	463883	keystroke	Key.space	n/a
232.136	0.105	464272	keystroke	l	n/a
232.256	0.135	464512	keystroke	a	n/a
232.316	0.09	464632	keystroke	m	n/a
232.496	0.0905	464992	keystroke	p	n/a
232.631	0.135	465262	keystroke	s	n/a
232.751	0.105	465502	keystroke	Key.space	n/a
233.171	0.15	466342	keystroke	s	n/a
233.306	0.045	466612	keystroke	u	n/a
233.516	0.06	467032	keystroke	b	n/a
233.711	0.075	467422	keystroke	m	n/a
233.846	0.0745	467692	keystroke	i	n/a
233.9655	0.09	467931	keystroke	s	n/a
234.1155	0.15	468231	keystroke	s	n/a
234.2055	0.1055	468411	keystroke	i	n/a
234.3115	0.1495	468623	keystroke	o	n/a
234.431	0.0895	468862	keystroke	n	n/a
234.5355	0.105	469071	keystroke	s	n/a
234.6255	0.1055	469251	keystroke	Key.space	n/a
234.7905	0.061	469581	keystroke	k	n/a
234.9405	0.105	469881	keystroke	o	n/a
235.1055	0.165	470211	keystroke	r	n/a
235.1955	0.12	470391	keystroke	e	n/a
235.3905	0.165	470781	keystroke	a	n/a
235.5705	0.06	471141	keystroke	n	n/a
235.9755	0.045	471951	keystroke	Key.enter	n/a
236.0275	5.0965	472055	prompt	n/a	spine retain she'd fever\n
236.8315	0.149	473663	keystroke	s	n/a
236.9505	0.09	473901	keystroke	p	n/a
237.1455	0.075	474291	keystroke	i	n/a
237.2805	0.09	474561	keystroke	n	n/a
237.4305	0.12	474861	keystroke	e	n/a
237.5655	0.06	475131	keystroke	Key.space	n/a
237.9855	0.18	475971	keystroke	r	n/a
238.1205	0.12	476241	keystroke	e	n/a
238.4205	0.135	476841	keystroke	t	n/a
238.5405	0.166	477081	keystroke	a	n/a
238.6605	0.09	477321	keystroke	i	n/a
238.8105	0.09	477621	keystroke	n	n/a
238.9905	0.105	477981	keystroke	Key.space	n/a
239.1555	0.12	478311	keystroke	s	n/a
239.2605	0.06	478521	keystroke	h	n/a
239.4255	0.075	478851	keystroke	e	n/a
239.7405	0.105	479481	keystroke	'	n/a
239.9055	0.075	479811	keystroke	d	n/a
240.0555	0.09	480111	keystroke	Key.space	n/a
240.2805	0.091	480561	keystroke	f	n/a
240.4305	0.06	480861	keystroke	e	n/a
240.6105	0.09	481221	keystroke	v	n/a
240.6855	0.195	481371	keystroke	e	n/a
240.8355	0.075	481671	keystroke	r	n/a
241.0305	0.09	482061	keystroke	Key.enter	n/a
241.1295	9.548	482259	prompt	n/a	uzbekistan employ utah british\n
241.9615	0.044	483923	keystroke	u	n/a
242.1855	0.105	484371	keystroke	z	n/a
242.4555	0.075	484911	keystroke	b	n/a
242.6055	0.09	485211	keystroke	e	n/a
242.7405	0.06	485481	keystroke	k	n/a
242.9055	0.075	485811	keystroke	i	n/a
243.0555	0.105	486111	keystroke	s	n/a
243.2365	0.104	486473	keystroke	t	n/a
243.3255	0.12	486651	keystroke	a	n/a
243.4755	0.061	486951	keystroke	n	n/a
244.1055	0.09	488211	keystroke	Key.space	n/a
244.3465	0.089	488693	keystroke	e	n/a
244.4505	0.075	488901	keystroke	m	n/a
244.6305	0.075	489261	keystroke	p	n/a
244.8255	0.075	489651	keystroke	l	n/a
245.1255	0.09	490251	keystroke	y	n/a
246.4005	0.06	492801	keystroke	Key.backspace	n/a
246.9865	0.104	493973	keystroke	o	n/a
247.2255	0.06	494451	keystroke	y	n/a
247.7055	0.09	495411	keystroke	Key.space	n/a
248.1255	0.045	496251	keystroke	u	n/a
248.3055	0.106	496611	keystroke	t	n/a
248.4415	0.15	496883	keystroke	a	n/a
248.6055	0.076	497211	keystroke	h	n/a
248.7255	0.105	497451	keystroke	Key.space	n/a
249.4015	0.06	498803	keystroke	b	n/a
249.5505	0.075	499101	keystroke	r	n/a
249.6405	0.045	499281	keystroke	i	n/a
249.7765	0.075	499553	keystroke	t	n/a
249.8805	0.076	499761	keystroke	i	n/a
250.2255	0.136	500451	keystroke	s	n/a
250.3765	0.059	500753	keystroke	h	n/a
250.5855	0.09	501171	keystroke	Key.enter	n/a
250.683	5.47	501366	prompt	n/a	hereby ending whats brother\n
251.5465	0.075	503093	keystroke	h	n/a
251.6805	0.106	503361	keystroke	e	n/a
252.0705	0.12	504141	keystroke	r	n/a
252.1605	0.135	504321	keystroke	e	n/a
252.5655	0.135	505131	keystroke	b	n/a
252.6715	0.075	505343	keystroke	y	n/a
252.8655	0.09	505731	keystroke	Key.space	n/a
253.0915	0.09	506183	keystroke	e	n/a
253.2255	0.061	506451	keystroke	n	n/a
253.3455	0.106	506691	keystroke	d	n/a
253.4205	0.121	506841	keystroke	i	n/a
253.5265	0.075	507053	keystroke	n	n/a
253.6165	0.105	507233	keystroke	g	n/a
253.6905	0.075	507381	keystroke	Key.space	n/a
253.9615	0.089	507923	keystroke	w	n/a
254.0965	0.059	508193	keystroke	h	n/a
254.1855	0.151	508371	keystroke	a	n/a
254.2755	0.12	508551	keystroke	t	n/a
254.4565	0.15	508913	keystroke	s	n/a
254.6205	0.105	509241	keystroke	Key.space	n/a
254.8615	0.075	509723	keystroke	b	n/a
255.0715	0.09	510143	keystroke	r	n/a
255.1615	0.105	510323	keystroke	o	n/a
255.4305	0.075	510861	keystroke	t	n/a
255.5365	0.075	511073	keystroke	h	n/a
255.6415	0.135	511283	keystroke	e	n/a
255.7165	0.105	511433	keystroke	r	n/a
256.0905	0.06	512181	keystroke	Key.enter	n/a
256.1575	6.385	512315	prompt	n/a	dosage asia adopted coding\n
256.9165	0.104	513833	keystroke	d	n/a
257.0805	0.106	514161	keystroke	o	n/a
257.3665	0.105	514733	keystroke	s	n/a
257.5015	0.135	515003	keystroke	a	n/a
257.6815	0.09	515363	keystroke	g	n/a
257.7265	0.135	515453	keystroke	e	n/a
257.8905	0.091	515781	keystroke	Key.space	n/a
258.1615	0.105	516323	keystroke	a	n/a
258.3865	0.09	516773	keystroke	s	n/a
258.4915	0.059	516983	keystroke	i	n/a
258.5965	0.135	517193	keystroke	a	n/a
258.7915	0.104	517583	keystroke	Key.space	n/a
259.2255	0.121	518451	keystroke	a	n/a
259.4965	0.12	518993	keystroke	d	n/a
259.6465	0.105	519293	keystroke	o	n/a
259.9015	0.075	519803	keystroke	p	n/a
260.2165	0.149	520433	keystroke	t	n/a
260.2915	0.12	520583	keystroke	e	n/a
260.7265	0.09	521453	keystroke	d	n/a
261.0565	0.104	522113	keystroke	Key.space	n/a
261.5965	0.12	523193	keystroke	c	n/a
261.7455	0.105	523491	keystroke	o	n/a
261.8665	0.105	523733	keystroke	d	n/a
262.0015	0.075	524003	keystroke	i	n/a
262.1365	0.075	524273	keystroke	n	n/a
262.2265	0.135	524453	keystroke	g	n/a
262.4365	0.104	524873	keystroke	Key.enter	n/a
262.5475	6.2205	525095	prompt	n/a	comp facilities occur incentive\n
263.1115	0.135	526223	keystroke	c	n/a
263.2305	0.091	526461	keystroke	o	n/a
263.3815	0.075	526763	keystroke	m	n/a
263.5315	0.12	527063	keystroke	p	n/a
263.6965	0.09	527393	keystroke	Key.space	n/a
263.8915	0.135	527783	keystroke	f	n/a
263.9965	0.105	527993	keystroke	a	n/a
264.2215	0.12	528443	keystroke	c	n/a
264.3115	0.06	528623	keystroke	i	n/a
264.4915	0.075	528983	keystroke	l	n/a
264.6115	0.075	529223	keystroke	i	n/a
264.7165	0.105	529433	keystroke	t	n/a
264.8365	0.105	529673	keystroke	i	n/a
264.8965	0.09	529793	keystroke	e	n/a
265.0765	0.135	530153	keystroke	s	n/a
265.2115	0.089	530423	keystroke	Key.space	n/a
265.3465	0.105	530693	keystroke	o	n/a
265.5265	0.06	531053	keystroke	c	n/a
265.6765	0.075	531353	keystroke	c	n/a
265.796	0.075	531592	keystroke	u	n/a
265.9465	0.1195	531893	keystroke	r	n/a
266.155	0.121	532310	keystroke	Key.space	n/a
266.606	0.0755	533212	keystroke	i	n/a
266.891	0.075	533782	keystroke	n	n/a
267.056	0.09	534112	keystroke	c	n/a
267.281	0.075	534562	keystroke	e	n/a
267.806	0.075	535612	keystroke	n	n/a
268.076	0.075	536152	keystroke	t	n/a
268.181	0.09	536362	keystroke	i	n/a
268.331	0.105	536662	keystroke	v	n/a
268.391	0.18	536782	keystroke	e	n/a
268.676	0.09	537352	keystroke	Key.enter	n/a
268.776	8.707	537552	prompt	n/a	blackjack commission olympics lists\n
269.531	0.06	539062	keystroke	b	n/a
269.756	0.105	539512	keystroke	l	n/a
269.921	0.15	539842	keystroke	a	n/a
270.551	0.105	541102	keystroke	c	n/a
270.671	0.06	541342	keystroke	k	n/a
271.031	0.06	542062	keystroke	j	n/a
271.136	0.105	542272	keystroke	a	n/a
271.346	0.12	542692	keystroke	c	n/a
271.466	0.075	542932	keystroke	k	n/a
271.886	0.105	543772	keystroke	Key.space	n/a
272.141	0.105	544282	keystroke	c	n/a
272.246	0.09	544492	keystroke	o	n/a
272.561	0.06	545122	keystroke	m	n/a
272.696	0.075	545392	keystroke	m	n/a
272.876	0.075	545752	keystroke	i	n/a
273.101	0.06	546202	keystroke	s	n/a
273.251	0.12	546502	keystroke	s	n/a
273.326	0.06	546652	keystroke	i	n/a
273.611	0.03	547222	keystroke	o	n/a
273.626	0.075	547252	keystroke	n	n/a
273.851	0.105	547702	keystroke	Key.space	n/a
274.286	0.09	548572	keystroke	o	n/a
274.481	0.075	548962	keystroke	l	n/a
274.646	0.06	549292	keystroke	y	n/a
274.826	0.075	549652	keystroke	m	n/a
275.081	0.075	550162	keystroke	p	n/a
275.291	0.06	550582	keystroke	i	n/a
275.546	0.075	551092	keystroke	c	n/a
275.696	0.12	551392	keystroke	s	n/a
275.876	0.105	551752	keystroke	Key.space	n/a
276.012	0.119	552024	keystroke	l	n/a
276.132	0.119	552264	keystroke	i	n/a
276.251	0.12	552502	keystroke	s	n/a
276.401	0.09	552802	keystroke	t	n/a
276.551	0.12	553102	keystroke	s	n/a
277.391	0.09	554782	keystroke	Key.enter	n/a
277.487	13.736	554974	prompt	n/a	charger denver reflected widescreen\n
278.486	0.105	556972	keystroke	c	n/a
278.606	0.09	557212	keystroke	h	n/a
278.726	0.075	557452	keystroke	e	n/a
278.726	0.09	557452	keystroke	r	n/a
280.001	0.045	560002	keystroke	=	n/a
280.256	0.06	560512	keystroke	=	n/a
280.886	0.09	561772	keystroke	Key.backspace	n/a
281.126	0.105	562252	keystroke	Key.backspace	n/a
281.351	0.09	562702	keystroke	Key.backspace	n/a
281.621	0.09	563242	keystroke	Key.backspace	n/a
282.131	0.15	564262	keystroke	a	n/a
282.341	0.075	564682	keystroke	r	n/a
282.551	0.105	565102	keystroke	g	n/a
282.641	0.15	565282	keystroke	e	n/a
282.761	0.12	565522	keystroke	r	n/a
283.181	0.15	566362	keystroke	Key.space	n/a
283.601	0.12	567202	keystroke	d	n/a
283.796	0.045	567592	keystroke	n	n/a
284.501	0.06	569002	keystroke	Key.backspace	n/a
284.636	0.075	569272	keystroke	e	n/a
284.801	0.045	569602	keystroke	n	n/a
285.071	0.09	570142	keystroke	v	n/a
285.221	0.15	570442	keystroke	e	n/a
285.326	0.12	570652	keystroke	r	n/a
286.166	0.075	572332	keystroke	Key.space	n/a
286.361	0.165	572722	keystroke	r	n/a
286.451	0.135	572902	keystroke	e	n/a
287.081	0.135	574162	keystroke	f	n/a
287.606	0.105	575212	keystroke	l	n/a
287.726	0.045	575452	keystroke	e	n/a
287.906	0.135	575812	keystroke	c	n/a
288.071	0.15	576142	keystroke	t	n/a
288.161	0.135	576322	keystroke	e	n/a
288.371	0.135	576742	keystroke	d	n/a
288.491	0.09	576982	keystroke	Key.space	n/a
288.641	0.12	577282	keystroke	w	n/a
288.776	0.075	577552	keystroke	i	n/a
288.896	0.075	577792	keystroke	d	n/a
289.046	0.075	578092	keystroke	e	n/a
289.256	0.105	578512	keystroke	s	n/a
289.496	0.105	578992	keystroke	c	n/a
289.916	0.12	579832	keystroke	r	n/a
290.186	0.075	580372	keystroke	e	n/a
290.381	0.03	580762	keystroke	e	n/a
290.591	0.075	581182	keystroke	n	n/a
291.116	0.105	582232	keystroke	Key.enter	n/a
291.2285	7.2235	582457	prompt	n/a	rare delicious occupied bugs\n
292.016	0.1195	584032	keystroke	r	n/a
292.1205	0.15	584241	keystroke	a	n/a
292.2405	0.15	584481	keystroke	r	n/a
292.3455	0.105	584691	keystroke	e	n/a
292.3605	0.045	584721	keystroke	w	n/a
292.6155	0.09	585231	keystroke	Key.space	n/a
293.2905	0.06	586581	keystroke	Key.backspace	n/a
293.4705	0.075	586941	keystroke	Key.backspace	n/a
293.6355	0.105	587271	keystroke	Key.space	n/a
293.8455	0.06	587691	keystroke	d	n/a
294.0105	0.075	588021	keystroke	e	n/a
294.1155	0.15	588231	keystroke	l	n/a
294.2505	0.09	588501	keystroke	i	n/a
294.3555	0.135	588711	keystroke	c	n/a
294.5065	0.104	589013	keystroke	i	n/a
294.6255	0.15	589251	keystroke	o	n/a
294.8055	0.075	589611	keystroke	u	n/a
294.9255	0.15	589851	keystroke	s	n/a
295.1055	0.105	590211	keystroke	Key.space	n/a
295.8705	0.09	591741	keystroke	o	n/a
296.0355	0.06	592071	keystroke	c	n/a
296.1705	0.09	592341	keystroke	c	n/a
296.2455	0.075	592491	keystroke	u	n/a
296.7405	0.09	593481	keystroke	p	n/a
296.8905	0.105	593781	keystroke	i	n/a
297.0255	0.06	594051	keystroke	e	n/a
297.2355	0.135	594471	keystroke	d	n/a
297.3715	0.089	594743	keystroke	Key.space	n/a
297.5655	0.105	595131	keystroke	b	n/a
297.6555	0.06	595311	keystroke	u	n/a
297.9855	0.105	595971	keystroke	g	n/a
298.1955	0.09	596391	keystroke	s	n/a
298.3605	0.09	596721	keystroke	Key.enter	n/a
298.457	4.6755	596914	prompt	n/a	jeep follow haven intended\n
299.0955	0.09	598191	keystroke	j	n/a
299.2905	0.045	598581	keystroke	e	n/a
299.4255	0.09	598851	keystroke	e	n/a
299.5455	0.09	599091	keystroke	p	n/a
299.6505	0.075	599301	keystroke	Key.space	n/a
299.8455	0.075	599691	keystroke	f	n/a
299.9505	0.06	599901	keystroke	o	n/a
300.1305	0.075	600261	keystroke	l	n/a
300.2655	0.075	600531	keystroke	l	n/a
300.4305	0.105	600861	keystroke	o	n/a
300.5205	0.135	601041	keystroke	w	n/a
300.6705	0.09	601341	keystroke	Key.space	n/a
300.8055	0.075	601611	keystroke	h	n/a
300.9105	0.225	601821	keystroke	a	n/a
301.1055	0.12	602211	keystroke	v	n/a
301.1655	0.135	602331	keystroke	e	n/a
301.3905	0.075	602781	keystroke	n	n/a
301.5555	0.075	603111	keystroke	Key.space	n/a
301.6905	0.105	603381	keystroke	i	n/a
301.8855	0.09	603771	keystroke	n	n/a
302.0805	0.15	604161	keystroke	t	n/a
302.2315	0.089	604463	keystroke	e	n/a
302.4255	0.075	604851	keystroke	n	n/a
302.6055	0.076	605211	keystroke	d	n/a
302.7555	0.075	605511	keystroke	e	n/a
302.9205	0.12	605841	keystroke	d	n/a
303.0555	0.075	606111	keystroke	Key.enter	n/a
303.137	6.7155	606274	prompt	n/a	suspected possible penny handhelds\n
303.8655	0.121	607731	keystroke	s	n/a
304.0005	0.045	608001	keystroke	u	n/a
304.0755	0.105	608151	keystroke	s	n/a
304.2405	0.105	608481	keystroke	p	n/a
304.3905	0.09	608781	keystroke	e	n/a
305.0355	0.105	610071	keystroke	c	n/a
305.2305	0.105	610461	keystroke	t	n/a
305.2905	0.12	610581	keystroke	e	n/a
305.5165	0.104	611033	keystroke	d	n/a
305.5905	0.12	611181	keystroke	Key.space	n/a
305.8455	0.075	611691	keystroke	p	n/a
306.0555	0.09	612111	keystroke	o	n/a
306.1905	0.075	612381	keystroke	s	n/a
306.3255	0.18	612651	keystroke	s	n/a
306.4005	0.06	612801	keystroke	i	n/a
306.5505	0.06	613101	keystroke	b	n/a
306.6855	0.09	613371	keystroke	l	n/a
306.7905	0.09	613581	keystroke	e	n/a
306.9105	0.075	613821	keystroke	Key.space	n/a
307.0605	0.12	614121	keystroke	p	n/a
307.2705	0.075	614541	keystroke	e	n/a
307.3905	0.06	614781	keystroke	n	n/a
307.5105	0.06	615021	keystroke	n	n/a
307.7055	0.045	615411	keystroke	y	n/a
307.8105	0.105	615621	keystroke	Key.space	n/a
307.9465	0.074	615893	keystroke	h	n/a
308.0655	0.12	616131	keystroke	a	n/a
308.2005	0.075	616401	keystroke	n	n/a
308.3505	0.09	616701	keystroke	d	n/a
308.7705	0.075	617541	keystroke	h	n/a
308.9055	0.09	617811	keystroke	e	n/a
309.0105	0.06	618021	keystroke	l	n/a
309.4905	0.075	618981	keystroke	d	n/a
309.6405	0.12	619281	keystroke	s	n/a
309.7755	0.075	619551	keystroke	Key.enter	n/a
309.858	5.5745	619716	prompt	n/a	morris atlas unit adelaide\n
310.5415	0.074	621083	keystroke	m	n/a
310.6755	0.12	621351	keystroke	o	n/a
310.8405	0.06	621681	keystroke	r	n/a
310.9605	0.075	621921	keystroke	r	n/a
311.0505	0.075	622101	keystroke	i	n/a
311.1705	0.106	622341	keystroke	s	n/a
311.2905	0.12	622581	keystroke	Key.space	n/a
311.6505	0.15	623301	keystroke	a	n/a
311.7855	0.105	623571	keystroke	t	n/a
311.9205	0.106	623841	keystroke	l	n/a
312.0405	0.12	624081	keystroke	a	n/a
312.2205	0.135	624441	keystroke	s	n/a
312.3705	0.105	624741	keystroke	Key.space	n/a
312.5955	0.045	625191	keystroke	u	n/a
312.805	0.0905	625610	keystroke	n	n/a
312.8805	0.1045	625761	keystroke	i	n/a
313.0005	0.09	626001	keystroke	t	n/a
313.4055	0.105	626811	keystroke	Key.space	n/a
313.9755	0.091	627951	keystroke	a	n/a
314.1705	0.075	628341	keystroke	d	n/a
314.3815	0.074	628763	keystroke	e	n/a
314.5305	0.105	629061	keystroke	l	n/a
314.7105	0.135	629421	keystroke	a	n/a
314.8305	0.09	629661	keystroke	i	n/a
315.0405	0.06	630081	keystroke	d	n/a
315.1755	0.09	630351	keystroke	e	n/a
315.3405	0.09	630681	keystroke	Key.enter	n/a
315.437	7.0755	630874	prompt	n/a	across changelog petition raised\n
316.12	0.0905	632240	keystroke	a	n/a
316.315	0.105	632630	keystroke	c	n/a
317.111	0.105	634222	keystroke	r	n/a
317.3505	0.0595	634701	keystroke	o	n/a
317.725	0.075	635450	keystroke	s	n/a
317.875	0.106	635750	keystroke	s	n/a
318.01	0.09	636020	keystroke	Key.space	n/a
318.206	0.12	636412	keystroke	c	n/a
318.295	0.076	636590	keystroke	h	n/a
318.4155	0.1495	636831	keystroke	a	n/a
318.55	0.075	637100	keystroke	n	n/a
318.686	0.089	637372	keystroke	g	n/a
318.73	0.12	637460	keystroke	e	n/a
318.985	0.076	637970	keystroke	l	n/a
319.15	0.09	638300	keystroke	o	n/a
319.271	0.089	638542	keystroke	g	n/a
319.375	0.105	638750	keystroke	Key.space	n/a
319.645	0.09	639290	keystroke	p	n/a
319.78	0.105	639560	keystroke	e	n/a
320.14	0.09	640280	keystroke	t	n/a
320.201	0.059	640402	keystroke	i	n/a
320.38	0.105	640760	keystroke	t	n/a
320.501	0.044	641002	keystroke	i	n/a
320.62	0.15	641240	keystroke	o	n/a
320.8	0.09	641600	keystroke	n	n/a
320.95	0.09	641900	keystroke	Key.space	n/a
321.22	0.135	642440	keystroke	r	n/a
321.61	0.121	643220	keystroke	a	n/a
321.791	0.09	643582	keystroke	i	n/a
321.91	0.18	643820	keystroke	s	n/a
322.03	0.09	644060	keystroke	e	n/a
322.255	0.105	644510	keystroke	d	n/a
322.405	0.105	644810	keystroke	Key.enter	n/a
322.518	10.149	645036	prompt	n/a	reef super broader continues\n
323.111	0.135	646222	keystroke	r	n/a
323.365	0.06	646730	keystroke	e	n/a
323.485	0.091	646970	keystroke	e	n/a
323.755	0.015	647510	keystroke	f	n/a
323.785	0.075	647570	keystroke	Key.space	n/a
323.951	0.105	647902	keystroke	s	n/a
323.965	0.06	647930	keystroke	a	n/a
324.07	0.061	648140	keystroke	u	n/a
324.206	0.119	648412	keystroke	p	n/a
324.356	0.195	648712	keystroke	e	n/a
324.431	0.134	648862	keystroke	r	n/a
324.58	0.045	649160	keystroke	Key.space	n/a
325.945	0.075	651890	keystroke	Key.backspace	n/a
326.125	0.09	652250	keystroke	Key.backspace	n/a
326.305	0.09	652610	keystroke	Key.backspace	n/a
326.5	0.09	653000	keystroke	Key.backspace	n/a
326.696	0.089	653392	keystroke	Key.backspace	n/a
326.89	0.09	653780	keystroke	Key.backspace	n/a
327.326	0.06	654652	keystroke	u	n/a
327.341	0.029	654682	keystroke	7	n/a
327.985	0.045	655970	keystroke	Key.backspace	n/a
329.231	0.089	658462	keystroke	p	n/a
329.471	0.179	658942	keystroke	e	n/a
329.606	0.119	659212	keystroke	r	n/a
329.816	0.104	659632	keystroke	Key.space	n/a
330.041	0.059	660082	keystroke	b	n/a
330.25	0.121	660500	keystroke	r	n/a
330.355	0.105	660710	keystroke	o	n/a
330.49	0.121	660980	keystroke	a	n/a
330.685	0.091	661370	keystroke	d	n/a
330.881	0.15	661762	keystroke	e	n/a
330.986	0.089	661972	keystroke	r	n/a
331.105	0.105	662210	keystroke	Key.space	n/a
331.331	0.105	662662	keystroke	c	n/a
331.42	0.121	662840	keystroke	o	n/a
331.556	0.089	663112	keystroke	n	n/a
331.661	0.089	663322	keystroke	t	n/a
331.781	0.075	663562	keystroke	i	n/a
331.9	0.075	663800	keystroke	n	n/a
332.11	0.061	664220	keystroke	u	n/a
332.231	0.075	664462	keystroke	e	n/a
332.426	0.074	664852	keystroke	s	n/a
332.575	0.09	665150	keystroke	Key.enter	n/a
332.6715	4.9765	665343	prompt	n/a	treated rosa waste time\n
333.281	0.059	666562	keystroke	t	n/a
333.475	0.151	666950	keystroke	r	n/a
333.535	0.135	667070	keystroke	e	n/a
333.731	0.15	667462	keystroke	a	n/a
333.85	0.136	667700	keystroke	t	n/a
333.94	0.121	667880	keystroke	e	n/a
334.165	0.106	668330	keystroke	d	n/a
334.255	0.09	668510	keystroke	Key.space	n/a
334.451	0.089	668902	keystroke	r	n/a
334.556	0.09	669112	keystroke	o	n/a
334.691	0.12	669382	keystroke	s	n/a
334.915	0.121	669830	keystroke	a	n/a
335.096	0.104	670192	keystroke	Key.space	n/a
335.275	0.09	670550	keystroke	w	n/a
335.471	0.15	670942	keystroke	a	n/a
336.22	0.121	672440	keystroke	s	n/a
336.386	0.105	672772	keystroke	t	n/a
336.461	0.135	672922	keystroke	e	n/a
336.685	0.09	673370	keystroke	Key.space	n/a
336.986	0.09	673972	keystroke	t	n/a
337.076	0.09	674152	keystroke	i	n/a
337.196	0.09	674392	keystroke	m	n/a
337.375	0.076	674750	keystroke	e	n/a
337.526	0.12	675052	keystroke	Key.enter	n/a
337.6525	7.21	675305	prompt	n/a	senators electronics trust speak\n
338.336	0.165	676672	keystroke	s	n/a
338.516	0.075	677032	keystroke	e	n/a
338.68	0.091	677360	keystroke	n	n/a
338.756	0.135	677512	keystroke	a	n/a
338.921	0.105	677842	keystroke	t	n/a
339.041	0.105	678082	keystroke	o	n/a
339.16	0.076	678320	keystroke	r	n/a
339.356	0.105	678712	keystroke	s	n/a
339.431	0.12	678862	keystroke	Key.space	n/a
339.776	0.15	679552	keystroke	e	n/a
340.001	0.09	680002	keystroke	l	n/a
340.091	0.06	680182	keystroke	e	n/a
340.331	0.105	680662	keystroke	c	n/a
340.481	0.075	680962	keystroke	t	n/a
340.706	0.09	681412	keystroke	r	n/a
340.781	0.09	681562	keystroke	o	n/a
340.976	0.09	681952	keystroke	n	n/a
341.081	0.12	682162	keystroke	i	n/a
341.156	0.135	682312	keystroke	c	n/a
342.191	0.105	684382	keystroke	s	n/a
342.506	0.09	685012	keystroke	Key.space	n/a
342.686	0.09	685372	keystroke	t	n/a
342.866	0.12	685732	keystroke	r	n/a
342.971	0.075	685942	keystroke	u	n/a
343.271	0.015	686542	keystroke	s	n/a
343.301	0.105	686602	keystroke	t	n/a
343.376	0.105	686752	keystroke	Key.space	n/a
343.811	0.135	687622	keystroke	s	n/a
344.051	0.105	688102	keystroke	p	n/a
344.186	0.135	688372	keystroke	e	n/a
344.306	0.15	688612	keystroke	a	n/a
344.486	0.09	688972	keystroke	k	n/a
344.756	0.105	689512	keystroke	Key.enter	n/a
344.867	11.0805	689734	prompt	n/a	tuesday lithuania independent wrap\n
345.656	0.09	691312	keystroke	t	n/a
345.806	0.075	691612	keystroke	u	n/a
345.911	0.075	691822	keystroke	e	n/a
346.091	0.105	692182	keystroke	s	n/a
346.316	0.105	692632	keystroke	d	n/a
346.391	0.15	692782	keystroke	a	n/a
346.556	0.06	693112	keystroke	y	n/a
346.691	0.075	693382	keystroke	Key.space	n/a
346.811	0.09	693622	keystroke	l	n/a
346.961	0.075	693922	keystroke	i	n/a
347.111	0.09	694222	keystroke	t	n/a
347.291	0.09	694582	keystroke	h	n/a
348.131	0.075	696262	keystroke	u	n/a
349.526	0.135	699052	keystroke	a	n/a
349.781	0.06	699562	keystroke	n	n/a
349.886	0.105	699772	keystroke	i	n/a
350.051	0.165	700102	keystroke	a	n/a
350.201	0.105	700402	keystroke	Key.space	n/a
350.411	0.06	700822	keystroke	i	n/a
350.576	0.075	701152	keystroke	n	n/a
350.666	0.075	701332	keystroke	d	n/a
350.831	0.075	701662	keystroke	e	n/a
351.086	0.09	702172	keystroke	p	n/a
351.221	0.105	702442	keystroke	e	n/a
351.371	0.075	702742	keystroke	n	n/a
351.506	0.075	703012	keystroke	d	n/a
351.686	0.075	703372	keystroke	e	n/a
351.806	0.075	703612	keystroke	n	n/a
351.926	0.105	703852	keystroke	t	n/a
352.091	0.105	704182	keystroke	Key.space	n/a
352.511	0.105	705022	keystroke	w	n/a
352.736	0.045	705472	keystroke	a	n/a
353.351	0.09	706702	keystroke	Key.backspace	n/a
353.546	0.12	707092	keystroke	r	n/a
353.636	0.15	707272	keystroke	a	n/a
354.086	0.09	708172	keystroke	p	n/a
354.371	0.075	708742	keystroke	]	n/a
355.271	0.075	710542	keystroke	Key.backspace	n/a
355.856	0.0895	711712	keystroke	Key.enter	n/a
355.955	5.827	711910	prompt	n/a	cage opening wallet earnings\n
356.7405	0.12	713481	keystroke	c	n/a
356.8755	0.165	713751	keystroke	a	n/a
357.0855	0.12	714171	keystroke	g	n/a
357.1905	0.12	714381	keystroke	e	n/a
357.3255	0.105	714651	keystroke	Key.space	n/a
357.5055	0.105	715011	keystroke	o	n/a
358.1355	0.105	716271	keystroke	p	n/a
358.5105	0.105	717021	keystroke	e	n/a
358.7205	0.06	717441	keystroke	n	n/a
358.8405	0.105	717681	keystroke	i	n/a
358.9155	0.135	717831	keystroke	n	n/a
359.0355	0.135	718071	keystroke	g	n/a
359.1405	0.12	718281	keystroke	Key.space	n/a
359.3805	0.075	718761	keystroke	w	n/a
359.5605	0.135	719121	keystroke	a	n/a
359.6505	0.075	719301	keystroke	l	n/a
359.8005	0.09	719601	keystroke	l	n/a
359.9055	0.18	719811	keystroke	e	n/a
360.0555	0.105	720111	keystroke	t	n/a
360.1615	0.104	720323	keystroke	Key.space	n/a
360.4155	0.075	720831	keystroke	e	n/a
360.6105	0.15	721221	keystroke	a	n/a
360.7905	0.105	721581	keystroke	r	n/a
361.0305	0.075	722061	keystroke	n	n/a
361.1355	0.12	722271	keystroke	i	n/a
361.2255	0.12	722451	keystroke	n	n/a
361.3605	0.09	722721	keystroke	g	n/a
361.5555	0.09	723111	keystroke	s	n/a
361.7055	0.075	723411	keystroke	Key.enter	n/a
361.7865	6.686	723573	prompt	n/a	aids customers arrest lesson\n
362.5005	0.105	725001	keystroke	a	n/a
362.6355	0.09	725271	keystroke	i	n/a
362.7855	0.045	725571	keystroke	s	n/a
363.5205	0.105	727041	keystroke	Key.backspace	n/a
363.6555	0.09	727311	keystroke	d	n/a
363.7755	0.12	727551	keystroke	s	n/a
364.2405	0.135	728481	keystroke	Key.space	n/a
364.5405	0.09	729081	keystroke	c	n/a
364.6455	0.06	729291	keystroke	u	n/a
364.7655	0.09	729531	keystroke	s	n/a
364.9605	0.09	729921	keystroke	t	n/a
365.0805	0.12	730161	keystroke	o	n/a
365.2155	0.075	730431	keystroke	m	n/a
365.3805	0.12	730761	keystroke	e	n/a
365.4705	0.075	730941	keystroke	r	n/a
365.7705	0.105	731541	keystroke	s	n/a
365.9205	0.09	731841	keystroke	Key.space	n/a
366.2355	0.12	732471	keystroke	a	n/a
366.4605	0.06	732921	keystroke	r	n/a
366.5805	0.09	733161	keystroke	r	n/a
366.7155	0.105	733431	keystroke	e	n/a
366.9255	0.135	733851	keystroke	s	n/a
367.1055	0.105	734211	keystroke	t	n/a
367.3605	0.075	734721	keystroke	Key.space	n/a
367.5255	0.12	735051	keystroke	l	n/a
367.6305	0.075	735261	keystroke	e	n/a
367.8255	0.06	735651	keystroke	s	n/a
367.9605	0.12	735921	keystroke	s	n/a
368.0355	0.09	736071	keystroke	o	n/a
368.1855	0.075	736371	keystroke	n	n/a
368.3955	0.075	736791	keystroke	Key.enter	n/a
368.476	6.597	736952	prompt	n/a	reputation receiver stainless strip\n
369.1155	0.165	738231	keystroke	r	n/a
369.2205	0.105	738441	keystroke	e	n/a
369.4305	0.105	738861	keystroke	p	n/a
369.6105	0.075	739221	keystroke	u	n/a
369.7605	0.12	739521	keystroke	t	n/a
369.9105	0.18	739821	keystroke	a	n/a
370.0605	0.15	740121	keystroke	t	n/a
370.1955	0.075	740391	keystroke	i	n/a
370.3455	0.165	740691	keystroke	o	n/a
370.5255	0.09	741051	keystroke	n	n/a
370.6755	0.105	741351	keystroke	Key.space	n/a
370.9005	0.165	741801	keystroke	r	n/a
371.0355	0.06	742071	keystroke	e	n/a
371.2305	0.075	742461	keystroke	c	n/a
371.3955	0.12	742791	keystroke	e	n/a
371.5305	0.075	743061	keystroke	i	n/a
371.6655	0.12	743331	keystroke	v	n/a
371.8005	0.195	743601	keystroke	e	n/a
371.9505	0.165	743901	keystroke	r	n/a
372.1005	0.09	744201	keystroke	Key.space	n/a
372.505	0.09	745010	keystroke	s	n/a
372.685	0.15	745370	keystroke	t	n/a
372.8205	0.1495	745641	keystroke	a	n/a
373.075	0.0605	746150	keystroke	i	n/a
373.21	0.0605	746420	keystroke	n	n/a
373.3605	0.1195	746721	keystroke	l	n/a
373.465	0.0755	746930	keystroke	e	n/a
373.676	0.059	747352	keystroke	s	n/a
373.81	0.105	747620	keystroke	s	n/a
373.945	0.0755	747890	keystroke	Key.space	n/a
374.185	0.12	748370	keystroke	s	n/a
374.335	0.075	748670	keystroke	t	n/a
374.53	0.1355	749060	keystroke	r	n/a
374.605	0.09	749210	keystroke	i	n/a
374.77	0.075	749540	keystroke	p	n/a
374.995	0.075	749990	keystroke	Key.enter	n/a
375.079	10.719	750158	prompt	n/a	musicians cricket switching minor\n
375.76	0.075	751520	keystroke	m	n/a
375.955	0.06	751910	keystroke	u	n/a
376.075	0.09	752150	keystroke	s	n/a
376.15	0.075	752300	keystroke	i	n/a
376.285	0.12	752570	keystroke	c	n/a
376.406	0.074	752812	keystroke	i	n/a
376.945	0.135	753890	keystroke	a	n/a
377.065	0.09	754130	keystroke	n	n/a
377.2	0.105	754400	keystroke	s	n/a
377.395	0.15	754790	keystroke	Key.space	n/a
377.68	0.09	755360	keystroke	c	n/a
377.89	0.165	755780	keystroke	r	n/a
378.94	0.09	757880	keystroke	i	n/a
380.785	0.09	761570	keystroke	c	n/a
380.89	0.105	761780	keystroke	k	n/a
380.996	0.104	761992	keystroke	e	n/a
381.13	0.105	762260	keystroke	t	n/a
381.37	0.105	762740	keystroke	Key.space	n/a
382.016	0.104	764032	keystroke	s	n/a
382.36	0.12	764720	keystroke	w	n/a
382.72	0.105	765440	keystroke	i	n/a
382.855	0.12	765710	keystroke	t	n/a
383.2	0.105	766400	keystroke	c	n/a
383.26	0.075	766520	keystroke	h	n/a
383.395	0.15	766790	keystroke	i	n/a
383.485	0.12	766970	keystroke	n	n/a
383.59	0.105	767180	keystroke	g	n/a
383.665	0.12	767330	keystroke	Key.space	n/a
383.83	0.09	767660	keystroke	m	n/a
383.995	0.105	767990	keystroke	i	n/a
385.255	0.015	770510	keystroke	n	n/a
385.285	0.15	770570	keystroke	o	n/a
385.406	0.089	770812	keystroke	r	n/a
385.69	0.105	771380	keystroke	Key.enter	n/a
385.803	8.4705	771606	prompt	n/a	phantom breakdown destiny vehicles\n
386.576	0.089	773152	keystroke	p	n/a
386.816	0.059	773632	keystroke	h	n/a
386.905	0.181	773810	keystroke	a	n/a
387.01	0.09	774020	keystroke	n	n/a
387.191	0.09	774382	keystroke	t	n/a
387.265	0.135	774530	keystroke	o	n/a
387.415	0.075	774830	keystroke	m	n/a
387.55	0.09	775100	keystroke	Key.space	n/a
387.73	0.075	775460	keystroke	b	n/a
387.895	0.18	775790	keystroke	r	n/a
387.985	0.166	775970	keystroke	e	n/a
388.135	0.135	776270	keystroke	a	n/a
388.285	0.075	776570	keystroke	k	n/a
388.451	0.089	776902	keystroke	d	n/a
388.555	0.105	777110	keystroke	o	n/a
388.72	0.135	777440	keystroke	w	n/a
388.856	0.059	777712	keystroke	n	n/a
388.96	0.075	777920	keystroke	Key.space	n/a
389.125	0.06	778250	keystroke	d	n/a
389.305	0.075	778610	keystroke	e	n/a
389.785	0.12	779570	keystroke	s	n/a
390.01	0.105	780020	keystroke	t	n/a
390.13	0.09	780260	keystroke	i	n/a
390.341	0.074	780682	keystroke	n	n/a
390.55	0.09	781100	keystroke	t	n/a
391.345	0.045	782690	keystroke	Key.backspace	n/a
391.901	0.089	783802	keystroke	y	n/a
392.695	0.12	785390	keystroke	Key.space	n/a
392.995	0.075	785990	keystroke	v	n/a
393.145	0.135	786290	keystroke	e	n/a
393.325	0.06	786650	keystroke	h	n/a
393.475	0.12	786950	keystroke	i	n/a
393.64	0.105	787280	keystroke	c	n/a
393.76	0.135	787520	keystroke	l	n/a
393.88	0.06	787760	keystroke	e	n/a
394.046	0.119	788092	keystroke	s	n/a
394.18	0.09	788360	keystroke	Key.enter	n/a
394.278	7.0905	788556	prompt	n/a	hazards lately genre careers\n
394.915	0.076	789830	keystroke	h	n/a
395.05	0.09	790100	keystroke	a	n/a
395.29	0.106	790580	keystroke	z	n/a
395.545	0.136	791090	keystroke	a	n/a
395.726	0.119	791452	keystroke	r	n/a
395.741	0.014	791482	keystroke	a	n/a
395.995	0.09	791990	keystroke	d	n/a
396.19	0.105	792380	keystroke	s	n/a
396.355	0.105	792710	keystroke	Key.space	n/a
396.521	0.135	793042	keystroke	l	n/a
396.625	0.195	793250	keystroke	a	n/a
396.791	0.119	793582	keystroke	t	n/a
396.925	0.135	793850	keystroke	e	n/a
397.075	0.09	794150	keystroke	l	n/a
397.3	0.06	794600	keystroke	y	n/a
397.42	0.105	794840	keystroke	Key.space	n/a
398.485	0.091	796970	keystroke	g	n/a
398.846	0.104	797692	keystroke	e	n/a
399.1	0.09	798200	keystroke	n	n/a
399.34	0.12	798680	keystroke	r	n/a
399.415	0.136	798830	keystroke	e	n/a
399.655	0.09	799310	keystroke	Key.space	n/a
399.865	0.12	799730	keystroke	c	n/a
400.046	0.164	800092	keystroke	a	n/a
400.255	0.105	800510	keystroke	r	n/a
400.51	0.076	801020	keystroke	e	n/a
400.661	0.12	801322	keystroke	e	n/a
400.81	0.091	801620	keystroke	r	n/a
401.065	0.12	802130	keystroke	s	n/a
401.29	0.075	802580	keystroke	Key.enter	n/a
401.3725	8.365	802745	prompt	n/a	residents philip unsigned so're\n
402.13	0.135	804260	keystroke	r	n/a
402.205	0.075	804410	keystroke	e	n/a
402.401	0.105	804802	keystroke	s	n/a
402.535	0.075	805070	keystroke	i	n/a
402.656	0.06	805312	keystroke	d	n/a
402.821	0.075	805642	keystroke	e	n/a
402.911	0.075	805822	keystroke	n	n/a
403.001	0.089	806002	keystroke	t	n/a
403.166	0.18	806332	keystroke	s	n/a
403.285	0.105	806570	keystroke	Key.space	n/a
403.526	0.06	807052	keystroke	p	n/a
403.69	0.045	807380	keystroke	h	n/a
403.796	0.075	807592	keystroke	i	n/a
403.991	0.09	807982	keystroke	l	n/a
404.14	0.091	808280	keystroke	i	n/a
404.365	0.105	808730	keystroke	p	n/a
404.545	0.105	809090	keystroke	Key.space	n/a
406.271	0.044	812542	keystroke	u	n/a
406.526	0.074	813052	keystroke	n	n/a
406.69	0.09	813380	keystroke	s	n/a
406.765	0.061	813530	keystroke	i	n/a
407.11	0.076	814220	keystroke	g	n/a
407.201	0.075	814402	keystroke	n	n/a
407.291	0.089	814582	keystroke	e	n/a
407.501	0.105	815002	keystroke	d	n/a
407.62	0.09	815240	keystroke	Key.space	n/a
407.815	0.136	815630	keystroke	s	n/a
407.965	0.106	815930	keystroke	o	n/a
408.281	0.15	816562	keystroke	'	n/a
408.446	0.119	816892	keystroke	r	n/a
408.49	0.121	816980	keystroke	e	n/a
409.646	0.089	819292	keystroke	Key.enter	n/a
409.743	8.95	819486	prompt	n/a	winners identity clone cultural\n
410.516	0.105	821032	keystroke	w	n/a
410.651	0.074	821302	keystroke	i	n/a
410.831	0.059	821662	keystroke	n	n/a
410.966	0.075	821932	keystroke	n	n/a
411.071	0.15	822142	keystroke	e	n/a
411.16	0.12	822320	keystroke	r	n/a
411.415	0.121	822830	keystroke	s	n/a
411.521	0.135	823042	keystroke	Key.space	n/a
411.701	0.09	823402	keystroke	i	n/a
411.911	0.09	823822	keystroke	d	n/a
412.061	0.105	824122	keystroke	e	n/a
412.181	0.075	824362	keystroke	n	n/a
412.271	0.09	824542	keystroke	t	n/a
412.421	0.089	824842	keystroke	i	n/a
412.601	0.09	825202	keystroke	t	n/a
412.751	0.06	825502	keystroke	y	n/a
412.841	0.09	825682	keystroke	Key.space	n/a
413.156	0.09	826312	keystroke	c	n/a
413.651	0.06	827302	keystroke	l	n/a
413.831	0.075	827662	keystroke	o	n/a
413.951	0.089	827902	keystroke	n	n/a
414.056	0.09	828112	keystroke	e	n/a
414.191	0.075	828382	keystroke	Key.space	n/a
414.401	0.105	828802	keystroke	c	n/a
414.506	0.06	829012	keystroke	u	n/a
414.671	0.089	829342	keystroke	l	n/a
414.806	0.09	829612	keystroke	t	n/a
414.941	0.075	829882	keystroke	u	n/a
415.061	0.15	830122	keystroke	r	n/a
415.151	0.104	830302	keystroke	e	n/a
415.361	0.135	830722	keystroke	a	n/a
416.411	0.09	832822	keystroke	Key.backspace	n/a
416.651	0.104	833302	keystroke	Key.backspace	n/a
417.7305	0.1355	835461	keystroke	a	n/a
418.346	0.0895	836692	keystroke	l	n/a
418.6155	0.0755	837231	keystroke	Key.enter	n/a
418.697	5.6805	837394	prompt	n/a	meant pursuit behind up\n
419.4555	0.06	838911	keystroke	m	n/a
419.5455	0.09	839091	keystroke	e	n/a
420.0855	0.15	840171	keystroke	a	n/a
420.2355	0.09	840471	keystroke	n	n/a
420.416	0.1045	840832	keystroke	t	n/a
420.7005	0.09	841401	keystroke	Key.space	n/a
421.1205	0.12	842241	keystroke	p	n/a
421.3455	0.075	842691	keystroke	u	n/a
421.4655	0.075	842931	keystroke	r	n/a
421.7505	0.105	843501	keystroke	s	n/a
421.8405	0.075	843681	keystroke	u	n/a
422.0055	0.075	844011	keystroke	i	n/a
422.0955	0.09	844191	keystroke	t	n/a
422.2455	0.105	844491	keystroke	Key.space	n/a
422.5305	0.03	845061	keystroke	b	n/a
422.9805	0.075	845961	keystroke	e	n/a
423.2355	0.045	846471	keystroke	h	n/a
423.3405	0.09	846681	keystroke	i	n/a
423.4605	0.09	846921	keystroke	n	n/a
423.5955	0.105	847191	keystroke	d	n/a
423.7605	0.12	847521	keystroke	Key.space	n/a
423.8955	0.06	847791	keystroke	u	n/a
424.0455	0.09	848091	keystroke	p	n/a
424.3005	0.075	848601	keystroke	Key.enter	n/a
424.3825	7.81	848765	prompt	n/a	spyware danny corner garbage\n
425.0805	0.105	850161	keystroke	s	n/a
425.2455	0.12	850491	keystroke	p	n/a
425.3805	0.135	850761	keystroke	a	n/a
426.1155	0.03	852231	keystroke	Key.backspace	n/a
426.5055	0.075	853011	keystroke	y	n/a
427.0305	0.075	854061	keystroke	w	n/a
427.3305	0.18	854661	keystroke	a	n/a
427.4955	0.15	854991	keystroke	r	n/a
427.6155	0.15	855231	keystroke	e	n/a
427.7805	0.12	855561	keystroke	Key.space	n/a
428.0955	0.12	856191	keystroke	d	n/a
428.2305	0.135	856461	keystroke	a	n/a
428.3805	0.06	856761	keystroke	n	n/a
428.5155	0.045	857031	keystroke	n	n/a
428.7105	0.045	857421	keystroke	y	n/a
428.8155	0.105	857631	keystroke	Key.space	n/a
429.0255	0.12	858051	keystroke	c	n/a
429.1155	0.105	858231	keystroke	o	n/a
429.6405	0.105	859281	keystroke	r	n/a
429.7905	0.09	859581	keystroke	n	n/a
430.0305	0.18	860061	keystroke	e	n/a
430.1655	0.09	860331	keystroke	r	n/a
430.3005	0.06	860601	keystroke	Key.space	n/a
430.4955	0.09	860991	keystroke	g	n/a
430.6755	0.195	861351	keystroke	a	n/a
430.8405	0.09	861681	keystroke	r	n/a
431.2755	0.075	862551	keystroke	b	n/a
431.3355	0.135	862671	keystroke	a	n/a
431.4855	0.09	862971	keystroke	g	n/a
431.5155	0.105	863031	keystroke	e	n/a
432.1155	0.075	864231	keystroke	Key.enter	n/a
432.1975	9.865	864395	prompt	n/a	advertiser prozac knee barnes\n
432.9105	0.135	865821	keystroke	a	n/a
433.0605	0.135	866121	keystroke	d	n/a
433.3305	0.09	866661	keystroke	v	n/a
433.4355	0.21	866871	keystroke	e	n/a
434.08	0.075	868160	keystroke	r	n/a
434.2905	0.075	868581	keystroke	t	n/a
434.4105	0.09	868821	keystroke	i	n/a
434.6505	0.12	869301	keystroke	s	n/a
434.8305	0.075	869661	keystroke	e	n/a
434.92	0.03	869840	keystroke	d	n/a
435.025	0.12	870050	keystroke	r	n/a
435.1755	0.105	870351	keystroke	Key.space	n/a
435.8205	0.105	871641	keystroke	Key.backspace	n/a
436.0455	0.09	872091	keystroke	Key.backspace	n/a
436.42	0.105	872840	keystroke	Key.backspace	n/a
436.585	0.105	873170	keystroke	r	n/a
436.93	0.105	873860	keystroke	Key.space	n/a
437.185	0.135	874370	keystroke	p	n/a
437.395	0.105	874790	keystroke	r	n/a
437.485	0.12	874970	keystroke	o	n/a
437.74	0.09	875480	keystroke	z	n/a
437.92	0.09	875840	keystroke	a	n/a
438.145	0.105	876290	keystroke	c	n/a
438.31	0.105	876620	keystroke	Key.space	n/a
438.595	0.105	877190	keystroke	k	n/a
439	0.09	878000	keystroke	n	n/a
439.225	0.06	878450	keystroke	e	n/a
439.39	0.075	878780	keystroke	e	n/a
439.54	0.105	879080	keystroke	Key.space	n/a
439.915	0.075	879830	keystroke	b	n/a
440.05	0.135	880100	keystroke	a	n/a
440.365	0.12	880730	keystroke	r	n/a
440.56	0.105	881120	keystroke	n	n/a
440.666	0.059	881332	keystroke	e	n/a
440.86	0.06	881720	keystroke	d	n/a
441.55	0.075	883100	keystroke	Key.backspace	n/a
441.775	0.09	883550	keystroke	s	n/a
441.97	0.09	883940	keystroke	Key.enter	n/a
442.068	13.659	884136	prompt	n/a	henderson teaches olive logged\n
442.795	0.045	885590	keystroke	h	n/a
442.945	0.06	885890	keystroke	e	n/a
443.095	0.075	886190	keystroke	n	n/a
443.23	0.045	886460	keystroke	d	n/a
443.38	0.12	886760	keystroke	e	n/a
443.455	0.09	886910	keystroke	r	n/a
443.665	0.12	887330	keystroke	s	n/a
443.725	0.12	887450	keystroke	o	n/a
443.83	0.09	887660	keystroke	n	n/a
443.935	0.075	887870	keystroke	Key.space	n/a
444.175	0.075	888350	keystroke	t	n/a
444.19	0.18	888380	keystroke	e	n/a
444.355	0.09	888710	keystroke	a	n/a
444.595	0.06	889190	keystroke	c	n/a
444.64	0.06	889280	keystroke	h	n/a
444.805	0.075	889610	keystroke	e	n/a
445.135	0.075	890270	keystroke	s	n/a
445.36	0.075	890720	keystroke	Key.space	n/a
445.735	0.09	891470	keystroke	o	n/a
445.885	0.105	891770	keystroke	v	n/a
445.975	0.06	891950	keystroke	i	n/a
446.125	0.09	892250	keystroke	l	n/a
446.68	0.135	893360	keystroke	Key.backspace	n/a
446.89	0.135	893780	keystroke	v	n/a
446.98	0.105	893960	keystroke	e	n/a
447.445	0.105	894890	keystroke	Key.space	n/a
447.91	0.09	895820	keystroke	l	n/a
448.195	0.075	896390	keystroke	o	n/a
448.66	0.045	897320	keystroke	g	n/a
448.765	0.09	897530	keystroke	g	n/a
448.915	0.105	897830	keystroke	e	n/a
449.635	0.105	899270	keystroke	Key.backspace	n/a
449.86	0.105	899720	keystroke	Key.backspace	n/a
450.07	0.09	900140	keystroke	Key.backspace	n/a
450.28	0.105	900560	keystroke	Key.backspace	n/a
450.505	0.09	901010	keystroke	Key.backspace	n/a
450.715	0.105	901430	keystroke	Key.backspace	n/a
450.94	0.105	901880	keystroke	Key.backspace	n/a
451.18	0.105	902360	keystroke	Key.backspace	n/a
451.45	0.105	902900	keystroke	Key.backspace	n/a
451.81	0.075	903620	keystroke	Key.backspace	n/a
452.44	0.09	904880	keystroke	l	n/a
452.785	0.075	905570	keystroke	i	n/a
453.01	0.105	906020	keystroke	v	n/a
453.085	0.09	906170	keystroke	e	n/a
453.46	0.09	906920	keystroke	Key.space	n/a
453.94	0.06	907880	keystroke	l	n/a
454.375	0.09	908750	keystroke	o	n/a
454.72	0.045	909440	keystroke	g	n/a
454.855	0.06	909710	keystroke	g	n/a
454.96	0.105	909920	keystroke	e	n/a
455.23	0.075	910460	keystroke	d	n/a
455.635	0.09	911270	keystroke	Key.enter	n/a
455.7315	7.7805	911463	prompt	n/a	cellular delivering dinner properties\n
456.55	0.09	913100	keystroke	c	n/a
456.775	0.09	913550	keystroke	e	n/a
456.955	0.075	913910	keystroke	l	n/a
457.09	0.09	914180	keystroke	l	n/a
457.27	0.06	914540	keystroke	u	n/a
457.48	0.09	914960	keystroke	l	n/a
457.585	0.15	915170	keystroke	a	n/a
457.72	0.09	915440	keystroke	r	n/a
457.885	0.09	915770	keystroke	Key.space	n/a
458.11	0.075	916220	keystroke	d	n/a
458.29	0.075	916580	keystroke	e	n/a
458.44	0.12	916880	keystroke	l	n/a
458.605	0.075	917210	keystroke	i	n/a
458.695	0.12	917390	keystroke	v	n/a
458.89	0.195	917780	keystroke	e	n/a
458.995	0.135	917990	keystroke	r	n/a
459.25	0.166	918500	keystroke	i	n/a
459.37	0.12	918740	keystroke	n	n/a
459.655	0.09	919310	keystroke	g	n/a
459.835	0.105	919670	keystroke	Key.space	n/a
460.39	0.105	920780	keystroke	d	n/a
460.57	0.075	921140	keystroke	i	n/a
460.78	0.06	921560	keystroke	n	n/a
460.915	0.09	921830	keystroke	n	n/a
461.125	0.105	922250	keystroke	e	n/a
461.32	0.075	922640	keystroke	r	n/a
461.5	0.09	923000	keystroke	Key.space	n/a
461.7995	0.091	923599	keystroke	p	n/a
462.0245	0.1055	924049	keystroke	r	n/a
462.1455	0.0595	924291	keystroke	o	n/a
462.355	0.1045	924710	keystroke	p	n/a
462.505	0.1645	925010	keystroke	e	n/a
462.61	0.0895	925220	keystroke	r	n/a
462.8195	0.0905	925639	keystroke	t	n/a
462.925	0.075	925850	keystroke	i	n/a
463.0145	0.0905	926029	keystroke	e	n/a
463.2095	0.09	926419	keystroke	s	n/a
463.4195	0.09	926839	keystroke	Key.enter	n/a
463.518	14.2295	927036	prompt	n/a	caribbean university innovative obtained\n
464.2745	0.09	928549	keystroke	c	n/a
464.5895	0.135	929179	keystroke	a	n/a
464.8595	0.09	929719	keystroke	r	n/a
465.8045	0.075	931609	keystroke	i	n/a
466.1045	0.061	932209	keystroke	b	n/a
466.3305	0.074	932661	keystroke	b	n/a
466.5095	0.075	933019	keystroke	e	n/a
467.2305	0.119	934461	keystroke	a	n/a
467.3345	0.075	934669	keystroke	n	n/a
467.5145	0.105	935029	keystroke	Key.space	n/a
467.7695	0.06	935539	keystroke	u	n/a
468.4305	0.074	936861	keystroke	n	n/a
469.8255	0.045	939651	keystroke	i	n/a
469.9605	0.059	939921	keystroke	v	n/a
470.0645	0.15	940129	keystroke	e	n/a
470.1545	0.09	940309	keystroke	r	n/a
470.3805	0.104	940761	keystroke	s	n/a
470.5005	0.074	941001	keystroke	i	n/a
470.5895	0.105	941179	keystroke	t	n/a
470.7095	0.06	941419	keystroke	y	n/a
470.8145	0.12	941629	keystroke	Key.space	n/a
470.9655	0.074	941931	keystroke	i	n/a
471.1755	0.059	942351	keystroke	n	n/a
471.3245	0.06	942649	keystroke	n	n/a
471.4295	0.105	942859	keystroke	o	n/a
472.4495	0.105	944899	keystroke	v	n/a
472.5695	0.166	945139	keystroke	a	n/a
472.7795	0.135	945559	keystroke	t	n/a
473.0195	0.121	946039	keystroke	i	n/a
473.7405	0.164	947481	keystroke	v	n/a
473.9055	0.135	947811	keystroke	e	n/a
474.0245	0.12	948049	keystroke	Key.space	n/a
474.2645	0.105	948529	keystroke	o	n/a
474.5645	0.045	949129	keystroke	b	n/a
474.8045	0.15	949609	keystroke	r	n/a
474.9095	0.195	949819	keystroke	a	n/a
475.5995	0.135	951199	keystroke	Key.backspace	n/a
475.8245	0.105	951649	keystroke	Key.backspace	n/a
475.9905	0.135	951981	keystroke	t	n/a
476.1095	0.165	952219	keystroke	a	n/a
476.8745	0.105	953749	keystroke	i	n/a
476.9495	0.121	953899	keystroke	n	n/a
477.1305	0.059	954261	keystroke	e	n/a
477.3255	0.104	954651	keystroke	d	n/a
477.6545	0.091	955309	keystroke	Key.enter	n/a
477.7525	8.2895	955505	prompt	n/a	twelve exposed hotel poland\n
478.6145	0.076	957229	keystroke	t	n/a
478.7645	0.105	957529	keystroke	e	n/a
479.6195	0.09	959239	keystroke	Key.backspace	n/a
480.0405	0.119	960081	keystroke	w	n/a
480.2345	0.106	960469	keystroke	e	n/a
480.4005	0.119	960801	keystroke	l	n/a
481.0455	0.12	962091	keystroke	v	n/a
481.1345	0.136	962269	keystroke	e	n/a
481.2245	0.121	962449	keystroke	Key.space	n/a
481.4505	0.06	962901	keystroke	e	n/a
481.6595	0.12	963319	keystroke	x	n/a
481.7655	0.075	963531	keystroke	p	n/a
481.9145	0.136	963829	keystroke	o	n/a
482.0505	0.195	964101	keystroke	s	n/a
482.1705	0.089	964341	keystroke	e	n/a
482.3795	0.106	964759	keystroke	d	n/a
482.4855	0.105	964971	keystroke	Key.space	n/a
482.6345	0.075	965269	keystroke	h	n/a
482.7545	0.121	965509	keystroke	o	n/a
482.89	0.0905	965780	keystroke	t	n/a
482.9495	0.1205	965899	keystroke	e	n/a
483.115	0.104	966230	keystroke	l	n/a
484.374	0.046	968748	keystroke	Key.space	n/a
484.57	0.15	969140	keystroke	p	n/a
484.87	0.075	969740	keystroke	o	n/a
485.065	0.075	970130	keystroke	l	n/a
485.379	0.121	970758	keystroke	a	n/a
485.5	0.09	971000	keystroke	n	n/a
485.605	0.105	971210	keystroke	d	n/a
485.979	0.061	971958	keystroke	Key.enter	n/a
486.0465	6.7155	972093	prompt	n/a	asia thinks generally constitutes\n
486.805	0.105	973610	keystroke	a	n/a
487.104	0.091	974208	keystroke	s	n/a
487.165	0.075	974330	keystroke	i	n/a
487.285	0.165	974570	keystroke	a	n/a
487.435	0.075	974870	keystroke	Key.space	n/a
487.675	0.09	975350	keystroke	t	n/a
487.734	0.061	975468	keystroke	h	n/a
487.825	0.075	975650	keystroke	i	n/a
487.96	0.075	975920	keystroke	n	n/a
488.365	0.089	976730	keystroke	k	n/a
488.725	0.09	977450	keystroke	s	n/a
488.889	0.12	977778	keystroke	Key.space	n/a
489.445	0.074	978890	keystroke	g	n/a
489.625	0.09	979250	keystroke	e	n/a
489.775	0.104	979550	keystroke	n	n/a
489.865	0.165	979730	keystroke	e	n/a
490.075	0.134	980150	keystroke	r	n/a
490.18	0.18	980360	keystroke	a	n/a
490.375	0.03	980750	keystroke	l	n/a
490.45	0.09	980900	keystroke	l	n/a
490.645	0.045	981290	keystroke	y	n/a
490.779	0.121	981558	keystroke	Key.space	n/a
491.14	0.105	982280	keystroke	c	n/a
491.23	0.12	982460	keystroke	o	n/a
491.305	0.12	982610	keystroke	n	n/a
491.515	0.12	983030	keystroke	s	n/a
491.695	0.09	983390	keystroke	t	n/a
491.77	0.09	983540	keystroke	i	n/a
491.949	0.106	983898	keystroke	t	n/a
492.07	0.06	984140	keystroke	u	n/a
492.205	0.135	984410	keystroke	t	n/a
492.295	0.12	984590	keystroke	e	n/a
492.52	0.12	985040	keystroke	s	n/a
492.685	0.074	985370	keystroke	Key.enter	n/a
492.767	9.1	985534	prompt	n/a	quarters episode verbal scholar\n
493.5555	0.119	987111	keystroke	q	n/a
493.6895	0.06	987379	keystroke	u	n/a
493.9445	0.21	987889	keystroke	a	n/a
494.1245	0.105	988249	keystroke	r	n/a
494.3645	0.09	988729	keystroke	t	n/a
494.4845	0.135	988969	keystroke	e	n/a
494.6645	0.12	989329	keystroke	r	n/a
494.9495	0.12	989899	keystroke	s	n/a
495.0545	0.135	990109	keystroke	Key.space	n/a
495.4295	0.075	990859	keystroke	e	n/a
495.7745	0.09	991549	keystroke	p	n/a
496.1345	0.075	992269	keystroke	i	n/a
496.4945	0.06	992989	keystroke	d	n/a
496.5695	0.12	993139	keystroke	o	n/a
497.7245	0.09	995449	keystroke	Key.backspace	n/a
497.9645	0.06	995929	keystroke	Key.backspace	n/a
498.3245	0.12	996649	keystroke	s	n/a
498.4295	0.105	996859	keystroke	o	n/a
498.5795	0.06	997159	keystroke	d	n/a
498.7145	0.06	997429	keystroke	e	n/a
498.8045	0.105	997609	keystroke	Key.space	n/a
499.0295	0.045	998059	keystroke	v	n/a
499.1945	0.135	998389	keystroke	e	n/a
499.2995	0.06	998599	keystroke	r	n/a
499.5695	0.03	999139	keystroke	b	n/a
499.6595	0.135	999319	keystroke	a	n/a
499.7645	0.09	999529	keystroke	l	n/a
500.2295	0.105	1000459	keystroke	Key.space	n/a
500.5595	0.09	1001119	keystroke	s	n/a
500.7695	0.12	1001539	keystroke	c	n/a
500.8445	0.06	1001689	keystroke	h	n/a
500.9645	0.075	1001929	keystroke	o	n/a
501.1445	0.105	1002289	keystroke	l	n/a
501.2795	0.18	1002559	keystroke	a	n/a
501.4445	0.09	1002889	keystroke	r	n/a
501.7445	0.12	1003489	keystroke	Key.enter	n/a
501.872	7.135	1003744	prompt	n/a	hosts array atmosphere const\n
502.6455	0.059	1005291	keystroke	h	n/a
502.7195	0.15	1005439	keystroke	o	n/a
502.9145	0.15	1005829	keystroke	s	n/a
503.0655	0.089	1006131	keystroke	t	n/a
503.2145	0.136	1006429	keystroke	s	n/a
503.3345	0.135	1006669	keystroke	Key.space	n/a
503.5595	0.18	1007119	keystroke	a	n/a
503.7695	0.045	1007539	keystroke	r	n/a
503.9045	0.075	1007809	keystroke	r	n/a
503.9645	0.165	1007929	keystroke	a	n/a
504.1445	0.045	1008289	keystroke	y	n/a
504.6095	0.135	1009219	keystroke	Key.space	n/a
504.9245	0.15	1009849	keystroke	a	n/a
505.1045	0.105	1010209	keystroke	t	n/a
505.7195	0.09	1011439	keystroke	m	n/a
505.8705	0.119	1011741	keystroke	o	n/a
506.3195	0.121	1012639	keystroke	s	n/a
506.6645	0.105	1013329	keystroke	p	n/a
506.8895	0.106	1013779	keystroke	h	n/a
507.0245	0.165	1014049	keystroke	e	n/a
507.2045	0.105	1014409	keystroke	r	n/a
507.2795	0.105	1014559	keystroke	e	n/a
507.4595	0.09	1014919	keystroke	Key.space	n/a
507.6845	0.075	1015369	keystroke	c	n/a
507.7445	0.12	1015489	keystroke	o	n/a
508.4045	0.12	1016809	keystroke	n	n/a
508.4795	0.181	1016959	keystroke	s	n/a
508.6445	0.106	1017289	keystroke	t	n/a
508.8695	0.135	1017739	keystroke	Key.enter	n/a
509.013	9.5185	1018026	prompt	n/a	occupations contemporary imposed genius\n
509.6955	0.089	1019391	keystroke	c	n/a
510.8495	0.075	1021699	keystroke	Key.backspace	n/a
511.3145	0.09	1022629	keystroke	o	n/a
511.5995	0.06	1023199	keystroke	c	n/a
511.7505	0.074	1023501	keystroke	c	n/a
511.8095	0.09	1023619	keystroke	u	n/a
512.4695	0.106	1024939	keystroke	p	n/a
512.5755	0.119	1025151	keystroke	a	n/a
512.7555	0.135	1025511	keystroke	t	n/a
512.8595	0.106	1025719	keystroke	i	n/a
512.9495	0.195	1025899	keystroke	o	n/a
513.0405	0.12	1026081	keystroke	n	n/a
513.1305	0.119	1026261	keystroke	s	n/a
513.2195	0.09	1026439	keystroke	Key.space	n/a
513.4605	0.134	1026921	keystroke	c	n/a
513.6845	0.24	1027369	keystroke	o	n/a
514.0745	0.09	1028149	keystroke	n	n/a
514.4345	0.135	1028869	keystroke	t	n/a
514.5395	0.136	1029079	keystroke	e	n/a
514.6605	0.09	1029321	keystroke	m	n/a
514.8695	0.105	1029739	keystroke	p	n/a
515.0655	0.104	1030131	keystroke	o	n/a
515.2445	0.135	1030489	keystroke	r	n/a
515.3945	0.12	1030789	keystroke	a	n/a
515.4695	0.12	1030939	keystroke	r	n/a
515.6045	0.076	1031209	keystroke	y	n/a
515.7395	0.12	1031479	keystroke	Key.space	n/a
515.9945	0.075	1031989	keystroke	i	n/a
516.2495	0.09	1032499	keystroke	m	n/a
516.4445	0.12	1032889	keystroke	p	n/a
516.6395	0.105	1033279	keystroke	o	n/a
516.7595	0.165	1033519	keystroke	s	n/a
516.8495	0.091	1033699	keystroke	e	n/a
517.0445	0.091	1034089	keystroke	d	n/a
517.1495	0.09	1034299	keystroke	Key.space	n/a
517.4055	0.105	1034811	keystroke	g	n/a
517.5545	0.135	1035109	keystroke	e	n/a
517.8105	0.075	1035621	keystroke	n	n/a
517.9605	0.09	1035921	keystroke	i	n/a
518.1555	0.074	1036311	keystroke	u	n/a
518.2745	0.136	1036549	keystroke	s	n/a
518.4545	0.075	1036909	keystroke	Key.enter	n/a
518.536	8.246	1037072	prompt	n/a	grow lebanon foul thorough\n
519.459	0.0905	1038918	keystroke	g	n/a
519.7155	0.134	1039431	keystroke	r	n/a
519.8645	0.105	1039729	keystroke	o	n/a
520.0005	0.165	1040001	keystroke	w	n/a
520.2245	0.1345	1040449	keystroke	Key.space	n/a
520.779	0.106	1041558	keystroke	l	n/a
520.9005	0.0885	1041801	keystroke	e	n/a
521.065	0.075	1042130	keystroke	b	n/a
521.1545	0.1645	1042309	keystroke	a	n/a
521.3945	0.0755	1042789	keystroke	n	n/a
521.5445	0.1045	1043089	keystroke	o	n/a
521.694	0.091	1043388	keystroke	n	n/a
521.8595	0.1045	1043719	keystroke	Key.space	n/a
522.0545	0.1195	1044109	keystroke	f	n/a
522.175	0.045	1044350	keystroke	o	n/a
522.6245	0.0905	1045249	keystroke	u	n/a
522.8505	0.0895	1045701	keystroke	l	n/a
523.585	0.104	1047170	keystroke	Key.space	n/a
523.8255	0.105	1047651	keystroke	t	n/a
523.914	0.076	1047828	keystroke	h	n/a
524.754	0.12	1049508	keystroke	o	n/a
525.654	0.09	1051308	keystroke	r	n/a
525.7305	0.1195	1051461	keystroke	o	n/a
525.835	0.0905	1051670	keystroke	u	n/a
526.21	0.119	1052420	keystroke	g	n/a
526.285	0.105	1052570	keystroke	h	n/a
526.704	0.075	1053408	keystroke	Key.enter	n/a
526.7865	6.58	1053573	prompt	n/a	gore difference pediatric iron\n
527.485	0.089	1054970	keystroke	g	n/a
528.069	0.121	1056138	keystroke	o	n/a
528.264	0.135	1056528	keystroke	r	n/a
528.324	0.121	1056648	keystroke	e	n/a
528.459	0.12	1056918	keystroke	Key.space	n/a
528.849	0.091	1057698	keystroke	d	n/a
528.955	0.06	1057910	keystroke	i	n/a
529.33	0.075	1058660	keystroke	f	n/a
529.524	0.106	1059048	keystroke	f	n/a
529.765	0.104	1059530	keystroke	e	n/a
530.035	0.12	1060070	keystroke	r	n/a
530.125	0.12	1060250	keystroke	e	n/a
530.29	0.104	1060580	keystroke	n	n/a
530.44	0.045	1060880	keystroke	c	n/a
530.59	0.09	1061180	keystroke	e	n/a
530.664	0.106	1061328	keystroke	Key.space	n/a
530.845	0.105	1061690	keystroke	p	n/a
531.01	0.045	1062020	keystroke	e	n/a
531.22	0.09	1062440	keystroke	d	n/a
531.37	0.06	1062740	keystroke	i	n/a
531.49	0.15	1062980	keystroke	a	n/a
531.7	0.06	1063400	keystroke	t	n/a
531.879	0.046	1063758	keystroke	r	n/a
531.985	0.075	1063970	keystroke	i	n/a
532.119	0.091	1064238	keystroke	c	n/a
532.285	0.12	1064570	keystroke	Key.space	n/a
532.465	0.075	1064930	keystroke	i	n/a
532.599	0.106	1065198	keystroke	r	n/a
532.705	0.12	1065410	keystroke	o	n/a
532.84	0.12	1065680	keystroke	n	n/a
533.245	0.12	1066490	keystroke	Key.enter	n/a
533.3715	10.825	1066743	prompt	n/a	advisor girlfriend lithuania meyer\n
534.355	0.135	1068710	keystroke	a	n/a
534.565	0.09	1069130	keystroke	d	n/a
534.85	0.105	1069700	keystroke	v	n/a
534.94	0.06	1069880	keystroke	i	n/a
535.06	0.12	1070120	keystroke	s	n/a
535.195	0.12	1070390	keystroke	o	n/a
535.285	0.09	1070570	keystroke	r	n/a
535.405	0.105	1070810	keystroke	Key.space	n/a
535.63	0.09	1071260	keystroke	g	n/a
535.78	0.09	1071560	keystroke	i	n/a
535.93	0.105	1071860	keystroke	r	n/a
536.155	0.105	1072310	keystroke	l	n/a
536.59	0.06	1073180	keystroke	f	n/a
536.83	0.105	1073660	keystroke	r	n/a
536.92	0.074	1073840	keystroke	i	n/a
537.025	0.09	1074050	keystroke	e	n/a
537.13	0.105	1074260	keystroke	n	n/a
537.25	0.105	1074500	keystroke	d	n/a
537.415	0.12	1074830	keystroke	Key.space	n/a
537.625	0.09	1075250	keystroke	l	n/a
537.82	0.09	1075640	keystroke	i	n/a
537.985	0.09	1075970	keystroke	t	n/a
538.06	0.06	1076120	keystroke	h	n/a
538.24	0.06	1076480	keystroke	u	n/a
538.435	0.15	1076870	keystroke	a	n/a
538.705	0.075	1077410	keystroke	n	n/a
538.87	0.105	1077740	keystroke	i	n/a
539.41	0.15	1078820	keystroke	a	n/a
539.694	0.106	1079388	keystroke	Key.space	n/a
542.278	0.042	1084556	keystroke	m	n/a
542.35	0.09	1084700	keystroke	e	n/a
542.68	0.12	1085360	keystroke	y	n/a
543.16	0.135	1086320	keystroke	e	n/a
543.28	0.09	1086560	keystroke	r	n/a
544.075	0.12	1088150	keystroke	Key.enter	n/a
544.201	8.9235	1088402	prompt	n/a	jack laws dream implementing\n
544.975	0.09	1089950	keystroke	j	n/a
544.99	0.06	1089980	keystroke	h	n/a
545.14	0.105	1090280	keystroke	a	n/a
546.19	0.075	1092380	keystroke	Key.backspace	n/a
546.415	0.09	1092830	keystroke	Key.backspace	n/a
546.64	0.135	1093280	keystroke	a	n/a
547.615	0.09	1095230	keystroke	c	n/a
547.675	0.045	1095350	keystroke	k	n/a
548.275	0.12	1096550	keystroke	Key.space	n/a
548.62	0.105	1097240	keystroke	l	n/a
548.845	0.135	1097690	keystroke	a	n/a
549.325	0.09	1098650	keystroke	w	n/a
549.715	0.15	1099430	keystroke	s	n/a
549.85	0.105	1099700	keystroke	Key.space	n/a
550.03	0.075	1100060	keystroke	d	n/a
550.195	0.165	1100390	keystroke	r	n/a
550.255	0.18	1100510	keystroke	e	n/a
550.42	0.15	1100840	keystroke	a	n/a
550.585	0.105	1101170	keystroke	m	n/a
550.72	0.12	1101440	keystroke	Key.space	n/a
550.915	0.06	1101830	keystroke	i	n/a
551.08	0.075	1102160	keystroke	m	n/a
551.26	0.09	1102520	keystroke	p	n/a
551.485	0.09	1102970	keystroke	l	n/a
551.59	0.105	1103180	keystroke	e	n/a
551.74	0.06	1103480	keystroke	m	n/a
551.83	0.12	1103660	keystroke	e	n/a
552.01	0.135	1104020	keystroke	n	n/a
552.31	0.075	1104620	keystroke	t	n/a
552.4	0.105	1104800	keystroke	i	n/a
552.49	0.105	1104980	keystroke	n	n/a
552.565	0.105	1105130	keystroke	g	n/a
553	0.12	1106000	keystroke	Key.enter	n/a
553.1305	5.002	1106261	prompt	n/a	cite lock knight dresses\n
554.095	0.105	1108190	keystroke	c	n/a
554.155	0.075	1108310	keystroke	i	n/a
554.305	0.135	1108610	keystroke	t	n/a
554.38	0.15	1108760	keystroke	e	n/a
554.545	0.12	1109090	keystroke	Key.space	n/a
554.65	0.075	1109300	keystroke	l	n/a
554.83	0.06	1109660	keystroke	o	n/a
554.935	0.105	1109870	keystroke	c	n/a
555.041	0.059	1110082	keystroke	k	n/a
555.115	0.105	1110230	keystroke	Key.space	n/a
555.415	0.045	1110830	keystroke	k	n/a
555.625	0.09	1111250	keystroke	n	n/a
555.775	0.105	1111550	keystroke	i	n/a
555.925	0.075	1111850	keystroke	g	n/a
556	0.09	1112000	keystroke	h	n/a
556.135	0.09	1112270	keystroke	t	n/a
556.675	0.105	1113350	keystroke	Key.space	n/a
556.96	0.075	1113920	keystroke	d	n/a
557.17	0.105	1114340	keystroke	r	n/a
557.245	0.105	1114490	keystroke	e	n/a
557.47	0.045	1114940	keystroke	s	n/a
557.59	0.135	1115180	keystroke	s	n/a
557.71	0.075	1115420	keystroke	e	n/a
557.875	0.105	1115750	keystroke	s	n/a
558.055	0.075	1116110	keystroke	Key.enter	n/a
558.14	8.3925	1116280	prompt	n/a	regional means fell compression\n
558.745	0.135	1117490	keystroke	r	n/a
558.82	0.09	1117640	keystroke	e	n/a
559.03	0.09	1118060	keystroke	g	n/a
559.165	0.06	1118330	keystroke	i	n/a
559.375	0.105	1118750	keystroke	n	n/a
559.481	0.134	1118962	keystroke	a	n/a
560.365	0.09	1120730	keystroke	l	n/a
561.3695	0.1055	1122739	keystroke	Key.backspace	n/a
561.5945	0.09	1123189	keystroke	Key.backspace	n/a
561.7895	0.09	1123579	keystroke	Key.backspace	n/a
562.1045	0.1205	1124209	keystroke	o	n/a
562.3595	0.075	1124719	keystroke	n	n/a
562.45	0.1345	1124900	keystroke	a	n/a
562.54	0.075	1125080	keystroke	l	n/a
562.855	0.09	1125710	keystroke	Key.space	n/a
563.2745	0.105	1126549	keystroke	m	n/a
563.3945	0.075	1126789	keystroke	e	n/a
563.5595	0.15	1127119	keystroke	a	n/a
563.6945	0.09	1127389	keystroke	n	n/a
563.8145	0.12	1127629	keystroke	s	n/a
563.9495	0.105	1127899	keystroke	Key.space	n/a
564.1595	0.105	1128319	keystroke	f	n/a
564.2795	0.12	1128559	keystroke	e	n/a
564.4145	0.06	1128829	keystroke	l	n/a
564.5645	0.075	1129129	keystroke	l	n/a
564.6545	0.075	1129309	keystroke	Key.space	n/a
564.8195	0.105	1129639	keystroke	c	n/a
564.8795	0.135	1129759	keystroke	o	n/a
564.9695	0.105	1129939	keystroke	m	n/a
565.1795	0.135	1130359	keystroke	p	n/a
565.3745	0.135	1130749	keystroke	r	n/a
565.4345	0.105	1130869	keystroke	e	n/a
565.7045	0.03	1131409	keystroke	s	n/a
565.8245	0.135	1131649	keystroke	s	n/a
565.9445	0.075	1131889	keystroke	i	n/a
566.0645	0.18	1132129	keystroke	o	n/a
566.1995	0.09	1132399	keystroke	n	n/a
566.4095	0.12	1132819	keystroke	Key.enter	n/a
566.5365	7.8105	1133073	prompt	n/a	ours hartford microwave anger\n
567.3545	0.12	1134709	keystroke	o	n/a
567.4895	0.105	1134979	keystroke	u	n/a
567.5795	0.09	1135159	keystroke	r	n/a
567.7445	0.135	1135489	keystroke	s	n/a
567.8495	0.12	1135699	keystroke	Key.space	n/a
568.1645	0.075	1136329	keystroke	h	n/a
568.3595	0.195	1136719	keystroke	a	n/a
568.5395	0.06	1137079	keystroke	r	n/a
568.7195	0.075	1137439	keystroke	t	n/a
568.9895	0.09	1137979	keystroke	f	n/a
569.1095	0.12	1138219	keystroke	o	n/a
569.2145	0.105	1138429	keystroke	r	n/a
569.4545	0.12	1138909	keystroke	d	n/a
569.5895	0.105	1139179	keystroke	Key.space	n/a
569.8445	0.09	1139689	keystroke	m	n/a
571.6	0.0745	1143200	keystroke	i	n/a
571.7055	0.09	1143411	keystroke	c	n/a
572.094	0.121	1144188	keystroke	r	n/a
572.1705	0.105	1144341	keystroke	o	n/a
572.41	0.105	1144820	keystroke	w	n/a
572.605	0.1195	1145210	keystroke	a	n/a
572.785	0.105	1145570	keystroke	v	n/a
572.8605	0.1345	1145721	keystroke	e	n/a
573.01	0.029	1146020	keystroke	Key.space	n/a
573.609	0.135	1147218	keystroke	a	n/a
573.715	0.104	1147430	keystroke	n	n/a
573.82	0.089	1147640	keystroke	g	n/a
573.94	0.165	1147880	keystroke	e	n/a
574.059	0.09	1148118	keystroke	r	n/a
574.255	0.089	1148510	keystroke	Key.enter	n/a
574.353	11.109	1148706	prompt	n/a	marked started wyoming contractor\n
574.99	0.09	1149980	keystroke	m	n/a
575.08	0.134	1150160	keystroke	a	n/a
575.215	0.105	1150430	keystroke	k	n/a
576.639	0.075	1153278	keystroke	Key.backspace	n/a
577.105	0.165	1154210	keystroke	r	n/a
577.33	0.09	1154660	keystroke	k	n/a
577.435	0.075	1154870	keystroke	e	n/a
577.855	0.105	1155710	keystroke	d	n/a
577.974	0.106	1155948	keystroke	Key.space	n/a
578.155	0.135	1156310	keystroke	s	n/a
578.305	0.105	1156610	keystroke	t	n/a
578.411	0.194	1156822	keystroke	a	n/a
578.545	0.105	1157090	keystroke	r	n/a
578.92	0.075	1157840	keystroke	t	n/a
579.07	0.105	1158140	keystroke	e	n/a
579.295	0.105	1158590	keystroke	d	n/a
579.414	0.076	1158828	keystroke	Key.space	n/a
579.835	0.075	1159670	keystroke	w	n/a
579.85	0.045	1159700	keystroke	q	n/a
579.939	0.076	1159878	keystroke	y	n/a
580.719	0.106	1161438	keystroke	Key.backspace	n/a
580.9	0.09	1161800	keystroke	Key.backspace	n/a
581.44	0.06	1162880	keystroke	y	n/a
581.62	0.09	1163240	keystroke	o	n/a
581.86	0.06	1163720	keystroke	m	n/a
582.025	0.12	1164050	keystroke	i	n/a
582.115	0.09	1164230	keystroke	n	n/a
582.22	0.09	1164440	keystroke	g	n/a
582.325	0.09	1164650	keystroke	Key.space	n/a
583.885	0.105	1167770	keystroke	c	n/a
584.155	0.09	1168310	keystroke	o	n/a
584.275	0.12	1168550	keystroke	n	n/a
584.41	0.075	1168820	keystroke	t	n/a
584.59	0.12	1169180	keystroke	r	n/a
584.68	0.105	1169360	keystroke	a	n/a
584.86	0.165	1169720	keystroke	c	n/a
584.995	0.075	1169990	keystroke	t	n/a
585.085	0.1195	1170170	keystroke	o	n/a
585.19	0.0895	1170380	keystroke	r	n/a
585.37	0.0895	1170740	keystroke	Key.enter	n/a
585.468	8.378	1170936	prompt	n/a	there's offshore savannah neck\n
586.195	0.075	1172390	keystroke	t	n/a
586.2545	0.075	1172509	keystroke	h	n/a
586.375	0.1045	1172750	keystroke	e	n/a
586.4645	0.1055	1172929	keystroke	r	n/a
586.5545	0.075	1173109	keystroke	e	n/a
587.0045	0.075	1174009	keystroke	'	n/a
587.5145	0.12	1175029	keystroke	s	n/a
587.725	0.1195	1175450	keystroke	Key.space	n/a
587.9795	0.12	1175959	keystroke	o	n/a
588.1145	0.06	1176229	keystroke	f	n/a
588.2195	0.105	1176439	keystroke	f	n/a
588.6095	0.15	1177219	keystroke	s	n/a
588.7895	0.045	1177579	keystroke	h	n/a
588.8645	0.15	1177729	keystroke	o	n/a
588.9995	0.12	1177999	keystroke	r	n/a
589.0595	0.135	1178119	keystroke	e	n/a
589.2545	0.12	1178509	keystroke	Key.space	n/a
589.5545	0.075	1179109	keystroke	s	n/a
590.1545	0.135	1180309	keystroke	a	n/a
590.3645	0.12	1180729	keystroke	v	n/a
590.4695	0.18	1180939	keystroke	a	n/a
590.8295	0.045	1181659	keystroke	n	n/a
590.9345	0.105	1181869	keystroke	n	n/a
591.3845	0.12	1182769	keystroke	a	n/a
591.4445	0.075	1182889	keystroke	h	n/a
591.9545	0.09	1183909	keystroke	Key.space	n/a
592.3145	0.105	1184629	keystroke	n	n/a
592.4045	0.06	1184809	keystroke	e	n/a
592.6595	0.12	1185319	keystroke	c	n/a
592.7045	0.09	1185409	keystroke	k	n/a
593.7095	0.135	1187419	keystroke	Key.enter	n/a
593.851	16.6755	1187702	prompt	n/a	deemed yields shakespeare contrary\n
596.5475	0.042	1193095	keystroke	d	n/a
596.7995	0.06	1193599	keystroke	e	n/a
596.9345	0.09	1193869	keystroke	e	n/a
597.0545	0.105	1194109	keystroke	m	n/a
597.1745	0.045	1194349	keystroke	e	n/a
597.3845	0.09	1194769	keystroke	d	n/a
597.4895	0.105	1194979	keystroke	Key.space	n/a
597.8795	0.09	1195759	keystroke	y	n/a
598.1795	0.06	1196359	keystroke	i	n/a
598.2995	0.06	1196599	keystroke	e	n/a
598.4945	0.12	1196989	keystroke	l	n/a
598.6445	0.06	1197289	keystroke	d	n/a
598.8545	0.135	1197709	keystroke	s	n/a
599.0045	0.105	1198009	keystroke	Key.space	n/a
599.2595	0.015	1198519	keystroke	h	n/a
600.2795	0.06	1200559	keystroke	Key.backspace	n/a
600.4445	0.12	1200889	keystroke	s	n/a
600.7145	0.15	1201429	keystroke	a	n/a
601.7195	0.09	1203439	keystroke	Key.backspace	n/a
602.3195	0.06	1204639	keystroke	h	n/a
602.3945	0.135	1204789	keystroke	a	n/a
603.3095	0.09	1206619	keystroke	k	n/a
603.4295	0.075	1206859	keystroke	e	n/a
603.6095	0.12	1207219	keystroke	s	n/a
603.7145	0.075	1207429	keystroke	Key.space	n/a
604.8845	0.075	1209769	keystroke	Key.backspace	n/a
605.1695	0.135	1210339	keystroke	p	n/a
605.5745	0.105	1211149	keystroke	e	n/a
605.7395	0.195	1211479	keystroke	a	n/a
605.9045	0.15	1211809	keystroke	r	n/a
606.0395	0.12	1212079	keystroke	e	n/a
606.5795	0.12	1213159	keystroke	Key.space	n/a
606.8645	0.105	1213729	keystroke	c	n/a
607.4795	0.105	1214959	keystroke	o	n/a
607.5995	0.135	1215199	keystroke	n	n/a
609.3995	0.075	1218799	keystroke	t	n/a
609.6095	0.12	1219219	keystroke	r	n/a
609.6845	0.18	1219369	keystroke	a	n/a
609.9395	0.135	1219879	keystroke	r	n/a
610.0445	0.09	1220089	keystroke	y	n/a
610.4045	0.12	1220809	keystroke	Key.enter	n/a
610.5305	4.631	1221061	prompt	n/a	ended navy pads dining\n
611.1545	0.075	1222309	keystroke	e	n/a
611.2745	0.09	1222549	keystroke	n	n/a
611.3945	0.075	1222789	keystroke	d	n/a
611.5445	0.075	1223089	keystroke	e	n/a
611.6945	0.105	1223389	keystroke	d	n/a
611.7845	0.105	1223569	keystroke	Key.space	n/a
611.9045	0.075	1223809	keystroke	n	n/a
611.9945	0.12	1223989	keystroke	a	n/a
612.1895	0.12	1224379	keystroke	v	n/a
612.3245	0.06	1224649	keystroke	y	n/a
612.8945	0.105	1225789	keystroke	Key.space	n/a
613.0295	0.165	1226059	keystroke	p	n/a
613.1345	0.135	1226269	keystroke	a	n/a
613.5395	0.09	1227079	keystroke	d	n/a
613.6595	0.135	1227319	keystroke	s	n/a
613.8095	0.105	1227619	keystroke	Key.space	n/a
614.0495	0.165	1228099	keystroke	d	n/a
614.2295	0.075	1228459	keystroke	i	n/a
614.5145	0.075	1229029	keystroke	n	n/a
614.6045	0.12	1229209	keystroke	i	n/a
614.7095	0.12	1229419	keystroke	n	n/a
614.8445	0.075	1229689	keystroke	g	n/a
615.0695	0.09	1230139	keystroke	Key.enter	n/a
615.1675	11.5295	1230335	prompt	n/a	employment wanna guides illegal\n
615.8045	0.105	1231609	keystroke	e	n/a
615.9545	0.105	1231909	keystroke	m	n/a
616.1645	0.076	1232329	keystroke	p	n/a
616.3595	0.06	1232719	keystroke	l	n/a
616.4945	0.09	1232989	keystroke	o	n/a
616.6445	0.06	1233289	keystroke	y	n/a
616.8395	0.075	1233679	keystroke	m	n/a
616.9745	0.105	1233949	keystroke	e	n/a
617.0495	0.075	1234099	keystroke	n	n/a
617.1695	0.105	1234339	keystroke	t	n/a
617.2895	0.075	1234579	keystroke	Key.space	n/a
617.5895	0.09	1235179	keystroke	w	n/a
617.7695	0.15	1235539	keystroke	a	n/a
617.8895	0.075	1235779	keystroke	n	n/a
618.0095	0.12	1236019	keystroke	n	n/a
618.1445	0.18	1236289	keystroke	a	n/a
618.3095	0.12	1236619	keystroke	Key.space	n/a
618.6245	0.12	1237249	keystroke	g	n/a
618.7295	0.075	1237459	keystroke	u	n/a
618.8945	0.09	1237789	keystroke	i	n/a
618.9995	0.06	1237999	keystroke	e	n/a
619.1795	0.045	1238359	keystroke	d	n/a
619.2995	0.09	1238599	keystroke	e	n/a
620.5295	0.075	1241059	keystroke	Key.backspace	n/a
620.7245	0.09	1241449	keystroke	Key.backspace	n/a
621.0695	0.075	1242139	keystroke	Key.backspace	n/a
621.5495	0.075	1243099	keystroke	d	n/a
