onset	duration	sample	value	key	prompt_text
2.2345	13.622	4469	prompt	n/a	the quick brown fox jumps over a lazy dog\n
5.26	0.08	10520	keystroke_t	t	n/a
5.356	0.064	10712	keystroke_h	h	n/a
5.46	0.072	10920	keystroke_e	e	n/a
5.556	0.072	11112	keystroke_Key.space	Key.space	n/a
5.788	0.0805	11576	keystroke_q	q	n/a
5.9165	0.08	11833	keystroke_u	u	n/a
6.0925	0.08	12185	keystroke_i	i	n/a
6.2125	0.0775	12425	keystroke_c	c	n/a
6.322	0.08	12644	keystroke_k	k	n/a
7.0135	0.072	14027	keystroke_Key.space	Key.space	n/a
7.3735	0.072	14747	keystroke_b	b	n/a
7.5655	0.072	15131	keystroke_r	r	n/a
7.6535	0.08	15307	keystroke_o	o	n/a
7.7575	0.064	15515	keystroke_w	w	n/a
7.8695	0.064	15739	keystroke_n	n	n/a
7.9975	0.096	15995	keystroke_Key.space	Key.space	n/a
8.2135	0.072	16427	keystroke_f	f	n/a
8.3095	0.08	16619	keystroke_o	o	n/a
8.5175	0.088	17035	keystroke_x	x	n/a
8.6445	0.088	17289	keystroke_Key.space	Key.space	n/a
9.581	0.064	19162	keystroke_j	j	n/a
9.741	0.064	19482	keystroke_u	u	n/a
9.9255	0.064	19851	keystroke_m	m	n/a
10.0775	0.088	20155	keystroke_p	p	n/a
10.3255	0.088	20651	keystroke_s	s	n/a
10.4845	0.08	20969	keystroke_Key.space	Key.space	n/a
10.7255	0.096	21451	keystroke_o	o	n/a
11.0845	0.064	22169	keystroke_v	v	n/a
11.2215	0.071	22443	keystroke_e	e	n/a
11.3485	0.081	22697	keystroke_r	r	n/a
11.4045	0.081	22809	keystroke_Key.space	Key.space	n/a
11.5415	0.072	23083	keystroke_t	t	n/a
11.6375	0.056	23275	keystroke_h	h	n/a
11.6935	0.072	23387	keystroke_e	e	n/a
11.8055	0.079	23611	keystroke_Key.space	Key.space	n/a
11.9975	0.072	23995	keystroke_l	l	n/a
12.1095	0.072	24219	keystroke_a	a	n/a
12.4695	0.104	24939	keystroke_x	x	n/a
12.8215	0.0795	25643	keystroke_Key.backspace	Key.backspace	n/a
12.933	0.096	25866	keystroke_z	z	n/a
13.221	0.064	26442	keystroke_y	y	n/a
13.333	0.08	26666	keystroke_Key.space	Key.space	n/a
13.845	0.08	27690	keystroke_d	d	n/a
13.941	0.088	27882	keystroke_o	o	n/a
14.101	0.064	28202	keystroke_g	g	n/a
15.765	0.088	31530	keystroke_Key.enter	Key.enter	n/a
15.8635	7.856	31727	prompt	n/a	concrete pressing paste harvard\n
17.1005	0.08	34201	keystroke_c	c	n/a
17.1815	0.071	34363	keystroke_o	o	n/a
17.3405	0.056	34681	keystroke_n	n	n/a
17.6125	0.088	35225	keystroke_c	c	n/a
17.8125	0.072	35625	keystroke_r	r	n/a
17.9325	0.104	35865	keystroke_e	e	n/a
18.1325	0.056	36265	keystroke_t	t	n/a
18.2845	0.072	36569	keystroke_e	e	n/a
18.4045	0.072	36809	keystroke_Key.space	Key.space	n/a
18.5645	0.072	37129	keystroke_p	p	n/a
18.6605	0.08	37321	keystroke_r	r	n/a
18.757	0.0875	37514	keystroke_e	e	n/a
18.9485	0.072	37897	keystroke_s	s	n/a
19.0925	0.08	38185	keystroke_s	s	n/a
19.1885	0.104	38377	keystroke_i	i	n/a
19.3005	0.08	38601	keystroke_n	n	n/a
19.4845	0.088	38969	keystroke_g	g	n/a
19.781	0.096	39562	keystroke_Key.space	Key.space	n/a
20.069	0.072	40138	keystroke_p	p	n/a
20.165	0.096	40330	keystroke_a	a	n/a
20.389	0.0875	40778	keystroke_s	s	n/a
20.637	0.071	41274	keystroke_t	t	n/a
20.844	0.096	41688	keystroke_e	e	n/a
21.06	0.088	42120	keystroke_Key.space	Key.space	n/a
21.4605	0.072	42921	keystroke_h	h	n/a
21.5725	0.0885	43145	keystroke_a	a	n/a
21.741	0.064	43482	keystroke_r	r	n/a
22.029	0.024	44058	keystroke_b	b	n/a
22.42	0.064	44840	keystroke_Key.backspace	Key.backspace	n/a
22.492	0.105	44984	keystroke_v	v	n/a
22.669	0.104	45338	keystroke_a	a	n/a
22.844	0.072	45688	keystroke_r	r	n/a
23.028	0.072	46056	keystroke_d	d	n/a
23.62	0.096	47240	keystroke_Key.enter	Key.enter	n/a
23.7255	8.321	47451	prompt	n/a	wagon retrieved guinea grove\n
24.453	0.087	48906	keystroke_w	w	n/a
24.6445	0.0875	49289	keystroke_a	a	n/a
24.9005	0.0645	49801	keystroke_g	g	n/a
24.997	0.096	49994	keystroke_o	o	n/a
25.221	0.072	50442	keystroke_n	n	n/a
25.445	0.088	50890	keystroke_Key.space	Key.space	n/a
25.733	0.088	51466	keystroke_r	r	n/a
25.861	0.104	51722	keystroke_e	e	n/a
26.077	0.08	52154	keystroke_t	t	n/a
26.517	0.096	53034	keystroke_r	r	n/a
26.805	0.08	53610	keystroke_i	i	n/a
26.981	0.096	53962	keystroke_e	e	n/a
27.381	0.072	54762	keystroke_v	v	n/a
27.645	0.096	55290	keystroke_e	e	n/a
27.837	0.088	55674	keystroke_d	d	n/a
28.013	0.088	56026	keystroke_Key.space	Key.space	n/a
28.9085	0.064	57817	keystroke_g	g	n/a
29.0285	0.088	58057	keystroke_u	u	n/a
29.2445	0.08	58489	keystroke_i	i	n/a
30.0125	0.072	60025	keystroke_n	n	n/a
30.1325	0.088	60265	keystroke_e	e	n/a
30.3005	0.096	60601	keystroke_a	a	n/a
30.428	0.088	60856	keystroke_Key.space	Key.space	n/a
30.9645	0.073	61929	keystroke_g	g	n/a
31.14	0.0565	62280	keystroke_r	r	n/a
31.244	0.08	62488	keystroke_o	o	n/a
31.4365	0.048	62873	keystroke_v	v	n/a
31.54	0.088	63080	keystroke_e	e	n/a
31.9565	0.088	63913	keystroke_Key.enter	Key.enter	n/a
32.0515	7.1225	64103	prompt	n/a	stranger lucia toll keep\n
32.644	0.096	65288	keystroke_s	s	n/a
32.844	0.08	65688	keystroke_t	t	n/a
33.004	0.1525	66008	keystroke_r	r	n/a
33.292	0.096	66584	keystroke_a	a	n/a
33.404	0.072	66808	keystroke_n	n	n/a
33.66	0.08	67320	keystroke_g	g	n/a
33.836	0.08	67672	keystroke_e	e	n/a
33.996	0.064	67992	keystroke_r	r	n/a
34.14	0.088	68280	keystroke_Key.space	Key.space	n/a
34.333	0.0715	68666	keystroke_l	l	n/a
34.5245	0.064	69049	keystroke_u	u	n/a
34.6445	0.088	69289	keystroke_c	c	n/a
35.4685	0.088	70937	keystroke_i	i	n/a
35.5965	0.104	71193	keystroke_a	a	n/a
35.7485	0.08	71497	keystroke_Key.space	Key.space	n/a
36.4765	0.088	72953	keystroke_t	t	n/a
37.4925	0.128	74985	keystroke_o	o	n/a
37.8765	0.08	75753	keystroke_l	l	n/a
38.0525	0.08	76105	keystroke_l	l	n/a
38.1805	0.112	76361	keystroke_Key.space	Key.space	n/a
38.5005	0.072	77001	keystroke_k	k	n/a
38.6605	0.072	77321	keystroke_e	e	n/a
38.8045	0.072	77609	keystroke_e	e	n/a
38.9005	0.08	77801	keystroke_p	p	n/a
39.0845	0.088	78169	keystroke_Key.enter	Key.enter	n/a
39.18	6.8025	78360	prompt	n/a	uncle kirk flickr margin\n
39.8765	0.08	79753	keystroke_u	u	n/a
40.0765	0.08	80153	keystroke_n	n	n/a
40.4045	0.08	80809	keystroke_c	c	n/a
40.5085	0.072	81017	keystroke_l	l	n/a
40.6285	0.088	81257	keystroke_e	e	n/a
40.8045	0.08	81609	keystroke_Key.space	Key.space	n/a
41.1405	0.088	82281	keystroke_k	k	n/a
41.3165	0.072	82633	keystroke_i	i	n/a
41.5405	0.08	83081	keystroke_r	r	n/a
41.9165	0.104	83833	keystroke_k	k	n/a
42.4915	0.097	84983	keystroke_Key.space	Key.space	n/a
43.3485	0.08	86697	keystroke_f	f	n/a
43.4205	0.08	86841	keystroke_l	l	n/a
43.5885	0.096	87177	keystroke_i	i	n/a
43.7005	0.072	87401	keystroke_c	c	n/a
43.8605	0.072	87721	keystroke_k	k	n/a
44.0925	0.072	88185	keystroke_r	r	n/a
44.516	0.088	89032	keystroke_Key.space	Key.space	n/a
44.764	0.088	89528	keystroke_m	m	n/a
44.98	0.088	89960	keystroke_a	a	n/a
45.164	0.08	90328	keystroke_r	r	n/a
45.42	0.072	90840	keystroke_g	g	n/a
45.516	0.12	91032	keystroke_i	i	n/a
45.644	0.064	91288	keystroke_n	n	n/a
45.9	0.08	91800	keystroke_Key.enter	Key.enter	n/a
45.9885	9.266	91977	prompt	n/a	fuel mobility sunrise statutory\n
47.38	0.08	94760	keystroke_f	f	n/a
47.524	0.08	95048	keystroke_u	u	n/a
47.796	0.072	95592	keystroke_e	e	n/a
47.9	0.08	95800	keystroke_l	l	n/a
48.316	0.088	96632	keystroke_Key.space	Key.space	n/a
48.548	0.064	97096	keystroke_m	m	n/a
48.684	0.088	97368	keystroke_o	o	n/a
48.868	0.08	97736	keystroke_b	b	n/a
48.988	0.088	97976	keystroke_i	i	n/a
49.204	0.072	98408	keystroke_l	l	n/a
49.372	0.064	98744	keystroke_i	i	n/a
49.484	0.096	98968	keystroke_t	t	n/a
49.684	0.072	99368	keystroke_y	y	n/a
50.236	0.08	100472	keystroke_Key.space	Key.space	n/a
50.412	0.088	100824	keystroke_s	s	n/a
50.524	0.096	101048	keystroke_u	u	n/a
50.812	0.072	101624	keystroke_n	n	n/a
51.252	0.088	102504	keystroke_r	r	n/a
51.444	0.08	102888	keystroke_i	i	n/a
51.628	0.08	103256	keystroke_s	s	n/a
51.828	0.08	103656	keystroke_e	e	n/a
52.268	0.088	104536	keystroke_Key.space	Key.space	n/a
52.476	0.104	104952	keystroke_s	s	n/a
52.676	0.08	105352	keystroke_t	t	n/a
52.884	0.088	105768	keystroke_a	a	n/a
53.252	0.072	106504	keystroke_t	t	n/a
53.476	0.096	106952	keystroke_u	u	n/a
54.284	0.088	108568	keystroke_t	t	n/a
54.452	0.096	108904	keystroke_o	o	n/a
54.612	0.096	109224	keystroke_r	r	n/a
54.852	0.08	109704	keystroke_y	y	n/a
55.172	0.08	110344	keystroke_Key.enter	Key.enter	n/a
55.2605	9.706	110521	prompt	n/a	travels developer succeed listen\n
55.956	0.072	111912	keystroke_t	t	n/a
56.244	0.112	112488	keystroke_r	r	n/a
56.58	0.112	113160	keystroke_a	a	n/a
56.78	0.08	113560	keystroke_v	v	n/a
56.924	0.08	113848	keystroke_e	e	n/a
57.036	0.088	114072	keystroke_l	l	n/a
57.356	0.064	114712	keystroke_s	s	n/a
57.532	0.088	115064	keystroke_Key.space	Key.space	n/a
57.708	0.097	115416	keystroke_d	d	n/a
57.901	0.087	115802	keystroke_e	e	n/a
58.212	0.088	116424	keystroke_v	v	n/a
58.468	0.088	116936	keystroke_e	e	n/a
58.644	0.104	117288	keystroke_l	l	n/a
58.908	0.096	117816	keystroke_o	o	n/a
59.124	0.08	118248	keystroke_p	p	n/a
60.756	0.144	121512	keystroke_e	e	n/a
61.26	0.088	122520	keystroke_r	r	n/a
61.436	0.088	122872	keystroke_Key.space	Key.space	n/a
61.58	0.088	123160	keystroke_s	s	n/a
61.684	0.08	123368	keystroke_u	u	n/a
62.036	0.096	124072	keystroke_c	c	n/a
62.212	0.088	124424	keystroke_c	c	n/a
62.42	0.112	124840	keystroke_e	e	n/a
62.636	0.072	125272	keystroke_e	e	n/a
62.86	0.08	125720	keystroke_d	d	n/a
63.948	0.088	127896	keystroke_Key.space	Key.space	n/a
64.172	0.088	128344	keystroke_l	l	n/a
64.356	0.072	128712	keystroke_i	i	n/a
64.436	0.072	128872	keystroke_s	s	n/a
64.596	0.072	129192	keystroke_t	t	n/a
64.684	0.072	129368	keystroke_e	e	n/a
64.748	0.056	129496	keystroke_n	n	n/a
64.892	0.072	129784	keystroke_Key.enter	Key.enter	n/a
64.9735	9.9425	129947	prompt	n/a	veterinary based jackets hostel\n
65.684	0.128	131368	keystroke_v	v	n/a
65.948	0.096	131896	keystroke_e	e	n/a
66.836	0.096	133672	keystroke_t	t	n/a
67.228	0.112	134456	keystroke_e	e	n/a
67.78	0.096	135560	keystroke_r	r	n/a
68.012	0.104	136024	keystroke_i	i	n/a
68.18	0.088	136360	keystroke_n	n	n/a
68.316	0.08	136632	keystroke_a	a	n/a
68.476	0.104	136952	keystroke_r	r	n/a
68.748	0.072	137496	keystroke_y	y	n/a
68.9	0.104	137800	keystroke_Key.space	Key.space	n/a
69.116	0.088	138232	keystroke_b	b	n/a
69.3	0.088	138600	keystroke_a	a	n/a
69.476	0.08	138952	keystroke_s	s	n/a
69.66	0.072	139320	keystroke_e	e	n/a
69.844	0.072	139688	keystroke_d	d	n/a
69.972	0.08	139944	keystroke_Key.space	Key.space	n/a
70.188	0.08	140376	keystroke_j	j	n/a
70.388	0.096	140776	keystroke_a	a	n/a
70.564	0.096	141128	keystroke_c	c	n/a
70.708	0.088	141416	keystroke_k	k	n/a
70.996	0.096	141992	keystroke_e	e	n/a
71.22	0.088	142440	keystroke_t	t	n/a
71.516	0.072	143032	keystroke_s	s	n/a
71.66	0.104	143320	keystroke_Key.space	Key.space	n/a
71.996	0.064	143992	keystroke_h	h	n/a
72.156	0.096	144312	keystroke_o	o	n/a
72.372	0.104	144744	keystroke_s	s	n/a
72.604	0.0715	145208	keystroke_t	t	n/a
72.756	0.0715	145512	keystroke_e	e	n/a
74.6595	0.08	149319	keystroke_l	l	n/a
74.8435	0.064	149687	keystroke_Key.enter	Key.enter	n/a
74.9175	6.384	149835	prompt	n/a	me modems fuel dominican\n
75.6115	0.096	151223	keystroke_m	m	n/a
75.7635	0.0805	151527	keystroke_e	e	n/a
75.9075	0.088	151815	keystroke_Key.space	Key.space	n/a
76.3075	0.088	152615	keystroke_m	m	n/a
76.4755	0.08	152951	keystroke_o	o	n/a
76.7955	0.12	153591	keystroke_d	d	n/a
77.012	0.0805	154024	keystroke_e	e	n/a
77.1485	0.0875	154297	keystroke_m	m	n/a
77.307	0.0815	154614	keystroke_s	s	n/a
77.475	0.088	154950	keystroke_Key.space	Key.space	n/a
78.012	0.072	156024	keystroke_f	f	n/a
78.1165	0.0785	156233	keystroke_u	u	n/a
78.227	0.0815	156454	keystroke_e	e	n/a
78.404	0.08	156808	keystroke_l	l	n/a
78.747	0.096	157494	keystroke_Key.space	Key.space	n/a
79.0125	0.096	158025	keystroke_d	d	n/a
79.148	0.0805	158296	keystroke_o	o	n/a
79.2835	0.0645	158567	keystroke_m	m	n/a
79.419	0.088	158838	keystroke_i	i	n/a
79.62	0.0725	159240	keystroke_n	n	n/a
79.812	0.096	159624	keystroke_i	i	n/a
80.1325	0.04	160265	keystroke_c	c	n/a
80.5	0.112	161000	keystroke_a	a	n/a
80.931	0.097	161862	keystroke_n	n	n/a
81.2275	0.0715	162455	keystroke_Key.enter	Key.enter	n/a
81.307	7.811	162614	prompt	n/a	sorted scanned remix peterson\n
82.195	0.129	164390	keystroke_s	s	n/a
82.34	0.072	164680	keystroke_o	o	n/a
82.507	0.113	165014	keystroke_r	r	n/a
82.756	0.088	165512	keystroke_t	t	n/a
82.963	0.073	165926	keystroke_e	e	n/a
83.204	0.0885	166408	keystroke_d	d	n/a
83.3955	0.0875	166791	keystroke_Key.space	Key.space	n/a
83.5485	0.0795	167097	keystroke_s	s	n/a
83.764	0.104	167528	keystroke_c	c	n/a
84.06	0.072	168120	keystroke_a	a	n/a
84.484	0.08	168968	keystroke_n	n	n/a
84.644	0.08	169288	keystroke_n	n	n/a
84.748	0.08	169496	keystroke_e	e	n/a
84.94	0.08	169880	keystroke_d	d	n/a
85.067	0.088	170134	keystroke_Key.space	Key.space	n/a
85.316	0.096	170632	keystroke_r	r	n/a
85.452	0.08	170904	keystroke_e	e	n/a
85.564	0.0805	171128	keystroke_m	m	n/a
85.747	0.081	171494	keystroke_i	i	n/a
86.0525	0.0715	172105	keystroke_x	x	n/a
86.259	0.072	172518	keystroke_Key.space	Key.space	n/a
86.42	0.088	172840	keystroke_p	p	n/a
86.524	0.079	173048	keystroke_e	e	n/a
86.724	0.087	173448	keystroke_r	r	n/a
87.243	0.081	174486	keystroke_t	t	n/a
87.587	0.088	175174	keystroke_Key.backspace	Key.backspace	n/a
87.739	0.08	175478	keystroke_Key.backspace	Key.backspace	n/a
87.828	0.064	175656	keystroke_t	t	n/a
87.939	0.097	175878	keystroke_e	e	n/a
88.108	0.071	176216	keystroke_r	r	n/a
88.299	0.096	176598	keystroke_s	s	n/a
88.419	0.081	176838	keystroke_o	o	n/a
88.563	0.065	177126	keystroke_n	n	n/a
89.0355	0.081	178071	keystroke_Key.enter	Key.enter	n/a
89.124	6.85	178248	prompt	n/a	backed stood together addresses\n
89.9395	0.088	179879	keystroke_b	b	n/a
90.1075	0.096	180215	keystroke_a	a	n/a
90.2675	0.0805	180535	keystroke_c	c	n/a
90.364	0.08	180728	keystroke_k	k	n/a
90.548	0.096	181096	keystroke_e	e	n/a
90.764	0.08	181528	keystroke_d	d	n/a
90.916	0.08	181832	keystroke_Key.space	Key.space	n/a
91.044	0.08	182088	keystroke_s	s	n/a
91.244	0.072	182488	keystroke_t	t	n/a
91.348	0.072	182696	keystroke_o	o	n/a
91.5	0.096	183000	keystroke_o	o	n/a
91.716	0.096	183432	keystroke_d	d	n/a
91.884	0.08	183768	keystroke_Key.space	Key.space	n/a
92.132	0.088	184264	keystroke_t	t	n/a
92.276	0.072	184552	keystroke_o	o	n/a
92.492	0.08	184984	keystroke_g	g	n/a
92.708	0.08	185416	keystroke_e	e	n/a
92.86	0.072	185720	keystroke_t	t	n/a
92.948	0.064	185896	keystroke_h	h	n/a
93.06	0.064	186120	keystroke_e	e	n/a
93.18	0.08	186360	keystroke_r	r	n/a
93.316	0.096	186632	keystroke_Key.space	Key.space	n/a
93.924	0.104	187848	keystroke_a	a	n/a
94.284	0.144	188568	keystroke_d	d	n/a
94.652	0.104	189304	keystroke_d	d	n/a
94.884	0.088	189768	keystroke_r	r	n/a
95.036	0.088	190072	keystroke_e	e	n/a
95.228	0.072	190456	keystroke_s	s	n/a
95.372	0.08	190744	keystroke_s	s	n/a
95.548	0.064	191096	keystroke_e	e	n/a
95.708	0.072	191416	keystroke_s	s	n/a
95.9	0.072	191800	keystroke_Key.enter	Key.enter	n/a
95.981	8.4325	191962	prompt	n/a	stevens conduct web accessed\n
96.484	0.104	192968	keystroke_s	s	n/a
96.684	0.08	193368	keystroke_t	t	n/a
96.82	0.096	193640	keystroke_e	e	n/a
97.02	0.088	194040	keystroke_v	v	n/a
97.18	0.072	194360	keystroke_e	e	n/a
97.284	0.096	194568	keystroke_n	n	n/a
97.596	0.072	195192	keystroke_s	s	n/a
97.74	0.104	195480	keystroke_Key.space	Key.space	n/a
98.004	0.088	196008	keystroke_c	c	n/a
98.084	0.0875	196168	keystroke_o	o	n/a
98.2675	0.064	196535	keystroke_n	n	n/a
98.4515	0.08	196903	keystroke_d	d	n/a
98.6515	0.096	197303	keystroke_u	u	n/a
98.9635	0.096	197927	keystroke_c	c	n/a
99.2195	0.072	198439	keystroke_t	t	n/a
99.4275	0.088	198855	keystroke_Key.space	Key.space	n/a
99.6515	0.088	199303	keystroke_w	w	n/a
99.8115	0.088	199623	keystroke_e	e	n/a
100.0595	0.088	200119	keystroke_v	v	n/a
100.3555	0.088	200711	keystroke_Key.space	Key.space	n/a
100.7155	0.08	201431	keystroke_Key.backspace	Key.backspace	n/a
100.8755	0.096	201751	keystroke_Key.backspace	Key.backspace	n/a
101.9155	0.08	203831	keystroke_b	b	n/a
102.5875	0.096	205175	keystroke_Key.space	Key.space	n/a
102.7635	0.112	205527	keystroke_a	a	n/a
102.9795	0.072	205959	keystroke_c	c	n/a
103.1315	0.064	206263	keystroke_c	c	n/a
103.2675	0.08	206535	keystroke_e	e	n/a
103.4595	0.072	206919	keystroke_s	s	n/a
103.6115	0.08	207223	keystroke_s	s	n/a
103.7795	0.08	207559	keystroke_e	e	n/a
103.9715	0.08	207943	keystroke_d	d	n/a
104.3235	0.088	208647	keystroke_Key.enter	Key.enter	n/a
104.4185	7.8665	208837	prompt	n/a	adoption nudist heel married\n
104.9715	0.088	209943	keystroke_s	s	n/a
105.3155	0.08	210631	keystroke_Key.backspace	Key.backspace	n/a
105.4515	0.12	210903	keystroke_a	a	n/a
106.0435	0.08	212087	keystroke_d	d	n/a
106.1555	0.08	212311	keystroke_o	o	n/a
106.4275	0.08	212855	keystroke_p	p	n/a
106.6835	0.072	213367	keystroke_t	t	n/a
106.7795	0.096	213559	keystroke_i	i	n/a
106.9715	0.096	213943	keystroke_o	o	n/a
107.9715	0.104	215943	keystroke_n	n	n/a
108.1715	0.104	216343	keystroke_Key.space	Key.space	n/a
108.7475	0.088	217495	keystroke_n	n	n/a
109.0435	0.112	218087	keystroke_u	u	n/a
109.2755	0.096	218551	keystroke_d	d	n/a
109.3795	0.08	218759	keystroke_i	i	n/a
109.6435	0.096	219287	keystroke_s	s	n/a
109.8675	0.08	219735	keystroke_t	t	n/a
110.0035	0.088	220007	keystroke_Key.space	Key.space	n/a
110.1955	0.088	220391	keystroke_h	h	n/a
110.2915	0.08	220583	keystroke_e	e	n/a
110.4515	0.088	220903	keystroke_e	e	n/a
110.6195	0.08	221239	keystroke_l	l	n/a
110.8035	0.088	221607	keystroke_Key.space	Key.space	n/a
111.0355	0.08	222071	keystroke_m	m	n/a
111.1795	0.104	222359	keystroke_a	a	n/a
111.3555	0.104	222711	keystroke_r	r	n/a
111.5955	0.056	223191	keystroke_r	r	n/a
111.7475	0.072	223495	keystroke_i	i	n/a
111.8035	0.088	223607	keystroke_e	e	n/a
111.9795	0.08	223959	keystroke_d	d	n/a
112.2035	0.08	224407	keystroke_Key.enter	Key.enter	n/a
112.2895	11.732	224579	prompt	n/a	phantom collecting macedonia which's\n
112.9475	0.112	225895	keystroke_p	p	n/a
113.2275	0.08	226455	keystroke_h	h	n/a
113.3955	0.096	226791	keystroke_a	a	n/a
113.5235	0.08	227047	keystroke_n	n	n/a
113.7395	0.0715	227479	keystroke_t	t	n/a
113.836	0.079	227672	keystroke_o	o	n/a
114.027	0.081	228054	keystroke_m	m	n/a
114.227	0.08	228454	keystroke_Key.space	Key.space	n/a
114.548	0.112	229096	keystroke_c	c	n/a
114.66	0.087	229320	keystroke_o	o	n/a
114.867	0.072	229734	keystroke_l	l	n/a
115.011	0.072	230022	keystroke_l	l	n/a
115.107	0.072	230214	keystroke_e	e	n/a
115.251	0.097	230502	keystroke_c	c	n/a
115.459	0.072	230918	keystroke_t	t	n/a
115.547	0.081	231094	keystroke_i	i	n/a
115.699	0.088	231398	keystroke_v	v	n/a
116.3875	0.072	232775	keystroke_Key.backspace	Key.backspace	n/a
116.6195	0.08	233239	keystroke_n	n	n/a
116.7555	0.08	233511	keystroke_g	g	n/a
116.8995	0.096	233799	keystroke_Key.space	Key.space	n/a
117.4995	0.112	234999	keystroke_m	m	n/a
117.6835	0.104	235367	keystroke_a	a	n/a
117.9715	0.088	235943	keystroke_c	c	n/a
118.1555	0.096	236311	keystroke_e	e	n/a
118.4435	0.08	236887	keystroke_d	d	n/a
118.5555	0.088	237111	keystroke_o	o	n/a
118.7875	0.072	237575	keystroke_n	n	n/a
118.9475	0.088	237895	keystroke_i	i	n/a
119.0755	0.096	238151	keystroke_a	a	n/a
120.9635	0.088	241927	keystroke_Key.space	Key.space	n/a
122.0515	0.112	244103	keystroke_w	w	n/a
122.1715	0.096	244343	keystroke_h	h	n/a
122.2755	0.104	244551	keystroke_i	i	n/a
122.4195	0.104	244839	keystroke_c	c	n/a
122.5315	0.072	245063	keystroke_h	h	n/a
123.1075	0.112	246215	keystroke_'	'	n/a
123.5235	0.088	247047	keystroke_s	s	n/a
123.9315	0.088	247863	keystroke_Key.enter	Key.enter	n/a
124.0285	7.457	248057	prompt	n/a	phone optimization desk butler\n
124.7955	0.104	249591	keystroke_p	p	n/a
124.9955	0.056	249991	keystroke_h	h	n/a
125.1155	0.088	250231	keystroke_o	o	n/a
125.1955	0.088	250391	keystroke_n	n	n/a
125.3315	0.08	250663	keystroke_e	e	n/a
125.4355	0.088	250871	keystroke_Key.space	Key.space	n/a
125.6115	0.112	251223	keystroke_o	o	n/a
125.8435	0.08	251687	keystroke_p	p	n/a
126.0275	0.088	252055	keystroke_t	t	n/a
126.1475	0.08	252295	keystroke_i	i	n/a
126.4035	0.08	252807	keystroke_m	m	n/a
126.5875	0.072	253175	keystroke_i	i	n/a
126.8275	0.104	253655	keystroke_a	a	n/a
127.2595	0.072	254519	keystroke_Key.backspace	Key.backspace	n/a
127.3555	0.08	254711	keystroke_z	z	n/a
127.5395	0.104	255079	keystroke_a	a	n/a
127.8035	0.08	255607	keystroke_t	t	n/a
127.9475	0.096	255895	keystroke_i	i	n/a
128.1315	0.112	256263	keystroke_o	o	n/a
128.3235	0.08	256647	keystroke_n	n	n/a
128.4995	0.096	256999	keystroke_Key.space	Key.space	n/a
128.7075	0.097	257415	keystroke_d	d	n/a
128.8675	0.08	257735	keystroke_e	e	n/a
129.1155	0.128	258231	keystroke_k	k	n/a
129.6355	0.064	259271	keystroke_Key.backspace	Key.backspace	n/a
129.7315	0.08	259463	keystroke_s	s	n/a
129.8835	0.08	259767	keystroke_k	k	n/a
130.0915	0.088	260183	keystroke_Key.space	Key.space	n/a
130.4115	0.088	260823	keystroke_b	b	n/a
130.5155	0.072	261031	keystroke_u	u	n/a
130.6525	0.079	261305	keystroke_t	t	n/a
130.8035	0.072	261607	keystroke_t	t	n/a
130.9395	0.08	261879	keystroke_e	e	n/a
131.0275	0.08	262055	keystroke_r	r	n/a
131.4035	0.08	262807	keystroke_Key.enter	Key.enter	n/a
131.4905	9.8665	262981	prompt	n/a	weak proteins somebody rays\n
132.2915	0.096	264583	keystroke_w	w	n/a
132.4435	0.08	264887	keystroke_e	e	n/a
132.6195	0.088	265239	keystroke_a	a	n/a
132.7395	0.096	265479	keystroke_k	k	n/a
133.1475	0.104	266295	keystroke_Key.space	Key.space	n/a
133.8755	0.136	267751	keystroke_p	p	n/a
134.0915	0.096	268183	keystroke_r	r	n/a
134.2115	0.08	268423	keystroke_o	o	n/a
134.8435	0.08	269687	keystroke_t	t	n/a
135.0515	0.072	270103	keystroke_e	e	n/a
135.1635	0.088	270327	keystroke_i	i	n/a
135.3315	0.08	270663	keystroke_n	n	n/a
135.5075	0.08	271015	keystroke_s	s	n/a
135.7315	0.088	271463	keystroke_Key.space	Key.space	n/a
135.8515	0.08	271703	keystroke_s	s	n/a
135.9635	0.08	271927	keystroke_o	o	n/a
136.0995	0.08	272199	keystroke_m	m	n/a
136.3875	0.096	272775	keystroke_e	e	n/a
137.0995	0.096	274199	keystroke_b	b	n/a
137.2355	0.08	274471	keystroke_o	o	n/a
137.6755	0.136	275351	keystroke_f	f	n/a
138.0675	0.04	276135	keystroke_y	y	n/a
138.2755	0.08	276551	keystroke_Key.backspace	Key.backspace	n/a
138.4115	0.072	276823	keystroke_Key.backspace	Key.backspace	n/a
138.4755	0.12	276951	keystroke_d	d	n/a
138.7395	0.056	277479	keystroke_y	y	n/a
139.1235	0.104	278247	keystroke_Key.space	Key.space	n/a
139.3555	0.12	278711	keystroke_r	r	n/a
139.7235	0.072	279447	keystroke_Key.backspace	Key.backspace	n/a
140.3155	0.088	280631	keystroke_r	r	n/a
140.4595	0.08	280919	keystroke_a	a	n/a
140.6435	0.064	281287	keystroke_y	y	n/a
141.0915	0.08	282183	keystroke_s	s	n/a
141.2915	0.064	282583	keystroke_Key.enter	Key.enter	n/a
141.363	8.962	282726	prompt	n/a	chassis variations accomplished treat\n
142.1075	0.112	284215	keystroke_c	c	n/a
142.2195	0.064	284439	keystroke_h	h	n/a
142.3075	0.08	284615	keystroke_a	a	n/a
142.4595	0.072	284919	keystroke_s	s	n/a
142.6035	0.072	285207	keystroke_s	s	n/a
142.6835	0.056	285367	keystroke_i	i	n/a
142.8115	0.088	285623	keystroke_s	s	n/a
143.0355	0.08	286071	keystroke_t	t	n/a
143.9715	0.088	287943	keystroke_Key.backspace	Key.backspace	n/a
144.2275	0.096	288455	keystroke_Key.space	Key.space	n/a
144.9555	0.072	289911	keystroke_v	v	n/a
145.0915	0.08	290183	keystroke_a	a	n/a
145.2515	0.08	290503	keystroke_r	r	n/a
145.3875	0.08	290775	keystroke_i	i	n/a
145.5155	0.08	291031	keystroke_a	a	n/a
145.6915	0.08	291383	keystroke_t	t	n/a
145.7875	0.08	291575	keystroke_i	i	n/a
145.9555	0.072	291911	keystroke_o	o	n/a
146.0915	0.08	292183	keystroke_n	n	n/a
146.2595	0.088	292519	keystroke_s	s	n/a
146.3955	0.08	292791	keystroke_Key.space	Key.space	n/a
146.6035	0.104	293207	keystroke_a	a	n/a
146.8675	0.08	293735	keystroke_c	c	n/a
147.0355	0.072	294071	keystroke_c	c	n/a
147.1315	0.08	294263	keystroke_o	o	n/a
147.2755	0.072	294551	keystroke_m	m	n/a
147.4275	0.088	294855	keystroke_p	p	n/a
147.7395	0.072	295479	keystroke_i	i	n/a
147.8915	0.088	295783	keystroke_s	s	n/a
147.9635	0.064	295927	keystroke_h	h	n/a
148.0915	0.072	296183	keystroke_e	e	n/a
148.2515	0.08	296503	keystroke_d	d	n/a
148.3715	0.096	296743	keystroke_Key.space	Key.space	n/a
148.5715	0.096	297143	keystroke_t	t	n/a
148.7315	0.088	297463	keystroke_r	r	n/a
148.9395	0.096	297879	keystroke_e	e	n/a
149.1475	0.096	298295	keystroke_a	a	n/a
149.3395	0.08	298679	keystroke_t	t	n/a
150.2435	0.08	300487	keystroke_Key.enter	Key.enter	n/a
150.3305	6.363	300661	prompt	n/a	pepper eyes woman adds\n
150.9715	0.112	301943	keystroke_p	p	n/a
151.1795	0.08	302359	keystroke_e	e	n/a
151.2995	0.072	302599	keystroke_p	p	n/a
151.4595	0.072	302919	keystroke_p	p	n/a
151.6595	0.096	303319	keystroke_e	e	n/a
151.8515	0.08	303703	keystroke_r	r	n/a
152.0275	0.096	304055	keystroke_Key.space	Key.space	n/a
152.3395	0.096	304679	keystroke_e	e	n/a
152.5715	0.072	305143	keystroke_t	t	n/a
152.7715	0.184	305543	keystroke_e	e	n/a
153.4115	0.064	306823	keystroke_Key.backspace	Key.backspace	n/a
153.5635	0.096	307127	keystroke_Key.backspace	Key.backspace	n/a
153.7395	0.064	307479	keystroke_y	y	n/a
153.9635	0.088	307927	keystroke_e	e	n/a
154.2835	0.072	308567	keystroke_s	s	n/a
154.5635	0.088	309127	keystroke_Key.space	Key.space	n/a
154.7635	0.088	309527	keystroke_w	w	n/a
154.8675	0.096	309735	keystroke_o	o	n/a
155.0595	0.072	310119	keystroke_m	m	n/a
155.1795	0.096	310359	keystroke_a	a	n/a
155.2675	0.064	310535	keystroke_n	n	n/a
155.4435	0.096	310887	keystroke_Key.space	Key.space	n/a
155.6035	0.096	311207	keystroke_a	a	n/a
155.8115	0.088	311623	keystroke_d	d	n/a
155.9715	0.08	311943	keystroke_d	d	n/a
156.291	0.08	312582	keystroke_s	s	n/a
156.603	0.088	313206	keystroke_Key.enter	Key.enter	n/a
156.7005	10.56	313401	prompt	n/a	sociology opposed acute exploring\n
157.339	0.088	314678	keystroke_s	s	n/a
157.451	0.1045	314902	keystroke_o	o	n/a
157.6115	0.0955	315223	keystroke_c	c	n/a
157.7315	0.08	315463	keystroke_i	i	n/a
158.979	0.096	317958	keystroke_o	o	n/a
159.227	0.096	318454	keystroke_l	l	n/a
159.403	0.072	318806	keystroke_o	o	n/a
159.571	0.104	319142	keystroke_f	f	n/a
159.827	0.08	319654	keystroke_y	y	n/a
160.395	0.08	320790	keystroke_Key.backspace	Key.backspace	n/a
160.555	0.088	321110	keystroke_Key.backspace	Key.backspace	n/a
161.347	0.08	322694	keystroke_g	g	n/a
161.555	0.064	323110	keystroke_y	y	n/a
162.171	0.096	324342	keystroke_Key.space	Key.space	n/a
162.379	0.096	324758	keystroke_o	o	n/a
162.595	0.08	325190	keystroke_p	p	n/a
162.763	0.08	325526	keystroke_p	p	n/a
162.947	0.072	325894	keystroke_o	o	n/a
163.051	0.08	326102	keystroke_s	s	n/a
163.235	0.08	326470	keystroke_e	e	n/a
163.411	0.08	326822	keystroke_d	d	n/a
163.531	0.088	327062	keystroke_Key.space	Key.space	n/a
163.699	0.088	327398	keystroke_a	a	n/a
163.923	0.08	327846	keystroke_c	c	n/a
164.123	0.024	328246	keystroke_c	c	n/a
164.411	0.064	328822	keystroke_Key.backspace	Key.backspace	n/a
164.651	0.072	329302	keystroke_u	u	n/a
164.787	0.088	329574	keystroke_t	t	n/a
164.987	0.104	329974	keystroke_e	e	n/a
165.555	0.096	331110	keystroke_Key.space	Key.space	n/a
165.875	0.096	331750	keystroke_e	e	n/a
166.099	0.096	332198	keystroke_x	x	n/a
166.211	0.088	332422	keystroke_p	p	n/a
166.387	0.088	332774	keystroke_l	l	n/a
166.571	0.08	333142	keystroke_o	o	n/a
166.683	0.096	333366	keystroke_r	r	n/a
166.811	0.08	333622	keystroke_i	i	n/a
166.899	0.072	333798	keystroke_n	n	n/a
167.035	0.072	334070	keystroke_g	g	n/a
167.187	0.072	334374	keystroke_Key.enter	Key.enter	n/a
167.266	8.115	334532	prompt	n/a	boston nerve symptoms seal\n
168.147	0.072	336294	keystroke_b	b	n/a
168.235	0.072	336470	keystroke_o	o	n/a
168.363	0.096	336726	keystroke_s	s	n/a
168.571	0.072	337142	keystroke_t	t	n/a
168.683	0.08	337366	keystroke_o	o	n/a
168.851	0.072	337702	keystroke_n	n	n/a
169.091	0.08	338182	keystroke_Key.space	Key.space	n/a
169.363	0.072	338726	keystroke_n	n	n/a
169.459	0.104	338918	keystroke_e	e	n/a
169.867	0.104	339734	keystroke_r	r	n/a
170.179	0.104	340358	keystroke_v	v	n/a
170.515	0.104	341030	keystroke_e	e	n/a
170.827	0.096	341654	keystroke_Key.space	Key.space	n/a
170.963	0.088	341926	keystroke_s	s	n/a
171.283	0.096	342566	keystroke_t	t	n/a
171.651	0.112	343302	keystroke_m	m	n/a
171.987	0.08	343974	keystroke_Key.backspace	Key.backspace	n/a
172.123	0.072	344246	keystroke_Key.backspace	Key.backspace	n/a
172.219	0.088	344438	keystroke_y	y	n/a
172.427	0.088	344854	keystroke_m	m	n/a
172.771	0.144	345542	keystroke_p	p	n/a
173.179	0.104	346358	keystroke_t	t	n/a
173.395	0.096	346790	keystroke_o	o	n/a
173.915	0.104	347830	keystroke_m	m	n/a
174.243	0.12	348486	keystroke_s	s	n/a
174.571	0.088	349142	keystroke_Key.space	Key.space	n/a
174.755	0.072	349510	keystroke_s	s	n/a
174.923	0.088	349846	keystroke_e	e	n/a
175.083	0.08	350166	keystroke_a	a	n/a
175.164	0.071	350328	keystroke_l	l	n/a
175.315	0.064	350630	keystroke_Key.enter	Key.enter	n/a
175.3855	6.9635	350771	prompt	n/a	push container substantial class\n
176.123	0.088	352246	keystroke_p	p	n/a
176.323	0.08	352646	keystroke_u	u	n/a
176.427	0.08	352854	keystroke_s	s	n/a
176.523	0.064	353046	keystroke_h	h	n/a
176.691	0.096	353382	keystroke_Key.space	Key.space	n/a
176.851	0.096	353702	keystroke_c	c	n/a
176.931	0.064	353862	keystroke_o	o	n/a
177.059	0.072	354118	keystroke_n	n	n/a
177.251	0.088	354502	keystroke_t	t	n/a
177.435	0.08	354870	keystroke_a	a	n/a
177.539	0.072	355078	keystroke_i	i	n/a
177.659	0.072	355318	keystroke_n	n	n/a
177.827	0.096	355654	keystroke_e	e	n/a
177.995	0.072	355990	keystroke_r	r	n/a
178.123	0.096	356246	keystroke_Key.space	Key.space	n/a
178.283	0.088	356566	keystroke_s	s	n/a
178.435	0.072	356870	keystroke_u	u	n/a
178.611	0.072	357222	keystroke_b	b	n/a
178.867	0.096	357734	keystroke_s	s	n/a
179.331	0.104	358662	keystroke_t	t	n/a
179.555	0.08	359110	keystroke_a	a	n/a
179.643	0.072	359286	keystroke_n	n	n/a
180.6265	0.08	361253	keystroke_t	t	n/a
180.7625	0.096	361525	keystroke_i	i	n/a
180.8905	0.088	361781	keystroke_a	a	n/a
181.0425	0.088	362085	keystroke_l	l	n/a
181.4665	0.088	362933	keystroke_Key.space	Key.space	n/a
181.6265	0.088	363253	keystroke_c	c	n/a
181.7305	0.08	363461	keystroke_l	l	n/a
181.8425	0.088	363685	keystroke_a	a	n/a
182.0025	0.064	364005	keystroke_s	s	n/a
182.1305	0.064	364261	keystroke_s	s	n/a
182.2745	0.072	364549	keystroke_Key.enter	Key.enter	n/a
182.3555	8.129	364711	prompt	n/a	spam gray christianity specialized\n
182.9145	0.096	365829	keystroke_s	s	n/a
183.0345	0.096	366069	keystroke_p	p	n/a
183.1865	0.088	366373	keystroke_a	a	n/a
183.3145	0.088	366629	keystroke_m	m	n/a
183.5065	0.088	367013	keystroke_Key.space	Key.space	n/a
184.2345	0.072	368469	keystroke_g	g	n/a
184.4025	0.072	368805	keystroke_r	r	n/a
184.5545	0.08	369109	keystroke_a	a	n/a
184.7465	0.064	369493	keystroke_y	y	n/a
184.8825	0.096	369765	keystroke_Key.space	Key.space	n/a
185.3785	0.112	370757	keystroke_c	c	n/a
185.5225	0.08	371045	keystroke_h	h	n/a
185.6745	0.088	371349	keystroke_r	r	n/a
185.8025	0.096	371605	keystroke_i	i	n/a
185.9465	0.104	371893	keystroke_s	s	n/a
186.4265	0.064	372853	keystroke_t	t	n/a
186.6185	0.096	373237	keystroke_i	i	n/a
186.9065	0.096	373813	keystroke_a	a	n/a
187.0345	0.072	374069	keystroke_n	n	n/a
187.3305	0.096	374661	keystroke_i	i	n/a
187.5305	0.104	375061	keystroke_t	t	n/a
187.7385	0.08	375477	keystroke_y	y	n/a
188.2585	0.096	376517	keystroke_Key.space	Key.space	n/a
188.5065	0.072	377013	keystroke_s	s	n/a
188.5945	0.104	377189	keystroke_p	p	n/a
188.7705	0.08	377541	keystroke_e	e	n/a
189.0505	0.096	378101	keystroke_c	c	n/a
189.1475	0.095	378295	keystroke_i	i	n/a
189.3145	0.096	378629	keystroke_a	a	n/a
189.4265	0.088	378853	keystroke_l	l	n/a
189.6425	0.088	379285	keystroke_i	i	n/a
189.7705	0.096	379541	keystroke_z	z	n/a
189.9705	0.088	379941	keystroke_e	e	n/a
190.1785	0.072	380357	keystroke_d	d	n/a
190.4025	0.08	380805	keystroke_Key.enter	Key.enter	n/a
190.49	12.4185	380980	prompt	n/a	firefox diffs duncan pittsburgh\n
191.6105	0.08	383221	keystroke_f	f	n/a
191.7065	0.064	383413	keystroke_i	i	n/a
191.8105	0.072	383621	keystroke_r	r	n/a
191.8985	0.096	383797	keystroke_e	e	n/a
192.2105	0.064	384421	keystroke_f	f	n/a
192.2985	0.08	384597	keystroke_o	o	n/a
192.5305	0.072	385061	keystroke_x	x	n/a
192.6745	0.104	385349	keystroke_Key.space	Key.space	n/a
193.4265	0.104	386853	keystroke_d	d	n/a
193.6185	0.08	387237	keystroke_i	i	n/a
193.9465	0.096	387893	keystroke_f	f	n/a
194.1625	0.072	388325	keystroke_f	f	n/a
194.9705	0.104	389941	keystroke_s	s	n/a
195.0905	0.08	390181	keystroke_Key.space	Key.space	n/a
195.4025	0.104	390805	keystroke_d	d	n/a
195.6265	0.112	391253	keystroke_u	u	n/a
196.0105	0.112	392021	keystroke_n	n	n/a
196.2505	0.088	392501	keystroke_c	c	n/a
196.3865	0.112	392773	keystroke_o	o	n/a
196.9545	0.08	393909	keystroke_Key.backspace	Key.backspace	n/a
197.1545	0.104	394309	keystroke_a	a	n/a
197.2745	0.088	394549	keystroke_n	n	n/a
197.6105	0.096	395221	keystroke_Key.space	Key.space	n/a
197.8265	0.104	395653	keystroke_p	p	n/a
198.1065	0.096	396213	keystroke_i	i	n/a
198.4265	0.12	396853	keystroke_t	t	n/a
199.0745	0.088	398149	keystroke_t	t	n/a
199.4105	0.072	398821	keystroke_s	s	n/a
200.0425	0.08	400085	keystroke_b	b	n/a
200.3305	0.088	400661	keystroke_u	u	n/a
200.6185	0.08	401237	keystroke_r	r	n/a
201.8585	0.088	403717	keystroke_g	g	n/a
202.5065	0.064	405013	keystroke_h	h	n/a
202.8185	0.088	405637	keystroke_Key.enter	Key.enter	n/a
202.914	6.666	405828	prompt	n/a	creations carter studied interest\n
203.5715	0.095	407143	keystroke_c	c	n/a
203.7705	0.08	407541	keystroke_r	r	n/a
203.8985	0.088	407797	keystroke_e	e	n/a
204.0265	0.088	408053	keystroke_a	a	n/a
204.1865	0.064	408373	keystroke_t	t	n/a
204.2665	0.072	408533	keystroke_i	i	n/a
204.4185	0.112	408837	keystroke_o	o	n/a
204.5065	0.08	409013	keystroke_n	n	n/a
204.6185	0.08	409237	keystroke_s	s	n/a
204.7065	0.088	409413	keystroke_Key.space	Key.space	n/a
204.8585	0.088	409717	keystroke_c	c	n/a
204.9865	0.096	409973	keystroke_a	a	n/a
205.1545	0.12	410309	keystroke_r	r	n/a
205.3945	0.08	410789	keystroke_t	t	n/a
205.5945	0.088	411189	keystroke_e	e	n/a
205.8665	0.08	411733	keystroke_r	r	n/a
206.0425	0.088	412085	keystroke_Key.space	Key.space	n/a
206.1625	0.088	412325	keystroke_s	s	n/a
206.3465	0.072	412693	keystroke_t	t	n/a
206.4265	0.072	412853	keystroke_u	u	n/a
206.8505	0.152	413701	keystroke_d	d	n/a
207.2345	0.088	414469	keystroke_i	i	n/a
207.3545	0.096	414709	keystroke_e	e	n/a
207.5625	0.088	415125	keystroke_d	d	n/a
207.9145	0.072	415829	keystroke_Key.space	Key.space	n/a
208.0985	0.08	416197	keystroke_i	i	n/a
208.2345	0.064	416469	keystroke_n	n	n/a
208.3625	0.08	416725	keystroke_t	t	n/a
208.4745	0.08	416949	keystroke_e	e	n/a
208.5625	0.08	417125	keystroke_r	r	n/a
208.6505	0.04	417301	keystroke_e	e	n/a
208.8185	0.104	417637	keystroke_s	s	n/a
209.0505	0.072	418101	keystroke_t	t	n/a
209.5065	0.072	419013	keystroke_Key.enter	Key.enter	n/a
209.584	9.9485	419168	prompt	n/a	electronic medium mountain infected\n
210.3705	0.088	420741	keystroke_e	e	n/a
210.4985	0.08	420997	keystroke_l	l	n/a
210.5945	0.072	421189	keystroke_e	e	n/a
211.0985	0.136	422197	keystroke_c	c	n/a
211.4745	0.096	422949	keystroke_t	t	n/a
211.6505	0.096	423301	keystroke_i	i	n/a
212.6585	0.072	425317	keystroke_Key.backspace	Key.backspace	n/a
212.8505	0.08	425701	keystroke_r	r	n/a
212.9625	0.096	425925	keystroke_o	o	n/a
213.1785	0.064	426357	keystroke_n	n	n/a
213.3305	0.08	426661	keystroke_i	i	n/a
213.8505	0.088	427701	keystroke_c	c	n/a
214.1305	0.088	428261	keystroke_Key.space	Key.space	n/a
214.3625	0.08	428725	keystroke_m	m	n/a
214.4985	0.088	428997	keystroke_e	e	n/a
214.6905	0.104	429381	keystroke_d	d	n/a
214.8505	0.08	429701	keystroke_i	i	n/a
215.3065	0.096	430613	keystroke_u	u	n/a
215.6745	0.096	431349	keystroke_m	m	n/a
216.2105	0.08	432421	keystroke_Key.space	Key.space	n/a
216.3945	0.08	432789	keystroke_m	m	n/a
216.5305	0.072	433061	keystroke_o	o	n/a
216.6745	0.072	433349	keystroke_u	u	n/a
216.8505	0.072	433701	keystroke_n	n	n/a
216.9465	0.08	433893	keystroke_t	t	n/a
217.0985	0.088	434197	keystroke_a	a	n/a
217.1875	0.087	434375	keystroke_i	i	n/a
217.2905	0.064	434581	keystroke_n	n	n/a
217.4905	0.088	434981	keystroke_Key.space	Key.space	n/a
218.0985	0.088	436197	keystroke_i	i	n/a
218.2585	0.08	436517	keystroke_n	n	n/a
218.3945	0.104	436789	keystroke_d	d	n/a
218.5945	0.088	437189	keystroke_e	e	n/a
218.7945	0.104	437589	keystroke_c	c	n/a
219.0025	0.072	438005	keystroke_t	t	n/a
219.1145	0.072	438229	keystroke_e	e	n/a
219.2505	0.08	438501	keystroke_d	d	n/a
219.4585	0.072	438917	keystroke_Key.enter	Key.enter	n/a
219.5375	6.595	439075	prompt	n/a	needle mario grace donations\n
220.1065	0.072	440213	keystroke_n	n	n/a
220.2105	0.088	440421	keystroke_e	e	n/a
220.3785	0.072	440757	keystroke_e	e	n/a
220.5385	0.08	441077	keystroke_d	d	n/a
220.6265	0.08	441253	keystroke_l	l	n/a
220.7305	0.072	441461	keystroke_e	e	n/a
220.8665	0.08	441733	keystroke_Key.space	Key.space	n/a
221.0585	0.072	442117	keystroke_m	m	n/a
221.1545	0.088	442309	keystroke_a	a	n/a
221.3145	0.088	442629	keystroke_r	r	n/a
221.4345	0.08	442869	keystroke_i	i	n/a
221.6185	0.08	443237	keystroke_o	o	n/a
221.7945	0.096	443589	keystroke_Key.space	Key.space	n/a
222.5305	0.096	445061	keystroke_g	g	n/a
222.7545	0.08	445509	keystroke_r	r	n/a
222.8985	0.096	445797	keystroke_a	a	n/a
223.0505	0.104	446101	keystroke_c	c	n/a
223.2025	0.08	446405	keystroke_e	e	n/a
223.5065	0.112	447013	keystroke_Key.space	Key.space	n/a
224.4505	0.088	448901	keystroke_d	d	n/a
224.8665	0.08	449733	keystroke_o	o	n/a
225.0505	0.064	450101	keystroke_n	n	n/a
225.1625	0.096	450325	keystroke_a	a	n/a
225.3705	0.072	450741	keystroke_t	t	n/a
225.4505	0.064	450901	keystroke_i	i	n/a
225.6025	0.104	451205	keystroke_o	o	n/a
225.6905	0.064	451381	keystroke_n	n	n/a
225.8105	0.072	451621	keystroke_s	s	n/a
226.0585	0.072	452117	keystroke_Key.enter	Key.enter	n/a
226.138	8.714	452276	prompt	n/a	certification harper tigers helps\n
226.8825	0.096	453765	keystroke_c	c	n/a
227.0585	0.088	454117	keystroke_e	e	n/a
227.2345	0.096	454469	keystroke_r	r	n/a
227.4985	0.08	454997	keystroke_t	t	n/a
227.7705	0.08	455541	keystroke_i	i	n/a
228.1065	0.072	456213	keystroke_g	g	n/a
228.6025	0.064	457205	keystroke_Key.backspace	Key.backspace	n/a
228.6985	0.08	457397	keystroke_f	f	n/a
228.8505	0.08	457701	keystroke_i	i	n/a
229.0825	0.096	458165	keystroke_c	c	n/a
229.2905	0.088	458581	keystroke_a	a	n/a
229.5225	0.072	459045	keystroke_t	t	n/a
229.6425	0.088	459285	keystroke_i	i	n/a
229.8345	0.08	459669	keystroke_o	o	n/a
230.0185	0.072	460037	keystroke_n	n	n/a
230.1865	0.08	460373	keystroke_Key.space	Key.space	n/a
230.37	0.0805	460740	keystroke_h	h	n/a
230.5065	0.08	461013	keystroke_a	a	n/a
230.6665	0.08	461333	keystroke_r	r	n/a
231.0105	0.12	462021	keystroke_p	p	n/a
231.3625	0.104	462725	keystroke_e	e	n/a
231.5545	0.088	463109	keystroke_r	r	n/a
231.7065	0.088	463413	keystroke_Key.space	Key.space	n/a
231.9065	0.088	463813	keystroke_t	t	n/a
232.0025	0.08	464005	keystroke_i	i	n/a
232.1785	0.072	464357	keystroke_g	g	n/a
232.6265	0.112	465253	keystroke_e	e	n/a
232.8585	0.088	465717	keystroke_r	r	n/a
233.2265	0.08	466453	keystroke_s	s	n/a
233.4345	0.072	466869	keystroke_Key.space	Key.space	n/a
233.6265	0.072	467253	keystroke_h	h	n/a
233.7225	0.08	467445	keystroke_e	e	n/a
233.8585	0.08	467717	keystroke_k	k	n/a
233.9865	0.096	467973	keystroke_p	p	n/a
234.506	0.0805	469012	keystroke_s	s	n/a
234.77	0.08	469540	keystroke_Key.enter	Key.enter	n/a
234.8575	10.25	469715	prompt	n/a	renewable nearly meaningful therefore\n
236.05	0.08	472100	keystroke_r	r	n/a
236.178	0.0965	472356	keystroke_e	e	n/a
236.49	0.064	472980	keystroke_n	n	n/a
236.674	0.08	473348	keystroke_e	e	n/a
237.33	0.104	474660	keystroke_w	w	n/a
237.5545	0.088	475109	keystroke_a	a	n/a
237.802	0.088	475604	keystroke_b	b	n/a
237.954	0.08	475908	keystroke_l	l	n/a
238.098	0.08	476196	keystroke_e	e	n/a
238.498	0.08	476996	keystroke_Key.space	Key.space	n/a
238.666	0.088	477332	keystroke_n	n	n/a
238.762	0.0805	477524	keystroke_e	e	n/a
238.93	0.072	477860	keystroke_a	a	n/a
239.082	0.096	478164	keystroke_r	r	n/a
239.258	0.088	478516	keystroke_l	l	n/a
239.394	0.072	478788	keystroke_y	y	n/a
239.546	0.096	479092	keystroke_Key.space	Key.space	n/a
239.81	0.088	479620	keystroke_m	m	n/a
239.922	0.072	479844	keystroke_e	e	n/a
240.098	0.088	480196	keystroke_a	a	n/a
240.242	0.072	480484	keystroke_n	n	n/a
240.37	0.104	480740	keystroke_i	i	n/a
240.442	0.104	480884	keystroke_n	n	n/a
240.626	0.088	481252	keystroke_g	g	n/a
241.202	0.08	482404	keystroke_f	f	n/a
241.322	0.088	482644	keystroke_u	u	n/a
241.754	0.096	483508	keystroke_l	l	n/a
242.034	0.088	484068	keystroke_Key.space	Key.space	n/a
242.29	0.088	484580	keystroke_t	t	n/a
242.442	0.072	484884	keystroke_h	h	n/a
242.515	0.087	485030	keystroke_e	e	n/a
242.666	0.088	485332	keystroke_r	r	n/a
243.187	0.079	486374	keystroke_e	e	n/a
244.082	0.104	488164	keystroke_f	f	n/a
244.506	0.08	489012	keystroke_o	o	n/a
244.642	0.112	489284	keystroke_r	r	n/a
244.762	0.104	489524	keystroke_e	e	n/a
245.034	0.072	490068	keystroke_Key.enter	Key.enter	n/a
245.114	13.7375	490228	prompt	n/a	awarded conferences merchant oxide\n
245.834	0.088	491668	keystroke_a	a	n/a
246.17	0.096	492340	keystroke_w	w	n/a
246.386	0.088	492772	keystroke_a	a	n/a
246.61	0.08	493220	keystroke_r	r	n/a
246.8345	0.096	493669	keystroke_d	d	n/a
247.0745	0.088	494149	keystroke_e	e	n/a
247.2905	0.088	494581	keystroke_d	d	n/a
247.4425	0.095	494885	keystroke_Key.space	Key.space	n/a
247.6185	0.096	495237	keystroke_c	c	n/a
247.7065	0.072	495413	keystroke_o	o	n/a
247.8505	0.072	495701	keystroke_n	n	n/a
247.9625	0.104	495925	keystroke_d	d	n/a
248.1305	0.096	496261	keystroke_e	e	n/a
248.2985	0.08	496597	keystroke_r	r	n/a
248.442	0.096	496884	keystroke_e	e	n/a
248.57	0.072	497140	keystroke_n	n	n/a
248.778	0.064	497556	keystroke_c	c	n/a
248.97	0.128	497940	keystroke_e	e	n/a
249.49	0.096	498980	keystroke_s	s	n/a
249.874	0.096	499748	keystroke_Key.space	Key.space	n/a
250.074	0.088	500148	keystroke_m	m	n/a
250.354	0.12	500708	keystroke_e	e	n/a
250.634	0.088	501268	keystroke_r	r	n/a
251.666	0.08	503332	keystroke_Key.backspace	Key.backspace	n/a
251.826	0.064	503652	keystroke_Key.backspace	Key.backspace	n/a
251.97	0.056	503940	keystroke_Key.backspace	Key.backspace	n/a
252.106	0.064	504212	keystroke_Key.backspace	Key.backspace	n/a
252.25	0.056	504500	keystroke_Key.backspace	Key.backspace	n/a
252.386	0.064	504772	keystroke_Key.backspace	Key.backspace	n/a
252.522	0.072	505044	keystroke_Key.backspace	Key.backspace	n/a
252.674	0.072	505348	keystroke_Key.backspace	Key.backspace	n/a
252.826	0.08	505652	keystroke_Key.backspace	Key.backspace	n/a
252.978	0.096	505956	keystroke_Key.backspace	Key.backspace	n/a
253.17	0.096	506340	keystroke_Key.backspace	Key.backspace	n/a
253.658	0.0795	507316	keystroke_Key.backspace	Key.backspace	n/a
254.0655	0.08	508131	keystroke_f	f	n/a
254.1855	0.072	508371	keystroke_e	e	n/a
254.3135	0.08	508627	keystroke_r	r	n/a
254.4015	0.096	508803	keystroke_e	e	n/a
254.5295	0.072	509059	keystroke_n	n	n/a
254.6815	0.072	509363	keystroke_c	c	n/a
254.8015	0.08	509603	keystroke_e	e	n/a
255.1695	0.08	510339	keystroke_s	s	n/a
255.5615	0.096	511123	keystroke_Key.space	Key.space	n/a
255.7775	0.088	511555	keystroke_m	m	n/a
255.9135	0.088	511827	keystroke_e	e	n/a
256.0735	0.08	512147	keystroke_r	r	n/a
256.2735	0.104	512547	keystroke_c	c	n/a
256.3695	0.072	512739	keystroke_h	h	n/a
256.4815	0.088	512963	keystroke_a	a	n/a
256.5775	0.072	513155	keystroke_n	n	n/a
256.7455	0.08	513491	keystroke_t	t	n/a
256.9055	0.096	513811	keystroke_Key.space	Key.space	n/a
257.1215	0.088	514243	keystroke_o	o	n/a
257.5695	0.104	515139	keystroke_x	x	n/a
257.8095	0.08	515619	keystroke_i	i	n/a
258.0255	0.088	516051	keystroke_d	d	n/a
258.2095	0.08	516419	keystroke_e	e	n/a
258.7695	0.08	517539	keystroke_Key.enter	Key.enter	n/a
258.857	9.5625	517714	prompt	n/a	inns fiction sticks forwarding\n
259.4815	0.08	518963	keystroke_i	i	n/a
259.6815	0.064	519363	keystroke_n	n	n/a
259.8495	0.072	519699	keystroke_n	n	n/a
260.4895	0.088	520979	keystroke_s	s	n/a
260.7935	0.096	521587	keystroke_Key.space	Key.space	n/a
261.2815	0.08	522563	keystroke_f	f	n/a
261.3855	0.08	522771	keystroke_i	i	n/a
261.4815	0.096	522963	keystroke_c	c	n/a
261.6895	0.072	523379	keystroke_t	t	n/a
261.7695	0.08	523539	keystroke_i	i	n/a
261.9375	0.08	523875	keystroke_o	o	n/a
262.1135	0.088	524227	keystroke_n	n	n/a
262.6255	0.088	525251	keystroke_Key.space	Key.space	n/a
262.8015	0.088	525603	keystroke_s	s	n/a
262.9935	0.088	525987	keystroke_t	t	n/a
263.1375	0.032	526275	keystroke_o	o	n/a
263.6815	0.104	527363	keystroke_i	i	n/a
263.9935	0.08	527987	keystroke_Key.backspace	Key.backspace	n/a
264.1455	0.08	528291	keystroke_Key.backspace	Key.backspace	n/a
264.3935	0.08	528787	keystroke_i	i	n/a
264.5455	0.096	529091	keystroke_c	c	n/a
264.6895	0.088	529379	keystroke_k	k	n/a
264.9055	0.096	529811	keystroke_s	s	n/a
265.5695	0.088	531139	keystroke_Key.space	Key.space	n/a
266.3695	0.104	532739	keystroke_f	f	n/a
266.4815	0.064	532963	keystroke_o	o	n/a
266.6895	0.072	533379	keystroke_r	r	n/a
266.9935	0.064	533987	keystroke_w	w	n/a
267.1935	0.08	534387	keystroke_a	a	n/a
267.3455	0.089	534691	keystroke_r	r	n/a
267.5855	0.104	535171	keystroke_d	d	n/a
267.8015	0.088	535603	keystroke_i	i	n/a
267.8815	0.088	535763	keystroke_n	n	n/a
267.9775	0.08	535955	keystroke_g	g	n/a
268.3375	0.08	536675	keystroke_Key.enter	Key.enter	n/a
268.4255	12.9855	536851	prompt	n/a	enhancing sight telephony iowa\n
269.0975	0.096	538195	keystroke_e	e	n/a
269.2815	0.08	538563	keystroke_n	n	n/a
269.5375	0.088	539075	keystroke_a	a	n/a
269.6335	0.088	539267	keystroke_h	h	n/a
269.9135	0.056	539827	keystroke_Key.backspace	Key.backspace	n/a
270.0415	0.072	540083	keystroke_Key.backspace	Key.backspace	n/a
270.5535	0.096	541107	keystroke_h	h	n/a
270.9055	0.104	541811	keystroke_a	a	n/a
271.0175	0.096	542035	keystroke_n	n	n/a
271.5935	0.104	543187	keystroke_c	c	n/a
271.8095	0.096	543619	keystroke_i	i	n/a
272.0015	0.088	544003	keystroke_n	n	n/a
272.1295	0.08	544259	keystroke_g	g	n/a
272.2335	0.096	544467	keystroke_Key.space	Key.space	n/a
272.4415	0.096	544883	keystroke_s	s	n/a
272.5455	0.08	545091	keystroke_i	i	n/a
272.6815	0.08	545363	keystroke_g	g	n/a
272.7935	0.08	545587	keystroke_h	h	n/a
272.9295	0.08	545859	keystroke_t	t	n/a
273.0895	0.088	546179	keystroke_Key.space	Key.space	n/a
273.3535	0.08	546707	keystroke_t	t	n/a
273.5535	0.096	547107	keystroke_e	e	n/a
273.6815	0.112	547363	keystroke_l	l	n/a
274.0495	0.128	548099	keystroke_p	p	n/a
274.3055	0.064	548611	keystroke_h	h	n/a
274.4335	0.088	548867	keystroke_o	o	n/a
274.5455	0.08	549091	keystroke_n	n	n/a
274.7695	0.08	549539	keystroke_y	y	n/a
275.0335	0.08	550067	keystroke_Key.backspace	Key.backspace	n/a
275.2095	0.072	550419	keystroke_Key.backspace	Key.backspace	n/a
275.4095	0.088	550819	keystroke_Key.backspace	Key.backspace	n/a
275.6095	0.08	551219	keystroke_Key.backspace	Key.backspace	n/a
275.7935	0.088	551587	keystroke_Key.backspace	Key.backspace	n/a
276.1295	0.08	552259	keystroke_e	e	n/a
276.3215	0.144	552643	keystroke_l	l	n/a
277.529	0.128	555058	keystroke_Key.backspace	Key.backspace	n/a
277.9055	0.08	555811	keystroke_p	p	n/a
278.1535	0.072	556307	keystroke_h	h	n/a
278.2815	0.096	556563	keystroke_o	o	n/a
278.3695	0.0715	556739	keystroke_n	n	n/a
279.538	0.087	559076	keystroke_y	y	n/a
279.761	0.08	559522	keystroke_Key.space	Key.space	n/a
279.922	0.103	559844	keystroke_i	i	n/a
280.138	0.079	560276	keystroke_o	o	n/a
280.449	0.104	560898	keystroke_w	w	n/a
280.649	0.089	561298	keystroke_a	a	n/a
281.337	0.072	562674	keystroke_Key.enter	Key.enter	n/a
281.4165	14.7	562833	prompt	n/a	greetings penny despite extreme\n
282.449	0.081	564898	keystroke_g	g	n/a
282.586	0.095	565172	keystroke_e	e	n/a
283.0255	0.071	566051	keystroke_Key.backspace	Key.backspace	n/a
283.1135	0.088	566227	keystroke_r	r	n/a
283.2175	0.096	566435	keystroke_e	e	n/a
283.578	0.088	567156	keystroke_t	t	n/a
283.754	0.095	567508	keystroke_t	t	n/a
284.249	0.072	568498	keystroke_Key.backspace	Key.backspace	n/a
284.4085	0.0885	568817	keystroke_Key.backspace	Key.backspace	n/a
284.681	0.0955	569362	keystroke_e	e	n/a
284.9455	0.103	569891	keystroke_t	t	n/a
285.2005	0.096	570401	keystroke_i	i	n/a
285.3045	0.096	570609	keystroke_n	n	n/a
285.4405	0.08	570881	keystroke_g	g	n/a
285.6415	0.08	571283	keystroke_s	s	n/a
285.7445	0.096	571489	keystroke_Key.space	Key.space	n/a
285.9525	0.08	571905	keystroke_p	p	n/a
286.0565	0.08	572113	keystroke_e	e	n/a
286.1845	0.072	572369	keystroke_n	n	n/a
286.3525	0.073	572705	keystroke_n	n	n/a
286.4975	0.079	572995	keystroke_y	y	n/a
286.7125	0.096	573425	keystroke_Key.space	Key.space	n/a
287.0255	0.079	574051	keystroke_f	f	n/a
287.6405	0.072	575281	keystroke_Key.backspace	Key.backspace	n/a
287.8495	0.087	575699	keystroke_d	d	n/a
287.9855	0.08	575971	keystroke_e	e	n/a
288.1855	0.079	576371	keystroke_s	s	n/a
288.8885	0.113	577777	keystroke_p	p	n/a
289.1765	0.064	578353	keystroke_o	o	n/a
289.4165	0.12	578833	keystroke_t	t	n/a
289.8405	0.072	579681	keystroke_Key.backspace	Key.backspace	n/a
289.9925	0.096	579985	keystroke_Key.backspace	Key.backspace	n/a
290.4255	0.103	580851	keystroke_i	i	n/a
290.7055	0.127	581411	keystroke_t	t	n/a
290.9605	0.081	581921	keystroke_y	y	n/a
291.5845	0.096	583169	keystroke_Key.space	Key.space	n/a
291.8565	0.104	583713	keystroke_e	e	n/a
292.2245	0.088	584449	keystroke_Key.backspace	Key.backspace	n/a
292.4325	0.064	584865	keystroke_Key.backspace	Key.backspace	n/a
292.5845	0.08	585169	keystroke_Key.backspace	Key.backspace	n/a
292.6815	0.088	585363	keystroke_e	e	n/a
292.8885	0.096	585777	keystroke_Key.space	Key.space	n/a
293.2175	0.096	586435	keystroke_e	e	n/a
293.5205	0.121	587041	keystroke_x	x	n/a
293.8085	0.104	587617	keystroke_t	t	n/a
294.1765	0.129	588353	keystroke_r	r	n/a
294.4005	0.104	588801	keystroke_e	e	n/a
294.9525	0.161	589905	keystroke_m	m	n/a
295.2565	0.089	590513	keystroke_e	e	n/a
296.0165	0.088	592033	keystroke_Key.enter	Key.enter	n/a
296.121	10.4175	592242	prompt	n/a	material genetic safer governing\n
296.8255	0.104	593651	keystroke_m	m	n/a
296.9685	0.081	593937	keystroke_a	a	n/a
297.1445	0.072	594289	keystroke_t	t	n/a
297.2575	0.087	594515	keystroke_e	e	n/a
297.3765	0.072	594753	keystroke_r	r	n/a
297.4895	0.103	594979	keystroke_i	i	n/a
298.3765	0.088	596753	keystroke_a	a	n/a
298.4975	0.103	596995	keystroke_l	l	n/a
298.8645	0.104	597729	keystroke_Key.space	Key.space	n/a
299.5445	0.072	599089	keystroke_g	g	n/a
299.6645	0.096	599329	keystroke_e	e	n/a
299.8095	0.064	599619	keystroke_n	n	n/a
300.0245	0.112	600049	keystroke_e	e	n/a
300.3445	0.089	600689	keystroke_t	t	n/a
300.5285	0.081	601057	keystroke_i	i	n/a
300.6965	0.089	601393	keystroke_c	c	n/a
301.1925	0.096	602385	keystroke_Key.space	Key.space	n/a
301.3845	0.096	602769	keystroke_s	s	n/a
301.5775	0.095	603155	keystroke_a	a	n/a
301.7845	0.104	603569	keystroke_f	f	n/a
301.9765	0.112	603953	keystroke_e	e	n/a
302.1525	0.073	604305	keystroke_r	r	n/a
302.2965	0.096	604593	keystroke_Key.space	Key.space	n/a
302.6805	0.097	605361	keystroke_d	d	n/a
303.4405	0.08	606881	keystroke_Key.backspace	Key.backspace	n/a
303.5685	0.08	607137	keystroke_f	f	n/a
303.6965	0.088	607393	keystroke_o	o	n/a
304.0485	0.064	608097	keystroke_Key.backspace	Key.backspace	n/a
304.1925	0.072	608385	keystroke_Key.backspace	Key.backspace	n/a
304.4335	0.08	608867	keystroke_g	g	n/a
304.5215	0.072	609043	keystroke_o	o	n/a
304.6725	0.088	609345	keystroke_v	v	n/a
304.8325	0.096	609665	keystroke_e	e	n/a
305.5605	0.08	611121	keystroke_r	r	n/a
305.6645	0.072	611329	keystroke_n	n	n/a
305.7605	0.112	611521	keystroke_i	i	n/a
305.8485	0.081	611697	keystroke_n	n	n/a
305.9605	0.072	611921	keystroke_g	g	n/a
306.4565	0.08	612913	keystroke_Key.enter	Key.enter	n/a
306.5445	8.6825	613089	prompt	n/a	neural rare johns defeat\n
307.2965	0.088	614593	keystroke_n	n	n/a
307.5285	0.112	615057	keystroke_e	e	n/a
307.7685	0.096	615537	keystroke_u	u	n/a
308.6485	0.112	617297	keystroke_r	r	n/a
309.2725	0.096	618545	keystroke_a	a	n/a
309.4645	0.104	618929	keystroke_l	l	n/a
309.6725	0.096	619345	keystroke_Key.space	Key.space	n/a
309.9445	0.104	619889	keystroke_r	r	n/a
310.1205	0.096	620241	keystroke_a	a	n/a
310.2805	0.12	620561	keystroke_r	r	n/a
310.4645	0.104	620929	keystroke_e	e	n/a
311.0805	0.088	622161	keystroke_Key.space	Key.space	n/a
311.6565	0.088	623313	keystroke_j	j	n/a
311.8165	0.096	623633	keystroke_o	o	n/a
312.0725	0.088	624145	keystroke_h	h	n/a
312.3605	0.096	624721	keystroke_n	n	n/a
312.697	0.096	625394	keystroke_s	s	n/a
312.945	0.079	625890	keystroke_Key.space	Key.space	n/a
313.249	0.111	626498	keystroke_d	d	n/a
313.425	0.088	626850	keystroke_e	e	n/a
313.593	0.088	627186	keystroke_f	f	n/a
313.737	0.103	627474	keystroke_e	e	n/a
314.001	0.088	628002	keystroke_a	a	n/a
314.185	0.063	628370	keystroke_t	t	n/a
315.152	0.073	630304	keystroke_Key.enter	Key.enter	n/a
315.2335	10.153	630467	prompt	n/a	sand aircraft investment penalties\n
316.273	0.088	632546	keystroke_s	s	n/a
316.425	0.08	632850	keystroke_a	a	n/a
316.529	0.072	633058	keystroke_n	n	n/a
316.705	0.072	633410	keystroke_d	d	n/a
316.84	0.097	633680	keystroke_Key.space	Key.space	n/a
317.977	0.104	635954	keystroke_a	a	n/a
318.153	0.072	636306	keystroke_i	i	n/a
318.297	0.072	636594	keystroke_r	r	n/a
318.513	0.088	637026	keystroke_c	c	n/a
318.761	0.072	637522	keystroke_r	r	n/a
318.984	0.073	637968	keystroke_a	a	n/a
319.392	0.097	638784	keystroke_f	f	n/a
319.649	0.088	639298	keystroke_t	t	n/a
320.121	0.087	640242	keystroke_Key.space	Key.space	n/a
320.377	0.096	640754	keystroke_i	i	n/a
320.537	0.072	641074	keystroke_n	n	n/a
320.825	0.088	641650	keystroke_v	v	n/a
321.001	0.088	642002	keystroke_e	e	n/a
321.201	0.088	642402	keystroke_s	s	n/a
321.417	0.08	642834	keystroke_t	t	n/a
321.648	0.088	643296	keystroke_m	m	n/a
321.761	0.087	643522	keystroke_e	e	n/a
321.857	0.064	643714	keystroke_n	n	n/a
321.961	0.08	643922	keystroke_t	t	n/a
322.184	0.096	644368	keystroke_Key.space	Key.space	n/a
322.377	0.087	644754	keystroke_p	p	n/a
322.481	0.088	644962	keystroke_e	e	n/a
322.625	0.088	645250	keystroke_n	n	n/a
322.793	0.079	645586	keystroke_a	a	n/a
323.025	0.128	646050	keystroke_l	l	n/a
323.761	0.088	647522	keystroke_t	t	n/a
323.985	0.088	647970	keystroke_i	i	n/a
324.121	0.08	648242	keystroke_e	e	n/a
324.345	0.096	648690	keystroke_s	s	n/a
325.305	0.079	650610	keystroke_Key.enter	Key.enter	n/a
325.3915	9.331	650783	prompt	n/a	sole occupational previously claims\n
326.049	0.088	652098	keystroke_s	s	n/a
326.617	0.088	653234	keystroke_o	o	n/a
326.825	0.08	653650	keystroke_l	l	n/a
327.232	0.081	654464	keystroke_e	e	n/a
327.344	0.105	654688	keystroke_Key.space	Key.space	n/a
327.744	0.137	655488	keystroke_o	o	n/a
328.561	0.064	657122	keystroke_c	c	n/a
328.705	0.072	657410	keystroke_c	c	n/a
328.817	0.072	657634	keystroke_u	u	n/a
328.993	0.079	657986	keystroke_p	p	n/a
329.137	0.096	658274	keystroke_a	a	n/a
329.352	0.073	658704	keystroke_t	t	n/a
329.441	0.087	658882	keystroke_i	i	n/a
329.649	0.088	659298	keystroke_o	o	n/a
329.841	0.072	659682	keystroke_n	n	n/a
329.985	0.096	659970	keystroke_a	a	n/a
330.105	0.088	660210	keystroke_l	l	n/a
330.352	0.096	660704	keystroke_Key.space	Key.space	n/a
330.584	0.089	661168	keystroke_p	p	n/a
330.761	0.088	661522	keystroke_r	r	n/a
330.897	0.08	661794	keystroke_e	e	n/a
331.76	0.097	663520	keystroke_v	v	n/a
332.001	0.088	664002	keystroke_i	i	n/a
332.201	0.064	664402	keystroke_o	o	n/a
332.337	0.072	664674	keystroke_u	u	n/a
332.449	0.088	664898	keystroke_s	s	n/a
332.721	0.096	665442	keystroke_l	l	n/a
332.913	0.063	665826	keystroke_y	y	n/a
333.056	0.104	666112	keystroke_Key.space	Key.space	n/a
333.273	0.096	666546	keystroke_c	c	n/a
333.393	0.088	666786	keystroke_l	l	n/a
333.513	0.087	667026	keystroke_a	a	n/a
333.681	0.096	667362	keystroke_i	i	n/a
333.937	0.072	667874	keystroke_m	m	n/a
334.233	0.072	668466	keystroke_s	s	n/a
334.648	0.072	669296	keystroke_Key.enter	Key.enter	n/a
334.7285	9.6895	669457	prompt	n/a	tier tanzania purse violence\n
335.513	0.08	671026	keystroke_t	t	n/a
335.641	0.072	671282	keystroke_i	i	n/a
335.737	0.088	671474	keystroke_e	e	n/a
335.897	0.079	671794	keystroke_r	r	n/a
336.608	0.104	673216	keystroke_Key.space	Key.space	n/a
336.849	0.088	673698	keystroke_t	t	n/a
337.001	0.088	674002	keystroke_a	a	n/a
337.137	0.08	674274	keystroke_n	n	n/a
337.593	0.096	675186	keystroke_z	z	n/a
337.792	0.073	675584	keystroke_a	a	n/a
337.912	0.065	675824	keystroke_n	n	n/a
338.441	0.095	676882	keystroke_i	i	n/a
338.585	0.103	677170	keystroke_a	a	n/a
338.72	0.088	677440	keystroke_Key.space	Key.space	n/a
338.945	0.088	677890	keystroke_p	p	n/a
339.152	0.073	678304	keystroke_u	u	n/a
339.897	0.087	679794	keystroke_r	r	n/a
340.553	0.103	681106	keystroke_s	s	n/a
342.129	0.088	684258	keystroke_e	e	n/a
342.24	0.088	684480	keystroke_Key.space	Key.space	n/a
342.793	0.08	685586	keystroke_v	v	n/a
342.92	0.097	685840	keystroke_i	i	n/a
343.137	0.08	686274	keystroke_o	o	n/a
343.345	0.096	686690	keystroke_l	l	n/a
343.513	0.087	687026	keystroke_e	e	n/a
343.625	0.064	687250	keystroke_n	n	n/a
343.801	0.079	687602	keystroke_c	c	n/a
343.936	0.089	687872	keystroke_e	e	n/a
344.344	0.072	688688	keystroke_Key.enter	Key.enter	n/a
344.423	7.347	688846	prompt	n/a	baker wizard problem applicant\n
345.192	0.08	690384	keystroke_b	b	n/a
345.36	0.089	690720	keystroke_a	a	n/a
345.464	0.073	690928	keystroke_k	k	n/a
345.577	0.096	691154	keystroke_e	e	n/a
345.777	0.071	691554	keystroke_r	r	n/a
345.912	0.096	691824	keystroke_Key.space	Key.space	n/a
346.257	0.103	692514	keystroke_w	w	n/a
346.441	0.096	692882	keystroke_i	i	n/a
346.592	0.088	693184	keystroke_z	z	n/a
346.825	0.119	693650	keystroke_a	a	n/a
347.112	0.097	694224	keystroke_r	r	n/a
347.345	0.096	694690	keystroke_d	d	n/a
347.801	0.087	695602	keystroke_Key.space	Key.space	n/a
347.969	0.104	695938	keystroke_p	p	n/a
348.121	0.088	696242	keystroke_r	r	n/a
348.241	0.096	696482	keystroke_o	o	n/a
348.561	0.096	697122	keystroke_b	b	n/a
348.753	0.128	697506	keystroke_l	l	n/a
348.936	0.089	697872	keystroke_e	e	n/a
349.073	0.088	698146	keystroke_m	m	n/a
349.768	0.096	699536	keystroke_Key.space	Key.space	n/a
350.072	0.096	700144	keystroke_a	a	n/a
350.257	0.087	700514	keystroke_p	p	n/a
350.425	0.071	700850	keystroke_p	p	n/a
350.561	0.079	701122	keystroke_l	l	n/a
350.752	0.08	701504	keystroke_i	i	n/a
350.896	0.088	701792	keystroke_c	c	n/a
351.024	0.096	702048	keystroke_a	a	n/a
351.288	0.089	702576	keystroke_n	n	n/a
351.448	0.072	702896	keystroke_t	t	n/a
351.704	0.064	703408	keystroke_Key.enter	Key.enter	n/a
351.779	10.2315	703558	prompt	n/a	drill salvador bytes brazil\n
352.617	0.095	705234	keystroke_d	d	n/a
352.792	0.073	705584	keystroke_r	r	n/a
352.889	0.08	705778	keystroke_i	i	n/a
353.137	0.08	706274	keystroke_l	l	n/a
353.321	0.08	706642	keystroke_l	l	n/a
353.456	0.104	706912	keystroke_Key.space	Key.space	n/a
353.657	0.08	707314	keystroke_s	s	n/a
353.832	0.08	707664	keystroke_a	a	n/a
353.96	0.089	707920	keystroke_l	l	n/a
354.272	0.152	708544	keystroke_c	c	n/a
354.744	0.08	709488	keystroke_Key.backspace	Key.backspace	n/a
354.856	0.08	709712	keystroke_v	v	n/a
355.009	0.095	710018	keystroke_a	a	n/a
355.593	0.128	711186	keystroke_d	d	n/a
355.752	0.073	711504	keystroke_o	o	n/a
355.905	0.104	711810	keystroke_r	r	n/a
356.6325	0.096	713265	keystroke_Key.space	Key.space	n/a
357.1445	0.0795	714289	keystroke_b	b	n/a
357.3605	0.0635	714721	keystroke_y	y	n/a
359.216	0.072	718432	keystroke_t	t	n/a
359.392	0.08	718784	keystroke_e	e	n/a
359.616	0.08	719232	keystroke_s	s	n/a
359.848	0.08	719696	keystroke_Key.space	Key.space	n/a
360.192	0.08	720384	keystroke_b	b	n/a
360.392	0.072	720784	keystroke_r	r	n/a
360.552	0.088	721104	keystroke_a	a	n/a
360.784	0.088	721568	keystroke_z	z	n/a
361.144	0.112	722288	keystroke_i	i	n/a
361.408	0.08	722816	keystroke_l	l	n/a
361.936	0.072	723872	keystroke_Key.enter	Key.enter	n/a
362.017	10.153	724034	prompt	n/a	norwegian terminals david knew\n
362.72	0.088	725440	keystroke_n	n	n/a
362.896	0.096	725792	keystroke_o	o	n/a
363.1125	0.096	726225	keystroke_w	w	n/a
363.3125	0.104	726625	keystroke_e	e	n/a
363.8325	0.088	727665	keystroke_Key.backspace	Key.backspace	n/a
364.0005	0.112	728001	keystroke_Key.backspace	Key.backspace	n/a
364.1925	0.08	728385	keystroke_r	r	n/a
364.5685	0.096	729137	keystroke_w	w	n/a
364.7845	0.104	729569	keystroke_e	e	n/a
365.112	0.072	730224	keystroke_g	g	n/a
365.2	0.104	730400	keystroke_i	i	n/a
365.352	0.08	730704	keystroke_a	a	n/a
365.472	0.08	730944	keystroke_n	n	n/a
366.2405	0.096	732481	keystroke_Key.space	Key.space	n/a
366.4405	0.08	732881	keystroke_t	t	n/a
366.6165	0.096	733233	keystroke_e	e	n/a
366.7845	0.08	733569	keystroke_r	r	n/a
366.8805	0.088	733761	keystroke_m	m	n/a
367.0245	0.0795	734049	keystroke_a	a	n/a
367.344	0.072	734688	keystroke_i	i	n/a
367.496	0.072	734992	keystroke_n	n	n/a
368.008	0.08	736016	keystroke_Key.backspace	Key.backspace	n/a
368.184	0.056	736368	keystroke_Key.backspace	Key.backspace	n/a
368.3285	0.0795	736657	keystroke_Key.backspace	Key.backspace	n/a
368.656	0.064	737312	keystroke_i	i	n/a
368.8245	0.0795	737649	keystroke_n	n	n/a
368.96	0.104	737920	keystroke_a	a	n/a
369.104	0.12	738208	keystroke_l	l	n/a
369.584	0.0885	739168	keystroke_s	s	n/a
369.7605	0.088	739521	keystroke_Key.space	Key.space	n/a
370.1205	0.088	740241	keystroke_d	d	n/a
370.2965	0.104	740593	keystroke_a	a	n/a
370.5365	0.072	741073	keystroke_v	v	n/a
370.6325	0.072	741265	keystroke_i	i	n/a
370.8325	0.08	741665	keystroke_d	d	n/a
371.1605	0.104	742321	keystroke_Key.space	Key.space	n/a
371.4165	0.104	742833	keystroke_k	k	n/a
371.6245	0.072	743249	keystroke_n	n	n/a
371.7445	0.0875	743489	keystroke_e	e	n/a
371.9125	0.0795	743825	keystroke_w	w	n/a
372.0965	0.0715	744193	keystroke_Key.enter	Key.enter	n/a
372.1755	12.5855	744351	prompt	n/a	grenada vegetarian remote jean\n
373.136	0.064	746272	keystroke_g	g	n/a
373.328	0.08	746656	keystroke_r	r	n/a
374.048	0.088	748096	keystroke_e	e	n/a
374.184	0.064	748368	keystroke_n	n	n/a
374.3035	0.0965	748607	keystroke_a	a	n/a
374.472	0.104	748944	keystroke_d	d	n/a
374.664	0.08	749328	keystroke_a	a	n/a
374.968	0.088	749936	keystroke_Key.space	Key.space	n/a
375.488	0.072	750976	keystroke_b	b	n/a
375.656	0.0795	751312	keystroke_e	e	n/a
376.16	0.072	752320	keystroke_g	g	n/a
377.0555	0.104	754111	keystroke_e	e	n/a
377.3115	0.104	754623	keystroke_t	t	n/a
377.5435	0.088	755087	keystroke_a	a	n/a
377.7195	0.08	755439	keystroke_r	r	n/a
377.8635	0.088	755727	keystroke_i	i	n/a
378.2475	0.072	756495	keystroke_Key.backspace	Key.backspace	n/a
378.4075	0.064	756815	keystroke_Key.backspace	Key.backspace	n/a
378.5435	0.064	757087	keystroke_Key.backspace	Key.backspace	n/a
378.6795	0.064	757359	keystroke_Key.backspace	Key.backspace	n/a
378.8235	0.064	757647	keystroke_Key.backspace	Key.backspace	n/a
378.9595	0.088	757919	keystroke_Key.backspace	Key.backspace	n/a
379.1115	0.08	758223	keystroke_Key.backspace	Key.backspace	n/a
379.2635	0.088	758527	keystroke_Key.backspace	Key.backspace	n/a
379.9035	0.072	759807	keystroke_v	v	n/a
380.0395	0.088	760079	keystroke_e	e	n/a
380.3835	0.064	760767	keystroke_g	g	n/a
380.5195	0.08	761039	keystroke_e	e	n/a
380.6715	0.064	761343	keystroke_t	t	n/a
380.9035	0.096	761807	keystroke_a	a	n/a
381.1515	0.08	762303	keystroke_r	r	n/a
381.2955	0.08	762591	keystroke_i	i	n/a
381.3915	0.072	762783	keystroke_a	a	n/a
381.4875	0.072	762975	keystroke_n	n	n/a
381.9515	0.104	763903	keystroke_Key.space	Key.space	n/a
382.1915	0.112	764383	keystroke_r	r	n/a
382.3835	0.08	764767	keystroke_e	e	n/a
382.4875	0.104	764975	keystroke_m	m	n/a
382.6155	0.072	765231	keystroke_o	o	n/a
382.8155	0.08	765631	keystroke_t	t	n/a
383.1115	0.088	766223	keystroke_e	e	n/a
383.4315	0.096	766863	keystroke_Key.space	Key.space	n/a
383.7035	0.104	767407	keystroke_j	j	n/a
383.8875	0.08	767775	keystroke_e	e	n/a
384.0635	0.088	768127	keystroke_a	a	n/a
384.2235	0.056	768447	keystroke_n	n	n/a
384.6795	0.08	769359	keystroke_Key.enter	Key.enter	n/a
384.765	7.8685	769530	prompt	n/a	parcel answers book climb\n
385.3595	0.088	770719	keystroke_p	p	n/a
385.5195	0.08	771039	keystroke_a	a	n/a
385.7275	0.104	771455	keystroke_r	r	n/a
386.0075	0.08	772015	keystroke_c	c	n/a
386.1915	0.088	772383	keystroke_e	e	n/a
386.3035	0.072	772607	keystroke_l	l	n/a
386.4875	0.08	772975	keystroke_Key.space	Key.space	n/a
386.6235	0.088	773247	keystroke_a	a	n/a
386.7595	0.064	773519	keystroke_n	n	n/a
386.9835	0.08	773967	keystroke_s	s	n/a
387.3355	0.088	774671	keystroke_w	w	n/a
387.5195	0.096	775039	keystroke_e	e	n/a
387.7275	0.088	775455	keystroke_r	r	n/a
387.9595	0.088	775919	keystroke_s	s	n/a
388.1675	0.088	776335	keystroke_Key.space	Key.space	n/a
388.4395	0.08	776879	keystroke_b	b	n/a
388.5915	0.072	777183	keystroke_o	o	n/a
388.7595	0.088	777519	keystroke_o	o	n/a
388.9755	0.088	777951	keystroke_k	k	n/a
389.1675	0.104	778335	keystroke_Key.space	Key.space	n/a
389.5915	0.048	779183	keystroke_l	l	n/a
389.6875	0.096	779375	keystroke_c	c	n/a
390.0155	0.08	780031	keystroke_Key.backspace	Key.backspace	n/a
390.1755	0.08	780351	keystroke_Key.backspace	Key.backspace	n/a
391.007	0.0815	782014	keystroke_c	c	n/a
391.1035	0.088	782207	keystroke_l	l	n/a
391.2875	0.08	782575	keystroke_i	i	n/a
391.6555	0.072	783311	keystroke_m	m	n/a
391.8395	0.072	783679	keystroke_b	b	n/a
392.5595	0.072	785119	keystroke_Key.enter	Key.enter	n/a
392.638	10.6275	785276	prompt	n/a	edwards dicke proceeding auckland\n
393.4485	0.096	786897	keystroke_e	e	n/a
393.6795	0.128	787359	keystroke_d	d	n/a
394.5595	0.144	789119	keystroke_w	w	n/a
394.9675	0.096	789935	keystroke_a	a	n/a
395.4315	0.096	790863	keystroke_r	r	n/a
395.9435	0.112	791887	keystroke_d	d	n/a
396.2555	0.096	792511	keystroke_s	s	n/a
396.4875	0.104	792975	keystroke_Key.space	Key.space	n/a
396.9275	0.08	793855	keystroke_d	d	n/a
397.0235	0.08	794047	keystroke_i	i	n/a
397.1515	0.08	794303	keystroke_c	c	n/a
397.7515	0.128	795503	keystroke_k	k	n/a
398.752	0.064	797504	keystroke_e	e	n/a
398.888	0.096	797776	keystroke_Key.space	Key.space	n/a
399.12	0.088	798240	keystroke_p	p	n/a
399.232	0.104	798464	keystroke_r	r	n/a
399.416	0.08	798832	keystroke_o	o	n/a
399.912	0.088	799824	keystroke_c	c	n/a
400.096	0.104	800192	keystroke_e	e	n/a
400.432	0.088	800864	keystroke_e	e	n/a
400.704	0.088	801408	keystroke_d	d	n/a
400.856	0.096	801712	keystroke_i	i	n/a
400.968	0.088	801936	keystroke_n	n	n/a
401.112	0.08	802224	keystroke_g	g	n/a
401.232	0.096	802464	keystroke_Key.space	Key.space	n/a
401.624	0.088	803248	keystroke_a	a	n/a
401.816	0.088	803632	keystroke_u	u	n/a
402.008	0.08	804016	keystroke_c	c	n/a
402.144	0.112	804288	keystroke_k	k	n/a
402.4	0.088	804800	keystroke_l	l	n/a
402.536	0.088	805072	keystroke_a	a	n/a
402.632	0.072	805264	keystroke_n	n	n/a
402.76	0.088	805520	keystroke_d	d	n/a
403.184	0.08	806368	keystroke_Key.enter	Key.enter	n/a
403.2715	7.5135	806543	prompt	n/a	weather software chambers bored\n
404	0.128	808000	keystroke_w	w	n/a
404.232	0.088	808464	keystroke_e	e	n/a
404.432	0.112	808864	keystroke_a	a	n/a
404.688	0.08	809376	keystroke_t	t	n/a
404.84	0.072	809680	keystroke_h	h	n/a
404.912	0.08	809824	keystroke_e	e	n/a
405.072	0.072	810144	keystroke_r	r	n/a
405.208	0.096	810416	keystroke_Key.space	Key.space	n/a
405.544	0.136	811088	keystroke_s	s	n/a
405.712	0.08	811424	keystroke_o	o	n/a
405.864	0.12	811728	keystroke_f	f	n/a
406.12	0.08	812240	keystroke_t	t	n/a
406.632	0.096	813264	keystroke_w	w	n/a
406.824	0.104	813648	keystroke_a	a	n/a
406.992	0.096	813984	keystroke_r	r	n/a
407.176	0.088	814352	keystroke_e	e	n/a
407.616	0.088	815232	keystroke_Key.space	Key.space	n/a
407.84	0.112	815680	keystroke_c	c	n/a
407.944	0.08	815888	keystroke_h	h	n/a
408.032	0.096	816064	keystroke_a	a	n/a
408.184	0.08	816368	keystroke_m	m	n/a
408.312	0.072	816624	keystroke_b	b	n/a
408.456	0.088	816912	keystroke_e	e	n/a
408.616	0.072	817232	keystroke_r	r	n/a
408.84	0.08	817680	keystroke_s	s	n/a
409.016	0.104	818032	keystroke_Key.space	Key.space	n/a
409.576	0.072	819152	keystroke_b	b	n/a
409.672	0.064	819344	keystroke_o	o	n/a
409.888	0.08	819776	keystroke_r	r	n/a
410.048	0.072	820096	keystroke_e	e	n/a
410.216	0.072	820432	keystroke_d	d	n/a
410.712	0.072	821424	keystroke_Key.enter	Key.enter	n/a
410.7885	12.0845	821577	prompt	n/a	consistency tent motorcycles service\n
411.776	0.112	823552	keystroke_c	c	n/a
411.968	0.072	823936	keystroke_o	o	n/a
412.12	0.072	824240	keystroke_n	n	n/a
412.256	0.08	824512	keystroke_s	s	n/a
412.344	0.08	824688	keystroke_i	i	n/a
412.48	0.096	824960	keystroke_s	s	n/a
412.76	0.096	825520	keystroke_t	t	n/a
413.536	0.08	827072	keystroke_e	e	n/a
413.672	0.096	827344	keystroke_n	n	n/a
413.936	0.12	827872	keystroke_c	c	n/a
414.2155	0.0565	828431	keystroke_y	y	n/a
414.3515	0.104	828703	keystroke_Key.space	Key.space	n/a
414.5835	0.0885	829167	keystroke_t	t	n/a
414.744	0.0875	829488	keystroke_e	e	n/a
414.8155	0.08	829631	keystroke_n	n	n/a
414.9675	0.08	829935	keystroke_y	y	n/a
415.6875	0.072	831375	keystroke_Key.backspace	Key.backspace	n/a
415.7755	0.096	831551	keystroke_t	t	n/a
416.4155	0.088	832831	keystroke_Key.space	Key.space	n/a
416.6395	0.088	833279	keystroke_m	m	n/a
416.7995	0.096	833599	keystroke_o	o	n/a
417.0155	0.088	834031	keystroke_t	t	n/a
417.1915	0.088	834383	keystroke_o	o	n/a
418.7995	0.088	837599	keystroke_r	r	n/a
419.0875	0.112	838175	keystroke_c	c	n/a
419.3675	0.08	838735	keystroke_y	y	n/a
419.6395	0.096	839279	keystroke_c	c	n/a
419.7675	0.088	839535	keystroke_l	l	n/a
419.8635	0.072	839727	keystroke_e	e	n/a
420.6235	0.08	841247	keystroke_s	s	n/a
420.9115	0.096	841823	keystroke_Key.space	Key.space	n/a
421.0955	0.072	842191	keystroke_s	s	n/a
421.2795	0.104	842559	keystroke_e	e	n/a
421.5195	0.08	843039	keystroke_r	r	n/a
421.7675	0.08	843535	keystroke_v	v	n/a
421.8955	0.08	843791	keystroke_i	i	n/a
422.0395	0.056	844079	keystroke_c	c	n/a
422.1595	0.08	844319	keystroke_e	e	n/a
422.7915	0.08	845583	keystroke_Key.enter	Key.enter	n/a
422.8795	7.4335	845759	prompt	n/a	additionally proxy username daily\n
423.5515	0.072	847103	keystroke_a	a	n/a
423.7115	0.072	847423	keystroke_d	d	n/a
423.8635	0.096	847727	keystroke_d	d	n/a
423.9755	0.112	847951	keystroke_i	i	n/a
424.1275	0.064	848255	keystroke_t	t	n/a
424.2155	0.072	848431	keystroke_i	i	n/a
424.3755	0.072	848751	keystroke_o	o	n/a
424.4715	0.08	848943	keystroke_n	n	n/a
424.5915	0.096	849183	keystroke_a	a	n/a
424.7115	0.064	849423	keystroke_l	l	n/a
424.8635	0.072	849727	keystroke_l	l	n/a
424.9835	0.072	849967	keystroke_y	y	n/a
425.0955	0.088	850191	keystroke_Key.space	Key.space	n/a
425.2795	0.096	850559	keystroke_p	p	n/a
425.4155	0.088	850831	keystroke_r	r	n/a
425.5435	0.08	851087	keystroke_o	o	n/a
425.8315	0.072	851663	keystroke_x	x	n/a
426.3995	0.096	852799	keystroke_y	y	n/a
427.0315	0.088	854063	keystroke_Key.space	Key.space	n/a
427.2715	0.064	854543	keystroke_u	u	n/a
427.3675	0.08	854735	keystroke_s	s	n/a
427.5675	0.112	855135	keystroke_e	e	n/a
427.7755	0.088	855551	keystroke_r	r	n/a
428.3275	0.112	856655	keystroke_n	n	n/a
428.4955	0.072	856991	keystroke_a	a	n/a
428.5915	0.096	857183	keystroke_m	m	n/a
428.7195	0.072	857439	keystroke_e	e	n/a
429.2715	0.104	858543	keystroke_Key.space	Key.space	n/a
429.5195	0.08	859039	keystroke_d	d	n/a
429.6475	0.088	859295	keystroke_a	a	n/a
429.7115	0.088	859423	keystroke_i	i	n/a
429.9435	0.072	859887	keystroke_l	l	n/a
430.0715	0.064	860143	keystroke_y	y	n/a
430.2475	0.064	860495	keystroke_Key.enter	Key.enter	n/a
430.3195	8.1455	860639	prompt	n/a	dating belongs gardening secrets\n
431.231	0.072	862462	keystroke_d	d	n/a
431.335	0.08	862670	keystroke_a	a	n/a
431.511	0.064	863022	keystroke_t	t	n/a
431.591	0.088	863182	keystroke_i	i	n/a
431.703	0.072	863406	keystroke_n	n	n/a
431.903	0.064	863806	keystroke_g	g	n/a
432.639	0.096	865278	keystroke_Key.space	Key.space	n/a
432.799	0.072	865598	keystroke_b	b	n/a
432.951	0.08	865902	keystroke_e	e	n/a
433.055	0.088	866110	keystroke_l	l	n/a
433.231	0.08	866462	keystroke_o	o	n/a
433.399	0.072	866798	keystroke_n	n	n/a
433.511	0.08	867022	keystroke_g	g	n/a
433.719	0.072	867438	keystroke_s	s	n/a
433.895	0.096	867790	keystroke_Key.space	Key.space	n/a
434.599	0.072	869198	keystroke_g	g	n/a
434.727	0.096	869454	keystroke_a	a	n/a
434.911	0.072	869822	keystroke_r	r	n/a
435.111	0.08	870222	keystroke_d	d	n/a
435.279	0.08	870558	keystroke_e	e	n/a
435.399	0.064	870798	keystroke_n	n	n/a
435.519	0.096	871038	keystroke_i	i	n/a
435.599	0.096	871198	keystroke_n	n	n/a
435.727	0.072	871454	keystroke_g	g	n/a
435.887	0.104	871774	keystroke_Key.space	Key.space	n/a
436.103	0.072	872206	keystroke_s	s	n/a
436.295	0.072	872590	keystroke_e	e	n/a
436.503	0.08	873006	keystroke_c	c	n/a
436.679	0.072	873358	keystroke_r	r	n/a
436.775	0.104	873550	keystroke_e	e	n/a
436.951	0.056	873902	keystroke_t	t	n/a
437.103	0.072	874206	keystroke_s	s	n/a
438.391	0.072	876782	keystroke_Key.enter	Key.enter	n/a
438.47	8.8825	876940	prompt	n/a	accepted clear shame tyler\n
439.351	0.112	878702	keystroke_a	a	n/a
439.543	0.072	879086	keystroke_c	c	n/a
439.687	0.072	879374	keystroke_c	c	n/a
439.839	0.088	879678	keystroke_e	e	n/a
439.943	0.072	879886	keystroke_p	p	n/a
440.095	0.072	880190	keystroke_t	t	n/a
440.223	0.096	880446	keystroke_i	i	n/a
440.607	0.064	881214	keystroke_Key.backspace	Key.backspace	n/a
440.695	0.08	881390	keystroke_e	e	n/a
440.871	0.088	881742	keystroke_d	d	n/a
441.287	0.096	882574	keystroke_Key.space	Key.space	n/a
441.759	0.088	883518	keystroke_c	c	n/a
441.879	0.072	883758	keystroke_l	l	n/a
442.047	0.088	884094	keystroke_e	e	n/a
442.239	0.072	884478	keystroke_a	a	n/a
442.407	0.064	884814	keystroke_r	r	n/a
442.743	0.088	885486	keystroke_Key.space	Key.space	n/a
442.911	0.088	885822	keystroke_s	s	n/a
443.079	0.088	886158	keystroke_a	a	n/a
443.231	0.096	886462	keystroke_h	h	n/a
443.503	0.088	887006	keystroke_m	m	n/a
443.759	0.088	887518	keystroke_Key.backspace	Key.backspace	n/a
443.943	0.064	887886	keystroke_Key.backspace	Key.backspace	n/a
444.095	0.072	888190	keystroke_Key.backspace	Key.backspace	n/a
444.663	0.08	889326	keystroke_h	h	n/a
444.775	0.096	889550	keystroke_a	a	n/a
444.903	0.072	889806	keystroke_m	m	n/a
445.023	0.08	890046	keystroke_e	e	n/a
445.311	0.096	890622	keystroke_Key.space	Key.space	n/a
446.079	0.088	892158	keystroke_t	t	n/a
446.415	0.08	892830	keystroke_y	y	n/a
446.6465	0.0885	893293	keystroke_l	l	n/a
446.7505	0.0965	893501	keystroke_e	e	n/a
446.903	0.0875	893806	keystroke_r	r	n/a
447.2705	0.08	894541	keystroke_Key.enter	Key.enter	n/a
447.357	12.988	894714	prompt	n/a	know what've discipline java\n
447.9345	0.0885	895869	keystroke_k	k	n/a
448.127	0.0635	896254	keystroke_n	n	n/a
448.2625	0.088	896525	keystroke_o	o	n/a
448.3585	0.088	896717	keystroke_w	w	n/a
448.4945	0.096	896989	keystroke_Key.space	Key.space	n/a
448.6545	0.088	897309	keystroke_t	t	n/a
449.0065	0.104	898013	keystroke_h	h	n/a
449.4145	0.056	898829	keystroke_Key.backspace	Key.backspace	n/a
449.5505	0.08	899101	keystroke_Key.backspace	Key.backspace	n/a
449.6625	0.08	899325	keystroke_w	w	n/a
449.7745	0.064	899549	keystroke_h	h	n/a
449.8545	0.112	899709	keystroke_a	a	n/a
450.0865	0.12	900173	keystroke_t	t	n/a
450.3425	0.088	900685	keystroke_'	'	n/a
450.5185	0.104	901037	keystroke_v	v	n/a
450.7825	0.088	901565	keystroke_e	e	n/a
451.1505	0.112	902301	keystroke_Key.space	Key.space	n/a
451.4545	0.096	902909	keystroke_d	d	n/a
451.6385	0.072	903277	keystroke_e	e	n/a
451.9105	0.08	903821	keystroke_s	s	n/a
452.2545	0.104	904509	keystroke_i	i	n/a
452.9985	0.072	905997	keystroke_Key.backspace	Key.backspace	n/a
454.3825	0.08	908765	keystroke_Key.backspace	Key.backspace	n/a
454.5585	0.088	909117	keystroke_Key.backspace	Key.backspace	n/a
454.9745	0.088	909949	keystroke_i	i	n/a
455.3665	0.104	910733	keystroke_s	s	n/a
455.6625	0.104	911325	keystroke_c	c	n/a
455.8465	0.08	911693	keystroke_i	i	n/a
456.4305	0.12	912861	keystroke_p	p	n/a
456.7985	0.136	913597	keystroke_l	l	n/a
457.6465	0.08	915293	keystroke_i	i	n/a
457.7825	0.088	915565	keystroke_n	n	n/a
457.9025	0.088	915805	keystroke_e	e	n/a
458.0305	0.088	916061	keystroke_Key.space	Key.space	n/a
458.4145	0.072	916829	keystroke_j	j	n/a
458.5185	0.096	917037	keystroke_a	a	n/a
458.7585	0.064	917517	keystroke_v	v	n/a
458.8865	0.048	917773	keystroke_e	e	n/a
459.0065	0.104	918013	keystroke_a	a	n/a
459.2865	0.072	918573	keystroke_Key.backspace	Key.backspace	n/a
459.4225	0.072	918845	keystroke_Key.backspace	Key.backspace	n/a
459.4865	0.088	918973	keystroke_a	a	n/a
460.2625	0.08	920525	keystroke_Key.enter	Key.enter	n/a
460.3525	7.184	920705	prompt	n/a	pensions stamp meetings asked\n
461.0625	0.088	922125	keystroke_p	p	n/a
461.2385	0.08	922477	keystroke_e	e	n/a
461.3515	0.071	922703	keystroke_n	n	n/a
461.4475	0.0795	922895	keystroke_s	s	n/a
461.5345	0.08	923069	keystroke_i	i	n/a
461.7025	0.064	923405	keystroke_o	o	n/a
461.8065	0.072	923613	keystroke_n	n	n/a
461.9185	0.088	923837	keystroke_s	s	n/a
462.0225	0.096	924045	keystroke_Key.space	Key.space	n/a
462.1665	0.096	924333	keystroke_s	s	n/a
462.3585	0.072	924717	keystroke_t	t	n/a
462.4865	0.088	924973	keystroke_a	a	n/a
462.5905	0.072	925181	keystroke_m	m	n/a
462.8305	0.072	925661	keystroke_p	p	n/a
463.1745	0.088	926349	keystroke_Key.space	Key.space	n/a
463.3665	0.08	926733	keystroke_m	m	n/a
463.4785	0.08	926957	keystroke_e	e	n/a
463.6385	0.08	927277	keystroke_e	e	n/a
463.8065	0.072	927613	keystroke_t	t	n/a
463.8865	0.096	927773	keystroke_i	i	n/a
463.9745	0.072	927949	keystroke_n	n	n/a
464.0625	0.056	928125	keystroke_g	g	n/a
464.3425	0.088	928685	keystroke_s	s	n/a
464.7505	0.088	929501	keystroke_Key.space	Key.space	n/a
464.9265	0.096	929853	keystroke_a	a	n/a
465.2065	0.096	930413	keystroke_s	s	n/a
465.3265	0.088	930653	keystroke_k	k	n/a
465.4785	0.096	930957	keystroke_e	e	n/a
465.7025	0.104	931405	keystroke_r	r	n/a
466.0785	0.096	932157	keystroke_d	d	n/a
466.4945	0.08	932989	keystroke_Key.backspace	Key.backspace	n/a
466.6545	0.096	933309	keystroke_Key.backspace	Key.backspace	n/a
467.0625	0.072	934125	keystroke_d	d	n/a
467.4545	0.08	934909	keystroke_Key.enter	Key.enter	n/a
467.542	10.6025	935084	prompt	n/a	purchased bear zope vital\n
468.5025	0.096	937005	keystroke_p	p	n/a
468.7265	0.072	937453	keystroke_u	u	n/a
468.8705	0.088	937741	keystroke_r	r	n/a
469.1345	0.096	938269	keystroke_c	c	n/a
469.2145	0.072	938429	keystroke_h	h	n/a
469.4065	0.104	938813	keystroke_a	a	n/a
469.5425	0.072	939085	keystroke_n	n	n/a
469.9665	0.064	939933	keystroke_Key.backspace	Key.backspace	n/a
470.0785	0.104	940157	keystroke_s	s	n/a
470.3345	0.096	940669	keystroke_e	e	n/a
470.9505	0.096	941901	keystroke_d	d	n/a
471.5505	0.104	943101	keystroke_Key.space	Key.space	n/a
471.9025	0.08	943805	keystroke_b	b	n/a
472.0385	0.088	944077	keystroke_e	e	n/a
472.1905	0.08	944381	keystroke_a	a	n/a
472.3345	0.072	944669	keystroke_r	r	n/a
472.4705	0.088	944941	keystroke_Key.space	Key.space	n/a
472.9425	0.096	945885	keystroke_z	z	n/a
473.0865	0.12	946173	keystroke_i	i	n/a
473.8785	0.088	947757	keystroke_Key.backspace	Key.backspace	n/a
474.1185	0.096	948237	keystroke_o	o	n/a
474.3665	0.08	948733	keystroke_p	p	n/a
475.0545	0.112	950109	keystroke_e	e	n/a
475.4545	0.088	950909	keystroke_Key.space	Key.space	n/a
476.1265	0.088	952253	keystroke_v	v	n/a
476.2385	0.08	952477	keystroke_i	i	n/a
476.7025	0.064	953405	keystroke_t	t	n/a
476.8225	0.08	953645	keystroke_a	a	n/a
476.9105	0.08	953821	keystroke_l	l	n/a
478.0465	0.096	956093	keystroke_Key.enter	Key.enter	n/a
478.1495	10.3465	956299	prompt	n/a	publishing governance reaches albania\n
478.9185	0.08	957837	keystroke_p	p	n/a
479.1265	0.08	958253	keystroke_u	u	n/a
479.3745	0.08	958749	keystroke_b	b	n/a
479.4705	0.08	958941	keystroke_l	l	n/a
479.6625	0.08	959325	keystroke_i	i	n/a
479.8065	0.088	959613	keystroke_s	s	n/a
480.0625	0.072	960125	keystroke_h	h	n/a
480.1985	0.08	960397	keystroke_i	i	n/a
480.2545	0.104	960509	keystroke_n	n	n/a
480.4065	0.08	960813	keystroke_g	g	n/a
480.5505	0.104	961101	keystroke_Key.space	Key.space	n/a
481.4465	0.072	962893	keystroke_g	g	n/a
481.5585	0.064	963117	keystroke_o	o	n/a
481.7185	0.08	963437	keystroke_v	v	n/a
481.8705	0.08	963741	keystroke_e	e	n/a
482.0385	0.064	964077	keystroke_r	r	n/a
482.1665	0.072	964333	keystroke_n	n	n/a
482.3105	0.08	964621	keystroke_a	a	n/a
482.4225	0.072	964845	keystroke_n	n	n/a
483.1665	0.096	966333	keystroke_c	c	n/a
483.3025	0.096	966605	keystroke_e	e	n/a
483.9505	0.096	967901	keystroke_Key.space	Key.space	n/a
484.1505	0.088	968301	keystroke_r	r	n/a
484.2785	0.088	968557	keystroke_e	e	n/a
484.4465	0.08	968893	keystroke_a	a	n/a
484.6145	0.072	969229	keystroke_c	c	n/a
484.7265	0.072	969453	keystroke_h	h	n/a
484.8705	0.088	969741	keystroke_e	e	n/a
485.0625	0.096	970125	keystroke_s	s	n/a
486.2145	0.112	972429	keystroke_Key.space	Key.space	n/a
486.4385	0.104	972877	keystroke_a	a	n/a
486.6145	0.096	973229	keystroke_l	l	n/a
486.8785	0.096	973757	keystroke_b	b	n/a
487.0865	0.088	974173	keystroke_a	a	n/a
487.2145	0.072	974429	keystroke_n	n	n/a
487.3585	0.088	974717	keystroke_i	i	n/a
487.9105	0.12	975821	keystroke_a	a	n/a
488.4065	0.088	976813	keystroke_Key.enter	Key.enter	n/a
488.501	11.707	977002	prompt	n/a	understood leisure graphical conditional\n
489.2625	0.08	978525	keystroke_u	u	n/a
489.5105	0.112	979021	keystroke_d	d	n/a
489.6945	0.104	979389	keystroke_e	e	n/a
489.8785	0.088	979757	keystroke_r	r	n/a
490.2865	0.088	980573	keystroke_Key.backspace	Key.backspace	n/a
490.4625	0.072	980925	keystroke_Key.backspace	Key.backspace	n/a
490.6065	0.096	981213	keystroke_Key.backspace	Key.backspace	n/a
491.0625	0.08	982125	keystroke_n	n	n/a
491.3425	0.08	982685	keystroke_d	d	n/a
491.5025	0.08	983005	keystroke_e	e	n/a
491.6465	0.072	983293	keystroke_r	r	n/a
491.8145	0.072	983629	keystroke_s	s	n/a
491.9745	0.064	983949	keystroke_t	t	n/a
492.0625	0.072	984125	keystroke_o	o	n/a
492.2305	0.08	984461	keystroke_o	o	n/a
492.5105	0.096	985021	keystroke_d	d	n/a
492.7265	0.096	985453	keystroke_Key.space	Key.space	n/a
492.9745	0.088	985949	keystroke_l	l	n/a
493.1985	0.088	986397	keystroke_e	e	n/a
493.3905	0.08	986781	keystroke_i	i	n/a
493.5905	0.088	987181	keystroke_s	s	n/a
493.7425	0.072	987485	keystroke_u	u	n/a
493.8625	0.096	987725	keystroke_r	r	n/a
493.9505	0.096	987901	keystroke_e	e	n/a
494.0865	0.096	988173	keystroke_Key.space	Key.space	n/a
494.8305	0.08	989661	keystroke_g	g	n/a
495.0225	0.08	990045	keystroke_r	r	n/a
495.6545	0.0955	991309	keystroke_a	a	n/a
495.8785	0.096	991757	keystroke_p	p	n/a
496.1505	0.064	992301	keystroke_h	h	n/a
496.2945	0.088	992589	keystroke_i	i	n/a
496.4305	0.088	992861	keystroke_c	c	n/a
496.5905	0.088	993181	keystroke_a	a	n/a
496.6945	0.072	993389	keystroke_l	l	n/a
496.8545	0.104	993709	keystroke_Key.space	Key.space	n/a
497.0145	0.088	994029	keystroke_c	c	n/a
497.0865	0.072	994173	keystroke_o	o	n/a
497.2545	0.072	994509	keystroke_n	n	n/a
497.8625	0.088	995725	keystroke_d	d	n/a
497.9745	0.088	995949	keystroke_i	i	n/a
498.1265	0.072	996253	keystroke_t	t	n/a
498.2065	0.072	996413	keystroke_i	i	n/a
498.3825	0.08	996765	keystroke_o	o	n/a
498.4945	0.072	996989	keystroke_n	n	n/a
499.5505	0.104	999101	keystroke_a	a	n/a
499.6785	0.12	999357	keystroke_l	l	n/a
500.1185	0.088	1000237	keystroke_Key.enter	Key.enter	n/a
500.213	13.235	1000426	prompt	n/a	combination bicycle governor protection\n
500.9665	0.096	1001933	keystroke_c	c	n/a
501.0545	0.08	1002109	keystroke_o	o	n/a
501.1905	0.064	1002381	keystroke_m	m	n/a
501.5025	0.072	1003005	keystroke_b	b	n/a
501.5905	0.08	1003181	keystroke_i	i	n/a
501.6785	0.088	1003357	keystroke_n	n	n/a
501.8385	0.088	1003677	keystroke_a	a	n/a
502.0225	0.072	1004045	keystroke_t	t	n/a
502.1185	0.08	1004237	keystroke_i	i	n/a
502.3025	0.08	1004605	keystroke_o	o	n/a
502.4785	0.08	1004957	keystroke_n	n	n/a
502.6865	0.104	1005373	keystroke_Key.space	Key.space	n/a
503.1425	0.096	1006285	keystroke_b	b	n/a
504.9345	0.0795	1009869	keystroke_i	i	n/a
505.5425	0.088	1011085	keystroke_c	c	n/a
505.7985	0.064	1011597	keystroke_y	y	n/a
506.0945	0.1035	1012189	keystroke_c	c	n/a
506.3025	0.104	1012605	keystroke_l	l	n/a
506.5345	0.0955	1013069	keystroke_e	e	n/a
507.1585	0.0875	1014317	keystroke_Key.space	Key.space	n/a
507.982	0.08	1015964	keystroke_g	g	n/a
508.078	0.08	1016156	keystroke_o	o	n/a
508.2145	0.08	1016429	keystroke_v	v	n/a
508.3665	0.0875	1016733	keystroke_e	e	n/a
508.534	0.0805	1017068	keystroke_r	r	n/a
509.438	0.128	1018876	keystroke_n	n	n/a
509.9665	0.088	1019933	keystroke_o	o	n/a
510.1425	0.096	1020285	keystroke_r	r	n/a
510.3265	0.104	1020653	keystroke_Key.space	Key.space	n/a
510.5585	0.096	1021117	keystroke_p	p	n/a
510.7825	0.112	1021565	keystroke_r	r	n/a
510.9345	0.072	1021869	keystroke_o	o	n/a
511.6865	0.072	1023373	keystroke_t	t	n/a
511.8625	0.0795	1023725	keystroke_e	e	n/a
512.1025	0.104	1024205	keystroke_c	c	n/a
512.3345	0.072	1024669	keystroke_t	t	n/a
512.4305	0.088	1024861	keystroke_i	i	n/a
512.6065	0.128	1025213	keystroke_o	o	n/a
512.7105	0.08	1025421	keystroke_n	n	n/a
513.3505	0.096	1026701	keystroke_Key.enter	Key.enter	n/a
513.453	19.675	1026906	prompt	n/a	beastality bangladesh zinc chevy\n
514.3985	0.072	1028797	keystroke_b	b	n/a
514.5585	0.096	1029117	keystroke_e	e	n/a
514.7505	0.088	1029501	keystroke_a	a	n/a
514.9265	0.088	1029853	keystroke_s	s	n/a
516.5745	0.096	1033149	keystroke_t	t	n/a
516.7985	0.0955	1033597	keystroke_a	a	n/a
516.934	0.1125	1033868	keystroke_l	l	n/a
517.1905	0.08	1034381	keystroke_i	i	n/a
517.406	0.0965	1034812	keystroke_t	t	n/a
517.6145	0.08	1035229	keystroke_y	y	n/a
518.1665	0.0875	1036333	keystroke_Key.space	Key.space	n/a
522.166	0.072	1044332	keystroke_b	b	n/a
522.318	0.088	1044636	keystroke_a	a	n/a
522.43	0.08	1044860	keystroke_n	n	n/a
523.094	0.072	1046188	keystroke_g	g	n/a
524.15	0.112	1048300	keystroke_l	l	n/a
524.902	0.096	1049804	keystroke_a	a	n/a
525.318	0.112	1050636	keystroke_f	f	n/a
525.534	0.088	1051068	keystroke_e	e	n/a
525.974	0.088	1051948	keystroke_Key.backspace	Key.backspace	n/a
526.134	0.08	1052268	keystroke_Key.backspace	Key.backspace	n/a
526.678	0.064	1053356	keystroke_d	d	n/a
526.806	0.08	1053612	keystroke_e	e	n/a
526.982	0.08	1053964	keystroke_s	s	n/a
527.174	0.072	1054348	keystroke_t	t	n/a
527.302	0.096	1054604	keystroke_Key.space	Key.space	n/a
527.998	0.096	1055996	keystroke_x	x	n/a
529.174	0.08	1058348	keystroke_Key.backspace	Key.backspace	n/a
529.318	0.096	1058636	keystroke_z	z	n/a
529.526	0.088	1059052	keystroke_i	i	n/a
529.718	0.072	1059436	keystroke_n	n	n/a
529.838	0.104	1059676	keystroke_c	c	n/a
530.542	0.104	1061084	keystroke_Key.space	Key.space	n/a
530.87	0.08	1061740	keystroke_c	c	n/a
530.966	0.072	1061932	keystroke_h	h	n/a
531.102	0.112	1062204	keystroke_e	e	n/a
531.55	0.04	1063100	keystroke_c	c	n/a
531.95	0.072	1063900	keystroke_Key.backspace	Key.backspace	n/a
532.03	0.088	1064060	keystroke_v	v	n/a
532.246	0.08	1064492	keystroke_y	y	n/a
533.038	0.088	1066076	keystroke_Key.enter	Key.enter	n/a
533.132	6.348	1066264	prompt	n/a	the accurate bedding sponsor\n
533.782	0.08	1067564	keystroke_t	t	n/a
533.886	0.072	1067772	keystroke_h	h	n/a
533.966	0.064	1067932	keystroke_e	e	n/a
534.07	0.088	1068140	keystroke_Key.space	Key.space	n/a
534.27	0.096	1068540	keystroke_a	a	n/a
534.494	0.056	1068988	keystroke_c	c	n/a
534.614	0.072	1069228	keystroke_c	c	n/a
534.742	0.064	1069484	keystroke_u	u	n/a
534.894	0.088	1069788	keystroke_r	r	n/a
535.038	0.08	1070076	keystroke_a	a	n/a
535.19	0.072	1070380	keystroke_t	t	n/a
535.294	0.096	1070588	keystroke_e	e	n/a
535.974	0.088	1071948	keystroke_Key.space	Key.space	n/a
536.31	0.072	1072620	keystroke_b	b	n/a
536.454	0.072	1072908	keystroke_e	e	n/a
536.638	0.072	1073276	keystroke_d	d	n/a
536.798	0.08	1073596	keystroke_d	d	n/a
536.894	0.088	1073788	keystroke_i	i	n/a
537.014	0.08	1074028	keystroke_n	n	n/a
537.206	0.096	1074412	keystroke_g	g	n/a
537.534	0.104	1075068	keystroke_Key.space	Key.space	n/a
537.758	0.08	1075516	keystroke_s	s	n/a
537.878	0.088	1075756	keystroke_p	p	n/a
538.07	0.08	1076140	keystroke_o	o	n/a
538.19	0.08	1076380	keystroke_n	n	n/a
538.462	0.112	1076924	keystroke_s	s	n/a
538.918	0.104	1077836	keystroke_o	o	n/a
539.086	0.096	1078172	keystroke_r	r	n/a
539.398	0.08	1078796	keystroke_Key.enter	Key.enter	n/a
539.484	5.7155	1078968	prompt	n/a	reel lake rewards mime\n
540.118	0.088	1080236	keystroke_r	r	n/a
540.558	0.12	1081116	keystroke_e	e	n/a
540.766	0.096	1081532	keystroke_e	e	n/a
541.038	0.096	1082076	keystroke_l	l	n/a
541.206	0.088	1082412	keystroke_Key.space	Key.space	n/a
541.358	0.104	1082716	keystroke_l	l	n/a
541.526	0.104	1083052	keystroke_a	a	n/a
541.934	0.08	1083868	keystroke_k	k	n/a
542.102	0.096	1084204	keystroke_e	e	n/a
542.51	0.088	1085020	keystroke_Key.space	Key.space	n/a
542.71	0.104	1085420	keystroke_r	r	n/a
542.846	0.0955	1085692	keystroke_e	e	n/a
543.2295	0.088	1086459	keystroke_w	w	n/a
543.4135	0.096	1086827	keystroke_a	a	n/a
543.5975	0.096	1087195	keystroke_r	r	n/a
543.8295	0.081	1087659	keystroke_d	d	n/a
543.9815	0.096	1087963	keystroke_s	s	n/a
544.2135	0.088	1088427	keystroke_Key.space	Key.space	n/a
544.3975	0.08	1088795	keystroke_m	m	n/a
544.5335	0.096	1089067	keystroke_i	i	n/a
544.7655	0.112	1089531	keystroke_m	m	n/a
544.9495	0.088	1089899	keystroke_e	e	n/a
545.1255	0.072	1090251	keystroke_Key.enter	Key.enter	n/a
545.203	13.0765	1090406	prompt	n/a	polyphonic juice provincial requested\n
545.8695	0.096	1091739	keystroke_p	p	n/a
546.1815	0.072	1092363	keystroke_h	h	n/a
546.4055	0.136	1092811	keystroke_o	o	n/a
546.7495	0.072	1093499	keystroke_Key.backspace	Key.backspace	n/a
546.8935	0.08	1093787	keystroke_Key.backspace	Key.backspace	n/a
547.4535	0.072	1094907	keystroke_o	o	n/a
547.6375	0.08	1095275	keystroke_l	l	n/a
547.8055	0.072	1095611	keystroke_y	y	n/a
548.7255	0.088	1097451	keystroke_p	p	n/a
548.9655	0.072	1097931	keystroke_h	h	n/a
549.1575	0.096	1098315	keystroke_o	o	n/a
549.7415	0.096	1099483	keystroke_n	n	n/a
550.2455	0.104	1100491	keystroke_i	i	n/a
550.6135	0.096	1101227	keystroke_c	c	n/a
550.9015	0.088	1101803	keystroke_Key.space	Key.space	n/a
551.1095	0.112	1102219	keystroke_j	j	n/a
551.3735	0.096	1102747	keystroke_u	u	n/a
551.5975	0.072	1103195	keystroke_i	i	n/a
551.7415	0.096	1103483	keystroke_c	c	n/a
551.9415	0.088	1103883	keystroke_e	e	n/a
552.502	0.104	1105004	keystroke_Key.space	Key.space	n/a
552.694	0.112	1105388	keystroke_p	p	n/a
552.83	0.088	1105660	keystroke_r	r	n/a
552.974	0.088	1105948	keystroke_o	o	n/a
553.39	0.12	1106780	keystroke_v	v	n/a
553.55	0.088	1107100	keystroke_i	i	n/a
553.902	0.104	1107804	keystroke_n	n	n/a
555.262	0.112	1110524	keystroke_c	c	n/a
555.422	0.104	1110844	keystroke_i	i	n/a
555.59	0.08	1111180	keystroke_a	a	n/a
555.726	0.112	1111452	keystroke_l	l	n/a
555.966	0.08	1111932	keystroke_Key.space	Key.space	n/a
556.19	0.08	1112380	keystroke_r	r	n/a
556.31	0.088	1112620	keystroke_e	e	n/a
556.694	0.088	1113388	keystroke_q	q	n/a
556.854	0.064	1113708	keystroke_u	u	n/a
557.134	0.08	1114268	keystroke_e	e	n/a
557.334	0.072	1114668	keystroke_s	s	n/a
557.51	0.064	1115020	keystroke_t	t	n/a
557.606	0.08	1115212	keystroke_e	e	n/a
557.774	0.072	1115548	keystroke_d	d	n/a
558.19	0.088	1116380	keystroke_Key.enter	Key.enter	n/a
558.285	10.9065	1116570	prompt	n/a	starsmerchant triple chat ampland\n
558.91	0.104	1117820	keystroke_s	s	n/a
559.118	0.088	1118236	keystroke_t	t	n/a
559.294	0.104	1118588	keystroke_a	a	n/a
559.486	0.088	1118972	keystroke_r	r	n/a
559.79	0.112	1119580	keystroke_m	m	n/a
559.942	0.096	1119884	keystroke_e	e	n/a
560.15	0.088	1120300	keystroke_r	r	n/a
560.39	0.096	1120780	keystroke_c	c	n/a
560.494	0.088	1120988	keystroke_h	h	n/a
560.598	0.088	1121196	keystroke_a	a	n/a
560.718	0.08	1121436	keystroke_n	n	n/a
560.886	0.08	1121772	keystroke_t	t	n/a
561.054	0.104	1122108	keystroke_Key.space	Key.space	n/a
561.462	0.104	1122924	keystroke_t	t	n/a
561.67	0.072	1123340	keystroke_r	r	n/a
561.782	0.072	1123564	keystroke_i	i	n/a
562.022	0.072	1124044	keystroke_p	p	n/a
562.182	0.072	1124364	keystroke_p	p	n/a
562.686	0.072	1125372	keystroke_Key.backspace	Key.backspace	n/a
562.934	0.096	1125868	keystroke_l	l	n/a
563.294	0.08	1126588	keystroke_e	e	n/a
563.422	0.08	1126844	keystroke_Key.space	Key.space	n/a
563.646	0.104	1127292	keystroke_c	c	n/a
563.742	0.072	1127484	keystroke_h	h	n/a
563.83	0.096	1127660	keystroke_a	a	n/a
564.022	0.096	1128044	keystroke_t	t	n/a
567.286	0.104	1134572	keystroke_Key.space	Key.space	n/a
567.654	0.104	1135308	keystroke_a	a	n/a
567.774	0.096	1135548	keystroke_m	m	n/a
567.966	0.096	1135932	keystroke_p	p	n/a
568.23	0.152	1136460	keystroke_l	l	n/a
568.534	0.112	1137068	keystroke_a	a	n/a
568.63	0.096	1137260	keystroke_n	n	n/a
568.75	0.088	1137500	keystroke_d	d	n/a
569.1175	0.072	1138235	keystroke_Key.enter	Key.enter	n/a
569.1965	5.9225	1138393	prompt	n/a	ellis flooring it char\n
569.95	0.088	1139900	keystroke_e	e	n/a
570.094	0.08	1140188	keystroke_l	l	n/a
570.2455	0.072	1140491	keystroke_l	l	n/a
570.4295	0.072	1140859	keystroke_i	i	n/a
570.5495	0.08	1141099	keystroke_s	s	n/a
570.7015	0.088	1141403	keystroke_Key.space	Key.space	n/a
570.9175	0.088	1141835	keystroke_d	d	n/a
571.4935	0.08	1142987	keystroke_Key.backspace	Key.backspace	n/a
571.7575	0.072	1143515	keystroke_f	f	n/a
571.8615	0.088	1143723	keystroke_l	l	n/a
572.5335	0.112	1145067	keystroke_o	o	n/a
572.7495	0.088	1145499	keystroke_o	o	n/a
572.9415	0.104	1145883	keystroke_r	r	n/a
573.0695	0.104	1146139	keystroke_i	i	n/a
573.1895	0.104	1146379	keystroke_n	n	n/a
573.3815	0.08	1146763	keystroke_g	g	n/a
573.7565	0.089	1147513	keystroke_Key.space	Key.space	n/a
573.9815	0.088	1147963	keystroke_i	i	n/a
574.1095	0.08	1148219	keystroke_t	t	n/a
574.2135	0.088	1148427	keystroke_Key.space	Key.space	n/a
574.4775	0.104	1148955	keystroke_c	c	n/a
574.5895	0.064	1149179	keystroke_h	h	n/a
574.6855	0.088	1149371	keystroke_a	a	n/a
574.8535	0.072	1149707	keystroke_r	r	n/a
575.0455	0.072	1150091	keystroke_Key.enter	Key.enter	n/a
575.1275	11.408	1150255	prompt	n/a	managing designing disappointed honors\n
575.8935	0.096	1151787	keystroke_m	m	n/a
576.0295	0.112	1152059	keystroke_a	a	n/a
576.7575	0.096	1153515	keystroke_n	n	n/a
577.0295	0.128	1154059	keystroke_a	a	n/a
577.3655	0.12	1154731	keystroke_d	d	n/a
577.7495	0.088	1155499	keystroke_Key.backspace	Key.backspace	n/a
578.1975	0.08	1156395	keystroke_g	g	n/a
578.2935	0.088	1156587	keystroke_i	i	n/a
578.3975	0.096	1156795	keystroke_n	n	n/a
578.5495	0.072	1157099	keystroke_g	g	n/a
579.0695	0.088	1158139	keystroke_Key.space	Key.space	n/a
579.2615	0.088	1158523	keystroke_d	d	n/a
579.4215	0.08	1158843	keystroke_e	e	n/a
579.6295	0.088	1159259	keystroke_s	s	n/a
579.7655	0.08	1159531	keystroke_i	i	n/a
579.9495	0.08	1159899	keystroke_g	g	n/a
580.1895	0.08	1160379	keystroke_n	n	n/a
580.4055	0.152	1160811	keystroke_i	i	n/a
580.5335	0.104	1161067	keystroke_n	n	n/a
580.7175	0.064	1161435	keystroke_g	g	n/a
581.6295	0.096	1163259	keystroke_Key.space	Key.space	n/a
582.2615	0.072	1164523	keystroke_d	d	n/a
582.3575	0.072	1164715	keystroke_i	i	n/a
582.4615	0.08	1164923	keystroke_s	s	n/a
582.6775	0.088	1165355	keystroke_a	a	n/a
583.5655	0.16	1167131	keystroke_p	p	n/a
584.0375	0.112	1168075	keystroke_p	p	n/a
584.2855	0.088	1168571	keystroke_o	o	n/a
584.4775	0.088	1168955	keystroke_i	i	n/a
584.5735	0.08	1169147	keystroke_n	n	n/a
584.7015	0.088	1169403	keystroke_t	t	n/a
584.8455	0.088	1169691	keystroke_e	e	n/a
585.0215	0.088	1170043	keystroke_d	d	n/a
585.1575	0.08	1170315	keystroke_Key.space	Key.space	n/a
585.3495	0.064	1170699	keystroke_h	h	n/a
585.4775	0.096	1170955	keystroke_o	o	n/a
585.7015	0.064	1171403	keystroke_n	n	n/a
585.8375	0.08	1171675	keystroke_o	o	n/a
585.9655	0.08	1171931	keystroke_r	r	n/a
586.2135	0.08	1172427	keystroke_s	s	n/a
586.4295	0.104	1172859	keystroke_Key.enter	Key.enter	n/a
586.541	9.5225	1173082	prompt	n/a	collecting disaster office district\n
587.2855	0.096	1174571	keystroke_c	c	n/a
587.5575	0.088	1175115	keystroke_o	o	n/a
587.7895	0.064	1175579	keystroke_l	l	n/a
587.9335	0.08	1175867	keystroke_l	l	n/a
588.0535	0.08	1176107	keystroke_e	e	n/a
588.2295	0.096	1176459	keystroke_c	c	n/a
588.4455	0.072	1176891	keystroke_t	t	n/a
588.5575	0.072	1177115	keystroke_i	i	n/a
588.6695	0.072	1177339	keystroke_n	n	n/a
588.7735	0.064	1177547	keystroke_g	g	n/a
588.8845	0.089	1177769	keystroke_Key.space	Key.space	n/a
589.0935	0.104	1178187	keystroke_d	d	n/a
589.2295	0.08	1178459	keystroke_i	i	n/a
589.3575	0.096	1178715	keystroke_s	s	n/a
589.9335	0.112	1179867	keystroke_a	a	n/a
590.2375	0.096	1180475	keystroke_s	s	n/a
590.5655	0.088	1181131	keystroke_t	t	n/a
590.7735	0.088	1181547	keystroke_e	e	n/a
590.9895	0.088	1181979	keystroke_r	r	n/a
591.3175	0.08	1182635	keystroke_Key.space	Key.space	n/a
591.4925	0.089	1182985	keystroke_o	o	n/a
591.5895	0.096	1183179	keystroke_f	f	n/a
591.7895	0.088	1183579	keystroke_f	f	n/a
592.1255	0.088	1184251	keystroke_i	i	n/a
592.3015	0.088	1184603	keystroke_c	c	n/a
592.5095	0.08	1185019	keystroke_e	e	n/a
592.6615	0.08	1185323	keystroke_Key.space	Key.space	n/a
592.9015	0.088	1185803	keystroke_s	s	n/a
593.0375	0.096	1186075	keystroke_i	i	n/a
593.4455	0.072	1186891	keystroke_Key.backspace	Key.backspace	n/a
593.6055	0.071	1187211	keystroke_Key.backspace	Key.backspace	n/a
593.7335	0.072	1187467	keystroke_d	d	n/a
593.8615	0.072	1187723	keystroke_i	i	n/a
594.4455	0.112	1188891	keystroke_s	s	n/a
594.7655	0.056	1189531	keystroke_t	t	n/a
595.0695	0.096	1190139	keystroke_r	r	n/a
595.2775	0.096	1190555	keystroke_i	i	n/a
595.4535	0.096	1190907	keystroke_c	c	n/a
595.7015	0.072	1191403	keystroke_t	t	n/a
595.9815	0.08	1191963	keystroke_Key.enter	Key.enter	n/a
596.068	12.827	1192136	prompt	n/a	geological sublime knee privileges\n
597.0135	0.072	1194027	keystroke_g	g	n/a
597.2295	0.136	1194459	keystroke_e	e	n/a
597.8055	0.112	1195611	keystroke_o	o	n/a
598.3815	0.112	1196763	keystroke_l	l	n/a
598.6215	0.08	1197243	keystroke_o	o	n/a
598.8375	0.096	1197675	keystroke_g	g	n/a
598.9735	0.08	1197947	keystroke_i	i	n/a
599.1735	0.08	1198347	keystroke_c	c	n/a
599.3095	0.088	1198619	keystroke_a	a	n/a
599.4455	0.104	1198891	keystroke_l	l	n/a
599.7335	0.087	1199467	keystroke_Key.space	Key.space	n/a
599.9175	0.08	1199835	keystroke_s	s	n/a
600.0455	0.08	1200091	keystroke_u	u	n/a
600.2615	0.096	1200523	keystroke_b	b	n/a
600.4375	0.088	1200875	keystroke_l	l	n/a
600.6695	0.088	1201339	keystroke_i	i	n/a
600.8135	0.08	1201627	keystroke_n	n	n/a
601.2135	0.088	1202427	keystroke_e	e	n/a
601.4045	0.096	1202809	keystroke_Key.space	Key.space	n/a
601.6295	0.08	1203259	keystroke_k	k	n/a
602.1805	0.089	1204361	keystroke_Key.backspace	Key.backspace	n/a
602.3565	0.057	1204713	keystroke_Key.backspace	Key.backspace	n/a
602.4935	0.087	1204987	keystroke_Key.backspace	Key.backspace	n/a
602.9495	0.071	1205899	keystroke_Key.backspace	Key.backspace	n/a
603.1815	0.079	1206363	keystroke_m	m	n/a
603.4455	0.088	1206891	keystroke_e	e	n/a
603.6205	0.097	1207241	keystroke_Key.space	Key.space	n/a
603.8855	0.112	1207771	keystroke_k	k	n/a
604.2295	0.088	1208459	keystroke_n	n	n/a
604.6855	0.088	1209371	keystroke_e	e	n/a
604.8695	0.088	1209739	keystroke_e	e	n/a
605.3005	0.105	1210601	keystroke_Key.space	Key.space	n/a
605.4925	0.129	1210985	keystroke_p	p	n/a
605.7325	0.097	1211465	keystroke_r	r	n/a
605.8855	0.08	1211771	keystroke_i	i	n/a
606.3655	0.12	1212731	keystroke_c	c	n/a
606.9565	0.081	1213913	keystroke_Key.backspace	Key.backspace	n/a
607.3255	0.08	1214651	keystroke_v	v	n/a
607.4535	0.096	1214907	keystroke_i	i	n/a
607.7335	0.088	1215467	keystroke_l	l	n/a
608.0295	0.088	1216059	keystroke_e	e	n/a
608.2295	0.072	1216459	keystroke_g	g	n/a
608.3735	0.08	1216747	keystroke_e	e	n/a
608.5575	0.088	1217115	keystroke_s	s	n/a
608.8055	0.088	1217611	keystroke_Key.enter	Key.enter	n/a
608.899	8.316	1217798	prompt	n/a	protected arkansas button proper\n
609.5255	0.12	1219051	keystroke_p	p	n/a
609.7015	0.088	1219403	keystroke_r	r	n/a
609.8125	0.065	1219625	keystroke_o	o	n/a
609.9575	0.08	1219915	keystroke_t	t	n/a
610.0855	0.088	1220171	keystroke_e	e	n/a
610.4615	0.12	1220923	keystroke_x	x	n/a
610.9815	0.088	1221963	keystroke_Key.backspace	Key.backspace	n/a
611.1575	0.144	1222315	keystroke_c	c	n/a
611.4695	0.096	1222939	keystroke_t	t	n/a
611.7495	0.112	1223499	keystroke_e	e	n/a
612.0855	0.072	1224171	keystroke_d	d	n/a
612.2045	0.096	1224409	keystroke_Key.space	Key.space	n/a
612.3895	0.095	1224779	keystroke_a	a	n/a
612.6375	0.08	1225275	keystroke_r	r	n/a
612.9175	0.072	1225835	keystroke_k	k	n/a
613.0775	0.096	1226155	keystroke_a	a	n/a
613.2605	0.073	1226521	keystroke_n	n	n/a
613.5015	0.08	1227003	keystroke_s	s	n/a
613.6775	0.088	1227355	keystroke_a	a	n/a
613.9095	0.08	1227819	keystroke_s	s	n/a
614.2125	0.08	1228425	keystroke_Key.space	Key.space	n/a
614.4775	0.088	1228955	keystroke_b	b	n/a
614.5655	0.08	1229131	keystroke_u	u	n/a
614.7175	0.072	1229435	keystroke_t	t	n/a
614.8855	0.08	1229771	keystroke_t	t	n/a
615.0455	0.095	1230091	keystroke_o	o	n/a
615.3015	0.08	1230603	keystroke_n	n	n/a
615.8535	0.071	1231707	keystroke_Key.space	Key.space	n/a
616.0695	0.095	1232139	keystroke_p	p	n/a
616.3405	0.105	1232681	keystroke_r	r	n/a
616.5175	0.079	1233035	keystroke_o	o	n/a
616.7415	0.072	1233483	keystroke_p	p	n/a
616.8605	0.089	1233721	keystroke_e	e	n/a
