onset	duration	sample	value	key	prompt_text
12.7935	0.013	25587	keystroke_1	1	n/a
12.926	0.06	25852	keystroke_2	2	n/a
13.692	0.075	27384	keystroke_1	1	n/a
14.337	0.015	28674	keystroke_5	5	n/a
15.7765	0.105	31553	keystroke_Key.space	Key.space	n/a
16.1065	0.06	32213	keystroke_Key.space	Key.space	n/a
19.0705	10.9885	38141	prompt	n/a	the quick brown fox jumps over a lazy dog\n
20.624	0.012	41248	keystroke_t	t	n/a
20.7865	0.0905	41573	keystroke_h	h	n/a
20.922	0.075	41844	keystroke_e	e	n/a
21.102	0.105	42204	keystroke_Key.space	Key.space	n/a
21.2215	0.1055	42443	keystroke_q	q	n/a
21.356	0.0755	42712	keystroke_u	u	n/a
21.5065	0.075	43013	keystroke_i	i	n/a
21.6265	0.06	43253	keystroke_c	c	n/a
21.7315	0.12	43463	keystroke_k	k	n/a
21.8365	0.075	43673	keystroke_Key.space	Key.space	n/a
22.032	0.06	44064	keystroke_b	b	n/a
22.107	0.075	44214	keystroke_r	r	n/a
22.227	0.09	44454	keystroke_o	o	n/a
22.8865	0.075	45773	keystroke_w	w	n/a
23.0665	0.15	46133	keystroke_n	n	n/a
24.612	0.0445	49224	keystroke_Key.space	Key.space	n/a
24.672	0.09	49344	keystroke_f	f	n/a
24.851	0.0905	49702	keystroke_o	o	n/a
25.0615	0.09	50123	keystroke_x	x	n/a
25.2415	0.09	50483	keystroke_Key.space	Key.space	n/a
25.4815	0.075	50963	keystroke_j	j	n/a
25.6315	0.075	51263	keystroke_u	u	n/a
25.827	0.105	51654	keystroke_m	m	n/a
25.977	0.105	51954	keystroke_p	p	n/a
26.142	0.075	52284	keystroke_s	s	n/a
26.262	0.075	52524	keystroke_Key.space	Key.space	n/a
26.4115	0.09	52823	keystroke_o	o	n/a
26.7865	0.06	53573	keystroke_v	v	n/a
27.5365	0.1205	55073	keystroke_e	e	n/a
27.657	0.104	55314	keystroke_r	r	n/a
27.8065	0.09	55613	keystroke_Key.space	Key.space	n/a
27.9865	0.09	55973	keystroke_a	a	n/a
28.1065	0.0755	56213	keystroke_Key.space	Key.space	n/a
28.541	0.06	57082	keystroke_l	l	n/a
28.631	0.075	57262	keystroke_a	a	n/a
28.947	0.059	57894	keystroke_z	z	n/a
29.081	0.1355	58162	keystroke_y	y	n/a
29.1865	0.12	58373	keystroke_Key.space	Key.space	n/a
29.3815	0.075	58763	keystroke_d	d	n/a
29.4865	0.09	58973	keystroke_o	o	n/a
29.6365	0.09	59273	keystroke_g	g	n/a
29.9665	0.09	59933	keystroke_Key.enter	Key.enter	n/a
30.0635	7.63	60127	prompt	n/a	iraqi unexpected bear dear\n
31.3165	0.0455	62633	keystroke_i	i	n/a
31.527	0.045	63054	keystroke_r	r	n/a
32.2765	0.075	64553	keystroke_a	a	n/a
32.4865	0.045	64973	keystroke_q	q	n/a
32.6515	0.06	65303	keystroke_i	i	n/a
32.877	0.075	65754	keystroke_Key.space	Key.space	n/a
33.402	0.06	66804	keystroke_u	u	n/a
33.5815	0.075	67163	keystroke_n	n	n/a
33.7165	0.06	67433	keystroke_e	e	n/a
34.0015	0.075	68003	keystroke_x	x	n/a
34.1215	0.06	68243	keystroke_p	p	n/a
34.2265	0.06	68453	keystroke_e	e	n/a
34.4515	0.09	68903	keystroke_c	c	n/a
34.722	0.06	69444	keystroke_t	t	n/a
34.8865	0.09	69773	keystroke_e	e	n/a
35.0815	0.09	70163	keystroke_d	d	n/a
35.2015	0.12	70403	keystroke_Key.space	Key.space	n/a
35.5165	0.06	71033	keystroke_b	b	n/a
35.5915	0.075	71183	keystroke_e	e	n/a
35.7865	0.12	71573	keystroke_a	a	n/a
35.8915	0.09	71783	keystroke_r	r	n/a
36.056	0.0755	72112	keystroke_Key.space	Key.space	n/a
36.2215	0.1055	72443	keystroke_d	d	n/a
36.266	0.1205	72532	keystroke_e	e	n/a
36.446	0.1355	72892	keystroke_a	a	n/a
36.5965	0.106	73193	keystroke_r	r	n/a
37.616	0.075	75232	keystroke_Key.enter	Key.enter	n/a
37.697	8.9065	75394	prompt	n/a	warrant avoiding gary thumbnails\n
39.237	0.105	78474	keystroke_w	w	n/a
39.432	0.09	78864	keystroke_a	a	n/a
39.627	0.045	79254	keystroke_r	r	n/a
39.762	0.06	79524	keystroke_r	r	n/a
39.882	0.09	79764	keystroke_a	a	n/a
40.032	0.075	80064	keystroke_n	n	n/a
40.122	0.09	80244	keystroke_t	t	n/a
40.287	0.09	80574	keystroke_Key.space	Key.space	n/a
40.496	0.0905	80992	keystroke_a	a	n/a
40.8565	0.0745	81713	keystroke_v	v	n/a
40.9765	0.12	81953	keystroke_o	o	n/a
41.066	0.105	82132	keystroke_i	i	n/a
41.186	0.1055	82372	keystroke_d	d	n/a
41.3065	0.06	82613	keystroke_i	i	n/a
41.4865	0.045	82973	keystroke_n	n	n/a
41.5465	0.075	83093	keystroke_g	g	n/a
41.6665	0.075	83333	keystroke_Key.space	Key.space	n/a
42.492	0.075	84984	keystroke_g	g	n/a
42.552	0.09	85104	keystroke_a	a	n/a
42.702	0.09	85404	keystroke_r	r	n/a
42.822	0.12	85644	keystroke_y	y	n/a
42.912	0.12	85824	keystroke_Key.space	Key.space	n/a
43.212	0.075	86424	keystroke_t	t	n/a
43.347	0.06	86694	keystroke_h	h	n/a
44.876	0.045	89752	keystroke_u	u	n/a
45.161	0.046	90322	keystroke_m	m	n/a
45.3865	0.0595	90773	keystroke_b	b	n/a
45.5975	0.059	91195	keystroke_n	n	n/a
45.7615	0.09	91523	keystroke_a	a	n/a
45.8815	0.06	91763	keystroke_i	i	n/a
46.062	0.06	92124	keystroke_l	l	n/a
46.152	0.105	92304	keystroke_s	s	n/a
46.4965	0.105	92993	keystroke_Key.enter	Key.enter	n/a
46.6065	7.8865	93213	prompt	n/a	appreciation proceeds pregnant accidents\n
47.367	0.105	94734	keystroke_a	a	n/a
47.637	0.045	95274	keystroke_p	p	n/a
47.772	0.06	95544	keystroke_p	p	n/a
47.922	0.075	95844	keystroke_r	r	n/a
47.967	0.105	95934	keystroke_e	e	n/a
48.222	0.09	96444	keystroke_c	c	n/a
48.342	0.06	96684	keystroke_i	i	n/a
48.447	0.06	96894	keystroke_a	a	n/a
48.642	0.045	97284	keystroke_t	t	n/a
48.717	0.075	97434	keystroke_i	i	n/a
48.882	0.045	97764	keystroke_o	o	n/a
49.032	0.12	98064	keystroke_n	n	n/a
49.137	0.09	98274	keystroke_Key.space	Key.space	n/a
49.362	0.074	98724	keystroke_p	p	n/a
49.4665	0.075	98933	keystroke_r	r	n/a
49.617	0.09	99234	keystroke_o	o	n/a
49.932	0.09	99864	keystroke_c	c	n/a
50.067	0.09	100134	keystroke_e	e	n/a
50.277	0.045	100554	keystroke_e	e	n/a
50.5615	0.135	101123	keystroke_d	d	n/a
50.6515	0.12	101303	keystroke_s	s	n/a
50.8315	0.0905	101663	keystroke_Key.space	Key.space	n/a
51.102	0.06	102204	keystroke_p	p	n/a
51.222	0.12	102444	keystroke_r	r	n/a
51.312	0.09	102624	keystroke_e	e	n/a
51.522	0.09	103044	keystroke_g	g	n/a
51.762	0.075	103524	keystroke_n	n	n/a
51.867	0.075	103734	keystroke_a	a	n/a
51.9715	0.075	103943	keystroke_n	n	n/a
52.1365	0.105	104273	keystroke_t	t	n/a
52.347	0.045	104694	keystroke_Key.space	Key.space	n/a
52.737	0.105	105474	keystroke_a	a	n/a
53.337	0.09	106674	keystroke_c	c	n/a
53.4865	0.105	106973	keystroke_c	c	n/a
53.6215	0.0905	107243	keystroke_i	i	n/a
53.727	0.105	107454	keystroke_d	d	n/a
53.787	0.12	107574	keystroke_e	e	n/a
53.922	0.09	107844	keystroke_n	n	n/a
54.012	0.075	108024	keystroke_t	t	n/a
54.192	0.075	108384	keystroke_s	s	n/a
54.432	0.06	108864	keystroke_Key.enter	Key.enter	n/a
54.4965	7.1675	108993	prompt	n/a	incredible sewing laid humor\n
55.2715	0.045	110543	keystroke_i	i	n/a
55.4365	0.06	110873	keystroke_n	n	n/a
55.4815	0.105	110963	keystroke_c	c	n/a
55.7215	0.075	111443	keystroke_r	r	n/a
55.7815	0.09	111563	keystroke_e	e	n/a
56.1115	0.075	112223	keystroke_d	d	n/a
56.3215	0.06	112643	keystroke_i	i	n/a
56.5165	0.06	113033	keystroke_b	b	n/a
56.7415	0.0605	113483	keystroke_l	l	n/a
56.832	0.09	113664	keystroke_e	e	n/a
56.997	0.075	113994	keystroke_Key.space	Key.space	n/a
57.327	0.045	114654	keystroke_s	s	n/a
57.492	0.075	114984	keystroke_e	e	n/a
58.0915	0.09	116183	keystroke_w	w	n/a
58.2415	0.06	116483	keystroke_i	i	n/a
58.4365	0.06	116873	keystroke_n	n	n/a
58.5415	0.075	117083	keystroke_g	g	n/a
58.6615	0.06	117323	keystroke_Key.space	Key.space	n/a
58.8415	0.06	117683	keystroke_l	l	n/a
58.9165	0.105	117833	keystroke_a	a	n/a
59.5315	0.06	119063	keystroke_i	i	n/a
59.8015	0.075	119603	keystroke_d	d	n/a
59.951	0.0905	119902	keystroke_Key.space	Key.space	n/a
60.657	0.0745	121314	keystroke_h	h	n/a
60.822	0.075	121644	keystroke_u	u	n/a
61.017	0.075	122034	keystroke_m	m	n/a
61.182	0.075	122364	keystroke_o	o	n/a
61.347	0.09	122694	keystroke_r	r	n/a
61.632	0.03	123264	keystroke_Key.enter	Key.enter	n/a
61.667	7.753	123334	prompt	n/a	sewing scoop elsewhere prevention\n
62.682	0.075	125364	keystroke_s	s	n/a
62.8765	0.045	125753	keystroke_e	e	n/a
63.0415	0.075	126083	keystroke_w	w	n/a
63.1915	0.06	126383	keystroke_i	i	n/a
63.3265	0.09	126653	keystroke_n	n	n/a
63.4615	0.09	126923	keystroke_g	g	n/a
63.5815	0.09	127163	keystroke_Key.space	Key.space	n/a
64.302	0.075	128604	keystroke_s	s	n/a
64.646	0.075	129292	keystroke_c	c	n/a
64.871	0.046	129742	keystroke_o	o	n/a
65.006	0.06	130012	keystroke_o	o	n/a
65.186	0.106	130372	keystroke_p	p	n/a
65.306	0.075	130612	keystroke_Key.space	Key.space	n/a
65.517	0.06	131034	keystroke_e	e	n/a
65.622	0.09	131244	keystroke_l	l	n/a
65.816	0.045	131632	keystroke_s	s	n/a
65.967	0.075	131934	keystroke_e	e	n/a
66.252	0.105	132504	keystroke_w	w	n/a
66.807	0.045	133614	keystroke_h	h	n/a
66.8965	0.105	133793	keystroke_e	e	n/a
66.9715	0.18	133943	keystroke_r	r	n/a
67.1065	0.12	134213	keystroke_e	e	n/a
67.317	0.09	134634	keystroke_Key.space	Key.space	n/a
67.737	0.075	135474	keystroke_p	p	n/a
67.857	0.12	135714	keystroke_r	r	n/a
67.932	0.105	135864	keystroke_e	e	n/a
68.277	0.045	136554	keystroke_v	v	n/a
68.427	0.0745	136854	keystroke_e	e	n/a
68.5615	0.075	137123	keystroke_n	n	n/a
68.6215	0.0755	137243	keystroke_t	t	n/a
68.772	0.06	137544	keystroke_i	i	n/a
68.922	0.06	137844	keystroke_o	o	n/a
69.042	0.09	138084	keystroke_n	n	n/a
69.342	0.075	138684	keystroke_Key.enter	Key.enter	n/a
69.428	8.946	138856	prompt	n/a	strength focal approved bacterial\n
70.137	0.06	140274	keystroke_s	s	n/a
70.392	0.045	140784	keystroke_t	t	n/a
70.557	0.09	141114	keystroke_r	r	n/a
70.707	0.09	141414	keystroke_e	e	n/a
70.932	0.06	141864	keystroke_n	n	n/a
71.037	0.09	142074	keystroke_g	g	n/a
71.292	0.06	142584	keystroke_t	t	n/a
71.457	0.15	142914	keystroke_h	h	n/a
71.562	0.105	143124	keystroke_Key.space	Key.space	n/a
72.387	0.045	144774	keystroke_f	f	n/a
72.492	0.075	144984	keystroke_o	o	n/a
72.597	0.075	145194	keystroke_c	c	n/a
72.777	0.09	145554	keystroke_a	a	n/a
72.882	0.165	145764	keystroke_l	l	n/a
73.002	0.105	146004	keystroke_Key.space	Key.space	n/a
73.152	0.09	146304	keystroke_a	a	n/a
73.376	0.06	146752	keystroke_p	p	n/a
73.527	0.074	147054	keystroke_p	p	n/a
73.722	0.0745	147444	keystroke_r	r	n/a
73.946	0.061	147892	keystroke_o	o	n/a
74.1275	0.075	148255	keystroke_v	v	n/a
74.3065	0.06	148613	keystroke_e	e	n/a
74.4865	0.09	148973	keystroke_d	d	n/a
74.6515	0.075	149303	keystroke_Key.space	Key.space	n/a
75.8515	0.121	151703	keystroke_b	b	n/a
75.9865	0.045	151973	keystroke_a	a	n/a
76.1365	0.105	152273	keystroke_c	c	n/a
77.2165	0.09	154433	keystroke_t	t	n/a
77.4265	0.105	154853	keystroke_e	e	n/a
77.4865	0.12	154973	keystroke_r	r	n/a
77.7265	0.09	155453	keystroke_i	i	n/a
77.8315	0.105	155663	keystroke_a	a	n/a
77.9815	0.075	155963	keystroke_l	l	n/a
78.3565	0.015	156713	keystroke_Key.enter	Key.enter	n/a
78.3865	7.6065	156773	prompt	n/a	crazy monaco anybody accidents\n
79.2415	0.075	158483	keystroke_c	c	n/a
79.4365	0.06	158873	keystroke_r	r	n/a
79.542	0.105	159084	keystroke_a	a	n/a
79.782	0.09	159564	keystroke_z	z	n/a
79.947	0.105	159894	keystroke_y	y	n/a
80.022	0.105	160044	keystroke_Key.space	Key.space	n/a
80.262	0.075	160524	keystroke_m	m	n/a
80.427	0.075	160854	keystroke_o	o	n/a
80.637	0.075	161274	keystroke_n	n	n/a
80.7415	0.075	161483	keystroke_a	a	n/a
81.4925	0.059	162985	keystroke_c	c	n/a
81.7325	0.089	163465	keystroke_o	o	n/a
81.927	0.09	163854	keystroke_Key.space	Key.space	n/a
82.992	0.09	165984	keystroke_a	a	n/a
83.157	0.06	166314	keystroke_n	n	n/a
83.382	0.06	166764	keystroke_y	y	n/a
83.562	0.06	167124	keystroke_b	b	n/a
83.727	0.075	167454	keystroke_o	o	n/a
83.817	0.12	167634	keystroke_d	d	n/a
83.952	0.135	167904	keystroke_y	y	n/a
84.042	0.135	168084	keystroke_Key.space	Key.space	n/a
84.536	0.076	169072	keystroke_a	a	n/a
84.837	0.075	169674	keystroke_c	c	n/a
85.002	0.0745	170004	keystroke_c	c	n/a
85.1065	0.0905	170213	keystroke_i	i	n/a
85.227	0.135	170454	keystroke_d	d	n/a
85.302	0.135	170604	keystroke_e	e	n/a
85.482	0.09	170964	keystroke_n	n	n/a
85.587	0.06	171174	keystroke_t	t	n/a
85.752	0.075	171504	keystroke_s	s	n/a
85.947	0.045	171894	keystroke_Key.enter	Key.enter	n/a
85.996	10.618	171992	prompt	n/a	lakes dallas africa therapeutic\n
86.967	0.06	173934	keystroke_l	l	n/a
87.072	0.075	174144	keystroke_a	a	n/a
87.357	0.045	174714	keystroke_k	k	n/a
87.447	0.06	174894	keystroke_e	e	n/a
87.642	0.09	175284	keystroke_s	s	n/a
87.837	0.045	175674	keystroke_Key.space	Key.space	n/a
88.332	0.075	176664	keystroke_d	d	n/a
88.452	0.105	176904	keystroke_a	a	n/a
88.617	0.06	177234	keystroke_l	l	n/a
88.751	0.076	177502	keystroke_l	l	n/a
88.827	0.105	177654	keystroke_a	a	n/a
88.977	0.105	177954	keystroke_s	s	n/a
89.382	0.135	178764	keystroke_Key.space	Key.space	n/a
89.8465	0.061	179693	keystroke_a	a	n/a
90.2215	0.0145	180443	keystroke_r	r	n/a
91.167	0.0595	182334	keystroke_Key.backspace	Key.backspace	n/a
91.4065	0.06	182813	keystroke_f	f	n/a
91.5865	0.075	183173	keystroke_r	r	n/a
91.7365	0.075	183473	keystroke_i	i	n/a
91.992	0.06	183984	keystroke_c	c	n/a
92.262	0.06	184524	keystroke_a	a	n/a
92.382	0.09	184764	keystroke_Key.space	Key.space	n/a
93.1915	0.045	186383	keystroke_t	t	n/a
93.3115	0.06	186623	keystroke_h	h	n/a
93.5515	0.075	187103	keystroke_e	e	n/a
93.7615	0.06	187523	keystroke_r	r	n/a
93.9565	0.09	187913	keystroke_a	a	n/a
94.3315	0.045	188663	keystroke_p	p	n/a
95.367	0.075	190734	keystroke_e	e	n/a
95.562	0.075	191124	keystroke_u	u	n/a
95.832	0.06	191664	keystroke_t	t	n/a
95.921	0.09	191842	keystroke_i	i	n/a
96.116	0.075	192232	keystroke_c	c	n/a
96.5515	0.06	193103	keystroke_Key.enter	Key.enter	n/a
96.6255	7.6685	193251	prompt	n/a	reserves provider debug vacuum\n
97.5865	0.09	195173	keystroke_r	r	n/a
97.6465	0.105	195293	keystroke_e	e	n/a
97.887	0.075	195774	keystroke_s	s	n/a
98.037	0.06	196074	keystroke_e	e	n/a
98.142	0.09	196284	keystroke_r	r	n/a
98.457	0.0445	196914	keystroke_v	v	n/a
98.6065	0.045	197213	keystroke_e	e	n/a
98.8165	0.09	197633	keystroke_s	s	n/a
99.0115	0.06	198023	keystroke_Key.space	Key.space	n/a
99.3565	0.06	198713	keystroke_p	p	n/a
99.4615	0.06	198923	keystroke_r	r	n/a
99.6115	0.06	199223	keystroke_o	o	n/a
99.8965	0.045	199793	keystroke_v	v	n/a
99.9865	0.06	199973	keystroke_i	i	n/a
100.1365	0.09	200273	keystroke_d	d	n/a
100.1815	0.12	200363	keystroke_e	e	n/a
100.722	0.06	201444	keystroke_r	r	n/a
100.872	0.09	201744	keystroke_Key.space	Key.space	n/a
101.067	0.1045	202134	keystroke_d	d	n/a
101.1265	0.12	202253	keystroke_e	e	n/a
101.652	0.06	203304	keystroke_b	b	n/a
101.802	0.075	203604	keystroke_u	u	n/a
101.907	0.09	203814	keystroke_g	g	n/a
102.042	0.075	204084	keystroke_Key.space	Key.space	n/a
102.642	0.075	205284	keystroke_v	v	n/a
102.8365	0.075	205673	keystroke_a	a	n/a
103.0915	0.075	206183	keystroke_c	c	n/a
103.2865	0.045	206573	keystroke_u	u	n/a
103.4065	0.06	206813	keystroke_u	u	n/a
103.6315	0.06	207263	keystroke_m	m	n/a
104.217	0.075	208434	keystroke_Key.enter	Key.enter	n/a
104.305	11.989	208610	prompt	n/a	referrals fujitsu campbell press\n
106.4095	0.027	212819	keystroke_r	r	n/a
106.4215	0.09	212843	keystroke_e	e	n/a
106.6315	0.045	213263	keystroke_f	f	n/a
106.7515	0.075	213503	keystroke_e	e	n/a
106.811	0.1355	213622	keystroke_r	r	n/a
107.082	0.06	214164	keystroke_r	r	n/a
107.247	0.09	214494	keystroke_a	a	n/a
107.367	0.075	214734	keystroke_l	l	n/a
107.502	0.105	215004	keystroke_s	s	n/a
107.667	0.075	215334	keystroke_Key.space	Key.space	n/a
108.927	0.0595	217854	keystroke_f	f	n/a
109.347	0.075	218694	keystroke_u	u	n/a
110.457	0.075	220914	keystroke_j	j	n/a
110.697	0.075	221394	keystroke_i	i	n/a
112.0615	0.09	224123	keystroke_t	t	n/a
112.287	0.09	224574	keystroke_s	s	n/a
112.407	0.09	224814	keystroke_u	u	n/a
112.631	0.0905	225262	keystroke_Key.space	Key.space	n/a
113.1415	0.075	226283	keystroke_c	c	n/a
113.3365	0.075	226673	keystroke_a	a	n/a
113.5615	0.075	227123	keystroke_m	m	n/a
113.7565	0.0455	227513	keystroke_p	p	n/a
114.327	0.06	228654	keystroke_b	b	n/a
114.447	0.06	228894	keystroke_e	e	n/a
114.582	0.06	229164	keystroke_l	l	n/a
114.717	0.0745	229434	keystroke_l	l	n/a
114.9265	0.1055	229853	keystroke_Key.space	Key.space	n/a
115.362	0.075	230724	keystroke_p	p	n/a
115.467	0.15	230934	keystroke_r	r	n/a
115.572	0.09	231144	keystroke_e	e	n/a
115.797	0.06	231594	keystroke_s	s	n/a
115.947	0.075	231894	keystroke_s	s	n/a
116.217	0.075	232434	keystroke_Key.enter	Key.enter	n/a
116.305	4.7135	232610	prompt	n/a	solaris pain miles calm\n
117.0115	0.09	234023	keystroke_s	s	n/a
117.2215	0.06	234443	keystroke_o	o	n/a
117.4315	0.06	234863	keystroke_l	l	n/a
117.5365	0.06	235073	keystroke_a	a	n/a
117.717	0.0745	235434	keystroke_r	r	n/a
117.8515	0.06	235703	keystroke_i	i	n/a
118.0165	0.06	236033	keystroke_s	s	n/a
118.1215	0.06	236243	keystroke_Key.space	Key.space	n/a
118.3915	0.075	236783	keystroke_p	p	n/a
118.4965	0.075	236993	keystroke_a	a	n/a
118.6765	0.06	237353	keystroke_i	i	n/a
118.8865	0.09	237773	keystroke_n	n	n/a
118.9915	0.09	237983	keystroke_Key.space	Key.space	n/a
119.2015	0.075	238403	keystroke_m	m	n/a
119.3665	0.06	238733	keystroke_i	i	n/a
119.5465	0.075	239093	keystroke_l	l	n/a
119.7715	0.075	239543	keystroke_e	e	n/a
119.9215	0.09	239843	keystroke_s	s	n/a
120.0865	0.09	240173	keystroke_Key.space	Key.space	n/a
120.2815	0.06	240563	keystroke_c	c	n/a
120.4465	0.0605	240893	keystroke_a	a	n/a
120.522	0.09	241044	keystroke_l	l	n/a
120.672	0.09	241344	keystroke_m	m	n/a
120.9715	0.045	241943	keystroke_Key.enter	Key.enter	n/a
121.021	12.988	242042	prompt	n/a	there valued counts paxil\n
121.8415	0.075	243683	keystroke_t	t	n/a
121.9465	0.075	243893	keystroke_h	h	n/a
122.007	0.0745	244014	keystroke_e	e	n/a
122.0665	0.135	244133	keystroke_r	r	n/a
122.1865	0.09	244373	keystroke_e	e	n/a
122.352	0.075	244704	keystroke_Key.space	Key.space	n/a
122.5315	0.06	245063	keystroke_v	v	n/a
122.7715	0.075	245543	keystroke_l	l	n/a
123.237	0.045	246474	keystroke_Key.backspace	Key.backspace	n/a
123.402	0.075	246804	keystroke_a	a	n/a
124.017	0.075	248034	keystroke_l	l	n/a
124.317	0.075	248634	keystroke_u	u	n/a
124.437	0.06	248874	keystroke_e	e	n/a
124.692	0.075	249384	keystroke_d	d	n/a
124.812	0.075	249624	keystroke_Key.space	Key.space	n/a
128.174	0.058	256348	keystroke_c	c	n/a
128.292	0.09	256584	keystroke_o	o	n/a
128.397	0.075	256794	keystroke_u	u	n/a
128.592	0.075	257184	keystroke_n	n	n/a
128.637	0.09	257274	keystroke_t	t	n/a
128.772	0.09	257544	keystroke_s	s	n/a
128.922	0.045	257844	keystroke_Key.space	Key.space	n/a
129.057	0.075	258114	keystroke_p	p	n/a
129.237	0.06	258474	keystroke_i	i	n/a
129.642	0.015	259284	keystroke_x	x	n/a
129.927	0.09	259854	keystroke_e	e	n/a
130.137	0.045	260274	keystroke_l	l	n/a
131.5015	0.06	263003	keystroke_Key.backspace	Key.backspace	n/a
131.7865	0.06	263573	keystroke_Key.backspace	Key.backspace	n/a
132.0415	0.0605	264083	keystroke_Key.backspace	Key.backspace	n/a
132.282	0.075	264564	keystroke_Key.backspace	Key.backspace	n/a
132.8965	0.09	265793	keystroke_a	a	n/a
133.3615	0.075	266723	keystroke_x	x	n/a
133.4665	0.06	266933	keystroke_i	i	n/a
133.6465	0.06	267293	keystroke_l	l	n/a
133.9315	0.075	267863	keystroke_Key.enter	Key.enter	n/a
134.0195	8.5845	268039	prompt	n/a	scholarships galaxy belt gently\n
134.877	0.075	269754	keystroke_s	s	n/a
135.057	0.105	270114	keystroke_c	c	n/a
135.192	0.045	270384	keystroke_h	h	n/a
135.327	0.075	270654	keystroke_o	o	n/a
135.4765	0.09	270953	keystroke_l	l	n/a
135.5515	0.075	271103	keystroke_a	a	n/a
135.7015	0.075	271403	keystroke_r	r	n/a
135.9115	0.06	271823	keystroke_s	s	n/a
135.9865	0.075	271973	keystroke_h	h	n/a
136.1215	0.075	272243	keystroke_i	i	n/a
136.3015	0.06	272603	keystroke_p	p	n/a
136.4215	0.0455	272843	keystroke_s	s	n/a
136.587	0.075	273174	keystroke_Key.space	Key.space	n/a
136.9465	0.06	273893	keystroke_g	g	n/a
137.1115	0.091	274223	keystroke_a	a	n/a
137.2465	0.075	274493	keystroke_l	l	n/a
137.3375	0.074	274675	keystroke_a	a	n/a
137.8165	0.0895	275633	keystroke_z	z	n/a
138.882	0.06	277764	keystroke_Key.backspace	Key.backspace	n/a
139.137	0.075	278274	keystroke_x	x	n/a
139.437	0.09	278874	keystroke_y	y	n/a
139.557	0.12	279114	keystroke_Key.space	Key.space	n/a
140.457	0.06	280914	keystroke_b	b	n/a
140.562	0.075	281124	keystroke_e	e	n/a
140.667	0.075	281334	keystroke_l	l	n/a
140.832	0.0745	281664	keystroke_t	t	n/a
140.9515	0.06	281903	keystroke_Key.space	Key.space	n/a
141.0865	0.06	282173	keystroke_g	g	n/a
141.2515	0.075	282503	keystroke_e	e	n/a
141.3415	0.09	282683	keystroke_n	n	n/a
141.462	0.09	282924	keystroke_t	t	n/a
141.717	0.06	283434	keystroke_l	l	n/a
141.9715	0.06	283943	keystroke_y	y	n/a
142.527	0.075	285054	keystroke_Key.enter	Key.enter	n/a
142.6155	6.738	285231	prompt	n/a	milton celtic research donate\n
143.547	0.0745	287094	keystroke_m	m	n/a
143.7415	0.06	287483	keystroke_i	i	n/a
143.9525	0.06	287905	keystroke_l	l	n/a
144.1175	0.075	288235	keystroke_t	t	n/a
144.2665	0.06	288533	keystroke_o	o	n/a
144.4465	0.1205	288893	keystroke_n	n	n/a
144.552	0.09	289104	keystroke_Key.space	Key.space	n/a
144.897	0.075	289794	keystroke_c	c	n/a
145.032	0.075	290064	keystroke_e	e	n/a
145.182	0.06	290364	keystroke_l	l	n/a
145.392	0.075	290784	keystroke_t	t	n/a
145.587	0.075	291174	keystroke_i	i	n/a
145.707	0.09	291414	keystroke_c	c	n/a
145.887	0.06	291774	keystroke_Key.space	Key.space	n/a
146.217	0.135	292434	keystroke_r	r	n/a
146.337	0.09	292674	keystroke_e	e	n/a
146.5765	0.075	293153	keystroke_s	s	n/a
146.742	0.075	293484	keystroke_e	e	n/a
146.892	0.105	293784	keystroke_a	a	n/a
146.982	0.12	293964	keystroke_r	r	n/a
147.3115	0.045	294623	keystroke_c	c	n/a
147.3715	0.06	294743	keystroke_h	h	n/a
147.6115	0.075	295223	keystroke_Key.space	Key.space	n/a
148.272	0.06	296544	keystroke_d	d	n/a
148.347	0.075	296694	keystroke_o	o	n/a
148.527	0.075	297054	keystroke_n	n	n/a
148.722	0.089	297444	keystroke_a	a	n/a
148.887	0.105	297774	keystroke_t	t	n/a
148.976	0.09	297952	keystroke_e	e	n/a
149.2615	0.09	298523	keystroke_Key.enter	Key.enter	n/a
149.3565	8.3065	298713	prompt	n/a	extra photo physically deaths\n
150.537	0.075	301074	keystroke_e	e	n/a
150.7915	0.075	301583	keystroke_x	x	n/a
151.0315	0.06	302063	keystroke_t	t	n/a
151.1815	0.075	302363	keystroke_r	r	n/a
151.3465	0.06	302693	keystroke_a	a	n/a
151.6765	0.06	303353	keystroke_Key.space	Key.space	n/a
152.067	0.0895	304134	keystroke_p	p	n/a
152.292	0.0595	304584	keystroke_h	h	n/a
152.442	0.06	304884	keystroke_o	o	n/a
152.517	0.06	305034	keystroke_t	t	n/a
152.6065	0.0905	305213	keystroke_o	o	n/a
152.9515	0.09	305903	keystroke_Key.space	Key.space	n/a
153.477	0.075	306954	keystroke_p	p	n/a
153.687	0.0595	307374	keystroke_h	h	n/a
153.8215	0.075	307643	keystroke_y	y	n/a
153.9265	0.06	307853	keystroke_s	s	n/a
154.0465	0.075	308093	keystroke_i	i	n/a
154.1365	0.105	308273	keystroke_c	c	n/a
154.3315	0.075	308663	keystroke_a	a	n/a
154.4215	0.0455	308843	keystroke_l	l	n/a
154.527	0.075	309054	keystroke_l	l	n/a
154.767	0.165	309534	keystroke_y	y	n/a
154.887	0.105	309774	keystroke_Key.space	Key.space	n/a
155.2465	0.1355	310493	keystroke_d	d	n/a
155.652	0.075	311304	keystroke_a	a	n/a
156.4915	0.06	312983	keystroke_Key.backspace	Key.backspace	n/a
156.6275	0.059	313255	keystroke_e	e	n/a
156.7765	0.075	313553	keystroke_a	a	n/a
157.0165	0.045	314033	keystroke_t	t	n/a
157.0915	0.06	314183	keystroke_h	h	n/a
157.2565	0.1045	314513	keystroke_s	s	n/a
157.601	0.06	315202	keystroke_Key.enter	Key.enter	n/a
157.666	9.163	315332	prompt	n/a	heavy reductions internship robertson\n
158.562	0.0745	317124	keystroke_h	h	n/a
158.667	0.0895	317334	keystroke_e	e	n/a
158.877	0.0745	317754	keystroke_v	v	n/a
159.3565	0.0755	318713	keystroke_Key.backspace	Key.backspace	n/a
159.4765	0.075	318953	keystroke_a	a	n/a
159.7165	0.0605	319433	keystroke_v	v	n/a
160.751	0.15	321502	keystroke_y	y	n/a
160.871	0.12	321742	keystroke_Key.space	Key.space	n/a
161.052	0.089	322104	keystroke_r	r	n/a
161.126	0.09	322252	keystroke_e	e	n/a
161.322	0.0895	322644	keystroke_d	d	n/a
161.5165	0.0605	323033	keystroke_u	u	n/a
161.6815	0.105	323363	keystroke_c	c	n/a
161.937	0.0745	323874	keystroke_t	t	n/a
162.0115	0.06	324023	keystroke_i	i	n/a
162.1615	0.045	324323	keystroke_o	o	n/a
162.3115	0.075	324623	keystroke_n	n	n/a
162.4315	0.0605	324863	keystroke_s	s	n/a
162.552	0.06	325104	keystroke_Key.space	Key.space	n/a
162.657	0.0745	325314	keystroke_i	i	n/a
162.8515	0.06	325703	keystroke_n	n	n/a
163.0165	0.045	326033	keystroke_t	t	n/a
163.2115	0.03	326423	keystroke_e	e	n/a
163.2265	0.105	326453	keystroke_r	r	n/a
163.3765	0.075	326753	keystroke_n	n	n/a
163.7665	0.075	327533	keystroke_s	s	n/a
163.8565	0.06	327713	keystroke_h	h	n/a
164.0215	0.06	328043	keystroke_i	i	n/a
164.2315	0.09	328463	keystroke_p	p	n/a
164.3515	0.105	328703	keystroke_Key.space	Key.space	n/a
164.8765	0.075	329753	keystroke_r	r	n/a
164.9815	0.09	329963	keystroke_o	o	n/a
165.2365	0.075	330473	keystroke_b	b	n/a
165.3265	0.12	330653	keystroke_e	e	n/a
165.4015	0.105	330803	keystroke_r	r	n/a
165.6415	0.09	331283	keystroke_t	t	n/a
165.9565	0.06	331913	keystroke_s	s	n/a
166.0765	0.06	332153	keystroke_o	o	n/a
166.3015	0.06	332603	keystroke_n	n	n/a
166.7515	0.075	333503	keystroke_Key.enter	Key.enter	n/a
166.839	13.22	333678	prompt	n/a	lower lives columns ipaq\n
167.7415	0.06	335483	keystroke_l	l	n/a
167.9065	0.075	335813	keystroke_o	o	n/a
168.0265	0.075	336053	keystroke_w	w	n/a
168.1765	0.09	336353	keystroke_e	e	n/a
168.3715	0.015	336743	keystroke_r	r	n/a
168.7165	0.06	337433	keystroke_Key.space	Key.space	n/a
168.9115	0.075	337823	keystroke_l	l	n/a
169.0915	0.06	338183	keystroke_o	o	n/a
169.916	0.06	339832	keystroke_Key.backspace	Key.backspace	n/a
170.442	0.0595	340884	keystroke_i	i	n/a
170.7265	0.075	341453	keystroke_v	v	n/a
170.907	0.06	341814	keystroke_e	e	n/a
171.117	0.075	342234	keystroke_s	s	n/a
171.282	0.075	342564	keystroke_Key.space	Key.space	n/a
173.7435	0.0125	347487	keystroke_c	c	n/a
173.921	0.06	347842	keystroke_o	o	n/a
174.101	0.06	348202	keystroke_l	l	n/a
174.296	0.045	348592	keystroke_u	u	n/a
174.461	0.075	348922	keystroke_m	m	n/a
174.641	0.06	349282	keystroke_n	n	n/a
174.716	0.1205	349432	keystroke_s	s	n/a
174.9115	0.045	349823	keystroke_Key.space	Key.space	n/a
175.932	0.03	351864	keystroke_u	u	n/a
177.0565	0.06	354113	keystroke_Key.backspace	Key.backspace	n/a
177.417	0.06	354834	keystroke_i	i	n/a
177.612	0.089	355224	keystroke_p	p	n/a
177.762	0.06	355524	keystroke_a	a	n/a
178.3465	0.075	356693	keystroke_q	q	n/a
179.9815	0.075	359963	keystroke_Key.enter	Key.enter	n/a
180.076	6.2075	360152	prompt	n/a	sale speeds steven sending\n
180.972	0.12	361944	keystroke_s	s	n/a
181.032	0.105	362064	keystroke_a	a	n/a
181.197	0.045	362394	keystroke_l	l	n/a
181.287	0.06	362574	keystroke_e	e	n/a
181.452	0.06	362904	keystroke_Key.space	Key.space	n/a
181.632	0.09	363264	keystroke_s	s	n/a
181.782	0.06	363564	keystroke_p	p	n/a
181.962	0.075	363924	keystroke_e	e	n/a
182.127	0.075	364254	keystroke_e	e	n/a
182.637	0.09	365274	keystroke_d	d	n/a
182.757	0.135	365514	keystroke_s	s	n/a
182.997	0.06	365994	keystroke_Key.space	Key.space	n/a
183.401	0.076	366802	keystroke_s	s	n/a
183.762	0.074	367524	keystroke_t	t	n/a
183.897	0.074	367794	keystroke_e	e	n/a
184.122	0.059	368244	keystroke_v	v	n/a
184.286	0.06	368572	keystroke_e	e	n/a
184.436	0.136	368872	keystroke_n	n	n/a
184.586	0.075	369172	keystroke_Key.space	Key.space	n/a
184.977	0.059	369954	keystroke_s	s	n/a
185.171	0.045	370342	keystroke_e	e	n/a
185.396	0.076	370792	keystroke_n	n	n/a
185.487	0.105	370974	keystroke_d	d	n/a
185.622	0.06	371244	keystroke_i	i	n/a
185.772	0.075	371544	keystroke_n	n	n/a
185.817	0.09	371634	keystroke_g	g	n/a
186.192	0.09	372384	keystroke_Key.enter	Key.enter	n/a
186.286	7.932	372572	prompt	n/a	lived purchase java architecture\n
187.1065	0.06	374213	keystroke_l	l	n/a
187.3015	0.075	374603	keystroke_i	i	n/a
187.4815	0.075	374963	keystroke_v	v	n/a
187.6915	0.06	375383	keystroke_e	e	n/a
187.8265	0.135	375653	keystroke_d	d	n/a
188.0065	0.075	376013	keystroke_Key.space	Key.space	n/a
188.2015	0.045	376403	keystroke_p	p	n/a
188.3965	0.03	376793	keystroke_u	u	n/a
188.5765	0.0755	377153	keystroke_r	r	n/a
188.787	0.105	377574	keystroke_c	c	n/a
188.907	0.075	377814	keystroke_h	h	n/a
189.012	0.09	378024	keystroke_a	a	n/a
189.162	0.09	378324	keystroke_s	s	n/a
189.387	0.045	378774	keystroke_e	e	n/a
189.536	0.076	379072	keystroke_Key.space	Key.space	n/a
190.0015	0.06	380003	keystroke_j	j	n/a
190.0915	0.06	380183	keystroke_a	a	n/a
190.556	0.0605	381112	keystroke_v	v	n/a
190.7515	0.09	381503	keystroke_a	a	n/a
190.9165	0.075	381833	keystroke_Key.space	Key.space	n/a
191.1265	0.075	382253	keystroke_a	a	n/a
191.2915	0.075	382583	keystroke_r	r	n/a
191.5015	0.12	383003	keystroke_c	c	n/a
191.6515	0.06	383303	keystroke_h	h	n/a
191.7865	0.09	383573	keystroke_i	i	n/a
191.9665	0.06	383933	keystroke_t	t	n/a
192.1015	0.075	384203	keystroke_e	e	n/a
192.4915	0.075	384983	keystroke_c	c	n/a
192.7315	0.06	385463	keystroke_t	t	n/a
192.8665	0.045	385733	keystroke_i	i	n/a
193.2565	0.09	386513	keystroke_Key.backspace	Key.backspace	n/a
193.5265	0.075	387053	keystroke_u	u	n/a
193.6315	0.135	387263	keystroke_r	r	n/a
193.7365	0.09	387473	keystroke_e	e	n/a
194.1415	0.075	388283	keystroke_Key.enter	Key.enter	n/a
194.221	17.4125	388442	prompt	n/a	supplied weapon rely geography\n
194.9365	0.075	389873	keystroke_s	s	n/a
195.1015	0.06	390203	keystroke_u	u	n/a
195.2665	0.045	390533	keystroke_p	p	n/a
195.3865	0.0755	390773	keystroke_p	p	n/a
195.687	0.075	391374	keystroke_i	i	n/a
195.867	0.06	391734	keystroke_e	e	n/a
196.002	0.12	392004	keystroke_d	d	n/a
196.257	0.075	392514	keystroke_Key.space	Key.space	n/a
196.662	0.075	393324	keystroke_w	w	n/a
196.722	0.104	393444	keystroke_e	e	n/a
196.871	0.09	393742	keystroke_a	a	n/a
197.081	0.045	394162	keystroke_p	p	n/a
197.3365	0.09	394673	keystroke_i	i	n/a
197.5615	0.135	395123	keystroke_n	n	n/a
197.7265	0.09	395453	keystroke_Key.space	Key.space	n/a
198.5965	0.045	397193	keystroke_Key.backspace	Key.backspace	n/a
199.0165	0.0755	398033	keystroke_Key.backspace	Key.backspace	n/a
199.362	0.075	398724	keystroke_Key.backspace	Key.backspace	n/a
199.707	0.045	399414	keystroke_Key.backspace	Key.backspace	n/a
199.977	0.075	399954	keystroke_Key.backspace	Key.backspace	n/a
200.247	0.075	400494	keystroke_Key.backspace	Key.backspace	n/a
200.487	0.074	400974	keystroke_Key.backspace	Key.backspace	n/a
200.7415	0.075	401483	keystroke_Key.backspace	Key.backspace	n/a
200.9965	0.09	401993	keystroke_Key.backspace	Key.backspace	n/a
201.2515	0.075	402503	keystroke_Key.backspace	Key.backspace	n/a
201.5815	0.06	403163	keystroke_Key.backspace	Key.backspace	n/a
203.9535	0.001	407907	keystroke_l	l	n/a
204.0715	0.06	408143	keystroke_i	i	n/a
204.1765	0.09	408353	keystroke_e	e	n/a
204.2965	0.12	408593	keystroke_d	d	n/a
204.477	0.075	408954	keystroke_Key.space	Key.space	n/a
205.452	0.15	410904	keystroke_w	w	n/a
205.557	0.134	411114	keystroke_e	e	n/a
205.677	0.089	411354	keystroke_a	a	n/a
205.857	0.059	411714	keystroke_p	p	n/a
206.067	0.015	412134	keystroke_o	o	n/a
206.202	0.1495	412404	keystroke_n	n	n/a
206.3365	0.075	412673	keystroke_Key.space	Key.space	n/a
206.9215	0.105	413843	keystroke_r	r	n/a
207.0275	0.074	414055	keystroke_e	e	n/a
207.1315	0.06	414263	keystroke_l	l	n/a
207.3565	0.15	414713	keystroke_y	y	n/a
207.4615	0.135	414923	keystroke_Key.space	Key.space	n/a
208.3165	0.075	416633	keystroke_g	g	n/a
208.3615	0.075	416723	keystroke_r	r	n/a
209.4115	0.06	418823	keystroke_Key.backspace	Key.backspace	n/a
209.5615	0.0745	419123	keystroke_e	e	n/a
209.8315	0.06	419663	keystroke_o	o	n/a
210.2965	0.045	420593	keystroke_g	g	n/a
210.3865	0.09	420773	keystroke_r	r	n/a
210.5365	0.09	421073	keystroke_a	a	n/a
210.6715	0.105	421343	keystroke_p	p	n/a
210.867	0.06	421734	keystroke_h	h	n/a
211.047	0.075	422094	keystroke_y	y	n/a
211.527	0.105	423054	keystroke_Key.enter	Key.enter	n/a
211.6465	6.5565	423293	prompt	n/a	cancer monte bush individuals\n
212.517	0.06	425034	keystroke_c	c	n/a
212.682	0.06	425364	keystroke_a	a	n/a
212.787	0.0595	425574	keystroke_n	n	n/a
212.8915	0.135	425783	keystroke_c	c	n/a
212.9665	0.105	425933	keystroke_e	e	n/a
213.2215	0.09	426443	keystroke_r	r	n/a
213.4315	0.075	426863	keystroke_Key.space	Key.space	n/a
213.7015	0.06	427403	keystroke_m	m	n/a
213.8365	0.045	427673	keystroke_o	o	n/a
213.9565	0.12	427913	keystroke_n	n	n/a
214.2565	0.045	428513	keystroke_t	t	n/a
214.3915	0.09	428783	keystroke_e	e	n/a
214.6465	0.06	429293	keystroke_Key.space	Key.space	n/a
215.2615	0.045	430523	keystroke_b	b	n/a
215.3815	0.075	430763	keystroke_u	u	n/a
215.4715	0.09	430943	keystroke_s	s	n/a
215.5765	0.15	431153	keystroke_h	h	n/a
215.6815	0.09	431363	keystroke_Key.space	Key.space	n/a
215.8465	0.06	431693	keystroke_i	i	n/a
216.0265	0.06	432053	keystroke_n	n	n/a
216.0865	0.09	432173	keystroke_d	d	n/a
216.2365	0.075	432473	keystroke_i	i	n/a
216.3865	0.09	432773	keystroke_v	v	n/a
216.5665	0.075	433133	keystroke_i	i	n/a
216.8815	0.075	433763	keystroke_d	d	n/a
217.2265	0.075	434453	keystroke_u	u	n/a
217.3915	0.045	434783	keystroke_a	a	n/a
217.5115	0.075	435023	keystroke_l	l	n/a
217.6165	0.105	435233	keystroke_s	s	n/a
218.1415	0.06	436283	keystroke_Key.enter	Key.enter	n/a
218.2075	6.9105	436415	prompt	n/a	compensation solving scripts civil\n
218.9515	0.075	437903	keystroke_c	c	n/a
219.0565	0.06	438113	keystroke_o	o	n/a
219.1915	0.075	438383	keystroke_m	m	n/a
219.3565	0.06	438713	keystroke_p	p	n/a
219.4615	0.075	438923	keystroke_e	e	n/a
219.5815	0.075	439163	keystroke_n	n	n/a
219.8815	0.09	439763	keystroke_s	s	n/a
220.1065	0.075	440213	keystroke_a	a	n/a
220.3165	0.075	440633	keystroke_t	t	n/a
220.4515	0.06	440903	keystroke_i	i	n/a
220.5865	0.06	441173	keystroke_o	o	n/a
220.7665	0.135	441533	keystroke_n	n	n/a
220.8865	0.09	441773	keystroke_Key.space	Key.space	n/a
221.1715	0.075	442343	keystroke_s	s	n/a
221.2915	0.075	442583	keystroke_o	o	n/a
221.4715	0.075	442943	keystroke_l	l	n/a
221.5615	0.075	443123	keystroke_v	v	n/a
221.8315	0.06	443663	keystroke_i	i	n/a
221.9965	0.045	443993	keystroke_n	n	n/a
222.0565	0.075	444113	keystroke_g	g	n/a
222.1765	0.06	444353	keystroke_Key.space	Key.space	n/a
222.2965	0.09	444593	keystroke_s	s	n/a
222.491	0.06	444982	keystroke_c	c	n/a
222.687	0.0745	445374	keystroke_r	r	n/a
222.837	0.0595	445674	keystroke_i	i	n/a
223.002	0.06	446004	keystroke_p	p	n/a
223.107	0.06	446214	keystroke_t	t	n/a
223.3165	0.06	446633	keystroke_s	s	n/a
223.4665	0.09	446933	keystroke_Key.space	Key.space	n/a
224.0965	0.075	448193	keystroke_c	c	n/a
224.2165	0.075	448433	keystroke_i	i	n/a
224.3815	0.06	448763	keystroke_v	v	n/a
224.4865	0.045	448973	keystroke_i	i	n/a
224.6965	0.06	449393	keystroke_l	l	n/a
225.0415	0.075	450083	keystroke_Key.enter	Key.enter	n/a
225.121	10.917	450242	prompt	n/a	aqua warming reload realized\n
225.8665	0.06	451733	keystroke_a	a	n/a
226.287	0.03	452574	keystroke_w	w	n/a
227.4265	0.075	454853	keystroke_Key.backspace	Key.backspace	n/a
227.7565	0.06	455513	keystroke_q	q	n/a
228.1165	0.06	456233	keystroke_u	u	n/a
228.2365	0.075	456473	keystroke_a	a	n/a
228.4015	0.1045	456803	keystroke_Key.space	Key.space	n/a
228.956	0.12	457912	keystroke_w	w	n/a
229.046	0.1055	458092	keystroke_a	a	n/a
229.3315	0.03	458663	keystroke_r	r	n/a
230.801	0.09	461602	keystroke_m	m	n/a
230.981	0.075	461962	keystroke_i	i	n/a
231.146	0.09	462292	keystroke_n	n	n/a
231.656	0.135	463312	keystroke_g	g	n/a
231.746	0.12	463492	keystroke_Key.space	Key.space	n/a
231.971	0.105	463942	keystroke_r	r	n/a
232.046	0.09	464092	keystroke_e	e	n/a
232.196	0.06	464392	keystroke_l	l	n/a
232.361	0.075	464722	keystroke_o	o	n/a
232.481	0.09	464962	keystroke_a	a	n/a
232.677	0.1195	465354	keystroke_d	d	n/a
232.9915	0.075	465983	keystroke_Key.space	Key.space	n/a
233.1265	0.09	466253	keystroke_c	c	n/a
233.2765	0.075	466553	keystroke_i	i	n/a
234.0115	0.06	468023	keystroke_Key.backspace	Key.backspace	n/a
234.2365	0.06	468473	keystroke_Key.backspace	Key.backspace	n/a
234.732	0.059	469464	keystroke_r	r	n/a
234.746	0.076	469492	keystroke_e	e	n/a
234.926	0.09	469852	keystroke_a	a	n/a
235.061	0.061	470122	keystroke_l	l	n/a
235.226	0.061	470452	keystroke_i	i	n/a
235.361	0.06	470722	keystroke_z	z	n/a
235.5715	0.105	471143	keystroke_e	e	n/a
235.6615	0.1505	471323	keystroke_d	d	n/a
235.961	0.075	471922	keystroke_Key.enter	Key.enter	n/a
236.049	7.864	472098	prompt	n/a	probe yarn ciao concerts\n
236.8615	0.06	473723	keystroke_p	p	n/a
237.0265	0.075	474053	keystroke_r	r	n/a
237.1315	0.075	474263	keystroke_o	o	n/a
237.4915	0.075	474983	keystroke_b	b	n/a
237.5665	0.075	475133	keystroke_e	e	n/a
237.7165	0.0755	475433	keystroke_Key.space	Key.space	n/a
238.661	0.06	477322	keystroke_y	y	n/a
238.8265	0.105	477653	keystroke_a	a	n/a
239.801	0.075	479602	keystroke_r	r	n/a
239.936	0.165	479872	keystroke_n	n	n/a
240.086	0.09	480172	keystroke_Key.space	Key.space	n/a
240.7765	0.09	481553	keystroke_c	c	n/a
240.9415	0.075	481883	keystroke_i	i	n/a
241.136	0.075	482272	keystroke_a	a	n/a
241.271	0.105	482542	keystroke_o	o	n/a
241.4815	0.09	482963	keystroke_Key.space	Key.space	n/a
241.7965	0.075	483593	keystroke_c	c	n/a
241.9165	0.03	483833	keystroke_o	o	n/a
242.0365	0.09	484073	keystroke_n	n	n/a
242.1565	0.0755	484313	keystroke_c	c	n/a
242.3365	0.1195	484673	keystroke_e	e	n/a
242.4415	0.1045	484883	keystroke_r	r	n/a
243.312	0.059	486624	keystroke_t	t	n/a
243.402	0.105	486804	keystroke_s	s	n/a
243.836	0.0755	487672	keystroke_Key.enter	Key.enter	n/a
243.9165	5.8615	487833	prompt	n/a	nerve placement cruise dream\n
244.9765	0.12	489953	keystroke_n	n	n/a
245.1115	0.12	490223	keystroke_e	e	n/a
245.1565	0.105	490313	keystroke_r	r	n/a
245.4265	0.075	490853	keystroke_v	v	n/a
245.5765	0.075	491153	keystroke_e	e	n/a
245.711	0.06	491422	keystroke_Key.space	Key.space	n/a
245.831	0.075	491662	keystroke_p	p	n/a
245.996	0.0755	491992	keystroke_l	l	n/a
246.0865	0.075	492173	keystroke_a	a	n/a
246.3265	0.09	492653	keystroke_c	c	n/a
246.4015	0.09	492803	keystroke_e	e	n/a
246.537	0.074	493074	keystroke_m	m	n/a
246.641	0.06	493282	keystroke_e	e	n/a
246.731	0.061	493462	keystroke_n	n	n/a
246.836	0.076	493672	keystroke_t	t	n/a
247.016	0.075	494032	keystroke_Key.space	Key.space	n/a
247.5565	0.075	495113	keystroke_c	c	n/a
247.7515	0.06	495503	keystroke_r	r	n/a
247.8415	0.045	495683	keystroke_u	u	n/a
247.9915	0.0445	495983	keystroke_i	i	n/a
248.051	0.09	496102	keystroke_s	s	n/a
248.201	0.105	496402	keystroke_e	e	n/a
248.366	0.09	496732	keystroke_Key.space	Key.space	n/a
248.816	0.09	497632	keystroke_d	d	n/a
249.026	0.09	498052	keystroke_r	r	n/a
249.101	0.09	498202	keystroke_e	e	n/a
249.296	0.06	498592	keystroke_a	a	n/a
249.387	0.074	498774	keystroke_m	m	n/a
249.701	0.075	499402	keystroke_Key.enter	Key.enter	n/a
249.781	8.457	499562	prompt	n/a	free pledge partial remedies\n
250.856	0.06	501712	keystroke_f	f	n/a
251.021	0.06	502042	keystroke_r	r	n/a
251.141	0.075	502282	keystroke_e	e	n/a
251.3215	0.06	502643	keystroke_e	e	n/a
251.4865	0.045	502973	keystroke_Key.space	Key.space	n/a
251.6665	0.06	503333	keystroke_p	p	n/a
252.0265	0.075	504053	keystroke_l	l	n/a
252.1465	0.075	504293	keystroke_e	e	n/a
252.3715	0.09	504743	keystroke_d	d	n/a
252.5815	0.06	505163	keystroke_g	g	n/a
252.6565	0.06	505313	keystroke_e	e	n/a
252.7615	0.075	505523	keystroke_Key.space	Key.space	n/a
253.5415	0.06	507083	keystroke_a	a	n/a
253.6615	0.06	507323	keystroke_p	p	n/a
254.4255	0.06	508851	keystroke_Key.backspace	Key.backspace	n/a
254.6655	0.045	509331	keystroke_Key.backspace	Key.backspace	n/a
255.3715	0.0595	510743	keystroke_p	p	n/a
255.477	0.059	510954	keystroke_a	a	n/a
255.642	0.06	511284	keystroke_r	r	n/a
255.807	0.045	511614	keystroke_t	t	n/a
255.882	0.06	511764	keystroke_i	i	n/a
256.017	0.075	512034	keystroke_a	a	n/a
256.106	0.106	512212	keystroke_l	l	n/a
256.241	0.091	512482	keystroke_Key.space	Key.space	n/a
256.886	0.091	513772	keystroke_r	r	n/a
256.946	0.09	513892	keystroke_e	e	n/a
257.126	0.06	514252	keystroke_m	m	n/a
257.187	0.089	514374	keystroke_e	e	n/a
257.426	0.075	514852	keystroke_d	d	n/a
257.516	0.075	515032	keystroke_i	i	n/a
257.621	0.09	515242	keystroke_e	e	n/a
257.846	0.075	515692	keystroke_s	s	n/a
258.1765	0.06	516353	keystroke_Key.enter	Key.enter	n/a
258.2415	7.663	516483	prompt	n/a	determines notre bradford australia\n
259.137	0.075	518274	keystroke_d	d	n/a
259.196	0.09	518392	keystroke_e	e	n/a
259.436	0.045	518872	keystroke_t	t	n/a
259.556	0.09	519112	keystroke_e	e	n/a
259.631	0.12	519262	keystroke_r	r	n/a
259.811	0.075	519622	keystroke_m	m	n/a
259.961	0.06	519922	keystroke_i	i	n/a
260.081	0.09	520162	keystroke_n	n	n/a
260.156	0.075	520312	keystroke_e	e	n/a
260.351	0.075	520702	keystroke_s	s	n/a
260.486	0.075	520972	keystroke_Key.space	Key.space	n/a
260.921	0.0745	521842	keystroke_n	n	n/a
261.072	0.0595	522144	keystroke_o	o	n/a
261.177	0.075	522354	keystroke_t	t	n/a
261.386	0.076	522772	keystroke_r	r	n/a
261.447	0.105	522894	keystroke_e	e	n/a
261.686	0.06	523372	keystroke_Key.space	Key.space	n/a
262.3615	0.045	524723	keystroke_b	b	n/a
262.4665	0.075	524933	keystroke_r	r	n/a
262.6465	0.0745	525293	keystroke_a	a	n/a
262.811	0.09	525622	keystroke_d	d	n/a
263.021	0.045	526042	keystroke_f	f	n/a
263.081	0.06	526162	keystroke_o	o	n/a
263.186	0.09	526372	keystroke_r	r	n/a
263.411	0.105	526822	keystroke_d	d	n/a
263.621	0.06	527242	keystroke_Key.space	Key.space	n/a
263.876	0.06	527752	keystroke_a	a	n/a
264.101	0.06	528202	keystroke_u	u	n/a
264.221	0.105	528442	keystroke_s	s	n/a
264.476	0.045	528952	keystroke_t	t	n/a
264.656	0.06	529312	keystroke_r	r	n/a
264.8215	0.09	529643	keystroke_a	a	n/a
265.227	0.0595	530454	keystroke_l	l	n/a
265.3915	0.0605	530783	keystroke_i	i	n/a
265.497	0.1045	530994	keystroke_a	a	n/a
265.8265	0.075	531653	keystroke_Key.enter	Key.enter	n/a
265.922	6.746	531844	prompt	n/a	baker ruby compression cardiac\n
266.9665	0.075	533933	keystroke_b	b	n/a
267.0565	0.06	534113	keystroke_a	a	n/a
267.1765	0.075	534353	keystroke_k	k	n/a
267.2665	0.06	534533	keystroke_e	e	n/a
267.4765	0.075	534953	keystroke_r	r	n/a
267.6565	0.06	535313	keystroke_Key.space	Key.space	n/a
267.7915	0.075	535583	keystroke_r	r	n/a
267.8965	0.09	535793	keystroke_u	u	n/a
268.1665	0.045	536333	keystroke_b	b	n/a
268.3315	0.045	536663	keystroke_y	y	n/a
268.511	0.12	537022	keystroke_Key.space	Key.space	n/a
269.111	0.09	538222	keystroke_c	c	n/a
269.202	0.059	538404	keystroke_o	o	n/a
269.336	0.09	538672	keystroke_m	m	n/a
269.516	0.06	539032	keystroke_p	p	n/a
269.681	0.075	539362	keystroke_r	r	n/a
269.771	0.105	539542	keystroke_e	e	n/a
269.996	0.06	539992	keystroke_s	s	n/a
270.146	0.075	540292	keystroke_s	s	n/a
270.266	0.06	540532	keystroke_i	i	n/a
270.386	0.06	540772	keystroke_o	o	n/a
270.551	0.135	541102	keystroke_n	n	n/a
270.701	0.075	541402	keystroke_Key.space	Key.space	n/a
271.2565	0.0295	542513	keystroke_c	c	n/a
271.4215	0.0745	542843	keystroke_a	a	n/a
271.6315	0.06	543263	keystroke_r	r	n/a
271.826	0.075	543652	keystroke_d	d	n/a
271.946	0.075	543892	keystroke_i	i	n/a
272.036	0.09	544072	keystroke_a	a	n/a
272.291	0.105	544582	keystroke_c	c	n/a
272.5765	0.09	545153	keystroke_Key.enter	Key.enter	n/a
272.672	10.3165	545344	prompt	n/a	fully inventory exploration journalism\n
273.6865	0.09	547373	keystroke_f	f	n/a
273.837	0.074	547674	keystroke_u	u	n/a
274.032	0.045	548064	keystroke_l	l	n/a
274.152	0.06	548304	keystroke_l	l	n/a
274.347	0.105	548694	keystroke_y	y	n/a
274.406	0.12	548812	keystroke_Key.space	Key.space	n/a
274.586	0.075	549172	keystroke_i	i	n/a
274.782	0.045	549564	keystroke_n	n	n/a
275.097	0.09	550194	keystroke_v	v	n/a
275.292	0.075	550584	keystroke_e	e	n/a
275.397	0.089	550794	keystroke_n	n	n/a
275.532	0.06	551064	keystroke_t	t	n/a
275.727	0.059	551454	keystroke_o	o	n/a
275.892	0.045	551784	keystroke_r	r	n/a
276.027	0.135	552054	keystroke_y	y	n/a
276.146	0.135	552292	keystroke_Key.space	Key.space	n/a
277.092	0.06	554184	keystroke_e	e	n/a
277.3765	0.09	554753	keystroke_x	x	n/a
277.527	0.075	555054	keystroke_p	p	n/a
277.662	0.075	555324	keystroke_l	l	n/a
277.842	0.06	555684	keystroke_o	o	n/a
277.977	0.06	555954	keystroke_r	r	n/a
278.157	0.09	556314	keystroke_a	a	n/a
278.352	0.09	556704	keystroke_t	t	n/a
278.457	0.06	556914	keystroke_i	i	n/a
278.6065	0.075	557213	keystroke_o	o	n/a
278.8015	0.15	557603	keystroke_n	n	n/a
278.9365	0.09	557873	keystroke_Key.space	Key.space	n/a
279.3265	0.03	558653	keystroke_h	h	n/a
280.316	0.06	560632	keystroke_Key.backspace	Key.backspace	n/a
280.7965	0.045	561593	keystroke_j	j	n/a
280.9615	0.105	561923	keystroke_o	o	n/a
281.0215	0.12	562043	keystroke_u	u	n/a
281.486	0.06	562972	keystroke_r	r	n/a
281.6965	0.06	563393	keystroke_n	n	n/a
281.8315	0.1045	563663	keystroke_a	a	n/a
281.9665	0.0755	563933	keystroke_l	l	n/a
282.237	0.074	564474	keystroke_i	i	n/a
282.401	0.076	564802	keystroke_s	s	n/a
282.537	0.06	565074	keystroke_m	m	n/a
282.911	0.075	565822	keystroke_Key.enter	Key.enter	n/a
282.9995	8.959	565999	prompt	n/a	chest demonstrated james electric\n
283.887	0.014	567774	keystroke_c	c	n/a
283.962	0.0595	567924	keystroke_h	h	n/a
284.0365	0.06	568073	keystroke_e	e	n/a
284.2465	0.06	568493	keystroke_s	s	n/a
284.441	0.0455	568882	keystroke_t	t	n/a
284.5615	0.075	569123	keystroke_Key.space	Key.space	n/a
284.6965	0.105	569393	keystroke_d	d	n/a
284.7715	0.105	569543	keystroke_e	e	n/a
284.9215	0.075	569843	keystroke_m	m	n/a
285.0865	0.06	570173	keystroke_o	o	n/a
285.2515	0.075	570503	keystroke_n	n	n/a
285.8065	0.075	571613	keystroke_s	s	n/a
286.0615	0.03	572123	keystroke_t	t	n/a
286.2115	0.06	572423	keystroke_r	r	n/a
286.4515	0.03	572903	keystroke_a	a	n/a
286.5865	0.09	573173	keystroke_t	t	n/a
286.7065	0.06	573413	keystroke_e	e	n/a
286.9915	0.12	573983	keystroke_d	d	n/a
287.2015	0.06	574403	keystroke_Key.space	Key.space	n/a
287.7265	0.06	575453	keystroke_j	j	n/a
287.8165	0.075	575633	keystroke_a	a	n/a
287.9515	0.075	575903	keystroke_m	m	n/a
288.0415	0.045	576083	keystroke_e	e	n/a
288.2365	0.09	576473	keystroke_s	s	n/a
288.9115	0.075	577823	keystroke_Key.space	Key.space	n/a
289.692	0.074	579384	keystroke_e	e	n/a
290.1115	0.06	580223	keystroke_l	l	n/a
290.2015	0.075	580403	keystroke_e	e	n/a
290.471	0.12	580942	keystroke_c	c	n/a
290.7565	0.075	581513	keystroke_t	t	n/a
291.0865	0.09	582173	keystroke_r	r	n/a
291.2965	0.045	582593	keystroke_i	i	n/a
291.5065	0.09	583013	keystroke_c	c	n/a
291.8815	0.075	583763	keystroke_Key.enter	Key.enter	n/a
291.974	8.759	583948	prompt	n/a	separately boutique archive things\n
292.9465	0.06	585893	keystroke_s	s	n/a
293.0815	0.075	586163	keystroke_e	e	n/a
293.2765	0.06	586553	keystroke_p	p	n/a
293.3665	0.105	586733	keystroke_a	a	n/a
293.5315	0.105	587063	keystroke_r	r	n/a
293.6515	0.09	587303	keystroke_a	a	n/a
293.861	0.075	587722	keystroke_t	t	n/a
293.966	0.0605	587932	keystroke_e	e	n/a
294.176	0.06	588352	keystroke_l	l	n/a
294.432	0.12	588864	keystroke_y	y	n/a
294.521	0.15	589042	keystroke_Key.space	Key.space	n/a
295.2265	0.045	590453	keystroke_b	b	n/a
295.4065	0.105	590813	keystroke_o	o	n/a
295.4815	0.105	590963	keystroke_u	u	n/a
295.6165	0.09	591233	keystroke_t	t	n/a
295.7515	0.075	591503	keystroke_i	i	n/a
296.1415	0.09	592283	keystroke_w	w	n/a
296.2915	0.075	592583	keystroke_u	u	n/a
296.5465	0.06	593093	keystroke_e	e	n/a
296.6965	0.075	593393	keystroke_Key.space	Key.space	n/a
297.3715	0.06	594743	keystroke_a	a	n/a
297.6565	0.06	595313	keystroke_r	r	n/a
297.8665	0.12	595733	keystroke_c	c	n/a
298.0015	0.045	596003	keystroke_h	h	n/a
298.1065	0.09	596213	keystroke_i	i	n/a
298.3765	0.06	596753	keystroke_v	v	n/a
298.5865	0.075	597173	keystroke_e	e	n/a
298.751	0.0755	597502	keystroke_Key.space	Key.space	n/a
299.081	0.075	598162	keystroke_t	t	n/a
299.171	0.075	598342	keystroke_h	h	n/a
299.276	0.09	598552	keystroke_i	i	n/a
299.471	0.06	598942	keystroke_n	n	n/a
299.591	0.075	599182	keystroke_g	g	n/a
299.786	0.0905	599572	keystroke_s	s	n/a
300.656	0.075	601312	keystroke_Key.enter	Key.enter	n/a
300.747	6.5555	601494	prompt	n/a	step you'd raid shades\n
301.391	0.06	602782	keystroke_s	s	n/a
301.721	0.075	603442	keystroke_t	t	n/a
301.856	0.09	603712	keystroke_e	e	n/a
302.006	0.18	604012	keystroke_p	p	n/a
302.141	0.12	604282	keystroke_Key.space	Key.space	n/a
302.9815	0.045	605963	keystroke_y	y	n/a
303.1465	0.105	606293	keystroke_o	o	n/a
303.1915	0.105	606383	keystroke_u	u	n/a
303.881	0.09	607762	keystroke_'	'	n/a
304.076	0.06	608152	keystroke_d	d	n/a
304.241	0.075	608482	keystroke_Key.space	Key.space	n/a
305.1265	0.075	610253	keystroke_r	r	n/a
305.2015	0.105	610403	keystroke_a	a	n/a
305.3515	0.0595	610703	keystroke_i	i	n/a
305.486	0.0905	610972	keystroke_d	d	n/a
305.6065	0.06	611213	keystroke_Key.space	Key.space	n/a
306.1765	0.075	612353	keystroke_s	s	n/a
306.3565	0.06	612713	keystroke_h	h	n/a
306.4315	0.09	612863	keystroke_a	a	n/a
306.6265	0.12	613253	keystroke_d	d	n/a
306.7165	0.105	613433	keystroke_e	e	n/a
306.9715	0.105	613943	keystroke_s	s	n/a
307.226	0.075	614452	keystroke_Key.enter	Key.enter	n/a
307.3055	11.7575	614611	prompt	n/a	mozilla however feeling witnesses\n
308.231	0.09	616462	keystroke_m	m	n/a
308.396	0.075	616792	keystroke_o	o	n/a
309.281	0.105	618562	keystroke_z	z	n/a
309.446	0.06	618892	keystroke_i	i	n/a
309.656	0.045	619312	keystroke_l	l	n/a
309.791	0.06	619582	keystroke_l	l	n/a
309.866	0.09	619732	keystroke_a	a	n/a
310.061	0.075	620122	keystroke_Key.space	Key.space	n/a
311.2765	0.059	622553	keystroke_h	h	n/a
311.4405	0.09	622881	keystroke_o	o	n/a
311.5905	0.075	623181	keystroke_w	w	n/a
311.8165	0.045	623633	keystroke_e	e	n/a
311.9965	0.06	623993	keystroke_v	v	n/a
312.0715	0.1195	624143	keystroke_e	e	n/a
312.146	0.12	624292	keystroke_r	r	n/a
312.416	0.075	624832	keystroke_Key.space	Key.space	n/a
313.3465	0.06	626693	keystroke_f	f	n/a
313.4515	0.089	626903	keystroke_e	e	n/a
313.6305	0.076	627261	keystroke_e	e	n/a
313.7805	0.046	627561	keystroke_l	l	n/a
313.9605	0.0455	627921	keystroke_i	i	n/a
314.111	0.06	628222	keystroke_n	n	n/a
314.186	0.075	628372	keystroke_g	g	n/a
314.336	0.075	628672	keystroke_Key.space	Key.space	n/a
314.471	0.075	628942	keystroke_w	w	n/a
314.591	0.075	629182	keystroke_i	i	n/a
315.926	0.0605	631852	keystroke_n	n	n/a
316.5405	0.075	633081	keystroke_Key.backspace	Key.backspace	n/a
316.7505	0.046	633501	keystroke_t	t	n/a
317.6365	0.059	635273	keystroke_n	n	n/a
317.8165	0.06	635633	keystroke_e	e	n/a
318.0555	0.061	636111	keystroke_s	s	n/a
318.2065	0.059	636413	keystroke_s	s	n/a
318.4015	0.045	636803	keystroke_e	e	n/a
318.5665	0.06	637133	keystroke_s	s	n/a
319.0005	0.06	638001	keystroke_Key.enter	Key.enter	n/a
319.074	10.0695	638148	prompt	n/a	horizontal tuesday sealed lifestyle\n
320.0505	0.06	640101	keystroke_h	h	n/a
320.2155	0.0755	640431	keystroke_o	o	n/a
320.351	0.0445	640702	keystroke_r	r	n/a
320.441	0.0755	640882	keystroke_i	i	n/a
320.8765	0.074	641753	keystroke_z	z	n/a
320.9665	0.06	641933	keystroke_o	o	n/a
321.1605	0.0755	642321	keystroke_n	n	n/a
321.3105	0.06	642621	keystroke_t	t	n/a
321.5055	0.06	643011	keystroke_a	a	n/a
321.6105	0.1505	643221	keystroke_l	l	n/a
321.746	0.0905	643492	keystroke_Key.space	Key.space	n/a
322.2865	0.075	644573	keystroke_t	t	n/a
322.4215	0.0595	644843	keystroke_u	u	n/a
322.526	0.045	645052	keystroke_r	r	n/a
322.931	0.06	645862	keystroke_Key.backspace	Key.backspace	n/a
323.066	0.075	646132	keystroke_e	e	n/a
323.291	0.09	646582	keystroke_s	s	n/a
323.5465	0.1495	647093	keystroke_d	d	n/a
323.666	0.105	647332	keystroke_a	a	n/a
324.101	0.1355	648202	keystroke_y	y	n/a
324.2505	0.075	648501	keystroke_Key.space	Key.space	n/a
324.776	0.075	649552	keystroke_s	s	n/a
324.986	0.06	649972	keystroke_e	e	n/a
325.151	0.09	650302	keystroke_a	a	n/a
325.286	0.075	650572	keystroke_l	l	n/a
325.436	0.06	650872	keystroke_e	e	n/a
325.6305	0.105	651261	keystroke_d	d	n/a
325.7955	0.09	651591	keystroke_Key.space	Key.space	n/a
326.0815	0.029	652163	keystroke_l	l	n/a
326.246	0.06	652492	keystroke_i	i	n/a
326.486	0.06	652972	keystroke_f	f	n/a
326.591	0.09	653182	keystroke_e	e	n/a
326.8315	0.09	653663	keystroke_s	s	n/a
327.0565	0.0595	654113	keystroke_t	t	n/a
327.2365	0.0295	654473	keystroke_y	y	n/a
327.5355	0.075	655071	keystroke_e	e	n/a
328.0765	0.075	656153	keystroke_Key.backspace	Key.backspace	n/a
328.781	0.06	657562	keystroke_l	l	n/a
328.916	0.075	657832	keystroke_e	e	n/a
329.096	0.045	658192	keystroke_Key.enter	Key.enter	n/a
329.1575	8.551	658315	prompt	n/a	jane walls operation disciplines\n
330.386	0.06	660772	keystroke_j	j	n/a
330.461	0.045	660922	keystroke_a	a	n/a
330.566	0.075	661132	keystroke_n	n	n/a
330.656	0.075	661312	keystroke_e	e	n/a
330.836	0.06	661672	keystroke_Key.space	Key.space	n/a
331.467	0.134	662934	keystroke_w	w	n/a
331.586	0.09	663172	keystroke_a	a	n/a
331.736	0.045	663472	keystroke_l	l	n/a
331.856	0.075	663712	keystroke_l	l	n/a
331.916	0.121	663832	keystroke_s	s	n/a
332.096	0.075	664192	keystroke_Key.space	Key.space	n/a
332.246	0.075	664492	keystroke_o	o	n/a
332.561	0.09	665122	keystroke_e	e	n/a
333.1615	0.06	666323	keystroke_Key.backspace	Key.backspace	n/a
333.6565	0.075	667313	keystroke_p	p	n/a
333.7615	0.135	667523	keystroke_e	e	n/a
333.8515	0.105	667703	keystroke_r	r	n/a
334.0915	0.06	668183	keystroke_a	a	n/a
334.3015	0.075	668603	keystroke_t	t	n/a
334.3765	0.06	668753	keystroke_i	i	n/a
334.5265	0.045	669053	keystroke_o	o	n/a
334.7065	0.135	669413	keystroke_n	n	n/a
334.8265	0.105	669653	keystroke_Key.space	Key.space	n/a
335.321	0.075	670642	keystroke_d	d	n/a
335.486	0.06	670972	keystroke_i	i	n/a
335.561	0.075	671122	keystroke_s	s	n/a
335.786	0.075	671572	keystroke_c	c	n/a
335.936	0.0755	671872	keystroke_i	i	n/a
336.551	0.06	673102	keystroke_p	p	n/a
336.716	0.0595	673432	keystroke_l	l	n/a
336.9265	0.06	673853	keystroke_i	i	n/a
337.1365	0.06	674273	keystroke_n	n	n/a
337.2415	0.06	674483	keystroke_e	e	n/a
337.4515	0.075	674903	keystroke_s	s	n/a
337.6465	0.06	675293	keystroke_Key.enter	Key.enter	n/a
337.72	9.258	675440	prompt	n/a	milwaukee centers lynn jesus\n
339.0715	0.09	678143	keystroke_m	m	n/a
339.2665	0.075	678533	keystroke_i	i	n/a
339.4605	0.076	678921	keystroke_l	l	n/a
339.7315	0.06	679463	keystroke_a	a	n/a
340.856	0.075	681712	keystroke_Key.backspace	Key.backspace	n/a
341.171	0.1205	682342	keystroke_w	w	n/a
341.261	0.1205	682522	keystroke_a	a	n/a
341.5615	0.06	683123	keystroke_u	u	n/a
342.2215	0.09	684443	keystroke_k	k	n/a
342.4015	0.06	684803	keystroke_e	e	n/a
342.5665	0.075	685133	keystroke_e	e	n/a
342.9565	0.075	685913	keystroke_Key.space	Key.space	n/a
343.3465	0.06	686693	keystroke_c	c	n/a
343.5265	0.06	687053	keystroke_e	e	n/a
343.6165	0.075	687233	keystroke_n	n	n/a
343.7365	0.075	687473	keystroke_t	t	n/a
343.8715	0.1195	687743	keystroke_e	e	n/a
343.9465	0.135	687893	keystroke_r	r	n/a
344.2315	0.105	688463	keystroke_s	s	n/a
344.5015	0.029	689003	keystroke_Key.space	Key.space	n/a
344.7865	0.06	689573	keystroke_l	l	n/a
345.0865	0.06	690173	keystroke_y	y	n/a
345.3115	0.06	690623	keystroke_n	n	n/a
345.4315	0.135	690863	keystroke_n	n	n/a
345.5505	0.091	691101	keystroke_Key.space	Key.space	n/a
345.7165	0.075	691433	keystroke_j	j	n/a
346.1365	0.06	692273	keystroke_e	e	n/a
346.3315	0.06	692663	keystroke_s	s	n/a
346.4515	0.075	692903	keystroke_u	u	n/a
346.4965	0.09	692993	keystroke_s	s	n/a
346.9015	0.075	693803	keystroke_Key.enter	Key.enter	n/a
346.9895	9.4535	693979	prompt	n/a	immediately pond united earning\n
347.8765	0.06	695753	keystroke_i	i	n/a
348.0405	0.06	696081	keystroke_m	m	n/a
348.1605	0.09	696321	keystroke_m	m	n/a
348.3105	0.075	696621	keystroke_e	e	n/a
348.4455	0.1055	696891	keystroke_d	d	n/a
348.566	0.06	697132	keystroke_i	i	n/a
348.671	0.075	697342	keystroke_a	a	n/a
348.911	0.045	697822	keystroke_t	t	n/a
349.0615	0.075	698123	keystroke_e	e	n/a
349.2565	0.075	698513	keystroke_l	l	n/a
349.481	0.135	698962	keystroke_y	y	n/a
349.586	0.12	699172	keystroke_Key.space	Key.space	n/a
349.901	0.12	699802	keystroke_p	p	n/a
350.022	0.104	700044	keystroke_o	o	n/a
350.276	0.03	700552	keystroke_n	n	n/a
350.711	0.1355	701422	keystroke_d	d	n/a
351.0715	0.105	702143	keystroke_Key.space	Key.space	n/a
351.3865	0.075	702773	keystroke_u	u	n/a
351.6115	0.09	703223	keystroke_n	n	n/a
351.7765	0.075	703553	keystroke_i	i	n/a
352.0615	0.045	704123	keystroke_t	t	n/a
352.2415	0.075	704483	keystroke_e	e	n/a
352.451	0.09	704902	keystroke_d	d	n/a
352.586	0.075	705172	keystroke_Key.space	Key.space	n/a
355.273	0.001	710546	keystroke_e	e	n/a
355.391	0.075	710782	keystroke_a	a	n/a
355.451	0.12	710902	keystroke_r	r	n/a
355.646	0.075	711292	keystroke_n	n	n/a
355.7665	0.059	711533	keystroke_i	i	n/a
355.8855	0.09	711771	keystroke_n	n	n/a
355.9905	0.076	711981	keystroke_g	g	n/a
356.351	0.09	712702	keystroke_Key.enter	Key.enter	n/a
356.457	7.036	712914	prompt	n/a	preston xbox roller central\n
357.341	0.06	714682	keystroke_p	p	n/a
357.461	0.105	714922	keystroke_r	r	n/a
357.521	0.09	715042	keystroke_e	e	n/a
357.7455	0.076	715491	keystroke_s	s	n/a
357.9555	0.06	715911	keystroke_t	t	n/a
358.0605	0.06	716121	keystroke_o	o	n/a
358.2405	0.135	716481	keystroke_n	n	n/a
358.3605	0.0905	716721	keystroke_Key.space	Key.space	n/a
359.126	0.075	718252	keystroke_x	x	n/a
359.306	0.06	718612	keystroke_b	b	n/a
359.456	0.075	718912	keystroke_o	o	n/a
359.591	0.075	719182	keystroke_x	x	n/a
359.786	0.045	719572	keystroke_Key.space	Key.space	n/a
360.626	0.075	721252	keystroke_r	r	n/a
360.716	0.075	721432	keystroke_o	o	n/a
360.911	0.03	721822	keystroke_l	l	n/a
361.031	0.06	722062	keystroke_l	l	n/a
361.106	0.12	722212	keystroke_e	e	n/a
361.196	0.12	722392	keystroke_r	r	n/a
361.406	0.06	722812	keystroke_Key.space	Key.space	n/a
362.246	0.12	724492	keystroke_c	c	n/a
362.351	0.105	724702	keystroke_e	e	n/a
362.501	0.075	725002	keystroke_n	n	n/a
362.621	0.06	725242	keystroke_t	t	n/a
362.8165	0.045	725633	keystroke_r	r	n/a
362.9515	0.075	725903	keystroke_a	a	n/a
363.0715	0.06	726143	keystroke_l	l	n/a
363.4155	0.075	726831	keystroke_Key.enter	Key.enter	n/a
363.5035	6.9795	727007	prompt	n/a	absence fortune rand skip\n
364.331	0.075	728662	keystroke_a	a	n/a
364.9005	0.046	729801	keystroke_b	b	n/a
365.0515	0.059	730103	keystroke_s	s	n/a
365.2455	0.0755	730491	keystroke_c	c	n/a
365.4255	0.0605	730851	keystroke_e	e	n/a
365.6205	0.09	731241	keystroke_n	n	n/a
365.861	0.0895	731722	keystroke_c	c	n/a
365.9065	0.089	731813	keystroke_e	e	n/a
366.1455	0.045	732291	keystroke_Key.space	Key.space	n/a
366.7615	0.075	733523	keystroke_f	f	n/a
366.8665	0.075	733733	keystroke_o	o	n/a
366.9565	0.09	733913	keystroke_r	r	n/a
367.196	0.075	734392	keystroke_t	t	n/a
367.331	0.075	734662	keystroke_u	u	n/a
367.616	0.06	735232	keystroke_n	n	n/a
367.721	0.09	735442	keystroke_e	e	n/a
367.856	0.0905	735712	keystroke_Key.space	Key.space	n/a
368.6065	0.075	737213	keystroke_r	r	n/a
368.741	0.105	737482	keystroke_a	a	n/a
368.876	0.075	737752	keystroke_n	n	n/a
369.011	0.09	738022	keystroke_d	d	n/a
369.146	0.0755	738292	keystroke_Key.space	Key.space	n/a
369.2515	0.105	738503	keystroke_s	s	n/a
369.4015	0.075	738803	keystroke_k	k	n/a
369.5665	0.075	739133	keystroke_i	i	n/a
369.7465	0.0745	739493	keystroke_p	p	n/a
370.4055	0.075	740811	keystroke_Key.enter	Key.enter	n/a
370.488	9.1155	740976	prompt	n/a	everybody crew screen inspection\n
371.531	0.06	743062	keystroke_e	e	n/a
371.801	0.06	743602	keystroke_v	v	n/a
371.966	0.09	743932	keystroke_e	e	n/a
371.996	0.135	743992	keystroke_r	r	n/a
372.251	0.06	744502	keystroke_y	y	n/a
372.4315	0.045	744863	keystroke_b	b	n/a
372.5965	0.06	745193	keystroke_o	o	n/a
372.6715	0.105	745343	keystroke_d	d	n/a
372.8065	0.135	745613	keystroke_y	y	n/a
372.8965	0.165	745793	keystroke_Key.space	Key.space	n/a
373.4205	0.06	746841	keystroke_c	c	n/a
373.7955	0.105	747591	keystroke_r	r	n/a
373.8855	0.105	747771	keystroke_e	e	n/a
374.1105	0.105	748221	keystroke_w	w	n/a
374.3055	0.075	748611	keystroke_Key.space	Key.space	n/a
374.5005	0.091	749001	keystroke_s	s	n/a
375.0565	0.014	750113	keystroke_r	r	n/a
375.911	0.06	751822	keystroke_Key.backspace	Key.backspace	n/a
376.436	0.075	752872	keystroke_c	c	n/a
376.721	0.09	753442	keystroke_r	r	n/a
376.871	0.09	753742	keystroke_e	e	n/a
377.036	0.075	754072	keystroke_e	e	n/a
377.171	0.18	754342	keystroke_n	n	n/a
377.336	0.075	754672	keystroke_Key.space	Key.space	n/a
377.8915	0.0595	755783	keystroke_i	i	n/a
378.071	0.075	756142	keystroke_n	n	n/a
378.176	0.075	756352	keystroke_s	s	n/a
378.341	0.06	756682	keystroke_p	p	n/a
378.4615	0.045	756923	keystroke_e	e	n/a
378.7005	0.046	757401	keystroke_c	c	n/a
378.8955	0.045	757791	keystroke_t	t	n/a
378.9415	0.06	757883	keystroke_i	i	n/a
379.0765	0.059	758153	keystroke_o	o	n/a
379.2415	0.09	758483	keystroke_n	n	n/a
379.541	0.06	759082	keystroke_Key.enter	Key.enter	n/a
379.617	6.152	759234	prompt	n/a	honor english upset arnold\n
380.471	0.06	760942	keystroke_h	h	n/a
380.591	0.075	761182	keystroke_o	o	n/a
380.741	0.06	761482	keystroke_n	n	n/a
380.876	0.075	761752	keystroke_o	o	n/a
381.011	0.075	762022	keystroke_r	r	n/a
381.116	0.075	762232	keystroke_Key.space	Key.space	n/a
381.311	0.075	762622	keystroke_e	e	n/a
381.446	0.045	762892	keystroke_n	n	n/a
381.596	0.075	763192	keystroke_g	g	n/a
381.701	0.0595	763402	keystroke_l	l	n/a
381.866	0.06	763732	keystroke_i	i	n/a
382.091	0.06	764182	keystroke_s	s	n/a
382.226	0.105	764452	keystroke_h	h	n/a
382.376	0.105	764752	keystroke_Key.space	Key.space	n/a
383.1865	0.06	766373	keystroke_u	u	n/a
383.4855	0.105	766971	keystroke_p	p	n/a
383.6665	0.059	767333	keystroke_s	s	n/a
383.8315	0.059	767663	keystroke_e	e	n/a
384.0265	0.09	768053	keystroke_t	t	n/a
384.1905	0.06	768381	keystroke_Key.space	Key.space	n/a
384.4155	0.076	768831	keystroke_a	a	n/a
384.806	0.075	769612	keystroke_r	r	n/a
384.986	0.06	769972	keystroke_n	n	n/a
385.151	0.045	770302	keystroke_o	o	n/a
385.316	0.06	770632	keystroke_l	l	n/a
385.391	0.12	770782	keystroke_d	d	n/a
385.706	0.06	771412	keystroke_Key.enter	Key.enter	n/a
385.7745	9.7135	771549	prompt	n/a	lamp guild discharge river\n
386.696	0.0595	773392	keystroke_l	l	n/a
386.8005	0.06	773601	keystroke_a	a	n/a
386.8615	0.074	773723	keystroke_m	m	n/a
387.0255	0.045	774051	keystroke_p	p	n/a
387.2055	0.09	774411	keystroke_Key.space	Key.space	n/a
387.896	0.06	775792	keystroke_g	g	n/a
388.046	0.0455	776092	keystroke_u	u	n/a
388.1965	0.075	776393	keystroke_i	i	n/a
388.3315	0.105	776663	keystroke_d	d	n/a
388.4065	0.105	776813	keystroke_e	e	n/a
389.261	0.06	778522	keystroke_Key.backspace	Key.backspace	n/a
389.546	0.06	779092	keystroke_Key.backspace	Key.backspace	n/a
391.798	0.013	783596	keystroke_l	l	n/a
391.841	0.105	783682	keystroke_d	d	n/a
392.006	0.09	784012	keystroke_Key.space	Key.space	n/a
392.8465	0.105	785693	keystroke_d	d	n/a
393.0115	0.0595	786023	keystroke_i	i	n/a
393.086	0.075	786172	keystroke_s	s	n/a
393.281	0.075	786562	keystroke_c	c	n/a
393.401	0.06	786802	keystroke_h	h	n/a
393.491	0.06	786982	keystroke_a	a	n/a
393.656	0.06	787312	keystroke_r	r	n/a
393.881	0.06	787762	keystroke_g	g	n/a
394.001	0.105	788002	keystroke_e	e	n/a
394.196	0.075	788392	keystroke_Key.space	Key.space	n/a
394.631	0.075	789262	keystroke_r	r	n/a
394.751	0.06	789502	keystroke_i	i	n/a
394.901	0.045	789802	keystroke_v	v	n/a
395.051	0.135	790102	keystroke_e	e	n/a
395.126	0.15	790252	keystroke_r	r	n/a
395.381	0.105	790762	keystroke_Key.enter	Key.enter	n/a
395.5025	8.22	791005	prompt	n/a	consider informational rentals scored\n
396.311	0.075	792622	keystroke_c	c	n/a
396.401	0.045	792802	keystroke_o	o	n/a
396.521	0.09	793042	keystroke_n	n	n/a
396.611	0.075	793222	keystroke_s	s	n/a
396.716	0.06	793432	keystroke_i	i	n/a
396.806	0.12	793612	keystroke_d	d	n/a
396.896	0.09	793792	keystroke_e	e	n/a
397.061	0.09	794122	keystroke_r	r	n/a
397.196	0.075	794392	keystroke_Key.space	Key.space	n/a
397.751	0.06	795502	keystroke_i	i	n/a
397.931	0.045	795862	keystroke_n	n	n/a
398.066	0.09	796132	keystroke_f	f	n/a
398.231	0.075	796462	keystroke_o	o	n/a
398.5015	0.075	797003	keystroke_r	r	n/a
398.7415	0.089	797483	keystroke_m	m	n/a
398.9065	0.09	797813	keystroke_a	a	n/a
399.716	0.075	799432	keystroke_t	t	n/a
399.821	0.075	799642	keystroke_i	i	n/a
400.001	0.045	800002	keystroke_o	o	n/a
400.166	0.09	800332	keystroke_n	n	n/a
400.316	0.105	800632	keystroke_a	a	n/a
400.406	0.135	800812	keystroke_l	l	n/a
400.526	0.09	801052	keystroke_Key.space	Key.space	n/a
401.246	0.075	802492	keystroke_r	r	n/a
401.306	0.09	802612	keystroke_e	e	n/a
401.441	0.09	802882	keystroke_n	n	n/a
401.546	0.075	803092	keystroke_t	t	n/a
401.711	0.075	803422	keystroke_a	a	n/a
401.786	0.0445	803572	keystroke_l	l	n/a
401.9215	0.09	803843	keystroke_s	s	n/a
402.0255	0.09	804051	keystroke_Key.space	Key.space	n/a
402.371	0.075	804742	keystroke_s	s	n/a
402.566	0.075	805132	keystroke_c	c	n/a
402.941	0.06	805882	keystroke_o	o	n/a
403.046	0.09	806092	keystroke_r	r	n/a
403.241	0.075	806482	keystroke_e	e	n/a
403.421	0.09	806842	keystroke_d	d	n/a
403.6605	0.06	807321	keystroke_Key.enter	Key.enter	n/a
403.726	10.737	807452	prompt	n/a	cyber employees rochester welcome\n
404.681	0.09	809362	keystroke_c	c	n/a
404.906	0.045	809812	keystroke_y	y	n/a
405.086	0.06	810172	keystroke_b	b	n/a
405.191	0.105	810382	keystroke_e	e	n/a
405.266	0.12	810532	keystroke_r	r	n/a
405.416	0.09	810832	keystroke_Key.space	Key.space	n/a
405.6865	0.074	811373	keystroke_e	e	n/a
405.8365	0.06	811673	keystroke_m	m	n/a
406.0315	0.03	812063	keystroke_p	p	n/a
406.3615	0.075	812723	keystroke_l	l	n/a
406.5715	0.09	813143	keystroke_o	o	n/a
406.9005	0.0605	813801	keystroke_y	y	n/a
407.006	0.075	814012	keystroke_e	e	n/a
407.171	0.075	814342	keystroke_e	e	n/a
407.366	0.105	814732	keystroke_s	s	n/a
407.516	0.075	815032	keystroke_Key.space	Key.space	n/a
408.161	0.06	816322	keystroke_r	r	n/a
408.266	0.09	816532	keystroke_o	o	n/a
408.431	0.09	816862	keystroke_c	c	n/a
408.566	0.045	817132	keystroke_h	h	n/a
408.626	0.09	817252	keystroke_e	e	n/a
408.836	0.075	817672	keystroke_s	s	n/a
409.031	0.075	818062	keystroke_t	t	n/a
409.1955	0.09	818391	keystroke_e	e	n/a
409.2705	0.12	818541	keystroke_r	r	n/a
409.4505	0.075	818901	keystroke_Key.space	Key.space	n/a
409.946	0.075	819892	keystroke_w	w	n/a
410.066	0.105	820132	keystroke_e	e	n/a
410.276	0.06	820552	keystroke_l	l	n/a
410.411	0.0895	820822	keystroke_c	c	n/a
410.4865	0.059	820973	keystroke_o	o	n/a
410.6355	0.075	821271	keystroke_m	m	n/a
410.6955	0.09	821391	keystroke_e	e	n/a
414.4485	0.013	828897	keystroke_Key.enter	Key.enter	n/a
414.4765	7.201	828953	prompt	n/a	consultants syndrome money casio\n
415.9155	0.09	831831	keystroke_c	c	n/a
416.0205	0.06	832041	keystroke_o	o	n/a
416.1705	0.0755	832341	keystroke_n	n	n/a
416.261	0.0895	832522	keystroke_s	s	n/a
416.3955	0.061	832791	keystroke_u	u	n/a
416.5765	0.06	833153	keystroke_l	l	n/a
416.7415	0.03	833483	keystroke_t	t	n/a
416.8455	0.09	833691	keystroke_a	a	n/a
417.0115	0.075	834023	keystroke_n	n	n/a
417.1165	0.075	834233	keystroke_t	t	n/a
417.3105	0.0755	834621	keystroke_s	s	n/a
417.431	0.075	834862	keystroke_Key.space	Key.space	n/a
417.821	0.075	835642	keystroke_s	s	n/a
418.001	0.045	836002	keystroke_y	y	n/a
418.391	0.06	836782	keystroke_n	n	n/a
418.676	0.06	837352	keystroke_d	d	n/a
418.841	0.075	837682	keystroke_r	r	n/a
418.961	0.045	837922	keystroke_o	o	n/a
419.096	0.09	838192	keystroke_m	m	n/a
419.201	0.09	838402	keystroke_e	e	n/a
419.351	0.075	838702	keystroke_Key.space	Key.space	n/a
419.831	0.09	839662	keystroke_m	m	n/a
419.981	0.06	839962	keystroke_o	o	n/a
420.101	0.09	840202	keystroke_n	n	n/a
420.206	0.06	840412	keystroke_e	e	n/a
420.416	0.135	840832	keystroke_y	y	n/a
420.521	0.12	841042	keystroke_Key.space	Key.space	n/a
420.746	0.06	841492	keystroke_c	c	n/a
420.911	0.09	841822	keystroke_a	a	n/a
421.016	0.09	842032	keystroke_s	s	n/a
421.121	0.075	842242	keystroke_i	i	n/a
421.301	0.06	842602	keystroke_o	o	n/a
421.6005	0.075	843201	keystroke_Key.enter	Key.enter	n/a
421.6825	9.0555	843365	prompt	n/a	experienced bahrain smithsonian yards\n
422.351	0.075	844702	keystroke_e	e	n/a
422.696	0.075	845392	keystroke_x	x	n/a
422.8165	0.059	845633	keystroke_p	p	n/a
422.9355	0.105	845871	keystroke_e	e	n/a
423.0255	0.0905	846051	keystroke_r	r	n/a
423.221	0.06	846442	keystroke_i	i	n/a
423.311	0.09	846622	keystroke_e	e	n/a
423.506	0.06	847012	keystroke_n	n	n/a
423.581	0.105	847162	keystroke_c	c	n/a
423.641	0.105	847282	keystroke_e	e	n/a
423.8805	0.075	847761	keystroke_d	d	n/a
424.0605	0.06	848121	keystroke_Key.space	Key.space	n/a
424.7055	0.031	849411	keystroke_b	b	n/a
424.7505	0.06	849501	keystroke_a	a	n/a
424.9305	0.06	849861	keystroke_h	h	n/a
425.1565	0.044	850313	keystroke_r	r	n/a
425.3205	0.061	850641	keystroke_a	a	n/a
425.3965	0.059	850793	keystroke_i	i	n/a
425.5605	0.12	851121	keystroke_n	n	n/a
425.7255	0.075	851451	keystroke_Key.space	Key.space	n/a
426.4305	0.1205	852861	keystroke_s	s	n/a
426.8055	0.075	853611	keystroke_m	m	n/a
427.0005	0.075	854001	keystroke_i	i	n/a
427.2855	0.0755	854571	keystroke_t	t	n/a
427.406	0.06	854812	keystroke_h	h	n/a
427.781	0.09	855562	keystroke_s	s	n/a
427.886	0.06	855772	keystroke_o	o	n/a
428.051	0.06	856102	keystroke_n	n	n/a
428.186	0.06	856372	keystroke_i	i	n/a
428.276	0.09	856552	keystroke_a	a	n/a
428.411	0.09	856822	keystroke_n	n	n/a
428.666	0.075	857332	keystroke_Key.space	Key.space	n/a
429.311	0.06	858622	keystroke_y	y	n/a
429.386	0.075	858772	keystroke_a	a	n/a
429.626	0.06	859252	keystroke_r	r	n/a
429.956	0.15	859912	keystroke_d	d	n/a
430.091	0.09	860182	keystroke_s	s	n/a
430.631	0.105	861262	keystroke_Key.enter	Key.enter	n/a
430.7545	6.553	861509	prompt	n/a	bearing initially merchant coupled\n
431.786	0.06	863572	keystroke_b	b	n/a
431.816	0.075	863632	keystroke_e	e	n/a
431.966	0.09	863932	keystroke_a	a	n/a
432.041	0.09	864082	keystroke_r	r	n/a
432.116	0.06	864232	keystroke_i	i	n/a
432.251	0.075	864502	keystroke_n	n	n/a
432.356	0.09	864712	keystroke_g	g	n/a
432.476	0.09	864952	keystroke_Key.space	Key.space	n/a
432.986	0.06	865972	keystroke_i	i	n/a
433.181	0.045	866362	keystroke_n	n	n/a
433.301	0.06	866602	keystroke_i	i	n/a
433.436	0.045	866872	keystroke_t	t	n/a
433.496	0.075	866992	keystroke_i	i	n/a
433.676	0.075	867352	keystroke_a	a	n/a
433.826	0.03	867652	keystroke_l	l	n/a
433.931	0.06	867862	keystroke_l	l	n/a
434.156	0.15	868312	keystroke_y	y	n/a
434.261	0.12	868522	keystroke_Key.space	Key.space	n/a
434.651	0.045	869302	keystroke_m	m	n/a
434.711	0.06	869422	keystroke_e	e	n/a
434.996	0.06	869992	keystroke_r	r	n/a
435.206	0.09	870412	keystroke_c	c	n/a
435.341	0.045	870682	keystroke_h	h	n/a
435.416	0.06	870832	keystroke_a	a	n/a
435.521	0.06	871042	keystroke_n	n	n/a
435.671	0.075	871342	keystroke_t	t	n/a
435.806	0.075	871612	keystroke_Key.space	Key.space	n/a
436.031	0.06	872062	keystroke_c	c	n/a
436.106	0.1045	872212	keystroke_o	o	n/a
436.1955	0.075	872391	keystroke_u	u	n/a
436.6455	0.045	873291	keystroke_p	p	n/a
436.7955	0.09	873591	keystroke_l	l	n/a
436.9005	0.105	873801	keystroke_e	e	n/a
436.9605	0.18	873921	keystroke_d	d	n/a
437.2305	0.075	874461	keystroke_Key.enter	Key.enter	n/a
437.3125	7.45	874625	prompt	n/a	strongly represents transmit response\n
438.131	0.09	876262	keystroke_s	s	n/a
438.356	0.045	876712	keystroke_t	t	n/a
438.521	0.06	877042	keystroke_r	r	n/a
438.596	0.06	877192	keystroke_o	o	n/a
438.761	0.06	877522	keystroke_n	n	n/a
438.866	0.09	877732	keystroke_g	g	n/a
439.001	0.06	878002	keystroke_l	l	n/a
439.211	0.1345	878422	keystroke_y	y	n/a
439.316	0.1045	878632	keystroke_Key.space	Key.space	n/a
439.5255	0.12	879051	keystroke_r	r	n/a
439.6155	0.105	879231	keystroke_e	e	n/a
439.8405	0.09	879681	keystroke_p	p	n/a
439.9755	0.12	879951	keystroke_r	r	n/a
440.0655	0.105	880131	keystroke_e	e	n/a
440.3505	0.075	880701	keystroke_s	s	n/a
440.5155	0.06	881031	keystroke_e	e	n/a
440.7105	0.015	881421	keystroke_n	n	n/a
440.7555	0.06	881511	keystroke_t	t	n/a
440.9205	0.09	881841	keystroke_s	s	n/a
441.0705	0.075	882141	keystroke_Key.space	Key.space	n/a
441.2655	0.075	882531	keystroke_t	t	n/a
441.4455	0.045	882891	keystroke_r	r	n/a
441.6105	0.06	883221	keystroke_a	a	n/a
441.7155	0.075	883431	keystroke_n	n	n/a
441.8205	0.075	883641	keystroke_s	s	n/a
442.1505	0.0755	884301	keystroke_m	m	n/a
442.3305	0.03	884661	keystroke_i	i	n/a
442.4205	0.06	884841	keystroke_t	t	n/a
442.6455	0.046	885291	keystroke_Key.space	Key.space	n/a
442.8415	0.09	885683	keystroke_r	r	n/a
443.0815	0.074	886163	keystroke_e	e	n/a
443.3815	0.075	886763	keystroke_s	s	n/a
443.5615	0.09	887123	keystroke_p	p	n/a
443.6525	0.089	887305	keystroke_o	o	n/a
443.9665	0.06	887933	keystroke_n	n	n/a
444.1615	0.06	888323	keystroke_s	s	n/a
444.3265	0.059	888653	keystroke_e	e	n/a
444.701	0.0595	889402	keystroke_Key.enter	Key.enter	n/a
444.7665	6.776	889533	prompt	n/a	unity recorder introduction edited\n
445.6915	0.06	891383	keystroke_u	u	n/a
445.8415	0.045	891683	keystroke_n	n	n/a
445.9465	0.075	891893	keystroke_i	i	n/a
446.0365	0.075	892073	keystroke_t	t	n/a
446.1565	0.135	892313	keystroke_y	y	n/a
446.2465	0.12	892493	keystroke_Key.space	Key.space	n/a
446.4415	0.12	892883	keystroke_r	r	n/a
446.5315	0.105	893063	keystroke_e	e	n/a
446.846	0.075	893692	keystroke_c	c	n/a
446.936	0.075	893872	keystroke_o	o	n/a
447.146	0.075	894292	keystroke_r	r	n/a
447.5965	0.1045	895193	keystroke_d	d	n/a
447.7605	0.12	895521	keystroke_e	e	n/a
447.8815	0.089	895763	keystroke_r	r	n/a
448.046	0.09	896092	keystroke_Key.space	Key.space	n/a
448.436	0.0595	896872	keystroke_i	i	n/a
448.601	0.075	897202	keystroke_n	n	n/a
448.736	0.0445	897472	keystroke_t	t	n/a
448.9155	0.0755	897831	keystroke_r	r	n/a
449.006	0.075	898012	keystroke_o	o	n/a
449.216	0.06	898432	keystroke_d	d	n/a
449.291	0.0755	898582	keystroke_u	u	n/a
449.4115	0.0895	898823	keystroke_c	c	n/a
449.666	0.045	899332	keystroke_t	t	n/a
449.741	0.045	899482	keystroke_i	i	n/a
449.861	0.075	899722	keystroke_o	o	n/a
450.056	0.12	900112	keystroke_n	n	n/a
450.161	0.09	900322	keystroke_Key.space	Key.space	n/a
450.311	0.075	900622	keystroke_e	e	n/a
450.536	0.06	901072	keystroke_d	d	n/a
450.671	0.09	901342	keystroke_i	i	n/a
450.821	0.06	901642	keystroke_t	t	n/a
450.986	0.06	901972	keystroke_e	e	n/a
451.181	0.075	902362	keystroke_d	d	n/a
451.481	0.06	902962	keystroke_Key.enter	Key.enter	n/a
451.545	12.689	903090	prompt	n/a	liechtenstein friday immediately elegant\n
452.651	0.075	905302	keystroke_l	l	n/a
453.1155	0.075	906231	keystroke_i	i	n/a
454.106	0.045	908212	keystroke_e	e	n/a
454.361	0.075	908722	keystroke_c	c	n/a
454.496	0.06	908992	keystroke_h	h	n/a
454.706	0.09	909412	keystroke_s	s	n/a
455.696	0.06	911392	keystroke_Key.backspace	Key.backspace	n/a
455.996	0.06	911992	keystroke_t	t	n/a
456.161	0.075	912322	keystroke_e	e	n/a
456.341	0.075	912682	keystroke_n	n	n/a
456.4605	0.075	912921	keystroke_s	s	n/a
456.7155	0.075	913431	keystroke_t	t	n/a
456.8805	0.06	913761	keystroke_i	i	n/a
456.971	0.09	913942	keystroke_e	e	n/a
457.196	0.105	914392	keystroke_n	n	n/a
457.316	0.1205	914632	keystroke_Key.space	Key.space	n/a
458.3205	0.09	916641	keystroke_f	f	n/a
458.3805	0.105	916761	keystroke_r	r	n/a
458.5305	0.09	917061	keystroke_i	i	n/a
458.7705	0.105	917541	keystroke_d	d	n/a
458.8155	0.12	917631	keystroke_a	a	n/a
459.0105	0.12	918021	keystroke_y	y	n/a
459.1005	0.09	918201	keystroke_Key.space	Key.space	n/a
459.6255	0.075	919251	keystroke_i	i	n/a
459.8055	0.075	919611	keystroke_m	m	n/a
459.9405	0.09	919881	keystroke_m	m	n/a
460.0455	0.105	920091	keystroke_e	e	n/a
460.1655	0.105	920331	keystroke_d	d	n/a
460.2855	0.045	920571	keystroke_i	i	n/a
460.5555	0.03	921111	keystroke_a	a	n/a
460.7805	0.105	921561	keystroke_t	t	n/a
460.8705	0.09	921741	keystroke_e	e	n/a
461.8305	0.075	923661	keystroke_l	l	n/a
462.0555	0.1505	924111	keystroke_y	y	n/a
462.1605	0.1055	924321	keystroke_Key.space	Key.space	n/a
462.731	0.075	925462	keystroke_e	e	n/a
462.926	0.075	925852	keystroke_l	l	n/a
463.031	0.06	926062	keystroke_e	e	n/a
463.2105	0.045	926421	keystroke_g	g	n/a
463.3605	0.09	926721	keystroke_a	a	n/a
463.4805	0.075	926961	keystroke_n	n	n/a
463.8855	0.1055	927771	keystroke_t	t	n/a
464.1555	0.075	928311	keystroke_Key.enter	Key.enter	n/a
464.251	8.7275	928502	prompt	n/a	titans annotated competitions sense\n
465.221	0.12	930442	keystroke_t	t	n/a
465.356	0.015	930712	keystroke_i	i	n/a
465.386	0.03	930772	keystroke_t	t	n/a
465.611	0.0745	931222	keystroke_a	a	n/a
465.7605	0.06	931521	keystroke_n	n	n/a
465.8505	0.135	931701	keystroke_s	s	n/a
466.0155	0.06	932031	keystroke_Key.space	Key.space	n/a
466.1355	0.09	932271	keystroke_a	a	n/a
466.5555	0.06	933111	keystroke_n	n	n/a
466.691	0.06	933382	keystroke_n	n	n/a
466.841	0.075	933682	keystroke_o	o	n/a
467.006	0.06	934012	keystroke_t	t	n/a
467.2165	0.059	934433	keystroke_a	a	n/a
467.3955	0.09	934791	keystroke_t	t	n/a
467.5605	0.09	935121	keystroke_e	e	n/a
467.8765	0.059	935753	keystroke_d	d	n/a
467.9955	0.1055	935991	keystroke_Key.space	Key.space	n/a
468.416	0.105	936832	keystroke_c	c	n/a
468.506	0.135	937012	keystroke_o	o	n/a
468.611	0.09	937222	keystroke_m	m	n/a
468.761	0.075	937522	keystroke_p	p	n/a
468.941	0.075	937882	keystroke_e	e	n/a
469.136	0.06	938272	keystroke_t	t	n/a
469.256	0.06	938512	keystroke_i	i	n/a
469.391	0.075	938782	keystroke_t	t	n/a
469.481	0.06	938962	keystroke_i	i	n/a
469.661	0.06	939322	keystroke_o	o	n/a
469.856	0.075	939712	keystroke_n	n	n/a
469.976	0.09	939952	keystroke_s	s	n/a
470.396	0.09	940792	keystroke_Key.space	Key.space	n/a
470.786	0.045	941572	keystroke_s	s	n/a
470.936	0.06	941872	keystroke_e	e	n/a
471.116	0.046	942232	keystroke_s	s	n/a
471.131	0.105	942262	keystroke_n	n	n/a
471.7605	0.045	943521	keystroke_Key.backspace	Key.backspace	n/a
472.0005	0.075	944001	keystroke_Key.backspace	Key.backspace	n/a
472.481	0.06	944962	keystroke_n	n	n/a
472.556	0.06	945112	keystroke_s	s	n/a
472.721	0.0595	945442	keystroke_e	e	n/a
472.9005	0.075	945801	keystroke_Key.enter	Key.enter	n/a
472.994	13.455	945988	prompt	n/a	galaxy reservation legitimate harold\n
474.221	0.075	948442	keystroke_g	g	n/a
474.311	0.075	948622	keystroke_a	a	n/a
474.4755	0.06	948951	keystroke_l	l	n/a
474.5505	0.061	949101	keystroke_a	a	n/a
474.8505	0.075	949701	keystroke_z	z	n/a
474.9855	0.165	949971	keystroke_y	y	n/a
475.0605	0.165	950121	keystroke_Key.space	Key.space	n/a
475.3305	0.075	950661	keystroke_h	h	n/a
475.4505	0.06	950901	keystroke_a	a	n/a
476.1855	0.06	952371	keystroke_Key.backspace	Key.backspace	n/a
476.3955	0.09	952791	keystroke_Key.backspace	Key.backspace	n/a
477.131	0.06	954262	keystroke_Key.backspace	Key.backspace	n/a
477.386	0.06	954772	keystroke_Key.backspace	Key.backspace	n/a
477.7155	0.06	955431	keystroke_Key.backspace	Key.backspace	n/a
478.6615	0.0895	957323	keystroke_x	x	n/a
478.8855	0.15	957771	keystroke_y	y	n/a
478.9605	0.15	957921	keystroke_Key.space	Key.space	n/a
479.7255	0.075	959451	keystroke_r	r	n/a
479.7555	0.105	959511	keystroke_e	e	n/a
479.9805	0.075	959961	keystroke_s	s	n/a
480.1605	0.06	960321	keystroke_e	e	n/a
480.2355	0.09	960471	keystroke_r	r	n/a
480.5355	0.015	961071	keystroke_v	v	n/a
480.6255	0.075	961251	keystroke_a	a	n/a
480.821	0.06	961642	keystroke_t	t	n/a
480.896	0.06	961792	keystroke_i	i	n/a
481.016	0.06	962032	keystroke_o	o	n/a
481.166	0.18	962332	keystroke_n	n	n/a
481.301	0.135	962602	keystroke_Key.space	Key.space	n/a
481.556	0.06	963112	keystroke_l	l	n/a
481.646	0.0755	963292	keystroke_e	e	n/a
481.871	0.06	963742	keystroke_f	f	n/a
482.276	0.06	964552	keystroke_Key.backspace	Key.backspace	n/a
482.441	0.075	964882	keystroke_g	g	n/a
482.576	0.075	965152	keystroke_i	i	n/a
482.741	0.06	965482	keystroke_t	t	n/a
482.8605	0.075	965721	keystroke_i	i	n/a
483.221	0.09	966442	keystroke_m	m	n/a
483.326	0.075	966652	keystroke_a	a	n/a
483.671	0.09	967342	keystroke_t	t	n/a
483.746	0.105	967492	keystroke_e	e	n/a
483.941	0.09	967882	keystroke_Key.space	Key.space	n/a
484.271	0.09	968542	keystroke_a	a	n/a
484.736	0.06	969472	keystroke_Key.backspace	Key.backspace	n/a
484.961	0.075	969922	keystroke_h	h	n/a
485.066	0.09	970132	keystroke_a	a	n/a
485.306	0.075	970612	keystroke_r	r	n/a
485.546	0.09	971092	keystroke_o	o	n/a
485.771	0.075	971542	keystroke_l	l	n/a
486.086	0.105	972172	keystroke_d	d	n/a
486.386	0.06	972772	keystroke_Key.enter	Key.enter	n/a
486.463	8.445	972926	prompt	n/a	charlotte bottom calibration author\n
487.361	0.075	974722	keystroke_c	c	n/a
487.481	0.06	974962	keystroke_h	h	n/a
487.586	0.06	975172	keystroke_a	a	n/a
487.766	0.075	975532	keystroke_r	r	n/a
487.886	0.06	975772	keystroke_l	l	n/a
488.051	0.06	976102	keystroke_o	o	n/a
488.231	0.06	976462	keystroke_t	t	n/a
488.381	0.06	976762	keystroke_e	e	n/a
489.2055	0.0905	978411	keystroke_Key.backspace	Key.backspace	n/a
489.446	0.06	978892	keystroke_t	t	n/a
489.611	0.06	979222	keystroke_e	e	n/a
489.821	0.0895	979642	keystroke_Key.space	Key.space	n/a
490.4215	0.1495	980843	keystroke_b	b	n/a
490.586	0.06	981172	keystroke_o	o	n/a
490.676	0.06	981352	keystroke_t	t	n/a
490.826	0.075	981652	keystroke_t	t	n/a
490.886	0.06	981772	keystroke_o	o	n/a
491.576	0.195	983152	keystroke_m	m	n/a
491.741	0.135	983482	keystroke_Key.space	Key.space	n/a
491.981	0.06	983962	keystroke_c	c	n/a
492.161	0.06	984322	keystroke_a	a	n/a
492.296	0.045	984592	keystroke_l	l	n/a
492.416	0.0755	984832	keystroke_i	i	n/a
492.6415	0.0595	985283	keystroke_b	b	n/a
492.716	0.105	985432	keystroke_r	r	n/a
492.806	0.1055	985612	keystroke_a	a	n/a
493.001	0.075	986002	keystroke_t	t	n/a
493.091	0.045	986182	keystroke_i	i	n/a
493.211	0.06	986422	keystroke_o	o	n/a
493.406	0.135	986812	keystroke_n	n	n/a
493.556	0.09	987112	keystroke_Key.space	Key.space	n/a
493.871	0.075	987742	keystroke_a	a	n/a
494.066	0.06	988132	keystroke_u	u	n/a
494.2465	0.06	988493	keystroke_t	t	n/a
494.2915	0.075	988583	keystroke_h	h	n/a
494.4415	0.075	988883	keystroke_o	o	n/a
494.5015	0.089	989003	keystroke_r	r	n/a
494.8155	0.09	989631	keystroke_Key.enter	Key.enter	n/a
494.9245	9.5385	989849	prompt	n/a	harry conduct fairfield favor\n
495.6865	0.06	991373	keystroke_h	h	n/a
495.7615	0.06	991523	keystroke_a	a	n/a
495.9265	0.06	991853	keystroke_r	r	n/a
496.0615	0.075	992123	keystroke_r	r	n/a
496.1665	0.12	992333	keystroke_y	y	n/a
496.2555	0.1055	992511	keystroke_Key.space	Key.space	n/a
496.406	0.0755	992812	keystroke_c	c	n/a
496.4665	0.06	992933	keystroke_o	o	n/a
496.6315	0.06	993263	keystroke_n	n	n/a
496.7215	0.089	993443	keystroke_d	d	n/a
496.8715	0.059	993743	keystroke_u	u	n/a
496.9615	0.075	993923	keystroke_c	c	n/a
497.1855	0.09	994371	keystroke_t	t	n/a
497.3655	0.061	994731	keystroke_Key.space	Key.space	n/a
498.236	0.0445	996472	keystroke_f	f	n/a
498.3855	0.075	996771	keystroke_a	a	n/a
498.491	0.0595	996982	keystroke_i	i	n/a
498.581	0.1045	997162	keystroke_r	r	n/a
498.8505	0.06	997701	keystroke_f	f	n/a
498.986	0.0895	997972	keystroke_i	i	n/a
499.1205	0.091	998241	keystroke_e	e	n/a
499.4665	0.06	998933	keystroke_d	d	n/a
501.0255	0.06	1002051	keystroke_Key.backspace	Key.backspace	n/a
502.0155	0.06	1004031	keystroke_l	l	n/a
502.1065	0.089	1004213	keystroke_d	d	n/a
502.3005	0.09	1004601	keystroke_Key.space	Key.space	n/a
503.1265	0.03	1006253	keystroke_f	f	n/a
503.2465	0.075	1006493	keystroke_a	a	n/a
503.441	0.075	1006882	keystroke_v	v	n/a
503.546	0.075	1007092	keystroke_o	o	n/a
503.696	0.0905	1007392	keystroke_r	r	n/a
504.4455	0.015	1008891	keystroke_Key.enter	Key.enter	n/a
504.474	9.109	1008948	prompt	n/a	podcasts retreat devil cordless\n
505.901	0.075	1011802	keystroke_p	p	n/a
505.946	0.105	1011892	keystroke_o	o	n/a
506.021	0.09	1012042	keystroke_d	d	n/a
506.246	0.015	1012492	keystroke_c	c	n/a
506.306	0.135	1012612	keystroke_a	a	n/a
506.426	0.1045	1012852	keystroke_s	s	n/a
506.7105	0.061	1013421	keystroke_t	t	n/a
506.8005	0.105	1013601	keystroke_s	s	n/a
507.0105	0.105	1014021	keystroke_Key.space	Key.space	n/a
507.4755	0.105	1014951	keystroke_r	r	n/a
507.5355	0.105	1015071	keystroke_e	e	n/a
507.7305	0.075	1015461	keystroke_t	t	n/a
507.8955	0.105	1015791	keystroke_r	r	n/a
507.9855	0.12	1015971	keystroke_e	e	n/a
508.2565	0.044	1016513	keystroke_a	a	n/a
508.4055	0.0905	1016811	keystroke_t	t	n/a
508.541	0.09	1017082	keystroke_Key.space	Key.space	n/a
508.721	0.075	1017442	keystroke_d	d	n/a
508.7365	0.0895	1017473	keystroke_e	e	n/a
508.961	0.09	1017922	keystroke_v	v	n/a
509.4255	0.06	1018851	keystroke_i	i	n/a
509.846	0.105	1019692	keystroke_Key.space	Key.space	n/a
510.416	0.075	1020832	keystroke_Key.backspace	Key.backspace	n/a
511.2715	0.134	1022543	keystroke_l	l	n/a
511.4205	0.075	1022841	keystroke_Key.space	Key.space	n/a
512.3205	0.105	1024641	keystroke_c	c	n/a
512.486	0.075	1024972	keystroke_o	o	n/a
512.576	0.075	1025152	keystroke_r	r	n/a
512.771	0.0745	1025542	keystroke_d	d	n/a
512.9205	0.0755	1025841	keystroke_l	l	n/a
513.011	0.06	1026022	keystroke_e	e	n/a
513.2055	0.045	1026411	keystroke_s	s	n/a
513.3255	0.09	1026651	keystroke_s	s	n/a
513.5355	0.045	1027071	keystroke_Key.enter	Key.enter	n/a
513.594	6.829	1027188	prompt	n/a	idol releases outside panic\n
514.4815	0.059	1028963	keystroke_i	i	n/a
514.721	0.105	1029442	keystroke_d	d	n/a
514.871	0.06	1029742	keystroke_o	o	n/a
515.051	0.09	1030102	keystroke_l	l	n/a
515.216	0.075	1030432	keystroke_Key.space	Key.space	n/a
515.411	0.12	1030822	keystroke_r	r	n/a
515.501	0.105	1031002	keystroke_e	e	n/a
515.651	0.075	1031302	keystroke_l	l	n/a
515.756	0.075	1031512	keystroke_e	e	n/a
515.966	0.105	1031932	keystroke_a	a	n/a
516.161	0.105	1032322	keystroke_s	s	n/a
516.371	0.0745	1032742	keystroke_e	e	n/a
516.5655	0.075	1033131	keystroke_s	s	n/a
516.7455	0.09	1033491	keystroke_Key.space	Key.space	n/a
517.2105	0.0905	1034421	keystroke_o	o	n/a
517.436	0.075	1034872	keystroke_u	u	n/a
517.6465	0.0285	1035293	keystroke_t	t	n/a
517.811	0.075	1035622	keystroke_s	s	n/a
517.9315	0.0595	1035863	keystroke_i	i	n/a
518.036	0.135	1036072	keystroke_d	d	n/a
518.095	0.1365	1036190	keystroke_e	e	n/a
518.2905	0.0755	1036581	keystroke_Key.space	Key.space	n/a
518.486	0.075	1036972	keystroke_p	p	n/a
518.606	0.075	1037212	keystroke_a	a	n/a
518.756	0.09	1037512	keystroke_n	n	n/a
518.951	0.045	1037902	keystroke_i	i	n/a
519.026	0.09	1038052	keystroke_s	s	n/a
519.746	0.075	1039492	keystroke_Key.backspace	Key.backspace	n/a
520.121	0.09	1040242	keystroke_c	c	n/a
520.361	0.06	1040722	keystroke_Key.enter	Key.enter	n/a
520.4335	12.305	1040867	prompt	n/a	spelling coral connector enhancing\n
521.486	0.075	1042972	keystroke_s	s	n/a
521.621	0.09	1043242	keystroke_p	p	n/a
521.726	0.045	1043452	keystroke_e	e	n/a
521.876	0.045	1043752	keystroke_l	l	n/a
522.011	0.045	1044022	keystroke_l	l	n/a
522.176	0.06	1044352	keystroke_i	i	n/a
522.3105	0.09	1044621	keystroke_n	n	n/a
522.4605	0.075	1044921	keystroke_g	g	n/a
522.611	0.075	1045222	keystroke_Key.space	Key.space	n/a
523.4355	0.0755	1046871	keystroke_o	o	n/a
523.526	0.06	1047052	keystroke_r	r	n/a
523.705	0.091	1047410	keystroke_a	a	n/a
523.765	0.151	1047530	keystroke_l	l	n/a
523.885	0.121	1047770	keystroke_Key.space	Key.space	n/a
524.171	0.09	1048342	keystroke_c	c	n/a
524.246	0.075	1048492	keystroke_o	o	n/a
524.426	0.0595	1048852	keystroke_n	n	n/a
524.5755	0.06	1049151	keystroke_n	n	n/a
524.6805	0.0605	1049361	keystroke_e	e	n/a
524.846	0.09	1049692	keystroke_c	c	n/a
525.056	0.09	1050112	keystroke_t	t	n/a
525.191	0.075	1050382	keystroke_o	o	n/a
525.9105	0.075	1051821	keystroke_r	r	n/a
526.0755	0.075	1052151	keystroke_Key.space	Key.space	n/a
526.946	0.06	1053892	keystroke_e	e	n/a
527.171	0.075	1054342	keystroke_n	n	n/a
527.336	0.06	1054672	keystroke_c	c	n/a
527.426	0.075	1054852	keystroke_h	h	n/a
527.561	0.045	1055122	keystroke_a	a	n/a
527.681	0.06	1055362	keystroke_n	n	n/a
530.233	0	1060466	keystroke_Key.backspace	Key.backspace	n/a
530.5005	0.03	1061001	keystroke_Key.backspace	Key.backspace	n/a
530.7405	0.075	1061481	keystroke_Key.backspace	Key.backspace	n/a
531.0255	0.06	1062051	keystroke_Key.backspace	Key.backspace	n/a
531.6705	0.075	1063341	keystroke_h	h	n/a
531.7305	0.075	1063461	keystroke_a	a	n/a
531.8505	0.09	1063701	keystroke_n	n	n/a
531.9555	0.12	1063911	keystroke_c	c	n/a
532.0605	0.045	1064121	keystroke_i	i	n/a
532.181	0.075	1064362	keystroke_n	n	n/a
532.286	0.075	1064572	keystroke_g	g	n/a
532.676	0.06	1065352	keystroke_Key.enter	Key.enter	n/a
532.7535	6.8985	1065507	prompt	n/a	version worst communication annotated\n
533.7705	0.045	1067541	keystroke_v	v	n/a
533.9055	0.105	1067811	keystroke_e	e	n/a
533.9805	0.09	1067961	keystroke_r	r	n/a
534.1755	0.09	1068351	keystroke_s	s	n/a
534.2805	0.045	1068561	keystroke_i	i	n/a
534.4305	0.045	1068861	keystroke_o	o	n/a
534.6405	0.135	1069281	keystroke_n	n	n/a
534.7905	0.09	1069581	keystroke_Key.space	Key.space	n/a
534.9855	0.09	1069971	keystroke_w	w	n/a
535.0905	0.075	1070181	keystroke_o	o	n/a
535.2555	0.06	1070511	keystroke_r	r	n/a
535.4355	0.075	1070871	keystroke_s	s	n/a
535.6155	0.075	1071231	keystroke_t	t	n/a
535.7205	0.09	1071441	keystroke_Key.space	Key.space	n/a
535.9155	0.0755	1071831	keystroke_c	c	n/a
535.9605	0.0745	1071921	keystroke_o	o	n/a
536.096	0.105	1072192	keystroke_m	m	n/a
536.2605	0.1195	1072521	keystroke_m	m	n/a
536.44	0.1055	1072880	keystroke_u	u	n/a
536.5305	0.075	1073061	keystroke_n	n	n/a
536.6805	0.09	1073361	keystroke_i	i	n/a
536.8005	0.075	1073601	keystroke_c	c	n/a
537.1005	0.06	1074201	keystroke_a	a	n/a
537.295	0.075	1074590	keystroke_t	t	n/a
537.386	0.029	1074772	keystroke_i	i	n/a
537.521	0.0445	1075042	keystroke_o	o	n/a
537.7005	0.12	1075401	keystroke_n	n	n/a
537.8055	0.075	1075611	keystroke_Key.space	Key.space	n/a
537.9105	0.075	1075821	keystroke_a	a	n/a
538.0005	0.075	1076001	keystroke_n	n	n/a
538.1355	0.06	1076271	keystroke_n	n	n/a
538.2555	0.075	1076511	keystroke_o	o	n/a
538.4055	0.075	1076811	keystroke_t	t	n/a
538.7805	0.09	1077561	keystroke_a	a	n/a
538.9905	0.06	1077981	keystroke_t	t	n/a
539.141	0.075	1078282	keystroke_e	e	n/a
539.321	0.12	1078642	keystroke_d	d	n/a
539.561	0.089	1079122	keystroke_Key.enter	Key.enter	n/a
539.6565	9.3265	1079313	prompt	n/a	antigua stands ireland enhancing\n
540.476	0.075	1080952	keystroke_a	a	n/a
540.761	0.06	1081522	keystroke_n	n	n/a
540.926	0.06	1081852	keystroke_t	t	n/a
541.046	0.075	1082092	keystroke_i	i	n/a
541.526	0.03	1083052	keystroke_g	g	n/a
541.631	0.074	1083262	keystroke_u	u	n/a
541.871	0.06	1083742	keystroke_a	a	n/a
541.99	0.09	1083980	keystroke_Key.space	Key.space	n/a
542.23	0.091	1084460	keystroke_s	s	n/a
542.4555	0.045	1084911	keystroke_t	t	n/a
542.5905	0.075	1085181	keystroke_a	a	n/a
542.6955	0.09	1085391	keystroke_n	n	n/a
542.8455	0.1045	1085691	keystroke_d	d	n/a
543.0705	0.06	1086141	keystroke_s	s	n/a
543.2655	0.06	1086531	keystroke_Key.space	Key.space	n/a
543.656	0.09	1087312	keystroke_i	i	n/a
544.0755	0.12	1088151	keystroke_r	r	n/a
544.3905	0.09	1088781	keystroke_e	e	n/a
544.5855	0.06	1089171	keystroke_l	l	n/a
544.7505	0.0755	1089501	keystroke_a	a	n/a
545.126	0.0745	1090252	keystroke_n	n	n/a
545.2305	0.12	1090461	keystroke_d	d	n/a
545.4705	0.075	1090941	keystroke_Key.space	Key.space	n/a
545.6955	0.0455	1091391	keystroke_e	e	n/a
545.8305	0.06	1091661	keystroke_n	n	n/a
545.9955	0.06	1091991	keystroke_c	c	n/a
546.1305	0.045	1092261	keystroke_h	h	n/a
546.9255	0.06	1093851	keystroke_Key.backspace	Key.backspace	n/a
547.2405	0.06	1094481	keystroke_Key.backspace	Key.backspace	n/a
547.691	0.045	1095382	keystroke_h	h	n/a
547.766	0.06	1095532	keystroke_a	a	n/a
547.886	0.075	1095772	keystroke_n	n	n/a
548.006	0.105	1096012	keystroke_c	c	n/a
548.156	0.06	1096312	keystroke_i	i	n/a
548.321	0.045	1096642	keystroke_n	n	n/a
548.411	0.075	1096822	keystroke_g	g	n/a
548.891	0.09	1097782	keystroke_Key.enter	Key.enter	n/a
548.9945	8.7785	1097989	prompt	n/a	emphasis manuals egyptian mirrors\n
549.761	0.0745	1099522	keystroke_e	e	n/a
549.9555	0.075	1099911	keystroke_m	m	n/a
550.1505	0.045	1100301	keystroke_p	p	n/a
550.3305	0.075	1100661	keystroke_h	h	n/a
550.4505	0.06	1100901	keystroke_a	a	n/a
550.6305	0.015	1101261	keystroke_s	s	n/a
550.8405	0.06	1101681	keystroke_i	i	n/a
550.9305	0.09	1101861	keystroke_s	s	n/a
551.0805	0.105	1102161	keystroke_Key.space	Key.space	n/a
551.7255	0.0745	1103451	keystroke_m	m	n/a
551.815	0.06	1103630	keystroke_a	a	n/a
551.905	0.076	1103810	keystroke_n	n	n/a
552.115	0.075	1104230	keystroke_u	u	n/a
552.22	0.09	1104440	keystroke_a	a	n/a
552.3855	0.0755	1104771	keystroke_l	l	n/a
552.506	0.09	1105012	keystroke_s	s	n/a
552.626	0.09	1105252	keystroke_Key.space	Key.space	n/a
553.4805	0.045	1106961	keystroke_e	e	n/a
553.8105	0.06	1107621	keystroke_g	g	n/a
553.9605	0.06	1107921	keystroke_y	y	n/a
554.3655	0.0755	1108731	keystroke_p	p	n/a
554.5305	0.09	1109061	keystroke_t	t	n/a
554.6505	0.06	1109301	keystroke_i	i	n/a
554.8605	0.06	1109721	keystroke_a	a	n/a
554.9655	0.15	1109931	keystroke_n	n	n/a
555.0855	0.12	1110171	keystroke_Key.space	Key.space	n/a
555.4905	0.09	1110981	keystroke_m	m	n/a
555.7005	0.075	1111401	keystroke_i	i	n/a
555.9555	0.03	1111911	keystroke_r	r	n/a
556.1055	0.075	1112211	keystroke_r	r	n/a
556.2255	0.09	1112451	keystroke_o	o	n/a
556.676	0.0895	1113352	keystroke_r	r	n/a
556.841	0.09	1113682	keystroke_s	s	n/a
557.681	0.09	1115362	keystroke_Key.enter	Key.enter	n/a
557.7855	10.877	1115571	prompt	n/a	specialty holds turtle kernel\n
559.1205	0.09	1118241	keystroke_s	s	n/a
559.7205	0.075	1119441	keystroke_p	p	n/a
559.856	0.06	1119712	keystroke_e	e	n/a
560.156	0.06	1120312	keystroke_c	c	n/a
560.351	0.075	1120702	keystroke_i	i	n/a
560.501	0.075	1121002	keystroke_a	a	n/a
560.636	0.09	1121272	keystroke_l	l	n/a
561.101	0.015	1122202	keystroke_t	t	n/a
561.221	0.12	1122442	keystroke_y	y	n/a
561.326	0.105	1122652	keystroke_Key.space	Key.space	n/a
562.046	0.045	1124092	keystroke_h	h	n/a
562.1955	0.06	1124391	keystroke_o	o	n/a
562.361	0.075	1124722	keystroke_l	l	n/a
562.4815	0.09	1124963	keystroke_d	d	n/a
562.6005	0.075	1125201	keystroke_Key.space	Key.space	n/a
562.886	0.0595	1125772	keystroke_t	t	n/a
562.9755	0.075	1125951	keystroke_u	u	n/a
563.1705	0.075	1126341	keystroke_r	r	n/a
563.3505	0.076	1126701	keystroke_t	t	n/a
563.5005	0.091	1127001	keystroke_u	u	n/a
563.8605	0.03	1127721	keystroke_l	l	n/a
564.2055	0.06	1128411	keystroke_Key.backspace	Key.backspace	n/a
564.3705	0.06	1128741	keystroke_Key.backspace	Key.backspace	n/a
565.001	0.075	1130002	keystroke_l	l	n/a
565.166	0.045	1130332	keystroke_e	e	n/a
565.256	0.074	1130512	keystroke_Key.space	Key.space	n/a
565.421	0.09	1130842	keystroke_k	k	n/a
565.556	0.06	1131112	keystroke_e	e	n/a
565.751	0.06	1131502	keystroke_t	t	n/a
565.916	0.045	1131832	keystroke_t	t	n/a
566.441	0.09	1132882	keystroke_Key.backspace	Key.backspace	n/a
566.815	0.0455	1133630	keystroke_Key.backspace	Key.backspace	n/a
567.371	0.06	1134742	keystroke_r	r	n/a
567.5655	0.045	1135131	keystroke_n	n	n/a
567.716	0.074	1135432	keystroke_e	e	n/a
567.761	0.089	1135522	keystroke_l	l	n/a
568.015	0.09	1136030	keystroke_Key.space	Key.space	n/a
568.585	0.075	1137170	keystroke_Key.enter	Key.enter	n/a
568.674	10.729	1137348	prompt	n/a	switzerland declaration goes proved\n
570.011	0.075	1140022	keystroke_s	s	n/a
570.251	0.059	1140502	keystroke_w	w	n/a
571.0005	0.06	1142001	keystroke_i	i	n/a
571.2555	0.075	1142511	keystroke_t	t	n/a
571.6605	0.075	1143321	keystroke_x	x	n/a
572.2155	0.075	1144431	keystroke_Key.backspace	Key.backspace	n/a
572.3955	0.0605	1144791	keystroke_z	z	n/a
572.621	0.075	1145242	keystroke_e	e	n/a
572.711	0.1045	1145422	keystroke_r	r	n/a
573.0105	0.075	1146021	keystroke_l	l	n/a
573.1005	0.06	1146201	keystroke_a	a	n/a
573.2505	0.06	1146501	keystroke_n	n	n/a
573.2955	0.105	1146591	keystroke_d	d	n/a
573.4605	0.06	1146921	keystroke_Key.space	Key.space	n/a
574.2705	0.09	1148541	keystroke_d	d	n/a
574.3155	0.075	1148631	keystroke_e	e	n/a
574.5255	0.06	1149051	keystroke_c	c	n/a
574.7055	0.045	1149411	keystroke_l	l	n/a
574.766	0.0595	1149532	keystroke_a	a	n/a
574.9605	0.075	1149921	keystroke_r	r	n/a
575.0505	0.075	1150101	keystroke_a	a	n/a
575.2155	0.09	1150431	keystroke_t	t	n/a
575.3205	0.09	1150641	keystroke_i	i	n/a
575.4705	0.06	1150941	keystroke_o	o	n/a
575.6355	0.165	1151271	keystroke_n	n	n/a
575.7705	0.105	1151541	keystroke_Key.space	Key.space	n/a
576.2805	0.075	1152561	keystroke_g	g	n/a
576.4005	0.0595	1152801	keystroke_o	o	n/a
576.73	0.061	1153460	keystroke_e	e	n/a
576.94	0.076	1153880	keystroke_s	s	n/a
577.09	0.0905	1154180	keystroke_Key.space	Key.space	n/a
577.6305	0.045	1155261	keystroke_p	p	n/a
577.8105	0.045	1155621	keystroke_r	r	n/a
577.9005	0.0745	1155801	keystroke_o	o	n/a
578.17	0.03	1156340	keystroke_v	v	n/a
578.291	0.074	1156582	keystroke_e	e	n/a
579.0255	0.075	1158051	keystroke_d	d	n/a
579.295	0.105	1158590	keystroke_Key.enter	Key.enter	n/a
579.416	7.696	1158832	prompt	n/a	bicycle minority broken easy\n
580.5555	0.015	1161111	keystroke_b	b	n/a
580.6155	0.075	1161231	keystroke_i	i	n/a
580.7055	0.09	1161411	keystroke_c	c	n/a
580.9005	0.06	1161801	keystroke_u	u	n/a
581.3205	0.045	1162641	keystroke_Key.backspace	Key.backspace	n/a
581.531	0.075	1163062	keystroke_y	y	n/a
581.621	0.105	1163242	keystroke_c	c	n/a
581.861	0.06	1163722	keystroke_l	l	n/a
582.4	0.075	1164800	keystroke_e	e	n/a
582.58	0.075	1165160	keystroke_Key.space	Key.space	n/a
583.12	0.06	1166240	keystroke_m	m	n/a
583.301	0.029	1166602	keystroke_i	i	n/a
583.405	0.06	1166810	keystroke_n	n	n/a
583.555	0.075	1167110	keystroke_o	o	n/a
583.675	0.075	1167350	keystroke_r	r	n/a
583.811	0.06	1167622	keystroke_i	i	n/a
583.93	0.075	1167860	keystroke_t	t	n/a
584.096	0.135	1168192	keystroke_y	y	n/a
584.2	0.135	1168400	keystroke_Key.space	Key.space	n/a
584.905	0.045	1169810	keystroke_b	b	n/a
584.996	0.075	1169992	keystroke_r	r	n/a
585.086	0.074	1170172	keystroke_o	o	n/a
585.221	0.089	1170442	keystroke_k	k	n/a
585.325	0.075	1170650	keystroke_e	e	n/a
585.49	0.136	1170980	keystroke_n	n	n/a
585.76	0.09	1171520	keystroke_Key.space	Key.space	n/a
585.91	0.075	1171820	keystroke_e	e	n/a
586.106	0.12	1172212	keystroke_a	a	n/a
586.181	0.1195	1172362	keystroke_s	s	n/a
586.2855	0.105	1172571	keystroke_y	y	n/a
587.0055	0.105	1174011	keystroke_Key.enter	Key.enter	n/a
587.116	12.057	1174232	prompt	n/a	poet introductory results collective\n
588.0405	0.105	1176081	keystroke_p	p	n/a
588.0855	0.12	1176171	keystroke_o	o	n/a
588.2205	0.075	1176441	keystroke_s	s	n/a
588.6255	0.045	1177251	keystroke_Key.backspace	Key.backspace	n/a
588.7455	0.06	1177491	keystroke_e	e	n/a
588.9105	0.09	1177821	keystroke_t	t	n/a
589.0605	0.075	1178121	keystroke_Key.space	Key.space	n/a
589.2705	0.075	1178541	keystroke_i	i	n/a
589.435	0.075	1178870	keystroke_n	n	n/a
589.57	0.045	1179140	keystroke_t	t	n/a
589.735	0.0755	1179470	keystroke_r	r	n/a
589.8405	0.075	1179681	keystroke_o	o	n/a
590.411	0.09	1180822	keystroke_d	d	n/a
590.516	0.06	1181032	keystroke_u	u	n/a
590.636	0.045	1181272	keystroke_c	c	n/a
590.9505	0.045	1181901	keystroke_o	o	n/a
591.3105	0.06	1182621	keystroke_Key.backspace	Key.backspace	n/a
591.4155	0.075	1182831	keystroke_t	t	n/a
591.6855	0.06	1183371	keystroke_r	r	n/a
592.1355	0.06	1184271	keystroke_Key.backspace	Key.backspace	n/a
592.4355	0.0745	1184871	keystroke_o	o	n/a
592.645	0.0755	1185290	keystroke_r	r	n/a
592.8105	0.075	1185621	keystroke_y	y	n/a
592.9605	0.12	1185921	keystroke_Key.space	Key.space	n/a
593.7855	0.045	1187571	keystroke_r	r	n/a
593.8005	0.12	1187601	keystroke_e	e	n/a
594.0705	0.09	1188141	keystroke_s	s	n/a
594.1905	0.06	1188381	keystroke_u	u	n/a
594.4305	0.06	1188861	keystroke_o	o	n/a
594.8955	0.045	1189791	keystroke_Key.backspace	Key.backspace	n/a
595.1055	0.09	1190211	keystroke_l	l	n/a
595.3155	0.09	1190631	keystroke_t	t	n/a
595.4355	0.0905	1190871	keystroke_s	s	n/a
595.661	0.075	1191322	keystroke_Key.space	Key.space	n/a
595.976	0.09	1191952	keystroke_c	c	n/a
596.096	0.03	1192192	keystroke_o	o	n/a
596.711	0.0595	1193422	keystroke_l	l	n/a
596.8455	0.075	1193691	keystroke_l	l	n/a
596.9505	0.06	1193901	keystroke_e	e	n/a
597.1305	0.09	1194261	keystroke_c	c	n/a
597.4305	0.06	1194861	keystroke_i	i	n/a
598.0605	0.135	1196121	keystroke_Key.backspace	Key.backspace	n/a
598.2855	0.075	1196571	keystroke_t	t	n/a
598.5105	0.06	1197021	keystroke_i	i	n/a
598.6455	0.045	1197291	keystroke_v	v	n/a
598.781	0.075	1197562	keystroke_e	e	n/a
599.111	0.06	1198222	keystroke_Key.enter	Key.enter	n/a
599.184	14.644	1198368	prompt	n/a	operations privilege administrator delight\n
600.43	0.0455	1200860	keystroke_o	o	n/a
600.4905	0.045	1200981	keystroke_p	p	n/a
600.5505	0.135	1201101	keystroke_e	e	n/a
600.6255	0.105	1201251	keystroke_r	r	n/a
600.8355	0.06	1201671	keystroke_a	a	n/a
601.0005	0.09	1202001	keystroke_t	t	n/a
601.1055	0.045	1202211	keystroke_i	i	n/a
601.2255	0.075	1202451	keystroke_o	o	n/a
601.3755	0.105	1202751	keystroke_n	n	n/a
601.4655	0.06	1202931	keystroke_s	s	n/a
601.6005	0.09	1203201	keystroke_Key.space	Key.space	n/a
601.7805	0.045	1203561	keystroke_p	p	n/a
601.8705	0.09	1203741	keystroke_r	r	n/a
602.0355	0.06	1204071	keystroke_o	o	n/a
602.2755	0.045	1204551	keystroke_v	v	n/a
602.8605	0.075	1205721	keystroke_i	i	n/a
603.7605	0.045	1207521	keystroke_Key.backspace	Key.backspace	n/a
604	0.075	1208000	keystroke_Key.backspace	Key.backspace	n/a
604.255	0.045	1208510	keystroke_Key.backspace	Key.backspace	n/a
604.855	0.06	1209710	keystroke_i	i	n/a
605.7705	0.0755	1211541	keystroke_v	v	n/a
605.9355	0.0455	1211871	keystroke_i	i	n/a
606.131	0.075	1212262	keystroke_l	l	n/a
606.281	0.0595	1212562	keystroke_e	e	n/a
607.1205	0.135	1214241	keystroke_g	g	n/a
607.2255	0.12	1214451	keystroke_e	e	n/a
607.51	0.1055	1215020	keystroke_Key.space	Key.space	n/a
607.78	0.06	1215560	keystroke_a	a	n/a
607.93	0.0905	1215860	keystroke_d	d	n/a
608.0355	0.09	1216071	keystroke_m	m	n/a
608.2005	0.06	1216401	keystroke_i	i	n/a
608.3355	0.075	1216671	keystroke_n	n	n/a
608.5155	0.06	1217031	keystroke_i	i	n/a
