onset	duration	sample	value	key	prompt_text
5.729	9.5615	11458	prompt	n/a	the quick brown fox jumps over a lazy dog\n
6.891	0.042	13782	keystroke_t	t	n/a
6.947	0.0905	13894	keystroke_h	h	n/a
7.008	0.12	14016	keystroke_e	e	n/a
7.1125	0.09	14225	keystroke_Key.space	Key.space	n/a
7.2175	0.09	14435	keystroke_w	w	n/a
7.293	0.12	14586	keystroke_u	u	n/a
7.368	0.105	14736	keystroke_i	i	n/a
7.5475	0.1045	15095	keystroke_c	c	n/a
7.668	0.1195	15336	keystroke_k	k	n/a
7.772	0.076	15544	keystroke_Key.space	Key.space	n/a
8.373	0.09	16746	keystroke_Key.backspace	Key.backspace	n/a
8.658	0.09	17316	keystroke_Key.backspace	Key.backspace	n/a
8.8675	0.09	17735	keystroke_Key.backspace	Key.backspace	n/a
9.0625	0.09	18125	keystroke_Key.backspace	Key.backspace	n/a
9.2425	0.0755	18485	keystroke_Key.backspace	Key.backspace	n/a
9.423	0.075	18846	keystroke_Key.backspace	Key.backspace	n/a
9.678	0.12	19356	keystroke_q	q	n/a
9.813	0.135	19626	keystroke_u	u	n/a
9.903	0.105	19806	keystroke_i	i	n/a
9.993	0.105	19986	keystroke_c	c	n/a
10.113	0.075	20226	keystroke_k	k	n/a
10.158	0.075	20316	keystroke_Key.space	Key.space	n/a
10.3075	0.105	20615	keystroke_b	b	n/a
10.3825	0.075	20765	keystroke_r	r	n/a
10.4875	0.105	20975	keystroke_o	o	n/a
10.5625	0.105	21125	keystroke_w	w	n/a
10.6825	0.075	21365	keystroke_n	n	n/a
10.7125	0.12	21425	keystroke_Key.space	Key.space	n/a
10.8175	0.09	21635	keystroke_f	f	n/a
10.8925	0.106	21785	keystroke_o	o	n/a
10.9985	0.09	21997	keystroke_x	x	n/a
11.0735	0.075	22147	keystroke_Key.space	Key.space	n/a
11.748	0.075	23496	keystroke_j	j	n/a
11.913	0.06	23826	keystroke_u	u	n/a
12.078	0.105	24156	keystroke_m	m	n/a
12.198	0.105	24396	keystroke_p	p	n/a
12.288	0.09	24576	keystroke_s	s	n/a
12.393	0.12	24786	keystroke_Key.space	Key.space	n/a
12.588	0.105	25176	keystroke_o	o	n/a
12.708	0.03	25416	keystroke_v	v	n/a
12.873	0.09	25746	keystroke_e	e	n/a
12.903	0.105	25806	keystroke_r	r	n/a
12.993	0.09	25986	keystroke_Key.space	Key.space	n/a
13.098	0.105	26196	keystroke_a	a	n/a
13.218	0.09	26436	keystroke_l	l	n/a
13.863	0.12	27726	keystroke_Key.backspace	Key.backspace	n/a
13.968	0.105	27936	keystroke_Key.space	Key.space	n/a
14.133	0.105	28266	keystroke_l	l	n/a
14.238	0.06	28476	keystroke_a	a	n/a
14.403	0.0905	28806	keystroke_z	z	n/a
14.4785	0.09	28957	keystroke_y	y	n/a
14.5235	0.075	29047	keystroke_Key.space	Key.space	n/a
14.5985	0.06	29197	keystroke_d	d	n/a
14.7035	0.105	29407	keystroke_o	o	n/a
14.9285	0.0895	29857	keystroke_g	g	n/a
15.168	0.12	30336	keystroke_Key.enter	Key.enter	n/a
15.295	3.79	30590	prompt	n/a	laos view mental selling\n
15.903	0.09	31806	keystroke_l	l	n/a
16.083	0.06	32166	keystroke_l	l	n/a
16.698	0.105	33396	keystroke_Key.backspace	Key.backspace	n/a
16.863	0.09	33726	keystroke_a	a	n/a
16.954	0.104	33908	keystroke_o	o	n/a
17.028	0.075	34056	keystroke_s	s	n/a
17.118	0.09	34236	keystroke_Key.space	Key.space	n/a
17.238	0.075	34476	keystroke_v	v	n/a
17.328	0.09	34656	keystroke_i	i	n/a
17.433	0.09	34866	keystroke_e	e	n/a
17.493	0.12	34986	keystroke_w	w	n/a
17.538	0.09	35076	keystroke_Key.space	Key.space	n/a
17.748	0.075	35496	keystroke_m	m	n/a
17.808	0.105	35616	keystroke_e	e	n/a
17.943	0.075	35886	keystroke_n	n	n/a
17.973	0.12	35946	keystroke_t	t	n/a
18.033	0.09	36066	keystroke_a	a	n/a
18.108	0.105	36216	keystroke_l	l	n/a
18.168	0.09	36336	keystroke_Key.space	Key.space	n/a
18.273	0.09	36546	keystroke_s	s	n/a
18.318	0.105	36636	keystroke_e	e	n/a
18.408	0.06	36816	keystroke_l	l	n/a
18.543	0.09	37086	keystroke_l	l	n/a
18.618	0.06	37236	keystroke_i	i	n/a
18.753	0.105	37506	keystroke_n	n	n/a
18.843	0.09	37686	keystroke_g	g	n/a
18.978	0.105	37956	keystroke_Key.enter	Key.enter	n/a
19.088	5.097	38176	prompt	n/a	conversion lows inexpensive finnish\n
19.698	0.105	39396	keystroke_c	c	n/a
19.743	0.075	39486	keystroke_o	o	n/a
19.863	0.09	39726	keystroke_n	n	n/a
19.923	0.045	39846	keystroke_v	v	n/a
20.058	0.12	40116	keystroke_e	e	n/a
20.118	0.12	40236	keystroke_r	r	n/a
20.193	0.12	40386	keystroke_s	s	n/a
20.253	0.09	40506	keystroke_i	i	n/a
20.328	0.06	40656	keystroke_o	o	n/a
20.448	0.06	40896	keystroke_n	n	n/a
20.478	0.09	40956	keystroke_Key.space	Key.space	n/a
20.613	0.06	41226	keystroke_l	l	n/a
20.748	0.09	41496	keystroke_o	o	n/a
20.793	0.09	41586	keystroke_w	w	n/a
20.988	0.1055	41976	keystroke_s	s	n/a
21.078	0.06	42156	keystroke_Key.space	Key.space	n/a
21.2435	0.075	42487	keystroke_i	i	n/a
21.3485	0.105	42697	keystroke_n	n	n/a
21.4385	0.075	42877	keystroke_e	e	n/a
21.6335	0.105	43267	keystroke_x	x	n/a
21.7985	0.1195	43597	keystroke_p	p	n/a
22.083	0.105	44166	keystroke_e	e	n/a
22.218	0.09	44436	keystroke_n	n	n/a
22.338	0.09	44676	keystroke_s	s	n/a
22.428	0.105	44856	keystroke_i	i	n/a
22.488	0.12	44976	keystroke_v	v	n/a
22.563	0.105	45126	keystroke_e	e	n/a
22.623	0.105	45246	keystroke_Key.space	Key.space	n/a
22.758	0.105	45516	keystroke_f	f	n/a
22.818	0.09	45636	keystroke_i	i	n/a
22.953	0.09	45906	keystroke_n	n	n/a
23.4785	0.075	46957	keystroke_n	n	n/a
23.5985	0.12	47197	keystroke_i	i	n/a
23.7035	0.135	47407	keystroke_s	s	n/a
23.8085	0.075	47617	keystroke_h	h	n/a
24.0935	0.09	48187	keystroke_Key.enter	Key.enter	n/a
24.1885	6.7465	48377	prompt	n/a	dozen mirror flight starts\n
24.8285	0.12	49657	keystroke_d	d	n/a
24.9635	0.12	49927	keystroke_o	o	n/a
25.0685	0.135	50137	keystroke_z	z	n/a
25.1735	0.12	50347	keystroke_e	e	n/a
25.2335	0.0895	50467	keystroke_n	n	n/a
25.3085	0.0745	50617	keystroke_Key.space	Key.space	n/a
25.443	0.12	50886	keystroke_m	m	n/a
25.503	0.12	51006	keystroke_i	i	n/a
25.608	0.06	51216	keystroke_r	r	n/a
25.743	0.075	51486	keystroke_r	r	n/a
25.773	0.09	51546	keystroke_o	o	n/a
25.893	0.09	51786	keystroke_r	r	n/a
26.028	0.105	52056	keystroke_Key.space	Key.space	n/a
26.538	0.09	53076	keystroke_f	f	n/a
26.613	0.1205	53226	keystroke_i	i	n/a
27.3935	0.09	54787	keystroke_Key.backspace	Key.backspace	n/a
27.6185	0.12	55237	keystroke_l	l	n/a
27.7085	0.105	55417	keystroke_i	i	n/a
27.7985	0.075	55597	keystroke_g	g	n/a
27.933	0.09	55866	keystroke_h	h	n/a
28.038	0.105	56076	keystroke_t	t	n/a
28.173	0.12	56346	keystroke_Key.space	Key.space	n/a
28.773	0.06	57546	keystroke_s	s	n/a
28.848	0.09	57696	keystroke_t	t	n/a
29.043	0.075	58086	keystroke_r	r	n/a
29.253	0.12	58506	keystroke_t	t	n/a
29.328	0.105	58656	keystroke_s	s	n/a
29.913	0.06	59826	keystroke_Key.backspace	Key.backspace	n/a
30.078	0.075	60156	keystroke_Key.backspace	Key.backspace	n/a
30.348	0.075	60696	keystroke_Key.backspace	Key.backspace	n/a
30.453	0.12	60906	keystroke_a	a	n/a
30.513	0.09	61026	keystroke_r	r	n/a
30.693	0.105	61386	keystroke_t	t	n/a
30.753	0.12	61506	keystroke_s	s	n/a
30.828	0.105	61656	keystroke_Key.enter	Key.enter	n/a
30.9385	5.5315	61877	prompt	n/a	conjunction pendant euro wonder\n
32.358	0.03	64716	keystroke_c	c	n/a
32.373	0.016	64746	keystroke_o	o	n/a
32.418	0.075	64836	keystroke_n	n	n/a
32.673	0.03	65346	keystroke_j	j	n/a
32.688	0.03	65376	keystroke_u	u	n/a
32.748	0.075	65496	keystroke_u	u	n/a
33.603	0.09	67206	keystroke_Key.backspace	Key.backspace	n/a
33.843	0.075	67686	keystroke_n	n	n/a
33.903	0.075	67806	keystroke_c	c	n/a
34.098	0.09	68196	keystroke_t	t	n/a
34.158	0.09	68316	keystroke_i	i	n/a
34.218	0.06	68436	keystroke_o	o	n/a
34.353	0.075	68706	keystroke_n	n	n/a
34.398	0.105	68796	keystroke_Key.space	Key.space	n/a
34.638	0.105	69276	keystroke_p	p	n/a
34.773	0.105	69546	keystroke_e	e	n/a
34.908	0.09	69816	keystroke_n	n	n/a
34.968	0.105	69936	keystroke_d	d	n/a
35.013	0.105	70026	keystroke_a	a	n/a
35.133	0.075	70266	keystroke_n	n	n/a
35.223	0.09	70446	keystroke_t	t	n/a
35.283	0.105	70566	keystroke_Key.space	Key.space	n/a
35.403	0.09	70806	keystroke_e	e	n/a
35.478	0.105	70956	keystroke_u	u	n/a
35.568	0.105	71136	keystroke_r	r	n/a
35.643	0.105	71286	keystroke_o	o	n/a
35.703	0.105	71406	keystroke_Key.space	Key.space	n/a
35.823	0.0905	71646	keystroke_w	w	n/a
35.8835	0.06	71767	keystroke_o	o	n/a
35.9885	0.1045	71977	keystroke_n	n	n/a
36.0485	0.0895	72097	keystroke_d	d	n/a
36.153	0.1355	72306	keystroke_e	e	n/a
36.2585	0.09	72517	keystroke_r	r	n/a
36.3635	0.105	72727	keystroke_Key.enter	Key.enter	n/a
36.4735	3.7765	72947	prompt	n/a	trips roll atmospheric deeply\n
37.0385	0.12	74077	keystroke_t	t	n/a
37.2335	0.105	74467	keystroke_r	r	n/a
37.3235	0.12	74647	keystroke_i	i	n/a
37.4135	0.105	74827	keystroke_p	p	n/a
37.5035	0.0895	75007	keystroke_s	s	n/a
37.578	0.105	75156	keystroke_Key.space	Key.space	n/a
37.728	0.09	75456	keystroke_r	r	n/a
37.774	0.059	75548	keystroke_o	o	n/a
37.939	0.029	75878	keystroke_l	l	n/a
38.043	0.105	76086	keystroke_l	l	n/a
38.118	0.09	76236	keystroke_Key.space	Key.space	n/a
38.194	0.134	76388	keystroke_a	a	n/a
38.283	0.105	76566	keystroke_t	t	n/a
38.403	0.121	76806	keystroke_m	m	n/a
38.508	0.1045	77016	keystroke_o	o	n/a
38.6275	0.075	77255	keystroke_s	s	n/a
38.733	0.076	77466	keystroke_p	p	n/a
38.943	0.075	77886	keystroke_h	h	n/a
39.033	0.105	78066	keystroke_e	e	n/a
39.0785	0.0895	78157	keystroke_r	r	n/a
39.183	0.09	78366	keystroke_i	i	n/a
39.318	0.105	78636	keystroke_c	c	n/a
39.378	0.105	78756	keystroke_Key.space	Key.space	n/a
39.528	0.105	79056	keystroke_d	d	n/a
39.588	0.075	79176	keystroke_e	e	n/a
39.723	0.105	79446	keystroke_e	e	n/a
39.783	0.075	79566	keystroke_p	p	n/a
39.903	0.12	79806	keystroke_l	l	n/a
40.008	0.09	80016	keystroke_y	y	n/a
40.143	0.105	80286	keystroke_Key.enter	Key.enter	n/a
40.253	15.1175	80506	prompt	n/a	hydraulic renewal camping geography\n
41.0585	0.074	82117	keystroke_h	h	n/a
41.2825	0.075	82565	keystroke_y	y	n/a
41.403	0.0745	82806	keystroke_d	d	n/a
41.5835	0.09	83167	keystroke_r	r	n/a
41.6425	0.106	83285	keystroke_a	a	n/a
42.108	0.09	84216	keystroke_u	u	n/a
42.303	0.09	84606	keystroke_l	l	n/a
42.348	0.12	84696	keystroke_i	i	n/a
42.453	0.09	84906	keystroke_c	c	n/a
42.528	0.1205	85056	keystroke_Key.space	Key.space	n/a
42.7525	0.106	85505	keystroke_r	r	n/a
42.8135	0.09	85627	keystroke_e	e	n/a
42.9185	0.075	85837	keystroke_n	n	n/a
43.0235	0.09	86047	keystroke_e	e	n/a
44.3875	0.1655	88775	keystroke_w	w	n/a
44.5085	0.119	89017	keystroke_a	a	n/a
44.6125	0.1205	89225	keystroke_;	;	n/a
44.6725	0.135	89345	keystroke_Key.space	Key.space	n/a
44.8675	0.105	89735	keystroke_c	c	n/a
44.8975	0.1205	89795	keystroke_a	a	n/a
44.9575	0.0905	89915	keystroke_m	m	n/a
45.108	0.105	90216	keystroke_p	p	n/a
45.993	0.075	91986	keystroke_Key.backspace	Key.backspace	n/a
46.323	0.075	92646	keystroke_Key.backspace	Key.backspace	n/a
46.578	0.075	93156	keystroke_Key.backspace	Key.backspace	n/a
46.818	0.075	93636	keystroke_Key.backspace	Key.backspace	n/a
47.0285	0.06	94057	keystroke_Key.backspace	Key.backspace	n/a
47.2225	0.075	94445	keystroke_Key.backspace	Key.backspace	n/a
47.5375	0.0155	95075	keystroke_l	l	n/a
47.6725	0.075	95345	keystroke_i	i	n/a
47.7625	0.105	95525	keystroke_n	n	n/a
47.8375	0.0905	95675	keystroke_g	g	n/a
47.913	0.105	95826	keystroke_Key.space	Key.space	n/a
48.078	0.12	96156	keystroke_c	c	n/a
48.108	0.135	96216	keystroke_a	a	n/a
48.183	0.09	96366	keystroke_m	m	n/a
48.378	0.09	96756	keystroke_p	p	n/a
48.6185	0.09	97237	keystroke_i	i	n/a
48.6785	0.12	97357	keystroke_n	n	n/a
48.7835	0.105	97567	keystroke_g	g	n/a
49.4585	0.075	98917	keystroke_Key.backspace	Key.backspace	n/a
49.7585	0.075	99517	keystroke_Key.backspace	Key.backspace	n/a
50.0885	0.075	100177	keystroke_Key.backspace	Key.backspace	n/a
50.4035	0.09	100807	keystroke_Key.backspace	Key.backspace	n/a
50.7335	0.075	101467	keystroke_Key.backspace	Key.backspace	n/a
51.018	0.09	102036	keystroke_Key.backspace	Key.backspace	n/a
51.3475	0.075	102695	keystroke_Key.backspace	Key.backspace	n/a
51.6775	0.075	103355	keystroke_Key.backspace	Key.backspace	n/a
52.0235	0.0745	104047	keystroke_Key.backspace	Key.backspace	n/a
52.383	0.03	104766	keystroke_Key.backspace	Key.backspace	n/a
52.683	0.075	105366	keystroke_Key.backspace	Key.backspace	n/a
52.983	0.09	105966	keystroke_Key.space	Key.space	n/a
53.223	0.09	106446	keystroke_c	c	n/a
53.253	0.12	106506	keystroke_a	a	n/a
53.328	0.09	106656	keystroke_m	m	n/a
53.538	0.06	107076	keystroke_p	p	n/a
53.823	0.105	107646	keystroke_i	i	n/a
53.898	0.135	107796	keystroke_n	n	n/a
53.973	0.105	107946	keystroke_g	g	n/a
54.063	0.1205	108126	keystroke_Key.space	Key.space	n/a
54.2285	0.105	108457	keystroke_g	g	n/a
54.2885	0.1195	108577	keystroke_e	e	n/a
54.3935	0.1045	108787	keystroke_o	o	n/a
54.633	0.075	109266	keystroke_g	g	n/a
54.783	0.105	109566	keystroke_r	r	n/a
54.828	0.105	109656	keystroke_a	a	n/a
54.903	0.045	109806	keystroke_p	p	n/a
55.038	0.09	110076	keystroke_h	h	n/a
55.143	0.075	110286	keystroke_y	y	n/a
55.263	0.105	110526	keystroke_Key.enter	Key.enter	n/a
55.376	5.064	110752	prompt	n/a	commentary rare vast struggle\n
56.058	0.1055	112116	keystroke_c	c	n/a
56.118	0.0755	112236	keystroke_o	o	n/a
56.3585	0.015	112717	keystroke_m	m	n/a
56.418	0.0905	112836	keystroke_m	m	n/a
56.523	0.0905	113046	keystroke_e	e	n/a
56.598	0.0755	113196	keystroke_n	n	n/a
56.7035	0.075	113407	keystroke_t	t	n/a
56.8235	0.105	113647	keystroke_a	a	n/a
56.8685	0.105	113737	keystroke_r	r	n/a
56.9435	0.09	113887	keystroke_y	y	n/a
57.0035	0.105	114007	keystroke_Key.space	Key.space	n/a
57.4685	0.075	114937	keystroke_r	r	n/a
57.7835	0.0745	115567	keystroke_a	a	n/a
57.873	0.135	115746	keystroke_r	r	n/a
57.963	0.135	115926	keystroke_e	e	n/a
58.038	0.15	116076	keystroke_Key.space	Key.space	n/a
58.278	0.105	116556	keystroke_c	c	n/a
58.368	0.075	116736	keystroke_a	a	n/a
58.923	0.075	117846	keystroke_Key.backspace	Key.backspace	n/a
59.058	0.1055	118116	keystroke_Key.backspace	Key.backspace	n/a
59.088	0.105	118176	keystroke_v	v	n/a
59.178	0.165	118356	keystroke_a	a	n/a
59.253	0.165	118506	keystroke_s	s	n/a
59.388	0.12	118776	keystroke_t	t	n/a
59.478	0.12	118956	keystroke_Key.space	Key.space	n/a
59.628	0.09	119256	keystroke_s	s	n/a
59.673	0.12	119346	keystroke_t	t	n/a
59.748	0.105	119496	keystroke_r	r	n/a
59.808	0.105	119616	keystroke_u	u	n/a
59.928	0.06	119856	keystroke_g	g	n/a
60.063	0.075	120126	keystroke_g	g	n/a
60.123	0.105	120246	keystroke_l	l	n/a
60.229	0.089	120458	keystroke_e	e	n/a
60.348	0.09	120696	keystroke_Key.enter	Key.enter	n/a
60.443	3.987	120886	prompt	n/a	warned single scenario arabic\n
60.993	0.09	121986	keystroke_w	w	n/a
61.188	0.12	122376	keystroke_a	a	n/a
61.248	0.105	122496	keystroke_r	r	n/a
61.368	0.105	122736	keystroke_n	n	n/a
61.413	0.135	122826	keystroke_e	e	n/a
61.488	0.12	122976	keystroke_d	d	n/a
61.578	0.105	123156	keystroke_Key.space	Key.space	n/a
61.698	0.09	123396	keystroke_s	s	n/a
61.713	0.12	123426	keystroke_i	i	n/a
61.803	0.12	123606	keystroke_n	n	n/a
61.878	0.09	123756	keystroke_g	g	n/a
61.983	0.09	123966	keystroke_l	l	n/a
62.058	0.09	124116	keystroke_e	e	n/a
62.133	0.12	124266	keystroke_Key.space	Key.space	n/a
62.343	0.0905	124686	keystroke_s	s	n/a
62.523	0.075	125046	keystroke_c	c	n/a
62.748	0.075	125496	keystroke_e	e	n/a
62.853	0.105	125706	keystroke_n	n	n/a
62.943	0.0905	125886	keystroke_a	a	n/a
63.0035	0.09	126007	keystroke_r	r	n/a
63.1385	0.15	126277	keystroke_i	i	n/a
63.2135	0.12	126427	keystroke_o	o	n/a
63.3185	0.135	126637	keystroke_Key.space	Key.space	n/a
63.5135	0.12	127027	keystroke_a	a	n/a
63.6035	0.12	127207	keystroke_r	r	n/a
63.8285	0.075	127657	keystroke_a	a	n/a
63.9935	0.075	127987	keystroke_b	b	n/a
64.0535	0.105	128107	keystroke_i	i	n/a
64.2035	0.09	128407	keystroke_c	c	n/a
64.3085	0.12	128617	keystroke_Key.enter	Key.enter	n/a
64.433	6.897	128866	prompt	n/a	makeup webster represented excessive\n
65.2385	0.03	130477	keystroke_m	m	n/a
65.2535	0.06	130507	keystroke_a	a	n/a
65.3285	0.09	130657	keystroke_k	k	n/a
65.3885	0.105	130777	keystroke_e	e	n/a
65.5085	0.0745	131017	keystroke_u	u	n/a
65.628	0.105	131256	keystroke_p	p	n/a
65.688	0.135	131376	keystroke_Key.space	Key.space	n/a
65.808	0.12	131616	keystroke_w	w	n/a
65.913	0.105	131826	keystroke_e	e	n/a
66.003	0.09	132006	keystroke_b	b	n/a
66.138	0.075	132276	keystroke_s	s	n/a
66.183	0.12	132366	keystroke_t	t	n/a
66.453	0.09	132906	keystroke_e	e	n/a
66.468	0.136	132936	keystroke_r	r	n/a
66.618	0.105	133236	keystroke_Key.space	Key.space	n/a
66.888	0.135	133776	keystroke_r	r	n/a
67.548	0.0155	135096	keystroke_e	e	n/a
67.803	0.075	135606	keystroke_p	p	n/a
67.908	0.135	135816	keystroke_r	r	n/a
67.983	0.12	135966	keystroke_e	e	n/a
68.133	0.135	136266	keystroke_s	s	n/a
68.238	0.06	136476	keystroke_e	e	n/a
68.628	0.09	137256	keystroke_n	n	n/a
68.733	0.09	137466	keystroke_t	t	n/a
68.793	0.15	137586	keystroke_e	e	n/a
68.913	0.135	137826	keystroke_d	d	n/a
69.003	0.135	138006	keystroke_Key.space	Key.space	n/a
69.153	0.075	138306	keystroke_e	e	n/a
69.318	0.12	138636	keystroke_x	x	n/a
70.143	0.105	140286	keystroke_c	c	n/a
70.3685	0.074	140737	keystroke_e	e	n/a
70.6985	0.0745	141397	keystroke_s	s	n/a
70.923	0.0305	141846	keystroke_s	s	n/a
70.9385	0.0895	141877	keystroke_i	i	n/a
71.013	0.105	142026	keystroke_v	v	n/a
71.073	0.12	142146	keystroke_e	e	n/a
71.208	0.12	142416	keystroke_Key.enter	Key.enter	n/a
71.333	4.407	142666	prompt	n/a	virus northern connectors toner\n
72.048	0.075	144096	keystroke_v	v	n/a
72.138	0.09	144276	keystroke_i	i	n/a
72.228	0.075	144456	keystroke_r	r	n/a
72.333	0.09	144666	keystroke_u	u	n/a
72.363	0.105	144726	keystroke_s	s	n/a
72.453	0.09	144906	keystroke_Key.space	Key.space	n/a
72.618	0.09	145236	keystroke_n	n	n/a
72.738	0.12	145476	keystroke_o	o	n/a
72.828	0.075	145656	keystroke_r	r	n/a
72.963	0.075	145926	keystroke_t	t	n/a
73.023	0.105	146046	keystroke_h	h	n/a
73.113	0.135	146226	keystroke_e	e	n/a
73.173	0.105	146346	keystroke_r	r	n/a
73.233	0.09	146466	keystroke_n	n	n/a
73.293	0.105	146586	keystroke_Key.space	Key.space	n/a
73.623	0.09	147246	keystroke_c	c	n/a
73.668	0.06	147336	keystroke_o	o	n/a
73.803	0.075	147606	keystroke_n	n	n/a
73.938	0.09	147876	keystroke_n	n	n/a
73.983	0.105	147966	keystroke_e	e	n/a
74.523	0.09	149046	keystroke_c	c	n/a
74.793	0.075	149586	keystroke_t	t	n/a
74.883	0.09	149766	keystroke_o	o	n/a
74.958	0.12	149916	keystroke_r	r	n/a
74.988	0.12	149976	keystroke_s	s	n/a
75.093	0.105	150186	keystroke_Key.space	Key.space	n/a
75.243	0.09	150486	keystroke_t	t	n/a
75.303	0.06	150606	keystroke_o	o	n/a
75.423	0.09	150846	keystroke_n	n	n/a
75.468	0.135	150936	keystroke_e	e	n/a
75.528	0.105	151056	keystroke_r	r	n/a
75.648	0.0905	151296	keystroke_Key.enter	Key.enter	n/a
75.7435	3.476	151487	prompt	n/a	puzzles fund photos indexes\n
76.308	0.105	152616	keystroke_p	p	n/a
76.473	0.105	152946	keystroke_u	u	n/a
76.548	0.075	153096	keystroke_z	z	n/a
76.683	0.075	153366	keystroke_z	z	n/a
76.698	0.105	153396	keystroke_l	l	n/a
76.878	0.1355	153756	keystroke_e	e	n/a
76.938	0.0905	153876	keystroke_s	s	n/a
76.9985	0.09	153997	keystroke_Key.space	Key.space	n/a
77.1035	0.09	154207	keystroke_f	f	n/a
77.1785	0.075	154357	keystroke_u	u	n/a
77.2835	0.12	154567	keystroke_n	n	n/a
77.3435	0.105	154687	keystroke_d	d	n/a
77.4335	0.075	154867	keystroke_Key.space	Key.space	n/a
77.5685	0.105	155137	keystroke_p	p	n/a
77.7035	0.075	155407	keystroke_h	h	n/a
77.8385	0.075	155677	keystroke_o	o	n/a
77.9135	0.075	155827	keystroke_t	t	n/a
78.0035	0.09	156007	keystroke_o	o	n/a
78.0785	0.09	156157	keystroke_s	s	n/a
78.1235	0.105	156247	keystroke_Key.space	Key.space	n/a
78.2585	0.105	156517	keystroke_i	i	n/a
78.3185	0.135	156637	keystroke_n	n	n/a
78.3935	0.09	156787	keystroke_d	d	n/a
78.4385	0.105	156877	keystroke_e	e	n/a
78.6635	0.135	157327	keystroke_x	x	n/a
78.9185	0.1345	157837	keystroke_e	e	n/a
78.993	0.12	157986	keystroke_s	s	n/a
79.128	0.09	158256	keystroke_Key.enter	Key.enter	n/a
79.2225	3.582	158445	prompt	n/a	luke shell folder milan\n
79.8635	0.09	159727	keystroke_l	l	n/a
79.9685	0.075	159937	keystroke_u	u	n/a
80.1185	0.105	160237	keystroke_k	k	n/a
80.2385	0.075	160477	keystroke_e	e	n/a
80.3285	0.06	160657	keystroke_Key.space	Key.space	n/a
80.4185	0.105	160837	keystroke_s	s	n/a
80.5085	0.06	161017	keystroke_h	h	n/a
80.6135	0.09	161227	keystroke_e	e	n/a
80.6875	0.061	161375	keystroke_l	l	n/a
80.8085	0.09	161617	keystroke_l	l	n/a
80.8835	0.12	161767	keystroke_Key.space	Key.space	n/a
81.393	0.075	162786	keystroke_f	f	n/a
81.453	0.045	162906	keystroke_o	o	n/a
81.573	0.105	163146	keystroke_l	l	n/a
81.633	0.075	163266	keystroke_d	d	n/a
81.693	0.15	163386	keystroke_e	e	n/a
81.783	0.12	163566	keystroke_r	r	n/a
81.858	0.06	163716	keystroke_Key.space	Key.space	n/a
81.993	0.105	163986	keystroke_m	m	n/a
82.2485	0.09	164497	keystroke_i	i	n/a
82.3535	0.09	164707	keystroke_l	l	n/a
82.4735	0.105	164947	keystroke_a	a	n/a
82.563	0.0755	165126	keystroke_n	n	n/a
82.7285	0.075	165457	keystroke_Key.enter	Key.enter	n/a
82.816	6.499	165632	prompt	n/a	talking myth poetry what'll\n
83.3725	0.151	166745	keystroke_t	t	n/a
83.4785	0.12	166957	keystroke_a	a	n/a
83.5375	0.075	167075	keystroke_l	l	n/a
83.5825	0.121	167165	keystroke_k	k	n/a
83.7335	0.104	167467	keystroke_i	i	n/a
83.7935	0.105	167587	keystroke_n	n	n/a
83.8525	0.091	167705	keystroke_g	g	n/a
83.9125	0.076	167825	keystroke_Key.space	Key.space	n/a
83.9885	0.12	167977	keystroke_m	m	n/a
84.0785	0.06	168157	keystroke_y	y	n/a
84.2135	0.1045	168427	keystroke_t	t	n/a
84.288	0.09	168576	keystroke_h	h	n/a
84.348	0.09	168696	keystroke_Key.space	Key.space	n/a
84.513	0.09	169026	keystroke_p	p	n/a
84.573	0.12	169146	keystroke_o	o	n/a
84.678	0.09	169356	keystroke_e	e	n/a
84.843	0.09	169686	keystroke_t	t	n/a
84.9775	0.105	169955	keystroke_r	r	n/a
85.0225	0.106	170045	keystroke_y	y	n/a
85.0975	0.09	170195	keystroke_Key.space	Key.space	n/a
85.2485	0.1045	170497	keystroke_w	w	n/a
85.323	0.12	170646	keystroke_h	h	n/a
85.473	0.105	170946	keystroke_a	a	n/a
85.893	0.075	171786	keystroke_l	l	n/a
86.688	0.09	173376	keystroke_Key.backspace	Key.backspace	n/a
86.973	0.105	173946	keystroke_t	t	n/a
87.573	0.09	175146	keystroke_;	;	n/a
88.248	0.075	176496	keystroke_Key.backspace	Key.backspace	n/a
88.473	0.105	176946	keystroke_'	'	n/a
88.743	0.045	177486	keystroke_l	l	n/a
88.863	0.1205	177726	keystroke_l	l	n/a
89.2235	0.0895	178447	keystroke_Key.enter	Key.enter	n/a
89.318	12.867	178636	prompt	n/a	occurrence clinic quantum bell\n
89.8685	0.105	179737	keystroke_o	o	n/a
90.0035	0.075	180007	keystroke_c	c	n/a
90.1685	0.06	180337	keystroke_c	c	n/a
90.2585	0.105	180517	keystroke_u	u	n/a
90.4085	0.12	180817	keystroke_r	r	n/a
90.4835	0.105	180967	keystroke_e	e	n/a
90.6035	0.105	181207	keystroke_n	n	n/a
90.6785	0.1495	181357	keystroke_c	c	n/a
90.7385	0.1345	181477	keystroke_e	e	n/a
90.813	0.105	181626	keystroke_Key.space	Key.space	n/a
90.9785	0.12	181957	keystroke_c	c	n/a
91.0835	0.075	182167	keystroke_l	l	n/a
91.2935	0.06	182587	keystroke_i	i	n/a
91.3985	0.12	182797	keystroke_n	n	n/a
91.4585	0.09	182917	keystroke_i	i	n/a
91.5335	0.105	183067	keystroke_c	c	n/a
94.5785	0.075	189157	keystroke_Key.backspace	Key.backspace	n/a
94.879	0.089	189758	keystroke_Key.backspace	Key.backspace	n/a
95.163	0.06	190326	keystroke_Key.backspace	Key.backspace	n/a
95.448	0.075	190896	keystroke_Key.backspace	Key.backspace	n/a
95.703	0.075	191406	keystroke_Key.backspace	Key.backspace	n/a
95.943	0.09	191886	keystroke_Key.backspace	Key.backspace	n/a
96.168	0.09	192336	keystroke_Key.backspace	Key.backspace	n/a
96.378	0.09	192756	keystroke_Key.backspace	Key.backspace	n/a
96.618	0.09	193236	keystroke_Key.backspace	Key.backspace	n/a
96.828	0.09	193656	keystroke_Key.backspace	Key.backspace	n/a
97.0535	0.09	194107	keystroke_Key.backspace	Key.backspace	n/a
97.3085	0.12	194617	keystroke_r	r	n/a
97.3835	0.12	194767	keystroke_e	e	n/a
97.7735	0.075	195547	keystroke_b	b	n/a
97.8935	0.135	195787	keystroke_c	c	n/a
97.9535	0.135	195907	keystroke_e	e	n/a
98.0435	0.105	196087	keystroke_Key.space	Key.space	n/a
98.5985	0.09	197197	keystroke_Key.backspace	Key.backspace	n/a
98.8085	0.06	197617	keystroke_Key.backspace	Key.backspace	n/a
98.9885	0.03	197977	keystroke_Key.backspace	Key.backspace	n/a
99.0935	0.075	198187	keystroke_Key.backspace	Key.backspace	n/a
99.4085	0.075	198817	keystroke_n	n	n/a
99.4985	0.105	198997	keystroke_c	c	n/a
99.5135	0.105	199027	keystroke_e	e	n/a
99.5885	0.09	199177	keystroke_Key.space	Key.space	n/a
99.7235	0.12	199447	keystroke_c	c	n/a
99.7985	0.12	199597	keystroke_l	l	n/a
99.9485	0.075	199897	keystroke_i	i	n/a
100.2485	0.105	200497	keystroke_n	n	n/a
100.2935	0.12	200587	keystroke_i	i	n/a
100.3835	0.105	200767	keystroke_c	c	n/a
100.4735	0.105	200947	keystroke_Key.space	Key.space	n/a
100.7585	0.105	201517	keystroke_q	q	n/a
100.9085	0.075	201817	keystroke_u	u	n/a
100.9985	0.09	201997	keystroke_a	a	n/a
101.1035	0.09	202207	keystroke_n	n	n/a
101.1785	0.105	202357	keystroke_t	t	n/a
101.3135	0.075	202627	keystroke_u	u	n/a
101.508	0.105	203016	keystroke_m	m	n/a
101.538	0.1205	203076	keystroke_Key.space	Key.space	n/a
101.6735	0.105	203347	keystroke_b	b	n/a
101.7335	0.105	203467	keystroke_e	e	n/a
101.8235	0.045	203647	keystroke_l	l	n/a
101.9435	0.075	203887	keystroke_l	l	n/a
102.0935	0.09	204187	keystroke_Key.enter	Key.enter	n/a
102.188	5.307	204376	prompt	n/a	boulevard ain't searched grab\n
102.9035	0.105	205807	keystroke_b	b	n/a
103.0385	0.12	206077	keystroke_o	o	n/a
103.1435	0.09	206287	keystroke_u	u	n/a
103.323	0.09	206646	keystroke_l	l	n/a
103.443	0.09	206886	keystroke_e	e	n/a
103.653	0.09	207306	keystroke_c	c	n/a
104.2535	0.09	208507	keystroke_Key.backspace	Key.backspace	n/a
104.3585	0.0895	208717	keystroke_v	v	n/a
104.403	0.1205	208806	keystroke_a	a	n/a
104.583	0.076	209166	keystroke_r	r	n/a
104.779	0.0895	209558	keystroke_d	d	n/a
104.8385	0.105	209677	keystroke_Key.space	Key.space	n/a
104.9735	0.105	209947	keystroke_a	a	n/a
105.0485	0.06	210097	keystroke_i	i	n/a
105.1535	0.09	210307	keystroke_n	n	n/a
105.3785	0.06	210757	keystroke_'	'	n/a
105.4835	0.09	210967	keystroke_t	t	n/a
105.5885	0.09	211177	keystroke_Key.space	Key.space	n/a
105.9335	0.09	211867	keystroke_s	s	n/a
106.0535	0.105	212107	keystroke_e	e	n/a
106.1885	0.105	212377	keystroke_a	a	n/a
106.2635	0.075	212527	keystroke_r	r	n/a
106.4285	0.09	212857	keystroke_c	c	n/a
106.5035	0.12	213007	keystroke_h	h	n/a
106.6085	0.135	213217	keystroke_e	e	n/a
106.6685	0.135	213337	keystroke_d	d	n/a
106.7435	0.135	213487	keystroke_Key.space	Key.space	n/a
106.9235	0.0745	213847	keystroke_g	g	n/a
107.088	0.1055	214176	keystroke_r	r	n/a
107.1335	0.1055	214267	keystroke_a	a	n/a
107.1935	0.09	214387	keystroke_b	b	n/a
107.403	0.09	214806	keystroke_Key.enter	Key.enter	n/a
107.498	6.597	214996	prompt	n/a	counsel suggest alien opportunity\n
108.258	0.12	216516	keystroke_c	c	n/a
108.333	0.135	216666	keystroke_o	o	n/a
108.438	0.105	216876	keystroke_u	u	n/a
108.6335	0.0895	217267	keystroke_n	n	n/a
108.708	0.12	217416	keystroke_s	s	n/a
108.753	0.12	217506	keystroke_e	e	n/a
108.843	0.09	217686	keystroke_l	l	n/a
108.888	0.12	217776	keystroke_Key.space	Key.space	n/a
109.038	0.075	218076	keystroke_s	s	n/a
109.128	0.075	218256	keystroke_u	u	n/a
109.218	0.075	218436	keystroke_g	g	n/a
109.353	0.075	218706	keystroke_g	g	n/a
109.443	0.1205	218886	keystroke_e	e	n/a
109.458	0.1355	218916	keystroke_s	s	n/a
109.5335	0.135	219067	keystroke_t	t	n/a
109.6075	0.0905	219215	keystroke_Key.space	Key.space	n/a
109.728	0.1055	219456	keystroke_a	a	n/a
109.8485	0.075	219697	keystroke_l	l	n/a
110.4185	0.09	220837	keystroke_i	i	n/a
110.554	0.104	221108	keystroke_e	e	n/a
110.643	0.091	221286	keystroke_n	n	n/a
110.688	0.12	221376	keystroke_Key.space	Key.space	n/a
110.928	0.075	221856	keystroke_c	c	n/a
111.438	0.09	222876	keystroke_Key.backspace	Key.backspace	n/a
111.693	0.105	223386	keystroke_o	o	n/a
111.753	0.09	223506	keystroke_p	p	n/a
111.933	0.075	223866	keystroke_p	p	n/a
112.7885	0.09	225577	keystroke_o	o	n/a
113.0435	0.12	226087	keystroke_r	r	n/a
113.373	0.09	226746	keystroke_t	t	n/a
113.448	0.075	226896	keystroke_u	u	n/a
113.658	0.09	227316	keystroke_n	n	n/a
113.688	0.105	227376	keystroke_i	i	n/a
113.763	0.06	227526	keystroke_t	t	n/a
113.928	0.09	227856	keystroke_y	y	n/a
114.003	0.09	228006	keystroke_Key.enter	Key.enter	n/a
114.098	10.782	228196	prompt	n/a	gardens sports fuji securely\n
114.678	0.09	229356	keystroke_g	g	n/a
114.843	0.12	229686	keystroke_r	r	n/a
114.858	0.135	229716	keystroke_a	a	n/a
115.098	0.135	230196	keystroke_d	d	n/a
115.173	0.1055	230346	keystroke_e	e	n/a
115.2935	0.105	230587	keystroke_n	n	n/a
115.3835	0.105	230767	keystroke_s	s	n/a
115.5035	0.12	231007	keystroke_Key.space	Key.space	n/a
115.8035	0.075	231607	keystroke_s	s	n/a
115.8935	0.09	231787	keystroke_p	p	n/a
115.9685	0.105	231937	keystroke_o	o	n/a
116.0585	0.105	232117	keystroke_r	r	n/a
116.5535	0.075	233107	keystroke_Key.backspace	Key.backspace	n/a
116.7935	0.075	233587	keystroke_Key.backspace	Key.backspace	n/a
117.0335	0.09	234067	keystroke_Key.backspace	Key.backspace	n/a
117.2885	0.06	234577	keystroke_Key.backspace	Key.backspace	n/a
117.5135	0.075	235027	keystroke_Key.backspace	Key.backspace	n/a
117.7685	0.09	235537	keystroke_Key.backspace	Key.backspace	n/a
118.0235	0.075	236047	keystroke_Key.backspace	Key.backspace	n/a
118.2635	0.075	236527	keystroke_Key.backspace	Key.backspace	n/a
118.4875	0.091	236975	keystroke_Key.backspace	Key.backspace	n/a
118.6825	0.0755	237365	keystroke_Key.backspace	Key.backspace	n/a
118.893	0.105	237786	keystroke_Key.backspace	Key.backspace	n/a
119.073	0.09	238146	keystroke_a	a	n/a
119.118	0.09	238236	keystroke_r	r	n/a
119.343	0.09	238686	keystroke_d	d	n/a
119.373	0.12	238746	keystroke_e	e	n/a
119.478	0.105	238956	keystroke_n	n	n/a
119.553	0.105	239106	keystroke_s	s	n/a
119.659	0.119	239318	keystroke_Key.space	Key.space	n/a
119.793	0.105	239586	keystroke_s	s	n/a
119.868	0.0905	239736	keystroke_p	p	n/a
119.928	0.1055	239856	keystroke_o	o	n/a
119.9875	0.076	239975	keystroke_r	r	n/a
120.1235	0.105	240247	keystroke_t	t	n/a
120.1835	0.09	240367	keystroke_s	s	n/a
120.2135	0.119	240427	keystroke_Key.space	Key.space	n/a
120.769	0.089	241538	keystroke_f	f	n/a
120.873	0.075	241746	keystroke_u	u	n/a
121.084	0.104	242168	keystroke_j	j	n/a
121.173	0.09	242346	keystroke_i	i	n/a
121.233	0.1205	242466	keystroke_Key.space	Key.space	n/a
121.4135	0.15	242827	keystroke_s	s	n/a
121.5035	0.09	243007	keystroke_e	e	n/a
121.5335	0.12	243067	keystroke_r	r	n/a
121.6085	0.105	243217	keystroke_i	i	n/a
121.6835	0.135	243367	keystroke_o	o	n/a
121.8035	0.09	243607	keystroke_u	u	n/a
121.8335	0.105	243667	keystroke_s	s	n/a
122.4785	0.12	244957	keystroke_Key.backspace	Key.backspace	n/a
122.8235	0.075	245647	keystroke_Key.backspace	Key.backspace	n/a
123.078	0.09	246156	keystroke_Key.backspace	Key.backspace	n/a
123.393	0.0755	246786	keystroke_Key.backspace	Key.backspace	n/a
123.5885	0.0895	247177	keystroke_Key.backspace	Key.backspace	n/a
123.723	0.1055	247446	keystroke_c	c	n/a
124.2185	0.12	248437	keystroke_u	u	n/a
124.278	0.135	248556	keystroke_r	r	n/a
124.3535	0.1045	248707	keystroke_e	e	n/a
124.473	0.1205	248946	keystroke_l	l	n/a
124.6085	0.075	249217	keystroke_y	y	n/a
124.7585	0.12	249517	keystroke_Key.enter	Key.enter	n/a
124.8845	3.7755	249769	prompt	n/a	infants intl insulation used\n
125.598	0.09	251196	keystroke_i	i	n/a
125.778	0.09	251556	keystroke_n	n	n/a
125.869	0.119	251738	keystroke_f	f	n/a
125.913	0.105	251826	keystroke_a	a	n/a
126.019	0.104	252038	keystroke_n	n	n/a
126.093	0.105	252186	keystroke_t	t	n/a
126.199	0.089	252398	keystroke_Key.space	Key.space	n/a
126.393	0.12	252786	keystroke_i	i	n/a
126.483	0.105	252966	keystroke_n	n	n/a
126.573	0.105	253146	keystroke_t	t	n/a
126.723	0.075	253446	keystroke_l	l	n/a
126.753	0.12	253506	keystroke_Key.space	Key.space	n/a
127.053	0.09	254106	keystroke_i	i	n/a
127.173	0.105	254346	keystroke_n	n	n/a
127.323	0.09	254646	keystroke_s	s	n/a
127.443	0.1205	254886	keystroke_u	u	n/a
127.5335	0.119	255067	keystroke_l	l	n/a
127.6385	0.09	255277	keystroke_a	a	n/a
127.6825	0.121	255365	keystroke_t	t	n/a
127.7735	0.1045	255547	keystroke_i	i	n/a
127.848	0.075	255696	keystroke_o	o	n/a
127.983	0.105	255966	keystroke_n	n	n/a
128.043	0.09	256086	keystroke_Key.space	Key.space	n/a
128.208	0.09	256416	keystroke_u	u	n/a
128.328	0.12	256656	keystroke_s	s	n/a
128.374	0.134	256748	keystroke_e	e	n/a
128.449	0.134	256898	keystroke_d	d	n/a
128.553	0.105	257106	keystroke_Key.enter	Key.enter	n/a
128.6625	3.2525	257325	prompt	n/a	treating mate lots phrases\n
129.243	0.09	258486	keystroke_t	t	n/a
129.409	0.089	258818	keystroke_r	r	n/a
129.573	0.09	259146	keystroke_e	e	n/a
129.618	0.135	259236	keystroke_a	a	n/a
129.723	0.105	259446	keystroke_t	t	n/a
129.798	0.105	259596	keystroke_i	i	n/a
129.858	0.105	259716	keystroke_n	n	n/a
129.918	0.105	259836	keystroke_g	g	n/a
130.008	0.075	260016	keystroke_Key.space	Key.space	n/a
130.068	0.135	260136	keystroke_m	m	n/a
130.128	0.09	260256	keystroke_a	a	n/a
130.158	0.1205	260316	keystroke_t	t	n/a
130.233	0.1505	260466	keystroke_e	e	n/a
130.2635	0.105	260527	keystroke_Key.space	Key.space	n/a
130.3985	0.09	260797	keystroke_l	l	n/a
130.563	0.075	261126	keystroke_o	o	n/a
130.593	0.135	261186	keystroke_t	t	n/a
130.668	0.09	261336	keystroke_s	s	n/a
130.713	0.105	261426	keystroke_Key.space	Key.space	n/a
130.848	0.09	261696	keystroke_p	p	n/a
131.013	0.105	262026	keystroke_h	h	n/a
131.058	0.09	262116	keystroke_r	r	n/a
131.163	0.18	262326	keystroke_a	a	n/a
131.298	0.12	262596	keystroke_s	s	n/a
131.373	0.18	262746	keystroke_e	e	n/a
131.508	0.12	263016	keystroke_s	s	n/a
131.793	0.12	263586	keystroke_Key.enter	Key.enter	n/a
131.9185	4.256	263837	prompt	n/a	grove wind delivering depending\n
132.6325	0.09	265265	keystroke_g	g	n/a
132.8425	0.106	265685	keystroke_r	r	n/a
132.9635	0.105	265927	keystroke_o	o	n/a
133.0825	0.121	266165	keystroke_v	v	n/a
133.1285	0.12	266257	keystroke_e	e	n/a
133.1885	0.104	266377	keystroke_Key.space	Key.space	n/a
133.3385	0.09	266677	keystroke_w	w	n/a
133.3835	0.105	266767	keystroke_i	i	n/a
133.4585	0.134	266917	keystroke_n	n	n/a
133.5035	0.104	267007	keystroke_d	d	n/a
133.6235	0.089	267247	keystroke_Key.space	Key.space	n/a
133.788	0.105	267576	keystroke_d	d	n/a
134.013	0.075	268026	keystroke_e	e	n/a
134.103	0.09	268206	keystroke_l	l	n/a
134.178	0.15	268356	keystroke_i	i	n/a
134.2535	0.0595	268507	keystroke_v	v	n/a
134.3735	0.12	268747	keystroke_e	e	n/a
134.4185	0.12	268837	keystroke_r	r	n/a
134.4785	0.105	268957	keystroke_i	i	n/a
134.5535	0.12	269107	keystroke_n	n	n/a
134.6285	0.09	269257	keystroke_g	g	n/a
134.7035	0.12	269407	keystroke_Key.space	Key.space	n/a
134.9585	0.09	269917	keystroke_d	d	n/a
134.9885	0.12	269977	keystroke_e	e	n/a
135.0785	0.075	270157	keystroke_p	p	n/a
135.5135	0.0745	271027	keystroke_e	e	n/a
135.618	0.075	271236	keystroke_n	n	n/a
135.678	0.105	271356	keystroke_d	d	n/a
135.768	0.135	271536	keystroke_i	i	n/a
135.858	0.1055	271716	keystroke_n	n	n/a
135.9335	0.09	271867	keystroke_g	g	n/a
136.0835	0.09	272167	keystroke_Key.enter	Key.enter	n/a
136.1775	4.767	272355	prompt	n/a	bytes prescribed container test\n
136.8625	0.106	273725	keystroke_b	b	n/a
137.0285	0.0745	274057	keystroke_y	y	n/a
137.223	0.135	274446	keystroke_t	t	n/a
137.313	0.15	274626	keystroke_e	e	n/a
137.388	0.105	274776	keystroke_s	s	n/a
137.478	0.1205	274956	keystroke_Key.space	Key.space	n/a
137.688	0.0905	275376	keystroke_p	p	n/a
137.9435	0.105	275887	keystroke_r	r	n/a
138.0035	0.1195	276007	keystroke_e	e	n/a
138.1685	0.1345	276337	keystroke_s	s	n/a
138.543	0.075	277086	keystroke_c	c	n/a
138.738	0.06	277476	keystroke_r	r	n/a
138.813	0.12	277626	keystroke_i	i	n/a
138.918	0.075	277836	keystroke_b	b	n/a
139.068	0.12	278136	keystroke_e	e	n/a
139.128	0.09	278256	keystroke_d	d	n/a
139.203	0.09	278406	keystroke_Key.space	Key.space	n/a
139.353	0.045	278706	keystroke_c	c	n/a
139.368	0.12	278736	keystroke_o	o	n/a
139.923	0.105	279846	keystroke_n	n	n/a
140.013	0.105	280026	keystroke_t	t	n/a
140.073	0.09	280146	keystroke_a	a	n/a
140.133	0.12	280266	keystroke_i	i	n/a
140.208	0.12	280416	keystroke_n	n	n/a
140.254	0.1195	280508	keystroke_e	e	n/a
140.298	0.12	280596	keystroke_r	r	n/a
140.374	0.119	280748	keystroke_Key.space	Key.space	n/a
140.508	0.1205	281016	keystroke_t	t	n/a
140.583	0.1955	281166	keystroke_e	e	n/a
140.6135	0.135	281227	keystroke_s	s	n/a
140.6735	0.15	281347	keystroke_t	t	n/a
140.8385	0.105	281677	keystroke_Key.enter	Key.enter	n/a
140.9475	4.512	281895	prompt	n/a	dump amazon variable copied\n
141.6335	0.09	283267	keystroke_d	d	n/a
141.7535	0.075	283507	keystroke_u	u	n/a
141.9485	0.06	283897	keystroke_m	m	n/a
142.1885	0.105	284377	keystroke_p	p	n/a
142.3985	0.105	284797	keystroke_Key.space	Key.space	n/a
142.5485	0.135	285097	keystroke_a	a	n/a
142.6685	0.105	285337	keystroke_m	m	n/a
142.7885	0.075	285577	keystroke_a	a	n/a
142.983	0.09	285966	keystroke_z	z	n/a
143.028	0.075	286056	keystroke_o	o	n/a
143.133	0.105	286266	keystroke_n	n	n/a
143.208	0.12	286416	keystroke_Key.space	Key.space	n/a
143.329	0.104	286658	keystroke_v	v	n/a
143.673	0.09	287346	keystroke_a	a	n/a
143.733	0.09	287466	keystroke_r	r	n/a
143.868	0.12	287736	keystroke_i	i	n/a
143.928	0.12	287856	keystroke_a	a	n/a
144.063	0.09	288126	keystroke_b	b	n/a
144.168	0.105	288336	keystroke_l	l	n/a
144.258	0.135	288516	keystroke_e	e	n/a
144.394	0.074	288788	keystroke_Key.space	Key.space	n/a
144.798	0.105	289596	keystroke_c	c	n/a
144.873	0.075	289746	keystroke_o	o	n/a
145.0385	0.105	290077	keystroke_p	p	n/a
145.1285	0.105	290257	keystroke_i	i	n/a
145.1885	0.1195	290377	keystroke_e	e	n/a
145.2335	0.1495	290467	keystroke_d	d	n/a
145.368	0.09	290736	keystroke_Key.enter	Key.enter	n/a
145.463	4.2265	290926	prompt	n/a	ebooks cell convertible allan\n
145.998	0.0905	291996	keystroke_e	e	n/a
146.1035	0.075	292207	keystroke_b	b	n/a
146.313	0.045	292626	keystroke_o	o	n/a
146.433	0.09	292866	keystroke_o	o	n/a
146.463	0.12	292926	keystroke_k	k	n/a
146.584	0.09	293168	keystroke_s	s	n/a
146.658	0.105	293316	keystroke_Key.space	Key.space	n/a
146.808	0.06	293616	keystroke_c	c	n/a
146.853	0.15	293706	keystroke_e	e	n/a
146.914	0.074	293828	keystroke_l	l	n/a
147.048	0.105	294096	keystroke_l	l	n/a
147.108	0.12	294216	keystroke_Key.space	Key.space	n/a
147.753	0.165	295506	keystroke_c	c	n/a
147.903	0.045	295806	keystroke_o	o	n/a
148.008	0.12	296016	keystroke_n	n	n/a
148.113	0.09	296226	keystroke_v	v	n/a
148.263	0.15	296526	keystroke_e	e	n/a
148.338	0.09	296676	keystroke_r	r	n/a
148.5035	0.09	297007	keystroke_t	t	n/a
148.5785	0.105	297157	keystroke_i	i	n/a
148.6985	0.06	297397	keystroke_b	b	n/a
148.7585	0.09	297517	keystroke_l	l	n/a
148.8335	0.105	297667	keystroke_e	e	n/a
148.9225	0.0905	297845	keystroke_Key.space	Key.space	n/a
149.028	0.105	298056	keystroke_a	a	n/a
149.103	0.06	298206	keystroke_l	l	n/a
149.253	0.06	298506	keystroke_l	l	n/a
149.328	0.09	298656	keystroke_a	a	n/a
149.403	0.075	298806	keystroke_n	n	n/a
149.5985	0.09	299197	keystroke_Key.enter	Key.enter	n/a
149.6925	4.002	299385	prompt	n/a	contains mercury crossing johnston\n
150.3335	0.09	300667	keystroke_c	c	n/a
150.3785	0.075	300757	keystroke_o	o	n/a
150.4985	0.105	300997	keystroke_n	n	n/a
150.5735	0.1195	301147	keystroke_t	t	n/a
150.6335	0.0745	301267	keystroke_a	a	n/a
150.678	0.12	301356	keystroke_i	i	n/a
150.738	0.09	301476	keystroke_n	n	n/a
150.783	0.12	301566	keystroke_s	s	n/a
150.888	0.09	301776	keystroke_Key.space	Key.space	n/a
150.963	0.09	301926	keystroke_m	m	n/a
151.008	0.105	302016	keystroke_e	e	n/a
151.068	0.075	302136	keystroke_r	r	n/a
151.233	0.105	302466	keystroke_c	c	n/a
151.308	0.105	302616	keystroke_u	u	n/a
151.503	0.12	303006	keystroke_r	r	n/a
151.608	0.09	303216	keystroke_y	y	n/a
151.638	0.105	303276	keystroke_Key.space	Key.space	n/a
151.893	0.075	303786	keystroke_c	c	n/a
152.058	0.09	304116	keystroke_r	r	n/a
152.163	0.09	304326	keystroke_o	o	n/a
152.238	0.075	304476	keystroke_s	s	n/a
152.403	0.06	304806	keystroke_s	s	n/a
152.418	0.09	304836	keystroke_i	i	n/a
152.448	0.135	304896	keystroke_n	n	n/a
152.568	0.075	305136	keystroke_g	g	n/a
152.613	0.105	305226	keystroke_Key.space	Key.space	n/a
152.808	0.15	305616	keystroke_j	j	n/a
152.943	0.1055	305886	keystroke_o	o	n/a
153.0635	0.105	306127	keystroke_h	h	n/a
153.1835	0.075	306367	keystroke_n	n	n/a
153.2725	0.105	306545	keystroke_s	s	n/a
153.3185	0.104	306637	keystroke_t	t	n/a
153.3635	0.119	306727	keystroke_o	o	n/a
153.4675	0.06	306935	keystroke_n	n	n/a
153.5875	0.105	307175	keystroke_Key.enter	Key.enter	n/a
153.698	4.3465	307396	prompt	n/a	lopez sponsors omega engineering\n
154.2625	0.105	308525	keystroke_l	l	n/a
154.4725	0.075	308945	keystroke_o	o	n/a
154.6525	0.075	309305	keystroke_p	p	n/a
154.833	0.12	309666	keystroke_e	e	n/a
154.893	0.1055	309786	keystroke_z	z	n/a
155.0135	0.1045	310027	keystroke_Key.space	Key.space	n/a
155.1935	0.1045	310387	keystroke_s	s	n/a
155.2535	0.105	310507	keystroke_p	p	n/a
155.3435	0.1045	310687	keystroke_o	o	n/a
155.5535	0.09	311107	keystroke_n	n	n/a
155.6285	0.075	311257	keystroke_s	s	n/a
155.7185	0.1045	311437	keystroke_o	o	n/a
155.793	0.12	311586	keystroke_r	r	n/a
155.868	0.105	311736	keystroke_s	s	n/a
155.928	0.1055	311856	keystroke_Key.space	Key.space	n/a
156.1385	0.075	312277	keystroke_o	o	n/a
156.2435	0.12	312487	keystroke_m	m	n/a
156.3185	0.09	312637	keystroke_e	e	n/a
156.3785	0.15	312757	keystroke_g	g	n/a
156.4835	0.09	312967	keystroke_a	a	n/a
156.5435	0.09	313087	keystroke_Key.space	Key.space	n/a
156.6935	0.105	313387	keystroke_e	e	n/a
156.8135	0.105	313627	keystroke_n	n	n/a
156.963	0.09	313926	keystroke_g	g	n/a
157.068	0.105	314136	keystroke_i	i	n/a
157.143	0.105	314286	keystroke_n	n	n/a
157.218	0.12	314436	keystroke_e	e	n/a
157.398	0.105	314796	keystroke_e	e	n/a
157.458	0.1355	314916	keystroke_r	r	n/a
157.5785	0.105	315157	keystroke_i	i	n/a
157.6385	0.105	315277	keystroke_n	n	n/a
157.7285	0.09	315457	keystroke_g	g	n/a
157.9685	0.075	315937	keystroke_Key.enter	Key.enter	n/a
158.0475	3.687	316095	prompt	n/a	nepal severe groups late\n
158.7185	0.015	317437	keystroke_n	n	n/a
158.7785	0.0895	317557	keystroke_e	e	n/a
158.883	0.075	317766	keystroke_p	p	n/a
158.988	0.12	317976	keystroke_a	a	n/a
159.093	0.09	318186	keystroke_l	l	n/a
159.138	0.105	318276	keystroke_Key.space	Key.space	n/a
159.438	0.06	318876	keystroke_s	s	n/a
159.648	0.09	319296	keystroke_e	e	n/a
159.828	0.105	319656	keystroke_v	v	n/a
159.993	0.105	319986	keystroke_e	e	n/a
160.068	0.135	320136	keystroke_r	r	n/a
160.173	0.09	320346	keystroke_e	e	n/a
160.278	0.105	320556	keystroke_Key.space	Key.space	n/a
160.653	0.075	321306	keystroke_g	g	n/a
160.803	0.12	321606	keystroke_r	r	n/a
160.908	0.09	321816	keystroke_o	o	n/a
161.013	0.075	322026	keystroke_u	u	n/a
161.133	0.09	322266	keystroke_p	p	n/a
161.178	0.0905	322356	keystroke_s	s	n/a
161.238	0.0905	322476	keystroke_Key.space	Key.space	n/a
161.3585	0.09	322717	keystroke_l	l	n/a
161.3885	0.12	322777	keystroke_a	a	n/a
161.4485	0.119	322897	keystroke_t	t	n/a
161.5235	0.1345	323047	keystroke_e	e	n/a
161.628	0.105	323256	keystroke_Key.enter	Key.enter	n/a
161.738	3.822	323476	prompt	n/a	summit naked global statewide\n
162.393	0.075	324786	keystroke_s	s	n/a
162.438	0.045	324876	keystroke_u	u	n/a
162.618	0.06	325236	keystroke_m	m	n/a
162.738	0.135	325476	keystroke_m	m	n/a
162.783	0.135	325566	keystroke_i	i	n/a
162.888	0.09	325776	keystroke_t	t	n/a
162.9635	0.0595	325927	keystroke_Key.space	Key.space	n/a
163.053	0.105	326106	keystroke_n	n	n/a
163.143	0.105	326286	keystroke_a	a	n/a
163.233	0.09	326466	keystroke_k	k	n/a
163.293	0.15	326586	keystroke_e	e	n/a
163.383	0.105	326766	keystroke_d	d	n/a
163.428	0.105	326856	keystroke_Key.space	Key.space	n/a
163.728	0.105	327456	keystroke_g	g	n/a
163.818	0.075	327636	keystroke_l	l	n/a
163.983	0.075	327966	keystroke_o	o	n/a
164.013	0.135	328026	keystroke_b	b	n/a
164.073	0.12	328146	keystroke_a	a	n/a
164.133	0.105	328266	keystroke_l	l	n/a
164.208	0.09	328416	keystroke_Key.space	Key.space	n/a
164.4785	0.12	328957	keystroke_s	s	n/a
164.6135	0.045	329227	keystroke_t	t	n/a
164.7785	0.0745	329557	keystroke_a	a	n/a
164.7935	0.135	329587	keystroke_t	t	n/a
164.8985	0.105	329797	keystroke_e	e	n/a
165.0935	0.105	330187	keystroke_w	w	n/a
165.2285	0.105	330457	keystroke_i	i	n/a
165.3035	0.135	330607	keystroke_d	d	n/a
165.3635	0.135	330727	keystroke_e	e	n/a
165.4835	0.075	330967	keystroke_Key.enter	Key.enter	n/a
165.563	4.2715	331126	prompt	n/a	mail emily portraits intimate\n
166.4285	0.105	332857	keystroke_m	m	n/a
166.5035	0.105	333007	keystroke_a	a	n/a
166.6535	0.135	333307	keystroke_i	i	n/a
166.6985	0.105	333397	keystroke_l	l	n/a
166.7585	0.105	333517	keystroke_Key.space	Key.space	n/a
166.8935	0.1045	333787	keystroke_e	e	n/a
166.9535	0.0745	333907	keystroke_m	m	n/a
167.133	0.105	334266	keystroke_i	i	n/a
167.178	0.12	334356	keystroke_l	l	n/a
167.268	0.09	334536	keystroke_y	y	n/a
167.313	0.09	334626	keystroke_Key.space	Key.space	n/a
167.448	0.105	334896	keystroke_p	p	n/a
167.493	0.12	334986	keystroke_o	o	n/a
167.583	0.09	335166	keystroke_r	r	n/a
167.778	0.105	335556	keystroke_t	t	n/a
168.123	0.135	336246	keystroke_r	r	n/a
168.183	0.105	336366	keystroke_a	a	n/a
168.303	0.09	336606	keystroke_i	i	n/a
168.408	0.1345	336816	keystroke_t	t	n/a
168.4675	0.105	336935	keystroke_s	s	n/a
168.5275	0.09	337055	keystroke_Key.space	Key.space	n/a
168.7225	0.09	337445	keystroke_i	i	n/a
168.8885	0.1045	337777	keystroke_n	n	n/a
169.263	0.105	338526	keystroke_t	t	n/a
169.353	0.06	338706	keystroke_i	i	n/a
169.458	0.12	338916	keystroke_m	m	n/a
169.518	0.09	339036	keystroke_a	a	n/a
169.548	0.12	339096	keystroke_t	t	n/a
169.623	0.12	339246	keystroke_e	e	n/a
169.728	0.105	339456	keystroke_Key.enter	Key.enter	n/a
169.837	5.6675	339674	prompt	n/a	addressed theft pacific highlights\n
170.4635	0.105	340927	keystroke_a	a	n/a
170.5225	0.075	341045	keystroke_d	d	n/a
170.6875	0.045	341375	keystroke_d	d	n/a
171.0935	0.105	342187	keystroke_r	r	n/a
171.153	0.1205	342306	keystroke_e	e	n/a
171.3485	0.12	342697	keystroke_s	s	n/a
171.6035	0.135	343207	keystroke_s	s	n/a
171.7235	0.135	343447	keystroke_e	e	n/a
171.7835	0.105	343567	keystroke_d	d	n/a
171.9035	0.12	343807	keystroke_Key.space	Key.space	n/a
172.1435	0.09	344287	keystroke_t	t	n/a
172.2185	0.12	344437	keystroke_h	h	n/a
172.2935	0.15	344587	keystroke_e	e	n/a
172.3835	0.09	344767	keystroke_f	f	n/a
172.5625	0.106	345125	keystroke_t	t	n/a
172.6375	0.105	345275	keystroke_Key.space	Key.space	n/a
172.8185	0.12	345637	keystroke_p	p	n/a
172.9075	0.1205	345815	keystroke_a	a	n/a
172.968	0.12	345936	keystroke_c	c	n/a
173.163	0.105	346326	keystroke_i	i	n/a
173.478	0.075	346956	keystroke_f	f	n/a
173.553	0.105	347106	keystroke_i	i	n/a
173.688	0.105	347376	keystroke_c	c	n/a
173.778	0.075	347556	keystroke_Key.space	Key.space	n/a
173.973	0.09	347946	keystroke_h	h	n/a
174.423	0.105	348846	keystroke_i	i	n/a
174.558	0.135	349116	keystroke_g	g	n/a
174.648	0.09	349296	keystroke_h	h	n/a
174.9035	0.105	349807	keystroke_l	l	n/a
174.9935	0.105	349987	keystroke_i	i	n/a
175.0835	0.06	350167	keystroke_g	g	n/a
175.1885	0.0895	350377	keystroke_h	h	n/a
175.2335	0.1195	350467	keystroke_t	t	n/a
175.308	0.105	350616	keystroke_s	s	n/a
175.398	0.105	350796	keystroke_Key.enter	Key.enter	n/a
175.51	4.3595	351020	prompt	n/a	sara francis style activity\n
176.103	0.1205	352206	keystroke_s	s	n/a
176.1635	0.09	352327	keystroke_a	a	n/a
176.2835	0.105	352567	keystroke_r	r	n/a
176.3435	0.12	352687	keystroke_a	a	n/a
176.4335	0.105	352867	keystroke_Key.space	Key.space	n/a
176.5835	0.0595	353167	keystroke_f	f	n/a
176.733	0.105	353466	keystroke_r	r	n/a
176.793	0.105	353586	keystroke_a	a	n/a
176.883	0.1355	353766	keystroke_n	n	n/a
176.958	0.1055	353916	keystroke_i	i	n/a
177.0485	0.12	354097	keystroke_c	c	n/a
177.1535	0.12	354307	keystroke_Key.space	Key.space	n/a
177.3335	0.12	354667	keystroke_s	s	n/a
177.5585	0.06	355117	keystroke_t	t	n/a
177.6935	0.09	355387	keystroke_y	y	n/a
177.7385	0.135	355477	keystroke_l	l	n/a
177.8585	0.105	355717	keystroke_e	e	n/a
177.9185	0.1195	355837	keystroke_Key.space	Key.space	n/a
178.068	0.105	356136	keystroke_a	a	n/a
178.128	0.105	356256	keystroke_c	c	n/a
178.413	0.075	356826	keystroke_t	t	n/a
178.848	0.075	357696	keystroke_i	i	n/a
178.968	0.09	357936	keystroke_v	v	n/a
179.4035	0.09	358807	keystroke_i	i	n/a
179.5085	0.075	359017	keystroke_t	t	n/a
179.6735	0.09	359347	keystroke_y	y	n/a
179.7785	0.09	359557	keystroke_Key.enter	Key.enter	n/a
179.8725	3.372	359745	prompt	n/a	terror ports mouth currency\n
180.588	0.075	361176	keystroke_t	t	n/a
180.723	0.12	361446	keystroke_e	e	n/a
180.783	0.075	361566	keystroke_r	r	n/a
180.918	0.105	361836	keystroke_r	r	n/a
181.008	0.075	362016	keystroke_o	o	n/a
181.098	0.075	362196	keystroke_r	r	n/a
181.128	0.105	362256	keystroke_Key.space	Key.space	n/a
181.248	0.09	362496	keystroke_p	p	n/a
181.308	0.1205	362616	keystroke_o	o	n/a
181.3535	0.075	362707	keystroke_r	r	n/a
181.5035	0.12	363007	keystroke_t	t	n/a
181.5335	0.135	363067	keystroke_s	s	n/a
181.6085	0.075	363217	keystroke_Key.space	Key.space	n/a
181.7435	0.105	363487	keystroke_m	m	n/a
181.9235	0.075	363847	keystroke_o	o	n/a
181.9835	0.075	363967	keystroke_u	u	n/a
182.0435	0.09	364087	keystroke_t	t	n/a
182.1485	0.075	364297	keystroke_h	h	n/a
182.1785	0.105	364357	keystroke_Key.space	Key.space	n/a
182.2985	0.09	364597	keystroke_c	c	n/a
182.3735	0.09	364747	keystroke_u	u	n/a
182.5235	0.06	365047	keystroke_r	r	n/a
182.6435	0.09	365287	keystroke_r	r	n/a
182.6885	0.09	365377	keystroke_e	e	n/a
182.7485	0.09	365497	keystroke_n	n	n/a
182.8685	0.1195	365737	keystroke_c	c	n/a
182.973	0.075	365946	keystroke_y	y	n/a
183.168	0.075	366336	keystroke_Key.enter	Key.enter	n/a
183.248	5.3665	366496	prompt	n/a	sitemap minor arlington moon\n
183.9625	0.09	367925	keystroke_s	s	n/a
184.0975	0.106	368195	keystroke_i	i	n/a
184.4575	0.121	368915	keystroke_t	t	n/a
184.5325	0.09	369065	keystroke_e	e	n/a
184.6075	0.09	369215	keystroke_m	m	n/a
184.7125	0.091	369425	keystroke_a	a	n/a
184.7885	0.105	369577	keystroke_p	p	n/a
184.8635	0.075	369727	keystroke_Key.space	Key.space	n/a
184.9985	0.12	369997	keystroke_m	m	n/a
185.0885	0.105	370177	keystroke_i	i	n/a
185.2085	0.074	370417	keystroke_n	n	n/a
185.3135	0.105	370627	keystroke_o	o	n/a
185.4025	0.106	370805	keystroke_r	r	n/a
185.5225	0.091	371045	keystroke_Key.space	Key.space	n/a
185.7035	0.104	371407	keystroke_a	a	n/a
185.7625	0.121	371525	keystroke_r	r	n/a
185.8375	0.121	371675	keystroke_l	l	n/a
185.9425	0.09	371885	keystroke_i	i	n/a
186.0785	0.075	372157	keystroke_g	g	n/a
187.113	0.09	374226	keystroke_Key.backspace	Key.backspace	n/a
187.338	0.09	374676	keystroke_n	n	n/a
187.383	0.075	374766	keystroke_g	g	n/a
187.563	0.091	375126	keystroke_t	t	n/a
187.593	0.075	375186	keystroke_o	o	n/a
187.728	0.09	375456	keystroke_n	n	n/a
187.803	0.09	375606	keystroke_Key.space	Key.space	n/a
187.953	0.09	375906	keystroke_m	m	n/a
188.133	0.06	376266	keystroke_o	o	n/a
188.238	0.09	376476	keystroke_o	o	n/a
188.373	0.06	376746	keystroke_n	n	n/a
188.508	0.105	377016	keystroke_Key.enter	Key.enter	n/a
188.618	5.2765	377236	prompt	n/a	possess thanksgiving velvet operator\n
189.303	0.09	378606	keystroke_p	p	n/a
189.363	0.1045	378726	keystroke_o	o	n/a
189.4825	0.075	378965	keystroke_s	s	n/a
189.633	0.075	379266	keystroke_s	s	n/a
189.753	0.1055	379506	keystroke_e	e	n/a
189.8135	0.06	379627	keystroke_s	s	n/a
189.933	0.12	379866	keystroke_s	s	n/a
190.038	0.12	380076	keystroke_Key.space	Key.space	n/a
190.218	0.105	380436	keystroke_t	t	n/a
190.308	0.105	380616	keystroke_h	h	n/a
190.428	0.105	380856	keystroke_a	a	n/a
190.503	0.105	381006	keystroke_n	n	n/a
190.548	0.105	381096	keystroke_k	k	n/a
190.623	0.09	381246	keystroke_s	s	n/a
190.788	0.09	381576	keystroke_g	g	n/a
190.893	0.0755	381786	keystroke_i	i	n/a
190.983	0.09	381966	keystroke_v	v	n/a
191.028	0.12	382056	keystroke_i	i	n/a
191.088	0.12	382176	keystroke_n	n	n/a
191.178	0.09	382356	keystroke_g	g	n/a
191.253	0.12	382506	keystroke_Key.space	Key.space	n/a
191.403	0.105	382806	keystroke_v	v	n/a
191.463	0.105	382926	keystroke_e	e	n/a
191.538	0.0905	383076	keystroke_l	l	n/a
191.6435	0.089	383287	keystroke_v	v	n/a
191.7635	0.165	383527	keystroke_e	e	n/a
191.8535	0.119	383707	keystroke_t	t	n/a
191.9575	0.09	383915	keystroke_Key.space	Key.space	n/a
192.1235	0.135	384247	keystroke_o	o	n/a
192.1975	0.106	384395	keystroke_p	p	n/a
192.2435	0.119	384487	keystroke_e	e	n/a
192.3035	0.104	384607	keystroke_r	r	n/a
192.4225	0.105	384845	keystroke_a	a	n/a
192.4825	0.12	384965	keystroke_t	t	n/a
192.5425	0.105	385085	keystroke_i	i	n/a
192.6175	0.075	385235	keystroke_o	o	n/a
193.3535	0.044	386707	keystroke_Key.backspace	Key.backspace	n/a
193.4125	0.0755	386825	keystroke_Key.backspace	Key.backspace	n/a
193.593	0.105	387186	keystroke_o	o	n/a
193.668	0.09	387336	keystroke_r	r	n/a
193.803	0.09	387606	keystroke_Key.enter	Key.enter	n/a
193.898	8.4265	387796	prompt	n/a	belong pichunter blackberry losing\n
194.598	0.03	389196	keystroke_e	e	n/a
194.613	0.03	389226	keystroke_l	l	n/a
195.003	0.075	390006	keystroke_Key.backspace	Key.backspace	n/a
195.123	0.09	390246	keystroke_Key.backspace	Key.backspace	n/a
195.198	0.075	390396	keystroke_b	b	n/a
195.228	0.12	390456	keystroke_e	e	n/a
195.318	0.075	390636	keystroke_l	l	n/a
195.468	0.09	390936	keystroke_o	o	n/a
195.543	0.105	391086	keystroke_n	n	n/a
195.603	0.105	391206	keystroke_g	g	n/a
195.678	0.12	391356	keystroke_Key.space	Key.space	n/a
195.888	0.09	391776	keystroke_p	p	n/a
195.948	0.12	391896	keystroke_i	i	n/a
196.053	0.09	392106	keystroke_c	c	n/a
196.218	0.09	392436	keystroke_h	h	n/a
196.593	0.09	393186	keystroke_u	u	n/a
196.758	0.12	393516	keystroke_n	n	n/a
196.848	0.09	393696	keystroke_t	t	n/a
196.968	0.15	393936	keystroke_e	e	n/a
197.028	0.165	394056	keystroke_r	r	n/a
197.238	0.1195	394476	keystroke_Key.space	Key.space	n/a
199.566	0.012	399132	keystroke_b	b	n/a
199.683	0.105	399366	keystroke_l	l	n/a
199.773	0.105	399546	keystroke_k	k	n/a
199.848	0.09	399696	keystroke_a	a	n/a
199.893	0.09	399786	keystroke_c	c	n/a
200.058	0.075	400116	keystroke_b	b	n/a
200.148	0.105	400296	keystroke_e	e	n/a
200.223	0.06	400446	keystroke_r	r	n/a
200.343	0.12	400686	keystroke_r	r	n/a
200.418	0.105	400836	keystroke_y	y	n/a
200.464	0.104	400928	keystroke_Key.space	Key.space	n/a
200.658	0.075	401316	keystroke_l	l	n/a
200.838	0.09	401676	keystroke_o	o	n/a
200.913	0.105	401826	keystroke_s	s	n/a
201.033	0.12	402066	keystroke_i	i	n/a
201.093	0.1205	402186	keystroke_n	n	n/a
201.1985	0.105	402397	keystroke_g	g	n/a
202.218	0.105	404436	keystroke_Key.enter	Key.enter	n/a
202.328	4.9315	404656	prompt	n/a	reproduced his bars raises\n
202.983	0.12	405966	keystroke_r	r	n/a
203.043	0.12	406086	keystroke_e	e	n/a
203.268	0.12	406536	keystroke_p	p	n/a
203.763	0.105	407526	keystroke_r	r	n/a
203.853	0.105	407706	keystroke_o	o	n/a
204.048	0.075	408096	keystroke_d	d	n/a
204.138	0.105	408276	keystroke_u	u	n/a
204.258	0.075	408516	keystroke_c	c	n/a
204.393	0.135	408786	keystroke_e	e	n/a
204.453	0.135	408906	keystroke_d	d	n/a
204.513	0.09	409026	keystroke_Key.space	Key.space	n/a
204.633	0.12	409266	keystroke_h	h	n/a
204.708	0.105	409416	keystroke_i	i	n/a
204.798	0.09	409596	keystroke_s	s	n/a
204.843	0.09	409686	keystroke_Key.space	Key.space	n/a
205.038	0.12	410076	keystroke_b	b	n/a
205.128	0.1055	410256	keystroke_a	a	n/a
205.188	0.15	410376	keystroke_r	r	n/a
205.293	0.135	410586	keystroke_s	s	n/a
205.383	0.12	410766	keystroke_Key.space	Key.space	n/a
205.518	0.135	411036	keystroke_r	r	n/a
205.638	0.12	411276	keystroke_i	i	n/a
205.818	0.105	411636	keystroke_a	a	n/a
206.373	0.075	412746	keystroke_Key.backspace	Key.backspace	n/a
206.508	0.09	413016	keystroke_Key.backspace	Key.backspace	n/a
206.6135	0.105	413227	keystroke_a	a	n/a
206.7335	0.12	413467	keystroke_i	i	n/a
206.8385	0.09	413677	keystroke_s	s	n/a
206.9135	0.165	413827	keystroke_e	e	n/a
207.0185	0.09	414037	keystroke_s	s	n/a
207.1535	0.105	414307	keystroke_Key.enter	Key.enter	n/a
207.2625	6.177	414525	prompt	n/a	nutrition imaging varying clicks\n
208.053	0.15	416106	keystroke_n	n	n/a
208.173	0.075	416346	keystroke_u	u	n/a
208.263	0.135	416526	keystroke_t	t	n/a
208.338	0.12	416676	keystroke_r	r	n/a
208.578	0.105	417156	keystroke_i	i	n/a
208.788	0.105	417576	keystroke_t	t	n/a
208.908	0.09	417816	keystroke_i	i	n/a
208.953	0.075	417906	keystroke_o	o	n/a
209.133	0.09	418266	keystroke_n	n	n/a
209.193	0.12	418386	keystroke_Key.space	Key.space	n/a
209.403	0.075	418806	keystroke_i	i	n/a
209.523	0.1205	419046	keystroke_m	m	n/a
209.5985	0.105	419197	keystroke_a	a	n/a
209.6585	0.105	419317	keystroke_g	g	n/a
209.718	0.105	419436	keystroke_i	i	n/a
209.778	0.12	419556	keystroke_n	n	n/a
209.8535	0.0895	419707	keystroke_g	g	n/a
209.928	0.135	419856	keystroke_Key.space	Key.space	n/a
210.123	0.09	420246	keystroke_v	v	n/a
210.288	0.12	420576	keystroke_a	a	n/a
210.363	0.09	420726	keystroke_r	r	n/a
210.573	0.09	421146	keystroke_y	y	n/a
210.798	0.12	421596	keystroke_i	i	n/a
210.888	0.1355	421776	keystroke_n	n	n/a
211.038	0.105	422076	keystroke_Key.space	Key.space	n/a
211.218	0.0905	422436	keystroke_c	c	n/a
212.0285	0.06	424057	keystroke_Key.backspace	Key.backspace	n/a
212.1635	0.09	424327	keystroke_Key.backspace	Key.backspace	n/a
212.2985	0.075	424597	keystroke_g	g	n/a
212.3585	0.12	424717	keystroke_Key.space	Key.space	n/a
212.5385	0.12	425077	keystroke_c	c	n/a
212.6285	0.12	425257	keystroke_l	l	n/a
212.7035	0.12	425407	keystroke_i	i	n/a
212.8535	0.09	425707	keystroke_c	c	n/a
212.988	0.09	425976	keystroke_k	k	n/a
213.243	0.09	426486	keystroke_s	s	n/a
213.348	0.09	426696	keystroke_Key.enter	Key.enter	n/a
213.4425	4.062	426885	prompt	n/a	junior guardian input warrior\n
214.068	0.105	428136	keystroke_j	j	n/a
214.278	0.06	428556	keystroke_u	u	n/a
214.413	0.09	428826	keystroke_n	n	n/a
214.593	0.105	429186	keystroke_i	i	n/a
214.638	0.105	429276	keystroke_o	o	n/a
214.683	0.09	429366	keystroke_r	r	n/a
214.758	0.1195	429516	keystroke_Key.space	Key.space	n/a
214.8935	0.09	429787	keystroke_g	g	n/a
215.0435	0.105	430087	keystroke_u	u	n/a
215.1775	0.091	430355	keystroke_a	a	n/a
215.2385	0.075	430477	keystroke_r	r	n/a
215.3885	0.09	430777	keystroke_d	d	n/a
215.4635	0.089	430927	keystroke_i	i	n/a
215.5975	0.075	431195	keystroke_a	a	n/a
215.6135	0.104	431227	keystroke_n	n	n/a
215.6875	0.09	431375	keystroke_Key.space	Key.space	n/a
215.898	0.09	431796	keystroke_i	i	n/a
216.003	0.105	432006	keystroke_n	n	n/a
216.198	0.075	432396	keystroke_p	p	n/a
216.303	0.105	432606	keystroke_u	u	n/a
216.333	0.09	432666	keystroke_t	t	n/a
216.438	0.12	432876	keystroke_Key.space	Key.space	n/a
216.573	0.105	433146	keystroke_w	w	n/a
216.888	0.1045	433776	keystroke_a	a	n/a
216.963	0.0745	433926	keystroke_r	r	n/a
217.0975	0.106	434195	keystroke_r	r	n/a
217.1575	0.12	434315	keystroke_i	i	n/a
217.2185	0.09	434437	keystroke_o	o	n/a
217.2925	0.106	434585	keystroke_r	r	n/a
217.3985	0.1045	434797	keystroke_Key.enter	Key.enter	n/a
217.5075	3.777	435015	prompt	n/a	soldiers cost railroad hello\n
218.163	0.03	436326	keystroke_s	s	n/a
218.208	0.09	436416	keystroke_o	o	n/a
218.373	0.09	436746	keystroke_l	l	n/a
218.433	0.135	436866	keystroke_d	d	n/a
218.703	0.15	437406	keystroke_i	i	n/a
218.748	0.12	437496	keystroke_e	e	n/a
218.793	0.165	437586	keystroke_r	r	n/a
218.928	0.12	437856	keystroke_s	s	n/a
219.093	0.09	438186	keystroke_Key.space	Key.space	n/a
219.198	0.09	438396	keystroke_c	c	n/a
219.258	0.105	438516	keystroke_o	o	n/a
219.363	0.105	438726	keystroke_s	s	n/a
219.423	0.09	438846	keystroke_t	t	n/a
219.483	0.09	438966	keystroke_Key.space	Key.space	n/a
219.618	0.105	439236	keystroke_r	r	n/a
219.663	0.12	439326	keystroke_a	a	n/a
219.723	0.12	439446	keystroke_i	i	n/a
219.798	0.09	439596	keystroke_l	l	n/a
220.098	0.105	440196	keystroke_r	r	n/a
220.2625	0.105	440525	keystroke_o	o	n/a
220.3225	0.135	440645	keystroke_a	a	n/a
220.3975	0.12	440795	keystroke_d	d	n/a
220.4725	0.075	440945	keystroke_Key.space	Key.space	n/a
220.6075	0.105	441215	keystroke_h	h	n/a
220.6985	0.104	441397	keystroke_e	e	n/a
220.8035	0.059	441607	keystroke_l	l	n/a
220.9225	0.06	441845	keystroke_l	l	n/a
221.0725	0.076	442145	keystroke_o	o	n/a
221.1935	0.0895	442387	keystroke_Key.enter	Key.enter	n/a
221.288	5.4115	442576	prompt	n/a	understanding linux nintendo sandra\n
221.8975	0.06	443795	keystroke_u	u	n/a
222.003	0.1195	444006	keystroke_n	n	n/a
222.048	0.1345	444096	keystroke_d	d	n/a
222.1675	0.09	444335	keystroke_e	e	n/a
222.2425	0.105	444485	keystroke_r	r	n/a
222.3775	0.135	444755	keystroke_s	s	n/a
222.4675	0.12	444935	keystroke_t	t	n/a
222.5425	0.105	445085	keystroke_a	a	n/a
222.6175	0.09	445235	keystroke_n	n	n/a
222.7225	0.09	445445	keystroke_d	d	n/a
222.7675	0.12	445535	keystroke_i	i	n/a
222.8275	0.136	445655	keystroke_n	n	n/a
222.9175	0.091	445835	keystroke_g	g	n/a
222.9935	0.09	445987	keystroke_Key.space	Key.space	n/a
223.0685	0.105	446137	keystroke_l	l	n/a
223.1885	0.105	446377	keystroke_u	u	n/a
224.103	0.045	448206	keystroke_Key.backspace	Key.backspace	n/a
224.163	0.09	448326	keystroke_i	i	n/a
224.298	0.1955	448596	keystroke_n	n	n/a
224.4485	0.105	448897	keystroke_u	u	n/a
224.5385	0.105	449077	keystroke_x	x	n/a
224.6585	0.105	449317	keystroke_Key.space	Key.space	n/a
224.8535	0.105	449707	keystroke_n	n	n/a
224.988	0.12	449976	keystroke_i	i	n/a
225.123	0.09	450246	keystroke_n	n	n/a
225.243	0.135	450486	keystroke_t	t	n/a
225.318	0.105	450636	keystroke_e	e	n/a
225.408	0.09	450816	keystroke_n	n	n/a
225.528	0.105	451056	keystroke_d	d	n/a
225.588	0.1045	451176	keystroke_o	o	n/a
225.648	0.1345	451296	keystroke_Key.space	Key.space	n/a
225.7975	0.12	451595	keystroke_s	s	n/a
225.8575	0.105	451715	keystroke_a	a	n/a
225.9475	0.075	451895	keystroke_n	n	n/a
226.0375	0.09	452075	keystroke_d	d	n/a
226.2175	0.09	452435	keystroke_r	r	n/a
226.2475	0.135	452495	keystroke_a	a	n/a
226.623	0.075	453246	keystroke_Key.enter	Key.enter	n/a
226.7025	4.962	453405	prompt	n/a	wants volumes courtesy zshops\n
227.2385	0.12	454477	keystroke_w	w	n/a
227.2985	0.105	454597	keystroke_a	a	n/a
227.4185	0.105	454837	keystroke_n	n	n/a
227.4785	0.12	454957	keystroke_t	t	n/a
227.5235	0.12	455047	keystroke_s	s	n/a
227.6135	0.09	455227	keystroke_Key.space	Key.space	n/a
227.7475	0.106	455495	keystroke_v	v	n/a
227.7785	0.09	455557	keystroke_o	o	n/a
227.9435	0.12	455887	keystroke_l	l	n/a
228.0485	0.06	456097	keystroke_u	u	n/a
228.2285	0.105	456457	keystroke_m	m	n/a
228.2585	0.135	456517	keystroke_e	e	n/a
228.3185	0.1045	456637	keystroke_s	s	n/a
228.4085	0.1045	456817	keystroke_Key.space	Key.space	n/a
228.543	0.12	457086	keystroke_c	c	n/a
228.6335	0.1195	457267	keystroke_o	o	n/a
228.723	0.09	457446	keystroke_u	u	n/a
228.918	0.105	457836	keystroke_r	r	n/a
229.113	0.12	458226	keystroke_t	t	n/a
229.203	0.18	458406	keystroke_e	e	n/a
229.263	0.12	458526	keystroke_s	s	n/a
229.338	0.135	458676	keystroke_t	t	n/a
230.1185	0.075	460237	keystroke_Key.backspace	Key.backspace	n/a
230.2535	0.12	460507	keystroke_y	y	n/a
230.3885	0.09	460777	keystroke_Key.space	Key.space	n/a
230.6435	0.09	461287	keystroke_z	z	n/a
230.8385	0.105	461677	keystroke_s	s	n/a
231.0785	0.0745	462157	keystroke_h	h	n/a
231.138	0.12	462276	keystroke_o	o	n/a
231.198	0.105	462396	keystroke_p	p	n/a
231.273	0.09	462546	keystroke_s	s	n/a
231.558	0.105	463116	keystroke_Key.enter	Key.enter	n/a
231.6695	6.805	463339	prompt	n/a	responded discipline second introductory\n
232.473	0.135	464946	keystroke_r	r	n/a
232.533	0.1645	465066	keystroke_e	e	n/a
232.6085	0.134	465217	keystroke_s	s	n/a
232.623	0.1045	465246	keystroke_p	p	n/a
232.6825	0.0905	465365	keystroke_o	o	n/a
232.8475	0.075	465695	keystroke_n	n	n/a
232.8925	0.091	465785	keystroke_d	d	n/a
232.9685	0.15	465937	keystroke_e	e	n/a
233.0585	0.12	466117	keystroke_d	d	n/a
233.1335	0.105	466267	keystroke_Key.space	Key.space	n/a
233.2985	0.09	466597	keystroke_d	d	n/a
233.3735	0.12	466747	keystroke_i	i	n/a
233.538	0.075	467076	keystroke_s	s	n/a
233.7025	0.12	467405	keystroke_c	c	n/a
233.8235	0.09	467647	keystroke_i	i	n/a
234.0935	0.09	468187	keystroke_p	p	n/a
234.1385	0.105	468277	keystroke_l	l	n/a
234.3635	0.105	468727	keystroke_i	i	n/a
234.4385	0.135	468877	keystroke_n	n	n/a
234.6335	0.105	469267	keystroke_e	e	n/a
234.768	0.12	469536	keystroke_Key.space	Key.space	n/a
235.3685	0.09	470737	keystroke_d	d	n/a
235.6085	0.075	471217	keystroke_s	s	n/a
236.1485	0.075	472297	keystroke_Key.backspace	Key.backspace	n/a
236.2835	0.105	472567	keystroke_Key.backspace	Key.backspace	n/a
236.4035	0.09	472807	keystroke_s	s	n/a
236.4335	0.075	472867	keystroke_e	e	n/a
236.583	0.12	473166	keystroke_c	c	n/a
236.658	0.075	473316	keystroke_o	o	n/a
236.778	0.09	473556	keystroke_n	n	n/a
236.823	0.09	473646	keystroke_d	d	n/a
236.928	0.09	473856	keystroke_Key.space	Key.space	n/a
237.108	0.105	474216	keystroke_i	i	n/a
237.228	0.105	474456	keystroke_n	n	n/a
237.288	0.105	474576	keystroke_t	t	n/a
237.363	0.09	474726	keystroke_r	r	n/a
237.438	0.09	474876	keystroke_o	o	n/a
237.558	0.09	475116	keystroke_d	d	n/a
237.693	0.105	475386	keystroke_u	u	n/a
237.783	0.06	475566	keystroke_c	c	n/a
238.008	0.075	476016	keystroke_t	t	n/a
238.068	0.12	476136	keystroke_o	o	n/a
238.173	0.165	476346	keystroke_r	r	n/a
238.233	0.12	476466	keystroke_y	y	n/a
238.368	0.105	476736	keystroke_Key.enter	Key.enter	n/a
238.478	4.4215	476956	prompt	n/a	facing worried durable galleries\n
239.028	0.105	478056	keystroke_f	f	n/a
239.088	0.105	478176	keystroke_a	a	n/a
239.238	0.09	478476	keystroke_c	c	n/a
239.283	0.12	478566	keystroke_i	i	n/a
239.358	0.105	478716	keystroke_n	n	n/a
239.433	0.075	478866	keystroke_g	g	n/a
239.523	0.12	479046	keystroke_Key.space	Key.space	n/a
239.613	0.1345	479226	keystroke_w	w	n/a
239.6725	0.06	479345	keystroke_a	a	n/a
240.1825	0.09	480365	keystroke_Key.backspace	Key.backspace	n/a
240.3775	0.09	480755	keystroke_o	o	n/a
240.4375	0.075	480875	keystroke_r	r	n/a
240.5875	0.06	481175	keystroke_r	r	n/a
240.6325	0.106	481265	keystroke_i	i	n/a
240.7235	0.12	481447	keystroke_e	e	n/a
240.7985	0.105	481597	keystroke_d	d	n/a
240.8585	0.119	481717	keystroke_Key.space	Key.space	n/a
241.0075	0.06	482015	keystroke_d	d	n/a
241.1125	0.105	482225	keystroke_u	u	n/a
241.2025	0.09	482405	keystroke_r	r	n/a
241.2775	0.091	482555	keystroke_a	a	n/a
241.3975	0.09	482795	keystroke_b	b	n/a
241.4885	0.105	482977	keystroke_l	l	n/a
241.563	0.1205	483126	keystroke_e	e	n/a
241.6685	0.105	483337	keystroke_Key.space	Key.space	n/a
241.7885	0.12	483577	keystroke_g	g	n/a
241.8785	0.105	483757	keystroke_a	a	n/a
241.9685	0.06	483937	keystroke_l	l	n/a
242.0885	0.089	484177	keystroke_l	l	n/a
242.4035	0.089	484807	keystroke_e	e	n/a
242.4325	0.105	484865	keystroke_r	r	n/a
242.5385	0.105	485077	keystroke_i	i	n/a
242.6125	0.136	485225	keystroke_e	e	n/a
242.6725	0.105	485345	keystroke_s	s	n/a
242.7925	0.105	485585	keystroke_Key.enter	Key.enter	n/a
242.9025	5.547	485805	prompt	n/a	properties vinyl extension monitoring\n
243.633	0.09	487266	keystroke_p	p	n/a
243.783	0.105	487566	keystroke_r	r	n/a
243.903	0.105	487806	keystroke_o	o	n/a
243.9625	0.0755	487925	keystroke_p	p	n/a
244.023	0.1195	488046	keystroke_e	e	n/a
244.068	0.1345	488136	keystroke_r	r	n/a
244.653	0.075	489306	keystroke_t	t	n/a
244.743	0.0905	489486	keystroke_i	i	n/a
244.8185	0.135	489637	keystroke_e	e	n/a
244.8635	0.135	489727	keystroke_s	s	n/a
244.9835	0.105	489967	keystroke_Key.space	Key.space	n/a
245.1785	0.09	490357	keystroke_v	v	n/a
245.2385	0.105	490477	keystroke_i	i	n/a
245.3285	0.135	490657	keystroke_n	n	n/a
245.5085	0.105	491017	keystroke_y	y	n/a
245.5985	0.12	491197	keystroke_l	l	n/a
245.6735	0.15	491347	keystroke_Key.space	Key.space	n/a
245.958	0.09	491916	keystroke_e	e	n/a
246.123	0.135	492246	keystroke_x	x	n/a
246.393	0.09	492786	keystroke_t	t	n/a
246.438	0.105	492876	keystroke_e	e	n/a
246.498	0.09	492996	keystroke_n	n	n/a
246.633	0.09	493266	keystroke_s	s	n/a
246.738	0.075	493476	keystroke_i	i	n/a
246.768	0.09	493536	keystroke_o	o	n/a
246.918	0.09	493836	keystroke_n	n	n/a
246.978	0.105	493956	keystroke_Key.space	Key.space	n/a
247.263	0.135	494526	keystroke_m	m	n/a
247.413	0.075	494826	keystroke_o	o	n/a
247.5625	0.12	495125	keystroke_n	n	n/a
247.6525	0.105	495305	keystroke_i	i	n/a
247.7875	0.075	495575	keystroke_t	t	n/a
247.8775	0.09	495755	keystroke_o	o	n/a
247.9825	0.076	495965	keystroke_r	r	n/a
248.0725	0.105	496145	keystroke_i	i	n/a
248.1475	0.09	496295	keystroke_n	n	n/a
248.2075	0.09	496415	keystroke_g	g	n/a
248.3875	0.06	496775	keystroke_Key.enter	Key.enter	n/a
248.4525	6.1775	496905	prompt	n/a	acrylic reasonably parties improvements\n
249.153	0.1045	498306	keystroke_a	a	n/a
249.5575	0.091	499115	keystroke_c	c	n/a
249.8125	0.09	499625	keystroke_r	r	n/a
250.0225	0.075	500045	keystroke_y	y	n/a
250.1125	0.105	500225	keystroke_l	l	n/a
250.4125	0.09	500825	keystroke_i	i	n/a
250.5325	0.12	501065	keystroke_c	c	n/a
250.6225	0.12	501245	keystroke_Key.space	Key.space	n/a
250.8475	0.105	501695	keystroke_r	r	n/a
250.9075	0.165	501815	keystroke_e	e	n/a
251.4475	0.105	502895	keystroke_a	a	n/a
251.5075	0.1055	503015	keystroke_s	s	n/a
251.628	0.075	503256	keystroke_o	o	n/a
251.793	0.12	503586	keystroke_n	n	n/a
251.898	0.06	503796	keystroke_a	a	n/a
252.048	0.09	504096	keystroke_b	b	n/a
252.168	0.135	504336	keystroke_l	l	n/a
252.348	0.06	504696	keystroke_y	y	n/a
252.423	0.135	504846	keystroke_Key.space	Key.space	n/a
252.768	0.09	505536	keystroke_p	p	n/a
252.843	0.1055	505686	keystroke_a	a	n/a
252.8885	0.0745	505777	keystroke_r	r	n/a
253.038	0.09	506076	keystroke_t	t	n/a
253.098	0.105	506196	keystroke_i	i	n/a
253.188	0.135	506376	keystroke_e	e	n/a
253.263	0.105	506526	keystroke_s	s	n/a
253.293	0.09	506586	keystroke_Key.space	Key.space	n/a
253.428	0.105	506856	keystroke_i	i	n/a
253.503	0.12	507006	keystroke_m	m	n/a
253.668	0.09	507336	keystroke_p	p	n/a
253.743	0.09	507486	keystroke_r	r	n/a
253.863	0.09	507726	keystroke_o	o	n/a
253.968	0.09	507936	keystroke_v	v	n/a
254.013	0.09	508026	keystroke_e	e	n/a
254.104	0.089	508208	keystroke_m	m	n/a
254.208	0.075	508416	keystroke_e	e	n/a
254.298	0.0745	508596	keystroke_n	n	n/a
254.3575	0.12	508715	keystroke_t	t	n/a
254.4025	0.121	508805	keystroke_s	s	n/a
254.5235	0.104	509047	keystroke_Key.enter	Key.enter	n/a
254.6325	6.342	509265	prompt	n/a	basename plenty priorities music\n
255.5275	0.075	511055	keystroke_b	b	n/a
255.6325	0.1205	511265	keystroke_a	a	n/a
255.693	0.105	511386	keystroke_s	s	n/a
255.738	0.135	511476	keystroke_e	e	n/a
255.918	0.12	511836	keystroke_n	n	n/a
256.053	0.075	512106	keystroke_a	a	n/a
256.113	0.09	512226	keystroke_m	m	n/a
256.218	0.0905	512436	keystroke_e	e	n/a
256.2935	0.075	512587	keystroke_Key.space	Key.space	n/a
256.4435	0.09	512887	keystroke_p	p	n/a
256.5035	0.1495	513007	keystroke_l	l	n/a
256.668	0.105	513336	keystroke_e	e	n/a
256.803	0.09	513606	keystroke_n	n	n/a
256.878	0.06	513756	keystroke_t	t	n/a
257.043	0.09	514086	keystroke_y	y	n/a
257.118	0.105	514236	keystroke_Key.space	Key.space	n/a
258.813	0.105	517626	keystroke_p	p	n/a
258.933	0.1055	517866	keystroke_r	r	n/a
259.0535	0.135	518107	keystroke_i	i	n/a
259.1135	0.105	518227	keystroke_o	o	n/a
259.4885	0.105	518977	keystroke_r	r	n/a
259.6235	0.09	519247	keystroke_i	i	n/a
259.7285	0.09	519457	keystroke_t	t	n/a
259.8485	0.12	519697	keystroke_i	i	n/a
259.9385	0.135	519877	keystroke_e	e	n/a
259.9835	0.12	519967	keystroke_s	s	n/a
260.0285	0.12	520057	keystroke_Key.space	Key.space	n/a
260.2985	0.105	520597	keystroke_m	m	n/a
260.4185	0.09	520837	keystroke_u	u	n/a
260.4935	0.09	520987	keystroke_s	s	n/a
260.6135	0.105	521227	keystroke_i	i	n/a
260.6885	0.09	521377	keystroke_c	c	n/a
260.8685	0.1045	521737	keystroke_Key.enter	Key.enter	n/a
260.978	5.2765	521956	prompt	n/a	assist replica funeral decision\n
261.543	0.0905	523086	keystroke_a	a	n/a
261.603	0.0755	523206	keystroke_s	s	n/a
261.7385	0.09	523477	keystroke_s	s	n/a
261.8435	0.09	523687	keystroke_i	i	n/a
261.9185	0.105	523837	keystroke_s	s	n/a
262.7725	0.105	525545	keystroke_t	t	n/a
262.8625	0.12	525725	keystroke_Key.space	Key.space	n/a
263.1175	0.12	526235	keystroke_r	r	n/a
263.1925	0.105	526385	keystroke_e	e	n/a
263.2525	0.09	526505	keystroke_p	p	n/a
263.2825	0.105	526565	keystroke_l	l	n/a
263.4925	0.1055	526985	keystroke_i	i	n/a
263.568	0.1345	527136	keystroke_c	c	n/a
263.7775	0.106	527555	keystroke_a	a	n/a
263.9285	0.12	527857	keystroke_Key.space	Key.space	n/a
264.2285	0.075	528457	keystroke_f	f	n/a
264.2435	0.075	528487	keystroke_u	u	n/a
264.4385	0.105	528877	keystroke_n	n	n/a
264.5285	0.105	529057	keystroke_e	e	n/a
264.5735	0.12	529147	keystroke_r	r	n/a
264.7985	0.12	529597	keystroke_a	a	n/a
264.9035	0.1195	529807	keystroke_l	l	n/a
264.978	0.12	529956	keystroke_Key.space	Key.space	n/a
265.308	0.0895	530616	keystroke_d	d	n/a
265.3525	0.0905	530705	keystroke_e	e	n/a
265.5475	0.0755	531095	keystroke_c	c	n/a
265.638	0.1045	531276	keystroke_i	i	n/a
265.7275	0.105	531455	keystroke_s	s	n/a
265.803	0.105	531606	keystroke_i	i	n/a
265.8625	0.075	531725	keystroke_o	o	n/a
266.0125	0.075	532025	keystroke_n	n	n/a
266.1475	0.105	532295	keystroke_Key.enter	Key.enter	n/a
266.258	6.0865	532516	prompt	n/a	carbon proposals reproduction folks\n
266.928	0.0905	533856	keystroke_c	c	n/a
266.9735	0.105	533947	keystroke_a	a	n/a
267.1385	0.075	534277	keystroke_r	r	n/a
267.3185	0.09	534637	keystroke_b	b	n/a
267.3785	0.09	534757	keystroke_o	o	n/a
267.4535	0.09	534907	keystroke_n	n	n/a
267.5285	0.09	535057	keystroke_Key.space	Key.space	n/a
267.6935	0.105	535387	keystroke_p	p	n/a
267.7985	0.105	535597	keystroke_r	r	n/a
267.9185	0.134	535837	keystroke_o	o	n/a
267.9925	0.12	535985	keystroke_p	p	n/a
268.2325	0.1055	536465	keystroke_o	o	n/a
269.193	0.075	538386	keystroke_s	s	n/a
269.208	0.105	538416	keystroke_a	a	n/a
269.328	0.09	538656	keystroke_l	l	n/a
269.403	0.12	538806	keystroke_s	s	n/a
269.553	0.105	539106	keystroke_Key.space	Key.space	n/a
269.733	0.105	539466	keystroke_r	r	n/a
269.793	0.12	539586	keystroke_e	e	n/a
269.958	0.12	539916	keystroke_p	p	n/a
270.288	0.09	540576	keystroke_r	r	n/a
270.363	0.105	540726	keystroke_o	o	n/a
270.558	0.09	541116	keystroke_d	d	n/a
270.723	0.1055	541446	keystroke_u	u	n/a
270.7985	0.0895	541597	keystroke_c	c	n/a
271.0235	0.09	542047	keystroke_t	t	n/a
271.0535	0.105	542107	keystroke_i	i	n/a
271.1285	0.06	542257	keystroke_o	o	n/a
271.2485	0.09	542497	keystroke_n	n	n/a
271.2935	0.105	542587	keystroke_Key.space	Key.space	n/a
271.4135	0.0895	542827	keystroke_f	f	n/a
271.4585	0.0745	542917	keystroke_o	o	n/a
271.608	0.09	543216	keystroke_l	l	n/a
271.713	0.09	543426	keystroke_k	k	n/a
271.758	0.09	543516	keystroke_s	s	n/a
272.238	0.105	544476	keystroke_Key.enter	Key.enter	n/a
272.3475	3.687	544695	prompt	n/a	bedford estimates years jimmy\n
272.9725	0.2405	545945	keystroke_b	b	n/a
273.198	0.045	546396	keystroke_e	e	n/a
273.228	0.03	546456	keystroke_d	d	n/a
273.288	0.105	546576	keystroke_f	f	n/a
273.363	0.105	546726	keystroke_o	o	n/a
273.4685	0.0745	546937	keystroke_r	r	n/a
273.633	0.09	547266	keystroke_d	d	n/a
273.6925	0.12	547385	keystroke_Key.space	Key.space	n/a
273.8275	0.135	547655	keystroke_e	e	n/a
273.8725	0.1505	547745	keystroke_s	s	n/a
274.008	0.0895	548016	keystroke_t	t	n/a
274.173	0.06	548346	keystroke_i	i	n/a
274.278	0.12	548556	keystroke_m	m	n/a
274.353	0.0895	548706	keystroke_a	a	n/a
274.4125	0.1355	548825	keystroke_t	t	n/a
274.458	0.1945	548916	keystroke_e	e	n/a
274.5485	0.1195	549097	keystroke_s	s	n/a
274.638	0.0895	549276	keystroke_Key.space	Key.space	n/a
274.998	0.075	549996	keystroke_y	y	n/a
275.058	0.045	550116	keystroke_e	e	n/a
275.088	0.135	550176	keystroke_a	a	n/a
275.178	0.12	550356	keystroke_r	r	n/a
275.238	0.12	550476	keystroke_s	s	n/a
275.313	0.06	550626	keystroke_Key.space	Key.space	n/a
275.403	0.12	550806	keystroke_j	j	n/a
275.493	0.06	550986	keystroke_i	i	n/a
275.628	0.075	551256	keystroke_m	m	n/a
275.763	0.09	551526	keystroke_m	m	n/a
275.823	0.105	551646	keystroke_y	y	n/a
275.943	0.09	551886	keystroke_Key.enter	Key.enter	n/a
276.0375	4.497	552075	prompt	n/a	surplus wants minus mandatory\n
276.663	0.0755	553326	keystroke_s	s	n/a
276.7385	0.089	553477	keystroke_u	u	n/a
276.8425	0.09	553685	keystroke_r	r	n/a
276.9025	0.12	553805	keystroke_p	p	n/a
276.9775	0.09	553955	keystroke_l	l	n/a
277.1875	0.075	554375	keystroke_u	u	n/a
277.2475	0.076	554495	keystroke_s	s	n/a
277.3075	0.105	554615	keystroke_Key.space	Key.space	n/a
277.4285	0.105	554857	keystroke_w	w	n/a
277.4575	0.12	554915	keystroke_a	a	n/a
277.6075	0.091	555215	keystroke_n	n	n/a
277.6525	0.12	555305	keystroke_t	t	n/a
277.7125	0.12	555425	keystroke_s	s	n/a
277.7885	0.074	555577	keystroke_Key.space	Key.space	n/a
277.9075	0.166	555815	keystroke_m	m	n/a
278.0575	0.106	556115	keystroke_i	i	n/a
278.2075	0.105	556415	keystroke_n	n	n/a
278.2535	0.09	556507	keystroke_u	u	n/a
278.3275	0.105	556655	keystroke_s	s	n/a
278.4175	0.075	556835	keystroke_Key.space	Key.space	n/a
278.5385	0.134	557077	keystroke_m	m	n/a
278.6575	0.09	557315	keystroke_d	d	n/a
279.318	0.09	558636	keystroke_Key.backspace	Key.backspace	n/a
279.528	0.09	559056	keystroke_a	a	n/a
279.648	0.09	559296	keystroke_n	n	n/a
279.903	0.12	559806	keystroke_d	d	n/a
280.008	0.105	560016	keystroke_a	a	n/a
280.143	0.09	560286	keystroke_t	t	n/a
280.218	0.09	560436	keystroke_o	o	n/a
280.293	0.12	560586	keystroke_r	r	n/a
280.353	0.105	560706	keystroke_y	y	n/a
280.443	0.09	560886	keystroke_Key.enter	Key.enter	n/a
280.5375	5.022	561075	prompt	n/a	cuba deal nearly readings\n
281.2225	0.09	562445	keystroke_c	c	n/a
281.2985	0.09	562597	keystroke_u	u	n/a
281.4175	0.105	562835	keystroke_b	b	n/a
281.4775	0.1355	562955	keystroke_a	a	n/a
281.5375	0.1055	563075	keystroke_Key.space	Key.space	n/a
281.718	0.075	563436	keystroke_d	d	n/a
281.868	0.105	563736	keystroke_e	e	n/a
281.913	0.12	563826	keystroke_a	a	n/a
281.958	0.105	563916	keystroke_l	l	n/a
282.003	0.12	564006	keystroke_Key.space	Key.space	n/a
282.633	0.105	565266	keystroke_n	n	n/a
282.693	0.09	565386	keystroke_e	e	n/a
282.753	0.12	565506	keystroke_a	a	n/a
282.858	0.075	565716	keystroke_r	r	n/a
282.948	0.075	565896	keystroke_l	l	n/a
283.038	0.09	566076	keystroke_y	y	n/a
283.113	0.09	566226	keystroke_Key.space	Key.space	n/a
283.263	0.03	566526	keystroke_t	t	n/a
283.278	0.03	566556	keystroke_r	r	n/a
283.398	0.12	566796	keystroke_e	e	n/a
283.473	0.075	566946	keystroke_a	a	n/a
284.163	0.075	568326	keystroke_Key.backspace	Key.backspace	n/a
284.373	0.075	568746	keystroke_Key.backspace	Key.backspace	n/a
284.553	0.0605	569106	keystroke_Key.backspace	Key.backspace	n/a
284.7035	0.075	569407	keystroke_Key.backspace	Key.backspace	n/a
284.8085	0.06	569617	keystroke_r	r	n/a
284.9285	0.0895	569857	keystroke_e	e	n/a
284.988	0.135	569976	keystroke_a	a	n/a
285.093	0.105	570186	keystroke_d	d	n/a
285.168	0.09	570336	keystroke_i	i	n/a
285.228	0.105	570456	keystroke_n	n	n/a
285.303	0.09	570606	keystroke_g	g	n/a
285.318	0.12	570636	keystroke_s	s	n/a
285.453	0.105	570906	keystroke_Key.enter	Key.enter	n/a
285.5625	4.242	571125	prompt	n/a	sega quotations meter vast\n
286.338	0.0895	572676	keystroke_s	s	n/a
286.4875	0.105	572975	keystroke_e	e	n/a
286.758	0.045	573516	keystroke_g	g	n/a
286.773	0.09	573546	keystroke_a	a	n/a
286.833	0.12	573666	keystroke_Key.space	Key.space	n/a
287.073	0.09	574146	keystroke_q	q	n/a
287.163	0.09	574326	keystroke_u	u	n/a
287.4485	0.09	574897	keystroke_o	o	n/a
287.8685	0.03	575737	keystroke_t	t	n/a
287.8835	0.059	575767	keystroke_a	a	n/a
287.9125	0.091	575825	keystroke_t	t	n/a
287.9885	0.105	575977	keystroke_i	i	n/a
288.0485	0.059	576097	keystroke_o	o	n/a
288.1685	0.119	576337	keystroke_n	n	n/a
288.2735	0.075	576547	keystroke_s	s	n/a
288.3625	0.076	576725	keystroke_Key.space	Key.space	n/a
288.4535	0.12	576907	keystroke_m	m	n/a
288.5285	0.12	577057	keystroke_e	e	n/a
288.8425	0.09	577685	keystroke_t	t	n/a
288.9785	0.135	577957	keystroke_e	e	n/a
289.0385	0.105	578077	keystroke_r	r	n/a
289.1275	0.105	578255	keystroke_Key.space	Key.space	n/a
289.2785	0.105	578557	keystroke_v	v	n/a
289.3985	0.15	578797	keystroke_a	a	n/a
289.4735	0.165	578947	keystroke_s	s	n/a
289.5775	0.121	579155	keystroke_t	t	n/a
289.7135	0.089	579427	keystroke_Key.enter	Key.enter	n/a
289.8095	3.895	579619	prompt	n/a	quad tomatoes hand poster\n
290.4625	0.09	580925	keystroke_q	q	n/a
290.5675	0.09	581135	keystroke_u	u	n/a
290.6725	0.12	581345	keystroke_a	a	n/a
290.7175	0.12	581435	keystroke_d	d	n/a
290.7935	0.134	581587	keystroke_Key.space	Key.space	n/a
291.0325	0.1055	582065	keystroke_t	t	n/a
291.153	0.075	582306	keystroke_o	o	n/a
291.288	0.12	582576	keystroke_m	m	n/a
291.468	0.09	582936	keystroke_a	a	n/a
292.2775	0.075	584555	keystroke_t	t	n/a
292.4125	0.045	584825	keystroke_o	o	n/a
292.4275	0.165	584855	keystroke_e	e	n/a
292.5025	0.12	585005	keystroke_s	s	n/a
292.5775	0.075	585155	keystroke_Key.space	Key.space	n/a
292.7425	0.09	585485	keystroke_h	h	n/a
292.8025	0.09	585605	keystroke_a	a	n/a
292.9075	0.105	585815	keystroke_n	n	n/a
292.9525	0.075	585905	keystroke_d	d	n/a
293.0425	0.09	586085	keystroke_Key.space	Key.space	n/a
293.1475	0.09	586295	keystroke_p	p	n/a
293.1925	0.12	586385	keystroke_o	o	n/a
293.2525	0.105	586505	keystroke_s	s	n/a
293.3275	0.076	586655	keystroke_t	t	n/a
293.4175	0.135	586835	keystroke_e	e	n/a
293.4925	0.135	586985	keystroke_r	r	n/a
293.6125	0.09	587225	keystroke_Key.enter	Key.enter	n/a
293.707	4.5425	587414	prompt	n/a	issue article differences user\n
294.3325	0.105	588665	keystroke_i	i	n/a
294.4225	0.075	588845	keystroke_s	s	n/a
294.5725	0.09	589145	keystroke_s	s	n/a
294.7525	0.075	589505	keystroke_u	u	n/a
294.8285	0.104	589657	keystroke_e	e	n/a
294.9025	0.135	589805	keystroke_Key.space	Key.space	n/a
295.0525	0.105	590105	keystroke_a	a	n/a
295.1125	0.09	590225	keystroke_r	r	n/a
295.4875	0.075	590975	keystroke_t	t	n/a
295.5775	0.105	591155	keystroke_i	i	n/a
295.6975	0.105	591395	keystroke_c	c	n/a
295.788	0.0895	591576	keystroke_l	l	n/a
295.8475	0.09	591695	keystroke_e	e	n/a
295.9525	0.105	591905	keystroke_Key.space	Key.space	n/a
296.073	0.09	592146	keystroke_d	d	n/a
296.178	0.1045	592356	keystroke_i	i	n/a
296.268	0.075	592536	keystroke_f	f	n/a
296.4025	0.09	592805	keystroke_f	f	n/a
296.538	0.09	593076	keystroke_e	e	n/a
296.598	0.15	593196	keystroke_r	r	n/a
296.703	0.0895	593406	keystroke_e	e	n/a
296.8075	0.075	593615	keystroke_n	n	n/a
296.958	0.195	593916	keystroke_e	e	n/a
297.5125	0.105	595025	keystroke_Key.backspace	Key.backspace	n/a
297.6025	0.135	595205	keystroke_c	c	n/a
297.6325	0.166	595265	keystroke_e	e	n/a
297.7225	0.091	595445	keystroke_s	s	n/a
297.7835	0.089	595567	keystroke_Key.space	Key.space	n/a
297.9035	0.119	595807	keystroke_u	u	n/a
297.9625	0.105	595925	keystroke_s	s	n/a
297.9775	0.135	595955	keystroke_e	e	n/a
298.0375	0.12	596075	keystroke_r	r	n/a
298.1425	0.105	596285	keystroke_Key.enter	Key.enter	n/a
298.253	4.6015	596506	prompt	n/a	liberia rates required costumes\n
298.9385	0.12	597877	keystroke_l	l	n/a
299.0285	0.12	598057	keystroke_i	i	n/a
299.1635	0.0895	598327	keystroke_b	b	n/a
299.3435	0.12	598687	keystroke_e	e	n/a
299.3885	0.134	598777	keystroke_r	r	n/a
299.5525	0.09	599105	keystroke_i	i	n/a
299.6275	0.106	599255	keystroke_a	a	n/a
299.7175	0.135	599435	keystroke_Key.space	Key.space	n/a
299.8825	0.121	599765	keystroke_r	r	n/a
299.9585	0.09	599917	keystroke_a	a	n/a
300.0935	0.15	600187	keystroke_t	t	n/a
300.1385	0.18	600277	keystroke_e	e	n/a
300.2285	0.105	600457	keystroke_s	s	n/a
300.2885	0.12	600577	keystroke_Key.space	Key.space	n/a
301.0235	0.12	602047	keystroke_r	r	n/a
301.0685	0.149	602137	keystroke_e	e	n/a
301.2335	0.12	602467	keystroke_q	q	n/a
301.3685	0.12	602737	keystroke_u	u	n/a
301.4285	0.105	602857	keystroke_i	i	n/a
301.4735	0.09	602947	keystroke_r	r	n/a
301.5485	0.135	603097	keystroke_e	e	n/a
301.6535	0.105	603307	keystroke_d	d	n/a
301.7425	0.0905	603485	keystroke_Key.space	Key.space	n/a
301.893	0.105	603786	keystroke_c	c	n/a
301.968	0.09	603936	keystroke_o	o	n/a
302.238	0.09	604476	keystroke_s	s	n/a
302.298	0.135	604596	keystroke_t	t	n/a
302.388	0.06	604776	keystroke_u	u	n/a
302.5525	0.09	605105	keystroke_m	m	n/a
302.5975	0.105	605195	keystroke_e	e	n/a
302.6575	0.09	605315	keystroke_s	s	n/a
302.7775	0.075	605555	keystroke_Key.enter	Key.enter	n/a
302.8575	3.387	605715	prompt	n/a	cattle thereof length rosa\n
303.423	0.09	606846	keystroke_c	c	n/a
303.498	0.09	606996	keystroke_a	a	n/a
303.663	0.06	607326	keystroke_t	t	n/a
303.7675	0.09	607535	keystroke_t	t	n/a
303.8275	0.105	607655	keystroke_l	l	n/a
303.9325	0.09	607865	keystroke_e	e	n/a
304.008	0.1045	608016	keystroke_Key.space	Key.space	n/a
304.1575	0.09	608315	keystroke_t	t	n/a
304.2175	0.105	608435	keystroke_h	h	n/a
304.3075	0.1055	608615	keystroke_e	e	n/a
304.3675	0.12	608735	keystroke_r	r	n/a
304.4425	0.105	608885	keystroke_e	e	n/a
304.578	0.1045	609156	keystroke_o	o	n/a
304.6975	0.0905	609395	keystroke_f	f	n/a
304.773	0.1045	609546	keystroke_Key.space	Key.space	n/a
305.0585	0.059	610117	keystroke_l	l	n/a
305.2235	0.104	610447	keystroke_e	e	n/a
305.3735	0.074	610747	keystroke_n	n	n/a
305.4635	0.059	610927	keystroke_g	g	n/a
305.5825	0.12	611165	keystroke_t	t	n/a
305.6585	0.09	611317	keystroke_h	h	n/a
305.7175	0.0905	611435	keystroke_Key.space	Key.space	n/a
305.823	0.075	611646	keystroke_r	r	n/a
305.883	0.12	611766	keystroke_o	o	n/a
305.988	0.135	611976	keystroke_s	s	n/a
306.048	0.12	612096	keystroke_a	a	n/a
306.153	0.09	612306	keystroke_Key.enter	Key.enter	n/a
306.2485	5.9655	612497	prompt	n/a	assistance comfort venture featuring\n
306.813	0.105	613626	keystroke_a	a	n/a
306.933	0.06	613866	keystroke_s	s	n/a
307.083	0.075	614166	keystroke_s	s	n/a
307.188	0.105	614376	keystroke_i	i	n/a
307.278	0.075	614556	keystroke_s	s	n/a
307.428	0.06	614856	keystroke_s	s	n/a
308.028	0.075	616056	keystroke_Key.backspace	Key.backspace	n/a
308.133	0.135	616266	keystroke_t	t	n/a
308.223	0.12	616446	keystroke_a	a	n/a
308.388	0.0595	616776	keystroke_n	n	n/a
308.4325	0.135	616865	keystroke_c	c	n/a
308.4925	0.1355	616985	keystroke_e	e	n/a
308.583	0.105	617166	keystroke_Key.space	Key.space	n/a
308.718	0.12	617436	keystroke_c	c	n/a
308.763	0.09	617526	keystroke_o	o	n/a
308.868	0.135	617736	keystroke_m	m	n/a
308.988	0.09	617976	keystroke_o	o	n/a
309.093	0.075	618186	keystroke_f	f	n/a
309.258	0.045	618516	keystroke_r	r	n/a
309.378	0.09	618756	keystroke_t	t	n/a
309.438	0.09	618876	keystroke_Key.space	Key.space	n/a
309.603	0.09	619206	keystroke_v	v	n/a
309.633	0.15	619266	keystroke_e	e	n/a
309.708	0.09	619416	keystroke_n	n	n/a
309.843	0.075	619686	keystroke_t	t	n/a
309.933	0.09	619866	keystroke_u	u	n/a
309.993	0.105	619986	keystroke_r	r	n/a
310.038	0.105	620076	keystroke_e	e	n/a
310.113	0.1045	620226	keystroke_Key.space	Key.space	n/a
310.4875	0.075	620975	keystroke_f	f	n/a
310.5185	0.164	621037	keystroke_e	e	n/a
310.6975	0.075	621395	keystroke_a	a	n/a
310.7735	0.119	621547	keystroke_t	t	n/a
311.6575	0.09	623315	keystroke_u	u	n/a
311.7325	0.105	623465	keystroke_r	r	n/a
311.8225	0.105	623645	keystroke_i	i	n/a
311.8975	0.12	623795	keystroke_n	n	n/a
311.9725	0.09	623945	keystroke_g	g	n/a
312.1225	0.09	624245	keystroke_Key.enter	Key.enter	n/a
312.217	5.9975	624434	prompt	n/a	households repair calculated instruction\n
312.8425	0.075	625685	keystroke_h	h	n/a
312.9775	0.12	625955	keystroke_o	o	n/a
313.0525	0.105	626105	keystroke_u	u	n/a
313.1125	0.09	626225	keystroke_s	s	n/a
313.1275	0.105	626255	keystroke_e	e	n/a
313.3375	0.09	626675	keystroke_h	h	n/a
313.4875	0.075	626975	keystroke_o	o	n/a
313.6375	0.09	627275	keystroke_l	l	n/a
313.7125	0.09	627425	keystroke_d	d	n/a
313.7425	0.12	627485	keystroke_s	s	n/a
313.8175	0.105	627635	keystroke_Key.space	Key.space	n/a
313.9825	0.09	627965	keystroke_r	r	n/a
314.1775	0.0755	628355	keystroke_e	e	n/a
314.268	0.089	628536	keystroke_p	p	n/a
314.582	0.105	629164	keystroke_a	a	n/a
315.123	0.09	630246	keystroke_i	i	n/a
315.213	0.105	630426	keystroke_r	r	n/a
315.348	0.105	630696	keystroke_Key.space	Key.space	n/a
315.7075	0.105	631415	keystroke_c	c	n/a
315.9775	0.09	631955	keystroke_a	a	n/a
316.1575	0.12	632315	keystroke_l	l	n/a
316.3525	0.12	632705	keystroke_c	c	n/a
316.4575	0.09	632915	keystroke_u	u	n/a
316.5175	0.105	633035	keystroke_l	l	n/a
316.6075	0.045	633215	keystroke_a	a	n/a
316.6675	0.09	633335	keystroke_t	t	n/a
316.7425	0.18	633485	keystroke_e	e	n/a
316.8625	0.1055	633725	keystroke_d	d	n/a
316.937	0.091	633874	keystroke_Key.space	Key.space	n/a
317.073	0.12	634146	keystroke_i	i	n/a
317.178	0.12	634356	keystroke_n	n	n/a
317.283	0.06	634566	keystroke_s	s	n/a
317.313	0.12	634626	keystroke_t	t	n/a
317.373	0.105	634746	keystroke_r	r	n/a
317.463	0.075	634926	keystroke_u	u	n/a
317.568	0.075	635136	keystroke_c	c	n/a
317.763	0.09	635526	keystroke_t	t	n/a
317.808	0.09	635616	keystroke_i	i	n/a
317.853	0.075	635706	keystroke_o	o	n/a
317.988	0.075	635976	keystroke_n	n	n/a
318.108	0.105	636216	keystroke_Key.enter	Key.enter	n/a
318.217	6.0425	636434	prompt	n/a	beneficial virtually hawaii tolerance\n
318.8725	0.06	637745	keystroke_e	e	n/a
319.5175	0.105	639035	keystroke_Key.backspace	Key.backspace	n/a
319.7125	0.075	639425	keystroke_b	b	n/a
319.7425	0.105	639485	keystroke_e	e	n/a
319.8625	0.09	639725	keystroke_n	n	n/a
319.9675	0.06	639935	keystroke_e	e	n/a
320.1025	0.09	640205	keystroke_f	f	n/a
320.2675	0.1355	640535	keystroke_i	i	n/a
320.448	0.075	640896	keystroke_c	c	n/a
320.538	0.09	641076	keystroke_i	i	n/a
320.613	0.12	641226	keystroke_a	a	n/a
320.718	0.105	641436	keystroke_l	l	n/a
320.778	0.12	641556	keystroke_Key.space	Key.space	n/a
321.318	0.09	642636	keystroke_v	v	n/a
321.423	0.105	642846	keystroke_i	i	n/a
321.543	0.075	643086	keystroke_r	r	n/a
321.693	0.075	643386	keystroke_t	t	n/a
321.723	0.075	643446	keystroke_u	u	n/a
321.843	0.105	643686	keystroke_a	a	n/a
321.903	0.06	643806	keystroke_l	l	n/a
322.023	0.09	644046	keystroke_l	l	n/a
322.098	0.105	644196	keystroke_y	y	n/a
322.173	0.105	644346	keystroke_Key.space	Key.space	n/a
322.353	0.105	644706	keystroke_h	h	n/a
322.443	0.09	644886	keystroke_a	a	n/a
322.518	0.12	645036	keystroke_w	w	n/a
322.608	0.105	645216	keystroke_a	a	n/a
322.848	0.06	645696	keystroke_i	i	n/a
322.983	0.105	645966	keystroke_i	i	n/a
323.028	0.12	646056	keystroke_Key.space	Key.space	n/a
323.298	0.105	646596	keystroke_t	t	n/a
323.388	0.03	646776	keystroke_o	o	n/a
323.478	0.105	646956	keystroke_l	l	n/a
323.538	0.105	647076	keystroke_e	e	n/a
323.598	0.09	647196	keystroke_r	r	n/a
323.703	0.12	647406	keystroke_a	a	n/a
323.8375	0.0895	647675	keystroke_n	n	n/a
323.912	0.12	647824	keystroke_c	c	n/a
323.958	0.149	647916	keystroke_e	e	n/a
324.152	0.106	648304	keystroke_Key.enter	Key.enter	n/a
324.2625	5.787	648525	prompt	n/a	cameron barrel bradley decade\n
324.843	0.135	649686	keystroke_c	c	n/a
324.918	0.104	649836	keystroke_a	a	n/a
325.023	0.1345	650046	keystroke_m	m	n/a
325.2025	0.135	650405	keystroke_e	e	n/a
325.2625	0.12	650525	keystroke_r	r	n/a
325.5325	0.0755	651065	keystroke_o	o	n/a
325.698	0.105	651396	keystroke_n	n	n/a
325.758	0.135	651516	keystroke_Key.space	Key.space	n/a
327.168	0.09	654336	keystroke_b	b	n/a
327.318	0.12	654636	keystroke_a	a	n/a
327.558	0.09	655116	keystroke_r	r	n/a
327.738	0.12	655476	keystroke_r	r	n/a
327.828	0.1345	655656	keystroke_e	e	n/a
327.9325	0.12	655865	keystroke_l	l	n/a
328.0075	0.135	656015	keystroke_Key.space	Key.space	n/a
328.4575	0.075	656915	keystroke_b	b	n/a
328.5475	0.09	657095	keystroke_r	r	n/a
328.6975	0.12	657395	keystroke_a	a	n/a
328.7725	0.12	657545	keystroke_d	d	n/a
328.9075	0.075	657815	keystroke_l	l	n/a
328.9835	0.149	657967	keystroke_e	e	n/a
329.0725	0.09	658145	keystroke_y	y	n/a
329.1475	0.09	658295	keystroke_Key.space	Key.space	n/a
329.4025	0.045	658805	keystroke_d	d	n/a
329.4175	0.075	658835	keystroke_e	e	n/a
329.5675	0.09	659135	keystroke_c	c	n/a
329.6425	0.105	659285	keystroke_a	a	n/a
329.7775	0.12	659555	keystroke_d	d	n/a
329.8375	0.12	659675	keystroke_e	e	n/a
329.9425	0.105	659885	keystroke_Key.enter	Key.enter	n/a
330.053	4.0165	660106	prompt	n/a	laundry sympathy bodies paths\n
330.7975	0.105	661595	keystroke_l	l	n/a
330.9175	0.0755	661835	keystroke_a	a	n/a
331.008	0.075	662016	keystroke_u	u	n/a
331.188	0.075	662376	keystroke_n	n	n/a
331.218	0.075	662436	keystroke_d	d	n/a
331.383	0.12	662766	keystroke_r	r	n/a
331.458	0.075	662916	keystroke_y	y	n/a
331.503	0.09	663006	keystroke_Key.space	Key.space	n/a
331.653	0.105	663306	keystroke_s	s	n/a
331.848	0.09	663696	keystroke_y	y	n/a
331.923	0.075	663846	keystroke_m	m	n/a
332.102	0.106	664204	keystroke_p	p	n/a
332.222	0.091	664444	keystroke_a	a	n/a
332.328	0.074	664656	keystroke_t	t	n/a
332.538	0.105	665076	keystroke_h	h	n/a
332.628	0.105	665256	keystroke_y	y	n/a
332.717	0.12	665434	keystroke_Key.space	Key.space	n/a
333.002	0.075	666004	keystroke_b	b	n/a
333.1375	0.1055	666275	keystroke_o	o	n/a
333.228	0.0895	666456	keystroke_d	d	n/a
333.347	0.091	666694	keystroke_i	i	n/a
333.3775	0.1355	666755	keystroke_e	e	n/a
333.423	0.12	666846	keystroke_s	s	n/a
333.528	0.06	667056	keystroke_Key.space	Key.space	n/a
333.573	0.12	667146	keystroke_p	p	n/a
333.663	0.12	667326	keystroke_a	a	n/a
333.738	0.09	667476	keystroke_t	t	n/a
333.813	0.09	667626	keystroke_h	h	n/a
333.918	0.09	667836	keystroke_s	s	n/a
333.963	0.105	667926	keystroke_Key.enter	Key.enter	n/a
334.0725	7.287	668145	prompt	n/a	nicole obtain civilization experiencing\n
334.683	0.09	669366	keystroke_n	n	n/a
335.0425	0.105	670085	keystroke_i	i	n/a
335.1775	0.09	670355	keystroke_c	c	n/a
335.2525	0.06	670505	keystroke_o	o	n/a
335.3875	0.09	670775	keystroke_l	l	n/a
335.4325	0.12	670865	keystroke_e	e	n/a
335.568	0.075	671136	keystroke_Key.space	Key.space	n/a
335.733	0.09	671466	keystroke_o	o	n/a
335.868	0.075	671736	keystroke_b	b	n/a
336.093	0.0905	672186	keystroke_t	t	n/a
336.1075	0.135	672215	keystroke_a	a	n/a
336.1985	0.105	672397	keystroke_i	i	n/a
336.2585	0.105	672517	keystroke_n	n	n/a
336.3185	0.135	672637	keystroke_Key.space	Key.space	n/a
337.218	0.09	674436	keystroke_c	c	n/a
337.323	0.105	674646	keystroke_i	i	n/a
337.5475	0.075	675095	keystroke_v	v	n/a
337.6075	0.075	675215	keystroke_i	i	n/a
337.8025	0.09	675605	keystroke_l	l	n/a
337.8775	0.09	675755	keystroke_i	i	n/a
337.9375	0.075	675875	keystroke_z	z	n/a
338.0875	0.12	676175	keystroke_a	a	n/a
338.1625	0.12	676325	keystroke_t	t	n/a
338.2375	0.09	676475	keystroke_i	i	n/a
338.2975	0.06	676595	keystroke_o	o	n/a
338.4325	0.075	676865	keystroke_n	n	n/a
338.4775	0.12	676955	keystroke_Key.space	Key.space	n/a
338.5825	0.06	677165	keystroke_e	e	n/a
338.7175	0.1355	677435	keystroke_x	x	n/a
338.868	0.09	677736	keystroke_p	p	n/a
339.0175	0.15	678035	keystroke_e	e	n/a
339.1075	0.135	678215	keystroke_r	r	n/a
340.0535	0.104	680107	keystroke_i	i	n/a
340.6235	0.074	681247	keystroke_e	e	n/a
340.7275	0.1055	681455	keystroke_n	n	n/a
340.848	0.105	681696	keystroke_c	c	n/a
340.938	0.12	681876	keystroke_i	i	n/a
341.013	0.12	682026	keystroke_n	n	n/a
341.118	0.075	682236	keystroke_g	g	n/a
341.283	0.075	682566	keystroke_Key.enter	Key.enter	n/a
341.3625	4.692	682725	prompt	n/a	theater phentermine updates inbox\n
342.0175	0.09	684035	keystroke_t	t	n/a
342.1225	0.09	684245	keystroke_h	h	n/a
342.2725	0.135	684545	keystroke_e	e	n/a
342.3475	0.12	684695	keystroke_a	a	n/a
342.5125	0.075	685025	keystroke_t	t	n/a
342.6175	0.135	685235	keystroke_e	e	n/a
342.6925	0.12	685385	keystroke_r	r	n/a
342.7975	0.075	685595	keystroke_Key.space	Key.space	n/a
343.068	0.075	686136	keystroke_p	p	n/a
343.2925	0.075	686585	keystroke_h	h	n/a
343.3975	0.121	686795	keystroke_e	e	n/a
343.5035	0.089	687007	keystroke_n	n	n/a
343.7125	0.075	687425	keystroke_t	t	n/a
343.8475	0.12	687695	keystroke_e	e	n/a
343.9225	0.105	687845	keystroke_r	r	n/a
343.9825	0.105	687965	keystroke_m	m	n/a
344.0575	0.12	688115	keystroke_i	i	n/a
344.1625	0.1055	688325	keystroke_n	n	n/a
344.2225	0.12	688445	keystroke_e	e	n/a
344.3275	0.09	688655	keystroke_Key.space	Key.space	n/a
344.5825	0.09	689165	keystroke_u	u	n/a
344.7175	0.12	689435	keystroke_p	p	n/a
344.7925	0.105	689585	keystroke_d	d	n/a
344.8525	0.105	689705	keystroke_a	a	n/a
345.018	0.105	690036	keystroke_t	t	n/a
345.048	0.18	690096	keystroke_e	e	n/a
345.108	0.135	690216	keystroke_s	s	n/a
345.168	0.09	690336	keystroke_Key.space	Key.space	n/a
345.258	0.105	690516	keystroke_i	i	n/a
345.348	0.135	690696	keystroke_n	n	n/a
345.558	0.075	691116	keystroke_b	b	n/a
345.6475	0.105	691295	keystroke_o	o	n/a
345.8125	0.105	691625	keystroke_x	x	n/a
345.9475	0.1055	691895	keystroke_Key.enter	Key.enter	n/a
346.0575	4.542	692115	prompt	n/a	silly those're zoom mating\n
346.638	0.09	693276	keystroke_s	s	n/a
346.698	0.12	693396	keystroke_i	i	n/a
346.788	0.06	693576	keystroke_l	l	n/a
346.923	0.075	693846	keystroke_l	l	n/a
347.013	0.105	694026	keystroke_y	y	n/a
347.103	0.075	694206	keystroke_Key.space	Key.space	n/a
347.223	0.09	694446	keystroke_t	t	n/a
347.268	0.075	694536	keystroke_h	h	n/a
347.403	0.105	694806	keystroke_o	o	n/a
347.493	0.12	694986	keystroke_s	s	n/a
347.538	0.12	695076	keystroke_e	e	n/a
347.733	0.09	695466	keystroke_;	;	n/a
348.453	0.09	696906	keystroke_Key.backspace	Key.backspace	n/a
348.708	0.12	697416	keystroke_'	'	n/a
348.858	0.12	697716	keystroke_r	r	n/a
348.918	0.105	697836	keystroke_e	e	n/a
349.008	0.12	698016	keystroke_Key.space	Key.space	n/a
349.563	0.105	699126	keystroke_z	z	n/a
349.638	0.06	699276	keystroke_o	o	n/a
349.7725	0.105	699545	keystroke_o	o	n/a
349.8325	0.105	699665	keystroke_m	m	n/a
349.8925	0.105	699785	keystroke_Key.space	Key.space	n/a
350.0275	0.12	700055	keystroke_m	m	n/a
350.1175	0.0905	700235	keystroke_a	a	n/a
350.163	0.105	700326	keystroke_t	t	n/a
350.223	0.12	700446	keystroke_i	i	n/a
350.298	0.105	700596	keystroke_n	n	n/a
350.373	0.105	700746	keystroke_g	g	n/a
350.508	0.09	701016	keystroke_Key.enter	Key.enter	n/a
350.6045	6.97	701209	prompt	n/a	radar chrysler programmer hydrogen\n
351.288	0.12	702576	keystroke_r	r	n/a
351.423	0.105	702846	keystroke_a	a	n/a
351.5435	0.1045	703087	keystroke_d	d	n/a
351.633	0.1055	703266	keystroke_a	a	n/a
351.7535	0.1045	703507	keystroke_r	r	n/a
351.843	0.105	703686	keystroke_Key.space	Key.space	n/a
352.038	0.09	704076	keystroke_c	c	n/a
352.368	0.0895	704736	keystroke_h	h	n/a
353.1475	0.09	706295	keystroke_r	r	n/a
353.2675	0.105	706535	keystroke_y	y	n/a
353.6725	0.09	707345	keystroke_s	s	n/a
353.8225	0.1505	707645	keystroke_l	l	n/a
353.9885	0.104	707977	keystroke_e	e	n/a
354.0325	0.135	708065	keystroke_r	r	n/a
354.2125	0.1355	708425	keystroke_Key.space	Key.space	n/a
354.663	0.105	709326	keystroke_p	p	n/a
354.813	0.105	709626	keystroke_r	r	n/a
354.933	0.105	709866	keystroke_o	o	n/a
355.023	0.06	710046	keystroke_g	g	n/a
355.158	0.12	710316	keystroke_r	r	n/a
355.218	0.105	710436	keystroke_a	a	n/a
355.293	0.06	710586	keystroke_m	m	n/a
355.428	0.09	710856	keystroke_m	m	n/a
355.473	0.12	710946	keystroke_e	e	n/a
355.533	0.12	711066	keystroke_r	r	n/a
355.623	0.12	711246	keystroke_Key.space	Key.space	n/a
356.073	0.09	712146	keystroke_h	h	n/a
356.313	0.09	712626	keystroke_y	y	n/a
356.388	0.075	712776	keystroke_d	d	n/a
356.538	0.09	713076	keystroke_r	r	n/a
356.613	0.105	713226	keystroke_o	o	n/a
356.793	0.09	713586	keystroke_g	g	n/a
356.853	0.12	713706	keystroke_e	e	n/a
357.228	0.09	714456	keystroke_n	n	n/a
357.468	0.105	714936	keystroke_Key.enter	Key.enter	n/a
357.577	2.967	715154	prompt	n/a	justin country cape mentor\n
358.248	0.165	716496	keystroke_j	j	n/a
358.353	0.09	716706	keystroke_u	u	n/a
358.413	0.06	716826	keystroke_s	s	n/a
358.428	0.105	716856	keystroke_t	t	n/a
358.518	0.12	717036	keystroke_i	i	n/a
358.608	0.105	717216	keystroke_n	n	n/a
358.668	0.105	717336	keystroke_Key.space	Key.space	n/a
358.773	0.075	717546	keystroke_c	c	n/a
358.818	0.105	717636	keystroke_o	o	n/a
358.893	0.06	717786	keystroke_u	u	n/a
359.028	0.105	718056	keystroke_n	n	n/a
359.088	0.075	718176	keystroke_t	t	n/a
359.148	0.18	718296	keystroke_r	r	n/a
359.238	0.105	718476	keystroke_y	y	n/a
359.328	0.06	718656	keystroke_Key.space	Key.space	n/a
359.478	0.105	718956	keystroke_c	c	n/a
359.508	0.105	719016	keystroke_a	a	n/a
359.583	0.09	719166	keystroke_p	p	n/a
359.703	0.09	719406	keystroke_e	e	n/a
359.748	0.09	719496	keystroke_Key.space	Key.space	n/a
359.868	0.12	719736	keystroke_m	m	n/a
360.018	0.1195	720036	keystroke_e	e	n/a
360.1225	0.105	720245	keystroke_n	n	n/a
360.2125	0.075	720425	keystroke_t	t	n/a
360.3025	0.09	720605	keystroke_o	o	n/a
360.3775	0.105	720755	keystroke_r	r	n/a
360.4525	0.09	720905	keystroke_Key.enter	Key.enter	n/a
360.5475	3.792	721095	prompt	n/a	prozac teams imaging tons\n
361.233	0.09	722466	keystroke_p	p	n/a
361.323	0.09	722646	keystroke_r	r	n/a
361.458	0.09	722916	keystroke_o	o	n/a
361.923	0.0895	723846	keystroke_z	z	n/a
362.1325	0.105	724265	keystroke_a	a	n/a
362.1935	0.134	724387	keystroke_c	c	n/a
362.3125	0.12	724625	keystroke_Key.space	Key.space	n/a
362.4775	0.075	724955	keystroke_t	t	n/a
362.6275	0.105	725255	keystroke_e	e	n/a
362.6725	0.09	725345	keystroke_a	a	n/a
362.7475	0.121	725495	keystroke_m	m	n/a
362.8225	0.09	725645	keystroke_s	s	n/a
362.9275	0.091	725855	keystroke_Key.space	Key.space	n/a
363.3035	0.074	726607	keystroke_i	i	n/a
363.4375	0.105	726875	keystroke_m	m	n/a
363.5135	0.089	727027	keystroke_a	a	n/a
363.5575	0.09	727115	keystroke_g	g	n/a
363.6185	0.104	727237	keystroke_i	i	n/a
363.6775	0.105	727355	keystroke_n	n	n/a
363.7525	0.09	727505	keystroke_g	g	n/a
363.8275	0.09	727655	keystroke_Key.space	Key.space	n/a
363.9185	0.089	727837	keystroke_t	t	n/a
363.9775	0.075	727955	keystroke_o	o	n/a
364.0975	0.09	728195	keystroke_n	n	n/a
